File: 01_Data/NFPA_1981-2019_SCBA_Lens/STA/N2/10K_min/NFPA_1981-2019_SCBA_Lens_STA_N2_10KData_241112_R1.csv
Temp./C,Time/min,DSC/(mW/mg),Mass loss/mg
35.0,0.0,0.724444,0.0198263
35.6,0.0718397,0.738669,0.0187455
36.2,0.141764,0.745522,0.0176831
36.8,0.211529,0.764959,0.0168823
37.4,0.281072,0.772905,0.0187888
38,0.34688,0.783083,0.019427
38.6,0.418263,0.791973,0.0194336
39.2,0.485327,0.800301,0.0177285
39.8,0.551784,0.804722,0.0190647
40.4,0.620783,0.814806,0.0184379
41,0.687761,0.825737,0.0174564
41.6,0.752299,0.83106,0.0174489
42.2,0.819952,0.835697,0.0174475
42.8,0.88531,0.842117,0.0190062
43.4,0.950819,0.84139,0.0209063
44,1.01679,0.847907,0.0199596
44.6,1.08232,0.854407,0.0181001
45.2,1.14856,0.862085,0.0171385
45.8,1.21311,0.865587,0.0195898
46.4,1.27815,0.871251,0.0180005
47,1.34337,0.87904,0.0208476
47.6,1.40528,0.88097,0.0180276
48.2,1.47178,0.888063,0.0169337
48.8,1.53582,0.89617,0.0182992
49.4,1.59947,0.896455,0.0188975
50,1.66246,0.904067,0.018867
50.6,1.72718,0.91021,0.0185763
51.2,1.78891,0.915603,0.0187743
51.8,1.85356,0.918776,0.0200896
52.4,1.91564,0.928653,0.0200418
53,1.98019,0.930606,0.0172413
53.6,2.04288,0.932526,0.0185676
54.2,2.10442,0.943603,0.0185601
54.8,2.1674,0.93921,0.0184397
55.4,2.23039,0.945085,0.0176674
56,2.29302,0.949403,0.0176702
56.6,2.35506,0.956902,0.0148177
57.2,2.41788,0.96372,0.0176142
57.8,2.47892,0.96811,0.0202551
58.4,2.54101,0.974446,0.01932
59,2.60123,0.983068,0.01932
59.6,2.66322,0.98713,0.0207493
60.2,2.72494,0.987713,0.0180832
60.8,2.78818,0.998497,0.017574
61.4,2.84809,0.996823,0.017205
62,2.90911,0.999265,0.0165797
62.6,2.97147,0.999937,0.0165697
63.2,3.02934,1.01412,0.0169195
63.8,3.09244,1.00947,0.0167981
64.4,3.1536,1.00967,0.0188506
65,3.21442,1.0191,0.01823
65.6,3.27439,1.02379,0.0169119
66.2,3.33483,1.02851,0.0173063
66.8,3.39541,1.02256,0.0157117
67.4,3.45717,1.02914,0.01679
68,3.5173,1.03888,0.0172584
68.6,3.57626,1.04357,0.0183162
69.2,3.6388,1.03588,0.0183398
69.8,3.69697,1.05597,0.01976
70.4,3.75624,1.05106,0.01976
71,3.81732,1.0559,0.0197588
71.6,3.8785,1.05732,0.0211908
72.2,3.93866,1.06577,0.01965
72.8,3.99848,1.06329,0.0170108
73.4,4.05702,1.06194,0.0183302
74,4.11727,1.05981,0.0169
74.6,4.17837,1.06971,0.0167331
75.2,4.23768,1.07292,0.0168
75.8,4.29706,1.07283,0.0154829
76.4,4.3563,1.07836,0.01647
77,4.41869,1.08052,0.0168008
77.6,4.47762,1.07842,0.0168882
78.2,4.53773,1.07656,0.0179138
78.8,4.59427,1.07717,0.0196458
79.4,4.65559,1.07856,0.01833
80,4.71415,1.0821,0.0175664
80.6,4.77502,1.08232,0.0183199
81.2,4.83376,1.08743,0.0180365
81.8,4.8933,1.08173,0.01834
82.4,4.95156,1.08598,0.0183363
83,5.01206,1.09477,0.0168028
83.6,5.07111,1.09936,0.01812
84.2,5.12628,1.10234,0.0181199
84.8,5.18953,1.10118,0.0179209
85.4,5.2489,1.11026,0.0166805
86,5.30673,1.10734,0.01602
86.6,5.36671,1.11333,0.01602
87.2,5.42518,1.10496,0.0160189
87.8,5.48426,1.11064,0.0160893
88.4,5.54337,1.11425,0.01636
89,5.60253,1.11933,0.0174431
89.6,5.66281,1.12377,0.0187802
90.2,5.71985,1.12708,0.0172327
90.8,5.77925,1.12365,0.0151264
91.4,5.83859,1.12842,0.0161354
92,5.89748,1.1345,0.0171279
92.6,5.95567,1.13614,0.0161399
93.2,6.01605,1.13835,0.0161438
93.8,6.07484,1.14275,0.0171124
94.4,6.13214,1.14574,0.01745
95,6.19073,1.1483,0.018697
95.6,6.25044,1.15207,0.0188079
96.2,6.30909,1.16462,0.0188796
96.8,6.36456,1.1735,0.01888
97.4,6.42685,1.17334,0.0182305
98,6.48153,1.17124,0.0163277
98.6,6.54235,1.17886,0.016138
99.2,6.60119,1.17951,0.01746
99.8,6.6588,1.18525,0.017322
100.4,6.71749,1.18563,0.01515
101,6.77548,1.19339,0.0164601
101.6,6.83495,1.19496,0.017779
102.2,6.89356,1.19162,0.0154709
102.8,6.95076,1.19895,0.0166801
103.4,7.00972,1.20286,0.0181097
104,7.068,1.211,0.01811
104.6,7.12667,1.21009,0.01811
105.2,7.18055,1.20998,0.01811
105.8,7.24285,1.21288,0.01811
106.4,7.30097,1.21682,0.0180059
107,7.35967,1.21831,0.0168
107.6,7.41796,1.2205,0.0168002
108.2,7.47734,1.21965,0.01812
108.8,7.53188,1.22196,0.0181198
109.4,7.59247,1.21913,0.0194302
110,7.64814,1.2285,0.0194182
110.6,7.70671,1.23143,0.01789
111.2,7.76764,1.23431,0.01789
111.8,7.82422,1.24592,0.0178626
112.4,7.88337,1.23857,0.01657
113,7.94224,1.24862,0.0179992
113.6,8.00071,1.2475,0.0166796
114.2,8.05869,1.24974,0.0179843
114.8,8.11586,1.25753,0.0173088
115.4,8.17492,1.25524,0.01658
116,8.23359,1.26188,0.01658
116.6,8.29087,1.25724,0.0175861
117.2,8.34986,1.26115,0.0179
117.8,8.40848,1.26489,0.0179009
118.4,8.46596,1.26709,0.0174812
119,8.52424,1.26784,0.0168
119.6,8.5815,1.28403,0.0181115
120.2,8.64037,1.27738,0.0167905
120.8,8.69873,1.28497,0.01811
121.4,8.75701,1.28808,0.0181099
122,8.81486,1.28721,0.0155011
122.6,8.87288,1.2901,0.01745
123.2,8.93031,1.29732,0.0181073
123.8,8.98857,1.30305,0.01811
124.4,9.04564,1.30399,0.0176865
125,9.10116,1.31402,0.017968
125.6,9.15909,1.31689,0.0154792
126.2,9.22053,1.31819,0.0170101
126.8,9.27539,1.31678,0.0170164
127.4,9.33489,1.31978,0.0169674
128,9.39348,1.32644,0.01702
128.6,9.45073,1.33749,0.0171685
129.2,9.50828,1.3312,0.0175861
129.8,9.56719,1.33457,0.01713
130.4,9.6257,1.33752,0.0185058
131,9.68254,1.3393,0.01844
131.6,9.73997,1.33941,0.01844
132.2,9.79882,1.34814,0.0174021
132.8,9.85594,1.34489,0.0171867
133.4,9.91304,1.34395,0.0168555
134,9.97104,1.35066,0.0162997
134.6,10.0289,1.35283,0.01602
135.2,10.0872,1.35166,0.01602
135.8,10.1439,1.35763,0.01602
136.4,10.2026,1.35834,0.01602
137,10.2591,1.35698,0.01602
137.6,10.3186,1.35419,0.0146979
138.2,10.3744,1.3631,0.01318
138.8,10.4327,1.36579,0.0145327
139.4,10.4906,1.3682,0.0161399
140,10.547,1.37367,0.0161719
140.6,10.606,1.37529,0.0175017
141.2,10.6628,1.37865,0.01746
141.8,10.7196,1.38153,0.0173772
142.4,10.7787,1.384,0.0184392
143,10.8359,1.39448,0.01746
143.6,10.8928,1.39576,0.017471
144.2,10.9496,1.39815,0.01888
144.8,11.0075,1.39321,0.0203093
145.4,11.064,1.40023,0.0226035
146,11.1223,1.40282,0.0201838
146.6,11.1799,1.40434,0.0168986
147.2,11.2368,1.40566,0.0140743
147.8,11.294,1.40275,0.0130912
148.4,11.3528,1.41366,0.0140499
149,11.4096,1.40786,0.0127302
149.6,11.4665,1.41017,0.0142081
150.2,11.5244,1.41439,0.0155944
150.8,11.5824,1.416,0.016345
151.4,11.6381,1.42438,0.01635
152,11.6956,1.41861,0.015041
152.6,11.7535,1.42595,0.01372
153.2,11.8113,1.42883,0.0137201
153.8,11.8684,1.43366,0.0155849
154.4,11.9238,1.43731,0.0171299
155,11.9825,1.44084,0.01713
155.6,12.0393,1.44497,0.0171296
156.2,12.0951,1.44735,0.01614
156.8,12.1538,1.44925,0.01614
157.4,12.2111,1.45833,0.0174594
158,12.2677,1.45728,0.0174609
158.6,12.3256,1.45414,0.0150277
159.2,12.3832,1.45567,0.0147095
159.8,12.4393,1.46201,0.0147099
160.4,12.4963,1.45983,0.0143799
161,12.553,1.46082,0.0137007
161.6,12.6105,1.46496,0.0157178
162.2,12.6674,1.46578,0.0172301
162.8,12.7232,1.4697,0.0158749
163.4,12.7822,1.46759,0.0154241
164,12.8388,1.47104,0.0136104
164.6,12.895,1.48298,0.0135864
165.2,12.9524,1.48271,0.0149419
165.8,13.0096,1.4885,0.01558
166.4,13.0656,1.48676,0.0155808
167,13.1235,1.49136,0.0159244
167.6,13.1805,1.48765,0.0171408
168.2,13.2374,1.49614,0.01581
168.8,13.2953,1.49146,0.01581
169.4,13.3522,1.4888,0.0145483
170,13.4094,1.49725,0.01449
170.6,13.4653,1.50083,0.01449
171.2,13.523,1.49981,0.0144915
171.8,13.5794,1.50574,0.0147091
172.4,13.6366,1.50892,0.014705
173,13.6944,1.51091,0.0173598
173.6,13.7517,1.52229,0.0181109
174.2,13.8081,1.52265,0.0173631
174.8,13.8652,1.52843,0.0173492
175.4,13.9227,1.52633,0.0157
176,13.9789,1.53085,0.0157
176.6,14.0365,1.52771,0.0157017
177.2,14.0929,1.52618,0.0138415
177.8,14.1502,1.52602,0.01295
178.4,14.2079,1.5377,0.0143849
179,14.2648,1.53033,0.01438
179.6,14.3215,1.53048,0.0133897
180.2,14.3788,1.53539,0.0132362
180.8,14.4353,1.53889,0.0142902
181.4,14.4924,1.54349,0.0143813
182,14.5488,1.53968,0.01438
182.6,14.6028,1.54109,0.01438
183.2,14.6617,1.54929,0.01438
183.8,14.7199,1.54389,0.01438
184.4,14.776,1.55128,0.0156947
185,14.8329,1.54765,0.0131714
185.6,14.8902,1.55152,0.0128499
186.2,14.9469,1.55571,0.0141603
186.8,15.0037,1.55228,0.0167832
187.4,15.06,1.56099,0.0162401
188,15.1172,1.56525,0.01624
188.6,15.1738,1.55951,0.0162399
189.2,15.231,1.56234,0.0149303
189.8,15.2879,1.56145,0.01493
190.4,15.345,1.56691,0.01493
191,15.4015,1.56291,0.01493
191.6,15.4586,1.56543,0.0162399
192.2,15.5156,1.5687,0.0149296
192.8,15.5716,1.56567,0.0166869
193.4,15.6289,1.57451,0.0165337
194,15.6852,1.57583,0.013642
194.6,15.7425,1.57768,0.01339
195.2,15.8003,1.57784,0.01339
195.8,15.8562,1.58241,0.01339
196.4,15.9125,1.59256,0.0133908
197,15.9697,1.58954,0.01471
197.6,16.0261,1.59829,0.0147059
198.2,16.0846,1.60112,0.0160431
198.8,16.1407,1.60681,0.0173522
199.4,16.1978,1.61304,0.0157024
200,16.2546,1.62766,0.01471
200.6,16.3126,1.6366,0.0147074
201.2,16.369,1.64119,0.01372
201.8,16.4255,1.6523,0.01372
202.4,16.4834,1.67539,0.01372
203,16.5406,1.67241,0.01339
203.6,16.5974,1.68719,0.0143583
204.2,16.6537,1.70513,0.01438
204.8,16.7115,1.72428,0.0131629
205.4,16.7687,1.74329,0.0143801
206,16.8261,1.75284,0.01438
206.6,16.8827,1.7654,0.0147098
207.2,16.9397,1.7762,0.016028
207.8,16.9968,1.79205,0.0147105
208.4,17.0549,1.80085,0.015856
209,17.1109,1.81258,0.0160296
209.6,17.1663,1.81615,0.0175601
210.2,17.2226,1.80851,0.0189149
210.8,17.2808,1.8162,0.01757
211.4,17.3375,1.81295,0.016295
212,17.396,1.80815,0.0155256
212.6,17.4529,1.80966,0.0141285
213.2,17.51,1.80377,0.0130966
213.8,17.5661,1.80536,0.0118597
214.4,17.6233,1.81035,0.013537
215,17.6806,1.80446,0.01219
215.6,17.7364,1.80603,0.0122042
216.2,17.794,1.8078,0.01351
216.8,17.8499,1.80607,0.01351
217.4,17.907,1.80496,0.01351
218,17.9644,1.80445,0.01351
218.6,18.0217,1.81493,0.013517
219.2,18.0788,1.82084,0.0162457
219.8,18.1352,1.82031,0.0162186
220.4,18.1925,1.81917,0.01658
221,18.2483,1.82146,0.0165698
221.6,18.3058,1.8196,0.01526
222.2,18.3629,1.81609,0.0152695
222.8,18.4197,1.81884,0.0152601
223.4,18.4765,1.82466,0.0152583
224,18.5325,1.82388,0.012472
224.6,18.588,1.82358,0.01252
225.2,18.6468,1.83282,0.0125261
225.8,18.7039,1.8235,0.0142915
226.4,18.7603,1.82908,0.01427
227,18.8178,1.83764,0.0142715
227.6,18.8737,1.83516,0.0145999
228.2,18.9308,1.84085,0.0139398
228.8,18.9869,1.83676,0.015204
229.4,19.0443,1.84707,0.0129498
230,19.1008,1.8428,0.0136099
230.6,19.158,1.84153,0.01361
231.2,19.2147,1.84381,0.01361
231.8,19.2711,1.84268,0.01361
232.4,19.3276,1.84321,0.0149389
233,19.3832,1.83781,0.0123097
233.6,19.4409,1.84768,0.0138297
234.2,19.4993,1.84038,0.0138351
234.8,19.5548,1.84993,0.0137311
235.4,19.6121,1.85031,0.01372
236,19.6688,1.8478,0.01372
236.6,19.7258,1.8485,0.0147103
237.2,19.7827,1.84867,0.0150034
237.8,19.8393,1.84551,0.0144335
238.4,19.8967,1.8462,0.0150446
239,19.9545,1.85233,0.0140134
239.6,20.0083,1.84651,0.0137258
240.2,20.0677,1.84521,0.0127724
240.8,20.1249,1.85419,0.01219
241.4,20.1802,1.85136,0.0121926
242,20.2381,1.85694,0.0109346
242.6,20.2942,1.85482,0.01339
243.2,20.3507,1.85654,0.0147113
243.8,20.4081,1.85538,0.0132767
244.4,20.4643,1.8579,0.0145995
245,20.522,1.85572,0.0135527
245.6,20.5787,1.85564,0.01471
246.2,20.6347,1.86034,0.0156111
246.8,20.69,1.85729,0.0157
247.4,20.747,1.86404,0.0143853
248,20.8062,1.8621,0.0131828
248.6,20.862,1.85899,0.0143171
249.2,20.9163,1.85841,0.0156833
249.8,20.9759,1.86162,0.01438
250.4,21.0327,1.865,0.01438
251,21.0902,1.86799,0.0152124
251.6,21.1475,1.86237,0.0128501
252.2,21.2044,1.86397,0.014147
252.8,21.26,1.86099,0.01416
253.4,21.3177,1.87106,0.0128381
254,21.3744,1.86612,0.0129601
254.6,21.4312,1.8681,0.0136746
255.2,21.4878,1.86224,0.0136979
255.8,21.5435,1.86064,0.0126283
256.4,21.6007,1.86538,0.0138957
257,21.6573,1.86248,0.01263
257.6,21.7147,1.8669,0.0129085
258.2,21.7709,1.86249,0.01394
258.8,21.8283,1.86459,0.01394
259.4,21.8845,1.86308,0.0126358
260,21.9421,1.85859,0.01296
260.6,21.9988,1.85854,0.0125767
261.2,22.0559,1.86612,0.011613
261.8,22.1128,1.86746,0.0142282
262.4,22.1687,1.86725,0.01449
263,22.2262,1.85758,0.0144933
263.6,22.2833,1.85918,0.01307
264.2,22.3407,1.86017,0.0117476
264.8,22.3972,1.86566,0.0131734
265.4,22.4545,1.87004,0.01317
266,22.512,1.87038,0.01317
266.6,22.5699,1.86558,0.01317
267.2,22.627,1.87046,0.01317
267.8,22.6826,1.87202,0.0145026
268.4,22.7394,1.87582,0.0129123
269,22.7979,1.87287,0.01317
269.6,22.8542,1.87531,0.0144782
270.2,22.911,1.87627,0.01317
270.8,22.9685,1.8694,0.0131286
271.4,23.0247,1.86725,0.01186
272,23.0827,1.87023,0.01186
272.6,23.1378,1.86691,0.0131195
273.2,23.1966,1.87253,0.0132887
273.8,23.253,1.87294,0.0142785
274.4,23.3103,1.87407,0.0141214
275,23.3688,1.87607,0.01328
275.6,23.4254,1.87514,0.01328
276.2,23.4827,1.87156,0.01328
276.8,23.5398,1.87648,0.01328
277.4,23.596,1.87679,0.0137033
278,23.653,1.87539,0.0121815
278.6,23.7084,1.8844,0.01218
279.2,23.7666,1.88327,0.012996
279.8,23.8243,1.89023,0.0108667
280.4,23.8809,1.88223,0.0118961
281,23.9375,1.8843,0.0135013
281.6,23.9953,1.88284,0.013501
282.2,24.052,1.87969,0.0121925
282.8,24.1086,1.88357,0.0129906
283.4,24.1658,1.88577,0.01219
284,24.2232,1.88387,0.0115531
284.6,24.2805,1.88603,0.0121583
285.2,24.338,1.88536,0.01284
285.8,24.3938,1.8896,0.01284
286.4,24.4523,1.88982,0.01284
287,24.5076,1.88322,0.01284
287.6,24.5656,1.88203,0.01284
288.2,24.6234,1.8793,0.01284
288.8,24.6802,1.88284,0.0134997
289.4,24.7374,1.88508,0.0120561
290,24.7942,1.88489,0.0133899
290.6,24.8507,1.88201,0.0157962
291.2,24.9087,1.88571,0.0161399
291.8,24.9651,1.89224,0.01746
292.4,25.0219,1.88693,0.0165052
293,25.0789,1.88446,0.0147033
293.6,25.1361,1.88373,0.0146995
294.2,25.1935,1.87291,0.0133806
294.8,25.2514,1.8828,0.0107991
295.4,25.309,1.87891,0.011838
296,25.3664,1.87936,0.01054
296.6,25.4227,1.87991,0.01054
297.2,25.4799,1.88483,0.0122353
297.8,25.5371,1.88632,0.0134
298.4,25.5943,1.88068,0.0134
299,25.6521,1.87927,0.0134
299.6,25.7068,1.88024,0.0120827
300.2,25.7661,1.87127,0.0120832
300.8,25.8234,1.8669,0.01076
301.4,25.8809,1.87383,0.0109311
302,25.9386,1.87011,0.0128622
302.6,25.9948,1.87492,0.0134857
303.2,26.0518,1.87416,0.01503
303.8,26.1101,1.86995,0.0148407
304.4,26.1669,1.87973,0.0110379
305,26.2239,1.87078,0.0132883
305.6,26.2801,1.87244,0.0122986
306.2,26.3389,1.87487,0.01362
306.8,26.3968,1.87542,0.014968
307.4,26.4531,1.87294,0.0136223
308,26.5108,1.86818,0.01362
308.6,26.5686,1.874,0.0149365
309.2,26.6253,1.8759,0.0136991
309.8,26.6832,1.87916,0.0130703
310.4,26.7395,1.87372,0.01175
311,26.7957,1.88587,0.01175
311.6,26.8549,1.88041,0.01175
312.2,26.9115,1.88432,0.0123149
312.8,26.969,1.8836,0.013916
313.4,27.025,1.88069,0.0127727
314,27.0843,1.87925,0.0127288
314.6,27.1412,1.88035,0.01405
315.2,27.1978,1.88374,0.0127432
315.8,27.2557,1.87893,0.0115912
316.4,27.3123,1.87976,0.0130517
317,27.37,1.87618,0.01306
317.6,27.4275,1.88291,0.0130568
318.2,27.4842,1.88385,0.012484
318.8,27.5418,1.88954,0.01318
319.4,27.6004,1.89239,0.0144899
320,27.6569,1.88372,0.0134999
320.6,27.7137,1.87852,0.0119512
321.2,27.7721,1.87902,0.0118988
321.8,27.8292,1.88365,0.00839617
322.4,27.8864,1.8823,0.0120733
323,27.9436,1.88769,0.0120028
323.6,28.0008,1.89001,0.0136846
324.2,28.0586,1.89125,0.0145919
324.8,28.1148,1.88249,0.0146
325.4,28.1736,1.87878,0.0142959
326,28.2312,1.87872,0.01317
326.6,28.2876,1.88762,0.0131698
327.2,28.3463,1.88182,0.0145197
327.8,28.4024,1.87942,0.0131684
328.4,28.4607,1.88179,0.0132365
329,28.5158,1.87425,0.0134404
329.6,28.5744,1.87468,0.0120533
330.2,28.6332,1.87444,0.011431
330.8,28.6917,1.87391,0.013097
331.4,28.7484,1.86997,0.0117431
332,28.8063,1.87023,0.0117404
332.6,28.8637,1.87848,0.0103101
333.2,28.9216,1.87494,0.01031
333.8,28.9794,1.87782,0.01031
334.4,29.0371,1.87551,0.0108459
335,29.0933,1.86617,0.0129505
335.6,29.1523,1.86891,0.0111996
336.2,29.2083,1.87646,0.010204
336.8,29.2644,1.87591,0.0128479
337.4,29.3244,1.87186,0.0111905
338,29.3821,1.86915,0.0125233
338.6,29.4401,1.87056,0.0121554
339.2,29.4977,1.86868,0.0117733
339.8,29.5554,1.86462,0.0138288
340.4,29.6118,1.86323,0.0123864
341,29.6704,1.86975,0.0127344
341.6,29.7278,1.86389,0.0136773
342.2,29.7856,1.86335,0.0124018
342.8,29.843,1.85976,0.01097
343.4,29.9019,1.86199,0.01097
344,29.9594,1.86139,0.0123133
344.6,30.0171,1.8649,0.01229
345.2,30.0732,1.86267,0.01097
345.8,30.133,1.8659,0.0109715
346.4,30.1908,1.86566,0.00965001
347,30.2481,1.86704,0.00965008
347.6,30.3054,1.86324,0.00965451
348.2,30.3624,1.86132,0.00834008
348.8,30.4217,1.86298,0.0103327
349.4,30.4792,1.8544,0.00954304
350,30.5371,1.8526,0.00955
350.6,30.595,1.85535,0.00960548
351.2,30.6526,1.85696,0.0106112
351.8,30.7097,1.85554,0.0102101
352.4,30.7678,1.85353,0.00955023
353,30.8249,1.85774,0.01021
353.6,30.8826,1.84479,0.0102094
354.2,30.9409,1.84431,0.00867009
354.8,30.9987,1.8456,0.00867
355.4,31.0566,1.84127,0.00867019
356,31.1147,1.83707,0.00735384
356.6,31.1724,1.8446,0.00867006
357.2,31.2301,1.84065,0.00964234
357.8,31.2884,1.84343,0.0086699
358.4,31.3463,1.83897,0.00867
359,31.4035,1.84101,0.00868993
359.6,31.462,1.83422,0.00991047
360.2,31.5187,1.83902,0.0103252
360.8,31.5777,1.84106,0.01032
361.4,31.6343,1.83095,0.01032
362,31.6925,1.83047,0.01032
362.6,31.7501,1.82853,0.00935702
363.2,31.8087,1.82534,0.0103173
363.8,31.8665,1.83461,0.01032
364.4,31.9232,1.83028,0.01032
365,31.9813,1.83089,0.010321
365.6,32.0393,1.8197,0.00872722
366.2,32.0956,1.83115,0.0118596
366.8,32.155,1.82372,0.01186
367.4,32.2128,1.81744,0.0118534
368,32.2709,1.82049,0.0105036
368.6,32.3288,1.82578,0.00922002
369.2,32.3869,1.82164,0.00761026
369.8,32.4436,1.81789,0.00669423
370.4,32.5023,1.81223,0.00527
371,32.558,1.80818,0.00394784
371.6,32.6171,1.81116,0.00389147
372.2,32.6756,1.81599,0.00527345
372.8,32.7338,1.81112,0.00681
373.4,32.7911,1.80979,0.00812096
374,32.8486,1.80792,0.00812
374.6,32.9079,1.80597,0.00812
375.2,32.9654,1.8104,0.00812
375.8,33.0232,1.80422,0.0078134
376.4,33.082,1.80513,0.00681
377,33.1394,1.80504,0.00681
377.6,33.1984,1.79907,0.00792839
378.2,33.2535,1.80058,0.00705255
378.8,33.3145,1.79869,0.00692552
379.4,33.372,1.79358,0.00538304
380,33.4295,1.79722,0.00683181
380.6,33.4877,1.80065,0.00749657
381.2,33.5457,1.79473,0.00625545
381.8,33.6031,1.79454,0.00592964
382.4,33.6595,1.79541,0.00593
383,33.7197,1.79824,0.0052336
383.6,33.7785,1.79524,0.00461
384.2,33.8358,1.79456,0.00461017
384.8,33.8939,1.79046,0.00395001
385.4,33.9502,1.7872,0.00395
386,34.0102,1.78855,0.00395096
386.6,34.0684,1.78605,0.00527
387.2,34.1257,1.79179,0.00394877
387.8,34.1842,1.78893,0.00526999
388.4,34.2424,1.78459,0.00557996
389,34.3016,1.7942,0.00462193
389.6,34.3596,1.79119,0.00612543
390.2,34.4169,1.78878,0.00325238
390.8,34.4748,1.78425,0.0033
391.4,34.5327,1.78354,0.0033
392,34.5895,1.77492,0.0033
392.6,34.6499,1.77414,0.00211351
393.2,34.7076,1.77688,0.00187
393.8,34.7657,1.77637,0.00187005
394.4,34.8238,1.78166,0.00308001
395,34.8826,1.776,0.00463343
395.6,34.9403,1.77417,0.00462521
396.2,34.9963,1.76943,0.00361999
396.8,35.0569,1.76786,0.00230906
397.4,35.1153,1.77458,0.00373
398,35.173,1.77143,0.00373
398.6,35.2324,1.76645,0.00236499
399.2,35.29,1.76223,0.0023
399.8,35.3458,1.76362,0.000946274
400.4,35.4062,1.76409,-0.000616422
401,35.4648,1.76062,-0.00175004
401.6,35.5227,1.75213,-0.00287459
402.2,35.5813,1.75399,-0.00187
402.8,35.6396,1.7639,-0.000514785
403.4,35.6986,1.76155,0.00099
404,35.7562,1.76685,0.000991162
404.6,35.8149,1.7643,-0.00186507
405.2,35.8739,1.75201,-0.000546802
405.8,35.9325,1.74923,0.00015135
406.4,35.9899,1.75424,-0.0011002
407,36.0486,1.74994,-0.00242757
407.6,36.1067,1.74556,-0.00396
408.2,36.1654,1.74262,-0.00546802
408.8,36.2235,1.74474,-0.00427044
409.4,36.282,1.74083,-0.0055983
410,36.3404,1.73699,-0.00613059
410.6,36.3983,1.7299,-0.00714
411.2,36.456,1.73593,-0.00679814
411.8,36.5152,1.72918,-0.0044911
412.4,36.574,1.72727,-0.00426234
413,36.6315,1.73275,-0.00428
413.6,36.6897,1.73432,-0.00431487
414.2,36.7477,1.73113,-0.00713593
414.8,36.8069,1.73004,-0.00714
415.4,36.8642,1.72844,-0.00714
416,36.9231,1.73784,-0.00846338
416.6,36.9814,1.72177,-0.00846
417.2,37.0395,1.73012,-0.00846272
417.8,37.0982,1.72733,-0.0111932
418.4,37.1566,1.72921,-0.00988002
419,37.2153,1.73475,-0.0112017
419.6,37.273,1.73743,-0.00988054
420.2,37.332,1.73763,-0.00987998
420.8,37.3894,1.74255,-0.0119982
421.4,37.4488,1.74927,-0.0120818
422,37.5064,1.75365,-0.0138798
422.6,37.5651,1.75473,-0.0130856
423.2,37.6215,1.75577,-0.01306
423.8,37.6823,1.77219,-0.01306
424.4,37.7401,1.78856,-0.0130579
425,37.7978,1.80915,-0.0144053
425.6,37.8565,1.81336,-0.0140499
426.2,37.9149,1.8308,-0.012943
426.8,37.9737,1.83606,-0.0142778
427.4,38.0329,1.85094,-0.016908
428,38.0917,1.86329,-0.0183273
428.6,38.1494,1.86375,-0.0209676
429.2,38.2071,1.88297,-0.0226147
429.8,38.2653,1.91514,-0.02262
430.4,38.3254,1.9485,-0.0239287
431,38.3831,2.01646,-0.0242977
431.6,38.442,2.0667,-0.02371
432.2,38.5004,2.09746,-0.0250362
432.8,38.5599,2.1208,-0.0253451
433.4,38.6174,2.13322,-0.02689
434,38.6758,2.15037,-0.0284039
434.6,38.7351,2.16966,-0.0284308
435.2,38.794,2.19072,-0.02876
435.8,38.8527,2.21313,-0.0301479
436.4,38.9105,2.21931,-0.0302003
437,38.9699,2.23339,-0.0321935
437.6,39.0287,2.24156,-0.0317113
438.2,39.0876,2.26499,-0.0334736
438.8,39.146,2.27833,-0.0339641
439.4,39.2045,2.31098,-0.0342693
440,39.2625,2.31553,-0.0374287
440.6,39.322,2.33672,-0.0392835
441.2,39.3812,2.3511,-0.0420577
441.8,39.4402,2.3662,-0.0429182
442.4,39.499,2.37575,-0.0445602
443,39.5574,2.39446,-0.046424
443.6,39.6168,2.40327,-0.0466462
444.2,39.6754,2.41721,-0.0467714
444.8,39.7349,2.42648,-0.0483083
445.4,39.7928,2.43777,-0.0488978
446,39.8517,2.44271,-0.0521621
446.6,39.9115,2.44394,-0.0585991
447.2,39.97,2.44756,-0.0640446
447.8,40.0293,2.43712,-0.0643982
448.4,40.0871,2.42606,-0.0667413
449,40.146,2.40662,-0.06544
449.6,40.2052,2.39939,-0.0700598
450.2,40.2637,2.3685,-0.0717391
450.8,40.3212,2.3479,-0.07433
451.4,40.3816,2.32189,-0.0760171
452,40.4399,2.29052,-0.0759666
452.6,40.4991,2.2579,-0.0796029
453.2,40.5584,2.2327,-0.0822421
453.8,40.6175,2.20097,-0.0892525
454.4,40.6762,2.18291,-0.0919293
455,40.7345,2.16225,-0.0943343
455.6,40.7935,2.15378,-0.101114
456.2,40.853,2.13557,-0.103147
456.8,40.9107,2.11618,-0.108588
457.4,40.9702,2.07893,-0.110512
458,41.0291,2.02906,-0.113791
458.6,41.0872,1.95242,-0.115269
459.2,41.1464,1.90028,-0.116757
459.8,41.206,1.87046,-0.122167
460.4,41.2648,1.85073,-0.125227
461,41.3227,1.8412,-0.130859
461.6,41.3818,1.83498,-0.134098
462.2,41.4412,1.8366,-0.138447
462.8,41.5003,1.82699,-0.144884
463.4,41.5591,1.82459,-0.147326
464,41.6169,1.82247,-0.149844
464.6,41.6765,1.82014,-0.158797
465.2,41.736,1.81819,-0.165254
465.8,41.7945,1.82754,-0.172123
466.4,41.8508,1.83634,-0.175354
467,41.9125,1.83611,-0.181141
467.6,41.971,1.83401,-0.188206
468.2,42.0301,1.83538,-0.19407
468.8,42.0891,1.84521,-0.203429
469.4,42.1491,1.84889,-0.203867
470,42.2075,1.86262,-0.212695
470.6,42.2676,1.85887,-0.227216
471.2,42.3254,1.86993,-0.231955
471.8,42.3818,1.88108,-0.241741
472.4,42.4433,1.88798,-0.247989
473,42.5029,1.90005,-0.259629
473.6,42.5624,1.9143,-0.266281
474.2,42.6205,1.93137,-0.276415
474.8,42.6801,1.93463,-0.288868
475.4,42.7393,1.93933,-0.296036
476,42.7975,1.94965,-0.310325
476.6,42.856,1.95145,-0.319198
477.2,42.9153,1.96359,-0.331375
477.8,42.9748,1.9902,-0.342673
478.4,43.0344,2.00831,-0.355737
479,43.0944,2.03642,-0.369617
479.6,43.153,2.04233,-0.382428
480.2,43.2126,2.0621,-0.397162
480.8,43.2711,2.07817,-0.413511
481.4,43.33,2.12029,-0.424852
482,43.3895,2.13746,-0.443973
482.6,43.4488,2.14374,-0.456371
483.2,43.5075,2.15536,-0.474211
483.8,43.5668,2.15929,-0.492516
484.4,43.6228,2.14693,-0.50569
485,43.684,2.17518,-0.526389
485.6,43.7434,2.19883,-0.537974
486.2,43.8031,2.22872,-0.562239
486.8,43.8624,2.25331,-0.576691
487.4,43.9198,2.26986,-0.599674
488,43.9796,2.28051,-0.622137
488.6,44.0385,2.30646,-0.64049
489.2,44.0958,2.32081,-0.664626
489.8,44.157,2.33157,-0.681465
490.4,44.2138,2.37138,-0.711865
491,44.2762,2.40913,-0.73414
491.6,44.3355,2.43194,-0.761593
492.2,44.3944,2.4401,-0.787011
492.8,44.4539,2.438,-0.812319
493.4,44.5122,2.44848,-0.84072
494,44.5713,2.45691,-0.86661
494.6,44.6317,2.4874,-0.894605
495.2,44.6908,2.52607,-0.923692
495.8,44.7508,2.54177,-0.950962
496.4,44.8105,2.5681,-0.987396
497,44.8704,2.56208,-1.01343
497.6,44.9299,2.55957,-1.04972
498.2,44.9887,2.57,-1.07943
498.8,45.0483,2.58655,-1.11205
499.4,45.1081,2.58627,-1.14838
500,45.167,2.5831,-1.18012
500.6,45.2248,2.58688,-1.21664
501.2,45.2856,2.5832,-1.25153
501.8,45.3461,2.6404,-1.29015
502.4,45.4053,2.65243,-1.32674
503,45.4655,2.66524,-1.36499
503.6,45.5246,2.67441,-1.40658
504.2,45.5846,2.67989,-1.44512
504.8,45.6448,2.71093,-1.49382
505.4,45.7037,2.71867,-1.53402
506,45.7632,2.72665,-1.57987
506.6,45.8233,2.73379,-1.62687
507.2,45.8828,2.7282,-1.67022
507.8,45.943,2.72282,-1.7234
508.4,46.0019,2.72879,-1.76379
509,46.0616,2.72074,-1.82046
509.6,46.1212,2.71355,-1.86488
510.2,46.1802,2.70441,-1.92004
510.8,46.2393,2.68716,-1.96797
511.4,46.2985,2.6686,-2.0215
512,46.3573,2.63464,-2.07393
512.6,46.4165,2.58904,-2.12471
513.2,46.475,2.53789,-2.18122
513.8,46.5338,2.48318,-2.22669
514.4,46.5934,2.41913,-2.27942
515,46.6515,2.35632,-2.32757
515.6,46.7102,2.27561,-2.37722
516.2,46.7683,2.18985,-2.42734
516.8,46.8269,2.09429,-2.47209
517.4,46.8844,1.98904,-2.51724
518,46.941,1.8857,-2.55743
518.6,47.0003,1.76759,-2.60066
519.2,47.0593,1.65656,-2.64267
519.8,47.117,1.53498,-2.67699
520.4,47.1746,1.41446,-2.71796
521,47.2324,1.30209,-2.74674
521.6,47.2904,1.19525,-2.78035
522.2,47.3496,1.08588,-2.80391
522.8,47.4067,0.984395,-2.83096
523.4,47.4643,0.909794,-2.85154
524,47.5229,0.817259,-2.86951
524.6,47.5804,0.763435,-2.88949
525.2,47.6374,0.690923,-2.90384
525.8,47.6985,0.638014,-2.92574
526.4,47.7562,0.593836,-2.93139
527,47.8149,0.556797,-2.95412
527.6,47.874,0.533799,-2.9614
528.2,47.9329,0.509695,-2.96884
528.8,47.9923,0.499857,-2.97594
529.4,48.0514,0.486853,-2.98416
530,48.1112,0.475237,-2.99384
530.6,48.1699,0.470707,-2.99863
531.2,48.2285,0.464375,-3.00857
531.8,48.2877,0.46168,-3.00902
532.4,48.3486,0.468514,-3.01787
533,48.4062,0.456127,-3.01932
533.6,48.4662,0.465012,-3.02882
534.2,48.523,0.463845,-3.02987
534.8,48.5845,0.468671,-3.03584
535.4,48.6438,0.468575,-3.04104
536,48.7034,0.470201,-3.0427
536.6,48.7621,0.476688,-3.04811
537.2,48.8216,0.484088,-3.04885
537.8,48.8812,0.485898,-3.05488
538.4,48.9406,0.490795,-3.05538
539,48.9996,0.499305,-3.05899
539.6,49.0596,0.494512,-3.05922
540.2,49.1184,0.523391,-3.06318
540.8,49.1773,0.540863,-3.06245
541.4,49.2373,0.568214,-3.06638
542,49.2974,0.618053,-3.06971
542.6,49.3572,0.65282,-3.07262
543.2,49.4155,0.681652,-3.07478
543.8,49.4754,0.710177,-3.07459
544.4,49.5353,0.738274,-3.07636
545,49.5931,0.758994,-3.08036
545.6,49.6544,0.791514,-3.08271
546.2,49.7128,0.801546,-3.08436
546.8,49.7733,0.810129,-3.086
547.4,49.8334,0.815993,-3.08676
548,49.8925,0.832713,-3.09092
548.6,49.9517,0.839669,-3.09065
549.2,50.0103,0.844878,-3.09284
549.8,50.0707,0.856265,-3.09291
550.4,50.1312,0.860693,-3.09445
551,50.1914,0.863003,-3.09538
551.6,50.2509,0.87131,-3.09781
552.2,50.3108,0.873546,-3.09882
552.8,50.3703,0.87186,-3.09738
553.4,50.4304,0.866207,-3.10207
554,50.491,0.86932,-3.10349
554.6,50.5497,0.860487,-3.105
555.2,50.6106,0.843716,-3.10684
555.8,50.6692,0.850529,-3.10938
556.4,50.7286,0.844069,-3.11158
557,50.7888,0.833829,-3.11159
557.6,50.849,0.828412,-3.11302
558.2,50.9061,0.827603,-3.1139
558.8,50.968,0.818287,-3.1141
559.4,51.0276,0.814069,-3.11665
560,51.0874,0.803345,-3.11655
560.6,51.1475,0.796365,-3.11728
561.2,51.2068,0.79342,-3.11927
561.8,51.2661,0.784324,-3.11904
562.4,51.3259,0.776086,-3.12076
563,51.3856,0.771897,-3.12167
563.6,51.4449,0.772971,-3.12462
564.2,51.5045,0.76716,-3.12454
564.8,51.5641,0.756673,-3.12584
565.4,51.6243,0.759272,-3.12439
566,51.684,0.761331,-3.12586
566.6,51.7437,0.749139,-3.1274
567.2,51.8028,0.747617,-3.12712
567.8,51.8633,0.738046,-3.13592
568.4,51.9233,0.731972,-3.13562
569,51.9822,0.727165,-3.1362
569.6,52.0422,0.716931,-3.13761
570.2,52.1024,0.717821,-3.13913
570.8,52.1628,0.709873,-3.14254
571.4,52.2223,0.707228,-3.14228
572,52.2818,0.70732,-3.14561
572.6,52.3432,0.703951,-3.14265
573.2,52.402,0.700413,-3.14638
573.8,52.4621,0.695816,-3.14495
574.4,52.5218,0.696137,-3.14292
575,52.5813,0.691558,-3.14582
575.6,52.6417,0.697166,-3.14328
576.2,52.7005,0.68868,-3.14538
576.8,52.7612,0.676172,-3.14728
577.4,52.8218,0.670383,-3.15341
578,52.8812,0.670043,-3.15023
578.6,52.9406,0.669091,-3.15255
579.2,53.0005,0.660699,-3.15081
579.8,53.0606,0.657098,-3.15222
580.4,53.1191,0.647762,-3.15524
581,53.1803,0.638277,-3.15474
581.6,53.2401,0.63541,-3.15779
582.2,53.3008,0.625567,-3.15551
582.8,53.36,0.619956,-3.15844
583.4,53.4202,0.60785,-3.15884
584,53.4799,0.593103,-3.16028
584.6,53.5392,0.566937,-3.16216
585.2,53.5997,0.532733,-3.1612
585.8,53.659,0.502524,-3.1631
586.4,53.7176,0.455899,-3.16305
587,53.7785,0.421107,-3.16691
587.6,53.8388,0.372017,-3.16466
588.2,53.8992,0.328642,-3.16712
588.8,53.9582,0.292075,-3.16613
589.4,54.0178,0.262646,-3.16901
590,54.0781,0.232398,-3.16724
590.6,54.1368,0.210577,-3.16724
591.2,54.1975,0.183123,-3.17052
591.8,54.2577,0.161642,-3.16901
592.4,54.3178,0.138287,-3.17275
593,54.3771,0.11675,-3.17573
593.6,54.4363,0.104572,-3.17703
594.2,54.4965,0.0832484,-3.17865
594.8,54.5568,0.0673406,-3.17708
595.4,54.6173,0.054077,-3.17801
596,54.6771,0.0445695,-3.17647
596.6,54.7379,0.0293753,-3.17868
597.2,54.7969,0.01529,-3.17932
597.8,54.8583,0.00316352,-3.17989
598.4,54.9175,-0.00339792,-3.17923
599,54.9773,-0.0165925,-3.18019
599.6,55.0379,-0.0319686,-3.18113
600.2,55.0985,-0.0419662,-3.18008
600.8,55.1584,-0.0486249,-3.18447
601.4,55.2176,-0.0612287,-3.18322
602,55.2783,-0.0618679,-3.18547
602.6,55.3392,-0.0790311,-3.18561
603.2,55.3989,-0.0765514,-3.18898
603.8,55.4561,-0.0898976,-3.18877
604.4,55.5182,-0.108194,-3.18896
605,55.5783,-0.0995132,-3.19057
605.6,55.639,-0.102635,-3.18886
606.2,55.6992,-0.0935616,-3.18886
606.8,55.7589,-0.114592,-3.18886
607.4,55.8189,-0.118009,-3.19063
608,55.8793,-0.133115,-3.18895
608.6,55.939,-0.142833,-3.18791
609.2,55.9989,-0.151446,-3.19111
609.8,56.0593,-0.166683,-3.18844
610.4,56.1194,-0.169754,-3.1949
611,56.1798,-0.187123,-3.19249
611.6,56.2399,-0.186693,-3.19735
612.2,56.3002,-0.206383,-3.19471
612.8,56.3608,-0.219726,-3.19575
613.4,56.4199,-0.239086,-3.19602
614,56.4801,-0.248432,-3.19498
614.6,56.5416,-0.258609,-3.19822
615.2,56.6018,-0.268514,-3.19599
615.8,56.6623,-0.280404,-3.2005
616.4,56.7222,-0.303277,-3.19872
617,56.782,-0.313198,-3.20028
617.6,56.8428,-0.319947,-3.19892
618.2,56.9031,-0.331572,-3.19919
618.8,56.9615,-0.338271,-3.19979
619.4,57.024,-0.348495,-3.20051
620,57.084,-0.356514,-3.20554
620.6,57.1447,-0.375699,-3.2026
621.2,57.2051,-0.38206,-3.20587
621.8,57.2654,-0.387255,-3.20211
622.4,57.3268,-0.378319,-3.20356
623,57.3871,-0.380724,-3.20274
623.6,57.4466,-0.384736,-3.20271
624.2,57.5071,-0.380778,-3.20281
624.8,57.568,-0.382113,-3.2011
625.4,57.629,-0.384804,-3.20302
626,57.6892,-0.379373,-3.20173
626.6,57.7506,-0.377613,-3.20369
627.2,57.811,-0.365741,-3.20425
627.8,57.8715,-0.370083,-3.20454
628.4,57.932,-0.365264,-3.2083
629,57.9926,-0.362565,-3.20571
629.6,58.0527,-0.353134,-3.20994
630.2,58.1143,-0.346845,-3.20732
630.8,58.1743,-0.348928,-3.2091
631.4,58.2349,-0.347621,-3.20967
632,58.2944,-0.344595,-3.20827
632.6,58.3552,-0.339232,-3.21015
633.2,58.416,-0.341165,-3.21031
633.8,58.4764,-0.333955,-3.21324
634.4,58.5371,-0.336224,-3.21277
635,58.5981,-0.328855,-3.21424
635.6,58.6572,-0.332336,-3.21203
636.2,58.7183,-0.31953,-3.20947
636.8,58.777,-0.309528,-3.21012
637.4,58.8389,-0.314562,-3.20775
638,58.8989,-0.308835,-3.21244
638.6,58.9597,-0.31747,-3.21017
639.2,59.0194,-0.310522,-3.21395
639.8,59.0797,-0.3101,-3.21221
640.4,59.1404,-0.305537,-3.2162
641,59.2009,-0.294917,-3.21587
641.6,59.2616,-0.296253,-3.21478
642.2,59.3221,-0.290587,-3.21644
642.8,59.3829,-0.298194,-3.21508
643.4,59.4422,-0.283603,-3.21692
644,59.5019,-0.289568,-3.21457
644.6,59.5648,-0.281212,-3.21653
645.2,59.6249,-0.278714,-3.21739
645.8,59.6854,-0.271417,-3.21829
646.4,59.7462,-0.269968,-3.21795
647,59.8057,-0.269193,-3.21798
647.6,59.8676,-0.259653,-3.21951
648.2,59.9278,-0.252853,-3.21624
648.8,59.9889,-0.251321,-3.21742
649.4,60.049,-0.253084,-3.21803
650,60.1081,-0.238243,-3.2195
650.6,60.1703,-0.235011,-3.21818
651.2,60.231,-0.232301,-3.21859
651.8,60.2915,-0.237608,-3.21767
652.4,60.3513,-0.231394,-3.22046
653,60.4124,-0.23093,-3.22334
653.6,60.4735,-0.231016,-3.22301
654.2,60.5342,-0.225074,-3.22464
654.8,60.595,-0.223801,-3.2224
655.4,60.6545,-0.231175,-3.2239
656,60.7156,-0.226692,-3.21998
656.6,60.7761,-0.217929,-3.22307
657.2,60.8365,-0.212103,-3.22225
657.8,60.8975,-0.204705,-3.22402
658.4,60.9582,-0.212306,-3.22288
659,61.0183,-0.207551,-3.22279
659.6,61.0797,-0.210088,-3.2241
660.2,61.141,-0.211387,-3.2241
660.8,61.2007,-0.203365,-3.22476
661.4,61.261,-0.204486,-3.22323
662,61.3217,-0.200684,-3.22362
662.6,61.3821,-0.20301,-3.22517
663.2,61.4422,-0.206362,-3.22643
663.8,61.5042,-0.205529,-3.22848
664.4,61.5643,-0.202644,-3.2257
665,61.6257,-0.200015,-3.23028
665.6,61.6858,-0.196677,-3.22434
666.2,61.7457,-0.188437,-3.22562
666.8,61.8065,-0.198839,-3.22631
667.4,61.8676,-0.193019,-3.23125
668,61.9275,-0.191095,-3.22784
668.6,61.9875,-0.198658,-3.22912
669.2,62.0489,-0.186769,-3.2275
669.8,62.1091,-0.193307,-3.22771
670.4,62.1698,-0.189026,-3.2286
671,62.2303,-0.187866,-3.22848
671.6,62.2903,-0.186306,-3.23112
672.2,62.3491,-0.192268,-3.23015
672.8,62.4128,-0.18555,-3.23313
673.4,62.4727,-0.191157,-3.23357
674,62.533,-0.192761,-3.23222
674.6,62.5954,-0.19056,-3.23479
675.2,62.6554,-0.192163,-3.23208
675.8,62.717,-0.19559,-3.23281
676.4,62.7768,-0.194695,-3.23024
677,62.8379,-0.197685,-3.2329
677.6,62.8987,-0.198578,-3.23201
678.2,62.9596,-0.194901,-3.23134
678.8,63.0199,-0.199944,-3.22971
679.4,63.0812,-0.195742,-3.23102
680,63.1424,-0.194096,-3.23102
680.6,63.2023,-0.199673,-3.22837
681.2,63.2637,-0.190712,-3.23153
681.8,63.3232,-0.196766,-3.23009
682.4,63.3848,-0.194429,-3.2339
683,63.4459,-0.195114,-3.23271
683.6,63.5064,-0.189392,-3.23292
684.2,63.5641,-0.184945,-3.23579
684.8,63.6275,-0.192996,-3.23354
685.4,63.6865,-0.197345,-3.23827
686,63.749,-0.19756,-3.23301
686.6,63.8099,-0.197457,-3.23728
687.2,63.8715,-0.191867,-3.23412
687.8,63.9316,-0.197882,-3.2353
688.4,63.9932,-0.201466,-3.23504
689,64.0527,-0.204714,-3.23574
689.6,64.1134,-0.208251,-3.23629
690.2,64.1753,-0.209456,-3.23853
690.8,64.2356,-0.215662,-3.24073
691.4,64.2967,-0.215732,-3.23732
692,64.3565,-0.228637,-3.24083
692.6,64.4178,-0.231124,-3.23777
693.2,64.4783,-0.224584,-3.2385
693.8,64.5395,-0.225944,-3.23506
694.4,64.6002,-0.231934,-3.23704
695,64.6601,-0.237428,-3.23581
695.6,64.722,-0.240324,-3.23572
696.2,64.7828,-0.247228,-3.2382
696.8,64.8444,-0.249635,-3.23706
697.4,64.903,-0.257351,-3.24045
698,64.9653,-0.261628,-3.23493
698.6,65.026,-0.248465,-3.23657
699.2,65.087,-0.259849,-3.23401
699.8,65.1471,-0.258146,-3.24132
700.4,65.2082,-0.266725,-3.24078
701,65.2695,-0.266798,-3.24464
701.6,65.3296,-0.279902,-3.24417
702.2,65.3915,-0.281752,-3.2443
702.8,65.4523,-0.286289,-3.24227
703.4,65.5124,-0.288268,-3.23997
704,65.5728,-0.294295,-3.2392
704.6,65.6339,-0.297534,-3.24264
705.2,65.6944,-0.305199,-3.23974
705.8,65.7556,-0.304394,-3.24055
706.4,65.8161,-0.318346,-3.2408
707,65.878,-0.322835,-3.24365
707.6,65.9372,-0.327782,-3.24332
708.2,65.9971,-0.332618,-3.24398
708.8,66.0604,-0.333345,-3.24291
709.4,66.12,-0.333435,-3.24269
710,66.1812,-0.332934,-3.24107
710.6,66.2422,-0.332935,-3.24178
711.2,66.3031,-0.337671,-3.24025
711.8,66.3645,-0.341695,-3.24177
712.4,66.425,-0.340403,-3.24231
713,66.4868,-0.352787,-3.2408
713.6,66.5463,-0.349926,-3.24404
714.2,66.6072,-0.366808,-3.24402
714.8,66.6687,-0.365229,-3.24525
715.4,66.7288,-0.373711,-3.24752
716,66.7907,-0.371737,-3.24643
716.6,66.8509,-0.368328,-3.25052
717.2,66.9127,-0.37995,-3.24562
717.8,66.9737,-0.371508,-3.24849
718.4,67.0343,-0.386462,-3.24672
719,67.0947,-0.37863,-3.24797
719.6,67.1575,-0.384161,-3.24661
720.2,67.2176,-0.386064,-3.24462
720.8,67.2795,-0.393244,-3.24593
721.4,67.3396,-0.391529,-3.2441
722,67.4009,-0.38659,-3.24428
722.6,67.4612,-0.398437,-3.2438
723.2,67.5228,-0.397439,-3.24837
723.8,67.5825,-0.404204,-3.2471
724.4,67.6451,-0.415237,-3.24689
725,67.7044,-0.408322,-3.24882
725.6,67.7655,-0.41388,-3.2436
726.2,67.8266,-0.423323,-3.25488
726.8,67.8881,-0.427131,-3.2507
727.4,67.948,-0.429449,-3.25177
728,68.0094,-0.435156,-3.24996
728.6,68.0706,-0.43619,-3.25075
729.2,68.1325,-0.438824,-3.24969
729.8,68.1935,-0.437922,-3.24977
730.4,68.2536,-0.435221,-3.25033
731,68.3152,-0.442879,-3.25011
731.6,68.3753,-0.43764,-3.25181
732.2,68.4363,-0.450533,-3.25069
732.8,68.4975,-0.445958,-3.25142
733.4,68.5592,-0.452333,-3.25122
734,68.6193,-0.451782,-3.24871
734.6,68.6811,-0.447757,-3.24848
735.2,68.7418,-0.448673,-3.24846
735.8,68.8024,-0.452959,-3.25173
736.4,68.8636,-0.454826,-3.25193
737,68.9254,-0.455444,-3.2537
737.6,68.9862,-0.456399,-3.25078
738.2,69.0451,-0.458201,-3.25401
738.8,69.1082,-0.457139,-3.25155
739.4,69.1688,-0.458826,-3.2536
740,69.2299,-0.463178,-3.25124
740.6,69.2904,-0.460089,-3.25309
741.2,69.3523,-0.463505,-3.25147
741.8,69.4138,-0.469508,-3.2533
742.4,69.4742,-0.459289,-3.25331
743,69.5346,-0.465482,-3.25331
743.6,69.596,-0.461479,-3.25188
744.2,69.6567,-0.471149,-3.25372
744.8,69.7182,-0.464837,-3.25304
745.4,69.7796,-0.474653,-3.25505
746,69.8406,-0.471261,-3.25828
746.6,69.9021,-0.46937,-3.25891
747.2,69.9633,-0.465859,-3.25759
747.8,70.0256,-0.460513,-3.25267
748.4,70.0856,-0.463388,-3.25488
749,70.1445,-0.469397,-3.25199
749.6,70.2088,-0.464499,-3.25486
750.2,70.2697,-0.463909,-3.25318
750.8,70.3305,-0.46525,-3.25477
751.4,70.3915,-0.463897,-3.2532
752,70.4518,-0.47347,-3.25024
752.6,70.5136,-0.470759,-3.25561
753.2,70.5755,-0.461493,-3.25418
753.8,70.6357,-0.478057,-3.25732
754.4,70.6979,-0.468684,-3.255
755,70.7593,-0.469338,-3.2549
755.6,70.82,-0.466285,-3.25597
756.2,70.8803,-0.464532,-3.25326
756.8,70.9423,-0.465234,-3.25474
757.4,71.0037,-0.466119,-3.25331
758,71.0653,-0.467992,-3.25436
758.6,71.125,-0.46523,-3.25487
759.2,71.1863,-0.465464,-3.25484
759.8,71.2483,-0.464419,-3.2566
760.4,71.3064,-0.456512,-3.2553
761,71.371,-0.456949,-3.25812
761.6,71.4315,-0.45535,-3.25419
762.2,71.4932,-0.455964,-3.25599
762.8,71.5541,-0.455231,-3.25864
763.4,71.6149,-0.445442,-3.25451
764,71.6759,-0.446414,-3.2577
764.6,71.738,-0.448844,-3.25461
765.2,71.7985,-0.430139,-3.25452
765.8,71.8597,-0.432545,-3.25541
766.4,71.9207,-0.434889,-3.25644
767,71.9813,-0.436069,-3.25703
767.6,72.0429,-0.437601,-3.25393
768.2,72.1037,-0.427789,-3.25889
768.8,72.1641,-0.440682,-3.25879
769.4,72.2258,-0.42429,-3.26049
770,72.2867,-0.43804,-3.26276
770.6,72.3485,-0.430292,-3.26167
771.2,72.4087,-0.42482,-3.26451
771.8,72.4699,-0.436876,-3.25796
772.4,72.531,-0.432879,-3.26236
773,72.5925,-0.433306,-3.26064
773.6,72.6524,-0.426734,-3.25934
774.2,72.7136,-0.42908,-3.26315
774.8,72.7743,-0.431193,-3.25927
775.4,72.8358,-0.431821,-3.26282
776,72.8963,-0.436047,-3.25768
776.6,72.9559,-0.427526,-3.26226
777.2,73.0186,-0.430829,-3.26036
777.8,73.0804,-0.429651,-3.26158
778.4,73.1412,-0.430024,-3.26449
779,73.2028,-0.422489,-3.25971
779.6,73.2644,-0.416639,-3.26141
780.2,73.3236,-0.422125,-3.25869
780.8,73.3858,-0.41781,-3.26033
781.4,73.4471,-0.413046,-3.26181
782,73.5077,-0.412613,-3.26187
782.6,73.5689,-0.414319,-3.26341
783.2,73.6302,-0.404947,-3.26066
783.8,73.6913,-0.409742,-3.26207
784.4,73.7527,-0.413645,-3.26072
785,73.8138,-0.415853,-3.26037
785.6,73.8747,-0.41092,-3.26217
786.2,73.9366,-0.413844,-3.25755
786.8,73.9972,-0.4144,-3.26248
787.4,74.0594,-0.412842,-3.25959
788,74.1194,-0.413791,-3.26568
788.6,74.1813,-0.420817,-3.26046
789.2,74.2421,-0.41811,-3.26172
789.8,74.303,-0.421271,-3.26272
790,74.323,-0.416488,-3.2645