File: 01_Data/NFPA_1981-2019_SCBA_Lens/STA/N2/10K_min/NFPA_1981-2019_SCBA_Lens_STA_N2_10KData_250908_R1.csv
Temp./C,Time/min,DSC/(mW/mg),Mass loss/mg
40,0,0.56121,-0.0161991
40.6,0.0875564,0.58471,-0.0154075
41.2,0.167972,0.5984,-0.01500169
41.8,0.245445,0.60661,-0.014517
42.4,0.326715,0.62639,-0.01599384
43,0.402941,0.63569,-0.0168812
43.6,0.479687,0.6429,-0.0171449
44.2,0.557543,0.65295,-0.01660898
44.8,0.632899,0.66034,-0.0157624
45.4,0.707061,0.66664,-0.0173376
46,0.781926,0.67987,-0.0157772
46.6,0.855147,0.68175,-0.0161336
47.2,0.926757,0.69645,-0.0159588
47.8,1.00071,0.69462,-0.0165719
48.4,1.06964,0.70722,-0.0158972
49,1.14125,0.71068,-0.0159468
49.6,1.21529,0.71851,-0.0175125
50.2,1.28402,0.72359,-0.0174522
50.8,1.35393,0.73293,-0.01749639
51.4,1.42582,0.73179,-0.0162569
52,1.49342,0.7473,-0.0169166
52.6,1.56381,0.75195,-0.0169104
53.2,1.63226,0.75843,-0.0175317
53.8,1.70033,0.76173,-0.017447
54.4,1.76897,0.76777,-0.0168799
55,1.83429,0.7751,-0.0171674
55.6,1.90351,0.77541,-0.01674769
56.2,1.97038,0.77752,-0.0183234
56.8,2.03719,0.7827,-0.01898856
57.4,2.10273,0.78878,-0.0176805
58,2.17017,0.80699,-0.0178936
58.6,2.234,0.80762,-0.01780643
59.2,2.29876,0.81005,-0.0164921
59.8,2.36327,0.81586,-0.0163772
60.4,2.42828,0.82578,-0.0177909
61,2.49303,0.82846,-0.0178777
61.6,2.55867,0.83923,-0.018052
62.2,2.62184,0.84703,-0.0179054
62.8,2.68435,0.8538,-0.0178913
63.4,2.74945,0.85381,-0.0186574
64,2.81207,0.85861,-0.0191384
64.6,2.8755,0.86613,-0.0190036
65.2,2.93825,0.8786,-0.0181069
65.8,2.99964,0.88236,-0.0190945
66.4,3.06508,0.88039,-0.0204268
67,3.12577,0.89497,-0.0191338
67.6,3.18957,0.90449,-0.0191017
68.2,3.25327,0.90279,-0.0203812
68.8,3.31245,0.91264,-0.0191155
69.4,3.37271,0.91616,-0.0191235
70,3.43591,0.91568,-0.0195521
70.6,3.50028,0.92749,-0.0190964
71.2,3.56061,0.93283,-0.0190981
71.8,3.62314,0.93689,-0.0191229
72.4,3.68503,0.94291,-0.0191203
73,3.7454,0.94645,-0.017795
73.6,3.80739,0.9476,-0.01909334
74.2,3.86869,0.94923,-0.0190812
74.8,3.92881,0.95836,-0.0191916
75.4,3.99009,0.95925,-0.0190962
76,4.05228,0.96042,-0.01779
76.6,4.11216,0.97684,-0.0191064
77.2,4.1723,0.97615,-0.01843863
77.8,4.23423,0.97777,-0.019012
78.4,4.2943,0.97925,-0.0190999
79,4.35514,0.98567,-0.0190992
79.6,4.41533,0.98628,-0.0191017
80.2,4.47604,0.99494,-0.0190981
80.8,4.53583,0.99408,-0.0194719
81.4,4.59541,0.99843,-0.0191014
82,4.6549,0.99929,-0.0190015
82.6,4.71703,1.00181,-0.0180901
83.2,4.7765,1.00445,-0.0189911
83.8,4.83684,1.00111,-0.0204133
84.4,4.89578,1.01474,-0.0189321
85,4.95624,1.00895,-0.02030993
85.6,5.01547,1.01177,-0.02025071
86.2,5.07151,1.00966,-0.02031355
86.8,5.13559,1.01186,-0.0202672
87.4,5.19331,1.01291,-0.0203099
88,5.25332,1.01884,-0.02140456
88.6,5.31267,1.02129,-0.0202821
89.2,5.37206,1.01563,-0.0203066
89.8,5.42784,1.01548,-0.0202653
90.4,5.49081,1.02254,-0.01899362
91,5.54936,1.01908,-0.0189953
91.6,5.60806,1.02178,-0.0203084
92.2,5.66715,1.02049,-0.01893108
92.8,5.72475,1.03065,-0.0189898
93.4,5.78493,1.03468,-0.0203048
94,5.84272,1.04084,-0.0194886
94.6,5.9016,1.03442,-0.0203319
95.2,5.96081,1.03976,-0.0203097
95.8,6.01978,1.03904,-0.0197163
96.4,6.07721,1.0492,-0.0203435
97,6.13567,1.05135,-0.0212211
97.6,6.19446,1.05298,-0.0203059
98.2,6.25194,1.05633,-0.0203115
98.8,6.30995,1.0607,-0.0201808
99.4,6.36811,1.06507,-0.0195775
100,6.4267,1.06407,-2.01E-02
100.6,6.48487,1.07552,-2.02E-02
101.2,6.54348,1.06394,-2.07E-02
101.8,6.60071,1.0749,-2.16E-02
102.4,6.65818,1.07375,-2.13E-02
103,6.71608,1.08401,-2.07E-02
103.6,6.77479,1.08663,-2.16E-02
104.2,6.83216,1.08629,-2.11E-02
104.8,6.8909,1.09533,-2.06E-02
105.4,6.94835,1.09785,-2.04E-02
106,7.00545,1.09488,-2.09E-02
106.6,7.06229,1.10854,-2.05E-02
107.2,7.12063,1.10575,-2.13E-02
107.8,7.17823,1.11211,-2.08E-02
108.4,7.2356,1.11696,-2.05E-02
109,7.2947,1.11924,-2.12E-02
109.6,7.35249,1.12636,-2.09E-02
110.2,7.40932,1.11882,-2.16E-02
110.8,7.46786,1.12458,-2.11E-02
111.4,7.52485,1.12776,-2.07E-02
112,7.58244,1.13669,-2.15E-02
112.6,7.63913,1.1395,-2.11E-02
113.2,7.69707,1.14573,-2.07E-02
113.8,7.75442,1.14939,-2.16E-02
114.4,7.81101,1.15083,-2.25E-02
115,7.87043,1.15496,-2.21E-02
115.6,7.92786,1.15857,-2.16E-02
116.2,7.9851,1.16479,-2.12E-02
116.8,8.04262,1.16453,-2.08E-02
117.4,8.09968,1.16427,-2.18E-02
118,8.15784,1.16853,-2.14E-02
118.6,8.2157,1.16921,-2.23E-02
119.2,8.27283,1.1694,-2.20E-02
119.8,8.3303,1.17514,-2.16E-02
120.4,8.387,1.1752,-2.19E-02
121,8.44507,1.18031,-2.21E-02
121.6,8.50212,1.18074,-2.17E-02
122.2,8.55988,1.18486,-2.26E-02
122.8,8.61793,1.1873,-2.22E-02
123.4,8.67363,1.18958,-2.18E-02
124,8.73192,1.19741,-2.14E-02
124.6,8.78997,1.19779,-2.10E-02
125.2,8.84684,1.19761,-2.32E-02
125.8,8.90424,1.20799,-2.30E-02
126.4,8.96127,1.19976,-2.25E-02
127,9.0183,1.20622,-2.30E-02
127.6,9.07524,1.20931,-2.27E-02
128.2,9.1339,1.21038,-2.23E-02
128.8,9.19128,1.21315,-2.19E-02
129.4,9.24819,1.21723,-2.14E-02
130,9.30388,1.21773,-2.14E-02
130.6,9.36216,1.22111,-2.23E-02
131.2,9.41955,1.22185,-2.20E-02
131.8,9.47527,1.22593,-2.16E-02
132.4,9.53479,1.23274,-2.12E-02
133,9.59108,1.236,-2.22E-02
133.6,9.64847,1.23472,-2.18E-02
134.2,9.70412,1.23752,-2.15E-02
134.8,9.7611,1.23946,-2.11E-02
135.4,9.81881,1.24361,-2.10E-02
136,9.87458,1.24234,-2.17E-02
136.6,9.93227,1.24545,-2.27E-02
137.2,9.98924,1.24566,-2.24E-02
137.8,10.0461,1.257,-2.21E-02
138.4,10.1039,1.25287,-2.17E-02
139,10.1586,1.25946,-2.14E-02
139.6,10.2166,1.25878,-2.23E-02
140.2,10.2738,1.26643,-2.19E-02
140.8,10.33,1.26755,-2.15E-02
141.4,10.3848,1.27157,-2.11E-02
142,10.4434,1.27081,-2.18E-02
142.6,10.5006,1.27418,-2.16E-02
143.2,10.5573,1.27465,-2.14E-02
143.8,10.6138,1.28157,-2.24E-02
144.4,10.6706,1.27609,-2.20E-02
145,10.7276,1.28036,-2.17E-02
145.6,10.7845,1.28292,-2.13E-02
146.2,10.8412,1.28059,-2.24E-02
146.8,10.8975,1.28677,-2.21E-02
147.4,10.9542,1.28725,-2.18E-02
148,11.0113,1.28516,-2.15E-02
148.6,11.0679,1.29081,-2.12E-02
149.2,11.1239,1.29143,-2.10E-02
149.8,11.1809,1.29257,-2.07E-02
150.4,11.2375,1.29052,-2.17E-02
151,11.2938,1.2954,-2.15E-02
151.6,11.3509,1.30672,-2.20E-02
152.2,11.4072,1.31099,-2.23E-02
152.8,11.4637,1.31116,-2.20E-02
153.4,11.521,1.31295,-2.17E-02
154,11.5789,1.31979,-2.15E-02
154.6,11.6342,1.32142,-2.12E-02
155.2,11.6908,1.32179,-2.21E-02
155.8,11.7467,1.327,-2.20E-02
156.4,11.8043,1.32711,-2.17E-02
157,11.8613,1.32731,-2.15E-02
157.6,11.9178,1.33434,-2.25E-02
158.2,11.9733,1.33202,-2.23E-02
158.8,12.0294,1.33098,-2.27E-02
159.4,12.0861,1.33923,-2.30E-02
160,12.1437,1.33935,-2.27E-02
160.6,12.1996,1.34289,-2.25E-02
161.2,12.257,1.34033,-2.22E-02
161.8,12.3138,1.34089,-2.19E-02
162.4,12.3703,1.34537,-2.16E-02
163,12.4259,1.34891,-2.27E-02
163.6,12.4834,1.35385,-2.24E-02
164.2,12.5394,1.35797,-2.21E-02
164.8,12.5966,1.35618,-2.31E-02
165.4,12.6525,1.35923,-2.26E-02
166,12.709,1.35874,-2.19E-02
166.6,12.7657,1.35858,-2.17E-02
167.2,12.8225,1.36276,-2.27E-02
167.8,12.8784,1.35839,-2.24E-02
168.4,12.9353,1.36049,-2.22E-02
169,12.9924,1.36867,-2.19E-02
169.6,13.0489,1.36499,-2.16E-02
170.2,13.1051,1.3673,-2.27E-02
170.8,13.1621,1.37118,-2.24E-02
171.4,13.2185,1.37194,-2.22E-02
172,13.2752,1.37737,-2.32E-02
172.6,13.3315,1.37852,-2.29E-02
173.2,13.3882,1.37657,-2.27E-02
173.8,13.4449,1.38112,-2.24E-02
174.4,13.5016,1.38115,-2.35E-02
175,13.559,1.38272,-2.32E-02
175.6,13.6147,1.38383,-2.30E-02
176.2,13.6719,1.3827,-2.27E-02
176.8,13.7285,1.39313,-2.25E-02
177.4,13.7843,1.39398,-2.22E-02
178,13.8412,1.38624,-2.20E-02
178.6,13.8983,1.39176,-2.20E-02
179.2,13.9539,1.39735,-2.24E-02
179.8,14.0103,1.39691,-2.25E-02
180.4,14.0676,1.39802,-2.23E-02
181,14.1242,1.40036,-2.20E-02
181.6,14.1809,1.39742,-2.18E-02
182.2,14.2371,1.39457,-2.15E-02
182.8,14.2936,1.40293,-2.26E-02
183.4,14.3502,1.40389,-2.24E-02
184,14.4063,1.4062,-2.21E-02
184.6,14.4638,1.41375,-2.19E-02
185.2,14.5205,1.41599,-2.17E-02
185.8,14.5764,1.41291,-2.14E-02
186.4,14.6331,1.41995,-2.25E-02
187,14.6902,1.41636,-2.23E-02
187.6,14.7458,1.42069,-2.21E-02
188.2,14.8014,1.41998,-2.19E-02
188.8,14.8586,1.42346,-2.31E-02
189.4,14.9138,1.42619,-2.28E-02
190,14.9705,1.42741,-2.26E-02
190.6,15.0252,1.43425,-2.37E-02
191.2,15.0839,1.43175,-2.35E-02
191.8,15.14,1.43388,-2.33E-02
192.4,15.1974,1.43719,-2.31E-02
193,15.2535,1.44217,-2.28E-02
193.6,15.3073,1.44772,-2.30E-02
194.2,15.3673,1.44429,-2.37E-02
194.8,15.422,1.45544,-2.35E-02
195.4,15.4795,1.45585,-2.33E-02
196,15.5366,1.45795,-2.31E-02
196.6,15.5919,1.47014,-2.29E-02
197.2,15.6479,1.4792,-2.27E-02
197.8,15.7058,1.48276,-2.32E-02
198.4,15.7612,1.48927,-2.29E-02
199,15.8188,1.50317,-2.27E-02
199.6,15.8745,1.50647,-2.24E-02
200.2,15.9321,1.52009,-2.29E-02
200.8,15.9873,1.53236,-2.27E-02
201.4,16.0447,1.54929,-2.25E-02
202,16.1019,1.56163,-2.36E-02
202.6,16.1576,1.57183,-2.34E-02
203.2,16.2145,1.59426,-2.32E-02
203.8,16.2711,1.60501,-2.30E-02
204.4,16.3277,1.62257,-2.28E-02
205,16.3839,1.63708,-2.25E-02
205.6,16.4403,1.65735,-2.33E-02
206.2,16.4977,1.66693,-2.35E-02
206.8,16.5538,1.67058,-2.33E-02
207.4,16.6089,1.67238,-2.31E-02
208,16.6666,1.67192,-2.29E-02
208.6,16.7234,1.67432,-2.27E-02
209.2,16.7813,1.67298,-2.36E-02
209.8,16.8362,1.67025,-2.36E-02
210.4,16.8923,1.66316,-2.41E-02
211,16.9495,1.66186,-2.39E-02
211.6,17.0057,1.65935,-2.37E-02
212.2,17.0617,1.65673,-2.35E-02
212.8,17.118,1.65955,-2.39E-02
213.4,17.175,1.66034,-2.37E-02
214,17.2308,1.66211,-2.35E-02
214.6,17.2883,1.67002,-2.32E-02
215.2,17.3451,1.66734,-2.44E-02
215.8,17.4004,1.65947,-2.43E-02
216.4,17.4577,1.66474,-2.28E-02
217,17.5137,1.66778,-2.40E-02
217.6,17.57,1.66734,-2.38E-02
218.2,17.6273,1.66964,-2.36E-02
218.8,17.6836,1.6631,-2.34E-02
219.4,17.7397,1.6661,-2.46E-02
220,17.7961,1.66863,-2.44E-02
220.6,17.8525,1.67154,-2.42E-02
221.2,17.91,1.675,-2.54E-02
221.8,17.9645,1.67249,-2.52E-02
222.4,18.0209,1.68171,-2.50E-02
223,18.0795,1.68261,-2.49E-02
223.6,18.1353,1.67685,-2.47E-02
224.2,18.1916,1.67502,-2.45E-02
224.8,18.2486,1.68032,-2.44E-02
225.4,18.3047,1.67504,-2.42E-02
226,18.3622,1.67685,-2.41E-02
226.6,18.4182,1.68521,-2.52E-02
227.2,18.4747,1.68515,-2.51E-02
227.8,18.5308,1.68898,-2.49E-02
228.4,18.5869,1.69065,-2.48E-02
229,18.6439,1.69035,-2.46E-02
229.6,18.6999,1.69666,-2.44E-02
230.2,18.7573,1.693,-2.43E-02
230.8,18.8137,1.70033,-2.54E-02
231.4,18.871,1.69836,-2.52E-02
232,18.9265,1.69989,-2.38E-02
232.6,18.9828,1.69884,-2.36E-02
233.2,19.0411,1.70034,-2.35E-02
233.8,19.0969,1.709,-2.46E-02
234.4,19.1537,1.71426,-2.44E-02
235,19.2097,1.7107,-2.43E-02
235.6,19.2664,1.71377,-2.41E-02
236.2,19.3233,1.7024,-2.39E-02
236.8,19.3793,1.71647,-2.38E-02
237.4,19.4366,1.71763,-2.36E-02
238,19.4928,1.71565,-2.48E-02
238.6,19.55,1.7167,-2.46E-02
239.2,19.6068,1.71899,-2.45E-02
239.8,19.6633,1.71948,-2.43E-02
240.4,19.7201,1.72099,-2.42E-02
241,19.7765,1.71643,-2.40E-02
241.6,19.8328,1.72109,-2.39E-02
242.2,19.8894,1.72224,-2.51E-02
242.8,19.9466,1.72487,-2.49E-02
243.4,20.0023,1.72966,-2.48E-02
244,20.0601,1.7354,-2.46E-02
244.6,20.1164,1.72419,-2.51E-02
245.2,20.1734,1.72804,-2.53E-02
245.8,20.2298,1.73352,-2.51E-02
246.4,20.2868,1.71944,-2.54E-02
247,20.3433,1.73667,-2.52E-02
247.6,20.4,1.73124,-2.50E-02
248.2,20.4565,1.73046,-2.48E-02
248.8,20.5133,1.74142,-2.47E-02
249.4,20.5701,1.74094,-2.45E-02
250,20.6261,1.74602,-2.44E-02
250.6,20.6834,1.74165,-2.55E-02
251.2,20.7408,1.74308,-2.54E-02
251.8,20.7971,1.74742,-2.52E-02
252.4,20.8541,1.74605,-2.51E-02
253,20.9095,1.75575,-2.50E-02
253.6,20.967,1.75485,-2.48E-02
254.2,21.0228,1.75789,-2.47E-02
254.8,21.0805,1.75763,-2.61E-02
255.4,21.1368,1.76081,-2.46E-02
256,21.1944,1.75719,-2.45E-02
256.6,21.2507,1.76426,-2.43E-02
257.2,21.3077,1.76806,-2.70E-02
257.8,21.3619,1.78031,-2.67E-02
258.4,21.4192,1.76683,-2.53E-02
259,21.4764,1.7773,-2.52E-02
259.6,21.5345,1.77273,-2.38E-02
260.2,21.5918,1.77188,-2.36E-02
260.8,21.6488,1.77361,-2.48E-02
261.4,21.7046,1.77249,-2.47E-02
262,21.7622,1.77682,-2.45E-02
262.6,21.8184,1.78192,-2.44E-02
263.2,21.8752,1.77036,-2.43E-02
263.8,21.9304,1.77713,-2.42E-02
264.4,21.9883,1.77634,-2.54E-02
265,22.0461,1.77573,-2.53E-02
265.6,22.1027,1.77906,-2.51E-02
266.2,22.1593,1.77485,-2.50E-02
266.8,22.2159,1.7778,-2.49E-02
267.4,22.2733,1.77926,-2.47E-02
268,22.3306,1.78249,-2.46E-02
268.6,22.3868,1.78574,-2.58E-02
269.2,22.4424,1.78259,-2.57E-02
269.8,22.499,1.79175,-2.56E-02
270.4,22.5576,1.7808,-2.55E-02
271,22.6149,1.79041,-2.54E-02
271.6,22.6718,1.79093,-2.53E-02
272.2,22.7291,1.78319,-2.58E-02
272.8,22.7858,1.79331,-2.63E-02
273.4,22.8422,1.79266,-2.62E-02
274,22.899,1.79512,-2.48E-02
274.6,22.957,1.79171,-2.47E-02
275.2,23.012,1.7956,-2.46E-02
275.8,23.0697,1.79916,-2.44E-02
276.4,23.1266,1.80746,-2.50E-02
277,23.1839,1.80615,-2.49E-02
277.6,23.2403,1.80534,-2.48E-02
278.2,23.2982,1.80258,-2.48E-02
278.8,23.3546,1.79929,-2.54E-02
279.4,23.4126,1.8027,-2.62E-02
280,23.4684,1.81114,-2.61E-02
280.6,23.5257,1.80082,-2.60E-02
281.2,23.5819,1.7967,-2.56E-02
281.8,23.6383,1.79743,-2.48E-02
282.4,23.6957,1.79974,-2.47E-02
283,23.7535,1.80047,-2.47E-02
283.6,23.8105,1.8089,-2.42E-02
284.2,23.8674,1.80206,-2.42E-02
284.8,23.925,1.8044,-2.41E-02
285.4,23.9815,1.80847,-2.40E-02
286,24.0382,1.80981,-2.49E-02
286.6,24.096,1.8035,-2.48E-02
287.2,24.1534,1.81526,-2.51E-02
287.8,24.2099,1.80469,-2.52E-02
288.4,24.2672,1.81399,-2.63E-02
289,24.3242,1.8113,-2.62E-02
289.6,24.3814,1.81427,-2.62E-02
290.2,24.4389,1.81923,-2.61E-02
290.8,24.4954,1.82157,-2.60E-02
291.4,24.5521,1.82619,-2.60E-02
292,24.6105,1.82244,-2.59E-02
292.6,24.6674,1.83375,-2.58E-02
293.2,24.7238,1.83113,-2.58E-02
293.8,24.7821,1.83259,-2.57E-02
294.4,24.8387,1.82898,-2.70E-02
295,24.8954,1.83085,-2.69E-02
295.6,24.9538,1.83069,-2.69E-02
296.2,25.01,1.83522,-2.68E-02
296.8,25.0658,1.82643,-2.68E-02
297.4,25.1254,1.83411,-2.68E-02
298,25.181,1.83731,-2.67E-02
298.6,25.2382,1.84015,-2.58E-02
299.2,25.2941,1.84349,-2.57E-02
299.8,25.3543,1.84182,-2.56E-02
300.4,25.4106,1.83478,-2.56E-02
301,25.4664,1.84523,-2.55E-02
301.6,25.5251,1.83895,-2.55E-02
302.2,25.583,1.83527,-2.68E-02
302.8,25.6397,1.83318,-2.67E-02
303.4,25.6973,1.8291,-2.54E-02
304,25.7548,1.8343,-2.53E-02
304.6,25.8125,1.8365,-2.66E-02
305.2,25.8693,1.83567,-2.66E-02
305.8,25.9262,1.83347,-2.65E-02
306.4,25.9834,1.83789,-2.65E-02
307,26.0411,1.8406,-2.65E-02
307.6,26.0983,1.83739,-2.64E-02
308.2,26.1544,1.84024,-2.64E-02
308.8,26.2114,1.84365,-2.64E-02
309.4,26.2693,1.83913,-2.68E-02
310,26.3271,1.84258,-2.70E-02
310.6,26.3839,1.8419,-2.70E-02
311.2,26.441,1.84279,-2.86E-02
311.8,26.4983,1.84353,-2.92E-02
312.4,26.5556,1.84604,-2.78E-02
313,26.6125,1.84631,-2.64E-02
313.6,26.6695,1.84612,-2.64E-02
314.2,26.7279,1.84586,-2.80E-02
314.8,26.785,1.85363,-2.92E-02
315.4,26.8419,1.84439,-2.79E-02
316,26.8995,1.84418,-2.66E-02
316.6,26.9564,1.84663,-2.66E-02
317.2,27.014,1.85794,-2.66E-02
317.8,27.0714,1.8513,-2.66E-02
318.4,27.1282,1.85055,-2.66E-02
319,27.186,1.85146,-2.66E-02
319.6,27.2428,1.85394,-2.79E-02
320.2,27.3008,1.85832,-2.79E-02
320.8,27.3579,1.8482,-2.79E-02
321.4,27.4148,1.8567,-2.79E-02
322,27.4718,1.85609,-2.70E-02
322.6,27.5307,1.85474,-2.70E-02
323.2,27.5878,1.85858,-2.81E-02
323.8,27.6451,1.85608,-2.80E-02
324.4,27.7018,1.84908,-2.81E-02
325,27.7594,1.86383,-2.81E-02
325.6,27.8174,1.8581,-2.82E-02
326.2,27.8741,1.86104,-2.82E-02
326.8,27.9326,1.85571,-2.82E-02
327.4,27.9882,1.86328,-2.82E-02
328,28.0468,1.8624,-2.83E-02
328.6,28.105,1.86286,-2.83E-02
329.2,28.1618,1.86562,-2.84E-02
329.8,28.2185,1.86551,-2.84E-02
330.4,28.2769,1.86642,-2.88E-02
331,28.3334,1.86319,-2.89E-02
331.6,28.3919,1.86363,-2.89E-02
332.2,28.4496,1.85764,-2.90E-02
332.8,28.5064,1.84982,-2.90E-02
333.4,28.5641,1.85188,-3.04E-02
334,28.621,1.85931,-2.92E-02
334.6,28.6787,1.86048,-3.06E-02
335.2,28.7364,1.86483,-3.05E-02
335.8,28.7942,1.86133,-3.06E-02
336.4,28.8508,1.86754,-3.06E-02
337,28.9077,1.86323,-3.00E-02
337.6,28.9651,1.87177,-3.01E-02
338.2,29.0235,1.87355,-3.02E-02
338.8,29.0813,1.87766,-3.02E-02
339.4,29.1358,1.87236,-3.03E-02
340,29.1942,1.86186,-3.07E-02
340.6,29.2531,1.87159,-3.07E-02
341.2,29.3108,1.87143,-3.08E-02
341.8,29.368,1.87631,-2.95E-02
342.4,29.4259,1.87441,-2.95E-02
343,29.4839,1.877,-3.06E-02
343.6,29.5413,1.88348,-3.10E-02
344.2,29.5981,1.87442,-3.11E-02
344.8,29.6555,1.87572,-3.11E-02
345.4,29.7138,1.87277,-3.08E-02
346,29.7723,1.86886,-3.09E-02
346.6,29.8299,1.86862,-3.19E-02
347.2,29.8867,1.87421,-3.23E-02
347.8,29.9452,1.87471,-3.23E-02
348.4,30.0025,1.8705,-3.24E-02
349,30.058,1.87004,-3.25E-02
349.6,30.1178,1.87578,-3.25E-02
350.2,30.1756,1.87973,-3.26E-02
350.8,30.2334,1.87554,-3.26E-02
351.4,30.2906,1.87388,-3.27E-02
352,30.349,1.87304,-3.27E-02
352.6,30.4064,1.87995,-3.28E-02
353.2,30.4644,1.87787,-3.28E-02
353.8,30.5223,1.88472,-3.29E-02
354.4,30.5805,1.88273,-3.32E-02
355,30.6381,1.88582,-3.34E-02
355.6,30.6959,1.88891,-3.34E-02
356.2,30.7536,1.89105,-3.35E-02
356.8,30.8112,1.88864,-3.36E-02
357.4,30.8694,1.88365,-3.36E-02
358,30.9272,1.8817,-3.37E-02
358.6,30.9851,1.88053,-3.38E-02
359.2,31.0425,1.88026,-3.32E-02
359.8,31.1003,1.87876,-3.33E-02
360.4,31.1579,1.87061,-3.34E-02
361,31.2153,1.87234,-3.34E-02
361.6,31.2739,1.88076,-3.35E-02
362.2,31.332,1.88394,-3.36E-02
362.8,31.3899,1.88394,-3.37E-02
363.4,31.4468,1.88186,-3.48E-02
364,31.5048,1.87854,-3.52E-02
364.6,31.5626,1.88216,-3.53E-02
365.2,31.6205,1.87003,-3.48E-02
365.8,31.6789,1.88273,-3.48E-02
366.4,31.737,1.87232,-3.49E-02
367,31.7943,1.8832,-3.50E-02
367.6,31.8522,1.87561,-3.51E-02
368.2,31.9101,1.88746,-3.52E-02
368.8,31.968,1.87907,-3.54E-02
369.4,32.025,1.88439,-3.55E-02
370,32.0837,1.87402,-3.56E-02
370.6,32.1409,1.87558,-3.57E-02
371.2,32.2,1.88173,-3.69E-02
371.8,32.2565,1.87671,-3.70E-02
372.4,32.3155,1.88072,-3.71E-02
373,32.3729,1.87578,-3.73E-02
373.6,32.4316,1.87715,-3.72E-02
374.2,32.4881,1.87385,-3.65E-02
374.8,32.5468,1.87562,-3.64E-02
375.4,32.6041,1.87174,-3.65E-02
376,32.6613,1.87172,-3.69E-02
376.6,32.7214,1.88038,-3.81E-02
377.2,32.7788,1.87617,-3.83E-02
377.8,32.8367,1.86606,-3.84E-02
378.4,32.8952,1.86733,-3.86E-02
379,32.9524,1.86367,-3.87E-02
379.6,33.0099,1.86414,-3.89E-02
380.2,33.0684,1.85973,-3.90E-02
380.8,33.1271,1.86,-3.93E-02
381.4,33.1847,1.86007,-3.97E-02
382,33.2428,1.85663,-3.99E-02
382.6,33.3009,1.8537,-3.87E-02
383.2,33.3584,1.84603,-4.02E-02
383.8,33.4158,1.84981,-4.04E-02
384.4,33.4747,1.84131,-4.06E-02
385,33.5322,1.8358,-4.08E-02
385.6,33.5912,1.82845,-3.98E-02
386.2,33.6488,1.84567,-3.99E-02
386.8,33.707,1.85081,-4.00E-02
387.4,33.7643,1.84769,-4.16E-02
388,33.8225,1.84803,-4.18E-02
388.6,33.8813,1.83866,-4.15E-02
389.2,33.9386,1.84493,-4.16E-02
389.8,33.9966,1.8472,-4.19E-02
390.4,34.0551,1.84751,-4.21E-02
391,34.114,1.8461,-4.37E-02
391.6,34.171,1.84707,-4.39E-02
392.2,34.2294,1.84411,-4.42E-02
392.8,34.2878,1.83574,-4.31E-02
393.4,34.346,1.82972,-4.34E-02
394,34.4046,1.83395,-4.37E-02
394.6,34.4631,1.83037,-4.39E-02
395.2,34.521,1.82962,-4.42E-02
395.8,34.5799,1.83669,-4.45E-02
396.4,34.6367,1.83093,-4.48E-02
397,34.695,1.83742,-4.51E-02
397.6,34.7539,1.84435,-4.54E-02
398.2,34.8121,1.83243,-4.66E-02
398.8,34.8709,1.83306,-4.70E-02
399.4,34.9293,1.82983,-4.73E-02
400,34.9866,1.83623,-4.76E-02
400.6,35.0454,1.82909,-4.80E-02
401.2,35.1042,1.83546,-4.83E-02
401.8,35.1615,1.82827,-4.81E-02
402.4,35.2202,1.82953,-4.84E-02
403,35.2767,1.83664,-4.87E-02
403.6,35.3368,1.83056,-4.91E-02
404.2,35.3953,1.8327,-4.95E-02
404.8,35.4523,1.83637,-4.99E-02
405.4,35.5115,1.83804,-5.03E-02
406,35.5693,1.84354,-5.07E-02
406.6,35.6282,1.8417,-5.12E-02
407.2,35.6868,1.84656,-5.16E-02
407.8,35.7445,1.84232,-5.20E-02
408.4,35.8029,1.8398,-5.24E-02
409,35.8619,1.84374,-5.29E-02
409.6,35.9181,1.83707,-5.27E-02
410.2,35.9788,1.84117,-5.32E-02
410.8,36.0376,1.83797,-5.37E-02
411.4,36.0953,1.82796,-5.42E-02
412,36.1538,1.82761,-5.47E-02
412.6,36.2127,1.82637,-5.62E-02
413.2,36.2705,1.82352,-5.67E-02
413.8,36.3282,1.8326,-5.73E-02
414.4,36.3873,1.83748,-5.79E-02
415,36.4462,1.83909,-5.85E-02
415.6,36.5046,1.83785,-5.91E-02
416.2,36.5632,1.83374,-5.97E-02
416.8,36.6215,1.83822,-6.04E-02
417.4,36.6799,1.83902,-6.11E-02
418,36.7386,1.83217,-6.11E-02
418.6,36.7973,1.83893,-6.19E-02
419.2,36.8551,1.84195,-6.26E-02
419.8,36.9144,1.84804,-6.34E-02
420.4,36.9719,1.8427,-6.42E-02
421,37.0312,1.84315,-6.51E-02
421.6,37.0896,1.84911,-6.59E-02
422.2,37.1479,1.84618,-6.68E-02
422.8,37.2066,1.84986,-6.77E-02
423.4,37.266,1.84711,-6.87E-02
424,37.3242,1.84969,-6.97E-02
424.6,37.3834,1.8582,-7.07E-02
425.2,37.441,1.86225,-7.18E-02
425.8,37.5002,1.87054,-7.28E-02
426.4,37.5587,1.87389,-7.39E-02
427,37.617,1.87463,-7.51E-02
427.6,37.6738,1.88411,-7.56E-02
428.2,37.7341,1.8819,-7.69E-02
428.8,37.7937,1.86786,-7.82E-02
429.4,37.8525,1.87486,-7.95E-02
430,37.9103,1.87243,-8.09E-02
430.6,37.9688,1.87419,-8.36E-02
431.2,38.0269,1.88095,-8.50E-02
431.8,38.086,1.87723,-8.66E-02
432.4,38.1445,1.88205,-8.81E-02
433,38.2025,1.8896,-8.85E-02
433.6,38.2628,1.8847,-9.01E-02
434.2,38.3203,1.88369,-9.17E-02
434.8,38.3792,1.89225,-9.35E-02
435.4,38.4384,1.8974,-9.53E-02
436,38.4971,1.89722,-9.72E-02
436.6,38.5556,1.89169,-9.91E-02
437.2,38.6123,1.90073,-0.10102
437.8,38.6714,1.89851,-0.10179
438.4,38.7315,1.91117,-0.10522
439,38.7906,1.90347,-0.10747
439.6,38.8498,1.902,-0.10972
440.2,38.9084,1.90939,-0.11207
440.8,38.966,1.90508,-0.1145
441.4,39.0253,1.91142,-0.11699
442,39.0833,1.90413,-0.11964
442.6,39.142,1.90865,-0.12229
443.2,39.2014,1.90727,-0.12515
443.8,39.2604,1.90475,-0.12801
444.4,39.3194,1.90817,-0.13098
445,39.3776,1.9072,-0.13399
445.6,39.436,1.91529,-0.13576
446.2,39.4948,1.8969,-0.13912
446.8,39.5535,1.91913,-0.14253
447.4,39.6121,1.92998,-0.14619
448,39.6706,1.93561,-0.15068
448.6,39.7281,1.94833,-0.15476
449.2,39.7889,1.96098,-0.15904
449.8,39.8485,1.95979,-0.16337
450.4,39.9075,1.96927,-0.16764
451,39.9648,1.97968,-0.17224
451.6,40.025,1.9791,-0.17824
452.2,40.0837,1.99053,-0.18196
452.8,40.1412,2.00626,-0.187
453.4,40.2018,2.01156,-0.19244
454,40.2598,2.02049,-0.19685
454.6,40.3191,2.00702,-0.20247
455.2,40.3771,2.00796,-0.20844
455.8,40.4356,2.0219,-0.215
456.4,40.4958,2.02921,-0.22156
457,40.5543,2.0545,-0.22864
457.6,40.6117,2.05437,-0.23605
458.2,40.6705,2.06522,-0.24351
458.8,40.7306,2.08317,-0.25158
459.4,40.789,2.09999,-0.26098
460,40.8472,2.09115,-0.26963
460.6,40.9073,2.09909,-0.27829
461.2,40.9658,2.1096,-0.287
461.8,41.0226,2.11699,-0.29682
462.4,41.0849,2.15589,-0.30676
463,41.1424,2.1704,-0.3175
463.6,41.2021,2.16849,-0.32831
464.2,41.2611,2.17507,-0.34117
464.8,41.3197,2.2024,-0.35256
465.4,41.3781,2.19596,-0.36405
466,41.4388,2.24714,-0.37654
466.6,41.4973,2.25647,-0.38997
467.2,41.5574,2.28994,-0.40359
467.8,41.6156,2.27473,-0.41814
468.4,41.6743,2.28749,-0.43328
469,41.7343,2.33788,-0.44859
469.6,41.7927,2.35126,-0.46481
470.2,41.8531,2.33904,-0.4816
470.8,41.9097,2.36022,-0.49802
471.4,41.9704,2.38086,-0.5161
472,42.0299,2.38124,-0.53496
472.6,42.0898,2.41583,-0.55436
473.2,42.1497,2.46279,-0.57383
473.8,42.2075,2.48122,-0.59436
474.4,42.2678,2.49174,-0.61552
475,42.3273,2.49284,-0.63704
475.6,42.3855,2.50258,-0.65963
476.2,42.4449,2.49021,-0.6843
476.8,42.5046,2.53991,-0.70852
477.4,42.5642,2.56739,-0.73285
478,42.623,2.58422,-0.75865
478.6,42.6832,2.62939,-0.78518
479.2,42.7431,2.67126,-0.81261
479.8,42.8027,2.66309,-0.84111
480.4,42.8617,2.745,-0.86977
481,42.9211,2.77823,-0.90042
481.6,42.9795,2.79714,-0.93136
482.2,43.0391,2.76768,-0.96313
482.8,43.0978,2.80548,-0.9949
483.4,43.1579,2.89105,-1.02874
484,43.2185,2.96455,-1.06288
484.6,43.2779,2.97604,-1.09836
485.2,43.3371,2.94821,-1.1346
485.8,43.3956,2.88452,-1.17138
486.4,43.455,2.91219,-1.20933
487,43.5141,3.00004,-1.24823
487.6,43.5744,3.05435,-1.28833
488.2,43.6342,3.10489,-1.32905
488.8,43.6934,3.12785,-1.37047
489.4,43.7522,3.07337,-1.41197
490,43.8114,3.07029,-1.45479
490.6,43.8698,3.06147,-1.49863
491.2,43.9289,3.08147,-1.54463
491.8,43.9888,3.14061,-1.58993
492.4,44.0491,3.21325,-1.6353
493,44.1075,3.19849,-1.68069
493.6,44.1665,3.20925,-1.72814
494.2,44.2259,3.21899,-1.77744
494.8,44.2852,3.21576,-1.82603
495.4,44.3424,3.24314,-1.87534
496,44.4032,3.28745,-1.9239
496.6,44.4632,3.30692,-1.97359
497.2,44.5219,3.32615,-2.0222
497.8,44.5811,3.32448,-2.06959
498.4,44.6405,3.33474,-2.11608
499,44.6991,3.34476,-2.1603
499.6,44.7583,3.38058,-2.19791
500.2,44.8172,3.36227,-2.22821
500.8,44.8765,3.32519,-2.26034
501.4,44.9346,3.28237,-2.29225
502,44.9936,3.23288,-2.32254
502.6,45.0508,3.18557,-2.35241
503.2,45.1091,3.13863,-2.38333
503.8,45.1659,3.07091,-2.41072
504.4,45.2233,2.97767,-2.43626
505,45.2809,2.86482,-2.46257
505.6,45.3388,2.74303,-2.48664
506.2,45.3965,2.58871,-2.51169
506.8,45.4535,2.44075,-2.53886
507.4,45.5097,2.30285,-2.57101
508,45.5672,2.16257,-2.60117
508.6,45.6245,2.00771,-2.6279
509.2,45.6816,1.88754,-2.65664
509.8,45.7394,1.76539,-2.68428
510.4,45.7968,1.65107,-2.70778
511,45.8544,1.53213,-2.73368
511.6,45.9111,1.43325,-2.75674
512.2,45.969,1.33852,-2.77884
512.8,46.027,1.25005,-2.7998
513.4,46.0844,1.15727,-2.82165
514,46.1414,1.08549,-2.84264
514.6,46.1997,1.02215,-2.86107
515.2,46.257,0.95439,-2.87944
515.8,46.316,0.91529,-2.89669
516.4,46.374,0.85575,-2.91346
517,46.4319,0.82962,-2.92848
517.6,46.4901,0.79907,-2.94432
518.2,46.5485,0.76543,-2.95966
518.8,46.6069,0.73865,-2.97449
519.4,46.6644,0.73132,-2.98715
520,46.7238,0.70973,-3.00123
520.6,46.7826,0.72131,-3.01692
521.2,46.841,0.7085,-3.02873
521.8,46.9001,0.70746,-3.0391
522.4,46.9588,0.6966,-3.04858
523,47.0179,0.70408,-3.05737
523.6,47.076,0.69365,-3.06504
524.2,47.1348,0.69988,-3.07557
524.8,47.1937,0.68858,-3.08584
525.4,47.2532,0.6962,-3.09434
526,47.3128,0.71307,-3.10337
526.6,47.3715,0.71089,-3.11183
527.2,47.429,0.72031,-3.11953
527.8,47.4881,0.71526,-3.1273
528.4,47.548,0.71602,-3.135
529,47.6073,0.72731,-3.13902
529.6,47.6663,0.73145,-3.14462
530.2,47.7254,0.7359,-3.15124
530.8,47.784,0.72996,-3.15695
531.4,47.8425,0.72287,-3.16219
532,47.9011,0.7218,-3.16748
532.6,47.9599,0.73203,-3.17292
533.2,48.0198,0.74014,-3.17675
533.8,48.0799,0.73184,-3.18069
534.4,48.1388,0.73665,-3.18505
535,48.1969,0.74142,-3.18978
535.6,48.2554,0.73965,-3.19425
536.2,48.3152,0.741,-3.19988
536.8,48.3734,0.74512,-3.20768
537.4,48.4333,0.75748,-3.2147
538,48.4924,0.76128,-3.22774
538.6,48.5511,0.75829,-3.24448
539.2,48.6108,0.75212,-3.26015
539.8,48.6701,0.74903,-3.28546
540.4,48.7289,0.75135,-3.31059
541,48.7884,0.74934,-3.34576
541.6,48.8464,0.75406,-3.38206
542.2,48.9067,0.75232,-3.42397
542.8,48.9663,0.75095,-3.46021
543.4,49.0252,0.75554,-3.49367
544,49.0842,0.74741,-3.52326
544.6,49.1426,0.75272,-3.55092
545.2,49.2048,0.74179,-3.57385
545.8,49.2635,0.71181,-3.59529
546.4,49.3293,0.6503,-3.61615
547,49.3942,0.59391,-3.63142
547.6,49.4575,0.56826,-3.64397
548.2,49.523,0.52836,-3.65457
548.8,49.5851,0.51242,-3.66812
549.4,49.6487,0.4953,-3.67406
550,49.7111,0.47474,-3.67911
550.6,49.7725,0.47293,-3.68072
551.2,49.8349,0.46497,-3.68845
551.8,49.8942,0.47321,-3.68723
552.4,49.9569,0.47557,-3.6817
553,50.0182,0.47742,-3.67124
553.6,50.0775,0.47578,-3.65984
554.2,50.1383,0.46972,-3.64475
554.8,50.1979,0.475,-3.62718
555.4,50.2578,0.46393,-3.6083
556,50.3178,0.4626,-3.59039
556.6,50.3766,0.46554,-3.57298
557.2,50.4367,0.457,-3.55456
557.8,50.4964,0.46147,-3.5367
558.4,50.5564,0.46041,-3.52019
559,50.6155,0.462,-3.50274
559.6,50.6753,0.46912,-3.48727
560.2,50.7344,0.45289,-3.47333
560.8,50.7941,0.46005,-3.45896
561.4,50.8533,0.46694,-3.44582
562,50.9131,0.45825,-3.43265
562.6,50.9719,0.44919,-3.42185
563.2,51.0323,0.46479,-3.4124
563.8,51.0913,0.45569,-3.404
564.4,51.1515,0.45889,-3.39516
565,51.2105,0.45345,-3.3851
565.6,51.27,0.45243,-3.37858
566.2,51.3301,0.45032,-3.3727
566.8,51.3894,0.45365,-3.36815
567.4,51.4488,0.43866,-3.36265
568,51.5081,0.44449,-3.35775
568.6,51.5674,0.43337,-3.35372
569.2,51.6276,0.42352,-3.3503
569.8,51.6872,0.43307,-3.34723
570.4,51.7455,0.42734,-3.34242
571,51.8062,0.42573,-3.34004
571.6,51.8662,0.43284,-3.3367
572.2,51.9256,0.43089,-3.33492
572.8,51.9839,0.42115,-3.33416
573.4,52.0449,0.42312,-3.33297
574,52.105,0.41934,-3.33181
574.6,52.1646,0.42843,-3.33092
575.2,52.2239,0.42995,-3.32978
575.8,52.2848,0.43434,-3.3298
576.4,52.3438,0.4232,-3.32928
577,52.4035,0.41827,-3.32936
577.6,52.4634,0.4195,-3.32781
578.2,52.5231,0.42199,-3.32633
578.8,52.582,0.42224,-3.32625
579.4,52.6424,0.42971,-3.32476
580,52.7028,0.42782,-3.32479
580.6,52.7629,0.42299,-3.32621
581.2,52.821,0.42634,-3.32626
581.8,52.8828,0.43186,-3.32515
582.4,52.9421,0.44329,-3.32531
583,53.0026,0.43943,-3.32622
583.6,53.0596,0.44914,-3.32655
584.2,53.122,0.45386,-3.32749
584.8,53.1799,0.45871,-3.32781
585.4,53.2422,0.46328,-3.32684
586,53.3016,0.4604,-3.3272
586.6,53.3618,0.46878,-3.32636
587.2,53.4213,0.47006,-3.32668
587.8,53.4808,0.47376,-3.32709
588.4,53.5415,0.47297,-3.32752
589,53.6011,0.46777,-3.32786
589.6,53.6614,0.47812,-3.32971
590.2,53.7214,0.48438,-3.33015
590.8,53.7812,0.48496,-3.33061
591.4,53.8411,0.4914,-3.33107
592,53.9011,0.48522,-3.33153
592.6,53.9616,0.48433,-3.33199
593.2,54.0211,0.48753,-3.33247
593.8,54.0812,0.48449,-3.33293
594.4,54.1419,0.494,-3.33338
595,54.2018,0.48967,-3.33254
595.6,54.2591,0.48828,-3.33295
596.2,54.3217,0.48506,-3.33415
596.8,54.3812,0.48759,-3.33464
597.4,54.4419,0.48147,-3.33513
598,54.5016,0.48832,-3.33562
598.6,54.5591,0.48935,-3.3361
599.2,54.6214,0.48811,-3.33522
599.8,54.6817,0.47732,-3.33574
600.4,54.7415,0.48383,-3.33622
601,54.8025,0.4744,-3.3367
601.6,54.8626,0.47538,-3.33851
602.2,54.9219,0.47759,-3.33898
602.8,54.9826,0.48775,-3.33945
603.4,55.0407,0.48839,-3.33992
604,55.1024,0.4777,-3.33907
604.6,55.1625,0.48166,-3.33954
605.2,55.2209,0.48165,-3.34001
605.8,55.2826,0.48502,-3.34048
606.4,55.3424,0.48629,-3.34096
607,55.4021,0.47107,-3.34207
607.6,55.4631,0.47029,-3.34257
608.2,55.5228,0.47605,-3.34304
608.8,55.5844,0.72028,-3.34352
609.4,55.6446,0.60439,-3.34267
610,55.7041,0.55753,-3.34314
610.6,55.7637,0.52004,-3.3436
611.2,55.8243,0.51062,-3.34308
611.8,55.884,0.48934,-3.34357
612.4,55.9438,0.4897,-3.34404
613,56.0037,0.49321,-3.3445
613.6,56.0646,0.48602,-3.34626
614.2,56.1245,0.48638,-3.34541
614.8,56.1846,0.4782,-3.34586
615.4,56.2442,0.48833,-3.34632
616,56.3046,0.47652,-3.34677
616.6,56.3648,0.48374,-3.3486
617.2,56.4246,0.48527,-3.34901
617.8,56.484,0.48765,-3.34946
618.4,56.5435,0.4749,-3.34991
619,56.6041,0.47871,-3.35036
619.6,56.6648,0.47063,-3.3508
620.2,56.7253,0.47855,-3.35123
620.8,56.7852,0.48212,-3.35168
621.4,56.8446,0.47453,-3.35213
622,56.9045,0.46804,-3.3516
622.6,56.9644,0.47509,-3.35203
623.2,57.0244,0.4759,-3.35213
623.8,57.0841,0.46976,-3.35257
624.4,57.1451,0.47243,-3.353
625,57.2041,0.47029,-3.35344
625.6,57.2647,0.45771,-3.35386
626.2,57.3243,0.46271,-3.35429
626.8,57.3847,0.4607,-3.35472
627.4,57.4438,0.46852,-3.35508
628,57.5044,0.47159,-3.35429
628.6,57.5649,0.46389,-3.35472
629.2,57.6251,0.4727,-3.35516
629.8,57.6848,0.46706,-3.35559
630.4,57.7456,0.45782,-3.35702
631,57.8051,0.47058,-3.35744
631.6,57.8659,0.46883,-3.35655
632.2,57.926,0.47158,-3.35693
632.8,57.9852,0.47056,-3.35736
633.4,58.0452,0.46996,-3.35778
634,58.1056,0.46743,-3.35821
634.6,58.1664,0.47588,-3.35997
635.2,58.2259,0.4857,-3.35865
635.8,58.287,0.47678,-3.35802
636.4,58.348,0.48592,-3.35843
637,58.4074,0.48711,-3.35888
637.6,58.4679,0.47149,-3.35792
638.2,58.5292,0.48845,-3.35832
638.8,58.589,0.48905,-3.35874
639.4,58.6484,0.47871,-3.35914
640,58.7076,0.47528,-3.36055
640.6,58.7701,0.47074,-3.36094
641.2,58.8293,0.47304,-3.36129
641.8,58.8893,0.46705,-3.36038
642.4,58.9501,0.46144,-3.36076
643,59.0096,0.45763,-3.36115
643.6,59.0702,0.45997,-3.36291
644.2,59.1277,0.46058,-3.36323
644.8,59.1903,0.44471,-3.36227
645.4,59.2515,0.46006,-3.3627
646,59.3101,0.45621,-3.3631
646.6,59.3697,0.46104,-3.36277
647.2,59.4306,0.47163,-3.36444
647.8,59.4897,0.45169,-3.3635
648.4,59.5491,0.45486,-3.36389
649,59.6095,0.45287,-3.36429
649.6,59.6689,0.4465,-3.36467
650.2,59.7277,0.44127,-3.36637
650.8,59.7888,0.44535,-3.36676
651.4,59.8473,0.43563,-3.36617
652,59.9085,0.44117,-3.36654
652.6,59.9673,0.45816,-3.36657
653.2,60.0278,0.44966,-3.36562
653.8,60.0879,0.42886,-3.36601
654.4,60.1474,0.43164,-3.36641
655,60.2077,0.43103,-3.36806
655.6,60.2669,0.42592,-3.36842
656.2,60.3271,0.46197,-3.3688
656.8,60.387,0.46373,-3.36919
657.4,60.4473,0.47707,-3.36957
658,60.5063,0.4798,-3.36994
658.6,60.5664,0.48137,-3.37032
659.2,60.6276,0.47923,-3.37069
659.8,60.6875,0.48079,-3.37034
660.4,60.7468,0.47795,-3.3707
661,60.8063,0.46898,-3.37104
661.6,60.8669,0.4832,-3.37141
662.2,60.927,0.49273,-3.37183
662.8,60.9874,0.48339,-3.37149
663.4,61.0475,0.4727,-3.37186
664,61.1066,0.48567,-3.37213
664.6,61.1672,0.47419,-3.3713
665.2,61.227,0.4524,-3.37164
665.8,61.2877,0.47378,-3.37201
666.4,61.347,0.46818,-3.37107
667,61.4069,0.46779,-3.37144
667.6,61.467,0.46968,-3.37215
668.2,61.5274,0.47484,-3.37349
668.8,61.5869,0.46998,-3.37382
669.4,61.6466,0.46295,-3.37291
670,61.7064,0.46402,-3.37329
670.6,61.7674,0.45965,-3.37366
671.2,61.825,0.45047,-3.37403
671.8,61.8867,0.44923,-3.37442
672.4,61.9472,0.44952,-3.37483
673,62.0069,0.44283,-3.37521
673.6,62.0664,0.4342,-3.37558
674.2,62.1272,0.42921,-3.37593
674.8,62.1867,0.41669,-3.37629
675.4,62.246,0.4269,-3.37666
676,62.3064,0.43119,-3.37704
676.6,62.3662,0.42517,-3.37742
677.2,62.4256,0.41826,-3.37644
677.8,62.4855,0.40926,-3.37686
678.4,62.5458,0.41214,-3.37768
679,62.6054,0.40283,-3.37828
679.6,62.6655,0.4103,-3.37865
680.2,62.7258,0.42161,-3.37902
680.8,62.7863,0.41018,-3.37912
681.4,62.8456,0.41123,-3.37877
682,62.9068,0.40518,-3.37914
682.6,62.9655,0.39496,-3.3795
683.2,63.0264,0.39782,-3.37986
683.8,63.0863,0.40301,-3.38022
684.4,63.1462,0.41348,-3.38058
685,63.2069,0.40008,-3.38094
685.6,63.2659,0.40856,-3.38133
686.2,63.3264,0.40793,-3.38173
686.8,63.3869,0.40681,-3.38175
687.4,63.4453,0.40262,-3.38215
688,63.5053,0.39049,-3.38118
688.6,63.5673,0.41005,-3.38153
689.2,63.6277,0.40115,-3.38188
689.8,63.6865,0.40237,-3.38223
690.4,63.7478,0.38171,-3.38258
691,63.8076,0.39269,-3.38293
691.6,63.8676,0.38995,-3.38329
692.2,63.9274,0.38094,-3.38367
692.8,63.9867,0.37765,-3.38328
693.4,64.0468,0.37724,-3.38305
694,64.1067,0.38245,-3.3834
694.6,64.1663,0.38149,-3.38375
695.2,64.2271,0.3789,-3.3842
695.8,64.2868,0.36654,-3.38476
696.4,64.3471,0.37557,-3.38492
697,64.4067,0.36404,-3.38415
697.6,64.4663,0.37214,-3.38451
698.2,64.5272,0.359,-3.38485
698.8,64.5859,0.36087,-3.38519
699.4,64.6469,0.36066,-3.38695
700,64.7065,0.3565,-3.38721
700.6,64.7672,0.3667,-3.38755
701.2,64.8265,0.36205,-3.38725
701.8,64.886,0.36199,-3.38693
702.4,64.9466,0.35671,-3.38728
703,65.0057,0.3568,-3.38763
703.6,65.0665,0.36599,-3.38797
704.2,65.1262,0.35325,-3.38831
704.8,65.1865,0.34669,-3.38865
705.4,65.2459,0.34494,-3.38898
706,65.3066,0.33908,-3.38932
706.6,65.3658,0.33286,-3.38958
707.2,65.4255,0.34276,-3.38967
707.8,65.4855,0.33463,-3.38966
708.4,65.5457,0.33897,-3.39
709,65.6055,0.33877,-3.39034
709.6,65.6664,0.32502,-3.39068
710.2,65.7256,0.33758,-3.39103
710.8,65.7849,0.33595,-3.39071
711.4,65.8454,0.33344,-3.39104
712,65.9052,0.32956,-3.39136
712.6,65.965,0.3326,-3.39039
713.2,66.0253,0.32722,-3.39074
713.8,66.0856,0.3174,-3.39108
714.4,66.1452,0.32011,-3.39142
715,66.2045,0.31671,-3.39175
715.6,66.2647,0.30405,-3.39209
716.2,66.3247,0.30357,-3.39243
716.8,66.3854,0.2952,-3.39211
717.4,66.4451,0.29534,-3.39245
718,66.5047,0.29617,-3.39278
718.6,66.5633,0.29402,-3.39316
719.2,66.6253,0.28912,-3.39475
719.8,66.6848,0.27994,-3.3951
720.4,66.745,0.27945,-3.39546
721,66.8051,0.28156,-3.39447
721.6,66.8645,0.27799,-3.3962
722.2,66.9248,0.27831,-3.39649
722.8,66.9852,0.27432,-3.39633
723.4,67.0451,0.27489,-3.39584
724,67.1056,0.277,-3.39617
724.6,67.1637,0.27412,-3.39648
725.2,67.225,0.27463,-3.3961
725.8,67.284,0.26512,-3.3965
726.4,67.3454,0.25621,-3.39684
727,67.4043,0.25706,-3.39717
727.6,67.4651,0.26314,-3.39751
728.2,67.5254,0.25882,-3.39785
728.8,67.5861,0.2647,-3.39748
729.4,67.6455,0.26342,-3.39783
730,67.7055,0.27367,-3.39815
730.6,67.7657,0.28483,-3.39845
731.2,67.826,0.27062,-3.39748
731.8,67.8852,0.26388,-3.3978
732.4,67.9464,0.27709,-3.39797
733,68.0069,0.26481,-3.3971
733.6,68.0671,0.26613,-3.39742
734.2,68.1277,0.27315,-3.39773
734.8,68.188,0.27365,-3.39805
735.4,68.2481,0.26904,-3.39837
736,68.3086,0.27012,-3.39731
736.6,68.3687,0.26702,-3.39767
737.2,68.4296,0.27282,-3.39797
737.8,68.4891,0.2761,-3.39828
738.4,68.5489,0.26557,-3.40011
739,68.6095,0.26111,-3.40045
739.6,68.669,0.26274,-3.39944
740.2,68.729,0.2587,-3.39972
740.8,68.789,0.24027,-3.40002
741.4,68.8493,0.24096,-3.40033
742,68.9089,0.23557,-3.40063
742.6,68.9694,0.23583,-3.40091
743.2,69.0292,0.24727,-3.40057
743.8,69.0884,0.23971,-3.40071
744.4,69.1485,0.24065,-3.40051
745,69.2088,0.24569,-3.4008
745.6,69.2693,0.24127,-3.40109
746.2,69.3279,0.24342,-3.40138
746.8,69.3878,0.22755,-3.40297
747.4,69.4486,0.22982,-3.40333
748,69.5085,0.21896,-3.40219
748.6,69.5684,0.21338,-3.40108
749.2,69.6288,0.22067,-3.40136
749.8,69.6901,0.20409,-3.40164
750.4,69.7493,0.19297,-3.40193
751,69.8098,0.17518,-3.40221
751.6,69.8696,0.18664,-3.40249
752.2,69.9303,0.17447,-3.40278
752.8,69.9908,0.15131,-3.40307
753.4,70.0512,0.15438,-3.40335
754,70.1108,0.15651,-3.40361
754.6,70.171,0.13952,-3.40341
755.2,70.2316,0.14571,-3.40285
755.8,70.2913,0.14863,-3.40313
756.4,70.352,0.14777,-3.4034
757,70.4122,0.15395,-3.40368
757.6,70.4719,0.14933,-3.40395
758.2,70.5322,0.15003,-3.40423
758.8,70.5926,0.15542,-3.40451
759.4,70.6529,0.14659,-3.40479
760,70.7127,0.15304,-3.40506
760.6,70.7739,0.14562,-3.40534
761.2,70.8324,0.14224,-3.40464
761.8,70.8946,0.14766,-3.40626
762.4,70.9555,0.14609,-3.40651
763,71.0148,0.15113,-3.40566
763.6,71.0753,0.15491,-3.40576
764.2,71.137,0.13313,-3.40603
764.8,71.1971,0.12926,-3.4063
765.4,71.2569,0.1423,-3.40657
766,71.3177,0.1378,-3.40684
766.6,71.3785,0.14389,-3.40712
767.2,71.4393,0.14103,-3.40627
767.8,71.5005,0.13643,-3.40634
768.4,71.5588,0.13,-3.4066
769,71.6206,0.12326,-3.40688
769.6,71.6799,0.12332,-3.40715
770.2,71.7414,0.12849,-3.40621
770.8,71.8022,0.12917,-3.40636
771.4,71.8629,0.12438,-3.40662
772,71.9239,0.11431,-3.40689
772.6,71.9835,0.12611,-3.40715
773.2,72.0438,0.13625,-3.40741
773.8,72.1042,0.11223,-3.40766
774.4,72.1647,0.12019,-3.40791
775,72.2251,0.12097,-3.40817
775.6,72.2857,0.12889,-3.40844
776.2,72.3472,0.09999978,-3.40874
776.8,72.4052,0.09557722,-3.40763
777.4,72.4675,0.10166,-3.40788
778,72.5275,0.076297,-3.40813
778.6,72.5884,0.08671409,-3.40838
779.2,72.649,0.06852974,-3.40864
779.8,72.7078,0.05690683,-3.4089
780.4,72.769,0.05393267,-3.40916
781,72.831,0.05524361,-3.40942
781.6,72.8916,0.04600283,-3.40969
782.2,72.9529,0.04467695,-3.40863
782.8,73.0129,0.04800005,-3.41043
783.4,73.0731,0.04178607,-3.41069
784,73.1338,0.04849809,-3.40961
784.6,73.1942,0.06690195,-3.40852
785.2,73.2547,0.05739622,-3.40877
785.8,73.3158,0.04770601,-3.40906
786.4,73.3762,0.04398999,-3.40995
787,73.4371,0.04760187,-3.41021
787.6,73.4981,0.04426648,-3.41043
788.2,73.5583,0.03708745,-3.41065
788.8,73.6194,0.04109716,-3.40956
789.4,73.6795,0.03145774,-3.4098
790,73.741,0.0326174,-3.41001