File: 01_Data/NFPA_1981-2019_SCBA_Lens/STA/N2/10K_min/NFPA_1981-2019_SCBA_Lens_STA_N2_10KData_230604_R1.csv
Temp./C,Time/min,DSC/(mW/mg),Mass loss/mg
40.0,0.0,0.564342,-0.0187765
40.5,0.0586192,0.570235,-0.01787
41,0.113456,0.581615,-0.0187974
41.5,0.176254,0.586231,-0.0188772
42,0.234528,0.594545,-0.0188263
42.5,0.292747,0.598986,-0.0188798
43,0.350197,0.60468,-0.018812
43.5,0.406166,0.611494,-0.0185067
44,0.461447,0.620575,-0.0183901
44.5,0.51914,0.621319,-0.0186021
45,0.575436,0.626583,-0.0188003
45.5,0.631729,0.632141,-0.0188741
46,0.6875,0.636382,-0.0174579
46.5,0.742375,0.636535,-0.0175489
47,0.798213,0.650319,-0.0177823
47.5,0.853354,0.646831,-0.0188826
48,0.909473,0.645618,-0.0184974
48.5,0.963352,0.657465,-0.0202356
49,1.01643,0.662076,-0.0207759
49.5,1.07136,0.667264,-0.0196446
50,1.12561,0.669742,-0.0188973
50.5,1.18114,0.67132,-0.0189161
51,1.2337,0.673157,-0.0188455
51.5,1.28743,0.677749,-0.0188871
52,1.34251,0.674354,-0.018888
52.5,1.3965,0.681458,-0.0202378
53,1.4501,0.68699,-0.0197971
53.5,1.50438,0.691659,-0.0207855
54,1.55685,0.690576,-0.0201961
54.5,1.60977,0.691168,-0.0188672
55,1.6612,0.688521,-0.0202036
55.5,1.71434,0.697814,-0.0188821
56,1.76731,0.696211,-0.0189065
56.5,1.81975,0.699546,-0.0191769
57,1.87261,0.702485,-0.0188805
57.5,1.92471,0.709368,-0.0188657
58,1.97635,0.70653,-0.018906
58.5,2.02883,0.71519,-0.018771
59,2.08202,0.714363,-0.0188729
59.5,2.13419,0.718592,-0.0175665
60,2.18554,0.719573,-0.0189187
60.5,2.23756,0.72154,-0.017637
61,2.2883,0.723753,-0.0188799
61.5,2.34059,0.729018,-0.0190232
62,2.39241,0.736696,-0.0202748
62.5,2.4422,0.74093,-0.0202099
63,2.49445,0.742396,-0.0200564
63.5,2.54526,0.739,-0.0188944
64,2.5973,0.750496,-0.0175951
64.5,2.64732,0.754322,-0.0188784
65,2.69854,0.755609,-0.0176015
65.5,2.74887,0.762458,-0.0188842
66,2.79984,0.756838,-0.0190555
66.5,2.85073,0.757763,-0.0186924
67,2.90194,0.753336,-0.0175708
67.5,2.95243,0.759335,-0.0185695
68,3.00292,0.763998,-0.0188903
68.5,3.05119,0.765063,-0.0186901
69,3.1038,0.768732,-0.0188644
69.5,3.15675,0.770808,-0.0193909
70,3.20386,0.776856,-0.0188683
70.5,3.2552,0.775791,-0.020185
71,3.30488,0.781586,-0.0201041
71.5,3.35628,0.781097,-0.0199211
72,3.40534,0.782029,-0.0202114
72.5,3.45488,0.784533,-0.019007
73,3.50497,0.785725,-0.0202638
73.5,3.55671,0.785752,-0.0188807
74,3.60708,0.790441,-0.0188762
74.5,3.65343,0.775433,-0.0175054
75,3.70668,0.799522,-0.0188808
75.5,3.75526,0.79219,-0.0188803
76,3.80364,0.79783,-0.0188143
76.5,3.85675,0.79779,-0.0177355
77,3.90695,0.8009,-0.0188889
77.5,3.95706,0.79844,-0.0188502
78,4.0076,0.811137,-0.0188844
78.5,4.05609,0.810782,-0.01889
79,4.10605,0.816991,-0.0188944
79.5,4.15657,0.816124,-0.0175757
80,4.20503,0.816578,-0.0175587
80.5,4.2559,0.819784,-0.017533
81,4.30515,0.820811,-0.0188966
81.5,4.3541,0.821288,-0.0188899
82,4.4038,0.827619,-0.0174072
82.5,4.45297,0.82696,-0.0188889
83,4.50293,0.830405,-0.0188901
83.5,4.55271,0.829384,-0.0177368
84,4.60179,0.831699,-0.0188789
84.5,4.64886,0.832412,-0.018877
85,4.70039,0.834247,-0.0189529
85.5,4.75066,0.830515,-0.0188808
86,4.79599,0.832679,-0.0175059
86.5,4.84831,0.832916,-0.0188833
87,4.89817,0.835292,-0.01889
87.5,4.94532,0.835583,-0.0188897
88,4.99612,0.844367,-0.0175843
88.5,5.04557,0.83517,-0.0188928
89,5.0955,0.84556,-0.0200832
89.5,5.14426,0.847209,-0.0201305
90,5.19352,0.849887,-0.0188866
90.5,5.2427,0.847379,-0.0175716
91,5.29262,0.853819,-0.0188074
91.5,5.34149,0.849482,-0.01888
92,5.38985,0.853302,-0.0176769
92.5,5.44016,0.856345,-0.018879
93,5.48922,0.853158,-0.019908
93.5,5.53851,0.860818,-0.0198699
94,5.58613,0.858074,-0.0199011
94.5,5.63587,0.857018,-0.0185556
95,5.68539,0.862172,-0.0189017
95.5,5.73428,0.863497,-0.018915
96,5.7827,0.862277,-0.0188772
96.5,5.83243,0.872764,-0.01889
97,5.8812,0.873481,-0.01889
97.5,5.92936,0.878905,-0.0188903
98,5.97862,0.877425,-0.0190177
98.5,6.02702,0.884389,-0.018881
99,6.07745,0.879787,-0.0174546
99.5,6.12499,0.881717,-0.0188674
100,6.17367,0.873544,-0.0188936
100.5,6.22179,0.885804,-0.0201912
101,6.27105,0.885607,-0.0187768
101.5,6.31989,0.88531,-0.0202053
102,6.36871,0.891972,-0.0215264
102.5,6.41889,0.891619,-0.0215262
103,6.46692,0.893098,-0.0201925
103.5,6.51535,0.889491,-0.0202
104,6.56515,0.899441,-0.0202
104.5,6.61377,0.899469,-0.0202004
105,6.66327,0.902275,-0.0206715
105.5,6.71115,0.90669,-0.0196444
106,6.75999,0.905773,-0.0198681
106.5,6.8078,0.909431,-0.0202
107,6.85662,0.907124,-0.0194571
107.5,6.90486,0.912214,-0.0188797
108,6.95487,0.918545,-0.01888
108.5,7.00309,0.920418,-0.0188786
109,7.05134,0.926202,-0.0202411
109.5,7.09909,0.924253,-0.0189011
110,7.14826,0.926645,-0.0201296
110.5,7.19678,0.922951,-0.0202101
111,7.24552,0.933111,-0.0202019
111.5,7.29461,0.938629,-0.0189005
112,7.34251,0.932724,-0.0189052
112.5,7.38847,0.937338,-0.0202003
113,7.43912,0.936643,-0.0202
113.5,7.48931,0.940534,-0.0200758
114,7.53621,0.941296,-0.0188816
114.5,7.58516,0.942803,-0.0188787
115,7.63371,0.944653,-0.0202035
115.5,7.68261,0.94247,-0.0202
116,7.73042,0.954121,-0.0202698
116.5,7.77901,0.951725,-0.0188753
117,7.82743,0.949063,-0.0202056
117.5,7.87372,0.947737,-0.0201205
118,7.92483,0.951243,-0.0188902
118.5,7.97231,0.947441,-0.0202226
119,8.02179,0.94722,-0.0202099
119.5,8.06959,0.945058,-0.0202089
120,8.11824,0.946943,-0.0195681
120.5,8.16762,0.953882,-0.0197312
121,8.21564,0.951954,-0.0201999
121.5,8.26359,0.954867,-0.0197712
122,8.3117,0.959501,-0.0188796
122.5,8.36092,0.962205,-0.0201714
123,8.40929,0.963784,-0.0202
123.5,8.45802,0.96302,-0.0202064
124,8.50522,0.965766,-0.0192302
124.5,8.55372,0.9623,-0.0192115
125,8.60241,0.967692,-0.0205233
125.5,8.65097,0.970914,-0.0202014
126,8.69887,0.977198,-0.0188427
126.5,8.74663,0.971315,-0.0188901
127,8.79638,0.9748,-0.0188899
127.5,8.84452,0.973302,-0.020289
128,8.89316,0.973788,-0.0202099
128.5,8.94016,0.979009,-0.02021
129,8.98874,0.972501,-0.0202099
129.5,9.03731,0.972698,-0.0193605
130,9.08653,0.975538,-0.0188895
130.5,9.13417,0.976651,-0.01889
131,9.18153,0.97148,-0.0188899
131.5,9.23003,0.989898,-0.0189835
132,9.27919,0.979789,-0.0188596
132.5,9.32756,0.984172,-0.0188799
133,9.37561,0.984283,-0.0190246
133.5,9.42169,0.989446,-0.0195601
134,9.47205,0.991347,-0.0175627
134.5,9.51861,0.988847,-0.017571
135,9.56797,0.988435,-0.0188875
135.5,9.61652,0.993214,-0.0179183
136,9.66395,1.00103,-0.0183547
136.5,9.71222,0.995657,-0.0188904
137,9.76044,0.997448,-0.01889
137.5,9.80841,0.987999,-0.0188902
138,9.85631,0.99234,-0.0192421
138.5,9.90399,0.99127,-0.0192904
139,9.95223,0.996501,-0.0201975
139.5,10.0002,0.9905,-0.0203074
140,10.0484,0.988525,-0.0202
140.5,10.0968,0.985428,-0.0188181
141,10.144,0.997212,-0.0188873
141.5,10.1919,0.994214,-0.017887
142,10.2393,0.999517,-0.0189815
142.5,10.2881,1.00635,-0.0188793
143,10.3361,1.0096,-0.0183976
143.5,10.3844,1.00373,-0.0182199
144,10.4313,1.008,-0.0182202
144.5,10.4789,1.00476,-0.0185191
145,10.5272,1.01271,-0.01883
145.5,10.5754,1.01224,-0.0195389
146,10.6222,1.00452,-0.01954
146.5,10.6707,1.00642,-0.0195389
147,10.7186,1.00337,-0.0196266
147.5,10.7665,1.00799,-0.0195971
148,10.8141,1.01372,-0.0187265
148.5,10.8612,1.00795,-0.018867
149,10.91,1.00692,-0.0192199
149.5,10.957,1.01151,-0.0195357
150,11.006,1.01186,-0.0193959
150.5,11.0536,1.01,-0.0201985
151,11.1008,1.01559,-0.0188481
151.5,11.1488,1.01708,-0.0188801
152,11.1965,1.01285,-0.01888
152.5,11.245,1.01521,-0.01888
153,11.292,1.0154,-0.0188645
153.5,11.3391,1.01197,-0.0202047
154,11.3864,1.01927,-0.0201786
154.5,11.4344,1.01719,-0.0188796
155,11.4824,1.01684,-0.0188751
155.5,11.5306,1.01476,-0.0202103
156,11.5766,1.02305,-0.0202
156.5,11.6265,1.02363,-0.0201992
157,11.6738,1.02776,-0.0194247
157.5,11.7215,1.03012,-0.0188902
158,11.7666,1.03024,-0.0195989
158.5,11.8174,1.0317,-0.0202062
159,11.8646,1.03594,-0.0188054
159.5,11.9119,1.02794,-0.0175741
160,11.9594,1.03199,-0.0185488
160.5,12.0072,1.03959,-0.01856
161,12.0552,1.03917,-0.0185595
161.5,12.1034,1.04139,-0.0172577
162,12.1504,1.03473,-0.0175717
162.5,12.1976,1.04205,-0.017572
163,12.2447,1.04084,-0.0188588
163.5,12.2926,1.04825,-0.01888
164,12.3409,1.0465,-0.01888
164.5,12.3875,1.04613,-0.0188796
165,12.4366,1.04876,-0.019223
165.5,12.4826,1.05505,-0.0202
166,12.5312,1.05499,-0.0201903
166.5,12.5802,1.05406,-0.0215286
167,12.6261,1.05639,-0.0201979
167.5,12.6739,1.05838,-0.0202007
168,12.722,1.05665,-0.0191791
168.5,12.7711,1.06083,-0.0192103
169,12.8179,1.05873,-0.0187187
169.5,12.8645,1.06587,-0.0178099
170,12.9129,1.06269,-0.0192206
170.5,12.9608,1.0611,-0.01922
171,13.0074,1.06517,-0.01922
171.5,13.0556,1.06019,-0.01922
172,13.105,1.06792,-0.0192129
172.5,13.1508,1.06832,-0.0178851
173,13.1993,1.06802,-0.0178997
173.5,13.2468,1.07043,-0.0185644
174,13.2942,1.07458,-0.0202814
174.5,13.3425,1.06881,-0.02021
175,13.3899,1.07987,-0.0201965
175.5,13.4375,1.07855,-0.0189015
176,13.4859,1.0846,-0.0192014
176.5,13.5331,1.08153,-0.0191725
177,13.5808,1.08394,-0.018925
177.5,13.6292,1.07446,-0.0188765
178,13.6765,1.07665,-0.0195281
178.5,13.7233,1.08133,-0.01954
179,13.7702,1.08065,-0.01954
179.5,13.8194,1.07591,-0.01954
180,13.867,1.07943,-0.0195402
180.5,13.9149,1.08558,-0.0194695
181,13.9626,1.08167,-0.0195419
181.5,14.0093,1.09571,-0.0189489
182,14.057,1.09668,-0.020214
182.5,14.1057,1.08981,-0.0201985
183,14.1529,1.09527,-0.0192384
183.5,14.1989,1.09546,-0.0192099
184,14.2483,1.10398,-0.0192454
184.5,14.2959,1.10595,-0.0187913
185,14.3431,1.10349,-0.0185605
185.5,14.391,1.10678,-0.0178844
186,14.4382,1.11209,-0.019223
186.5,14.4869,1.10866,-0.01922
187,14.5339,1.11646,-0.0192198
187.5,14.5816,1.11397,-0.0182348
188,14.63,1.11924,-0.01691
188.5,14.6769,1.11368,-0.0169207
189,14.7239,1.12357,-0.0182132
189.5,14.7711,1.12608,-0.01823
190,14.8198,1.1196,-0.01823
190.5,14.867,1.12558,-0.01823
191,14.9138,1.13009,-0.01823
191.5,14.9621,1.12982,-0.0182274
192,15.01,1.14642,-0.0195417
192.5,15.0573,1.13249,-0.0195965
193,15.1047,1.13613,-0.0182175
193.5,15.1531,1.1454,-0.0182174
194,15.2005,1.14724,-0.0179256
194.5,15.2464,1.15697,-0.0178968
195,15.2946,1.15358,-0.0192585
195.5,15.3421,1.16118,-0.0195429
196,15.3897,1.17494,-0.0195402
196.5,15.4366,1.17183,-0.0193274
197,15.484,1.18538,-0.0182308
197.5,15.5319,1.1951,-0.0182301
198,15.5769,1.19885,-0.0181982
198.5,15.6267,1.21413,-0.0195475
199,15.6747,1.2153,-0.01955
199.5,15.7227,1.22505,-0.01955
200,15.7699,1.24214,-0.01955
200.5,15.8179,1.25153,-0.0195349
201,15.8651,1.26579,-0.0185629
201.5,15.9135,1.27976,-0.01856
202,15.9608,1.28924,-0.01856
202.5,16.0079,1.30459,-0.0185597
203,16.0564,1.30954,-0.0197985
203.5,16.1036,1.32592,-0.0198787
204,16.1499,1.33008,-0.0195542
204.5,16.1987,1.33698,-0.0195504
205,16.2458,1.33421,-0.0192858
205.5,16.2936,1.33553,-0.0182301
206,16.3404,1.33269,-0.01823
206.5,16.3884,1.32112,-0.01823
207,16.4349,1.32657,-0.0182296
207.5,16.4829,1.31719,-0.0189222
208,16.531,1.3131,-0.0195397
208.5,16.5784,1.31266,-0.01954
209,16.6254,1.30778,-0.0195402
209.5,16.6737,1.30776,-0.0194871
210,16.7203,1.30736,-0.0188805
210.5,16.7682,1.31162,-0.01888
211,16.8155,1.30518,-0.01888
211.5,16.8633,1.3083,-0.0188899
212,16.9095,1.31035,-0.0201875
212.5,16.9583,1.30462,-0.0201999
213,17.0058,1.30467,-0.0202444
213.5,17.0528,1.30202,-0.0195402
214,17.1004,1.30558,-0.01954
214.5,17.1486,1.30299,-0.01954
215,17.1961,1.31029,-0.01954
215.5,17.2434,1.30896,-0.01954
216,17.2909,1.30679,-0.01954
216.5,17.3389,1.3081,-0.0195377
217,17.3871,1.31071,-0.0184487
217.5,17.4347,1.30942,-0.0182399
218,17.481,1.30765,-0.0181298
218.5,17.5267,1.30773,-0.0195502
219,17.5766,1.30864,-0.01955
219.5,17.6243,1.30871,-0.0195495
220,17.6709,1.30896,-0.0189905
220.5,17.7203,1.30858,-0.0188899
221,17.768,1.31285,-0.01889
221.5,17.8125,1.31248,-0.01889
222,17.8621,1.31503,-0.01889
222.5,17.9097,1.30943,-0.01889
223,17.9582,1.31363,-0.018892
223.5,18.0057,1.31712,-0.0192169
224,18.0524,1.32274,-0.01922
224.5,18.1017,1.31611,-0.0192218
225,18.149,1.3184,-0.0181918
225.5,18.1963,1.31517,-0.0192217
226,18.2439,1.31299,-0.01922
226.5,18.2914,1.3141,-0.01923
227,18.3376,1.3144,-0.0205202
227.5,18.387,1.30685,-0.02053
228,18.434,1.30994,-0.0205298
228.5,18.4807,1.30794,-0.0202452
229,18.5282,1.31164,-0.0201998
229.5,18.5765,1.30775,-0.0202
230,18.6233,1.31061,-0.0202
230.5,18.6713,1.30568,-0.0189622
231,18.7184,1.3144,-0.0188796
231.5,18.7666,1.31176,-0.01888
232,18.8136,1.31056,-0.0188794
232.5,18.8613,1.31832,-0.0203028
233,18.9089,1.31339,-0.0202721
233.5,18.9556,1.30906,-0.0188877
234,19.0036,1.3145,-0.0201937
234.5,19.0516,1.31675,-0.0201987
235,19.0987,1.31816,-0.0193625
235.5,19.1458,1.32236,-0.0192101
236,19.1932,1.31872,-0.0191791
236.5,19.2411,1.31819,-0.0192141
237,19.2891,1.31719,-0.01921
237.5,19.336,1.31655,-0.01921
238,19.383,1.31685,-0.01921
238.5,19.4312,1.31697,-0.0192122
239,19.4792,1.31575,-0.0204333
239.5,19.5265,1.30972,-0.02053
240,19.5748,1.31337,-0.02053
240.5,19.6232,1.31003,-0.02053
241,19.6691,1.31538,-0.02053
241.5,19.7174,1.31367,-0.02053
242,19.764,1.31643,-0.02053
242.5,19.8133,1.3193,-0.02053
243,19.8597,1.32226,-0.02053
243.5,19.9078,1.31357,-0.0205295
244,19.9545,1.31603,-0.0201164
244.5,20.0029,1.31944,-0.0192147
245,20.0499,1.31769,-0.0185574
245.5,20.0979,1.31971,-0.018521
246,20.1461,1.31369,-0.019882
246.5,20.1928,1.31793,-0.01988
247,20.2405,1.3201,-0.01988
247.5,20.2896,1.3189,-0.01988
248,20.3368,1.31874,-0.0198842
248.5,20.3844,1.32147,-0.0202084
249,20.432,1.32032,-0.02021
249.5,20.4784,1.31948,-0.0202057
250,20.5274,1.32223,-0.021211
250.5,20.5747,1.31807,-0.02119
251,20.6228,1.31942,-0.0210021
251.5,20.6702,1.31583,-0.0198739
252,20.7185,1.32021,-0.0195596
252.5,20.7656,1.325,-0.0197727
253,20.8139,1.32476,-0.0198701
253.5,20.8616,1.31991,-0.01987
254,20.9081,1.32343,-0.01987
254.5,20.9566,1.32254,-0.01987
255,21.0042,1.32718,-0.01987
255.5,21.052,1.33032,-0.01987
256,21.0987,1.32891,-0.01987
256.5,21.1473,1.33768,-0.01987
257,21.1956,1.33001,-0.01987
257.5,21.2419,1.33431,-0.0198689
258,21.2906,1.32997,-0.0185863
258.5,21.3385,1.33575,-0.0184675
259,21.3854,1.33327,-0.0172571
259.5,21.4337,1.32849,-0.0185497
260,21.4822,1.32922,-0.0193117
260.5,21.5284,1.33519,-0.0198699
261,21.5771,1.33669,-0.01987
261.5,21.6208,1.33764,-0.01987
262,21.6692,1.334,-0.01987
262.5,21.719,1.3364,-0.0198711
263,21.7665,1.33792,-0.0188294
263.5,21.8139,1.3337,-0.0188801
264,21.8616,1.3349,-0.01888
264.5,21.9089,1.33268,-0.0199842
265,21.9557,1.34284,-0.0202004
265.5,22.0044,1.33585,-0.0202
266,22.0514,1.33727,-0.0202
266.5,22.0995,1.32835,-0.0202
267,22.1468,1.32814,-0.0202
267.5,22.195,1.33311,-0.0202
268,22.2415,1.33767,-0.0202
268.5,22.2901,1.33351,-0.0202041
269,22.338,1.33213,-0.0195533
269.5,22.3853,1.32845,-0.0195396
270,22.4322,1.33471,-0.0208285
270.5,22.4799,1.32992,-0.02086
271,22.5279,1.32914,-0.02086
271.5,22.5758,1.33627,-0.0208599
272,22.6231,1.33795,-0.0208661
272.5,22.6706,1.33118,-0.0201983
273,22.7187,1.33845,-0.0202
273.5,22.7666,1.33894,-0.0202
274,22.8139,1.33661,-0.0201999
274.5,22.8617,1.33796,-0.0201762
275,22.9086,1.3318,-0.0210874
275.5,22.9563,1.33291,-0.0225096
276,23.0049,1.33522,-0.0225228
276.5,23.0519,1.33536,-0.0209042
277,23.1002,1.33346,-0.0201977
277.5,23.1473,1.33933,-0.0215701
278,23.1956,1.3359,-0.021504
278.5,23.2438,1.33185,-0.0202011
279,23.2914,1.34148,-0.0202
279.5,23.3392,1.33418,-0.0202006
280,23.3875,1.33546,-0.0207993
280.5,23.4352,1.33713,-0.02152
281,23.4819,1.3353,-0.02152
281.5,23.5298,1.33673,-0.02152
282,23.5791,1.32817,-0.0215199
282.5,23.6268,1.33572,-0.0215953
283,23.6734,1.33657,-0.0225095
283.5,23.7213,1.33193,-0.02251
284,23.7706,1.33106,-0.02251
284.5,23.8178,1.33792,-0.022503
285,23.8664,1.3336,-0.0218128
285.5,23.9148,1.33554,-0.0211995
286,23.9627,1.33207,-0.0212
286.5,24.0095,1.33686,-0.0212
287,24.0582,1.33584,-0.0212
287.5,24.1061,1.33403,-0.0212
288,24.1544,1.3405,-0.0211996
288.5,24.2021,1.33277,-0.0221654
289,24.2507,1.33472,-0.0221801
289.5,24.2986,1.33773,-0.02218
290,24.3465,1.33477,-0.022185
290.5,24.3948,1.33424,-0.0215394
291,24.4443,1.33528,-0.02152
291.5,24.4914,1.33128,-0.02152
292,24.5389,1.33173,-0.02152
292.5,24.5867,1.3241,-0.02152
293,24.6336,1.33405,-0.02152
293.5,24.683,1.33446,-0.02152
294,24.7308,1.32798,-0.02152
294.5,24.779,1.33313,-0.02152
295,24.8274,1.32414,-0.0215207
295.5,24.8751,1.32649,-0.0223188
296,24.9226,1.32694,-0.0228299
296.5,24.9709,1.32373,-0.0220272
297,25.0193,1.3242,-0.0218397
297.5,25.0663,1.32906,-0.0218401
298,25.1143,1.32489,-0.0218047
298.5,25.1632,1.31975,-0.0211903
299,25.2104,1.32887,-0.0212103
299.5,25.2588,1.33181,-0.021854
300,25.307,1.32151,-0.02185
300.5,25.3549,1.32041,-0.02185
301,25.4033,1.3252,-0.02185
301.5,25.4508,1.329,-0.02185
302,25.499,1.3192,-0.02185
302.5,25.5478,1.32666,-0.0218477
303,25.5953,1.32052,-0.0221728
303.5,25.6436,1.32423,-0.0225094
304,25.6916,1.32282,-0.02251
304.5,25.7392,1.32335,-0.02251
305,25.7873,1.32326,-0.02251
305.5,25.8364,1.32135,-0.02251
306,25.8847,1.32944,-0.0225056
306.5,25.933,1.32471,-0.0211945
307,25.9815,1.32311,-0.0211966
307.5,26.0286,1.32267,-0.0224973
308,26.0762,1.32016,-0.02251
308.5,26.1245,1.32032,-0.02251
309,26.1729,1.31864,-0.02251
309.5,26.2208,1.31719,-0.02251
310,26.27,1.31337,-0.02251
310.5,26.3171,1.317,-0.0225099
311,26.365,1.31381,-0.0225457
311.5,26.4138,1.31171,-0.0218518
312,26.4617,1.31326,-0.0231505
312.5,26.51,1.31936,-0.02317
313,26.5593,1.31917,-0.02317
313.5,26.607,1.31873,-0.02317
314,26.6554,1.31943,-0.02317
314.5,26.7031,1.31399,-0.0231741
315,26.7507,1.31158,-0.0218175
315.5,26.8001,1.31125,-0.0218501
316,26.8488,1.30929,-0.02185
316.5,26.896,1.31107,-0.0218487
317,26.9441,1.30695,-0.0229737
317.5,26.9913,1.31369,-0.0238196
318,27.0402,1.30818,-0.02382
318.5,27.0874,1.31362,-0.0237973
319,27.1347,1.30899,-0.0228065
319.5,27.1834,1.30901,-0.02284
320,27.233,1.31146,-0.02284
320.5,27.2815,1.31169,-0.02284
321,27.3296,1.31286,-0.02284
321.5,27.3765,1.30414,-0.0228325
322,27.4264,1.30222,-0.0241555
322.5,27.4739,1.31107,-0.02415
323,27.5238,1.31931,-0.02415
323.5,27.5714,1.30662,-0.0241266
324,27.617,1.3062,-0.0228306
324.5,27.6684,1.31089,-0.02283
325,27.7161,1.30811,-0.0232268
325.5,27.7643,1.31135,-0.0241453
326,27.8125,1.30538,-0.02415
326.5,27.862,1.29964,-0.02415
327,27.9098,1.30253,-0.02415
327.5,27.9572,1.31011,-0.02415
328,28.0061,1.30417,-0.02415
328.5,28.0537,1.30784,-0.02415
329,28.1028,1.30781,-0.02415
329.5,28.1486,1.29612,-0.0241495
330,28.1995,1.29516,-0.0246342
330.5,28.2467,1.30018,-0.0248069
331,28.2957,1.30013,-0.0254508
331.5,28.3442,1.30146,-0.02547
332,28.3929,1.30212,-0.0254682
332.5,28.439,1.29655,-0.0241402
333,28.4866,1.29787,-0.0251424
333.5,28.5373,1.29508,-0.0259531
334,28.5856,1.29604,-0.0264606
334.5,28.6349,1.29927,-0.02646
335,28.6824,1.29549,-0.02646
335.5,28.7315,1.29639,-0.02646
336,28.7792,1.29794,-0.0264599
336.5,28.8273,1.2892,-0.0266409
337,28.8754,1.29345,-0.0267901
337.5,28.9224,1.29138,-0.02679
338,28.9723,1.29417,-0.0267896
338.5,29.021,1.29264,-0.0257816
339,29.0684,1.2898,-0.02547
339.5,29.1171,1.29185,-0.02547
340,29.1658,1.29447,-0.025473
340.5,29.2117,1.29105,-0.0255338
341,29.262,1.29641,-0.02547
341.5,29.3105,1.29215,-0.0254883
342,29.3589,1.2907,-0.0267891
342.5,29.4069,1.28251,-0.02679
343,29.4546,1.29013,-0.02679
343.5,29.5038,1.29228,-0.02679
344,29.5521,1.29087,-0.02679
344.5,29.5998,1.28761,-0.026791
345,29.6485,1.28168,-0.0279
345.5,29.6976,1.28443,-0.0281103
346,29.7458,1.28148,-0.02811
346.5,29.794,1.28502,-0.02811
347,29.8428,1.28019,-0.02811
347.5,29.8905,1.27142,-0.02811
348,29.9391,1.27857,-0.02811
348.5,29.9873,1.27343,-0.02811
349,30.0351,1.27602,-0.02811
349.5,30.0832,1.26819,-0.0281099
350,30.1333,1.27233,-0.0281497
350.5,30.1813,1.26995,-0.0294301
351,30.2293,1.27666,-0.02943
351.5,30.2774,1.26721,-0.0294298
352,30.3265,1.26436,-0.0295308
352.5,30.3747,1.26229,-0.0297602
353,30.4237,1.26573,-0.02976
353.5,30.473,1.26999,-0.02976
354,30.5202,1.26321,-0.02976
354.5,30.5689,1.26283,-0.02976
355,30.6171,1.26196,-0.0297594
355.5,30.6659,1.25939,-0.0311503
356,30.7137,1.26328,-0.031065
356.5,30.764,1.26286,-0.030093
357,30.8121,1.26104,-0.03008
357.5,30.8606,1.26367,-0.03008
358,30.9079,1.26322,-0.03008
358.5,30.9564,1.26551,-0.03008
359,31.0059,1.2664,-0.03008
359.5,31.0546,1.26605,-0.03008
360,31.1033,1.26118,-0.0300817
360.5,31.1515,1.25881,-0.029755
361,31.1972,1.25758,-0.0308158
361.5,31.2459,1.25632,-0.0297736
362,31.2969,1.25727,-0.0297433
362.5,31.3465,1.25858,-0.0310736
363,31.3946,1.25317,-0.0310693
363.5,31.4431,1.2587,-0.0297583
364,31.492,1.25871,-0.0297486
364.5,31.5401,1.25396,-0.0303697
365,31.5891,1.25312,-0.0307401
365.5,31.6372,1.25179,-0.0310995
366,31.6853,1.24973,-0.03107
366.5,31.7346,1.24771,-0.03107
367,31.7827,1.24386,-0.0310698
367.5,31.8321,1.24885,-0.0323874
368,31.8807,1.24849,-0.032392
368.5,31.9293,1.2521,-0.0336523
369,31.9782,1.23925,-0.03371
369.5,32.0265,1.24177,-0.03371
370,32.0746,1.23831,-0.03371
370.5,32.1239,1.24212,-0.0337098
371,32.1718,1.24015,-0.0323875
371.5,32.219,1.24338,-0.0317127
372,32.2673,1.24459,-0.0324332
372.5,32.3182,1.24439,-0.031105
373,32.3674,1.2467,-0.0324074
373.5,32.416,1.23826,-0.0341337
374,32.4637,1.24014,-0.0354687
374.5,32.514,1.24079,-0.0361106
375,32.5606,1.23751,-0.0374303
375.5,32.6101,1.22843,-0.0361991
376,32.6585,1.23936,-0.0360311
376.5,32.7074,1.23378,-0.0367784
377,32.7559,1.23301,-0.03678
377.5,32.8049,1.24725,-0.0367802
378,32.8529,1.23721,-0.0354873
378.5,32.902,1.23622,-0.0341611
379,32.9502,1.23393,-0.0346619
379.5,32.9997,1.23578,-0.0367793
380,33.0492,1.23487,-0.03678
380.5,33.0972,1.23946,-0.03678
381,33.1459,1.23801,-0.03678
381.5,33.1961,1.24081,-0.03678
382,33.2443,1.2374,-0.03678
382.5,33.2918,1.24142,-0.0367799
383,33.3418,1.23593,-0.0376915
383.5,33.3911,1.242,-0.0373468
384,33.4388,1.24581,-0.03678
384.5,33.4871,1.25061,-0.0367863
385,33.537,1.24433,-0.0380978
385.5,33.5852,1.23996,-0.0381
386,33.6345,1.24171,-0.0381008
386.5,33.6838,1.24056,-0.0391941
387,33.7318,1.2419,-0.0394102
387.5,33.7805,1.23931,-0.0379901
388,33.8263,1.25265,-0.03809
388.5,33.8779,1.24401,-0.0380877
389,33.9268,1.24431,-0.0390797
389.5,33.976,1.25359,-0.0400384
390,34.0243,1.24984,-0.0404003
390.5,34.073,1.25387,-0.0402556
391,34.1221,1.25628,-0.0397407
391.5,34.1724,1.25269,-0.03974
392,34.2199,1.25203,-0.0397401
392.5,34.2686,1.25312,-0.0407317
393,34.3177,1.25575,-0.0410605
393.5,34.3656,1.24832,-0.0410605
394,34.4155,1.25841,-0.0422975
394.5,34.4635,1.2571,-0.0423802
395,34.5131,1.26094,-0.0423797
395.5,34.5628,1.25789,-0.0437981
396,34.6102,1.25435,-0.0437258
396.5,34.6596,1.25993,-0.0450445
397,34.708,1.25788,-0.0463316
397.5,34.7567,1.25663,-0.0463805
398,34.8056,1.25818,-0.0456716
398.5,34.8547,1.25685,-0.0456473
399,34.9031,1.2585,-0.0448859
399.5,34.9524,1.2641,-0.0450103
400,35.0013,1.26486,-0.0449953
400.5,35.05,1.26293,-0.0450094
401,35.0989,1.25939,-0.0449922
401.5,35.1477,1.26252,-0.0440203
402,35.1978,1.25902,-0.0448856
402.5,35.2461,1.26149,-0.0453405
403,35.2947,1.26489,-0.0453387
403.5,35.3443,1.26361,-0.0467056
404,35.3933,1.26408,-0.04666
404.5,35.4427,1.26266,-0.0466601
405,35.4904,1.27155,-0.046631
405.5,35.5375,1.26882,-0.0479805
406,35.5878,1.27133,-0.0479797
406.5,35.6372,1.26143,-0.0482162
407,35.6861,1.2661,-0.0492891
407.5,35.736,1.2746,-0.0492898
408,35.7843,1.26815,-0.0493585
408.5,35.832,1.26909,-0.0506103
409,35.8822,1.26943,-0.05061
409.5,35.9311,1.27147,-0.0505893
410,35.9797,1.27096,-0.0509158
410.5,36.0289,1.27437,-0.05094
411,36.0784,1.26959,-0.0509403
411.5,36.1277,1.2725,-0.0520369
412,36.1755,1.27078,-0.0535781
412.5,36.225,1.27361,-0.05358
413,36.2746,1.27066,-0.05358
413.5,36.3235,1.25926,-0.0535801
414,36.3696,1.25889,-0.0540103
414.5,36.4204,1.26128,-0.0548892
415,36.4701,1.26029,-0.0548944
415.5,36.5193,1.26038,-0.0548062
416,36.5674,1.25955,-0.0548545
416.5,36.6176,1.25965,-0.0562135
417,36.6665,1.25475,-0.05621
417.5,36.7163,1.25982,-0.0562049
418,36.7651,1.25423,-0.0571769
418.5,36.8129,1.25981,-0.0572117
419,36.8634,1.25757,-0.0565114
419.5,36.912,1.26054,-0.0575027
420,36.9621,1.25409,-0.0575356
420.5,37.0105,1.2583,-0.0588496
421,37.0584,1.26365,-0.0588637
421.5,37.109,1.25427,-0.0598239
422,37.1588,1.25511,-0.0614782
422.5,37.2077,1.25148,-0.0625474
423,37.2566,1.24653,-0.0628002
423.5,37.3067,1.25004,-0.0640347
424,37.3546,1.24515,-0.0654293
424.5,37.404,1.24246,-0.0654279
425,37.4531,1.24899,-0.0667499
425.5,37.5028,1.24481,-0.0655344
426,37.5523,1.24129,-0.0670649
426.5,37.6014,1.24289,-0.0678093
427,37.6505,1.24371,-0.0680655
427.5,37.7001,1.24926,-0.0693781
428,37.7489,1.24544,-0.06939
428.5,37.7979,1.248,-0.0693894
429,37.8468,1.24669,-0.0697667
429.5,37.8967,1.25184,-0.0707109
430,37.9456,1.25264,-0.0716183
430.5,37.9943,1.24729,-0.0736558
431,38.0439,1.2528,-0.0734324
431.5,38.0931,1.25331,-0.0738715
432,38.1392,1.25067,-0.0761372
432.5,38.1913,1.25087,-0.0774014
433,38.2399,1.25601,-0.0772927
433.5,38.2902,1.25983,-0.0787605
434,38.3376,1.26937,-0.0799989
434.5,38.3861,1.26555,-0.081334
435,38.4363,1.2616,-0.0826965
435.5,38.4854,1.2693,-0.0839357
436,38.5335,1.26905,-0.085309
436.5,38.5828,1.27498,-0.0866301
437,38.6323,1.26525,-0.0880526
437.5,38.6808,1.27722,-0.0894863
438,38.7299,1.2764,-0.0913645
438.5,38.7773,1.26846,-0.0922224
439,38.828,1.27965,-0.0936647
439.5,38.878,1.27535,-0.094893
440,38.925,1.27778,-0.0952896
440.5,38.9767,1.28035,-0.09952
441,39.0237,1.28803,-0.100742
441.5,39.0735,1.28878,-0.102384
442,39.1231,1.27507,-0.105091
442.5,39.1725,1.29237,-0.10638
443,39.2214,1.28928,-0.107881
443.5,39.2703,1.29429,-0.110681
444,39.3167,1.28684,-0.112255
444.5,39.3694,1.28925,-0.115644
445,39.4179,1.29238,-0.117596
445.5,39.4657,1.29909,-0.119424
446,39.5163,1.29544,-0.122424
446.5,39.5661,1.30001,-0.125257
447,39.6151,1.29935,-0.128348
447.5,39.6642,1.30235,-0.13146
448,39.7138,1.30008,-0.133014
448.5,39.763,1.30179,-0.135863
449,39.8118,1.30612,-0.137768
449.5,39.8592,1.30361,-0.140662
450,39.9106,1.30999,-0.142342
450.5,39.9595,1.30873,-0.145161
451,40.0085,1.30874,-0.148405
451.5,40.0588,1.31058,-0.150746
452,40.1085,1.31215,-0.154204
452.5,40.1572,1.30935,-0.156194
453,40.2077,1.31028,-0.158999
453.5,40.2568,1.31844,-0.162608
454,40.3069,1.32426,-0.167198
454.5,40.3566,1.31702,-0.170871
455,40.4054,1.32938,-0.173448
455.5,40.4556,1.32465,-0.177501
456,40.5058,1.33831,-0.181196
456.5,40.5553,1.33509,-0.186663
457,40.6054,1.34019,-0.190629
457.5,40.6544,1.3395,-0.193557
458,40.7025,1.34712,-0.19871
458.5,40.7538,1.34873,-0.202152
459,40.802,1.35299,-0.206832
459.5,40.8533,1.36278,-0.211669
460,40.9034,1.36775,-0.216263
460.5,40.953,1.37706,-0.21942
461,41.0034,1.37732,-0.225578
461.5,41.0528,1.39119,-0.229818
462,41.1022,1.4072,-0.235794
462.5,41.1518,1.40898,-0.240579
463,41.2019,1.41304,-0.247356
463.5,41.2518,1.41388,-0.253086
464,41.3009,1.41865,-0.259136
464.5,41.3509,1.43194,-0.264354
465,41.4012,1.43872,-0.270613
465.5,41.4508,1.45817,-0.278425
466,41.4999,1.4646,-0.285354
466.5,41.5494,1.46065,-0.292943
467,41.5997,1.47571,-0.299394
467.5,41.6483,1.47332,-0.305926
468,41.6983,1.49068,-0.314536
468.5,41.7479,1.49854,-0.322669
469,41.7978,1.52282,-0.330638
469.5,41.8479,1.53029,-0.339291
470,41.8969,1.55201,-0.347308
470.5,41.9467,1.5726,-0.355911
471,41.9961,1.58546,-0.366403
471.5,42.0457,1.61115,-0.375862
472,42.0937,1.61775,-0.385994
472.5,42.1453,1.62869,-0.397848
473,42.1956,1.64207,-0.408363
473.5,42.2439,1.66506,-0.420639
474,42.2945,1.67684,-0.433143
474.5,42.3428,1.68848,-0.444592
475,42.3926,1.69648,-0.457279
475.5,42.443,1.67948,-0.470891
476,42.4927,1.68252,-0.483956
476.5,42.5392,1.69414,-0.494734
477,42.5918,1.69808,-0.509373
477.5,42.6411,1.7239,-0.524218
478,42.6918,1.75323,-0.537791
478.5,42.74,1.78608,-0.551678
479,42.79,1.80608,-0.566857
479.5,42.8399,1.8311,-0.584188
480,42.8894,1.84265,-0.599853
480.5,42.9392,1.82655,-0.616728
481,42.9894,1.85342,-0.633855
481.5,43.0379,1.86113,-0.650968
482,43.0882,1.8607,-0.668818
482.5,43.1398,1.88549,-0.686916
483,43.1889,1.94082,-0.705143
483.5,43.2382,1.98202,-0.725781
484,43.2882,1.98786,-0.746019
484.5,43.3371,1.95326,-0.765719
485,43.3863,1.9374,-0.786318
485.5,43.4359,1.96213,-0.80725
486,43.487,1.98206,-0.829052
486.5,43.5361,1.99425,-0.850179
487,43.586,2.00896,-0.873106
487.5,43.6352,2.03038,-0.895834
488,43.686,2.04548,-0.919877
488.5,43.7351,2.03418,-0.942366
489,43.7849,2.05362,-0.968895
489.5,43.8326,2.07481,-0.992485
490,43.8841,2.11965,-1.01913
490.5,43.9347,2.16089,-1.04509
491,43.985,2.19008,-1.07284
491.5,44.0353,2.20179,-1.1005
492,44.0843,2.20861,-1.13069
492.5,44.1345,2.19746,-1.15921
493,44.1828,2.17735,-1.18671
493.5,44.2329,2.16869,-1.21611
494,44.283,2.15906,-1.247
494.5,44.3317,2.161,-1.27484
495,44.3826,2.18975,-1.30539
495.5,44.4321,2.22725,-1.33633
496,44.4822,2.26196,-1.36935
496.5,44.5324,2.28409,-1.40287
497,44.5829,2.28988,-1.43735
497.5,44.6331,2.30258,-1.47188
498,44.6821,2.31299,-1.50803
498.5,44.7332,2.36595,-1.54439
499,44.7836,2.3913,-1.58061
499.5,44.8326,2.38478,-1.61896
500,44.8831,2.39494,-1.65971
500.5,44.9335,2.3876,-1.69774
501,44.983,2.37646,-1.73723
501.5,45.0326,2.36944,-1.77727
502,45.0828,2.37323,-1.8185
502.5,45.1318,2.36906,-1.85719
503,45.1838,2.368,-1.8981
503.5,45.233,2.39109,-1.93861
504,45.2825,2.39933,-1.98302
504.5,45.3319,2.38294,-2.02408
505,45.3819,2.35786,-2.06681
505.5,45.432,2.3245,-2.1114
506,45.4822,2.31828,-2.15841
506.5,45.5319,2.29149,-2.19995
507,45.5809,2.25281,-2.24234
507.5,45.6308,2.21908,-2.28718
508,45.6784,2.18171,-2.32943
508.5,45.7276,2.13622,-2.37333
509,45.7796,2.06857,-2.41691
509.5,45.829,2.0144,-2.45929
510,45.8779,1.95054,-2.50121
510.5,45.9264,1.89064,-2.54124
511,45.9754,1.81624,-2.57971
511.5,46.0252,1.73861,-2.61936
512,46.0735,1.64759,-2.6564
512.5,46.1221,1.56384,-2.69391
513,46.1711,1.46634,-2.72827
513.5,46.22,1.37362,-2.76156
514,46.2688,1.26727,-2.79314
514.5,46.3167,1.16527,-2.82629
515,46.3629,1.05761,-2.85545
515.5,46.4139,0.955174,-2.88302
516,46.4623,0.844803,-2.90938
516.5,46.5102,0.746287,-2.93215
517,46.5592,0.648103,-2.95355
517.5,46.6076,0.563615,-2.9749
518,46.6561,0.4716,-2.99344
518.5,46.705,0.391398,-3.00923
519,46.7542,0.314473,-3.02599
519.5,46.8024,0.255657,-3.04109
520,46.8512,0.202333,-3.05399
520.5,46.8984,0.151098,-3.06709
521,46.95,0.107698,-3.07851
521.5,46.9994,0.0736244,-3.09047
522,47.0488,0.041657,-3.10025
522.5,47.0974,0.0192681,-3.1087
523,47.1462,0.000372618,-3.11599
523.5,47.1964,-0.0110506,-3.12331
524,47.2451,-0.0326141,-3.1298
524.5,47.2955,-0.033079,-3.13583
525,47.3443,-0.0371927,-3.14125
525.5,47.3947,-0.0395049,-3.14643
526,47.444,-0.0436154,-3.15124
526.5,47.4942,-0.0540803,-3.15534
527,47.5437,-0.0546375,-3.16013
527.5,47.5925,-0.0549351,-3.16418
528,47.6403,-0.0568998,-3.16668
528.5,47.6919,-0.0580053,-3.17004
529,47.7423,-0.0578112,-3.17263
529.5,47.7915,-0.0593981,-3.1757
530,47.8416,-0.0619389,-3.17906
530.5,47.8908,-0.0595212,-3.18169
531,47.9408,-0.0632284,-3.18397
531.5,47.9899,-0.0595256,-3.18673
532,48.0399,-0.0577783,-3.18734
532.5,48.0895,-0.0565411,-3.18942
533,48.1392,-0.0608832,-3.19222
533.5,48.1889,-0.0574169,-3.1938
534,48.2388,-0.0625763,-3.19677
534.5,48.2891,-0.0646839,-3.19853
535,48.3398,-0.065121,-3.20105
535.5,48.3888,-0.0670972,-3.20236
536,48.4389,-0.0577498,-3.20428
536.5,48.4889,-0.0594923,-3.20567
537,48.5388,-0.0603458,-3.207
537.5,48.5885,-0.0642508,-3.20833
538,48.6395,-0.0634089,-3.2097
538.5,48.6901,-0.0605418,-3.21134
539,48.7397,-0.0674375,-3.21112
539.5,48.7891,-0.0658282,-3.2126
540,48.8389,-0.0625883,-3.21442
540.5,48.8898,-0.0601003,-3.21783
541,48.9391,-0.0529845,-3.21914
541.5,48.9897,-0.0590089,-3.22056
542,49.039,-0.0667891,-3.22197
542.5,49.089,-0.0742642,-3.22257
543,49.1383,-0.0750725,-3.22418
543.5,49.19,-0.0723482,-3.22501
544,49.2402,-0.0782116,-3.2253
544.5,49.2897,-0.0852069,-3.22699
545,49.3412,-0.0832486,-3.22722
545.5,49.39,-0.08585,-3.22851
546,49.4404,-0.0865601,-3.22982
546.5,49.4899,-0.0984822,-3.23117
547,49.5403,-0.0865325,-3.23247
547.5,49.59,-0.090731,-3.23358
548,49.6402,-0.0891551,-3.23379
548.5,49.6899,-0.0968163,-3.2361
549,49.7409,-0.0992794,-3.2374
549.5,49.7909,-0.095101,-3.23867
550,49.8406,-0.0967996,-3.23858
550.5,49.8904,-0.10364,-3.23786
551,49.9403,-0.0984624,-3.23866
551.5,49.9909,-0.105718,-3.23992
552,50.0411,-0.100247,-3.23993
552.5,50.0905,-0.111656,-3.24139
553,50.1411,-0.108216,-3.24266
553.5,50.191,-0.100879,-3.24266
554,50.2414,-0.109585,-3.244
554.5,50.2912,-0.103371,-3.24531
555,50.3419,-0.103972,-3.24662
555.5,50.3922,-0.102269,-3.24759
556,50.4419,-0.107798,-3.24756
556.5,50.4927,-0.11385,-3.24787
557,50.541,-0.106627,-3.25058
557.5,50.5928,-0.0938308,-3.25185
558,50.6424,-0.10019,-3.25419
558.5,50.6938,-0.101016,-3.25454
559,50.7438,-0.096287,-3.25585
559.5,50.7937,-0.0927425,-3.25649
560,50.8433,-0.0916264,-3.25618
560.5,50.8943,-0.103681,-3.25586
561,50.9454,-0.0993486,-3.25718
561.5,50.9955,-0.0919137,-3.25849
562,51.0456,-0.0909257,-3.25994
562.5,51.0964,-0.0908067,-3.26144
563,51.1465,-0.0924907,-3.26244
563.5,51.1959,-0.0911289,-3.26376
564,51.2472,-0.0902994,-3.26375
564.5,51.2973,-0.0856994,-3.26514
565,51.3478,-0.0818296,-3.26517
565.5,51.3983,-0.0777379,-3.26642
566,51.4485,-0.0776979,-3.26629
566.5,51.499,-0.0805069,-3.26717
567,51.5494,-0.0790785,-3.26606
567.5,51.5992,-0.0788807,-3.26635
568,51.6502,-0.081673,-3.26901
568.5,51.7012,-0.0812082,-3.27057
569,51.7515,-0.0799453,-3.27035
569.5,51.8013,-0.0826359,-3.27166
570,51.8517,-0.0823469,-3.27273
570.5,51.9027,-0.0857338,-3.27429
571,51.9526,-0.0894004,-3.27561
571.5,52.0022,-0.0835384,-3.27561
572,52.0533,-0.0891784,-3.27692
572.5,52.1042,-0.0870197,-3.27772
573,52.1553,-0.0896307,-3.27847
573.5,52.2064,-0.0837883,-3.27825
574,52.256,-0.0831472,-3.27814
574.5,52.3054,-0.085362,-3.27826
575,52.3571,-0.0826796,-3.27954
575.5,52.4066,-0.0868756,-3.27962
576,52.4573,-0.0862463,-3.2822
576.5,52.5083,-0.0917353,-3.28212
577,52.5589,-0.0827465,-3.2822
577.5,52.6085,-0.0871298,-3.28408
578,52.6588,-0.0860783,-3.28618
578.5,52.7086,-0.0881827,-3.28613
579,52.76,-0.0925689,-3.28475
579.5,52.8103,-0.0978928,-3.28615
580,52.8604,-0.094261,-3.28751
580.5,52.9112,-0.0866019,-3.28743
581,52.9606,-0.0942417,-3.28747
581.5,53.0115,-0.0923512,-3.28805
582,53.0625,-0.100857,-3.29009
582.5,53.1125,-0.0939799,-3.29043
583,53.1629,-0.0962692,-3.29142
583.5,53.2138,-0.0956379,-3.29251
584,53.2634,-0.0947475,-3.29405
584.5,53.3141,-0.0906818,-3.29523
585,53.3641,-0.102075,-3.29406
585.5,53.4143,-0.0975672,-3.29517
586,53.464,-0.105186,-3.29436
586.5,53.5154,-0.103419,-3.2957
587,53.5649,-0.101155,-3.2957
587.5,53.6154,-0.0956074,-3.29703
588,53.6661,-0.101,-3.29825
588.5,53.7162,-0.0971847,-3.29965
589,53.7663,-0.102026,-3.29964
589.5,53.8162,-0.0944929,-3.30098
590,53.8655,-0.0995425,-3.30085
590.5,53.9158,-0.104191,-3.30097
591,53.9669,-0.104865,-3.30236
591.5,54.0147,-0.109832,-3.30231
592,54.0648,-0.104199,-3.3036
592.5,54.1163,-0.0990549,-3.30381
593,54.1677,-0.103642,-3.30399
593.5,54.2154,-0.107464,-3.3036
594,54.2667,-0.1057,-3.30483
594.5,54.3178,-0.111641,-3.30491
595,54.3678,-0.106959,-3.30625
595.5,54.4188,-0.108157,-3.30624
596,54.4682,-0.10797,-3.30656
596.5,54.5191,-0.10727,-3.30755
597,54.5691,-0.106749,-3.30885
597.5,54.6196,-0.100025,-3.30887
598,54.6697,-0.102924,-3.30879
598.5,54.7187,-0.0987547,-3.3089
599,54.7697,-0.104922,-3.30888
599.5,54.8206,-0.105595,-3.31018
600,54.8696,-0.0990147,-3.31007
600.5,54.9212,-0.0970079,-3.31152
601,54.9709,-0.0928994,-3.31151
601.5,55.0216,-0.0925824,-3.3115
602,55.0724,-0.089196,-3.31283
602.5,55.1215,-0.0912596,-3.31348
603,55.1728,-0.0880272,-3.3148
603.5,55.2228,-0.0857769,-3.3148
604,55.2732,-0.0861426,-3.31613
604.5,55.3237,-0.074177,-3.31483
605,55.3743,-0.0742667,-3.31561
605.5,55.4243,-0.0730509,-3.31612
606,55.4759,-0.0722094,-3.31612
606.5,55.526,-0.0643074,-3.31707
607,55.5754,-0.0625463,-3.31789
607.5,55.6272,-0.0645672,-3.31879
608,55.6772,-0.0612957,-3.31881
608.5,55.7274,-0.0561109,-3.31876
609,55.7783,-0.0555401,-3.31907
609.5,55.8268,-0.0507955,-3.3201
610,55.8785,-0.0438958,-3.32139
610.5,55.9286,-0.0472575,-3.32139
611,55.9768,-0.0430041,-3.3228
611.5,56.0287,-0.0381067,-3.32271
612,56.0805,-0.038451,-3.3229
612.5,56.1309,-0.0303006,-3.32403
613,56.1803,-0.0332376,-3.32403
613.5,56.2335,-0.0211488,-3.32403
614,56.2837,-0.018361,-3.32479
614.5,56.3339,-0.0109711,-3.32535
615,56.3858,-0.0126067,-3.32664
615.5,56.4363,0.00105759,-3.32599
616,56.4867,-0.00576786,-3.32567
616.5,56.5378,0.00085519,-3.32705
617,56.5882,-0.00281328,-3.32701
617.5,56.6384,0.00299797,-3.32831
618,56.6891,0.00752579,-3.32794
618.5,56.7398,0.0124623,-3.32799
619,56.7909,0.0151522,-3.32665
619.5,56.8408,0.0179444,-3.32797
620,56.8914,0.011698,-3.32797
620.5,56.9421,0.0124949,-3.32927
621,56.9926,0.00286782,-3.32929
621.5,57.0441,0.00816485,-3.33013
622,57.0941,0.0119036,-3.32995
622.5,57.1448,0.0053688,-3.32995
623,57.1956,0.00467866,-3.3302
623.5,57.2461,0.000577288,-3.33127
624,57.2967,-0.00244775,-3.33127
624.5,57.3466,0.000386067,-3.33127
625,57.3945,-0.0131161,-3.33261
625.5,57.4474,-0.00994036,-3.3339
626,57.4976,-0.00154799,-3.3339
626.5,57.5482,-0.0116975,-3.33485
627,57.598,-0.0121803,-3.33498
627.5,57.6492,-0.0148163,-3.3339
628,57.698,-0.0147642,-3.3339
628.5,57.7493,-0.0197956,-3.33525
629,57.8,-0.0226913,-3.33522
629.5,57.8512,-0.0254905,-3.33545
630,57.9014,-0.0298562,-3.33654
630.5,57.9523,-0.0339102,-3.33654
631,58.0022,-0.0364524,-3.33654
631.5,58.0527,-0.0450835,-3.33654
632,58.1019,-0.034778,-3.33786
632.5,58.1514,-0.0384336,-3.33654
633,58.2041,-0.0398653,-3.33766
633.5,58.2543,-0.042395,-3.33786
634,58.3046,-0.0475844,-3.33786
634.5,58.3551,-0.0468064,-3.33786
635,58.4056,-0.0645882,-3.3385
635.5,58.4549,-0.0623386,-3.33916
636,58.5057,-0.0549293,-3.33918
636.5,58.556,-0.0471192,-3.33918
637,58.6068,-0.0455973,-3.33994
637.5,58.6566,-0.0405477,-3.3405
638,58.7066,-0.0309334,-3.34056
638.5,58.7569,-0.0338287,-3.33911
639,58.8072,-0.0299511,-3.34049
639.5,58.858,-0.0359686,-3.34099
640,58.908,-0.0361875,-3.34181
640.5,58.9579,-0.0424245,-3.34181
641,59.0082,-0.038254,-3.34181
641.5,59.0583,-0.0371257,-3.34182
642,59.1091,-0.0324209,-3.34312
642.5,59.1588,-0.0301938,-3.34313
643,59.2093,-0.0253961,-3.34313
643.5,59.2598,-0.0318973,-3.34313
644,59.3097,-0.0337394,-3.34301
644.5,59.3602,-0.0300504,-3.34445
645,59.4102,-0.0302308,-3.34436
645.5,59.4609,-0.0259326,-3.34476
646,59.5105,-0.0279485,-3.34477
646.5,59.5616,-0.0354491,-3.34477
647,59.6118,-0.0303012,-3.34477
647.5,59.6613,-0.0319049,-3.34534
648,59.7132,-0.0300172,-3.34544
648.5,59.7625,-0.0355961,-3.34576
649,59.8127,-0.0272931,-3.34654
649.5,59.8635,-0.0272245,-3.34576
650,59.9133,-0.0320697,-3.34576
650.5,59.9648,-0.0313809,-3.34576
651,60.0156,-0.0283151,-3.34839
651.5,60.0659,-0.0336032,-3.3484
652,60.1156,-0.0370974,-3.34839
652.5,60.1658,-0.0403261,-3.34738
653,60.2171,-0.0424373,-3.34836
653.5,60.2676,-0.0381491,-3.34839
654,60.3157,-0.0374001,-3.34973
654.5,60.3684,-0.0464645,-3.34971
655,60.4186,-0.0430445,-3.34979
655.5,60.4705,-0.0426226,-3.34971
656,60.519,-0.0443311,-3.34971
656.5,60.5694,-0.0447853,-3.34971
657,60.6218,-0.0575659,-3.34969
657.5,60.6721,-0.0614229,-3.35068
658,60.7224,-0.0647793,-3.35103
658.5,60.7727,-0.0648343,-3.35103
659,60.8222,-0.0706264,-3.35103
659.5,60.8733,-0.069058,-3.34977
660,60.9235,-0.0743265,-3.34973
660.5,60.9741,-0.0661157,-3.35103
661,61.025,-0.0773806,-3.35099
661.5,61.0746,-0.0752791,-3.3525
662,61.1254,-0.0795815,-3.35366
662.5,61.1754,-0.0849002,-3.35366
663,61.2261,-0.0770735,-3.3527
663.5,61.2762,-0.0763921,-3.35269
664,61.3277,-0.0761055,-3.35399
664.5,61.3772,-0.0737901,-3.35399
665,61.4265,-0.0793238,-3.35384
665.5,61.4773,-0.0765551,-3.35399
666,61.5274,-0.0765195,-3.35537
666.5,61.5777,-0.0844288,-3.35532
667,61.6289,-0.0832023,-3.35534
667.5,61.6782,-0.0857344,-3.35663
668,61.729,-0.0879227,-3.35663
668.5,61.7788,-0.0833786,-3.35663
669,61.8278,-0.086681,-3.35663
669.5,61.8796,-0.08712,-3.35663
670,61.9303,-0.0871285,-3.35676
670.5,61.9802,-0.0846938,-3.35764
671,62.0309,-0.0886547,-3.35893
671.5,62.0814,-0.0948082,-3.35851
672,62.1304,-0.0954359,-3.35752
672.5,62.1834,-0.0981807,-3.35894
673,62.2328,-0.0966034,-3.35894
673.5,62.2836,-0.0877346,-3.358
674,62.3343,-0.0864719,-3.35796
674.5,62.3847,-0.0883855,-3.35926
675,62.436,-0.0925528,-3.35928
675.5,62.4866,-0.090757,-3.36055
676,62.5374,-0.0974177,-3.36025
676.5,62.5872,-0.101476,-3.36026
677,62.6386,-0.101898,-3.36156
677.5,62.6882,-0.0980122,-3.36154
678,62.7399,-0.100604,-3.36058
678.5,62.7891,-0.0992953,-3.36192
679,62.8412,-0.0967056,-3.36157
679.5,62.8925,-0.102992,-3.36223
680,62.9436,-0.100688,-3.36222
680.5,62.9942,-0.107174,-3.36289
681,63.0445,-0.110531,-3.36156
681.5,63.0949,-0.103763,-3.36157
682,63.1462,-0.104962,-3.36157
682.5,63.1962,-0.110532,-3.36157
683,63.2459,-0.110373,-3.36152
683.5,63.2985,-0.117373,-3.36289
684,63.3484,-0.113773,-3.36157
684.5,63.3995,-0.12154,-3.36157
685,63.451,-0.121494,-3.36157
685.5,63.5017,-0.125647,-3.36153
686,63.5506,-0.132702,-3.36288
686.5,63.6009,-0.130878,-3.36288
687,63.653,-0.136721,-3.36287
687.5,63.7033,-0.136619,-3.3642
688,63.7543,-0.140411,-3.3642
688.5,63.8057,-0.146292,-3.3642
689,63.8558,-0.144283,-3.36521
689.5,63.9056,-0.144064,-3.36684
690,63.9562,-0.155396,-3.36684
690.5,64.0075,-0.154762,-3.36684
691,64.0579,-0.148928,-3.36684
691.5,64.1087,-0.161094,-3.36685
692,64.1587,-0.151523,-3.36687
692.5,64.2095,-0.160735,-3.36684
693,64.2599,-0.152579,-3.36684
693.5,64.3103,-0.146018,-3.36701
694,64.3612,-0.147871,-3.36815
694.5,64.4116,-0.151743,-3.36757
695,64.4624,-0.169778,-3.3675
695.5,64.5124,-0.173314,-3.3675
696,64.5634,-0.159375,-3.3675
696.5,64.6146,-0.165153,-3.3675
697,64.6644,-0.166184,-3.3688
697.5,64.7156,-0.170005,-3.36882
698,64.7659,-0.168371,-3.36843
698.5,64.8171,-0.174989,-3.36948
699,64.867,-0.172532,-3.36948
699.5,64.9186,-0.174847,-3.36815
700,64.9692,-0.177772,-3.3706
700.5,65.0199,-0.181996,-3.37046
701,65.071,-0.180869,-3.37046
701.5,65.1215,-0.180617,-3.37046
702,65.1724,-0.174599,-3.37106
702.5,65.2242,-0.177325,-3.37079
703,65.274,-0.172572,-3.37079
703.5,65.3257,-0.172064,-3.37079
704,65.377,-0.180081,-3.37208
704.5,65.4271,-0.175469,-3.37211
705,65.4779,-0.182206,-3.37211
705.5,65.529,-0.181641,-3.37211
706,65.5801,-0.190409,-3.37211
706.5,65.6298,-0.186845,-3.37212
707,65.6816,-0.182798,-3.37343
707.5,65.7322,-0.184161,-3.37343
708,65.7833,-0.179344,-3.37345
708.5,65.8343,-0.177673,-3.3731
709,65.8849,-0.176955,-3.3733
709.5,65.9358,-0.168848,-3.37409
710,65.9869,-0.167447,-3.37409
710.5,66.0381,-0.161095,-3.37409
711,66.0886,-0.164499,-3.37444
711.5,66.1404,-0.158535,-3.37438
712,66.1907,-0.159546,-3.37573
712.5,66.2411,-0.145272,-3.37573
713,66.2929,-0.145597,-3.37573
713.5,66.3432,-0.12834,-3.37573
714,66.3941,-0.116582,-3.37769
714.5,66.445,-0.0968199,-3.37804
715,66.4936,-0.0756264,-3.37935
715.5,66.5473,-0.0241612,-3.37963
716,66.5973,0.01431,-3.37837
716.5,66.6484,0.0363317,-3.37832
717,66.6999,0.0553068,-3.37838
717.5,66.7484,0.0539318,-3.37835
718,66.8011,0.0568956,-3.37706
718.5,66.8513,0.0577064,-3.37803
719,66.9027,0.0612439,-3.37803
719.5,66.9542,0.0621686,-3.37803
720,67.0048,0.0580877,-3.37803
720.5,67.0559,0.0579297,-3.37813
721,67.1072,0.0605431,-3.37836
721.5,67.1581,0.0606151,-3.37944
722,67.2086,0.0678095,-3.37971
722.5,67.2603,0.0628947,-3.381
723,67.3106,0.0636286,-3.381
723.5,67.362,0.0612237,-3.381
724,67.4132,0.0602062,-3.381
724.5,67.4645,0.0588635,-3.381
725,67.5154,0.0566021,-3.383
725.5,67.5666,0.0561926,-3.38331
726,67.6183,0.0580235,-3.38331
726.5,67.6675,0.0585239,-3.38198
727,67.7186,0.0594157,-3.38199
727.5,67.7715,0.060443,-3.38199
728,67.8226,0.0634203,-3.38263
728.5,67.8738,0.06816,-3.38199
729,67.9243,0.0665984,-3.38199
729.5,67.9755,0.0628397,-3.38222
730,68.027,0.062661,-3.38198
730.5,68.078,0.0681033,-3.38199
731,68.1288,0.0666498,-3.38133
731.5,68.1801,0.066545,-3.38133
732,68.2311,0.0653784,-3.38133
732.5,68.2801,0.0668363,-3.38267
733,68.3339,0.0657201,-3.38398
733.5,68.3852,0.0677707,-3.38397
734,68.4361,0.0665243,-3.38397
734.5,68.4879,0.0621686,-3.384
735,68.5386,0.0585039,-3.38367
735.5,68.5901,0.0530387,-3.38298
736,68.6406,0.054939,-3.38429
736.5,68.6922,0.0585057,-3.3843
737,68.7432,0.0602411,-3.3843
737.5,68.795,0.055544,-3.3843
738,68.8471,0.0622682,-3.3847
738.5,68.8981,0.061639,-3.38561
739,68.9493,0.0633136,-3.38561
739.5,69.0011,0.0626278,-3.38562
740,69.0518,0.0650157,-3.38721