File: 01_Data/NFPA_1981-2019_SCBA_Lens/STA/N2/10K_min/NFPA_1981-2019_SCBA_Lens_STA_N2_10KData_250910_R3.csv
Temp./C,Time/min,DSC/(mW/mg),Mass loss/mg
40,0,0.57368,-9.98E-03
40.6,0.0832182,0.5816,-5.28E-03
41.2,0.161072,0.59384,-9.42E-03
41.8,0.242225,0.60195,-1.43E-02
42.4,0.320651,0.61397,-1.67E-02
43,0.400627,0.62401,-1.91E-02
43.6,0.474989,0.63165,-2.16E-02
44.2,0.552353,0.64313,-2.15E-02
44.8,0.62793,0.65434,-2.13E-02
45.4,0.703134,0.66091,-2.14E-02
46,0.776171,0.67016,-2.22E-02
46.6,0.849598,0.6678,-2.08E-02
47.2,0.921935,0.67867,-1.97E-02
47.8,0.995243,0.68676,-1.99E-02
48.4,1.06491,0.69855,-1.88E-02
49,1.13843,0.70734,-1.91E-02
49.6,1.20773,0.70742,-1.78E-02
50.2,1.2797,0.71354,-1.71E-02
50.8,1.35052,0.71775,-1.81E-02
51.4,1.4198,0.72255,-1.75E-02
52,1.48896,0.73283,-1.75E-02
52.6,1.55797,0.74463,-1.62E-02
53.2,1.62617,0.74852,-1.65E-02
53.8,1.69628,0.75425,-1.62E-02
54.4,1.76194,0.75791,-1.56E-02
55,1.82715,0.76722,-1.59E-02
55.6,1.89693,0.76128,-1.52E-02
56.2,1.96278,0.77163,-1.45E-02
56.8,2.02987,0.77502,-1.53E-02
57.4,2.09676,0.78174,-1.46E-02
58,2.16282,0.79871,-1.53E-02
58.6,2.22921,0.79495,-1.48E-02
59.2,2.29437,0.80124,-1.44E-02
59.8,2.35906,0.80469,-1.55E-02
60.4,2.42323,0.81266,-1.51E-02
61,2.48807,0.82014,-1.49E-02
61.6,2.55158,0.82243,-1.46E-02
62.2,2.61404,0.83252,-1.43E-02
62.8,2.67906,0.83714,-1.42E-02
63.4,2.74325,0.84492,-1.49E-02
64,2.80677,0.84589,-1.53E-02
64.6,2.86987,0.84749,-1.45E-02
65.2,2.93241,0.85992,-1.48E-02
65.8,2.99584,0.86118,-1.39E-02
66.4,3.05905,0.86546,-1.39E-02
67,3.12202,0.86853,-1.40E-02
67.6,3.18318,0.87762,-1.41E-02
68.2,3.24632,0.87658,-1.42E-02
68.8,3.30798,0.89024,-1.43E-02
69.4,3.36986,0.89416,-1.37E-02
70,3.42981,0.89737,-1.48E-02
70.6,3.49359,0.8988,-1.50E-02
71.2,3.55546,0.90877,-1.52E-02
71.8,3.61515,0.90899,-1.41E-02
72.4,3.67709,0.90516,-1.31E-02
73,3.73882,0.9086,-1.33E-02
73.6,3.79933,0.92231,-1.37E-02
74.2,3.86151,0.92683,-1.40E-02
74.8,3.92155,0.93359,-1.42E-02
75.4,3.98269,0.94108,-1.46E-02
76,4.04381,0.94282,-1.50E-02
76.6,4.10427,0.95152,-1.41E-02
77.2,4.16417,0.95014,-1.44E-02
77.8,4.22609,0.95727,-1.48E-02
78.4,4.28739,0.96009,-1.39E-02
79,4.34633,0.95648,-1.43E-02
79.6,4.40749,0.96034,-1.47E-02
80.2,4.46704,0.95761,-1.39E-02
80.8,4.52728,0.96488,-1.43E-02
81.4,4.58901,0.96623,-1.48E-02
82,4.64863,0.97077,-1.40E-02
82.6,4.70765,0.97088,-1.45E-02
83.2,4.76737,0.9739,-1.37E-02
83.8,4.8283,0.98091,-1.43E-02
84.4,4.88676,0.9843,-1.39E-02
85,4.9471,0.98439,-1.41E-02
85.6,5.00703,0.98424,-1.45E-02
86.2,5.06653,0.98107,-1.39E-02
86.8,5.12473,0.9867,-1.45E-02
87.4,5.18401,0.98482,-1.38E-02
88,5.24298,0.9801,-1.45E-02
88.6,5.3023,0.98948,-1.38E-02
89.2,5.36159,0.98562,-1.44E-02
89.8,5.4198,0.98992,-1.41E-02
90.4,5.48013,0.99016,-1.34E-02
91,5.53861,0.99378,-1.38E-02
91.6,5.59667,0.99733,-1.44E-02
92.2,5.65516,1.00141,-1.38E-02
92.8,5.71427,1.00235,-1.45E-02
93.4,5.77335,1.00452,-1.51E-02
94,5.83098,1.00512,-1.45E-02
94.6,5.88943,1.01035,-1.49E-02
95.2,5.94505,1.01756,-1.51E-02
95.8,6.00598,1.01605,-1.53E-02
96.4,6.06474,1.01423,-1.47E-02
97,6.12232,1.01802,-1.41E-02
97.6,6.18098,1.02298,-1.45E-02
98.2,6.23787,1.0216,-1.43E-02
98.8,6.29701,1.02429,-1.37E-02
99.4,6.35577,1.02562,-1.44E-02
100,6.41363,1.03048,-1.43E-02
100.6,6.47045,1.03239,-1.46E-02
101.2,6.52957,1.0445,-1.49E-02
101.8,6.58624,1.0419,-1.47E-02
102.4,6.64466,1.04508,-1.42E-02
103,6.70198,1.04798,-1.50E-02
103.6,6.76116,1.04368,-1.45E-02
104.2,6.81821,1.04608,-1.40E-02
104.8,6.87517,1.05177,-1.48E-02
105.4,6.93134,1.05671,-1.54E-02
106,6.99172,1.05896,-1.50E-02
106.6,7.04808,1.06765,-1.44E-02
107.2,7.10608,1.06984,-1.52E-02
107.8,7.16359,1.06773,-1.47E-02
108.4,7.22152,1.07415,-1.42E-02
109,7.28015,1.07758,-1.50E-02
109.6,7.33789,1.08289,-1.45E-02
110.2,7.39444,1.08423,-1.53E-02
110.8,7.45152,1.08609,-1.48E-02
111.4,7.50896,1.09234,-1.56E-02
112,7.56804,1.09252,-1.51E-02
112.6,7.62513,1.0951,-1.59E-02
113.2,7.68294,1.09833,-1.54E-02
113.8,7.74075,1.10423,-1.49E-02
114.4,7.79818,1.10146,-1.44E-02
115,7.85545,1.11154,-1.39E-02
115.6,7.91203,1.10989,-1.47E-02
116.2,7.97048,1.11666,-1.42E-02
116.8,8.02753,1.12014,-1.52E-02
117.4,8.08478,1.11795,-1.47E-02
118,8.14311,1.11868,-1.55E-02
118.6,8.19896,1.12587,-1.50E-02
119.2,8.25712,1.13329,-1.46E-02
119.8,8.3151,1.12898,-1.54E-02
120.4,8.37282,1.14037,-1.50E-02
121,8.43051,1.13373,-1.45E-02
121.6,8.48686,1.13544,-1.40E-02
122.2,8.54585,1.14395,-1.47E-02
122.8,8.60006,1.14496,-1.46E-02
123.4,8.66063,1.14427,-1.43E-02
124,8.71789,1.14689,-1.50E-02
124.6,8.77574,1.14469,-1.46E-02
125.2,8.83234,1.14882,-1.55E-02
125.8,8.89051,1.15176,-1.64E-02
126.4,8.94709,1.15001,-1.46E-02
127,9.00406,1.15506,-1.42E-02
127.6,9.06214,1.15949,-1.38E-02
128.2,9.11952,1.16224,-1.46E-02
128.8,9.17585,1.16203,-1.44E-02
129.4,9.23336,1.15959,-1.39E-02
130,9.29089,1.17014,-1.35E-02
130.6,9.34728,1.17147,-1.41E-02
131.2,9.4039,1.17552,-1.41E-02
131.8,9.46109,1.17265,-1.38E-02
132.4,9.51904,1.16532,-1.46E-02
133,9.5761,1.16735,-1.42E-02
133.6,9.63344,1.17884,-1.39E-02
134.2,9.69085,1.17522,-1.35E-02
134.8,9.74578,1.17586,-1.44E-02
135.4,9.80556,1.1813,-1.41E-02
136,9.86157,1.18483,-1.46E-02
136.6,9.91899,1.1829,-1.46E-02
137.2,9.97614,1.18434,-1.43E-02
137.8,10.0328,1.18733,-1.52E-02
138.4,10.0899,1.19483,-1.48E-02
139,10.1458,1.1961,-1.45E-02
139.6,10.203,1.1954,-1.41E-02
140.2,10.2605,1.19367,-1.38E-02
140.8,10.3167,1.19809,-1.35E-02
141.4,10.3729,1.20345,-1.44E-02
142,10.4301,1.20063,-1.41E-02
142.6,10.4875,1.20523,-1.38E-02
143.2,10.5448,1.20975,-1.47E-02
143.8,10.6011,1.2117,-1.44E-02
144.4,10.6585,1.21057,-1.40E-02
145,10.7156,1.21732,-1.47E-02
145.6,10.7709,1.21761,-1.44E-02
146.2,10.8279,1.22335,-1.40E-02
146.8,10.884,1.22485,-1.40E-02
147.4,10.9425,1.22577,-1.37E-02
148,10.9992,1.22915,-1.33E-02
148.6,11.0554,1.23342,-1.40E-02
149.2,11.1132,1.23602,-1.40E-02
149.8,11.1666,1.23354,-1.37E-02
150.4,11.2259,1.24002,-1.47E-02
151,11.2838,1.24348,-1.43E-02
151.6,11.3396,1.24717,-1.30E-02
152.2,11.3963,1.25599,-1.50E-02
152.8,11.4526,1.25776,-1.44E-02
153.4,11.5095,1.25912,-1.31E-02
154,11.5669,1.26041,-1.28E-02
154.6,11.6237,1.25782,-1.38E-02
155.2,11.6804,1.26447,-1.35E-02
155.8,11.737,1.26198,-1.45E-02
156.4,11.7941,1.26746,-1.58E-02
157,11.8502,1.26827,-1.68E-02
157.6,11.9068,1.27957,-1.66E-02
158.2,11.9634,1.27663,-1.47E-02
158.8,12.0204,1.27736,-1.44E-02
159.4,12.076,1.27989,-1.41E-02
160,12.1332,1.28302,-1.28E-02
160.6,12.1898,1.28112,-1.26E-02
161.2,12.246,1.2829,-1.37E-02
161.8,12.3032,1.2837,-1.47E-02
162.4,12.3575,1.28407,-1.45E-02
163,12.4164,1.28255,-1.42E-02
163.6,12.472,1.28733,-1.39E-02
164.2,12.5288,1.29535,-1.36E-02
164.8,12.5854,1.28576,-1.46E-02
165.4,12.642,1.29167,-1.44E-02
166,12.6999,1.28502,-1.41E-02
166.6,12.7561,1.29623,-1.38E-02
167.2,12.8119,1.30185,-1.49E-02
167.8,12.8684,1.30067,-1.46E-02
168.4,12.9256,1.30401,-1.57E-02
169,12.9816,1.30161,-1.55E-02
169.6,13.0382,1.30245,-1.39E-02
170.2,13.0948,1.30316,-1.36E-02
170.8,13.1511,1.30085,-1.40E-02
171.4,13.2081,1.30888,-1.42E-02
172,13.2642,1.30383,-1.41E-02
172.6,13.3211,1.31069,-1.49E-02
173.2,13.3769,1.31301,-1.49E-02
173.8,13.4342,1.31083,-1.60E-02
174.4,13.4898,1.31784,-1.57E-02
175,13.5467,1.3275,-1.47E-02
175.6,13.6034,1.32118,-1.45E-02
176.2,13.6608,1.32619,-1.56E-02
176.8,13.7172,1.32024,-1.53E-02
177.4,13.7733,1.32113,-1.50E-02
178,13.8297,1.32553,-1.38E-02
178.6,13.8867,1.3266,-1.35E-02
179.2,13.943,1.33286,-1.46E-02
179.8,14,1.33252,-1.43E-02
180.4,14.0555,1.33402,-1.40E-02
181,14.1124,1.33588,-1.51E-02
181.6,14.1692,1.33958,-1.49E-02
182.2,14.2251,1.33921,-1.46E-02
182.8,14.2812,1.33517,-1.44E-02
183.4,14.3375,1.33986,-1.44E-02
184,14.3943,1.34407,-1.52E-02
184.6,14.4503,1.34796,-1.49E-02
185.2,14.507,1.34986,-1.47E-02
185.8,14.5646,1.34053,-1.43E-02
186.4,14.6195,1.34262,-1.55E-02
187,14.6772,1.34579,-1.52E-02
187.6,14.7325,1.34577,-1.50E-02
188.2,14.7889,1.35873,-1.47E-02
188.8,14.8454,1.35503,-1.57E-02
189.4,14.902,1.35742,-1.56E-02
190,14.9585,1.3616,-1.53E-02
190.6,15.015,1.36397,-1.51E-02
191.2,15.0697,1.36608,-1.49E-02
191.8,15.1273,1.36346,-1.46E-02
192.4,15.1836,1.36422,-1.57E-02
193,15.24,1.36615,-1.64E-02
193.6,15.297,1.3696,-1.62E-02
194.2,15.3534,1.37396,-1.60E-02
194.8,15.4095,1.37702,-1.54E-02
195.4,15.464,1.38307,-1.52E-02
196,15.5218,1.3871,-1.50E-02
196.6,15.579,1.39079,-1.58E-02
197.2,15.6354,1.39922,-1.72E-02
197.8,15.6909,1.39896,-1.65E-02
198.4,15.7467,1.40571,-1.55E-02
199,15.8046,1.41991,-1.53E-02
199.6,15.8607,1.42466,-1.50E-02
200.2,15.9171,1.44684,-1.61E-02
200.8,15.9728,1.4547,-1.59E-02
201.4,16.0302,1.47493,-1.57E-02
202,16.086,1.48293,-1.55E-02
202.6,16.1426,1.49646,-1.52E-02
203.2,16.1985,1.51289,-1.50E-02
203.8,16.2568,1.53008,-1.48E-02
204.4,16.3128,1.5388,-1.50E-02
205,16.3689,1.55524,-1.48E-02
205.6,16.4259,1.5722,-1.55E-02
206.2,16.4815,1.57301,-1.53E-02
206.8,16.5389,1.58754,-1.51E-02
207.4,16.5955,1.59132,-1.49E-02
208,16.6517,1.58961,-1.47E-02
208.6,16.7082,1.58701,-1.58E-02
209.2,16.7649,1.57955,-1.56E-02
209.8,16.8204,1.57933,-1.54E-02
210.4,16.8757,1.57436,-1.52E-02
211,16.9341,1.57181,-1.49E-02
211.6,16.9904,1.57276,-1.47E-02
212.2,17.0476,1.57763,-1.45E-02
212.8,17.1037,1.56536,-1.43E-02
213.4,17.1602,1.56778,-1.44E-02
214,17.2163,1.56481,-1.52E-02
214.6,17.2734,1.5762,-1.50E-02
215.2,17.3295,1.57201,-1.49E-02
215.8,17.386,1.57832,-1.47E-02
216.4,17.4422,1.57222,-1.45E-02
217,17.5001,1.57482,-1.56E-02
217.6,17.5538,1.568,-1.54E-02
218.2,17.6106,1.57097,-1.52E-02
218.8,17.6663,1.5762,-1.50E-02
219.4,17.7245,1.57583,-1.48E-02
220,17.7801,1.58079,-1.60E-02
220.6,17.8372,1.57951,-1.73E-02
221.2,17.8925,1.57854,-1.71E-02
221.8,17.9493,1.58211,-1.54E-02
222.4,18.0056,1.58301,-1.52E-02
223,18.0623,1.58623,-1.50E-02
223.6,18.1186,1.58451,-1.48E-02
224.2,18.1734,1.57941,-1.46E-02
224.8,18.2313,1.58686,-1.47E-02
225.4,18.2874,1.58745,-1.49E-02
226,18.3449,1.58316,-1.47E-02
226.6,18.4014,1.59099,-1.52E-02
227.2,18.457,1.5914,-1.50E-02
227.8,18.5137,1.59233,-1.61E-02
228.4,18.5706,1.59757,-1.59E-02
229,18.6269,1.5988,-1.57E-02
229.6,18.6836,1.59946,-1.48E-02
230.2,18.7403,1.60623,-1.47E-02
230.8,18.7965,1.60709,-1.45E-02
231.4,18.8534,1.61017,-1.53E-02
232,18.9079,1.60442,-1.52E-02
232.6,18.9667,1.61316,-1.49E-02
233.2,19.0226,1.61816,-1.63E-02
233.8,19.0789,1.61423,-1.63E-02
234.4,19.1332,1.61709,-1.61E-02
235,19.1916,1.62428,-1.48E-02
235.6,19.2482,1.61496,-1.48E-02
236.2,19.3047,1.62212,-1.46E-02
236.8,19.3613,1.61933,-1.44E-02
237.4,19.4183,1.62253,-1.42E-02
238,19.4747,1.62511,-1.53E-02
238.6,19.5307,1.62836,-1.52E-02
239.2,19.5877,1.62611,-1.50E-02
239.8,19.6436,1.62997,-1.49E-02
240.4,19.701,1.63217,-1.47E-02
241,19.758,1.6283,-1.45E-02
241.6,19.8145,1.62704,-1.58E-02
242.2,19.8698,1.63125,-1.56E-02
242.8,19.9271,1.62766,-1.54E-02
243.4,19.9836,1.63213,-1.52E-02
244,20.0401,1.64401,-1.50E-02
244.6,20.0969,1.63377,-1.49E-02
245.2,20.1526,1.63391,-1.47E-02
245.8,20.21,1.63813,-1.46E-02
246.4,20.2665,1.64701,-1.44E-02
247,20.3233,1.64396,-1.42E-02
247.6,20.3791,1.64992,-1.41E-02
248.2,20.4364,1.6469,-1.49E-02
248.8,20.4928,1.64909,-1.48E-02
249.4,20.5473,1.65841,-1.46E-02
250,20.6064,1.64994,-1.44E-02
250.6,20.6637,1.65427,-1.60E-02
251.2,20.72,1.65839,-1.58E-02
251.8,20.7749,1.65612,-1.43E-02
252.4,20.8334,1.65307,-1.42E-02
253,20.8897,1.64969,-1.40E-02
253.6,20.9466,1.65696,-1.39E-02
254.2,21.0043,1.65779,-1.38E-02
254.8,21.0605,1.65186,-1.50E-02
255.4,21.1173,1.65584,-1.49E-02
256,21.1739,1.66329,-1.48E-02
256.6,21.2311,1.66519,-1.46E-02
257.2,21.2866,1.66747,-1.45E-02
257.8,21.3441,1.66233,-1.43E-02
258.4,21.3986,1.67005,-1.55E-02
259,21.4576,1.6706,-1.41E-02
259.6,21.5143,1.6688,-1.39E-02
260.2,21.571,1.6701,-1.38E-02
260.8,21.6277,1.67139,-1.49E-02
261.4,21.6848,1.67061,-1.48E-02
262,21.7411,1.66897,-1.47E-02
262.6,21.7957,1.66918,-1.46E-02
263.2,21.8544,1.66849,-1.50E-02
263.8,21.9111,1.67478,-1.51E-02
264.4,21.9685,1.68243,-1.42E-02
265,22.025,1.67935,-1.46E-02
265.6,22.0824,1.67853,-1.49E-02
266.2,22.1383,1.68598,-1.48E-02
266.8,22.1963,1.68407,-1.47E-02
267.4,22.2521,1.68432,-1.46E-02
268,22.309,1.68834,-1.44E-02
268.6,22.3662,1.68837,-1.43E-02
269.2,22.4237,1.68031,-1.42E-02
269.8,22.479,1.67243,-1.41E-02
270.4,22.5362,1.67766,-1.40E-02
271,22.5942,1.6807,-1.39E-02
271.6,22.65,1.68771,-1.38E-02
272.2,22.7073,1.68746,-1.36E-02
272.8,22.7636,1.68703,-1.38E-02
273.4,22.8207,1.69419,-1.37E-02
274,22.8777,1.68729,-1.35E-02
274.6,22.9344,1.70039,-1.34E-02
275.2,22.9917,1.69373,-1.34E-02
275.8,23.0498,1.68254,-1.40E-02
276.4,23.1062,1.68695,-1.38E-02
277,23.1629,1.69538,-1.37E-02
277.6,23.2194,1.70208,-1.36E-02
278.2,23.2756,1.69991,-1.35E-02
278.8,23.3341,1.7014,-1.34E-02
279.4,23.3897,1.69035,-1.34E-02
280,23.4474,1.70273,-1.33E-02
280.6,23.5046,1.70567,-1.32E-02
281.2,23.5623,1.70319,-1.38E-02
281.8,23.6187,1.70222,-1.36E-02
282.4,23.6756,1.71066,-1.35E-02
283,23.7329,1.70812,-1.34E-02
283.6,23.7874,1.71351,-1.33E-02
284.2,23.8476,1.71686,-1.32E-02
284.8,23.9045,1.71345,-1.31E-02
285.4,23.961,1.71228,-1.30E-02
286,24.0191,1.71509,-1.40E-02
286.6,24.0758,1.7166,-1.42E-02
287.2,24.1334,1.71895,-1.41E-02
287.8,24.1909,1.71354,-1.40E-02
288.4,24.2471,1.71291,-1.39E-02
289,24.305,1.71403,-1.28E-02
289.6,24.3627,1.7185,-1.24E-02
290.2,24.4205,1.72333,-1.23E-02
290.8,24.4757,1.71692,-1.30E-02
291.4,24.5353,1.71552,-1.29E-02
292,24.591,1.72208,-1.28E-02
292.6,24.6497,1.71679,-1.34E-02
293.2,24.7074,1.72104,-1.33E-02
293.8,24.7651,1.72334,-1.33E-02
294.4,24.8226,1.71829,-1.32E-02
295,24.8791,1.72181,-1.18E-02
295.6,24.9381,1.73304,-1.31E-02
296.2,24.993,1.72029,-1.30E-02
296.8,25.0526,1.73733,-1.30E-02
297.4,25.1095,1.73009,-1.29E-02
298,25.1673,1.73171,-1.29E-02
298.6,25.224,1.73886,-1.28E-02
299.2,25.2827,1.7315,-1.28E-02
299.8,25.3398,1.74138,-1.27E-02
300.4,25.397,1.74696,-1.40E-02
301,25.4553,1.74196,-1.39E-02
301.6,25.5124,1.74944,-1.38E-02
302.2,25.5693,1.76174,-1.37E-02
302.8,25.6265,1.75253,-1.37E-02
303.4,25.6849,1.7569,-1.37E-02
304,25.742,1.75773,-1.30E-02
304.6,25.7976,1.7605,-1.29E-02
305.2,25.8564,1.76468,-1.29E-02
305.8,25.9136,1.75109,-1.41E-02
306.4,25.9712,1.764,-1.41E-02
307,26.0289,1.75942,-1.40E-02
307.6,26.086,1.75679,-1.26E-02
308.2,26.1428,1.75787,-1.30E-02
308.8,26.2001,1.76235,-1.39E-02
309.4,26.2576,1.76093,-1.39E-02
310,26.3147,1.75259,-1.38E-02
310.6,26.3724,1.76258,-1.38E-02
311.2,26.429,1.76086,-1.38E-02
311.8,26.4843,1.76803,-1.37E-02
312.4,26.5415,1.7691,-1.37E-02
313,26.6007,1.77092,-1.37E-02
313.6,26.6569,1.76756,-1.36E-02
314.2,26.7144,1.77538,-1.39E-02
314.8,26.7725,1.7699,-1.39E-02
315.4,26.8295,1.77227,-1.38E-02
316,26.8868,1.77975,-1.38E-02
316.6,26.9447,1.77566,-1.24E-02
317.2,27.0019,1.78177,-1.23E-02
317.8,27.0591,1.77908,-1.37E-02
318.4,27.1168,1.77445,-1.36E-02
319,27.1734,1.78576,-1.36E-02
319.6,27.231,1.77921,-1.36E-02
320.2,27.2873,1.7845,-1.35E-02
320.8,27.3449,1.78479,-1.35E-02
321.4,27.4004,1.77474,-1.35E-02
322,27.4589,1.78297,-1.34E-02
322.6,27.5169,1.78133,-1.46E-02
323.2,27.5747,1.77273,-1.47E-02
323.8,27.6321,1.7849,-1.34E-02
324.4,27.6882,1.78163,-1.33E-02
325,27.7472,1.7839,-1.33E-02
325.6,27.8034,1.77827,-1.33E-02
326.2,27.8621,1.78772,-1.33E-02
326.8,27.9196,1.78359,-1.33E-02
327.4,27.977,1.78095,-1.33E-02
328,28.0341,1.7837,-1.34E-02
328.6,28.0913,1.78331,-1.46E-02
329.2,28.1495,1.78157,-1.32E-02
329.8,28.2071,1.78149,-1.33E-02
330.4,28.2644,1.77902,-1.44E-02
331,28.3217,1.78654,-1.44E-02
331.6,28.38,1.78431,-1.45E-02
332.2,28.4372,1.79043,-1.31E-02
332.8,28.4944,1.78985,-1.44E-02
333.4,28.5503,1.78104,-1.38E-02
334,28.6097,1.77691,-1.34E-02
334.6,28.6646,1.78243,-1.34E-02
335.2,28.7242,1.78235,-1.34E-02
335.8,28.7824,1.79139,-1.34E-02
336.4,28.8399,1.78676,-1.34E-02
337,28.8977,1.79551,-1.34E-02
337.6,28.9547,1.78941,-1.34E-02
338.2,29.0125,1.78617,-1.34E-02
338.8,29.0702,1.78544,-1.34E-02
339.4,29.1278,1.79198,-1.47E-02
340,29.1849,1.78688,-1.36E-02
340.6,29.2437,1.78818,-1.34E-02
341.2,29.3007,1.79964,-1.27E-02
341.8,29.3579,1.79649,-1.28E-02
342.4,29.4169,1.78887,-1.43E-02
343,29.4731,1.79549,-1.43E-02
343.6,29.5319,1.79858,-1.43E-02
344.2,29.5885,1.78367,-1.44E-02
344.8,29.6472,1.79362,-1.44E-02
345.4,29.7054,1.79989,-1.35E-02
346,29.7623,1.8033,-1.36E-02
346.6,29.8202,1.80748,-1.48E-02
347.2,29.8786,1.80426,-1.49E-02
347.8,29.9359,1.81329,-1.39E-02
348.4,29.9909,1.79914,-1.40E-02
349,30.0511,1.8011,-1.36E-02
349.6,30.1096,1.79792,-1.38E-02
350.2,30.1662,1.79373,-1.47E-02
350.8,30.2238,1.79422,-1.50E-02
351.4,30.2821,1.79555,-1.51E-02
352,30.3403,1.79988,-1.51E-02
352.6,30.3977,1.80303,-1.51E-02
353.2,30.4545,1.80229,-1.52E-02
353.8,30.511,1.79014,-1.41E-02
354.4,30.572,1.79465,-1.46E-02
355,30.6278,1.78991,-1.53E-02
355.6,30.6864,1.79411,-1.54E-02
356.2,30.7432,1.79469,-1.55E-02
356.8,30.802,1.79775,-1.55E-02
357.4,30.8581,1.7817,-1.56E-02
358,30.9183,1.78695,-1.56E-02
358.6,30.975,1.78333,-1.57E-02
359.2,31.0344,1.78982,-1.56E-02
359.8,31.091,1.77741,-1.68E-02
360.4,31.1497,1.78288,-1.68E-02
361,31.2068,1.78517,-1.69E-02
361.6,31.265,1.78954,-1.66E-02
362.2,31.3225,1.79127,-1.64E-02
362.8,31.3809,1.78785,-1.65E-02
363.4,31.4371,1.79777,-1.66E-02
364,31.4962,1.79246,-1.67E-02
364.6,31.5534,1.793,-1.68E-02
365.2,31.6111,1.79093,-1.69E-02
365.8,31.6691,1.7924,-1.70E-02
366.4,31.7269,1.78706,-1.71E-02
367,31.7852,1.79072,-1.72E-02
367.6,31.8419,1.7912,-1.73E-02
368.2,31.9009,1.78049,-1.74E-02
368.8,31.9592,1.77712,-1.75E-02
369.4,32.0162,1.77715,-1.81E-02
370,32.0751,1.77791,-1.90E-02
370.6,32.1321,1.78396,-1.91E-02
371.2,32.1901,1.78958,-1.79E-02
371.8,32.2476,1.78409,-1.80E-02
372.4,32.3066,1.7847,-1.81E-02
373,32.3644,1.78126,-1.82E-02
373.6,32.4224,1.78049,-1.96E-02
374.2,32.4799,1.78199,-1.97E-02
374.8,32.5388,1.77255,-1.85E-02
375.4,32.5962,1.78174,-1.86E-02
376,32.6542,1.77171,-1.87E-02
376.6,32.7122,1.76693,-1.88E-02
377.2,32.7705,1.7708,-1.95E-02
377.8,32.8275,1.76255,-2.00E-02
378.4,32.8859,1.7616,-2.01E-02
379,32.9445,1.76761,-2.03E-02
379.6,33.0009,1.76046,-2.04E-02
380.2,33.0593,1.76609,-1.92E-02
380.8,33.118,1.76596,-1.93E-02
381.4,33.1766,1.76844,-1.94E-02
382,33.2341,1.75333,-1.96E-02
382.6,33.2917,1.74957,-1.97E-02
383.2,33.3507,1.75579,-1.99E-02
383.8,33.4091,1.75269,-2.01E-02
384.4,33.4665,1.75901,-2.03E-02
385,33.5248,1.76028,-2.04E-02
385.6,33.5828,1.77111,-2.06E-02
386.2,33.6416,1.75882,-2.08E-02
386.8,33.6995,1.75515,-2.19E-02
387.4,33.7565,1.75203,-2.21E-02
388,33.815,1.75112,-2.23E-02
388.6,33.8728,1.75243,-2.24E-02
389.2,33.9309,1.74946,-2.20E-02
389.8,33.9894,1.74961,-2.14E-02
390.4,34.0472,1.74768,-2.16E-02
391,34.1049,1.74555,-2.28E-02
391.6,34.1637,1.74637,-2.33E-02
392.2,34.2216,1.74723,-2.35E-02
392.8,34.2804,1.75032,-2.51E-02
393.4,34.3397,1.74248,-2.36E-02
394,34.3961,1.75581,-2.39E-02
394.6,34.4552,1.75197,-2.33E-02
395.2,34.5136,1.74901,-2.36E-02
395.8,34.5717,1.7464,-2.38E-02
396.4,34.6296,1.743,-2.54E-02
397,34.6891,1.74737,-2.56E-02
397.6,34.7463,1.74279,-2.45E-02
398.2,34.8049,1.75213,-2.47E-02
398.8,34.8635,1.7495,-2.49E-02
399.4,34.9222,1.75707,-2.52E-02
400,34.9801,1.76176,-2.54E-02
400.6,35.0377,1.76051,-2.57E-02
401.2,35.0955,1.7594,-2.59E-02
401.8,35.1545,1.75769,-2.62E-02
402.4,35.2133,1.75403,-2.65E-02
403,35.2718,1.74967,-2.67E-02
403.6,35.3303,1.75881,-2.70E-02
404.2,35.3882,1.74886,-2.72E-02
404.8,35.4475,1.74842,-2.75E-02
405.4,35.5062,1.74852,-2.78E-02
406,35.5638,1.74837,-2.81E-02
406.6,35.623,1.74227,-2.84E-02
407.2,35.6798,1.74949,-2.97E-02
407.8,35.7392,1.74543,-3.03E-02
408.4,35.7975,1.75014,-2.90E-02
409,35.8556,1.75172,-2.80E-02
409.6,35.9135,1.74371,-2.83E-02
410.2,35.9727,1.74748,-2.86E-02
410.8,36.0312,1.75303,-2.89E-02
411.4,36.0899,1.75219,-2.93E-02
412,36.1487,1.76164,-2.97E-02
412.6,36.2068,1.75568,-3.10E-02
413.2,36.2657,1.75534,-3.13E-02
413.8,36.324,1.76401,-3.17E-02
414.4,36.3813,1.75678,-3.21E-02
415,36.4408,1.75879,-3.22E-02
415.6,36.4974,1.7678,-3.16E-02
416.2,36.5576,1.77101,-3.27E-02
416.8,36.6154,1.76948,-3.38E-02
417.4,36.6738,1.76565,-3.43E-02
418,36.7333,1.75985,-3.33E-02
418.6,36.7917,1.75926,-3.39E-02
419.2,36.8498,1.76663,-3.44E-02
419.8,36.9085,1.7657,-3.49E-02
420.4,36.968,1.76331,-3.64E-02
421,37.0245,1.75442,-3.70E-02
421.6,37.0827,1.75266,-3.75E-02
422.2,37.1425,1.75942,-3.81E-02
422.8,37.2007,1.7626,-3.87E-02
423.4,37.2586,1.76579,-3.93E-02
424,37.3179,1.76666,-4.00E-02
424.6,37.3762,1.76892,-3.93E-02
425.2,37.4361,1.76181,-4.00E-02
425.8,37.4939,1.76911,-4.08E-02
426.4,37.5522,1.76761,-4.15E-02
427,37.6112,1.78026,-4.26E-02
427.6,37.6697,1.77637,-4.37E-02
428.2,37.7277,1.77688,-4.46E-02
428.8,37.7866,1.78346,-4.54E-02
429.4,37.8443,1.7865,-4.51E-02
430,37.9033,1.79541,-4.58E-02
430.6,37.9622,1.79212,-4.68E-02
431.2,38.0201,1.79171,-4.85E-02
431.8,38.0791,1.80311,-4.95E-02
432.4,38.1371,1.80651,-5.03E-02
433,38.1954,1.81304,-5.04E-02
433.6,38.254,1.80549,-5.16E-02
434.2,38.312,1.82089,-5.40E-02
434.8,38.3711,1.8253,-5.42E-02
435.4,38.4293,1.82998,-5.55E-02
436,38.4873,1.82305,-5.67E-02
436.6,38.5466,1.83024,-5.81E-02
437.2,38.6055,1.84131,-5.95E-02
437.8,38.6644,1.83427,-6.09E-02
438.4,38.7229,1.83324,-6.22E-02
439,38.7814,1.83084,-6.35E-02
439.6,38.8399,1.83289,-6.50E-02
440.2,38.898,1.83331,-6.66E-02
440.8,38.9569,1.83519,-6.83E-02
441.4,39.013,1.83885,-7.00E-02
442,39.0738,1.8448,-7.18E-02
442.6,39.1318,1.83826,-7.36E-02
443.2,39.1895,1.83901,-7.55E-02
443.8,39.2494,1.8358,-7.75E-02
444.4,39.3076,1.83726,-7.95E-02
445,39.3654,1.83848,-8.15E-02
445.6,39.425,1.84207,-8.36E-02
446.2,39.4843,1.84879,-8.58E-02
446.8,39.5424,1.8165,-8.81E-02
447.4,39.6013,1.81983,-9.04E-02
448,39.6596,1.83258,-9.29E-02
448.6,39.7187,1.85063,-9.54E-02
449.2,39.7756,1.87768,-9.79E-02
449.8,39.8364,1.87906,-9.93E-02
450.4,39.8945,1.88532,-0.10214
451,39.9527,1.8877,-0.10642
451.6,40.0117,1.89229,-0.108
452.2,40.0699,1.91526,-0.11116
452.8,40.1296,1.92656,-0.11464
453.4,40.1886,1.92933,-0.11875
454,40.2475,1.93329,-0.12227
454.6,40.3064,1.93773,-0.12594
455.2,40.3647,1.95357,-0.12906
455.8,40.4231,1.95389,-0.13235
456.4,40.483,1.96289,-0.13643
457,40.5413,1.97269,-0.14058
457.6,40.6005,1.99115,-0.14779
458.2,40.6583,2.0011,-0.15114
458.8,40.7175,2.01361,-0.1557
459.4,40.7766,1.99636,-0.16039
460,40.8348,1.99181,-0.16444
460.6,40.8941,1.99941,-0.16982
461.2,40.9534,2.02388,-0.17541
461.8,41.0116,2.05031,-0.18124
462.4,41.0707,2.06425,-0.18729
463,41.1301,2.06434,-0.1929
463.6,41.1896,2.09772,-0.19948
464.2,41.2479,2.10323,-0.20633
464.8,41.3066,2.11944,-0.21348
465.4,41.3647,2.13382,-0.22224
466,41.4237,2.12903,-0.22996
466.6,41.4839,2.17615,-0.2373
467.2,41.5438,2.21424,-0.24568
467.8,41.602,2.23558,-0.25436
468.4,41.6606,2.2615,-0.26344
469,41.721,2.23143,-0.27287
469.6,41.7793,2.23834,-0.28268
470.2,41.8388,2.2944,-0.29291
470.8,41.8978,2.31227,-0.30356
471.4,41.9578,2.36112,-0.31463
472,42.0155,2.39036,-0.32616
472.6,42.0753,2.36051,-0.33809
473.2,42.1356,2.36653,-0.3504
473.8,42.1938,2.37851,-0.3631
474.4,42.2528,2.39646,-0.3764
475,42.3122,2.42309,-0.38946
475.6,42.3697,2.40941,-0.40512
476.2,42.4305,2.47052,-0.41861
476.8,42.4901,2.50296,-0.43386
477.4,42.5492,2.48948,-0.44965
478,42.6079,2.50882,-0.46607
478.6,42.6676,2.55165,-0.48311
479.2,42.7272,2.56513,-0.50082
479.8,42.784,2.54253,-0.519
480.4,42.8468,2.63508,-0.5378
481,42.9052,2.67823,-0.55719
481.6,42.965,2.71158,-0.57713
482.2,43.0239,2.74118,-0.59775
482.8,43.083,2.71359,-0.6191
483.4,43.1414,2.62983,-0.64105
484,43.2007,2.6264,-0.66383
484.6,43.2596,2.7131,-0.68734
485.2,43.3205,2.79437,-0.71025
485.8,43.3802,2.84037,-0.73514
486.4,43.4386,2.85533,-0.76059
487,43.4979,2.89428,-0.78659
487.6,43.5586,2.9461,-0.81298
488.2,43.6177,2.95507,-0.83997
488.8,43.6746,2.96062,-0.86808
489.4,43.7342,2.97179,-0.8952
490,43.7943,2.95172,-0.92129
490.6,43.8533,2.94822,-0.94759
491.2,43.9132,2.98966,-0.97482
491.8,43.9714,2.98598,-1.00278
492.4,44.0303,2.98662,-1.03166
493,44.0891,2.98387,-1.0616
493.6,44.1484,3.01514,-1.09255
494.2,44.2048,3.08158,-1.12429
494.8,44.2665,3.16438,-1.15692
495.4,44.3245,3.18537,-1.19031
496,44.3832,3.17433,-1.22462
496.6,44.4413,3.1751,-1.25979
497.2,44.5003,3.22309,-1.29568
497.8,44.5594,3.23082,-1.33213
498.4,44.6175,3.23696,-1.36861
499,44.6766,3.23721,-1.40468
499.6,44.7357,3.22507,-1.44202
500.2,44.7942,3.20699,-1.48061
500.8,44.8529,3.19972,-1.5193
501.4,44.9108,3.17517,-1.55781
502,44.9692,3.15242,-1.59589
502.6,45.0278,3.12628,-1.63457
503.2,45.086,3.06893,-1.67407
503.8,45.144,2.98525,-1.71367
504.4,45.2017,2.89187,-1.75245
505,45.2595,2.78979,-1.79204
505.6,45.3168,2.684,-1.83087
506.2,45.3753,2.56206,-1.87065
506.8,45.4329,2.4112,-1.91118
507.4,45.4904,2.27978,-1.95028
508,45.548,2.12309,-1.98871
508.6,45.6044,1.9942,-2.02637
509.2,45.6627,1.8487,-2.06459
509.8,45.7194,1.71752,-2.10339
510.4,45.7782,1.59736,-2.14092
511,45.8341,1.48858,-2.17696
511.6,45.8926,1.37411,-2.21245
512.2,45.9498,1.27906,-2.24749
512.8,46.0087,1.18692,-2.28116
513.4,46.0661,1.10215,-2.31571
514,46.1251,1.01827,-2.35108
514.6,46.182,0.93595,-2.38514
515.2,46.2404,0.8798,-2.4206
515.8,46.2981,0.82325,-2.45531
516.4,46.357,0.78644,-2.48957
517,46.4149,0.74843,-2.52471
517.6,46.4727,0.70871,-2.55658
518.2,46.5323,0.68491,-2.58776
518.8,46.5901,0.65921,-2.61823
519.4,46.6476,0.63354,-2.64812
520,46.706,0.61185,-2.6765
520.6,46.7665,0.60659,-2.70384
521.2,46.825,0.60068,-2.73055
521.8,46.8841,0.58135,-2.75668
522.4,46.9424,0.57613,-2.78125
523,47.0013,0.57748,-2.80568
523.6,47.0605,0.57906,-2.8278
524.2,47.1193,0.57428,-2.85048
524.8,47.1783,0.58422,-2.87281
525.4,47.2382,0.57638,-2.89356
526,47.2967,0.57923,-2.91075
526.6,47.3561,0.57869,-2.92851
527.2,47.4153,0.57759,-2.94495
527.8,47.474,0.58503,-2.96108
528.4,47.5333,0.57697,-2.97848
529,47.5929,0.57983,-2.99419
529.6,47.6513,0.59104,-3.00736
530.2,47.7113,0.58645,-3.02006
530.8,47.7707,0.59643,-3.03129
531.4,47.83,0.59177,-3.04191
532,47.8891,0.60007,-3.05175
532.6,47.9485,0.60116,-3.06004
533.2,48.0081,0.60375,-3.06925
533.8,48.0676,0.59924,-3.0804
534.4,48.1266,0.60416,-3.09151
535,48.1865,0.60312,-3.0999
535.6,48.2447,0.60254,-3.10562
536.2,48.3042,0.60841,-3.11352
536.8,48.3622,0.60659,-3.1221
537.4,48.4224,0.60549,-3.12974
538,48.4815,0.60921,-3.13537
538.6,48.5407,0.60219,-3.14126
539.2,48.6015,0.60256,-3.14766
539.8,48.6603,0.59663,-3.15362
540.4,48.719,0.60633,-3.15895
541,48.7796,0.60137,-3.1617
541.6,48.8393,0.59802,-3.16498
542.2,48.8971,0.59067,-3.16742
542.8,48.9591,0.58776,-3.16856
543.4,49.0172,0.59015,-3.17117
544,49.0774,0.5828,-3.17399
544.6,49.1374,0.59107,-3.1761
545.2,49.1965,0.57638,-3.17863
545.8,49.2564,0.58127,-3.1831
546.4,49.3164,0.58936,-3.18593
547,49.3754,0.58411,-3.18921
547.6,49.4348,0.58033,-3.19125
548.2,49.4946,0.57549,-3.19301
548.8,49.5538,0.58615,-3.19561
549.4,49.6138,0.57841,-3.19781
550,49.6724,0.58243,-3.19942
550.6,49.733,0.5754,-3.19987
551.2,49.793,0.58291,-3.20089
551.8,49.8526,0.57696,-3.20386
552.4,49.912,0.56976,-3.21047
553,49.9714,0.56413,-3.21696
553.6,50.0311,0.55883,-3.22171
554.2,50.0908,0.55953,-3.22407
554.8,50.1511,0.56032,-3.22873
555.4,50.2103,0.55088,-3.23351
556,50.2708,0.5539,-3.23803
556.6,50.33,0.5516,-3.24069
557.2,50.3903,0.55476,-3.24426
557.8,50.4504,0.5481,-3.24867
558.4,50.5104,0.53854,-3.25108
559,50.5698,0.53793,-3.25143
559.6,50.6297,0.53753,-3.25088
560.2,50.6892,0.53974,-3.25229
560.8,50.7475,0.54414,-3.25562
561.4,50.8083,0.53504,-3.25781
562,50.8687,0.52908,-3.25869
562.6,50.9285,0.53288,-3.26032
563.2,50.9884,0.53946,-3.26198
563.8,51.0505,0.7468,-3.26348
564.4,51.1057,0.37956,-3.26253
565,51.1618,-0.15587,-3.26307
565.6,51.2198,-0.44158,-3.26368
566.2,51.2769,-0.60047,-3.26509
566.8,51.3378,-0.6814,-3.2665
567.4,51.3968,-0.72381,-3.26828
568,51.4556,-0.74592,-3.26995
568.6,51.5151,-0.7586,-3.2715
569.2,51.5758,-0.7673,-3.27311
569.8,51.6348,-0.76808,-3.27553
570.4,51.695,-0.7694,-3.27947
571,51.7534,-0.76827,-3.28219
571.6,51.8142,-0.76875,-3.28603
572.2,51.8733,-0.77986,-3.28847
572.8,51.9331,-0.7748,-3.2905
573.4,51.9922,-0.77775,-3.29171
574,52.0531,-0.7803,-3.29309
574.6,52.1129,-0.79672,-3.29449
575.2,52.1722,-0.79672,-3.29668
575.8,52.2329,-0.79303,-3.29904
576.4,52.2939,-0.81288,-3.30148
577,52.351,-0.81601,-3.30253
577.6,52.4131,-0.81702,-3.30076
578.2,52.4729,-0.81554,-3.29831
578.8,52.533,-0.81712,-3.29435
579.4,52.593,-0.82917,-3.29244
580,52.653,-0.82562,-3.29192
580.6,52.7127,-0.8247,-3.29065
581.2,52.7725,-0.82904,-3.28962
581.8,52.8331,-0.82121,-3.28784
582.4,52.8933,-0.83391,-3.28745
583,52.9522,-0.83099,-3.28747
583.6,53.0125,-0.83499,-3.28781
584.2,53.0738,-0.82706,-3.2882
584.8,53.1334,-0.82913,-3.28823
585.4,53.1934,-0.82968,-3.28808
586,53.2535,-0.82153,-3.28665
586.6,53.313,-0.83143,-3.28626
587.2,53.3722,-0.82673,-3.28566
587.8,53.4322,-0.83832,-3.28517
588.4,53.4925,-0.83987,-3.28603
589,53.5519,-0.84154,-3.2868
589.6,53.6132,-0.83711,-3.28816
590.2,53.6727,-0.84187,-3.28929
590.8,53.7326,-0.84705,-3.29025
591.4,53.7922,-0.84294,-3.29068
592,53.8528,-0.85263,-3.29205
592.6,53.9129,-0.85211,-3.29335
593.2,53.972,-0.859,-3.29464
593.8,54.0328,-0.85961,-3.29604
594.4,54.092,-0.8568,-3.29605
595,54.1532,-0.85791,-3.29659
595.6,54.2116,-0.84748,-3.29512
596.2,54.2725,-0.84694,-3.29255
596.8,54.3324,-0.86346,-3.29008
597.4,54.3925,-0.85147,-3.28855
598,54.4535,-0.85257,-3.28747
598.6,54.5127,-0.85132,-3.28655
599.2,54.5728,-0.85602,-3.28469
599.8,54.6335,-0.84825,-3.2841
600.4,54.6937,-0.85473,-3.28518
601,54.7535,-0.85953,-3.28503
601.6,54.8124,-0.86662,-3.28495
602.2,54.8731,-0.86229,-3.28501
602.8,54.934,-0.86287,-3.28501
603.4,54.9941,-0.87507,-3.28484
604,55.0545,-0.87135,-3.28419
604.6,55.1141,-0.87363,-3.28566
605.2,55.1754,-0.87936,-3.28656
605.8,55.2348,-0.88165,-3.28685
606.4,55.2946,-0.88575,-3.28666
607,55.3552,-0.88316,-3.28751
607.6,55.4152,-0.88337,-3.28842
608.2,55.4764,-0.89092,-3.28933
608.8,55.5365,-0.89921,-3.29027
609.4,55.5969,-0.89114,-3.29089
610,55.6564,-0.89646,-3.2918
610.6,55.7165,-0.88999,-3.29269
611.2,55.7769,-0.89845,-3.29376
611.8,55.8373,-0.90629,-3.29467
612.4,55.8975,-0.90651,-3.29562
613,55.9579,-0.89537,-3.29661
613.6,56.018,-0.90056,-3.29749
614.2,56.0773,-0.90668,-3.29827
614.8,56.1381,-0.91468,-3.29803
615.4,56.1984,-0.91979,-3.29898
616,56.2585,-0.92001,-3.29988
616.6,56.3182,-0.92188,-3.3008
617.2,56.3791,-0.92804,-3.30161
617.8,56.439,-0.92766,-3.30252
618.4,56.4988,-0.94976,-3.30342
619,56.5594,-0.94391,-3.30426
619.6,56.6197,-0.94988,-3.30511
620.2,56.6799,-0.95385,-3.30612
620.8,56.7386,-0.96416,-3.30746
621.4,56.8008,-0.95324,-3.30917
622,56.8606,-0.95518,-3.30978
622.6,56.9211,-0.96639,-3.31182
623.2,56.9812,-0.96705,-3.31411
623.8,57.0415,-0.98169,-3.31689
624.4,57.102,-0.98177,-3.32024
625,57.1619,-0.98967,-3.32391
625.6,57.2219,-0.99369,-3.32762
626.2,57.2831,-1.00417,-3.33154
626.8,57.343,-1.00408,-3.33478
627.4,57.4034,-1.01208,-3.33647
628,57.4647,-1.01948,-3.33751
628.6,57.5235,-1.0255,-3.3393
629.2,57.586,-1.0347,-3.34175
629.8,57.6456,-1.03373,-3.34534
630.4,57.7047,-1.04112,-3.35045
631,57.7656,-1.04689,-3.35591
631.6,57.8266,-1.04309,-3.36096
632.2,57.8863,-1.05977,-3.36528
632.8,57.9458,-1.05716,-3.36915
633.4,58.0081,-1.08199,-3.37288
634,58.0684,-1.09356,-3.37631
634.6,58.1293,-1.09544,-3.37947
635.2,58.1904,-1.10253,-3.38246
635.8,58.2508,-1.11422,-3.38525
636.4,58.311,-1.12014,-3.38789
637,58.3717,-1.12843,-3.39041
637.6,58.4308,-1.12337,-3.39248
638.2,58.4921,-1.13234,-3.39428
638.8,58.5516,-1.12835,-3.39535
639.4,58.6119,-1.14399,-3.39659
640,58.6722,-1.14801,-3.39694
640.6,58.7328,-1.15946,-3.39689
641.2,58.7932,-1.1601,-3.39824
641.8,58.8528,-1.17051,-3.39972
642.4,58.9134,-1.16708,-3.40272
643,58.9741,-1.17561,-3.40525
643.6,59.0334,-1.17935,-3.40746
644.2,59.0938,-1.17823,-3.40943
644.8,59.1544,-1.16995,-3.41076
645.4,59.2147,-1.18234,-3.41128
646,59.2768,-1.18458,-3.41155
646.6,59.3369,-1.19127,-3.41073
647.2,59.3971,-1.20475,-3.41108
647.8,59.4574,-1.20357,-3.41171
648.4,59.5149,-1.20888,-3.41036
649,59.577,-1.2114,-3.40974
649.6,59.6376,-1.22343,-3.40858
650.2,59.6986,-1.22796,-3.40726
650.8,59.759,-1.22436,-3.4055
651.4,59.8194,-1.24083,-3.40369
652,59.88,-1.24696,-3.40296
652.6,59.9401,-1.25188,-3.40375
653.2,60.0012,-1.25347,-3.4037
653.8,60.0612,-1.26167,-3.40304
654.4,60.122,-1.27048,-3.40246
655,60.1823,-1.2897,-3.40149
655.6,60.2424,-1.28659,-3.39772
656.2,60.3033,-1.29561,-3.39236
656.8,60.3633,-1.30246,-3.38803
657.4,60.4238,-1.2973,-3.3812
658,60.4853,-1.29956,-3.37609
658.6,60.5449,-1.3095,-3.37424
659.2,60.6032,-1.32083,-3.37135
659.8,60.6657,-1.32685,-3.36796
660.4,60.7248,-1.33418,-3.36529
661,60.7841,-1.33533,-3.36139
661.6,60.8443,-1.34517,-3.35853
662.2,60.9049,-1.34956,-3.35857
662.8,60.9646,-1.34763,-3.35889
663.4,61.0255,-1.3643,-3.35874
664,61.0851,-1.36918,-3.35914
664.6,61.1459,-1.36731,-3.36054
665.2,61.2068,-1.37318,-3.36252
665.8,61.2669,-1.38581,-3.36415
666.4,61.3272,-1.38609,-3.36445
667,61.3876,-1.39148,-3.36394
667.6,61.448,-1.41685,-3.36277
668.2,61.5086,-1.41318,-3.36269
668.8,61.5698,-1.41767,-3.36215
669.4,61.6297,-1.43953,-3.36014
670,61.6907,-1.4473,-3.36004
670.6,61.7511,-1.45947,-3.36147
671.2,61.811,-1.47012,-3.36337
671.8,61.8716,-1.47885,-3.36432
672.4,61.932,-1.48508,-3.36401
673,61.9899,-1.48545,-3.3632
673.6,62.0505,-1.50369,-3.36293
674.2,62.1109,-1.51107,-3.36309
674.8,62.172,-1.50938,-3.36252
675.4,62.231,-1.51592,-3.36155
676,62.2914,-1.53002,-3.36147
676.6,62.3508,-1.53391,-3.36222
677.2,62.4117,-1.52403,-3.36328
677.8,62.47,-1.54247,-3.3643
678.4,62.5325,-1.53409,-3.36646
679,62.5927,-1.5487,-3.36757
679.6,62.6523,-1.56219,-3.36793
680.2,62.7119,-1.57806,-3.36707
680.8,62.7728,-1.59737,-3.36669
681.4,62.8348,-1.40161,-3.36838
682,62.8955,-1.35985,-3.37081
682.6,62.9558,-1.34782,-3.37547
683.2,63.0155,-1.34846,-3.37821
683.8,63.0748,-1.35444,-3.38031
684.4,63.1351,-1.37336,-3.38252
685,63.195,-1.37661,-3.38489
685.6,63.2562,-1.38337,-3.38733
686.2,63.3155,-1.39571,-3.39045
686.8,63.3759,-1.40528,-3.39184
687.4,63.4355,-1.41238,-3.39131
688,63.495,-1.41165,-3.39151
688.6,63.5555,-1.42134,-3.39185
689.2,63.6158,-1.42459,-3.39178
689.8,63.6757,-1.42607,-3.3916
690.4,63.7358,-1.42941,-3.39051
691,63.7966,-1.43426,-3.3879
691.6,63.8555,-1.45172,-3.38566
692.2,63.9161,-1.44159,-3.38605
692.8,63.9767,-1.46127,-3.38626
693.4,64.0361,-1.47608,-3.38795
694,64.0968,-1.46185,-3.39004
694.6,64.1559,-1.45927,-3.39378
695.2,64.216,-1.47155,-3.39543
695.8,64.2761,-1.48029,-3.39642
696.4,64.3372,-1.49538,-3.39757
697,64.397,-1.50888,-3.39825
697.6,64.4585,-1.51942,-3.3987
698.2,64.519,-1.52508,-3.39877
698.8,64.5802,-1.53562,-3.39949
699.4,64.6395,-1.53788,-3.40052
700,64.6995,-1.54966,-3.40162
700.6,64.7597,-1.5436,-3.40272
701.2,64.818,-1.5378,-3.40385
701.8,64.8798,-1.54598,-3.40471
702.4,64.9391,-1.53982,-3.40535
703,64.9998,-1.54588,-3.40469
703.6,65.0602,-1.55317,-3.40553
704.2,65.1204,-1.56497,-3.40678
704.8,65.1804,-1.57672,-3.40717
705.4,65.2414,-1.59104,-3.40754
706,65.3019,-1.59235,-3.40831
706.6,65.362,-1.59331,-3.40896
707.2,65.4221,-1.60137,-3.4109
707.8,65.4824,-1.61072,-3.41165
708.4,65.5436,-1.61273,-3.41117
709,65.6041,-1.61831,-3.41196
709.6,65.6615,-1.6313,-3.41264
710.2,65.7218,-1.64883,-3.41322
710.8,65.7832,-1.6427,-3.41251
711.4,65.8441,-1.65724,-3.41452
712,65.9033,-1.6674,-3.41511
712.6,65.9639,-1.6638,-3.41443
713.2,66.0248,-1.68199,-3.41502
713.8,66.0841,-1.67262,-3.41559
714.4,66.1444,-1.69034,-3.41604
715,66.2046,-1.6986,-3.41645
715.6,66.265,-1.70172,-3.41757
716.2,66.3249,-1.70206,-3.42054
716.8,66.3862,-1.69234,-3.42148
717.4,66.4456,-1.70356,-3.42064
718,66.5052,-1.71493,-3.41981
718.6,66.5649,-1.7217,-3.41786
719.2,66.6254,-1.72276,-3.41604
719.8,66.6855,-1.7213,-3.41457
720.4,66.7453,-1.73715,-3.41308
721,66.8058,-1.73717,-3.41093
721.6,66.8655,-1.74392,-3.41004
722.2,66.9267,-1.75456,-3.40888
722.8,66.9861,-1.76473,-3.40908
723.4,67.0471,-1.75728,-3.40931
724,67.1069,-1.76932,-3.40892
724.6,67.1668,-1.7647,-3.40972
725.2,67.2266,-1.76688,-3.40895
725.8,67.2869,-1.78374,-3.40667
726.4,67.3462,-1.79115,-3.40554
727,67.4051,-1.79694,-3.4043
727.6,67.4657,-1.80206,-3.40304
728.2,67.5274,-1.81224,-3.40047
728.8,67.5871,-1.82497,-3.40062
729.4,67.6471,-1.82658,-3.39947
730,67.7088,-1.84591,-3.39826
730.6,67.7686,-1.83562,-3.39642
731.2,67.8282,-1.84663,-3.39451
731.8,67.8881,-1.85171,-3.39331
732.4,67.9493,-1.85915,-3.39213
733,68.0085,-1.8604,-3.39096
733.6,68.0689,-1.87659,-3.38982
734.2,68.1299,-1.87271,-3.38871
734.8,68.1903,-1.87797,-3.38764
735.4,68.2504,-1.87402,-3.38663
736,68.3112,-1.88629,-3.38439
736.6,68.3709,-1.88926,-3.38353
737.2,68.4322,-1.88838,-3.38273
737.8,68.4923,-1.89471,-3.38198
738.4,68.553,-1.90022,-3.38129
739,68.6133,-1.90826,-3.38065
739.6,68.6735,-1.90484,-3.38008
740.2,68.7344,-1.9196,-3.37955
740.8,68.7945,-1.92393,-3.37907
741.4,68.8548,-1.93403,-3.37995
742,68.9156,-1.9353,-3.37892
742.6,68.975,-1.94067,-3.37792
743.2,69.0357,-1.94313,-3.3776
743.8,69.097,-1.93393,-3.37732
744.4,69.1571,-1.94597,-3.37711
745,69.2171,-1.95022,-3.37562
745.6,69.2783,-1.97409,-3.37548
746.2,69.3388,-1.97314,-3.37635
746.8,69.3991,-1.96615,-3.37637
747.4,69.4598,-1.97276,-3.37495
748,69.5186,-1.97285,-3.37495
748.6,69.5797,-1.98814,-3.37498
749.2,69.6397,-1.98853,-3.37504
749.8,69.7003,-1.97976,-3.3751
750.4,69.7605,-2.0061,-3.37519
751,69.8202,-2.00837,-3.37532
751.6,69.8811,-2.01349,-3.37544
752.2,69.9418,-2.01525,-3.37499
752.8,70.0023,-2.02507,-3.37521
753.4,70.0619,-2.0375,-3.37545
754,70.1237,-2.03611,-3.3757
754.6,70.1831,-2.04738,-3.3753
755.2,70.2434,-2.05597,-3.37555
755.8,70.301,-2.07671,-3.3758
756.4,70.3634,-2.07276,-3.3751
757,70.4237,-2.07001,-3.37538
757.6,70.4854,-2.06594,-3.37569
758.2,70.5452,-2.06792,-3.37568
758.8,70.6057,-2.06443,-3.37599
759.4,70.6668,-2.08545,-3.37634
760,70.7263,-2.07118,-3.37669
760.6,70.7852,-2.07142,-3.37703
761.2,70.8469,-2.08706,-3.37735
761.8,70.9076,-2.09435,-3.37767
762.4,70.9687,-2.09962,-3.37798
763,71.03,-2.109,-3.37832
763.6,71.0902,-2.1015,-3.37865
764.2,71.1506,-2.10649,-3.37897
764.8,71.2108,-2.11121,-3.37926
765.4,71.2713,-2.09831,-3.37828
766,71.3323,-2.10101,-3.37863
766.6,71.3924,-2.11098,-3.37826
767.2,71.4527,-2.11491,-3.37858
767.8,71.5133,-2.09974,-3.37889
768.4,71.5739,-2.09181,-3.37924
769,71.6354,-2.11022,-3.37918
769.6,71.6952,-2.11164,-3.3795
770.2,71.7558,-2.12163,-3.37943
770.8,71.8152,-2.13173,-3.37969
771.4,71.8771,-2.12681,-3.37995
772,71.9376,-2.14645,-3.37924
772.6,71.9982,-2.12682,-3.37919
773.2,72.0588,-2.13516,-3.37945
773.8,72.1196,-2.14732,-3.3797
774.4,72.1805,-2.14968,-3.37995
775,72.2404,-2.13831,-3.3802
775.6,72.3014,-2.1451,-3.38042
776.2,72.3621,-2.15711,-3.38066
776.8,72.422,-2.16064,-3.38088
777.4,72.4827,-2.16067,-3.38109
778,72.5446,-2.14608,-3.3812
778.6,72.6036,-2.1442,-3.38017
779.2,72.6657,-2.15882,-3.38166
779.8,72.7272,-2.15434,-3.38188
780.4,72.7871,-2.16455,-3.38339
781,72.8488,-2.16593,-3.38093
781.6,72.9082,-2.17149,-3.38109
782.2,72.9699,-2.19158,-3.38131
782.8,73.0307,-2.19079,-3.38149
783.4,73.0914,-2.18946,-3.38066
784,73.152,-2.20838,-3.38084
784.6,73.2121,-2.21358,-3.381
785.2,73.2725,-2.21398,-3.38207
785.8,73.3339,-2.22536,-3.38263
786.4,73.3942,-2.2265,-3.38282
787,73.4542,-2.23372,-3.38169
787.6,73.5155,-2.24044,-3.38188
788.2,73.5765,-2.23326,-3.38202
788.8,73.6366,-2.2387,-3.38216
789.4,73.6968,-2.24171,-3.3823
790,73.7576,-2.25023,-3.38246
,,,-3.3813
,,,-3.38149
,,,-3.38167
,,,-3.38184
,,,-3.382
,,,-3.3822
,,,-3.38236
,,,-3.38253
,,,-3.3827
,,,-3.38285
,,,-3.38299
,,,-3.38316
,,,-3.38343
,,,-3.38219
,,,-3.38222