File: 01_Data/NFPA_1981-2019_SCBA_Lens/STA/N2/10K_min/NFPA_1981-2019_SCBA_Lens_STA_N2_10KData_230605_R3.csv
Temp./C,Time/min,DSC/(mW/mg),Mass loss/mg
40.0,0.0,0.701587,-0.0287514
40.5,0.0596785,0.710482,-0.0276827
41,0.119398,0.717032,-0.0276853
41.5,0.177758,0.733958,-0.0265219
42,0.237317,0.743597,-0.0259531
42.5,0.292554,0.753856,-0.0260549
43,0.350158,0.764285,-0.0276172
43.5,0.407543,0.770948,-0.0274059
44,0.462762,0.783674,-0.0274211
44.5,0.519584,0.786704,-0.0274465
45,0.574935,0.788452,-0.0275012
45.5,0.632112,0.803656,-0.0287138
46,0.688035,0.800324,-0.0289274
46.5,0.742677,0.814077,-0.0287688
47,0.79932,0.818662,-0.028665
47.5,0.854804,0.824139,-0.0274631
48,0.909641,0.826162,-0.0274597
48.5,0.964164,0.831124,-0.0274798
49,1.01818,0.828783,-0.0272966
49.5,1.07265,0.839706,-0.0286798
50,1.1268,0.843725,-0.0287724
50.5,1.18142,0.847297,-0.0279372
51,1.23646,0.845102,-0.0287801
51.5,1.28954,0.851236,-0.0287258
52,1.34348,0.848129,-0.028767
52.5,1.39759,0.861243,-0.0287568
53,1.45105,0.863583,-0.0287586
53.5,1.50481,0.86791,-0.0289575
54,1.5577,0.876666,-0.0301561
54.5,1.61047,0.877886,-0.0287777
55,1.66318,0.879308,-0.0280789
55.5,1.71703,0.884865,-0.0287737
56,1.7698,0.887066,-0.0283583
56.5,1.82233,0.887698,-0.0287694
57,1.87504,0.896599,-0.0287517
57.5,1.92699,0.905873,-0.0286366
58,1.98006,0.907549,-0.0293015
58.5,2.03231,0.914861,-0.0287765
59,2.08432,0.918948,-0.0287618
59.5,2.13609,0.920438,-0.0273449
60,2.18688,0.926261,-0.0287702
60.5,2.23905,0.926239,-0.0277123
61,2.29244,0.934441,-0.0287728
61.5,2.34373,0.934661,-0.0287952
62,2.39511,0.935786,-0.0287596
62.5,2.44524,0.940593,-0.0280582
63,2.49676,0.947151,-0.0287883
63.5,2.54816,0.947722,-0.02877
64,2.59977,0.947619,-0.0287803
64.5,2.65039,0.957078,-0.0290452
65,2.70151,0.951918,-0.0286735
65.5,2.75127,0.958697,-0.0297989
66,2.80353,0.969714,-0.0287721
66.5,2.85244,0.969776,-0.0300642
67,2.9022,0.970703,-0.0287703
67.5,2.95549,0.970863,-0.0287795
68,3.00462,0.978125,-0.0278786
68.5,3.05573,0.980132,-0.0290988
69,3.10432,0.981732,-0.0287449
69.5,3.1566,0.996044,-0.0300867
70,3.20634,0.991751,-0.0290248
70.5,3.25797,0.99991,-0.0301264
71,3.3079,1.0035,-0.0286994
71.5,3.3586,1.00615,-0.0300884
72,3.40958,1.01391,-0.0287828
72.5,3.45857,1.01497,-0.0294134
73,3.50683,1.02065,-0.0290555
73.5,3.55524,1.01895,-0.0290948
74,3.60868,1.02304,-0.028767
74.5,3.65972,1.02352,-0.0275717
75,3.70934,1.02372,-0.0287476
75.5,3.75802,1.02762,-0.0274566
76,3.80763,1.03105,-0.0284561
76.5,3.8607,1.04452,-0.028786
77,3.91015,1.0486,-0.0274595
77.5,3.95899,1.05272,-0.0287482
78,4.00869,1.04867,-0.02877
78.5,4.05877,1.05087,-0.028768
79,4.10753,1.0485,-0.027466
79.5,4.15817,1.05944,-0.0287718
80,4.2083,1.053,-0.0291844
80.5,4.25897,1.05182,-0.0294308
81,4.30823,1.0684,-0.0286065
81.5,4.35876,1.07221,-0.0290494
82,4.4079,1.07384,-0.0300891
82.5,4.45776,1.08172,-0.0300899
83,4.50746,1.07625,-0.0301363
83.5,4.55714,1.07807,-0.0302214
84,4.60345,1.08508,-0.0300898
84.5,4.65678,1.07998,-0.0300892
85,4.70615,1.08392,-0.029137
85.5,4.75517,1.08836,-0.0300913
86,4.80595,1.09059,-0.03009
86.5,4.85428,1.09615,-0.0300901
87,4.90381,1.10238,-0.0287229
87.5,4.95163,1.09998,-0.0300962
88,5.00211,1.09933,-0.0287697
88.5,5.05014,1.10595,-0.0287695
89,5.09981,1.10671,-0.0295256
89.5,5.14841,1.10552,-0.03009
90,5.19876,1.11104,-0.0300906
90.5,5.24738,1.11655,-0.0290255
91,5.29712,1.1133,-0.0300898
91.5,5.34594,1.11533,-0.03009
92,5.39526,1.11932,-0.0300901
92.5,5.44408,1.12595,-0.0300502
93,5.49306,1.12358,-0.0307036
93.5,5.54179,1.12472,-0.0300901
94,5.59194,1.12607,-0.0300899
94.5,5.63821,1.12631,-0.0291015
95,5.68807,1.12493,-0.0300893
95.5,5.7378,1.12255,-0.03009
96,5.7863,1.12643,-0.03009
96.5,5.83605,1.13187,-0.0300902
97,5.88489,1.13064,-0.0299854
97.5,5.93356,1.12445,-0.0300879
98,5.98033,1.12479,-0.0300895
98.5,6.03018,1.12308,-0.0315358
99,6.07985,1.12483,-0.0304131
99.5,6.12725,1.13102,-0.0300877
100,6.17323,1.13188,-0.0300985
100.5,6.22432,1.13498,-0.0287667
101,6.27315,1.12813,-0.0300927
101.5,6.32198,1.12666,-0.0314092
102,6.36973,1.13276,-0.0312716
102.5,6.41832,1.13313,-0.0300913
103,6.46859,1.12838,-0.03009
103.5,6.51639,1.13488,-0.03009
104,6.5643,1.13267,-0.0300885
104.5,6.61235,1.13819,-0.0295674
105,6.66147,1.1375,-0.0300799
105.5,6.71111,1.13951,-0.0300965
106,6.75963,1.13897,-0.0300044
106.5,6.80693,1.14181,-0.0297595
107,6.85477,1.14509,-0.0297581
107.5,6.90575,1.1437,-0.0300582
108,6.95319,1.14385,-0.0290957
108.5,7.00014,1.14563,-0.0303873
109,7.05004,1.1506,-0.0304199
109.5,7.09691,1.15227,-0.0308625
110,7.146,1.15016,-0.0313647
110.5,7.19697,1.15868,-0.0300906
111,7.24316,1.15518,-0.0314438
111.5,7.29213,1.15847,-0.0314001
112,7.3396,1.16135,-0.0314
112.5,7.38839,1.16439,-0.0314146
113,7.43689,1.17226,-0.0300852
113.5,7.48617,1.17407,-0.030442
114,7.53414,1.17637,-0.0304079
114.5,7.583,1.17365,-0.0317691
115,7.62949,1.17176,-0.031865
115.5,7.68053,1.17294,-0.0304199
116,7.72822,1.17533,-0.03042
116.5,7.77559,1.18493,-0.03042
117,7.82401,1.18204,-0.0304171
117.5,7.87298,1.18301,-0.0317463
118,7.92101,1.19124,-0.0315174
118.5,7.96983,1.1853,-0.0304158
119,8.01753,1.1975,-0.0317421
119.5,8.06658,1.2011,-0.03174
120,8.11564,1.20587,-0.0317347
120.5,8.16327,1.21005,-0.0330518
121,8.21112,1.19956,-0.0317269
121.5,8.25934,1.20367,-0.03173
122,8.30842,1.20708,-0.0316358
122.5,8.35502,1.20923,-0.0304188
123,8.40411,1.2151,-0.0290965
123.5,8.45296,1.21125,-0.0291096
124,8.50057,1.21457,-0.0304089
124.5,8.5478,1.21238,-0.03042
125,8.59777,1.20522,-0.03042
125.5,8.6455,1.221,-0.03042
126,8.69265,1.22302,-0.03042
126.5,8.74091,1.22047,-0.03042
127,8.78973,1.22239,-0.0303838
127.5,8.83786,1.22391,-0.0294087
128,8.88611,1.23278,-0.0307493
128.5,8.93522,1.23214,-0.03075
129,8.983,1.22942,-0.03075
129.5,9.03021,1.23009,-0.0307444
130,9.07973,1.22676,-0.0313925
130.5,9.12644,1.2297,-0.03141
131,9.17512,1.23455,-0.0314101
131.5,9.22391,1.23332,-0.0313768
132,9.27181,1.24059,-0.0316391
132.5,9.31982,1.23845,-0.0310116
133,9.36784,1.2434,-0.0304456
133.5,9.41467,1.24255,-0.0317298
134,9.46319,1.24328,-0.0317216
134.5,9.51124,1.24834,-0.0300621
135,9.56006,1.24695,-0.0300901
135.5,9.60722,1.24763,-0.0300908
136,9.65594,1.24075,-0.0314241
136.5,9.70355,1.24528,-0.03141
137,9.75139,1.24917,-0.0314392
137.5,9.79995,1.25681,-0.030088
138,9.84689,1.2576,-0.0301092
138.5,9.89581,1.2579,-0.0314446
139,9.94277,1.25789,-0.0304198
139.5,9.99119,1.26545,-0.0304331
140,10.0395,1.26131,-0.0317649
140.5,10.0873,1.26433,-0.0327172
141,10.1325,1.2605,-0.03273
141.5,10.1818,1.26061,-0.03273
142,10.2313,1.26688,-0.0327188
142.5,10.2784,1.2686,-0.0337103
143,10.3263,1.27233,-0.0323832
143.5,10.3745,1.26606,-0.03239
144,10.4219,1.27363,-0.03239
144.5,10.4702,1.26825,-0.0323682
145,10.5175,1.26576,-0.031229
145.5,10.5665,1.26677,-0.0314269
146,10.6125,1.27259,-0.0300897
146.5,10.6619,1.27759,-0.0312967
147,10.7096,1.27685,-0.0314189
147.5,10.7579,1.27683,-0.0320552
148,10.8043,1.27582,-0.03206
148.5,10.8522,1.27536,-0.03206
149,10.9003,1.27838,-0.032063
149.5,10.9486,1.27949,-0.0307123
150,10.9959,1.27716,-0.0308666
150.5,11.0419,1.28303,-0.0320662
151,11.0922,1.28955,-0.03207
151.5,11.1392,1.28283,-0.0320677
152,11.1864,1.28835,-0.0334302
152.5,11.2348,1.28357,-0.0333898
153,11.2828,1.28326,-0.033028
153.5,11.3296,1.28687,-0.0320708
154,11.3756,1.28612,-0.0320902
154.5,11.425,1.29767,-0.0333792
155,11.4735,1.29279,-0.03338
155.5,11.5216,1.30297,-0.0333796
156,11.5693,1.29971,-0.0322065
156.5,11.6162,1.30461,-0.0320597
157,11.6643,1.30039,-0.03206
157.5,11.7118,1.30936,-0.03206
158,11.7592,1.3023,-0.03206
158.5,11.8071,1.30699,-0.03206
159,11.8548,1.30545,-0.03206
159.5,11.903,1.30461,-0.0320868
160,11.9522,1.30691,-0.0333788
160.5,11.9983,1.31436,-0.0333784
161,12.0457,1.30741,-0.0320825
161.5,12.0941,1.31611,-0.03206
162,12.1418,1.32284,-0.03206
162.5,12.1913,1.31468,-0.0320534
163,12.2384,1.31688,-0.0315868
163.5,12.2852,1.31747,-0.0320699
164,12.3339,1.33074,-0.03207
164.5,12.381,1.33106,-0.0320704
165,12.4277,1.32609,-0.0324314
165.5,12.4768,1.33113,-0.0330391
166,12.5243,1.32316,-0.03306
166.5,12.5719,1.33245,-0.03306
167,12.6195,1.3319,-0.0330602
167.5,12.6681,1.33422,-0.0343658
168,12.7147,1.33426,-0.0332097
168.5,12.7631,1.33733,-0.0329521
169,12.8102,1.33691,-0.0319677
169.5,12.8562,1.33869,-0.03196
170,12.9068,1.34007,-0.03196
170.5,12.9542,1.343,-0.0319542
171,13.0016,1.34389,-0.033263
171.5,13.0494,1.34166,-0.0341931
172,13.0973,1.34269,-0.0342601
172.5,13.1418,1.35229,-0.0342595
173,13.1922,1.3526,-0.0345081
173.5,13.2386,1.35417,-0.0355157
174,13.2872,1.35563,-0.0342625
174.5,13.335,1.35318,-0.0342589
175,13.3853,1.3541,-0.0332144
175.5,13.4313,1.35523,-0.0329411
176,13.4799,1.35914,-0.0328714
176.5,13.5273,1.35622,-0.0329402
177,13.575,1.35557,-0.03294
177.5,13.6212,1.35691,-0.0329395
178,13.6707,1.36114,-0.0323536
178.5,13.7172,1.36939,-0.0336001
179,13.7654,1.36227,-0.0336
179.5,13.8131,1.36502,-0.0336
180,13.8609,1.36615,-0.0336
180.5,13.9095,1.36566,-0.0336
181,13.9566,1.37052,-0.0336
181.5,14.0048,1.37267,-0.0335969
182,14.0518,1.37481,-0.0339433
182.5,14.1002,1.37519,-0.0339398
183,14.1468,1.37455,-0.0341318
183.5,14.1953,1.37097,-0.0342702
184,14.2426,1.37252,-0.0342699
184.5,14.2914,1.37483,-0.032932
185,14.338,1.37894,-0.0335996
185.5,14.3864,1.3798,-0.0339305
186,14.4318,1.37625,-0.03393
186.5,14.4808,1.38255,-0.03393
187,14.5286,1.37901,-0.0339369
187.5,14.5774,1.38071,-0.0326204
188,14.6245,1.3873,-0.032621
188.5,14.6725,1.38392,-0.0339274
189,14.7199,1.3816,-0.0326165
189.5,14.767,1.38373,-0.03261
190,14.8148,1.38132,-0.03261
190.5,14.8622,1.38155,-0.032565
191,14.9106,1.38475,-0.0335985
191.5,14.9572,1.38887,-0.0337427
192,15.0052,1.39743,-0.0339224
192.5,15.0532,1.40008,-0.0329033
193,15.1004,1.3907,-0.0326102
193.5,15.1477,1.39592,-0.03261
194,15.1942,1.40209,-0.0325975
194.5,15.2407,1.39738,-0.0329409
195,15.2901,1.40162,-0.0329398
195.5,15.3376,1.40727,-0.0332315
196,15.3857,1.40444,-0.0342592
196.5,15.4311,1.40943,-0.03426
197,15.4801,1.41874,-0.03426
197.5,15.5275,1.42509,-0.0342579
198,15.5757,1.42871,-0.0329756
198.5,15.6226,1.42544,-0.03295
199,15.6709,1.44125,-0.03295
199.5,15.7172,1.44628,-0.03295
200,15.7648,1.45145,-0.03295
200.5,15.8113,1.46457,-0.03295
201,15.8619,1.47172,-0.03295
201.5,15.9078,1.49111,-0.032949
202,15.9558,1.49664,-0.0343254
202.5,16.0032,1.50985,-0.03427
203,16.052,1.52027,-0.03427
203.5,16.0991,1.53192,-0.034273
204,16.147,1.54447,-0.0339493
204.5,16.1943,1.55761,-0.0339386
205,16.2426,1.57052,-0.0341433
205.5,16.2911,1.58384,-0.0342602
206,16.3379,1.5921,-0.034261
206.5,16.3862,1.5987,-0.0331481
207,16.4332,1.60619,-0.0339399
207.5,16.4815,1.60845,-0.0338875
208,16.5299,1.61682,-0.0347297
208.5,16.5773,1.62713,-0.033931
209,16.626,1.62036,-0.0339234
209.5,16.6728,1.61018,-0.0335994
210,16.7217,1.61952,-0.0336
210.5,16.7667,1.60808,-0.0336
211,16.8162,1.59855,-0.0336
211.5,16.8637,1.59121,-0.0335705
212,16.9113,1.58489,-0.0326001
212.5,16.9599,1.5754,-0.0327884
213,17.007,1.57412,-0.0339262
213.5,17.0549,1.55584,-0.0353038
214,17.103,1.549,-0.0352499
214.5,17.1481,1.54301,-0.03525
215,17.197,1.53887,-0.03525
215.5,17.2457,1.53114,-0.0352358
216,17.293,1.53398,-0.0339312
216.5,17.3403,1.52697,-0.03393
217,17.388,1.52134,-0.03393
217.5,17.4355,1.52425,-0.033931
218,17.4827,1.53065,-0.034848
218.5,17.5319,1.53656,-0.0352511
219,17.5794,1.5428,-0.0338934
219.5,17.6276,1.54547,-0.0339301
220,17.6728,1.54416,-0.0339288
220.5,17.7227,1.54188,-0.0332228
221,17.7701,1.54734,-0.0332698
221.5,17.818,1.54369,-0.0332762
222,17.8651,1.54559,-0.0339249
222.5,17.9132,1.54822,-0.0339087
223,17.9615,1.5503,-0.0345912
223.5,18.0081,1.54455,-0.0345898
224,18.0569,1.54453,-0.033821
224.5,18.1045,1.54749,-0.0342591
225,18.1521,1.54875,-0.0349059
225.5,18.1997,1.55258,-0.034934
226,18.2451,1.55331,-0.0356487
226.5,18.2949,1.55781,-0.0349196
227,18.3432,1.5618,-0.03492
227.5,18.3901,1.55927,-0.03492
228,18.4375,1.56101,-0.0349194
228.5,18.484,1.56245,-0.0345686
229,18.5324,1.55787,-0.03361
229.5,18.5807,1.5611,-0.0336079
230,18.6259,1.56036,-0.0346026
230.5,18.6754,1.55775,-0.03459
231,18.7229,1.56245,-0.03459
231.5,18.7709,1.56278,-0.03459
232,18.8164,1.57366,-0.03459
232.5,18.864,1.57047,-0.0345891
233,18.9136,1.57205,-0.034911
233.5,18.9607,1.58217,-0.03492
234,19.0081,1.57352,-0.0360524
234.5,19.0563,1.57406,-0.0355819
235,19.1044,1.57622,-0.0355846
235.5,19.1516,1.57496,-0.034259
236,19.1989,1.57516,-0.03426
236.5,19.2453,1.57873,-0.03426
237,19.2937,1.57706,-0.03426
237.5,19.3417,1.57873,-0.03426
238,19.3892,1.57379,-0.03426
238.5,19.4375,1.57804,-0.0342596
239,19.4827,1.5769,-0.0339172
239.5,19.5317,1.58349,-0.0349186
240,19.5789,1.58048,-0.03492
240.5,19.6255,1.57419,-0.0349195
241,19.6747,1.57788,-0.0345636
241.5,19.7234,1.58041,-0.03459
242,19.7705,1.57451,-0.03459
242.5,19.8181,1.57279,-0.03459
243,19.8647,1.57759,-0.03459
243.5,19.9132,1.58236,-0.03459
244,19.9605,1.58324,-0.0345913
244.5,20.0081,1.57877,-0.035866
245,20.0565,1.57878,-0.0359103
245.5,20.1035,1.58022,-0.0358118
246,20.1525,1.58508,-0.0349197
246.5,20.1996,1.58202,-0.0349174
247,20.2475,1.58211,-0.0363042
247.5,20.296,1.57379,-0.0365334
248,20.3434,1.58195,-0.0375242
248.5,20.3913,1.58544,-0.0360079
249,20.4369,1.58573,-0.0360419
249.5,20.4858,1.58302,-0.03602
250,20.533,1.58709,-0.0360068
250.5,20.5812,1.58213,-0.034402
251,20.6291,1.58519,-0.0339965
251.5,20.6759,1.58626,-0.0346987
252,20.7213,1.58713,-0.0346729
252.5,20.7702,1.58772,-0.0362535
253,20.8194,1.58596,-0.0363502
253.5,20.8666,1.59382,-0.0363483
254,20.9144,1.58452,-0.0352195
254.5,20.9616,1.58434,-0.0360078
255,21.0102,1.58778,-0.03602
255.5,21.057,1.58956,-0.03602
256,21.1049,1.5831,-0.0360111
256.5,21.1533,1.59108,-0.03602
257,21.2007,1.59251,-0.0360953
257.5,21.2482,1.59202,-0.0346996
258,21.2955,1.59136,-0.0346964
258.5,21.3438,1.58793,-0.0357021
259,21.3905,1.58973,-0.03569
259.5,21.4391,1.5919,-0.03569
260,21.4868,1.59113,-0.03569
260.5,21.534,1.60065,-0.03569
261,21.5821,1.59303,-0.0356926
261.5,21.63,1.59749,-0.036019
262,21.678,1.59589,-0.03602
262.5,21.7254,1.59629,-0.0360357
263,21.7723,1.60117,-0.0350272
263.5,21.8183,1.60056,-0.0337337
264,21.8673,1.59651,-0.0337519
264.5,21.9158,1.60028,-0.0350291
265,21.9634,1.59719,-0.0357768
265.5,22.0118,1.59853,-0.035079
266,22.0593,1.60042,-0.0343828
266.5,22.1069,1.59878,-0.0355669
267,22.1541,1.60604,-0.0363418
267.5,22.2023,1.60989,-0.03634
268,22.2498,1.61249,-0.03634
268.5,22.2972,1.6092,-0.03634
269,22.3442,1.60842,-0.0363383
269.5,22.3924,1.61523,-0.037
270,22.4411,1.60928,-0.037
270.5,22.4881,1.60922,-0.0369998
271,22.5358,1.61306,-0.0374793
271.5,22.5843,1.61054,-0.0379904
272,22.6319,1.60889,-0.03799
272.5,22.6786,1.61499,-0.03799
273,22.7266,1.61301,-0.0379887
273.5,22.776,1.61462,-0.0372414
274,22.8241,1.61517,-0.0373301
274.5,22.8714,1.62053,-0.03733
275,22.9184,1.617,-0.03733
275.5,22.9675,1.62,-0.03733
276,23.0139,1.61867,-0.03733
276.5,23.0617,1.62213,-0.03733
277,23.1107,1.61353,-0.03733
277.5,23.1575,1.61477,-0.03733
278,23.2055,1.61607,-0.03733
278.5,23.2536,1.61792,-0.03733
279,23.2998,1.61052,-0.0373301
279.5,23.3484,1.61968,-0.0376295
280,23.3971,1.60561,-0.0376601
280.5,23.4453,1.60894,-0.0376761
281,23.4925,1.60657,-0.0389799
281.5,23.5407,1.60964,-0.0389843
282,23.5887,1.61155,-0.0376463
282.5,23.6362,1.61065,-0.03766
283,23.6834,1.61077,-0.03766
283.5,23.7319,1.61,-0.03766
284,23.7805,1.61465,-0.03766
284.5,23.8285,1.61036,-0.0376598
285,23.8769,1.60965,-0.0378704
285.5,23.9238,1.61032,-0.0389806
286,23.9715,1.60946,-0.0403025
286.5,24.0201,1.61226,-0.0389934
287,24.0672,1.61175,-0.038987
287.5,24.1151,1.61905,-0.039645
288,24.1636,1.60849,-0.0388841
288.5,24.2112,1.6137,-0.0383202
289,24.259,1.61086,-0.03844
289.5,24.3069,1.60987,-0.039635
290,24.3562,1.60696,-0.0386684
290.5,24.4024,1.6098,-0.03865
291,24.4502,1.61159,-0.03865
291.5,24.4987,1.60673,-0.0386499
292,24.547,1.60503,-0.0388261
292.5,24.595,1.61164,-0.0389802
293,24.6431,1.604,-0.03898
293.5,24.6896,1.60998,-0.03898
294,24.7388,1.60874,-0.03898
294.5,24.7865,1.61319,-0.03898
295,24.8356,1.60771,-0.03898
295.5,24.8828,1.60869,-0.03898
296,24.9299,1.61235,-0.0390042
296.5,24.9771,1.6096,-0.0402983
297,25.0259,1.60456,-0.0402987
297.5,25.0745,1.61117,-0.0391652
298,25.1235,1.6021,-0.0389936
298.5,25.1687,1.60588,-0.0399718
299,25.2191,1.60022,-0.0409795
299.5,25.2662,1.60469,-0.0412895
300,25.3151,1.60426,-0.0404867
300.5,25.3636,1.59423,-0.0394204
301,25.4108,1.60002,-0.0389799
301.5,25.4597,1.60196,-0.0389921
302,25.5074,1.60535,-0.0402983
302.5,25.5551,1.59126,-0.0403
303,25.6024,1.5968,-0.0403
303.5,25.6504,1.59938,-0.0403
304,25.6995,1.6065,-0.0403
304.5,25.7474,1.5968,-0.0402996
305,25.7955,1.59387,-0.0397872
305.5,25.8433,1.59375,-0.0400264
306,25.8912,1.59272,-0.0393107
306.5,25.9396,1.59548,-0.03931
307,25.9853,1.59686,-0.0393102
307.5,26.0356,1.60246,-0.0398611
308,26.0837,1.59428,-0.0402486
308.5,26.1324,1.59276,-0.0409591
309,26.1799,1.59808,-0.04096
309.5,26.2291,1.5967,-0.0409195
310,26.2754,1.59341,-0.041649
310.5,26.3247,1.59519,-0.0402967
311,26.3725,1.59725,-0.0405562
311.5,26.4207,1.602,-0.0409596
312,26.4686,1.60097,-0.0409789
312.5,26.5161,1.59837,-0.0416249
313,26.5643,1.59508,-0.0418555
313.5,26.6126,1.60101,-0.0426096
314,26.6603,1.59884,-0.0418647
314.5,26.708,1.59847,-0.0399705
315,26.7564,1.59798,-0.0399718
315.5,26.806,1.59832,-0.0411664
316,26.8542,1.59451,-0.0422839
316.5,26.9018,1.58868,-0.04228
317,26.9501,1.59633,-0.04228
317.5,26.998,1.59382,-0.04228
318,27.0462,1.60013,-0.04228
318.5,27.0951,1.59985,-0.04228
319,27.1426,1.59303,-0.04228
319.5,27.1916,1.59802,-0.04228
320,27.24,1.59223,-0.04228
320.5,27.2884,1.59274,-0.04228
321,27.3363,1.59623,-0.04228
321.5,27.3848,1.59186,-0.0422698
322,27.4313,1.58372,-0.0429391
322.5,27.4808,1.5928,-0.04294
323,27.5289,1.59176,-0.04294
323.5,27.577,1.59177,-0.04294
324,27.6249,1.59183,-0.04294
324.5,27.6722,1.59134,-0.042379
325,27.7208,1.58969,-0.0416192
325.5,27.7694,1.58958,-0.0429339
326,27.8183,1.58362,-0.04294
326.5,27.8661,1.59489,-0.04294
327,27.9152,1.58808,-0.04294
327.5,27.9634,1.58409,-0.04294
328,28.0111,1.587,-0.0429399
328.5,28.0592,1.5841,-0.0431775
329,28.108,1.58098,-0.0432909
329.5,28.1569,1.58286,-0.0425986
330,28.205,1.58451,-0.0426
330.5,28.2527,1.57876,-0.0426009
331,28.3011,1.58296,-0.0439029
331.5,28.347,1.58145,-0.04392
332,28.3982,1.58099,-0.04392
332.5,28.4455,1.5826,-0.0439201
333,28.4942,1.58025,-0.0438963
333.5,28.5422,1.58059,-0.0449095
334,28.5898,1.57788,-0.0446199
334.5,28.6385,1.58185,-0.04425
335,28.6877,1.58148,-0.04425
335.5,28.7357,1.59009,-0.04425
336,28.7848,1.57624,-0.04425
336.5,28.8318,1.58282,-0.04425
337,28.8803,1.58037,-0.04425
337.5,28.9293,1.57948,-0.04425
338,28.9753,1.58228,-0.044248
338.5,29.0251,1.57827,-0.0445737
339,29.0724,1.58406,-0.04458
339.5,29.1214,1.58867,-0.0448842
340,29.1701,1.57351,-0.0449352
340.5,29.2175,1.58132,-0.0459096
341,29.2669,1.57712,-0.0448055
341.5,29.3167,1.57529,-0.0445795
342,29.3636,1.57299,-0.04458
342.5,29.4117,1.57193,-0.0445769
343,29.4605,1.5713,-0.0459022
343.5,29.5088,1.57165,-0.0458878
344,29.5572,1.56995,-0.0445811
344.5,29.6053,1.56586,-0.04458
345,29.6536,1.57439,-0.04458
345.5,29.7026,1.56794,-0.044596
346,29.7503,1.57428,-0.0458983
346.5,29.7992,1.57187,-0.0459
347,29.8475,1.57068,-0.0459039
347.5,29.8964,1.55983,-0.0447552
348,29.944,1.56728,-0.0445824
348.5,29.9921,1.56913,-0.0448925
349,30.0408,1.56055,-0.0468917
349.5,30.089,1.56472,-0.04689
350,30.1371,1.57298,-0.04689
350.5,30.1873,1.57005,-0.04689
351,30.2342,1.56701,-0.04689
351.5,30.2817,1.56304,-0.04689
352,30.3316,1.56601,-0.04689
352.5,30.3796,1.56281,-0.04689
353,30.4281,1.57083,-0.04689
353.5,30.477,1.56605,-0.04689
354,30.5254,1.56725,-0.0468728
354.5,30.5744,1.57107,-0.0468776
355,30.6224,1.5656,-0.0470245
355.5,30.6697,1.57066,-0.0481991
356,30.7189,1.56877,-0.0482
356.5,30.7675,1.56398,-0.0482
357,30.8166,1.56708,-0.0481997
357.5,30.8648,1.5642,-0.0483493
358,30.9119,1.5607,-0.0458989
358.5,30.9608,1.5671,-0.0458724
359,31.0096,1.56669,-0.0472728
359.5,31.0597,1.56282,-0.0478698
360,31.108,1.56081,-0.04787
360.5,31.1567,1.56657,-0.0478712
361,31.2044,1.56666,-0.0491703
361.5,31.2525,1.5633,-0.04919
362,31.3024,1.56656,-0.04919
362.5,31.3502,1.56988,-0.04919
363,31.3983,1.56552,-0.04919
363.5,31.4458,1.56112,-0.04919
364,31.4957,1.56831,-0.04919
364.5,31.5426,1.57334,-0.0491899
365,31.5932,1.57036,-0.0492416
365.5,31.6428,1.56982,-0.0481988
366,31.6908,1.57273,-0.0494553
366.5,31.7369,1.57124,-0.0495167
367,31.7876,1.56487,-0.0508416
367.5,31.8359,1.56792,-0.05084
368,31.8849,1.57173,-0.0508403
368.5,31.9333,1.57516,-0.0512036
369,31.9819,1.57021,-0.0515002
369.5,32.0309,1.57167,-0.0507993
370,32.08,1.57875,-0.0514993
370.5,32.1285,1.56602,-0.0515
371,32.1772,1.56762,-0.0515
371.5,32.2256,1.57678,-0.0515
372,32.2731,1.57244,-0.0515
372.5,32.3214,1.58371,-0.0515
373,32.3714,1.5752,-0.0515001
373.5,32.4206,1.58092,-0.0514291
374,32.4698,1.58231,-0.0528104
374.5,32.5176,1.57926,-0.05281
375,32.5659,1.57963,-0.05281
375.5,32.6152,1.57967,-0.05281
376,32.6633,1.58469,-0.05281
376.5,32.7127,1.58845,-0.05281
377,32.7612,1.59195,-0.05281
377.5,32.8097,1.58171,-0.05281
378,32.8584,1.57933,-0.05281
378.5,32.9067,1.58406,-0.0528263
379,32.9554,1.58565,-0.0521486
379.5,33.0041,1.58372,-0.0526443
380,33.0532,1.58493,-0.0534702
380.5,33.1023,1.5867,-0.0534702
381,33.1506,1.58271,-0.0521016
381.5,33.1995,1.59039,-0.0528822
382,33.247,1.58872,-0.0548174
382.5,33.2965,1.58934,-0.0547902
383,33.3462,1.58971,-0.0533367
383.5,33.3939,1.59134,-0.0548899
384,33.4428,1.58673,-0.0547028
384.5,33.4922,1.59467,-0.0561003
385,33.5403,1.59571,-0.0561309
385.5,33.5895,1.59722,-0.0554488
386,33.6379,1.60492,-0.05545
386.5,33.6867,1.59622,-0.0554501
387,33.7352,1.59757,-0.0553981
387.5,33.7839,1.59927,-0.0567602
388,33.8325,1.6045,-0.05676
388.5,33.882,1.60275,-0.056733
389,33.93,1.59445,-0.0554479
389.5,33.9791,1.59349,-0.05677
390,34.0279,1.58873,-0.05676
390.5,34.0764,1.59567,-0.05676
391,34.1257,1.59786,-0.0567678
391.5,34.1749,1.59714,-0.0580531
392,34.2226,1.60026,-0.0567723
392.5,34.2712,1.60341,-0.05677
393,34.3214,1.59742,-0.0567712
393.5,34.3697,1.60329,-0.0578106
394,34.4184,1.60663,-0.0576446
394.5,34.4662,1.60317,-0.0590702
395,34.5177,1.60234,-0.05907
395.5,34.5646,1.60642,-0.05907
396,34.6139,1.61136,-0.0590689
396.5,34.662,1.61937,-0.0581792
397,34.7115,1.61124,-0.0583456
397.5,34.7592,1.61207,-0.0594089
398,34.8093,1.60861,-0.05941
398.5,34.8578,1.61186,-0.0594098
399,34.9069,1.61356,-0.0595511
399.5,34.9556,1.61153,-0.0600619
400,35.0056,1.61332,-0.0600709
400.5,35.054,1.61572,-0.0607686
401,35.1025,1.61871,-0.06072
401.5,35.1513,1.61861,-0.0607345
402,35.2,1.61272,-0.0620601
402.5,35.2487,1.61766,-0.0633411
403,35.2983,1.62278,-0.0633506
403.5,35.3482,1.62275,-0.0633856
404,35.3962,1.6237,-0.0632608
404.5,35.4456,1.62474,-0.0633599
405,35.494,1.62457,-0.0633599
405.5,35.544,1.63108,-0.0647544
406,35.5932,1.63409,-0.0642064
406.5,35.6416,1.6328,-0.0633601
407,35.6909,1.63399,-0.06336
407.5,35.7378,1.63111,-0.0633576
408,35.7876,1.63514,-0.063992
408.5,35.8382,1.6289,-0.0646727
409,35.8862,1.63161,-0.0653996
409.5,35.9364,1.62986,-0.0653311
410,35.9854,1.62771,-0.0666245
410.5,36.0316,1.63185,-0.06665
411,36.0831,1.62583,-0.0666506
411.5,36.1322,1.63622,-0.0662386
412,36.1807,1.62883,-0.0652963
412.5,36.23,1.63492,-0.0666518
413,36.2794,1.64288,-0.0679949
413.5,36.3292,1.63745,-0.0679633
414,36.3773,1.63668,-0.0688931
414.5,36.4273,1.63884,-0.0679701
415,36.4757,1.63264,-0.0693106
415.5,36.5252,1.64091,-0.0693087
416,36.5743,1.63154,-0.0705987
416.5,36.6239,1.64263,-0.0704164
417,36.6729,1.64174,-0.0699625
417.5,36.7212,1.63781,-0.0712599
418,36.7709,1.64096,-0.0713455
418.5,36.8179,1.63934,-0.0719195
419,36.8695,1.63714,-0.072075
419.5,36.9186,1.64138,-0.0719181
420,36.9675,1.64556,-0.0719532
420.5,37.0151,1.64409,-0.0732376
421,37.0653,1.63646,-0.0732408
421.5,37.1143,1.64197,-0.0743429
422,37.1634,1.63057,-0.075289
422.5,37.2126,1.643,-0.07587
423,37.2625,1.6359,-0.07587
423.5,37.3116,1.63077,-0.0758353
424,37.3592,1.62223,-0.0771897
424.5,37.4094,1.62538,-0.0778695
425,37.4571,1.62466,-0.0784999
425.5,37.5068,1.61881,-0.078554
426,37.5567,1.60494,-0.0798179
426.5,37.606,1.60471,-0.0798218
427,37.6548,1.59947,-0.0811163
427.5,37.7042,1.59923,-0.08114
428,37.7537,1.58759,-0.0811398
428.5,37.8025,1.57347,-0.0824657
429,37.8511,1.58084,-0.0824524
429.5,37.9013,1.56953,-0.0834388
430,37.9486,1.57127,-0.0847644
430.5,37.9991,1.5654,-0.0847539
431,38.0476,1.56668,-0.0857277
431.5,38.0974,1.56369,-0.087046
432,38.1471,1.55565,-0.0878812
432.5,38.1968,1.55204,-0.0883806
433,38.2465,1.55535,-0.0883725
433.5,38.295,1.55652,-0.0897123
434,38.3418,1.55175,-0.0910275
434.5,38.3937,1.5503,-0.0916871
435,38.4437,1.55351,-0.0930556
435.5,38.4927,1.54659,-0.0930067
436,38.5413,1.54937,-0.0942809
436.5,38.5905,1.55099,-0.0959245
437,38.6404,1.54748,-0.0957698
437.5,38.691,1.55541,-0.0970635
438,38.7399,1.5455,-0.0983769
438.5,38.7896,1.54436,-0.101013
439,38.8385,1.54952,-0.102301
439.5,38.8871,1.54859,-0.10234
440,38.937,1.5518,-0.103653
440.5,38.9864,1.55332,-0.105346
441,39.0354,1.55545,-0.106846
441.5,39.0845,1.54534,-0.108458
442,39.1328,1.54871,-0.1096
442.5,39.1833,1.55074,-0.110654
443,39.2318,1.55329,-0.112272
443.5,39.2817,1.55376,-0.113645
444,39.3308,1.54917,-0.115007
444.5,39.3805,1.55869,-0.11707
445,39.4297,1.55149,-0.11964
445.5,39.4785,1.55628,-0.120956
446,39.5286,1.55865,-0.122387
446.5,39.5779,1.56541,-0.124747
447,39.6271,1.5703,-0.125562
447.5,39.6773,1.57245,-0.128209
448,39.7265,1.57527,-0.129467
448.5,39.7753,1.57053,-0.132048
449,39.8242,1.57932,-0.134003
449.5,39.8733,1.5782,-0.135787
450,39.923,1.58036,-0.138339
450.5,39.973,1.57925,-0.141086
451,40.0211,1.58501,-0.142555
451.5,40.0706,1.58606,-0.145551
452,40.1208,1.58722,-0.148511
452.5,40.1695,1.59603,-0.150148
453,40.2198,1.60249,-0.151451
453.5,40.2685,1.60299,-0.153459
454,40.3186,1.60916,-0.156599
454.5,40.3674,1.61139,-0.160879
455,40.4171,1.6132,-0.163405
455.5,40.4663,1.61956,-0.164586
456,40.5154,1.62356,-0.167768
456.5,40.5645,1.62398,-0.170921
457,40.6146,1.62468,-0.174461
457.5,40.6639,1.63564,-0.178357
458,40.713,1.63365,-0.181424
458.5,40.7615,1.641,-0.185013
459,40.812,1.65357,-0.188031
459.5,40.8602,1.64483,-0.190709
460,40.9107,1.65693,-0.194911
460.5,40.96,1.65528,-0.197751
461,41.0087,1.65939,-0.201378
461.5,41.0589,1.67102,-0.205717
462,41.1082,1.68004,-0.210519
462.5,41.1575,1.68929,-0.214842
463,41.207,1.69672,-0.218968
463.5,41.2568,1.6979,-0.224056
464,41.3063,1.70797,-0.227374
464.5,41.3551,1.72067,-0.232358
465,41.4057,1.72613,-0.237889
465.5,41.4538,1.7307,-0.24228
466,41.5038,1.72928,-0.248232
466.5,41.5532,1.73027,-0.252828
467,41.6026,1.73096,-0.259008
467.5,41.6517,1.75321,-0.264536
468,41.702,1.75598,-0.270145
468.5,41.7516,1.76898,-0.275359
469,41.8017,1.78299,-0.282061
469.5,41.8515,1.7862,-0.288521
470,41.8994,1.79279,-0.296218
470.5,41.95,1.81003,-0.30313
471,41.9999,1.81282,-0.310376
471.5,42.0497,1.82449,-0.317625
472,42.0995,1.83618,-0.325589
472.5,42.1482,1.83617,-0.334036
473,42.1982,1.85292,-0.341799
473.5,42.248,1.87874,-0.350419
474,42.2978,1.89334,-0.358003
474.5,42.3471,1.89464,-0.36776
475,42.3974,1.89721,-0.377525
475.5,42.4447,1.90467,-0.387395
476,42.4943,1.91857,-0.398961
476.5,42.5457,1.94956,-0.409486
477,42.5955,1.95806,-0.420557
477.5,42.6451,1.96623,-0.432272
478,42.695,1.9679,-0.442261
478.5,42.7454,1.97663,-0.454207
479,42.7942,1.99439,-0.465744
479.5,42.8441,2.00451,-0.478184
480,42.8952,2.01004,-0.491831
480.5,42.9446,2.03447,-0.505387
481,42.9947,2.05239,-0.518579
481.5,43.0443,2.08617,-0.530894
482,43.0931,2.13079,-0.547258
482.5,43.1434,2.15561,-0.562961
483,43.1931,2.15572,-0.579496
483.5,43.2435,2.15579,-0.595817
484,43.2931,2.17716,-0.612854
484.5,43.3415,2.18721,-0.630157
485,43.3919,2.19141,-0.646473
485.5,43.4414,2.18985,-0.662855
486,43.4918,2.23483,-0.681568
486.5,43.5422,2.2559,-0.700432
487,43.5917,2.27186,-0.719396
487.5,43.6419,2.26293,-0.739082
488,43.692,2.29405,-0.759704
488.5,43.7425,2.32857,-0.781049
489,43.7909,2.33599,-0.801217
489.5,43.8412,2.38239,-0.822845
490,43.8913,2.3954,-0.844956
490.5,43.9405,2.40979,-0.870014
491,43.9905,2.39473,-0.892993
491.5,44.0413,2.39056,-0.917042
492,44.0903,2.39724,-0.939999
492.5,44.1397,2.43408,-0.964963
493,44.1915,2.47574,-0.990722
493.5,44.2396,2.52261,-1.0162
494,44.2883,2.54759,-1.0419
494.5,44.3407,2.5639,-1.07312
495,44.3912,2.55715,-1.10145
495.5,44.4408,2.54834,-1.13024
496,44.4905,2.54326,-1.15917
496.5,44.5398,2.54372,-1.18832
497,44.5899,2.56212,-1.21847
497.5,44.6403,2.62116,-1.24816
498,44.6901,2.64433,-1.27888
498.5,44.741,2.6686,-1.31496
499,44.7904,2.66668,-1.34708
499.5,44.8383,2.63928,-1.37864
500,44.89,2.61701,-1.41461
500.5,44.9407,2.61124,-1.45026
501,44.9902,2.63414,-1.48323
501.5,45.0395,2.62942,-1.51776
502,45.0905,2.63897,-1.55444
502.5,45.1401,2.62914,-1.59244
503,45.1895,2.63571,-1.62988
503.5,45.2391,2.64532,-1.66677
504,45.2888,2.66392,-1.70466
504.5,45.34,2.71815,-1.74794
505,45.3906,2.759,-1.78862
505.5,45.4408,2.78153,-1.83077
506,45.4909,2.76536,-1.87488
506.5,45.5408,2.78626,-1.91865
507,45.5906,2.76677,-1.96165
507.5,45.6404,2.74924,-2.00626
508,45.6903,2.71892,-2.05149
508.5,45.7399,2.6871,-2.09816
509,45.7901,2.65847,-2.14253
509.5,45.8384,2.62865,-2.18595
510,45.8858,2.59809,-2.22905
510.5,45.9381,2.55195,-2.27665
511,45.9879,2.49193,-2.3215
511.5,46.0372,2.44039,-2.36451
512,46.0863,2.39349,-2.40828
512.5,46.1354,2.31978,-2.45335
513,46.1844,2.25124,-2.49565
513.5,46.2343,2.17668,-2.53668
514,46.2828,2.10189,-2.57714
514.5,46.3311,2.01742,-2.61713
515,46.3793,1.91692,-2.65699
515.5,46.4288,1.82837,-2.69401
516,46.4748,1.72835,-2.72829
516.5,46.526,1.61744,-2.76289
517,46.5749,1.49925,-2.79638
517.5,46.6213,1.39116,-2.82794
518,46.6702,1.28919,-2.85663
518.5,46.7188,1.1734,-2.88351
519,46.7667,1.07323,-2.90876
519.5,46.8156,0.966995,-2.93412
520,46.8636,0.873294,-2.95569
520.5,46.9123,0.778078,-2.97522
521,46.9604,0.694121,-2.99349
521.5,47.0102,0.613995,-3.01181
522,47.0577,0.54627,-3.02623
522.5,47.1063,0.485076,-3.03915
523,47.1556,0.437017,-3.05199
523.5,47.2044,0.388415,-3.06291
524,47.253,0.364554,-3.07304
524.5,47.3026,0.328078,-3.08385
525,47.3509,0.299278,-3.09265
525.5,47.4021,0.278159,-3.10111
526,47.4506,0.256981,-3.10883
526.5,47.5,0.252626,-3.11494
527,47.5485,0.249908,-3.12264
527.5,47.5989,0.232982,-3.12844
528,47.6483,0.239164,-3.13311
528.5,47.6975,0.23021,-3.13992
529,47.7468,0.229423,-3.14518
529.5,47.7963,0.234568,-3.14962
530,47.8463,0.23534,-3.15326
530.5,47.8952,0.239651,-3.15585
531,47.9457,0.232955,-3.15968
531.5,47.993,0.240008,-3.16289
532,48.0448,0.242245,-3.16664
532.5,48.0939,0.234729,-3.16953
533,48.1435,0.244323,-3.17133
533.5,48.1938,0.239441,-3.17396
534,48.2445,0.243584,-3.1754
534.5,48.2934,0.248658,-3.17849
535,48.3434,0.246817,-3.18167
535.5,48.3953,0.246598,-3.18242
536,48.4424,0.24571,-3.18571
536.5,48.4934,0.245182,-3.18712
537,48.5425,0.24315,-3.18845
537.5,48.593,0.250795,-3.19059
538,48.6426,0.244773,-3.19176
538.5,48.6928,0.247778,-3.19428
539,48.7434,0.245832,-3.19581
539.5,48.7936,0.242312,-3.19738
540,48.8441,0.239346,-3.19872
540.5,48.8905,0.235558,-3.19996
541,48.9418,0.23474,-3.20061
541.5,48.9932,0.237866,-3.20268
542,49.0431,0.230919,-3.20299
542.5,49.0935,0.232867,-3.2046
543,49.1441,0.232854,-3.20597
543.5,49.1948,0.229288,-3.20744
544,49.2441,0.239145,-3.21013
544.5,49.2931,0.237619,-3.21139
545,49.3441,0.237779,-3.21132
545.5,49.3949,0.239951,-3.21271
546,49.4452,0.239531,-3.21368
546.5,49.4947,0.243724,-3.21499
547,49.5453,0.237618,-3.21632
547.5,49.5941,0.238173,-3.21765
548,49.6431,0.233337,-3.21898
548.5,49.6963,0.234335,-3.21888
549,49.7463,0.23749,-3.2203
549.5,49.797,0.240005,-3.22155
550,49.8467,0.236479,-3.22289
550.5,49.8962,0.233018,-3.22415
551,49.9471,0.232266,-3.22558
551.5,49.9967,0.23201,-3.22688
552,50.048,0.236613,-3.22584
552.5,50.098,0.234951,-3.22715
553,50.1489,0.231782,-3.22847
553.5,50.1985,0.235877,-3.22983
554,50.2492,0.229669,-3.23122
554.5,50.2987,0.238581,-3.23376
555,50.349,0.225099,-3.2348
555.5,50.4005,0.223733,-3.23527
556,50.4501,0.217925,-3.23598
556.5,50.5005,0.217419,-3.23653
557,50.5499,0.215589,-3.23783
557.5,50.6008,0.215062,-3.23927
558,50.6512,0.214359,-3.23927
558.5,50.7013,0.214826,-3.23983
559,50.7519,0.210803,-3.24187
559.5,50.8005,0.214748,-3.2427
560,50.8513,0.215812,-3.24323
560.5,50.903,0.20557,-3.24426
561,50.9524,0.210431,-3.24322
561.5,51.003,0.212479,-3.24454
562,51.0528,0.201356,-3.24587
562.5,51.1032,0.203559,-3.24659
563,51.1529,0.205352,-3.24756
563.5,51.2029,0.208971,-3.2485
564,51.253,0.210204,-3.24981
564.5,51.3043,0.211956,-3.25033
565,51.3541,0.205911,-3.25126
565.5,51.4039,0.210707,-3.25245
566,51.4545,0.207722,-3.2536
566.5,51.505,0.205429,-3.25529
567,51.5549,0.210093,-3.25405
567.5,51.6048,0.209609,-3.25517
568,51.6552,0.207528,-3.25522
568.5,51.705,0.197033,-3.25651
569,51.7555,0.203358,-3.2571
569.5,51.8052,0.194312,-3.2585
570,51.8547,0.194789,-3.25981
570.5,51.9058,0.197574,-3.25983
571,51.9557,0.196021,-3.26113
571.5,52.0057,0.20093,-3.26005
572,52.0553,0.195102,-3.26287
572.5,52.1052,0.198488,-3.26413
573,52.1555,0.183141,-3.26409
573.5,52.2065,0.197703,-3.26537
574,52.2555,0.200809,-3.2654
574.5,52.3062,0.194934,-3.2654
575,52.3566,0.196484,-3.26673
575.5,52.4047,0.203435,-3.26688
576,52.4562,0.196906,-3.26669
576.5,52.5072,0.197595,-3.26803
577,52.5571,0.197705,-3.26995
577.5,52.6077,0.19645,-3.27002
578,52.6572,0.196993,-3.27134
578.5,52.7081,0.192428,-3.27094
579,52.758,0.197359,-3.27134
579.5,52.8081,0.196919,-3.27271
580,52.859,0.197978,-3.27269
580.5,52.9094,0.199833,-3.27396
581,52.96,0.201425,-3.2753
581.5,53.0103,0.199327,-3.27607
582,53.0607,0.193479,-3.27661
582.5,53.1102,0.189912,-3.27887
583,53.1597,0.193159,-3.27891
583.5,53.2112,0.19819,-3.27977
584,53.2622,0.191536,-3.27892
584.5,53.312,0.194349,-3.27921
585,53.3629,0.196057,-3.28023
585.5,53.4124,0.197656,-3.28122
586,53.4631,0.199285,-3.28155
586.5,53.5133,0.200554,-3.28222
587,53.5628,0.195231,-3.28319
587.5,53.6143,0.191894,-3.28319
588,53.665,0.20065,-3.28449
588.5,53.715,0.199063,-3.28451
589,53.7651,0.201526,-3.28452
589.5,53.8155,0.196923,-3.28584
590,53.8666,0.199727,-3.28714
590.5,53.9172,0.199178,-3.28838
591,53.968,0.202708,-3.28846
591.5,54.0185,0.207261,-3.28976
592,54.069,0.207253,-3.28978
592.5,54.1191,0.210088,-3.29081
593,54.1694,0.209946,-3.2911
593.5,54.2186,0.220963,-3.29079
594,54.2701,0.22465,-3.29209
594.5,54.3206,0.218041,-3.29209
595,54.3713,0.226375,-3.29332
595.5,54.4215,0.235511,-3.29238
596,54.472,0.235094,-3.2934
596.5,54.5219,0.240859,-3.2934
597,54.5724,0.241902,-3.2934
597.5,54.6228,0.247193,-3.29471
598,54.6736,0.251387,-3.2947
598.5,54.7235,0.25171,-3.29601
599,54.7754,0.253095,-3.29735
599.5,54.8249,0.260638,-3.29735
600,54.8754,0.260378,-3.29854
600.5,54.9248,0.258911,-3.29867
601,54.976,0.263906,-3.29998
601.5,55.0269,0.269712,-3.29892
602,55.0784,0.266299,-3.29965
602.5,55.1279,0.278268,-3.29997
603,55.1775,0.282463,-3.30123
603.5,55.2275,0.278891,-3.3013
604,55.2779,0.288445,-3.30182
604.5,55.3289,0.294975,-3.30263
605,55.3791,0.290869,-3.30393
605.5,55.43,0.300256,-3.30394
606,55.48,0.304764,-3.30398
606.5,55.5306,0.31378,-3.30394
607,55.5807,0.312357,-3.30395
607.5,55.6319,0.331846,-3.30426
608,55.6822,0.332536,-3.30624
608.5,55.732,0.342656,-3.30624
609,55.7827,0.343485,-3.30756
609.5,55.8333,0.327242,-3.30625
610,55.8835,0.354549,-3.30757
610.5,55.9343,0.36682,-3.30775
611,55.986,0.3654,-3.30857
611.5,56.036,0.373229,-3.30986
612,56.0849,0.377088,-3.30985
612.5,56.1362,0.381124,-3.30857
613,56.1873,0.385387,-3.30987
613.5,56.2378,0.37936,-3.30986
614,56.2883,0.379822,-3.3112
614.5,56.3388,0.381971,-3.31119
615,56.3898,0.380308,-3.31119
615.5,56.4397,0.376884,-3.31119
616,56.4901,0.37435,-3.31242
616.5,56.5409,0.37514,-3.31131
617,56.5917,0.375677,-3.31188
617.5,56.6427,0.379829,-3.31261
618,56.6931,0.380248,-3.31261
618.5,56.7427,0.376161,-3.31261
619,56.7936,0.367938,-3.31393
619.5,56.8437,0.369222,-3.31393
620,56.8943,0.370843,-3.31444
620.5,56.9456,0.364548,-3.31557
621,56.9953,0.357765,-3.31558
621.5,57.0459,0.364152,-3.31558
622,57.0957,0.362122,-3.31688
622.5,57.147,0.368841,-3.3169
623,57.1969,0.367083,-3.31571
623.5,57.2471,0.360807,-3.31682
624,57.298,0.367104,-3.31689
624.5,57.3477,0.364155,-3.31688
625,57.3983,0.363413,-3.31822
625.5,57.4485,0.358659,-3.31879
626,57.4999,0.357359,-3.31953
626.5,57.5503,0.359926,-3.31953
627,57.6002,0.363892,-3.3197
627.5,57.6507,0.354975,-3.31964
628,57.7013,0.355227,-3.31952
628.5,57.7526,0.347472,-3.32082
629,57.8024,0.354163,-3.32216
629.5,57.8527,0.350635,-3.32154
630,57.9032,0.343512,-3.32084
630.5,57.9541,0.347407,-3.32084
631,58.0043,0.343624,-3.32084
631.5,58.0517,0.346362,-3.32111
632,58.1057,0.351128,-3.32216
632.5,58.1559,0.348136,-3.32216
633,58.2072,0.343831,-3.32316
633.5,58.2567,0.354803,-3.3234
634,58.3081,0.347023,-3.32217
634.5,58.3576,0.347279,-3.32216
635,58.4074,0.350525,-3.32348
635.5,58.4589,0.348269,-3.32483
636,58.5091,0.347304,-3.32611
636.5,58.5592,0.342234,-3.32475
637,58.6097,0.344003,-3.3248
637.5,58.6607,0.341381,-3.3248
638,58.7086,0.33673,-3.32374
638.5,58.7617,0.337305,-3.32479
639,58.813,0.337316,-3.32513
639.5,58.862,0.33718,-3.32514
640,58.9129,0.341721,-3.32645
640.5,58.9636,0.335019,-3.32645
641,59.0142,0.329404,-3.32645
641.5,59.0642,0.330978,-3.32645
642,59.115,0.328897,-3.32648
642.5,59.1657,0.325627,-3.32743
643,59.2152,0.329615,-3.32743
643.5,59.2662,0.32576,-3.32742
644,59.3166,0.32103,-3.32842
644.5,59.3674,0.322874,-3.32842
645,59.4175,0.3228,-3.32859
645.5,59.4672,0.322067,-3.32777
646,59.5185,0.315005,-3.32745
646.5,59.5691,0.319267,-3.32874
647,59.6191,0.317338,-3.32875
647.5,59.6698,0.313478,-3.33005
648,59.7205,0.309199,-3.3305
648.5,59.7709,0.307802,-3.33106
649,59.8217,0.306858,-3.33105
649.5,59.8723,0.297022,-3.32974
650,59.9225,0.291572,-3.33105
650.5,59.9716,0.293176,-3.33105
651,60.0225,0.28494,-3.33105
651.5,60.0733,0.280412,-3.33105
652,60.1206,0.278353,-3.33103
652.5,60.1738,0.278456,-3.33107
653,60.2243,0.274429,-3.33106
653.5,60.2754,0.274094,-3.33106
654,60.3233,0.267845,-3.33106
654.5,60.3758,0.267729,-3.33121
655,60.4256,0.264576,-3.33238
655.5,60.4766,0.260183,-3.33238
656,60.527,0.261776,-3.33163
656.5,60.5761,0.263873,-3.33106
657,60.6274,0.266504,-3.33136
657.5,60.6779,0.263339,-3.33201
658,60.7284,0.265161,-3.33238
658.5,60.779,0.260412,-3.3324
659,60.8296,0.261245,-3.33368
659.5,60.88,0.254885,-3.33369
660,60.9278,0.25439,-3.33359
660.5,60.9804,0.257834,-3.33435
661,61.031,0.25022,-3.33502
661.5,61.0826,0.249047,-3.33429
662,61.1322,0.251536,-3.33389
662.5,61.1831,0.242902,-3.33369
663,61.2334,0.23447,-3.33501
663.5,61.2841,0.247336,-3.33504
664,61.3352,0.239395,-3.33567
664.5,61.3851,0.233611,-3.33567
665,61.4357,0.236001,-3.33567
665.5,61.4857,0.229148,-3.33631
666,61.536,0.223737,-3.33633
666.5,61.5866,0.23294,-3.33633
667,61.6364,0.227741,-3.33727
667.5,61.6864,0.219961,-3.33767
668,61.7393,0.224993,-3.33731
668.5,61.7894,0.218261,-3.33731
669,61.8401,0.215049,-3.33741
669.5,61.8903,0.214934,-3.33763
670,61.9411,0.214624,-3.33764
670.5,61.9918,0.210184,-3.33764
671,62.0421,0.214454,-3.33827
671.5,62.0932,0.211226,-3.33896
672,62.1434,0.210733,-3.33896
672.5,62.1929,0.204213,-3.33896
673,62.2432,0.198312,-3.33897
673.5,62.2941,0.201022,-3.3396
674,62.3443,0.202801,-3.33961
674.5,62.3944,0.20062,-3.33896
675,62.4451,0.208184,-3.33898
675.5,62.4957,0.200374,-3.34028
676,62.5464,0.194624,-3.34028
676.5,62.5947,0.193737,-3.34028
677,62.6469,0.189793,-3.34028
677.5,62.6968,0.185545,-3.34028
678,62.7479,0.186963,-3.34057
678.5,62.7982,0.182113,-3.34165
679,62.8485,0.185598,-3.34028
679.5,62.8984,0.177414,-3.34038
680,62.9476,0.17059,-3.3416
680.5,62.9973,0.171,-3.3416
681,63.0491,0.17368,-3.34292
681.5,63.0992,0.170262,-3.34203
682,63.1493,0.166111,-3.34259
682.5,63.1999,0.165994,-3.34291
683,63.2498,0.161852,-3.34291
683.5,63.3007,0.159464,-3.34342
684,63.3528,0.158398,-3.34423
684.5,63.4014,0.160931,-3.34423
685,63.4522,0.153569,-3.34293
685.5,63.5024,0.152412,-3.34291
686,63.5534,0.144898,-3.34291
686.5,63.6033,0.151843,-3.34423
687,63.6543,0.146113,-3.34423
687.5,63.7039,0.144219,-3.34423
688,63.755,0.139377,-3.34423
688.5,63.8067,0.13926,-3.34423
689,63.8562,0.141305,-3.34455
689.5,63.9067,0.13506,-3.34537
690,63.9569,0.135433,-3.34456
690.5,64.008,0.135404,-3.3445
691,64.0569,0.131501,-3.34554
691.5,64.1083,0.132055,-3.34521
692,64.1585,0.131707,-3.34521
692.5,64.2103,0.131882,-3.34521
693,64.2613,0.115996,-3.34519
693.5,64.3117,0.119248,-3.34681
694,64.3625,0.109992,-3.34686
694.5,64.4131,0.115043,-3.34612
695,64.4634,0.113807,-3.34588
695.5,64.5145,0.110186,-3.34723
696,64.5661,0.102312,-3.3472
696.5,64.6164,0.0984951,-3.3472
697,64.6668,0.100279,-3.3472
697.5,64.7169,0.0978666,-3.3472
698,64.7693,0.0944526,-3.3485
698.5,64.8197,0.0906274,-3.34852
699,64.8703,0.0904535,-3.34852
699.5,64.9217,0.092644,-3.34907
700,64.9717,0.0897061,-3.34949
700.5,65.023,0.0919172,-3.34884
701,65.0731,0.0854173,-3.34884
701.5,65.1238,0.0766907,-3.34874
702,65.1733,0.0813172,-3.34818
702.5,65.2266,0.0766333,-3.34808
703,65.276,0.0753653,-3.34913
703.5,65.3272,0.0747443,-3.34942
704,65.3793,0.0677363,-3.34818
704.5,65.4297,0.0626713,-3.34818
705,65.4801,0.0696363,-3.34945
705.5,65.5317,0.0656767,-3.35042
706,65.5827,0.0651632,-3.35082
706.5,65.6339,0.0657117,-3.35219
707,65.684,0.0683987,-3.35082
707.5,65.7352,0.0682998,-3.35017
708,65.7862,0.0686212,-3.35016
708.5,65.8363,0.0660273,-3.35016
709,65.8868,0.0691934,-3.35016
709.5,65.9388,0.0673778,-3.35016
710,65.9894,0.068905,-3.35145
710.5,66.0403,0.0668162,-3.35147
711,66.0916,0.0549255,-3.35114
711.5,66.1423,0.0622776,-3.35114
712,66.1936,0.0589466,-3.35147
712.5,66.2444,0.0593864,-3.35147
713,66.295,0.0613885,-3.35147
713.5,66.3458,0.062759,-3.3522
714,66.3968,0.0600485,-3.35213
714.5,66.4482,0.0627972,-3.35082
715,66.4988,0.0572425,-3.35148
715.5,66.5491,0.0525998,-3.35148
716,66.6001,0.0463881,-3.35148
716.5,66.6519,0.0468977,-3.35242
717,66.7021,0.047432,-3.3528
717.5,66.754,0.0607211,-3.3528
718,66.8056,0.0408555,-3.35291
718.5,66.8568,0.0507209,-3.35181
719,66.9079,0.0412337,-3.35181
719.5,66.9577,0.0375659,-3.35271
720,67.0096,0.0385776,-3.35312
720.5,67.0611,0.030092,-3.35312
721,67.1126,0.0307505,-3.35312
721.5,67.1636,0.0378562,-3.35443
722,67.2136,0.0353354,-3.35411
722.5,67.2654,0.0391328,-3.35411
723,67.3161,0.0311456,-3.35411
723.5,67.3682,0.0419893,-3.35411
724,67.4193,0.0373409,-3.35411
724.5,67.4692,0.0458344,-3.35411
725,67.5204,0.0448427,-3.35542
725.5,67.5715,0.0344376,-3.35479
726,67.6207,0.0409759,-3.35477
726.5,67.6736,0.0317106,-3.35477
727,67.7244,0.0338024,-3.35477
727.5,67.7751,0.0388367,-3.35481
728,67.8264,0.0294334,-3.35544
728.5,67.8777,0.0363277,-3.35543
729,67.9289,0.0376314,-3.35445
729.5,67.9794,0.0353698,-3.35444
730,68.0301,0.0376343,-3.35446
730.5,68.0817,0.027641,-3.35543
731,68.133,0.0363162,-3.35575
731.5,68.1839,0.0316847,-3.35575
732,68.234,0.0293726,-3.35575
732.5,68.2844,0.0364429,-3.35686
733,68.3364,0.0342607,-3.35707
733.5,68.3873,0.0285959,-3.35707
734,68.4389,0.0319301,-3.35674
734.5,68.49,0.0247656,-3.35676
735,68.5408,0.0292122,-3.35773
735.5,68.5936,0.0333747,-3.35676
736,68.6444,0.0325149,-3.35675
736.5,68.6951,0.035904,-3.35813
737,68.746,0.0374122,-3.35807
737.5,68.7977,0.0403464,-3.35807
738,68.8483,0.0448055,-3.35807
738.5,68.8993,0.0555443,-3.35807
739,68.9512,0.050627,-3.35807
739.5,69.0024,0.0493669,-3.35905
740,69.054,0.0373665,-3.3581