File: 01_Data/NFPA_1981-2019_SCBA_Lens/STA/N2/10K_min/NFPA_1981-2019_SCBA_Lens_STA_N2_10KData_230605_R2.csv
Temp./C,Time/min,DSC/(mW/mg),Mass loss/mg
40.0,0.0,0.731985,0.0147579
40.5,0.0602012,0.735774,0.0146117
41,0.116726,0.74842,0.0143537
41.5,0.172425,0.759574,0.0131989
42,0.233238,0.772877,0.0131557
42.5,0.291687,0.775049,0.0143541
43,0.34947,0.788232,0.013252
43.5,0.405961,0.792819,0.013312
44,0.461512,0.792585,0.0144094
44.5,0.519364,0.806568,0.0145488
45,0.57142,0.808114,0.0129206
45.5,0.626929,0.81195,0.0131734
46,0.686693,0.817899,0.013182
46.5,0.741597,0.82063,0.0131268
47,0.796422,0.820825,0.0145695
47.5,0.851667,0.828765,0.014477
48,0.905603,0.830829,0.0134624
48.5,0.961417,0.835595,0.0131707
49,1.01569,0.846682,0.0145027
49.5,1.0687,0.841883,0.01405
50,1.12268,0.847398,0.0143403
50.5,1.1775,0.844709,0.0144955
51,1.23147,0.850194,0.0130715
51.5,1.28572,0.862758,0.0144893
52,1.33944,0.855772,0.013992
52.5,1.39198,0.855934,0.0144859
53,1.44682,0.861363,0.0145014
53.5,1.49939,0.86623,0.015471
54,1.55222,0.876093,0.0144439
54.5,1.60519,0.880535,0.0158133
55,1.65907,0.883396,0.0144799
55.5,1.7126,0.883536,0.0157858
56,1.7645,0.881974,0.0144913
56.5,1.81778,0.891558,0.0145402
57,1.87069,0.903302,0.014047
57.5,1.92262,0.898335,0.0145008
58,1.97482,0.909664,0.0131432
58.5,2.02768,0.908137,0.0144889
59,2.07865,0.907958,0.0158731
59.5,2.13136,0.913519,0.016101
60,2.18325,0.921194,0.0158101
60.5,2.23545,0.91935,0.0167412
61,2.28873,0.925618,0.0158063
61.5,2.33803,0.932105,0.0171401
62,2.38898,0.937271,0.0169824
62.5,2.44209,0.93938,0.0165285
63,2.49213,0.942917,0.0161662
63.5,2.5444,0.945182,0.0171285
64,2.59522,0.950393,0.0158155
64.5,2.64488,0.957726,0.0158096
65,2.69777,0.953129,0.0170976
65.5,2.74859,0.956392,0.0179545
66,2.79813,0.964954,0.0171302
66.5,2.85031,0.959747,0.0183684
67,2.9002,0.968437,0.0171287
67.5,2.95125,0.969607,0.0158066
68,3.00196,0.969182,0.0155537
68.5,3.05091,0.973864,0.0158217
69,3.10348,0.975317,0.0158136
69.5,3.15313,0.982059,0.0145102
70,3.20375,0.992542,0.0144931
70.5,3.25388,0.989336,0.0158158
71,3.30462,0.994193,0.0144869
71.5,3.35365,0.998473,0.0144901
72,3.40471,0.993164,0.0157083
72.5,3.45546,0.997776,0.0147729
73,3.50564,0.999792,0.0158152
73.5,3.55442,0.99907,0.0158145
74,3.60554,0.99815,0.0144443
74.5,3.6542,1.00591,0.0158138
75,3.70619,1.01505,0.0171298
75.5,3.75609,1.01121,0.0171359
76,3.80551,1.02037,0.015806
76.5,3.85526,1.02466,0.0171063
77,3.90535,1.02317,0.0171329
77.5,3.95431,1.02437,0.0158041
78,4.00423,1.01907,0.0158096
78.5,4.05435,1.02716,0.0166138
79,4.10381,1.02783,0.0158176
79.5,4.15423,1.0347,0.0158112
80,4.20489,1.03713,0.0171845
80.5,4.25302,1.04362,0.0158195
81,4.30404,1.04381,0.0158201
81.5,4.3542,1.04726,0.0169803
82,4.40271,1.05065,0.0158075
82.5,4.45337,1.05121,0.015821
83,4.50148,1.05291,0.017117
83.5,4.55049,1.04997,0.0171301
84,4.60034,1.05758,0.016891
84.5,4.64815,1.05958,0.0168674
85,4.70042,1.05567,0.0171411
85.5,4.74965,1.06082,0.0184372
86,4.79864,1.06554,0.017666
86.5,4.84753,1.06829,0.0178993
87,4.89671,1.07487,0.01844
87.5,4.94698,1.0657,0.0198672
88,4.99535,1.06832,0.0184491
88.5,5.04335,1.07018,0.01845
89,5.09362,1.0796,0.0184494
89.5,5.14235,1.07782,0.0190871
90,5.19124,1.07703,0.0184457
90.5,5.24097,1.08332,0.0184499
91,5.28965,1.08566,0.0184992
91.5,5.33899,1.09352,0.0197574
92,5.38845,1.08331,0.0184466
92.5,5.43676,1.08955,0.01844
93,5.4862,1.08462,0.01844
93.5,5.53437,1.09393,0.01844
94,5.58338,1.09949,0.018463
94.5,5.63136,1.09603,0.0197592
95,5.68172,1.09805,0.0197615
95.5,5.72965,1.09961,0.0184375
96,5.77966,1.1022,0.0184406
96.5,5.8263,1.10308,0.0184548
97,5.87563,1.10117,0.0184499
97.5,5.92575,1.1117,0.0184504
98,5.97492,1.10676,0.0197321
98.5,6.02374,1.11243,0.019777
99,6.07168,1.11134,0.0184448
99.5,6.12133,1.11369,0.0184134
100,6.16856,1.11468,0.0171299
100.5,6.21758,1.11849,0.0172372
101,6.26686,1.11852,0.0184398
101.5,6.31205,1.11528,0.01844
102,6.36386,1.12502,0.0184357
102.5,6.41286,1.12302,0.0197695
103,6.45932,1.12359,0.0184677
103.5,6.5081,1.13314,0.0184399
104,6.55766,1.14109,0.0179873
104.5,6.60785,1.13572,0.0170924
105,6.65531,1.13748,0.0184501
105.5,6.70484,1.13922,0.0183209
106,6.75314,1.14387,0.0184497
106.5,6.80153,1.14084,0.01845
107,6.85015,1.14565,0.01845
107.5,6.89769,1.14867,0.0184499
108,6.94696,1.15158,0.0175373
108.5,6.9962,1.14782,0.0184399
109,7.04429,1.1578,0.01844
109.5,7.09265,1.15912,0.01844
110,7.14181,1.15659,0.0184457
110.5,7.19061,1.16254,0.0183822
111,7.23867,1.15932,0.0184637
111.5,7.28671,1.16495,0.0197696
112,7.33534,1.1711,0.0197569
112.5,7.38144,1.17321,0.0185935
113,7.43266,1.17514,0.017461
113.5,7.48196,1.17732,0.0174898
114,7.53052,1.18053,0.018777
114.5,7.5792,1.18387,0.0176629
115,7.62698,1.18217,0.01746
115.5,7.67491,1.1928,0.01746
116,7.72448,1.1895,0.01746
116.5,7.77327,1.19674,0.0174601
117,7.82229,1.19094,0.0188733
117.5,7.86709,1.19465,0.0174535
118,7.91934,1.19431,0.0180749
118.5,7.96714,1.1922,0.0187697
119,8.01609,1.20166,0.0177947
119.5,8.0645,1.20302,0.0176323
120,8.11275,1.20793,0.0174644
120.5,8.16062,1.20422,0.0164394
121,8.2092,1.20926,0.0177938
121.5,8.25488,1.20599,0.01779
122,8.30689,1.2109,0.01779
122.5,8.35516,1.21236,0.01779
123,8.39957,1.21881,0.0177895
123.5,8.45069,1.21484,0.0173022
124,8.49976,1.22733,0.0180113
124.5,8.54796,1.22423,0.0181097
125,8.59545,1.22231,0.01812
125.5,8.64474,1.23073,0.01812
126,8.69373,1.2208,0.01812
126.5,8.74137,1.22471,0.0181202
127,8.78888,1.22949,0.0180208
127.5,8.83788,1.22059,0.0174574
128,8.88688,1.23262,0.0175019
128.5,8.93394,1.22824,0.0187704
129,8.98425,1.2302,0.0187713
129.5,9.03049,1.23246,0.0200051
130,9.0788,1.23739,0.0200901
130.5,9.12483,1.24252,0.0196393
131,9.17432,1.23929,0.0187807
131.5,9.22384,1.23357,0.0201496
132,9.27082,1.24432,0.0200999
132.5,9.31914,1.24379,0.0200993
133,9.36737,1.23931,0.0211329
133.5,9.41573,1.24545,0.0200939
134,9.46308,1.25057,0.020196
134.5,9.51276,1.24983,0.0201013
135,9.5612,1.25465,0.0210759
135.5,9.60911,1.26051,0.02108
136,9.65698,1.25417,0.0210699
136.5,9.7053,1.25324,0.0197732
137,9.75248,1.25569,0.0197606
137.5,9.80077,1.26116,0.0201275
138,9.84911,1.26796,0.0215063
138.5,9.89593,1.26721,0.0214101
139,9.9447,1.25793,0.0205488
139.5,9.99314,1.26127,0.0201064
140,10.0412,1.26581,0.019075
140.5,10.0883,1.26089,0.0187648
141,10.1379,1.26187,0.0187701
141.5,10.1853,1.27047,0.0186756
142,10.2334,1.26803,0.0174616
142.5,10.2824,1.26499,0.0174597
143,10.3293,1.26405,0.0164698
143.5,10.3767,1.27238,0.0161643
144,10.4252,1.27911,0.0174606
144.5,10.4726,1.26446,0.01746
145,10.5208,1.26624,0.01746
145.5,10.5688,1.27008,0.01746
146,10.6168,1.27263,0.0174604
146.5,10.6631,1.27273,0.0188159
147,10.7125,1.27839,0.0187674
147.5,10.7604,1.27635,0.017471
148,10.8084,1.27285,0.01619
148.5,10.856,1.27607,0.0161398
149,10.9047,1.27953,0.0166833
149.5,10.9521,1.27678,0.0174494
150,10.9999,1.28205,0.01745
150.5,11.047,1.28686,0.0174518
151,11.0945,1.28463,0.0180435
151.5,11.1438,1.28755,0.0184155
152,11.19,1.29156,0.0193588
152.5,11.239,1.28478,0.0197594
153,11.2867,1.28157,0.0211136
153.5,11.3338,1.28778,0.0197206
154,11.3814,1.28578,0.0197601
154.5,11.4295,1.29533,0.0197597
155,11.4775,1.29622,0.019863
155.5,11.5262,1.3017,0.0210804
156,11.5738,1.30111,0.0204232
156.5,11.6211,1.31455,0.0203144
157,11.6682,1.30174,0.0191071
157.5,11.7165,1.31052,0.0192561
158,11.7636,1.31035,0.0191097
158.5,11.8125,1.3128,0.0191166
159,11.8596,1.30805,0.0198366
159.5,11.9083,1.3152,0.0204196
160,11.9565,1.31444,0.02042
160.5,12.0038,1.30746,0.02042
161,12.0498,1.31856,0.0204464
161.5,12.099,1.32423,0.0217412
162,12.1467,1.31885,0.02174
162.5,12.1939,1.32158,0.0217454
163,12.2422,1.31896,0.0225683
163.5,12.2902,1.32854,0.0230594
164,12.3363,1.32475,0.0231413
164.5,12.3851,1.32184,0.0217433
165,12.4329,1.32228,0.0203596
165.5,12.4799,1.3174,0.0204201
166,12.5282,1.31914,0.02042
166.5,12.5766,1.32346,0.0204205
167,12.6249,1.32675,0.0199857
167.5,12.671,1.33727,0.01911
168,12.7189,1.33828,0.019102
168.5,12.7667,1.33533,0.020432
169,12.8151,1.33546,0.02043
169.5,12.863,1.33283,0.0204161
170,12.9109,1.33946,0.0191097
170.5,12.9575,1.33881,0.01911
171,13.0059,1.33551,0.01914
171.5,13.0549,1.3412,0.0183968
172,13.1021,1.3419,0.0178893
172.5,13.1498,1.34341,0.0191017
173,13.1977,1.34812,0.0204245
173.5,13.2447,1.34692,0.0203499
174,13.292,1.3506,0.0204175
174.5,13.3397,1.34842,0.0217297
175,13.3849,1.35397,0.0217401
175.5,13.4366,1.35073,0.0217253
176,13.4833,1.3555,0.020421
176.5,13.5307,1.36025,0.02042
177,13.5792,1.351,0.0204205
177.5,13.6262,1.35355,0.0201219
178,13.6734,1.35584,0.0194294
178.5,13.7209,1.35931,0.0198791
179,13.769,1.35935,0.0207498
179.5,13.8165,1.35605,0.02075
180,13.8639,1.35823,0.0207494
180.5,13.9116,1.35688,0.0209885
181,13.9586,1.36027,0.0217757
181.5,14.0064,1.35463,0.0204253
182,14.0548,1.35978,0.02042
182.5,14.1015,1.36538,0.02042
183,14.1491,1.36571,0.0204201
183.5,14.1967,1.36857,0.0203441
184,14.2446,1.36537,0.0194411
184.5,14.2923,1.37147,0.01944
185,14.3399,1.37054,0.0194371
185.5,14.3873,1.37485,0.0207903
186,14.4336,1.37351,0.0207601
186.5,14.4819,1.37562,0.02076
187,14.5301,1.38398,0.0207603
187.5,14.5774,1.38255,0.0203993
188,14.6246,1.38344,0.0207525
188.5,14.6727,1.38023,0.0207507
189,14.7205,1.38552,0.0211157
189.5,14.7682,1.38738,0.0210801
190,14.8157,1.39267,0.0210008
190.5,14.8631,1.39906,0.0203852
191,14.9118,1.40306,0.0201175
191.5,14.9561,1.39859,0.0200908
192,15.0066,1.40372,0.0207471
192.5,15.0531,1.41212,0.02075
193,15.0994,1.41547,0.02075
193.5,15.1485,1.41668,0.02075
194,15.196,1.42251,0.02075
194.5,15.2444,1.42722,0.0207499
195,15.2916,1.43604,0.0194397
195.5,15.3397,1.43602,0.019445
196,15.386,1.44351,0.0200894
196.5,15.4344,1.44249,0.0206869
197,15.4822,1.45837,0.0200881
197.5,15.5291,1.45714,0.0214433
198,15.5771,1.4664,0.0214099
198.5,15.6234,1.47476,0.02141
199,15.6731,1.48636,0.0213953
199.5,15.7212,1.49335,0.0201008
200,15.768,1.49916,0.0200521
200.5,15.8165,1.51439,0.0204314
201,15.8633,1.52735,0.02043
201.5,15.9102,1.53623,0.0203729
202,15.9586,1.54451,0.0207593
202.5,16.0068,1.55604,0.02076
203,16.0549,1.56021,0.02076
203.5,16.1001,1.57377,0.02076
204,16.1498,1.57653,0.02076
204.5,16.1973,1.58631,0.02076
205,16.2451,1.59644,0.02076
205.5,16.2927,1.60218,0.02076
206,16.3393,1.59694,0.0207875
206.5,16.3873,1.59558,0.0204303
207,16.4349,1.59906,0.0213516
207.5,16.483,1.60095,0.0208892
208,16.5303,1.60223,0.0207497
208.5,16.5778,1.5953,0.02075
209,16.6258,1.59229,0.02075
209.5,16.6731,1.58777,0.02075
210,16.7206,1.58471,0.0207538
210.5,16.7679,1.58723,0.020178
211,16.8147,1.58408,0.0214107
211.5,16.8632,1.58521,0.0224491
212,16.9107,1.58047,0.0215878
212.5,16.9581,1.58441,0.0214098
213,17.0059,1.583,0.0214123
213.5,17.0533,1.57364,0.0199306
214,17.1,1.57766,0.019111
214.5,17.1467,1.57416,0.01911
215,17.1959,1.57322,0.01911
215.5,17.243,1.5762,0.0191205
216,17.2909,1.57327,0.0177845
216.5,17.3388,1.57863,0.0177897
217,17.3861,1.57546,0.0178055
217.5,17.4343,1.57415,0.0191104
218,17.4809,1.57115,0.0191058
218.5,17.5278,1.5784,0.0201079
219,17.5756,1.57931,0.0204209
219.5,17.6237,1.5814,0.0204301
220,17.6719,1.57792,0.02043
220.5,17.7187,1.5754,0.0204196
221,17.7643,1.59205,0.0191162
221.5,17.8128,1.58475,0.01911
222,17.8613,1.58152,0.01911
222.5,17.9097,1.5834,0.01911
223,17.9569,1.5809,0.01911
223.5,18.0044,1.58266,0.01911
224,18.0514,1.59297,0.019109
224.5,18.0994,1.59179,0.0205098
225,18.1473,1.58714,0.0207593
225.5,18.1946,1.59268,0.0213894
226,18.2426,1.59288,0.021762
226.5,18.2901,1.59762,0.0230443
227,18.3372,1.59558,0.0230601
227.5,18.3853,1.60267,0.0218239
228,18.4326,1.59896,0.0217397
228.5,18.48,1.59863,0.0217399
229,18.5277,1.59883,0.0217636
229.5,18.5754,1.60036,0.0210794
230,18.6227,1.6022,0.02108
230.5,18.6709,1.60225,0.0210796
231,18.7182,1.60107,0.0224576
231.5,18.7656,1.59606,0.02239
232,18.8139,1.58843,0.0210808
232.5,18.8606,1.59367,0.02108
233,18.9086,1.60277,0.02108
233.5,18.9562,1.60671,0.02108
234,19.0036,1.60225,0.021035
234.5,19.0521,1.60255,0.0220882
235,19.0998,1.60347,0.0224002
235.5,19.147,1.60076,0.0224
236,19.1941,1.60071,0.0224
236.5,19.2429,1.6094,0.0223999
237,19.2906,1.60638,0.0224342
237.5,19.3378,1.6028,0.0210815
238,19.3852,1.60328,0.0224012
238.5,19.4327,1.60816,0.0223996
239,19.4798,1.60861,0.0215991
239.5,19.5275,1.607,0.0210798
240,19.5749,1.60902,0.02108
240.5,19.6234,1.6012,0.0210793
241,19.6701,1.60319,0.0213781
241.5,19.7174,1.6129,0.0220705
242,19.7654,1.60749,0.0220665
242.5,19.8132,1.59844,0.0217386
243,19.861,1.60689,0.02174
243.5,19.9074,1.60458,0.02174
244,19.955,1.61037,0.02174
244.5,20.0038,1.60916,0.0217507
245,20.0481,1.60781,0.0220731
245.5,20.0963,1.60902,0.0220683
246,20.1461,1.61227,0.02339
246.5,20.1934,1.61416,0.023446
247,20.2415,1.616,0.0220103
247.5,20.2885,1.61909,0.0210801
248,20.336,1.62121,0.02108
248.5,20.3845,1.61835,0.0210454
249,20.4316,1.61257,0.0211157
249.5,20.4765,1.61677,0.02109
250,20.5277,1.60811,0.02109
250.5,20.5743,1.61794,0.02109
251,20.6225,1.61559,0.0210913
251.5,20.6699,1.61823,0.0223699
252,20.7179,1.61795,0.0224
252.5,20.7645,1.62523,0.0225375
253,20.8122,1.62029,0.0237051
253.5,20.8602,1.61779,0.0224251
254,20.9085,1.61814,0.0224
254.5,20.9559,1.61479,0.0224
255,21.0036,1.61725,0.0224
255.5,21.051,1.62098,0.0224
256,21.0965,1.61896,0.0224
256.5,21.1466,1.61652,0.0224
257,21.1941,1.61396,0.0224
257.5,21.2421,1.60559,0.0224
258,21.2899,1.61068,0.0224
258.5,21.3378,1.61219,0.0224
259,21.3849,1.61386,0.0224
259.5,21.4323,1.60661,0.0224001
260,21.4808,1.61106,0.0223791
260.5,21.5276,1.61715,0.0221915
261,21.5763,1.61714,0.02339
261.5,21.6242,1.61694,0.02339
262,21.6714,1.6143,0.02339
262.5,21.7179,1.61512,0.02339
263,21.7672,1.61265,0.02339
263.5,21.8138,1.61761,0.02339
264,21.8607,1.60443,0.0233847
264.5,21.9107,1.61434,0.0214023
265,21.958,1.61866,0.0213765
265.5,22.0046,1.62068,0.0224018
266,22.053,1.62155,0.0223995
266.5,22.1011,1.61125,0.0220476
267,22.1482,1.61475,0.021481
267.5,22.1962,1.61136,0.0207504
268,22.2441,1.6114,0.0209953
268.5,22.2915,1.61245,0.0220689
269,22.34,1.61305,0.0220427
269.5,22.3871,1.61431,0.0210802
270,22.4353,1.61662,0.0210597
270.5,22.4822,1.61718,0.022071
271,22.5304,1.61996,0.0220699
271.5,22.5781,1.62087,0.0221058
272,22.6251,1.62462,0.0207503
272.5,22.6735,1.62171,0.0207502
273,22.7214,1.6213,0.0216656
273.5,22.769,1.62149,0.0220689
274,22.8179,1.61749,0.0209391
274.5,22.8643,1.61893,0.0207401
275,22.9129,1.62386,0.0227953
275.5,22.9607,1.62805,0.0230603
276,23.0079,1.62514,0.02306
276.5,23.0567,1.62242,0.0230594
277,23.1041,1.62158,0.0226966
277.5,23.152,1.61826,0.0227299
278,23.2,1.62461,0.0227648
278.5,23.248,1.62074,0.0224047
279,23.2957,1.6314,0.0224
279.5,23.3442,1.62461,0.0223954
280,23.3918,1.61879,0.0230406
280.5,23.4388,1.62302,0.02306
281,23.4868,1.62934,0.02306
281.5,23.5357,1.62887,0.0230657
282,23.5837,1.62288,0.0227308
282.5,23.6316,1.62918,0.0221878
283,23.678,1.62858,0.0217389
283.5,23.7273,1.6327,0.0230596
284,23.7741,1.63219,0.0230589
284.5,23.8223,1.62947,0.021953
285,23.8705,1.63407,0.0229892
285.5,23.9181,1.6298,0.02306
286,23.9662,1.62862,0.02306
286.5,24.0146,1.63108,0.02306
287,24.0626,1.63321,0.02306
287.5,24.11,1.63556,0.02306
288,24.1583,1.64068,0.02306
288.5,24.2065,1.63718,0.02306
289,24.254,1.63453,0.023043
289.5,24.3014,1.64122,0.0218509
290,24.3512,1.65199,0.0207785
290.5,24.3987,1.64426,0.0204213
291,24.4465,1.63977,0.0211213
291.5,24.494,1.63831,0.0227278
292,24.5413,1.63626,0.0227299
292.5,24.5899,1.63679,0.0227539
293,24.6383,1.63756,0.0214096
293.5,24.6858,1.63322,0.02141
294,24.7345,1.6413,0.0214115
294.5,24.7819,1.64144,0.0224861
295,24.8278,1.64373,0.0223992
295.5,24.8757,1.6416,0.0227342
296,24.9265,1.64263,0.0230497
296.5,24.9741,1.64736,0.0233954
297,25.021,1.64062,0.0227257
297.5,25.0693,1.6463,0.0223905
298,25.1177,1.64471,0.02239
298.5,25.1655,1.64662,0.02239
299,25.2132,1.64418,0.0222131
299.5,25.2618,1.64389,0.0214111
300,25.3091,1.63938,0.02141
300.5,25.357,1.6457,0.02141
301,25.4057,1.6404,0.02141
301.5,25.4529,1.64484,0.0214012
302,25.5006,1.64472,0.0210875
302.5,25.5489,1.63729,0.02109
303,25.5967,1.64095,0.02109
303.5,25.6445,1.64515,0.02109
304,25.6928,1.64365,0.02109
304.5,25.7393,1.64287,0.02109
305,25.7893,1.64643,0.0210967
305.5,25.8366,1.6434,0.0214208
306,25.8845,1.64241,0.0214212
306.5,25.9316,1.65029,0.0210977
307,25.9801,1.64802,0.02109
307.5,26.0288,1.64032,0.02109
308,26.0764,1.63949,0.0210888
308.5,26.1251,1.64337,0.0220866
309,26.1704,1.64122,0.02207
309.5,26.2206,1.65051,0.0220699
310,26.2685,1.64865,0.0221076
310.5,26.3162,1.65119,0.0207585
311,26.3648,1.6465,0.02076
311.5,26.412,1.6425,0.02076
312,26.4615,1.64658,0.02076
312.5,26.5092,1.64443,0.02076
313,26.5573,1.64371,0.02076
313.5,26.6034,1.64976,0.0207598
314,26.6532,1.6569,0.0200559
314.5,26.7001,1.6495,0.0201001
315,26.7497,1.64939,0.0201
315.5,26.7981,1.65111,0.0201
316,26.8462,1.65713,0.0201
316.5,26.894,1.6608,0.0200998
317,26.9416,1.65399,0.0202848
317.5,26.9906,1.65262,0.0207595
318,27.0387,1.64793,0.02076
318.5,27.0868,1.64792,0.020772
319,27.1346,1.65237,0.019445
319.5,27.1829,1.65547,0.0194397
320,27.2315,1.65277,0.0188863
320.5,27.2783,1.65117,0.0174599
321,27.3283,1.651,0.01746
321.5,27.3766,1.64709,0.0174602
322,27.4251,1.64079,0.0187715
322.5,27.4735,1.64215,0.01878
323,27.5215,1.63992,0.01878
323.5,27.5694,1.64429,0.01878
324,27.618,1.65552,0.01878
324.5,27.6648,1.6387,0.01878
325,27.7153,1.64637,0.01878
325.5,27.7633,1.65273,0.01878
326,27.8114,1.64431,0.0187515
326.5,27.8595,1.6458,0.0197625
327,27.9076,1.64237,0.01977
327.5,27.9559,1.64857,0.01977
328,28.0038,1.64951,0.01977
328.5,28.0522,1.65663,0.01977
329,28.1003,1.65641,0.0197686
329.5,28.1491,1.6547,0.0185952
330,28.1972,1.65063,0.0197698
330.5,28.2464,1.65104,0.0197694
331,28.2944,1.65004,0.0184427
331.5,28.3436,1.64862,0.01845
332,28.3903,1.64146,0.01845
332.5,28.4386,1.64984,0.01845
333,28.4854,1.64811,0.01845
333.5,28.5334,1.64254,0.01845
334,28.5839,1.63769,0.0184499
334.5,28.6323,1.63799,0.0185068
335,28.68,1.63676,0.0171272
335.5,28.7285,1.63644,0.01713
336,28.7766,1.64652,0.0171307
336.5,28.8257,1.63871,0.018443
337,28.8739,1.63979,0.0184501
337.5,28.9218,1.63922,0.018404
338,28.9707,1.63912,0.019774
338.5,29.0185,1.6437,0.019766
339,29.0667,1.6463,0.0194404
339.5,29.1167,1.64049,0.01944
340,29.1641,1.6397,0.0194433
340.5,29.2115,1.64081,0.0180803
341,29.2605,1.63867,0.0181201
341.5,29.3093,1.64212,0.01812
342,29.3582,1.64244,0.01812
342.5,29.4064,1.64139,0.0181196
343,29.4547,1.63501,0.0175457
343.5,29.5021,1.63753,0.0174592
344,29.5513,1.63618,0.0170874
344.5,29.6002,1.62977,0.01713
345,29.6484,1.63527,0.01713
345.5,29.6955,1.63679,0.01713
346,29.7454,1.64236,0.01713
346.5,29.7935,1.64072,0.01713
347,29.8432,1.63943,0.017131
347.5,29.8908,1.64032,0.0180121
348,29.9388,1.64495,0.0181201
348.5,29.988,1.63909,0.0181209
349,30.037,1.63697,0.0180391
349.5,30.0846,1.63783,0.0174602
350,30.1333,1.64788,0.0174599
350.5,30.1818,1.63612,0.0175146
351,30.2305,1.64546,0.0158927
351.5,30.2793,1.64138,0.0148202
352,30.3273,1.64939,0.01482
352.5,30.3764,1.65191,0.0148197
353,30.4247,1.64481,0.0157898
353.5,30.4744,1.64496,0.01581
354,30.5219,1.65292,0.0158115
354.5,30.5708,1.64849,0.0169612
355,30.6194,1.64927,0.0171303
355.5,30.6676,1.65261,0.0167952
356,30.7167,1.64907,0.0160293
356.5,30.7644,1.64837,0.0145032
357,30.8131,1.64277,0.0133256
357.5,30.862,1.64634,0.014499
358,30.9103,1.64852,0.0144934
358.5,30.9587,1.63935,0.0158214
359,31.0074,1.64597,0.01582
359.5,31.0561,1.64448,0.01582
360,31.1047,1.64523,0.0144977
360.5,31.1525,1.64681,0.0133366
361,31.2021,1.63958,0.0131798
361.5,31.2501,1.64084,0.01318
362,31.299,1.63864,0.01318
362.5,31.3479,1.64704,0.01318
363,31.3975,1.64307,0.01318
363.5,31.4455,1.63687,0.01318
364,31.4938,1.64682,0.01318
364.5,31.543,1.64622,0.01318
365,31.5908,1.65431,0.01318
365.5,31.6397,1.64924,0.0131801
366,31.6865,1.6466,0.0131729
366.5,31.7364,1.64582,0.0121843
367,31.7855,1.65149,0.0121892
367.5,31.8331,1.64768,0.0135663
368,31.882,1.64662,0.0134999
368.5,31.9279,1.64525,0.0135
369,31.9798,1.64397,0.0135
369.5,32.0271,1.64467,0.0135
370,32.0764,1.64406,0.0134998
370.5,32.1251,1.63283,0.0144733
371,32.1734,1.64201,0.0138291
371.5,32.2216,1.64092,0.01384
372,32.2706,1.64045,0.0138526
372.5,32.3182,1.64016,0.0159122
373,32.3673,1.64338,0.0161401
373.5,32.4163,1.63076,0.01614
374,32.4643,1.6442,0.0161399
374.5,32.5125,1.63518,0.0151066
375,32.5611,1.64265,0.0145662
375.5,32.6113,1.64694,0.0144898
376,32.6589,1.64648,0.01449
376.5,32.7069,1.64285,0.01449
377,32.7561,1.63938,0.01449
377.5,32.8052,1.63829,0.0139031
378,32.8533,1.64702,0.0131836
378.5,32.9013,1.64195,0.0121895
379,32.9503,1.64832,0.0121913
379.5,32.9993,1.6395,0.0134612
380,33.0476,1.64672,0.0121908
380.5,33.0965,1.64302,0.0122607
381,33.143,1.64379,0.0108747
381.5,33.1942,1.64506,0.00955654
382,33.2429,1.64647,0.0105847
382.5,33.2904,1.65106,0.01087
383,33.3378,1.65216,0.01087
383.5,33.3871,1.65209,0.01087
384,33.4349,1.65959,0.0108644
384.5,33.4861,1.65819,0.0105179
385,33.5349,1.65397,0.00923212
385.5,33.5834,1.65247,0.00923039
386,33.6327,1.65769,0.00990563
386.5,33.6792,1.66419,0.01054
387,33.7301,1.66454,0.00923158
387.5,33.779,1.67053,0.00818627
388,33.8275,1.67071,0.00776989
388.5,33.877,1.66493,0.00691984
389,33.9255,1.66303,0.00689004
389.5,33.9738,1.66707,0.00823378
390,34.0236,1.6728,0.00823028
390.5,34.0724,1.6742,0.00786706
391,34.1209,1.67341,0.00692077
391.5,34.1696,1.67335,0.00692
392,34.2171,1.67099,0.00692
392.5,34.2669,1.66987,0.00692031
393,34.3158,1.67365,0.0066554
393.5,34.3655,1.67522,0.00625978
394,34.4139,1.67275,0.00626
394.5,34.4625,1.6771,0.00626003
395,34.5098,1.67002,0.00481686
395.5,34.5605,1.67692,0.00494409
396,34.609,1.6786,0.00357976
396.5,34.6569,1.67684,0.00364762
397,34.7076,1.67473,0.00493895
397.5,34.756,1.67777,0.00494002
398,34.806,1.67691,0.00428845
398.5,34.8548,1.67367,0.00362023
399,34.904,1.67538,0.00362
399.5,34.9532,1.67984,0.00361993
400,35.0003,1.68409,0.00369461
400.5,35.0507,1.68931,0.00164711
401,35.0989,1.69478,0.00165
401.5,35.1478,1.69299,0.00165
402,35.1976,1.68752,0.00164974
402.5,35.2463,1.69485,0.000973772
403,35.2955,1.69282,0.000330107
403.5,35.3443,1.69326,0.000330011
404,35.3935,1.69248,0.000183276
404.5,35.4411,1.69154,-0.000988617
405,35.4914,1.69372,-0.000990002
405.5,35.541,1.69651,-0.000990126
406,35.5897,1.69445,-0.000918293
406.5,35.6395,1.7003,-0.0023105
407,35.6879,1.69924,-0.00231033
407.5,35.7363,1.69545,-0.00215419
408,35.7844,1.69779,-0.00283344
408.5,35.8324,1.70267,-0.00296004
409,35.8817,1.69875,-0.00352856
409.5,35.9326,1.70062,-0.00427921
410,35.9817,1.70518,-0.00568685
410.5,36.0311,1.70206,-0.00559987
411,36.0794,1.70362,-0.00559998
411.5,36.1288,1.70487,-0.0056148
412,36.1776,1.7051,-0.00691923
412.5,36.2269,1.6994,-0.00692001
413,36.2747,1.69875,-0.00670567
413.5,36.3252,1.69819,-0.00560008
414,36.3743,1.69148,-0.00695406
414.5,36.4241,1.69551,-0.00627281
415,36.473,1.69422,-0.00756186
415.5,36.5212,1.69522,-0.00758329
416,36.5715,1.68414,-0.00887751
416.5,36.6196,1.69413,-0.00891355
417,36.6693,1.6891,-0.0112858
417.5,36.7161,1.69098,-0.0128402
418,36.7673,1.69819,-0.0128396
418.5,36.8176,1.70077,-0.012855
419,36.8669,1.69537,-0.0141628
419.5,36.9159,1.69485,-0.016787
420,36.9647,1.69847,-0.0158762
420.5,37.0141,1.6942,-0.0167843
421,37.0637,1.70338,-0.0168163
421.5,37.1123,1.69391,-0.0181095
422,37.1621,1.69914,-0.01811
422.5,37.2105,1.69962,-0.0181037
423,37.2605,1.69827,-0.0195578
423.5,37.3088,1.6915,-0.0208315
424,37.3579,1.69445,-0.0208683
424.5,37.4084,1.69412,-0.0221624
425,37.4569,1.69233,-0.0221464
425.5,37.5058,1.68934,-0.0234925
426,37.5556,1.68237,-0.0234907
426.5,37.6042,1.68181,-0.0259739
427,37.6525,1.67914,-0.0274801
427.5,37.7022,1.67752,-0.0285107
428,37.7515,1.68141,-0.0287935
428.5,37.8005,1.68464,-0.0302153
429,37.8499,1.67829,-0.0313312
429.5,37.8997,1.67238,-0.0332205
430,37.9463,1.67299,-0.0327293
430.5,37.996,1.66986,-0.0350117
431,38.0446,1.66887,-0.0368266
431.5,38.0961,1.6693,-0.0382
432,38.1448,1.67338,-0.0400739
432.5,38.1937,1.66982,-0.0434496
433,38.2436,1.66863,-0.0449098
433.5,38.2924,1.66745,-0.0463877
434,38.341,1.67483,-0.046372
434.5,38.3906,1.67306,-0.0476335
435,38.4399,1.6714,-0.0513125
435.5,38.49,1.67018,-0.0522729
436,38.5388,1.67158,-0.0536363
436.5,38.5873,1.67535,-0.0577719
437,38.6376,1.67364,-0.0591733
437.5,38.6865,1.67082,-0.0605017
438,38.7353,1.67613,-0.0620146
438.5,38.785,1.67963,-0.0634596
439,38.8338,1.68245,-0.0657266
439.5,38.883,1.68399,-0.0680502
440,38.9326,1.68479,-0.0708202
440.5,38.9813,1.68189,-0.0736825
441,39.0304,1.68073,-0.0759326
441.5,39.0796,1.68685,-0.079061
442,39.1296,1.68707,-0.0794307
442.5,39.1794,1.68629,-0.0824782
443,39.2278,1.68867,-0.0858169
443.5,39.2771,1.68651,-0.0885743
444,39.3268,1.68003,-0.0913205
444.5,39.3764,1.6895,-0.0949565
445,39.4257,1.68528,-0.0979172
445.5,39.4755,1.68759,-0.0996258
446,39.5251,1.68957,-0.102785
446.5,39.5743,1.69322,-0.106198
447,39.6231,1.69431,-0.109407
447.5,39.6715,1.69446,-0.113049
448,39.722,1.70149,-0.116066
448.5,39.772,1.70163,-0.119794
449,39.821,1.70165,-0.123768
449.5,39.8704,1.70265,-0.127606
450,39.9175,1.70605,-0.131099
450.5,39.9685,1.7138,-0.135498
451,40.0166,1.72467,-0.138691
451.5,40.0676,1.72303,-0.14288
452,40.1179,1.72436,-0.147288
452.5,40.167,1.72964,-0.151027
453,40.2164,1.73309,-0.156255
453.5,40.2661,1.74018,-0.16138
454,40.3151,1.74356,-0.165382
454.5,40.3636,1.74941,-0.170092
455,40.4141,1.76415,-0.173868
455.5,40.4633,1.76648,-0.179458
456,40.5134,1.76788,-0.183705
456.5,40.5626,1.76016,-0.189705
457,40.6117,1.77489,-0.196516
457.5,40.6608,1.78695,-0.202353
458,40.7113,1.78798,-0.208526
458.5,40.7611,1.79869,-0.214931
459,40.8107,1.80908,-0.220325
459.5,40.8601,1.8028,-0.225857
460,40.9094,1.81297,-0.232738
460.5,40.9598,1.82692,-0.239114
461,41.009,1.82885,-0.2468
461.5,41.0584,1.83807,-0.254518
462,41.1063,1.8469,-0.262633
462.5,41.1566,1.8526,-0.269284
463,41.2063,1.86162,-0.27757
463.5,41.2548,1.8739,-0.285118
464,41.3061,1.89095,-0.294759
464.5,41.354,1.90388,-0.303698
465,41.4057,1.91477,-0.311922
465.5,41.4537,1.91627,-0.321632
466,41.5045,1.92277,-0.333146
466.5,41.5529,1.92763,-0.342921
467,41.6026,1.93806,-0.352258
467.5,41.6521,1.94844,-0.362526
468,41.7024,1.95366,-0.374629
468.5,41.7521,1.9491,-0.384981
469,41.8007,1.9511,-0.395712
469.5,41.8508,1.95599,-0.40813
470,41.8999,1.98743,-0.419883
470.5,41.9507,2.01181,-0.432062
471,41.9988,2.03466,-0.445608
471.5,42.05,2.05892,-0.459839
472,42.1003,2.07485,-0.4745
472.5,42.15,2.0844,-0.490121
473,42.2009,2.09378,-0.504606
473.5,42.2511,2.11091,-0.518934
474,42.2988,2.13705,-0.53409
474.5,42.3499,2.15483,-0.550642
475,42.3991,2.17141,-0.568189
475.5,42.4493,2.17984,-0.585032
476,42.4996,2.22203,-0.602364
476.5,42.5493,2.22466,-0.621163
477,42.6004,2.22181,-0.6404
477.5,42.6498,2.22725,-0.658367
478,42.6995,2.24531,-0.676983
478.5,42.7494,2.27108,-0.696554
479,42.7995,2.27822,-0.715779
479.5,42.8498,2.29408,-0.735315
480,42.9,2.29692,-0.756573
480.5,42.9492,2.29786,-0.777902
481,42.9988,2.28834,-0.799453
481.5,43.0488,2.30288,-0.819721
482,43.0986,2.32345,-0.840022
482.5,43.1491,2.33295,-0.863433
483,43.1982,2.35455,-0.886754
483.5,43.2497,2.36591,-0.908915
484,43.2994,2.36966,-0.932358
484.5,43.3491,2.37668,-0.959267
485,43.3984,2.37881,-0.983181
485.5,43.4481,2.38737,-1.00669
486,43.4995,2.43979,-1.03198
486.5,43.5488,2.48339,-1.05911
487,43.5995,2.48232,-1.08787
487.5,43.6489,2.47512,-1.11578
488,43.6988,2.47372,-1.1425
488.5,43.7484,2.46521,-1.17037
489,43.7989,2.52679,-1.19867
489.5,43.8495,2.60145,-1.22803
490,43.8993,2.6032,-1.25997
490.5,43.9492,2.59749,-1.29072
491,43.9994,2.59091,-1.32427
491.5,44.0497,2.63124,-1.35466
492,44.0996,2.64487,-1.38567
492.5,44.1498,2.66046,-1.42066
493,44.1997,2.66822,-1.45438
493.5,44.2492,2.66572,-1.48559
494,44.2987,2.63581,-1.51912
494.5,44.3487,2.60115,-1.55419
495,44.3987,2.67548,-1.58859
495.5,44.4484,2.67934,-1.6217
496,44.4961,2.66585,-1.65575
496.5,44.5487,2.68132,-1.69453
497,44.5977,2.68507,-1.73221
497.5,44.6475,2.68307,-1.76875
498,44.6976,2.64762,-1.80492
498.5,44.7467,2.6144,-1.84212
499,44.7966,2.62249,-1.88113
499.5,44.8445,2.6276,-1.91597
500,44.8944,2.65827,-1.95321
500.5,44.9456,2.66172,-1.99344
501,44.9962,2.62854,-2.03524
501.5,45.0464,2.60994,-2.07289
502,45.0961,2.58675,-2.11212
502.5,45.144,2.57579,-2.14942
503,45.1937,2.53461,-2.18918
503.5,45.2437,2.50864,-2.22762
504,45.2931,2.46806,-2.26651
504.5,45.3421,2.43351,-2.30322
505,45.3909,2.39419,-2.34244
505.5,45.441,2.36503,-2.38033
506,45.49,2.30191,-2.41569
506.5,45.5394,2.26152,-2.4521
507,45.5896,2.20288,-2.48853
507.5,45.6382,2.14677,-2.52438
508,45.6864,2.08033,-2.55725
508.5,45.7341,2.01334,-2.59055
509,45.7836,1.94571,-2.62359
509.5,45.8315,1.86349,-2.65438
510,45.8798,1.78727,-2.68536
510.5,45.9304,1.69393,-2.71473
511,45.9783,1.6038,-2.74084
511.5,46.0275,1.51476,-2.76887
512,46.0763,1.42681,-2.79462
512.5,46.1245,1.35319,-2.81825
513,46.1733,1.24896,-2.84164
513.5,46.2214,1.16925,-2.86269
514,46.2701,1.09749,-2.88288
514.5,46.3167,1.01013,-2.90169
515,46.3658,0.942686,-2.91882
515.5,46.4152,0.864979,-2.93542
516,46.4648,0.79889,-2.95065
516.5,46.5137,0.746205,-2.96432
517,46.562,0.697439,-2.97763
517.5,46.6105,0.64432,-2.98942
518,46.6601,0.600614,-3.00074
518.5,46.7086,0.568598,-3.01111
519,46.7576,0.543342,-3.02201
519.5,46.8073,0.518866,-3.03113
520,46.8565,0.497278,-3.03797
520.5,46.9055,0.477117,-3.04556
521,46.9547,0.469011,-3.05155
521.5,47.0041,0.453879,-3.05825
522,47.0545,0.439221,-3.06401
522.5,47.103,0.425028,-3.06905
523,47.1519,0.424933,-3.07435
523.5,47.2004,0.417856,-3.07679
524,47.2525,0.412251,-3.08061
524.5,47.3004,0.407973,-3.08438
525,47.3516,0.401303,-3.08877
525.5,47.4017,0.405442,-3.09233
526,47.4516,0.404838,-3.09516
526.5,47.5021,0.39052,-3.09777
527,47.5499,0.39794,-3.10092
527.5,47.6014,0.393307,-3.10418
528,47.6511,0.39817,-3.1069
528.5,47.7017,0.391796,-3.10879
529,47.7515,0.395192,-3.11137
529.5,47.8012,0.397562,-3.11413
530,47.8506,0.397016,-3.11619
530.5,47.901,0.398472,-3.11778
531,47.9513,0.395168,-3.12044
531.5,48.0012,0.395593,-3.1231
532,48.0508,0.387509,-3.12651
532.5,48.1009,0.392063,-3.12752
533,48.1513,0.396259,-3.12654
533.5,48.2018,0.401704,-3.12723
534,48.2503,0.390476,-3.12953
534.5,48.3012,0.386544,-3.13119
535,48.3512,0.386997,-3.13292
535.5,48.4021,0.389973,-3.13381
536,48.4517,0.387991,-3.13519
536.5,48.5016,0.388339,-3.13536
537,48.5518,0.38564,-3.13668
537.5,48.6016,0.383762,-3.13805
538,48.6522,0.388823,-3.13814
538.5,48.7026,0.384831,-3.13919
539,48.7525,0.390542,-3.14161
539.5,48.8017,0.38556,-3.14302
540,48.8526,0.385713,-3.143
540.5,48.9027,0.385729,-3.14462
541,48.9521,0.381685,-3.1459
541.5,49.0024,0.382989,-3.14597
542,49.0521,0.37388,-3.14725
542.5,49.103,0.374956,-3.14876
543,49.153,0.371586,-3.14931
543.5,49.2027,0.377477,-3.15015
544,49.2526,0.374151,-3.15157
544.5,49.3033,0.373601,-3.15289
545,49.3537,0.370788,-3.15418
545.5,49.4035,0.36616,-3.15553
546,49.4536,0.36944,-3.1568
546.5,49.5039,0.364655,-3.15682
547,49.5536,0.359347,-3.15815
547.5,49.6034,0.359108,-3.15935
548,49.6533,0.362846,-3.16055
548.5,49.7033,0.360769,-3.16099
549,49.7536,0.361477,-3.16177
549.5,49.8041,0.356903,-3.16055
550,49.8551,0.364244,-3.16304
550.5,49.9018,0.362246,-3.16321
551,49.9544,0.361932,-3.1645
551.5,50.0051,0.364823,-3.16582
552,50.055,0.365956,-3.16672
552.5,50.1052,0.363559,-3.16715
553,50.1551,0.36531,-3.16714
553.5,50.2051,0.360396,-3.16845
554,50.2554,0.360896,-3.16842
554.5,50.3056,0.359946,-3.16977
555,50.3554,0.354455,-3.17108
555.5,50.4058,0.358322,-3.17241
556,50.4566,0.35236,-3.17277
556.5,50.5062,0.356156,-3.17505
557,50.5569,0.347964,-3.1764
557.5,50.607,0.34899,-3.17636
558,50.655,0.349706,-3.17769
558.5,50.7077,0.344636,-3.17899
559,50.7571,0.351721,-3.17905
559.5,50.8077,0.347339,-3.17971
560,50.8583,0.352705,-3.18031
560.5,50.909,0.351135,-3.18164
561,50.9582,0.349396,-3.18302
561.5,51.009,0.348913,-3.18417
562,51.0592,0.349934,-3.1836
562.5,51.1101,0.349538,-3.18362
563,51.16,0.35388,-3.18492
563.5,51.2107,0.348737,-3.18621
564,51.2608,0.340947,-3.18591
564.5,51.3107,0.345449,-3.18682
565,51.3614,0.341735,-3.18558
565.5,51.4107,0.347472,-3.18698
566,51.4619,0.350647,-3.18683
566.5,51.5121,0.342642,-3.18822
567,51.5615,0.343816,-3.18934
567.5,51.6135,0.342956,-3.19053
568,51.6627,0.347161,-3.19053
568.5,51.713,0.343548,-3.19066
569,51.7632,0.335377,-3.19182
569.5,51.8127,0.334998,-3.19217
570,51.8639,0.343107,-3.19212
570.5,51.9135,0.342949,-3.1935
571,51.9641,0.336073,-3.1948
571.5,52.0139,0.342651,-3.19481
572,52.0641,0.342442,-3.19482
572.5,52.1151,0.343824,-3.19612
573,52.1654,0.339692,-3.19705
573.5,52.2163,0.34072,-3.19744
574,52.2662,0.343254,-3.19876
574.5,52.3161,0.340438,-3.19876
575,52.3647,0.347361,-3.19868
575.5,52.4173,0.345861,-3.20008
576,52.4674,0.350956,-3.20182
576.5,52.5177,0.348515,-3.20238
577,52.5677,0.352078,-3.20238
577.5,52.6188,0.355591,-3.20237
578,52.6686,0.351619,-3.20258
578.5,52.719,0.355713,-3.20371
579,52.7691,0.355722,-3.20501
579.5,52.8198,0.353631,-3.20489
580,52.8698,0.350692,-3.20372
580.5,52.9198,0.352471,-3.20501
581,52.9709,0.358342,-3.20495
581.5,53.0209,0.367413,-3.20686
582,53.0696,0.368563,-3.20693
582.5,53.1212,0.372246,-3.20831
583,53.173,0.371021,-3.2096
583.5,53.2235,0.372466,-3.21092
584,53.2737,0.373406,-3.21093
584.5,53.3233,0.377701,-3.21226
585,53.3747,0.380361,-3.21226
585.5,53.4251,0.382651,-3.21221
586,53.4742,0.391391,-3.21226
586.5,53.5261,0.383444,-3.21324
587,53.5735,0.386027,-3.21257
587.5,53.6265,0.389963,-3.21258
588,53.676,0.397512,-3.21258
588.5,53.7265,0.396598,-3.21361
589,53.7766,0.402149,-3.21537
589.5,53.828,0.408173,-3.21567
590,53.8784,0.411986,-3.21798
590.5,53.9283,0.403039,-3.2191
591,53.9787,0.395174,-3.21928
591.5,54.0291,0.402876,-3.21792
592,54.08,0.407504,-3.21796
592.5,54.1294,0.413378,-3.21806
593,54.1802,0.405985,-3.22058
593.5,54.2297,0.416172,-3.22058
594,54.282,0.417458,-3.22101
594.5,54.3321,0.42984,-3.22092
595,54.3826,0.424537,-3.22227
595.5,54.4317,0.436062,-3.22355
596,54.4828,0.432127,-3.22356
596.5,54.5332,0.44013,-3.22356
597,54.5846,0.444987,-3.22356
597.5,54.6343,0.447443,-3.22488
598,54.6846,0.445727,-3.22512
598.5,54.7352,0.452231,-3.22586
599,54.7862,0.454689,-3.22456
599.5,54.836,0.456254,-3.22555
600,54.8864,0.469877,-3.22589
600.5,54.9373,0.487963,-3.22588
601,54.9874,0.49205,-3.22632
601.5,55.0376,0.501345,-3.22719
602,55.0876,0.509908,-3.22719
602.5,55.1401,0.517858,-3.22719
603,55.1898,0.523835,-3.22719
603.5,55.2394,0.532031,-3.22734
604,55.2897,0.529788,-3.22851
604.5,55.3418,0.534739,-3.22902
605,55.3917,0.533948,-3.22955
605.5,55.4423,0.53383,-3.22982
606,55.4929,0.536727,-3.22977
606.5,55.5429,0.538743,-3.23114
607,55.5945,0.5381,-3.23114
607.5,55.6448,0.543374,-3.23108
608,55.6954,0.543882,-3.23246
608.5,55.7458,0.540826,-3.23246
609,55.7966,0.533861,-3.23378
609.5,55.8466,0.533111,-3.23378
610,55.8971,0.533638,-3.23378
610.5,55.9477,0.527643,-3.23379
611,55.9987,0.521783,-3.23571
611.5,56.0486,0.510808,-3.23575
612,56.099,0.506235,-3.23575
612.5,56.1503,0.505023,-3.23575
613,56.2001,0.504405,-3.23696
613.5,56.2508,0.495486,-3.23576
614,56.299,0.495622,-3.23575
614.5,56.3505,0.493818,-3.23697
615,56.4023,0.495115,-3.23706
615.5,56.4524,0.493151,-3.23809
616,56.5032,0.497063,-3.2374
616.5,56.553,0.497702,-3.23844
617,56.6039,0.499264,-3.23837
617.5,56.6545,0.497459,-3.23704
618,56.7047,0.492604,-3.23838
618.5,56.7557,0.494491,-3.2397
619,56.806,0.496769,-3.23972
619.5,56.8557,0.495506,-3.23838
620,56.9062,0.500471,-3.23838
620.5,56.9561,0.49827,-3.23968
621,57.007,0.494018,-3.23872
621.5,57.0569,0.497947,-3.23913
622,57.107,0.492136,-3.24004
622.5,57.1569,0.494241,-3.24011
623,57.2083,0.489989,-3.24267
623.5,57.2575,0.481078,-3.24267
624,57.3089,0.487622,-3.24243
624.5,57.3584,0.484009,-3.24263
625,57.4092,0.47841,-3.24397
625.5,57.46,0.472069,-3.24537
626,57.51,0.475015,-3.24596
626.5,57.56,0.472206,-3.24596
627,57.6094,0.467012,-3.24625
627.5,57.6598,0.461399,-3.24728
628,57.711,0.461692,-3.24598
628.5,57.7609,0.458576,-3.24597
629,57.8116,0.450236,-3.24597
629.5,57.8612,0.458825,-3.24599
630,57.9096,0.457884,-3.24728
630.5,57.9608,0.456163,-3.24728
631,58.013,0.452484,-3.24728
631.5,58.0629,0.45839,-3.2469
632,58.1133,0.460864,-3.24564
632.5,58.1638,0.458782,-3.24563
633,58.214,0.455383,-3.24563
633.5,58.2645,0.454523,-3.24564
634,58.3157,0.459357,-3.24695
634.5,58.3663,0.45381,-3.24695
635,58.4157,0.451119,-3.24695
635.5,58.4641,0.45257,-3.2483
636,58.5165,0.448532,-3.24827
636.5,58.5674,0.450627,-3.24831
637,58.6181,0.445099,-3.2496
637.5,58.6677,0.444881,-3.25097
638,58.7181,0.451628,-3.24958
638.5,58.7691,0.447669,-3.24963
639,58.8194,0.445418,-3.24827
639.5,58.8693,0.447215,-3.24828
640,58.9207,0.44527,-3.24956
640.5,58.9711,0.440253,-3.24958
641,59.0208,0.441033,-3.24958
641.5,59.0709,0.441581,-3.24958
642,59.1212,0.427269,-3.25066
642.5,59.1701,0.431534,-3.25057
643,59.222,0.425645,-3.25057
643.5,59.2725,0.426182,-3.25058
644,59.3231,0.427975,-3.2509
644.5,59.3729,0.425488,-3.25081
645,59.4233,0.423041,-3.25221
645.5,59.4749,0.418297,-3.25354
646,59.5244,0.419634,-3.2535
646.5,59.5748,0.421184,-3.25485
647,59.6255,0.414866,-3.25483
647.5,59.6757,0.424971,-3.25584
648,59.7264,0.416509,-3.25716
648.5,59.7754,0.409635,-3.25692
649,59.8272,0.414832,-3.25584
649.5,59.8783,0.406801,-3.25585
650,59.9284,0.409946,-3.25485
650.5,59.9784,0.414072,-3.25485
651,60.0291,0.409392,-3.25478
651.5,60.0803,0.41349,-3.25588
652,60.1307,0.405187,-3.25584
652.5,60.1815,0.405617,-3.25584
653,60.231,0.406167,-3.25552
653.5,60.2801,0.41009,-3.25552
654,60.3317,0.408666,-3.25552
654.5,60.3838,0.41107,-3.25453
655,60.4338,0.408349,-3.25502
655.5,60.4846,0.41001,-3.25618
656,60.5348,0.40703,-3.25618
656.5,60.5862,0.402037,-3.25717
657,60.6361,0.400405,-3.25749
657.5,60.6865,0.406874,-3.25717
658,60.7371,0.411093,-3.25719
658.5,60.7871,0.410188,-3.25716
659,60.8358,0.397508,-3.25716
659.5,60.8882,0.402184,-3.25716
660,60.9386,0.404754,-3.25716
660.5,60.9889,0.403144,-3.25788
661,61.0397,0.403129,-3.25846
661.5,61.0897,0.409732,-3.25848
662,61.1401,0.406472,-3.25796
662.5,61.1906,0.402028,-3.25716
663,61.2416,0.396302,-3.25716
663.5,61.2919,0.392057,-3.25716
664,61.3422,0.389502,-3.25778
664.5,61.3921,0.389888,-3.25848
665,61.4427,0.38821,-3.25848
665.5,61.494,0.391568,-3.25848
666,61.5441,0.381925,-3.25913
666.5,61.594,0.375861,-3.25914
667,61.6455,0.374927,-3.25974
667.5,61.6959,0.374784,-3.26045
668,61.7456,0.373157,-3.26045
668.5,61.7966,0.373706,-3.26045
669,61.8472,0.371146,-3.26037
669.5,61.8967,0.365894,-3.26045
670,61.9461,0.369051,-3.26045
670.5,61.9991,0.375779,-3.26047
671,62.0496,0.3692,-3.26297
671.5,62.1006,0.366991,-3.26171
672,62.1509,0.361871,-3.26182
672.5,62.2024,0.37018,-3.26078
673,62.2508,0.36311,-3.26078
673.5,62.3029,0.358871,-3.26146
674,62.3548,0.36024,-3.2621
674.5,62.4046,0.361582,-3.26237
675,62.4562,0.352795,-3.26276
675.5,62.5069,0.357284,-3.26276
676,62.5576,0.355726,-3.26341
676.5,62.6079,0.348074,-3.26474
677,62.6587,0.352887,-3.26473
677.5,62.7089,0.352218,-3.26473
678,62.7599,0.345412,-3.26473
678.5,62.8102,0.350992,-3.26441
679,62.8614,0.353053,-3.26474
679.5,62.9117,0.346189,-3.26474
680,62.9634,0.344549,-3.26447
680.5,63.014,0.34106,-3.26441
681,63.0641,0.343879,-3.26441
681.5,63.1145,0.3392,-3.26441
682,63.1654,0.335134,-3.26441
682.5,63.2164,0.338249,-3.2651
683,63.2669,0.335513,-3.26576
683.5,63.3179,0.339733,-3.26704
684,63.3685,0.333746,-3.26704
684.5,63.42,0.339469,-3.26704
685,63.4703,0.331102,-3.26704
685.5,63.5215,0.324192,-3.26665
686,63.572,0.319554,-3.26735
686.5,63.6233,0.318276,-3.26737
687,63.6742,0.317756,-3.26738
687.5,63.7243,0.31574,-3.26605
688,63.7753,0.324968,-3.26633
688.5,63.8262,0.322707,-3.26837
689,63.8757,0.320578,-3.26869
689.5,63.9261,0.309937,-3.26861
690,63.9778,0.314832,-3.26907
690.5,64.0277,0.306977,-3.26902
691,64.0793,0.311577,-3.26902
691.5,64.1302,0.310076,-3.26902
692,64.1817,0.305487,-3.26902
692.5,64.2319,0.30878,-3.26901
693,64.2807,0.309015,-3.26965
693.5,64.3325,0.299214,-3.26967
694,64.3819,0.301633,-3.27002
694.5,64.4322,0.295718,-3.27012
695,64.4836,0.299365,-3.27099
695.5,64.5362,0.298464,-3.27099
696,64.5865,0.292716,-3.27099
696.5,64.6382,0.302697,-3.27099
697,64.6879,0.299283,-3.27099
697.5,64.74,0.299215,-3.26969
698,64.7901,0.29215,-3.26996
698.5,64.8412,0.289798,-3.27132
699,64.8926,0.285407,-3.27132
699.5,64.9441,0.279549,-3.27004
700,64.995,0.279283,-3.27089
700.5,65.0454,0.283081,-3.27133
701,65.0957,0.276051,-3.27133
701.5,65.1466,0.276168,-3.27133
702,65.1974,0.276163,-3.27133
702.5,65.249,0.276523,-3.27133
703,65.2993,0.26753,-3.27133
703.5,65.3486,0.268747,-3.27134
704,65.4001,0.265735,-3.27264
704.5,65.4528,0.262697,-3.27264
705,65.502,0.266057,-3.27264
705.5,65.5547,0.262363,-3.27385
706,65.6054,0.265061,-3.27395
706.5,65.6561,0.264089,-3.27527
707,65.7064,0.262587,-3.27453
707.5,65.7574,0.255265,-3.27396
708,65.8082,0.263341,-3.27396
708.5,65.8595,0.261549,-3.2726
709,65.9111,0.25229,-3.27264
709.5,65.961,0.252475,-3.27262
710,66.0123,0.253094,-3.27396
710.5,66.0633,0.257569,-3.27395
711,66.1147,0.258056,-3.27494
711.5,66.1649,0.247179,-3.27495
712,66.2159,0.251141,-3.27495
712.5,66.2672,0.239607,-3.27495
713,66.3171,0.240517,-3.27473
713.5,66.3681,0.237525,-3.27368
714,66.4191,0.231085,-3.27421
714.5,66.4713,0.226594,-3.27527
715,66.5222,0.230284,-3.27527
715.5,66.5724,0.225292,-3.27527
716,66.6234,0.222387,-3.27426
716.5,66.6719,0.221627,-3.27428
717,66.7256,0.217199,-3.27494
717.5,66.7761,0.212601,-3.27461
718,66.8268,0.212253,-3.27461
718.5,66.8785,0.212456,-3.27461
719,66.9297,0.210376,-3.2753
719.5,66.9815,0.211228,-3.27525
720,67.032,0.21301,-3.27683
720.5,67.0834,0.203703,-3.27758
721,67.1336,0.207654,-3.27627
721.5,67.1852,0.198179,-3.27627
722,67.2364,0.199962,-3.27627
722.5,67.2874,0.196933,-3.27559
723,67.3389,0.198057,-3.27605
723.5,67.3902,0.192093,-3.27626
724,67.4414,0.189882,-3.27626
724.5,67.4921,0.189406,-3.27626
725,67.5424,0.188992,-3.27626
725.5,67.5945,0.191169,-3.27622
726,67.6455,0.181733,-3.27758
726.5,67.6967,0.180767,-3.27758
727,67.7479,0.17368,-3.27758
727.5,67.7987,0.170565,-3.27758
728,67.8505,0.163807,-3.27756
728.5,67.9007,0.167152,-3.27856
729,67.9529,0.161096,-3.27741
729.5,68.001,0.157292,-3.27725
730,68.054,0.148292,-3.27618
730.5,68.1065,0.157707,-3.27626
731,68.1564,0.158148,-3.27626
731.5,68.2077,0.154816,-3.27756
732,68.2592,0.156185,-3.27758
732.5,68.3095,0.156338,-3.27623
733,68.3614,0.158367,-3.27627
733.5,68.4123,0.157214,-3.27684
734,68.4639,0.144326,-3.27692
734.5,68.5151,0.14297,-3.27758
735,68.5669,0.134679,-3.27889
735.5,68.6174,0.139932,-3.27889
736,68.6676,0.132469,-3.27889
736.5,68.7192,0.131647,-3.27891
737,68.7702,0.125649,-3.28021
737.5,68.8211,0.131501,-3.28021
738,68.873,0.136166,-3.28021
738.5,68.9233,0.134292,-3.28043
739,68.9744,0.135213,-3.28154
739.5,69.0263,0.134838,-3.28153
740,69.0768,0.136129,-3.28153