File: 01_Data/Helmet_Strap/STA/N2/10K_min/Helmet_Strap_STA_N2_10KData_250331_R2.csv
Temp./C,Time/min,DSC/(mW/mg),Mass loss/mg
60.0,0.0,0.610232,-0.0345872
60.6,0.0781978,0.622576,-0.0317273
61.2,0.15525,0.63581,-0.0308701
61.8,0.232655,0.646364,-0.0325651
62.4,0.307739,0.657659,-0.0354588
63,0.384072,0.665296,-0.0354355
63.6,0.456246,0.678302,-0.032597
64.2,0.531623,0.689979,-0.0340579
64.8,0.604814,0.702971,-0.0356114
65.4,0.677855,0.715319,-0.0358784
66,0.749469,0.721773,-0.0339061
66.6,0.821656,0.730578,-0.0339821
67.2,0.890574,0.738609,-0.0344954
67.8,0.96114,0.748699,-0.0354059
68.4,1.03132,0.759784,-0.0373126
69,1.09982,0.76551,-0.0379612
69.6,1.17016,0.774471,-0.0372037
70.2,1.23898,0.787402,-0.0372094
70.8,1.30743,0.79686,-0.0372887
71.4,1.37625,0.806751,-0.0386718
72,1.44391,0.81415,-0.0371525
72.6,1.50985,0.820768,-0.0357189
73.2,1.57756,0.831193,-0.0315904
73.8,1.64583,0.834199,-0.0374136
74.4,1.71132,0.837512,-0.0400588
75,1.77763,0.846033,-0.0400631
75.6,1.84218,0.85045,-0.038718
76.2,1.91043,0.856548,-0.0385301
76.8,1.97524,0.865474,-0.0399105
77.4,2.03781,0.877001,-0.0402127
78,2.10521,0.880802,-0.0415004
78.6,2.16987,0.891413,-0.0415038
79.2,2.2351,0.893294,-0.0414898
79.8,2.29922,0.908829,-0.0428146
80.4,2.36291,0.90353,-0.0415117
81,2.42751,0.908849,-0.0431729
81.6,2.49029,0.924623,-0.0441867
82.2,2.5537,0.926734,-0.0428107
82.8,2.619,0.935807,-0.041484
83.4,2.68012,0.944754,-0.0428014
84,2.74403,0.947448,-0.0441195
84.6,2.80606,0.955639,-0.0439564
85.2,2.86952,0.960351,-0.0428179
85.8,2.93207,0.961603,-0.0441307
86.4,2.99416,0.957064,-0.0454618
87,3.05666,0.96305,-0.0467758
87.6,3.11844,0.968175,-0.0438027
88.2,3.17983,0.966142,-0.0434855
88.8,3.24107,0.972094,-0.0447582
89.4,3.30253,0.966289,-0.0451356
90,3.36386,0.975645,-0.045464
90.6,3.42473,0.979761,-0.0460991
91.2,3.48502,0.975469,-0.046505
91.8,3.54613,0.970601,-0.0450891
92.4,3.60698,0.96618,-0.0464328
93,3.66781,0.973462,-0.0466514
93.6,3.72772,0.972935,-0.0464419
94.2,3.78815,0.970756,-0.0461123
94.8,3.84806,0.972361,-0.0447755
95.4,3.90936,0.962861,-0.0450889
96,3.96775,0.958254,-0.04545
96.6,4.02777,0.957073,-0.0454501
97.2,4.08704,0.961894,-0.0451343
97.8,4.14686,0.965978,-0.0460512
98.4,4.20381,0.962284,-0.0464594
99,4.26625,0.958953,-0.0477615
99.6,4.32613,0.962695,-0.047061
100.2,4.38457,0.951782,-0.0477502
100.8,4.44352,0.955088,-0.0486932
101.4,4.50129,0.950072,-0.0503256
102,4.56266,0.946717,-0.0507003
102.6,4.61981,0.944345,-0.0503826
103.2,4.68004,0.944302,-0.0490673
103.8,4.73817,0.938338,-0.0493833
104.4,4.79816,0.930988,-0.0490634
105,4.85667,0.933749,-0.0490719
105.6,4.91531,0.930975,-0.04907
106.2,4.97468,0.929629,-0.04907
106.8,5.03155,0.925665,-0.048983
107.4,5.09143,0.923522,-0.0490417
108,5.14824,0.928747,-0.0489612
108.6,5.20778,0.922958,-0.0497264
109.2,5.2623,0.920084,-0.05027
109.8,5.32447,0.918199,-0.05027
110.4,5.38368,0.904288,-0.0502702
111,5.44046,0.905046,-0.0502956
111.6,5.50001,0.906324,-0.0502599
112.2,5.55743,0.900337,-0.0500027
112.8,5.61569,0.895671,-0.0526045
113.4,5.67312,0.893165,-0.0517347
114,5.73149,0.897308,-0.0489616
114.6,5.78974,0.88577,-0.0499698
115.2,5.8474,0.887381,-0.0527072
115.8,5.90579,0.891228,-0.0498325
116.4,5.96435,0.88605,-0.0491878
117,6.02025,0.883735,-0.0482021
117.6,6.07961,0.883788,-0.048617
118.2,6.13821,0.890371,-0.0491796
118.8,6.19407,0.879161,-0.0486441
119.4,6.25314,0.881197,-0.04918
120,6.3118,0.885607,-0.05083
120.6,6.36834,0.889152,-0.0526645
121.2,6.42706,0.882174,-0.0496333
121.8,6.48495,0.891792,-0.0497288
122.4,6.53953,0.891873,-0.0484332
123,6.60008,0.893061,-0.0497299
123.6,6.65846,0.889272,-0.04973
124.2,6.71594,0.883566,-0.04973
124.8,6.77371,0.892664,-0.0502482
125.4,6.83079,0.896023,-0.0497216
126,6.88839,0.892385,-0.0511034
126.6,6.94546,0.896402,-0.0510504
127.2,7.00331,0.902614,-0.0521532
127.8,7.06168,0.90108,-0.0510476
128.4,7.11868,0.90395,-0.0497207
129,7.17634,0.893981,-0.0510421
129.6,7.23353,0.903147,-0.05105
130.2,7.2913,0.909749,-0.0510395
130.8,7.34962,0.906693,-0.0523586
131.4,7.40402,0.913332,-0.0523359
132,7.464,0.918994,-0.0497751
132.6,7.52033,0.914696,-0.0509371
133.2,7.57793,0.914479,-0.0543501
133.8,7.63538,0.914568,-0.0531722
134.4,7.69209,0.916376,-0.0524079
135,7.75001,0.913893,-0.0509311
135.6,7.80684,0.919304,-0.0508902
136.2,7.86439,0.924992,-0.0496252
136.8,7.92039,0.926308,-0.0502078
137.4,7.97813,0.923398,-0.0515686
138,8.03614,0.92498,-0.0523708
138.6,8.09286,0.931164,-0.0536816
139.2,8.14977,0.932728,-0.0536802
139.8,8.20739,0.928173,-0.0529333
140.4,8.2639,0.933024,-0.0519035
141,8.32199,0.933417,-0.0510505
141.6,8.37813,0.934074,-0.0523683
142.2,8.43553,0.932807,-0.0524152
142.8,8.49256,0.936082,-0.0523601
143.4,8.54935,0.93524,-0.05236
144,8.60539,0.940827,-0.05236
144.6,8.6623,0.943543,-0.0523617
145.2,8.72012,0.941431,-0.0536788
145.8,8.77681,0.944867,-0.05368
146.4,8.83276,0.944876,-0.0536794
147,8.88946,0.951368,-0.0566936
147.6,8.94643,0.957996,-0.0538048
148.2,9.00089,0.957731,-0.0525859
148.8,9.06022,0.957638,-0.05259
149.4,9.11659,0.96087,-0.0525926
150,9.17371,0.962133,-0.0539135
150.6,9.23068,0.967258,-0.0524865
151.2,9.28809,0.961087,-0.04974
151.8,9.34419,0.967986,-0.0510626
152.4,9.40047,0.966609,-0.0531129
153,9.45595,0.968933,-0.053893
153.6,9.51485,0.966321,-0.0542306
154.2,9.57013,0.971016,-0.0540215
154.8,9.62723,0.972114,-0.0527588
155.4,9.68509,0.971768,-0.0541294
156,9.74206,0.975466,-0.0547791
156.6,9.79823,0.979923,-0.0536758
157.2,9.85205,0.977469,-0.0545433
157.8,9.9115,0.98102,-0.0547018
158.4,9.96827,0.985224,-0.0560985
159,10.0245,0.982249,-0.0547791
159.6,10.082,0.981178,-0.0560943
160.2,10.1396,0.982253,-0.0574705
160.8,10.1944,0.988386,-0.0560702
161.4,10.2511,0.993112,-0.0574312
162,10.3085,0.992035,-0.0574104
162.6,10.365,0.999513,-0.0560863
163.2,10.4207,0.995423,-0.0556751
163.8,10.4785,0.995797,-0.0561137
164.4,10.5347,0.993689,-0.0574102
165,10.5913,0.998342,-0.05741
165.6,10.6483,1.00029,-0.057406
166.2,10.7045,1.00743,-0.0587294
166.8,10.7616,1.00242,-0.0578555
167.4,10.8177,1.00962,-0.0574275
168,10.8752,1.00271,-0.0587297
168.6,10.9321,1.00626,-0.0590877
169.2,10.9886,1.00578,-0.0596732
169.8,11.0452,1.00249,-0.06005
170.4,11.1014,1.01407,-0.0601963
171,11.1577,1.01445,-0.0600479
171.6,11.214,1.00718,-0.0598716
172.2,11.2713,1.0121,-0.0600499
172.8,11.3276,1.00914,-0.06005
173.4,11.3849,1.01454,-0.0600573
174,11.4412,1.02155,-0.0587306
174.6,11.4965,1.02183,-0.0600511
175.2,11.5546,1.03009,-0.06005
175.8,11.6106,1.02906,-0.0596233
176.4,11.6675,1.0239,-0.0599613
177,11.7242,1.02728,-0.06137
177.6,11.7811,1.03307,-0.06137
178.2,11.8373,1.03661,-0.0613697
178.8,11.8934,1.0361,-0.0637374
179.4,11.9499,1.03452,-0.0654894
180,12.0068,1.03051,-0.0618808
180.6,12.0635,1.04114,-0.06126
181.2,12.1204,1.04578,-0.0612343
181.8,12.176,1.03801,-0.0623437
182.4,12.2341,1.03609,-0.06335
183,12.2889,1.04572,-0.06335
183.6,12.3465,1.0454,-0.0633706
184.2,12.4024,1.0467,-0.0646592
184.8,12.459,1.04183,-0.0657954
185.4,12.5148,1.04711,-0.065297
186,12.5725,1.04951,-0.0663077
186.6,12.6285,1.05434,-0.0676177
187.2,12.6845,1.05201,-0.066201
187.8,12.7414,1.05917,-0.066201
188.4,12.7982,1.06372,-0.0675783
189,12.8544,1.06221,-0.0674618
189.6,12.9109,1.06475,-0.0688391
190.2,12.9679,1.06929,-0.0675248
190.8,13.0244,1.05629,-0.067522
191.4,13.08,1.06001,-0.0662017
192,13.137,1.05974,-0.0662
192.6,13.1942,1.06042,-0.0662
193.2,13.2495,1.05737,-0.0662
193.8,13.3072,1.06431,-0.0662
194.4,13.3624,1.06217,-0.0661231
195,13.4188,1.07052,-0.0684971
195.6,13.4762,1.07783,-0.0698169
196.2,13.5323,1.06865,-0.06982
196.8,13.5882,1.07185,-0.0698582
197.4,13.646,1.07877,-0.0711354
198,13.7024,1.0737,-0.0685266
198.6,13.756,1.0839,-0.0643447
199.2,13.8138,1.07382,-0.0633381
199.8,13.8706,1.07416,-0.0661405
200.4,13.9277,1.07512,-0.0744706
201,13.9851,1.06736,-0.0761048
201.6,14.0422,1.08784,-0.0778282
202.2,14.0986,1.09137,-0.0778762
202.8,14.1542,1.08068,-0.0765198
203.4,14.2103,1.08305,-0.0742733
204,14.2685,1.08839,-0.0738805
204.6,14.323,1.08793,-0.0751916
205.2,14.3796,1.08124,-0.0739383
205.8,14.4373,1.08445,-0.075199
206.4,14.4934,1.07842,-0.0765163
207,14.5498,1.08425,-0.0792663
207.6,14.6071,1.09251,-0.0801363
208.2,14.663,1.08825,-0.0788347
208.8,14.7198,1.08609,-0.0787274
209.4,14.7762,1.09024,-0.0788145
210,14.8331,1.0846,-0.0801422
210.6,14.8888,1.0862,-0.0801431
211.2,14.9471,1.08915,-0.0814591
211.8,15.0035,1.09351,-0.08146
212.4,15.0593,1.10157,-0.08146
213,15.1161,1.0955,-0.0814599
213.6,15.1725,1.10552,-0.0807558
214.2,15.2289,1.1053,-0.0807999
214.8,15.2867,1.10934,-0.0807924
215.4,15.3427,1.10767,-0.0834842
216,15.3994,1.11042,-0.0834301
216.6,15.454,1.11686,-0.08297
217.2,15.5121,1.11864,-0.0834807
217.8,15.5681,1.11353,-0.0858543
218.4,15.6256,1.10922,-0.0870608
219,15.6823,1.12058,-0.0870601
219.6,15.7388,1.11534,-0.0870578
220.2,15.7942,1.11745,-0.08706
220.8,15.8518,1.12146,-0.0870612
221.4,15.9084,1.12264,-0.0883859
222,15.9655,1.1253,-0.0888949
222.6,16.0218,1.12849,-0.0910126
223.2,16.0776,1.14336,-0.0909577
223.8,16.1342,1.14934,-0.0897431
224.4,16.1913,1.14526,-0.0884319
225,16.2486,1.15043,-0.0880398
225.6,16.3054,1.15444,-0.0880399
226.2,16.3627,1.16017,-0.0893649
226.8,16.4187,1.17044,-0.0893613
227.4,16.4749,1.17639,-0.0906819
228,16.5334,1.16931,-0.0906794
228.6,16.5892,1.16355,-0.0918797
229.2,16.6443,1.17612,-0.0920054
229.8,16.7015,1.18066,-0.0907043
230.4,16.7591,1.18243,-0.0933211
231,16.8152,1.18851,-0.0956094
231.6,16.8715,1.19333,-0.0955835
232.2,16.929,1.20141,-0.0959502
232.8,16.9849,1.1931,-0.0972983
233.4,17.0417,1.18931,-0.0976843
234,17.0989,1.19284,-0.0985985
234.6,17.1552,1.20082,-0.0947038
235.2,17.2116,1.19324,-0.0960073
235.8,17.269,1.19802,-0.100443
236.4,17.3254,1.20066,-0.10045
237,17.3824,1.18841,-0.100742
237.6,17.4373,1.18627,-0.10176
238.2,17.4953,1.17737,-0.103075
238.8,17.5515,1.17562,-0.103023
239.4,17.608,1.17036,-0.105041
240,17.6662,1.16566,-0.10638
240.6,17.7213,1.16679,-0.106386
241.2,17.7781,1.15975,-0.105062
241.8,17.8353,1.16318,-0.106313
242.4,17.8916,1.15389,-0.106889
243,17.9488,1.15217,-0.107655
243.6,18.0056,1.1484,-0.10901
244.2,18.0614,1.14044,-0.10901
244.8,18.1177,1.13667,-0.109649
245.4,18.1758,1.13641,-0.10967
246,18.2323,1.14093,-0.110977
246.6,18.2884,1.13262,-0.111955
247.2,18.3457,1.11976,-0.112308
247.8,18.4024,1.12536,-0.11355
248.4,18.4585,1.12465,-0.11494
249,18.5146,1.10855,-0.115158
249.6,18.5713,1.12358,-0.11691
250.2,18.6292,1.11476,-0.118108
250.8,18.6863,1.11055,-0.119549
251.4,18.7417,1.10366,-0.120859
252,18.7988,1.10511,-0.122267
252.6,18.8559,1.09751,-0.122184
253.2,18.9131,1.09779,-0.123503
253.8,18.9703,1.10108,-0.124881
254.4,19.027,1.09929,-0.126134
255,19.0839,1.09247,-0.127423
255.6,19.1402,1.09121,-0.126799
256.2,19.1964,1.09075,-0.126801
256.8,19.2535,1.08647,-0.12813
257.4,19.31,1.08345,-0.129446
258,19.3678,1.08704,-0.130775
258.6,19.425,1.08046,-0.13338
259.2,19.4814,1.07581,-0.134451
259.8,19.5381,1.0741,-0.13519
260.4,19.5945,1.07076,-0.136021
261,19.6507,1.06997,-0.137353
261.6,19.7086,1.07032,-0.13876
262.2,19.7643,1.06628,-0.140063
262.8,19.8215,1.0603,-0.142571
263.4,19.8786,1.05791,-0.146141
264,19.9362,1.05022,-0.147
264.6,19.992,1.04665,-0.146984
265.2,20.0494,1.04225,-0.147659
265.8,20.1071,1.03938,-0.14766
266.4,20.1632,1.04692,-0.149205
267,20.2206,1.04384,-0.152403
267.6,20.2767,1.03447,-0.155611
268.2,20.3338,1.03218,-0.157721
268.8,20.3907,1.03417,-0.158218
269.4,20.4476,1.02405,-0.15776
270,20.5046,1.01399,-0.157731
270.6,20.5611,1.01189,-0.159018
271.2,20.6183,0.998705,-0.162957
271.8,20.6755,0.993402,-0.164566
272.4,20.7321,0.986245,-0.164613
273,20.7887,0.97688,-0.164557
273.6,20.8461,0.965194,-0.165882
274.2,20.9028,0.95379,-0.168438
274.8,20.9574,0.948327,-0.169924
275.4,21.0166,0.950574,-0.171373
276,21.0731,0.966189,-0.172566
276.6,21.1291,0.973881,-0.177034
277.2,21.1881,0.989838,-0.180023
277.8,21.2448,1.00383,-0.178337
278.4,21.3026,1.02814,-0.179522
279,21.3601,1.03626,-0.18308
279.6,21.4174,1.05031,-0.186408
280.2,21.4741,1.07031,-0.187697
280.8,21.531,1.08222,-0.190423
281.4,21.5877,1.08724,-0.192588
282,21.6447,1.10192,-0.194676
282.6,21.7024,1.10353,-0.197139
283.2,21.7597,1.12142,-0.198201
283.8,21.8159,1.12699,-0.197129
284.4,21.8732,1.12575,-0.196283
285,21.9308,1.12959,-0.197598
285.6,21.9881,1.13899,-0.198731
286.2,22.0449,1.13324,-0.200269
286.8,22.1025,1.13601,-0.20023
287.4,22.1571,1.13645,-0.200248
288,22.2157,1.13613,-0.20156
288.6,22.2736,1.14031,-0.202886
289.2,22.3279,1.13651,-0.202858
289.8,22.3874,1.14738,-0.2042
290.4,22.4446,1.14634,-0.206763
291,22.5012,1.14369,-0.208061
291.6,22.5596,1.14986,-0.212537
292.2,22.6154,1.1476,-0.213961
292.8,22.6731,1.15274,-0.213961
293.4,22.7304,1.1505,-0.215334
294,22.7875,1.14535,-0.21627
294.6,22.845,1.14901,-0.216249
295.2,22.903,1.14671,-0.218225
295.8,22.9587,1.14513,-0.221145
296.4,23.0172,1.14107,-0.222426
297,23.0714,1.137,-0.223742
297.6,23.1306,1.14562,-0.222418
298.2,23.1879,1.14729,-0.222903
298.8,23.2455,1.14097,-0.223741
299.4,23.3027,1.132,-0.225052
300,23.3597,1.13098,-0.228013
300.6,23.4167,1.13164,-0.230041
301.2,23.4739,1.12083,-0.226915
301.8,23.5317,1.11568,-0.226003
302.4,23.5889,1.11672,-0.228911
303,23.6461,1.12059,-0.228892
303.6,23.7035,1.11733,-0.231293
304.2,23.7601,1.10807,-0.232836
304.8,23.8178,1.11263,-0.23285
305.4,23.8747,1.10684,-0.232854
306,23.932,1.10017,-0.231532
306.6,23.9894,1.09781,-0.233043
307.2,24.0464,1.08898,-0.236262
307.8,24.1045,1.08678,-0.238782
308.4,24.1608,1.08863,-0.240096
309,24.2189,1.07746,-0.240089
309.6,24.2762,1.07644,-0.238661
310.2,24.3336,1.08058,-0.23866
310.8,24.3908,1.07708,-0.239079
311.4,24.4483,1.06948,-0.241641
312,24.5053,1.0738,-0.24163
312.6,24.5629,1.063,-0.24163
313.2,24.6211,1.06291,-0.241641
313.8,24.6778,1.0661,-0.244299
314.4,24.7359,1.06705,-0.24427
315,24.7924,1.06684,-0.24427
315.6,24.8502,1.06689,-0.244218
316.2,24.9083,1.06123,-0.245586
316.8,24.9643,1.05775,-0.246833
317.4,25.0218,1.04703,-0.247403
318,25.0796,1.03924,-0.246902
318.6,25.1361,1.04113,-0.248221
319.2,25.1939,1.04517,-0.24822
319.8,25.2511,1.04725,-0.248124
320.4,25.3089,1.04054,-0.249538
321,25.366,1.0373,-0.251097
321.6,25.4231,1.02708,-0.251523
322.2,25.4807,1.02707,-0.252509
322.8,25.5389,1.02165,-0.254482
323.4,25.5953,1.01841,-0.25448
324,25.6531,1.01102,-0.254514
324.6,25.7108,1.00971,-0.25382
325.2,25.7685,1.01583,-0.25382
325.8,25.8259,1.00844,-0.25412
326.4,25.8828,1.00499,-0.255126
327,25.9393,1.00027,-0.256439
327.6,25.9981,0.999322,-0.255127
328.2,26.0543,1.00566,-0.257513
328.8,26.1126,0.991148,-0.26128
329.4,26.1706,0.988413,-0.257739
330,26.2287,0.991158,-0.25788
330.6,26.2844,0.981799,-0.257952
331.2,26.3444,0.992265,-0.256937
331.8,26.4007,0.98771,-0.258206
332.4,26.4594,0.98609,-0.259638
333,26.5155,0.982638,-0.259642
333.6,26.5738,0.982734,-0.264306
334.2,26.6315,0.975589,-0.262296
334.8,26.6903,0.977357,-0.262296
335.4,26.7475,0.982632,-0.263589
336,26.8047,0.981703,-0.262929
336.6,26.8628,0.977846,-0.264283
337.2,26.9201,0.973767,-0.26419
337.8,26.9783,0.979619,-0.263912
338.4,27.0357,0.977056,-0.26425
339,27.0927,0.978923,-0.262831
339.6,27.151,0.978844,-0.262932
340.2,27.2083,0.972278,-0.264287
340.8,27.2671,0.978666,-0.266881
341.4,27.3238,0.974103,-0.26688
342,27.3817,0.975624,-0.26952
342.6,27.4388,0.968059,-0.26952
343.2,27.4969,0.973294,-0.26853
343.8,27.5541,0.970101,-0.2682
344.4,27.6119,0.966184,-0.2682
345,27.6704,0.973263,-0.2682
345.6,27.7276,0.975031,-0.2682
346.2,27.786,0.976495,-0.270172
346.8,27.8436,0.961071,-0.27018
347.4,27.9011,0.969131,-0.270129
348,27.9594,0.978067,-0.271489
348.6,28.0171,0.984944,-0.271493
349.2,28.0731,0.988433,-0.272154
349.8,28.1317,0.98498,-0.272961
350.4,28.1904,0.993305,-0.271491
351,28.2479,0.988737,-0.270834
351.6,28.3067,0.995994,-0.270832
352.2,28.3642,1.00407,-0.272514
352.8,28.4219,1.00871,-0.274796
353.4,28.48,1.01319,-0.27479
354,28.5367,1.01615,-0.27479
354.6,28.5951,1.01645,-0.276039
355.2,28.6528,1.01876,-0.274791
355.8,28.7109,1.02481,-0.27479
356.4,28.7685,1.02487,-0.273419
357,28.8273,1.02667,-0.273471
357.6,28.8851,1.02739,-0.276091
358.2,28.9427,1.03745,-0.276455
358.8,29.0014,1.03985,-0.277422
359.4,29.0586,1.03781,-0.278758
360,29.1167,1.03938,-0.28006
360.6,29.1749,1.04363,-0.278745
361.2,29.2329,1.04062,-0.27874
361.8,29.2907,1.0431,-0.277493
362.4,29.3483,1.04462,-0.277418
363,29.4069,1.04693,-0.277731
363.6,29.465,1.05543,-0.277747
364.2,29.5232,1.05084,-0.279024
364.8,29.5809,1.05264,-0.280389
365.4,29.6391,1.06135,-0.279083
366,29.6969,1.06665,-0.277753
366.6,29.7538,1.0697,-0.27775
367.2,29.8134,1.06275,-0.27775
367.8,29.8714,1.07326,-0.277896
368.4,29.9287,1.07257,-0.27907
369,29.9877,1.07496,-0.278948
369.6,30.046,1.06961,-0.276876
370.2,30.1036,1.07385,-0.280007
370.8,30.1612,1.07949,-0.281378
371.4,30.2195,1.08027,-0.280066
372,30.2756,1.07397,-0.280048
372.6,30.335,1.08152,-0.279702
373.2,30.3935,1.08597,-0.280555
373.8,30.449,1.07866,-0.281688
374.4,30.5095,1.08504,-0.28105
375,30.5678,1.09373,-0.280286
375.6,30.6254,1.0959,-0.275078
376.2,30.6833,1.09666,-0.279632
376.8,30.7415,1.09315,-0.28242
377.4,30.7999,1.09994,-0.28456
378,30.8569,1.10146,-0.28456
378.6,30.9171,1.1037,-0.28456
379.2,30.9748,1.10164,-0.28456
379.8,31.0334,1.10277,-0.28456
380.4,31.0903,1.10498,-0.28456
381,31.1492,1.11604,-0.284113
381.6,31.2072,1.1208,-0.283285
382.2,31.2652,1.12629,-0.28587
382.8,31.3232,1.12877,-0.285872
383.4,31.3812,1.12679,-0.287199
384,31.4397,1.12963,-0.287191
384.6,31.4974,1.13672,-0.288513
385.2,31.5556,1.13703,-0.28851
385.8,31.6147,1.14545,-0.287764
386.4,31.6719,1.14719,-0.28807
387,31.7301,1.14703,-0.28851
387.6,31.7886,1.15793,-0.28851
388.2,31.8474,1.17024,-0.28851
388.8,31.9038,1.17088,-0.28851
389.4,31.9627,1.18139,-0.288405
390,32.0214,1.1851,-0.28942
390.6,32.0802,1.192,-0.289286
391.2,32.1383,1.20372,-0.28851
391.8,32.1944,1.21368,-0.287665
392.4,32.2549,1.22558,-0.28719
393,32.3127,1.23822,-0.28719
393.6,32.3704,1.2453,-0.28719
394.2,32.4291,1.25753,-0.287202
394.8,32.4869,1.27247,-0.289243
395.4,32.547,1.28204,-0.292946
396,32.6048,1.29352,-0.29421
396.6,32.6613,1.30391,-0.29421
397.2,32.7209,1.32127,-0.294075
397.8,32.7792,1.33304,-0.292898
398.4,32.8386,1.34688,-0.295374
399,32.8957,1.3659,-0.296259
399.6,32.9555,1.38844,-0.297905
400.2,33.0137,1.4034,-0.29795
400.8,33.0724,1.4288,-0.29846
401.4,33.1312,1.44363,-0.298844
402,33.1888,1.46221,-0.29708
402.6,33.2488,1.49023,-0.29708
403.2,33.3065,1.51309,-0.29708
403.8,33.3646,1.53077,-0.297042
404.4,33.4242,1.56,-0.300111
405,33.4817,1.58684,-0.29976
405.6,33.5406,1.62139,-0.299142
406.2,33.5978,1.64814,-0.298491
406.8,33.6575,1.67641,-0.298506
407.4,33.7164,1.71386,-0.300959
408,33.7762,1.75021,-0.302666
408.6,33.8342,1.79025,-0.303973
409.2,33.8933,1.82533,-0.305213
409.8,33.9521,1.86398,-0.306624
410.4,34.0107,1.91087,-0.306989
411,34.0703,1.93765,-0.309596
411.6,34.128,1.9842,-0.310928
412.2,34.1889,2.0331,-0.312645
412.8,34.2446,2.0803,-0.312457
413.4,34.3065,2.11674,-0.31375
414,34.3654,2.18636,-0.31374
414.6,34.4237,2.24598,-0.316395
415.2,34.483,2.29589,-0.315059
415.8,34.5424,2.34076,-0.31769
416.4,34.602,2.40138,-0.320572
417,34.6612,2.46017,-0.323782
417.6,34.7205,2.51416,-0.327896
418.2,34.7792,2.56379,-0.329903
418.8,34.8382,2.61812,-0.332167
419.4,34.8975,2.67025,-0.332663
420,34.9562,2.71542,-0.33352
420.6,35.0158,2.76246,-0.334837
421.2,35.0752,2.8012,-0.336479
421.8,35.1334,2.83614,-0.338435
422.4,35.1931,2.88367,-0.340681
423,35.2532,2.9076,-0.341572
423.6,35.311,2.93629,-0.344552
424.2,35.3706,2.95132,-0.346918
424.8,35.4293,2.971,-0.348918
425.4,35.487,2.99027,-0.351309
426,35.5461,2.9846,-0.35438
426.6,35.6055,2.98943,-0.357883
427.2,35.6643,2.98345,-0.362345
427.8,35.7224,2.97565,-0.367847
428.4,35.7815,2.95774,-0.371143
429,35.8401,2.94528,-0.374435
429.6,35.8988,2.91038,-0.377779
430.2,35.9568,2.88912,-0.380827
430.8,36.0157,2.85549,-0.385177
431.4,36.0735,2.81418,-0.392716
432,36.1315,2.76937,-0.397712
432.6,36.1908,2.72449,-0.401607
433.2,36.2484,2.68345,-0.40496
433.8,36.3061,2.62293,-0.409505
434.4,36.364,2.56963,-0.413092
435,36.4234,2.50979,-0.417111
435.6,36.4812,2.46809,-0.42257
436.2,36.5391,2.40541,-0.428193
436.8,36.5965,2.35501,-0.432067
437.4,36.6542,2.31064,-0.43647
438,36.7125,2.2612,-0.441991
438.6,36.7713,2.2203,-0.447977
439.2,36.8293,2.17409,-0.456649
439.8,36.8876,2.13735,-0.467528
440.4,36.9468,2.11167,-0.471245
441,37.0045,2.07932,-0.472637
441.6,37.0629,2.05818,-0.478381
442.2,37.1216,2.04006,-0.486928
442.8,37.1798,2.0189,-0.493257
443.4,37.2388,2.01191,-0.499323
444,37.2975,1.99897,-0.507839
444.6,37.3555,1.98441,-0.512971
445.2,37.4148,1.98338,-0.519889
445.8,37.4734,1.97918,-0.527112
446.4,37.5322,1.97409,-0.535936
447,37.5917,1.96466,-0.544562
447.6,37.6496,1.96311,-0.552223
448.2,37.7078,1.95782,-0.557946
448.8,37.7667,1.9586,-0.566217
449.4,37.8257,1.96527,-0.574221
450,37.8838,1.96276,-0.580784
450.6,37.9431,1.96337,-0.58952
451.2,38.0019,1.95714,-0.598135
451.8,38.06,1.9529,-0.607287
452.4,38.1203,1.95169,-0.615148
453,38.1757,1.95458,-0.622908
453.6,38.2365,1.95597,-0.632278
454.2,38.2949,1.94852,-0.640443
454.8,38.3546,1.9531,-0.649227
455.4,38.4117,1.95161,-0.654485
456,38.4695,1.9452,-0.664689
456.6,38.5295,1.95036,-0.671922
457.2,38.589,1.94951,-0.680731
457.8,38.6468,1.94225,-0.689946
458.4,38.7056,1.93579,-0.698201
459,38.7655,1.93089,-0.707448
459.6,38.8233,1.93313,-0.714118
460.2,38.8826,1.92275,-0.722182
460.8,38.9412,1.92148,-0.734084
461.4,39.0006,1.90915,-0.740039
462,39.0585,1.89743,-0.747074
462.6,39.1184,1.89196,-0.753885
463.2,39.1764,1.89671,-0.762231
463.8,39.2348,1.88462,-0.772208
464.4,39.2947,1.88128,-0.780552
465,39.3534,1.87767,-0.789146
465.6,39.4088,1.87211,-0.796131
466.2,39.4707,1.86161,-0.805231
466.8,39.5294,1.84764,-0.814275
467.4,39.5866,1.84236,-0.823882
468,39.6478,1.82799,-0.830841
468.6,39.7066,1.81932,-0.838358
469.2,39.7649,1.79846,-0.843686
469.8,39.8234,1.79341,-0.849593
470.4,39.8821,1.78126,-0.85878
471,39.9409,1.75495,-0.865043
471.6,39.9996,1.74614,-0.873804
472.2,40.0588,1.73663,-0.882585
472.8,40.1178,1.7174,-0.891399
473.4,40.1762,1.70939,-0.898342
474,40.2359,1.68758,-0.905617
474.6,40.2939,1.68586,-0.91276
475.2,40.3531,1.66126,-0.916437
475.8,40.4114,1.64245,-0.922634
476.4,40.4715,1.64033,-0.929847
477,40.53,1.61408,-0.937777
477.6,40.5894,1.60015,-0.944689
478.2,40.6473,1.59139,-0.950678
478.8,40.7062,1.56906,-0.958723
479.4,40.7649,1.54689,-0.963053
480,40.8242,1.54085,-0.968499
480.6,40.8824,1.53294,-0.971616
481.2,40.942,1.51457,-0.978625
481.8,41.0006,1.50682,-0.985486
482.4,41.0578,1.49193,-0.990141
483,41.1168,1.48169,-0.995756
483.6,41.1768,1.4733,-1.0017
484.2,41.2353,1.45971,-1.00693
484.8,41.2943,1.44862,-1.01045
485.4,41.3533,1.43953,-1.01552
486,41.4124,1.4281,-1.01966
486.6,41.4723,1.40432,-1.02596
487.2,41.5302,1.39764,-1.03137
487.8,41.5893,1.39323,-1.03647
488.4,41.6483,1.38337,-1.04178
489,41.7075,1.37302,-1.047
489.6,41.7662,1.36224,-1.05161
490.2,41.825,1.35293,-1.05646
490.8,41.8839,1.35095,-1.05945
491.4,41.9423,1.34023,-1.06341
492,42.0019,1.33645,-1.0689
492.6,42.0614,1.33402,-1.07432
493.2,42.1203,1.33132,-1.07766
493.8,42.1794,1.32065,-1.08048
494.4,42.2382,1.31808,-1.08722
495,42.2971,1.3074,-1.09091
495.6,42.3568,1.30253,-1.09588
496.2,42.4157,1.29112,-1.09973
496.8,42.4751,1.29123,-1.10341
497.4,42.5334,1.28419,-1.10651
498,42.5928,1.28016,-1.10923
498.6,42.6519,1.27134,-1.11507
499.2,42.7108,1.2688,-1.12366
499.8,42.7705,1.26566,-1.12605
500.4,42.8297,1.2608,-1.12828
501,42.8887,1.25427,-1.13067
501.6,42.9476,1.26352,-1.1371
502.2,43.0076,1.25723,-1.14297
502.8,43.0658,1.24859,-1.14798
503.4,43.1252,1.24759,-1.15118
504,43.1848,1.24245,-1.15392
504.6,43.2433,1.25122,-1.15731
505.2,43.3029,1.2427,-1.16217
505.8,43.3623,1.23578,-1.16855
506.4,43.4219,1.23703,-1.17257
507,43.4799,1.23572,-1.17664
507.6,43.539,1.2379,-1.17991
508.2,43.5981,1.23342,-1.18595
508.8,43.6579,1.23411,-1.1911
509.4,43.7162,1.23629,-1.19443
510,43.7763,1.23941,-1.1996
510.6,43.8361,1.22837,-1.20388
511.2,43.8942,1.22581,-1.20989
511.8,43.9538,1.224,-1.21525
512.4,44.0128,1.22293,-1.21628
513,44.0723,1.21834,-1.21733
513.6,44.1308,1.20761,-1.22039
514.2,44.1901,1.20537,-1.22378
514.8,44.2485,1.20534,-1.22918
515.4,44.3094,1.20128,-1.23336
516,44.3681,1.20549,-1.23878
516.6,44.4273,1.20298,-1.24545
517.2,44.4861,1.20057,-1.25306
517.8,44.5462,1.20448,-1.25862
518.4,44.6053,1.20757,-1.2578
519,44.6635,1.19805,-1.25949
519.6,44.7229,1.19534,-1.26458
520.2,44.7837,1.18944,-1.26855
520.8,44.8433,1.1974,-1.275
521.4,44.9014,1.19324,-1.27952
522,44.9613,1.18863,-1.28322
522.6,45.0204,1.19179,-1.28737
523.2,45.0806,1.18116,-1.29044
523.8,45.1401,1.19022,-1.29289
524.4,45.1987,1.19029,-1.29816
525,45.258,1.18465,-1.30356
525.6,45.318,1.19178,-1.30889
526.2,45.3769,1.1854,-1.31221
526.8,45.436,1.18389,-1.31582
527.4,45.4949,1.18653,-1.31997
528,45.5562,1.1809,-1.32563
528.6,45.6151,1.17958,-1.32906
529.2,45.6752,1.17489,-1.3322
529.8,45.7336,1.17186,-1.33832
530.4,45.7933,1.17156,-1.3431
531,45.8518,1.16529,-1.34796
531.6,45.9125,1.17135,-1.35037
532.2,45.9715,1.15617,-1.35461
532.8,46.0311,1.16103,-1.36169
533.4,46.0905,1.15206,-1.36559
534,46.1503,1.15129,-1.36963
534.6,46.2092,1.14906,-1.37291
535.2,46.2683,1.14451,-1.37796
535.8,46.3274,1.1396,-1.38001
536.4,46.3876,1.14691,-1.38462
537,46.4468,1.13281,-1.38969
537.6,46.5058,1.13412,-1.39651
538.2,46.5658,1.12299,-1.40288
538.8,46.6249,1.12229,-1.40814
539.4,46.6843,1.11479,-1.41247
540,46.7434,1.10722,-1.41649
540.6,46.8029,1.1028,-1.41986
541.2,46.8629,1.09479,-1.42175
541.8,46.9213,1.08912,-1.42343
542.4,46.9817,1.08211,-1.42642
543,47.04,1.08083,-1.43101
543.6,47.0999,1.07975,-1.43647
544.2,47.161,1.07425,-1.44143
544.8,47.2194,1.0666,-1.44359
545.4,47.2784,1.05613,-1.44702
546,47.3377,1.05232,-1.45271
546.6,47.3972,1.05133,-1.45431
547.2,47.4569,1.05012,-1.45904
547.8,47.5166,1.04262,-1.46279
548.4,47.574,1.04136,-1.46739
549,47.6359,1.03041,-1.47311
549.6,47.6948,1.02951,-1.47801
550.2,47.7544,1.02341,-1.47966
550.8,47.8132,1.01973,-1.48239
551.4,47.8724,1.01211,-1.48828
552,47.9315,1.00323,-1.49334
552.6,47.9923,0.99605,-1.49898
553.2,48.0508,0.99665,-1.50572
553.8,48.1097,0.984651,-1.50559
554.4,48.1689,0.972943,-1.50766
555,48.2294,0.968881,-1.51236
555.6,48.2891,0.959914,-1.516
556.2,48.3484,0.952224,-1.51957
556.8,48.4079,0.965001,-1.5214
557.4,48.467,0.956662,-1.52434
558,48.5262,0.948412,-1.5274
558.6,48.586,0.948215,-1.53329
559.2,48.6446,0.935045,-1.53746
559.8,48.7045,0.929047,-1.54758
560.4,48.764,0.926081,-1.54651
561,48.8235,0.917305,-1.54711
561.6,48.8829,0.912229,-1.55215
562.2,48.9422,0.909032,-1.55518
562.8,49.0011,0.894394,-1.5573
563.4,49.0609,0.886014,-1.56262
564,49.1196,0.889516,-1.56892
564.6,49.1802,0.877409,-1.57188
565.2,49.239,0.877376,-1.57477
565.8,49.2986,0.871328,-1.58297
566.4,49.3576,0.858756,-1.58721
567,49.4177,0.859143,-1.58198
567.6,49.4763,0.847844,-1.58318
568.2,49.5365,0.850045,-1.58856
568.8,49.5965,0.848266,-1.59342
569.4,49.655,0.834713,-1.59796
570,49.7158,0.828686,-1.60159
570.6,49.7746,0.825167,-1.6051
571.2,49.8338,0.815497,-1.60852
571.8,49.8922,0.818377,-1.60998
572.4,49.9523,0.809422,-1.61287
573,50.012,0.809696,-1.61584
573.6,50.0716,0.803491,-1.62088
574.2,50.1318,0.801462,-1.62459
574.8,50.1911,0.794008,-1.62783
575.4,50.2508,0.794575,-1.63065
576,50.3105,0.788874,-1.63232
576.6,50.3695,0.782944,-1.63548
577.2,50.4296,0.785632,-1.63827
577.8,50.489,0.774665,-1.64026
578.4,50.5489,0.773317,-1.64447
579,50.6075,0.773323,-1.64533
579.6,50.6676,0.768617,-1.64745
580.2,50.7267,0.759269,-1.64894
580.8,50.7863,0.760653,-1.65191
581.4,50.8461,0.749396,-1.65508
582,50.905,0.745699,-1.65818
582.6,50.9654,0.743252,-1.66072
583.2,51.0243,0.746848,-1.66323
583.8,51.0844,0.739338,-1.66654
584.4,51.1437,0.727413,-1.66966
585,51.2032,0.724377,-1.67374
585.6,51.2628,0.72669,-1.67599
586.2,51.3227,0.721543,-1.67839
586.8,51.3829,0.720739,-1.68171
587.4,51.4427,0.721467,-1.68365
588,51.5023,0.711173,-1.68634
588.6,51.5611,0.705468,-1.68861
589.2,51.6209,0.701182,-1.69146
589.8,51.6803,0.700802,-1.69452
590.4,51.7409,0.701195,-1.69605
591,51.8001,0.702947,-1.70206
591.6,51.861,0.700228,-1.69921
592.2,51.9197,0.698861,-1.69981
592.8,51.9796,0.699626,-1.70125
593.4,52.0394,0.697488,-1.7063
594,52.0982,0.689663,-1.70843
594.6,52.1588,0.691421,-1.70977
595.2,52.2188,0.693657,-1.70976
595.8,52.2789,0.689653,-1.71241
596.4,52.3385,0.685876,-1.71457
597,52.398,0.684675,-1.7174
597.6,52.4579,0.677015,-1.71889
598.2,52.5175,0.686896,-1.72214
598.8,52.5781,0.67617,-1.724
599.4,52.6369,0.682537,-1.72502
600,52.6973,0.680387,-1.72686
600.6,52.7575,0.681464,-1.72864
601.2,52.8169,0.679051,-1.73217
601.8,52.8767,0.686615,-1.73511
602.4,52.9368,0.682292,-1.73796
603,52.9968,0.680438,-1.73797
603.6,53.0559,0.681362,-1.7386
604.2,53.116,0.681311,-1.73952
604.8,53.1762,0.674814,-1.74236
605.4,53.236,0.686141,-1.74368
606,53.2965,0.68282,-1.74645
606.6,53.3564,0.680713,-1.75409
607.2,53.4163,0.682865,-1.75108
607.8,53.4757,0.677826,-1.7493
608.4,53.5357,0.679734,-1.7519
609,53.5957,0.682207,-1.75526
609.6,53.6553,0.676671,-1.7581
610.2,53.716,0.676661,-1.76016
610.8,53.7751,0.683818,-1.76178
611.4,53.835,0.684944,-1.76284
612,53.8948,0.678655,-1.76364
612.6,53.9548,0.673529,-1.76586
613.2,54.0144,0.678948,-1.76852
613.8,54.0737,0.682907,-1.77034
614.4,54.1348,0.684163,-1.77044
615,54.1949,0.677567,-1.77118
615.6,54.2544,0.6755,-1.77256
616.2,54.3141,0.686479,-1.77461
616.8,54.3737,0.678853,-1.77774
617.4,54.4348,0.680924,-1.77847
618,54.4941,0.681843,-1.7806
618.6,54.5541,0.68172,-1.78102
619.2,54.6142,0.682561,-1.78326
619.8,54.674,0.681296,-1.78341
620.4,54.7341,0.68021,-1.78463
621,54.7938,0.672844,-1.78939
621.6,54.854,0.676483,-1.79025
622.2,54.9139,0.690594,-1.787
622.8,54.9734,0.686987,-1.78834
623.4,55.0335,0.685153,-1.78968
624,55.094,0.689237,-1.79157
624.6,55.1539,0.686514,-1.79398
625.2,55.2134,0.681891,-1.79702
625.8,55.2727,0.680113,-1.80084
626.4,55.3328,0.673826,-1.80361
627,55.3934,0.674919,-1.80368
627.6,55.4525,0.683281,-1.8021
628.2,55.5127,0.681449,-1.80283
628.8,55.5734,0.66814,-1.8006
629.4,55.6325,0.674812,-1.80303
630,55.6931,0.673595,-1.80607
630.6,55.7528,0.665743,-1.8061
631.2,55.8116,0.672419,-1.80687
631.8,55.8728,0.669854,-1.80726
632.4,55.9328,0.663739,-1.81197
633,55.9923,0.666111,-1.81457
633.6,56.0524,0.660977,-1.81586
634.2,56.1121,0.665998,-1.81565
634.8,56.1716,0.665143,-1.81798
635.4,56.2327,0.661724,-1.81906
636,56.292,0.666877,-1.82115
636.6,56.3519,0.67132,-1.82171
637.2,56.4121,0.670353,-1.82207
637.8,56.472,0.66707,-1.82202
638.4,56.532,0.663572,-1.82338
639,56.5914,0.66563,-1.82428
639.6,56.6505,0.661433,-1.82594
640.2,56.7118,0.66903,-1.82765
640.8,56.7725,0.670424,-1.82741
641.4,56.8318,0.66619,-1.82743
642,56.8933,0.659857,-1.82876
642.6,56.9524,0.663204,-1.83008
643.2,57.0117,0.658215,-1.83158
643.8,57.0723,0.667931,-1.83499
644.4,57.1322,0.655644,-1.83425
645,57.1915,0.645974,-1.83265
645.6,57.2516,0.651179,-1.83393
646.2,57.3106,0.644007,-1.83523
646.8,57.3712,0.643786,-1.83519
647.4,57.4312,0.63893,-1.83702
648,57.4913,0.638143,-1.83787
648.6,57.5512,0.63195,-1.83871
649.2,57.6096,0.632593,-1.84073
649.8,57.6703,0.625747,-1.84649
650.4,57.7304,0.618442,-1.84594
651,57.7907,0.615875,-1.84424
651.6,57.8499,0.614833,-1.84424
652.2,57.9103,0.616776,-1.84519
652.8,57.97,0.603376,-1.84652
653.4,58.0303,0.610575,-1.84824
654,58.0895,0.604576,-1.84955
654.6,58.1497,0.607508,-1.8489
655.2,58.2102,0.598744,-1.84867
655.8,58.2704,0.595938,-1.84951
656.4,58.3292,0.601301,-1.85368
657,58.389,0.590454,-1.85522
657.6,58.4492,0.581638,-1.85641
658.2,58.5083,0.57776,-1.85942
658.8,58.5684,0.572033,-1.85531
659.4,58.6281,0.565568,-1.85357
660,58.6887,0.567087,-1.85355
660.6,58.7483,0.568967,-1.8562
661.2,58.8075,0.560904,-1.85885
661.8,58.8676,0.551475,-1.85995
662.4,58.9277,0.549902,-1.86578
663,58.9875,0.54452,-1.86133
663.6,59.0478,0.5469,-1.86067
664.2,59.1072,0.542689,-1.86239
664.8,59.1674,0.536938,-1.86608
665.4,59.2273,0.535486,-1.86772
666,59.287,0.534302,-1.86796
666.6,59.3468,0.521067,-1.868
667.2,59.407,0.519247,-1.86789
667.8,59.4665,0.516322,-1.86784
668.4,59.5274,0.502979,-1.86785
669,59.587,0.503282,-1.86784
669.6,59.6468,0.50402,-1.86926
670.2,59.7057,0.502732,-1.86993
670.8,59.766,0.493585,-1.87059
671.4,59.8261,0.490049,-1.87059
672,59.8861,0.478373,-1.8719
672.6,59.9446,0.474814,-1.87211
673.2,60.0057,0.466172,-1.87323
673.8,60.0655,0.458464,-1.87453
674.4,60.1229,0.446153,-1.8742
675,60.1848,0.442218,-1.88038
675.6,60.2451,0.442696,-1.88408
676.2,60.3038,0.428919,-1.88409
676.8,60.3638,0.426132,-1.88544
677.4,60.4225,0.422543,-1.88443
678,60.4837,0.416761,-1.88541
678.6,60.5437,0.41404,-1.88672
679.2,60.6031,0.408219,-1.88809
679.8,60.6633,0.399247,-1.88674
680.4,60.7225,0.38648,-1.88567
681,60.7827,0.377835,-1.8857
681.6,60.8415,0.373838,-1.8881
682.2,60.9015,0.36632,-1.8898
682.8,60.9605,0.365341,-1.89025
683.4,61.0215,0.34919,-1.89207
684,61.0805,0.337693,-1.89384
684.6,61.1412,0.329274,-1.89513
685.2,61.2003,0.324475,-1.89586
685.8,61.2604,0.313162,-1.89649
686.4,61.3197,0.302549,-1.89649
687,61.3789,0.304171,-1.89684
687.6,61.4397,0.298312,-1.89814
688.2,61.4994,0.284641,-1.89915
688.8,61.5595,0.274766,-1.89906
689.4,61.6182,0.274552,-1.89913
690,61.6785,0.269422,-1.89913
690.6,61.7382,0.256104,-1.89931
691.2,61.7977,0.25054,-1.90088
691.8,61.8576,0.230129,-1.90353
692.4,61.9175,0.227429,-1.90668
693,61.9777,0.221752,-1.90883
693.6,62.0378,0.209257,-1.90757
694.2,62.0972,0.207834,-1.90758
694.8,62.158,0.2053,-1.90759
695.4,62.2172,0.192897,-1.90878
696,62.2771,0.184934,-1.90889
696.6,62.3381,0.185289,-1.9102
697.2,62.397,0.177291,-1.91153
697.8,62.4568,0.168006,-1.91153
698.4,62.5166,0.156535,-1.91285
699,62.5764,0.1516,-1.9145
699.6,62.6358,0.146207,-1.9148
700.2,62.694,0.135278,-1.91582
700.8,62.7551,0.133642,-1.91715
701.4,62.8156,0.118229,-1.91845
702,62.8747,0.108756,-1.9198
702.6,62.9351,0.10911,-1.91932
703.2,62.9929,0.102972,-1.91976
703.8,63.0545,0.0780965,-1.92107
704.4,63.1145,0.0779199,-1.9224
705,63.1738,0.0726245,-1.9224
705.6,63.2339,0.0745234,-1.92241
706.2,63.2943,0.0651298,-1.92234
706.8,63.3541,0.066538,-1.92237
707.4,63.4131,0.0557436,-1.92384
708,63.4734,0.0502207,-1.92639
708.6,63.5335,0.0380407,-1.92767
709.2,63.5934,0.031415,-1.92884
709.8,63.6536,0.0190098,-1.92767
710.4,63.7125,0.0113908,-1.92769
711,63.7717,-0.00292179,-1.92888
711.6,63.833,-0.0100587,-1.929
712.2,63.8927,-0.0204234,-1.93031
712.8,63.9523,-0.0297993,-1.93329
713.4,64.0122,-0.0384866,-1.93572
714,64.0721,-0.0518682,-1.93754
714.6,64.1324,-0.0531788,-1.93975
715.2,64.1924,-0.0646067,-1.94111
715.8,64.2523,-0.0720024,-1.94238
716.4,64.3106,-0.0830611,-1.9437
717,64.3729,-0.0858307,-1.94371
717.6,64.4332,-0.0900001,-1.94238
718.2,64.4938,-0.0987705,-1.94238
718.8,64.5529,-0.104166,-1.94341
719.4,64.6133,-0.114241,-1.94489
720,64.6732,-0.126632,-1.94502
720.6,64.7331,-0.127042,-1.94345
721.2,64.7924,-0.133954,-1.94363
721.8,64.8533,-0.14514,-1.94491
722.4,64.9136,-0.159793,-1.94625
723,64.9744,-0.166521,-1.94855
723.6,65.0348,-0.179349,-1.94855
724.2,65.0942,-0.18418,-1.95031
724.8,65.1546,-0.185393,-1.95273
725.4,65.2154,-0.19679,-1.95399
726,65.276,-0.212861,-1.95533
726.6,65.3356,-0.22233,-1.95533
727.2,65.3956,-0.242094,-1.95666
727.8,65.4557,-0.244629,-1.95881
728.4,65.5162,-0.26303,-1.95643
729,65.5764,-0.26606,-1.95873
729.6,65.6366,-0.274937,-1.95975
730.2,65.6971,-0.278305,-1.96314
730.8,65.7566,-0.29178,-1.96337
731.4,65.8146,-0.295757,-1.96204
732,65.8762,-0.313141,-1.96335
732.6,65.9359,-0.329197,-1.96335
733.2,65.9977,-0.342944,-1.96456
733.8,66.0578,-0.345805,-1.96467
734.4,66.1166,-0.359056,-1.96599
735,66.178,-0.367622,-1.96739
735.6,66.2383,-0.375796,-1.97047
736.2,66.2978,-0.389164,-1.97297
736.8,66.3576,-0.396862,-1.97378
737.4,66.4177,-0.401944,-1.97433
738,66.4773,-0.416422,-1.97568
738.6,66.5376,-0.415399,-1.97602
739.2,66.5984,-0.429753,-1.97595
739.8,66.6587,-0.432735,-1.97862
740.4,66.7197,-0.441824,-1.97994
741,66.7789,-0.446335,-1.97912
741.6,66.8388,-0.45884,-1.97975
742.2,66.8992,-0.477996,-1.97993
742.8,66.9595,-0.477495,-1.98133
743.4,67.0202,-0.487922,-1.98253
744,67.0799,-0.489961,-1.98387
744.6,67.1406,-0.508865,-1.98433
745.2,67.2007,-0.516824,-1.98553
745.8,67.2612,-0.530996,-1.98601
746.4,67.3216,-0.545853,-1.98803
747,67.381,-0.547134,-1.98923
747.6,67.4415,-0.553213,-1.99051
748.2,67.5021,-0.56323,-1.98927
748.8,67.5614,-0.576175,-1.98927
749.4,67.6226,-0.583892,-1.98795
750,67.6829,-0.584997,-1.9891
750.6,67.743,-0.60209,-1.98938
751.2,67.8026,-0.613025,-1.99227
751.8,67.8635,-0.614991,-1.99461
752.4,67.9242,-0.621848,-1.99694
753,67.9836,-0.635092,-1.99672
753.6,68.0444,-0.646873,-1.99672
754.2,68.1043,-0.64616,-1.99804
754.8,68.1652,-0.650783,-1.99803
755.4,68.2253,-0.663957,-2.00006
756,68.2858,-0.670472,-2.00135
756.6,68.3449,-0.686008,-2.00134
757.2,68.4061,-0.687573,-2.00131
757.8,68.4668,-0.694448,-2.00353
758.4,68.5271,-0.698237,-2.00435
759,68.5873,-0.718978,-2.00485
759.6,68.6477,-0.727137,-2.00617
760.2,68.7085,-0.730988,-2.0055
760.8,68.769,-0.737053,-2.00683
761.4,68.8273,-0.745732,-2.00746
762,68.8898,-0.757598,-2.00809
762.6,68.9489,-0.758707,-2.00887
763.2,69.0098,-0.769777,-2.00879
763.8,69.0703,-0.779532,-2.00899
764.4,69.1309,-0.784911,-2.01163
765,69.1914,-0.789876,-2.01024
765.6,69.2519,-0.79952,-2.00892
766.2,69.312,-0.814096,-2.00896
766.8,69.3726,-0.812071,-2.01018
767.4,69.4326,-0.832147,-2.01246
768,69.4929,-0.830664,-2.0148
768.6,69.5531,-0.846374,-2.01681
769.2,69.6122,-0.848921,-2.01738
769.8,69.6725,-0.859247,-2.01945
770.4,69.7326,-0.86669,-2.01917
771,69.7939,-0.874233,-2.01944
771.6,69.8543,-0.887483,-2.02142
772.2,69.9118,-0.896426,-2.02274
772.8,69.974,-0.903313,-2.02155
773.4,70.0344,-0.915911,-2.02275
774,70.0954,-0.921541,-2.02144
774.6,70.1555,-0.921138,-2.02276
775.2,70.2151,-0.926971,-2.02275
775.8,70.2759,-0.93978,-2.02406
776.4,70.336,-0.944526,-2.02406
777,70.3969,-0.946024,-2.02538
777.6,70.4569,-0.957786,-2.02538
778.2,70.5157,-0.965948,-2.0267
778.8,70.578,-0.973094,-2.0267
779.4,70.6382,-0.986607,-2.02919
780,70.6984,-0.986755,-2.03195
780.6,70.7591,-1.00065,-2.03196
781.2,70.8195,-1.0082,-2.03196
781.8,70.8788,-1.00469,-2.03192
782.4,70.9406,-1.02795,-2.03249
783,71.0003,-1.0218,-2.03342
783.6,71.0609,-1.01958,-2.03471
784.2,71.1213,-1.02731,-2.03338
784.8,71.1812,-1.03652,-2.03392
785.4,71.242,-1.04078,-2.03405
786,71.3026,-1.05091,-2.03273
786.6,71.3627,-1.0533,-2.03142
787.2,71.4236,-1.06142,-2.03127
787.8,71.4834,-1.06125,-2.03011
788.4,71.5448,-1.06544,-2.03142
789,71.6042,-1.07201,-2.03342
789.6,71.6653,-1.0833,-2.03616
790.2,71.7246,-1.08956,-2.03769
790.8,71.7863,-1.10388,-2.03925
791.4,71.8462,-1.10436,-2.03833
792,71.9069,-1.10779,-2.03827
792.6,71.9673,-1.10891,-2.03955
793.2,72.0281,-1.11531,-2.03888
793.8,72.0877,-1.10583,-2.03886
794.4,72.1486,-1.10918,-2.04085
795,72.2073,-1.1199,-2.04086
795.6,72.2697,-1.12326,-2.04218
796.2,72.3291,-1.12079,-2.04086
796.8,72.39,-1.1245,-2.04086
797.4,72.451,-1.12558,-2.04129
798,72.5112,-1.1281,-2.04204
798.6,72.5718,-1.13481,-2.04217
799.2,72.6319,-1.13501,-2.04218
799.8,72.6934,-1.14564,-2.04195
800.4,72.7541,-1.14795,-2.04216
801,72.8144,-1.14339,-2.0439
801.6,72.8761,-1.15531,-2.04888
802.2,72.9358,-1.16199,-2.04548
802.8,72.9964,-1.17416,-2.04393
803.4,73.0574,-1.1727,-2.04525
804,73.118,-1.17363,-2.04538
804.6,73.1782,-1.17872,-2.04525
805.2,73.2393,-1.16799,-2.04415
805.8,73.2995,-1.17272,-2.04393
806.4,73.3604,-1.17379,-2.0443
807,73.4212,-1.18004,-2.04664
807.6,73.4823,-1.18967,-2.04812
808.2,73.5426,-1.1976,-2.04937
808.8,73.6039,-1.19666,-2.04932
809.4,73.6636,-1.20969,-2.04926
810,73.7249,-1.21932,-2.05063
810.6,73.7859,-1.21369,-2.05194
811.2,73.846,-1.22381,-2.05194
811.8,73.9069,-1.22221,-2.05062
812.4,73.9677,-1.22533,-2.05092
813,74.0288,-1.23099,-2.05107
813.6,74.0896,-1.23953,-2.05226
814.2,74.151,-1.2398,-2.05096
814.8,74.2109,-1.25166,-2.05096
815.4,74.2719,-1.24737,-2.05228
816,74.3339,-1.24763,-2.0535
816.6,74.3941,-1.2535,-2.05362
817.2,74.455,-1.25735,-2.05491
817.8,74.5162,-1.27243,-2.05623
818.4,74.5771,-1.2773,-2.05761
819,74.6377,-1.27312,-2.05647
819.6,74.6987,-1.26685,-2.05664
820.2,74.7597,-1.27846,-2.05657
820.8,74.8203,-1.27593,-2.05788
821.4,74.8821,-1.28284,-2.05789
822,74.9422,-1.28146,-2.06063
822.6,75.0023,-1.28853,-2.06062
823.2,75.0625,-1.28402,-2.05918
823.8,75.1255,-1.285,-2.05927
824.4,75.1862,-1.30078,-2.0593
825,75.2475,-1.30956,-2.06039
825.6,75.3081,-1.30643,-2.0606
826.2,75.3696,-1.30682,-2.06127
826.8,75.4306,-1.31802,-2.06062
827.4,75.4908,-1.31856,-2.06062
828,75.5518,-1.32273,-2.06069
828.6,75.613,-1.33287,-2.06325
829.2,75.6742,-1.33355,-2.06393
829.8,75.7358,-1.33207,-2.06382
830.4,75.7956,-1.34759,-2.06391
831,75.8573,-1.3346,-2.06457
831.6,75.9191,-1.33964,-2.06414
832.2,75.9803,-1.34611,-2.06194
832.8,76.041,-1.3439,-2.06194
833.4,76.1023,-1.34105,-2.06194
834,76.1634,-1.34229,-2.06147
834.6,76.2246,-1.34268,-2.06194
835.2,76.2859,-1.35128,-2.06194
835.8,76.3438,-1.35481,-2.06322
836.4,76.4079,-1.34773,-2.06455
837,76.4688,-1.34725,-2.06589
837.6,76.5298,-1.3435,-2.06589
838.2,76.5902,-1.33937,-2.06589
838.8,76.6511,-1.34948,-2.06567
839.4,76.7124,-1.34855,-2.06447
840,76.7735,-1.34825,-2.06592