File: 01_Data/Helmet_Strap/STA/N2/10K_min/Helmet_Strap_STA_N2_10KData_250401_R3.csv
Temp./C,Time/min,DSC/(mW/mg),Mass loss/mg
60.0,0.0,0.564733,-0.0322272
60.6,0.0840529,0.577253,-0.0325022
61.2,0.159634,0.583748,-0.0325174
61.8,0.237829,0.593075,-0.0328304
62.4,0.312919,0.61212,-0.0325596
63,0.387526,0.619171,-0.0325589
63.6,0.45541,0.637022,-0.0341183
64.2,0.532269,0.640331,-0.0351808
64.8,0.606513,0.649981,-0.0344067
65.4,0.678291,0.663834,-0.0342055
66,0.74918,0.670458,-0.0343877
66.6,0.821593,0.678055,-0.0350109
67.2,0.891853,0.684159,-0.0361446
67.8,0.960506,0.693955,-0.0358407
68.4,1.03029,0.694639,-0.0357994
69,1.10151,0.703214,-0.0358446
69.6,1.16983,0.717809,-0.0358072
70.2,1.23934,0.725496,-0.0357416
70.8,1.30714,0.729363,-0.0357388
71.4,1.37583,0.738711,-0.038106
72,1.44289,0.745842,-0.037884
72.6,1.50929,0.755883,-0.0371274
73.2,1.57618,0.7718,-0.0385066
73.8,1.64436,0.769659,-0.038296
74.4,1.70872,0.77451,-0.0371034
75,1.77573,0.777006,-0.037093
75.6,1.8422,0.791097,-0.035791
76.2,1.90803,0.799224,-0.0357918
76.8,1.97422,0.805098,-0.0344708
77.4,2.03648,0.80955,-0.0372226
78,2.10408,0.812498,-0.0394667
78.6,2.16783,0.818998,-0.0388513
79.2,2.23374,0.825506,-0.039008
79.8,2.29848,0.834571,-0.0394261
80.4,2.36194,0.837094,-0.0401845
81,2.42645,0.843045,-0.0401807
81.6,2.49093,0.847181,-0.0401928
82.2,2.55231,0.851152,-0.0388715
82.8,2.61611,0.859249,-0.0401633
83.4,2.67911,0.857539,-0.0415032
84,2.74279,0.864491,-0.0401904
84.6,2.8041,0.871467,-0.0416247
85.2,2.86815,0.868525,-0.0415294
85.8,2.93076,0.878016,-0.0423937
86.4,2.99216,0.886757,-0.0415868
87,3.0538,0.884641,-0.042495
87.6,3.11492,0.887529,-0.0427997
88.2,3.17734,0.894877,-0.04084
88.8,3.23847,0.893128,-0.0395161
89.4,3.30017,0.893446,-0.0395371
90,3.36039,0.900233,-0.0408391
90.6,3.42106,0.89182,-0.0422461
91.2,3.48367,0.89677,-0.0435257
91.8,3.54314,0.903496,-0.0421806
92.4,3.60344,0.895817,-0.043467
93,3.66098,0.899667,-0.0434505
93.6,3.72512,0.895195,-0.04347
94.2,3.78486,0.889813,-0.0433909
94.8,3.84421,0.883619,-0.0447898
95.4,3.90305,0.886411,-0.0441595
96,3.9641,0.882926,-0.0447998
96.6,4.02523,0.887115,-0.0447997
97.2,4.08364,0.886938,-0.0448796
97.8,4.14302,0.883807,-0.0448137
98.4,4.20133,0.880696,-0.0451913
99,4.25986,0.880242,-0.0464953
99.6,4.31926,0.872227,-0.0468609
100.2,4.37871,0.874587,-0.0459935
100.8,4.43775,0.872872,-0.0446805
101.4,4.49684,0.867832,-0.0460458
102,4.55572,0.859091,-0.046
102.6,4.61394,0.857823,-0.0464895
103.2,4.66994,0.85584,-0.045915
103.8,4.73279,0.848532,-0.0473259
104.4,4.78993,0.845063,-0.0481669
105,4.84878,0.842426,-0.0473185
105.6,4.90667,0.836022,-0.0459975
106.2,4.96435,0.835938,-0.046823
106.8,5.02373,0.831657,-0.047438
107.4,5.08258,0.834912,-0.0488048
108,5.13967,0.821217,-0.0502248
108.6,5.19878,0.817258,-0.0501657
109.2,5.25685,0.81789,-0.05017
109.8,5.31508,0.818161,-0.0501709
110.4,5.37308,0.823056,-0.0514918
111,5.4319,0.809799,-0.05149
111.6,5.49013,0.810592,-0.0514947
112.2,5.54714,0.810466,-0.0516084
112.8,5.60647,0.808263,-0.0514863
113.4,5.66394,0.805877,-0.0511687
114,5.72193,0.798777,-0.0498565
114.6,5.78059,0.81214,-0.048416
115.2,5.83879,0.803452,-0.0470854
115.8,5.89643,0.80426,-0.0457708
116.4,5.95462,0.800302,-0.04597
117,6.01202,0.800614,-0.0473219
117.6,6.06899,0.802307,-0.0486321
118.2,6.12593,0.805011,-0.0486268
118.8,6.18639,0.803607,-0.0499323
119.4,6.24494,0.799562,-0.0513035
120,6.30206,0.801187,-0.0512753
120.6,6.36001,0.796814,-0.0506701
121.2,6.41776,0.800568,-0.0512398
121.8,6.47559,0.811461,-0.0512803
122.4,6.53324,0.801203,-0.0499512
123,6.59044,0.809451,-0.04995
123.6,6.64912,0.805806,-0.049895
124.2,6.70675,0.802736,-0.0499197
124.8,6.76575,0.810799,-0.0499461
125.4,6.82252,0.811296,-0.051178
126,6.88156,0.809448,-0.0499496
126.6,6.9378,0.81145,-0.04995
127.2,6.99504,0.814019,-0.0499515
127.8,7.05202,0.816825,-0.0512929
128.4,7.11061,0.817253,-0.0493116
129,7.16816,0.819666,-0.0489839
129.6,7.22486,0.826974,-0.0473266
130.2,7.28379,0.832822,-0.0473111
130.8,7.34023,0.829692,-0.0474661
131.4,7.39704,0.837485,-0.0486783
132,7.4545,0.835622,-0.0486089
132.6,7.51237,0.830924,-0.0498915
133.2,7.56982,0.838763,-0.047917
133.8,7.62705,0.841903,-0.049287
134.4,7.6849,0.841488,-0.0506007
135,7.74093,0.840496,-0.0507116
135.6,7.79481,0.842728,-0.05072
136.2,7.85612,0.840986,-0.0507179
136.8,7.9135,0.839786,-0.0493957
137.4,7.97124,0.843705,-0.0493997
138,8.02802,0.84748,-0.0490395
138.6,8.08507,0.854918,-0.0481193
139.2,8.14116,0.860373,-0.0493949
139.8,8.19825,0.859493,-0.0507196
140.4,8.25614,0.857001,-0.0519572
141,8.3123,0.860354,-0.0520419
141.6,8.36932,0.858733,-0.0532556
142.2,8.42687,0.86174,-0.05204
142.8,8.48407,0.872376,-0.051952
143.4,8.53943,0.867167,-0.0533601
144,8.59631,0.869782,-0.0506253
144.6,8.65489,0.878021,-0.0500082
145.2,8.71002,0.877089,-0.048082
145.8,8.7649,0.872845,-0.0494315
146.4,8.82451,0.87979,-0.0507201
147,8.88181,0.884186,-0.0513467
147.6,8.93752,0.886822,-0.0520406
148.2,8.99363,0.884657,-0.0507189
148.8,9.05136,0.896045,-0.0520348
149.4,9.10859,0.888028,-0.05203
150,9.16201,0.894963,-0.0519658
150.6,9.22173,0.899765,-0.0533493
151.2,9.27705,0.898057,-0.0530212
151.8,9.33489,0.903926,-0.0520393
152.4,9.39172,0.906132,-0.0519726
153,9.44646,0.906656,-0.053298
153.6,9.50539,0.902175,-0.0539172
154.2,9.56158,0.908544,-0.05204
154.8,9.61856,0.910506,-0.05204
155.4,9.67517,0.907441,-0.0520798
156,9.73214,0.911297,-0.0520697
156.6,9.78814,0.913184,-0.0533592
157.2,9.8455,0.916884,-0.0539408
157.8,9.90113,0.916645,-0.0553296
158.4,9.95848,0.922975,-0.05533
159,10.0144,0.924216,-0.0552831
159.6,10.0723,0.922031,-0.0566497
160.2,10.1285,0.929927,-0.05665
160.8,10.1845,0.924159,-0.0565705
161.4,10.242,0.925633,-0.0566515
162,10.298,0.923111,-0.05665
162.6,10.3551,0.929603,-0.05665
163.2,10.4112,0.938543,-0.05665
163.8,10.4685,0.937509,-0.05665
164.4,10.5254,0.930359,-0.05665
165,10.5811,0.934867,-0.05665
165.6,10.639,0.938259,-0.05665
166.2,10.6951,0.93782,-0.0566399
166.8,10.7519,0.929753,-0.0553264
167.4,10.809,0.94047,-0.0561466
168,10.8652,0.943015,-0.0566571
168.6,10.9217,0.946786,-0.0553351
169.2,10.9783,0.946265,-0.0566393
169.8,11.0349,0.954264,-0.056576
170.4,11.0918,0.949324,-0.05796
171,11.148,0.950837,-0.05796
171.6,11.2047,0.956537,-0.0579597
172.2,11.262,0.959141,-0.058917
172.8,11.3181,0.955408,-0.0579663
173.4,11.3749,0.953407,-0.0589057
174,11.4311,0.957338,-0.0592898
174.6,11.4881,0.95635,-0.0600243
175.2,11.5448,0.953601,-0.0606001
175.8,11.6014,0.958907,-0.0606542
176.4,11.659,0.957912,-0.0592906
177,11.7147,0.964426,-0.05929
177.6,11.7717,0.963306,-0.0592884
178.2,11.8271,0.9757,-0.05994
178.8,11.8849,0.967139,-0.05994
179.4,11.9409,0.968158,-0.0600036
180,11.9975,0.967868,-0.0586238
180.6,12.054,0.961048,-0.0599384
181.2,12.1112,0.967154,-0.0613619
181.8,12.1672,0.969257,-0.0625691
182.4,12.2239,0.974423,-0.0625701
183,12.2793,0.973006,-0.0639646
183.6,12.3366,0.972973,-0.06389
184.2,12.3929,0.974746,-0.0638008
184.8,12.4498,0.968356,-0.065056
185.4,12.5051,0.973468,-0.0658736
186,12.5622,0.975224,-0.0671728
186.6,12.6195,0.981016,-0.065862
187.2,12.6745,0.985338,-0.06587
187.8,12.7314,0.981046,-0.06587
188.4,12.7892,0.977765,-0.06587
189,12.846,0.984915,-0.06587
189.6,12.9015,0.980149,-0.0658721
190.2,12.9585,0.98248,-0.0664548
190.8,13.0139,0.974054,-0.0687419
191.4,13.0717,0.979485,-0.06982
192,13.1273,0.975446,-0.0698224
192.6,13.183,0.987901,-0.0704487
193.2,13.2412,0.981217,-0.07048
193.8,13.2965,0.988508,-0.07048
194.4,13.3537,0.99367,-0.07048
195,13.4102,0.987989,-0.0704749
195.6,13.4661,0.993834,-0.071754
196.2,13.5214,0.995404,-0.073121
196.8,13.5795,0.997355,-0.0729055
197.4,13.6367,0.994133,-0.0727901
198,13.691,0.994578,-0.07279
198.6,13.7493,0.992576,-0.0728873
199.2,13.8064,0.994081,-0.0717999
199.8,13.8624,0.994435,-0.0717997
200.4,13.9183,0.997489,-0.0724982
201,13.9757,0.996547,-0.07246
201.6,14.0316,0.988998,-0.07246
202.2,14.0882,0.989538,-0.07246
202.8,14.1442,0.991156,-0.07246
203.4,14.1979,0.994962,-0.0735869
204,14.2579,0.999879,-0.0737798
204.6,14.3139,1.00193,-0.07378
205.2,14.3684,0.999551,-0.07378
205.8,14.4287,0.993291,-0.0738259
206.4,14.4842,1.00214,-0.0750914
207,14.5407,1.00703,-0.0770873
207.6,14.598,1.00449,-0.0770704
208.2,14.6533,1.00417,-0.0783418
208.8,14.709,1.01251,-0.07838
209.4,14.7673,1.02199,-0.07838
210,14.8245,1.01773,-0.07838
210.6,14.8813,1.02188,-0.0785381
211.2,14.9379,1.02479,-0.0796834
211.8,14.9932,1.03197,-0.0784105
212.4,15.0499,1.03023,-0.0803324
213,15.1083,1.02775,-0.08102
213.6,15.1633,1.03267,-0.0810199
214.2,15.2203,1.03785,-0.0802412
214.8,15.277,1.04124,-0.078256
215.4,15.3345,1.03697,-0.0805773
216,15.3912,1.0415,-0.0818128
216.6,15.4481,1.03899,-0.0820318
217.2,15.5042,1.04507,-0.0832252
217.8,15.5613,1.03943,-0.0845437
218.4,15.6171,1.04264,-0.0845467
219,15.6743,1.04226,-0.0858482
219.6,15.7303,1.03759,-0.087142
220.2,15.7872,1.04287,-0.0871745
220.8,15.8449,1.04459,-0.0884773
221.4,15.9006,1.04633,-0.0894782
222,15.9574,1.04758,-0.0894795
222.6,16.0145,1.0526,-0.0891356
223.2,16.0722,1.05946,-0.0910796
223.8,16.1285,1.06454,-0.0925387
224.4,16.1842,1.05793,-0.0939013
225,16.2415,1.06865,-0.0946553
225.6,16.2973,1.07801,-0.0935267
226.2,16.3557,1.08358,-0.0922234
226.8,16.4108,1.08444,-0.091519
227.4,16.4695,1.08503,-0.0915998
228,16.5249,1.0954,-0.0924469
228.6,16.58,1.09024,-0.0948192
229.2,16.6396,1.10131,-0.09562
229.8,16.6961,1.09872,-0.0966664
230.4,16.7524,1.09838,-0.0982485
231,16.8104,1.09808,-0.0982387
231.6,16.8667,1.10532,-0.0961823
232.2,16.9235,1.10623,-0.0962764
232.8,16.9803,1.11481,-0.0962207
233.4,17.0362,1.12011,-0.0976603
234,17.0936,1.10846,-0.0976077
234.6,17.15,1.11082,-0.098937
235.2,17.2067,1.10462,-0.100305
235.8,17.2633,1.11173,-0.10023
236.4,17.3212,1.10719,-0.10023
237,17.3778,1.10396,-0.1
237.6,17.4349,1.09796,-0.100237
238.2,17.4918,1.09872,-0.10183
238.8,17.5482,1.10067,-0.102861
239.4,17.6052,1.1007,-0.103885
240,17.6628,1.08886,-0.105629
240.6,17.7177,1.08964,-0.10727
241.2,17.7757,1.08444,-0.106243
241.8,17.8331,1.07921,-0.107246
242.4,17.8889,1.08436,-0.107721
243,17.9465,1.07973,-0.108606
243.6,18.0031,1.06939,-0.110607
244.2,18.0611,1.06854,-0.11121
244.8,18.1173,1.06676,-0.112538
245.4,18.1741,1.06436,-0.11253
246,18.231,1.06299,-0.112529
246.6,18.2873,1.0581,-0.109781
247.2,18.3442,1.0498,-0.109718
247.8,18.4009,1.04434,-0.113632
248.4,18.4583,1.04129,-0.116025
249,18.5145,1.04225,-0.117735
249.6,18.573,1.04444,-0.117681
250.2,18.6291,1.03851,-0.119159
250.8,18.6869,1.03079,-0.12032
251.4,18.7429,1.02617,-0.120327
252,18.7983,1.02659,-0.122967
252.6,18.8566,1.03003,-0.122958
253.2,18.9133,1.0156,-0.124281
253.8,18.9679,1.02326,-0.124668
254.4,19.0266,1.01962,-0.125242
255,19.0838,1.00353,-0.126606
255.6,19.141,1.0179,-0.12813
256.2,19.1988,1.00808,-0.130526
256.8,19.2551,1.00449,-0.130504
257.4,19.3119,0.99774,-0.132689
258,19.3685,0.991815,-0.134484
258.6,19.4265,0.988183,-0.1358
259.2,19.482,0.984615,-0.137034
259.8,19.5399,0.987366,-0.137161
260.4,19.5975,0.97885,-0.13768
261,19.654,0.979469,-0.137112
261.6,19.7108,0.977689,-0.138434
262.2,19.7679,0.967525,-0.141086
262.8,19.8253,0.961898,-0.142322
263.4,19.8826,0.962533,-0.145232
264,19.9391,0.958239,-0.14654
264.6,19.9958,0.958307,-0.147799
265.2,20.0522,0.951138,-0.149026
265.8,20.109,0.95076,-0.150409
266.4,20.167,0.952863,-0.150406
267,20.2245,0.949569,-0.151719
267.6,20.2812,0.945598,-0.153017
268.2,20.3391,0.939828,-0.154416
268.8,20.3959,0.938839,-0.155761
269.4,20.4527,0.932008,-0.158189
270,20.5105,0.926028,-0.159765
270.6,20.5667,0.923289,-0.161147
271.2,20.624,0.912325,-0.163952
271.8,20.681,0.903608,-0.165568
272.4,20.7383,0.904612,-0.168073
273,20.7955,0.898511,-0.169616
273.6,20.8533,0.886203,-0.170951
274.2,20.9091,0.879384,-0.173584
274.8,20.9677,0.874442,-0.175802
275.4,21.024,0.867722,-0.177508
276,21.0813,0.884111,-0.179208
276.6,21.1382,0.905289,-0.18154
277.2,21.1966,0.91428,-0.183403
277.8,21.2535,0.934755,-0.185552
278.4,21.3104,0.944996,-0.187125
279,21.3682,0.967104,-0.184014
279.6,21.4254,0.983712,-0.184875
280.2,21.4828,1.00077,-0.193372
280.8,21.5407,1.00583,-0.194465
281.4,21.5977,1.01543,-0.19497
282,21.656,1.02417,-0.196297
282.6,21.7124,1.03171,-0.197608
283.2,21.7704,1.03834,-0.197611
283.8,21.8272,1.03764,-0.198934
284.4,21.8837,1.03754,-0.2016
285,21.9414,1.0357,-0.203364
285.6,21.9989,1.04547,-0.205233
286.2,22.0567,1.05246,-0.207449
286.8,22.1139,1.05787,-0.208143
287.4,22.1715,1.05611,-0.209512
288,22.2286,1.05615,-0.21124
288.6,22.2851,1.05862,-0.212853
289.2,22.3426,1.06047,-0.212871
289.8,22.4,1.0634,-0.21421
290.4,22.4572,1.05874,-0.2144
291,22.5147,1.05866,-0.215846
291.6,22.5712,1.05246,-0.217207
292.2,22.6285,1.05439,-0.21989
292.8,22.6869,1.05282,-0.221211
293.4,22.7437,1.06005,-0.223839
294,22.8008,1.05627,-0.223052
294.6,22.858,1.06373,-0.223883
295.2,22.9158,1.05249,-0.22517
295.8,22.9729,1.04969,-0.225164
296.4,23.0299,1.05142,-0.227847
297,23.0866,1.05494,-0.22912
297.6,23.1448,1.04808,-0.230263
298.2,23.2023,1.03995,-0.230362
298.8,23.2592,1.04078,-0.232641
299.4,23.3165,1.04509,-0.231308
300,23.3732,1.04021,-0.232611
300.6,23.4311,1.03633,-0.234334
301.2,23.4885,1.04611,-0.236364
301.8,23.5469,1.03995,-0.236591
302.4,23.6035,1.03327,-0.236633
303,23.6612,1.02465,-0.236591
303.6,23.7178,1.01781,-0.237901
304.2,23.775,1.0213,-0.239051
304.8,23.8328,1.02778,-0.239181
305.4,23.8898,1.01893,-0.239656
306,23.947,1.01723,-0.24087
306.6,24.0045,1.01484,-0.241296
307.2,24.0619,1.0157,-0.243176
307.8,24.119,1.01023,-0.244474
308.4,24.176,1.01486,-0.245804
309,24.2342,1.00901,-0.247115
309.6,24.291,1.0087,-0.247124
310.2,24.3484,1.00246,-0.248429
310.8,24.4057,1.00424,-0.248453
311.4,24.4623,1.00262,-0.24844
312,24.5211,1.0025,-0.24844
312.6,24.5759,0.989927,-0.248436
313.2,24.6335,0.980371,-0.24976
313.8,24.692,0.980872,-0.249654
314.4,24.7497,0.978576,-0.251298
315,24.8075,0.97626,-0.252392
315.6,24.8651,0.977528,-0.253699
316.2,24.9224,0.971755,-0.253696
316.8,24.979,0.97495,-0.254687
317.4,25.0362,0.970644,-0.255018
318,25.094,0.963734,-0.255022
318.6,25.1512,0.96519,-0.256212
319.2,25.2086,0.963802,-0.257803
319.8,25.2664,0.959444,-0.25865
320.4,25.3237,0.961696,-0.25865
321,25.3806,0.957596,-0.25865
321.6,25.4385,0.954985,-0.25865
322.2,25.4963,0.949198,-0.258642
322.8,25.552,0.94879,-0.261537
323.4,25.6105,0.950615,-0.26294
324,25.668,0.951905,-0.261597
324.6,25.7237,0.945435,-0.262293
325.2,25.782,0.950158,-0.262937
325.8,25.841,0.942592,-0.264252
326.4,25.898,0.951487,-0.264249
327,25.9545,0.947368,-0.264173
327.6,26.0125,0.939795,-0.265485
328.2,26.0702,0.925669,-0.26556
328.8,26.1277,0.936208,-0.266268
329.4,26.1859,0.937544,-0.26688
330,26.2424,0.92783,-0.26688
330.6,26.3003,0.93453,-0.266245
331.2,26.3583,0.935775,-0.26678
331.8,26.4152,0.937907,-0.268204
332.4,26.4727,0.933241,-0.268365
333,26.5298,0.922653,-0.2682
333.6,26.5876,0.931769,-0.2682
334.2,26.6455,0.929126,-0.269452
334.8,26.7031,0.938476,-0.27082
335.4,26.7609,0.925859,-0.272149
336,26.8184,0.930206,-0.273235
336.6,26.877,0.918496,-0.27347
337.2,26.9325,0.927986,-0.273779
337.8,26.9917,0.913164,-0.274142
338.4,27.0485,0.916344,-0.273449
339,27.1062,0.917579,-0.272151
339.6,27.1644,0.920429,-0.273473
340.2,27.2215,0.916575,-0.275698
340.8,27.2797,0.917082,-0.27611
341.4,27.3374,0.908607,-0.277764
342,27.395,0.9098,-0.279006
342.6,27.4523,0.916989,-0.277275
343.2,27.5108,0.907158,-0.27457
343.8,27.569,0.907388,-0.275857
344.4,27.6257,0.915658,-0.275793
345,27.6836,0.907934,-0.278509
345.6,27.7421,0.914516,-0.27852
346.2,27.7995,0.907238,-0.278529
346.8,27.8571,0.912968,-0.279183
347.4,27.9147,0.913396,-0.281165
348,27.9725,0.91688,-0.28116
348.6,28.0311,0.9192,-0.281196
349.2,28.0888,0.921988,-0.28147
349.8,28.1466,0.922823,-0.282451
350.4,28.2048,0.919892,-0.283071
351,28.2624,0.928595,-0.281817
351.6,28.3208,0.923972,-0.28148
352.2,28.3792,0.926339,-0.28148
352.8,28.4365,0.933207,-0.281946
353.4,28.4945,0.936803,-0.28346
354,28.5526,0.936464,-0.283403
354.6,28.6113,0.929231,-0.283453
355.2,28.6686,0.936588,-0.284787
355.8,28.7272,0.938272,-0.28478
356.4,28.7847,0.937931,-0.28478
357,28.8423,0.934486,-0.284697
357.6,28.9009,0.935114,-0.284781
358.2,28.9588,0.935134,-0.283811
358.8,29.0163,0.939367,-0.28379
359.4,29.0749,0.937158,-0.283794
360,29.1335,0.938946,-0.285112
360.6,29.1907,0.936558,-0.285028
361.2,29.2489,0.942036,-0.2851
361.8,29.3074,0.954076,-0.2851
362.4,29.3648,0.952787,-0.2851
363,29.4234,0.961274,-0.284786
363.6,29.4804,0.963639,-0.284777
364.2,29.5391,0.965099,-0.287192
364.8,29.5969,0.962723,-0.28741
365.4,29.6557,0.971517,-0.28741
366,29.7142,0.971324,-0.286067
366.6,29.7717,0.967904,-0.286136
367.2,29.83,0.9673,-0.288711
367.8,29.8881,0.972926,-0.288712
368.4,29.9463,0.963567,-0.29005
369,30.0039,0.966974,-0.29005
369.6,30.0618,0.979631,-0.290171
370.2,30.1201,0.981866,-0.29071
370.8,30.1785,0.984175,-0.290711
371.4,30.2377,0.990283,-0.29006
372,30.2943,0.98671,-0.29139
372.6,30.3523,0.994718,-0.29136
373.2,30.4102,0.992539,-0.29136
373.8,30.4687,0.992324,-0.291397
374.4,30.527,0.996449,-0.2907
375,30.585,1.00164,-0.2907
375.6,30.6425,1.01309,-0.2907
376.2,30.6994,1.0065,-0.2907
376.8,30.7594,1.00827,-0.2907
377.4,30.8181,1.01641,-0.290716
378,30.8756,1.01696,-0.29334
378.6,30.9347,1.01593,-0.293304
379.2,30.9933,1.01735,-0.293634
379.8,31.049,1.02161,-0.29459
380.4,31.1091,1.0295,-0.295302
381,31.1674,1.02492,-0.296308
381.6,31.2249,1.03132,-0.29761
382.2,31.2847,1.03807,-0.298282
382.8,31.3422,1.04137,-0.298609
383.4,31.4008,1.03947,-0.297045
384,31.4589,1.04155,-0.294848
384.6,31.517,1.04996,-0.294408
385.2,31.5756,1.04754,-0.295496
385.8,31.6334,1.05576,-0.29575
386.4,31.6919,1.05723,-0.295815
387,31.7506,1.07356,-0.29575
387.6,31.8093,1.08278,-0.29575
388.2,31.8667,1.0787,-0.29575
388.8,31.9256,1.08901,-0.296996
389.4,31.9833,1.0977,-0.298359
390,32.0415,1.11018,-0.29839
390.6,32.1002,1.11822,-0.298671
391.2,32.1593,1.12781,-0.30103
391.8,32.2166,1.1372,-0.301031
392.4,32.2757,1.14162,-0.302327
393,32.334,1.15607,-0.300906
393.6,32.3927,1.1637,-0.30091
394.2,32.4506,1.17052,-0.300908
394.8,32.5092,1.19034,-0.302217
395.4,32.5684,1.20889,-0.300856
396,32.6257,1.213,-0.302232
396.6,32.6848,1.2225,-0.302955
397.2,32.7422,1.23948,-0.304858
397.8,32.8019,1.26321,-0.305497
398.4,32.8597,1.27504,-0.305514
399,32.9188,1.29251,-0.304176
399.6,32.9772,1.30765,-0.30486
400.2,33.0359,1.3259,-0.306174
400.8,33.0941,1.34494,-0.30618
401.4,33.153,1.37044,-0.306287
402,33.2111,1.38832,-0.307501
402.6,33.2707,1.40838,-0.310092
403.2,33.3291,1.43575,-0.310077
403.8,33.3872,1.45905,-0.311455
404.4,33.446,1.48941,-0.310705
405,33.5047,1.52331,-0.311393
405.6,33.5636,1.55033,-0.313532
406.2,33.6229,1.58609,-0.315434
406.8,33.6812,1.6081,-0.317183
407.4,33.7404,1.6445,-0.316842
408,33.7985,1.68306,-0.318182
408.6,33.8574,1.72093,-0.319457
409.2,33.9164,1.76464,-0.319428
409.8,33.9763,1.80294,-0.32078
410.4,34.034,1.84133,-0.322158
411,34.0917,1.89146,-0.323429
411.6,34.1529,1.9417,-0.323433
412.2,34.2106,1.98756,-0.323054
412.8,34.2704,2.03799,-0.323438
413.4,34.3294,2.09132,-0.326077
414,34.3863,2.14185,-0.328409
414.6,34.4476,2.20656,-0.330122
415.2,34.5065,2.25412,-0.331419
415.8,34.5657,2.31346,-0.332946
416.4,34.6247,2.36178,-0.335626
417,34.6852,2.42255,-0.336924
417.6,34.7423,2.46536,-0.338471
418.2,34.8028,2.53581,-0.341079
418.8,34.8616,2.58472,-0.343179
419.4,34.9213,2.63887,-0.34673
420,34.9805,2.68229,-0.349597
420.6,35.0387,2.73058,-0.350165
421.2,35.0978,2.77811,-0.35279
421.8,35.1567,2.81944,-0.353452
422.4,35.2156,2.84533,-0.356536
423,35.2747,2.87264,-0.359844
423.6,35.3339,2.90013,-0.36199
424.2,35.3918,2.91962,-0.364406
424.8,35.4509,2.94385,-0.366196
425.4,35.5093,2.93927,-0.369251
426,35.5683,2.94095,-0.370998
426.6,35.6268,2.93931,-0.374137
427.2,35.6858,2.9349,-0.377309
427.8,35.7439,2.92774,-0.381529
428.4,35.8022,2.90683,-0.385539
429,35.8581,2.88484,-0.389209
429.6,35.9194,2.85391,-0.39497
430.2,35.9773,2.81543,-0.399282
430.8,36.0357,2.78631,-0.402366
431.4,36.0936,2.73991,-0.40603
432,36.1518,2.70387,-0.411654
432.6,36.2087,2.65094,-0.41614
433.2,36.2667,2.60003,-0.420974
433.8,36.3254,2.54575,-0.42558
434.4,36.3827,2.48804,-0.431624
435,36.4412,2.44052,-0.436818
435.6,36.4982,2.38341,-0.442012
436.2,36.5576,2.32621,-0.447613
436.8,36.6146,2.27938,-0.452906
437.4,36.6729,2.22918,-0.458597
438,36.7313,2.17077,-0.464047
438.6,36.7887,2.12959,-0.470221
439.2,36.8468,2.08748,-0.476533
439.8,36.9051,2.05714,-0.482831
440.4,36.9632,2.02639,-0.489081
441,37.0213,2.00239,-0.495819
441.6,37.0801,1.97468,-0.503118
442.2,37.1378,1.96141,-0.509463
442.8,37.1969,1.94992,-0.517477
443.4,37.2553,1.9322,-0.523605
444,37.3136,1.92995,-0.531652
444.6,37.3715,1.92404,-0.538566
445.2,37.43,1.91926,-0.544959
445.8,37.4894,1.91229,-0.552166
446.4,37.5475,1.90829,-0.560693
447,37.6065,1.90467,-0.568863
447.6,37.666,1.90891,-0.576035
448.2,37.7227,1.91096,-0.58551
448.8,37.7824,1.91452,-0.593036
449.4,37.8407,1.91225,-0.600766
450,37.8991,1.91213,-0.611455
450.6,37.9575,1.90717,-0.618887
451.2,38.0161,1.91337,-0.627012
451.8,38.0742,1.90645,-0.634277
452.4,38.1331,1.91579,-0.641094
453,38.1931,1.908,-0.648697
453.6,38.252,1.91486,-0.656886
454.2,38.3104,1.90816,-0.66518
454.8,38.3686,1.90281,-0.677102
455.4,38.4274,1.89978,-0.686498
456,38.4867,1.89119,-0.694866
456.6,38.546,1.89308,-0.703259
457.2,38.6049,1.889,-0.707437
457.8,38.6637,1.88033,-0.714991
458.4,38.7228,1.87368,-0.724965
459,38.7815,1.87352,-0.734619
459.6,38.8401,1.86759,-0.744772
460.2,38.8988,1.86316,-0.755714
460.8,38.958,1.85424,-0.764997
461.4,39.0153,1.84875,-0.773643
462,39.0746,1.84156,-0.782818
462.6,39.1344,1.8408,-0.791831
463.2,39.1933,1.83021,-0.80376
463.8,39.251,1.82497,-0.813233
464.4,39.3099,1.81156,-0.821511
465,39.3686,1.8053,-0.828397
465.6,39.427,1.80124,-0.836307
466.2,39.4864,1.79383,-0.844487
466.8,39.5448,1.78099,-0.851271
467.4,39.6035,1.76585,-0.859567
468,39.6621,1.75627,-0.867294
468.6,39.7206,1.74672,-0.87561
469.2,39.7802,1.73324,-0.883296
469.8,39.8389,1.72094,-0.891317
470.4,39.8972,1.71021,-0.899133
471,39.9566,1.70547,-0.906778
471.6,40.0151,1.68804,-0.915385
472.2,40.0739,1.67196,-0.923407
472.8,40.1323,1.66141,-0.930685
473.4,40.1914,1.64233,-0.937719
474,40.2497,1.63042,-0.943862
474.6,40.3091,1.62229,-0.949977
475.2,40.3686,1.60114,-0.957173
475.8,40.4271,1.59038,-0.96465
476.4,40.4852,1.57634,-0.970719
477,40.5439,1.55562,-0.977345
477.6,40.6036,1.54172,-0.984362
478.2,40.6631,1.52621,-0.991464
478.8,40.722,1.51415,-0.997259
479.4,40.7809,1.49758,-1.0055
480,40.8404,1.48918,-1.01269
480.6,40.8991,1.47094,-1.01996
481.2,40.9575,1.45398,-1.02441
481.8,41.0169,1.43682,-1.03114
482.4,41.0759,1.42624,-1.03753
483,41.134,1.40629,-1.04209
483.6,41.194,1.39235,-1.04884
484.2,41.2535,1.38224,-1.05441
484.8,41.3112,1.37294,-1.05912
485.4,41.3704,1.36438,-1.06618
486,41.4298,1.34958,-1.06894
486.6,41.4889,1.33486,-1.07301
487.2,41.5482,1.3257,-1.07862
487.8,41.6078,1.31707,-1.08469
488.4,41.6658,1.29603,-1.0898
489,41.7251,1.29147,-1.09537
489.6,41.7841,1.28174,-1.10017
490.2,41.8437,1.26836,-1.10486
490.8,41.9026,1.25734,-1.10977
491.4,41.9606,1.2506,-1.11503
492,42.0209,1.24239,-1.11888
492.6,42.0793,1.23568,-1.12511
493.2,42.1377,1.22023,-1.12996
493.8,42.1982,1.22518,-1.13362
494.4,42.257,1.21737,-1.1391
495,42.3154,1.21313,-1.14275
495.6,42.3753,1.20212,-1.14758
496.2,42.434,1.19732,-1.15581
496.8,42.4936,1.1893,-1.15877
497.4,42.5524,1.18439,-1.15947
498,42.6112,1.17933,-1.16535
498.6,42.6707,1.17778,-1.16973
499.2,42.7296,1.17909,-1.17437
499.8,42.7893,1.1708,-1.17825
500.4,42.8478,1.16832,-1.18211
501,42.9076,1.16151,-1.18613
501.6,42.9665,1.16031,-1.19089
502.2,43.0259,1.1559,-1.19474
502.8,43.0849,1.14662,-1.19843
503.4,43.1448,1.14709,-1.20207
504,43.2032,1.14423,-1.2074
504.6,43.2626,1.135,-1.213
505.2,43.3211,1.13225,-1.21764
505.8,43.3814,1.13057,-1.22186
506.4,43.4399,1.12851,-1.22888
507,43.4985,1.11323,-1.232
507.6,43.559,1.1107,-1.23695
508.2,43.617,1.10611,-1.24056
508.8,43.6769,1.10433,-1.2435
509.4,43.7361,1.1093,-1.24942
510,43.7941,1.09907,-1.25405
510.6,43.8523,1.09415,-1.25869
511.2,43.9133,1.09501,-1.26303
511.8,43.9731,1.09498,-1.26835
512.4,44.0316,1.09077,-1.27167
513,44.0917,1.08884,-1.27457
513.6,44.1499,1.0876,-1.27799
514.2,44.2096,1.08606,-1.28047
514.8,44.2685,1.07593,-1.28559
515.4,44.3283,1.07988,-1.29106
516,44.3865,1.06935,-1.29259
516.6,44.4473,1.06719,-1.29543
517.2,44.5058,1.06234,-1.30068
517.8,44.5653,1.06513,-1.30671
518.4,44.624,1.05807,-1.31117
519,44.6823,1.06275,-1.31654
519.6,44.7433,1.04574,-1.32116
520.2,44.8021,1.04887,-1.32611
520.8,44.8617,1.0528,-1.32906
521.4,44.9206,1.04517,-1.33326
522,44.9796,1.04201,-1.33693
522.6,45.0398,1.04007,-1.34098
523.2,45.0985,1.03594,-1.3436
523.8,45.1582,1.03063,-1.34776
524.4,45.2175,1.03454,-1.35135
525,45.2768,1.03151,-1.35557
525.6,45.3363,1.03099,-1.36044
526.2,45.3958,1.03099,-1.36569
526.8,45.4551,1.01845,-1.37231
527.4,45.5145,1.0278,-1.37752
528,45.5745,1.01709,-1.38185
528.6,45.633,1.01637,-1.38564
529.2,45.6929,1.016,-1.38962
529.8,45.7518,1.01163,-1.39384
530.4,45.8123,1.01137,-1.39673
531,45.872,1.00121,-1.40091
531.6,45.9318,0.994428,-1.40456
532.2,45.9906,0.9971,-1.40808
532.8,46.0501,0.994911,-1.41459
533.4,46.1097,0.99339,-1.41795
534,46.1695,0.99149,-1.4226
534.6,46.2291,0.9823,-1.42578
535.2,46.2883,0.976413,-1.43084
535.8,46.3483,0.984374,-1.43577
536.4,46.4067,0.97284,-1.43872
537,46.4668,0.978962,-1.44067
537.6,46.5263,0.978177,-1.44499
538.2,46.5852,0.970488,-1.44979
538.8,46.645,0.959591,-1.45548
539.4,46.7054,0.965954,-1.45887
540,46.7652,0.971918,-1.46275
540.6,46.8247,0.962416,-1.46933
541.2,46.8837,0.965497,-1.4755
541.8,46.9436,0.961727,-1.48117
542.4,47.0032,0.953786,-1.48323
543,47.0632,0.949998,-1.48789
543.6,47.123,0.944402,-1.49169
544.2,47.1824,0.940088,-1.49712
544.8,47.2417,0.929911,-1.50213
545.4,47.3019,0.929984,-1.50602
546,47.3611,0.918003,-1.5102
546.6,47.4207,0.923828,-1.5153
547.2,47.4795,0.912865,-1.5191
547.8,47.5387,0.902343,-1.5244
548.4,47.5986,0.896899,-1.52906
549,47.6577,0.894066,-1.53235
549.6,47.7182,0.895491,-1.53527
550.2,47.7766,0.887336,-1.53768
550.8,47.8358,0.878006,-1.53931
551.4,47.8951,0.870786,-1.54358
552,47.9553,0.864474,-1.54683
552.6,48.015,0.853725,-1.55359
553.2,48.0748,0.844275,-1.55695
553.8,48.1331,0.844472,-1.56075
554.4,48.1935,0.84153,-1.56491
555,48.2523,0.835035,-1.56853
555.6,48.3129,0.826456,-1.57008
556.2,48.372,0.823848,-1.57475
556.8,48.4311,0.822516,-1.5778
557.4,48.4906,0.816988,-1.58279
558,48.5502,0.812139,-1.58744
558.6,48.61,0.807834,-1.59088
559.2,48.6692,0.793078,-1.59542
559.8,48.7282,0.788687,-1.59765
560.4,48.7885,0.79035,-1.60169
561,48.8469,0.778315,-1.60577
561.6,48.9071,0.77055,-1.60942
562.2,48.9666,0.76547,-1.61359
562.8,49.0263,0.762673,-1.6157
563.4,49.0848,0.757292,-1.62059
564,49.1459,0.753031,-1.62245
564.6,49.204,0.746946,-1.62614
565.2,49.2645,0.737684,-1.63064
565.8,49.324,0.729807,-1.63427
566.4,49.3839,0.727133,-1.63644
567,49.4447,0.711287,-1.64092
567.6,49.5022,0.705349,-1.6428
568.2,49.562,0.702702,-1.6447
568.8,49.6229,0.704124,-1.65018
569.4,49.6825,0.699567,-1.65362
570,49.7424,0.689076,-1.65741
570.6,49.8025,0.68009,-1.66048
571.2,49.8611,0.679049,-1.66416
571.8,49.9206,0.668508,-1.66612
572.4,49.9812,0.677081,-1.66849
573,50.0416,0.664584,-1.67264
573.6,50.1007,0.655253,-1.67585
574.2,50.1606,0.659408,-1.67847
574.8,50.2201,0.657154,-1.68158
575.4,50.2796,0.652641,-1.68428
576,50.3402,0.652331,-1.68698
576.6,50.3992,0.641451,-1.69019
577.2,50.4598,0.628356,-1.69167
577.8,50.5191,0.622866,-1.69468
578.4,50.5784,0.623084,-1.69909
579,50.638,0.612137,-1.70089
579.6,50.699,0.605661,-1.70386
580.2,50.7581,0.613155,-1.70715
580.8,50.8169,0.607714,-1.7102
581.4,50.8784,0.607246,-1.71271
582,50.9374,0.596507,-1.7159
582.6,50.9973,0.59899,-1.71856
583.2,51.0551,0.596288,-1.72207
583.8,51.1167,0.590733,-1.72511
584.4,51.1761,0.58742,-1.72773
585,51.2361,0.586589,-1.73083
585.6,51.296,0.579187,-1.73294
586.2,51.3561,0.582812,-1.73598
586.8,51.4159,0.578693,-1.73728
587.4,51.4752,0.582295,-1.74079
588,51.5347,0.572145,-1.74362
588.6,51.5952,0.565528,-1.74629
589.2,51.6558,0.563298,-1.74807
589.8,51.7162,0.562782,-1.75117
590.4,51.7745,0.557404,-1.75423
591,51.8358,0.553459,-1.757
591.6,51.8957,0.549839,-1.76025
592.2,51.955,0.548466,-1.76133
592.8,52.0148,0.543921,-1.76399
593.4,52.0762,0.543211,-1.76542
594,52.1346,0.539311,-1.76826
594.6,52.1948,0.539719,-1.7695
595.2,52.2544,0.533405,-1.76958
595.8,52.3145,0.539936,-1.77256
596.4,52.374,0.529203,-1.77576
597,52.4351,0.528159,-1.77571
597.6,52.4942,0.527343,-1.77779
598.2,52.5539,0.529866,-1.78087
598.8,52.6118,0.528708,-1.78234
599.4,52.6745,0.529396,-1.78499
600,52.7343,0.527531,-1.78767
600.6,52.794,0.534202,-1.79192
601.2,52.8536,0.537744,-1.79352
601.8,52.9135,0.52934,-1.79464
602.4,52.9737,0.531,-1.79621
603,53.031,0.532491,-1.79743
603.6,53.0939,0.531812,-1.79918
604.2,53.154,0.537746,-1.8024
604.8,53.2135,0.536954,-1.80566
605.4,53.2732,0.534605,-1.80704
606,53.3337,0.533509,-1.80764
606.6,53.3944,0.54073,-1.80942
607.2,53.4532,0.543225,-1.81102
607.8,53.5136,0.552548,-1.81228
608.4,53.5737,0.541347,-1.81519
609,53.6335,0.550748,-1.81656
609.6,53.6935,0.55506,-1.81821
610.2,53.753,0.553568,-1.81888
610.8,53.8119,0.548879,-1.82034
611.4,53.8731,0.544498,-1.82493
612,53.9335,0.55068,-1.8285
612.6,53.9941,0.543828,-1.82971
613.2,54.0533,0.552047,-1.83288
613.8,54.1136,0.550343,-1.83414
614.4,54.1736,0.556456,-1.83546
615,54.2339,0.550286,-1.83681
615.6,54.2929,0.552923,-1.83672
616.2,54.3535,0.549916,-1.83669
616.8,54.4127,0.556599,-1.83929
617.4,54.4732,0.557789,-1.84012
618,54.5331,0.563646,-1.84042
618.6,54.593,0.555572,-1.84245
619.2,54.6525,0.555067,-1.84256
619.8,54.7135,0.562482,-1.84389
620.4,54.7735,0.55603,-1.84452
621,54.8329,0.564586,-1.8464
621.6,54.8938,0.581848,-1.84797
622.2,54.9538,0.57054,-1.8492
622.8,55.0136,0.565736,-1.8505
623.4,55.0735,0.571176,-1.85182
624,55.1339,0.576376,-1.85525
624.6,55.1937,0.576483,-1.85691
625.2,55.255,0.577055,-1.85808
625.8,55.3113,0.573861,-1.85812
626.4,55.3743,0.576936,-1.85809
627,55.4347,0.583279,-1.85936
627.6,55.4943,0.58317,-1.86081
628.2,55.5541,0.590882,-1.86283
628.8,55.6137,0.595698,-1.86618
629.4,55.6737,0.594176,-1.86724
630,55.7341,0.592633,-1.8661
630.6,55.7946,0.601836,-1.86751
631.2,55.8555,0.597525,-1.87009
631.8,55.9154,0.594193,-1.87258
632.4,55.9757,0.599002,-1.8742
633,56.0349,0.597471,-1.87553
633.6,56.0949,0.597744,-1.87685
634.2,56.155,0.602984,-1.87812
634.8,56.2154,0.605569,-1.88078
635.4,56.2744,0.606333,-1.88083
636,56.3358,0.609721,-1.88289
636.6,56.3955,0.606241,-1.8829
637.2,56.4557,0.620525,-1.88421
637.8,56.5144,0.61644,-1.88561
638.4,56.5749,0.620012,-1.88553
639,56.6352,0.621133,-1.88469
639.6,56.6962,0.62782,-1.88552
640.2,56.7562,0.627188,-1.8877
640.8,56.8161,0.634496,-1.88947
641.4,56.8766,0.627385,-1.88947
642,56.9363,0.632735,-1.89078
642.6,56.9963,0.635491,-1.89276
643.2,57.0557,0.628867,-1.89407
643.8,57.116,0.627744,-1.8947
644.4,57.1768,0.632432,-1.89407
645,57.2358,0.627966,-1.89539
645.6,57.2971,0.636275,-1.89672
646.2,57.3564,0.637606,-1.898
646.8,57.4158,0.632008,-1.89987
647.4,57.4757,0.634332,-1.90032
648,57.5357,0.639317,-1.90036
648.6,57.5954,0.648838,-1.89972
649.2,57.6557,0.645944,-1.90056
649.8,57.7154,0.643284,-1.90274
650.4,57.7755,0.647988,-1.90359
651,57.8336,0.639275,-1.90542
651.6,57.895,0.646284,-1.9067
652.2,57.9555,0.644383,-1.90739
652.8,58.0153,0.652824,-1.90796
653.4,58.075,0.651174,-1.91066
654,58.136,0.648611,-1.91199
654.6,58.1953,0.653531,-1.91327
655.2,58.2548,0.652696,-1.91366
655.8,58.3155,0.654526,-1.91285
656.4,58.3759,0.650218,-1.91432
657,58.4356,0.650822,-1.91655
657.6,58.4948,0.660269,-1.91647
658.2,58.5552,0.654022,-1.91695
658.8,58.6157,0.658838,-1.91834
659.4,58.6732,0.654761,-1.91697
660,58.735,0.65961,-1.91836
660.6,58.7954,0.658421,-1.91966
661.2,58.8547,0.660092,-1.91985
661.8,58.9124,0.662954,-1.92099
662.4,58.9741,0.66299,-1.9236
663,59.0361,0.667394,-1.92506
663.6,59.0954,0.666242,-1.92635
664.2,59.1554,0.659874,-1.92726
664.8,59.2155,0.660286,-1.92635
665.4,59.274,0.667442,-1.92898
666,59.3356,0.67057,-1.92997
666.6,59.3957,0.666731,-1.92901
667.2,59.4553,0.666145,-1.9303
667.8,59.516,0.661183,-1.93294
668.4,59.5765,0.665393,-1.93427
669,59.637,0.667965,-1.93556
669.6,59.6968,0.672732,-1.93217
670.2,59.7572,0.659176,-1.93086
670.8,59.8171,0.664417,-1.93217
671.4,59.8774,0.658053,-1.93478
672,59.9371,0.659026,-1.93844
672.6,59.996,0.64884,-1.93834
673.2,60.0574,0.653571,-1.9403
673.8,60.115,0.652429,-1.94162
674.4,60.1777,0.650235,-1.94293
675,60.2384,0.648623,-1.94524
675.6,60.2986,0.647343,-1.94504
676.2,60.3595,0.650623,-1.94348
676.8,60.4195,0.655095,-1.94348
677.4,60.4789,0.648696,-1.94452
678,60.5391,0.649787,-1.94743
678.6,60.599,0.641892,-1.94795
679.2,60.6591,0.647874,-1.94746
679.8,60.7198,0.648447,-1.94689
680.4,60.7789,0.647681,-1.94787
681,60.84,0.653711,-1.94846
681.6,60.9003,0.647232,-1.9501
682.2,60.9604,0.646127,-1.9505
682.8,61.0197,0.638249,-1.9528
683.4,61.0801,0.637637,-1.9546
684,61.1393,0.641748,-1.95589
684.6,61.2003,0.649695,-1.95715
685.2,61.2603,0.640121,-1.95852
685.8,61.3203,0.633548,-1.95984
686.4,61.381,0.639614,-1.95984
687,61.4414,0.636733,-1.95996
687.6,61.5015,0.632181,-1.95977
688.2,61.5619,0.633581,-1.95978
688.8,61.6217,0.633005,-1.95996
689.4,61.6818,0.632514,-1.96104
690,61.742,0.627171,-1.96237
690.6,61.8027,0.622718,-1.96236
691.2,61.8624,0.625438,-1.9637
691.8,61.9223,0.627438,-1.965
692.4,61.9826,0.628024,-1.96385
693,62.0438,0.623559,-1.96629
693.6,62.1042,0.620875,-1.96762
694.2,62.1637,0.61144,-1.96898
694.8,62.224,0.612949,-1.97158
695.4,62.2841,0.602928,-1.97189
696,62.3451,0.593424,-1.97178
696.6,62.4049,0.597571,-1.97291
697.2,62.465,0.596428,-1.97421
697.8,62.5258,0.596879,-1.9762
698.4,62.5858,0.596236,-1.97697
699,62.6467,0.594534,-1.97842
699.6,62.7069,0.599247,-1.98091
700.2,62.767,0.589239,-1.9807
700.8,62.8265,0.589996,-1.98093
701.4,62.8869,0.584749,-1.98225
702,62.9481,0.586179,-1.98097
702.6,63.0054,0.572716,-1.98116
703.2,63.0682,0.57947,-1.98359
703.8,63.1276,0.574303,-1.9875
704.4,63.1889,0.571155,-1.98641
705,63.2482,0.570635,-1.98575
705.6,63.3089,0.564917,-1.98765
706.2,63.3687,0.556312,-1.98847
706.8,63.4283,0.548971,-1.98981
707.4,63.4889,0.553007,-1.99113
708,63.5491,0.545964,-1.9925
708.6,63.6092,0.544054,-1.99384
709.2,63.6699,0.528492,-1.99437
709.8,63.7298,0.537571,-1.99376
710.4,63.7898,0.541176,-1.99396
711,63.8505,0.523091,-1.99657
711.6,63.91,0.52066,-1.99789
712.2,63.9707,0.509332,-1.99782
712.8,64.0293,0.505674,-1.99912
713.4,64.0911,0.497526,-1.99918
714,64.1502,0.494429,-2.00023
714.6,64.21,0.490043,-2.00046
715.2,64.2697,0.483749,-2.00308
715.8,64.3301,0.478294,-2.00309
716.4,64.3895,0.474478,-2.00442
717,64.4502,0.47224,-2.00728
717.6,64.51,0.462616,-2.00712
718.2,64.5698,0.449771,-2.00836
718.8,64.6297,0.44837,-2.00978
719.4,64.6896,0.443486,-2.01088
720,64.75,0.433808,-2.00969
720.6,64.8093,0.427182,-2.01001
721.2,64.8698,0.431158,-2.01128
721.8,64.9295,0.41882,-2.01397
722.4,64.9899,0.416913,-2.01397
723,65.05,0.407224,-2.01397
723.6,65.1098,0.398168,-2.01186
724.2,65.1697,0.399052,-2.01362
724.8,65.2303,0.382307,-2.01555
725.4,65.2895,0.384442,-2.01655
726,65.3507,0.376042,-2.01892
726.6,65.4096,0.371264,-2.02024
727.2,65.4703,0.372035,-2.02154
727.8,65.5294,0.369646,-2.02297
728.4,65.5898,0.36239,-2.02477
729,65.6507,0.340335,-2.02549
729.6,65.7112,0.337556,-2.02675
730.2,65.7699,0.343349,-2.02553
730.8,65.8309,0.33752,-2.02672
731.4,65.8914,0.332143,-2.02759
732,65.9518,0.331315,-2.02902
732.6,66.0119,0.316388,-2.02955
733.2,66.0713,0.30136,-2.03086
733.8,66.1314,0.294914,-2.03049
734.4,66.1922,0.2936,-2.03165
735,66.2519,0.293601,-2.03164
735.6,66.3117,0.280868,-2.03432
736.2,66.3727,0.275534,-2.03557
736.8,66.4328,0.259436,-2.03554
737.4,66.4935,0.254614,-2.03559
738,66.5538,0.250535,-2.03691
738.6,66.6147,0.248931,-2.03692
739.2,66.6737,0.237563,-2.03824
739.8,66.7348,0.229335,-2.03862
740.4,66.7954,0.21351,-2.03822
741,66.855,0.211573,-2.03813
741.6,66.9167,0.203992,-2.04087
742.2,66.9766,0.200778,-2.04086
742.8,67.0363,0.196923,-2.04218
743.4,67.0978,0.191321,-2.04349
744,67.1579,0.185983,-2.04481
744.6,67.2177,0.186853,-2.04482
745.2,67.2782,0.172758,-2.04712
745.8,67.3393,0.164896,-2.04843
746.4,67.3988,0.163278,-2.05041
747,67.461,0.158286,-2.04985
747.6,67.5216,0.144279,-2.04995
748.2,67.5811,0.136006,-2.05128
748.8,67.6419,0.12957,-2.05262
749.4,67.7023,0.12057,-2.05261
750,67.7642,0.116834,-2.05324
750.6,67.8236,0.11049,-2.05393
751.2,67.8844,0.105913,-2.05524
751.8,67.9451,0.0916385,-2.05623
752.4,68.0047,0.0947698,-2.05774
753,68.0656,0.0786344,-2.05653
753.6,68.1264,0.0830027,-2.05787
754.2,68.1863,0.0734263,-2.05919
754.8,68.2477,0.0696535,-2.05922
755.4,68.3077,0.0603803,-2.06051
756,68.367,0.0633472,-2.06183
756.6,68.4276,0.0561186,-2.06252
757.2,68.4891,0.0468018,-2.06312
757.8,68.5484,0.0458075,-2.06386
758.4,68.6095,0.0339045,-2.06515
759,68.6691,0.0312778,-2.06644
759.6,68.728,0.0268183,-2.06644
760.2,68.7907,0.0211078,-2.06661
760.8,68.8502,0.0256566,-2.06776
761.4,68.9112,0.0235388,-2.0677
762,68.9719,0.0130523,-2.06932
762.6,69.0318,0.0179148,-2.07039
763.2,69.0914,0.0128645,-2.07083
763.8,69.1521,0.00865811,-2.0735
764.4,69.2128,0.00689679,-2.07434
765,69.273,0.00105637,-2.07568
765.6,69.3328,-0.0040271,-2.07707
766.2,69.3933,-0.0121517,-2.07698
766.8,69.4536,-0.014911,-2.07627
767.4,69.5132,-0.010794,-2.07564
768,69.5739,-0.0264769,-2.07567
768.6,69.6341,-0.0235567,-2.07701
769.2,69.6947,-0.0279232,-2.07698
769.8,69.755,-0.0360195,-2.07965
770.4,69.8164,-0.035718,-2.07961
771,69.8756,-0.0379383,-2.08192
771.6,69.9353,-0.0545163,-2.08242
772.2,69.9968,-0.0566357,-2.08361
772.8,70.0578,-0.0590769,-2.08489
773.4,70.118,-0.0630878,-2.08436
774,70.1783,-0.0667238,-2.08497
774.6,70.2389,-0.0688082,-2.08495
775.2,70.3,-0.0674441,-2.08555
775.8,70.36,-0.0748904,-2.08554
776.4,70.4207,-0.0689363,-2.08556
777,70.4818,-0.0764054,-2.08685
777.6,70.5401,-0.0773071,-2.08867
778.2,70.6009,-0.0768971,-2.08883
778.8,70.6634,-0.0776062,-2.09024
779.4,70.7239,-0.0863403,-2.09034
780,70.7844,-0.0847448,-2.09282
780.6,70.8446,-0.0920145,-2.09286
781.2,70.9058,-0.101942,-2.09344
781.8,70.9671,-0.100268,-2.09344
782.4,71.0277,-0.095903,-2.09395
783,71.0888,-0.103065,-2.0935
783.6,71.1492,-0.118976,-2.09476
784.2,71.2104,-0.125007,-2.09487
784.8,71.2714,-0.11119,-2.09477
785.4,71.332,-0.117701,-2.09479
786,71.3938,-0.123149,-2.09608
786.6,71.452,-0.120721,-2.09621
787.2,71.5143,-0.118572,-2.09707
787.8,71.5751,-0.113517,-2.09838
788.4,71.6365,-0.127224,-2.09867
789,71.6967,-0.117969,-2.09971
789.6,71.7574,-0.135232,-2.10103
790.2,71.8197,-0.130847,-2.10004
790.8,71.8804,-0.127498,-2.10003
791.4,71.9416,-0.141509,-2.10082
792,72.0019,-0.133267,-2.10178
792.6,72.0628,-0.132771,-2.10267
793.2,72.1249,-0.136962,-2.10371
793.8,72.1853,-0.133504,-2.10399
794.4,72.2465,-0.133826,-2.10399
795,72.3079,-0.149932,-2.1053
795.6,72.3691,-0.140231,-2.10644
796.2,72.4298,-0.152278,-2.1066
796.8,72.4906,-0.15185,-2.10662
797.4,72.5508,-0.159956,-2.10531
798,72.6123,-0.169562,-2.10531
798.6,72.673,-0.163674,-2.10662
799.2,72.7341,-0.156318,-2.10781
799.8,72.7954,-0.161529,-2.10928
800.4,72.8559,-0.169304,-2.10928
801,72.9167,-0.170509,-2.10925
801.6,72.9777,-0.168719,-2.10925
802.2,73.0377,-0.171842,-2.10929
802.8,73.0994,-0.161276,-2.112
803.4,73.1587,-0.171645,-2.11189
804,73.2183,-0.180921,-2.11187
804.6,73.2807,-0.180248,-2.11057
805.2,73.3414,-0.18422,-2.11052
805.8,73.402,-0.194789,-2.11189
806.4,73.462,-0.192548,-2.11292
807,73.5219,-0.1954,-2.11193
807.6,73.5834,-0.189137,-2.11053
808.2,73.644,-0.188645,-2.11189
808.8,73.703,-0.19122,-2.11452
809.4,73.7648,-0.19393,-2.11453
810,73.8262,-0.193131,-2.1145
810.6,73.8868,-0.190515,-2.11321
811.2,73.9468,-0.196062,-2.11384
811.8,74.0085,-0.198478,-2.11545
812.4,74.0688,-0.194352,-2.11551
813,74.1296,-0.196904,-2.11683
813.6,74.1904,-0.200049,-2.11778
814.2,74.2515,-0.206689,-2.11683
814.8,74.3124,-0.206663,-2.11816
815.4,74.373,-0.20655,-2.11815
816,74.4338,-0.206459,-2.11815
816.6,74.4938,-0.206477,-2.1195
817.2,74.555,-0.208166,-2.11946
817.8,74.6167,-0.205778,-2.11946
818.4,74.6763,-0.211075,-2.12046
819,74.7376,-0.212273,-2.12045
819.6,74.7983,-0.213085,-2.12046
820.2,74.8585,-0.207487,-2.12178
820.8,74.9203,-0.209707,-2.12409
821.4,74.9809,-0.216194,-2.12463
822,75.0415,-0.213841,-2.12374
822.6,75.1036,-0.222098,-2.12374
823.2,75.1648,-0.219023,-2.12288
823.8,75.2254,-0.220279,-2.1211
824.4,75.2849,-0.215387,-2.12111
825,75.3477,-0.213899,-2.12144
825.6,75.4083,-0.215758,-2.12149
826.2,75.4695,-0.218462,-2.12145
826.8,75.5299,-0.226413,-2.12241
827.4,75.5918,-0.21851,-2.12633
828,75.6527,-0.242841,-2.12769
828.6,75.714,-0.231636,-2.12319
829.2,75.7758,-0.237901,-2.1232
829.8,75.8369,-0.242805,-2.12374
830.4,75.8973,-0.244622,-2.12518
831,75.9584,-0.244449,-2.12587
831.6,76.02,-0.235461,-2.1244
832.2,76.0811,-0.227537,-2.1244
832.8,76.1419,-0.238603,-2.1244
833.4,76.2034,-0.23324,-2.12579
834,76.2646,-0.233653,-2.12572
834.6,76.3256,-0.232712,-2.12593
835.2,76.3868,-0.233034,-2.12704
835.8,76.4485,-0.222031,-2.12704
836.4,76.5094,-0.21859,-2.12833
837,76.5699,-0.222302,-2.12714
837.6,76.6313,-0.230884,-2.12835
838.2,76.6932,-0.227787,-2.12835
838.8,76.7545,-0.228144,-2.12904
839.4,76.8154,-0.221971,-2.13101
840,76.8765,-0.216465,-2.13099