File: 01_Data/Helmet_Strap/STA/N2/10K_min/Helmet_Strap_STA_N2_10KData_250303_R1.csv
Temp./C,Time/min,DSC/(mW/mg),Mass loss/mg
60.0,0.0,0.561198,-0.0014095
60.6,0.0839858,0.571486,-0.0015236
61.2,0.158272,0.589761,-0.0016836
61.8,0.235505,0.596772,-0.00213071
62.4,0.313703,0.604892,-0.00275968
63,0.387912,0.618464,-0.0041677
63.6,0.466451,0.623864,-0.00201098
64.2,0.538353,0.632115,-0.00185798
64.8,0.612964,0.651075,-0.00342317
65.4,0.68619,0.658102,-0.00338728
66,0.755228,0.673185,-0.00334995
66.6,0.829495,0.673116,-0.0020347
67.2,0.899274,0.679043,-0.00208902
67.8,0.970484,0.684853,-0.00220888
68.4,1.0396,0.699551,-0.00330246
69,1.10849,0.704536,-0.00334794
69.6,1.17844,0.720127,-0.0036227
70.2,1.24676,0.719866,-0.00362545
70.8,1.31587,0.728672,-0.00358557
71.4,1.38384,0.734468,-0.00237018
72,1.45173,0.745849,-0.00475225
72.6,1.51966,0.751848,-0.00351729
73.2,1.58731,0.757572,-0.00362808
73.8,1.65383,0.764677,-0.00363248
74.4,1.71995,0.766009,-0.00363046
75,1.78653,0.780636,-0.00361602
75.6,1.85244,0.788041,-0.00356034
76.2,1.91744,0.797177,-0.00493543
76.8,1.98312,0.78893,-0.00493665
77.4,2.04443,0.806261,-0.00362721
78,2.11341,0.804746,-0.00514832
78.6,2.17825,0.816773,-0.00630522
79.2,2.24256,0.82262,-0.00502453
79.8,2.30675,0.832922,-0.0062493
80.4,2.37152,0.836028,-0.00626009
81,2.43616,0.848694,-0.00754204
81.6,2.49921,0.850381,-0.00626421
82.2,2.56117,0.849736,-0.00658742
82.8,2.62551,0.852013,-0.00769996
83.4,2.68849,0.850545,-0.00879487
84,2.75167,0.860362,-0.00757116
84.6,2.81361,0.862355,-0.00890478
85.2,2.87579,0.869121,-0.00894744
85.8,2.93894,0.871859,-0.00890154
86.4,3.00115,0.873422,-0.00890731
87,3.06229,0.876933,-0.00756639
87.6,3.12443,0.880778,-0.00868351
88.2,3.18588,0.883165,-0.00766117
88.8,3.24709,0.882206,-0.00868439
89.4,3.30854,0.887331,-0.00888435
90,3.36957,0.897202,-0.00888343
90.6,3.42947,0.890366,-0.0088999
91.2,3.49082,0.890526,-0.00893731
91.8,3.5523,0.887189,-0.0089218
92.4,3.61251,0.896201,-0.0116353
93,3.67426,0.894352,-0.010252
93.6,3.73277,0.892192,-0.0112113
94.2,3.79371,0.889362,-0.0103377
94.8,3.85276,0.888622,-0.0116232
95.4,3.91148,0.883347,-0.0103146
96,3.97366,0.887868,-0.0116323
96.6,4.03332,0.884338,-0.01164
97.2,4.09174,0.883643,-0.0116278
97.8,4.15017,0.880994,-0.0129264
98.4,4.21045,0.872166,-0.0116192
99,4.2701,0.870013,-0.0109391
99.6,4.32872,0.869756,-0.0102928
100.2,4.38841,0.871395,-0.01163
100.8,4.44651,0.864804,-0.0116248
101.4,4.50323,0.861031,-0.0129472
102,4.56451,0.851445,-0.0129504
102.6,4.62184,0.846777,-0.0117424
103.2,4.68262,0.845665,-0.0116314
103.8,4.74044,0.843009,-0.0115947
104.4,4.79923,0.836896,-0.0129492
105,4.85875,0.835961,-0.0129855
105.6,4.91541,0.828022,-0.012193
106.2,4.97442,0.826801,-0.0137726
106.8,5.03343,0.825769,-0.0145916
107.4,5.092,0.817544,-0.0142741
108,5.15065,0.811356,-0.012965
108.6,5.20897,0.815538,-0.014269
109.2,5.26763,0.804662,-0.0142832
109.8,5.32603,0.808036,-0.015506
110.4,5.38434,0.802977,-0.0168457
111,5.44188,0.797317,-0.0155828
111.6,5.50092,0.803428,-0.015589
112.2,5.55847,0.790207,-0.014223
112.8,5.61445,0.798069,-0.01361
113.4,5.6751,0.79096,-0.0143661
114,5.73259,0.775227,-0.0136423
114.6,5.79174,0.784138,-0.0149587
115.2,5.84823,0.778273,-0.014328
115.8,5.90522,0.77848,-0.01427
116.4,5.96477,0.777452,-0.0143062
117,6.02325,0.776805,-0.0136062
117.6,6.0814,0.775975,-0.0149364
118.2,6.13888,0.776491,-0.014721
118.8,6.19743,0.768896,-0.01493
119.4,6.2553,0.76654,-0.013737
120,6.31236,0.770565,-0.015018
120.6,6.37181,0.770022,-0.0163587
121.2,6.42712,0.767421,-0.0163754
121.8,6.48587,0.768965,-0.01636
122.4,6.54518,0.766203,-0.0163712
123,6.60128,0.764772,-0.0137227
123.6,6.66054,0.771425,-0.0146596
124.2,6.71787,0.76591,-0.0165783
124.8,6.7756,0.771248,-0.0166803
125.4,6.83332,0.76283,-0.0153372
126,6.89086,0.765967,-0.0142628
126.6,6.94929,0.763986,-0.0139871
127.2,7.00594,0.765949,-0.0142037
127.8,7.0632,0.764676,-0.0149391
128.4,7.12285,0.766133,-0.0152594
129,7.17917,0.770556,-0.0152532
129.6,7.2352,0.774081,-0.016635
130.2,7.29256,0.777985,-0.0152609
130.8,7.35103,0.779036,-0.01526
131.4,7.40851,0.7807,-0.0152658
132,7.46596,0.782264,-0.0142701
132.6,7.52346,0.783897,-0.0152746
133.2,7.58001,0.78083,-0.0152364
133.8,7.63745,0.786472,-0.0155436
134.4,7.69585,0.784997,-0.015259
135,7.75266,0.789608,-0.0139447
135.6,7.80747,0.78779,-0.015261
136.2,7.86532,0.789848,-0.0152598
136.8,7.92365,0.792305,-0.0146372
137.4,7.98006,0.800816,-0.0139398
138,8.03797,0.796768,-0.0131912
138.6,8.09565,0.796676,-0.012617
139.2,8.15121,0.804025,-0.013305
139.8,8.20797,0.801826,-0.013935
140.4,8.26669,0.805733,-0.0152591
141,8.32423,0.805237,-0.0148275
141.6,8.38096,0.809545,-0.0139398
142.2,8.43782,0.804859,-0.0139407
142.8,8.49593,0.813083,-0.0152606
143.4,8.55086,0.801206,-0.0166018
144,8.60843,0.811577,-0.0152705
144.6,8.66519,0.812752,-0.0166086
145.2,8.7225,0.811652,-0.0165693
145.8,8.77921,0.813222,-0.0152567
146.4,8.83601,0.818833,-0.01526
147,8.8923,0.829892,-0.0152762
147.6,8.94962,0.817313,-0.0132747
148.2,9.00629,0.815997,-0.0132037
148.8,9.06326,0.829757,-0.0145999
149.4,9.12047,0.818874,-0.0145968
150,9.17435,0.821136,-0.0159164
150.6,9.23274,0.828696,-0.0159199
151.2,9.28926,0.826493,-0.0163096
151.8,9.34718,0.82811,-0.0169001
152.4,9.40257,0.827541,-0.0163612
153,9.46044,0.823895,-0.0155852
153.6,9.51561,0.826648,-0.014596
154.2,9.57344,0.823498,-0.0146009
154.8,9.63061,0.832938,-0.0159484
155.4,9.68638,0.824521,-0.0159205
156,9.7435,0.829506,-0.0156018
156.6,9.79975,0.833006,-0.0159528
157.2,9.85669,0.835247,-0.01724
157.8,9.9132,0.831052,-0.015939
158.4,9.96786,0.84052,-0.0160106
159,10.0252,0.842848,-0.0172399
159.6,10.083,0.840789,-0.017226
160.2,10.1402,0.846409,-0.0159161
160.8,10.1971,0.848553,-0.01592
161.4,10.2531,0.841869,-0.01592
162,10.3097,0.845856,-0.0163888
162.6,10.3668,0.852544,-0.0172293
163.2,10.4224,0.854722,-0.0165825
163.8,10.48,0.848789,-0.0178916
164.4,10.5356,0.855169,-0.01789
165,10.5921,0.856848,-0.01789
165.6,10.6482,0.856909,-0.0178623
166.2,10.7051,0.857884,-0.017182
166.8,10.7618,0.854487,-0.0179003
167.4,10.8165,0.862991,-0.0178986
168,10.8742,0.865065,-0.0175342
168.6,10.931,0.864259,-0.0175805
169.2,10.9884,0.870746,-0.0188826
169.8,11.0442,0.867106,-0.0188762
170.4,11.1015,0.873222,-0.0201975
171,11.1582,0.860711,-0.01985
171.6,11.2143,0.868679,-0.0191359
172.2,11.2715,0.866856,-0.01855
172.8,11.3272,0.877303,-0.0185632
173.4,11.3847,0.865388,-0.0188792
174,11.4403,0.877093,-0.0198538
174.6,11.4972,0.879769,-0.0198702
175.2,11.5542,0.874765,-0.0185135
175.8,11.6104,0.876312,-0.0186077
176.4,11.6677,0.877968,-0.020858
177,11.7241,0.876511,-0.02119
177.6,11.7786,0.878797,-0.019798
178.2,11.8373,0.880192,-0.0211645
178.8,11.8935,0.887982,-0.0211803
179.4,11.9504,0.895475,-0.0198964
180,12.0048,0.892401,-0.01987
180.6,12.0629,0.889413,-0.0198698
181.2,12.1197,0.890817,-0.0207349
181.8,12.1766,0.891078,-0.02118
182.4,12.2329,0.891378,-0.021196
183,12.2892,0.897935,-0.0224342
183.6,12.3455,0.898661,-0.0215114
184.2,12.4022,0.896853,-0.02151
184.8,12.4588,0.897784,-0.0214391
185.4,12.5157,0.898436,-0.0228302
186,12.5718,0.906524,-0.0228301
186.6,12.6286,0.904039,-0.0224862
187.2,12.6856,0.90807,-0.02251
187.8,12.7414,0.906805,-0.02251
188.4,12.7982,0.905351,-0.0225237
189,12.8544,0.910514,-0.0235094
189.6,12.9085,0.912379,-0.0251449
190.2,12.9668,0.920189,-0.0251662
190.8,13.0231,0.912331,-0.0251414
191.4,13.08,0.919445,-0.023741
192,13.136,0.916164,-0.023834
192.6,13.1924,0.918804,-0.0251254
193.2,13.2491,0.911225,-0.0261356
193.8,13.3053,0.916779,-0.0258402
194.4,13.359,0.911083,-0.0257229
195,13.4177,0.91566,-0.0254506
195.6,13.4748,0.915906,-0.0251425
196.2,13.5305,0.905602,-0.0253606
196.8,13.589,0.9222,-0.0267899
197.4,13.6445,0.916075,-0.0267833
198,13.7,0.924904,-0.0277871
198.6,13.7566,0.920235,-0.02778
199.2,13.8139,0.917708,-0.02778
199.8,13.8698,0.921028,-0.0277846
200.4,13.9255,0.928795,-0.0277851
201,13.9817,0.915896,-0.02778
201.6,14.038,0.927427,-0.02778
202.2,14.0951,0.933633,-0.028159
202.8,14.1507,0.929926,-0.0304077
203.4,14.2076,0.931621,-0.031104
204,14.2643,0.92706,-0.03139
204.6,14.3198,0.928554,-0.03139
205.2,14.3774,0.930092,-0.0313895
205.8,14.4315,0.927476,-0.032431
206.4,14.4894,0.929341,-0.033042
207,14.5456,0.933576,-0.0330421
207.6,14.6028,0.933749,-0.0343604
208.2,14.6592,0.934485,-0.03436
208.8,14.7126,0.940935,-0.0343589
209.4,14.772,0.934328,-0.0330467
210,14.8291,0.932032,-0.03304
210.6,14.885,0.940635,-0.03304
211.2,14.9417,0.938327,-0.0330394
211.8,14.9981,0.937321,-0.0343459
212.4,15.0546,0.947402,-0.0346654
213,15.1112,0.946117,-0.03568
213.6,15.1678,0.942281,-0.0356799
214.2,15.2244,0.942149,-0.0364332
214.8,15.2818,0.947312,-0.037
215.4,15.3375,0.947712,-0.0369972
216,15.3949,0.955073,-0.0374225
216.6,15.45,0.958286,-0.03766
217.2,15.5082,0.957741,-0.0376192
217.8,15.5637,0.959935,-0.0389935
218.4,15.621,0.956013,-0.040291
219,15.6772,0.959063,-0.04029
219.6,15.7334,0.959488,-0.04029
220.2,15.7906,0.958756,-0.04029
220.8,15.8469,0.961632,-0.04029
221.4,15.9053,0.960705,-0.0402903
222,15.9604,0.970815,-0.0417879
222.6,16.0171,0.976329,-0.0422793
223.2,16.072,0.972006,-0.0429203
223.8,16.1295,0.973866,-0.0429201
224.4,16.1872,0.97649,-0.0442538
225,16.2448,0.980432,-0.0442219
225.6,16.3015,0.981766,-0.0455598
226.2,16.3571,0.983697,-0.04556
226.8,16.4138,0.991162,-0.0455526
227.4,16.4711,0.992947,-0.0468792
228,16.528,0.992274,-0.04688
228.6,16.5843,0.994002,-0.0468808
229.2,16.6409,0.993414,-0.04819
229.8,16.6985,0.995304,-0.0482772
230.4,16.754,0.994364,-0.0488599
231,16.811,1.00123,-0.0495911
231.6,16.8675,0.999316,-0.0495213
232.2,16.9233,1.00534,-0.0508287
232.8,16.9799,1.00668,-0.0521399
233.4,17.0369,1.01353,-0.0521396
234,17.0937,1.00195,-0.0541738
234.6,17.15,1.00354,-0.05412
235.2,17.2065,1.00327,-0.05412
235.8,17.2641,0.987305,-0.0541211
236.4,17.3207,0.989461,-0.0554835
237,17.3744,0.988238,-0.0561555
237.6,17.4334,0.983407,-0.056431
238.2,17.4907,0.976827,-0.0574004
238.8,17.5477,0.970743,-0.0583978
239.4,17.604,0.972774,-0.060049
240,17.6603,0.971424,-0.06005
240.6,17.7165,0.967403,-0.06005
241.2,17.7721,0.963387,-0.0611114
241.8,17.8299,0.972586,-0.0613684
242.4,17.886,0.962158,-0.0629396
243,17.9413,0.962162,-0.0639515
243.6,18.0003,0.962037,-0.0653186
244.2,18.0553,0.968397,-0.0653198
244.8,18.1131,0.957475,-0.0664426
245.4,18.1673,0.952165,-0.06663
246,18.2257,0.967362,-0.0679781
246.6,18.2825,0.967393,-0.0679454
247.2,18.3395,0.956325,-0.06926
247.8,18.396,0.960943,-0.069853
248.4,18.452,0.958856,-0.0705452
249,18.5098,0.957959,-0.0732261
249.6,18.5654,0.955694,-0.0745628
250.2,18.6235,0.961024,-0.0746734
250.8,18.6791,0.95749,-0.0758608
251.4,18.7355,0.957808,-0.0771182
252,18.7911,0.948381,-0.0783833
252.6,18.8503,0.951609,-0.0804518
253.2,18.9053,0.959186,-0.0804709
253.8,18.9632,0.945182,-0.0818171
254.4,19.0202,0.940606,-0.0829888
255,19.0773,0.955248,-0.0844216
255.6,19.1336,0.951682,-0.0857404
256.2,19.1897,0.95049,-0.0870999
256.8,19.2472,0.948652,-0.0874185
257.4,19.3042,0.952112,-0.0891876
258,19.3604,0.952897,-0.0897913
258.6,19.4161,0.95519,-0.0911232
259.2,19.4713,0.952859,-0.0928428
259.8,19.5295,0.945438,-0.0944647
260.4,19.5882,0.954481,-0.0958705
261,19.6435,0.947002,-0.0984681
261.6,19.7004,0.945026,-0.10087
262.2,19.758,0.94806,-0.102301
262.8,19.8135,0.94311,-0.103954
263.4,19.8704,0.949912,-0.104771
264,19.9276,0.943208,-0.107461
264.6,19.9858,0.948234,-0.108911
265.2,20.0418,0.947007,-0.108933
265.8,20.0979,0.942919,-0.111105
266.4,20.1558,0.951663,-0.113193
267,20.2121,0.942797,-0.113839
267.6,20.2689,0.936489,-0.115227
268.2,20.3263,0.938078,-0.119456
268.8,20.3825,0.927716,-0.121038
269.4,20.4395,0.917023,-0.122246
270,20.496,0.913967,-0.123607
270.6,20.5537,0.913967,-0.124929
271.2,20.6096,0.908481,-0.126223
271.8,20.6669,0.901941,-0.128326
272.4,20.7235,0.897017,-0.131692
273,20.7796,0.888087,-0.133159
273.6,20.8373,0.884241,-0.134471
274.2,20.895,0.889057,-0.134756
274.8,20.9512,0.890858,-0.13581
275.4,21.007,0.890243,-0.13844
276,21.066,0.900566,-0.139745
276.6,21.1214,0.910989,-0.142155
277.2,21.179,0.925007,-0.143811
277.8,21.2345,0.932952,-0.145475
278.4,21.294,0.956865,-0.147088
279,21.3516,0.959149,-0.149447
279.6,21.4086,0.974757,-0.150703
280.2,21.4651,0.990571,-0.151983
280.8,21.5203,1.0115,-0.155026
281.4,21.579,1.02016,-0.155856
282,21.6383,1.03107,-0.157732
282.6,21.694,1.03526,-0.158933
283.2,21.7513,1.03204,-0.160444
283.8,21.8084,1.03876,-0.163212
284.4,21.8652,1.04094,-0.165868
285,21.923,1.04736,-0.165782
285.6,21.9796,1.05032,-0.167101
286.2,22.0364,1.05236,-0.168409
286.8,22.0927,1.04763,-0.170552
287.4,22.1506,1.05415,-0.172774
288,22.2056,1.05627,-0.174655
288.6,22.2635,1.05581,-0.175217
289.2,22.3215,1.05811,-0.177302
289.8,22.3785,1.0504,-0.178159
290.4,22.4361,1.05145,-0.177741
291,22.4936,1.05447,-0.179206
291.6,22.5509,1.05521,-0.181868
292.2,22.6066,1.04646,-0.185582
292.8,22.6636,1.04353,-0.185528
293.4,22.7197,1.05369,-0.18444
294,22.7782,1.04903,-0.185942
294.6,22.8351,1.04722,-0.188369
295.2,22.8923,1.04825,-0.188427
295.8,22.9489,1.05035,-0.189807
296.4,23.0052,1.04571,-0.191132
297,23.0628,1.04005,-0.193806
297.6,23.121,1.04174,-0.194509
298.2,23.1766,1.03174,-0.195079
298.8,23.2343,1.03171,-0.196417
299.4,23.2911,1.03125,-0.19772
300,23.3478,1.02559,-0.198736
300.6,23.4056,1.02791,-0.199902
301.2,23.4632,1.02169,-0.20036
301.8,23.5191,1.02246,-0.201678
302.4,23.5765,1.01873,-0.202989
303,23.6337,1.00616,-0.204358
303.6,23.69,1.00927,-0.204469
304.2,23.7477,0.993147,-0.206973
304.8,23.8032,0.996941,-0.208089
305.4,23.8636,0.997915,-0.207962
306,23.9176,0.993471,-0.209459
306.6,23.976,0.999817,-0.210566
307.2,24.0337,0.986039,-0.211906
307.8,24.0902,0.983142,-0.213078
308.4,24.1472,0.984314,-0.213664
309,24.2039,0.979515,-0.214533
309.6,24.2617,0.980129,-0.215747
310.2,24.3191,0.976173,-0.217994
310.8,24.3757,0.975549,-0.217138
311.4,24.4313,0.969231,-0.218427
312,24.4905,0.968701,-0.21851
312.6,24.548,0.967483,-0.21979
313.2,24.6044,0.95729,-0.219697
313.8,24.6623,0.961157,-0.22111
314.4,24.7192,0.951717,-0.221112
315,24.7769,0.949028,-0.222743
315.6,24.8324,0.946744,-0.223455
316.2,24.8909,0.944887,-0.223081
316.8,24.9482,0.935301,-0.224432
317.4,25.0059,0.936367,-0.22472
318,25.0619,0.936797,-0.226074
318.6,25.12,0.93004,-0.226056
319.2,25.1768,0.923445,-0.22735
319.8,25.2338,0.924313,-0.22735
320.4,25.2913,0.915406,-0.228367
321,25.3483,0.912202,-0.22963
321.6,25.4054,0.913044,-0.22966
322.2,25.4635,0.901868,-0.228921
322.8,25.5203,0.900093,-0.230319
323.4,25.5786,0.897388,-0.231625
324,25.6348,0.900252,-0.23167
324.6,25.6927,0.90171,-0.233942
325.2,25.7505,0.891803,-0.23394
325.8,25.8076,0.891587,-0.233589
326.4,25.865,0.895663,-0.2326
327,25.923,0.891772,-0.235259
327.6,25.9791,0.878571,-0.23526
328.2,26.0348,0.885351,-0.235272
328.8,26.0946,0.882135,-0.234921
329.4,26.1505,0.871987,-0.235262
330,26.2091,0.868866,-0.235261
330.6,26.2662,0.87748,-0.237959
331.2,26.3234,0.880689,-0.237912
331.8,26.3815,0.874726,-0.239543
332.4,26.4385,0.875969,-0.23954
333,26.4952,0.874263,-0.23954
333.6,26.5533,0.878647,-0.23954
334.2,26.609,0.873528,-0.239541
334.8,26.6676,0.876628,-0.240864
335.4,26.7249,0.875954,-0.240862
336,26.7829,0.869553,-0.242185
336.6,26.8406,0.868636,-0.242354
337.2,26.8947,0.863502,-0.243499
337.8,26.9556,0.865441,-0.244269
338.4,27.0133,0.865076,-0.24578
339,27.0708,0.864921,-0.246264
339.6,27.1282,0.865981,-0.24679
340.2,27.1848,0.867654,-0.246792
340.8,27.2441,0.866429,-0.245808
341.4,27.301,0.867823,-0.246792
342,27.3584,0.871228,-0.24679
342.6,27.4157,0.874629,-0.2468
343.2,27.4725,0.868567,-0.248112
343.8,27.5309,0.872915,-0.24811
344.4,27.5888,0.867029,-0.24811
345,27.6461,0.867607,-0.24811
345.6,27.7031,0.87618,-0.248099
346.2,27.7617,0.875227,-0.249428
346.8,27.8195,0.865312,-0.24943
347.4,27.8767,0.864266,-0.249432
348,27.9345,0.876283,-0.251292
348.6,27.9918,0.872894,-0.252058
349.2,28.0502,0.869311,-0.252525
349.8,28.1079,0.870905,-0.252394
350.4,28.1654,0.872284,-0.25371
351,28.2226,0.877208,-0.253736
351.6,28.2805,0.878664,-0.255613
352.2,28.3388,0.877234,-0.256009
352.8,28.3965,0.871952,-0.253156
353.4,28.4541,0.878931,-0.25316
354,28.5119,0.879921,-0.255085
354.6,28.5684,0.880043,-0.258775
355.2,28.6277,0.888919,-0.257413
355.8,28.6845,0.886,-0.25744
356.4,28.7422,0.884741,-0.258621
357,28.7979,0.884545,-0.25876
357.6,28.859,0.886525,-0.258747
358.2,28.9163,0.881864,-0.25809
358.8,28.9744,0.887388,-0.2581
359.4,29.0311,0.897501,-0.258086
360,29.0896,0.892145,-0.256673
360.6,29.1463,0.896481,-0.258087
361.2,29.2048,0.895135,-0.260399
361.8,29.2629,0.898571,-0.26041
362.4,29.3207,0.899334,-0.26041
363,29.378,0.90057,-0.259051
363.6,29.4368,0.904597,-0.259412
364.2,29.4944,0.904673,-0.260771
364.8,29.5517,0.903576,-0.26173
365.4,29.6079,0.910154,-0.261792
366,29.6679,0.913666,-0.26238
366.6,29.7249,0.92422,-0.262385
367.2,29.7841,0.924458,-0.263544
367.8,29.8413,0.926449,-0.26435
368.4,29.8992,0.926782,-0.26435
369,29.956,0.924226,-0.264298
369.6,30.0149,0.931048,-0.26567
370.2,30.0735,0.936356,-0.265212
370.8,30.1283,0.939615,-0.26567
371.4,30.1885,0.940669,-0.266288
372,30.2462,0.942828,-0.267704
372.6,30.3037,0.94817,-0.265735
373.2,30.3624,0.951362,-0.265778
373.8,30.4209,0.952814,-0.266113
374.4,30.4781,0.959772,-0.266158
375,30.5363,0.961785,-0.267431
375.6,30.5944,0.963795,-0.268783
376.2,30.653,0.969282,-0.268249
376.8,30.7105,0.969858,-0.267551
377.4,30.7683,0.97098,-0.268853
378,30.8258,0.980309,-0.26885
378.6,30.8841,0.980042,-0.269951
379.2,30.9417,0.976543,-0.27017
379.8,30.9991,0.98601,-0.270152
380.4,31.0583,0.989018,-0.270502
381,31.1145,0.989281,-0.271162
381.6,31.1722,0.991121,-0.272587
382.2,31.2304,1.00219,-0.271201
382.8,31.2905,1.00225,-0.272482
383.4,31.3488,1.015,-0.273812
384,31.407,1.01641,-0.271159
384.6,31.465,1.02188,-0.271162
385.2,31.5235,1.02029,-0.271172
385.8,31.5801,1.02863,-0.273771
386.4,31.6399,1.03454,-0.274694
387,31.6978,1.0467,-0.27511
387.6,31.7564,1.053,-0.276477
388.2,31.8143,1.06374,-0.276523
388.8,31.8733,1.07037,-0.276651
389.4,31.931,1.07719,-0.275683
390,31.9889,1.0866,-0.276993
390.6,32.0475,1.09206,-0.27693
391.2,32.105,1.10567,-0.278299
391.8,32.1631,1.11407,-0.279693
392.4,32.2216,1.13168,-0.27961
393,32.2799,1.13953,-0.27961
393.6,32.3386,1.15333,-0.27961
394.2,32.3966,1.16346,-0.279916
394.8,32.4542,1.17585,-0.281658
395.4,32.5126,1.19224,-0.282997
396,32.571,1.20567,-0.28291
396.6,32.6294,1.22705,-0.283109
397.2,32.6872,1.23983,-0.28422
397.8,32.7462,1.25971,-0.284497
398.4,32.8047,1.27281,-0.28554
399,32.8627,1.29991,-0.285539
399.6,32.921,1.30389,-0.284806
400.2,32.98,1.32992,-0.285537
400.8,33.0373,1.3469,-0.288189
401.4,33.0968,1.3748,-0.289491
402,33.1549,1.40023,-0.289413
402.6,33.2131,1.42057,-0.289494
403.2,33.2723,1.44329,-0.290813
403.8,33.3306,1.46914,-0.292235
404.4,33.3889,1.49721,-0.292199
405,33.4476,1.51728,-0.292784
405.6,33.5052,1.54553,-0.294101
406.2,33.5644,1.58788,-0.294043
406.8,33.6222,1.62151,-0.296696
407.4,33.6818,1.65137,-0.296741
408,33.7415,1.68731,-0.297914
408.6,33.8,1.72408,-0.299891
409.2,33.8583,1.76173,-0.300637
409.8,33.9175,1.80005,-0.303261
410.4,33.9758,1.84714,-0.304114
411,34.0347,1.88701,-0.30453
411.6,34.0942,1.93517,-0.305835
412.2,34.153,1.98855,-0.307257
412.8,34.2119,2.02607,-0.309812
413.4,34.2705,2.07931,-0.311241
414,34.3298,2.1272,-0.311255
414.6,34.3881,2.17998,-0.312546
415.2,34.4467,2.23299,-0.313851
415.8,34.5071,2.28172,-0.317461
416.4,34.5645,2.33812,-0.319905
417,34.6248,2.38717,-0.322547
417.6,34.6832,2.44063,-0.323978
418.2,34.7415,2.48244,-0.326474
418.8,34.7998,2.53946,-0.328686
419.4,34.8597,2.57926,-0.32978
420,34.9183,2.63068,-0.331879
420.6,34.9755,2.6776,-0.332415
421.2,35.0358,2.7095,-0.335165
421.8,35.0942,2.75643,-0.337976
422.4,35.1506,2.78779,-0.341848
423,35.2108,2.82057,-0.34419
423.6,35.2675,2.82697,-0.347265
424.2,35.3279,2.85202,-0.350654
424.8,35.3865,2.87734,-0.35435
425.4,35.445,2.89153,-0.358006
426,35.5054,2.88299,-0.361489
426.6,35.5636,2.89202,-0.363857
427.2,35.6219,2.8881,-0.366696
427.8,35.6802,2.88506,-0.370918
428.4,35.738,2.86111,-0.373958
429,35.7945,2.83736,-0.379174
429.6,35.8541,2.80792,-0.382248
430.2,35.9116,2.7776,-0.385433
430.8,35.9705,2.7457,-0.389793
431.4,36.0284,2.69408,-0.396377
432,36.0856,2.64527,-0.40124
432.6,36.1437,2.5883,-0.40538
433.2,36.2021,2.52134,-0.410339
433.8,36.2596,2.45468,-0.415543
434.4,36.3151,2.39994,-0.420762
435,36.376,2.33408,-0.425891
435.6,36.4329,2.26761,-0.431566
436.2,36.4912,2.21235,-0.436769
436.8,36.5488,2.15381,-0.443132
437.4,36.6064,2.09533,-0.449497
438,36.6645,2.04202,-0.455453
438.6,36.7222,1.99902,-0.461054
439.2,36.7808,1.95544,-0.468658
439.8,36.8379,1.92721,-0.475962
440.4,36.8964,1.89225,-0.481678
441,36.9547,1.86984,-0.487657
441.6,37.012,1.85294,-0.495168
442.2,37.0707,1.82947,-0.502774
442.8,37.1293,1.82045,-0.510976
443.4,37.1876,1.81538,-0.517815
444,37.2463,1.80406,-0.5251
444.6,37.3027,1.79444,-0.532614
445.2,37.3636,1.79534,-0.541529
445.8,37.4219,1.79517,-0.549644
446.4,37.4796,1.7893,-0.556922
447,37.538,1.78667,-0.56545
447.6,37.5966,1.7849,-0.57423
448.2,37.6553,1.79184,-0.58273
448.8,37.7139,1.79611,-0.591562
449.4,37.7716,1.79265,-0.600249
450,37.831,1.79393,-0.608348
450.6,37.8895,1.78775,-0.617971
451.2,37.9474,1.7972,-0.626025
451.8,38.0071,1.79162,-0.63589
452.4,38.0648,1.79283,-0.644577
453,38.1235,1.79052,-0.653458
453.6,38.1819,1.7926,-0.663836
454.2,38.2406,1.79296,-0.674427
454.8,38.2996,1.78844,-0.683408
455.4,38.3582,1.78603,-0.689895
456,38.4173,1.78337,-0.70093
456.6,38.4752,1.77939,-0.711073
457.2,38.5344,1.78043,-0.720966
457.8,38.5919,1.77707,-0.731568
458.4,38.6508,1.77194,-0.739709
459,38.7097,1.76681,-0.748487
459.6,38.7683,1.76546,-0.759024
460.2,38.8257,1.74635,-0.768668
460.8,38.8859,1.74601,-0.779698
461.4,38.9437,1.73457,-0.7889
462,39.001,1.73221,-0.797594
462.6,39.0603,1.72673,-0.808556
463.2,39.1188,1.71087,-0.818596
463.8,39.1776,1.70268,-0.827638
464.4,39.2351,1.68871,-0.837673
465,39.2939,1.67078,-0.848886
465.6,39.3523,1.66688,-0.856331
466.2,39.412,1.65622,-0.866746
466.8,39.4699,1.64634,-0.877168
467.4,39.5279,1.62354,-0.885829
468,39.5877,1.61873,-0.894459
468.6,39.6465,1.60359,-0.90403
469.2,39.7047,1.58773,-0.914986
469.8,39.763,1.57551,-0.92468
470.4,39.8209,1.56252,-0.934545
471,39.8798,1.55006,-0.941406
471.6,39.9388,1.53667,-0.951277
472.2,39.9977,1.51971,-0.959933
472.8,40.0563,1.50455,-0.969524
473.4,40.1143,1.48636,-0.980857
474,40.1734,1.47228,-0.989137
474.6,40.232,1.46112,-0.99809
475.2,40.2898,1.44822,-1.00724
475.8,40.3493,1.42905,-1.01448
476.4,40.4065,1.41498,-1.02539
477,40.4658,1.3988,-1.03295
477.6,40.5234,1.39246,-1.03946
478.2,40.5832,1.37599,-1.04929
478.8,40.6414,1.34921,-1.06165
479.4,40.6975,1.35103,-1.06926
480,40.7585,1.3334,-1.07769
480.6,40.8167,1.31257,-1.08682
481.2,40.8745,1.30744,-1.09401
481.8,40.9343,1.28884,-1.10205
482.4,40.9931,1.28006,-1.11086
483,41.0515,1.257,-1.11808
483.6,41.1108,1.25173,-1.1275
484.2,41.1693,1.23667,-1.13593
484.8,41.2277,1.22657,-1.14428
485.4,41.2871,1.20935,-1.15241
486,41.3455,1.197,-1.15914
486.6,41.404,1.18852,-1.165
487.2,41.4628,1.18146,-1.17313
487.8,41.5215,1.16484,-1.18011
488.4,41.5807,1.15261,-1.18476
489,41.64,1.13346,-1.19187
489.6,41.6981,1.12209,-1.2021
490.2,41.7573,1.119,-1.21009
490.8,41.8154,1.10018,-1.21629
491.4,41.8753,1.09196,-1.22304
492,41.933,1.07943,-1.23017
492.6,41.9927,1.07493,-1.23717
493.2,42.0511,1.06648,-1.24207
493.8,42.1097,1.05318,-1.24887
494.4,42.1694,1.04652,-1.25556
495,42.2277,1.03702,-1.25991
495.6,42.287,1.02111,-1.26801
496.2,42.3459,1.00955,-1.27524
496.8,42.4048,0.999359,-1.2809
497.4,42.4642,0.993653,-1.28663
498,42.5226,0.987141,-1.29229
498.6,42.5814,0.973781,-1.29643
499.2,42.6404,0.96147,-1.30235
499.8,42.6968,0.958782,-1.30739
500.4,42.7579,0.951732,-1.31373
501,42.8165,0.945397,-1.31682
501.6,42.8766,0.9364,-1.32296
502.2,42.9353,0.927242,-1.32955
502.8,42.9938,0.924557,-1.33393
503.4,43.0532,0.91127,-1.33841
504,43.1118,0.907195,-1.34195
504.6,43.1711,0.892957,-1.34759
505.2,43.2301,0.886698,-1.35399
505.8,43.2892,0.876996,-1.35923
506.4,43.3462,0.872535,-1.36263
507,43.4076,0.857824,-1.36603
507.6,43.4643,0.851508,-1.37018
508.2,43.5243,0.854885,-1.3755
508.8,43.5843,0.837276,-1.38007
509.4,43.6425,0.830281,-1.38487
510,43.7019,0.824301,-1.38937
510.6,43.7621,0.81652,-1.3939
511.2,43.8196,0.808762,-1.39903
511.8,43.8793,0.80454,-1.40267
512.4,43.9382,0.801002,-1.40737
513,43.9977,0.790409,-1.41052
513.6,44.0561,0.781795,-1.41388
514.2,44.1149,0.77708,-1.41878
514.8,44.1749,0.770298,-1.42231
515.4,44.2342,0.764033,-1.42626
516,44.2928,0.759306,-1.42794
516.6,44.3507,0.74825,-1.43349
517.2,44.4107,0.742709,-1.43674
517.8,44.4704,0.741406,-1.44287
518.4,44.5291,0.733096,-1.44627
519,44.5879,0.739194,-1.44957
519.6,44.6479,0.725321,-1.45269
520.2,44.7062,0.721909,-1.45797
520.8,44.7657,0.721034,-1.46096
521.4,44.8254,0.712567,-1.46494
522,44.8841,0.714893,-1.46894
522.6,44.9433,0.711005,-1.47031
523.2,45.0029,0.706835,-1.472
523.8,45.061,0.704473,-1.47821
524.4,45.1206,0.700746,-1.48359
525,45.1801,0.697879,-1.48782
525.6,45.2397,0.691774,-1.49066
526.2,45.2967,0.681341,-1.49551
526.8,45.3571,0.683956,-1.49943
527.4,45.4169,0.682592,-1.50071
528,45.4758,0.678472,-1.50478
528.6,45.5344,0.672361,-1.50938
529.2,45.5944,0.671805,-1.51227
529.8,45.6531,0.662862,-1.515
530.4,45.7123,0.661452,-1.52007
531,45.7707,0.653528,-1.52513
531.6,45.8304,0.650198,-1.52866
532.2,45.8884,0.647874,-1.53177
532.8,45.9485,0.647649,-1.53463
533.4,46.0085,0.6388,-1.53712
534,46.0687,0.623299,-1.54072
534.6,46.1269,0.618352,-1.54453
535.2,46.1851,0.617868,-1.54858
535.8,46.243,0.60611,-1.55241
536.4,46.3044,0.61774,-1.55612
537,46.3639,0.612125,-1.56076
537.6,46.4236,0.605772,-1.56362
538.2,46.4815,0.596651,-1.56668
538.8,46.5421,0.595769,-1.57092
539.4,46.6008,0.597842,-1.57278
540,46.6606,0.58804,-1.57723
540.6,46.7201,0.587843,-1.58156
541.2,46.779,0.579486,-1.58568
541.8,46.836,0.579842,-1.58803
542.4,46.8974,0.579133,-1.59147
543,46.957,0.563226,-1.59559
543.6,47.0152,0.557878,-1.59917
544.2,47.0749,0.550166,-1.60091
544.8,47.1343,0.55001,-1.60471
545.4,47.1942,0.554971,-1.60787
546,47.2528,0.545658,-1.6121
546.6,47.3117,0.539844,-1.6153
547.2,47.3711,0.531051,-1.61805
547.8,47.4303,0.532013,-1.62168
548.4,47.4895,0.518013,-1.62473
549,47.5478,0.510371,-1.62797
549.6,47.6078,0.501423,-1.63072
550.2,47.6663,0.497497,-1.63396
550.8,47.7262,0.501531,-1.63744
551.4,47.7856,0.486511,-1.641
552,47.8437,0.482669,-1.64487
552.6,47.9047,0.476597,-1.648
553.2,47.9636,0.471425,-1.65096
553.8,48.0216,0.463647,-1.65437
554.4,48.0815,0.45937,-1.65789
555,48.1406,0.448856,-1.66195
555.6,48.1998,0.446078,-1.66424
556.2,48.2599,0.437866,-1.66664
556.8,48.3188,0.434383,-1.67085
557.4,48.3771,0.428965,-1.6725
558,48.4375,0.429199,-1.6749
558.6,48.497,0.426855,-1.67804
559.2,48.5559,0.418559,-1.68234
559.8,48.6156,0.409496,-1.6845
560.4,48.6746,0.403271,-1.68936
561,48.7344,0.392526,-1.69327
561.6,48.7934,0.387431,-1.69621
562.2,48.8532,0.380083,-1.69839
562.8,48.9126,0.377142,-1.701
563.4,48.9719,0.373504,-1.70491
564,49.0311,0.371191,-1.7079
564.6,49.0907,0.366034,-1.71106
565.2,49.1501,0.358621,-1.71313
565.8,49.2098,0.353355,-1.71713
566.4,49.2695,0.347933,-1.71614
567,49.3274,0.341434,-1.7233
567.6,49.388,0.335675,-1.72729
568.2,49.4476,0.335866,-1.72992
568.8,49.5072,0.32916,-1.73182
569.4,49.5645,0.323238,-1.73258
570,49.6255,0.324963,-1.73625
570.6,49.686,0.323788,-1.73798
571.2,49.7447,0.315461,-1.74175
571.8,49.8041,0.306812,-1.74633
572.4,49.8634,0.299876,-1.74792
573,49.9239,0.29985,-1.74986
573.6,49.9837,0.295206,-1.75379
574.2,50.0428,0.295423,-1.75674
574.8,50.1024,0.288451,-1.75812
575.4,50.1629,0.280637,-1.76035
576,50.2219,0.279838,-1.76394
576.6,50.2815,0.268681,-1.7662
577.2,50.3405,0.264591,-1.77017
577.8,50.4006,0.260614,-1.77349
578.4,50.459,0.255974,-1.77571
579,50.5185,0.253078,-1.778
579.6,50.5785,0.253586,-1.77903
580.2,50.6384,0.25406,-1.78089
580.8,50.6971,0.247161,-1.78373
581.4,50.7568,0.2476,-1.78637
582,50.8164,0.241122,-1.78896
582.6,50.8745,0.242853,-1.79089
583.2,50.9362,0.242404,-1.79276
583.8,50.9955,0.232474,-1.7959
584.4,51.0549,0.236154,-1.79752
585,51.1151,0.235329,-1.80043
585.6,51.1747,0.229103,-1.80402
586.2,51.2335,0.232719,-1.80692
586.8,51.2928,0.234613,-1.80901
587.4,51.3525,0.233895,-1.81196
588,51.4117,0.228515,-1.81187
588.6,51.4713,0.227809,-1.81441
589.2,51.5313,0.234653,-1.81606
589.8,51.591,0.235413,-1.81757
590.4,51.651,0.226084,-1.81761
591,51.7103,0.23784,-1.82294
591.6,51.7692,0.233157,-1.82337
592.2,51.8296,0.232764,-1.82573
592.8,51.8896,0.23664,-1.82821
593.4,51.9493,0.238037,-1.83555
594,52.0089,0.24005,-1.83591
594.6,52.068,0.247963,-1.8388
595.2,52.1276,0.24928,-1.84011
595.8,52.1878,0.244057,-1.84136
596.4,52.2485,0.249513,-1.84441
597,52.3075,0.248501,-1.84434
597.6,52.3666,0.252457,-1.84499
598.2,52.4263,0.250339,-1.8471
598.8,52.4856,0.259995,-1.85114
599.4,52.5452,0.259986,-1.85397
600,52.6061,0.254568,-1.85446
600.6,52.6653,0.26129,-1.8571
601.2,52.725,0.26319,-1.85851
601.8,52.785,0.260242,-1.85902
602.4,52.8444,0.266997,-1.86104
603,52.9048,0.262501,-1.86244
603.6,52.964,0.264531,-1.86242
604.2,53.0242,0.271781,-1.86543
604.8,53.0832,0.270938,-1.86823
605.4,53.1436,0.270861,-1.86954
606,53.203,0.266352,-1.86982
606.6,53.2627,0.267904,-1.87248
607.2,53.3225,0.275781,-1.8742
607.8,53.3832,0.270209,-1.87681
608.4,53.442,0.275805,-1.88109
609,53.502,0.279917,-1.88258
609.6,53.5619,0.280494,-1.88076
610.2,53.622,0.281354,-1.88118
610.8,53.6817,0.282752,-1.88253
611.4,53.7414,0.287027,-1.88588
612,53.7996,0.292262,-1.88784
612.6,53.858,0.293954,-1.88915
613.2,53.9205,0.289801,-1.88911
613.8,53.9803,0.290951,-1.89043
614.4,54.0398,0.294455,-1.89378
615,54.0991,0.297599,-1.89507
615.6,54.1599,0.301866,-1.89587
616.2,54.2191,0.312261,-1.89963
616.8,54.2791,0.306385,-1.90084
617.4,54.337,0.317122,-1.90231
618,54.3985,0.313658,-1.90526
618.6,54.4586,0.318577,-1.90601
619.2,54.5179,0.325972,-1.90518
619.8,54.5772,0.322105,-1.90558
620.4,54.6374,0.329621,-1.90648
621,54.6971,0.32125,-1.90517
621.6,54.7567,0.327536,-1.90986
622.2,54.8164,0.328164,-1.91175
622.8,54.8766,0.332978,-1.91187
623.4,54.9375,0.333334,-1.91318
624,54.996,0.329321,-1.91444
624.6,55.0565,0.334916,-1.91579
625.2,55.1162,0.343889,-1.91854
625.8,55.1773,0.339295,-1.91855
626.4,55.2353,0.338029,-1.92193
627,55.2966,0.343443,-1.92133
627.6,55.3553,0.348234,-1.92252
628.2,55.415,0.339006,-1.92333
628.8,55.4738,0.353637,-1.92672
629.4,55.5337,0.362061,-1.92495
630,55.5947,0.367302,-1.92776
630.6,55.6551,0.37121,-1.9278
631.2,55.7157,0.369569,-1.93042
631.8,55.7753,0.380749,-1.93176
632.4,55.8346,0.374899,-1.93306
633,55.8948,0.37779,-1.93361
633.6,55.9547,0.374992,-1.93304
634.2,56.0145,0.372762,-1.93439
634.8,56.0736,0.380585,-1.93568
635.4,56.1325,0.379803,-1.93713
636,56.1947,0.379397,-1.93747
636.6,56.2553,0.380374,-1.93713
637.2,56.3143,0.382592,-1.93988
637.8,56.3736,0.387549,-1.94019
638.4,56.4347,0.381554,-1.94267
639,56.492,0.384115,-1.94397
639.6,56.5538,0.389377,-1.94535
640.2,56.6137,0.397006,-1.94664
640.8,56.6734,0.399293,-1.94547
641.4,56.7329,0.39474,-1.94666
642,56.7934,0.400941,-1.94655
642.6,56.8537,0.404962,-1.94797
643.2,56.9132,0.408205,-1.94933
643.8,56.9731,0.407345,-1.95072
644.4,57.0335,0.407106,-1.95193
645,57.093,0.413467,-1.95102
645.6,57.1532,0.411293,-1.95227
646.2,57.2131,0.401384,-1.95217
646.8,57.2731,0.404922,-1.95353
647.4,57.3329,0.41427,-1.95585
648,57.3924,0.410969,-1.95758
648.6,57.4518,0.402386,-1.95886
649.2,57.5121,0.406799,-1.95892
649.8,57.5721,0.408839,-1.96017
650.4,57.6316,0.407655,-1.96043
651,57.6919,0.409527,-1.96148
651.6,57.7507,0.411385,-1.96221
652.2,57.811,0.409205,-1.96534
652.8,57.871,0.402887,-1.96672
653.4,57.9307,0.405338,-1.96648
654,57.9904,0.403627,-1.96664
654.6,58.0507,0.403823,-1.96853
655.2,58.1106,0.406788,-1.96891
655.8,58.1706,0.40719,-1.97027
656.4,58.2302,0.40368,-1.97159
657,58.2906,0.405357,-1.97162
657.6,58.3499,0.401669,-1.97164
658.2,58.4094,0.402583,-1.97196
658.8,58.4698,0.399544,-1.97392
659.4,58.5291,0.406119,-1.97379
660,58.5885,0.406597,-1.97458
660.6,58.6489,0.401175,-1.97642
661.2,58.7083,0.387733,-1.97606
661.8,58.768,0.397496,-1.97742
662.4,58.8277,0.399316,-1.97774
663,58.8876,0.396578,-1.97774
663.6,58.9478,0.406298,-1.97774
664.2,59.0072,0.402004,-1.97927
664.8,59.067,0.410949,-1.98214
665.4,59.1265,0.407387,-1.98344
666,59.1872,0.403526,-1.98344
666.6,59.2472,0.399287,-1.98343
667.2,59.3063,0.41646,-1.98443
667.8,59.3664,0.40825,-1.98442
668.4,59.426,0.406448,-1.98572
669,59.4847,0.407055,-1.98486
669.6,59.5459,0.412478,-1.98444
670.2,59.6047,0.41575,-1.98444
670.8,59.6651,0.410122,-1.98623
671.4,59.7239,0.414914,-1.99
672,59.7845,0.405391,-1.99003
672.6,59.8448,0.411827,-1.99133
673.2,59.9039,0.415282,-1.99125
673.8,59.9638,0.415127,-1.992
674.4,60.0229,0.409675,-1.99346
675,60.0829,0.415228,-1.9941
675.6,60.144,0.414937,-1.99632
676.2,60.2038,0.405367,-1.99673
676.8,60.2636,0.408175,-1.99563
677.4,60.3229,0.401933,-1.99563
678,60.3836,0.405125,-1.99585
678.6,60.444,0.402191,-1.99719
679.2,60.5041,0.393703,-1.99761
679.8,60.5641,0.393484,-1.99753
680.4,60.6236,0.393647,-1.99892
681,60.6825,0.390819,-2.0013
681.6,60.7429,0.386364,-2.00158
682.2,60.8025,0.387115,-2.00288
682.8,60.8624,0.384532,-2.00426
683.4,60.9224,0.375749,-2.00546
684,60.9818,0.376652,-2.00656
684.6,61.0427,0.37851,-2.00683
685.2,61.102,0.372801,-2.00814
685.8,61.1615,0.371111,-2.00958
686.4,61.2211,0.373599,-2.01024
687,61.2807,0.370905,-2.01078
687.6,61.3409,0.359314,-2.0098
688.2,61.4008,0.356694,-2.01214
688.8,61.4607,0.351984,-2.01411
689.4,61.5208,0.350441,-2.01396
690,61.5809,0.350635,-2.01395
690.6,61.641,0.348481,-2.01494
691.2,61.7009,0.344801,-2.01626
691.8,61.7597,0.345604,-2.01627
692.4,61.8203,0.344058,-2.01769
693,61.8806,0.337756,-2.01753
693.6,61.9403,0.334048,-2.01788
694.2,62.0006,0.32843,-2.01829
694.8,62.0602,0.318167,-2.01884
695.4,62.1196,0.324783,-2.01939
696,62.1807,0.319193,-2.02192
696.6,62.2407,0.31573,-2.02283
697.2,62.3009,0.310282,-2.02318
697.8,62.3612,0.213851,-2.02317
698.4,62.4217,0.167395,-2.02587
699,62.4797,0.143065,-2.02571
699.6,62.5398,0.130934,-2.02559
700.2,62.5986,0.117861,-2.0264
700.8,62.6613,0.107218,-2.02691
701.4,62.7209,0.101157,-2.02789
702,62.7801,0.0892513,-2.02692
702.6,62.8409,0.0805088,-2.02832
703.2,62.9003,0.0816895,-2.03086
703.8,62.9608,0.0748561,-2.03088
704.4,63.0213,0.0637998,-2.03226
705,63.0806,0.0536853,-2.03253
705.6,63.1409,0.0462068,-2.0335
706.2,63.2009,0.0289831,-2.03612
706.8,63.2621,0.0265858,-2.03745
707.4,63.3216,0.029725,-2.03823
708,63.3806,0.0236467,-2.03746
708.6,63.4418,0.0197376,-2.03877
709.2,63.5017,0.0217249,-2.0389
709.8,63.5609,0.00983605,-2.03874
710.4,63.6213,0.000244006,-2.04144
711,63.6833,-0.00458705,-2.04177
711.6,63.744,-0.00253555,-2.04274
712.2,63.8035,-0.0127104,-2.04397
712.8,63.8634,-0.023247,-2.04531
713.4,63.9211,-0.0194236,-2.04668
714,63.9831,-0.0328882,-2.04728
714.6,64.0434,-0.0368161,-2.048
715.2,64.1036,-0.0438864,-2.048
715.8,64.1641,-0.0598846,-2.04952
716.4,64.2238,-0.0549108,-2.05086
717,64.2829,-0.0599222,-2.04947
717.6,64.3432,-0.066808,-2.05225
718.2,64.4036,-0.0707213,-2.05227
718.8,64.4643,-0.069063,-2.05327
719.4,64.5244,-0.0758665,-2.05376
720,64.5845,-0.0758998,-2.05621
720.6,64.6435,-0.083002,-2.05623
721.2,64.7023,-0.0859405,-2.05463
721.8,64.7649,-0.0899482,-2.0578
722.4,64.8245,-0.0926726,-2.0593
723,64.885,-0.0940479,-2.06055
723.6,64.9449,-0.106512,-2.06193
724.2,65.005,-0.0965612,-2.06063
724.8,65.0654,-0.0967447,-2.06063
725.4,65.1254,-0.0877339,-2.06062
726,65.1866,-0.0892103,-2.06179
726.6,65.2464,-0.0922933,-2.0642
727.2,65.3062,-0.0878302,-2.06551
727.8,65.366,0.0610313,-2.06654
728.4,65.4261,0.111407,-2.06774
729,65.4858,0.128961,-2.06942
729.6,65.5445,0.129774,-2.07016
730.2,65.6065,0.134473,-2.07154
730.8,65.6668,0.131394,-2.07149
731.4,65.7273,0.132775,-2.0728
732,65.7879,0.119575,-2.07411
732.6,65.8477,0.125371,-2.07412
733.2,65.9075,0.119294,-2.07285
733.8,65.9683,0.115335,-2.07459
734.4,66.0279,0.119163,-2.07538
735,66.0885,0.114082,-2.07499
735.6,66.1486,0.109573,-2.07743
736.2,66.2084,0.121288,-2.08001
736.8,66.2693,0.1075,-2.07996
737.4,66.3293,0.110699,-2.08128
738,66.3894,0.113563,-2.08208
738.6,66.4495,0.114804,-2.08033
739.2,66.509,0.107963,-2.08127
739.8,66.5708,0.105224,-2.08443
740.4,66.6309,0.101963,-2.08576
741,66.691,0.103612,-2.08653
741.6,66.752,0.1026,-2.08707
742.2,66.8122,0.0886539,-2.08708
742.8,66.8724,0.084669,-2.08702
743.4,66.9328,0.0802074,-2.08839
744,66.9916,0.0861356,-2.08978
744.6,67.0535,0.0788665,-2.08986
745.2,67.1135,0.079515,-2.09103
745.8,67.174,0.070133,-2.09212
746.4,67.2334,0.0736942,-2.09222
747,67.2953,0.0621827,-2.09366
747.6,67.3552,0.0542217,-2.09364
748.2,67.4157,0.0617802,-2.09498
748.8,67.4737,0.054201,-2.09617
749.4,67.5365,0.0542997,-2.09594
750,67.5961,0.0533723,-2.09697
750.6,67.6571,0.0439739,-2.09827
751.2,67.7181,0.0434749,-2.09833
751.8,67.7771,0.044562,-2.09893
752.4,67.8381,0.0349153,-2.10025
753,67.8997,0.0321324,-2.10027
753.6,67.9595,0.0287882,-2.10059
754.2,68.0192,0.0244213,-2.10189
754.8,68.0787,0.0208989,-2.10324
755.4,68.1405,0.0182826,-2.10288
756,68.2019,0.0177679,-2.10421
756.6,68.2606,0.0112966,-2.10494
757.2,68.3216,0.00156786,-2.10556
757.8,68.382,0.00238015,-2.10684
758.4,68.4425,-0.00305783,-2.10544
759,68.5005,-0.00601936,-2.10667
759.6,68.5636,-0.00384988,-2.10936
760.2,68.6238,-0.0177358,-2.10926
760.8,68.6851,-0.0224795,-2.11149
761.4,68.7447,-0.0141833,-2.11068
762,68.8044,-0.02049,-2.11
762.6,68.8655,-0.0188963,-2.1107
763.2,68.9253,-0.027297,-2.11333
763.8,68.9859,-0.0321802,-2.11332
764.4,69.0442,-0.0274756,-2.11464
765,69.1068,-0.0356874,-2.11597
765.6,69.1672,-0.0354703,-2.11496
766.2,69.228,-0.0326096,-2.11496
766.8,69.2879,-0.0456509,-2.11628
767.4,69.3488,-0.0477814,-2.11629
768,69.4093,-0.0523406,-2.11759
768.6,69.4698,-0.051792,-2.11869
769.2,69.5299,-0.0583394,-2.11858
769.8,69.5903,-0.0563272,-2.11987
770.4,69.6522,-0.0620398,-2.12122
771,69.7121,-0.0740542,-2.12113
771.6,69.7712,-0.0745565,-2.12254
772.2,69.8325,-0.0774273,-2.12355
772.8,69.8936,-0.0902115,-2.12528
773.4,69.9539,-0.0825985,-2.1257
774,70.0142,-0.0885121,-2.1266
774.6,70.0743,-0.0915315,-2.1266
775.2,70.1355,-0.0900456,-2.12654
775.8,70.1957,-0.0890208,-2.1266
776.4,70.2565,-0.088165,-2.1289
777,70.3162,-0.0846069,-2.13022
777.6,70.3772,-0.0954866,-2.13012
778.2,70.438,-0.0902252,-2.12921
778.8,70.499,-0.0947795,-2.13055
779.4,70.5594,-0.0979495,-2.13195
780,70.6208,-0.0974999,-2.13187
780.6,70.6789,-0.0943807,-2.13318
781.2,70.7415,-0.100491,-2.13283
781.8,70.8021,-0.103578,-2.13178
782.4,70.8629,-0.110363,-2.13286
783,70.9242,-0.106968,-2.13417
783.6,70.984,-0.110673,-2.13418
784.2,71.0452,-0.11174,-2.13539
784.8,71.1059,-0.114066,-2.1355
785.4,71.1667,-0.119019,-2.1355
786,71.2273,-0.121988,-2.1368
786.6,71.2871,-0.12158,-2.13714
787.2,71.3482,-0.120644,-2.13714
787.8,71.409,-0.130051,-2.13819
788.4,71.4691,-0.125807,-2.13898
789,71.5286,-0.1292,-2.13943
789.6,71.5897,-0.141173,-2.13944
790.2,71.6506,-0.133772,-2.13936
790.8,71.712,-0.131732,-2.14076
791.4,71.7723,-0.133076,-2.14204
792,71.8327,-0.133648,-2.14109
792.6,71.893,-0.136291,-2.14207
793.2,71.9527,-0.135606,-2.14208
793.8,72.0151,-0.136293,-2.14208
794.4,72.0752,-0.137201,-2.14229
795,72.1364,-0.138254,-2.14303
795.6,72.1969,-0.14269,-2.14372
796.2,72.2579,-0.142016,-2.14372
796.8,72.3184,-0.137712,-2.14372
797.4,72.3789,-0.143763,-2.14373
798,72.4379,-0.150618,-2.14504
798.6,72.5003,-0.147026,-2.14504
799.2,72.56,-0.138922,-2.14635
799.8,72.6213,-0.145795,-2.14638
800.4,72.6818,-0.152808,-2.14787
801,72.7418,-0.155327,-2.148
801.6,72.8033,-0.146159,-2.14837
802.2,72.8633,-0.164764,-2.14816
802.8,72.9234,-0.160947,-2.14801
803.4,72.9837,-0.16421,-2.14937
804,73.0447,-0.151942,-2.14933
804.6,73.1058,-0.15764,-2.15064
805.2,73.1669,-0.164152,-2.15092
805.8,73.2269,-0.166206,-2.15065
806.4,73.2885,-0.16853,-2.15195
807,73.349,-0.175597,-2.15196
807.6,73.4101,-0.169237,-2.1521
808.2,73.4704,-0.168884,-2.15326
808.8,73.5316,-0.162026,-2.15427
809.4,73.5923,-0.168452,-2.15427
810,73.6547,-0.168384,-2.15358
810.6,73.7152,-0.161497,-2.1546
811.2,73.7765,-0.162679,-2.15328
811.8,73.8369,-0.170817,-2.15495
812.4,73.8956,-0.169121,-2.1559
813,73.9577,-0.169698,-2.15591
813.6,74.0184,-0.167801,-2.15723
814.2,74.0776,-0.167551,-2.15723
814.8,74.1411,-0.160453,-2.15723
815.4,74.2005,-0.156479,-2.15852
816,74.2597,-0.150479,-2.15856
816.6,74.3229,-0.157398,-2.15987
817.2,74.3834,-0.155822,-2.15951
817.8,74.4441,-0.155827,-2.15868
818.4,74.5043,-0.166664,-2.15723
819,74.5656,-0.15825,-2.15855
819.6,74.6266,-0.161,-2.15986
820.2,74.6873,-0.159555,-2.16118
820.8,74.7475,-0.147244,-2.15986
821.4,74.8085,-0.148148,-2.15844
822,74.8677,-0.150111,-2.15844
822.6,74.9299,-0.153255,-2.15976
823.2,74.9913,-0.143998,-2.16107
823.8,75.0525,-0.142129,-2.16107
824.4,75.1127,-0.148647,-2.1596
825,75.1738,-0.149176,-2.16107
825.6,75.2349,-0.146802,-2.16239
826.2,75.2973,-0.14348,-2.16239
826.8,75.3574,-0.149759,-2.16239
827.4,75.4182,-0.15094,-2.16239
828,75.4794,-0.149229,-2.16239
828.6,75.54,-0.149649,-2.16511
829.2,75.6012,-0.147645,-2.16497
829.8,75.6619,-0.138523,-2.16371
830.4,75.7236,-0.140554,-2.16372
831,75.784,-0.135365,-2.16362
831.6,75.8452,-0.13706,-2.16502
832.2,75.9053,-0.128736,-2.16498
832.8,75.967,-0.132359,-2.16634
833.4,76.0286,-0.123676,-2.16667
834,76.0889,-0.120685,-2.16666
834.6,76.1501,-0.117763,-2.16552
835.2,76.2105,-0.123355,-2.16634
835.8,76.2723,-0.127581,-2.16687
836.4,76.3339,-0.126953,-2.16633
837,76.3927,-0.126844,-2.16634
837.6,76.4557,-0.116177,-2.16634
838.2,76.5168,-0.12629,-2.16766
838.8,76.5777,-0.135101,-2.16766
839.4,76.6382,-0.128556,-2.16764
840,76.7007,-0.128161,-2.16897