File: 01_Data/Helmet_Strap/STA/N2/10K_min/Helmet_Strap_STA_N2_10KData_250530_R4.csv
Temp./C,Time/min,DSC/(mW/mg),Mass loss/mg
40.0,0.0,0.771527,-0.0750533
40.6,0.0835781,0.797252,-0.0748891
41.2,0.157766,0.824762,-0.0764536
41.8,0.241344,0.851171,-0.0779714
42.4,0.321069,0.86336,-0.0779338
43,0.39882,0.890573,-0.0776921
43.6,0.47507,0.920431,-0.078344
44.2,0.551411,0.924028,-0.0796731
44.8,0.625714,0.947262,-0.0797259
45.4,0.69939,0.962851,-0.0804307
46,0.775176,0.987444,-0.0796768
46.6,0.844967,1.01213,-0.0823709
47.2,0.922931,1.02321,-0.0818055
47.8,0.994988,1.04805,-0.0836824
48.4,1.06512,1.07008,-0.084159
49,1.13787,1.08737,-0.083626
49.6,1.206,1.11139,-0.0848953
50.2,1.28016,1.1284,-0.0848635
50.8,1.35051,1.16046,-0.0864195
51.4,1.42168,1.18056,-0.0874924
52,1.48845,1.19685,-0.0875021
52.6,1.55999,1.21968,-0.0887588
53.2,1.62687,1.24598,-0.0892501
53.8,1.69441,1.26726,-0.0915603
54.4,1.76294,1.28777,-0.0928287
55,1.82998,1.30787,-0.0919148
55.6,1.8971,1.33158,-0.0936697
56.2,1.9658,1.35691,-0.0955269
56.8,2.0293,1.37415,-0.0955131
57.4,2.09859,1.40102,-0.0968013
58,2.16393,1.42102,-0.098146
58.6,2.22959,1.43452,-0.0972674
59.2,2.29454,1.45807,-0.100795
59.8,2.36004,1.48188,-0.100783
60.4,2.42475,1.49593,-0.101608
61,2.49043,1.52468,-0.100963
61.6,2.55434,1.54179,-0.104374
62.2,2.61876,1.55576,-0.105299
62.8,2.68244,1.58277,-0.106754
63.4,2.74635,1.59766,-0.107376
64,2.8102,1.6201,-0.108357
64.6,2.87359,1.63088,-0.109999
65.2,2.93534,1.63998,-0.110014
65.8,2.99844,1.6557,-0.11217
66.4,3.06186,1.68044,-0.112661
67,3.12277,1.68637,-0.11434
67.6,3.18817,1.68728,-0.11659
68.2,3.24848,1.69847,-0.116923
68.8,3.31075,1.70898,-0.119335
69.4,3.37287,1.72024,-0.12053
70,3.43281,1.72036,-0.121811
70.6,3.49318,1.73318,-0.123096
71.2,3.55826,1.7368,-0.12449
71.8,3.61997,1.75168,-0.125986
72.4,3.68154,1.7517,-0.127119
73,3.74225,1.74984,-0.128437
73.6,3.8045,1.7601,-0.129575
74.2,3.86449,1.75809,-0.129933
74.8,3.9257,1.75412,-0.132401
75.4,3.98727,1.75469,-0.132401
76,4.04682,1.75467,-0.135045
76.6,4.10691,1.74698,-0.135782
77.2,4.16814,1.74237,-0.137734
77.8,4.22871,1.73899,-0.138987
78.4,4.2878,1.72602,-0.13898
79,4.35041,1.72354,-0.138989
79.6,4.40843,1.71444,-0.141613
80.2,4.46855,1.70534,-0.141613
80.8,4.52935,1.68751,-0.142876
81.4,4.58958,1.684,-0.145529
82,4.64734,1.66717,-0.145572
82.6,4.70884,1.65908,-0.147933
83.2,4.7691,1.64395,-0.148192
83.8,4.82835,1.63272,-0.150543
84.4,4.88795,1.61629,-0.15084
85,4.94657,1.59882,-0.15084
85.6,5.0025,1.58591,-0.151776
86.2,5.06511,1.57155,-0.152201
86.8,5.12429,1.55621,-0.153471
87.4,5.18308,1.5393,-0.154798
88,5.24268,1.51653,-0.156069
88.6,5.30187,1.50789,-0.158454
89.2,5.36107,1.49055,-0.156673
89.8,5.41902,1.47761,-0.15666
90.4,5.47724,1.45934,-0.157837
91,5.53611,1.43332,-0.157973
91.6,5.59495,1.41417,-0.159282
92.2,5.65298,1.39579,-0.160606
92.8,5.71151,1.37951,-0.16193
93.4,5.76841,1.35828,-0.16193
94,5.82452,1.35061,-0.163249
94.6,5.8841,1.33527,-0.164053
95.2,5.94236,1.3117,-0.16457
95.8,6.00014,1.29601,-0.16457
96.4,6.0596,1.27249,-0.164582
97,6.11621,1.26054,-0.16588
97.6,6.17476,1.23614,-0.166878
98.2,6.23281,1.22605,-0.1672
98.8,6.29018,1.20459,-0.1672
99.4,6.34773,1.19021,-0.167207
100,6.40673,1.16339,-0.168511
100.6,6.46185,1.14969,-0.168467
101.2,6.51942,1.14364,-0.169046
101.8,6.57765,1.12272,-0.16884
102.4,6.63512,1.09739,-0.16884
103,6.69258,1.08226,-0.168841
103.6,6.74998,1.06701,-0.170153
104.2,6.80731,1.05407,-0.169796
104.8,6.86452,1.04045,-0.169753
105.4,6.92217,1.02026,-0.16983
106,6.97855,1.00639,-0.171075
106.6,7.03699,0.993592,-0.17115
107.2,7.09436,0.984767,-0.17115
107.8,7.15161,0.96696,-0.171536
108.4,7.20917,0.957161,-0.172461
109,7.26641,0.945083,-0.17389
109.6,7.32257,0.936228,-0.17246
110.2,7.38051,0.922477,-0.17246
110.8,7.43771,0.905379,-0.17246
111.4,7.49281,0.899346,-0.172485
112,7.55071,0.898796,-0.172371
112.6,7.61041,0.887552,-0.171921
113.2,7.66789,0.871719,-0.172963
113.8,7.72424,0.863786,-0.175875
114.4,7.78297,0.857651,-0.17143
115,7.83949,0.858598,-0.17126
115.6,7.89684,0.852749,-0.172498
116.2,7.95418,0.843288,-0.172582
116.8,8.01159,0.839841,-0.173057
117.4,8.06875,0.839944,-0.172571
118,8.12658,0.827846,-0.175861
118.6,8.18368,0.824124,-0.174435
119.2,8.24075,0.825525,-0.171882
119.8,8.29876,0.82397,-0.17071
120.4,8.3556,0.81638,-0.172011
121,8.41225,0.813606,-0.172026
121.6,8.47091,0.812668,-0.173342
122.2,8.5285,0.815019,-0.173362
122.8,8.58516,0.802926,-0.173348
123.4,8.6424,0.807152,-0.173342
124,8.69992,0.808461,-0.173852
124.6,8.75608,0.805132,-0.173586
125.2,8.81349,0.804572,-0.173342
125.8,8.87046,0.802008,-0.174656
126.4,8.92746,0.799289,-0.174662
127,8.98519,0.799637,-0.173359
127.6,9.04269,0.794253,-0.173361
128.2,9.09694,0.80237,-0.17466
128.8,9.15686,0.802132,-0.17466
129.4,9.21383,0.79554,-0.175192
130,9.27016,0.799874,-0.174002
130.6,9.32595,0.800527,-0.174
131.2,9.38427,0.804707,-0.173929
131.8,9.44223,0.809455,-0.17401
132.4,9.49846,0.805093,-0.17466
133,9.55594,0.81064,-0.17466
133.6,9.61261,0.81693,-0.17466
134.2,9.66857,0.824494,-0.17466
134.8,9.72575,0.821755,-0.174071
135.4,9.78286,0.818315,-0.174659
136,9.84073,0.823786,-0.17466
136.6,9.89624,0.826615,-0.174661
137.2,9.95347,0.81959,-0.174831
137.8,10.0121,0.829015,-0.17466
138.4,10.0667,0.827993,-0.174642
139,10.1234,0.823171,-0.17499
139.6,10.181,0.825226,-0.175796
140.2,10.237,0.823722,-0.175979
140.8,10.2942,0.830467,-0.17597
141.4,10.3503,0.837918,-0.175965
142,10.4066,0.825131,-0.175975
142.6,10.4644,0.822454,-0.17598
143.2,10.522,0.830224,-0.176765
143.8,10.5769,0.834547,-0.175982
144.4,10.6343,0.833523,-0.17598
145,10.6913,0.843426,-0.175976
145.6,10.7471,0.840987,-0.177299
146.2,10.8041,0.839023,-0.1773
146.8,10.8604,0.84041,-0.177305
147.4,10.9177,0.841325,-0.176636
148,10.9738,0.849769,-0.177961
148.6,11.0291,0.850809,-0.17795
149.2,11.0869,0.846553,-0.178006
149.8,11.142,0.844587,-0.17729
150.4,11.1995,0.853998,-0.177296
151,11.2564,0.861267,-0.176615
151.6,11.3122,0.859123,-0.176812
152.2,11.3694,0.856584,-0.17729
152.8,11.4263,0.858241,-0.17729
153.4,11.4829,0.864604,-0.17729
154,11.5395,0.867082,-0.17729
154.6,11.5935,0.861346,-0.178334
155.2,11.6511,0.865485,-0.17861
155.8,11.7082,0.871265,-0.17861
156.4,11.7657,0.8709,-0.178506
157,11.8218,0.871382,-0.178601
157.6,11.8784,0.877258,-0.17861
158.2,11.9353,0.883427,-0.178618
158.8,11.9919,0.882321,-0.179928
159.4,12.0473,0.88048,-0.180615
160,12.1035,0.886371,-0.18059
160.6,12.1601,0.889944,-0.1794
161.2,12.2166,0.887947,-0.17927
161.8,12.2735,0.888603,-0.17927
162.4,12.3299,0.882923,-0.179288
163,12.386,0.889895,-0.179263
163.6,12.4415,0.893175,-0.17927
164.2,12.4996,0.894244,-0.17927
164.8,12.5566,0.893687,-0.17927
165.4,12.6126,0.891014,-0.179242
166,12.6696,0.897705,-0.180589
166.6,12.7254,0.890987,-0.180589
167.2,12.7819,0.895694,-0.181899
167.8,12.8387,0.897192,-0.1819
168.4,12.8942,0.904291,-0.1819
169,12.9512,0.906355,-0.181098
169.6,13.0074,0.904837,-0.18058
170.2,13.065,0.903825,-0.18058
170.8,13.1219,0.904683,-0.18058
171.4,13.1788,0.908045,-0.181349
172,13.235,0.905657,-0.181908
172.6,13.2905,0.909188,-0.183218
173.2,13.3474,0.915195,-0.18322
173.8,13.4039,0.907755,-0.183219
174.4,13.4595,0.913295,-0.184211
175,13.5164,0.912784,-0.184542
175.6,13.5726,0.919471,-0.185331
176.2,13.6295,0.914057,-0.184541
176.8,13.6866,0.919922,-0.183161
177.4,13.74,0.91105,-0.184539
178,13.7987,0.917875,-0.184552
178.6,13.8552,0.917215,-0.185859
179.2,13.9113,0.915991,-0.18562
179.8,13.9671,0.917507,-0.18553
180.4,14.0235,0.927827,-0.18553
181,14.0808,0.920814,-0.185584
181.6,14.1371,0.92028,-0.185519
182.2,14.194,0.91982,-0.185528
182.8,14.2503,0.925462,-0.186508
183.4,14.3065,0.92923,-0.187534
184,14.3627,0.92739,-0.188165
184.6,14.42,0.934487,-0.188819
185.2,14.4755,0.930061,-0.188819
185.8,14.5329,0.932906,-0.187502
186.4,14.5886,0.930832,-0.187559
187,14.6451,0.931522,-0.18849
187.6,14.7013,0.928495,-0.188497
188.2,14.7577,0.926137,-0.189813
188.8,14.8142,0.937708,-0.190139
189.4,14.8713,0.936571,-0.19143
190,14.9272,0.93179,-0.191198
190.6,14.9837,0.929589,-0.1908
191.2,15.0406,0.927731,-0.1908
191.8,15.0964,0.939893,-0.1908
192.4,15.1534,0.9375,-0.190802
193,15.2089,0.94221,-0.191789
193.6,15.2643,0.935235,-0.19179
194.2,15.3213,0.940914,-0.191727
194.8,15.378,0.942743,-0.193099
195.4,15.4336,0.93474,-0.1931
196,15.4904,0.934609,-0.193463
196.6,15.5478,0.936389,-0.197375
197.2,15.6034,0.934524,-0.193787
197.8,15.6599,0.937812,-0.193459
198.4,15.7163,0.937538,-0.19341
199,15.7728,0.942342,-0.194751
199.6,15.8288,0.936099,-0.194753
200.2,15.8851,0.943988,-0.196066
200.8,15.9422,0.942113,-0.19607
201.4,15.9985,0.944313,-0.196071
202,16.0548,0.94835,-0.196394
202.6,16.1109,0.953536,-0.1964
203.2,16.1675,0.958134,-0.197151
203.8,16.2235,0.957689,-0.19772
204.4,16.28,0.9492,-0.19772
205,16.3368,0.953211,-0.197817
205.6,16.3937,0.951386,-0.200344
206.2,16.4501,0.953632,-0.20035
206.8,16.5057,0.952655,-0.20035
207.4,16.5622,0.951559,-0.200344
208,16.6194,0.954348,-0.201669
208.6,16.6745,0.95424,-0.201693
209.2,16.7318,0.95287,-0.20265
209.8,16.7876,0.967366,-0.202652
210.4,16.8449,0.955548,-0.203615
211,16.9,0.960951,-0.20364
211.6,16.9561,0.962065,-0.20364
212.2,17.0133,0.96314,-0.203621
212.8,17.07,0.960374,-0.204319
213.4,17.1255,0.964688,-0.2043
214,17.1831,0.970023,-0.204294
214.6,17.2391,0.967806,-0.205621
215.2,17.2963,0.968437,-0.205561
215.8,17.3525,0.970795,-0.20694
216.4,17.4086,0.967709,-0.20694
217,17.4654,0.974767,-0.20694
217.6,17.5207,0.973534,-0.20694
218.2,17.5781,0.972393,-0.20619
218.8,17.6353,0.969915,-0.206341
219.4,17.6913,0.981988,-0.20841
220,17.7481,0.980113,-0.20891
220.6,17.8038,0.980679,-0.20891
221.2,17.8609,0.984986,-0.208868
221.8,17.9164,0.988495,-0.210229
222.4,17.9736,0.986142,-0.21023
223,18.0301,0.991244,-0.21023
223.6,18.087,0.991534,-0.210242
224.2,18.1443,1.00055,-0.211981
224.8,18.2004,1.00658,-0.21287
225.4,18.2568,1.00558,-0.21287
226,18.3133,1.00864,-0.212878
226.6,18.3695,1.00837,-0.21319
227.2,18.4263,1.0149,-0.213194
227.8,18.4832,1.02147,-0.21451
228.4,18.5399,1.02474,-0.21451
229,18.5959,1.02544,-0.214533
229.6,18.6529,1.02974,-0.216462
230.2,18.7097,1.02879,-0.21648
230.8,18.7668,1.04214,-0.21648
231.4,18.8201,1.04222,-0.21648
232,18.88,1.03899,-0.2164
232.6,18.9352,1.04179,-0.218065
233.2,18.9934,1.04898,-0.218183
233.8,19.0492,1.04698,-0.220418
234.4,19.1052,1.05546,-0.22077
235,19.162,1.05279,-0.22079
235.6,19.2188,1.04793,-0.22209
236.2,19.2759,1.05062,-0.220779
236.8,19.3314,1.04671,-0.220771
237.4,19.3887,1.04602,-0.222155
238,19.4457,1.04217,-0.22339
238.6,19.5015,1.04003,-0.2234
239.2,19.5584,1.04242,-0.223422
239.8,19.6152,1.03566,-0.22472
240.4,19.6715,1.02901,-0.224721
241,19.7287,1.02741,-0.226192
241.6,19.7849,1.02453,-0.22736
242.2,19.8413,1.02253,-0.228718
242.8,19.8975,1.01925,-0.22868
243.4,19.9538,1.01767,-0.228718
244,20.0116,1.01529,-0.229957
244.6,20.0677,1.01092,-0.231309
245.2,20.1238,1.00767,-0.23131
245.8,20.1813,0.997619,-0.232545
246.4,20.2379,0.99625,-0.233862
247,20.2934,0.994178,-0.23394
247.6,20.3514,0.99356,-0.23452
248.2,20.4079,0.984853,-0.234573
248.8,20.4654,0.984023,-0.23592
249.4,20.5206,0.981874,-0.236492
250,20.5761,0.979632,-0.237743
250.6,20.634,0.975828,-0.237927
251.2,20.6911,0.973107,-0.240518
251.8,20.7471,0.975537,-0.240523
252.4,20.8039,0.970431,-0.243163
253,20.8602,0.971898,-0.243173
253.6,20.917,0.960885,-0.244476
254.2,20.9732,0.963541,-0.24448
254.8,21.0303,0.95966,-0.24646
255.4,21.088,0.954811,-0.248374
256,21.1448,0.949656,-0.248438
256.6,21.2011,0.951156,-0.249729
257.2,21.2578,0.949184,-0.24976
257.8,21.3138,0.947559,-0.251068
258.4,21.3711,0.943658,-0.25139
259,21.4276,0.941,-0.251752
259.6,21.4854,0.938603,-0.253858
260.2,21.543,0.933659,-0.25502
260.8,21.5978,0.937048,-0.256339
261.4,21.6546,0.926313,-0.257652
262,21.7121,0.921225,-0.258984
262.6,21.7677,0.915355,-0.260292
263.2,21.8245,0.922755,-0.261618
263.8,21.8812,0.919424,-0.262969
264.4,21.9388,0.910631,-0.264349
265,21.9954,0.90904,-0.264897
265.6,22.0522,0.900085,-0.266958
266.2,22.109,0.897732,-0.267931
266.8,22.1661,0.898323,-0.269712
267.4,22.2227,0.894742,-0.269596
268,22.2791,0.891105,-0.271129
268.6,22.336,0.883982,-0.272369
269.2,22.3935,0.876835,-0.273744
269.8,22.45,0.876809,-0.277923
270.4,22.5066,0.874114,-0.279267
271,22.5643,0.865769,-0.279158
271.6,22.621,0.8611,-0.280487
272.2,22.6768,0.8547,-0.281798
272.8,22.7315,0.844539,-0.283173
273.4,22.7899,0.841459,-0.283111
274,22.8467,0.817668,-0.284417
274.6,22.9042,0.810865,-0.286618
275.2,22.9615,0.809619,-0.289325
275.8,23.0176,0.81119,-0.291287
276.4,23.0743,0.816628,-0.29257
277,23.1281,0.825381,-0.293879
277.6,23.1863,0.837077,-0.295222
278.2,23.2451,0.850439,-0.296303
278.8,23.3034,0.866769,-0.297182
279.4,23.3602,0.874601,-0.298484
280,23.4168,0.892007,-0.301127
280.6,23.4747,0.903117,-0.303238
281.2,23.5315,0.914474,-0.30379
281.8,23.5888,0.932358,-0.30538
282.4,23.646,0.934553,-0.310625
283,23.703,0.945652,-0.308907
283.6,23.7601,0.960005,-0.308992
284.2,23.8171,0.965268,-0.310283
284.8,23.8741,0.96711,-0.310355
285.4,23.9307,0.973383,-0.312984
286,23.9885,0.977367,-0.315847
286.6,24.0457,0.967605,-0.317373
287.2,24.1018,0.978697,-0.317279
287.8,24.1595,0.977131,-0.318242
288.4,24.2169,0.981831,-0.319568
289,24.273,0.978861,-0.319884
289.6,24.3302,0.98458,-0.322281
290.2,24.3884,0.977877,-0.324604
290.8,24.4444,0.982193,-0.325054
291.4,24.502,0.986165,-0.326374
292,24.5596,0.980316,-0.3277
292.6,24.6173,0.980573,-0.329027
293.2,24.6735,0.976253,-0.329017
293.8,24.7306,0.976173,-0.330507
294.4,24.7883,0.975692,-0.331735
295,24.8448,0.971679,-0.332986
295.6,24.9025,0.977496,-0.334261
296.2,24.9595,0.967893,-0.3356
296.8,25.0166,0.968059,-0.335595
297.4,25.0729,0.965165,-0.33692
298,25.1297,0.965969,-0.337575
298.6,25.1874,0.958567,-0.33824
299.2,25.2448,0.968911,-0.339626
299.8,25.3023,0.966671,-0.339561
300.4,25.3594,0.965401,-0.340872
301,25.4164,0.960514,-0.34246
301.6,25.4732,0.947477,-0.33966
302.2,25.5303,0.9545,-0.337324
302.8,25.5864,0.944329,-0.338055
303.4,25.6453,0.946239,-0.340859
304,25.7019,0.940459,-0.345238
304.6,25.7584,0.939108,-0.353583
305.2,25.8162,0.929216,-0.35339
305.8,25.8729,0.929234,-0.35357
306.4,25.9302,0.923083,-0.354363
307,25.9866,0.928257,-0.354698
307.6,26.0452,0.917461,-0.353375
308.2,26.1016,0.914312,-0.35338
308.8,26.1592,0.911107,-0.354787
309.4,26.217,0.902026,-0.3547
310,26.2732,0.894865,-0.3547
310.6,26.3305,0.900337,-0.356019
311.2,26.3883,0.900887,-0.35602
311.8,26.4455,0.896005,-0.355991
312.4,26.5027,0.890128,-0.35733
313,26.5591,0.888375,-0.35733
313.6,26.6177,0.88181,-0.357288
314.2,26.6739,0.880131,-0.359969
314.8,26.7313,0.876406,-0.359964
315.4,26.7881,0.879902,-0.359911
316,26.8439,0.878432,-0.359968
316.6,26.903,0.869191,-0.36129
317.2,26.9613,0.871345,-0.36129
317.8,27.0186,0.858644,-0.361804
318.4,27.075,0.862898,-0.3626
319,27.1323,0.855692,-0.3626
319.6,27.1908,0.852406,-0.363944
320.2,27.2484,0.852066,-0.365279
320.8,27.3051,0.852863,-0.36623
321.4,27.3626,0.848838,-0.36623
322,27.4199,0.838514,-0.366176
322.6,27.4754,0.842795,-0.367793
323.2,27.5351,0.843578,-0.370436
323.8,27.5925,0.840759,-0.366917
324.4,27.6506,0.836546,-0.366915
325,27.7064,0.842156,-0.366889
325.6,27.7656,0.837452,-0.369222
326.2,27.8231,0.833459,-0.36952
326.8,27.8806,0.833411,-0.369502
327.4,27.9377,0.823093,-0.373443
328,27.9954,0.825518,-0.371042
328.6,28.0521,0.820087,-0.369752
329.2,28.1109,0.822698,-0.36975
329.8,28.1679,0.820858,-0.36967
330.4,28.2251,0.825025,-0.37107
331,28.2834,0.826645,-0.371077
331.6,28.3403,0.818572,-0.372406
332.2,28.3965,0.820543,-0.37369
332.8,28.455,0.822195,-0.373688
333.4,28.5137,0.821358,-0.375008
334,28.5703,0.818372,-0.375004
334.6,28.6286,0.813172,-0.376311
335.2,28.6856,0.807742,-0.377137
335.8,28.7437,0.81225,-0.376661
336.4,28.8018,0.805339,-0.37666
337,28.8587,0.811393,-0.37666
337.6,28.9143,0.813785,-0.377647
338.2,28.9737,0.807602,-0.377657
338.8,29.0321,0.81295,-0.37633
339.4,29.0888,0.815252,-0.377818
340,29.1464,0.80917,-0.379138
340.6,29.2042,0.810846,-0.37907
341.2,29.2611,0.80445,-0.37907
341.8,29.3198,0.811645,-0.37868
342.4,29.3778,0.809868,-0.377703
343,29.4351,0.811527,-0.379069
343.6,29.4924,0.81194,-0.379042
344.2,29.5521,0.808906,-0.38039
344.8,29.6091,0.81062,-0.380017
345.4,29.6669,0.816506,-0.374886
346,29.7235,0.810697,-0.378795
346.6,29.7819,0.807097,-0.386299
347.2,29.8388,0.808552,-0.38676
347.8,29.8976,0.807306,-0.386874
348.4,29.9551,0.813355,-0.38544
349,30.0131,0.820171,-0.384458
349.6,30.0709,0.819941,-0.38413
350.2,30.1279,0.819299,-0.384177
350.8,30.1866,0.816416,-0.38412
351.4,30.2435,0.817924,-0.385491
352,30.3021,0.814116,-0.38544
352.6,30.3598,0.82304,-0.38544
353.2,30.418,0.819635,-0.386769
353.8,30.475,0.826102,-0.38676
354.4,30.5332,0.824768,-0.38577
355,30.5907,0.82779,-0.38577
355.6,30.6492,0.827554,-0.387042
356.2,30.7072,0.832137,-0.38709
356.8,30.7652,0.834286,-0.38709
357.4,30.8233,0.83777,-0.38709
358,30.8817,0.839509,-0.388406
358.6,30.9391,0.846395,-0.388411
359.2,30.9968,0.844643,-0.389725
359.8,31.0547,0.841077,-0.389702
360.4,31.1126,0.840478,-0.389722
361,31.1705,0.844556,-0.388742
361.6,31.2283,0.847505,-0.38874
362.2,31.2857,0.849485,-0.388738
362.8,31.3443,0.849846,-0.39015
363.4,31.4028,0.860995,-0.39016
364,31.4594,0.859266,-0.39016
364.6,31.5182,0.860075,-0.390327
365.2,31.5757,0.861072,-0.390479
365.8,31.6339,0.864771,-0.39148
366.4,31.6916,0.859872,-0.39148
367,31.7496,0.865794,-0.39148
367.6,31.8076,0.865294,-0.39148
368.2,31.8659,0.868779,-0.39148
368.8,31.9235,0.872026,-0.39017
369.4,31.9815,0.879757,-0.39149
370,32.0391,0.886933,-0.392601
370.6,32.0976,0.887703,-0.39247
371.2,32.1538,0.89401,-0.391376
371.8,32.2138,0.894039,-0.391479
372.4,32.272,0.897678,-0.392802
373,32.3288,0.903456,-0.3928
373.6,32.3875,0.898224,-0.392794
374.2,32.4464,0.900026,-0.394109
374.8,32.5039,0.902573,-0.39411
375.4,32.5615,0.907214,-0.39411
376,32.62,0.91116,-0.39411
376.6,32.6767,0.916044,-0.395047
377.2,32.7354,0.91963,-0.39543
377.8,32.7949,0.924026,-0.39543
378.4,32.8525,0.924472,-0.39543
379,32.9104,0.92938,-0.39543
379.6,32.9689,0.933032,-0.395425
380.2,33.0261,0.943698,-0.396748
380.8,33.0825,0.936777,-0.39675
381.4,33.1426,0.946536,-0.39675
382,33.2008,0.953808,-0.396752
382.6,33.2603,0.962252,-0.39772
383.2,33.3185,0.956203,-0.397712
383.8,33.3757,0.963864,-0.39807
384.4,33.4351,0.969567,-0.398078
385,33.4919,0.97252,-0.39773
385.6,33.5515,0.968577,-0.39905
386.2,33.6093,0.980067,-0.39905
386.8,33.6676,0.980548,-0.397767
387.4,33.7265,0.996338,-0.399877
388,33.7827,0.993881,-0.399687
388.6,33.8421,1.00738,-0.39905
389.2,33.901,1.00961,-0.401677
389.8,33.9593,1.02419,-0.400325
390.4,34.0173,1.02397,-0.400362
391,34.0758,1.02783,-0.401107
391.6,34.1338,1.03557,-0.40268
392.2,34.1921,1.04797,-0.402683
392.8,34.2511,1.0572,-0.406401
393.4,34.3092,1.07553,-0.401723
394,34.3675,1.08114,-0.402351
394.6,34.4261,1.0939,-0.402351
395.2,34.4827,1.10399,-0.403669
395.8,34.5428,1.12223,-0.40367
396.4,34.601,1.13642,-0.40367
397,34.6602,1.1435,-0.403671
397.6,34.7181,1.16876,-0.405031
398.2,34.7763,1.1814,-0.406167
398.8,34.8349,1.20309,-0.406307
399.4,34.8932,1.21615,-0.40696
400,34.9519,1.23355,-0.407621
400.6,35.0106,1.25355,-0.407549
401.2,35.0695,1.27839,-0.40889
401.8,35.1282,1.29773,-0.410259
402.4,35.1867,1.32079,-0.410284
403,35.2437,1.33895,-0.411568
403.6,35.3041,1.36791,-0.41263
404.2,35.3637,1.39667,-0.41289
404.8,35.4219,1.42361,-0.413437
405.4,35.4804,1.45624,-0.414163
406,35.539,1.48387,-0.41486
406.6,35.5979,1.51866,-0.415203
407.2,35.6566,1.55535,-0.415808
407.8,35.7161,1.59351,-0.41717
408.4,35.7744,1.62202,-0.418634
409,35.8343,1.66511,-0.419903
409.6,35.8931,1.70966,-0.42123
410.2,35.9512,1.75134,-0.422582
410.8,36.0103,1.80671,-0.423855
411.4,36.0678,1.84274,-0.42387
412,36.1284,1.89123,-0.425161
412.6,36.1874,1.93946,-0.427666
413.2,36.2463,2.00569,-0.429367
413.8,36.3061,2.04949,-0.430269
414.4,36.365,2.10551,-0.430407
415,36.4235,2.15907,-0.432994
415.6,36.4831,2.20487,-0.434412
416.2,36.5428,2.26259,-0.435675
416.8,36.6019,2.32062,-0.435672
417.4,36.6605,2.37678,-0.437474
418,36.7185,2.43453,-0.441076
418.6,36.7787,2.47579,-0.443587
419.2,36.8383,2.52504,-0.445291
419.8,36.8973,2.56951,-0.447461
420.4,36.956,2.61653,-0.449174
421,37.0156,2.64821,-0.451157
421.6,37.0739,2.6944,-0.454173
422.2,37.133,2.71426,-0.455467
422.8,37.1917,2.74268,-0.459803
423.4,37.2508,2.75572,-0.461637
424,37.3101,2.76571,-0.464383
424.6,37.3678,2.77788,-0.467774
425.2,37.428,2.78648,-0.4701
425.8,37.4857,2.78126,-0.473615
426.4,37.5443,2.77309,-0.477128
427,37.6024,2.75195,-0.479826
427.6,37.6608,2.73595,-0.482739
428.2,37.7198,2.71769,-0.486943
428.8,37.7773,2.69116,-0.490163
429.4,37.8351,2.65592,-0.491759
430,37.8941,2.62312,-0.500596
430.6,37.9513,2.58812,-0.502513
431.2,38.0085,2.53523,-0.506146
431.8,38.0677,2.49,-0.508558
432.4,38.1259,2.43977,-0.511975
433,38.1846,2.38496,-0.517721
433.6,38.2421,2.33176,-0.521694
434.2,38.3003,2.28477,-0.525533
434.8,38.3584,2.22508,-0.533241
435.4,38.4164,2.171,-0.538588
436,38.4736,2.11831,-0.543259
436.6,38.5335,2.06989,-0.548498
437.2,38.5911,2.01766,-0.554188
437.8,38.6489,1.97901,-0.560132
438.4,38.7065,1.94116,-0.566072
439,38.7658,1.89615,-0.572394
439.6,38.8228,1.85979,-0.578073
440.2,38.8813,1.83987,-0.584292
440.8,38.9402,1.82205,-0.591465
441.4,38.9974,1.79484,-0.59836
442,39.0563,1.7762,-0.603615
442.6,39.1156,1.77236,-0.610791
443.2,39.1733,1.76219,-0.617102
443.8,39.2322,1.7452,-0.623715
444.4,39.291,1.743,-0.632285
445,39.3498,1.74292,-0.639839
445.6,39.4089,1.74469,-0.650005
446.2,39.4673,1.74276,-0.655353
446.8,39.5249,1.74058,-0.660144
447.4,39.5854,1.74345,-0.666544
448,39.6433,1.74542,-0.673204
448.6,39.7021,1.74422,-0.680638
449.2,39.7607,1.75184,-0.68899
449.8,39.819,1.74959,-0.697001
450.4,39.8785,1.74913,-0.706656
451,39.9381,1.74578,-0.714289
451.6,39.9947,1.746,-0.720895
452.2,40.0551,1.75085,-0.730393
452.8,40.1137,1.74216,-0.739221
453.4,40.1733,1.73621,-0.746978
454,40.2313,1.74126,-0.752665
454.6,40.291,1.73701,-0.760079
455.2,40.3493,1.74051,-0.774399
455.8,40.4085,1.73543,-0.781976
456.4,40.4681,1.72781,-0.789028
457,40.5259,1.72469,-0.79781
457.6,40.5848,1.72777,-0.806872
458.2,40.6442,1.72207,-0.81477
458.8,40.7027,1.71725,-0.824272
459.4,40.7618,1.71468,-0.831311
460,40.8208,1.70309,-0.83859
460.6,40.878,1.70365,-0.841571
461.2,40.9375,1.70231,-0.85827
461.8,40.9974,1.69531,-0.866266
462.4,41.0558,1.69061,-0.875081
463,41.1149,1.67319,-0.882636
463.6,41.174,1.67333,-0.891199
464.2,41.233,1.66516,-0.899202
464.8,41.2921,1.65712,-0.906277
465.4,41.3509,1.65005,-0.913388
466,41.4102,1.63585,-0.923024
466.6,41.4686,1.63067,-0.930887
467.2,41.5281,1.62664,-0.939303
467.8,41.587,1.61351,-0.948093
468.4,41.6455,1.60462,-0.955688
469,41.7042,1.59086,-0.964265
469.6,41.7636,1.58471,-0.971956
470.2,41.8217,1.57466,-0.979558
470.8,41.8808,1.57122,-0.986971
471.4,41.9406,1.55972,-0.995049
472,41.9997,1.54848,-1.00295
472.6,42.0587,1.5268,-1.01064
473.2,42.1168,1.5193,-1.01804
473.8,42.1756,1.50814,-1.02482
474.4,42.2351,1.48343,-1.03141
475,42.2927,1.48075,-1.0386
475.6,42.3522,1.46984,-1.04519
476.2,42.4105,1.45485,-1.05242
476.8,42.4702,1.44657,-1.0594
477.4,42.5291,1.43462,-1.06662
478,42.5873,1.42185,-1.07384
478.6,42.6472,1.40579,-1.07946
479.2,42.7057,1.39303,-1.08552
479.8,42.765,1.37523,-1.09206
480.4,42.8232,1.3603,-1.09903
481,42.8832,1.35012,-1.10629
481.6,42.9416,1.34393,-1.11099
482.2,43.0002,1.32869,-1.11578
482.8,43.0592,1.31618,-1.12198
483.4,43.1181,1.30076,-1.12809
484,43.1771,1.28154,-1.13503
484.6,43.2365,1.27095,-1.14047
485.2,43.2952,1.26659,-1.14592
485.8,43.3548,1.24834,-1.15084
486.4,43.4144,1.23765,-1.15452
487,43.4736,1.2267,-1.15979
487.6,43.53,1.21638,-1.16522
488.2,43.5908,1.20642,-1.17128
488.8,43.6506,1.19795,-1.17728
489.4,43.7087,1.1851,-1.18502
490,43.7685,1.1746,-1.18626
490.6,43.8269,1.16721,-1.19032
491.2,43.8864,1.15707,-1.19272
491.8,43.9468,1.14877,-1.19789
492.4,44.0053,1.13524,-1.20173
493,44.0643,1.12936,-1.20837
493.6,44.124,1.12822,-1.21337
494.2,44.1833,1.11901,-1.21892
494.8,44.2423,1.11009,-1.22189
495.4,44.3007,1.09676,-1.22731
496,44.3608,1.09332,-1.23277
496.6,44.4203,1.08584,-1.23651
497.2,44.4766,1.08293,-1.23986
497.8,44.5392,1.07608,-1.24393
498.4,44.5983,1.0676,-1.24747
499,44.6574,1.05309,-1.25268
499.6,44.715,1.05044,-1.25617
500.2,44.776,1.04195,-1.2595
500.8,44.8352,1.03867,-1.26437
501.4,44.8948,1.04119,-1.26881
502,44.9542,1.0282,-1.27388
502.6,45.0131,1.02176,-1.27688
503.2,45.0722,1.02141,-1.28083
503.8,45.1321,1.02274,-1.28504
504.4,45.1914,1.02074,-1.29001
505,45.2497,1.01495,-1.29476
505.6,45.3099,1.00545,-1.29879
506.2,45.369,1.00563,-1.30165
506.8,45.4292,0.998522,-1.30658
507.4,45.4882,0.996852,-1.31032
508,45.547,0.990466,-1.31495
508.6,45.607,0.989477,-1.31846
509.2,45.6639,0.990985,-1.32318
509.8,45.725,0.981582,-1.32769
510.4,45.7829,0.986232,-1.33088
511,45.8439,0.9706,-1.33527
511.6,45.9031,0.981379,-1.33956
512.2,45.962,0.974489,-1.3433
512.8,46.0223,0.958218,-1.34788
513.4,46.0815,0.959878,-1.34975
514,46.1401,0.961474,-1.35392
514.6,46.1989,0.958891,-1.35711
515.2,46.2594,0.949682,-1.36142
515.8,46.3189,0.953991,-1.36759
516.4,46.3794,0.942917,-1.36994
517,46.4386,0.940217,-1.37242
517.6,46.4974,0.940471,-1.38153
518.2,46.5568,0.942735,-1.38006
518.8,46.6161,0.941439,-1.38266
519.4,46.6762,0.942867,-1.38737
520,46.7342,0.933632,-1.39105
520.6,46.7952,0.935627,-1.39575
521.2,46.8528,0.936483,-1.40037
521.8,46.9142,0.930325,-1.40511
522.4,46.9735,0.932701,-1.41235
523,47.0333,0.927966,-1.41269
523.6,47.0929,0.92457,-1.41574
524.2,47.1512,0.929045,-1.41941
524.8,47.2109,0.923522,-1.42447
525.4,47.2693,0.921356,-1.42861
526,47.3291,0.915004,-1.43396
526.6,47.3888,0.920617,-1.43725
527.2,47.4478,0.917917,-1.44134
527.8,47.5079,0.915505,-1.44663
528.4,47.567,0.904839,-1.45071
529,47.6248,0.900005,-1.45238
529.6,47.686,0.901036,-1.45781
530.2,47.7447,0.890871,-1.46113
530.8,47.8041,0.89464,-1.46624
531.4,47.8644,0.890535,-1.4692
532,47.9243,0.890839,-1.47361
532.6,47.9833,0.883136,-1.47789
533.2,48.0433,0.884067,-1.48131
533.8,48.1034,0.878558,-1.48592
534.4,48.1627,0.870301,-1.48971
535,48.2223,0.864834,-1.4947
535.6,48.2816,0.878667,-1.50087
536.2,48.3415,0.874444,-1.50406
536.8,48.4012,0.869908,-1.50761
537.4,48.4603,0.857676,-1.51206
538,48.5182,0.866026,-1.5143
538.6,48.5799,0.862889,-1.51827
539.2,48.6394,0.85984,-1.52356
539.8,48.7,0.855135,-1.52768
540.4,48.7574,0.846062,-1.53202
541,48.818,0.8469,-1.53523
541.6,48.8762,0.846057,-1.53996
542.2,48.9368,0.852613,-1.54432
542.8,48.9964,0.839311,-1.54797
543.4,49.0543,0.844595,-1.55247
544,49.1156,0.83772,-1.55577
544.6,49.1749,0.827575,-1.56113
545.2,49.2343,0.828231,-1.56436
545.8,49.2938,0.815879,-1.56779
546.4,49.3543,0.813502,-1.57148
547,49.4127,0.802233,-1.57699
547.6,49.4731,0.805691,-1.58054
548.2,49.5322,0.796246,-1.58469
548.8,49.592,0.785051,-1.58738
549.4,49.6519,0.786104,-1.59112
550,49.7115,0.776859,-1.59716
550.6,49.7716,0.777626,-1.60122
551.2,49.8308,0.765872,-1.60317
551.8,49.891,0.762093,-1.60946
552.4,49.9502,0.757827,-1.61731
553,50.0096,0.746688,-1.6189
553.6,50.0693,0.737786,-1.61839
554.2,50.1288,0.734413,-1.62282
554.8,50.1887,0.72011,-1.62706
555.4,50.248,0.71965,-1.6317
556,50.3075,0.720564,-1.63577
556.6,50.3667,0.711822,-1.64008
557.2,50.4264,0.699298,-1.64396
557.8,50.4862,0.698478,-1.64736
558.4,50.5469,0.691236,-1.65116
559,50.6054,0.680974,-1.65516
559.6,50.665,0.679661,-1.65868
560.2,50.7245,0.672665,-1.6616
560.8,50.7824,0.663013,-1.66575
561.4,50.8441,0.663879,-1.67072
562,50.9041,0.652811,-1.67363
562.6,50.9635,0.645975,-1.67783
563.2,51.0218,0.632715,-1.68206
563.8,51.0828,0.63702,-1.68414
564.4,51.1428,0.619512,-1.68723
565,51.203,0.611851,-1.69043
565.6,51.2618,0.607158,-1.69382
566.2,51.3217,0.595754,-1.6971
566.8,51.3822,0.593475,-1.70159
567.4,51.4411,0.587055,-1.70495
568,51.5011,0.586211,-1.70786
568.6,51.5609,0.577485,-1.71099
569.2,51.6205,0.572013,-1.71393
569.8,51.6806,0.572838,-1.71712
570.4,51.7407,0.555517,-1.72134
571,51.8009,0.555109,-1.72393
571.6,51.8606,0.551815,-1.72805
572.2,51.9202,0.53783,-1.72937
572.8,51.9809,0.536306,-1.73257
573.4,52.0397,0.531804,-1.73573
574,52.0994,0.526431,-1.73949
574.6,52.1579,0.515309,-1.74265
575.2,52.2189,0.513637,-1.74599
575.8,52.2791,0.511616,-1.74944
576.4,52.338,0.497652,-1.75152
577,52.3982,0.500586,-1.75407
577.6,52.4588,0.494144,-1.75786
578.2,52.5188,0.487667,-1.76151
578.8,52.5785,0.488785,-1.76387
579.4,52.6379,0.480167,-1.76635
580,52.6978,0.478472,-1.76979
580.6,52.7573,0.46918,-1.77296
581.2,52.8184,0.469163,-1.77578
581.8,52.8782,0.474743,-1.77871
582.4,52.9355,0.469917,-1.78093
583,52.9979,0.459987,-1.78529
583.6,53.0581,0.467029,-1.78728
584.2,53.1172,0.4627,-1.78885
584.8,53.1775,0.454198,-1.79161
585.4,53.2372,0.458003,-1.79516
586,53.2981,0.448189,-1.79758
586.6,53.3564,0.450391,-1.80045
587.2,53.417,0.448902,-1.80242
587.8,53.4764,0.442377,-1.80396
588.4,53.535,0.441,-1.80654
589,53.5965,0.44077,-1.80825
589.6,53.657,0.443469,-1.81132
590.2,53.7165,0.435603,-1.81252
590.8,53.7763,0.438963,-1.8145
591.4,53.8368,0.439809,-1.81681
592,53.896,0.437482,-1.81989
592.6,53.9559,0.441489,-1.82267
593.2,54.0166,0.438066,-1.82416
593.8,54.076,0.436943,-1.82774
594.4,54.1359,0.433033,-1.82848
595,54.1966,0.434156,-1.83176
595.6,54.256,0.432165,-1.83447
596.2,54.3155,0.43891,-1.83582
596.8,54.3757,0.430751,-1.83735
597.4,54.4357,0.436957,-1.84042
598,54.4962,0.43295,-1.84173
598.6,54.5561,0.440261,-1.84316
599.2,54.6161,0.450736,-1.84603
599.8,54.6772,0.447265,-1.84764
600.4,54.736,0.443884,-1.84895
601,54.7957,0.439839,-1.85185
601.6,54.8559,0.4445,-1.85316
602.2,54.9164,0.449607,-1.85437
602.8,54.9765,0.448164,-1.85688
603.4,55.036,0.449942,-1.85997
604,55.0972,0.45153,-1.86269
604.6,55.1571,0.456118,-1.86281
605.2,55.2176,0.453383,-1.86562
605.8,55.2764,0.449949,-1.86715
606.4,55.3372,0.450476,-1.86844
607,55.3969,0.464822,-1.86977
607.6,55.4566,0.460897,-1.87029
608.2,55.5163,0.463654,-1.87324
608.8,55.5778,0.4619,-1.87597
609.4,55.6373,0.464801,-1.87779
610,55.6973,0.470944,-1.88003
610.6,55.7581,0.469285,-1.88151
611.2,55.8175,0.473076,-1.88142
611.8,55.8777,0.47657,-1.88268
612.4,55.9379,0.477472,-1.88437
613,55.9985,0.486671,-1.88703
613.6,56.0578,0.491489,-1.88965
614.2,56.119,0.489191,-1.89089
614.8,56.178,0.502341,-1.89228
615.4,56.2389,0.496515,-1.8945
616,56.2989,0.500212,-1.89628
616.6,56.3592,0.505564,-1.89837
617.2,56.417,0.509713,-1.89811
617.8,56.4791,0.514274,-1.89956
618.4,56.5389,0.516303,-1.90167
619,56.5998,0.516257,-1.90318
619.6,56.6597,0.518922,-1.90453
620.2,56.7204,0.521198,-1.90582
620.8,56.7794,0.528424,-1.90642
621.4,56.8401,0.533099,-1.90951
622,56.9,0.536053,-1.91139
622.6,56.9591,0.541785,-1.91251
623.2,57.0194,0.53921,-1.9142
623.8,57.0796,0.536703,-1.9156
624.4,57.1401,0.547155,-1.9156
625,57.2001,0.548621,-1.91687
625.6,57.2599,0.549585,-1.91862
626.2,57.3201,0.549222,-1.92083
626.8,57.3798,0.547985,-1.92216
627.4,57.4407,0.550058,-1.92211
628,57.5003,0.556334,-1.92339
628.6,57.5596,0.559554,-1.92619
629.2,57.6208,0.564172,-1.92624
629.8,57.6797,0.563751,-1.92757
630.4,57.7405,0.563691,-1.9293
631,57.8,0.557533,-1.93021
631.6,57.8603,0.564994,-1.92999
632.2,57.921,0.57236,-1.93152
632.8,57.9804,0.57766,-1.93286
633.4,58.0417,0.564828,-1.93284
634,58.0991,0.567308,-1.93413
634.6,58.161,0.572063,-1.93546
635.2,58.2216,0.572871,-1.93682
635.8,58.2821,0.576283,-1.93834
636.4,58.3415,0.585154,-1.93804
637,58.4012,0.589673,-1.93943
637.6,58.4616,0.58836,-1.94075
638.2,58.5214,0.588729,-1.94337
638.8,58.5814,0.597243,-1.94473
639.4,58.6412,0.598433,-1.94602
640,58.7018,0.595419,-1.94601
640.6,58.7616,0.60096,-1.94744
641.2,58.8221,0.604849,-1.94864
641.8,58.8824,0.60453,-1.95097
642.4,58.9425,0.602477,-1.94997
643,59.0019,0.610163,-1.95127
643.6,59.0625,0.611926,-1.95259
644.2,59.123,0.616116,-1.9539
644.8,59.183,0.625391,-1.95523
645.4,59.242,0.617739,-1.95654
646,59.3032,0.621796,-1.95786
646.6,59.3628,0.616512,-1.95789
647.2,59.4224,0.628594,-1.95786
647.8,59.4826,0.629842,-1.95918
648.4,59.5421,0.630822,-1.96049
649,59.6034,0.635511,-1.96182
649.6,59.6634,0.639386,-1.96313
650.2,59.7242,0.63947,-1.96355
650.8,59.7826,0.639891,-1.96446
651.4,59.8446,0.636847,-1.96444
652,59.9046,0.642941,-1.96576
652.6,59.9652,0.645898,-1.96574
653.2,60.0248,0.655235,-1.96855
653.8,60.0856,0.647882,-1.97067
654.4,60.1459,0.656893,-1.96985
655,60.2055,0.655663,-1.97114
655.6,60.2662,0.65788,-1.97244
656.2,60.3264,0.656103,-1.97311
656.8,60.3865,0.650055,-1.9725
657.4,60.447,0.653328,-1.97376
658,60.506,0.665683,-1.97641
658.6,60.5675,0.665579,-1.97712
659.2,60.6277,0.676024,-1.97675
659.8,60.6883,0.659071,-1.97805
660.4,60.7482,0.673291,-1.97903
661,60.8079,0.674146,-1.97964
661.6,60.8691,0.672639,-1.98221
662.2,60.9285,0.672349,-1.98344
662.8,60.9893,0.680316,-1.98479
663.4,61.0489,0.675379,-1.98582
664,61.1095,0.685674,-1.98443
664.6,61.1698,0.679594,-1.98573
665.2,61.2295,0.680825,-1.98638
665.8,61.2897,0.683089,-1.98811
666.4,61.3501,0.673315,-1.98838
667,61.4107,0.681409,-1.98969
667.6,61.4707,0.684221,-1.9896
668.2,61.5313,0.692086,-1.99219
668.8,61.5916,0.695523,-1.99235
669.4,61.6518,0.69291,-1.99257
670,61.7119,0.694295,-1.99365
670.6,61.7717,0.694886,-1.99629
671.2,61.8319,0.695732,-1.99759
671.8,61.8919,0.69816,-1.99887
672.4,61.9516,0.694164,-1.9976
673,62.012,0.691907,-1.99893
673.6,62.0717,0.690208,-1.99818
674.2,62.132,0.694747,-1.99957
674.8,62.1917,0.68609,-2.00088
675.4,62.2524,0.686384,-2.00089
676,62.3127,0.680202,-2.00221
676.6,62.3726,0.684259,-2.00353
677.2,62.4331,0.6844,-2.00385
677.8,62.4933,0.684518,-2.00453
678.4,62.5535,0.681682,-2.0055
679,62.614,0.681913,-2.0059
679.6,62.6714,0.680105,-2.00824
680.2,62.7336,0.6765,-2.00956
680.8,62.7946,0.674632,-2.00956
681.4,62.855,0.672842,-2.01087
682,62.9147,0.668939,-2.01084
682.6,62.9751,0.666918,-2.0109
683.2,63.0347,0.663867,-2.01221
683.8,63.095,0.664997,-2.01221
684.4,63.1548,0.672923,-2.01221
685,63.2166,0.668504,-2.01354
685.6,63.2754,0.674667,-2.01584
686.2,63.3358,0.668349,-2.01707
686.8,63.3959,0.659828,-2.01748
687.4,63.4567,0.661814,-2.01879
688,63.5156,0.66011,-2.02016
688.6,63.5768,0.653181,-2.02058
689.2,63.6375,0.651789,-2.02022
689.8,63.697,0.653789,-2.02022
690.4,63.7573,0.649977,-2.0217
691,63.8181,0.646896,-2.02296
691.6,63.8783,0.65421,-2.02396
692.2,63.9381,0.648491,-2.02395
692.8,63.9982,0.65139,-2.02535
693.4,64.0568,0.646624,-2.02586
694,64.1186,0.638495,-2.02806
694.6,64.1779,0.636321,-2.02931
695.2,64.2387,0.640408,-2.0283
695.8,64.299,0.642223,-2.02965
696.4,64.359,0.633436,-2.02974
697,64.4188,0.623755,-2.03098
697.6,64.4795,0.633154,-2.03229
698.2,64.5395,0.622503,-2.0336
698.8,64.6001,0.62283,-2.0335
699.4,64.6604,0.618235,-2.03563
700,64.7211,0.616838,-2.03703
700.6,64.7807,0.612823,-2.03756
701.2,64.841,0.612024,-2.03834
701.8,64.9008,0.610374,-2.03881
702.4,64.9616,0.608913,-2.04118
703,65.0218,0.601264,-2.0425
703.6,65.0823,0.607009,-2.04122
704.2,65.1428,0.606873,-2.04251
704.8,65.2032,0.594833,-2.04382
705.4,65.2631,0.597576,-2.04447
706,65.3231,0.59618,-2.04645
706.6,65.3842,0.589139,-2.04752
707.2,65.4445,0.585663,-2.04653
707.8,65.5047,0.580857,-2.04779
708.4,65.5651,0.583687,-2.04775
709,65.625,0.582181,-2.04828
709.6,65.6853,0.57683,-2.05036
710.2,65.7452,0.578615,-2.05083
710.8,65.8061,0.568866,-2.05205
711.4,65.8662,0.571591,-2.05208
712,65.9269,0.57454,-2.05337
712.6,65.9865,0.563577,-2.05467
713.2,66.0462,0.567399,-2.05474
713.8,66.1068,0.556621,-2.05567
714.4,66.1669,0.550996,-2.05696
715,66.2276,0.542684,-2.05828
715.6,66.2873,0.548538,-2.05964
716.2,66.3475,0.537914,-2.06095
716.8,66.4075,0.541721,-2.06225
717.4,66.4673,0.542558,-2.06114
718,66.5285,0.545081,-2.06328
718.6,66.5883,0.541689,-2.06432
719.2,66.649,0.541663,-2.06324
719.8,66.7093,0.535321,-2.06461
720.4,66.7696,0.541029,-2.06456
721,66.8277,0.531996,-2.0659
721.6,66.8892,0.532734,-2.0672
722.2,66.9493,0.52318,-2.06819
722.8,67.0101,0.522731,-2.06981
723.4,67.0702,0.518483,-2.07025
724,67.1308,0.512501,-2.0719
724.6,67.1902,0.503276,-2.07224
725.2,67.2516,0.5027,-2.07236
725.8,67.3118,0.500906,-2.07302
726.4,67.3711,0.499708,-2.07439
727,67.4318,0.500876,-2.07522
727.6,67.4917,0.494484,-2.07654
728.2,67.5527,0.481476,-2.0762
728.8,67.6119,0.471183,-2.07655
729.4,67.6725,0.46771,-2.07945
730,67.7335,0.460014,-2.07917
730.6,67.7941,0.468327,-2.07916
731.2,67.8537,0.466635,-2.08048
731.8,67.9128,0.464405,-2.08181
732.4,67.9751,0.454419,-2.08311
733,68.0341,0.444973,-2.08446
733.6,68.0957,0.440644,-2.08587
734.2,68.1574,0.438718,-2.08577
734.8,68.2168,0.43408,-2.08609
735.4,68.2769,0.428248,-2.08708
736,68.3386,0.437264,-2.08831
736.6,68.3983,0.434323,-2.08945
737.2,68.459,0.429766,-2.09004
737.8,68.5197,0.428746,-2.09103
738.4,68.5797,0.424967,-2.09092
739,68.6401,0.414819,-2.09341
739.6,68.7001,0.416598,-2.09362
740.2,68.7614,0.414738,-2.09466
740.8,68.8211,0.409102,-2.09622
741.4,68.8823,0.410878,-2.09625
742,68.9418,0.405358,-2.09849
742.6,69.0027,0.40056,-2.0985
743.2,69.0632,0.398659,-2.09893
743.8,69.1244,0.386361,-2.09937
744.4,69.1852,0.380995,-2.10024
745,69.2458,0.383119,-2.10159
745.6,69.3052,0.375063,-2.10352
746.2,69.3659,0.372703,-2.10649
746.8,69.4266,0.363856,-2.10563
747.4,69.4865,0.358838,-2.10694
748,69.5471,0.352655,-2.10824
748.6,69.6071,0.346046,-2.10826
749.2,69.6672,0.342433,-2.10862
749.8,69.7272,0.324702,-2.1096
750.4,69.788,0.324415,-2.11092
751,69.8485,0.321114,-2.11098
751.6,69.9089,0.31822,-2.11222
752.2,69.9692,0.308051,-2.11217
752.8,70.03,0.302391,-2.11357
753.4,70.0893,0.300532,-2.11487
754,70.1503,0.289679,-2.11617
754.6,70.211,0.294533,-2.11882
755.2,70.2712,0.286039,-2.11902
755.8,70.3316,0.277299,-2.1188
756.4,70.3918,0.282384,-2.12011
757,70.4528,0.277917,-2.12042
757.6,70.513,0.264406,-2.12144
758.2,70.5741,0.263416,-2.12276
758.8,70.6344,0.262216,-2.12283
759.4,70.6955,0.263566,-2.12319
760,70.7552,0.262134,-2.12424
760.6,70.8156,0.256196,-2.1257
761.2,70.8761,0.253293,-2.12799
761.8,70.9354,0.249605,-2.12813
762.4,70.9981,0.235626,-2.12865
763,71.0579,0.234601,-2.12914
763.6,71.1179,0.235208,-2.12981
764.2,71.179,0.237692,-2.13088
764.8,71.2398,0.223549,-2.13353
765.4,71.3001,0.222949,-2.13483
766,71.3611,0.219991,-2.13483
766.6,71.4192,0.214723,-2.13492
767.2,71.481,0.218457,-2.13615
767.8,71.5399,0.211769,-2.13656
768.4,71.6026,0.210134,-2.13747
769,71.663,0.207277,-2.13746
769.6,71.7229,0.194324,-2.13779
770.2,71.7839,0.192968,-2.1391
770.8,71.8441,0.179427,-2.14109
771.4,71.905,0.180925,-2.14174
772,71.9653,0.178354,-2.14174
772.6,72.0265,0.179138,-2.14324
773.2,72.0858,0.177118,-2.14339
773.8,72.147,0.164929,-2.14317
774.4,72.2082,0.165351,-2.14579
775,72.2683,0.159576,-2.14582
775.6,72.3285,0.151979,-2.14705
776.2,72.3895,0.152229,-2.14844
776.8,72.4503,0.148977,-2.14846
777.4,72.5111,0.14401,-2.14979
778,72.5714,0.136098,-2.14976
778.6,72.6317,0.132239,-2.14976
779.2,72.693,0.126018,-2.14976
779.8,72.7537,0.115134,-2.14979
780.4,72.8133,0.117385,-2.14973
781,72.8745,0.10806,-2.1524
781.6,72.9349,0.108082,-2.15376
782.2,72.9959,0.0991692,-2.15382
782.8,73.0556,0.0997085,-2.15503
783.4,73.1163,0.0914411,-2.1553
784,73.1776,0.0892004,-2.15543
784.6,73.238,0.087718,-2.15573
785.2,73.2983,0.0819527,-2.15568
785.8,73.3574,0.0763603,-2.15638
786.4,73.4201,0.0672235,-2.15767
787,73.481,0.059575,-2.15901
787.6,73.5412,0.0590537,-2.15898
788.2,73.6017,0.0487697,-2.1602
788.8,73.6627,0.0450941,-2.1603
789.4,73.7227,0.0451008,-2.16162
790,73.7834,0.0428829,-2.16122
790.6,73.8424,0.0396692,-2.16063
791.2,73.9049,0.0323821,-2.16196
791.8,73.9651,0.0202287,-2.16326
792.4,74.0253,0.0206446,-2.16326
793,74.0872,0.0211217,-2.16398
793.6,74.1471,0.0114316,-2.16477
794.2,74.2083,0.00967117,-2.16596
794.8,74.2689,0.0166956,-2.16721
795.4,74.3295,0.00657296,-2.16722
796,74.3911,0.00670033,-2.16568
796.6,74.4511,0.00136728,-2.16557
797.2,74.5124,-0.00147531,-2.16721
797.8,74.5726,-0.00400274,-2.16854
798.4,74.6333,-0.00203089,-2.16953
799,74.6941,-0.00763723,-2.16985
799.6,74.7537,-0.0127282,-2.16985
800.2,74.8156,-0.0091097,-2.1698
800.8,74.8762,-0.0161058,-2.17083
801.4,74.9361,-0.0200068,-2.17087
802,74.9973,-0.0166928,-2.1698
802.6,75.0592,-0.0241698,-2.17117
803.2,75.1197,-0.0237642,-2.17117
803.8,75.1794,-0.0323725,-2.17117
804.4,75.2402,-0.035549,-2.17255
805,75.3021,-0.0433567,-2.17384
805.6,75.3631,-0.0396567,-2.17381
806.2,75.4235,-0.0451592,-2.17382
806.8,75.4837,-0.0508632,-2.17286
807.4,75.545,-0.0568375,-2.17525
808,75.6052,-0.0576021,-2.17545
808.6,75.666,-0.0587611,-2.17545
809.2,75.7272,-0.0696265,-2.17545
809.8,75.7882,-0.0618071,-2.17548
810.4,75.8487,-0.0673899,-2.17608
811,75.9095,-0.0577248,-2.17512
811.6,75.9707,-0.0634043,-2.17512
812.2,76.0309,-0.0703972,-2.17643
812.8,76.0915,-0.0640967,-2.17643
813.4,76.1529,-0.065886,-2.17514
814,76.2133,-0.0644627,-2.17775
814.6,76.2743,-0.0672252,-2.17743
815.2,76.3346,-0.0655351,-2.17748
815.8,76.396,-0.0560394,-2.17908
816.4,76.4566,-0.0660887,-2.17969
817,76.5181,-0.069481,-2.17929
817.6,76.5784,-0.067405,-2.17929
818.2,76.6396,-0.0694089,-2.17995
818.8,76.7002,-0.0677665,-2.17995
819.4,76.7598,-0.0703844,-2.1813
820,76.8211,-0.0655811,-2.18127
820.6,76.8815,-0.0713315,-2.17996
821.2,76.9421,-0.0669057,-2.18127
821.8,77.0034,-0.0726343,-2.18127
822.4,77.0643,-0.0767936,-2.18127
823,77.1254,-0.0677992,-2.18128
823.6,77.1865,-0.0760208,-2.18127
824.2,77.2466,-0.0755708,-2.1816
824.8,77.3072,-0.0728911,-2.1816
825.4,77.3678,-0.069345,-2.18303
826,77.4293,-0.0743905,-2.18292
826.6,77.4903,-0.0804617,-2.18292
827.2,77.5512,-0.082657,-2.18425
827.8,77.6111,-0.083614,-2.1839
828.4,77.6727,-0.0811603,-2.1839
829,77.7328,-0.0795318,-2.18522
829.6,77.7945,-0.08667,-2.18522
830.2,77.8544,-0.0946064,-2.18658
830.8,77.9164,-0.097738,-2.18571
831.4,77.9767,-0.0964195,-2.18522
832,78.037,-0.0991229,-2.18498
832.6,78.0989,-0.106146,-2.18425
833.2,78.1599,-0.0982597,-2.18522
833.8,78.2203,-0.107723,-2.1851
834.4,78.2818,-0.109693,-2.18688
835,78.3425,-0.104362,-2.18556
835.6,78.4039,-0.104604,-2.18686
836.2,78.4644,-0.103225,-2.18818
836.8,78.5254,-0.097934,-2.18818
837.4,78.586,-0.0968327,-2.18819
838,78.6476,-0.098146,-2.1895
838.6,78.708,-0.0933295,-2.18816
839.2,78.7687,-0.0923992,-2.18951
839.8,78.8301,-0.094684,-2.18951
840,78.8483,-0.092928,-2.18951