File: 01_Data/Helmet_Shield_Bracket/STA/N2/10K_min/Helmet_Shield_Bracket_STA_N2_10KData_250521_R1.csv
Temp./C,Time/min,DSC/(mW/mg),Mass loss/mg
40.0,0.0,0.889329,-0.0500838
40.6,0.0849128,0.912532,-0.0487277
41.2,0.164607,0.933802,-0.0495042
41.8,0.24395,0.960105,-0.0521895
42.4,0.323223,0.981763,-0.0524989
43,0.400311,0.998695,-0.0522724
43.6,0.476764,1.02386,-0.0518973
44.2,0.552202,1.04043,-0.052313
44.8,0.627367,1.06492,-0.0538824
45.4,0.70252,1.07682,-0.0537374
46,0.777392,1.09754,-0.0536533
46.6,0.851325,1.11246,-0.0523338
47.2,0.923392,1.13445,-0.0525815
47.8,0.996507,1.15415,-0.0536117
48.4,1.06856,1.16292,-0.0538307
49,1.1394,1.19433,-0.0540032
49.6,1.20962,1.19955,-0.0526315
50.2,1.28027,1.21361,-0.0547343
50.8,1.35189,1.23736,-0.055385
51.4,1.42141,1.25131,-0.0552559
52,1.48976,1.26979,-0.0558472
52.6,1.55944,1.28837,-0.0567123
53.2,1.62868,1.29767,-0.0563175
53.8,1.69532,1.31933,-0.0566546
54.4,1.76459,1.32722,-0.0579745
55,1.83107,1.34668,-0.0592836
55.6,1.89956,1.35906,-0.0593008
56.2,1.96676,1.38092,-0.0579732
56.8,2.03305,1.3948,-0.0585327
57.4,2.10051,1.40601,-0.0593237
58,2.16568,1.42136,-0.0593082
58.6,2.23048,1.43142,-0.0599217
59.2,2.298,1.44332,-0.0607333
59.8,2.36238,1.46867,-0.061949
60.4,2.4262,1.47716,-0.0618232
61,2.49055,1.49786,-0.0618303
61.6,2.55185,1.51033,-0.0631198
62.2,2.62025,1.51818,-0.0617305
62.8,2.68236,1.53101,-0.0618205
63.4,2.74773,1.53811,-0.0631063
64,2.81044,1.54899,-0.0644097
64.6,2.87366,1.56275,-0.0631358
65.2,2.93806,1.57843,-0.0631269
65.8,3.00049,1.58502,-0.0633791
66.4,3.06308,1.60065,-0.065929
67,3.12596,1.60616,-0.0694957
67.6,3.18696,1.61755,-0.0686487
68.2,3.25112,1.63065,-0.0671896
68.8,3.31259,1.63456,-0.0672754
69.4,3.37686,1.6422,-0.0698936
70,3.43847,1.65399,-0.068567
70.6,3.50002,1.66676,-0.0686233
71.2,3.5609,1.67132,-0.0686148
71.8,3.62303,1.67412,-0.0688132
72.4,3.68499,1.68875,-0.0700179
73,3.7452,1.69943,-0.0703813
73.6,3.80597,1.70771,-0.0715803
74.2,3.86781,1.72205,-0.0715798
74.8,3.9291,1.72203,-0.0728842
75.4,3.99206,1.73204,-0.07289
76,4.0529,1.73565,-0.0741758
76.6,4.11251,1.74902,-0.0728864
77.2,4.17305,1.75842,-0.0731269
77.8,4.23343,1.76557,-0.0736547
78.4,4.29605,1.77531,-0.0742199
79,4.3544,1.78483,-0.072991
79.6,4.41119,1.78395,-0.0763545
80.2,4.47611,1.79796,-0.0778534
80.8,4.53498,1.79786,-0.0726983
81.4,4.59745,1.80279,-0.0723399
82,4.65711,1.80932,-0.0734385
82.6,4.71728,1.81308,-0.0747838
83.2,4.77655,1.8193,-0.0763864
83.8,4.83645,1.82273,-0.076384
84.4,4.89687,1.83113,-0.0763937
85,4.95629,1.83746,-0.0783777
85.6,5.01597,1.84532,-0.077464
86.2,5.07375,1.85292,-0.077901
86.8,5.13448,1.85777,-0.0804158
87.4,5.19408,1.85746,-0.0810216
88,5.25394,1.86072,-0.0823356
88.6,5.31141,1.86803,-0.0824094
89.2,5.37024,1.86414,-0.0810108
89.8,5.42968,1.86355,-0.081245
90.4,5.48819,1.87322,-0.0810181
91,5.54729,1.87096,-0.0796765
91.6,5.60615,1.86919,-0.0799263
92.2,5.66557,1.8775,-0.081015
92.8,5.72469,1.87744,-0.0810228
93.4,5.7814,1.87047,-0.0816419
94,5.83993,1.86587,-0.084714
94.6,5.89943,1.86817,-0.08464
95.2,5.9579,1.87311,-0.08464
95.8,6.01563,1.86687,-0.0846082
96.4,6.07415,1.86826,-0.085298
97,6.13236,1.86348,-0.0859586
97.6,6.19024,1.85972,-0.0846244
98.2,6.24889,1.85936,-0.0859471
98.8,6.30526,1.86453,-0.08596
99.4,6.36431,1.8517,-0.0859595
100,6.42295,1.8535,-0.0872756
100.6,6.47987,1.85229,-0.0872669
101.2,6.53872,1.85207,-0.0859546
101.8,6.59636,1.84703,-0.0867646
102.4,6.65344,1.83555,-0.0878334
103,6.71204,1.83664,-0.0885684
103.6,6.76975,1.84327,-0.0876119
104.2,6.82648,1.84918,-0.08761
104.8,6.8852,1.84281,-0.0876081
105.4,6.94242,1.83663,-0.0889195
106,7.00012,1.83689,-0.0898848
106.6,7.05879,1.83457,-0.0887612
107.2,7.11463,1.84016,-0.0898963
107.8,7.17356,1.83831,-0.091301
108.4,7.23173,1.83948,-0.0912176
109,7.2884,1.84072,-0.0912306
109.6,7.34279,1.83771,-0.0911716
110.2,7.40417,1.84129,-0.0912203
110.8,7.46182,1.84042,-0.09122
111.4,7.52039,1.8357,-0.0912199
112,7.57647,1.842,-0.0912381
112.6,7.63337,1.84586,-0.08991
113.2,7.69177,1.84978,-0.08991
113.8,7.75009,1.84238,-0.0899101
114.4,7.8071,1.84152,-0.0913139
115,7.86487,1.84662,-0.0912162
115.6,7.92225,1.84471,-0.0912624
116.2,7.97864,1.84758,-0.0925512
116.8,8.03847,1.85035,-0.0931922
117.4,8.0946,1.85818,-0.0938535
118,8.15194,1.85544,-0.0938575
118.6,8.2099,1.85549,-0.0938543
119.2,8.26739,1.85596,-0.0938729
119.8,8.32422,1.86219,-0.0951841
120.4,8.38155,1.86084,-0.095251
121,8.43967,1.86893,-0.093861
121.6,8.49845,1.8697,-0.0938598
122.2,8.55532,1.87574,-0.0945595
122.8,8.61223,1.87796,-0.0952194
123.4,8.66911,1.86906,-0.0941997
124,8.72586,1.87438,-0.0954839
124.6,8.78256,1.88205,-0.09551
125.2,8.83989,1.88711,-0.09551
125.8,8.89885,1.88763,-0.09551
126.4,8.95655,1.89558,-0.0955137
127,9.01448,1.89509,-0.0939701
127.6,9.07052,1.89601,-0.0937608
128.2,9.12791,1.90521,-0.0951798
128.8,9.18535,1.90922,-0.09518
129.4,9.24054,1.9103,-0.0951798
130,9.29977,1.90619,-0.0939482
130.6,9.35593,1.91151,-0.0951814
131.2,9.41307,1.91558,-0.0965002
131.8,9.47056,1.91308,-0.0965
132.4,9.52756,1.92189,-0.0964499
133,9.58191,1.91667,-0.0964962
133.6,9.64279,1.92325,-0.0964907
134.2,9.69973,1.92691,-0.0951975
134.8,9.75606,1.92589,-0.0951629
135.4,9.81314,1.93126,-0.097813
136,9.87018,1.93725,-0.09781
136.6,9.92766,1.93057,-0.0978089
137.2,9.98443,1.94126,-0.0965009
137.8,10.0409,1.94464,-0.0965687
138.4,10.0976,1.94484,-0.0987882
139,10.1548,1.95458,-0.09892
139.6,10.2109,1.95429,-0.0988439
140.2,10.268,1.96248,-0.100233
140.8,10.3254,1.96093,-0.0989022
141.4,10.381,1.96364,-0.0976004
142,10.4385,1.97204,-0.0975975
142.6,10.4945,1.98122,-0.0989107
143.2,10.5521,1.99016,-0.09891
143.8,10.6093,1.9935,-0.09891
144.4,10.664,1.99765,-0.0989105
145,10.7211,1.99178,-0.0976117
145.6,10.7775,2.00185,-0.0988835
146.2,10.8342,2.00512,-0.09891
146.8,10.8906,2.00758,-0.09891
147.4,10.9482,2.00929,-0.0989117
148,11.0036,2.02102,-0.10036
148.6,11.0606,2.01578,-0.0989202
149.2,11.1165,2.02666,-0.0989167
149.8,11.1734,2.03496,-0.100231
150.4,11.2309,2.03727,-0.101584
151,11.2877,2.03906,-0.10154
151.6,11.3438,2.04555,-0.10154
152.2,11.3997,2.04876,-0.101533
152.8,11.4571,2.05306,-0.102859
153.4,11.5142,2.05939,-0.102118
154,11.571,2.06534,-0.10155
154.6,11.6265,2.06733,-0.10155
155.2,11.6842,2.06501,-0.101554
155.8,11.7402,2.07246,-0.100234
156.4,11.7971,2.07253,-0.101547
157,11.8531,2.08225,-0.100231
157.6,11.9095,2.08706,-0.10024
158.2,11.9661,2.08631,-0.100866
158.8,12.0228,2.08807,-0.104454
159.4,12.0793,2.09887,-0.101147
160,12.1358,2.10804,-0.10188
160.6,12.1921,2.11049,-0.101872
161.2,12.2486,2.11285,-0.100888
161.8,12.3032,2.12324,-0.100746
162.4,12.3632,2.11948,-0.102203
163,12.4169,2.1204,-0.103197
163.6,12.4739,2.12523,-0.103525
164.2,12.5327,2.1352,-0.103638
164.8,12.5882,2.1401,-0.10352
165.4,12.6448,2.14311,-0.10352
166,12.7024,2.13911,-0.10352
166.6,12.7585,2.14472,-0.103526
167.2,12.8147,2.16081,-0.10484
167.8,12.8717,2.16577,-0.10484
168.4,12.928,2.16841,-0.104839
169,12.9845,2.17904,-0.106163
169.6,13.0409,2.1738,-0.106229
170.2,13.0971,2.17929,-0.10484
170.8,13.1534,2.18271,-0.10484
171.4,13.2087,2.18615,-0.10484
172,13.2676,2.19268,-0.10484
172.6,13.3233,2.19426,-0.105752
173.2,13.3799,2.206,-0.107139
173.8,13.4358,2.20912,-0.10714
174.4,13.4916,2.21473,-0.10714
175,13.5504,2.21418,-0.107141
175.6,13.6065,2.21638,-0.108454
176.2,13.6632,2.21567,-0.10846
176.8,13.7193,2.2275,-0.10846
177.4,13.7757,2.22647,-0.10846
178,13.8329,2.22795,-0.10846
178.6,13.8889,2.24112,-0.108462
179.2,13.9457,2.23829,-0.110108
179.8,14.0023,2.24577,-0.110137
180.4,14.0581,2.24098,-0.11011
181,14.1148,2.25295,-0.110118
181.6,14.1723,2.25301,-0.112855
182.2,14.2277,2.2616,-0.109922
182.8,14.2831,2.2678,-0.108938
183.4,14.3407,2.25947,-0.109851
184,14.3966,2.26775,-0.11121
184.6,14.4534,2.27035,-0.112287
185.2,14.5097,2.27309,-0.11252
185.8,14.5661,2.27511,-0.112516
186.4,14.622,2.28526,-0.111201
187,14.6785,2.29643,-0.111682
187.6,14.735,2.30278,-0.112481
188.2,14.7918,2.31178,-0.11024
188.8,14.8471,2.31286,-0.11022
189.4,14.9042,2.31825,-0.111221
190,14.9597,2.32103,-0.111192
190.6,15.0169,2.3289,-0.111214
191.2,15.0737,2.33414,-0.11122
191.8,15.1302,2.33828,-0.112555
192.4,15.1867,2.33844,-0.11385
193,15.2424,2.34484,-0.11375
193.6,15.2987,2.34777,-0.115097
194.2,15.3559,2.35156,-0.113844
194.8,15.4121,2.35998,-0.112526
195.4,15.4683,2.35458,-0.11253
196,15.5239,2.36133,-0.11253
196.6,15.581,2.3672,-0.11253
197.2,15.6366,2.37136,-0.11253
197.8,15.6938,2.37265,-0.113834
198.4,15.75,2.38175,-0.115116
199,15.807,2.37966,-0.11659
199.6,15.8633,2.39626,-0.116591
200.2,15.9204,2.39671,-0.116899
200.8,15.978,2.40622,-0.116208
201.4,16.0333,2.40789,-0.116519
202,16.0897,2.41783,-0.118872
202.6,16.1469,2.41876,-0.114111
203.2,16.2025,2.42664,-0.112395
203.8,16.2577,2.43776,-0.112189
204.4,16.316,2.42607,-0.11482
205,16.3699,2.43956,-0.116141
205.6,16.4296,2.44434,-0.117478
206.2,16.4847,2.45169,-0.118464
206.8,16.5419,2.45859,-0.11846
207.4,16.5968,2.46711,-0.11846
208,16.6542,2.46632,-0.117266
208.6,16.7119,2.47495,-0.11714
209.2,16.7674,2.48541,-0.11714
209.8,16.8247,2.49728,-0.117139
210.4,16.8803,2.50174,-0.116154
211,16.937,2.50495,-0.11604
211.6,16.9927,2.50438,-0.118758
212.2,17.0501,2.5113,-0.11879
212.8,17.1065,2.51661,-0.11879
213.4,17.1628,2.52619,-0.118845
214,17.218,2.5276,-0.11878
214.6,17.2748,2.53453,-0.118784
215.2,17.332,2.53656,-0.118115
215.8,17.3885,2.54209,-0.11812
216.4,17.4445,2.54619,-0.118039
217,17.5012,2.55219,-0.11944
217.6,17.5568,2.55524,-0.11944
218.2,17.6136,2.54846,-0.11944
218.8,17.6692,2.56237,-0.11944
219.4,17.7235,2.56727,-0.118134
220,17.783,2.56127,-0.118084
220.6,17.8401,2.56962,-0.119468
221.2,17.8956,2.57685,-0.12076
221.8,17.9517,2.59202,-0.120761
222.4,18.0104,2.60448,-0.119541
223,18.066,2.61606,-0.119443
223.6,18.1233,2.62353,-0.120374
224.2,18.1774,2.6437,-0.119438
224.8,18.236,2.66591,-0.11944
225.4,18.2923,2.68751,-0.11944
226,18.3489,2.71938,-0.119437
226.6,18.4071,2.75518,-0.120747
227.2,18.463,2.79913,-0.120769
227.8,18.5198,2.84618,-0.120165
228.4,18.5776,2.90848,-0.120752
229,18.6352,2.99151,-0.12142
229.6,18.6935,3.09896,-0.121403
230.2,18.7509,3.23119,-0.120097
230.8,18.8087,3.37021,-0.121135
231.4,18.8665,3.48688,-0.120455
232,18.9251,3.5988,-0.1201
232.6,18.9831,3.70318,-0.121471
233.2,19.0406,3.79299,-0.122854
233.8,19.0997,3.8895,-0.123718
234.4,19.1558,3.97253,-0.12372
235,19.2136,4.05926,-0.12372
235.6,19.2721,4.14399,-0.12372
236.2,19.3301,4.23941,-0.12372
236.8,19.3879,4.33399,-0.12372
237.4,19.4459,4.43173,-0.123722
238,19.5042,4.55182,-0.122393
238.6,19.5616,4.67544,-0.121085
239.2,19.6199,4.81383,-0.121097
239.8,19.6781,4.94379,-0.120047
240.4,19.7364,5.0814,-0.120102
241,19.7949,5.19751,-0.122742
241.6,19.853,5.32748,-0.122741
242.2,19.9117,5.43579,-0.124045
242.8,19.9684,5.51818,-0.12406
243.4,20.027,5.54659,-0.123408
244,20.08,5.46244,-0.12274
244.6,20.1357,5.17377,-0.123301
245.2,20.1872,4.716,-0.12405
245.8,20.2379,4.21151,-0.122699
246.4,20.2903,3.74227,-0.122743
247,20.3425,3.39447,-0.12141
247.6,20.3951,3.15347,-0.124079
248.2,20.4503,2.95562,-0.125034
248.8,20.5048,2.82016,-0.12471
249.4,20.5603,2.74122,-0.12471
250,20.6165,2.66454,-0.124992
250.6,20.6712,2.61827,-0.124711
251.2,20.7287,2.60279,-0.12471
251.8,20.7848,2.57437,-0.123387
252.4,20.841,2.55556,-0.123392
253,20.8969,2.55115,-0.124711
253.6,20.9535,2.54781,-0.12471
254.2,21.0109,2.5386,-0.12471
254.8,21.0673,2.53876,-0.12471
255.4,21.1232,2.53871,-0.12456
256,21.1794,2.54428,-0.123346
256.6,21.2366,2.5373,-0.12339
257.2,21.2931,2.54309,-0.123403
257.8,21.3503,2.5404,-0.124924
258.4,21.4081,2.54919,-0.12537
259,21.4632,2.55029,-0.125947
259.6,21.5201,2.56194,-0.125999
260.2,21.5773,2.55488,-0.12471
260.8,21.6333,2.56078,-0.126088
261.4,21.6907,2.55209,-0.12603
262,21.7455,2.56006,-0.12563
262.6,21.8032,2.56815,-0.124381
263.2,21.8608,2.56611,-0.124994
263.8,21.9181,2.57058,-0.12438
264.4,21.9747,2.57289,-0.124349
265,22.0315,2.56126,-0.125439
265.6,22.0877,2.5754,-0.12602
266.2,22.145,2.58568,-0.126048
266.8,22.2011,2.58264,-0.126692
267.4,22.2574,2.58671,-0.126359
268,22.3143,2.59802,-0.126394
268.6,22.3719,2.59335,-0.126052
269.2,22.4278,2.59318,-0.12471
269.8,22.4855,2.60427,-0.12471
270.4,22.5427,2.60679,-0.12471
271,22.5963,2.60734,-0.12471
271.6,22.6558,2.61803,-0.125304
272.2,22.7125,2.62626,-0.126006
272.8,22.7695,2.63411,-0.132156
273.4,22.8261,2.63257,-0.12744
274,22.8829,2.64094,-0.125277
274.6,22.94,2.65315,-0.125295
275.2,22.9964,2.65159,-0.126587
275.8,23.0542,2.6607,-0.125261
276.4,23.1104,2.67003,-0.12526
277,23.1679,2.67534,-0.12526
277.6,23.2248,2.68251,-0.125254
278.2,23.2816,2.69501,-0.124931
278.8,23.3383,2.69669,-0.12493
279.4,23.3952,2.71448,-0.124952
280,23.4525,2.71697,-0.127549
280.6,23.5093,2.73247,-0.128969
281.2,23.5671,2.74291,-0.129957
281.8,23.6234,2.76398,-0.1302
282.4,23.6811,2.76773,-0.1302
283,23.7389,2.7649,-0.1302
283.6,23.7949,2.78962,-0.130076
284.2,23.8515,2.79331,-0.132839
284.8,23.9087,2.8084,-0.13336
285.4,23.9657,2.82283,-0.13416
286,24.0236,2.83042,-0.13416
286.6,24.0793,2.84152,-0.134133
287.2,24.1373,2.85382,-0.13547
287.8,24.1946,2.8713,-0.13547
288.4,24.2524,2.89245,-0.136562
289,24.3097,2.90202,-0.13679
289.6,24.3666,2.91974,-0.136771
290.2,24.4234,2.93383,-0.136783
290.8,24.481,2.94788,-0.136787
291.4,24.5389,2.97011,-0.138237
292,24.5961,2.98724,-0.139104
292.6,24.652,3.00848,-0.139099
293.2,24.7097,3.02152,-0.140384
293.8,24.7668,3.04633,-0.14041
294.4,24.8243,3.06855,-0.141719
295,24.8822,3.09299,-0.142084
295.6,24.94,3.11021,-0.143483
296.2,24.9964,3.12617,-0.147718
296.8,25.0536,3.15297,-0.14909
297.4,25.111,3.18406,-0.150346
298,25.1688,3.2052,-0.151672
298.6,25.2255,3.24251,-0.150399
299.2,25.2837,3.26742,-0.151704
299.8,25.3404,3.29664,-0.151741
300.4,25.398,3.33675,-0.153119
301,25.4555,3.36421,-0.155908
301.6,25.5114,3.40075,-0.158936
302.2,25.5705,3.44042,-0.161249
302.8,25.6282,3.46915,-0.162615
303.4,25.6855,3.50856,-0.163892
304,25.7442,3.5489,-0.166532
304.6,25.7999,3.58703,-0.167838
305.2,25.8598,3.63841,-0.168749
305.8,25.9176,3.67464,-0.170522
306.4,25.974,3.72631,-0.172035
307,26.0325,3.77563,-0.173294
307.6,26.0906,3.8219,-0.176319
308.2,26.1472,3.86166,-0.177644
308.8,26.2048,3.9254,-0.180532
309.4,26.2637,3.98224,-0.183344
310,26.3212,4.03556,-0.185831
310.6,26.3797,4.09436,-0.189593
311.2,26.4382,4.16128,-0.190924
311.8,26.4964,4.21345,-0.193772
312.4,26.5532,4.28524,-0.196233
313,26.6105,4.35448,-0.198467
313.6,26.6698,4.43989,-0.200408
314.2,26.7274,4.51127,-0.204689
314.8,26.7864,4.58579,-0.208334
315.4,26.8441,4.67381,-0.212969
316,26.9023,4.74322,-0.216712
316.6,26.9621,4.83479,-0.221483
317.2,27.0196,4.92962,-0.226718
317.8,27.0781,5.02267,-0.230259
318.4,27.1361,5.11657,-0.23377
319,27.195,5.21168,-0.238921
319.6,27.2539,5.30935,-0.244224
320.2,27.3119,5.41469,-0.247994
320.8,27.371,5.51435,-0.253099
321.4,27.4299,5.61817,-0.258443
322,27.488,5.71907,-0.264133
322.6,27.5462,5.82928,-0.268389
323.2,27.6056,5.92998,-0.273843
323.8,27.6643,6.03211,-0.279323
324.4,27.7225,6.13834,-0.286216
325,27.7811,6.22444,-0.295094
325.6,27.8392,6.30354,-0.301163
326.2,27.8982,6.3367,-0.307723
326.8,27.9553,6.35734,-0.314978
327.4,28.0119,6.30941,-0.319964
328,28.0686,6.21775,-0.327597
328.6,28.1244,6.07952,-0.332236
329.2,28.1802,5.85946,-0.339822
329.8,28.2343,5.55909,-0.345737
330.4,28.2874,5.22478,-0.351036
331,28.341,4.86514,-0.355776
331.6,28.3951,4.49804,-0.359127
332.2,28.4481,4.18623,-0.364006
332.8,28.502,3.92043,-0.367033
333.4,28.5573,3.68527,-0.370741
334,28.6125,3.53292,-0.375918
334.6,28.6688,3.39802,-0.378368
335.2,28.7242,3.30515,-0.381539
335.8,28.7819,3.22727,-0.387034
336.4,28.8377,3.16599,-0.388917
337,28.8943,3.11104,-0.391505
337.6,28.9521,3.07569,-0.393511
338.2,29.0084,3.03278,-0.395984
338.8,29.0658,3.01594,-0.396662
339.4,29.1233,2.98093,-0.399111
340,29.1805,2.96671,-0.401638
340.6,29.2385,2.93977,-0.403547
341.2,29.2953,2.92243,-0.404557
341.8,29.353,2.9104,-0.403901
342.4,29.4089,2.8875,-0.404647
343,29.4672,2.87927,-0.408524
343.6,29.525,2.85989,-0.409849
344.2,29.5818,2.85559,-0.410225
344.8,29.639,2.84426,-0.411224
345.4,29.6971,2.83507,-0.413459
346,29.7553,2.83288,-0.416497
346.6,29.8126,2.8244,-0.417989
347.2,29.8693,2.8262,-0.419369
347.8,29.9285,2.81451,-0.419367
348.4,29.9851,2.8096,-0.420682
349,30.043,2.80338,-0.42068
349.6,30.1009,2.80579,-0.420677
350.2,30.1585,2.79896,-0.421986
350.8,30.2162,2.80555,-0.423318
351.4,30.2731,2.80547,-0.425742
352,30.3315,2.80854,-0.426056
352.6,30.3902,2.81123,-0.427493
353.2,30.4475,2.82015,-0.430134
353.8,30.5051,2.82054,-0.430134
354.4,30.5633,2.82284,-0.431457
355,30.6211,2.82497,-0.432814
355.6,30.6795,2.83041,-0.435069
356.2,30.7372,2.84052,-0.43541
356.8,30.7948,2.84815,-0.438123
357.4,30.8526,2.85486,-0.43814
358,30.9099,2.86448,-0.43903
358.6,30.9682,2.86858,-0.43975
359.2,31.0256,2.87,-0.4394
359.8,31.0842,2.87632,-0.441953
360.4,31.1421,2.88748,-0.443563
361,31.2003,2.9006,-0.443529
361.6,31.2588,2.90903,-0.444851
362.2,31.3154,2.9256,-0.446687
362.8,31.3711,2.92918,-0.448872
363.4,31.4322,2.935,-0.448881
364,31.4907,2.94599,-0.450758
364.6,31.5481,2.96448,-0.453513
365.2,31.6065,2.97299,-0.455493
365.8,31.6626,2.98761,-0.456747
366.4,31.7218,2.99974,-0.458362
367,31.7794,3.01781,-0.458597
367.6,31.839,3.02806,-0.461543
368.2,31.896,3.04596,-0.464346
368.8,31.9536,3.0562,-0.467482
369.4,32.0121,3.06872,-0.469886
370,32.0701,3.09277,-0.469947
370.6,32.129,3.09881,-0.472787
371.2,32.1879,3.12832,-0.475482
371.8,32.2449,3.14434,-0.47845
372.4,32.3041,3.17129,-0.480542
373,32.3606,3.18294,-0.482611
373.6,32.4197,3.20221,-0.484251
374.2,32.4782,3.21488,-0.485945
374.8,32.5361,3.23237,-0.489058
375.4,32.5948,3.24912,-0.491968
376,32.6528,3.27324,-0.496287
376.6,32.7108,3.29681,-0.500917
377.2,32.769,3.32808,-0.503002
377.8,32.8277,3.35122,-0.506076
378.4,32.8844,3.3818,-0.50977
379,32.944,3.41312,-0.512371
379.6,33.0007,3.43079,-0.516347
380.2,33.0608,3.45611,-0.521094
380.8,33.1205,3.48356,-0.524305
381.4,33.1786,3.51393,-0.527587
382,33.237,3.54518,-0.532319
382.6,33.2951,3.58888,-0.537116
383.2,33.354,3.61948,-0.543523
383.8,33.4129,3.65275,-0.54675
384.4,33.4687,3.69011,-0.55282
385,33.5291,3.71644,-0.55882
385.6,33.5884,3.73941,-0.563551
386.2,33.6469,3.78177,-0.569344
386.8,33.7053,3.83205,-0.574808
387.4,33.7626,3.8685,-0.579206
388,33.8224,3.90935,-0.58723
388.6,33.8815,3.95927,-0.591819
389.2,33.94,3.99821,-0.598663
389.8,33.9998,4.04731,-0.607151
390.4,34.057,4.09532,-0.61339
391,34.1165,4.14599,-0.621105
391.6,34.1752,4.19237,-0.629172
392.2,34.234,4.24168,-0.634621
392.8,34.2923,4.29308,-0.643052
393.4,34.3507,4.31756,-0.652498
394,34.4098,4.36951,-0.659855
394.6,34.4685,4.42635,-0.669739
395.2,34.5272,4.48328,-0.678452
395.8,34.5865,4.52893,-0.69235
396.4,34.6454,4.5973,-0.698645
397,34.7042,4.65651,-0.708137
397.6,34.7632,4.70326,-0.719704
398.2,34.822,4.75596,-0.729882
398.8,34.8808,4.81003,-0.741753
399.4,34.9404,4.86803,-0.75389
400,34.9991,4.91923,-0.76507
400.6,35.0591,4.97119,-0.778182
401.2,35.118,5.04039,-0.791451
401.8,35.1772,5.08174,-0.804919
402.4,35.2345,5.13648,-0.818367
403,35.2944,5.19387,-0.831375
403.6,35.3532,5.24586,-0.846794
404.2,35.4124,5.31211,-0.860881
404.8,35.4712,5.35802,-0.877425
405.4,35.531,5.42446,-0.893891
406,35.5904,5.48205,-0.910346
406.6,35.6489,5.51403,-0.926165
407.2,35.7073,5.57831,-0.942352
407.8,35.767,5.64975,-0.959572
408.4,35.8263,5.71195,-0.977448
409,35.8849,5.76872,-0.995926
409.6,35.9433,5.82024,-1.01348
410.2,36.0027,5.86059,-1.03379
410.8,36.0619,5.92404,-1.05242
411.4,36.121,5.96812,-1.07514
412,36.1807,6.03376,-1.09487
412.6,36.2396,6.08025,-1.1172
413.2,36.2986,6.1322,-1.13868
413.8,36.358,6.18531,-1.16019
414.4,36.4174,6.23996,-1.18323
415,36.4767,6.30144,-1.20713
415.6,36.5362,6.36834,-1.23068
416.2,36.595,6.43392,-1.25775
416.8,36.6546,6.50387,-1.28296
417.4,36.7134,6.56168,-1.30848
418,36.7721,6.61601,-1.3338
418.6,36.8306,6.65573,-1.35962
419.2,36.8902,6.68887,-1.38638
419.8,36.9482,6.70211,-1.41324
420.4,37.0075,6.70111,-1.44022
421,37.0656,6.71008,-1.46738
421.6,37.1249,6.70053,-1.49783
422.2,37.1826,6.69352,-1.52482
422.8,37.2414,6.69253,-1.55532
423.4,37.2983,6.68068,-1.58389
424,37.3582,6.68569,-1.61576
424.6,37.4165,6.68708,-1.64254
425.2,37.4752,6.6854,-1.67545
425.8,37.5345,6.67823,-1.70392
426.4,37.593,6.68847,-1.73542
427,37.6514,6.68222,-1.76541
427.6,37.7089,6.68066,-1.799
428.2,37.7681,6.67771,-1.82968
428.8,37.8267,6.67041,-1.86249
429.4,37.8856,6.65855,-1.89494
430,37.9446,6.64585,-1.92809
430.6,38.0015,6.63652,-1.96226
431.2,38.0596,6.62716,-1.99308
431.8,38.1182,6.60624,-2.02871
432.4,38.1771,6.58868,-2.06001
433,38.2352,6.55903,-2.09618
433.6,38.2943,6.53558,-2.13046
434.2,38.3529,6.51543,-2.16453
434.8,38.4104,6.48351,-2.19833
435.4,38.4691,6.44717,-2.23544
436,38.527,6.41553,-2.27082
436.6,38.5851,6.37637,-2.30621
437.2,38.6424,6.3424,-2.34185
437.8,38.7008,6.28332,-2.37639
438.4,38.7599,6.23365,-2.4121
439,38.8186,6.1821,-2.44624
439.6,38.8764,6.12749,-2.48331
440.2,38.9339,6.06424,-2.51532
440.8,38.9912,5.99172,-2.54955
441.4,39.0495,5.9201,-2.5831
442,39.1078,5.84217,-2.61686
442.6,39.1643,5.75878,-2.65027
443.2,39.2225,5.67572,-2.68367
443.8,39.28,5.58673,-2.71824
444.4,39.3382,5.48925,-2.74914
445,39.3965,5.38816,-2.78436
445.6,39.4523,5.29625,-2.81542
446.2,39.511,5.17911,-2.84928
446.8,39.569,5.07392,-2.88039
447.4,39.6237,4.96901,-2.9082
448,39.6823,4.84765,-2.94061
448.6,39.7399,4.72315,-2.96791
449.2,39.7972,4.61084,-2.99894
449.8,39.855,4.47914,-3.02676
450.4,39.9118,4.36595,-3.05663
451,39.9704,4.24226,-3.08367
451.6,40.0266,4.12389,-3.11005
452.2,40.0834,4.00139,-3.13613
452.8,40.1416,3.88465,-3.15926
453.4,40.1993,3.76211,-3.18557
454,40.2558,3.65564,-3.20782
454.6,40.3138,3.54851,-3.23077
455.2,40.3703,3.4326,-3.25296
455.8,40.4286,3.33035,-3.27631
456.4,40.4866,3.22739,-3.29803
457,40.5437,3.13022,-3.31818
457.6,40.6013,3.03471,-3.33841
458.2,40.6588,2.94022,-3.35779
458.8,40.717,2.85959,-3.37665
459.4,40.7747,2.78687,-3.39489
460,40.8321,2.69853,-3.41511
460.6,40.8899,2.62841,-3.43145
461.2,40.9485,2.55835,-3.45054
461.8,41.0063,2.50431,-3.46597
462.4,41.0653,2.43955,-3.48159
463,41.1228,2.38452,-3.49758
463.6,41.1814,2.32149,-3.51163
464.2,41.2392,2.26411,-3.52654
464.8,41.2981,2.22498,-3.54316
465.4,41.3559,2.15889,-3.55784
466,41.4136,2.1063,-3.57166
466.6,41.4717,2.04807,-3.58603
467.2,41.5301,2.01014,-3.59893
467.8,41.5884,1.95688,-3.61259
468.4,41.6471,1.90598,-3.62456
469,41.7056,1.85853,-3.63721
469.6,41.7634,1.81059,-3.64952
470.2,41.8224,1.7612,-3.66036
470.8,41.8806,1.71873,-3.67003
471.4,41.9393,1.68226,-3.67899
472,41.9967,1.63277,-3.68835
472.6,42.0551,1.5861,-3.69642
473.2,42.1149,1.52778,-3.70542
473.8,42.1731,1.48984,-3.71239
474.4,42.2313,1.45312,-3.72113
475,42.2909,1.40844,-3.72762
475.6,42.3491,1.36705,-3.73489
476.2,42.4077,1.3404,-3.74141
476.8,42.4672,1.30582,-3.74822
477.4,42.5248,1.27508,-3.75138
478,42.5844,1.23888,-3.75655
478.6,42.6426,1.21109,-3.75975
479.2,42.7011,1.1888,-3.76454
479.8,42.7592,1.15935,-3.76823
480.4,42.8188,1.13264,-3.77304
481,42.8779,1.1123,-3.77619
481.6,42.9364,1.0934,-3.77814
482.2,42.9951,1.0759,-3.78031
482.8,43.0548,1.05761,-3.78325
483.4,43.1119,1.04115,-3.78472
484,43.1724,1.01835,-3.78683
484.6,43.2291,1.01104,-3.78853
485.2,43.2897,1.00179,-3.79114
485.8,43.3491,0.98102,-3.79375
486.4,43.4085,0.973533,-3.79251
487,43.4677,0.96926,-3.79579
487.6,43.5269,0.961948,-3.79639
488.2,43.5866,0.952262,-3.79793
488.8,43.645,0.942512,-3.79965
489.4,43.7017,0.938538,-3.80215
490,43.7631,0.929936,-3.80368
490.6,43.8221,0.928396,-3.80506
491.2,43.8825,0.925298,-3.8041
491.8,43.9411,0.922236,-3.80541
492.4,43.9996,0.91979,-3.8054
493,44.0592,0.914511,-3.80638
493.6,44.118,0.90648,-3.80639
494.2,44.1767,0.904066,-3.80639
494.8,44.2368,0.904735,-3.80672
495.4,44.2957,0.908346,-3.80802
496,44.3553,0.906723,-3.8077
496.6,44.4151,0.895748,-3.8077
497.2,44.4736,0.902949,-3.809
497.8,44.5331,0.897048,-3.80836
498.4,44.5918,0.901698,-3.80836
499,44.6517,0.890177,-3.8077
499.6,44.7104,0.887337,-3.80758
500.2,44.7702,0.88963,-3.80801
500.8,44.8297,0.881895,-3.80803
501.4,44.8866,0.881258,-3.80902
502,44.9474,0.882608,-3.80967
502.6,45.0065,0.874009,-3.81034
503.2,45.066,0.875182,-3.81067
503.8,45.1249,0.876905,-3.81067
504.4,45.1834,0.871457,-3.81082
505,45.2436,0.870874,-3.81185
505.6,45.3029,0.870613,-3.81065
506.2,45.3616,0.869078,-3.81198
506.8,45.4225,0.866331,-3.81198
507.4,45.4801,0.869485,-3.81329
508,45.5396,0.863298,-3.8133
508.6,45.5993,0.865127,-3.81467
509.2,45.6588,0.867657,-3.8146
509.8,45.7183,0.861966,-3.81462
510.4,45.7772,0.86598,-3.81462
511,45.8366,0.865206,-3.81392
511.6,45.8969,0.857706,-3.81288
512.2,45.9551,0.865323,-3.81198
512.8,46.0153,0.859107,-3.81329
513.4,46.0746,0.859258,-3.8133
514,46.1339,0.846128,-3.81462
514.6,46.1938,0.852842,-3.81585
515.2,46.2529,0.845928,-3.81594
515.8,46.3103,0.844141,-3.81594
516.4,46.3718,0.851403,-3.81599
517,46.4311,0.857279,-3.81462
517.6,46.4904,0.844439,-3.81566
518.2,46.5508,0.849796,-3.8156
518.8,46.6104,0.847636,-3.81456
519.4,46.6695,0.849446,-3.81461
520,46.7297,0.845067,-3.81461
520.6,46.7887,0.847791,-3.81461
521.2,46.848,0.842972,-3.81461
521.8,46.9076,0.845166,-3.81682
522.4,46.965,0.846493,-3.81725
523,47.028,0.849023,-3.81725
523.6,47.0847,0.844386,-3.81724
524.2,47.1462,0.843861,-3.81824
524.8,47.2059,0.840682,-3.81857
525.4,47.2663,0.836011,-3.81725
526,47.3244,0.839606,-3.81725
526.6,47.3852,0.836978,-3.81591
527.2,47.4424,0.834979,-3.81594
527.8,47.5042,0.837156,-3.81524
528.4,47.5648,0.84592,-3.81665
529,47.6235,0.835651,-3.81462
529.6,47.6837,0.836841,-3.81462
530.2,47.7421,0.83517,-3.81464
530.8,47.8015,0.828675,-3.81596
531.4,47.8621,0.829983,-3.81659
532,47.9209,0.836518,-3.81726
532.6,47.9809,0.83565,-3.81726
533.2,48.0397,0.827896,-3.81726
533.8,48.1,0.824703,-3.81726
534.4,48.1594,0.822846,-3.81726
535,48.2193,0.824546,-3.81726
535.6,48.278,0.825834,-3.81857
536.2,48.3372,0.816875,-3.81857
536.8,48.397,0.823332,-3.81858
537.4,48.4572,0.817831,-3.81857
538,48.5169,0.81562,-3.81857
538.6,48.5758,0.8078,-3.81917
539.2,48.6352,0.802869,-3.81956
539.8,48.6945,0.804129,-3.81824
540.4,48.7549,0.810943,-3.81824
541,48.815,0.80964,-3.81692
541.6,48.8738,0.800453,-3.81724
542.2,48.9335,0.80532,-3.81725
542.8,48.993,0.797829,-3.81725
543.4,49.0533,0.800929,-3.81592
544,49.1128,0.79401,-3.81593
544.6,49.1722,0.799385,-3.81735
545.2,49.2318,0.794824,-3.81986
545.8,49.2921,0.785615,-3.82098
546.4,49.3518,0.780936,-3.82089
547,49.4111,0.783912,-3.81956
547.6,49.4705,0.780843,-3.81957
548.2,49.531,0.777059,-3.81856
548.8,49.5898,0.779844,-3.81825
549.4,49.6498,0.782684,-3.81823
550,49.7094,0.772532,-3.81693
550.6,49.7689,0.779316,-3.81725
551.2,49.8291,0.769717,-3.81726
551.8,49.8882,0.766221,-3.81726
552.4,49.9485,0.765814,-3.81726
553,50.0083,0.754294,-3.81862
553.6,50.0675,0.754348,-3.81988
554.2,50.1281,0.76086,-3.82127
554.8,50.1877,0.764324,-3.8212
555.4,50.248,0.761027,-3.8212
556,50.308,0.760278,-3.81991
556.6,50.3669,0.750053,-3.81958
557.2,50.4251,0.75734,-3.81955
557.8,50.4868,0.749936,-3.81824
558.4,50.5465,0.748435,-3.81956
559,50.6058,0.74128,-3.81956
559.6,50.6652,0.739509,-3.8187
560.2,50.7268,0.735417,-3.81824
560.8,50.7861,0.732674,-3.81824
561.4,50.8445,0.732608,-3.81955
562,50.9057,0.732669,-3.81822
562.6,50.9646,0.727866,-3.81746
563.2,51.0243,0.724252,-3.81823
563.8,51.0851,0.722538,-3.82044
564.4,51.1443,0.719527,-3.82088
565,51.204,0.717443,-3.8207
565.6,51.2645,0.71006,-3.81956
566.2,51.3224,0.704415,-3.81715
566.8,51.3835,0.706353,-3.81696
567.4,51.4429,0.704503,-3.81556
568,51.503,0.700787,-3.81692
568.6,51.5628,0.700153,-3.81692
569.2,51.6221,0.696514,-3.81792
569.8,51.6834,0.696717,-3.81856
570.4,51.7432,0.685484,-3.81999
571,51.8021,0.686635,-3.82023
571.6,51.8623,0.690249,-3.8189
572.2,51.9218,0.683159,-3.81955
572.8,51.9826,0.687034,-3.81956
573.4,52.0418,0.674831,-3.81831
574,52.1018,0.684443,-3.81776
574.6,52.1622,0.67237,-3.81854
575.2,52.2219,0.671833,-3.81956
575.8,52.2821,0.673576,-3.82096
576.4,52.3408,0.667268,-3.82087
577,52.4008,0.677324,-3.82087
577.6,52.4623,0.662439,-3.81991
578.2,52.5218,0.666443,-3.82086
578.8,52.5818,0.66222,-3.81957
579.4,52.6416,0.661214,-3.819
580,52.7022,0.659186,-3.81825
580.6,52.7617,0.657839,-3.81963
581.2,52.8216,0.66069,-3.8189
581.8,52.8824,0.654809,-3.81925
582.4,52.9415,0.65024,-3.81968
583,53.001,0.651202,-3.82021
583.6,53.061,0.642852,-3.82141
584.2,53.1219,0.649248,-3.8202
584.8,53.1814,0.644349,-3.81889
585.4,53.2413,0.645951,-3.81892
586,53.301,0.642757,-3.8175
586.6,53.361,0.647957,-3.8166
587.2,53.4207,0.649692,-3.81651
587.8,53.4811,0.639356,-3.81825
588.4,53.541,0.640491,-3.81934
589,53.6018,0.642302,-3.81849
589.6,53.6613,0.642901,-3.81802
590.2,53.7208,0.643421,-3.81802
590.8,53.7809,0.633561,-3.81802
591.4,53.8409,0.636334,-3.81802
592,53.9011,0.631396,-3.81991
592.6,53.9617,0.632728,-3.82127
593.2,54.0214,0.62549,-3.82132
593.8,54.0816,0.634418,-3.82
594.4,54.1413,0.63244,-3.82
595,54.2017,0.626402,-3.82
595.6,54.2611,0.634631,-3.82233
596.2,54.3206,0.629076,-3.82128
596.8,54.3813,0.626817,-3.81705
597.4,54.4418,0.633518,-3.81714
598,54.5016,0.627376,-3.81714
598.6,54.5614,0.626491,-3.81714
599.2,54.6212,0.62205,-3.81736
599.8,54.6808,0.622093,-3.81983
600.4,54.7409,0.618555,-3.81978
601,54.8012,0.62093,-3.81978
601.6,54.8616,0.610251,-3.81978
602.2,54.9216,0.614146,-3.8198
602.8,54.9823,0.610858,-3.81846
603.4,55.0425,0.60582,-3.81713
604,55.1023,0.60626,-3.81713
604.6,55.1627,0.604817,-3.81837
605.2,55.2224,0.60161,-3.81714
605.8,55.2826,0.598666,-3.81714
606.4,55.3422,0.601654,-3.81722
607,55.403,0.598878,-3.81837
607.6,55.4629,0.595598,-3.81977
608.2,55.5234,0.596218,-3.81977
608.8,55.5836,0.58317,-3.81977
609.4,55.6439,0.588976,-3.81977
610,55.704,0.587756,-3.81977
610.6,55.7637,0.587894,-3.81978
611.2,55.8239,0.585244,-3.81978
611.8,55.8833,0.586984,-3.81978
612.4,55.9443,0.584354,-3.81977
613,56.004,0.575685,-3.81836
613.6,56.0642,0.580274,-3.81977
614.2,56.1242,0.581927,-3.82155
614.8,56.1846,0.584721,-3.82305
615.4,56.2448,0.585493,-3.81867
616,56.3048,0.575509,-3.81772
616.6,56.3649,0.579132,-3.81769
617.2,56.4254,0.581065,-3.81769
617.8,56.4855,0.579234,-3.81769
618.4,56.5455,0.583639,-3.81763
619,56.6049,0.572591,-3.82015
619.6,56.666,0.572263,-3.81935
620.2,56.7265,0.578212,-3.81934
620.8,56.787,0.574575,-3.81935
621.4,56.8474,0.570673,-3.81769
622,56.9072,0.569364,-3.81812
622.6,56.9681,0.562975,-3.81802
623.2,57.0279,0.558874,-3.81771
623.8,57.0873,0.561632,-3.81901
624.4,57.1474,0.557052,-3.82033
625,57.2083,0.561542,-3.82033
625.6,57.2684,0.561638,-3.82033
626.2,57.328,0.556815,-3.82033
626.8,57.3886,0.564703,-3.81926
627.4,57.4492,0.551217,-3.8193
628,57.51,0.559843,-3.82066
628.6,57.569,0.552431,-3.82047
629.2,57.6303,0.552292,-3.81899
629.8,57.6895,0.554483,-3.81967
630.4,57.7486,0.550708,-3.81931
631,57.8118,0.545067,-3.82065
631.6,57.8709,0.548717,-3.819
632.2,57.932,0.545238,-3.81901
632.8,57.9924,0.550359,-3.81999
633.4,58.0516,0.551952,-3.82002
634,58.1127,0.551004,-3.82131
634.6,58.1741,0.548486,-3.82131
635.2,58.234,0.544121,-3.82139
635.8,58.2918,0.550337,-3.82131
636.4,58.3538,0.539172,-3.82131
637,58.415,0.544179,-3.82131
637.6,58.4742,0.538946,-3.81996
638.2,58.535,0.542979,-3.82
638.8,58.5925,0.543881,-3.82
639.4,58.6561,0.542924,-3.82
640,58.716,0.539666,-3.82129
640.6,58.7767,0.544522,-3.82263
641.2,58.8363,0.546386,-3.82263
641.8,58.8971,0.531593,-3.82263
642.4,58.9569,0.544267,-3.82263
643,59.018,0.537236,-3.82132
643.6,59.0781,0.538533,-3.82241
644.2,59.1379,0.543008,-3.82169
644.8,59.1987,0.533194,-3.82132
645.4,59.2589,0.531594,-3.82264
646,59.3198,0.540011,-3.82264
646.6,59.3797,0.536702,-3.82264
647.2,59.44,0.529221,-3.82264
647.8,59.5009,0.524067,-3.82264
648.4,59.5605,0.52812,-3.82229
649,59.6204,0.528313,-3.82132
649.6,59.6807,0.525148,-3.821
650.2,59.7423,0.523963,-3.82132
650.8,59.7992,0.525596,-3.82132
651.4,59.8622,0.525486,-3.82164
652,59.9226,0.524436,-3.82197
652.6,59.9825,0.514902,-3.82264
653.2,60.0433,0.511919,-3.82225
653.8,60.1028,0.513314,-3.82126
654.4,60.1639,0.50802,-3.8213
655,60.2242,0.506489,-3.82131
655.6,60.2845,0.50132,-3.82398
656.2,60.3447,0.499255,-3.82277
656.8,60.4043,0.491858,-3.82395
657.4,60.4647,0.493758,-3.8235
658,60.5241,0.495528,-3.8223
658.6,60.5853,0.493453,-3.82234
659.2,60.6461,0.487484,-3.82098
659.8,60.7063,0.485851,-3.82098
660.4,60.7661,0.485287,-3.82095
661,60.8254,0.480236,-3.82229
661.6,60.8877,0.481346,-3.82264
662.2,60.9474,0.476202,-3.82364
662.8,61.0078,0.480361,-3.8223
663.4,61.0683,0.479283,-3.8223
664,61.129,0.479106,-3.82284
664.6,61.1888,0.476052,-3.82362
665.2,61.249,0.471961,-3.8223
665.8,61.3093,0.471726,-3.8223
666.4,61.37,0.471505,-3.821
667,61.4298,0.468778,-3.82227
667.6,61.4902,0.468453,-3.82362
668.2,61.5521,0.466943,-3.82362
668.8,61.612,0.46638,-3.82362
669.4,61.6725,0.457469,-3.82327
670,61.732,0.457854,-3.82231
670.6,61.7927,0.458445,-3.82081
671.2,61.8525,0.452312,-3.81961
671.8,61.9131,0.447929,-3.82098
672.4,61.9736,0.44522,-3.82231
673,62.0332,0.449032,-3.82231
673.6,62.0938,0.435167,-3.8223
674.2,62.1548,0.439632,-3.82362
674.8,62.2154,0.447129,-3.82361
675.4,62.2761,0.440899,-3.82231
676,62.3359,0.430294,-3.82289
676.6,62.397,0.427272,-3.82362
677.2,62.4564,0.434806,-3.82362
677.8,62.5177,0.42475,-3.8232
678.4,62.5774,0.417268,-3.82228
679,62.6386,0.41761,-3.82096
679.6,62.6986,0.418157,-3.8223
680.2,62.759,0.420575,-3.8223
680.8,62.8192,0.416642,-3.82098
681.4,62.8794,0.415374,-3.821
682,62.9403,0.416392,-3.82235
682.6,63.0008,0.419145,-3.82099
683.2,63.0617,0.414512,-3.8223
683.8,63.1222,0.410158,-3.82318
684.4,63.1817,0.410046,-3.82355
685,63.2417,0.404758,-3.82329
685.6,63.3025,0.400659,-3.82329
686.2,63.3639,0.404063,-3.82329
686.8,63.4238,0.399292,-3.82063
687.4,63.4853,0.398131,-3.82065
688,63.5453,0.388939,-3.82065
688.6,63.6045,0.393364,-3.82065
689.2,63.6659,0.399653,-3.82065
689.8,63.7263,0.392894,-3.82197
690.4,63.7843,0.374697,-3.82197
691,63.8467,0.38238,-3.82199
691.6,63.9073,0.373817,-3.82264
692.2,63.9675,0.373146,-3.82198
692.8,64.0284,0.374334,-3.82066
693.4,64.0887,0.379424,-3.82196
694,64.1495,0.366666,-3.8222
694.6,64.2093,0.360568,-3.82426
695.2,64.2708,0.364458,-3.82427
695.8,64.3314,0.359464,-3.82368
696.4,64.3913,0.362453,-3.82295
697,64.4518,0.365889,-3.82034
697.6,64.5132,0.360371,-3.82031
698.2,64.573,0.362774,-3.819
698.8,64.6332,0.353434,-3.82032
699.4,64.6931,0.346981,-3.82032
700,64.754,0.354125,-3.82032
700.6,64.815,0.353229,-3.82058
701.2,64.8749,0.353525,-3.82164
701.8,64.9355,0.353126,-3.82263
702.4,64.9964,0.346197,-3.82263
703,65.0551,0.346228,-3.82134
703.6,65.1171,0.354224,-3.81999
704.2,65.1772,0.347266,-3.82262
704.8,65.2382,0.34235,-3.82263
705.4,65.2993,0.339295,-3.82393
706,65.3598,0.342033,-3.82394
706.6,65.4207,0.331878,-3.82264
707.2,65.4789,0.336904,-3.82294
707.8,65.542,0.325719,-3.82263
708.4,65.6021,0.327065,-3.82263
709,65.6637,0.330369,-3.82263
709.6,65.7243,0.333256,-3.82263
710.2,65.7846,0.324293,-3.82132
710.8,65.8465,0.323512,-3.82132
711.4,65.9069,0.318881,-3.82264
712,65.9674,0.313092,-3.82132
712.6,66.0286,0.317462,-3.82132
713.2,66.0892,0.308172,-3.82132
713.8,66.1493,0.307482,-3.82132
714.4,66.2105,0.302288,-3.82132
715,66.2712,0.297644,-3.82264
715.6,66.3322,0.309073,-3.82269
716.2,66.3924,0.297049,-3.82197
716.8,66.4538,0.290305,-3.82344
717.4,66.515,0.292515,-3.82604
718,66.5753,0.288507,-3.82604
718.6,66.6358,0.2821,-3.82604
719.2,66.6973,0.279457,-3.82604
719.8,66.7559,0.284768,-3.82472
720.4,66.8179,0.289124,-3.82472
721,66.8787,0.285855,-3.82339
721.6,66.9394,0.273042,-3.82208
722.2,67.0006,0.274646,-3.82208
722.8,67.0614,0.269702,-3.82286
723.4,67.1222,0.263959,-3.82661
724,67.1829,0.262256,-3.81906
724.6,67.244,0.267538,-3.81964
725.2,67.3035,0.268468,-3.82045
725.8,67.3655,0.260877,-3.82175
726.4,67.4258,0.25326,-3.82067
727,67.4872,0.254,-3.82176
727.6,67.5477,0.251734,-3.82176
728.2,67.6081,0.245487,-3.82174
728.8,67.6691,0.252058,-3.82564
729.4,67.7301,0.254751,-3.83083
730,67.7903,0.251317,-3.82374
730.6,67.8507,0.244668,-3.82505
731.2,67.9117,0.240447,-3.82404
731.8,67.9722,0.237935,-3.82406
732.4,68.0329,0.236427,-3.82557
733,68.0944,0.239489,-3.82417
733.6,68.1543,0.238027,-3.82296
734.2,68.2142,0.237278,-3.82286
734.8,68.2764,0.228017,-3.82285
735.4,68.3362,0.230959,-3.82285
736,68.3967,0.227924,-3.82868
736.6,68.4578,0.220987,-3.82919
737.2,68.5181,0.222396,-3.82397
737.8,68.5793,0.217911,-3.82528
738.4,68.6392,0.212381,-3.82396
739,68.7004,0.215131,-3.82395
739.6,68.7599,0.216383,-3.82395
740.2,68.822,0.217383,-3.82269
740.8,68.8824,0.206027,-3.8223
741.4,68.9418,0.211437,-3.8227
742,69.0038,0.210375,-3.82362
742.6,69.0637,0.210107,-3.82362
743.2,69.1246,0.201964,-3.82362
743.8,69.1863,0.196008,-3.82362
744.4,69.2468,0.206775,-3.82494
745,69.3076,0.192104,-3.82625
745.6,69.3686,0.199346,-3.82624
746.2,69.4302,0.19734,-3.82493
746.8,69.4908,0.188309,-3.82499
747.4,69.551,0.19524,-3.82498
748,69.6121,0.18817,-3.82494
748.6,69.6731,0.188981,-3.82494
749.2,69.7344,0.189349,-3.82626
749.8,69.7939,0.190315,-3.82626
750.4,69.8533,0.185826,-3.82626
751,69.917,0.186933,-3.82591
751.6,69.9776,0.186195,-3.82495
752.2,70.0375,0.186842,-3.82362
752.8,70.0987,0.181832,-3.8236
753.4,70.1593,0.179131,-3.82494
754,70.2211,0.178642,-3.82571
754.6,70.2818,0.169984,-3.82626
755.2,70.3417,0.180906,-3.82528
755.8,70.4037,0.176219,-3.82527
756.4,70.4646,0.177366,-3.82527
757,70.5257,0.174798,-3.82668
757.6,70.5867,0.173349,-3.82791
758.2,70.6473,0.168981,-3.82791
758.8,70.7086,0.169916,-3.82761
759.4,70.77,0.159484,-3.82532
760,70.8304,0.151141,-3.82346
760.6,70.89,0.14207,-3.8224
761.2,70.9524,0.137345,-3.82377
761.8,71.0134,0.129468,-3.82569
762.4,71.074,0.121305,-3.8257
763,71.1355,0.117332,-3.82426
763.6,71.1959,0.107496,-3.82428
764.2,71.257,0.0944869,-3.82559
764.8,71.3185,0.095469,-3.8269
765.4,71.3787,0.080106,-3.82559
766,71.4406,0.0702024,-3.82563
766.6,71.5008,0.0636581,-3.82429
767.2,71.5619,0.0549545,-3.82296
767.8,71.6229,0.0418767,-3.823
768.4,71.684,0.0400761,-3.82297
769,71.7453,0.0387771,-3.82394
769.6,71.8064,0.0418463,-3.82426
770.2,71.867,0.0287355,-3.8256
770.8,71.9277,0.026791,-3.82415
771.4,71.9891,0.0272872,-3.82435
772,72.0502,0.0212788,-3.82461
772.6,72.1113,0.0171546,-3.82461
773.2,72.1715,0.00963833,-3.82418
773.8,72.2339,0.000502401,-3.82329
774.4,72.2945,0.00279643,-3.8233
775,72.3551,0.00309666,-3.82328
775.6,72.4169,0.000796477,-3.82329
776.2,72.4776,0.000251249,-3.82461
776.8,72.5381,0.00215844,-3.82594
777.4,72.5987,-0.00164625,-3.82527
778,72.6598,-0.00216779,-3.82527
778.6,72.721,-0.00438479,-3.82527
779.2,72.7815,0.00354599,-3.82527
779.8,72.8432,0.00224063,-3.82628
780.4,72.9045,-0.000371106,-3.82464
781,72.9631,0.00613144,-3.82323
781.6,73.0266,0.0123208,-3.82329
782.2,73.0876,0.0134572,-3.82461
782.8,73.1485,0.0111424,-3.82453
783.4,73.2086,0.017475,-3.8256
784,73.2698,0.0130994,-3.8256
784.6,73.3312,0.00892903,-3.82428
785.2,73.3924,0.0165513,-3.82428
785.8,73.4529,0.00966393,-3.82428
786.4,73.5146,0.00669554,-3.82429
787,73.5753,0.019761,-3.82296
787.6,73.6362,0.0136138,-3.82297
788.2,73.6983,0.0119541,-3.82542
788.8,73.7584,0.0151482,-3.82558
789.4,73.8204,0.0248138,-3.82428
790,73.8814,0.0154614,-3.82423