File: 01_Data/SCBA_Bracket/STA/N2/30K_min/SCBA_Bracket_STA_N2_30KData_240730_R3.csv
Temp./C,Time/min,DSC/(mW/mg),Mass loss/mg
60,0,2.32261,-0.0117174
60.4,0.0203094,2.39512,-0.0118854
60.8,0.039874,2.45728,-0.0117309
61.2,0.0603783,2.5174,-0.0116218
61.6,0.0799728,2.57473,-0.0115499
62,0.0985162,2.63299,-0.0122293
62.4,0.11626,2.69036,-0.01315466
62.8,0.135096,2.75304,-0.013322
63.2,0.153568,2.80833,-0.0130702
63.6,0.171825,2.86341,-0.012851
64,0.190572,2.91301,-0.0126908
64.4,0.208839,2.95229,-0.0132353
64.8,0.22658,3.01739,-0.0137438
65.2,0.24402,3.07012,-0.0133287
65.6,0.261311,3.11731,-0.0130617
66,0.278098,3.15991,-0.0127825
66.4,0.294959,3.20813,-0.0118567
66.8,0.311672,3.25519,-0.0121566
67.2,0.328696,3.30081,-0.0119509
67.6,0.344796,3.34284,-0.0119097
68,0.361517,3.38151,-0.0124691
68.4,0.377288,3.42336,-0.0128709
68.8,0.393942,3.45876,-0.0135807
69.2,0.409847,3.50325,-0.0137015
69.6,0.426324,3.53707,-0.0142507
70,0.441649,3.57147,-0.0148376
70.4,0.457584,3.60146,-0.0144887
70.8,0.472898,3.6488,-0.0143857
71.2,0.488891,3.67554,-0.0147712
71.6,0.504485,3.71534,-0.0132106
72,0.520099,3.74309,-0.0147186
72.4,0.535036,3.7679,-0.0137846
72.8,0.550236,3.80797,-0.0150531
73.2,0.565623,3.83346,-0.0146978
73.6,0.580784,3.86696,-0.0153832
74,0.595995,3.88468,-0.0157543
74.4,0.61114,3.91937,-0.0165522
74.8,0.626012,3.94079,-0.0159774
75.2,0.640877,3.98049,-0.016422
75.6,0.655534,4.00143,-0.0161299
76,0.670295,4.0277,-0.0162709
76.4,0.685107,4.05826,-0.0158056
76.8,0.698993,4.07474,-0.0147782
77.2,0.714391,4.10067,-0.0156331
77.6,0.729239,4.12678,-0.0142025
78,0.743891,4.14172,-0.01554177
78.4,0.758147,4.16915,-0.01593398
78.8,0.772635,4.191,-0.0166547
79.2,0.786938,4.21691,-0.0161367
79.6,0.801287,4.23519,-0.0165642
80,0.8147,4.25585,-0.0156578
80.4,0.829335,4.2814,-0.0169355
80.8,0.844169,4.29442,-0.0164384
81.2,0.857134,4.32391,-0.0162531
81.6,0.873185,4.33343,-0.0171428
82,0.886859,4.35666,-0.0162929
82.4,0.900721,4.37457,-0.0171836
82.8,0.915068,4.3998,-0.0173961
83.2,0.929066,4.40432,-0.0175546
83.6,0.943208,4.42902,-0.0174644
84,0.956878,4.4504,-0.0188779
84.4,0.970595,4.46745,-0.017604
84.8,0.98507,4.4952,-0.01761295
85.2,0.998866,4.50023,-0.0178821
85.6,1.01255,4.51335,-0.0169602
86,1.02656,4.53987,-0.0170833
86.4,1.04031,4.55927,-0.0177519
86.8,1.05419,4.57234,-0.0170295
87.2,1.06794,4.592,-0.0170316
87.6,1.08157,4.61849,-0.0179102
88,1.09509,4.62873,-0.0183563
88.4,1.10847,4.64415,-0.0177638
88.8,1.12255,4.65972,-0.01809702
89.2,1.13632,4.68358,-0.0183254
89.6,1.14965,4.69847,-0.0182811
90,1.16335,4.70825,-0.0187689
90.4,1.17685,4.72249,-0.0182529
90.8,1.19045,4.74428,-0.0183598
91.2,1.20442,4.75604,-0.0183133
91.6,1.21752,4.76737,-0.0185363
92,1.23091,4.785,-0.0182801
92.4,1.24479,4.79721,-0.018091
92.8,1.25771,4.81415,-0.0183608
93.2,1.27151,4.82236,-0.0184145
93.6,1.28496,4.84886,-0.0179892
94,1.29852,4.86959,-0.0192393
94.4,1.3114,4.88043,-0.0197277
94.8,1.32537,4.89347,-0.0189541
95.2,1.33871,4.91545,-0.018279
95.6,1.35199,4.93569,-0.0183397
96,1.36525,4.93383,-0.0183247
96.4,1.37803,4.94789,-0.0187775
96.8,1.3916,4.96845,-0.0196327
97.2,1.40534,4.98114,-0.0182983
97.6,1.4187,4.99221,-0.0183569
98,1.4319,5.00101,-0.018375
98.4,1.44496,5.00975,-0.0194479
98.8,1.45888,5.01933,-0.0194484
99.2,1.47184,5.02731,-0.0184937
99.6,1.48469,5.04221,-0.0182296
100,1.49799,5.04329,-0.0193496
100.4,1.51116,5.05189,-0.0196569
100.8,1.52486,5.06856,-0.0196488
101.2,1.53754,5.07519,-0.01965
101.6,1.55101,5.08709,-0.0196478
102,1.56406,5.09838,-0.0196639
102.4,1.57782,5.10594,-0.0196261
102.8,1.59052,5.11105,-0.0204999
103.2,1.60362,5.10798,-0.0207754
103.6,1.61595,5.10813,-0.0196036
104,1.62896,5.12086,-0.0196699
104.4,1.6432,5.12665,-0.0197091
104.8,1.65635,5.12405,-0.0208501
105.2,1.66898,5.1323,-0.0207635
105.6,1.68151,5.14058,-0.0198271
106,1.6954,5.14183,-0.0196053
106.4,1.70855,5.14552,-0.0203734
106.8,1.72146,5.14741,-0.0210057
107.2,1.73466,5.15307,-0.02097059
107.6,1.74762,5.15204,-0.0200867
108,1.76103,5.15399,-0.0196118
108.4,1.77395,5.15952,-0.0196524
108.8,1.78746,5.16453,-0.0196509
109.2,1.80018,5.16438,-0.0196502
109.6,1.81325,5.17422,-0.0196463
110,1.82659,5.1779,-0.0196607
110.4,1.83955,5.18033,-0.0197
110.8,1.85281,5.17335,-0.0206686
111.2,1.86584,5.18765,-0.0209833
111.6,1.8795,5.19059,-0.0209292
112,1.89203,5.19559,-0.0212024
112.4,1.90457,5.199,-0.0212925
112.8,1.91809,5.19879,-0.0212924
113.2,1.93111,5.19615,-0.0212873
113.6,1.94424,5.20643,-0.0213034
114,1.95743,5.20286,-0.0212681
114.4,1.97034,5.2187,-0.0221374
114.8,1.98365,5.21069,-0.0226555
115.2,1.99652,5.21592,-0.02260276
115.6,2.0101,5.21619,-0.02260891
116,2.02294,5.22688,-0.0226137
116.4,2.03589,5.23858,-0.0226194
116.8,2.04881,5.23138,-0.0224173
117.2,2.06225,5.23879,-0.0214097
117.6,2.07525,5.23807,-0.0212924
118,2.08775,5.24353,-0.02128624
118.4,2.10076,5.24719,-0.0212906
118.8,2.11394,5.25425,-0.0212904
119.2,2.12671,5.25884,-0.0212933
119.6,2.13992,5.26871,-0.0212165
120,2.15299,5.26919,-0.0201352
120.4,2.16589,5.27615,-0.0199567
120.8,2.1794,5.28109,-0.0203121
121.2,2.19177,5.29242,-0.0203018
121.6,2.20486,5.29589,-0.0203119
122,2.21811,5.29707,-0.0203098
122.4,2.23063,5.30482,-0.0203108
122.8,2.2431,5.30495,-0.0203079
123.2,2.25642,5.31109,-0.0202992
123.6,2.27011,5.32067,-0.0194379
124,2.2834,5.32213,-0.01896168
124.4,2.29622,5.33249,-0.0189847
124.8,2.30898,5.32439,-0.0189927
125.2,2.32218,5.34485,-0.0190321
125.6,2.33496,5.34541,-0.0197367
126,2.34804,5.34824,-0.0199973
126.4,2.36071,5.35791,-0.0199833
126.8,2.37365,5.36671,-0.0199788
127.2,2.38702,5.37952,-0.0199801
127.6,2.3999,5.37831,-0.0199799
128,2.41248,5.39076,-0.0199812
128.4,2.42525,5.3961,-0.0199728
128.8,2.43823,5.40009,-0.0199903
129.2,2.45103,5.41421,-0.02013254
129.6,2.46375,5.4159,-0.021237
130,2.47683,5.42219,-0.0213025
130.4,2.48973,5.4354,-0.0213001
130.8,2.50234,5.4467,-0.0212999
131.2,2.51519,5.45607,-0.0213
131.6,2.52847,5.45242,-0.0213
132,2.5414,5.46385,-0.0213
132.4,2.55398,5.47137,-0.0213
132.8,2.56674,5.47685,-0.0213
133.2,2.57966,5.48386,-0.0213
133.6,2.5928,5.48731,-0.0213
134,2.60555,5.49598,-0.0213
134.4,2.61816,5.51743,-0.0213
134.8,2.63044,5.52256,-0.0213
135.2,2.64341,5.52835,-0.0213
135.6,2.65579,5.53347,-0.0213001
136,2.66956,5.54442,-0.0212988
136.4,2.68192,5.55872,-0.021305
136.8,2.69522,5.56869,-0.0213029
137.2,2.70784,5.58513,-0.0211307
137.6,2.72043,5.57205,-0.0205757
138,2.73339,5.58862,-0.0206456
138.4,2.74605,5.60125,-0.0206408
138.8,2.7591,5.60958,-0.0206384
139.2,2.77163,5.61598,-0.0206457
139.6,2.7845,5.61993,-0.0206344
140,2.79669,5.6296,-0.0205428
140.4,2.81018,5.6474,-0.0199087
140.8,2.82249,5.655,-0.0199562
141.2,2.83538,5.66981,-0.0202747
141.6,2.84794,5.6757,-0.0209401
142,2.86042,5.67938,-0.0209694
142.4,2.87321,5.69498,-0.0209709
142.8,2.88581,5.70576,-0.0209698
143.2,2.89854,5.70809,-0.02097
143.6,2.91138,5.71812,-0.02097
144,2.92377,5.72146,-0.02097
144.4,2.93614,5.73557,-0.0209699
144.8,2.94924,5.7435,-0.0209716
145.2,2.96197,5.74917,-0.0209629
145.6,2.97464,5.76247,-0.02097483
146,2.98706,5.76119,-0.021148
146.4,2.99977,5.77356,-0.0220496
146.8,3.01245,5.77961,-0.0219461
147.2,3.02543,5.79377,-0.0219595
147.6,3.03755,5.81063,-0.0219605
148,3.05063,5.80787,-0.0219599
148.4,3.06288,5.82809,-0.02196
148.8,3.07566,5.83847,-0.02196
149.2,3.0885,5.84291,-0.02196
149.6,3.1012,5.86246,-0.02196
150,3.11369,5.86514,-0.02196
150.4,3.12605,5.87575,-0.02196
150.8,3.13845,5.88855,-0.02196
151.2,3.15111,5.89645,-0.0219598
151.6,3.16392,5.90499,-0.0219603
152,3.17621,5.90925,-0.0219623
152.4,3.1886,5.91726,-0.0219335
152.8,3.20137,5.93491,-0.0221784
153.2,3.21392,5.94422,-0.0222968
153.6,3.2266,5.94968,-0.0222919
154,3.23887,5.95573,-0.0222893
154.4,3.25165,5.96706,-0.02229012
154.8,3.26395,5.98023,-0.02229
155.2,3.27672,5.99236,-0.02229
155.6,3.28935,6.00194,-0.02229
156,3.30223,6.01221,-0.02229
156.4,3.31427,6.01518,-0.02229
156.8,3.32695,6.03453,-0.02229
157.2,3.33984,6.03879,-0.02229
157.6,3.35162,6.05257,-0.0222898
158,3.36449,6.05922,-0.0222901
158.4,3.3772,6.06355,-0.0222935
158.8,3.38901,6.07893,-0.0222632
159.2,3.40097,6.0833,-0.0223963
159.6,3.41451,6.09737,-0.0213412
160,3.42649,6.10985,-0.020969
160.4,3.43954,6.12024,-0.02097039
160.8,3.45169,6.11829,-0.0209699
161.2,3.46457,6.13638,-0.02097
161.6,3.47694,6.13834,-0.02097
162,3.4893,6.14675,-0.02097
162.4,3.5019,6.16455,-0.02097
162.8,3.51471,6.17951,-0.02097
163.2,3.5271,6.18279,-0.0209701
163.6,3.53967,6.19662,-0.0209696
164,3.55213,6.19665,-0.02097174
164.4,3.56443,6.20613,-0.0209681
164.8,3.57683,6.22092,-0.0209367
165.2,3.58939,6.23076,-0.0213623
165.6,3.60162,6.23343,-0.0222579
166,3.61403,6.2536,-0.0222724
166.4,3.6265,6.25646,-0.0224522
166.8,3.63885,6.26748,-0.0226279
167.2,3.65121,6.27982,-0.0226093
167.6,3.66371,6.28698,-0.0226104
168,3.67633,6.29411,-0.0226172
168.4,3.68853,6.2974,-0.0233137
168.8,3.70127,6.30341,-0.0239976
169.2,3.71353,6.32441,-0.023923
169.6,3.72618,6.32359,-0.023929
170,3.73882,6.33916,-0.02393049
170.4,3.75119,6.35027,-0.0239299
170.8,3.76317,6.35678,-0.02393
171.2,3.77563,6.36733,-0.02393
171.6,3.78825,6.39072,-0.02392991
172,3.80063,6.38424,-0.0239305
172.4,3.81315,6.39188,-0.0239286
172.8,3.82564,6.40181,-0.0239268
173.2,3.83819,6.41919,-0.0232829
173.6,3.85012,6.42475,-0.022505
174,3.86172,6.43903,-0.0226261
174.4,3.87518,6.45515,-0.0226103
174.8,3.88735,6.45556,-0.0226093
175.2,3.9,6.46284,-0.0226115
175.6,3.91237,6.47735,-0.022606
176,3.9244,6.48731,-0.0228858
176.4,3.93714,6.48887,-0.0241107
176.8,3.94935,6.50557,-0.0247604
177.2,3.96184,6.51283,-0.0249408
177.6,3.97385,6.52148,-0.0249235
178,3.98632,6.53583,-0.0249188
178.4,3.99852,6.55063,-0.0249203
178.8,4.0109,6.55851,-0.02492
179.2,4.02356,6.57061,-0.02492
179.6,4.03558,6.57628,-0.02492
180,4.04826,6.58623,-0.02492
180.4,4.06044,6.59936,-0.02492
180.8,4.0727,6.60774,-0.02492
181.2,4.0849,6.62205,-0.02492
181.6,4.0973,6.62605,-0.02492
182,4.10892,6.63534,-0.02492
182.4,4.12139,6.64001,-0.02492
182.8,4.13416,6.66135,-0.02492
183.2,4.14652,6.6694,-0.02492
183.6,4.15899,6.68312,-0.02492
184,4.17125,6.68812,-0.02492
184.4,4.18324,6.7015,-0.0249198
184.8,4.19545,6.71383,-0.0249217
185.2,4.20789,6.72912,-0.0249106
185.6,4.22015,6.72962,-0.02495019
186,4.23242,6.73973,-0.0245852
186.4,4.24487,6.75918,-0.0245979
186.8,4.257,6.76675,-0.0245954
187.2,4.26912,6.77853,-0.0245317
187.6,4.2815,6.79475,-0.0250405
188,4.29405,6.7983,-0.0252621
188.4,4.30586,6.80876,-0.025252
188.8,4.31842,6.81825,-0.0252496
189.2,4.33048,6.8296,-0.025247
189.6,4.34273,6.84015,-0.0252493
190,4.3549,6.85568,-0.0247774
190.4,4.36697,6.87136,-0.0241951
190.8,4.37929,6.88231,-0.0243861
191.2,4.39156,6.89226,-0.0248402
191.6,4.40381,6.90458,-0.0249251
192,4.41606,6.9098,-0.0249211
192.4,4.42839,6.9207,-0.02491955
192.8,4.44054,6.94091,-0.0249199
193.2,4.4529,6.93904,-0.0249208
193.6,4.46408,6.95119,-0.0249182
194,4.47661,6.96462,-0.0249058
194.4,4.48964,6.98586,-0.0251512
194.8,4.50135,6.98943,-0.0260695
195.2,4.51292,7.01785,-0.02625951
195.6,4.52544,7.02292,-0.0262408
196,4.53801,7.03323,-0.0262391
196.4,4.55021,7.05569,-0.0262402
196.8,4.56227,7.06375,-0.02624
197.2,4.57462,7.08153,-0.02624
197.6,4.58674,7.09683,-0.02624
198,4.599,7.11649,-0.02624
198.4,4.61105,7.12684,-0.02624
198.8,4.62324,7.14962,-0.02624
199.2,4.63566,7.16394,-0.02624
199.6,4.64769,7.18935,-0.02624004
200,4.65974,7.21112,-0.0262398
200.4,4.67222,7.23334,-0.0262405
200.8,4.68412,7.25559,-0.0262408
201.2,4.69645,7.27983,-0.0262196
201.6,4.70869,7.30649,-0.0263834
202,4.72084,7.33617,-0.0264588
202.4,4.73334,7.37083,-0.0262693
202.8,4.7453,7.40238,-0.0262421
203.2,4.75792,7.43229,-0.0262378
203.6,4.76962,7.47473,-0.0262407
204,4.78217,7.51453,-0.0262396
204.4,4.79432,7.54746,-0.0262408
204.8,4.80647,7.59126,-0.026244
205.2,4.81908,7.63163,-0.0261791
205.6,4.83118,7.6746,-0.0267459
206,4.84374,7.71956,-0.0284218
206.4,4.8558,7.77754,-0.0288808
206.8,4.86795,7.83345,-0.0288794
207.2,4.88058,7.89273,-0.0288802
207.6,4.89271,7.95947,-0.02888
208,4.90487,8.02904,-0.02888
208.4,4.91729,8.10671,-0.02888
208.8,4.92953,8.19105,-0.02888
209.2,4.94179,8.29203,-0.02888
209.6,4.9541,8.39188,-0.02888
210,4.96664,8.50829,-0.02888
210.4,4.97983,8.6385,-0.02888
210.8,4.99249,8.77246,-0.0288801
211.2,5.00528,8.91744,-0.0288801
211.6,5.01774,9.06923,-0.0288777
212,5.03057,9.22953,-0.028895
212.4,5.04308,9.40351,-0.0288361
212.8,5.05622,9.58436,-0.0296451
213.2,5.0687,9.78167,-0.030235
213.6,5.08163,9.98402,-0.0301815
214,5.09461,10.191,-0.03019027
214.4,5.10722,10.4122,-0.03019241
214.8,5.12042,10.6406,-0.030171
215.2,5.13361,10.8718,-0.0304441
215.6,5.14617,11.1137,-0.031213
216,5.15947,11.3692,-0.0311655
216.4,5.17257,11.6412,-0.03118196
216.8,5.18574,11.9059,-0.0311801
217.2,5.19898,12.1784,-0.0311799
217.6,5.21205,12.4511,-0.03118
218,5.22528,12.7319,-0.03118
218.4,5.23824,12.9944,-0.03118
218.8,5.25143,13.2571,-0.03118
219.2,5.26447,13.5165,-0.0311802
219.6,5.2776,13.7648,-0.0311785
220,5.29085,14.0035,-0.0311853
220.4,5.30365,14.2109,-0.031195
220.8,5.31629,14.3746,-0.0311844
221.2,5.32918,14.4942,-0.0302358
221.6,5.34097,14.5325,-0.0301961
222,5.35299,14.4786,-0.0301862
222.4,5.36442,14.2968,-0.030191
222.8,5.37596,14.0198,-0.0301898
223.2,5.38655,13.6865,-0.03019
223.6,5.39748,13.3023,-0.03019
224,5.40828,12.9128,-0.03019
224.4,5.4191,12.5269,-0.03019
224.8,5.43019,12.1682,-0.03019
225.2,5.44116,11.8327,-0.03019
225.6,5.45229,11.5039,-0.03019
226,5.46308,11.2238,-0.03019
226.4,5.47417,10.9467,-0.03019
226.8,5.48547,10.6789,-0.03019
227.2,5.49658,10.4481,-0.03019
227.6,5.50773,10.2222,-0.03019
228,5.51914,10.0133,-0.03019
228.4,5.53065,9.80894,-0.03018998
228.8,5.54219,9.63327,-0.0301901
229.2,5.5532,9.4657,-0.03018978
229.6,5.56496,9.30811,-0.03019
230,5.57654,9.15593,-0.0301944
230.4,5.58805,9.03005,-0.0301557
230.8,5.59972,8.89501,-0.03044
231.2,5.61138,8.77343,-0.0313389
231.6,5.62264,8.66756,-0.0315334
232,5.63431,8.56538,-0.0315085
232.4,5.64595,8.47224,-0.0315095
232.8,5.65778,8.38063,-0.0315102
233.2,5.6697,8.30904,-0.0315099
233.6,5.68118,8.22709,-0.03151
234,5.69307,8.15137,-0.03151
234.4,5.70481,8.08651,-0.0315099
234.8,5.7166,8.02885,-0.0315102
235.2,5.72834,7.97798,-0.0315114
235.6,5.74026,7.92787,-0.0314951
236,5.75196,7.88025,-0.0315909
236.4,5.76383,7.83902,-0.0310116
236.8,5.77589,7.80483,-0.031574
237.2,5.78776,7.77249,-0.0322161
237.6,5.79959,7.72967,-0.03215768
238,5.81129,7.70493,-0.0321724
238.4,5.82294,7.68296,-0.0321697
238.8,5.83523,7.65829,-0.03217
239.2,5.84684,7.62879,-0.03217
239.6,5.85912,7.61112,-0.03217
240,5.87081,7.58268,-0.03217
240.4,5.88261,7.56981,-0.03217
240.8,5.89475,7.548,-0.03217
241.2,5.90665,7.5386,-0.03217
241.6,5.91872,7.52762,-0.03217
242,5.93046,7.5196,-0.03217
242.4,5.94227,7.49849,-0.0321699
242.8,5.95434,7.49686,-0.0321701
243.2,5.96646,7.48163,-0.0321719
243.6,5.97839,7.47609,-0.0321557
244,5.99041,7.4662,-0.032239
244.4,6.00228,7.46594,-0.0316334
244.8,6.01435,7.45431,-0.0315086
245.2,6.02623,7.44089,-0.0315061
245.6,6.0381,7.44029,-0.0315114
246,6.05042,7.44131,-0.0315097
246.4,6.06217,7.43423,-0.03151
246.8,6.07408,7.43272,-0.0315101
247.2,6.08599,7.42146,-0.0315103
247.6,6.09797,7.42369,-0.03150638
248,6.1101,7.41798,-0.0315763
248.4,6.12207,7.42327,-0.03259092
248.8,6.13416,7.41831,-0.0328349
249.2,6.14552,7.41446,-0.0328219
249.6,6.15823,7.42104,-0.0328185
250,6.16969,7.4155,-0.0328187
250.4,6.18197,7.41679,-0.0328243
250.8,6.19344,7.4193,-0.0328301
251.2,6.20548,7.41398,-0.0325993
251.6,6.21757,7.40646,-0.0315712
252,6.22979,7.41158,-0.0314974
252.4,6.24185,7.4081,-0.03150033
252.8,6.25407,7.40644,-0.0315
253.2,6.26591,7.41112,-0.0315
253.6,6.27802,7.40718,-0.0315
254,6.28996,7.40938,-0.0315
254.4,6.30213,7.41577,-0.0315
254.8,6.31417,7.4194,-0.0315
255.2,6.3259,7.41366,-0.0315
255.6,6.33838,7.40856,-0.0315
256,6.35002,7.42169,-0.0315
256.4,6.36198,7.41727,-0.0315
256.8,6.37433,7.41841,-0.0314994
257.2,6.38609,7.42439,-0.0315049
257.6,6.39819,7.42304,-0.031474
258,6.41023,7.42452,-0.0317293
258.4,6.42242,7.42241,-0.032177
258.8,6.43424,7.42414,-0.0321182
259.2,6.44593,7.42344,-0.03322383
259.6,6.45839,7.42709,-0.033489
260,6.47036,7.42592,-0.0334777
260.4,6.48219,7.42901,-0.0334804
260.8,6.49465,7.43125,-0.03348
261.2,6.50648,7.43484,-0.0334795
261.6,6.51851,7.4342,-0.0334847
262,6.5306,7.43453,-0.0334547
262.4,6.54254,7.42726,-0.0335657
262.8,6.55444,7.43767,-0.032529
263.2,6.56673,7.4304,-0.0321979
263.6,6.57897,7.43745,-0.0318149
264,6.59094,7.43743,-0.0309041
264.4,6.60262,7.44213,-0.0308438
264.8,6.61448,7.44188,-0.0308365
265.2,6.62653,7.44515,-0.0308409
265.6,6.63869,7.44683,-0.0308411
266,6.65102,7.43294,-0.0308329
266.4,6.66259,7.43977,-0.0308635
266.8,6.6749,7.43872,-0.0308366
267.2,6.68689,7.44649,-0.0319676
267.6,6.69899,7.44454,-0.0321665
268,6.71125,7.44253,-0.0321587
268.4,6.72331,7.45188,-0.0321602
268.8,6.73523,7.45536,-0.03216
269.2,6.74702,7.45616,-0.03216
269.6,6.75922,7.46388,-0.03216
270,6.77137,7.45623,-0.0321601
270.4,6.78338,7.45354,-0.0321598
270.8,6.79548,7.45191,-0.0321596
271.2,6.80747,7.46064,-0.0321744
271.6,6.81918,7.45706,-0.0329373
272,6.8315,7.46554,-0.0335468
272.4,6.84361,7.4566,-0.0334733
272.8,6.85558,7.4595,-0.0334794
273.2,6.86763,7.46483,-0.0334805
273.6,6.8801,7.46119,-0.0334799
274,6.89166,7.46309,-0.03348
274.4,6.90383,7.46857,-0.03348
274.8,6.91559,7.47592,-0.03348
275.2,6.92793,7.46137,-0.03348
275.6,6.93982,7.47119,-0.03348
276,6.95181,7.47288,-0.03348
276.4,6.96386,7.46824,-0.0334802
276.8,6.97601,7.47787,-0.0334782
277.2,6.98809,7.4744,-0.0334879
277.6,6.99998,7.46972,-0.0332393
278,7.0121,7.47257,-0.0321351
278.4,7.02414,7.47136,-0.032195
278.8,7.03546,7.47966,-0.0321641
279.2,7.0476,7.48414,-0.0321711
279.6,7.06019,7.48092,-0.0321699
280,7.07249,7.47781,-0.03217
280.4,7.08386,7.476,-0.03217
280.8,7.09602,7.4819,-0.0321702
281.2,7.10813,7.4815,-0.0321678
281.6,7.12079,7.48232,-0.0321841
282,7.13255,7.47565,-0.0321228
282.4,7.14468,7.48595,-0.032807
282.8,7.15693,7.49574,-0.0335329
283.2,7.16909,7.48315,-0.0334745
283.6,7.18144,7.48747,-0.0334926
284,7.19336,7.47963,-0.0329466
284.4,7.20532,7.48425,-0.0320746
284.8,7.21734,7.49508,-0.0321892
285.2,7.22934,7.49052,-0.0321675
285.6,7.24143,7.48959,-0.0321701
286,7.25355,7.4956,-0.032168
286.4,7.26569,7.49311,-0.0321824
286.8,7.27776,7.49215,-0.0321374
287.2,7.28988,7.50386,-0.0335742
287.6,7.30202,7.49572,-0.0348844
288,7.31401,7.49151,-0.034782
288.4,7.32632,7.49563,-0.03480239
288.8,7.33825,7.50248,-0.0348
289.2,7.35022,7.50071,-0.0347999
289.6,7.36254,7.49822,-0.0348
290,7.37457,7.50055,-0.0348
290.4,7.38678,7.50467,-0.0348
290.8,7.39862,7.49617,-0.0348
291.2,7.41093,7.49739,-0.03480001
291.6,7.42304,7.5073,-0.0348
292,7.43481,7.50921,-0.0347997
292.4,7.44697,7.50587,-0.034802
292.8,7.45924,7.50997,-0.0347899
293.2,7.47131,7.51668,-0.0349084
293.6,7.48385,7.51134,-0.0355336
294,7.49552,7.51735,-0.0350667
294.4,7.50769,7.51621,-0.0351471
294.8,7.51986,7.52263,-0.0351275
295.2,7.53166,7.52505,-0.0351302
295.6,7.5439,7.52207,-0.0351301
296,7.55618,7.52332,-0.03513
296.4,7.56814,7.52975,-0.03513
296.8,7.58017,7.51461,-0.03513
297.2,7.59221,7.52219,-0.03513
297.6,7.60433,7.51983,-0.03513
298,7.61604,7.51997,-0.0351302
298.4,7.62806,7.52237,-0.0351294
298.8,7.64043,7.52601,-0.0351304
299.2,7.65282,7.52665,-0.0351455
299.6,7.66499,7.52811,-0.0349906
300,7.677,7.53295,-0.0347731
300.4,7.68939,7.52731,-0.0348027
300.8,7.70138,7.52412,-0.0347997
301.2,7.71346,7.52866,-0.0348011
301.6,7.72544,7.53643,-0.0348023
302,7.73777,7.52924,-0.0347378
302.4,7.74997,7.52372,-0.0342715
302.8,7.76192,7.53134,-0.0341245
303.2,7.77416,7.52647,-0.034141
303.6,7.7858,7.53182,-0.0341402
304,7.79859,7.53818,-0.0341399
304.4,7.81057,7.53223,-0.03414
304.8,7.82239,7.53553,-0.03414
305.2,7.8349,7.53391,-0.03414
305.6,7.84706,7.5359,-0.0341399
306,7.85897,7.53685,-0.0341404
306.4,7.87119,7.52631,-0.0341412
306.8,7.8833,7.5403,-0.0341243
307.2,7.89526,7.53466,-0.0342263
307.6,7.90747,7.5423,-0.0334329
308,7.91989,7.5378,-0.0328244
308.4,7.9319,7.54097,-0.0328203
308.8,7.94382,7.53487,-0.0328207
309.2,7.95625,7.53877,-0.0328269
309.6,7.96811,7.53153,-0.03347482
310,7.9803,7.5419,-0.0342196
310.4,7.99252,7.53373,-0.0341209
310.8,8.00459,7.53571,-0.03421726
311.2,8.01679,7.53443,-0.0349284
311.6,8.02856,7.53554,-0.03514596
312,8.04035,7.53327,-0.0351314
312.4,8.05216,7.53414,-0.03512909
312.8,8.06511,7.52497,-0.0351303
313.2,8.07645,7.53268,-0.0351289
313.6,8.08957,7.53356,-0.0351421
314,8.10155,7.53012,-0.035079
314.4,8.11377,7.52936,-0.035691
314.8,8.12591,7.53536,-0.036476
315.2,8.13785,7.53352,-0.03643503
315.6,8.15006,7.51976,-0.0364578
316,8.16241,7.52278,-0.035967
316.4,8.17434,7.5306,-0.0350442
316.8,8.18643,7.53469,-0.03515095
317.2,8.1988,7.53872,-0.0351283
317.6,8.21086,7.5294,-0.0351298
318,8.22325,7.53504,-0.0351301
318.4,8.23517,7.52525,-0.03512997
318.8,8.2475,7.53518,-0.0351299
319.2,8.2599,7.53168,-0.0351309
319.6,8.27175,7.53066,-0.0351262
320,8.28388,7.52345,-0.0351365
320.4,8.29628,7.52922,-0.0351795
320.8,8.3084,7.52018,-0.0360591
321.2,8.32031,7.52048,-0.0364877
321.6,8.33242,7.52249,-0.0359421
322,8.3445,7.53423,-0.0353903
322.4,8.35711,7.52187,-0.0354534
322.8,8.36917,7.51902,-0.0354712
323.2,8.3816,7.51612,-0.0351216
323.6,8.39323,7.51776,-0.0351376
324,8.40555,7.52082,-0.0351279
324.4,8.41774,7.51167,-0.0351303
324.8,8.43004,7.512,-0.03513
325.2,8.44228,7.51469,-0.03513
325.6,8.45421,7.5194,-0.03513
326,8.46652,7.50666,-0.03513
326.4,8.4786,7.50782,-0.0351296
326.8,8.49053,7.51236,-0.0351315
327.2,8.50335,7.51167,-0.03512576
327.6,8.51535,7.51521,-0.0354942
328,8.52746,7.51276,-0.0365412
328.4,8.53969,7.50795,-0.0364259
328.8,8.55137,7.50488,-0.0364554
329.2,8.564,7.50512,-0.0364497
329.6,8.57638,7.50903,-0.0364499
330,8.5886,7.49836,-0.03645
330.4,8.6007,7.49692,-0.03645
330.8,8.61277,7.50497,-0.03645
331.2,8.62502,7.50371,-0.03645
331.6,8.63723,7.50782,-0.0364499
332,8.64925,7.49675,-0.0364501
332.4,8.66155,7.50226,-0.036451
332.8,8.67381,7.49135,-0.0364407
333.2,8.68602,7.49581,-0.0365019
333.6,8.69787,7.48943,-0.0359335
334,8.71022,7.49436,-0.0351019
334.4,8.72252,7.48948,-0.0353144
334.8,8.73469,7.48295,-0.0364302
335.2,8.74684,7.4889,-0.0364311
335.6,8.75923,7.49003,-0.0364567
336,8.77151,7.48855,-0.03644871
336.4,8.78371,7.4865,-0.03645012
336.8,8.79579,7.47812,-0.03645
337.2,8.80793,7.48483,-0.03645
337.6,8.82014,7.48005,-0.03645
338,8.83259,7.4774,-0.03645
338.4,8.84466,7.47673,-0.03645
338.8,8.85693,7.47614,-0.03645
339.2,8.86917,7.47657,-0.03645
339.6,8.88172,7.4786,-0.0364501
340,8.89394,7.47924,-0.0364499
340.4,8.90602,7.47823,-0.0364493
340.8,8.91831,7.47989,-0.0364594
341.2,8.93058,7.47319,-0.0363976
341.6,8.94286,7.47176,-0.0369365
342,8.95517,7.47978,-0.0377764
342.4,8.96702,7.46592,-0.0377571
342.8,8.97902,7.46592,-0.037774
343.2,8.99188,7.46612,-0.03776582
343.6,9.00384,7.46237,-0.0377772
344,9.01644,7.46387,-0.0378231
344.4,9.02853,7.45568,-0.0387087
344.8,9.04055,7.44752,-0.039126
345.2,9.05291,7.44948,-0.0390745
345.6,9.06502,7.45586,-0.03907996
346,9.0777,7.44869,-0.0390812
346.4,9.08975,7.45407,-0.0390742
346.8,9.10212,7.44956,-0.0392237
347.2,9.11449,7.44123,-0.0403711
347.6,9.12672,7.44281,-0.04038
348,9.13886,7.44351,-0.0404072
348.4,9.15128,7.43604,-0.0403986
348.8,9.16301,7.438,-0.0404002
349.2,9.17496,7.43402,-0.0404
349.6,9.18748,7.43011,-0.0404
350,9.19952,7.43598,-0.0404
350.4,9.21211,7.42765,-0.04040011
350.8,9.22459,7.43033,-0.0403999
351.2,9.23718,7.42611,-0.0403972
351.6,9.24953,7.43014,-0.0404214
352,9.26203,7.424,-0.0403131
352.4,9.27393,7.42602,-0.04129863
352.8,9.28644,7.42186,-0.0417262
353.2,9.29856,7.42502,-0.0417175
353.6,9.31093,7.42507,-0.04172055
354,9.32332,7.42762,-0.0417197
354.4,9.33529,7.42239,-0.0417211
354.8,9.34772,7.42617,-0.0417178
355.2,9.36013,7.42128,-0.0417106
355.6,9.37254,7.41524,-0.041211
356,9.38474,7.41416,-0.0406687
356.4,9.3971,7.41544,-0.0415729
356.8,9.40884,7.40748,-0.0421059
357.2,9.42075,7.4128,-0.0420321
357.6,9.43328,7.40798,-0.0422585
358,9.44572,7.40203,-0.04339411
358.4,9.45882,7.39912,-0.0433334
358.8,9.47086,7.40806,-0.04336529
359.2,9.48346,7.40916,-0.0433601
359.6,9.49566,7.40716,-0.04336169
360,9.50791,7.4091,-0.043329
360.4,9.52022,7.40611,-0.0436437
360.8,9.5328,7.4069,-0.0445886
361.2,9.54496,7.40085,-0.04468
361.6,9.5571,7.40757,-0.0446804
362,9.56963,7.39985,-0.0447005
362.4,9.58213,7.39499,-0.0445947
362.8,9.59408,7.3956,-0.04559
363.2,9.60623,7.39831,-0.0460042
363.6,9.61905,7.39717,-0.0459976
364,9.63146,7.39301,-0.0460023
364.4,9.64356,7.39756,-0.0459952
364.8,9.65594,7.40684,-0.0459818
365.2,9.6683,7.39127,-0.0462836
365.6,9.68082,7.38683,-0.0472806
366,9.69299,7.38733,-0.0473214
366.4,9.70552,7.3859,-0.0473194
366.8,9.7174,7.38479,-0.0473346
367.2,9.72909,7.37548,-0.047234
367.6,9.74184,7.38834,-0.047989
368,9.75434,7.38438,-0.0486275
368.4,9.76644,7.38278,-0.0486295
368.8,9.77966,7.38356,-0.0486248
369.2,9.79174,7.38934,-0.0487584
369.6,9.80428,7.38393,-0.0499054
370,9.81638,7.38967,-0.0499326
370.4,9.8288,7.37501,-0.0499568
370.8,9.84132,7.38705,-0.04994874
371.2,9.85365,7.38294,-0.0499498
371.6,9.8661,7.38163,-0.0499485
372,9.87845,7.39231,-0.0499833
372.4,9.89081,7.39395,-0.0509071
372.8,9.90341,7.3882,-0.05129873
373.2,9.91525,7.38098,-0.0512713
373.6,9.92729,7.3827,-0.051265
374,9.93982,7.38561,-0.0512947
374.4,9.95208,7.3871,-0.0511717
374.8,9.96464,7.38801,-0.0522333
375.2,9.97701,7.38907,-0.0525897
375.6,9.98972,7.40197,-0.0525395
376,10.0024,7.40315,-0.0530119
376.4,10.0147,7.40379,-0.0540019
376.8,10.027,7.40463,-0.0539492
377.2,10.0396,7.39855,-0.0544251
377.6,10.0521,7.39915,-0.0550247
378,10.0645,7.40503,-0.0551193
378.4,10.0767,7.40958,-0.0556051
378.8,10.0893,7.40834,-0.0565279
379.2,10.1014,7.41524,-0.0564028
379.6,10.1136,7.41937,-0.0566656
380,10.1265,7.41488,-0.0578154
380.4,10.1388,7.4247,-0.0576291
380.8,10.151,7.43293,-0.0583878
381.2,10.1633,7.43718,-0.0592614
381.6,10.1756,7.43838,-0.0592837
382,10.189,7.43308,-0.0600094
382.4,10.2011,7.44399,-0.06066834
382.8,10.2137,7.45482,-0.060652
383.2,10.2259,7.44695,-0.060564
383.6,10.2383,7.45038,-0.0614658
384,10.2508,7.46935,-0.0612973
384.4,10.2632,7.47131,-0.0618608
384.8,10.2759,7.46878,-0.0629394
385.2,10.2881,7.47262,-0.0628937
385.6,10.3004,7.48115,-0.0639435
386,10.3132,7.4858,-0.0644959
386.4,10.3253,7.4985,-0.06446573
386.8,10.3378,7.49739,-0.0656351
387.2,10.3506,7.49401,-0.0658911
387.6,10.3626,7.49987,-0.0660109
388,10.3754,7.50048,-0.0674311
388.4,10.3876,7.52263,-0.067379
388.8,10.4,7.51619,-0.0684103
389.2,10.4127,7.519,-0.0687762
389.6,10.425,7.52267,-0.0688867
390,10.4375,7.53434,-0.06984273
390.4,10.4498,7.53237,-0.070294
390.8,10.4625,7.54775,-0.0713153
391.2,10.4751,7.54639,-0.0716985
391.6,10.4876,7.55635,-0.07297216
392,10.5,7.55959,-0.0731399
392.4,10.5121,7.56686,-0.0744582
392.8,10.525,7.57657,-0.07498549
393.2,10.5372,7.58444,-0.0762439
393.6,10.5497,7.58614,-0.0766805
394,10.5623,7.59889,-0.0778474
394.4,10.5748,7.60837,-0.07858188
394.8,10.5874,7.61256,-0.0796619
395.2,10.5999,7.6208,-0.0806536
395.6,10.6122,7.6236,-0.08142679
396,10.6251,7.6429,-0.0835156
396.4,10.6376,7.65091,-0.0844806
396.8,10.6499,7.6546,-0.0856471
397.2,10.6626,7.66136,-0.0867618
397.6,10.6752,7.67089,-0.0879486
398,10.6875,7.69234,-0.0889865
398.4,10.7,7.69853,-0.0903087
398.8,10.7125,7.70941,-0.0915855
399.2,10.7251,7.72421,-0.0920702
399.6,10.7377,7.732,-0.0926791
400,10.7501,7.74372,-0.0937697
400.4,10.7626,7.74926,-0.0943539
400.8,10.7749,7.76719,-0.0959481
401.2,10.788,7.78442,-0.09624654
401.6,10.8004,7.77728,-0.09753633
402,10.8128,7.7925,-0.0991379
402.4,10.8252,7.8008,-0.100258
402.8,10.8382,7.81182,-0.102145
403.2,10.8506,7.82839,-0.103293
403.6,10.8632,7.84659,-0.104268
404,10.8756,7.86014,-0.105774
404.4,10.8881,7.86794,-0.106862
404.8,10.9009,7.88745,-0.108467
405.2,10.9131,7.90232,-0.110193
405.6,10.926,7.90906,-0.111092
406,10.938,7.91659,-0.111739
406.4,10.951,7.93846,-0.112906
406.8,10.9637,7.95145,-0.113958
407.2,10.976,7.96596,-0.115481
407.6,10.9887,7.98812,-0.116491
408,11.001,8.00685,-0.117912
408.4,11.0142,8.0209,-0.119886
408.8,11.0263,8.03682,-0.121009
409.2,11.0388,8.05089,-0.122944
409.6,11.0515,8.07268,-0.124563
410,11.0642,8.0825,-0.126896
410.4,11.0766,8.10823,-0.128076
410.8,11.0894,8.11905,-0.130084
411.2,11.1019,8.13745,-0.131562
411.6,11.1146,8.1578,-0.13378
412,11.1273,8.17215,-0.134811
412.4,11.1402,8.18413,-0.136653
412.8,11.1525,8.2054,-0.138162
413.2,11.1653,8.23335,-0.1408
413.6,11.1777,8.25275,-0.141957
414,11.1903,8.2714,-0.144352
414.4,11.2031,8.28671,-0.146208
414.8,11.2156,8.31243,-0.149208
415.2,11.2283,8.33482,-0.150734
415.6,11.2412,8.34805,-0.153491
416,11.2535,8.37356,-0.155317
416.4,11.266,8.38754,-0.157919
416.8,11.2787,8.41248,-0.159442
417.2,11.2915,8.44027,-0.16217
417.6,11.3044,8.46552,-0.164241
418,11.3169,8.49194,-0.167297
418.4,11.3297,8.50346,-0.168838
418.8,11.3422,8.52511,-0.171475
419.2,11.3551,8.54942,-0.173385
419.6,11.3676,8.57215,-0.176553
420,11.3804,8.59665,-0.178439
420.4,11.3929,8.6227,-0.181689
420.8,11.4057,8.64337,-0.18386
421.2,11.4181,8.67071,-0.187527
421.6,11.431,8.696,-0.189428
422,11.4437,8.73182,-0.192148
422.4,11.4565,8.75159,-0.194134
422.8,11.4691,8.77086,-0.197043
423.2,11.4818,8.8097,-0.19913
423.6,11.4949,8.84812,-0.202417
424,11.5075,8.86842,-0.205305
424.4,11.5201,8.89003,-0.2088
424.8,11.5326,8.92255,-0.212285
425.2,11.5454,8.96272,-0.215723
425.6,11.5583,8.98744,-0.219569
426,11.5707,9.01977,-0.221832
426.4,11.5835,9.04896,-0.223857
426.8,11.5961,9.07678,-0.226809
427.2,11.6093,9.1021,-0.230338
427.6,11.6221,9.12351,-0.233283
428,11.6343,9.1473,-0.236892
428.4,11.647,9.17996,-0.241207
428.8,11.6601,9.20554,-0.244253
429.2,11.6729,9.23702,-0.247813
429.6,11.6856,9.27775,-0.251775
430,11.6987,9.32227,-0.255028
430.4,11.7113,9.36852,-0.259643
430.8,11.7239,9.41698,-0.264356
431.2,11.737,9.45047,-0.267753
431.6,11.7496,9.49127,-0.271248
432,11.7623,9.53206,-0.275633
432.4,11.7749,9.565055,-0.27905
432.8,11.7879,9.61851,-0.282818
433.2,11.8008,9.66249,-0.287061
433.6,11.8136,9.70156,-0.289941
434,11.8263,9.7461,-0.293767
434.4,11.8392,9.79196,-0.298522
434.8,11.852,9.82644,-0.303066
435.2,11.865,9.87542,-0.30717
435.6,11.8776,9.92955,-0.312337
436,11.8908,9.98031,-0.317316
436.4,11.9031,10.0256,-0.321289
436.8,11.9166,10.0729,-0.326841
437.2,11.9292,10.1257,-0.332298
437.6,11.942,10.1601,-0.336823
438,11.9553,10.1931,-0.342455
438.4,11.9676,10.226,-0.34811
438.8,11.9807,10.265,-0.352438
439.2,11.9933,10.3025,-0.357447
439.6,12.0063,10.3433,-0.363731
440,12.0192,10.3907,-0.367794
440.4,12.0323,10.5012,-0.372884
440.8,12.0455,10.6393,-0.379317
441.2,12.0585,10.7394,-0.384375
441.6,12.0713,10.7965,-0.390421
442,12.0842,10.856,-0.398508
442.4,12.0972,10.9019,-0.405172
442.8,12.1099,10.9439,-0.412652
443.2,12.1228,11.0026,-0.42183
443.6,12.136,11.0742,-0.428499
444,12.1486,11.1259,-0.435051
444.4,12.1619,11.1842,-0.443323
444.8,12.1749,11.252,-0.449627
445.2,12.1878,11.3208,-0.456423
445.6,12.2004,11.3897,-0.464862
446,12.2137,11.4492,-0.472243
446.4,12.2267,11.5409,-0.479473
446.8,12.2397,11.62,-0.488699
447.2,12.2526,11.682,-0.496724
447.6,12.2658,11.7579,-0.504179
448,12.2787,11.8487,-0.513089
448.4,12.2919,11.92,-0.52128
448.8,12.3048,11.9906,-0.528529
449.2,12.3178,12.0751,-0.537808
449.6,12.3307,12.1473,-0.546975
450,12.3437,12.245,-0.554742
450.4,12.3569,12.3289,-0.564402
450.8,12.3697,12.4154,-0.574125
451.2,12.383,12.5039,-0.582834
451.6,12.3964,12.6148,-0.593471
452,12.4092,12.7026,-0.604271
452.4,12.4223,12.7957,-0.613285
452.8,12.4354,12.8851,-0.624097
453.2,12.4487,12.9927,-0.63618
453.6,12.4618,13.0908,-0.645587
454,12.4747,13.1873,-0.656713
454.4,12.4882,13.276,-0.669763
454.8,12.5012,13.3864,-0.679412
455.2,12.5148,13.5017,-0.691571
455.6,12.5276,13.6267,-0.704358
456,12.5411,13.7259,-0.714642
456.4,12.5539,13.8302,-0.726925
456.8,12.5673,13.9332,-0.7414777
457.2,12.5805,14.0418,-0.752106
457.6,12.5937,14.1465,-0.765041
458,12.6065,14.2596,-0.779911
458.4,12.6198,14.3546,-0.791403
458.8,12.633,14.467,-0.804724
459.2,12.6462,14.5764,-0.821122
459.6,12.6595,14.6927,-0.833364
460,12.6726,14.8176,-0.847821
460.4,12.686,14.9371,-0.865555
460.8,12.6994,15.0359,-0.878499
461.2,12.7132,15.2223,-0.894622
461.6,12.7261,15.372,-0.912508
462,12.7393,15.4976,-0.925848
462.4,12.7527,15.6212,-0.941932
462.8,12.7659,15.75,-0.960896
463.2,12.779,15.8623,-0.974576
463.6,12.7926,16.0146,-0.991597
464,12.8061,16.1762,-1.0117
464.4,12.8195,16.2822,-1.02658
464.8,12.8325,16.386,-1.04431
465.2,12.8458,16.5055,-1.06594
465.6,12.8592,16.6074,-1.08197
466,12.8724,16.7274,-1.10072
466.4,12.8855,16.8345,-1.12263
466.8,12.899,16.9866,-1.13899
467.2,12.9125,17.1033,-1.15876
467.6,12.9256,17.2054,-1.18135
468,12.9389,17.3658,-1.19864
468.4,12.9523,17.4919,-1.21939
468.8,12.9656,17.599,-1.24434
469.2,12.9792,17.7277,-1.26302
469.6,12.9925,17.8325,-1.28476
470,13.0059,17.9763,-1.31051
470.4,13.019,18.0989,-1.32907
470.8,13.0326,18.2368,-1.3519
471.2,13.0459,18.36,-1.37822
471.6,13.0593,18.5018,-1.39786
472,13.0727,18.6376,-1.42165
472.4,13.086,18.7634,-1.44977
472.8,13.0994,18.9039,-1.47149
473.2,13.1131,19.0325,-1.49788
473.6,13.1261,19.1711,-1.52694
474,13.1393,19.2999,-1.54856
474.4,13.1527,19.4115,-1.57453
474.8,13.166,19.4991,-1.60516
475.2,13.1792,19.6059,-1.62805
475.6,13.1926,19.7229,-1.65597
476,13.2056,19.8453,-1.68767
476.4,13.2196,19.9899,-1.71289
476.8,13.2328,20.1612,-1.74112
477.2,13.2462,20.2169,-1.77429
477.6,13.259,20.2174,-1.7969
478,13.272,20.2373,-1.82548
478.4,13.2852,20.2659,-1.85961
478.8,13.2981,20.2941,-1.88419
479.2,13.3111,20.3115,-1.91286
479.6,13.3244,20.3148,-1.94798
480,13.3374,20.3893,-1.97285
480.4,13.3508,20.4394,-2.00221
480.8,13.3634,20.3901,-2.03608
481.2,13.3761,20.3583,-2.06141
481.6,13.3891,20.2845,-2.09026
482,13.4015,20.1582,-2.1236
482.4,13.4138,20.0243,-2.14966
482.8,13.4265,19.8839,-2.17671
483.2,13.4396,19.7856,-2.21034
483.6,13.4521,19.7253,-2.23899
484,13.4646,19.5842,-2.26524
484.4,13.477,19.4488,-2.29626
484.8,13.4894,19.2611,-2.32684
485.2,13.5015,19.069,-2.35015
485.6,13.5139,18.8655,-2.37805
486,13.5261,18.6575,-2.4095
486.4,13.5382,18.4392,-2.43204
486.8,13.5503,18.1954,-2.45793
487.2,13.5626,17.947,-2.4897
487.6,13.5745,17.6832,-2.51317
488,13.5865,17.416,-2.53737
488.4,13.5984,17.1342,-2.5658
488.8,13.6103,16.8464,-2.59188
489.2,13.6225,16.5541,-2.61353
489.6,13.6342,16.2516,-2.63798
490,13.646,15.9332,-2.66528
490.4,13.658,15.6179,-2.68522
490.8,13.6696,15.302,-2.70737
491.2,13.6816,14.9681,-2.73403
491.6,13.693,14.6495,-2.75382
492,13.705,14.2934,-2.77405
492.4,13.7166,13.9637,-2.79635
492.8,13.7281,13.6204,-2.81937
493.2,13.74,13.2546,-2.83708
493.6,13.7515,12.9132,-2.8568
494,13.7631,12.5592,-2.87938
494.4,13.7747,12.1976,-2.89607
494.8,13.7862,11.8549,-2.91349
495.2,13.7979,11.4995,-2.93353
495.6,13.8094,11.1519,-2.95207
496,13.8212,10.789,-2.96683
496.4,13.8326,10.4442,-2.98342
496.8,13.8442,10.0944,-3.00252
497.2,13.8559,9.73831,-3.01571
497.6,13.8677,9.38681,-3.03001
498,13.8789,9.05495,-3.0457
498.4,13.8906,8.71348,-3.06022
498.8,13.9023,8.37507,-3.07198
499.2,13.9141,8.0438,-3.08581
499.6,13.9255,7.72317,-3.10079
500,13.9374,7.40695,-3.11112
500.4,13.9489,7.1029,-3.12229
500.8,13.9605,6.7976,-3.13531
501.2,13.9724,6.50385,-3.14578
501.6,13.9841,6.21698,-3.1552
502,13.9958,5.93967,-3.16574
502.4,14.0079,5.66775,-3.17677
502.8,14.0198,5.40333,-3.18428
503.2,14.0316,5.15781,-3.19274
503.6,14.0432,4.92823,-3.20218
504,14.0554,4.69196,-3.20925
504.4,14.0675,4.47837,-3.2165
504.8,14.0793,4.27809,-3.22478
505.2,14.0914,4.08539,-3.23161
505.6,14.1031,3.90459,-3.23718
506,14.1156,3.71541,-3.24392
506.4,14.1277,3.56547,-3.2506
506.8,14.1399,3.39516,-3.25549
507.2,14.1519,3.24695,-3.26113
507.6,14.1641,3.12774,-3.26753
508,14.1765,2.98001,-3.27172
508.4,14.1887,2.86718,-3.27608
508.8,14.2011,2.7557,-3.28112
509.2,14.2134,2.64877,-3.28497
509.6,14.2261,2.54098,-3.28867
510,14.2383,2.45021,-3.29269
510.4,14.251,2.36091,-3.2962
510.8,14.2633,2.27075,-3.29892
511.2,14.2758,2.19495,-3.3021
511.6,14.2883,2.12903,-3.30567
512,14.3008,2.05276,-3.30812
512.4,14.3134,1.98316,-3.31102
512.8,14.3259,1.92333,-3.31395
513.2,14.3387,1.86199,-3.31597
513.6,14.351,1.81011,-3.31867
514,14.3638,1.75882,-3.32031
514.4,14.3764,1.71424,-3.32258
514.8,14.389,1.66448,-3.32364
515.2,14.4016,1.62856,-3.32497
515.6,14.4143,1.58306,-3.32658
516,14.4271,1.54405,-3.32681
516.4,14.4396,1.50759,-3.32737
516.8,14.4527,1.47576,-3.32899
517.2,14.4653,1.43888,-3.32977
517.6,14.4779,1.41226,-3.33165
518,14.4907,1.39594,-3.33265
518.4,14.5039,1.36071,-3.33327
518.8,14.5164,1.33277,-3.33371
519.2,14.5292,1.31881,-3.3355
519.6,14.5418,1.30658,-3.33617
520,14.5549,1.28023,-3.3362
520.4,14.5677,1.27218,-3.33687
520.8,14.5807,1.25729,-3.33778
521.2,14.5934,1.24017,-3.33824
521.6,14.6064,1.23461,-3.33918
522,14.6193,1.22825,-3.33923
522.4,14.632,1.22245,-3.33823
522.8,14.6448,1.19865,-3.33784
523.2,14.657,1.19536,-3.33839
523.6,14.6704,1.1913,-3.33925
524,14.6835,1.181,-3.33916
524.4,14.6966,1.18702,-3.33914
524.8,14.7094,1.1758,-3.33957
525.2,14.7223,1.16815,-3.34047
525.6,14.7353,1.16948,-3.34049
526,14.7483,1.16338,-3.34049
526.4,14.7609,1.16145,-3.34049
526.8,14.7741,1.15882,-3.34049
527.2,14.7868,1.15219,-3.34049
527.6,14.8,1.1409,-3.34049
528,14.8127,1.14465,-3.34049
528.4,14.826,1.14269,-3.34049
528.8,14.8389,1.14138,-3.34049
529.2,14.8518,1.13483,-3.34049
529.6,14.8652,1.13687,-3.34049
530,14.8778,1.14374,-3.34049
530.4,14.8907,1.13284,-3.34049
530.8,14.9037,1.12648,-3.34049
531.2,14.9168,1.12846,-3.34049
531.6,14.9297,1.1234,-3.34048
532,14.9428,1.12177,-3.34067
532.4,14.9558,1.11455,-3.34184
532.8,14.9687,1.12295,-3.34177
533.2,14.9816,1.12258,-3.3418
533.6,14.9947,1.12008,-3.3418
534,15.0077,1.11185,-3.3418
534.4,15.0208,1.10715,-3.3418
534.8,15.0337,1.11099,-3.3418
535.2,15.0466,1.11419,-3.3418
535.6,15.0593,1.10168,-3.3418
536,15.0727,1.10793,-3.3418
536.4,15.0856,1.11072,-3.3418
536.8,15.0986,1.09822,-3.3418
537.2,15.1122,1.0926,-3.3418
537.6,15.1249,1.09339,-3.3418
538,15.1379,1.09398,-3.3418
538.4,15.151,1.09549,-3.34187
538.8,15.164,1.1019,-3.34216
539.2,15.1772,1.09345,-3.34213
539.6,15.1902,1.09924,-3.34212
540,15.2035,1.09698,-3.34229
540.4,15.2159,1.09485,-3.34247
540.8,15.2293,1.09626,-3.34246
541.2,15.2422,1.08949,-3.34246
541.6,15.2555,1.08751,-3.34246
542,15.2684,1.09374,-3.34246
542.4,15.2811,1.09018,-3.34246
542.8,15.2943,1.08596,-3.34246
543.2,15.3075,1.08732,-3.34246
543.6,15.3205,1.08982,-3.34246
544,15.3336,1.079,-3.34246
544.4,15.3469,1.0732,-3.34246
544.8,15.3598,1.08865,-3.34246
545.2,15.3727,1.07711,-3.34246
545.6,15.3859,1.07545,-3.34246
546,15.3992,1.0781,-3.34246
546.4,15.4121,1.06344,-3.34246
546.8,15.4251,1.07096,-3.34246
547.2,15.4382,1.06211,-3.34247
547.6,15.4513,1.06498,-3.34228
548,15.4644,1.06622,-3.34129
548.4,15.4775,1.05613,-3.34114
548.8,15.4905,1.0517,-3.34114
549.2,15.5035,1.05107,-3.34114
549.6,15.5166,1.03552,-3.34114
550,15.5299,1.04947,-3.34114
550.4,15.5427,1.04252,-3.34114
550.8,15.5559,1.04066,-3.34114
551.2,15.5688,1.04086,-3.34117
551.6,15.5821,1.03113,-3.34099
552,15.5953,1.03623,-3.34271
552.4,15.6085,1.03026,-3.34312
552.8,15.6213,1.02928,-3.34312
553.2,15.6347,1.03444,-3.34312
553.6,15.6477,1.02465,-3.34312
554,15.6607,1.02985,-3.34313
554.4,15.6739,1.02593,-3.3431
554.8,15.6868,1.01429,-3.3431
555.2,15.7,1.01469,-3.34193
555.6,15.7132,1.01369,-3.34179
556,15.7264,1.01304,-3.3418
556.4,15.7392,1.01206,-3.3418
556.8,15.7524,1.00632,-3.3418
557.2,15.7658,0.996804,-3.3418
557.6,15.7789,1.0059,-3.3418
558,15.7918,1.01042,-3.3418
558.4,15.8048,1.00282,-3.3418
558.8,15.818,1.00625,-3.34181
559.2,15.8312,1.00006,-3.34171
559.6,15.8442,1.00188,-3.34257
560,15.8572,1.00488,-3.34313
560.4,15.8704,0.9962502,-3.34312
560.8,15.8837,0.995123,-3.34312
561.2,15.8967,1.00166,-3.34312
561.6,15.9096,1.00313,-3.34312
562,15.9229,1.00126,-3.34313
562.4,15.936,0.995659,-3.34312
562.8,15.9493,0.996884,-3.34288
563.2,15.9623,1.00153,-3.34184
563.6,15.9755,0.994289,-3.3418
564,15.9885,1.00227,-3.3418
564.4,16.0018,0.998494,-3.3418
564.8,16.015,1.00199,-3.3418
565.2,16.028,0.989588,-3.3418
565.6,16.0412,0.9846,-3.3418
566,16.0539,0.996298,-3.3418
566.4,16.0672,0.993167,-3.3418
566.8,16.0805,1.00689,-3.3418
567.2,16.0936,0.9920111,-3.3418
567.6,16.1067,0.993657,-3.3418
568,16.1201,0.991254,-3.34185
568.4,16.1332,0.991839,-3.34151
568.8,16.1464,1.0045,-3.34253
569.2,16.1594,0.992883,-3.34243
569.6,16.1723,0.993454,-3.34246
570,16.1857,1.0086,-3.34246
570.4,16.1988,0.989849,-3.34246
570.8,16.2121,1.0019,-3.34246
571.2,16.2253,0.998473,-3.34246
571.6,16.2383,0.995377,-3.34246
572,16.2512,0.996103,-3.34246
572.4,16.2649,1.00202,-3.34246
572.8,16.2778,0.998129,-3.34245
573.2,16.2909,0.998651,-3.34252
573.6,16.3044,1.00167,-3.34185
574,16.3175,0.999509,-3.34109
574.4,16.3305,0.989213,-3.34115
574.8,16.344,0.996518,-3.34114
575.2,16.357,0.998048,-3.34114
575.6,16.3703,0.999948,-3.34114
576,16.3835,0.999178,-3.34114
576.4,16.3967,1.00506,-3.34114
576.8,16.4098,0.99714,-3.34114
577.2,16.4233,1.00102,-3.34114
577.6,16.4362,0.997678,-3.34113
578,16.4497,0.994906,-3.34138
578.4,16.4626,0.993649,-3.34236
578.8,16.4757,0.999762,-3.34245
579.2,16.4891,1.00403,-3.34246
579.6,16.5023,0.996333,-3.34246
580,16.5157,1.00041,-3.34246
580.4,16.5287,0.998629,-3.34246
580.8,16.5422,1.00465,-3.34246
581.2,16.5551,0.995765,-3.34246
581.6,16.5686,0.997099,-3.34246
582,16.5816,1.00382,-3.34246
582.4,16.5948,1.00858,-3.34246
582.8,16.6082,1.00755,-3.34246
583.2,16.6212,1.0066,-3.34248
583.6,16.6346,1.00622,-3.34223
584,16.6474,1.00947,-3.34179
584.4,16.6609,1.00428,-3.34181
584.8,16.674,0.999264,-3.3418
585.2,16.6867,1.00332,-3.3418
585.6,16.7,1.00135,-3.3418
586,16.7134,1.00024,-3.3418
586.4,16.7269,0.997078,-3.3418
586.8,16.7401,0.99149,-3.3418
587.2,16.7537,0.995459,-3.3418
587.6,16.7669,0.997359,-3.3418
588,16.7799,0.995978,-3.3418
588.4,16.793,0.979935,-3.3418
588.8,16.8064,0.986565,-3.3418
589.2,16.82,0.983008,-3.3418
589.6,16.8327,0.987413,-3.34179
590,16.8462,0.991725,-3.34181
590.4,16.8596,0.993189,-3.34194
590.8,16.8729,0.993007,-3.34307
591.2,16.886,0.990186,-3.34312
591.6,16.8994,0.985641,-3.34311
592,16.9125,0.982881,-3.34318
592.4,16.9258,0.989141,-3.3426
592.8,16.9391,0.979245,-3.34176
593.2,16.9524,0.984843,-3.34181
593.6,16.9657,0.984468,-3.3418
594,16.979,0.988388,-3.34138
594.4,16.9921,0.983143,-3.34037
594.8,17.0055,0.982663,-3.34049
595.2,17.0186,0.981653,-3.34048
595.6,17.0321,0.9834,-3.34048
596,17.0451,0.980938,-3.34048
596.4,17.0585,0.978447,-3.34048
596.8,17.0718,0.973951,-3.34048
597.2,17.0851,0.977611,-3.34048
597.6,17.0987,0.968291,-3.34048
598,17.1119,0.975944,-3.3404
598.4,17.1242,0.974889,-3.3412
598.8,17.1379,0.967646,-3.34181
599.2,17.1518,0.964355,-3.34175
599.6,17.1651,0.964143,-3.34247
600,17.1782,0.958974,-3.34317