File: 01_Data/SCBA_Bracket/STA/N2/30K_min/SCBA_Bracket_STA_N2_30KData_240729_R1.csv
Temp./C,Time/min,DSC/(mW/mg),Mass loss/mg
60,0,1.99445,-0.0168566
60.4,0.0201004,2.05416,-0.0170021
60.8,0.0401795,2.10724,-0.0170121
61.2,0.0583524,2.16448,-0.0167935
61.6,0.0786662,2.22001,-0.0168152
62,0.0984603,2.27753,-0.0169457
62.4,0.11774,2.32738,-0.017246
62.8,0.135794,2.37669,-0.0169526
63.2,0.154254,2.42694,-0.0167219
63.6,0.172212,2.47513,-0.0167822
64,0.190727,2.51795,-0.0173207
64.4,0.207911,2.57009,-0.0180719
64.8,0.224743,2.60219,-0.0183221
65.2,0.243101,2.65883,-0.017697
65.6,0.260467,2.69749,-0.0169566
66,0.277803,2.73974,-0.0166987
66.4,0.293926,2.77589,-0.0171809
66.8,0.310825,2.83108,-0.0181996
67.2,0.327678,2.86112,-0.0186089
67.6,0.344304,2.89198,-0.0187433
68,0.360711,2.93012,-0.0190842
68.4,0.37654,2.97255,-0.0194555
68.8,0.393313,2.99957,-0.0195826
69.2,0.409215,3.03445,-0.0194599
69.6,0.425112,3.07179,-0.0187494
70,0.43971,3.09945,-0.0189133
70.4,0.455446,3.13513,-0.01868094
70.8,0.471819,3.16002,-0.018108
71.2,0.487907,3.1952,-0.018462
71.6,0.503137,3.21858,-0.0180895
72,0.518947,3.25396,-0.0188497
72.4,0.53385,3.28424,-0.0190754
72.8,0.549481,3.30881,-0.0201711
73.2,0.564612,3.33037,-0.0198471
73.6,0.579549,3.35776,-0.02059
74,0.594622,3.38212,-0.0205659
74.4,0.609756,3.40094,-0.02003095
74.8,0.624609,3.42151,-0.0204555
75.2,0.639814,3.45151,-0.0194374
75.6,0.654714,3.4738,-0.0203552
76,0.668772,3.49137,-0.0196657
76.4,0.684051,3.51075,-0.0207019
76.8,0.698389,3.52139,-0.0205034
77.2,0.713162,3.54983,-0.0192567
77.6,0.727913,3.57023,-0.0204963
78,0.7424,3.58181,-0.0198133
78.4,0.756716,3.60253,-0.0195429
78.8,0.771342,3.61927,-0.0202993
79.2,0.785653,3.64164,-0.0193025
79.6,0.800141,3.66533,-0.0202814
80,0.813826,3.67697,-0.0191497
80.4,0.828932,3.69031,-0.0198403
80.8,0.842806,3.71235,-0.0190348
81.2,0.857043,3.72754,-0.0204717
81.6,0.871029,3.74316,-0.0193127
82,0.885365,3.75318,-0.0204839
82.4,0.899264,3.76969,-0.020022
82.8,0.913771,3.78745,-0.0205321
83.2,0.927828,3.79732,-0.0209332
83.6,0.94138,3.80561,-0.0209309
84,0.955519,3.82826,-0.0212402
84.4,0.969691,3.84204,-0.0212714
84.8,0.983581,3.86478,-0.0224739
85.2,0.997207,3.87211,-0.0214716
85.6,1.01106,3.89354,-0.0214783
86,1.02551,3.90505,-0.0224111
86.4,1.03906,3.92168,-0.0212034
86.8,1.05307,3.9272,-0.0211993
87.2,1.06591,3.94387,-0.0213151
87.6,1.07971,3.96302,-0.0202732
88,1.09419,3.9761,-0.0210001
88.4,1.1077,3.98539,-0.0212024
88.8,1.12139,3.99682,-0.0211541
89.2,1.13492,4.01309,-0.0206666
89.6,1.14818,4.0223,-0.0211715
90,1.16236,4.03524,-0.02116245
90.4,1.17564,4.04832,-0.02124
90.8,1.18934,4.06272,-0.0209484
91.2,1.20264,4.0703,-0.0212514
91.6,1.21678,4.08591,-0.02118729
92,1.22964,4.0937,-0.0208368
92.4,1.24364,4.10785,-0.020551
92.8,1.25682,4.12293,-0.0212938
93.2,1.27048,4.13099,-0.02050717
93.6,1.28408,4.14501,-0.0206521
94,1.29744,4.15019,-0.0209849
94.4,1.31051,4.16586,-0.0209306
94.8,1.32419,4.17258,-0.0214555
95.2,1.33783,4.1824,-0.022288
95.6,1.35076,4.19983,-0.0218217
96,1.36431,4.207,-0.0208819
96.4,1.37775,4.21407,-0.0209789
96.8,1.39049,4.22747,-0.0209759
97.2,1.40408,4.22987,-0.02091797
97.6,1.41718,4.23913,-0.0215052
98,1.4298,4.25453,-0.0223276
98.4,1.44408,4.26558,-0.0220759
98.8,1.45741,4.26358,-0.0208401
99.2,1.47053,4.2666,-0.0211438
99.6,1.48367,4.27405,-0.0207685
100,1.49708,4.27971,-0.0205181
100.4,1.51028,4.29016,-0.02054
100.8,1.52361,4.29312,-0.0204924
101.2,1.53654,4.3005,-0.0210241
101.6,1.5495,4.2995,-0.0218644
102,1.56326,4.29649,-0.0218378
102.4,1.57646,4.30128,-0.0218512
102.8,1.58937,4.31256,-0.0218494
103.2,1.6028,4.31212,-0.0218719
103.6,1.61579,4.3137,-0.02174395
104,1.62864,4.31175,-0.02284271
104.4,1.64228,4.31851,-0.0224061
104.8,1.65548,4.31832,-0.0218632
105.2,1.66827,4.31648,-0.02255673
105.6,1.68169,4.31733,-0.0233268
106,1.69408,4.3188,-0.0232678
106.4,1.70706,4.31548,-0.0232792
106.8,1.7202,4.32368,-0.0232762
107.2,1.73406,4.31608,-0.0233691
107.6,1.74722,4.30904,-0.0224895
108,1.76035,4.31781,-0.0219327
108.4,1.77311,4.3192,-0.0223698
108.8,1.78621,4.31785,-0.0232615
109.2,1.79976,4.3142,-0.0232791
109.6,1.81187,4.31971,-0.02328436
110,1.82551,4.32808,-0.0232546
110.4,1.83856,4.31512,-0.023321
110.8,1.85209,4.31408,-0.0221152
111.2,1.8653,4.32119,-0.0219529
111.6,1.87818,4.32288,-0.0219605
112,1.89125,4.32262,-0.0219599
112.4,1.90442,4.32428,-0.0219618
112.8,1.91728,4.32588,-0.0219549
113.2,1.93075,4.32861,-0.0224229
113.6,1.94362,4.33264,-0.0233591
114,1.95657,4.3295,-0.0232589
114.4,1.96989,4.33089,-0.02326842
114.8,1.98264,4.33584,-0.02328196
115.2,1.99569,4.3317,-0.0232172
115.6,2.00904,4.33465,-0.02394635
116,2.02215,4.3339,-0.0246377
116.4,2.03523,4.33877,-0.0245806
116.8,2.04793,4.3433,-0.024589
117.2,2.06133,4.33941,-0.0245773
117.6,2.07418,4.34169,-0.0237477
118,2.0874,4.33746,-0.0232456
118.4,2.10043,4.34995,-0.0232764
118.8,2.1133,4.34824,-0.0232818
119.2,2.12663,4.35196,-0.0232797
119.6,2.13946,4.35544,-0.02328
120,2.15251,4.3617,-0.02328
120.4,2.16571,4.3623,-0.02328
120.8,2.1784,4.36452,-0.02328
121.2,2.19144,4.36689,-0.0232809
121.6,2.20511,4.37422,-0.0232737
122,2.21752,4.38099,-0.023296
122.4,2.23061,4.37905,-0.0233948
122.8,2.24418,4.38017,-0.0236994
123.2,2.25691,4.38463,-0.0232344
123.6,2.26953,4.39152,-0.0232793
124,2.28261,4.39102,-0.0232817
124.4,2.29566,4.39412,-0.0232797
124.8,2.30879,4.40147,-0.02328
125.2,2.3215,4.39769,-0.02328
125.6,2.33449,4.40433,-0.02328
126,2.34716,4.40768,-0.02328
126.4,2.36046,4.41567,-0.02328
126.8,2.37338,4.41715,-0.02328
127.2,2.38645,4.4234,-0.02328
127.6,2.39934,4.42427,-0.02328
128,2.41223,4.43515,-0.0232798
128.4,2.42521,4.43949,-0.023281
128.8,2.43777,4.43244,-0.0232779
129.2,2.4508,4.44497,-0.0232598
129.6,2.4633,4.45162,-0.02352705
130,2.47652,4.44217,-0.0244947
130.4,2.48965,4.45913,-0.0245951
130.8,2.50202,4.45891,-0.0240011
131.2,2.51521,4.46569,-0.0231991
131.6,2.52794,4.47051,-0.0232869
132,2.54118,4.47923,-0.0232815
132.4,2.55374,4.47869,-0.0232795
132.8,2.56653,4.47865,-0.0232801
133.2,2.57934,4.49347,-0.02328
133.6,2.59222,4.50011,-0.02328
134,2.60533,4.50018,-0.02328
134.4,2.6178,4.51293,-0.02328
134.8,2.63068,4.51132,-0.02328
135.2,2.64341,4.52239,-0.02328
135.6,2.65584,4.53136,-0.02328
136,2.6694,4.52727,-0.02328
136.4,2.68187,4.53611,-0.02328
136.8,2.69456,4.5404,-0.0232803
137.2,2.70779,4.55338,-0.0232792
137.6,2.72018,4.56265,-0.0232759
138,2.73315,4.56702,-0.0233275
138.4,2.74602,4.57302,-0.0228599
138.8,2.75862,4.57864,-0.0222927
139.2,2.77109,4.58282,-0.0222938
139.6,2.78394,4.58922,-0.0222887
140,2.7968,4.59458,-0.0222902
140.4,2.80975,4.59937,-0.02229
140.8,2.82221,4.60721,-0.02229
141.2,2.83456,4.61001,-0.0222899
141.6,2.84774,4.62641,-0.0222904
142,2.86016,4.62904,-0.0222918
142.4,2.87307,4.63401,-0.0222698
142.8,2.88562,4.63685,-0.0224885
143.2,2.89832,4.643,-0.0229329
143.6,2.91129,4.64934,-0.0229382
144,2.92371,4.66397,-0.02303599
144.4,2.93641,4.67016,-0.0237874
144.8,2.94892,4.67522,-0.0239442
145.2,2.96151,4.67948,-0.02394723
145.6,2.97432,4.68553,-0.0239132
146,2.98725,4.69912,-0.0241871
146.4,2.99943,4.70128,-0.0245992
146.8,3.01194,4.70037,-0.0245834
147.2,3.02468,4.71328,-0.0245915
147.6,3.03769,4.71431,-0.0245899
148,3.04925,4.71591,-0.02459
148.4,3.06194,4.72695,-0.02459001
148.8,3.07431,4.7328,-0.02459
149.2,3.08761,4.74423,-0.02459
149.6,3.10018,4.74457,-0.02459
150,3.11331,4.7589,-0.0245892
150.4,3.12606,4.76718,-0.0245936
150.8,3.13846,4.77801,-0.0245832
151.2,3.15098,4.77572,-0.0245245
151.6,3.16373,4.79176,-0.0235773
152,3.17602,4.7954,-0.0232365
152.4,3.1887,4.79573,-0.0232715
152.8,3.20142,4.81289,-0.0232717
153.2,3.21376,4.81449,-0.0232627
153.6,3.22633,4.82481,-0.023411
154,3.23893,4.82974,-0.0245649
154.4,3.25126,4.83494,-0.0245682
154.8,3.2638,4.84256,-0.0245994
155.2,3.27665,4.85488,-0.0245754
155.6,3.28908,4.8568,-0.0245976
156,3.30173,4.86888,-0.0237326
156.4,3.31392,4.86938,-0.0232205
156.8,3.32652,4.88012,-0.0232773
157.2,3.33909,4.88497,-0.0232699
157.6,3.3516,4.89751,-0.0232698
158,3.36432,4.90284,-0.0232701
158.4,3.37669,4.90586,-0.0232697
158.8,3.38924,4.9142,-0.0232701
159.2,3.4017,4.92575,-0.0232773
159.6,3.41431,4.92978,-0.0232151
160,3.42684,4.93823,-0.0237453
160.4,3.43921,4.93552,-0.0245965
160.8,3.45181,4.94486,-0.0256587
161.2,3.46436,4.95959,-0.0255561
161.6,3.47666,4.96805,-0.0255901
162,3.48946,4.97363,-0.0255772
162.4,3.5016,4.98399,-0.0253809
162.8,3.51415,4.9933,-0.0243259
163.2,3.5266,4.99625,-0.0242571
163.6,3.53915,5.00553,-0.0242601
164,3.55176,5.01082,-0.02426
164.4,3.56421,5.01765,-0.0242609
164.8,3.57665,5.02339,-0.0242567
165.2,3.58912,5.03219,-0.0242624
165.6,3.60154,5.0393,-0.0243466
166,3.6138,5.04948,-0.02527645
166.4,3.62655,5.05268,-0.0256081
166.8,3.63915,5.05719,-0.0255788
167.2,3.65138,5.06581,-0.0255792
167.6,3.66374,5.07574,-0.0255805
168,3.67632,5.08696,-0.025579
168.4,3.68886,5.09303,-0.0255819
168.8,3.70138,5.10262,-0.0255968
169.2,3.71303,5.10329,-0.0253766
169.6,3.72622,5.10827,-0.024432
170,3.73837,5.11788,-0.0242491
170.4,3.74993,5.13763,-0.0242574
170.8,3.76248,5.1334,-0.0242675
171.2,3.77476,5.14581,-0.0242195
171.6,3.78789,5.15541,-0.0245517
172,3.80053,5.16439,-0.0245841
172.4,3.81291,5.16202,-0.0246212
172.8,3.82512,5.17207,-0.0255013
173.2,3.83765,5.18232,-0.0259418
173.6,3.84994,5.19035,-0.0262947
174,3.86211,5.19899,-0.0273161
174.4,3.87467,5.20365,-0.0272087
174.8,3.88735,5.20805,-0.02723255
175.2,3.89955,5.21679,-0.0272301
175.6,3.91177,5.21807,-0.0272301
176,3.9243,5.22497,-0.0272281
176.4,3.93671,5.2342,-0.0272378
176.8,3.94921,5.24573,-0.0272202
177.2,3.96157,5.24779,-0.0270956
177.6,3.97378,5.25783,-0.0260756
178,3.98651,5.26433,-0.0252014
178.4,3.9988,5.27915,-0.0245928
178.8,4.01081,5.28245,-0.0245941
179.2,4.02319,5.29369,-0.0245504
179.6,4.0357,5.29612,-0.0249121
180,4.04788,5.31069,-0.0258589
180.4,4.06056,5.30641,-0.0271107
180.8,4.07259,5.32667,-0.0273486
181.2,4.08501,5.33492,-0.0273378
181.6,4.09718,5.34161,-0.0273399
182,4.10934,5.34478,-0.0273401
182.4,4.12175,5.36078,-0.0273542
182.8,4.13412,5.36503,-0.02723237
183.2,4.14686,5.37247,-0.0281271
183.6,4.15844,5.37448,-0.0280747
184,4.17116,5.4,-0.027306
184.4,4.18313,5.3988,-0.0273237
184.8,4.19583,5.40425,-0.027419
185.2,4.20821,5.4098,-0.0264537
185.6,4.22038,5.41547,-0.0260168
186,4.23237,5.42892,-0.0260195
186.4,4.24389,5.43955,-0.0260321
186.8,4.25717,5.44742,-0.02598266
187.2,4.26931,5.45944,-0.0266817
187.6,4.2817,5.46587,-0.0274032
188,4.29405,5.47342,-0.0277856
188.4,4.30639,5.48042,-0.0280147
188.8,4.31826,5.49226,-0.0279871
189.2,4.33057,5.50168,-0.0279899
189.6,4.34237,5.50798,-0.0279902
190,4.35445,5.51864,-0.0279896
190.4,4.36744,5.5212,-0.0279914
190.8,4.3794,5.53576,-0.0279903
191.2,4.3917,5.54361,-0.0279475
191.6,4.40435,5.54903,-0.0284424
192,4.41627,5.55813,-0.0292866
192.4,4.42849,5.56643,-0.0293109
192.8,4.44106,5.58807,-0.0293103
193.2,4.4529,5.595,-0.0293099
193.6,4.46538,5.60243,-0.02931
194,4.47731,5.61444,-0.02931
194.4,4.48968,5.61901,-0.02931
194.8,4.50184,5.62878,-0.02931
195.2,4.51418,5.64377,-0.02931
195.6,4.52656,5.64415,-0.02931
196,4.53866,5.66252,-0.02931
196.4,4.55054,5.68082,-0.02931
196.8,4.56301,5.68791,-0.02931
197.2,4.57482,5.7113,-0.02931
197.6,4.58723,5.72194,-0.02931
198,4.59966,5.73262,-0.02931
198.4,4.6117,5.74523,-0.0293104
198.8,4.62409,5.76445,-0.0293066
199.2,4.63609,5.78159,-0.029323
199.6,4.64863,5.79308,-0.029292
200,4.66069,5.81733,-0.0300824
200.4,4.67306,5.83729,-0.0306853
200.8,4.68486,5.85423,-0.0306173
201.2,4.69752,5.87291,-0.0306313
201.6,4.70928,5.89867,-0.03062999
202,4.72162,5.924,-0.0306299
202.4,4.73415,5.96299,-0.03063
202.8,4.74623,5.99082,-0.03063
203.2,4.75851,6.0228,-0.03063
203.6,4.77066,6.06576,-0.03063
204,4.78292,6.10327,-0.0306301
204.4,4.79522,6.1344,-0.0306296
204.8,4.80752,6.1706,-0.0306311
205.2,4.82015,6.20898,-0.0306328
205.6,4.83205,6.24191,-0.030587
206,4.8445,6.29229,-0.0309653
206.4,4.85667,6.3403,-0.03134954
206.8,4.8693,6.39421,-0.0312887
207.2,4.88146,6.45112,-0.0320078
207.6,4.89381,6.51534,-0.0319322
208,4.9062,6.58644,-0.0319532
208.4,4.91834,6.65489,-0.0319498
208.8,4.93115,6.73689,-0.03194993
209.2,4.94352,6.81959,-0.03195
209.6,4.95576,6.9219,-0.03195
210,4.9685,7.03826,-0.03195
210.4,4.98102,7.15054,-0.03195
210.8,4.9936,7.26851,-0.0319499
211.2,5.00621,7.4097,-0.0319504
211.6,5.01851,7.55249,-0.0319516
212,5.03146,7.70325,-0.0319267
212.4,5.04417,7.86519,-0.031101
212.8,5.05739,8.04749,-0.03057995
213.2,5.0698,8.21618,-0.0306424
213.6,5.08261,8.40322,-0.0306413
214,5.09559,8.6055,-0.0306395
214.4,5.10879,8.8037,-0.0306401
214.8,5.1215,9.0176,-0.03064
215.2,5.13439,9.23486,-0.03064
215.6,5.14757,9.46596,-0.03064
216,5.16046,9.68472,-0.03064
216.4,5.17322,9.91463,-0.03064
216.8,5.1863,10.1262,-0.0306401
217.2,5.19934,10.3486,-0.03064
217.6,5.21204,10.558,-0.0306363
218,5.22525,10.7824,-0.0306646
218.4,5.23822,11.0065,-0.0305883
218.8,5.25109,11.2094,-0.0317438
219.2,5.26389,11.425,-0.0319573
219.6,5.27695,11.6328,-0.0319491
220,5.2895,11.8277,-0.03195
220.4,5.30282,12.029,-0.03195
220.8,5.31564,12.2115,-0.03195
221.2,5.32824,12.3747,-0.03195
221.6,5.34094,12.5051,-0.03194963
222,5.35343,12.5978,-0.0319537
222.4,5.36567,12.6223,-0.0319318
222.8,5.37768,12.5483,-0.0319989
223.2,5.38914,12.3786,-0.0312977
223.6,5.40046,12.1068,-0.0312745
224,5.41147,11.7769,-0.0309352
224.4,5.42221,11.4229,-0.0309804
224.8,5.43318,11.058,-0.0309671
225.2,5.44403,10.7106,-0.0309708
225.6,5.45495,10.3863,-0.0309698
226,5.46617,10.0585,-0.03097
226.4,5.47732,9.76673,-0.03097
226.8,5.48841,9.49416,-0.03097
227.2,5.49967,9.23016,-0.03097
227.6,5.51083,8.9972,-0.0309694
228,5.5223,8.75923,-0.0309825
228.4,5.53279,8.56398,-0.0316598
228.8,5.54458,8.3595,-0.03236
229.2,5.55653,8.16902,-0.0322658
229.6,5.56792,7.99466,-0.03228185
230,5.57934,7.82959,-0.03228
230.4,5.591,7.68236,-0.03227991
230.8,5.60244,7.54099,-0.03228
231.2,5.61377,7.42699,-0.0322801
231.6,5.62565,7.29563,-0.0322795
232,5.63761,7.17431,-0.0322813
232.4,5.64902,7.06667,-0.0322788
232.8,5.66057,6.98181,-0.0327249
233.2,5.67231,6.8925,-0.0336874
233.6,5.68421,6.79951,-0.0335752
234,5.69596,6.72651,-0.0336045
234.4,5.70758,6.64941,-0.0335994
234.8,5.7194,6.57702,-0.0336
235.2,5.73133,6.51555,-0.0335999
235.6,5.74284,6.46512,-0.0336006
236,5.75465,6.40596,-0.0335981
236.4,5.76666,6.35877,-0.0335981
236.8,5.77843,6.31315,-0.0330223
237.2,5.79057,6.27122,-0.0321919
237.6,5.80219,6.22733,-0.0322962
238,5.81433,6.18906,-0.0322786
238.4,5.82612,6.16482,-0.0322798
238.8,5.83779,6.13077,-0.0322801
239.2,5.84985,6.10345,-0.03228
239.6,5.8618,6.07734,-0.0322803
240,5.87379,6.04617,-0.0322784
240.4,5.88559,6.03088,-0.0322872
240.8,5.89798,6.01094,-0.0322643
241.2,5.90928,5.98878,-0.0322835
241.6,5.92132,5.97466,-0.0311533
242,5.93327,5.96351,-0.0309523
242.4,5.9451,5.94876,-0.0309616
242.8,5.95722,5.93164,-0.03096
243.2,5.96928,5.91559,-0.03096
243.6,5.9812,5.91374,-0.0315043
244,5.99322,5.89562,-0.0326107
244.4,6.00537,5.88601,-0.03247397
244.8,6.01736,5.88258,-0.0325046
245.2,6.02925,5.86995,-0.0324996
245.6,6.04115,5.86295,-0.0330026
246,6.05312,5.85176,-0.0339144
246.4,6.06526,5.84592,-0.0337991
246.8,6.07702,5.83906,-0.0338232
247.2,6.089,5.83419,-0.0338199
247.6,6.10124,5.83372,-0.0338199
248,6.11305,5.82424,-0.0338196
248.4,6.12516,5.82242,-0.0338217
248.8,6.13735,5.81902,-0.0338147
249.2,6.14913,5.81158,-0.0341312
249.6,6.16095,5.80828,-0.0351979
250,6.17317,5.81218,-0.0346964
250.4,6.18524,5.80857,-0.0337178
250.8,6.19746,5.80544,-0.033834
251.2,6.20931,5.80251,-0.0338061
251.6,6.22058,5.79529,-0.0338101
252,6.23332,5.79409,-0.0338128
252.4,6.24539,5.80093,-0.0337964
252.8,6.25739,5.79701,-0.03385
253.2,6.26934,5.78578,-0.03316
253.6,6.28132,5.79033,-0.0324588
254,6.29362,5.78028,-0.0325133
254.4,6.30556,5.78841,-0.0324971
254.8,6.31751,5.78987,-0.0325003
255.2,6.32948,5.78946,-0.0325
255.6,6.34146,5.78685,-0.0325
256,6.35343,5.78066,-0.0325
256.4,6.36518,5.78418,-0.0325
256.8,6.3771,5.78134,-0.0325
257.2,6.38959,5.78471,-0.0325
257.6,6.40172,5.78865,-0.0324999
258,6.41391,5.784,-0.0325004
258.4,6.42589,5.78102,-0.032498
258.8,6.43767,5.78238,-0.0325052
259.2,6.44951,5.77504,-0.0325029
259.6,6.46172,5.78277,-0.0329245
260,6.4735,5.77635,-0.0331988
260.4,6.48534,5.77564,-0.0331214
260.8,6.49779,5.77654,-0.033449
261.2,6.50986,5.7741,-0.0334872
261.6,6.52204,5.77224,-0.0334975
262,6.534,5.77515,-0.0334591
262.4,6.54614,5.77419,-0.0337171
262.8,6.5583,5.7701,-0.0338166
263.2,6.56986,5.77359,-0.0338109
263.6,6.58199,5.76955,-0.0338101
264,6.59424,5.77199,-0.0337941
264.4,6.60627,5.77487,-0.0329588
264.8,6.61843,5.7688,-0.0324271
265.2,6.6302,5.77742,-0.0324945
265.6,6.64172,5.76534,-0.03249158
266,6.65455,5.76882,-0.0324858
266.4,6.66659,5.77324,-0.0325037
266.8,6.67841,5.77173,-0.0324643
267.2,6.69072,5.77988,-0.0332636
267.6,6.70264,5.77334,-0.033862
268,6.7146,5.77399,-0.0337978
268.4,6.7268,5.77131,-0.0338119
268.8,6.73861,5.77412,-0.0338099
269.2,6.7509,5.77298,-0.03381
269.6,6.76273,5.77741,-0.03381
270,6.77482,5.7695,-0.03381
270.4,6.78679,5.76766,-0.03381
270.8,6.79912,5.76576,-0.03381
271.2,6.81104,5.78051,-0.03381
271.6,6.82294,5.77552,-0.03381
272,6.8351,5.77563,-0.03381
272.4,6.84706,5.7762,-0.03381
272.8,6.85927,5.77446,-0.03381
273.2,6.87134,5.77634,-0.03381
273.6,6.88336,5.78051,-0.0338097
274,6.89546,5.78051,-0.0338113
274.4,6.90755,5.77969,-0.0338062
274.8,6.91864,5.78053,-0.03381714
275.2,6.9313,5.77709,-0.0339012
275.6,6.94369,5.78022,-0.0346853
276,6.95546,5.77291,-0.0348169
276.4,6.96758,5.77341,-0.0347738
276.8,6.97997,5.78377,-0.0348479
277.2,6.99187,5.78013,-0.03373114
277.6,7.00414,5.77024,-0.03348502
278,7.01624,5.78198,-0.0334919
278.4,7.02785,5.78632,-0.0334884
278.8,7.04015,5.77951,-0.0334861
279.2,7.05222,5.78189,-0.0335465
279.6,7.06453,5.78094,-0.0329818
280,7.07632,5.78352,-0.0324375
280.4,7.08843,5.77797,-0.0325042
280.8,7.10098,5.77993,-0.0325015
281.2,7.11257,5.78412,-0.0324995
281.6,7.12464,5.7836,-0.0325001
282,7.13675,5.78112,-0.0325
282.4,7.1489,5.78628,-0.0325
282.8,7.16047,5.78847,-0.03249994
283.2,7.17301,5.78315,-0.0325008
283.6,7.18497,5.78244,-0.0324959
284,7.19646,5.7867,-0.032516
284.4,7.20813,5.79442,-0.0324676
284.8,7.22075,5.7876,-0.0332777
285.2,7.23283,5.78479,-0.03386803
285.6,7.24531,5.77968,-0.0338094
286,7.25744,5.78171,-0.0338214
286.4,7.26924,5.78794,-0.03382
286.8,7.28171,5.78874,-0.0338201
287.2,7.29385,5.79061,-0.0338191
287.6,7.30571,5.79166,-0.033824
288,7.31762,5.78789,-0.03380927
288.4,7.3298,5.78462,-0.0338045
288.8,7.34204,5.78351,-0.0329364
289.2,7.35402,5.78518,-0.03245159
289.6,7.36602,5.79154,-0.0325072
290,7.37842,5.79461,-0.0325061
290.4,7.39027,5.79138,-0.0324885
290.8,7.40244,5.79178,-0.0323841
291.2,7.41456,5.79638,-0.0312809
291.6,7.42658,5.79362,-0.031174
292,7.43864,5.7856,-0.0311807
292.4,7.45068,5.78437,-0.03117991
292.8,7.46307,5.78915,-0.0311813
293.2,7.4749,5.7847,-0.0311727
293.6,7.4869,5.7831,-0.0312031
294,7.49912,5.79298,-0.0311683
294.4,7.51132,5.78104,-0.0323091
294.8,7.52354,5.78572,-0.0325072
295.2,7.53534,5.78204,-0.0324984
295.6,7.5475,5.77665,-0.0325002
296,7.55958,5.7834,-0.0325
296.4,7.57189,5.78779,-0.0325
296.8,7.58376,5.78185,-0.0325001
297.2,7.59593,5.78035,-0.0324996
297.6,7.60771,5.77777,-0.032501
298,7.61994,5.78135,-0.0325021
298.4,7.63212,5.77538,-0.033106
298.8,7.64451,5.77776,-0.0339189
299.2,7.6564,5.78926,-0.0338035
299.6,7.66846,5.77157,-0.0338212
300,7.68065,5.77827,-0.0338203
300.4,7.69274,5.77323,-0.0338199
300.8,7.70501,5.77714,-0.03382
301.2,7.71684,5.7718,-0.03382
301.6,7.72915,5.77859,-0.03382
302,7.74108,5.76521,-0.03381999
302.4,7.75322,5.76609,-0.0338203
302.8,7.76541,5.77432,-0.0338183
303.2,7.77764,5.77035,-0.0338265
303.6,7.78969,5.76102,-0.0335601
304,7.80147,5.76441,-0.0324455
304.4,7.81313,5.7741,-0.0325265
304.8,7.82531,5.77104,-0.0324943
305.2,7.83799,5.77272,-0.0325009
305.6,7.85035,5.76825,-0.03249996
306,7.86233,5.76516,-0.03249993
306.4,7.87428,5.77128,-0.0325005
306.8,7.88683,5.76749,-0.0324979
307.2,7.89797,5.76993,-0.032506
307.6,7.91092,5.75886,-0.0325048
308,7.92316,5.76137,-0.0328787
308.4,7.9354,5.75796,-0.0335264
308.8,7.94742,5.759,-0.034392
309.2,7.95976,5.75399,-0.0344673
309.6,7.97155,5.75728,-0.0344732
310,7.9837,5.76324,-0.034469
310.4,7.99595,5.75318,-0.0344702
310.8,8.00796,5.7553,-0.03447
311.2,8.02008,5.75999,-0.03447
311.6,8.03236,5.74649,-0.03447
312,8.044,5.74818,-0.03447
312.4,8.05566,5.74692,-0.03447
312.8,8.06795,5.74734,-0.03447
313.2,8.08087,5.75418,-0.03447
313.6,8.0929,5.75351,-0.03447
314,8.10505,5.75797,-0.03447
314.4,8.11708,5.75222,-0.03447
314.8,8.12931,5.75574,-0.03447
315.2,8.14147,5.75499,-0.03447
315.6,8.15377,5.75923,-0.0344702
316,8.16561,5.7606,-0.0344691
316.4,8.17753,5.75075,-0.0344738
316.8,8.18973,5.76089,-0.0344637
317.2,8.20203,5.75248,-0.0344099
317.6,8.2146,5.75768,-0.0335115
318,8.22642,5.75003,-0.03310693
318.4,8.23888,5.75138,-0.033156
318.8,8.25068,5.7477,-0.03315
319.2,8.26297,5.74356,-0.03315052
319.6,8.27497,5.74877,-0.03314602
320,8.28713,5.75615,-0.0331626
320.4,8.29894,5.75015,-0.0331377
320.8,8.31145,5.74821,-0.0339845
321.2,8.32345,5.74344,-0.0345196
321.6,8.33557,5.7453,-0.0344621
322,8.34793,5.74583,-0.0344659
322.4,8.36019,5.74154,-0.0348774
322.8,8.37219,5.74521,-0.0358739
323.2,8.38459,5.74243,-0.0357665
323.6,8.39652,5.74386,-0.0357937
324,8.40889,5.74397,-0.03578986
324.4,8.4207,5.74197,-0.0357899
324.8,8.43302,5.73904,-0.03579
325.2,8.44509,5.73545,-0.03579
325.6,8.45713,5.74267,-0.03579
326,8.46875,5.74194,-0.03579
326.4,8.48094,5.74342,-0.03579
326.8,8.49319,5.74135,-0.0357899
327.2,8.50524,5.73324,-0.0357903
327.6,8.51737,5.74552,-0.0357892
328,8.53035,5.7482,-0.0357886
328.4,8.54256,5.74158,-0.0358246
328.8,8.55474,5.73974,-0.0354744
329.2,8.56687,5.75485,-0.0350041
329.6,8.57906,5.74822,-0.0360975
330,8.5911,5.74962,-0.0364571
330.4,8.60327,5.7416,-0.0364339
330.8,8.61571,5.73785,-0.0365226
331.2,8.62786,5.74059,-0.0358901
331.6,8.63997,5.74641,-0.035805
332,8.65142,5.743,-0.0357954
332.4,8.66401,5.75312,-0.03580125
332.8,8.67662,5.75537,-0.0357998
333.2,8.68874,5.75439,-0.0358
333.6,8.70092,5.75099,-0.0358
334,8.71314,5.75711,-0.0358
334.4,8.72542,5.75457,-0.0358
334.8,8.73747,5.74196,-0.0358
335.2,8.74993,5.75062,-0.0358
335.6,8.76204,5.74982,-0.0358
336,8.77374,5.75348,-0.0358
336.4,8.78646,5.75591,-0.0358
336.8,8.79862,5.75696,-0.0358
337.2,8.81082,5.75477,-0.0358
337.6,8.82295,5.75075,-0.0358
338,8.83531,5.75424,-0.0358
338.4,8.84752,5.76176,-0.0358
338.8,8.85955,5.75046,-0.03579998
339.2,8.87174,5.75683,-0.0358001
339.6,8.88401,5.75365,-0.0357991
340,8.89633,5.76026,-0.0358026
340.4,8.90829,5.74979,-0.0358024
340.8,8.92059,5.75915,-0.0356992
341.2,8.93289,5.75673,-0.0355206
341.6,8.94525,5.75208,-0.0358222
342,8.95724,5.75598,-0.0357857
342.4,8.96934,5.75548,-0.0357939
342.8,8.98166,5.7504,-0.0357404
343.2,8.99385,5.75016,-0.03623225
343.6,9.00628,5.75435,-0.0377768
344,9.01825,5.75439,-0.0384263
344.4,9.03063,5.7592,-0.0384297
344.8,9.04231,5.757838,-0.0384302
345.2,9.05458,5.75086,-0.0384299
345.6,9.06668,5.74789,-0.03843001
346,9.07959,5.7483,-0.03843
346.4,9.09187,5.7522,-0.03843
346.8,9.1041,5.74738,-0.03842995
347.2,9.11633,5.74988,-0.0384302
347.6,9.12864,5.74066,-0.0384297
348,9.14072,5.74861,-0.03842716
348.4,9.15311,5.75333,-0.03847529
348.8,9.16549,5.75092,-0.0394094
349.2,9.17759,5.74708,-0.03978098
349.6,9.18997,5.75789,-0.039257
350,9.20203,5.75541,-0.0386991
350.4,9.2146,5.75216,-0.0387704
350.8,9.22659,5.75802,-0.038759
351.2,9.2387,5.75195,-0.0387598
351.6,9.2511,5.75443,-0.0387601
352,9.26375,5.75479,-0.03876
352.4,9.27576,5.75557,-0.0387599
352.8,9.2877,5.75194,-0.0387603
353.2,9.30048,5.75389,-0.038761
353.6,9.31258,5.75683,-0.0387469
354,9.32483,5.75972,-0.0388802
354.4,9.33659,5.75294,-0.0396175
354.8,9.34917,5.75586,-0.0397514
355.2,9.36161,5.75858,-0.0397534
355.6,9.37378,5.75599,-0.0397495
356,9.38589,5.75549,-0.03974767
356.4,9.39839,5.76512,-0.0397542
356.8,9.41079,5.75705,-0.0397868
357.2,9.42292,5.76117,-0.0401142
357.6,9.4353,5.7565,-0.040072
358,9.44755,5.75883,-0.0400824
358.4,9.45986,5.75342,-0.0400826
358.8,9.47209,5.75537,-0.0406832
359.2,9.48443,5.75723,-0.0414741
359.6,9.49681,5.7663,-0.0413785
360,9.50925,5.75831,-0.0413898
360.4,9.52131,5.75842,-0.0419105
360.8,9.53377,5.75984,-0.0428137
361.2,9.54579,5.74848,-0.042691
361.6,9.55828,5.75828,-0.0427115
362,9.57066,5.75822,-0.0427103
362.4,9.58286,5.77147,-0.0427072
362.8,9.59513,5.76852,-0.0427308
363.2,9.60735,5.76383,-0.0426028
363.6,9.61981,5.767,-0.0433757
364,9.63168,5.76822,-0.04371099
364.4,9.64492,5.77565,-0.043698
364.8,9.65693,5.77476,-0.0437002
365.2,9.66934,5.77313,-0.0437
365.6,9.68164,5.77679,-0.0436968
366,9.69385,5.78192,-0.0437234
366.4,9.70606,5.78278,-0.0436034
366.8,9.71844,5.78599,-0.0446094
367.2,9.73081,5.7867,-0.04502451
367.6,9.7433,5.78192,-0.0450196
368,9.75554,5.79171,-0.0450132
368.4,9.76786,5.7946,-0.0452348
368.8,9.78016,5.79999,-0.04637163
369.2,9.79255,5.80381,-0.0463004
369.6,9.80511,5.79736,-0.0463461
370,9.81725,5.80341,-0.0459358
370.4,9.82955,5.80863,-0.0452816
370.8,9.84181,5.80849,-0.0454604
371.2,9.85409,5.81208,-0.0463849
371.6,9.86658,5.81131,-0.0466877
372,9.87897,5.82127,-0.0465866
372.4,9.89144,5.82332,-0.046313
372.8,9.90381,5.82373,-0.0471308
373.2,9.91587,5.82105,-0.0477086
373.6,9.92854,5.82369,-0.0476564
374,9.94083,5.82579,-0.0477556
374.4,9.95324,5.83375,-0.0488662
374.8,9.96567,5.83324,-0.0489768
375.2,9.978,5.83763,-0.0489674
375.6,9.99038,5.84211,-0.0489609
376,10.0026,5.84613,-0.0491124
376.4,10.015,5.85675,-0.0501192
376.8,10.0275,5.84652,-0.0504305
377.2,10.0401,5.85413,-0.0504379
377.6,10.0522,5.85972,-0.0515899
378,10.0646,5.85957,-0.0518374
378.4,10.0772,5.85861,-0.0518173
378.8,10.0894,5.86027,-0.0518199
379.2,10.1014,5.86662,-0.0518355
379.6,10.1144,5.87481,-0.0526708
380,10.1266,5.8745,-0.0531953
380.4,10.1392,5.87939,-0.0531395
380.8,10.1517,5.88467,-0.0531499
381.2,10.1639,5.88785,-0.0540004
381.6,10.1763,5.89744,-0.0546157
382,10.1886,5.8992,-0.05456672
382.4,10.2012,5.90487,-0.0546986
382.8,10.2137,5.90703,-0.0557973
383.2,10.2259,5.90627,-0.055898
383.6,10.2381,5.91521,-0.05585
384,10.2505,5.90878,-0.0566355
384.4,10.2633,5.91634,-0.0572728
384.8,10.2756,5.93231,-0.0570892
385.2,10.2882,5.93112,-0.0580766
385.6,10.3007,5.93636,-0.0586184
386,10.313,5.94271,-0.0589266
386.4,10.3254,5.94479,-0.0599825
386.8,10.3381,5.94375,-0.0600265
387.2,10.3506,5.95465,-0.0608241
387.6,10.3629,5.96284,-0.0615476
388,10.375,5.96823,-0.0615143
388.4,10.3877,5.97329,-0.0629718
388.8,10.4001,5.98225,-0.0631169
389.2,10.4127,5.98552,-0.063834
389.6,10.4252,5.98184,-0.0646721
390,10.4376,5.98734,-0.0644647
390.4,10.4501,5.99831,-0.0657218
390.8,10.4621,6.00419,-0.0660405
391.2,10.4742,6.01423,-0.0665974
391.6,10.4871,6.02283,-0.067551
392,10.4998,6.02872,-0.0684515
392.4,10.5121,6.03419,-0.0694522
392.8,10.525,6.03559,-0.0704986
393.2,10.5373,6.04156,-0.0709898
393.6,10.5499,6.05309,-0.07230469
394,10.5623,6.05476,-0.0728106
394.4,10.5747,6.06867,-0.0738583
394.8,10.5872,6.07336,-0.0744919
395.2,10.5998,6.07848,-0.0748177
395.6,10.6122,6.08302,-0.0762876
396,10.625,6.08441,-0.0764833
396.4,10.6373,6.10078,-0.0778461
396.8,10.6499,6.11202,-0.077984
397.2,10.6623,6.12413,-0.079403
397.6,10.6748,6.13178,-0.0800367
398,10.6874,6.14562,-0.081436
398.4,10.6998,6.15233,-0.08195404
398.8,10.7126,6.16509,-0.0835782
399.2,10.7247,6.17028,-0.0836607
399.6,10.7374,6.1856,-0.0848665
400,10.7498,6.20279,-0.0853511
400.4,10.7626,6.20193,-0.0866747
400.8,10.7751,6.20974,-0.0873382
401.2,10.7877,6.23054,-0.0884668
401.6,10.8001,6.24593,-0.0899776
402,10.8129,6.24753,-0.0910779
402.4,10.825,6.26129,-0.0925153
402.8,10.8377,6.26957,-0.09429254
403.2,10.8504,6.28561,-0.095406
403.6,10.8627,6.30277,-0.0968173
404,10.8754,6.31943,-0.0979672
404.4,10.888,6.31843,-0.0990258
404.8,10.9003,6.34316,-0.100527
405.2,10.9133,6.3575,-0.101729
405.6,10.9256,6.36805,-0.103217
406,10.93823,6.38379,-0.10491
406.4,10.9507,6.39978,-0.104961
406.8,10.9633,6.41481,-0.105937
407.2,10.9758,6.42468,-0.107411
407.6,10.9885,6.43743,-0.108496
408,11.0011,6.4545,-0.110157
408.4,11.0136,6.47542,-0.111212
408.8,11.0265,6.49721,-0.112408
409.2,11.0384,6.49966,-0.11416
409.6,11.051,6.52153,-0.11529
410,11.0635,6.53163,-0.117305
410.4,11.0759,6.55493,-0.119463
410.8,11.0894,6.57532,-0.12099
411.2,11.1016,6.57959,-0.123086
411.6,11.1144,6.60119,-0.124953
412,11.1274,6.61394,-0.127152
412.4,11.1398,6.63921,-0.128267
412.8,11.1523,6.65461,-0.129913
413.2,11.1653,6.67334,-0.131649
413.6,11.1775,6.69754,-0.134416
414,11.1904,6.71671,-0.136299
414.4,11.2028,6.73022,-0.138986
414.8,11.2157,6.75487,-0.1402559
415.2,11.2283,6.77953,-0.142626
415.6,11.241,6.79869,-0.143756
416,11.2536,6.82954,-0.1457544
416.4,11.2662,6.85165,-0.147254
416.8,11.279,6.88176,-0.149664
417.2,11.2914,6.90655,-0.151931
417.6,11.3043,6.92641,-0.155361
418,11.3168,6.95304,-0.157418
418.4,11.3297,6.9851,-0.161006
418.8,11.3422,7.0023,-0.162278
419.2,11.3551,7.0235,-0.164786
419.6,11.3679,7.04921,-0.166797
420,11.3802,7.07315,-0.169885
420.4,11.3933,7.1012,-0.171888
420.8,11.4053,7.12034,-0.174053
421.2,11.4186,7.15226,-0.176109
421.6,11.4313,7.18279,-0.179621
422,11.4441,7.22024,-0.181139
422.4,11.4565,7.25108,-0.184253
422.8,11.4694,7.2793,-0.186759
423.2,11.4821,7.29595,-0.190687
423.6,11.4946,7.32253,-0.192988
424,11.5076,7.37267,-0.196154
424.4,11.5205,7.41754,-0.19977
424.8,11.5331,7.456,-0.202395
425.2,11.5459,7.48951,-0.205469
425.6,11.5587,7.52473,-0.209086
426,11.5713,7.56686,-0.211888
426.4,11.5841,7.60459,-0.215053
426.8,11.5968,7.6306,-0.218418
427.2,11.6097,7.67605,-0.221076
427.6,11.6224,7.71484,-0.224209
428,11.6352,7.746,-0.228181
428.4,11.648,7.78622,-0.231783
428.8,11.6609,7.83026,-0.235004
429.2,11.6734,7.88092,-0.238724
429.6,11.6865,7.93286,-0.2425
430,11.6992,7.97237,-0.245912
430.4,11.712,8.00511,-0.249918
430.8,11.7248,8.04588,-0.253538
431.2,11.7375,8.08487,-0.256684
431.6,11.75,8.12863,-0.261028
432,11.7633,8.17956,-0.266081
432.4,11.7758,8.2377,-0.269595
432.8,11.7889,8.28543,-0.274384
433.2,11.8019,8.33583,-0.279275
433.6,11.8147,8.38332,-0.282508
434,11.8274,8.4274,-0.286401
434.4,11.8402,8.49066,-0.291086
434.8,11.8531,8.52872,-0.29452
435.2,11.8661,8.57305,-0.29907
435.6,11.879,8.61037,-0.305284
436,11.8918,8.66687,-0.309638
436.4,11.9044,8.70734,-0.31443
436.8,11.9175,8.73582,-0.318972
437.2,11.9301,8.77246,-0.322786
437.6,11.9429,8.81094,-0.32729
438,11.9557,8.84701,-0.333487
438.4,11.9685,8.89587,-0.338703
438.8,11.9817,8.94285,-0.343936
439.2,11.9944,8.98446,-0.349831
439.6,12.0075,9.01139,-0.354526
440,12.02,9.04734,-0.358931
440.4,12.0321,9.07714,-0.364935
440.8,12.0458,9.12423,-0.372034
441.2,12.0585,9.18364,-0.377987
441.6,12.0716,9.24001,-0.385234
442,12.0846,9.29746,-0.391016
442.4,12.0968,9.35312,-0.395425
442.8,12.1107,9.50071,-0.402119
443.2,12.1236,9.6632,-0.409071
443.6,12.1367,9.70548,-0.415526
444,12.1494,9.72541,-0.423828
444.4,12.162,9.75712,-0.433287
444.8,12.1744,9.79453,-0.439682
445.2,12.1874,9.8283,-0.448351
445.6,12.2003,9.87528,-0.458143
446,12.2139,9.92632,-0.465054
446.4,12.2263,9.98688,-0.472425
446.8,12.2395,10.0619,-0.481922
447.2,12.2525,10.1443,-0.488602
447.6,12.2659,10.2288,-0.496624
448,12.2789,10.2941,-0.506067
448.4,12.2919,10.3848,-0.512896
448.8,12.3052,10.4701,-0.52131
449.2,12.3175,10.5562,-0.530625
449.6,12.331,10.651,-0.538555
450,12.344,10.7268,-0.548247
450.4,12.3573,10.8184,-0.560139
450.8,12.3703,10.9101,-0.568767
451.2,12.3836,10.9844,-0.578369
451.6,12.3969,11.1731,-0.589745
452,12.4097,11.2813,-0.598343
452.4,12.4227,11.3428,-0.608109
452.8,12.4359,11.4016,-0.620265
453.2,12.449,11.4762,-0.6300245
453.6,12.462,11.5603,-0.640289
454,12.4752,11.641,-0.653333
454.4,12.4886,11.7376,-0.664185
454.8,12.5015,11.838,-0.674847
455.2,12.5144,11.9294,-0.688121
455.6,12.528,12.0362,-0.699752
456,12.5409,12.1247,-0.710552
456.4,12.5542,12.2256,-0.723976
456.8,12.5672,12.3235,-0.735519
457.2,12.5802,12.4219,-0.746321
457.6,12.5935,12.5241,-0.759649
458,12.6067,12.6402,-0.771344
458.4,12.6197,12.7562,-0.782141
458.8,12.6331,12.8532,-0.796244
459.2,12.6469,13.1043,-0.8098
459.6,12.6604,13.3046,-0.822328
460,12.6735,13.4424,-0.837525
460.4,12.6868,13.5625,-0.851665
460.8,12.7005,13.696,-0.865533
461.2,12.7134,13.8224,-0.883615
461.6,12.7267,13.9722,-0.900902
462,12.7401,14.1253,-0.917208
462.4,12.7537,14.263,-0.937316
462.8,12.7667,14.3851,-0.954457
463.2,12.7802,14.5258,-0.970875
463.6,12.7932,14.5801,-0.99014
464,12.8062,14.6719,-1.00743
464.4,12.8195,14.7663,-1.02365
464.8,12.8323,14.8741,-1.04275
465.2,12.8462,14.9917,-1.0622
465.6,12.8594,15.1209,-1.07922
466,12.873,15.2747,-1.10024
466.4,12.886,15.3656,-1.11898
466.8,12.8992,15.4614,-1.13688
467.2,12.9125,15.5597,-1.15859
467.6,12.926,15.7017,-1.17985
468,12.939,15.8116,-1.19829
468.4,12.9523,15.9224,-1.22103
468.8,12.966,16.0717,-1.24362
469.2,12.9795,16.2281,-1.26339
469.6,12.9933,16.3997,-1.28798
470,13.0065,16.5656,-1.31006
470.4,13.0201,16.7276,-1.33097
470.8,13.0334,16.8404,-1.35653
471.2,13.0466,16.929,-1.37995
471.6,13.0601,17.0494,-1.40215
472,13.0735,17.185,-1.42937
472.4,13.0868,17.3107,-1.45373
472.8,13.1002,17.4357,-1.47693
473.2,13.1133,17.5396,-1.50456
473.6,13.1269,17.6621,-1.53051
474,13.1404,17.8665,-1.55447
474.4,13.1539,17.9904,-1.5842
474.8,13.1672,18.0805,-1.61045
475.2,13.1802,18.1501,-1.63494
475.6,13.1935,18.2192,-1.6661
476,13.207,18.3118,-1.69481
476.4,13.2202,18.4289,-1.72092
476.8,13.2335,18.523,-1.75283
477.2,13.2467,18.5642,-1.78148
477.6,13.2603,18.7154,-1.80883
478,13.273,18.7352,-1.84017
478.4,13.2862,18.7684,-1.86988
478.8,13.2993,18.8059,-1.8964
479.2,13.3129,18.8972,-1.93018
479.6,13.3258,18.8909,-1.96001
480,13.3389,18.898,-1.98673
480.4,13.3515,18.8674,-2.01785
480.8,13.3644,18.7809,-2.04931
481.2,13.3772,18.7072,-2.0747
481.6,13.39,18.6986,-2.10591
482,13.4026,18.6271,-2.13758
482.4,13.4154,18.5587,-2.16265
482.8,13.4284,18.4883,-2.19364
483.2,13.4409,18.4562,-2.22741
483.6,13.4538,18.3371,-2.25266
484,13.466,18.1802,-2.28101
484.4,13.4779,18.0082,-2.31386
484.8,13.491,17.8549,-2.33979
485.2,13.5033,17.6918,-2.36718
485.6,13.5155,17.4992,-2.39962
486,13.528,17.3078,-2.42601
486.4,13.5403,17.0602,-2.45179
486.8,13.5521,16.8364,-2.48071
487.2,13.5643,16.6077,-2.50944
487.6,13.5759,16.3758,-2.53143
488,13.5885,16.0885,-2.55931
488.4,13.6004,15.8164,-2.58946
488.8,13.6124,15.5385,-2.6109
489.2,13.6244,15.2364,-2.63652
489.6,13.6363,14.9404,-2.66605
490,13.6483,14.6135,-2.68868
490.4,13.6599,14.2976,-2.71048
490.8,13.6716,13.9667,-2.73563
491.2,13.6832,13.6431,-2.76017
491.6,13.6949,13.3005,-2.77901
492,13.7069,12.943,-2.80116
492.4,13.7187,12.6085,-2.82653
492.8,13.7301,12.2528,-2.84396
493.2,13.7416,11.9083,-2.86304
493.6,13.7534,11.5297,-2.88566
494,13.765,11.1821,-2.90544
494.4,13.7765,10.8341,-2.92149
494.8,13.7881,10.4727,-2.94033
495.2,13.8,10.1139,-2.96203
495.6,13.8116,9.76481,-2.97681
496,13.8231,9.42359,-2.99322
496.4,13.8343,9.09626,-3.01142
496.8,13.8457,8.75158,-3.02616
497.2,13.8578,8.413,-3.0395
497.6,13.8699,8.06607,-3.05595
498,13.8813,7.75399,-3.07222
498.4,13.893,7.41702,-3.0839
498.8,13.9047,7.10526,-3.09723
499.2,13.9164,6.7889,-3.11247
499.6,13.9281,6.48738,-3.12374
500,13.9397,6.20465,-3.13465
500.4,13.9518,5.90619,-3.14778
500.8,13.9636,5.62726,-3.16013
501.2,13.9748,5.36217,-3.16871
501.6,13.9869,5.09882,-3.17953
502,13.9991,4.82635,-3.19194
502.4,14.0108,4.58493,-3.19987
502.8,14.0226,4.34843,-3.20858
503.2,14.0345,4.11921,-3.21866
503.6,14.0462,3.90867,-3.22659
504,14.0578,3.69695,-3.23334
504.4,14.0698,3.49707,-3.24165
504.8,14.0822,3.29491,-3.25052
505.2,14.0949,3.10946,-3.25676
505.6,14.1069,2.9322,-3.26274
506,14.119,2.76572,-3.26956
506.4,14.1311,2.60386,-3.27458
506.8,14.1435,2.45594,-3.28016
507.2,14.1559,2.31824,-3.2866
507.6,14.1679,2.18093,-3.291
508,14.1802,2.06453,-3.29524
508.4,14.1926,1.94695,-3.30004
508.8,14.205,1.8367,-3.3047
509.2,14.2175,1.7211,-3.30869
509.6,14.2298,1.64118,-3.31325
510,14.2423,1.53655,-3.31814
510.4,14.2547,1.44869,-3.32132
510.8,14.2675,1.36589,-3.32509
511.2,14.2798,1.28687,-3.329
511.6,14.2925,1.2147,-3.33249
512,14.3049,1.14884,-3.33541
512.4,14.3174,1.08471,-3.33833
512.8,14.33,1.02967,-3.34053
513.2,14.3428,0.965891,-3.34364
513.6,14.3552,0.918838,-3.34522
514,14.368,0.858563,-3.34766
514.4,14.3806,0.811907,-3.34944
514.8,14.3932,0.767816,-3.35192
515.2,14.406,0.716724,-3.35296
515.6,14.4187,0.683115,-3.35396
516,14.4315,0.642411,-3.35546
516.4,14.4438,0.600645,-3.35689
516.8,14.4569,0.565966,-3.35868
517.2,14.4694,0.534315,-3.35904
517.6,14.4824,0.517377,-3.36067
518,14.4949,0.483216,-3.36095
518.4,14.5079,0.46871,-3.36254
518.8,14.5206,0.444515,-3.36276
519.2,14.5335,0.427008,-3.36414
519.6,14.5461,0.40925,-3.36474
520,14.5591,0.386118,-3.36497
520.4,14.572,0.369714,-3.36614
520.8,14.5846,0.351163,-3.36632
521.2,14.5971,0.337995,-3.36619
521.6,14.6097,0.334189,-3.36743
522,14.6232,0.319013,-3.36784
522.4,14.6363,0.313187,-3.36796
522.8,14.6492,0.302128,-3.36913
523.2,14.6623,0.300879,-3.36911
523.6,14.6749,0.293376,-3.36915
524,14.6879,0.290746,-3.36914
524.4,14.7005,0.279047,-3.36915
524.8,14.7139,0.270415,-3.36906
525.2,14.7267,0.271198,-3.36987
525.6,14.7396,0.262843,-3.370461
526,14.7525,0.258906,-3.37046
526.4,14.7654,0.252697,-3.37046
526.8,14.7785,0.25113,-3.37046
527.2,14.7913,0.250136,-3.37046
527.6,14.8044,0.247468,-3.37046
528,14.8172,0.252112,-3.37046
528.4,14.8299,0.251722,-3.37046
528.8,14.8432,0.242248,-3.3704
529.2,14.8561,0.240901,-3.37091
529.6,14.8694,0.239814,-3.37103
530,14.882,0.236183,-3.37077
530.4,14.895,0.23327,-3.3708
530.8,14.908,0.238693,-3.37079
531.2,14.921,0.23693,-3.37079
531.6,14.9343,0.227345,-3.37079
532,14.947,0.227937,-3.37079
532.4,14.96,0.230641,-3.37079
532.8,14.973,0.224582,-3.37079
533.2,14.9859,0.226556,-3.37079
533.6,14.9988,0.22063,-3.37079
534,15.0123,0.226913,-3.37079
534.4,15.0249,0.220566,-3.37079
534.8,15.038,0.217267,-3.37079
535.2,15.0509,0.216295,-3.37082
535.6,15.0642,0.2166003,-3.37054
536,15.0769,0.201944,-3.37046
536.4,15.0898,0.20952,-3.37046
536.8,15.1028,0.202651,-3.37047
537.2,15.1159,0.200249,-3.37044
537.6,15.129,0.191637,-3.37078
538,15.1421,0.194116,-3.37114
538.4,15.1552,0.196261,-3.37112
538.8,15.1682,0.192733,-3.37064
539.2,15.181,0.198075,-3.36971
539.6,15.1939,0.196838,-3.36981
540,15.2071,0.18312,-3.3698
540.4,15.2201,0.1946861,-3.3698
540.8,15.2331,0.194856,-3.3698
541.2,15.2464,0.196685,-3.36979
541.6,15.2593,0.197359,-3.36997
542,15.2723,0.192275,-3.37096
542.4,15.2854,0.188028,-3.37112
542.8,15.2981,0.19223,-3.37112
543.2,15.3114,0.188038,-3.37112
543.6,15.3243,0.180654,-3.37112
544,15.337,0.1845761,-3.37112
544.4,15.3499,0.184383,-3.37112
544.8,15.3628,0.186259,-3.37107
545.2,15.3764,0.189344,-3.37116
545.6,15.3891,0.186887,-3.37037
546,15.4022,0.183298,-3.37048
546.4,15.4157,0.184947,-3.37046
546.8,15.4288,0.184155,-3.37046
547.2,15.4419,0.183525,-3.37046
547.6,15.4548,0.183109,-3.37045
548,15.4678,0.172033,-3.37048
548.4,15.4812,0.185432,-3.37059
548.8,15.4941,0.178773,-3.37169
549.2,15.5072,0.184762,-3.37172
549.6,15.5203,0.186015,-3.37235
550,15.5334,0.180656,-3.37278
550.4,15.5464,0.184684,-3.37277
550.8,15.5595,0.170703,-3.37276
551.2,15.5727,0.172708,-3.37276
551.6,15.5857,0.175887,-3.37276
552,15.5988,0.178222,-3.37276
552.4,15.6119,0.183644,-3.37276
552.8,15.6249,0.171421,-3.37276
553.2,15.6379,0.175107,-3.37276
553.6,15.6512,0.181195,-3.37276
554,15.6641,0.171112,-3.37276
554.4,15.6773,0.164463,-3.37263
554.8,15.6906,0.169436,-3.37163
555.2,15.7035,0.173344,-3.37143
555.6,15.7166,0.165853,-3.37144
556,15.7297,0.175213,-3.37144
556.4,15.7428,0.165792,-3.37144
556.8,15.7559,0.163546,-3.37144
557.2,15.7691,0.161211,-3.37144
557.6,15.7822,0.170057,-3.37144
558,15.7955,0.170186,-3.37146
558.4,15.8082,0.154094,-3.37118
558.8,15.8212,0.173563,-3.37041
559.2,15.8346,0.165951,-3.37047
559.6,15.8476,0.166325,-3.37046
560,15.861,0.1561,-3.37046
560.4,15.874,0.162963,-3.37046
560.8,15.8871,0.151911,-3.37046
561.2,15.9004,0.160556,-3.37046
561.6,15.9133,0.158853,-3.37046
562,15.9265,0.160749,-3.37046
562.4,15.9398,0.156894,-3.37046
562.8,15.9528,0.158541,-3.37036
563.2,15.9661,0.160326,-3.37138
563.6,15.9792,0.1593907,-3.37177
564,15.992,0.166176,-3.37178
564.4,16.0055,0.155581,-3.37177
564.8,16.0184,0.158367,-3.37177
565.2,16.0318,0.155553,-3.37177
565.6,16.0447,0.156001,-3.37177
566,16.0579,0.148176,-3.37172
566.4,16.071,0.147936,-3.37062
566.8,16.0842,0.146729,-3.37046
567.2,16.0975,0.140193,-3.37044
567.6,16.1104,0.142914,-3.37045
568,16.1236,0.154348,-3.37045
568.4,16.137,0.156039,-3.37062
568.8,16.15,0.148236,-3.37162
569.2,16.1633,0.152889,-3.37177
569.6,16.1762,0.140434,-3.37177
570,16.1896,0.142513,-3.37177
570.4,16.2026,0.138806,-3.37177
570.8,16.2159,0.131621,-3.37179
571.2,16.229,0.138899,-3.37155
571.6,16.2424,0.136613,-3.37145
572,16.2556,0.138494,-3.37108
572.4,16.2687,0.130557,-3.37112
572.8,16.2819,0.140462,-3.37111
573.2,16.2948,0.128521,-3.37111
573.6,16.3079,0.124725,-3.37114
574,16.3213,0.137136,-3.37082
574.4,16.3344,0.130842,-3.37079
574.8,16.3477,0.129872,-3.37078
575.2,16.3611,0.127609,-3.37078
575.6,16.3741,0.125411,-3.37078
576,16.3872,0.123648,-3.37078
576.4,16.4005,0.1259,-3.37078
576.8,16.4136,0.124193,-3.37078
577.2,16.427,0.125384,-3.37078
577.6,16.4399,0.121972,-3.37078
578,16.4532,0.124829,-3.37078
578.4,16.4663,0.119463,-3.37078
578.8,16.4796,0.112415,-3.37078
579.2,16.493,0.113829,-3.37077
579.6,16.5059,0.119639,-3.37081
580,16.5188,0.117207,-3.37075
580.4,16.532,0.120626,-3.37193
580.8,16.5459,0.108852,-3.3721
581.2,16.5592,0.12196,-3.37214
581.6,16.572,0.107614,-3.37178
582,16.5854,0.112294,-3.37178
582.4,16.5985,0.108693,-3.37177
582.8,16.6117,0.111103,-3.37177
583.2,16.6251,0.10471,-3.37177
583.6,16.6381,0.109282,-3.37177
584,16.6514,0.109992,-3.37181
584.4,16.6647,0.0997902,-3.37123
584.8,16.6783,0.104033,-3.37076
585.2,16.6913,0.0957962,-3.37077
585.6,16.7046,0.102489,-3.37078
586,16.7177,0.102638,-3.37078
586.4,16.7311,0.103642,-3.37078
586.8,16.7443,0.0995547,-3.37081
587.2,16.7574,0.0968837,-3.37035
587.6,16.7708,0.093476,-3.36948
588,16.7839,0.0881148,-3.36947
588.4,16.7971,0.098175,-3.36947
588.8,16.8103,0.0948472,-3.36947
589.2,16.8238,0.0904933,-3.36947
589.6,16.8371,0.0922019,-3.36947
590,16.8503,0.0849148,-3.36947
590.4,16.8635,0.086001,-3.36947
590.8,16.8769,0.080461,-3.36946
591.2,16.89,0.0777961,-3.36986
591.6,16.9034,0.0766577,-3.37089
592,16.9168,0.07970589,-3.37078
592.4,16.9298,0.0729086,-3.37076
592.8,16.9431,0.0719834,-3.37113
593.2,16.9557,0.0656635,-3.37112
593.6,16.9697,0.065696,-3.3711
594,16.9829,0.0563192,-3.37143
594.4,16.9963,0.06155432,-3.37181
594.8,17.0098,0.0583388,-3.37141
595.2,17.0229,0.0548937,-3.37037
595.6,17.0362,0.0604427,-3.37048
596,17.0493,0.0545954,-3.37046
596.4,17.0618,0.0496914,-3.37046
596.8,17.076,0.0581135,-3.37046
597.2,17.0892,0.0499943,-3.37046
597.6,17.1023,0.0479236,-3.37046
598,17.1155,0.0452956,-3.37046
598.4,17.1289,0.0480555,-3.37046
598.8,17.1423,0.043053,-3.37046
599.2,17.1556,0.0441371,-3.37046
599.6,17.1688,0.03722104,-3.37046
600,17.1821,0.0296927,-3.37046