File: 01_Data/SCBA_Bracket/STA/N2/30K_min/SCBA_Bracket_STA_N2_30KData_240729_R2.csv
Temp./C,Time/min,DSC/(mW/mg),Mass loss/mg
60,0,2.11746,-0.0154932
60.4,0.02020378,2.17426,-0.0159129
60.8,0.0398917,2.23947,-0.0158577
61.2,0.05965415,2.29935,-0.0158123
61.6,0.0788589,2.33755,-0.0150087
62,0.09794076,2.40579,-0.0152354
62.4,0.116816,2.45633,-0.0152033
62.8,0.135983,2.51873,-0.0161781
63.2,0.1536394,2.57041,-0.0167894
63.6,0.17223,2.61816,-0.016737
64,0.189916,2.67417,-0.0166801
64.4,0.207279,2.71216,-0.0163647
64.8,0.225531,2.76516,-0.0162116
65.2,0.242545,2.80605,-0.0163435
65.6,0.25993,2.85351,-0.0159828
66,0.276987,2.89153,-0.015483
66.4,0.293859,2.93087,-0.0163049
66.8,0.310801,2.98658,-0.016698
67.2,0.327393,3.01945,-0.0164304
67.6,0.343639,3.05589,-0.0169987
68,0.360348,3.1055,-0.0174253
68.4,0.376459,3.13521,-0.0172991
68.8,0.392325,3.17626,-0.0166681
69.2,0.40829,3.2125,-0.01730869
69.6,0.424522,3.24697,-0.0168763
70,0.440355,3.28048,-0.0161612
70.4,0.455592,3.31532,-0.016282
70.8,0.471623,3.34534,-0.0159871
71.2,0.48668,3.38346,-0.0154598
71.6,0.502462,3.40875,-0.0164248
72,0.518096,3.43931,-0.0166166
72.4,0.533588,3.46776,-0.0170377
72.8,0.54888,3.49484,-0.0173566
73.2,0.564156,3.53062,-0.0169719
73.6,0.579399,3.5471,-0.01805123
74,0.59407,3.58052,-0.0176739
74.4,0.609553,3.60554,-0.018056
74.8,0.623576,3.63048,-0.0174489
75.2,0.638951,3.64746,-0.017924
75.6,0.653937,3.67564,-0.0169878
76,0.668659,3.6959,-0.0176846
76.4,0.683956,3.72423,-0.01708549
76.8,0.697999,3.73303,-0.0180932
77.2,0.712634,3.75244,-0.01820106
77.6,0.727294,3.77687,-0.0184987
78,0.742204,3.80107,-0.0190767
78.4,0.75644,3.82588,-0.0188942
78.8,0.7714,3.84887,-0.0188888
79.2,0.784899,3.86275,-0.0188981
79.6,0.799362,3.87424,-0.0189019
80,0.814034,3.89318,-0.0187539
80.4,0.82822,3.91502,-0.0175732
80.8,0.842595,3.93182,-0.0177215
81.2,0.857242,3.94109,-0.0183677
81.6,0.871299,3.96747,-0.0174217
82,0.884292,3.9829,-0.0186624
82.4,0.899204,4.00147,-0.0189238
82.8,0.913523,4.01109,-0.0183641
83.2,0.927309,4.0429,-0.0185262
83.6,0.941644,4.04944,-0.0188995
84,0.95575,4.06846,-0.0179442
84.4,0.969615,4.0777,-0.0185965
84.8,0.983608,4.10095,-0.01820961
85.2,0.996816,4.11667,-0.017907
85.6,1.01129,4.12969,-0.01900054
86,1.02524,4.14865,-0.0189146
86.4,1.03868,4.15571,-0.0191867
86.8,1.05287,4.1746,-0.0192059
87.2,1.06706,4.1829,-0.0205697
87.6,1.08061,4.21268,-0.0207773
88,1.09434,4.22126,-0.0202604
88.4,1.10813,4.23697,-0.0208158
88.8,1.12167,4.24919,-0.0206644
89.2,1.13509,4.27043,-0.0209127
89.6,1.14891,4.27643,-0.0208153
90,1.16253,4.29926,-0.0213461
90.4,1.17584,4.31478,-0.0223222
90.8,1.18946,4.32656,-0.0222635
91.2,1.20355,4.34658,-0.0222655
91.6,1.21678,4.35972,-0.021392
92,1.23005,4.38193,-0.02093973
92.4,1.24389,4.3843,-0.0209694
92.8,1.2572,4.41003,-0.0212387
93.2,1.27077,4.42371,-0.0222637
93.6,1.28425,4.43859,-0.02228929
94,1.29743,4.45032,-0.0222255
94.4,1.31117,4.46996,-0.0226428
94.8,1.32428,4.47908,-0.0219625
95.2,1.33753,4.48399,-0.02208379
95.6,1.3513,4.4989,-0.0219941
96,1.36432,4.50719,-0.02184532
96.4,1.37758,4.51853,-0.0221961
96.8,1.39068,4.53245,-0.0221667
97.2,1.40473,4.5525,-0.0224906
97.6,1.41764,4.55253,-0.023678
98,1.43106,4.56935,-0.0225176
98.4,1.44424,4.58116,-0.0221687
98.8,1.45766,4.57774,-0.0221448
99.2,1.47091,4.58956,-0.022213
99.6,1.48414,4.60755,-0.0209929
100,1.49731,4.60395,-0.0217114
100.4,1.51037,4.61423,-0.0222289
100.8,1.52394,4.61223,-0.0221798
101.2,1.53724,4.6148,-0.022088
101.6,1.55036,4.62751,-0.0209353
102,1.5631,4.63215,-0.0208863
102.4,1.57661,4.62293,-0.0208963
102.8,1.59004,4.63442,-0.0218278
103.2,1.60298,4.64069,-0.0222059
103.6,1.61622,4.63735,-0.0221879
104,1.62942,4.64318,-0.0221586
104.4,1.64263,4.63572,-0.022104
104.8,1.6555,4.64038,-0.0209587
105.2,1.66861,4.64455,-0.021521
105.6,1.68211,4.64605,-0.0222486
106,1.69531,4.64625,-0.02218
106.4,1.70832,4.64945,-0.022178
106.8,1.72097,4.64917,-0.0221803
107.2,1.73455,4.65626,-0.022185
107.6,1.74784,4.65228,-0.0221593
108,1.76066,4.66099,-0.0221782
108.4,1.77418,4.65688,-0.0215082
108.8,1.78707,4.66191,-0.02219797
109.2,1.80048,4.66123,-0.0221593
109.6,1.8136,4.6525,-0.0222071
110,1.82653,4.65884,-0.0217105
110.4,1.83949,4.66193,-0.0208771
110.8,1.85265,4.66772,-0.0208611
111.2,1.86552,4.66715,-0.0208616
111.6,1.87829,4.67424,-0.0208693
112,1.89198,4.66177,-0.0221839
112.4,1.90455,4.67152,-0.0235954
112.8,1.91811,4.67061,-0.0234891
113.2,1.93072,4.6749,-0.0234621
113.6,1.94422,4.67726,-0.0235265
114,1.95711,4.68113,-0.0232474
114.4,1.97029,4.68579,-0.0232978
114.8,1.98343,4.69512,-0.0235192
115.2,1.99606,4.68819,-0.0235012
115.6,2.00959,4.70073,-0.0234992
116,2.02217,4.69468,-0.0235001
116.4,2.03564,4.69899,-0.0235004
116.8,2.04881,4.70155,-0.0234984
117.2,2.06092,4.71092,-0.0235021
117.6,2.07505,4.71238,-0.0235645
118,2.08784,4.7162,-0.022877
118.4,2.10105,4.72505,-0.0221822
118.8,2.11408,4.72316,-0.0221819
119.2,2.12728,4.72283,-0.0221795
119.6,2.14012,4.7349,-0.0221801
120,2.15325,4.73732,-0.0221795
120.4,2.16609,4.73899,-0.0221799
120.8,2.17851,4.74979,-0.0222066
121.2,2.19236,4.75152,-0.023159
121.6,2.20504,4.74914,-0.0235162
122,2.21823,4.76699,-0.0235061
122.4,2.23134,4.76898,-0.0234985
122.8,2.24406,4.76784,-0.0234998
123.2,2.257,4.77645,-0.02349914
123.6,2.27031,4.77533,-0.023544
124,2.28313,4.78574,-0.0245479
124.4,2.29606,4.78762,-0.0248145
124.8,2.30897,4.79024,-0.0248162
125.2,2.3223,4.79882,-0.0248086
125.6,2.33511,4.79734,-0.0248101
126,2.34756,4.80383,-0.02481
126.4,2.36117,4.81206,-0.02481
126.8,2.37383,4.80674,-0.02481
127.2,2.38673,4.82261,-0.02481
127.6,2.39989,4.82573,-0.02481
128,2.41244,4.83182,-0.02481
128.4,2.4257,4.83867,-0.02481
128.8,2.43854,4.84794,-0.0248099
129.2,2.45147,4.84474,-0.02481
129.6,2.46421,4.86297,-0.024812
130,2.47716,4.86617,-0.0247961
130.4,2.49005,4.87595,-0.02484248
130.8,2.50286,4.88047,-0.0240372
131.2,2.5155,4.88797,-0.0234325
131.6,2.5285,4.88726,-0.0234571
132,2.5415,4.89874,-0.0239528
132.4,2.55446,4.90452,-0.0247939
132.8,2.56736,4.91142,-0.0248099
133.2,2.58005,4.9208,-0.02481069
133.6,2.59314,4.91963,-0.0248082
134,2.60575,4.92548,-0.0248126
134.4,2.61856,4.93461,-0.0242971
134.8,2.63173,4.94355,-0.0233952
135.2,2.64431,4.95127,-0.0235019
135.6,2.6568,4.9523,-0.0234938
136,2.66989,4.97116,-0.0234912
136.4,2.68291,4.97535,-0.0233543
136.8,2.69591,4.98237,-0.0232459
137.2,2.70856,4.98487,-0.0234596
137.6,2.72093,5.00214,-0.0234886
138,2.73385,5.00957,-0.0234914
138.4,2.74642,5.01024,-0.0234897
138.8,2.75945,5.01624,-0.02349
139.2,2.77188,5.02893,-0.02349
139.6,2.78432,5.04369,-0.02349
140,2.797,5.04338,-0.02349
140.4,2.81037,5.06026,-0.0234907
140.8,2.82306,5.06279,-0.023485
141.2,2.83582,5.07495,-0.0235039
141.6,2.84846,5.07702,-0.0235486
142,2.86112,5.08668,-0.0242198
142.4,2.87402,5.09287,-0.0241362
142.8,2.88655,5.09619,-0.0241506
143.2,2.89926,5.11244,-0.02415027
143.6,2.91193,5.11457,-0.0241499
144,2.92434,5.12102,-0.02415
144.4,2.93742,5.13922,-0.02415
144.8,2.94997,5.13487,-0.02415
145.2,2.96235,5.14017,-0.02415
145.6,2.97503,5.1559,-0.02415
146,2.98756,5.15584,-0.02415
146.4,3.00055,5.16831,-0.02415
146.8,3.01304,5.18091,-0.02415
147.2,3.02593,5.18887,-0.0241501
147.6,3.03845,5.1897,-0.0241502
148,3.051,5.20104,-0.0241464
148.4,3.06367,5.20966,-0.0241689
148.8,3.07634,5.22075,-0.0241115
149.2,3.08871,5.21714,-0.0248254
149.6,3.10137,5.2301,-0.0251164
150,3.11417,5.23765,-0.0254984
150.4,3.12682,5.24798,-0.02546321
150.8,3.13908,5.25861,-0.02547078
151.2,3.15157,5.26573,-0.0254714
151.6,3.16469,5.27688,-0.0254628
152,3.17697,5.28303,-0.0254872
152.4,3.18956,5.29917,-0.025583
152.8,3.20202,5.30987,-0.0267106
153.2,3.21474,5.31383,-0.0267944
153.6,3.22701,5.312,-0.0267897
154,3.23954,5.33096,-0.0267899
154.4,3.25251,5.32931,-0.02679
154.8,3.26452,5.3381,-0.02679
155.2,3.27714,5.35093,-0.02679
155.6,3.28971,5.35337,-0.02679
156,3.30207,5.37027,-0.02679
156.4,3.31464,5.37569,-0.02679
156.8,3.32723,5.38942,-0.02679
157.2,3.3399,5.40264,-0.02679
157.6,3.3525,5.39915,-0.02679
158,3.365,5.40911,-0.02679
158.4,3.37748,5.4189,-0.02679
158.8,3.39031,5.42481,-0.02679
159.2,3.40242,5.42414,-0.02679
159.6,3.41488,5.44856,-0.02679
160,3.42746,5.45791,-0.02679
160.4,3.43999,5.4589,-0.02679
160.8,3.45245,5.46852,-0.02679
161.2,3.46489,5.4765,-0.02679
161.6,3.47742,5.48825,-0.02679
162,3.48949,5.49285,-0.02679
162.4,3.50207,5.49899,-0.02679
162.8,3.51445,5.51522,-0.0267894
163.2,3.52715,5.51361,-0.0267936
163.6,3.53995,5.5314,-0.0267802
164,3.5519,5.53478,-0.0267749
164.4,3.56448,5.5489,-0.025887
164.8,3.57667,5.54638,-0.0254355
165.2,3.58944,5.5512,-0.0254851
165.6,3.60175,5.5728,-0.0254801
166,3.61434,5.58244,-0.0254803
166.4,3.62665,5.59089,-0.0254767
166.8,3.63862,5.59596,-0.0254928
167.2,3.65179,5.60678,-0.02548912
167.6,3.66403,5.61303,-0.0263412
168,3.67664,5.62315,-0.0268416
168.4,3.68871,5.62831,-0.0267818
168.8,3.70131,5.64247,-0.0267901
169.2,3.71414,5.65154,-0.0267903
169.6,3.72597,5.66578,-0.0267899
170,3.73857,5.66234,-0.02679
170.4,3.75096,5.67545,-0.02679
170.8,3.76315,5.68707,-0.02679
171.2,3.77578,5.69352,-0.02679
171.6,3.78804,5.70721,-0.02679
172,3.80082,5.71283,-0.02679
172.4,3.81297,5.71918,-0.02679
172.8,3.82542,5.72748,-0.02679
173.2,3.83763,5.73585,-0.02679
173.6,3.8504,5.74061,-0.02679
174,3.86267,5.75891,-0.02679
174.4,3.87463,5.76269,-0.02679
174.8,3.88708,5.77612,-0.02679
175.2,3.89961,5.78067,-0.02679
175.6,3.91209,5.79197,-0.02679
176,3.92387,5.79803,-0.02679
176.4,3.93673,5.80673,-0.02679
176.8,3.94887,5.81933,-0.02679
177.2,3.96156,5.83052,-0.02679
177.6,3.97359,5.83762,-0.02679
178,3.98618,5.84809,-0.02679
178.4,3.99837,5.85693,-0.02679
178.8,4.01074,5.86173,-0.02679
179.2,4.02297,5.87721,-0.02679
179.6,4.03552,5.88101,-0.02679
180,4.04764,5.89584,-0.02679
180.4,4.06007,5.89847,-0.02679
180.8,4.07235,5.90771,-0.02679
181.2,4.08482,5.91994,-0.02679
181.6,4.09716,5.92732,-0.02679
182,4.10932,5.93172,-0.02679
182.4,4.1216,5.94444,-0.02679
182.8,4.13396,5.95832,-0.0267898
183.2,4.14631,5.96577,-0.0267917
183.6,4.1587,5.97157,-0.0267836
184,4.17096,5.9825,-0.0267972
184.4,4.183,5.98677,-0.026901
184.8,4.19539,6.00517,-0.02800343
185.2,4.20794,6.00725,-0.0281168
185.6,4.21981,6.0188,-0.0281092
186,4.23194,6.02359,-0.02811
186.4,4.24441,6.03922,-0.02811
186.8,4.25672,6.04861,-0.0281101
187.2,4.269,6.04651,-0.0281096
187.6,4.28129,6.05613,-0.0281102
188,4.2934,6.06997,-0.0281198
188.4,4.30566,6.08857,-0.0280393
188.8,4.3181,6.08996,-0.0287499
189.2,4.33022,6.10404,-0.0294224
189.6,4.34217,6.12085,-0.0294292
190,4.35472,6.12758,-0.0294306
190.4,4.36665,6.1311,-0.0294298
190.8,4.37884,6.14626,-0.0294299
191.2,4.39066,6.1456,-0.0294323
191.6,4.40362,6.15739,-0.0294143
192,4.4153,6.18162,-0.0295986
192.4,4.42785,6.17888,-0.0303747
192.8,4.44004,6.19692,-0.0304014
193.2,4.4521,6.20167,-0.0304145
193.6,4.4641,6.20274,-0.030409
194,4.47658,6.21648,-0.0304102
194.4,4.48863,6.23054,-0.03041
194.8,4.5011,6.23702,-0.03041
195.2,4.51291,6.2514,-0.03040999
195.6,4.52436,6.26236,-0.0304101
196,4.53643,6.27489,-0.0304095
196.4,4.54951,6.28691,-0.0304114
196.8,4.56199,6.30662,-0.0304124
197.2,4.57421,6.31738,-0.0303517
197.6,4.58653,6.3324,-0.0308779
198,4.59856,6.34476,-0.0317144
198.4,4.61074,6.36839,-0.0317304
198.8,4.62262,6.37454,-0.0317301
199.2,4.63514,6.40154,-0.0317299
199.6,4.64723,6.41941,-0.03173025
200,4.65948,6.43617,-0.0317301
200.4,4.67132,6.46319,-0.0317263
200.8,4.68389,6.48862,-0.0317628
201.2,4.69628,6.51969,-0.03136239
201.6,4.7083,6.54635,-0.0304616
202,4.72059,6.57604,-0.030426
202.4,4.73258,6.60333,-0.030416
202.8,4.74504,6.64107,-0.0304209
203.2,4.75709,6.67271,-0.0304206
203.6,4.76968,6.70836,-0.0304174
204,4.78166,6.74744,-0.030774
204.4,4.7943,6.78454,-0.0317531
204.8,4.80624,6.81897,-0.0322518
205.2,4.81838,6.87204,-0.0330298
205.6,4.8311,6.91334,-0.0330399
206,4.84308,6.95723,-0.03304043
206.4,4.85544,7.01765,-0.0330399
206.8,4.86767,7.07553,-0.03304
207.2,4.88032,7.12145,-0.03304
207.6,4.89272,7.18914,-0.03304
208,4.90412,7.26046,-0.03304
208.4,4.91659,7.34371,-0.0330397
208.8,4.92912,7.42429,-0.0330407
209.2,4.94219,7.52085,-0.03304451
209.6,4.95472,7.63872,-0.0329837
210,4.96737,7.74764,-0.0334457
210.4,4.98013,7.86806,-0.033268
210.8,4.99242,7.99954,-0.0330274
211.2,5.0048,8.1395,-0.0330508
211.6,5.01786,8.29002,-0.0330507
212,5.03038,8.44731,-0.0330499
212.4,5.04322,8.62173,-0.0330495
212.8,5.05597,8.80349,-0.0330512
213.2,5.06915,9.00074,-0.0330519
213.6,5.08183,9.20014,-0.0329966
214,5.09486,9.39966,-0.0334592
214.4,5.10768,9.62457,-0.03433
214.8,5.12074,9.85174,-0.0343615
215.2,5.13343,10.0837,-0.0343602
215.6,5.14646,10.324,-0.0343593
216,5.15994,10.5759,-0.0343634
216.4,5.17276,10.8328,-0.0343471
216.8,5.18546,11.0856,-0.0343751
217.2,5.19862,11.352,-0.03359311
217.6,5.21226,11.6252,-0.0329929
218,5.22484,11.8739,-0.0330637
218.4,5.23807,12.1466,-0.0330482
218.8,5.25137,12.424,-0.0330501
219.2,5.2645,12.6789,-0.033051
219.6,5.27757,12.9212,-0.0330429
220,5.29063,13.151,-0.0331491
220.4,5.3034,13.3504,-0.0341927
220.8,5.31576,13.5097,-0.0343566
221.2,5.32863,13.6184,-0.034365
221.6,5.34044,13.6486,-0.0343583
222,5.35298,13.5695,-0.03436017
222.4,5.3643,13.3854,-0.0343605
222.8,5.37537,13.1119,-0.034361
223.2,5.3863,12.7829,-0.0343339
223.6,5.39714,12.4082,-0.0335248
224,5.40797,12.0285,-0.0329913
224.4,5.41847,11.6717,-0.0330549
224.8,5.42893,11.3497,-0.0330533
225.2,5.44016,11.0045,-0.0330447
225.6,5.45126,10.6902,-0.033054
226,5.46204,10.4187,-0.0330893
226.4,5.47417,10.1164,-0.0342341
226.8,5.48477,9.88329,-0.0343701
227.2,5.49655,9.63016,-0.03436999
227.6,5.50787,9.40459,-0.03437
228,5.51925,9.19504,-0.0343701
228.4,5.53053,9.01151,-0.03437
228.8,5.54213,8.82098,-0.0343674
229.2,5.55352,8.65361,-0.0344102
229.6,5.56491,8.50437,-0.0353256
230,5.57647,8.35497,-0.0357132
230.4,5.5879,8.22415,-0.0356813
230.8,5.59953,8.08721,-0.0356784
231.2,5.61144,7.96364,-0.0356804
231.6,5.62293,7.86369,-0.03568016
232,5.63447,7.76078,-0.0356793
232.4,5.64613,7.66827,-0.0356793
232.8,5.65775,7.57957,-0.0357039
233.2,5.66958,7.49403,-0.0354537
233.6,5.68118,7.42102,-0.0345256
234,5.69302,7.35032,-0.0343573
234.4,5.70501,7.28968,-0.034368
234.8,5.71669,7.2304,-0.0343729
235.2,5.72856,7.1787,-0.0343626
235.6,5.74043,7.1262,-0.0343839
236,5.75223,7.08251,-0.0344226
236.4,5.76373,7.04172,-0.03545301
236.8,5.77553,6.99463,-0.0353341
237.2,5.78765,6.96736,-0.0353659
237.6,5.79908,6.92639,-0.0353591
238,5.81138,6.89834,-0.03536
238.4,5.82306,6.86651,-0.03536
238.8,5.83518,6.83719,-0.03536
239.2,5.84687,6.81897,-0.03536
239.6,5.85911,6.79462,-0.03536
240,5.87071,6.77436,-0.03536
240.4,5.88285,6.75378,-0.03536
240.8,5.89458,6.7358,-0.0353597
241.2,5.90628,6.72121,-0.0353616
241.6,5.91867,6.70621,-0.0353537
242,5.93056,6.69149,-0.03537297
242.4,5.94246,6.68094,-0.0349827
242.8,5.9545,6.66796,-0.0346845
243.2,5.96624,6.65827,-0.0335722
243.6,5.97832,6.65539,-0.0327132
244,5.99009,6.63061,-0.0327224
244.4,6.00224,6.6397,-0.0327198
244.8,6.0142,6.62153,-0.03272
245.2,6.02601,6.61997,-0.03272
245.6,6.03811,6.61175,-0.03272
246,6.05019,6.60657,-0.03272
246.4,6.062,6.59889,-0.03272
246.8,6.07395,6.60491,-0.03272
247.2,6.08603,6.59941,-0.03272
247.6,6.0978,6.59035,-0.0327201
248,6.11006,6.5918,-0.0327198
248.4,6.12188,6.58163,-0.0327196
248.8,6.13379,6.59054,-0.0327287
249.2,6.1459,6.5875,-0.0326618
249.6,6.15794,6.58073,-0.0331619
250,6.16987,6.58286,-0.0333998
250.4,6.18189,6.57018,-0.0333792
250.8,6.19385,6.57577,-0.03343
251.2,6.20588,6.57349,-0.0338883
251.6,6.21774,6.57603,-0.0340576
252,6.23013,6.57624,-0.0340382
252.4,6.24104,6.57121,-0.0340402
252.8,6.25416,6.57768,-0.0340422
253.2,6.26592,6.57698,-0.0340272
253.6,6.27817,6.56988,-0.0341976
254,6.29008,6.56481,-0.0349485
254.4,6.30209,6.56922,-0.035096
254.8,6.31396,6.57017,-0.0344201
255.2,6.32613,6.57242,-0.0339893
255.6,6.33789,6.56687,-0.0340301
256,6.35021,6.57157,-0.0340317
256.4,6.36209,6.56731,-0.0340294
256.8,6.37429,6.56907,-0.0340301
257.2,6.38627,6.56481,-0.0340303
257.6,6.39794,6.57046,-0.0340287
258,6.41019,6.57392,-0.0340328
258.4,6.42193,6.57413,-0.0336599
258.8,6.43431,6.56985,-0.0326219
259.2,6.44597,6.5685,-0.0327465
259.6,6.45839,6.57256,-0.0327158
260,6.4705,6.56921,-0.0327202
260.4,6.48236,6.56854,-0.0327195
260.8,6.49415,6.56974,-0.0327271
261.2,6.50632,6.57971,-0.032676
261.6,6.51812,6.58209,-0.0331067
262,6.5306,6.57572,-0.033998
262.4,6.54259,6.57339,-0.034022
262.8,6.55467,6.58037,-0.0340341
263.2,6.56648,6.58181,-0.034029
263.6,6.57861,6.57861,-0.0340302
264,6.59079,6.58101,-0.03403
264.4,6.60283,6.57388,-0.03403
264.8,6.61451,6.57928,-0.03403
265.2,6.6267,6.58912,-0.03403
265.6,6.6386,6.5791,-0.03403
266,6.65073,6.57728,-0.03403
266.4,6.66305,6.58862,-0.03403
266.8,6.67476,6.58593,-0.03403
267.2,6.68655,6.58514,-0.03403
267.6,6.69891,6.58466,-0.03403
268,6.71082,6.58429,-0.03403
268.4,6.72293,6.58224,-0.03403
268.8,6.73494,6.58413,-0.03403
269.2,6.74706,6.58295,-0.03403
269.6,6.75908,6.5837,-0.03403
270,6.77117,6.57309,-0.03403
270.4,6.78319,6.59102,-0.03403
270.8,6.79504,6.59147,-0.03403
271.2,6.80711,6.58583,-0.03403
271.6,6.81916,6.58294,-0.03403
272,6.83147,6.58984,-0.03403
272.4,6.84343,6.59494,-0.0340307
272.8,6.85547,6.59699,-0.0340244
273.2,6.86754,6.59888,-0.0340553
273.6,6.87941,6.59737,-0.0339476
274,6.89132,6.59034,-0.0350073
274.4,6.90358,6.59992,-0.0353572
274.8,6.91558,6.59583,-0.0353478
275.2,6.9276,6.59264,-0.0353505
275.6,6.93984,6.59642,-0.03535
276,6.95181,6.59263,-0.03535
276.4,6.96408,6.59184,-0.0353498
276.8,6.97593,6.60414,-0.0353509
277.2,6.9881,6.59314,-0.0353467
277.6,7,6.6019,-0.035353
278,7.01211,6.60122,-0.0354059
278.4,7.02431,6.6032,-0.0359826
278.8,7.03612,6.61145,-0.0363887
279.2,7.0482,6.60142,-0.0363297
279.6,7.06032,6.61033,-0.0363401
280,7.07233,6.60323,-0.0363468
280.4,7.08464,6.60985,-0.0363209
280.8,7.09672,6.61204,-0.03634
281.2,7.10884,6.6109,-0.0352114
281.6,7.12081,6.60628,-0.035013
282,7.13277,6.61509,-0.0350214
282.4,7.14485,6.61775,-0.0350198
282.8,7.15678,6.62004,-0.03501999
283.2,7.1688,6.61394,-0.03502
283.6,7.18135,6.61839,-0.03502
284,7.19315,6.61845,-0.03502
284.4,7.20519,6.62395,-0.03502
284.8,7.21733,6.61797,-0.03502
285.2,7.2296,6.62077,-0.03502
285.6,7.24174,6.61669,-0.03502
286,7.25366,6.61925,-0.0350199
286.4,7.26572,6.62665,-0.0350204
286.8,7.2778,6.63363,-0.0350178
287.2,7.28959,6.62872,-0.03502597
287.6,7.30175,6.6335,-0.0350248
288,7.31409,6.6308,-0.0347976
288.4,7.32613,6.63528,-0.0339257
288.8,7.33807,6.62425,-0.0340499
289.2,7.35015,6.63464,-0.0340282
289.6,7.36241,6.63393,-0.0340298
290,7.37447,6.63043,-0.03402998
290.4,7.38645,6.63671,-0.0340309
290.8,7.3985,6.62341,-0.03402647
291.2,7.41084,6.63991,-0.0340346
291.6,7.4226,6.63607,-0.0340728
292,7.43475,6.63727,-0.03495603
292.4,7.44678,6.63992,-0.0353962
292.8,7.45903,6.64346,-0.0353704
293.2,7.47105,6.64147,-0.03510743
293.6,7.4833,6.64235,-0.0341795
294,7.49532,6.63977,-0.0340286
294.4,7.50744,6.64865,-0.0340391
294.8,7.51952,6.64566,-0.0340413
295.2,7.53156,6.64732,-0.0340363
295.6,7.54372,6.64448,-0.0340594
296,7.55573,6.64988,-0.0339742
296.4,7.56815,6.64868,-0.03518813
296.8,7.58006,6.64239,-0.03666847
297.2,7.59213,6.64661,-0.0366535
297.6,7.60425,6.6428,-0.03667506
298,7.61648,6.64804,-0.036669
298.4,7.62854,6.65791,-0.0366692
298.8,7.64097,6.65537,-0.0366769
299.2,7.65245,6.64832,-0.0365606
299.6,7.6649,6.64419,-0.0354876
300,7.67703,6.64265,-0.0353669
300.4,7.6891,6.64026,-0.0353537
300.8,7.70129,6.65049,-0.0353616
301.2,7.7133,6.65585,-0.0353597
301.6,7.72554,6.65094,-0.03536003
302,7.73789,6.64786,-0.03536
302.4,7.74978,6.65373,-0.03536
302.8,7.76197,6.6497,-0.03536
303.2,7.77372,6.64433,-0.03536
303.6,7.78627,6.64629,-0.03536
304,7.7983,6.64506,-0.03536
304.4,7.81004,6.64626,-0.03536
304.8,7.82238,6.64564,-0.03536
305.2,7.83473,6.64564,-0.0353601
305.6,7.84682,6.6533,-0.0353594
306,7.85875,6.64956,-0.035362
306.4,7.87119,6.64382,-0.0353588
306.8,7.8833,6.64438,-0.0353179
307.2,7.89497,6.65019,-0.0356888
307.6,7.90743,6.64716,-0.0364318
308,7.91926,6.6463,-0.0363249
308.4,7.93156,6.64991,-0.0363394
308.8,7.94381,6.6515,-0.0364057
309.2,7.95595,6.64548,-0.036706
309.6,7.96805,6.65355,-0.03666334
310,7.97987,6.65847,-0.0366708
310.4,7.99219,6.6506,-0.0366701
310.8,8.00442,6.66103,-0.03667
311.2,8.01666,6.65426,-0.03667
311.6,8.02883,6.65199,-0.03667
312,8.04092,6.6619,-0.03667
312.4,8.0533,6.65692,-0.03667
312.8,8.0653,6.65663,-0.03667
313.2,8.07726,6.6569,-0.03667
313.6,8.08938,6.663,-0.03667
314,8.1015,6.65278,-0.03667
314.4,8.11378,6.65966,-0.03667
314.8,8.12558,6.65835,-0.03667
315.2,8.13805,6.65663,-0.03667
315.6,8.15001,6.66423,-0.03667
316,8.16215,6.65895,-0.03667
316.4,8.17443,6.65793,-0.03667
316.8,8.18656,6.65364,-0.03667
317.2,8.19826,6.65717,-0.03667
317.6,8.21074,6.66177,-0.03667
318,8.22294,6.66149,-0.03667
318.4,8.23515,6.66562,-0.03667
318.8,8.24737,6.65615,-0.03667
319.2,8.25941,6.66028,-0.03667
319.6,8.27181,6.64705,-0.03667
320,8.28382,6.65305,-0.03667006
320.4,8.29604,6.64711,-0.0366696
320.8,8.30805,6.65423,-0.0366718
321.2,8.32047,6.65724,-0.03666689
321.6,8.33279,6.65108,-0.0366477
322,8.34481,6.65154,-0.0369486
322.4,8.35682,6.6499,-0.0379276
322.8,8.36922,6.64223,-0.0379942
323.2,8.38114,6.64947,-0.0379899
323.6,8.39324,6.64489,-0.0379898
324,8.40536,6.64251,-0.0379901
324.4,8.41792,6.64062,-0.0379895
324.8,8.42991,6.63783,-0.03799118
325.2,8.44233,6.63981,-0.0379938
325.6,8.45421,6.63267,-0.0385992
326,8.46658,6.63711,-0.0393935
326.4,8.47866,6.63596,-0.0392945
326.8,8.49048,6.63981,-0.0393112
327.2,8.50304,6.62812,-0.0393103
327.6,8.51521,6.63439,-0.0393098
328,8.52745,6.62952,-0.0393106
328.4,8.53927,6.62303,-0.039308
328.8,8.5516,6.63036,-0.0393112
329.2,8.56402,6.63565,-0.03935776
329.6,8.57597,6.62819,-0.0398299
330,8.588,6.62566,-0.0395874
330.4,8.60065,6.62206,-0.0392839
330.8,8.61258,6.62445,-0.0393152
331.2,8.62507,6.62526,-0.0393098
331.6,8.63706,6.61639,-0.0393104
332,8.64912,6.61768,-0.0393008
332.4,8.66162,6.62455,-0.0393781
332.8,8.67298,6.62481,-0.03881242
333.2,8.68572,6.62188,-0.0386429
333.6,8.69782,6.62775,-0.0386413
334,8.71056,6.62047,-0.0386598
334.4,8.72225,6.61351,-0.03869032
334.8,8.73461,6.61563,-0.0393766
335.2,8.74666,6.61274,-0.0392903
335.6,8.7592,6.60938,-0.0395243
336,8.77135,6.60727,-0.0405648
336.4,8.78338,6.60746,-0.0406315
336.8,8.79559,6.60186,-0.0406325
337.2,8.80789,6.60161,-0.0406575
337.6,8.8201,6.60935,-0.0403307
338,8.83232,6.61089,-0.0393734
338.4,8.84442,6.61393,-0.0392998
338.8,8.85693,6.60278,-0.0393891
339.2,8.86886,6.60778,-0.04041513
339.6,8.88097,6.60917,-0.0406275
340,8.89348,6.60437,-0.0406254
340.4,8.90557,6.60968,-0.0406184
340.8,8.91775,6.60157,-0.04061985
341.2,8.93044,6.59507,-0.0406209
341.6,8.9422,6.6044,-0.0406235
342,8.95446,6.60493,-0.0405647
342.4,8.96684,6.59669,-0.0411198
342.8,8.97902,6.59542,-0.0419217
343.2,8.99132,6.59416,-0.0419402
343.6,9.00341,6.59564,-0.0419408
344,9.01587,6.59827,-0.0419359
344.4,9.02805,6.60311,-0.041956
344.8,9.04037,6.59566,-0.0419068
345.2,9.05267,6.59806,-0.0426714
345.6,9.0645,6.59654,-0.0429438
346,9.07704,6.59114,-0.0429266
346.4,9.08924,6.58768,-0.042931
346.8,9.1015,6.59804,-0.0429303
347.2,9.1139,6.58979,-0.0429116
347.6,9.12614,6.5905,-0.0430811
348,9.13827,6.59043,-0.0433057
348.4,9.15067,6.59867,-0.0430157
348.8,9.16281,6.58693,-0.0420849
349.2,9.17531,6.59037,-0.0426474
349.6,9.1873,6.58538,-0.0433234
350,9.19975,6.58959,-0.0432425
350.4,9.21133,6.58344,-0.0432499
350.8,9.22354,6.58596,-0.0432504
351.2,9.23566,6.58147,-0.0432499
351.6,9.24777,6.58982,-0.0432501
352,9.25993,6.58294,-0.0432497
352.4,9.27357,6.57592,-0.0432516
352.8,9.28534,6.58243,-0.043246
353.2,9.29779,6.5877,-0.0432337
353.6,9.31017,6.57554,-0.0435061
354,9.32243,6.57721,-0.0447007
354.4,9.33485,6.58829,-0.0452776
354.8,9.34685,6.58496,-0.045216
355.2,9.35917,6.57976,-0.045232
355.6,9.37153,6.57098,-0.0452299
356,9.38339,6.57933,-0.04523
356.4,9.39608,6.57393,-0.04523
356.8,9.4085,6.57808,-0.04523
357.2,9.42069,6.57665,-0.04523
357.6,9.43291,6.57936,-0.04523
358,9.44547,6.57619,-0.0452303
358.4,9.45758,6.57294,-0.0452286
358.8,9.46983,6.57189,-0.0452336
359.2,9.48194,6.58045,-0.0452356
359.6,9.49462,6.58301,-0.0457822
360,9.5069,6.58147,-0.0462709
360.4,9.51913,6.58358,-0.0462124
360.8,9.53153,6.57242,-0.04622
361.2,9.54384,6.57359,-0.046219
361.6,9.55618,6.56843,-0.0462282
362,9.5684,6.57288,-0.0461835
362.4,9.58062,6.58002,-0.0465301
362.8,9.59318,6.56689,-0.0465407
363.2,9.6054,6.5753,-0.0465745
363.6,9.61747,6.57463,-0.04644616
364,9.63011,6.57281,-0.0474138
364.4,9.64238,6.57125,-0.0478725
364.8,9.6546,6.57208,-0.04786919
365.2,9.66714,6.57807,-0.04786684
365.6,9.67911,6.57686,-0.0478824
366,9.69185,6.57387,-0.0478815
366.4,9.70368,6.57394,-0.0487219
366.8,9.71604,6.57578,-0.0492191
367.2,9.72877,6.57866,-0.0491695
367.6,9.74109,6.57916,-0.0491829
368,9.7534,6.57541,-0.0492571
368.4,9.76566,6.57028,-0.0501748
368.8,9.77798,6.57999,-0.0505386
369.2,9.79047,6.5827,-0.0504961
369.6,9.80293,6.58649,-0.0509779
370,9.81552,6.58002,-0.05203911
370.4,9.82781,6.58118,-0.0519337
370.8,9.84013,6.58708,-0.0518714
371.2,9.85249,6.5854,-0.052996
371.6,9.86504,6.58448,-0.0532581
372,9.8772,6.59256,-0.0532497
372.4,9.8899,6.59288,-0.0532463
372.8,9.90176,6.59741,-0.05360586
373.2,9.91397,6.58912,-0.0546399
373.6,9.92675,6.59516,-0.054539
374,9.93912,6.59111,-0.0545601
374.4,9.95144,6.59469,-0.0545597
374.8,9.96377,6.58865,-0.05465591
375.2,9.97613,6.58894,-0.0555962
375.6,9.98867,6.59462,-0.0558293
376,10.0007,6.5907,-0.0553097
376.4,10.0131,6.59314,-0.0556892
376.8,10.0256,6.59779,-0.0566503
377.2,10.0381,6.59481,-0.0565157
377.6,10.0505,6.58885,-0.0567478
378,10.063,6.59719,-0.05732584
378.4,10.0752,6.59814,-0.0572877
378.8,10.0876,6.59659,-0.057407
379.2,10.1003,6.59916,-0.0586346
379.6,10.1125,6.5944,-0.058694
380,10.1247,6.60235,-0.0590383
380.4,10.1374,6.59678,-0.0601964
380.8,10.1498,6.6064,-0.0602689
381.2,10.1622,6.60403,-0.0606668
381.6,10.1744,6.60996,-0.06169
382,10.1871,6.61412,-0.0614797
382.4,10.1995,6.61674,-0.0623874
382.8,10.212,6.61432,-0.0630106
383.2,10.2243,6.62386,-0.0631337
383.6,10.2368,6.62283,-0.0640911
384,10.2492,6.62839,-0.0643543
384.4,10.2616,6.63441,-0.0643308
384.8,10.2743,6.63617,-0.06495631
385.2,10.2865,6.63235,-0.0658866
385.6,10.2991,6.63863,-0.0656673
386,10.3113,6.63689,-0.0667387
386.4,10.3241,6.64218,-0.0671869
386.8,10.3364,6.64889,-0.0674209
387.2,10.3489,6.65843,-0.0685581
387.6,10.3612,6.65185,-0.0687231
388,10.3738,6.66343,-0.0693259
388.4,10.3862,6.6673,-0.0703406
388.8,10.398,6.66821,-0.0706387
389.2,10.4102,6.67931,-0.0719667
389.6,10.423,6.68937,-0.0721336
390,10.4358,6.68164,-0.0735856
390.4,10.4483,6.6983,-0.0738894
390.8,10.4608,6.704,-0.0752576
391.2,10.4732,6.70831,-0.0752677
391.6,10.4858,6.7119,-0.0762788
392,10.4984,6.72406,-0.0762087
392.4,10.5106,6.72655,-0.0763715
392.8,10.5233,6.74412,-0.0775386
393.2,10.5357,6.74062,-0.0779458
393.6,10.5482,6.75191,-0.0791554
394,10.5611,6.75429,-0.079847
394.4,10.5732,6.76754,-0.0813277
394.8,10.5858,6.76824,-0.083197
395.2,10.598,6.77482,-0.0840668
395.6,10.6108,6.78981,-0.0852247
396,10.6232,6.80714,-0.0859302
396.4,10.6357,6.80643,-0.0871179
396.8,10.6482,6.81928,-0.0875653
397.2,10.6606,6.82204,-0.0886097
397.6,10.6734,6.83104,-0.0891499
398,10.6853,6.84087,-0.0900334
398.4,10.6979,6.84523,-0.0907446
398.8,10.7109,6.85657,-0.0920358
399.2,10.7231,6.87554,-0.0929562
399.6,10.7359,6.87702,-0.0943908
400,10.7482,6.88901,-0.0956567
400.4,10.7612,6.90271,-0.0965978
400.8,10.773,6.90414,-0.0975534
401.2,10.7855,6.91696,-0.0984294
401.6,10.7981,6.92887,-0.099786
402,10.8112,6.94019,-0.100531
402.4,10.8237,6.95641,-0.102353
402.8,10.836,6.96898,-0.103551
403.2,10.8487,6.97896,-0.104818
403.6,10.8612,6.99046,-0.106567
404,10.8738,7.0008,-0.107238
404.4,10.8862,7.01927,-0.108744
404.8,10.8989,7.02185,-0.110559
405.2,10.9117,7.03929,-0.111341
405.6,10.9241,7.051,-0.113122
406,10.9365,7.06217,-0.114126
406.4,10.9492,7.0766,-0.115198
406.8,10.9616,7.0844,-0.117374
407.2,10.9745,7.09584,-0.118327
407.6,10.9873,7.10966,-0.120001
408,10.9997,7.12088,-0.122043
408.4,11.0121,7.15671,-0.123226
408.8,11.025,7.16328,-0.125068
409.2,11.0372,7.17716,-0.126616
409.6,11.05,7.19076,-0.128559
410,11.0626,7.20918,-0.129629
410.4,11.075,7.22244,-0.131324
410.8,11.0874,7.23605,-0.132911
411.2,11.1001,7.25627,-0.135443
411.6,11.1129,7.27032,-0.136997
412,11.1253,7.29219,-0.139378
412.4,11.138,7.31501,-0.141017
412.8,11.1502,7.33644,-0.143291
413.2,11.1631,7.36063,-0.144533
413.6,11.1757,7.37034,-0.146473
414,11.1884,7.39973,-0.147883
414.4,11.2012,7.41505,-0.150454
414.8,11.2137,7.43937,-0.15193
415.2,11.2261,7.45381,-0.154481
415.6,11.2392,7.48086,-0.156537
416,11.2514,7.49557,-0.159712
416.4,11.2647,7.52203,-0.161306
416.8,11.2771,7.5479,-0.163903
417.2,11.29,7.56589,-0.165836
417.6,11.3018,7.58111,-0.168572
418,11.3154,7.61273,-0.170238
418.4,11.3276,7.64045,-0.172896
418.8,11.3402,7.65681,-0.174831
419.2,11.3529,7.68543,-0.177996
419.6,11.3657,7.70506,-0.179806
420,11.3785,7.73268,-0.182855
420.4,11.3911,7.76293,-0.185091
420.8,11.4039,7.78737,-0.18884
421.2,11.4162,7.81691,-0.190424
421.6,11.429,7.83454,-0.193428
422,11.4418,7.86584,-0.195589
422.4,11.4542,7.88665,-0.198861
422.8,11.4669,7.91371,-0.200689
423.2,11.4799,7.9371,-0.203782
423.6,11.4927,7.97608,-0.205466
424,11.5051,7.99217,-0.208299
424.4,11.5172,8.03105,-0.210517
424.8,11.5304,8.05886,-0.214139
425.2,11.5432,8.09211,-0.21867
425.6,11.556,8.1234,-0.221747
426,11.5686,8.14768,-0.224843
426.4,11.5811,8.17601,-0.228387
426.8,11.5939,8.19982,-0.23083
427.2,11.6067,8.23651,-0.233716
427.6,11.6195,8.26418,-0.237684
428,11.6326,8.29843,-0.241374
428.4,11.645,8.33136,-0.244419
428.8,11.6577,8.35873,-0.248474
429.2,11.6704,8.39384,-0.251806
429.6,11.6834,8.43719,-0.255235
430,11.6959,8.47124,-0.259182
430.4,11.7086,8.49987,-0.26264
430.8,11.7215,8.54031,-0.265797
431.2,11.734,8.5791,-0.269684
431.6,11.7472,8.63051,-0.273894
432,11.7599,8.67318,-0.277185
432.4,11.7728,8.70955,-0.281044
432.8,11.7856,8.7603,-0.284679
433.2,11.7983,8.80746,-0.288127
433.6,11.8113,8.85553,-0.292392
434,11.8241,8.9065,-0.297477
434.4,11.837,8.95324,-0.301177
434.8,11.8498,9.0149,-0.305738
435.2,11.8624,9.06515,-0.310892
435.6,11.8754,9.11825,-0.314613
436,11.8883,9.16318,-0.319053
436.4,11.901,9.20466,-0.324779
436.8,11.9138,9.22748,-0.329055
437.2,11.9268,9.25868,-0.333957
437.6,11.9395,9.30182,-0.339623
438,11.9524,9.35077,-0.343936
438.4,11.9657,9.48572,-0.348559
438.8,11.9785,9.58004,-0.354182
439.2,11.9916,9.63511,-0.359034
439.6,12.0045,9.68571,-0.364551
440,12.0173,9.72738,-0.371691
440.4,12.0299,9.77665,-0.377389
440.8,12.043,9.8152,-0.383133
441.2,12.056,9.86811,-0.390824
441.6,12.0688,9.91767,-0.397065
442,12.0814,9.96624,-0.402658
442.4,12.0945,10.0305,-0.409809
442.8,12.1074,10.0898,-0.416645
443.2,12.1205,10.1572,-0.422535
443.6,12.1334,10.1982,-0.429586
444,12.1462,10.2678,-0.436822
444.4,12.1594,10.3441,-0.442847
444.8,12.1724,10.424,-0.450782
445.2,12.1851,10.4794,-0.459798
445.6,12.1982,10.5465,-0.466232
446,12.2114,10.6306,-0.474312
446.4,12.2243,10.7112,-0.482834
446.8,12.2372,10.7855,-0.489072
447.2,12.2504,10.8789,-0.49698
447.6,12.2634,10.9536,-0.505378
448,12.2767,11.0551,-0.51238
448.4,12.2896,11.1382,-0.52125
448.8,12.3027,11.2097,-0.531486
449.2,12.3157,11.3014,-0.538936
449.6,12.3286,11.3833,-0.547742
450,12.3418,11.4596,-0.558244
450.4,12.3552,11.5558,-0.56637
450.8,12.3677,11.6427,-0.575119
451.2,12.381,11.7148,-0.586464
451.6,12.3941,11.8023,-0.594899
452,12.407,11.8918,-0.604679
452.4,12.4201,11.9853,-0.616769
452.8,12.4327,12.0666,-0.625258
453.2,12.4465,12.1618,-0.635437
453.6,12.4596,12.251,-0.647303
454,12.4726,12.3527,-0.656531
454.4,12.486,12.4588,-0.667267
454.8,12.4992,12.556,-0.680653
455.2,12.512,12.6531,-0.690692
455.6,12.5256,12.7497,-0.702154
456,12.5386,12.9224,-0.715783
456.4,12.5519,13.0775,-0.7267
456.8,12.5652,13.1817,-0.738595
457.2,12.5783,13.2707,-0.753126
457.6,12.5913,13.3884,-0.764536
458,12.6046,13.4847,-0.776769
458.4,12.6177,13.5818,-0.791663
458.8,12.6309,13.6711,-0.804089
459.2,12.6439,13.7627,-0.816835
459.6,12.6572,13.8603,-0.832906
460,12.6711,14.0382,-0.847184
460.4,12.6838,14.1963,-0.860551
460.8,12.6975,14.3254,-0.878158
461.2,12.7107,14.4987,-0.892271
461.6,12.7238,14.6108,-0.906625
462,12.7371,14.7224,-0.9244362
462.4,12.7505,14.8375,-0.939441
462.8,12.7638,14.9576,-0.954334
463.2,12.777,15.1072,-0.972719
463.6,12.7907,15.2474,-0.98889
464,12.8037,15.349,-1.00456
464.4,12.8173,15.5099,-1.02455
464.8,12.8306,15.6611,-1.04096
465.2,12.844,15.7982,-1.05788
465.6,12.8569,15.9479,-1.07815
466,12.8698,16.081,-1.09533
466.4,12.884,16.1889,-1.1143
466.8,12.897,16.2717,-1.13608
467.2,12.9104,16.403,-1.15506
467.6,12.9241,16.518,-1.17448
468,12.937,16.6349,-1.19711
468.4,12.9506,16.757,-1.21674
468.8,12.9637,16.8593,-1.23577
469.2,12.9769,16.979,-1.25952
469.6,12.9906,17.1089,-1.28027
470,13.0038,17.219,-1.30033
470.4,13.0172,17.3182,-1.32534
470.8,13.0309,17.4658,-1.34663
471.2,13.0441,17.5951,-1.36783
471.6,13.0576,17.7465,-1.3946
472,13.0704,17.8821,-1.41697
472.4,13.0837,18.0118,-1.43973
472.8,13.097,18.1398,-1.4679
473.2,13.1108,18.2511,-1.49188
473.6,13.1245,18.375,-1.51574
474,13.1379,18.5149,-1.54481
474.4,13.1514,18.6219,-1.56881
474.8,13.1645,18.7305,-1.59325
475.2,13.1781,18.8304,-1.62482
475.6,13.1908,18.9085,-1.64853
476,13.2044,18.9778,-1.67488
476.4,13.2177,19.0906,-1.70697
476.8,13.2307,19.1613,-1.73186
477.2,13.2442,19.2425,-1.75873
477.6,13.2573,19.3052,-1.7915
478,13.2707,19.4185,-1.81877
478.4,13.2839,19.497,-1.84637
478.8,13.2968,19.5002,-1.87925
479.2,13.3098,19.5083,-1.9069
479.6,13.3232,19.5252,-1.9345
480,13.3365,19.5929,-1.96793
480.4,13.3492,19.5584,-1.99579
480.8,13.3622,19.4972,-2.0228
481.2,13.3748,19.4623,-2.05453
481.6,13.3876,19.4134,-2.08497
482,13.4006,19.4191,-2.11217
482.4,13.4131,19.3276,-2.14363
482.8,13.4257,19.2298,-2.17582
483.2,13.438,19.1005,-2.20043
483.6,13.451,18.984,-2.23196
484,13.4635,18.9024,-2.26496
484.4,13.476,18.7271,-2.28862
484.8,13.4887,18.5802,-2.31731
485.2,13.5009,18.403,-2.34993
485.6,13.5132,18.2284,-2.37404
486,13.5253,18.0298,-2.40072
486.4,13.5378,17.8187,-2.4331
486.8,13.5496,17.6108,-2.45721
487.2,13.5619,17.3697,-2.48176
487.6,13.5741,17.1007,-2.51048
488,13.5861,16.8486,-2.53792
488.4,13.5982,16.5691,-2.56019
488.8,13.61,16.2988,-2.58577
489.2,13.6219,16.0002,-2.61508
489.6,13.6337,15.7081,-2.63468
490,13.6456,15.3868,-2.65788
490.4,13.6576,15.0699,-2.68553
490.8,13.6693,14.745,-2.707
491.2,13.6809,14.4129,-2.72707
491.6,13.6928,14.0772,-2.75108
492,13.7047,13.7278,-2.77563
492.4,13.7162,13.3893,-2.79314
492.8,13.7278,13.0313,-2.81346
493.2,13.7395,12.679,-2.83745
493.6,13.7511,12.3237,-2.85479
494,13.7629,11.965,-2.87322
494.4,13.7744,11.6161,-2.89402
494.8,13.7861,11.2609,-2.91386
495.2,13.7978,10.9086,-2.92926
495.6,13.8092,10.5567,-2.94689
496,13.8205,10.2186,-2.96693
496.4,13.8322,9.85469,-2.98152
496.8,13.8441,9.50128,-2.99756
497.2,13.8557,9.1487,-3.01563
497.6,13.8672,8.80869,-3.03106
498,13.8788,8.4499,-3.04364
498.4,13.8907,8.10902,-3.05836
498.8,13.9023,7.7685,-3.07403
499.2,13.9137,7.43835,-3.08445
499.6,13.9253,7.12689,-3.09659
500,13.937,6.80225,-3.11088
500.4,13.9487,6.4994,-3.12243
500.8,13.9603,6.18563,-3.13264
501.2,13.972,5.8918,-3.14414
501.6,13.9839,5.59597,-3.15592
502,13.9957,5.32205,-3.16381
502.4,14.0076,5.05643,-3.17338
502.8,14.0192,4.80018,-3.18406
503.2,14.031,4.5533,-3.19101
503.6,14.0428,4.31155,-3.19895
504,14.0549,4.0866,-3.2082
504.4,14.0671,3.86391,-3.21647
504.8,14.079,3.64626,-3.22236
505.2,14.091,3.45918,-3.22944
505.6,14.103,3.26519,-3.23711
506,14.1151,3.09959,-3.2423
506.4,14.1274,2.92762,-3.24842
506.8,14.1394,2.77578,-3.25541
507.2,14.1517,2.63135,-3.26044
507.6,14.1641,2.4784,-3.26564
508,14.1764,2.35646,-3.27125
508.4,14.1881,2.22895,-3.27532
508.8,14.2007,2.12342,-3.27897
509.2,14.2132,2.00503,-3.2833
509.6,14.2255,1.90475,-3.2876
510,14.2377,1.80864,-3.29071
510.4,14.2504,1.71879,-3.29466
510.8,14.2628,1.62847,-3.29855
511.2,14.2753,1.5497,-3.30111
511.6,14.2879,1.4743,-3.304
512,14.3003,1.40283,-3.30731
512.4,14.3129,1.34029,-3.30923
512.8,14.3257,1.27278,-3.31211
513.2,14.3382,1.21666,-3.31405
513.6,14.3507,1.16105,-3.31736
514,14.3631,1.10006,-3.31882
514.4,14.3752,1.05256,-3.32103
514.8,14.3881,1.00489,-3.32305
515.2,14.4005,0.968697,-3.32541
515.6,14.4136,0.918808,-3.32652
516,14.4267,0.890767,-3.32782
516.4,14.4394,0.856732,-3.32903
516.8,14.452,0.819586,-3.32956
517.2,14.4652,0.780064,-3.33084
517.6,14.4778,0.755361,-3.33198
518,14.4905,0.720705,-3.33273
518.4,14.5034,0.709691,-3.33408
518.8,14.516,0.685838,-3.33446
519.2,14.5286,0.668159,-3.33574
519.6,14.5417,0.648192,-3.33578
520,14.5547,0.632819,-3.33712
520.4,14.5673,0.620375,-3.33731
520.8,14.5804,0.609015,-3.33731
521.2,14.5932,0.596446,-3.33736
521.6,14.606,0.586667,-3.33841
522,14.6191,0.576973,-3.3389
522.4,14.6317,0.563056,-3.33885
522.8,14.6451,0.556109,-3.34006
523.2,14.6577,0.555382,-3.34016
523.6,14.6705,0.550072,-3.34016
524,14.6835,0.541706,-3.34016
524.4,14.6963,0.5396873,-3.34015
524.8,14.7092,0.53187,-3.34018
525.2,14.7221,0.525335,-3.3402
525.6,14.7352,0.517885,-3.34136
526,14.7483,0.511311,-3.34148
526.4,14.7611,0.514999,-3.3415
526.8,14.7744,0.512425,-3.34112
527.2,14.787,0.492012,-3.34078
527.6,14.7999,0.499604,-3.34081
528,14.8129,0.48938,-3.34081
528.4,14.8261,0.495856,-3.34083
528.8,14.839,0.493647,-3.34072
529.2,14.8519,0.490544,-3.34184
529.6,14.8649,0.483172,-3.34214
530,14.878,0.488571,-3.34213
530.4,14.8911,0.484038,-3.34213
530.8,14.904,0.46681,-3.34213
531.2,14.917,0.477772,-3.34213
531.6,14.9297,0.474669,-3.34213
532,14.9428,0.473759,-3.34213
532.4,14.9558,0.463321,-3.34213
532.8,14.9686,0.460404,-3.34213
533.2,14.9822,0.461547,-3.34213
533.6,14.9949,0.460666,-3.34213
534,15.008,0.450955,-3.34213
534.4,15.0212,0.460271,-3.34213
534.8,15.0341,0.447077,-3.34213
535.2,15.047,0.452879,-3.34213
535.6,15.0598,0.450073,-3.34213
536,15.0732,0.449051,-3.34214
536.4,15.086,0.449512,-3.34204
536.8,15.099,0.446703,-3.34288
537.2,15.1123,0.4468,-3.34345
537.6,15.1252,0.450977,-3.34345
538,15.1384,0.44494,-3.34345
538.4,15.1513,0.438595,-3.34345
538.8,15.1645,0.444893,-3.34345
539.2,15.1773,0.436111,-3.34345
539.6,15.1902,0.426007,-3.34345
540,15.2035,0.42803,-3.34344
540.4,15.2167,0.423332,-3.34355
540.8,15.2298,0.421101,-3.3426
541.2,15.2426,0.414523,-3.34248
541.6,15.256,0.411724,-3.34245
542,15.2688,0.416762,-3.34246
542.4,15.2821,0.417229,-3.34246
542.8,15.2951,0.409533,-3.34246
543.2,15.308,0.412175,-3.34246
543.6,15.3212,0.405338,-3.34246
544,15.3342,0.406857,-3.34246
544.4,15.3471,0.400997,-3.34246
544.8,15.3604,0.402837,-3.34246
545.2,15.3733,0.38701,-3.34246
545.6,15.3865,0.401755,-3.3425
546,15.3997,0.390204,-3.34218
546.4,15.4126,0.385484,-3.34214
546.8,15.4255,0.380875,-3.34212
547.2,15.4388,0.376063,-3.34201
547.6,15.4518,0.373523,-3.34141
548,15.4642,0.369374,-3.34148
548.4,15.4778,0.368163,-3.34147
548.8,15.4912,0.353886,-3.34147
549.2,15.5042,0.346596,-3.34147
549.6,15.5173,0.34679,-3.34147
550,15.5302,0.335538,-3.34147
550.4,15.5437,0.331401,-3.34147
550.8,15.5565,0.325463,-3.34147
551.2,15.5695,0.328883,-3.34147
551.6,15.5826,0.317014,-3.34147
552,15.5958,0.324276,-3.34146
552.4,15.6092,0.319778,-3.34165
552.8,15.6221,0.323766,-3.34282
553.2,15.6352,0.319056,-3.34276
553.6,15.6482,0.310657,-3.34279
554,15.6613,0.308626,-3.34279
554.4,15.6738,0.322715,-3.34279
554.8,15.6869,0.318427,-3.34279
555.2,15.7,0.310929,-3.34279
555.6,15.7141,0.321085,-3.34279
556,15.7271,0.324231,-3.34279
556.4,15.7401,0.324949,-3.34279
556.8,15.7532,0.331766,-3.34279
557.2,15.7664,0.328392,-3.34279
557.6,15.7795,0.323074,-3.34279
558,15.7929,0.324412,-3.34279
558.4,15.8059,0.330747,-3.34279
558.8,15.8191,0.320724,-3.34279
559.2,15.8319,0.324931,-3.34279
559.6,15.8455,0.333385,-3.34279
560,15.8581,0.340269,-3.34279
560.4,15.8716,0.331611,-3.34279
560.8,15.8847,0.331012,-3.34279
561.2,15.8978,0.333534,-3.34279
561.6,15.9109,0.334834,-3.34279
562,15.9235,0.343074,-3.34279
562.4,15.9371,0.339147,-3.34279
562.8,15.95,0.334726,-3.34279
563.2,15.9635,0.327698,-3.34279
563.6,15.9767,0.333538,-3.34273
564,15.9898,0.338861,-3.34159
564.4,16.0027,0.33733,-3.34148
564.8,16.016,0.342655,-3.34146
565.2,16.0292,0.332983,-3.34147
565.6,16.0423,0.339279,-3.34147
566,16.0554,0.331601,-3.34147
566.4,16.0686,0.339435,-3.34147
566.8,16.0817,0.333037,-3.34146
567.2,16.0951,0.333529,-3.34144
567.6,16.1083,0.338217,-3.34133
568,16.1216,0.326037,-3.34143
568.4,16.1343,0.337341,-3.34148
568.8,16.1478,0.329564,-3.34148
569.2,16.1609,0.337562,-3.34148
569.6,16.1743,0.337827,-3.34148
570,16.1874,0.340821,-3.34147
570.4,16.2002,0.343028,-3.3415
570.8,16.2135,0.338712,-3.34163
571.2,16.2266,0.324441,-3.34273
571.6,16.2399,0.341793,-3.34279
572,16.2532,0.334953,-3.34279
572.4,16.2663,0.338623,-3.34279
572.8,16.2794,0.337835,-3.34279
573.2,16.2927,0.341149,-3.34279
573.6,16.3061,0.339913,-3.34279
574,16.3191,0.330631,-3.34339
574.4,16.3322,0.342613,-3.34418
574.8,16.3455,0.335361,-3.3441
575.2,16.3586,0.335251,-3.34407
575.6,16.3717,0.335551,-3.34444
576,16.3849,0.338684,-3.34478
576.4,16.398,0.343198,-3.34467
576.8,16.4114,0.336828,-3.34371
577.2,16.4244,0.342069,-3.34343
577.6,16.4376,0.337319,-3.34345
578,16.4512,0.34862,-3.34345
578.4,16.4644,0.33478,-3.34345
578.8,16.4775,0.342134,-3.34345
579.2,16.4907,0.340745,-3.34345
579.6,16.5036,0.339731,-3.34345
580,16.5171,0.34592,-3.34344
580.4,16.5301,0.342707,-3.34365
580.8,16.5437,0.347922,-3.34465
581.2,16.5566,0.3378439,-3.34475
581.6,16.5693,0.344107,-3.34476
582,16.5831,0.351789,-3.34476
582.4,16.5961,0.347164,-3.34476
582.8,16.6096,0.349672,-3.34474
583.2,16.6228,0.347514,-3.34485
583.6,16.636,0.348645,-3.3438
584,16.6492,0.340719,-3.34344
584.4,16.6622,0.34567,-3.34345
584.8,16.6756,0.342968,-3.34345
585.2,16.6889,0.339728,-3.34345
585.6,16.7019,0.339145,-3.34345
586,16.7155,0.342972,-3.34345
586.4,16.7286,0.346361,-3.34345
586.8,16.7418,0.338006,-3.34346
587.2,16.7548,0.331765,-3.34344
587.6,16.7682,0.335054,-3.34327
588,16.7814,0.341049,-3.34219
588.4,16.7947,0.341218,-3.34186
588.8,16.808,0.336628,-3.34085
589.2,16.8213,0.337368,-3.34082
589.6,16.8342,0.337267,-3.34082
590,16.8477,0.339499,-3.34082
590.4,16.8608,0.334272,-3.34082
590.8,16.8741,0.334817,-3.34082
591.2,16.8871,0.334563,-3.34081
591.6,16.9006,0.330292,-3.34109
592,16.9137,0.329066,-3.34221
592.4,16.9271,0.336846,-3.34211
592.8,16.9403,0.3454479,-3.34213
593.2,16.9536,0.326839,-3.34213
593.6,16.9668,0.337008,-3.34213
594,16.9796,0.328006,-3.34213
594.4,16.9934,0.331885,-3.34214
594.8,17.0065,0.331782,-3.34216
595.2,17.0199,0.325207,-3.3425
595.6,17.0331,0.328873,-3.34247
596,17.0463,0.323509,-3.34329
596.4,17.0594,0.328281,-3.34382
596.8,17.0727,0.31741,-3.34378
597.2,17.0862,0.315841,-3.34378
597.6,17.0993,0.320626,-3.34378
598,17.1128,0.3246617,-3.34378
598.4,17.1259,0.322628,-3.34378
598.8,17.1393,0.317152,-3.34378
599.2,17.1526,0.330757,-3.34378
599.6,17.1657,0.324192,-3.34378
600,17.1791,0.316258,-3.34379