File: 01_Data/Pressure_Treated_Deck/FTIR/IS/Pressure_Treated_Deck_IS_T_221012_R4.dpt
7497.03,0.02229
7491.25,0.01416
7485.46,0.02647
7479.67,0.02267
7473.89,0.02142
7468.1,0.02212
7462.32,0.01994
7456.53,0.02287
7450.74,0.02566
7444.96,0.03882
7439.17,0.02379
7433.38,0.02831
7427.6,0.02508
7421.81,0.02201
7416.03,0.02796
7410.24,0.02106
7404.45,0.01701
7398.67,0.02274
7392.88,0.01996
7387.09,0.02541
7381.31,0.01882
7375.52,0.01612
7369.74,0.02524
7363.95,0.02972
7358.16,0.02426
7352.38,0.01638
7346.59,0.03152
7340.8,0.02389
7335.02,0.02953
7329.23,0.02521
7323.45,0.01399
7317.66,0.01844
7311.87,0.02413
7306.09,0.01748
7300.3,0.02319
7294.51,0.02880
7288.73,0.02100
7282.94,0.02354
7277.16,0.02272
7271.37,0.02476
7265.58,0.01863
7259.8,0.02473
7254.01,0.02854
7248.22,0.02825
7242.44,0.02084
7236.65,0.02228
7230.87,0.01083
7225.08,0.02952
7219.29,0.01875
7213.51,0.02108
7207.72,0.02821
7201.93,0.02650
7196.15,0.01853
7190.36,0.02698
7184.58,0.02474
7178.79,0.02151
7173,0.02634
7167.22,0.01761
7161.43,0.02681
7155.65,0.01836
7149.86,0.01753
7144.07,0.02813
7138.29,0.02396
7132.5,0.02160
7126.71,0.02158
7120.93,0.02451
7115.14,0.02212
7109.36,0.02465
7103.57,0.01731
7097.78,0.01724
7092,0.02785
7086.21,0.02692
7080.42,0.02001
7074.64,0.02768
7068.85,0.02339
7063.07,0.01816
7057.28,0.02231
7051.49,0.02429
7045.71,0.02817
7039.92,0.01754
7034.13,0.02070
7028.35,0.02180
7022.56,0.01784
7016.78,0.02088
7010.99,0.02166
7005.2,0.01897
6999.42,0.02855
6993.63,0.02945
6987.84,0.02817
6982.06,0.02171
6976.27,0.02226
6970.49,0.03080
6964.7,0.02749
6958.91,0.02774
6953.13,0.02610
6947.34,0.02562
6941.55,0.02074
6935.77,0.01933
6929.98,0.02034
6924.2,0.03165
6918.41,0.02967
6912.62,0.02172
6906.84,0.02545
6901.05,0.02052
6895.26,0.01476
6889.48,0.02034
6883.69,0.02211
6877.91,0.02179
6872.12,0.02758
6866.33,0.02237
6860.55,0.02030
6854.76,0.02160
6848.97,0.02186
6843.19,0.02786
6837.4,0.02494
6831.62,0.01447
6825.83,0.02577
6820.04,0.02502
6814.26,0.02547
6808.47,0.02479
6802.68,0.02018
6796.9,0.02021
6791.11,0.02436
6785.33,0.02352
6779.54,0.02294
6773.75,0.02251
6767.97,0.02251
6762.18,0.01848
6756.39,0.02353
6750.61,0.02381
6744.82,0.02251
6739.04,0.02226
6733.25,0.02345
6727.46,0.02089
6721.68,0.02619
6715.89,0.02493
6710.1,0.02512
6704.32,0.02365
6698.53,0.02401
6692.75,0.02067
6686.96,0.01633
6681.17,0.01665
6675.39,0.01932
6669.6,0.02122
6663.82,0.02354
6658.03,0.01903
6652.24,0.02301
6646.46,0.02493
6640.67,0.02379
6634.88,0.02485
6629.1,0.02198
6623.31,0.01936
6617.53,0.01861
6611.74,0.02040
6605.95,0.02155
6600.17,0.02014
6594.38,0.02243
6588.59,0.02228
6582.81,0.02245
6577.02,0.01621
6571.24,0.02578
6565.45,0.02084
6559.66,0.01975
6553.88,0.02361
6548.09,0.02053
6542.3,0.02247
6536.52,0.01858
6530.73,0.01942
6524.95,0.02513
6519.16,0.02131
6513.37,0.02289
6507.59,0.01976
6501.8,0.02249
6496.01,0.02477
6490.23,0.01942
6484.44,0.01957
6478.66,0.02079
6472.87,0.02435
6467.08,0.02108
6461.3,0.02264
6455.51,0.02357
6449.72,0.02025
6443.94,0.02215
6438.15,0.02379
6432.37,0.02259
6426.58,0.02321
6420.79,0.01885
6415.01,0.02180
6409.22,0.02359
6403.43,0.02078
6397.65,0.02372
6391.86,0.01953
6386.08,0.02407
6380.29,0.02287
6374.5,0.02486
6368.72,0.02072
6362.93,0.02116
6357.14,0.02173
6351.36,0.02148
6345.57,0.02254
6339.79,0.02261
6334,0.02128
6328.21,0.02512
6322.43,0.02169
6316.64,0.01987
6310.85,0.02078
6305.07,0.01858
6299.28,0.01879
6293.5,0.01995
6287.71,0.02354
6281.92,0.02359
6276.14,0.02162
6270.35,0.02000
6264.56,0.02224
6258.78,0.02073
6252.99,0.02025
6247.21,0.02141
6241.42,0.02170
6235.63,0.02128
6229.85,0.02165
6224.06,0.02040
6218.27,0.02365
6212.49,0.02408
6206.7,0.02278
6200.92,0.02105
6195.13,0.02341
6189.34,0.02356
6183.56,0.02195
6177.77,0.02327
6171.98,0.01989
6166.2,0.02164
6160.41,0.02071
6154.63,0.01915
6148.84,0.01849
6143.05,0.02460
6137.27,0.02395
6131.48,0.01971
6125.7,0.02097
6119.91,0.01751
6114.12,0.02094
6108.34,0.02034
6102.55,0.02136
6096.76,0.02154
6090.98,0.02146
6085.19,0.02399
6079.41,0.02580
6073.62,0.02083
6067.83,0.01964
6062.05,0.02024
6056.26,0.02358
6050.47,0.02461
6044.69,0.01846
6038.9,0.02012
6033.12,0.02037
6027.33,0.02124
6021.54,0.01770
6015.76,0.02189
6009.97,0.02273
6004.18,0.02454
5998.4,0.02156
5992.61,0.02460
5986.83,0.02330
5981.04,0.02461
5975.25,0.01985
5969.47,0.01996
5963.68,0.02263
5957.89,0.01994
5952.11,0.02075
5946.32,0.01984
5940.54,0.02412
5934.75,0.02219
5928.96,0.02232
5923.18,0.02184
5917.39,0.02268
5911.6,0.02238
5905.82,0.02001
5900.03,0.02086
5894.25,0.02180
5888.46,0.02286
5882.67,0.02361
5876.89,0.02101
5871.1,0.02235
5865.31,0.02153
5859.53,0.02465
5853.74,0.02177
5847.96,0.02042
5842.17,0.02112
5836.38,0.02341
5830.6,0.02031
5824.81,0.02009
5819.02,0.02198
5813.24,0.02140
5807.45,0.02142
5801.67,0.02215
5795.88,0.02069
5790.09,0.02147
5784.31,0.01983
5778.52,0.02027
5772.73,0.02156
5766.95,0.02017
5761.16,0.02090
5755.38,0.02216
5749.59,0.02216
5743.8,0.02278
5738.02,0.02137
5732.23,0.01933
5726.44,0.01919
5720.66,0.02214
5714.87,0.01958
5709.09,0.02005
5703.3,0.02015
5697.51,0.02195
5691.73,0.02124
5685.94,0.02028
5680.15,0.02031
5674.37,0.01919
5668.58,0.01839
5662.8,0.02226
5657.01,0.02042
5651.22,0.02180
5645.44,0.02102
5639.65,0.02197
5633.87,0.02183
5628.08,0.02215
5622.29,0.02106
5616.51,0.02204
5610.72,0.02107
5604.93,0.01880
5599.15,0.02046
5593.36,0.02103
5587.58,0.02321
5581.79,0.02177
5576,0.02130
5570.22,0.01976
5564.43,0.02054
5558.64,0.01924
5552.86,0.02167
5547.07,0.02048
5541.29,0.02144
5535.5,0.02269
5529.71,0.02336
5523.93,0.02224
5518.14,0.02147
5512.35,0.02236
5506.57,0.02261
5500.78,0.02142
5495,0.02170
5489.21,0.02104
5483.42,0.02058
5477.64,0.02148
5471.85,0.02203
5466.06,0.02238
5460.28,0.02110
5454.49,0.02120
5448.71,0.02051
5442.92,0.02023
5437.13,0.02187
5431.35,0.02179
5425.56,0.02276
5419.77,0.02137
5413.99,0.02172
5408.2,0.02196
5402.42,0.02235
5396.63,0.02038
5390.84,0.02147
5385.06,0.02103
5379.27,0.02107
5373.48,0.02153
5367.7,0.02158
5361.91,0.02001
5356.13,0.02238
5350.34,0.02107
5344.55,0.02206
5338.77,0.02161
5332.98,0.01925
5327.19,0.02068
5321.41,0.02120
5315.62,0.02132
5309.84,0.02168
5304.05,0.02099
5298.26,0.02230
5292.48,0.02005
5286.69,0.02139
5280.9,0.02082
5275.12,0.02026
5269.33,0.02186
5263.55,0.02088
5257.76,0.02136
5251.97,0.02213
5246.19,0.02161
5240.4,0.02031
5234.61,0.02045
5228.83,0.02214
5223.04,0.02071
5217.26,0.02022
5211.47,0.02066
5205.68,0.02080
5199.9,0.02368
5194.11,0.02166
5188.32,0.02242
5182.54,0.02059
5176.75,0.02229
5170.97,0.02413
5165.18,0.02186
5159.39,0.02176
5153.61,0.02077
5147.82,0.02193
5142.03,0.02074
5136.25,0.02143
5130.46,0.02213
5124.68,0.02206
5118.89,0.02173
5113.1,0.02208
5107.32,0.02122
5101.53,0.02158
5095.75,0.02248
5089.96,0.02011
5084.17,0.02166
5078.39,0.02197
5072.6,0.02172
5066.81,0.02119
5061.03,0.02095
5055.24,0.02074
5049.46,0.02022
5043.67,0.02144
5037.88,0.02211
5032.1,0.02207
5026.31,0.02121
5020.52,0.02074
5014.74,0.02045
5008.95,0.02117
5003.17,0.02088
4997.38,0.02178
4991.59,0.02099
4985.81,0.02155
4980.02,0.02114
4974.23,0.02083
4968.45,0.02139
4962.66,0.02110
4956.88,0.02164
4951.09,0.01958
4945.3,0.02201
4939.52,0.02151
4933.73,0.02230
4927.94,0.02225
4922.16,0.02242
4916.37,0.02072
4910.59,0.02119
4904.8,0.02143
4899.01,0.02101
4893.23,0.02075
4887.44,0.02148
4881.65,0.02185
4875.87,0.02165
4870.08,0.02161
4864.3,0.02148
4858.51,0.02092
4852.72,0.02097
4846.94,0.02173
4841.15,0.02206
4835.36,0.02166
4829.58,0.02068
4823.79,0.02199
4818.01,0.02123
4812.22,0.02123
4806.43,0.02156
4800.65,0.02208
4794.86,0.02179
4789.07,0.02270
4783.29,0.02114
4777.5,0.02052
4771.72,0.02191
4765.93,0.02215
4760.14,0.02160
4754.36,0.02165
4748.57,0.02144
4742.78,0.02238
4737,0.02070
4731.21,0.02092
4725.43,0.02060
4719.64,0.02201
4713.85,0.02148
4708.07,0.02192
4702.28,0.02185
4696.49,0.02269
4690.71,0.02112
4684.92,0.02121
4679.14,0.02220
4673.35,0.02264
4667.56,0.02267
4661.78,0.02199
4655.99,0.02156
4650.2,0.02127
4644.42,0.02177
4638.63,0.02146
4632.85,0.02109
4627.06,0.02151
4621.27,0.02109
4615.49,0.02233
4609.7,0.02136
4603.92,0.02186
4598.13,0.02160
4592.34,0.02261
4586.56,0.02165
4580.77,0.02141
4574.98,0.02164
4569.2,0.02221
4563.41,0.02180
4557.63,0.02170
4551.84,0.02170
4546.05,0.02147
4540.27,0.02238
4534.48,0.02146
4528.69,0.02165
4522.91,0.02144
4517.12,0.02180
4511.34,0.02132
4505.55,0.02179
4499.76,0.02177
4493.98,0.02245
4488.19,0.02093
4482.4,0.02109
4476.62,0.02172
4470.83,0.02234
4465.05,0.02164
4459.26,0.02211
4453.47,0.02077
4447.69,0.02212
4441.9,0.02234
4436.11,0.02259
4430.33,0.02212
4424.54,0.02172
4418.76,0.02197
4412.97,0.02227
4407.18,0.02170
4401.4,0.02204
4395.61,0.02154
4389.82,0.02103
4384.04,0.02165
4378.25,0.02103
4372.47,0.02219
4366.68,0.02169
4360.89,0.02208
4355.11,0.02194
4349.32,0.02217
4343.53,0.02268
4337.75,0.02231
4331.96,0.02185
4326.18,0.02190
4320.39,0.02108
4314.6,0.02173
4308.82,0.02250
4303.03,0.02153
4297.24,0.02192
4291.46,0.02227
4285.67,0.02219
4279.89,0.02236
4274.1,0.02204
4268.31,0.02171
4262.53,0.02172
4256.74,0.02200
4250.95,0.02162
4245.17,0.02160
4239.38,0.02177
4233.6,0.02177
4227.81,0.02099
4222.02,0.02222
4216.24,0.02128
4210.45,0.02146
4204.66,0.02118
4198.88,0.02152
4193.09,0.02189
4187.31,0.02191
4181.52,0.02165
4175.73,0.02181
4169.95,0.02163
4164.16,0.02235
4158.37,0.02184
4152.59,0.02179
4146.8,0.02206
4141.02,0.02152
4135.23,0.02160
4129.44,0.02278
4123.66,0.02246
4117.87,0.02243
4112.09,0.02179
4106.3,0.02198
4100.51,0.02212
4094.73,0.02149
4088.94,0.02174
4083.15,0.02218
4077.37,0.02199
4071.58,0.02170
4065.8,0.02189
4060.01,0.02126
4054.22,0.02250
4048.44,0.02221
4042.65,0.02210
4036.86,0.02221
4031.08,0.02203
4025.29,0.02209
4019.51,0.02212
4013.72,0.02215
4007.93,0.02169
4002.15,0.02167
3996.36,0.02165
3990.57,0.02122
3984.79,0.02224
3979,0.02199
3973.22,0.02232
3967.43,0.02167
3961.64,0.02276
3955.86,0.02182
3950.07,0.02136
3944.28,0.02258
3938.5,0.02242
3932.71,0.02209
3926.93,0.02236
3921.14,0.02204
3915.35,0.02197
3909.57,0.02202
3903.78,0.02325
3897.99,0.02261
3892.21,0.02304
3886.42,0.02321
3880.64,0.02257
3874.85,0.02230
3869.06,0.02262
3863.28,0.02227
3857.49,0.02196
3851.7,0.02184
3845.92,0.02302
3840.13,0.02298
3834.35,0.02257
3828.56,0.02226
3822.77,0.02198
3816.99,0.02245
3811.2,0.02129
3805.41,0.02216
3799.63,0.02207
3793.84,0.02239
3788.06,0.02181
3782.27,0.02227
3776.48,0.02177
3770.7,0.02204
3764.91,0.02253
3759.12,0.02246
3753.34,0.02247
3747.55,0.02246
3741.77,0.02232
3735.98,0.02251
3730.19,0.02262
3724.41,0.02181
3718.62,0.02152
3712.83,0.02226
3707.05,0.02247
3701.26,0.02198
3695.48,0.02257
3689.69,0.02136
3683.9,0.02191
3678.12,0.02212
3672.33,0.02195
3666.54,0.02186
3660.76,0.02174
3654.97,0.02204
3649.19,0.02098
3643.4,0.02074
3637.61,0.02137
3631.83,0.02162
3626.04,0.02176
3620.25,0.02094
3614.47,0.02131
3608.68,0.02170
3602.9,0.02078
3597.11,0.02045
3591.32,0.02151
3585.54,0.02092
3579.75,0.02097
3573.97,0.02069
3568.18,0.02068
3562.39,0.02026
3556.61,0.02119
3550.82,0.02137
3545.03,0.02060
3539.25,0.02066
3533.46,0.02033
3527.68,0.02063
3521.89,0.02053
3516.1,0.02066
3510.32,0.02039
3504.53,0.02078
3498.74,0.01982
3492.96,0.02066
3487.17,0.02030
3481.39,0.02071
3475.6,0.02121
3469.81,0.02011
3464.03,0.02001
3458.24,0.02056
3452.45,0.02024
3446.67,0.02001
3440.88,0.02012
3435.1,0.02022
3429.31,0.02033
3423.52,0.02064
3417.74,0.02055
3411.95,0.02042
3406.16,0.02001
3400.38,0.01986
3394.59,0.01985
3388.81,0.01960
3383.02,0.02010
3377.23,0.02033
3371.45,0.01980
3365.66,0.01994
3359.87,0.01990
3354.09,0.01982
3348.3,0.01946
3342.52,0.01997
3336.73,0.02006
3330.94,0.01990
3325.16,0.01985
3319.37,0.01970
3313.58,0.01949
3307.8,0.02025
3302.01,0.01940
3296.23,0.02005
3290.44,0.02035
3284.65,0.02019
3278.87,0.02040
3273.08,0.02000
3267.29,0.02006
3261.51,0.02061
3255.72,0.01996
3249.94,0.02023
3244.15,0.02054
3238.36,0.02048
3232.58,0.02024
3226.79,0.01969
3221,0.02023
3215.22,0.01962
3209.43,0.01997
3203.65,0.02012
3197.86,0.02021
3192.07,0.02083
3186.29,0.02025
3180.5,0.01998
3174.71,0.02015
3168.93,0.02025
3163.14,0.02031
3157.36,0.02063
3151.57,0.02011
3145.78,0.02013
3140,0.02073
3134.21,0.02055
3128.42,0.02064
3122.64,0.01996
3116.85,0.02059
3111.07,0.02019
3105.28,0.02035
3099.49,0.01994
3093.71,0.02014
3087.92,0.02050
3082.14,0.02023
3076.35,0.01964
3070.56,0.02031
3064.78,0.02078
3058.99,0.02041
3053.2,0.02031
3047.42,0.02010
3041.63,0.02103
3035.85,0.02057
3030.06,0.02027
3024.27,0.02056
3018.49,0.02038
3012.7,0.02005
3006.91,0.01969
3001.13,0.01968
2995.34,0.01964
2989.56,0.01936
2983.77,0.01938
2977.98,0.01923
2972.2,0.01958
2966.41,0.01907
2960.62,0.01881
2954.84,0.01913
2949.05,0.01960
2943.27,0.01891
2937.48,0.01983
2931.69,0.01938
2925.91,0.01925
2920.12,0.01987
2914.33,0.02009
2908.55,0.02018
2902.76,0.02006
2896.98,0.01992
2891.19,0.02027
2885.4,0.01975
2879.62,0.02025
2873.83,0.01958
2868.04,0.02002
2862.26,0.01987
2856.47,0.02029
2850.69,0.02051
2844.9,0.02071
2839.11,0.02117
2833.33,0.02088
2827.54,0.02113
2821.75,0.02065
2815.97,0.02089
2810.18,0.02117
2804.4,0.02097
2798.61,0.02076
2792.82,0.02107
2787.04,0.02105
2781.25,0.02114
2775.46,0.02072
2769.68,0.02110
2763.89,0.02074
2758.11,0.02095
2752.32,0.02055
2746.53,0.02115
2740.75,0.02128
2734.96,0.02132
2729.17,0.02090
2723.39,0.02111
2717.6,0.02085
2711.82,0.02101
2706.03,0.02076
2700.24,0.02095
2694.46,0.02153
2688.67,0.02107
2682.88,0.02089
2677.1,0.02109
2671.31,0.02122
2665.53,0.02051
2659.74,0.02064
2653.95,0.02116
2648.17,0.02110
2642.38,0.02114
2636.59,0.02137
2630.81,0.02135
2625.02,0.02079
2619.24,0.02055
2613.45,0.02087
2607.66,0.02096
2601.88,0.02115
2596.09,0.02134
2590.3,0.02106
2584.52,0.02160
2578.73,0.02082
2572.95,0.02112
2567.16,0.02132
2561.37,0.02095
2555.59,0.02050
2549.8,0.02135
2544.02,0.02077
2538.23,0.02086
2532.44,0.02078
2526.66,0.02064
2520.87,0.02104
2515.08,0.02134
2509.3,0.02129
2503.51,0.02095
2497.73,0.02100
2491.94,0.02087
2486.15,0.02082
2480.37,0.02114
2474.58,0.02093
2468.79,0.02069
2463.01,0.02085
2457.22,0.02086
2451.44,0.02068
2445.65,0.02059
2439.86,0.02094
2434.08,0.02076
2428.29,0.02108
2422.5,0.02083
2416.72,0.02082
2410.93,0.02090
2405.15,0.02096
2399.36,0.02091
2393.57,0.02135
2387.79,0.02115
2382,0.02081
2376.21,0.02099
2370.43,0.02108
2364.64,0.02117
2358.86,0.02145
2353.07,0.02098
2347.28,0.02075
2341.5,0.02104
2335.71,0.02104
2329.92,0.02134
2324.14,0.02099
2318.35,0.02100
2312.57,0.02122
2306.78,0.02086
2300.99,0.02088
2295.21,0.02092
2289.42,0.02096
2283.63,0.02091
2277.85,0.02102
2272.06,0.02084
2266.28,0.02116
2260.49,0.02101
2254.7,0.02088
2248.92,0.02106
2243.13,0.02067
2237.34,0.02082
2231.56,0.02066
2225.77,0.02099
2219.99,0.02081
2214.2,0.02108
2208.41,0.02092
2202.63,0.02109
2196.84,0.02103
2191.05,0.02106
2185.27,0.02048
2179.48,0.02069
2173.7,0.02122
2167.91,0.02111
2162.12,0.02087
2156.34,0.02098
2150.55,0.02075
2144.76,0.02071
2138.98,0.02080
2133.19,0.02064
2127.41,0.02075
2121.62,0.02046
2115.83,0.02052
2110.05,0.02112
2104.26,0.02094
2098.47,0.02078
2092.69,0.02052
2086.9,0.02061
2081.12,0.02066
2075.33,0.02064
2069.54,0.02063
2063.76,0.02073
2057.97,0.02093
2052.19,0.02094
2046.4,0.02062
2040.61,0.02091
2034.83,0.02103
2029.04,0.02094
2023.25,0.02056
2017.47,0.02079
2011.68,0.02080
2005.9,0.02088
2000.11,0.02097
1994.32,0.02105
1988.54,0.02055
1982.75,0.02047
1976.96,0.02069
1971.18,0.02055
1965.39,0.02053
1959.61,0.02038
1953.82,0.02062
1948.03,0.02122
1942.25,0.02071
1936.46,0.02074
1930.67,0.02078
1924.89,0.02071
1919.1,0.02078
1913.32,0.02076
1907.53,0.02058
1901.74,0.02068
1895.96,0.02055
1890.17,0.02038
1884.38,0.02025
1878.6,0.02037
1872.81,0.02031
1867.03,0.02035
1861.24,0.02024
1855.45,0.02048
1849.67,0.02048
1843.88,0.02034
1838.09,0.01991
1832.31,0.02000
1826.52,0.02028
1820.74,0.01998
1814.95,0.01977
1809.16,0.01930
1803.38,0.01982
1797.59,0.01929
1791.8,0.01969
1786.02,0.01925
1780.23,0.01886
1774.45,0.01899
1768.66,0.01859
1762.87,0.01791
1757.09,0.01775
1751.3,0.01730
1745.51,0.01778
1739.73,0.01849
1733.94,0.01979
1728.16,0.02057
1722.37,0.02067
1716.58,0.02102
1710.8,0.02032
1705.01,0.02046
1699.22,0.02015
1693.44,0.01954
1687.65,0.01899
1681.87,0.01878
1676.08,0.01865
1670.29,0.01871
1664.51,0.01883
1658.72,0.01829
1652.93,0.01854
1647.15,0.01879
1641.36,0.01820
1635.58,0.01910
1629.79,0.01818
1624,0.01911
1618.22,0.01889
1612.43,0.01896
1606.64,0.01901
1600.86,0.01882
1595.07,0.01822
1589.29,0.01865
1583.5,0.01856
1577.71,0.01865
1571.93,0.01805
1566.14,0.01822
1560.35,0.01838
1554.57,0.01859
1548.78,0.01847
1543,0.01867
1537.21,0.01853
1531.42,0.01870
1525.64,0.01855
1519.85,0.01827
1514.07,0.01868
1508.28,0.01850
1502.49,0.01853
1496.71,0.01912
1490.92,0.01938
1485.13,0.01877
1479.35,0.01856
1473.56,0.01841
1467.78,0.01797
1461.99,0.01815
1456.2,0.01871
1450.42,0.01855
1444.63,0.01876
1438.84,0.01870
1433.06,0.01847
1427.27,0.01872
1421.49,0.01878
1415.7,0.01856
1409.91,0.01819
1404.13,0.01794
1398.34,0.01823
1392.55,0.01830
1386.77,0.01834
1380.98,0.01816
1375.2,0.01805
1369.41,0.01788
1363.62,0.01797
1357.84,0.01770
1352.05,0.01790
1346.26,0.01768
1340.48,0.01816
1334.69,0.01785
1328.91,0.01759
1323.12,0.01720
1317.33,0.01701
1311.55,0.01663
1305.76,0.01691
1299.97,0.01727
1294.19,0.01762
1288.4,0.01791
1282.62,0.01881
1276.83,0.01894
1271.04,0.01944
1265.26,0.01959
1259.47,0.02028
1253.68,0.02015
1247.9,0.02011
1242.11,0.02005
1236.33,0.01974
1230.54,0.01927
1224.75,0.01929
1218.97,0.01915
1213.18,0.01941
1207.39,0.01860
1201.61,0.01850
1195.82,0.01817
1190.04,0.01810
1184.25,0.01858
1178.46,0.01797
1172.68,0.01790
1166.89,0.01778
1161.1,0.01726
1155.32,0.01723
1149.53,0.01736
1143.75,0.01773
1137.96,0.01823
1132.17,0.01722
1126.39,0.01853
1120.6,0.01780
1114.81,0.01837
1109.03,0.01866
1103.24,0.01874
1097.46,0.01791
1091.67,0.01822
1085.88,0.01763
1080.1,0.01769
1074.31,0.01902
1068.52,0.01956
1062.74,0.01954
1056.95,0.01922
1051.17,0.01940
1045.38,0.01955
1039.59,0.01936
1033.81,0.01892
1028.02,0.01919
1022.24,0.01944
1016.45,0.01935
1010.66,0.01987
1004.88,0.02035
999.09,0.02123
993.304,0.02140
987.518,0.02044
981.731,0.02030
975.945,0.02074
970.159,0.02052
964.373,0.02016
958.586,0.01995
952.8,0.01995
947.014,0.01955
941.228,0.01941
935.441,0.01964
929.655,0.01945
923.869,0.02030
918.083,0.01921
912.297,0.01947
906.51,0.01912
900.724,0.01864
894.938,0.01902
889.152,0.01907
883.365,0.01871
877.579,0.01879
871.793,0.01863
866.007,0.01840
860.22,0.01850
854.434,0.01801
848.648,0.01892
842.862,0.01762
837.075,0.01879
831.289,0.01931
825.503,0.01924
819.717,0.01908
813.931,0.01859
808.144,0.01830
802.358,0.01896
796.572,0.01918
790.786,0.01820
784.999,0.01843
779.213,0.01884
773.427,0.01896
767.641,0.01857
761.854,0.01771
756.068,0.01778
750.282,0.01759
744.496,0.01754
738.709,0.01843
732.923,0.01868
727.137,0.01811
721.351,0.01914
715.565,0.01824
709.778,0.01763
703.992,0.01844
698.206,0.01811
692.42,0.01844
686.633,0.01832
680.847,0.01719
675.061,0.01707
669.275,0.01774
663.488,0.01740
657.702,0.01714
651.916,0.01570
646.13,0.01804
640.343,0.01593
634.557,0.01577
628.771,0.01597
622.985,0.01585
617.198,0.01641
611.412,0.01510
605.626,0.01797
599.84,0.01566