File: 01_Data/PC_Bourke/STA/N2/10K_min/PC_Bourke_STA_N2_10KData_250523_R1.csv
Temp./C,Time/min,DSC/(mW/mg),Mass loss/mg
40.0,0.0,0.524931,0.001306
40.6,0.0809071,0.533577,-0.0103541
41.2,0.16245,0.543176,-0.0133092
41.8,0.239795,0.54991,-0.0103769
42.4,0.320686,0.562994,-0.0103393
43,0.39762,0.572254,-0.00835241
43.6,0.475924,0.578207,-0.00562833
44.2,0.547041,0.594552,-0.00450311
44.8,0.625245,0.606498,-0.00483696
45.4,0.702673,0.605062,-0.0110864
46,0.776968,0.617593,-0.00994974
46.6,0.84931,0.623062,-0.00671554
47.2,0.921739,0.627588,-0.00612138
47.8,0.992819,0.632236,-0.00560142
48.4,1.06565,0.641584,-0.00655321
49,1.13741,0.649307,-0.00855693
49.6,1.20771,0.652292,-0.0118436
50.2,1.27768,0.654056,-0.014829
50.8,1.3489,0.655713,-0.0100552
51.4,1.41914,0.67533,-0.00720931
52,1.48794,0.679694,-0.00728296
52.6,1.55631,0.687431,-0.00566896
53.2,1.62414,0.697353,-0.00503498
53.8,1.69221,0.700608,-0.00573394
54.4,1.75862,0.712423,-0.00781987
55,1.8265,0.719225,-0.00880604
55.6,1.89388,0.733755,-0.00902872
56.2,1.95818,0.729362,-0.00909599
56.8,2.02726,0.740893,-0.00826148
57.4,2.09217,0.74437,-0.00634428
58,2.15683,0.743762,-0.00569538
58.6,2.2227,0.751422,-0.00553097
59.2,2.28825,0.747775,-0.00775941
59.8,2.35238,0.751467,-0.00900625
60.4,2.41731,0.758347,-0.00655598
61,2.48154,0.762039,-0.0077322
61.6,2.54667,0.77277,-0.00765323
62.2,2.61055,0.777295,-0.00769017
62.8,2.67415,0.7808,-0.00734789
63.4,2.73583,0.781297,-0.00597366
64,2.80034,0.790343,-0.00610084
64.6,2.86252,0.800091,-0.00663439
65.2,2.92545,0.800696,-0.00919762
65.8,2.98844,0.80101,-0.00932876
66.4,3.05083,0.810682,-0.00800528
67,3.11286,0.818374,-0.00802109
67.6,3.17498,0.824955,-0.00749362
68.2,3.23751,0.829255,-0.0067019
68.8,3.29905,0.840164,-0.00688566
69.4,3.36,0.838713,-0.00690426
70,3.41988,0.845863,-0.0062524
70.6,3.48404,0.848914,-0.00574431
71.2,3.54622,0.841618,-0.0059295
71.8,3.60792,0.848099,-0.00742597
72.4,3.66836,0.845791,-0.00937887
73,3.72769,0.843628,-0.0077154
73.6,3.78833,0.850002,-0.00689387
74.2,3.85112,0.842765,-0.0068101
74.8,3.91356,0.846279,-0.00681351
75.4,3.97286,0.845401,-0.00713967
76,4.03533,0.844655,-0.00694531
76.6,4.09509,0.844392,-0.00622273
77.2,4.15542,0.845741,-0.00623195
77.8,4.2154,0.849334,-0.00825689
78.4,4.27589,0.850199,-0.0081478
79,4.3381,0.85341,-0.00955827
79.6,4.39876,0.857562,-0.00823384
80.2,4.45792,0.857286,-0.0065705
80.8,4.51822,0.869262,-0.00526952
81.4,4.57907,0.866174,-0.00490127
82,4.63918,0.867459,-0.00389468
82.6,4.6992,0.875624,-0.00658202
83.2,4.75907,0.873468,-0.00683721
83.8,4.81814,0.880551,-0.00853632
84.4,4.87658,0.891474,-0.00813079
85,4.9367,0.888355,-0.00677841
85.6,4.99698,0.899623,-0.00682108
86.2,5.0563,0.89541,-0.0068
86.8,5.11529,0.908916,-0.00674902
87.4,5.17474,0.906306,-0.00811765
88,5.23363,0.907389,-0.00646511
88.6,5.29158,0.910223,-0.0051496
89.2,5.35234,0.910007,-0.00512489
89.8,5.41235,0.91586,-0.00515982
90.4,5.47032,0.918273,-0.00648524
91,5.52901,0.921008,-0.00648
91.6,5.58742,0.920614,-0.00648
92.2,5.64659,0.922773,-0.00648
92.8,5.70427,0.923362,-0.00647592
93.4,5.76357,0.927478,-0.0064515
94,5.82168,0.933201,-0.0077894
94.6,5.87919,0.938469,-0.00779
95.2,5.93781,0.933995,-0.00779
95.8,5.99669,0.935193,-0.0091589
96.4,6.05429,0.943048,-0.00820405
97,6.11231,0.947399,-0.00779542
97.6,6.16998,0.952086,-0.00557517
98.2,6.22756,0.949639,-0.00052821
98.8,6.28423,0.952679,-0.0075272
99.4,6.34243,0.954911,-0.00933144
100,6.40323,0.959117,-0.00936672
100.6,6.46078,0.968129,-0.0107602
101.2,6.51899,0.967675,-0.0093397
101.8,6.57422,0.965063,-0.00933988
102.4,6.63467,0.970113,-0.00744496
103,6.69167,0.965333,-0.00661361
103.6,6.74949,0.973165,-0.00810214
104.2,6.80831,0.96734,-0.00727988
104.8,6.86625,0.97766,-0.00708901
105.4,6.92415,0.979343,-0.00587186
106,6.98157,0.980373,-0.00800603
106.6,7.038,0.98825,-0.00799637
107.2,7.09603,0.988588,-0.00662003
107.8,7.1541,0.99326,-0.00668744
108.4,7.21107,0.992468,-0.00590699
109,7.26926,0.994447,-0.00670386
109.6,7.32753,1.00086,-0.00540761
110.2,7.38404,1.00593,-0.00606863
110.8,7.44169,1.01367,-0.00600205
111.4,7.49967,1.01308,-0.0067003
112,7.55586,1.01009,-0.00669985
112.6,7.61504,1.00976,-0.00766559
113.2,7.67182,1.01201,-0.0066985
113.8,7.72956,1.01037,-0.00667049
114.4,7.78739,1.01616,-0.00801999
115,7.84467,1.02038,-0.00801751
115.6,7.90282,1.02491,-0.00429241
116.2,7.96125,1.02953,-0.00543773
116.8,8.01774,1.02924,-0.00779102
117.4,8.0745,1.03389,-0.00647048
118,8.13266,1.0305,-0.00549275
118.6,8.19075,1.03174,-0.00516453
119.2,8.24926,1.03908,-0.00376913
119.8,8.30625,1.03572,-0.00516017
120.4,8.36426,1.03133,-0.00538892
121,8.42036,1.03961,-0.00543263
121.6,8.47669,1.03676,-0.00570751
122.2,8.53569,1.04082,-0.00681056
122.8,8.59249,1.04191,-0.00681
123.4,8.64938,1.04123,-0.00681212
124,8.70736,1.04539,-0.00876235
124.6,8.76553,1.04585,-0.00874338
125.2,8.82277,1.04934,-0.00878066
125.8,8.88024,1.0541,-0.00758919
126.4,8.93505,1.04877,-0.00746966
127,8.99209,1.05064,-0.0087952
127.6,9.0511,1.05451,-0.00853983
128.2,9.10897,1.05616,-0.00878977
128.8,9.16606,1.05663,-0.0106597
129.4,9.22377,1.06284,-0.0134053
130,9.27831,1.06279,-0.00856213
130.6,9.33782,1.06579,-0.00758042
131.2,9.39452,1.06947,-0.00757996
131.8,9.45195,1.06612,-0.00762974
132.4,9.50861,1.07494,-0.00625553
133,9.56511,1.08299,-0.00493949
133.6,9.62256,1.09309,-0.00361759
134.2,9.67955,1.09696,-0.00494877
134.8,9.73657,1.10401,-0.00362601
135.4,9.79471,1.10419,-0.00494351
136,9.85077,1.10501,-0.00558241
136.6,9.90837,1.11072,-0.00560001
137.2,9.96548,1.10791,-0.0055982
137.8,10.0222,1.11606,-0.00691497
138.4,10.0793,1.11352,-0.00690999
139,10.135,1.12741,-0.00679976
139.6,10.1928,1.12922,-0.00846342
140.2,10.2486,1.12854,-0.00823872
140.8,10.3058,1.1372,-0.00687176
141.4,10.3632,1.13915,-0.00440047
142,10.42,1.15272,-0.00457687
142.6,10.4743,1.16295,-0.00590392
143.2,10.533,1.1664,-0.0064217
143.8,10.5886,1.18055,-0.00692746
144.4,10.6465,1.18653,-0.00821409
145,10.7037,1.19789,-0.00548501
145.6,10.7613,1.20906,-0.00417115
146.2,10.8179,1.22123,-0.00570419
146.8,10.8743,1.22835,-0.0079494
147.4,10.9295,1.24909,-0.00923914
148,10.9884,1.25749,-0.0058608
148.6,11.0433,1.2624,-0.00593406
149.2,11.1014,1.27088,-0.007343
149.8,11.1584,1.29468,-0.00867855
150.4,11.2123,1.30965,-0.00867502
151,11.2687,1.3147,-0.00736236
151.6,11.3279,1.33477,-0.00736001
152.2,11.3842,1.32989,-0.00736
152.8,11.4412,1.33448,-0.00736653
153.4,11.4986,1.33161,-0.00668484
154,11.555,1.32955,-0.00669999
154.6,11.6109,1.3282,-0.00669989
155.2,11.6675,1.31442,-0.00722472
155.8,11.7248,1.31779,-0.00735998
156.4,11.7786,1.31893,-0.00736037
157,11.8372,1.32381,-0.00637277
157.6,11.8931,1.31881,-0.00538237
158.2,11.9492,1.31514,-0.00612828
158.8,12.0059,1.31598,-0.00584053
159.4,12.0627,1.32385,-0.00507356
160,12.1185,1.32401,-0.00439495
160.6,12.1748,1.31619,-0.00472027
161.2,12.2324,1.32668,-0.00604548
161.8,12.2889,1.32654,-0.00603996
162.4,12.3443,1.33282,-0.00604054
163,12.4006,1.32684,-0.00708206
163.6,12.457,1.3295,-0.00703004
164.2,12.5113,1.32926,-0.00703
164.8,12.5706,1.33763,-0.00703
165.4,12.6272,1.3287,-0.00702671
166,12.6845,1.33666,-0.00703235
166.6,12.7405,1.33738,-0.00709931
167.2,12.797,1.3426,-0.00698352
167.8,12.8537,1.3414,-0.00698294
168.4,12.9091,1.33578,-0.00703016
169,12.9631,1.34053,-0.00744868
169.6,13.0223,1.3414,-0.00703011
170.2,13.0782,1.3424,-0.00703835
170.8,13.1361,1.33913,-0.00571421
171.4,13.1919,1.34251,-0.0061205
172,13.2488,1.35074,-0.00577601
172.6,13.3047,1.35043,-0.00541213
173.2,13.3618,1.35881,-0.00537639
173.8,13.4181,1.34794,-0.00669705
174.4,13.4739,1.35655,-0.00670677
175,13.5312,1.34966,-0.00801935
175.6,13.5881,1.34837,-0.00802481
176.2,13.6463,1.35281,-0.0071954
176.8,13.7008,1.35287,-0.0111047
177.4,13.7573,1.35488,-0.00656916
178,13.8138,1.35431,-0.00526621
178.6,13.8712,1.35277,-0.0065834
179.2,13.9273,1.34849,-0.0089273
179.8,13.9838,1.34622,-0.00922771
180.4,14.0401,1.34698,-0.00791901
181,14.0962,1.35073,-0.00828518
181.6,14.1528,1.35664,-0.00889834
182.2,14.21,1.36759,-0.00789947
182.8,14.2657,1.36738,-0.00636093
183.4,14.3224,1.37329,-0.0051624
184,14.3783,1.37331,-0.00517222
184.6,14.4354,1.36556,-0.00648301
185.2,14.491,1.37567,-0.00648
185.8,14.548,1.37956,-0.00645857
186.4,14.6058,1.3804,-0.00393584
187,14.6613,1.38057,-0.00350998
187.6,14.7182,1.38965,-0.0035109
188.2,14.7727,1.38578,-0.00509788
188.8,14.8311,1.38208,-0.00438614
189.4,14.8875,1.37837,-0.00694838
190,14.9434,1.38066,-0.0129402
190.6,14.9996,1.3873,-0.00644223
191.2,15.0576,1.38881,-0.0042812
191.8,15.1136,1.38789,-0.00428343
192.4,15.1706,1.38376,-0.00469461
193,15.2266,1.39374,-0.00347208
193.6,15.2831,1.39849,-0.00154168
194.2,15.3382,1.39954,-0.0025244
194.8,15.3959,1.39413,-0.00384005
195.4,15.4499,1.39808,-0.00388134
196,15.5083,1.40501,-0.00384041
196.6,15.5651,1.40648,-0.00384906
197.2,15.6227,1.4053,-0.00515954
197.8,15.678,1.4132,-0.00515974
198.4,15.7359,1.41255,-0.00588404
199,15.7908,1.40844,-0.00648011
199.6,15.8474,1.41919,-0.00649072
200.2,15.9038,1.40839,-0.0078016
200.8,15.9599,1.41771,-0.00786039
201.4,16.0162,1.41657,-0.0064808
202,16.0725,1.42599,-0.00648005
202.6,16.1303,1.41812,-0.00528451
203.2,16.188,1.42288,-0.00655834
203.8,16.2435,1.42088,-0.00515866
204.4,16.2997,1.42042,-0.00518575
205,16.3561,1.42247,-0.00645965
205.6,16.4126,1.43374,-0.00548862
206.2,16.4686,1.43035,-0.0043311
206.8,16.5259,1.43081,-0.00417934
207.4,16.5825,1.42574,-0.00565078
208,16.6383,1.42563,-0.0109861
208.6,16.6952,1.43161,-0.0116686
209.2,16.7528,1.427,-0.00662305
209.8,16.8098,1.42953,-0.00528866
210.4,16.8658,1.43494,-0.00651848
211,16.9226,1.4323,-0.00724998
211.6,16.9789,1.43793,-0.00855248
212.2,17.0359,1.43922,-0.0072306
212.8,17.0923,1.44768,-0.00592964
213.4,17.1498,1.44597,-0.00460457
214,17.2068,1.44212,-0.00599241
214.6,17.2606,1.44641,-0.00591739
215.2,17.3203,1.44577,-0.0124165
215.8,17.3765,1.43931,-0.0109989
216.4,17.4349,1.43882,-0.00621473
217,17.4898,1.44941,-0.00526882
217.6,17.5474,1.45044,-0.00526992
218.2,17.6049,1.44656,-0.00578105
218.8,17.661,1.45202,-0.0066072
219.4,17.7175,1.45072,-0.00653062
220,17.775,1.44443,-0.00789919
220.6,17.831,1.45964,-0.0079
221.2,17.8892,1.45846,-0.00790001
221.8,17.9437,1.45805,-0.0079
222.4,18.0026,1.45608,-0.00921775
223,18.0595,1.45385,-0.0101038
223.6,18.1155,1.45582,-0.0100904
224.2,18.1733,1.45995,-0.0088899
224.8,18.2302,1.4659,-0.00876001
225.4,18.2863,1.46044,-0.00524979
226,18.3438,1.46091,-0.00329501
226.6,18.3994,1.46497,-0.0024852
227.2,18.4578,1.46117,-0.00221769
227.8,18.5153,1.46427,-0.00425057
228.4,18.5701,1.4675,-0.00381235
229,18.6271,1.46751,-0.00603183
229.6,18.6847,1.47154,-0.00950706
230.2,18.7418,1.47007,-0.01043
230.8,18.7977,1.46716,-0.0109399
231.4,18.8541,1.46367,-0.01175
232,18.9117,1.47578,-0.010174
232.6,18.9682,1.47739,-0.00891382
233.2,19.0251,1.47355,-0.00890001
233.8,19.0805,1.46754,-0.00889726
234.4,19.1382,1.4715,-0.00757384
235,19.1946,1.47378,-0.00616592
235.6,19.2512,1.47744,-0.00625997
236.2,19.3085,1.48298,-0.00627078
236.8,19.3647,1.46956,-0.00758328
237.4,19.4216,1.4742,-0.00767678
238,19.478,1.47579,-0.0088987
238.6,19.5343,1.47411,-0.00790199
239.2,19.5899,1.47122,-0.00758751
239.8,19.6483,1.48553,-0.00767762
240.4,19.7041,1.47817,-0.00623719
241,19.7615,1.48345,-0.00493947
241.6,19.8174,1.48159,-0.00493942
242.2,19.8741,1.48151,-0.00501356
242.8,19.9311,1.47935,-0.00495008
243.4,19.988,1.48031,-0.0048535
244,20.0437,1.48113,-0.00625969
244.6,20.1015,1.48305,-0.0075698
245.2,20.1565,1.49204,-0.00887672
245.8,20.2135,1.48717,-0.00889
246.4,20.2705,1.47859,-0.00888898
247,20.3275,1.48321,-0.00868458
247.6,20.384,1.48719,-0.0075309
248.2,20.4408,1.48708,-0.00758081
248.8,20.4968,1.4922,-0.0062588
249.4,20.5542,1.48575,-0.00722172
250,20.6101,1.49233,-0.00724003
250.6,20.6671,1.48795,-0.00724
251.2,20.7238,1.48946,-0.00723904
251.8,20.7805,1.49008,-0.00593102
252.4,20.8376,1.48683,-0.00731694
253,20.8933,1.48542,-0.00724548
253.6,20.9504,1.48487,-0.00856799
254.2,21.0072,1.48448,-0.00857
254.8,21.064,1.4857,-0.00857
255.4,21.1205,1.48648,-0.00857
256,21.1765,1.48487,-0.00857006
256.6,21.2347,1.49609,-0.00764934
257.2,21.2913,1.48577,-0.00725007
257.8,21.3464,1.48959,-0.00725
258.4,21.4032,1.49737,-0.00725
259,21.4596,1.49319,-0.0058402
259.6,21.5172,1.48623,-0.00593
260.2,21.5737,1.49526,-0.00691148
260.8,21.6311,1.49481,-0.00823977
261.4,21.6886,1.49483,-0.0082462
262,21.7451,1.49362,-0.00562136
262.6,21.8023,1.49507,-0.0056
263.2,21.8593,1.49024,-0.00593835
263.8,21.9158,1.49493,-0.00692138
264.4,21.9726,1.49676,-0.00826141
265,22.0295,1.49564,-0.00988737
265.6,22.0865,1.49394,-0.0108701
266.2,22.1428,1.49165,-0.00984927
266.8,22.1999,1.49637,-0.0102092
267.4,22.2563,1.49343,-0.00884183
268,22.314,1.50471,-0.00759266
268.6,22.3711,1.50109,-0.00757
269.2,22.427,1.50547,-0.00757
269.8,22.4848,1.50713,-0.00757
270.4,22.5422,1.49731,-0.00757361
271,22.5992,1.50689,-0.00726039
271.6,22.656,1.50361,-0.0074382
272.2,22.7132,1.50683,-0.00721458
272.8,22.7697,1.50572,-0.00722947
273.4,22.8261,1.50264,-0.00829997
274,22.8837,1.50584,-0.00892317
274.6,22.9401,1.50794,-0.0102098
275.2,22.9976,1.50277,-0.0101387
275.8,23.0541,1.50911,-0.0115299
276.4,23.1112,1.51086,-0.0115301
277,23.1681,1.50563,-0.011607
277.6,23.2248,1.50471,-0.0115296
278.2,23.281,1.50385,-0.0102758
278.8,23.3383,1.49399,-0.00889999
279.4,23.3945,1.50062,-0.00889989
280,23.4529,1.50643,-0.00750452
280.6,23.5093,1.51176,-0.00626
281.2,23.5662,1.51024,-0.00623099
281.8,23.6239,1.51804,-0.0062418
282.4,23.6797,1.51237,-0.00757098
283,23.7365,1.51041,-0.00890939
283.6,23.7918,1.50836,-0.0105793
284.2,23.8485,1.50432,-0.0116051
284.8,23.9073,1.50851,-0.011851
285.4,23.9645,1.50443,-0.0115359
286,24.0213,1.50102,-0.0102121
286.6,24.0788,1.51554,-0.0101958
287.2,24.1356,1.51389,-0.0108728
287.8,24.1923,1.50497,-0.00955789
288.4,24.2492,1.50788,-0.00799967
289,24.3056,1.50436,-0.00693558
289.6,24.3634,1.5086,-0.00767345
290.2,24.4199,1.49986,-0.00769
290.8,24.4766,1.50358,-0.00769497
291.4,24.534,1.51048,-0.00906232
292,24.5913,1.51496,-0.0104294
292.6,24.6478,1.51107,-0.0117916
293.2,24.7051,1.51866,-0.0118108
293.8,24.7632,1.5211,-0.00910018
294.4,24.8192,1.51435,-0.00890012
295,24.8763,1.51255,-0.00886629
295.6,24.9329,1.51089,-0.0102094
296.2,24.99,1.51228,-0.0104907
296.8,25.0472,1.51626,-0.00701422
297.4,25.1041,1.51998,-0.00204377
298,25.1623,1.52116,-0.00447637
298.6,25.2192,1.52492,-0.00721911
299.2,25.2736,1.51543,-0.0103246
299.8,25.3327,1.5092,-0.0103199
300.4,25.3892,1.51258,-0.0103201
301,25.4467,1.51474,-0.0104436
301.6,25.5053,1.51553,-0.0109735
302.2,25.5611,1.51882,-0.0122921
302.8,25.618,1.52292,-0.013705
303.4,25.6752,1.52118,-0.0137309
304,25.7324,1.51221,-0.0136259
304.6,25.7903,1.50955,-0.0138297
305.2,25.847,1.50561,-0.014272
305.8,25.9041,1.50523,-0.0142111
306.4,25.961,1.51388,-0.0157921
307,26.0184,1.5155,-0.0156378
307.6,26.0757,1.51086,-0.0128357
308.2,26.1318,1.50813,-0.0114932
308.8,26.1909,1.50378,-0.0115326
309.4,26.2472,1.51259,-0.0127988
310,26.3041,1.51973,-0.0115296
310.6,26.3612,1.49984,-0.0125511
311.2,26.4185,1.50166,-0.0138297
311.8,26.4756,1.50769,-0.0141584
312.4,26.5331,1.50246,-0.0161392
313,26.5905,1.50485,-0.0148145
313.6,26.6469,1.50214,-0.0146613
314.2,26.7047,1.50113,-0.0121874
314.8,26.7625,1.50625,-0.0151471
315.4,26.8178,1.51002,-0.0175994
316,26.8773,1.50388,-0.0188802
316.6,26.9338,1.50358,-0.0188797
317.2,26.9916,1.49904,-0.0206433
317.8,27.0494,1.50107,-0.0186725
318.4,27.1061,1.49705,-0.0157843
319,27.164,1.4986,-0.0158107
319.6,27.2214,1.49788,-0.0144917
320.2,27.2782,1.50626,-0.01449
320.8,27.3364,1.5041,-0.0144974
321.4,27.393,1.50843,-0.0131719
322,27.4494,1.50224,-0.0118717
322.6,27.5082,1.50926,-0.011672
323.2,27.5651,1.51537,-0.01054
323.8,27.6226,1.52497,-0.0105354
324.4,27.68,1.50684,-0.0105199
325,27.736,1.51342,-0.0119569
325.6,27.7945,1.50603,-0.0132795
326.2,27.8508,1.51587,-0.0150709
326.8,27.9088,1.50507,-0.0161575
327.4,27.966,1.50114,-0.0186643
328,28.0239,1.50289,-0.0193095
328.6,28.0817,1.49961,-0.0199903
329.2,28.1382,1.50163,-0.01999
329.8,28.1959,1.49218,-0.01999
330.4,28.2539,1.49208,-0.0184969
331,28.3114,1.48723,-0.0162924
331.6,28.3687,1.48371,-0.0146062
332.2,28.426,1.49668,-0.0130674
332.8,28.4838,1.49167,-0.01307
333.4,28.5401,1.49474,-0.0130699
334,28.5977,1.49735,-0.0154282
334.6,28.6558,1.49238,-0.0186805
335.2,28.7137,1.48456,-0.0215195
335.8,28.7708,1.48239,-0.0228693
336.4,28.8289,1.49222,-0.0241523
337,28.8869,1.48701,-0.0224374
337.6,28.9443,1.48886,-0.018782
338.2,29.002,1.48507,-0.0168688
338.8,29.0591,1.49012,-0.0151377
339.4,29.1168,1.48926,-0.0144232
340,29.1739,1.48828,-0.011781
340.6,29.2316,1.48361,-0.0147099
341.2,29.2888,1.48552,-0.0164971
341.8,29.3465,1.48888,-0.0183798
342.4,29.4023,1.48329,-0.0161265
343,29.4616,1.48955,-0.016853
343.6,29.5189,1.4801,-0.0189996
344.2,29.5764,1.47784,-0.0216422
344.8,29.6342,1.48395,-0.0230535
345.4,29.6927,1.47538,-0.0230498
346,29.7496,1.47704,-0.0215909
346.6,29.8074,1.49906,-0.0203122
347.2,29.8644,1.47044,-0.0216838
347.8,29.922,1.46278,-0.0214742
348.4,29.9808,1.47019,-0.0198225
349,30.0375,1.47075,-0.0209696
349.6,30.0956,1.45961,-0.0218713
350.2,30.1528,1.46921,-0.0223115
350.8,30.2106,1.47489,-0.0195032
351.4,30.269,1.47682,-0.01954
352,30.3269,1.4776,-0.01954
352.6,30.3839,1.4664,-0.0195372
353.2,30.4415,1.46293,-0.0181588
353.8,30.4999,1.46771,-0.0215286
354.4,30.557,1.4665,-0.0229406
355,30.6156,1.47035,-0.0224745
355.6,30.6705,1.46964,-0.0226084
356.2,30.7301,1.46869,-0.0239969
356.8,30.789,1.46866,-0.0252509
357.4,30.8463,1.4665,-0.0239562
358,30.9037,1.46501,-0.0238121
358.6,30.9613,1.4653,-0.0223863
359.2,31.0195,1.46803,-0.0245412
359.8,31.0767,1.46115,-0.0263554
360.4,31.1355,1.46813,-0.02634
361,31.1929,1.46751,-0.02634
361.6,31.2508,1.46637,-0.0250299
362.2,31.3087,1.47172,-0.0250627
362.8,31.3667,1.47649,-0.0222109
363.4,31.4239,1.4844,-0.0224737
364,31.4819,1.48634,-0.0238302
364.6,31.5399,1.48205,-0.0266894
365.2,31.5976,1.47169,-0.0268763
365.8,31.6556,1.47795,-0.0268899
366.4,31.7122,1.48489,-0.0255836
367,31.7708,1.48363,-0.0245774
367.6,31.8291,1.48161,-0.02156
368.2,31.8862,1.47375,-0.0225333
368.8,31.9455,1.47652,-0.0223998
369.4,32.0028,1.47253,-0.0233816
370,32.0605,1.47358,-0.0283295
370.6,32.1179,1.47609,-0.0285453
371.2,32.1761,1.47665,-0.0286927
371.8,32.2359,1.48104,-0.029603
372.4,32.2932,1.47795,-0.0312132
373,32.3509,1.46601,-0.0311371
373.6,32.4084,1.46003,-0.0329053
374.2,32.4663,1.46811,-0.0326427
374.8,32.5249,1.4706,-0.03129
375.4,32.5832,1.47056,-0.0312901
376,32.6411,1.47548,-0.0309796
376.6,32.6986,1.46843,-0.0287179
377.2,32.7572,1.45929,-0.0286556
377.8,32.813,1.46124,-0.02865
378.4,32.8724,1.46389,-0.0286814
379,32.9312,1.47093,-0.0273247
379.6,32.9894,1.46846,-0.0286409
380.2,33.0471,1.4772,-0.0300065
380.8,33.1047,1.4778,-0.03129
381.4,33.1634,1.47697,-0.0299907
382,33.2212,1.47034,-0.0291946
382.6,33.2803,1.47695,-0.0327485
383.2,33.3385,1.47413,-0.0332352
383.8,33.396,1.47005,-0.0340408
384.4,33.4547,1.4668,-0.035382
385,33.5126,1.46771,-0.03535
385.6,33.5707,1.45869,-0.0364999
386.2,33.6289,1.46627,-0.0366717
386.8,33.6871,1.45734,-0.0379981
387.4,33.7448,1.456,-0.037325
388,33.8033,1.46081,-0.0366821
388.6,33.8616,1.45792,-0.03667
389.2,33.9202,1.45598,-0.03667
389.8,33.9777,1.45796,-0.0366818
390.4,34.0358,1.45833,-0.0325402
391,34.0946,1.45139,-0.0326882
391.6,34.1523,1.44504,-0.0352406
392.2,34.2109,1.43532,-0.0354565
392.8,34.268,1.4273,-0.0365885
393.4,34.3267,1.42878,-0.0378804
394,34.3848,1.42454,-0.0379685
394.6,34.4441,1.43636,-0.0365671
395.2,34.5013,1.43595,-0.035237
395.8,34.5594,1.43192,-0.0342986
396.4,34.6172,1.43701,-0.0352375
397,34.6761,1.4448,-0.0339202
397.6,34.7353,1.42982,-0.0353481
398.2,34.7918,1.44402,-0.0380067
398.8,34.8506,1.43875,-0.0399512
399.4,34.9098,1.43053,-0.0410644
400,34.9663,1.42882,-0.042606
400.6,35.0261,1.43266,-0.0425895
401.2,35.0837,1.41998,-0.0413032
401.8,35.1421,1.42899,-0.0427503
402.4,35.2003,1.43664,-0.0442269
403,35.2577,1.43348,-0.0445556
403.6,35.3154,1.43726,-0.0440985
404.2,35.3744,1.43487,-0.04392
404.8,35.4335,1.42932,-0.0439108
405.4,35.4921,1.43889,-0.0444732
406,35.5508,1.44022,-0.0457366
406.6,35.608,1.43185,-0.0462205
407.2,35.667,1.4265,-0.0476463
407.8,35.7254,1.42517,-0.0491853
408.4,35.7841,1.43435,-0.0479922
409,35.8424,1.43738,-0.0474314
409.6,35.9004,1.43223,-0.0460914
410.2,35.9584,1.42685,-0.0457953
410.8,36.0166,1.42629,-0.0460711
411.4,36.0755,1.43044,-0.0474195
412,36.1327,1.42592,-0.0477027
412.6,36.1923,1.42908,-0.0493459
413.2,36.2505,1.43062,-0.0500601
413.8,36.3093,1.43186,-0.0500596
414.4,36.3664,1.41543,-0.0512941
415,36.4252,1.42044,-0.0527429
415.6,36.4829,1.41606,-0.0533786
416.2,36.5423,1.41437,-0.0555545
416.8,36.6007,1.40856,-0.0549086
417.4,36.6575,1.39273,-0.0564409
418,36.7185,1.39187,-0.0564181
418.6,36.7755,1.39899,-0.0551115
419.2,36.8352,1.40446,-0.0578416
419.8,36.8945,1.41347,-0.05785
420.4,36.9516,1.40066,-0.0562778
421,37.0111,1.41102,-0.0539724
421.6,37.0696,1.40482,-0.0524752
422.2,37.1282,1.40042,-0.0525783
422.8,37.1871,1.39723,-0.0571325
423.4,37.2457,1.40474,-0.0618327
424,37.3023,1.3929,-0.06181
424.6,37.3623,1.3863,-0.0602403
425.2,37.4192,1.39717,-0.06016
425.8,37.4774,1.38587,-0.0601821
426.4,37.5383,1.38433,-0.0632676
427,37.5964,1.37674,-0.0671916
427.6,37.6552,1.37132,-0.0663933
428.2,37.7135,1.36489,-0.0669837
428.8,37.7725,1.3601,-0.0682799
429.4,37.8316,1.35675,-0.0719757
430,37.8899,1.36531,-0.0709325
430.6,37.9488,1.36526,-0.0709395
431.2,38.0067,1.3664,-0.0709185
431.8,38.0655,1.36289,-0.0706592
432.4,38.1235,1.34889,-0.0726933
433,38.1826,1.34985,-0.0735499
433.6,38.2417,1.3465,-0.0748647
434.2,38.3001,1.3605,-0.0749043
434.8,38.3595,1.34213,-0.0776121
435.4,38.4174,1.33849,-0.077366
436,38.4758,1.31489,-0.079019
436.6,38.5343,1.33267,-0.0823057
437.2,38.5925,1.32669,-0.0872393
437.8,38.6518,1.32386,-0.0913681
438.4,38.7107,1.31201,-0.0927672
439,38.7698,1.315,-0.0942924
439.6,38.8282,1.30966,-0.0942992
440.2,38.8865,1.30268,-0.0968893
440.8,38.9446,1.30177,-0.0987719
441.4,39.0041,1.30511,-0.10008
442,39.0629,1.30457,-0.103084
442.6,39.1209,1.28015,-0.108044
443.2,39.179,1.27907,-0.11183
443.8,39.2382,1.28062,-0.115244
444.4,39.2975,1.26632,-0.11771
445,39.3556,1.26996,-0.12088
445.6,39.414,1.26495,-0.122943
446.2,39.4737,1.2557,-0.124634
446.8,39.5317,1.2492,-0.128661
447.4,39.5898,1.24797,-0.134677
448,39.6485,1.24249,-0.139606
448.6,39.7074,1.2305,-0.145614
449.2,39.7656,1.23488,-0.14796
449.8,39.8245,1.22931,-0.15164
450.4,39.883,1.22696,-0.157986
451,39.9423,1.21607,-0.162703
451.6,39.9994,1.21977,-0.171832
452.2,40.059,1.21924,-0.177721
452.8,40.1173,1.20461,-0.185157
453.4,40.1772,1.20673,-0.194811
454,40.2359,1.20908,-0.203957
454.6,40.2942,1.21233,-0.211731
455.2,40.3511,1.21447,-0.217219
455.8,40.4113,1.21649,-0.224277
456.4,40.4706,1.21547,-0.233613
457,40.5296,1.23217,-0.243282
457.6,40.5887,1.24383,-0.254007
458.2,40.6477,1.25254,-0.264766
458.8,40.7055,1.2488,-0.277841
459.4,40.7651,1.26111,-0.289631
460,40.8232,1.27633,-0.301415
460.6,40.8813,1.28625,-0.313994
461.2,40.9401,1.29532,-0.326241
461.8,41.0005,1.31226,-0.3415
462.4,41.0586,1.32532,-0.356876
463,41.1182,1.32212,-0.374461
463.6,41.1773,1.32689,-0.392583
464.2,41.2355,1.36046,-0.410735
464.8,41.2926,1.37312,-0.428926
465.4,41.3539,1.39424,-0.449639
466,41.4132,1.41161,-0.470945
466.6,41.4719,1.41876,-0.492361
467.2,41.5312,1.41413,-0.514148
467.8,41.5894,1.43211,-0.535304
468.4,41.649,1.44061,-0.557277
469,41.7075,1.4253,-0.5783
469.6,41.7662,1.41689,-0.601431
470.2,41.8261,1.46006,-0.623709
470.8,41.8845,1.49363,-0.649606
471.4,41.9444,1.52257,-0.675656
472,42.0002,1.50588,-0.700633
472.6,42.061,1.50834,-0.729851
473.2,42.1208,1.49934,-0.760409
473.8,42.179,1.50631,-0.787773
474.4,42.2393,1.54082,-0.817772
475,42.2981,1.56095,-0.847055
475.6,42.3571,1.54379,-0.878656
476.2,42.4154,1.54525,-0.907866
476.8,42.475,1.52905,-0.940613
477.4,42.5339,1.54029,-0.974113
478,42.5933,1.53632,-1.00815
478.6,42.6513,1.53711,-1.04112
479.2,42.7106,1.52672,-1.0725
479.8,42.7676,1.52361,-1.10647
480.4,42.8281,1.51869,-1.13846
481,42.8868,1.52082,-1.17383
481.6,42.9468,1.54415,-1.2089
482.2,43.0062,1.58799,-1.24848
482.8,43.0657,1.60805,-1.28627
483.4,43.1249,1.61549,-1.32496
484,43.184,1.60443,-1.36145
484.6,43.2433,1.61976,-1.40004
485.2,43.3027,1.62964,-1.43913
485.8,43.3614,1.64274,-1.47953
486.4,43.4202,1.65192,-1.50937
487,43.4798,1.6564,-1.56271
487.6,43.5385,1.66674,-1.60279
488.2,43.5981,1.66807,-1.64468
488.8,43.6572,1.67017,-1.68412
489.4,43.7157,1.66625,-1.72543
490,43.7748,1.6738,-1.76561
490.6,43.8341,1.6679,-1.80756
491.2,43.8934,1.66267,-1.84923
491.8,43.9525,1.64642,-1.88925
492.4,44.0107,1.6389,-1.93009
493,44.0701,1.6205,-1.97133
493.6,44.1283,1.60896,-2.01309
494.2,44.188,1.59029,-2.05092
494.8,44.2447,1.55554,-2.09101
495.4,44.3042,1.5239,-2.12919
496,44.3642,1.50065,-2.16069
496.6,44.4236,1.46629,-2.20571
497.2,44.4827,1.43117,-2.24127
497.8,44.5412,1.3918,-2.27466
498.4,44.5991,1.36862,-2.31107
499,44.6593,1.31884,-2.34333
499.6,44.7173,1.27523,-2.37193
500.2,44.7755,1.23962,-2.40076
500.8,44.8348,1.18732,-2.43276
501.4,44.8929,1.14228,-2.46078
502,44.9525,1.09937,-2.49037
502.6,45.0118,1.05981,-2.51627
503.2,45.0689,1.00495,-2.53935
503.8,45.1277,0.963664,-2.56251
504.4,45.187,0.933695,-2.58222
505,45.2454,0.88851,-2.6031
505.6,45.3049,0.853405,-2.623
506.2,45.3634,0.811145,-2.64277
506.8,45.4216,0.789703,-2.65697
507.4,45.4809,0.755127,-2.67627
508,45.5399,0.720647,-2.69102
508.6,45.5991,0.70341,-2.70542
509.2,45.6587,0.675466,-2.71978
509.8,45.7168,0.649683,-2.7354
510.4,45.7757,0.636871,-2.74635
511,45.8352,0.614273,-2.75401
511.6,45.8946,0.603736,-2.76413
512.2,45.9534,0.582021,-2.77562
512.8,46.0117,0.567876,-2.7879
513.4,46.0708,0.560516,-2.79494
514,46.1303,0.547636,-2.8036
514.6,46.1905,0.532838,-2.81295
515.2,46.2486,0.522541,-2.8219
515.8,46.3086,0.50826,-2.83101
516.4,46.3677,0.508024,-2.83876
517,46.4265,0.48752,-2.84418
517.6,46.4858,0.482396,-2.84738
518.2,46.5458,0.473196,-2.85222
518.8,46.6046,0.465835,-2.85786
519.4,46.6644,0.454034,-2.85979
520,46.7234,0.446256,-2.86396
520.6,46.7833,0.444842,-2.86944
521.2,46.8425,0.433164,-2.87256
521.8,46.9014,0.428989,-2.87897
522.4,46.961,0.422513,-2.88526
523,47.0205,0.421175,-2.88891
523.6,47.0798,0.41846,-2.89441
524.2,47.1394,0.418259,-2.89758
524.8,47.1987,0.406152,-2.89921
525.4,47.2581,0.405813,-2.90266
526,47.3177,0.400642,-2.90564
526.6,47.3778,0.395576,-2.9077
527.2,47.4364,0.390831,-2.91109
527.8,47.4957,0.392557,-2.91132
528.4,47.5558,0.38965,-2.91582
529,47.6134,0.382294,-2.91982
529.6,47.6736,0.37443,-2.92537
530.2,47.7336,0.37295,-2.92805
530.8,47.7941,0.365892,-2.93176
531.4,47.8527,0.368032,-2.93515
532,47.911,0.367116,-2.93743
532.6,47.9725,0.358761,-2.93682
533.2,48.0322,0.355348,-2.93869
533.8,48.0915,0.350651,-2.94113
534.4,48.1505,0.347423,-2.94365
535,48.2102,0.346805,-2.94335
535.6,48.2693,0.330456,-2.94528
536.2,48.3283,0.338007,-2.94758
536.8,48.3884,0.331701,-2.94939
537.4,48.4473,0.330824,-2.95084
538,48.5075,0.335378,-2.95229
538.6,48.566,0.328496,-2.9535
539.2,48.6265,0.326472,-2.9565
539.8,48.6854,0.32154,-2.96029
540.4,48.7461,0.314938,-2.96185
541,48.8052,0.317561,-2.96433
541.6,48.865,0.307649,-2.96434
542.2,48.9242,0.309262,-2.96515
542.8,48.9843,0.305964,-2.9672
543.4,49.0431,0.303854,-2.96977
544,49.1024,0.292383,-2.97232
544.6,49.1629,0.293923,-2.97489
545.2,49.2222,0.292917,-2.9742
545.8,49.2816,0.298653,-2.97547
546.4,49.3412,0.291264,-2.97489
547,49.4012,0.288301,-2.97621
547.6,49.4611,0.290174,-2.97672
548.2,49.5193,0.282616,-2.97753
548.8,49.5798,0.281043,-2.9782
549.4,49.6389,0.278773,-2.98065
550,49.6966,0.26918,-2.98368
550.6,49.7574,0.266891,-2.98504
551.2,49.8176,0.267719,-2.98659
551.8,49.8781,0.261324,-2.98798
552.4,49.9374,0.259676,-2.99013
553,49.9972,0.250203,-2.99192
553.6,50.0557,0.251807,-2.99423
554.2,50.117,0.250308,-2.995
554.8,50.1762,0.247953,-2.99738
555.4,50.2363,0.246434,-2.99966
556,50.2964,0.245786,-3.00234
556.6,50.3559,0.242135,-3.00118
557.2,50.4161,0.242375,-3.00245
557.8,50.4749,0.233269,-3.00247
558.4,50.5348,0.240342,-3.00268
559,50.5922,0.236356,-3.00245
559.6,50.6549,0.23354,-3.00376
560.2,50.7148,0.23442,-3.00645
560.8,50.7741,0.229223,-3.0077
561.4,50.8338,0.226123,-3.00777
562,50.894,0.226819,-3.01179
562.6,50.9535,0.225515,-3.01238
563.2,51.0134,0.230288,-3.01442
563.8,51.0716,0.225012,-3.01748
564.4,51.1329,0.218742,-3.02013
565,51.1925,0.21788,-3.02144
565.6,51.2521,0.209685,-3.02144
566.2,51.3126,0.21176,-3.02081
566.8,51.3715,0.212289,-3.02014
567.4,51.4319,0.215873,-3.02013
568,51.4922,0.218005,-3.02276
568.6,51.5516,0.221883,-3.0243
569.2,51.6113,0.213617,-3.02408
569.8,51.6725,0.214976,-3.02407
570.4,51.7314,0.226699,-3.02275
571,51.7916,0.222291,-3.02406
571.6,51.8521,0.212215,-3.0254
572.2,51.9099,0.221606,-3.02714
572.8,51.9702,0.219865,-3.02912
573.4,52.0298,0.221596,-3.03066
574,52.0899,0.224547,-3.03198
574.6,52.1494,0.234954,-3.03265
575.2,52.2095,0.22769,-3.03444
575.8,52.2703,0.231207,-3.03552
576.4,52.3293,0.223573,-3.03545
577,52.3904,0.231753,-3.03812
577.6,52.4508,0.238962,-3.03945
578.2,52.5098,0.246122,-3.04065
578.8,52.5706,0.25292,-3.04364
579.4,52.6303,0.255666,-3.04361
580,52.6906,0.260937,-3.04379
580.6,52.7493,0.256366,-3.04492
581.2,52.8097,0.246373,-3.04625
581.8,52.8694,0.255751,-3.04761
582.4,52.9285,0.230255,-3.04883
583,52.9892,0.251469,-3.04948
583.6,53.0497,0.272754,-3.05032
584.2,53.1096,0.281145,-3.05152
584.8,53.17,0.305491,-3.05282
585.4,53.2305,0.314368,-3.05283
586,53.2903,0.286705,-3.05165
586.6,53.3491,0.291782,-3.05283
587.2,53.41,0.269223,-3.05396
587.8,53.4698,0.252848,-3.05546
588.4,53.5293,0.241189,-3.05542
589,53.5897,0.248384,-3.05804
589.6,53.6494,0.242347,-3.0581
590.2,53.7098,0.253772,-3.05941
590.8,53.7699,0.247647,-3.06205
591.4,53.8293,0.248455,-3.06206
592,53.8907,0.253852,-3.06338
592.6,53.9502,0.256156,-3.06317
593.2,54.0099,0.256142,-3.06403
593.8,54.0697,0.267509,-3.06546
594.4,54.1298,0.264489,-3.06605
595,54.1904,0.270836,-3.06473
595.6,54.2499,0.274398,-3.06618
596.2,54.3097,0.280205,-3.06735
596.8,54.37,0.281394,-3.06837
597.4,54.4309,0.282537,-3.0691
598,54.4904,0.279155,-3.07041
598.6,54.5504,0.291693,-3.0704
599.2,54.6107,0.292669,-3.07172
599.8,54.6707,0.29944,-3.07312
600.4,54.7303,0.294368,-3.07412
601,54.791,0.275114,-3.07534
601.6,54.8506,0.265354,-3.07357
602.2,54.9108,0.25934,-3.07152
602.8,54.9711,0.246768,-3.071
603.4,55.0309,0.256114,-3.0747
604,55.09,0.257095,-3.07797
604.6,55.1514,0.268661,-3.07801
605.2,55.2123,0.270578,-3.07688
605.8,55.2712,0.273679,-3.07685
606.4,55.3302,0.273592,-3.0782
607,55.3927,0.268329,-3.0782
607.6,55.4518,0.25591,-3.07957
608.2,55.512,0.25928,-3.07962
608.8,55.5722,0.271243,-3.07965
609.4,55.6322,0.258346,-3.07831
610,55.6933,0.273271,-3.08113
610.6,55.7525,0.267278,-3.08388
611.2,55.8133,0.274341,-3.08523
611.8,55.8733,0.277273,-3.08665
612.4,55.9335,0.285387,-3.089
613,55.994,0.293606,-3.09061
613.6,56.0534,0.29665,-3.09061
614.2,56.1132,0.292093,-3.08794
614.8,56.1742,0.287692,-3.08929
615.4,56.2348,0.292213,-3.09059
616,56.295,0.296035,-3.09062
616.6,56.3549,0.306631,-3.09192
617.2,56.4152,0.299272,-3.09192
617.8,56.4754,0.301636,-3.09192
618.4,56.535,0.301958,-3.09326
619,56.5957,0.298561,-3.09468
619.6,56.6549,0.300836,-3.09333
620.2,56.7156,0.309369,-3.09335
620.8,56.7769,0.30728,-3.09407
621.4,56.8365,0.320771,-3.09467
622,56.8966,0.309178,-3.09598
622.6,56.9564,0.303883,-3.09455
623.2,57.0168,0.315656,-3.09466
623.8,57.0763,0.318478,-3.09468
624.4,57.1373,0.32584,-3.09615
625,57.1981,0.316708,-3.09629
625.6,57.2587,0.323132,-3.09752
626.2,57.3188,0.324844,-3.10012
626.8,57.3788,0.319156,-3.10178
627.4,57.439,0.322563,-3.10434
628,57.4986,0.310826,-3.10434
628.6,57.5595,0.318724,-3.10563
629.2,57.6196,0.317089,-3.10432
629.8,57.6797,0.31851,-3.10426
630.4,57.7401,0.314907,-3.10433
631,57.7998,0.318085,-3.10683
631.6,57.8588,0.310979,-3.1083
632.2,57.9192,0.308844,-3.10828
632.8,57.9803,0.306679,-3.1086
633.4,58.0406,0.30138,-3.10714
634,58.1005,0.305325,-3.1045
634.6,58.1612,0.30761,-3.1044
635.2,58.2215,0.305622,-3.10575
635.8,58.2815,0.307351,-3.10838
636.4,58.3424,0.312562,-3.10839
637,58.4018,0.299967,-3.10839
637.6,58.4613,0.301025,-3.10745
638.2,58.5226,0.30515,-3.1084
638.8,58.5826,0.321059,-3.11002
639.4,58.6431,0.329413,-3.1107
640,58.7029,0.328834,-3.11036
640.6,58.7628,0.337862,-3.10949
641.2,58.8233,0.3391,-3.11066
641.8,58.8839,0.339888,-3.11069
642.4,58.9448,0.341093,-3.1107
643,59.0046,0.337858,-3.11202
643.6,59.0649,0.333497,-3.11333
644.2,59.1247,0.336138,-3.1161
644.8,59.1852,0.339158,-3.11639
645.4,59.2453,0.333042,-3.11607
646,59.3054,0.336434,-3.11607
646.6,59.3656,0.335241,-3.11607
647.2,59.4254,0.329393,-3.11607
647.8,59.486,0.330819,-3.11737
648.4,59.5461,0.332535,-3.1188
649,59.606,0.322291,-3.11739
649.6,59.6667,0.313855,-3.11931
650.2,59.7264,0.321005,-3.12003
650.8,59.7869,0.319136,-3.12003
651.4,59.8473,0.324554,-3.12003
652,59.9055,0.313688,-3.12003
652.6,59.9663,0.319906,-3.12003
653.2,60.0285,0.32119,-3.12129
653.8,60.0873,0.320607,-3.12134
654.4,60.1469,0.314385,-3.12102
655,60.2062,0.308685,-3.12206
655.6,60.2683,0.309592,-3.12419
656.2,60.3287,0.307381,-3.12307
656.8,60.3874,0.305525,-3.12174
657.4,60.4488,0.308099,-3.12157
658,60.5092,0.306874,-3.12283
658.6,60.5699,0.306737,-3.12587
659.2,60.6304,0.30499,-3.12688
659.8,60.6891,0.290497,-3.12562
660.4,60.749,0.303324,-3.12561
661,60.8108,0.288975,-3.12694
661.6,60.8705,0.293543,-3.12695
662.2,60.9315,0.29005,-3.12826
662.8,60.9914,0.294391,-3.12827
663.4,61.0518,0.294063,-3.12957
664,61.1128,0.290385,-3.13056
664.6,61.1716,0.293603,-3.13058
665.2,61.2332,0.288369,-3.13188
665.8,61.2923,0.288285,-3.13316
666.4,61.3532,0.289114,-3.13584
667,61.4133,0.286157,-3.13452
667.6,61.4745,0.283055,-3.13451
668.2,61.5349,0.281745,-3.13322
668.8,61.5939,0.286113,-3.13013
669.4,61.6554,0.278975,-3.12859
670,61.7156,0.278888,-3.12859
670.6,61.7759,0.268539,-3.12969
671.2,61.8366,0.275717,-3.13145
671.8,61.8965,0.276739,-3.13408
672.4,61.9566,0.266018,-3.1327
673,62.0165,0.269273,-3.13409
673.6,62.077,0.262605,-3.13542
674.2,62.1368,0.261108,-3.13614
674.8,62.197,0.259947,-3.13671
675.4,62.2575,0.265923,-3.13803
676,62.3175,0.258682,-3.13803
676.6,62.378,0.258412,-3.13673
677.2,62.4379,0.256303,-3.13672
677.8,62.4988,0.250807,-3.13672
678.4,62.5586,0.246692,-3.13897
679,62.6189,0.254599,-3.13798
679.6,62.6785,0.24477,-3.13935
680.2,62.7398,0.229862,-3.13935
680.8,62.7977,0.234169,-3.13935
681.4,62.8574,0.229644,-3.14213
682,62.918,0.225231,-3.14348
682.6,62.9801,0.223312,-3.14418
683.2,63.0399,0.215591,-3.14506
683.8,63.1002,0.214996,-3.14418
684.4,63.1608,0.214768,-3.14418
685,63.22,0.206827,-3.14279
685.6,63.281,0.199474,-3.14418
686.2,63.3414,0.197835,-3.14564
686.8,63.402,0.194932,-3.14804
687.4,63.4617,0.190287,-3.14876
688,63.5222,0.192612,-3.14669
688.6,63.5826,0.180851,-3.14406
689.2,63.6418,0.184574,-3.14406
689.8,63.7032,0.177725,-3.14263
690.4,63.7645,0.190705,-3.14275
691,63.8235,0.202224,-3.14275
691.6,63.8848,0.208253,-3.14276
692.2,63.9448,0.201174,-3.14606
692.8,64.0055,0.207646,-3.14814
693.4,64.0661,0.195682,-3.14813
694,64.1262,0.197425,-3.14813
694.6,64.1874,0.190921,-3.1486
695.2,64.2469,0.190101,-3.14631
695.8,64.3082,0.188053,-3.14493
696.4,64.3693,0.182964,-3.14491
697,64.4287,0.180883,-3.14631
697.6,64.4894,0.178859,-3.15105
698.2,64.5503,0.174386,-3.155
698.8,64.6102,0.170786,-3.15641
699.4,64.6711,0.16288,-3.15627
700,64.7307,0.16435,-3.15626
700.6,64.7915,0.157083,-3.15875
701.2,64.8523,0.147884,-3.16051
701.8,64.9114,0.145195,-3.15991
702.4,64.9722,0.151096,-3.15644
703,65.033,0.147366,-3.15438
703.6,65.0934,0.145997,-3.15439
704.2,65.1544,0.132896,-3.15309
704.8,65.2148,0.144895,-3.15312
705.4,65.2746,0.143299,-3.15439
706,65.3338,0.135925,-3.15546
706.6,65.3951,0.135755,-3.15441
707.2,65.4552,0.132049,-3.15449
707.8,65.5157,0.128083,-3.15451
708.4,65.5764,0.12345,-3.15587
709,65.6369,0.120674,-3.1568
709.6,65.6984,0.113282,-3.15718
710.2,65.7577,0.107834,-3.15839
710.8,65.8193,0.117396,-3.15724
711.4,65.8797,0.113566,-3.15724
712,65.9402,0.113058,-3.15874
712.6,66.0008,0.119502,-3.16213
713.2,66.0608,0.116016,-3.16339
713.8,66.1211,0.12269,-3.16196
714.4,66.1821,0.121401,-3.16064
715,66.2425,0.121426,-3.16247
715.6,66.3024,0.129069,-3.1635
716.2,66.3639,0.133458,-3.16217
716.8,66.4244,0.137515,-3.16279
717.4,66.4847,0.134327,-3.16481
718,66.5451,0.127479,-3.16375
718.6,66.6066,0.131509,-3.16489
719.2,66.6664,0.130921,-3.1635
719.8,66.7268,0.143215,-3.1622
720.4,66.7875,0.136864,-3.16373
721,66.8484,0.132882,-3.16613
721.6,66.9094,0.130934,-3.16677
722.2,66.9699,0.114814,-3.16647
722.8,67.0309,0.104584,-3.16717
723.4,67.0908,0.106039,-3.16646
724,67.1514,0.0957951,-3.16646
724.6,67.2114,0.085537,-3.16645
725.2,67.273,0.0846489,-3.16658
725.8,67.3334,0.0829796,-3.16669
726.4,67.3943,0.0688015,-3.16801
727,67.4551,0.0663405,-3.16686
727.6,67.5155,0.0612987,-3.16669
728.2,67.576,0.0487475,-3.16797
728.8,67.6369,0.054109,-3.16964
729.4,67.6977,0.0452004,-3.16874
730,67.757,0.0241538,-3.16561
730.6,67.8179,0.0275723,-3.16422
731.2,67.8775,0.0226635,-3.16154
731.8,67.9383,0.0175384,-3.16149
732.4,67.9986,0.00913059,-3.16349
733,68.0601,0.00959834,-3.16483
733.6,68.1193,0.000847193,-3.16547
734.2,68.1821,-0.00573051,-3.16994
734.8,68.2431,-0.012846,-3.17647
735.4,68.3041,-0.0119924,-3.17679
736,68.364,-0.0104572,-3.17528
736.6,68.4246,-0.0187344,-3.17235
737.2,68.4847,-0.0227434,-3.17238
737.8,68.5456,-0.0207374,-3.17239
738.4,68.6069,-0.0266254,-3.17238
739,68.6676,-0.0250361,-3.17148
739.6,68.7258,-0.0383894,-3.17085
740.2,68.788,-0.0407546,-3.17225
740.8,68.8492,-0.0463473,-3.17515
741.4,68.9093,-0.0442922,-3.17364
742,68.9702,-0.0452472,-3.1724
742.6,69.0301,-0.0497705,-3.1737
743.2,69.0906,-0.0579446,-3.17503
743.8,69.1492,-0.0576109,-3.17504
744.4,69.2128,-0.0527309,-3.17569
745,69.2738,-0.055511,-3.17349
745.6,69.3343,-0.0537133,-3.17347
746.2,69.3944,-0.0560614,-3.17657
746.8,69.4557,-0.0580007,-3.17968
747.4,69.5167,-0.0571096,-3.18283
748,69.5769,-0.0600786,-3.17938
748.6,69.638,-0.0600578,-3.17909
749.2,69.6988,-0.0591713,-3.18026
749.8,69.759,-0.0671949,-3.1849
750.4,69.8199,-0.0603836,-3.18569
751,69.8796,-0.0623758,-3.18563
751.6,69.9394,-0.0618319,-3.18435
752.2,70.002,-0.0727031,-3.18567
752.8,70.0627,-0.0730915,-3.18392
753.4,70.1237,-0.0683135,-3.1793
754,70.1832,-0.0692107,-3.17788
754.6,70.2443,-0.0749996,-3.17755
755.2,70.3054,-0.0769392,-3.17608
755.8,70.364,-0.0813887,-3.17698
756.4,70.4258,-0.0788263,-3.17755
757,70.4866,-0.0824304,-3.17613
757.6,70.5477,-0.0899352,-3.17646
758.2,70.608,-0.090081,-3.17754
758.8,70.6692,-0.102568,-3.1806
759.4,70.7302,-0.0989137,-3.18455
760,70.7897,-0.102302,-3.18758
760.6,70.8506,-0.103328,-3.18491
761.2,70.9126,-0.105342,-3.18358
761.8,70.9725,-0.112567,-3.18084
762.4,71.0333,-0.11136,-3.18083
763,71.0943,-0.115997,-3.18219
763.6,71.1544,-0.119507,-3.18084
764.2,71.2155,-0.117797,-3.18086
764.8,71.278,-0.124819,-3.17952
765.4,71.3369,-0.128121,-3.18077
766,71.3968,-0.125135,-3.18219
766.6,71.4576,-0.130877,-3.18238
767.2,71.5207,-0.133848,-3.18505
767.8,71.5796,-0.138691,-3.1837
768.4,71.6416,-0.139149,-3.18501
769,71.7027,-0.138081,-3.18633
769.6,71.7639,-0.144783,-3.1871
770.2,71.8249,-0.150937,-3.18905
770.8,71.8863,-0.152443,-3.18897
771.4,71.9473,-0.15336,-3.18815
772,72.008,-0.153724,-3.18613
772.6,72.0691,-0.158182,-3.18622
773.2,72.1291,-0.153791,-3.18622
773.8,72.1907,-0.163054,-3.18481
774.4,72.2516,-0.164065,-3.18479
775,72.3129,-0.167909,-3.18492
775.6,72.3728,-0.170858,-3.18644
776.2,72.4336,-0.172512,-3.18708
776.8,72.4953,-0.17355,-3.18645
777.4,72.5568,-0.174733,-3.18644
778,72.6166,-0.175587,-3.18579
778.6,72.678,-0.175372,-3.18579
779.2,72.7388,-0.173438,-3.18579
779.8,72.8005,-0.178604,-3.18513
780.4,72.8614,-0.172781,-3.18564
781,72.9219,-0.178742,-3.18867
781.6,72.982,-0.179501,-3.19201
782.2,73.0436,-0.185324,-3.19205
782.8,73.1033,-0.182415,-3.18956
783.4,73.1646,-0.1841,-3.18569
784,73.2255,-0.191549,-3.18842
784.6,73.2859,-0.189724,-3.19276
785.2,73.3486,-0.190875,-3.19246
785.8,73.409,-0.188541,-3.1939
786.4,73.4684,-0.184593,-3.19095
787,73.5313,-0.191749,-3.18733
787.6,73.5921,-0.197109,-3.18456
788.2,73.6532,-0.202509,-3.18744
788.8,73.7144,-0.195568,-3.19028
789.4,73.7756,-0.195496,-3.19028
790,73.8357,-0.194342,-3.18768