File: 01_Data/PEVA/Cone/PEVA_Cone_HF50Scan_240820_R3.csv
Names,Time,Stack TC,Smoke TC,Exh Press,Smoke Comp,Smoke Meas,CO Meter,CO2 Meter,O2 Meter,Sample Mass,Ext Coeff,Start Test,Flame Verif
Chan Gain,,500,500,1,1,1,1,1,1,1,1,1.0,1.0
Offset,,0,0,0.143687,0,0,0,0,0,0,0,0.0,0.0
Gain,,1,1,25.011,11.7833,14.1275,1,1,1,1.00092,1.04852,1.0,1.0
Units,sec,C,C,Pa,%,%,%,%,%,g,/m,,
Baseline,,55.5482,58.6073,168.812,100.625,100.687,-0.000835318,0.0418549,20.9422,-448.615,-0.0056666,,
2,0.25,55.5273,58.4264,171.443,100.971,101.036,-0.000479279,0.0457621,20.9415,118.198,-0.00597199,0.0,0.0
4,0.75,55.5982,58.9637,166.943,100.972,101.038,-0.000472573,0.0470901,20.9415,118.218,-0.00603123,0.0,0.0
6,1.25,55.5677,58.5231,167.965,100.928,100.993,-0.000472644,0.0481657,20.9406,118.178,-0.00598515,0.0,0.0
8,1.75,55.2209,58.3051,174.73,100.975,101.005,-0.000472702,0.0498071,20.9398,118.158,-0.00274586,0.0,0.0
10,2.25,55.118,58.3515,170.2,100.951,100.947,-0.000470166,0.0511367,20.9388,118.178,0.000347561,0.0,0.0
12,2.75,55.1103,58.7773,166.705,100.926,100.867,-0.000469086,0.0517035,20.9381,118.198,0.00533038,0.0,0.0
14,3.25,55.1076,58.5187,170.566,100.917,100.809,-0.000467237,0.0530737,20.9369,118.168,0.00989213,0.0,0.0
16,3.75,54.9552,58.0402,165.047,100.929,100.708,-0.000442505,0.0541835,20.9355,118.208,0.0201106,0.0,0.0
18,4.25,55.4276,57.9317,168.34,100.891,100.476,-0.000422471,0.0549899,20.934,118.178,0.0379828,0.0,0.0
20,4.75,55.4583,57.9126,169.074,100.886,100.328,-0.000400129,0.0556431,20.9327,118.168,0.0510372,0.0,0.0
22,5.25,55.0342,58.2665,176.801,100.878,99.8411,-0.000376529,0.0559774,20.9312,118.028,0.0950477,0.0,0.0
24,5.75,54.9916,58.206,164.657,100.881,96.7037,-0.000358092,0.056073,20.93,118.018,0.389002,0.0,0.0
26,6.25,55.1259,58.3308,151.817,100.858,83.4018,-0.00034377,0.0559963,20.9291,117.768,1.74796,0.0,1.0
28,6.75,55.2389,58.5217,152.095,100.849,58.7588,-0.000338624,0.0557955,20.9283,117.618,4.96833,0.0,1.0
30,7.25,55.466,58.6217,126.484,100.849,44.9741,-0.000334455,0.0554627,20.9277,117.198,7.42737,0.0,1.0
32,7.75,55.9782,59.9473,119.726,100.847,35.674,-0.000346569,0.0550399,20.9272,116.877,9.55786,0.0,1.0
34,8.25,56.8929,61.5281,143.261,100.849,32.1542,-0.000356381,0.0545112,20.9267,116.677,10.5135,0.0,1.0
36,8.75,58.8026,64.1499,135.322,100.811,28.3011,-0.000371802,0.0539152,20.9266,116.487,11.684,0.0,1.0
38,9.25,60.3775,66.8836,140.758,100.798,30.4969,-0.00039102,0.0532706,20.9268,116.317,10.9955,0.0,1.0
40,9.75,61.4455,68.5717,140.492,100.809,31.2738,-0.000406586,0.0526028,20.9269,116.107,10.7652,0.0,1.0
42,10.25,62.9403,70.2043,142.476,100.794,29.8981,-0.000446303,0.0520618,20.9272,115.986,11.1776,0.0,1.0
44,10.75,63.7857,71.6348,155.138,100.76,26.0489,-0.000478473,0.0513162,20.9277,115.876,12.4421,0.0,1.0
46,11.25,64.3182,72.3889,148.899,100.766,26.5417,-0.000512005,0.0507123,20.928,115.756,12.2702,0.0,1.0
48,11.75,65.0829,73.1843,148.83,100.719,27.8864,-0.000545892,0.0502069,20.9288,115.656,11.8114,0.0,1.0
50,12.25,65.3535,74.008,145.949,100.757,29.2906,-0.000570622,0.049783,20.9294,115.596,11.363,0.0,0.0
52,12.75,65.5166,74.4427,149.047,100.73,33.9973,-0.000588208,0.050501,20.9299,115.526,9.98994,0.0,0.0
54,13.25,66.3198,75.0696,151.527,100.726,36.9256,-0.000542665,0.052038,20.9303,115.426,9.22965,0.0,0.0
56,13.75,66.7267,75.7981,154.677,100.706,44.3869,-0.000451966,0.0602805,20.9306,115.366,7.53515,0.0,0.0
58,14.25,67.3198,76.1571,158.048,100.692,48.0753,-3.18892e-05,0.0732547,20.9309,115.346,6.79969,0.0,0.0
60,14.75,66.9509,76.3109,157.208,100.676,53.8995,0.000620322,0.0837639,20.9311,115.336,5.74648,0.0,0.0
62,15.25,66.9981,76.7428,158.351,100.693,61.6328,0.00114861,0.0922763,20.9313,115.246,4.51485,0.0,0.0
64,15.75,67.1018,76.4163,161.626,100.651,66.1593,0.00157653,0.160948,20.9314,115.236,3.85917,0.0,0.0
66,16.25,67.5991,76.4612,158.66,100.652,71.1609,0.00573566,0.216571,20.9281,115.196,3.189,0.0,0.0
68,16.75,67.2157,76.7766,163.972,100.639,76.8817,0.00910456,0.278764,20.9224,115.196,2.47663,0.0,0.0
70,17.25,67.3724,76.5695,161.844,100.646,81.0586,0.0140671,0.344564,20.9178,115.166,1.99071,0.0,0.0
72,17.75,67.1879,76.3537,161.694,100.603,85.0449,0.0200971,0.397861,20.8808,115.146,1.54522,0.0,0.0
74,18.25,67.1414,76.1638,165.701,100.621,87.548,0.0249814,0.448234,20.8507,115.116,1.28002,0.0,0.0
76,18.75,67.1077,75.9836,158.424,100.571,88.9518,0.0317063,0.489036,20.7737,115.126,1.12914,0.0,0.0
78,19.25,66.8072,75.8944,164.274,100.59,91.7521,0.0371535,0.512484,20.664,115.146,0.845841,0.0,0.0
80,19.75,66.7719,74.7936,169.321,100.566,91.8271,0.0430524,0.531477,20.5636,115.116,0.836088,0.0,0.0
82,20.25,66.7478,75.4042,165.163,100.564,92.8791,0.0478097,0.533411,20.4719,115.126,0.731123,0.0,0.0
84,20.75,66.3616,74.782,165.708,100.504,95.23,0.0516445,0.534978,20.3977,115.116,0.49578,0.0,0.0
86,21.25,66.2404,74.9492,163.818,100.498,95.2844,0.0547506,0.52474,20.3376,115.116,0.489944,0.0,0.0
88,21.75,65.8565,74.2818,171.26,100.443,96.6101,0.0559678,0.516448,20.2889,115.136,0.357819,0.0,0.0
90,22.25,65.8193,74.276,166.378,100.427,97.9695,0.0569536,0.502899,20.2495,115.126,0.227857,0.0,0.0
92,22.75,65.788,73.7227,162.317,100.401,98.3696,0.0559541,0.485775,20.2263,115.096,0.188,0.0,0.0
94,23.25,65.5589,73.4062,167.919,100.406,98.9064,0.0551444,0.465548,20.2153,115.106,0.13841,0.0,0.0
96,23.75,63.6163,72.6373,170.61,100.456,99.3146,0.0544886,0.443442,20.2065,115.096,0.105065,0.0,0.0
98,24.25,65.3427,72.5721,169.178,100.39,99.613,0.05139,0.425537,20.2077,115.096,0.07145,0.0,0.0
100,24.75,64.9562,72.3025,172.541,100.397,99.8083,0.0488801,0.404916,20.2163,115.096,0.0540603,0.0,0.0
102,25.25,64.2386,71.7022,163.589,100.424,100.029,0.0459628,0.382706,20.2233,115.096,0.0361723,0.0,0.0
104,25.75,63.9736,72.0011,166.809,100.377,100.122,0.042804,0.360045,20.2481,115.096,0.0233374,0.0,0.0
106,26.25,63.6847,71.5416,166.039,100.399,100.123,0.0395994,0.337485,20.2681,115.066,0.0252621,0.0,0.0
108,26.75,63.7872,71.4309,161.925,100.393,100.007,0.0364223,0.314987,20.3017,115.086,0.0354405,0.0,0.0
110,27.25,63.9653,71.1333,172.228,100.396,100.139,0.0333668,0.292962,20.329,115.096,0.0235398,0.0,0.0
112,27.75,62.6791,69.8528,166.765,100.363,100.22,0.030458,0.275122,20.3732,115.106,0.0130996,0.0,0.0
114,28.25,62.5659,69.4249,164.621,100.376,100.23,0.0277188,0.254657,20.4091,115.106,0.0134094,0.0,0.0
116,28.75,62.1177,69.0835,171.42,100.326,100.182,0.0251552,0.238081,20.4546,115.086,0.0132266,0.0,0.0
118,29.25,62.1717,68.5951,166.775,100.347,100.244,0.0227765,0.21957,20.4915,115.066,0.00946716,0.0,0.0
120,29.75,62.2862,68.6435,172.488,100.335,100.254,0.0205778,0.204576,20.5324,115.036,0.00744283,0.0,0.0
122,30.25,61.678,68.7003,169.216,100.316,100.294,0.0187968,0.187476,20.5656,115.076,0.00208407,0.0,0.0
124,30.75,61.5017,68.1124,163.942,100.296,100.278,0.0170256,0.173625,20.5977,115.086,0.00159516,0.0,0.0
126,31.25,61.2026,68.0104,167.271,100.314,100.317,0.0161149,0.16772,20.6138,115.066,-0.00020942,0.0,0.0
128,31.75,61.5655,67.4708,167.437,100.298,100.286,0.0145576,0.153727,20.6413,115.046,0.00112048,0.0,0.0
130,32.25,61.3628,67.5078,172.17,100.292,100.282,0.0128973,0.142392,20.6678,115.036,0.000948361,0.0,0.0
132,32.75,61.2376,67.2237,168.064,100.302,100.277,0.0115524,0.130513,20.6931,115.046,0.00238004,0.0,0.0
134,33.25,60.5048,66.8381,168.464,100.275,100.301,0.0101588,0.120892,20.7163,115.056,-0.00237407,0.0,0.0
136,33.75,60.9246,66.5633,168.045,100.288,100.276,0.00902995,0.11215,20.7377,115.056,0.00106676,0.0,0.0
138,34.25,60.809,66.8721,169.635,100.269,100.283,0.00789092,0.104217,20.755,115.056,-0.00131361,0.0,0.0
140,34.75,60.4902,66.2327,164.553,100.254,100.272,0.0069683,0.0970341,20.7762,115.066,-0.00164424,0.0,0.0
142,35.25,60.8582,66.3897,168.326,100.25,100.252,0.00602493,0.0905343,20.7933,115.076,-0.000253826,0.0,0.0
144,35.75,60.0079,65.8112,164.905,100.217,100.257,0.0052608,0.0847415,20.8112,115.076,-0.00365896,0.0,0.0
146,36.25,60.2493,65.9259,166.618,100.19,100.244,0.00456446,0.0795742,20.8256,115.086,-0.00498023,0.0,0.0
148,36.75,60.0901,65.2702,168.592,100.214,100.245,0.00393078,0.0753887,20.84,115.066,-0.00280893,0.0,0.0
150,37.25,60.0116,65.5042,168.047,100.186,100.201,0.0034175,0.0712743,20.8517,115.076,-0.00138105,0.0,0.0
152,37.75,60.0911,65.0142,165.163,100.164,100.219,0.00294849,0.0679416,20.8611,115.076,-0.00509651,0.0,0.0
154,38.25,59.6064,65.2266,169.916,100.141,100.209,0.00252067,0.0652421,20.8688,115.056,-0.00623366,0.0,0.0
156,38.75,59.4096,65.0114,171.008,100.169,100.189,0.00217414,0.0626911,20.8772,115.046,-0.00190305,0.0,0.0
158,39.25,59.4862,64.6857,165.502,100.118,100.172,0.00185803,0.0602968,20.884,115.056,-0.0049709,0.0,0.0
160,39.75,59.4385,64.2494,171.059,100.141,100.185,0.0015701,0.0582198,20.8909,115.066,-0.00405,0.0,0.0
162,40.25,59.5782,64.538,165.34,100.119,100.17,0.00132259,0.0564136,20.8965,115.066,-0.00467361,0.0,0.0
164,40.75,59.5313,64.6693,168.081,100.106,100.104,0.00110924,0.0548617,20.9015,115.086,0.000262042,0.0,0.0
166,41.25,59.4165,64.0989,164.878,100.096,100.122,0.000928278,0.0535245,20.906,115.056,-0.00232637,0.0,0.0
168,41.75,59.4614,64.3156,167.794,100.105,100.151,0.000774352,0.0523606,20.91,115.066,-0.00429955,0.0,0.0
170,42.25,59.276,63.9695,161.375,100.051,100.119,0.000640836,0.051345,20.9133,115.056,-0.00624682,0.0,0.0
172,42.75,58.5923,64.0668,168.832,100.072,100.133,0.000524736,0.0505223,20.9169,115.066,-0.0056039,0.0,0.0
174,43.25,59.1557,63.706,164.56,100.051,100.102,0.000430695,0.0497178,20.9197,115.066,-0.00463632,0.0,0.0
176,43.75,58.5491,63.5032,164.37,100.062,100.112,0.000328704,0.0490661,20.9223,115.066,-0.00462809,0.0,0.0
178,44.25,58.8017,63.7052,168.566,100.042,100.072,0.00024609,0.0484897,20.9246,115.026,-0.00275464,0.0,0.0
180,44.75,59.0862,63.6876,166.391,100.061,100.063,0.000179173,0.0479792,20.9264,115.036,-0.000137603,0.0,0.0
182,45.25,58.9754,63.2094,169.764,100.01,100.076,8.62441e-05,0.0475657,20.9279,115.046,-0.00613382,0.0,0.0
184,45.75,58.98,63.2799,167.433,100.019,100.077,1.09714e-05,0.0471386,20.9292,115.036,-0.00534664,0.0,0.0
186,46.25,58.9153,63.5326,168.731,100.002,100.054,-5.13585e-05,0.0467927,20.9301,115.026,-0.00476137,0.0,0.0
188,46.75,58.5501,63.0867,167.714,99.9997,100.031,-0.000103069,0.0464721,20.9314,114.986,-0.00289831,0.0,0.0
190,47.25,58.5163,63.3478,168.477,99.9889,100.01,-0.000133404,0.046176,20.9324,115.006,-0.00198804,0.0,0.0
192,47.75,58.6976,63.1588,172.576,99.9518,99.9937,-0.00014758,0.0459362,20.9336,114.986,-0.00384927,0.0,0.0
194,48.25,58.6331,63.0196,169.227,99.9439,100.002,-0.000145474,0.0456652,20.9347,114.996,-0.00533073,0.0,0.0
196,48.75,58.0635,63.1861,167.729,99.9641,100.025,-0.000131539,0.0454296,20.9355,115.006,-0.00561817,0.0,0.0
198,49.25,58.2333,62.7203,165.069,99.9403,99.9872,-0.000116854,0.0452241,20.9362,115.006,-0.00431271,0.0,0.0
200,49.75,58.2444,62.5711,174.617,99.9479,100.001,-0.000101902,0.0450577,20.9367,115.016,-0.00488753,0.0,0.0
202,50.25,57.922,62.5436,166.343,99.9277,99.9803,-9.88273e-05,0.044923,20.9371,114.986,-0.00483707,0.0,0.0
204,50.75,58.0733,62.6359,167.876,99.94,99.9743,-9.63369e-05,0.0448057,20.9375,115.006,-0.00315606,0.0,0.0
206,51.25,58.0168,62.4043,164.896,99.9234,99.9691,-9.52752e-05,0.0447519,20.9377,114.975,-0.00420247,0.0,0.0
208,51.75,58.2467,62.2873,159.47,99.9303,99.9644,-0.000112483,0.0446599,20.9379,114.955,-0.00313741,0.0,0.0
210,52.25,58.4262,62.4751,167.552,99.8911,99.9467,-0.000143543,0.044545,20.9381,114.965,-0.005119,0.0,0.0
212,52.75,58.0649,62.2245,163.379,99.9277,99.9846,-0.000185003,0.0444155,20.9383,114.975,-0.00523364,0.0,0.0
214,53.25,57.987,62.075,168.617,99.9026,99.97,-0.000233258,0.0443107,20.9384,114.955,-0.00620239,0.0,0.0
216,53.75,58.0081,62.0991,175.059,99.9015,99.9816,-0.000278459,0.0442546,20.9385,114.975,-0.00737204,0.0,0.0
218,54.25,58.0321,61.8202,164.119,99.9123,99.9329,-0.000320575,0.0442091,20.9385,114.986,-0.00189592,0.0,0.0
220,54.75,57.553,62.0639,166.34,99.9504,99.9639,-0.000354689,0.0441417,20.9384,114.975,-0.00124453,0.0,0.0
222,55.25,58.0602,61.9126,174.233,99.9155,99.9501,-0.000386194,0.044087,20.9384,114.975,-0.00318513,0.0,0.0
224,55.75,57.4129,61.9169,167.204,99.9371,99.9687,-0.000411713,0.044012,20.9383,114.965,-0.0029049,0.0,0.0
226,56.25,57.7905,61.704,166.532,99.9184,99.9618,-0.000440128,0.0439512,20.9383,114.965,-0.00399186,0.0,0.0
228,56.75,58.034,60.9825,166.398,99.9468,99.9803,-0.000452242,0.0439254,20.9385,114.965,-0.00308257,0.0,0.0
230,57.25,57.7897,61.1169,166.402,99.918,99.957,-0.000475675,0.0439118,20.9389,114.955,-0.00358876,0.0,0.0
232,57.75,57.851,61.8601,171.441,99.9734,99.9777,-0.000497102,0.0439008,20.9387,114.955,-0.000396367,0.0,0.0
234,58.25,56.8363,61.7609,164.498,99.9529,99.9488,-0.000514457,0.0438612,20.9386,114.935,0.000376067,0.0,0.0
236,58.75,57.7882,61.4783,167.944,99.9342,99.9566,-0.000520362,0.0438291,20.9385,114.935,-0.00205932,0.0,0.0
238,59.25,57.9465,61.4756,169.444,99.9464,99.9428,-0.000517807,0.0438031,20.9385,114.945,0.000334404,0.0,0.0
240,59.75,58.0479,61.3143,169.017,99.9684,99.9902,-0.000500791,0.043782,20.9384,114.935,-0.00200942,0.0,0.0
242,60.25,57.5741,61.0714,167.171,99.9328,99.9613,-0.000473556,0.043765,20.9384,114.935,-0.00262851,0.0,0.0
244,60.75,57.26,61.1589,168.555,99.9547,100.022,-0.000437228,0.0437819,20.9383,114.955,-0.00616179,0.0,0.0
246,61.25,57.6415,60.9497,165.179,99.9069,99.9928,-0.000394962,0.0437956,20.9383,114.965,-0.00790645,0.0,0.0
248,61.75,57.3535,61.4621,164.328,99.9188,100.018,-0.000360726,0.0438228,20.9383,114.975,-0.00915369,0.0,0.0
250,62.25,56.9004,61.5189,165.45,99.9177,99.9743,-0.000326201,0.0438594,20.9382,114.986,-0.00520786,0.0,0.0
252,62.75,57.435,61.3587,170.378,99.9393,100.022,-0.000308264,0.043875,20.9383,114.986,-0.00762443,0.0,0.0
254,63.25,57.5991,61.2269,170.093,99.913,99.9786,-0.000277592,0.0438855,20.9384,114.986,-0.00603507,0.0,0.0
256,63.75,57.2115,61.0206,164.024,99.9173,99.9234,-0.000252072,0.0438795,20.9384,114.986,-0.000559743,0.0,0.0
258,64.25,57.0829,60.9674,165.485,99.8972,99.9273,-0.000230792,0.0438756,20.9385,114.986,-0.00277054,0.0,0.0
260,64.75,57.097,60.7114,164.492,99.8983,99.9868,-0.000214235,0.0438734,20.9385,114.986,-0.00814623,0.0,0.0
262,65.25,57.4739,61.3241,168.176,99.8947,99.9583,-0.000201435,0.0438715,20.9387,114.955,-0.00585953,0.0,0.0
264,65.75,57.3041,60.9914,165.896,99.89,99.9635,-0.000191067,0.0438394,20.9389,114.996,-0.0067658,0.0,0.0
266,66.25,57.4039,61.0579,166.413,99.8745,99.948,-0.000180087,0.0438133,20.939,114.975,-0.00676141,0.0,0.0
268,66.75,57.3297,60.5564,165.882,99.8896,99.9083,-0.000171193,0.0438326,20.9391,114.975,-0.00172046,0.0,0.0
270,67.25,57.3009,61.4531,172.266,99.8738,99.9118,-0.000158554,0.0438845,20.9392,114.986,-0.00349498,0.0,0.0
272,67.75,57.5916,60.8834,172.005,99.8652,100.004,-0.000143425,0.0439105,20.9392,114.986,-0.012779,0.0,0.0
274,68.25,57.3693,60.9199,163.232,99.8706,99.9652,-0.000132529,0.0439169,20.9393,114.965,-0.0087125,0.0,0.0
276,68.75,57.6207,60.6693,167.287,99.8806,99.9609,-0.000124926,0.0439302,20.9393,114.955,-0.0073885,0.0,0.0
278,69.25,57.4068,60.4501,167.165,99.8785,99.9445,-0.000121485,0.0439483,20.9394,114.945,-0.00608006,0.0,0.0
280,69.75,56.9517,60.9403,168.455,99.8702,99.9532,-0.000121144,0.043971,20.9394,114.935,-0.00763485,0.0,0.0
282,70.25,57.5478,60.4136,165.847,99.8828,99.9264,-0.00011883,0.0439967,20.9394,114.955,-0.00401545,0.0,0.0
284,70.75,56.9685,60.7574,168.385,99.8562,99.9062,-0.000115121,0.0440174,20.9394,114.955,-0.00460121,0.0,0.0
286,71.25,57.1224,60.4487,168.345,99.8587,99.9126,-9.92854e-05,0.0439758,20.9395,114.945,-0.00496487,0.0,0.0
288,71.75,56.8107,60.5507,169.844,99.8429,99.9057,-8.77374e-05,0.0439646,20.9395,114.965,-0.00578712,0.0,0.0
290,72.25,57.5462,60.583,170.101,99.8274,99.9415,-6.79903e-05,0.0439454,20.9395,114.945,-0.0105054,0.0,0.0
292,72.75,57.0519,60.9396,168.365,99.8411,99.9691,-5.19952e-05,0.0439299,20.9395,114.935,-0.0117859,0.0,0.0
294,73.25,57.2235,60.9365,164.046,99.8548,99.9501,-2.89678e-07,0.0439173,20.9393,114.925,-0.00878164,0.0,0.0
296,73.75,56.8799,60.7007,164.057,99.8332,99.976,4.15918e-05,0.0439314,20.9389,114.925,-0.0131495,0.0,0.0
298,74.25,57.4005,60.7064,166.081,99.8634,100.021,8.30017e-05,0.0439646,20.9385,114.915,-0.0145304,0.0,0.0
300,74.75,57.1939,60.772,167.835,99.8598,99.9269,0.000123281,0.0439914,20.9383,114.905,-0.00617551,0.0,0.0
302,75.25,57.3122,60.6109,171.55,99.8317,99.8898,0.000155907,0.043996,20.9381,114.905,-0.00534554,0.0,0.0
304,75.75,57.1972,60.9268,168.73,99.8192,99.8488,0.000177163,0.0439997,20.9378,114.895,-0.00273325,0.0,0.0
306,76.25,56.9053,60.801,167.825,99.8533,99.8592,0.000194381,0.0440487,20.9375,114.875,-0.00053891,0.0,0.0
308,76.75,56.9261,60.7826,165.626,99.8023,99.8251,0.000217376,0.0440884,20.9373,114.875,-0.00210538,0.0,0.0
310,77.25,57.0551,60.5796,171.058,99.8317,99.8846,0.000236002,0.0441368,20.9371,114.875,-0.00486888,0.0,0.0
312,77.75,56.798,60.6355,162.63,99.8138,99.9096,0.000264023,0.0441904,20.937,114.845,-0.00882774,0.0,0.0
314,78.25,57.5205,60.5845,163.835,99.8019,99.8941,0.000298359,0.0442339,20.9368,114.875,-0.00849246,0.0,0.0
316,78.75,57.0937,60.6362,168.215,99.8044,99.823,0.000341839,0.0442691,20.9367,114.885,-0.00170839,0.0,0.0
318,79.25,57.5127,60.269,165.889,99.821,99.8467,0.000391157,0.0442977,20.9367,114.885,-0.00236859,0.0,0.0
320,79.75,57.0749,60.0456,165.548,99.8177,99.8372,0.000431105,0.0443693,20.9366,114.875,-0.00179338,0.0,0.0
322,80.25,56.7451,60.8214,168.652,99.831,99.8165,0.000477779,0.0444709,20.9365,114.875,0.00133974,0.0,0.0
324,80.75,57.1209,60.3512,161.913,99.7987,99.8186,0.000528467,0.0445451,20.9365,114.865,-0.00184109,0.0,0.0
326,81.25,56.9084,60.6195,166.679,99.8015,99.8329,0.000577028,0.0445979,20.9365,114.855,-0.00288735,0.0,0.0
328,81.75,56.9924,60.6462,166.026,99.7915,99.8217,0.000623114,0.0446731,20.9364,114.845,-0.00278206,0.0,0.0
330,82.25,57.0037,60.4684,169.599,99.8033,99.813,0.000665902,0.044763,20.9364,114.835,-0.00089418,0.0,0.0
332,82.75,57.1887,60.5613,169.786,99.7972,99.8173,0.000705473,0.0448682,20.9364,114.865,-0.00185479,0.0,0.0
334,83.25,56.7334,60.2591,164.176,99.8138,99.832,0.000738208,0.0449824,20.9364,114.855,-0.00168153,0.0,0.0
336,83.75,56.7066,60.3869,165.471,99.8005,99.81,0.000752486,0.0450311,20.9364,114.855,-0.00088157,0.0,0.0
338,84.25,56.8204,60.0831,167.552,99.8213,99.8264,0.000776903,0.0451145,20.9364,114.845,-0.000468735,0.0,0.0
340,84.75,56.8403,60.9282,166.599,99.7843,99.8048,0.00079279,0.0451819,20.9364,114.855,-0.00189592,0.0,0.0
342,85.25,56.987,60.6694,165.116,99.8181,99.8553,0.000805659,0.0452366,20.9364,114.855,-0.00342807,0.0,0.0
344,85.75,56.9575,60.943,170.113,99.7929,99.8367,0.000816083,0.0453269,20.9363,114.845,-0.00403958,0.0,0.0
346,86.25,56.9904,60.5182,164.819,99.7972,99.9105,0.000829713,0.0454001,20.9364,114.855,-0.0104313,0.0,0.0
348,86.75,57.2219,60.3647,162.591,99.7778,99.8424,0.000840753,0.0454432,20.9365,114.835,-0.0059484,0.0,0.0
350,87.25,56.6757,60.2705,170.281,99.7854,99.882,0.000846965,0.0454636,20.9366,114.845,-0.00890566,0.0,0.0
352,87.75,56.6063,60.0182,165.528,99.7613,99.8889,0.000849541,0.0454801,20.9367,114.815,-0.0117618,0.0,0.0
354,88.25,57.0028,60.4194,179.003,99.8037,99.8527,0.000851627,0.0455015,20.9367,114.825,-0.0045151,0.0,0.0
356,88.75,56.7079,60.7483,166.524,99.7889,99.8186,0.000842948,0.0455262,20.9368,114.815,-0.00273654,0.0,0.0
358,89.25,57.1953,60.7329,170.144,99.8084,99.8225,0.000835917,0.0455381,20.9368,114.815,-0.00130429,0.0,0.0
360,89.75,56.8218,61.0627,162.328,99.7584,99.8268,0.000827631,0.0455404,20.9366,114.815,-0.00630827,0.0,0.0
362,90.25,56.9277,60.5742,169.883,99.79,99.8186,0.000820919,0.0455116,20.9362,114.815,-0.00263729,0.0,0.0
364,90.75,57.7516,60.4263,164.052,99.7738,99.7954,0.000823259,0.0454883,20.9359,114.825,-0.0019831,0.0,0.0
366,91.25,56.9595,60.1256,163.442,99.7976,99.826,0.000825154,0.0455155,20.9357,114.805,-0.0026159,0.0,0.0
368,91.75,56.9125,60.5036,167.818,99.7785,99.7889,0.000839653,0.0455375,20.9357,114.805,-0.000956135,0.0,0.0
370,92.25,56.995,60.3786,166.236,99.7875,99.8225,0.000851398,0.0456474,20.936,114.805,-0.00322571,0.0,0.0
372,92.75,56.7532,60.6403,168.313,99.7728,99.7803,0.000872582,0.0457365,20.9362,114.805,-0.000691324,0.0,0.0
374,93.25,57.1661,60.5027,172.976,99.7828,99.9144,0.000889741,0.0458086,20.9363,114.835,-0.0121147,0.0,0.0
376,93.75,57.0564,60.4114,168.371,99.7789,99.9329,0.00090364,0.0458824,20.9364,114.825,-0.0141861,0.0,0.0
378,94.25,57.0514,60.2653,173.662,99.7778,99.9156,0.000926574,0.0459422,20.9365,114.815,-0.0126983,0.0,0.0
380,94.75,57.0667,60.7426,166.727,99.7785,99.8536,0.00094515,0.0460391,20.9366,114.805,-0.00691503,0.0,0.0
382,95.25,57.1194,60.234,167.439,99.7922,99.851,0.000973174,0.0461613,20.9367,114.795,-0.00541685,0.0,0.0
384,95.75,57.0863,60.5928,167.875,99.7681,99.8613,0.00100755,0.0462602,20.9368,114.775,-0.00859068,0.0,0.0
386,96.25,57.0565,60.4445,167.678,99.7706,99.8415,0.00104565,0.0463422,20.9368,114.805,-0.00653209,0.0,0.0
388,96.75,56.5893,60.1094,163.322,99.7807,99.8893,0.00108574,0.0464087,20.937,114.795,-0.0100109,0.0,0.0
390,97.25,56.8971,60.6997,164.379,99.7702,99.9087,0.00112847,0.0464625,20.9372,114.785,-0.0127587,0.0,0.0
392,97.75,56.8869,60.0322,168.826,99.7562,99.8648,0.00117231,0.0465465,20.9373,114.785,-0.0100021,0.0,0.0
394,98.25,57.0492,60.3501,169.398,99.7746,99.8523,0.00120782,0.046651,20.9374,114.775,-0.00716027,0.0,0.0
396,98.75,56.9453,60.6968,169.86,99.7652,99.823,0.00126519,0.0467355,20.937,114.765,-0.00532141,0.0,0.0
398,99.25,57.1663,60.4053,171.463,99.7677,99.7898,0.00131166,0.0468041,20.9367,114.705,-0.00203026,0.0,0.0
400,99.75,57.2113,60.3768,165.602,99.7587,99.8622,0.00137011,0.0468596,20.9365,114.735,-0.0095318,0.0,0.0
402,100.25,56.6606,60.254,164.769,99.7724,99.8471,0.00141745,0.0469045,20.9363,114.725,-0.00688211,0.0,0.0
404,100.75,56.8697,60.0421,169.131,99.7695,99.8436,0.00145581,0.0470177,20.9362,114.735,-0.00682944,0.0,0.0
406,101.25,56.7615,60.5031,173.017,99.7483,99.8497,0.00150509,0.0471095,20.936,114.745,-0.00934247,0.0,0.0
408,101.75,56.5876,59.8149,170.439,99.7498,99.8199,0.00154501,0.0471991,20.9359,114.755,-0.00646846,0.0,0.0
410,102.25,56.7304,60.0503,161.617,99.7979,99.8247,0.00158386,0.0472718,20.9359,114.765,-0.002464,0.0,0.0
412,102.75,56.5719,60.6098,170.995,99.7731,99.8204,0.00161533,0.0473144,20.9358,114.735,-0.00435385,0.0,0.0
414,103.25,57.0513,60.127,167.341,99.7573,99.8027,0.00164342,0.0473344,20.9357,114.765,-0.00418382,0.0,0.0
416,103.75,56.9518,60.3881,165.243,99.7641,99.8359,0.00166617,0.0473829,20.9357,114.735,-0.00661219,0.0,0.0
418,104.25,56.755,60.2565,169.263,99.7623,99.8195,0.0016846,0.0474514,20.9354,114.745,-0.00526875,0.0,0.0
420,104.75,56.6572,60.5445,165.643,99.7562,99.8307,0.00169953,0.0475472,20.935,114.755,-0.0068651,0.0,0.0
422,105.25,56.3103,60.067,164.528,99.7587,99.8376,0.0017082,0.0476613,20.9346,114.755,-0.00726835,0.0,0.0
424,105.75,56.519,60.7987,166.732,99.7595,99.8355,0.00171213,0.0477537,20.9344,114.745,-0.0070039,0.0,0.0
426,106.25,56.5991,60.3818,169.057,99.735,99.835,0.00170984,0.0477824,20.9341,114.725,-0.00921845,0.0,0.0
428,106.75,56.7695,60.0984,166.946,99.7674,99.8755,0.00170305,0.0478057,20.934,114.735,-0.00996754,0.0,0.0
430,107.25,56.6382,60.5934,166.383,99.7451,99.8518,0.00169755,0.0477938,20.9338,114.715,-0.00983912,0.0,0.0
432,107.75,56.9722,60.359,166.056,99.7627,99.8385,0.00168967,0.0477842,20.9337,114.735,-0.0069836,0.0,0.0
434,108.25,56.6444,60.2933,161.897,99.7526,99.8432,0.0016802,0.0477764,20.9336,114.755,-0.00834815,0.0,0.0
436,108.75,56.7334,59.9962,161.895,99.7451,99.8993,0.00167254,0.04777,20.9335,114.715,-0.0142064,0.0,0.0
438,109.25,56.5852,60.1548,165.14,99.753,99.8648,0.00166633,0.0478418,20.9334,114.705,-0.0103007,0.0,0.0
440,109.75,56.8672,60.0622,166.11,99.7638,99.851,0.0016652,0.0478999,20.9334,114.725,-0.00803539,0.0,0.0
442,110.25,56.7275,60.3732,168.308,99.7303,99.8367,0.00166429,0.0479388,20.9334,114.715,-0.00980894,0.0,0.0
444,110.75,56.6399,60.3204,170.486,99.7656,99.904,0.0016656,0.0479631,20.9334,114.725,-0.0127537,0.0,0.0
446,111.25,56.3793,60.0742,168.187,99.7605,99.8643,0.00166852,0.0479909,20.9334,114.725,-0.00956472,0.0,0.0
448,111.75,56.8472,60.2283,161.758,99.7562,99.8906,0.00167609,0.0480206,20.9334,114.715,-0.0123848,0.0,0.0
450,112.25,56.7488,60.1978,169.495,99.7774,99.8454,0.00168222,0.0480124,20.9333,114.715,-0.00625889,0.0,0.0
452,112.75,56.5015,60.1195,167.104,99.762,99.8906,0.00168198,0.0479766,20.9333,114.705,-0.0118545,0.0,0.0
454,113.25,56.7461,60.1096,167.9,99.7418,99.8208,0.00168178,0.0479557,20.9333,114.695,-0.00727713,0.0,0.0
456,113.75,56.995,60.2255,169.464,99.7818,99.8217,0.00166991,0.047946,20.9333,114.695,-0.00367706,0.0,0.0
458,114.25,56.7325,60.2086,164.666,99.7537,99.8182,0.0016603,0.0479625,20.9333,114.685,-0.00594511,0.0,0.0
460,114.75,56.7533,60.1678,162.909,99.7774,99.9075,0.00165251,0.0479976,20.9333,114.685,-0.0119769,0.0,0.0
462,115.25,56.9014,60.476,167.528,99.7354,99.9325,0.00164229,0.0480261,20.9333,114.655,-0.0181578,0.0,0.0
464,115.75,56.6911,59.9796,165.203,99.7738,99.8902,0.00163402,0.0480168,20.9333,114.665,-0.0107205,0.0,0.0
466,116.25,56.4493,60.4216,163.76,99.7346,99.9031,0.00163006,0.0479802,20.9333,114.655,-0.0155254,0.0,0.0
468,116.75,56.7859,59.9406,167.427,99.7544,99.8721,0.00162932,0.0479657,20.9333,114.655,-0.0108435,0.0,0.0
470,117.25,56.8121,60.4455,171.505,99.7235,99.8436,0.00163831,0.0479676,20.9333,114.635,-0.011074,0.0,0.0
472,117.75,56.9994,60.6082,167.694,99.7749,99.8329,0.00165422,0.0480015,20.9332,114.605,-0.00534006,0.0,0.0
474,118.25,57.0865,60.0902,167.078,99.7264,99.8165,0.0016706,0.0480313,20.9331,114.605,-0.00830645,0.0,0.0
476,118.75,56.931,60.0567,175.267,99.7469,99.8385,0.00169861,0.0480822,20.933,114.595,-0.00844253,0.0,0.0
478,119.25,57.1737,60.2237,166.816,99.7584,99.807,0.00172883,0.0481081,20.9329,114.585,-0.00448109,0.0,0.0
480,119.75,56.7683,60.0327,169.583,99.7584,99.835,0.00176011,0.0481291,20.9328,114.585,-0.00706316,0.0,0.0
482,120.25,56.6159,59.9512,166.262,99.7512,99.8109,0.00178544,0.0481614,20.9327,114.635,-0.00550242,0.0,0.0
484,120.75,56.4338,60.2397,167.091,99.7613,99.851,0.00181508,0.0481876,20.9327,114.635,-0.00826749,0.0,0.0
486,121.25,56.8231,60.4249,161.523,99.7562,99.8122,0.00183909,0.0482331,20.9326,114.615,-0.00515685,0.0,0.0
488,121.75,56.8963,60.705,174.526,99.7523,99.8316,0.00185853,0.0482918,20.9326,114.625,-0.0073095,0.0,0.0
490,122.25,57.0514,60.5115,167.034,99.7404,99.8199,0.0018782,0.0483393,20.9326,114.625,-0.00733089,0.0,0.0
492,122.75,56.8564,60.2526,168.117,99.7267,99.8389,0.00189412,0.0483859,20.9325,114.645,-0.0103391,0.0,0.0
494,123.25,57.2014,60.1672,165.582,99.7285,99.7803,0.00191485,0.0484309,20.9325,114.645,-0.0047696,0.0,0.0
496,123.75,56.6884,60.2397,166.682,99.7677,99.8264,0.00193163,0.0484828,20.9325,114.655,-0.00540698,0.0,0.0
498,124.25,56.9449,60.1771,170.216,99.7627,99.782,0.00196218,0.0485248,20.9325,114.615,-0.00177858,0.0,0.0
500,124.75,57.051,60.4915,166.785,99.7591,99.7846,0.00199104,0.0485434,20.9325,114.605,-0.00234885,0.0,0.0
502,125.25,56.7326,60.1501,166.345,99.7325,99.7829,0.00201812,0.0485585,20.9325,114.605,-0.00464345,0.0,0.0
504,125.75,56.8712,60.0917,171.099,99.7505,99.7992,0.00204006,0.0485554,20.9325,114.595,-0.00449535,0.0,0.0
506,126.25,56.4252,60.6573,169.896,99.7498,99.7773,0.00205646,0.0485528,20.9325,114.585,-0.00253474,0.0,0.0
508,126.75,56.6336,60.3396,169.093,99.7649,99.8156,0.00206851,0.048575,20.9325,114.585,-0.0046791,0.0,0.0
510,127.25,56.9579,60.3537,170.856,99.7656,99.804,0.00207621,0.0486149,20.9325,114.605,-0.00353995,0.0,0.0
512,127.75,56.3721,60.3763,169.162,99.744,99.7837,0.00208059,0.0486471,20.9325,114.585,-0.0036617,0.0,0.0
514,128.25,56.5407,60.2561,164.002,99.7537,99.7824,0.00208414,0.0485657,20.9325,114.605,-0.00264716,0.0,0.0
516,128.75,56.7371,60.5449,171.185,99.7537,99.8549,0.00208221,0.0484997,20.9325,114.605,-0.00932162,0.0,0.0
518,129.25,56.2217,60.3331,167.423,99.7418,99.8411,0.00207632,0.0484463,20.9325,114.595,-0.00914436,0.0,0.0
520,129.75,56.5151,59.9258,164.102,99.7397,99.8609,0.00207361,0.0484337,20.9325,114.565,-0.0111706,0.0,0.0
522,130.25,56.8694,60.3615,164.734,99.7555,99.8708,0.00207327,0.0484235,20.9325,114.555,-0.010625,0.0,0.0
524,130.75,56.7973,60.1741,169.946,99.7706,99.8406,0.00207299,0.048446,20.9325,114.525,-0.0064531,0.0,0.0
526,131.25,56.7272,60.4885,164.633,99.7674,99.838,0.00208451,0.0484643,20.9325,114.595,-0.00651289,0.0,0.0
528,131.75,56.7077,60.1073,167.211,99.7519,99.7967,0.00209383,0.048479,20.9325,114.595,-0.00412459,0.0,0.0
530,132.25,57.2167,60.2004,167.891,99.7746,99.8165,0.00210139,0.0484506,20.9325,114.595,-0.00386298,0.0,0.0
532,132.75,56.7179,60.2631,167.189,99.749,99.832,0.00212708,0.0483911,20.9325,114.615,-0.00764802,0.0,0.0
534,133.25,56.4886,60.2583,163.815,99.7494,99.8152,0.00214789,0.0483995,20.9325,114.595,-0.00606524,0.0,0.0
536,133.75,57.1462,60.3524,167.117,99.7663,99.8419,0.00218041,0.0484573,20.9325,114.575,-0.00696879,0.0,0.0
538,134.25,56.4428,60.4198,164.792,99.7649,99.8135,0.00220675,0.0485123,20.9326,114.585,-0.00448055,0.0,0.0
540,134.75,57.0566,60.7509,166.801,99.7325,99.8755,0.00224638,0.048564,20.9326,114.555,-0.0131836,0.0,0.0
542,135.25,57.1084,59.9994,166.843,99.7537,99.8475,0.00227847,0.0486059,20.9326,114.555,-0.0086461,0.0,0.0
544,135.75,56.7265,60.5178,163.102,99.7692,99.8333,0.00230446,0.0486245,20.9326,114.565,-0.00590945,0.0,0.0
546,136.25,56.3998,60.1578,168.075,99.7742,99.8234,0.00234251,0.0486396,20.9326,114.545,-0.00453155,0.0,0.0
548,136.75,56.5849,60.2492,168.194,99.7447,99.8217,0.00237332,0.0486761,20.9326,114.555,-0.00709169,0.0,0.0
550,137.25,56.6205,60.4302,167.948,99.7587,99.8436,0.00239828,0.0487274,20.9326,114.535,-0.00782414,0.0,0.0
552,137.75,57.1137,60.5481,167.546,99.7458,99.8307,0.0024185,0.0487691,20.9326,114.555,-0.00782689,0.0,0.0
554,138.25,56.8426,59.9896,167.643,99.7674,99.8385,0.00242387,0.048772,20.9326,114.515,-0.00655239,0.0,0.0
556,138.75,56.7544,60.4736,167.099,99.7418,99.8251,0.00241832,0.0487744,20.9326,114.495,-0.00767436,0.0,0.0
558,139.25,56.675,60.0432,166.472,99.7731,99.8333,0.00239802,0.0487917,20.9326,114.495,-0.00554521,0.0,0.0
560,139.75,56.8165,60.0567,163.485,99.7379,99.8372,0.00236735,0.0488058,20.9326,114.515,-0.00915205,0.0,0.0
562,140.25,57.0862,60.5086,166.018,99.7674,99.8204,0.00234251,0.0488171,20.9326,114.515,-0.00488424,0.0,0.0
564,140.75,56.4579,60.178,165.101,99.7354,99.8104,0.00229499,0.0488263,20.9326,114.525,-0.00692106,0.0,0.0
566,141.25,56.7635,60.3746,170.635,99.776,99.8333,0.0022565,0.0488095,20.9326,114.525,-0.00528027,0.0,0.0
568,141.75,56.7887,60.5257,171.37,99.7771,99.8083,0.00222326,0.0487741,20.9326,114.505,-0.00287693,0.0,0.0
570,142.25,56.5551,60.4281,166.646,99.7785,99.838,0.00219449,0.0487453,20.9326,114.495,-0.00548542,0.0,0.0
572,142.75,56.2176,60.2959,167.94,99.7494,99.8182,0.00217118,0.0487374,20.9326,114.475,-0.00634338,0.0,0.0
574,143.25,56.8753,59.9816,169.128,99.7602,99.8346,0.00216665,0.048731,20.9326,114.485,-0.00685852,0.0,0.0
576,143.75,57.0329,60.1612,163.664,99.758,99.8148,0.00216298,0.0487259,20.9326,114.465,-0.00522925,0.0,0.0
578,144.25,56.1365,59.954,165.244,99.767,99.8298,0.00216261,0.0487217,20.9326,114.485,-0.00579096,0.0,0.0
580,144.75,56.7586,60.062,165.513,99.7469,99.873,0.00216232,0.0486568,20.9326,114.495,-0.0116191,0.0,0.0
582,145.25,56.4303,60.3862,163.894,99.7746,99.8467,0.00215864,0.0486042,20.9326,114.525,-0.00664401,0.0,0.0
584,145.75,56.561,59.6923,165.241,99.7422,99.8234,0.00215258,0.0485779,20.9326,114.505,-0.00748232,0.0,0.0
586,146.25,56.4391,59.8366,166.362,99.7595,99.8264,0.00214767,0.048571,20.9326,114.505,-0.00616947,0.0,0.0
587,146.5,56.7494,59.8877,164.717,99.7764,99.7992,0.00214557,0.0485681,20.9326,114.505,-0.00210867,0.0,0.0