File: 01_Data/PEVA/Cone/PEVA_Cone_HF75Scan_240820_R2.csv
Names,Time,Stack TC,Smoke TC,Exh Press,Smoke Comp,Smoke Meas,CO Meter,CO2 Meter,O2 Meter,Sample Mass,Ext Coeff,Start Test,Flame Verif
Chan Gain,,500,500,1,1,1,1,1,1,1,1,1.0,1.0
Offset,,0,0,0.143687,0,0,0,0,0,0,0,0.0,0.0
Gain,,1,1,25.011,11.7833,14.1275,1,1,1,1.00092,1.04852,1.0,1.0
Units,sec,C,C,Pa,%,%,%,%,%,g,/m,,
Baseline,,63.1637,67.1049,164.624,100.958,101.019,-0.000838934,0.0433119,20.9408,-449.135,-0.00563275,,
2,0.25,62.7168,66.4751,166.104,100.575,100.623,-0.000503449,0.0543665,20.9351,123.603,-0.00432588,0.0,0.0
4,0.75,62.8176,66.6961,165.846,100.587,100.641,-0.000548007,0.0554486,20.9339,123.714,-0.00500107,0.0,0.0
6,1.25,62.4263,66.0171,165.54,100.584,100.64,-0.000592251,0.0565875,20.9324,123.774,-0.00514588,0.0,0.0
8,1.75,62.1002,66.2645,158.768,100.567,100.63,-0.000635427,0.0575101,20.9308,123.724,-0.00571361,0.0,0.0
10,2.25,62.599,66.3758,160.262,100.573,100.483,-0.000670399,0.0583549,20.9295,123.613,0.00821405,0.0,0.0
12,2.75,62.289,66.1566,168.507,100.562,100.042,-0.000711635,0.0591269,20.9282,123.553,0.0476608,0.0,0.0
14,3.25,62.1629,66.5722,160.367,100.556,98.1764,-0.000745037,0.0597523,20.927,123.603,0.220297,0.0,0.0
16,3.75,62.2279,66.3438,162.366,100.57,91.3847,-0.000772092,0.0602897,20.926,123.433,0.880929,0.0,1.0
18,4.25,62.2522,66.2903,137.137,100.574,60.0691,-0.000778516,0.060725,20.9249,123.083,4.74038,0.0,1.0
20,4.75,62.4314,66.705,131.887,100.59,30.3133,-0.000783719,0.0608582,20.9238,122.613,11.0321,0.0,1.0
22,5.25,63.1203,67.521,130.331,100.595,26.4218,-0.000758243,0.0607687,20.923,122.412,12.2962,0.0,1.0
24,5.75,64.1071,69.5965,127.053,100.565,21.7914,-0.000737608,0.0604769,20.9223,122.002,14.0656,0.0,1.0
26,6.25,65.6937,72.4605,118.842,100.573,21.4745,-0.000673131,0.0600432,20.9217,121.682,14.2011,0.0,1.0
28,6.75,67.8655,74.7652,125.536,100.593,19.7319,-0.000620904,0.0594161,20.9212,121.461,14.9813,0.0,1.0
30,7.25,69.2492,78.0252,141.549,100.587,20.5096,-0.000546328,0.0586599,20.9209,121.361,14.6252,0.0,1.0
32,7.75,71.507,80.3491,137.045,100.561,16.6992,-0.000485921,0.0578123,20.921,121.141,16.5132,0.0,1.0
34,8.25,73.013,82.5186,143.146,100.562,17.5029,-0.000430197,0.0569143,20.9211,121.011,16.081,0.0,1.0
36,8.75,73.2985,83.7307,145.537,100.574,19.1188,-0.000378947,0.0559762,20.9212,120.951,15.2699,0.0,1.0
38,9.25,74.1226,84.7235,142.92,100.555,21.4909,-0.00034083,0.0550269,20.9213,120.841,14.1924,0.0,1.0
40,9.75,74.4775,85.7064,143.386,100.56,24.583,-0.000313013,0.054258,20.9222,120.751,12.9565,0.0,0.0
42,10.25,75.3333,86.6237,151.388,100.566,36.8372,-0.000290481,0.0537647,20.923,120.691,9.23707,0.0,0.0
44,10.75,75.6665,87.436,156.307,100.576,49.0371,-0.000240974,0.0534817,20.9236,120.601,6.60687,0.0,0.0
46,11.25,76.0882,87.3249,148.245,100.561,60.3747,-0.000172743,0.0590926,20.9241,120.641,4.69251,0.0,0.0
48,11.75,75.5191,87.8591,149.876,100.56,71.0174,0.00023153,0.0688935,20.9246,120.641,3.19913,0.0,0.0
50,12.25,76.2538,87.4674,158.285,100.543,79.2452,0.000873095,0.0768323,20.9249,120.611,2.18933,0.0,0.0
52,12.75,76.4498,87.6842,157.216,100.584,85.1285,0.00139276,0.126225,20.9252,120.581,1.5344,0.0,0.0
54,13.25,76.0457,87.3578,158.011,100.564,86.4335,0.00443846,0.166234,20.9254,120.631,1.39269,0.0,0.0
56,13.75,76.2915,86.9398,160.549,100.578,89.2015,0.00690548,0.247327,20.9255,120.641,1.10399,0.0,0.0
58,14.25,75.6987,87.1001,159.049,100.571,92.0539,0.0127242,0.313012,20.9086,120.621,0.813862,0.0,0.0
60,14.75,75.7692,86.7123,157.953,100.564,95.0071,0.0174374,0.383561,20.8795,120.611,0.522762,0.0,0.0
62,15.25,75.4385,86.366,155.316,100.571,96.3484,0.0255793,0.456315,20.8559,120.621,0.394482,0.0,0.0
64,15.75,74.98,85.4188,160.23,100.558,98.0251,0.0321742,0.515245,20.7919,120.601,0.234682,0.0,0.0
66,16.25,75.053,85.3013,162.162,100.552,98.6084,0.0375161,0.563323,20.6996,120.581,0.179553,0.0,0.0
68,16.75,74.4113,85.1058,158.57,100.573,99.2668,0.0464972,0.602577,20.5777,120.621,0.120226,0.0,0.0
70,17.25,74.3809,84.5793,164.176,100.586,99.5138,0.053772,0.623739,20.4366,120.621,0.0985477,0.0,0.0
72,17.75,74.2761,84.3325,157.051,100.569,99.6358,0.0596645,0.63131,20.3223,120.591,0.0857649,0.0,0.0
74,18.25,73.8354,84.1228,165.502,100.602,99.8919,0.0645963,0.637443,20.2297,120.581,0.0651138,0.0,0.0
76,18.75,73.5934,83.5123,161.881,100.579,99.9777,0.0685911,0.617333,20.1547,120.581,0.0551142,0.0,0.0
78,19.25,73.3295,83.4286,160.677,100.589,100.137,0.0697775,0.601045,20.094,120.561,0.0414043,0.0,0.0
80,19.75,73.4553,82.9976,161.336,100.578,100.204,0.0707385,0.566008,20.0448,120.561,0.034322,0.0,0.0
82,20.25,73.5853,82.24,162.828,100.599,100.248,0.0683372,0.537628,20.0181,120.541,0.0321469,0.0,0.0
84,20.75,72.4813,82.0845,163.447,100.608,100.413,0.0663922,0.50565,20.0082,120.561,0.0178774,0.0,0.0
86,21.25,72.1656,81.1158,164.224,100.6,100.421,0.062203,0.471656,20.0213,120.551,0.0164044,0.0,0.0
88,21.75,71.5437,80.5409,163.531,100.622,100.418,0.0588097,0.437195,20.0508,120.541,0.0187189,0.0,0.0
90,22.25,71.3652,80.2775,160.334,100.617,100.412,0.0548748,0.403049,20.0919,120.521,0.0187714,0.0,0.0
92,22.75,71.1411,79.888,166.347,100.612,100.417,0.0506197,0.369749,20.1405,120.521,0.017838,0.0,0.0
94,23.25,70.9181,80.0959,162.217,100.621,100.599,0.0471731,0.337699,20.1799,120.521,0.00202378,0.0,0.0
96,23.75,70.584,79.9391,160.863,100.595,100.556,0.0423526,0.311738,20.2416,120.491,0.00355941,0.0,0.0
98,24.25,70.8895,79.0128,160.103,100.623,100.572,0.0384481,0.28509,20.2915,120.471,0.00462576,0.0,0.0
100,24.75,70.5899,78.9175,168.399,100.624,100.546,0.0345031,0.258447,20.332,120.491,0.0071295,0.0,0.0
102,25.25,70.3637,78.693,160.767,100.634,100.612,0.0306037,0.236866,20.3844,120.521,0.00197774,0.0,0.0
104,25.75,70.2241,78.2143,161.845,100.624,100.66,0.0271225,0.213694,20.4268,120.541,-0.00328274,0.0,0.0
106,26.25,69.8038,77.8836,161.455,100.668,100.652,0.0240123,0.194925,20.4762,120.531,0.00144169,0.0,0.0
108,26.75,69.9294,77.643,158.808,100.652,100.637,0.0214931,0.17664,20.5163,120.531,0.00141428,0.0,0.0
110,27.25,69.7917,77.2311,155.466,100.674,100.652,0.0190429,0.161828,20.556,120.541,0.00207201,0.0,0.0
112,27.75,69.6691,77.4687,160.832,100.665,100.66,0.0170582,0.147549,20.5947,120.531,0.000397995,0.0,0.0
114,28.25,69.3637,77.1843,165.648,100.666,100.728,0.0152092,0.135983,20.6322,120.541,-0.00565382,0.0,0.0
116,28.75,69.2528,76.9305,160.706,100.703,100.694,0.0137116,0.125213,20.668,120.531,0.000800357,0.0,0.0
118,29.25,69.2121,76.7052,161.412,100.675,100.707,0.0123489,0.116489,20.6995,120.561,-0.00290928,0.0,0.0
120,29.75,69.3961,76.1609,164.002,100.705,100.703,0.0112452,0.108429,20.7274,120.501,0.000210512,0.0,0.0
122,30.25,69.073,76.9339,161.206,100.695,100.693,0.0103057,0.101901,20.75,120.491,0.00022915,0.0,0.0
124,30.75,69.0278,76.6048,160.979,100.707,100.698,0.00950365,0.0966125,20.7723,120.471,0.000813513,0.0,0.0
126,31.25,69.0094,76.6279,157.731,100.703,100.785,0.00885401,0.0915985,20.7904,120.461,-0.0074719,0.0,0.0
128,31.75,68.7558,76.1935,160.358,100.698,100.777,0.00831382,0.0875372,20.805,120.451,-0.00717727,0.0,0.0
130,32.25,68.3646,75.556,168.271,100.712,100.75,0.00786367,0.0840845,20.8189,120.451,-0.00352898,0.0,0.0
132,32.75,68.5704,75.6689,165.441,100.72,100.798,0.00750465,0.0811411,20.8302,120.431,-0.00710924,0.0,0.0
134,33.25,68.1523,75.4723,163.705,100.736,100.796,0.00721887,0.0787081,20.8416,120.42,-0.00550681,0.0,0.0
136,33.75,68.3533,75.6028,161.976,100.705,100.832,0.00698739,0.0766934,20.8508,120.42,-0.0115554,0.0,0.0
138,34.25,68.4991,75.2022,164.32,100.739,100.871,0.00682515,0.0750615,20.8587,120.36,-0.0120801,0.0,0.0
140,34.75,68.4394,74.9457,161.516,100.748,100.852,0.00669374,0.0737551,20.8655,120.38,-0.0095296,0.0,0.0
142,35.25,67.6751,74.6524,165.412,100.746,100.848,0.00661123,0.0726969,20.8715,120.38,-0.00933972,0.0,0.0
144,35.75,67.8674,74.9551,161.401,100.734,100.865,0.00654441,0.0717779,20.8768,120.38,-0.0119632,0.0,0.0
146,36.25,67.5835,74.8153,160.228,100.754,100.802,0.00651024,0.0710335,20.8813,120.37,-0.00444873,0.0,0.0
148,36.75,68.0426,74.4398,167.961,100.741,100.789,0.00648256,0.0703531,20.8852,120.4,-0.00441089,0.0,0.0
150,37.25,67.8137,74.611,161.333,100.761,100.874,0.00647612,0.069802,20.8883,120.38,-0.0103923,0.0,0.0
152,37.75,67.2391,74.0498,167.52,100.761,100.806,0.00647091,0.0693719,20.8908,120.39,-0.00414598,0.0,0.0
154,38.25,67.4771,73.9414,163.291,100.784,100.832,0.00646668,0.0690382,20.8929,120.39,-0.00433301,0.0,0.0
156,38.75,67.091,73.9725,159.149,100.743,100.874,0.00650057,0.0687679,20.8946,120.34,-0.0119281,0.0,0.0
158,39.25,67.2919,73.7139,162.657,100.763,100.809,0.00652801,0.068549,20.8962,120.35,-0.00411362,0.0,0.0
160,39.75,66.9154,73.7119,159.731,100.767,100.841,0.00655024,0.068418,20.8976,120.38,-0.00676745,0.0,0.0
162,40.25,67.4721,73.163,158.179,100.794,100.87,0.0066216,0.068312,20.8989,120.37,-0.00698031,0.0,0.0
164,40.75,66.9196,73.32,158.405,100.768,100.85,0.0066794,0.0681946,20.9001,120.35,-0.00746202,0.0,0.0
166,41.25,67.1103,73.4237,154.935,100.815,100.902,0.00676497,0.0680711,20.901,120.35,-0.00788066,0.0,0.0
168,41.75,67.3209,73.5356,161.034,100.775,100.865,0.00683428,0.0679303,20.9017,120.36,-0.00821426,0.0,0.0
170,42.25,67.1812,73.3128,164.576,100.765,100.831,0.00691982,0.0677796,20.9024,120.23,-0.00602684,0.0,0.0
172,42.75,67.4726,73.2259,158.731,100.79,100.834,0.00698911,0.0676087,20.903,120.26,-0.00400503,0.0,0.0
174,43.25,66.8948,73.1214,156.513,100.785,100.881,0.00707465,0.0674263,20.9035,120.28,-0.00875695,0.0,0.0
176,43.75,67.1971,73.0512,163.122,100.799,100.893,0.00714395,0.0672012,20.904,120.27,-0.008538,0.0,0.0
178,44.25,66.8013,72.9617,162.273,100.797,100.881,0.00720923,0.0670189,20.9043,120.22,-0.00766722,0.0,0.0
180,44.75,66.6481,72.9565,166.669,100.768,100.874,0.00727035,0.0668712,20.905,120.22,-0.00963058,0.0,0.0
182,45.25,66.5708,72.6566,163.528,100.793,100.864,0.00731986,0.0665815,20.9056,120.29,-0.00649534,0.0,0.0
184,45.75,66.8981,72.8278,163.839,100.796,100.853,0.00735503,0.0663468,20.9061,120.3,-0.00517111,0.0,0.0
186,46.25,66.893,72.4366,160.425,100.794,100.914,0.00737908,0.0661079,20.9065,120.3,-0.0109889,0.0,0.0
188,46.75,66.2593,72.146,162.035,100.787,100.874,0.00739152,0.0658705,20.9068,120.19,-0.00795638,0.0,0.0
190,47.25,66.4326,72.6962,165.329,100.788,100.855,0.00739526,0.0656944,20.9075,120.3,-0.00609596,0.0,0.0
192,47.75,66.3461,72.4583,163.474,100.767,100.842,0.00739477,0.0655664,20.908,120.24,-0.00685248,0.0,0.0
194,48.25,66.1295,72.2475,160.975,100.795,100.881,0.0073912,0.0654628,20.9085,120.24,-0.00783128,0.0,0.0
196,48.75,66.3234,71.9411,162.946,100.79,100.888,0.00739394,0.0653788,20.9088,120.22,-0.008887,0.0,0.0
198,49.25,66.5664,71.8784,163.724,100.774,100.87,0.00740123,0.0652945,20.9091,120.2,-0.00881731,0.0,0.0
200,49.75,66.5853,71.6431,162.641,100.772,100.824,0.00741911,0.0652116,20.9094,120.18,-0.00477399,0.0,0.0
202,50.25,66.0473,71.8342,158.192,100.786,100.807,0.00744437,0.0651851,20.9096,120.27,-0.00192059,0.0,0.0
204,50.75,66.1945,71.6687,162.619,100.771,100.852,0.00748386,0.0652003,20.9097,120.21,-0.00732376,0.0,0.0
206,51.25,66.6231,71.7193,164.286,100.771,100.84,0.00753298,0.0652126,20.9099,120.18,-0.00622323,0.0,0.0
208,51.75,66.0309,71.4971,163.651,100.784,100.844,0.00757276,0.0651493,20.91,120.19,-0.00550023,0.0,0.0
210,52.25,66.0758,71.3649,166.006,100.777,100.803,0.00762827,0.0650322,20.9101,120.18,-0.00239436,0.0,0.0
212,52.75,66.1153,71.5974,162.387,100.786,100.823,0.00769419,0.0648559,20.9101,120.23,-0.00337597,0.0,0.0
214,53.25,65.784,71.4594,165.493,100.755,100.834,0.00775393,0.06464,20.9102,120.22,-0.00726067,0.0,0.0
216,53.75,65.9781,71.3937,160.741,100.8,100.824,0.00780805,0.064465,20.9102,120.21,-0.00225398,0.0,0.0
218,54.25,65.8034,71.2407,160.604,100.754,100.814,0.00785188,0.0642152,20.9103,120.21,-0.0055101,0.0,0.0
220,54.75,65.6314,71.2003,162.41,100.768,100.789,0.00788738,0.0640128,20.9103,120.21,-0.00191621,0.0,0.0
222,55.25,65.7142,71.172,163.316,100.748,100.785,0.00791614,0.0637513,20.9103,120.23,-0.0033672,0.0,0.0
224,55.75,65.7582,70.7928,164.905,100.738,100.826,0.00793005,0.0634517,20.9103,120.18,-0.00805679,0.0,0.0
226,56.25,65.9671,70.7436,161.781,100.738,100.806,0.00794131,0.0631684,20.9103,120.19,-0.00616838,0.0,0.0
228,56.75,65.4859,70.7227,162.33,100.743,100.837,0.00793914,0.0629023,20.9104,120.18,-0.00854678,0.0,0.0
230,57.25,65.4304,70.8075,159.953,100.726,100.786,0.00792722,0.0626624,20.9108,120.21,-0.00544812,0.0,0.0
232,57.75,65.4391,70.602,162.297,100.729,100.767,0.00790204,0.0624462,20.9112,120.18,-0.00341491,0.0,0.0
234,58.25,65.5425,70.5794,162.352,100.722,100.79,0.00786768,0.062271,20.9115,120.19,-0.0061969,0.0,0.0
236,58.75,65.7068,70.3997,163.85,100.73,100.802,0.00783986,0.0621137,20.9117,120.2,-0.0066484,0.0,0.0
238,59.25,65.615,70.9165,159.955,100.704,100.803,0.0077651,0.0619863,20.9119,120.18,-0.00909168,0.0,0.0
240,59.75,65.297,70.646,162.734,100.707,100.845,0.00770455,0.0618993,20.9121,120.2,-0.0126434,0.0,0.0
242,60.25,64.9731,70.2197,160.25,100.716,100.797,0.0076234,0.0618435,20.9122,120.22,-0.00735174,0.0,0.0
244,60.75,65.7863,70.4669,161.755,100.697,100.835,0.00755767,0.0617983,20.9128,120.18,-0.0125929,0.0,0.0
246,61.25,65.7584,70.0863,164.863,100.707,100.764,0.00749458,0.0617616,20.9132,120.15,-0.0052479,0.0,0.0
248,61.75,65.3809,70.8264,165.635,100.676,100.805,0.00743462,0.061732,20.9136,120.17,-0.0117453,0.0,0.0
250,62.25,65.5443,70.4461,165.104,100.647,100.729,0.00738604,0.061708,20.9139,120.13,-0.00748068,0.0,0.0
252,62.75,65.1405,70.8145,164.741,100.69,100.756,0.0073467,0.0615785,20.9141,120.19,-0.00597912,0.0,0.0
254,63.25,65.4351,70.1632,159.252,100.662,100.743,0.00731481,0.0614736,20.9143,120.15,-0.0074324,0.0,0.0
256,63.75,65.6233,70.2541,161.124,100.672,100.743,0.00728898,0.0613115,20.9146,120.16,-0.00650576,0.0,0.0
258,64.25,65.1544,70.2246,160.442,100.638,100.718,0.00727207,0.0611801,20.9147,120.15,-0.00734406,0.0,0.0
260,64.75,64.7907,69.8221,162.617,100.63,100.75,0.00725837,0.0609503,20.9147,120.2,-0.0109143,0.0,0.0
262,65.25,65.5428,70.2484,159.259,100.612,100.653,0.00724164,0.0607641,20.9147,120.18,-0.0038032,0.0,0.0
264,65.75,64.612,69.7278,161.023,100.622,100.645,0.00722304,0.0606133,20.9147,120.14,-0.00209442,0.0,0.0
266,66.25,65.1962,69.9433,158.318,100.564,100.618,0.00720796,0.0605684,20.9147,120.1,-0.00491221,0.0,0.0
268,66.75,65.3189,70.2827,158.615,100.596,100.665,0.0071838,0.0605319,20.9147,120.05,-0.00634612,0.0,0.0
270,67.25,65.2043,69.9663,162.171,100.576,100.615,0.00715348,0.0604862,20.9147,120.09,-0.00351143,0.0,0.0
272,67.75,65.3145,70.0907,163.472,100.604,100.644,0.0071268,0.0604345,20.9147,120.12,-0.00369954,0.0,0.0
274,68.25,65.2503,70.1086,161.732,100.575,100.575,0.0071033,0.0604007,20.9151,120.11,-1.69946e-05,0.0,0.0
276,68.75,65.3499,70.1797,164.337,100.577,100.589,0.00709328,0.0603902,20.9155,120.12,-0.00112062,0.0,0.0
278,69.25,65.7261,69.773,165.459,100.533,100.566,0.00707075,0.0603807,20.9158,120.09,-0.00301073,0.0,0.0
280,69.75,64.9687,69.8164,167.421,100.559,100.567,0.00705431,0.0603954,20.916,120.07,-0.000720929,0.0,0.0
282,70.25,65.1845,69.9999,163.794,100.523,100.513,0.00703657,0.0603341,20.9162,120.07,0.000886967,0.0,0.0
284,70.75,65.204,69.7694,165.045,100.505,100.518,0.00700956,0.0602187,20.9164,120.05,-0.00112062,0.0,0.0
286,71.25,65.2772,70.1554,162.145,100.488,100.538,0.0069763,0.0601253,20.9165,120.05,-0.00456062,0.0,0.0
288,71.75,65.0364,69.723,158.405,100.507,100.535,0.00694937,0.059957,20.9166,120.05,-0.00256709,0.0,0.0
290,72.25,65.1223,69.7283,154.108,100.479,100.521,0.00689021,0.0598207,20.9167,120.04,-0.00387779,0.0,0.0
292,72.75,65.0181,70.2822,160.01,100.452,100.496,0.00684229,0.0597103,20.9167,120.05,-0.00394744,0.0,0.0
294,73.25,65.275,69.8596,166.15,100.424,100.494,0.00680347,0.0595765,20.9168,120.05,-0.00642402,0.0,0.0
296,73.75,65.0946,70.0788,161.158,100.461,100.481,0.00673741,0.0594682,20.9172,120.02,-0.00178242,0.0,0.0
298,74.25,65.2205,70.0347,160.073,100.429,100.451,0.0066839,0.0593033,20.9177,120.02,-0.00201655,0.0,0.0
300,74.75,65.4502,69.7142,166.842,100.411,100.464,0.00661526,0.0591697,20.9182,120.02,-0.00492537,0.0,0.0
302,75.25,65.0429,69.8308,164.698,100.411,100.459,0.00655966,0.0590371,20.9186,120.04,-0.00441199,0.0,0.0
304,75.75,65.1135,69.7611,163.884,100.436,100.467,0.00649642,0.0589079,20.9189,119.97,-0.00278425,0.0,0.0
306,76.25,65.0371,69.7818,160.946,100.418,100.438,0.00642881,0.0587788,20.9192,119.98,-0.00182628,0.0,0.0
308,76.75,65.083,69.2308,168.713,100.425,100.479,0.00636775,0.0586523,20.9194,120.01,-0.00498297,0.0,0.0
310,77.25,65.154,69.2314,160.268,100.443,100.463,0.00631262,0.0585337,20.9195,119.98,-0.00187618,0.0,0.0
312,77.75,64.5718,69.5315,163.656,100.442,100.475,0.00626517,0.058423,20.9197,119.97,-0.00300799,0.0,0.0
314,78.25,65.0409,69.7798,162.455,100.431,100.46,0.00622421,0.0583576,20.9198,119.99,-0.00268664,0.0,0.0
316,78.75,65.0957,69.925,162.708,100.469,100.485,0.0061804,0.0583266,20.9201,120.04,-0.0014792,0.0,0.0
318,79.25,64.9222,69.5917,161.195,100.444,100.519,0.00614492,0.0583015,20.9206,119.99,-0.00684151,0.0,0.0
320,79.75,64.8213,69.5549,160.291,100.461,100.53,0.00611618,0.0582195,20.921,119.99,-0.00638562,0.0,0.0
322,80.25,64.6946,69.2652,163.815,100.48,100.504,0.00607696,0.058153,20.9213,120,-0.00212896,0.0,0.0
324,80.75,64.6442,69.9325,160.36,100.464,100.509,0.00604518,0.05801,20.9215,119.99,-0.00412349,0.0,0.0
326,81.25,65.1226,70.0351,158.622,100.473,100.525,0.00602115,0.0579067,20.9216,119.96,-0.0048261,0.0,0.0
328,81.75,65.0574,69.4866,163.757,100.478,100.536,0.00598006,0.0577301,20.9218,119.97,-0.00531153,0.0,0.0
330,82.25,64.5757,69.5905,166.875,100.511,100.52,0.00594678,0.0575716,20.9219,119.98,-0.000791106,0.0,0.0
332,82.75,64.8284,69.6828,158.372,100.502,100.534,0.00587736,0.0574433,20.9221,119.94,-0.00291586,0.0,0.0
334,83.25,64.5208,69.8949,165.286,100.522,100.596,0.00582112,0.0572987,20.9222,119.97,-0.00675044,0.0,0.0
336,83.75,64.9945,69.4091,159.886,100.545,100.565,0.00575883,0.0571452,20.9222,119.95,-0.00184657,0.0,0.0
338,84.25,64.6763,69.4957,161.106,100.539,100.595,0.0056933,0.0569883,20.9223,119.99,-0.00515849,0.0,0.0
340,84.75,64.9193,69.3492,164.842,100.514,100.605,0.00560048,0.0568321,20.9224,119.98,-0.00832894,0.0,0.0
342,85.25,64.7566,69.0931,161.411,100.569,100.651,0.00552529,0.0567055,20.9224,120.01,-0.00747958,0.0,0.0
344,85.75,64.6331,69.2441,162.544,100.551,100.66,0.0054644,0.056603,20.9224,119.9,-0.00995711,0.0,0.0
346,86.25,64.7651,68.9987,163.255,100.562,100.613,0.00536565,0.05652,20.9225,119.85,-0.00466977,0.0,0.0
348,86.75,64.565,68.9919,167.771,100.558,100.588,0.0052412,0.0564527,20.9225,119.87,-0.0027848,0.0,0.0
350,87.25,64.4786,68.9933,157.578,100.569,100.625,0.00514039,0.0563739,20.9225,119.87,-0.00514862,0.0,0.0
352,87.75,64.9147,69.3221,163.059,100.584,100.641,0.005024,0.0562882,20.9225,119.9,-0.00519195,0.0,0.0
354,88.25,64.9348,69.0266,163.411,100.57,100.642,0.00489847,0.0562431,20.9225,119.81,-0.00655294,0.0,0.0
356,88.75,64.632,69.3012,164.972,100.573,100.652,0.00478153,0.0562284,20.9225,119.83,-0.00723598,0.0,0.0
358,89.25,64.5709,68.9796,162.661,100.63,100.674,0.00467307,0.0562166,20.9225,119.82,-0.00405658,0.0,0.0
360,89.75,64.7583,69.1914,163.55,100.626,100.699,0.00458521,0.0561761,20.9226,119.88,-0.00665718,0.0,0.0
362,90.25,64.423,69.2836,158.753,100.648,100.737,0.00450219,0.0561434,20.9226,119.84,-0.00816324,0.0,0.0
364,90.75,64.689,69.3102,163.916,100.633,100.752,0.0044042,0.0559737,20.9226,119.9,-0.0109209,0.0,0.0
366,91.25,64.4618,69.2373,161.607,100.655,100.707,0.00437653,0.0559281,20.9226,119.79,-0.00478276,0.0,0.0
368,91.75,64.3839,69.2878,164.017,100.672,100.707,0.00433268,0.0559116,20.9226,119.79,-0.00316593,0.0,0.0
370,92.25,64.9954,69.7032,162.655,100.674,100.775,0.00430028,0.0558983,20.923,119.78,-0.00922778,0.0,0.0
372,92.75,64.5972,69.3662,160.26,100.674,100.744,0.00427403,0.0558413,20.9234,119.8,-0.00642018,0.0,0.0
374,93.25,64.8486,69.5509,163.469,100.707,100.77,0.00426595,0.0557951,20.9237,119.85,-0.00572733,0.0,0.0
376,93.75,65.0433,69.7197,165.365,100.699,100.754,0.0042594,0.0557577,20.9239,119.83,-0.0050263,0.0,0.0
378,94.25,65.1075,68.9616,163.161,100.726,100.806,0.0042541,0.0556504,20.9241,119.86,-0.00729194,0.0,0.0
380,94.75,64.9174,69.3932,161.541,100.729,100.773,0.00426562,0.0555635,20.9243,119.83,-0.00400557,0.0,0.0
382,95.25,64.8524,69.443,163.586,100.731,100.775,0.00427495,0.0555239,20.9244,119.82,-0.00399899,0.0,0.0
384,95.75,64.7425,69.3115,163.992,100.747,100.816,0.00429042,0.0554918,20.9247,119.78,-0.00625944,0.0,0.0
386,96.25,64.7975,69.4943,163.645,100.761,100.807,0.00430295,0.0553734,20.9252,119.79,-0.00415311,0.0,0.0
388,96.75,64.8111,69.082,167.989,100.758,100.793,0.004302,0.0552775,20.9256,119.74,-0.00318896,0.0,0.0
390,97.25,64.7392,69.255,166.897,100.777,100.857,0.00429124,0.0551998,20.9259,119.72,-0.00727713,0.0,0.0
392,97.75,64.4289,69.1644,160.585,100.733,100.823,0.0042548,0.0551368,20.9262,119.74,-0.00820768,0.0,0.0
394,98.25,64.8121,69.1768,164.779,100.808,100.861,0.00420032,0.0550453,20.9264,119.76,-0.00484145,0.0,0.0
396,98.75,64.5589,69.1971,168.603,100.771,100.829,0.0041292,0.0549348,20.9265,119.78,-0.00531153,0.0,0.0
398,99.25,65.0336,69.3764,160.616,100.833,100.868,0.00404729,0.0548127,20.9267,119.77,-0.00320706,0.0,0.0
400,99.75,64.6678,69.0553,164.618,100.811,100.87,0.00396158,0.0546847,20.9268,119.76,-0.00543769,0.0,0.0
402,100.25,64.1797,69.1874,164.391,100.861,100.901,0.00387474,0.054581,20.9269,119.78,-0.00360302,0.0,0.0
404,100.75,64.8925,69.5741,165.361,100.833,100.892,0.00380439,0.0544663,20.927,119.76,-0.00537571,0.0,0.0
406,101.25,64.7821,69.2139,170.999,100.849,100.946,0.00372378,0.0543733,20.927,119.76,-0.00883761,0.0,0.0
408,101.75,65.1295,68.8107,164.6,100.873,100.933,0.00365848,0.0543061,20.9271,119.76,-0.0054355,0.0,0.0
410,102.25,64.6854,68.8477,163.529,100.885,100.86,0.0035964,0.054259,20.9271,119.82,0.00229454,0.0,0.0
412,102.75,64.4011,69.0102,164.982,100.882,100.93,0.00354612,0.054237,20.9271,119.79,-0.00436701,0.0,0.0
414,103.25,64.3403,69.033,159.747,100.903,100.97,0.00350332,0.0542338,20.9272,119.8,-0.00609267,0.0,0.0
416,103.75,64.7128,68.8156,164.186,100.899,100.965,0.00346679,0.0542312,20.9272,119.81,-0.00602081,0.0,0.0
418,104.25,64.3613,68.7797,159.817,100.939,100.993,0.00343513,0.0542291,20.9272,119.72,-0.00493634,0.0,0.0
420,104.75,64.5409,69.0646,161.244,100.919,101.023,0.00340762,0.0542274,20.9272,119.77,-0.00951259,0.0,0.0
422,105.25,64.5371,68.6853,159.51,100.937,101.011,0.00338533,0.0541798,20.9272,119.71,-0.00674221,0.0,0.0
424,105.75,64.3847,69.0563,163.918,100.945,101.022,0.00336072,0.0541412,20.9272,119.75,-0.00693094,0.0,0.0
426,106.25,64.8862,68.811,165.897,100.968,101.056,0.00334079,0.0540176,20.9272,119.74,-0.00803978,0.0,0.0
428,106.75,64.7263,68.8544,165.73,100.947,101.024,0.00331284,0.0539175,20.9275,119.66,-0.0069633,0.0,0.0
430,107.25,64.8889,69.3204,162.308,100.959,101.019,0.0032902,0.0538364,20.9279,119.72,-0.00545635,0.0,0.0
432,107.75,64.6149,69.2884,156.307,100.982,101.048,0.00327187,0.0538169,20.9282,119.73,-0.00599009,0.0,0.0
434,108.25,65.2257,69.355,162.518,101.014,101.057,0.00325701,0.0538011,20.9285,119.73,-0.00396499,0.0,0.0
436,108.75,64.8594,69.3789,165.733,101.002,101.052,0.00322429,0.0537883,20.9287,119.78,-0.00460725,0.0,0.0
438,109.25,64.9286,68.767,160.062,100.999,101.056,0.00317916,0.0537164,20.9287,119.77,-0.0051179,0.0,0.0
440,109.75,64.7197,68.9283,157.508,101.019,101.072,0.00312813,0.0536581,20.9285,119.77,-0.00473614,0.0,0.0
442,110.25,64.354,69.1406,165.02,101.019,101.115,0.00307377,0.0535801,20.9283,119.74,-0.00873006,0.0,0.0
444,110.75,65.0843,69.6459,157.979,101.032,101.095,0.00299964,0.0535169,20.9282,119.72,-0.00574762,0.0,0.0
446,111.25,64.9963,69.3097,162.242,101.041,101.116,0.00292789,0.0534812,20.9281,119.65,-0.00677293,0.0,0.0
448,111.75,64.7751,69.4779,163.376,101.039,101.108,0.00285925,0.0534522,20.928,119.68,-0.00626932,0.0,0.0
450,112.25,64.6157,69.5801,163.043,101.054,101.12,0.00280365,0.0533825,20.9279,119.68,-0.00605866,0.0,0.0
452,112.75,64.4094,68.877,164.515,101.085,101.144,0.002771,0.0533528,20.9279,119.69,-0.00529562,0.0,0.0
454,113.25,64.7116,69.2062,168.06,101.094,101.16,0.00271518,0.0533102,20.9278,119.63,-0.00607237,0.0,0.0
456,113.75,64.761,68.8474,163.543,101.064,101.156,0.0026624,0.0532829,20.9278,119.7,-0.00832401,0.0,0.0
458,114.25,64.62,69.2833,167.773,101.105,101.147,0.00261284,0.0532608,20.9278,119.72,-0.00380375,0.0,0.0
460,114.75,64.7778,69.0069,163.38,101.121,101.161,0.00257269,0.0532121,20.9277,119.61,-0.00365841,0.0,0.0
462,115.25,64.3797,69.4372,166.892,101.096,101.189,0.00253536,0.0531727,20.9279,119.61,-0.00843046,0.0,0.0
464,115.75,64.6336,69.2015,159.463,101.142,101.191,0.0025008,0.0530759,20.9283,119.65,-0.00447177,0.0,0.0
466,116.25,64.6837,69.4884,162.604,101.138,101.179,0.00247211,0.0529392,20.9286,119.62,-0.00374122,0.0,0.0
468,116.75,64.4045,69.3653,163.693,101.142,101.245,0.00244826,0.0528528,20.9289,119.64,-0.00930406,0.0,0.0
470,117.25,64.785,69.0634,165.712,101.151,101.221,0.00242687,0.0528047,20.9291,119.63,-0.00639769,0.0,0.0
472,117.75,64.6539,68.9326,162.083,101.166,101.239,0.00240769,0.0527657,20.9293,119.66,-0.00659738,0.0,0.0
474,118.25,64.8669,69.1969,163.176,101.148,101.233,0.00239216,0.0526879,20.9294,119.63,-0.00775556,0.0,0.0
476,118.75,64.3306,69.1321,163.05,101.178,101.282,0.00235869,0.052625,20.9295,119.65,-0.00943521,0.0,0.0
478,119.25,64.6483,69.045,162.369,101.206,101.251,0.00233158,0.0525739,20.9296,119.65,-0.00403354,0.0,0.0
480,119.75,64.5224,69.3918,164.508,101.216,101.273,0.00228903,0.0525326,20.9297,119.63,-0.00514807,0.0,0.0
482,120.25,64.7789,69.2837,161.076,101.223,101.271,0.00223602,0.0525299,20.9297,119.59,-0.00433794,0.0,0.0
484,120.75,64.7698,68.6788,163.279,101.226,101.278,0.00215139,0.0525278,20.9298,119.63,-0.00473559,0.0,0.0
486,121.25,64.3664,69.1232,158.002,101.216,101.295,0.00208284,0.0524855,20.9298,119.64,-0.00721678,0.0,0.0
488,121.75,64.5008,68.9381,160.75,101.243,101.331,0.00202731,0.0524148,20.9298,119.62,-0.00797558,0.0,0.0
490,122.25,64.6942,69.177,163.692,101.238,101.302,0.00194979,0.0523576,20.9299,119.62,-0.00578493,0.0,0.0
492,122.75,64.8856,69.232,163.096,101.249,101.311,0.001887,0.0523266,20.9299,119.6,-0.00562749,0.0,0.0
494,123.25,64.6967,69.0497,164.929,101.26,101.294,0.00183093,0.0523015,20.9299,119.6,-0.00304254,0.0,0.0
496,123.75,64.8808,69.4404,168.381,101.285,101.342,0.00178963,0.0522965,20.9299,119.59,-0.0052106,0.0,0.0
498,124.25,64.6967,69.1498,163.304,101.277,101.329,0.00175987,0.0522925,20.9302,119.61,-0.00475534,0.0,0.0
500,124.75,64.6983,69.4043,165.644,101.268,101.305,0.00173576,0.052197,20.9306,119.56,-0.00341272,0.0,0.0
502,125.25,64.9981,68.939,163.464,101.276,101.341,0.00173302,0.0521562,20.9307,119.54,-0.00591055,0.0,0.0
504,125.75,64.4814,68.9457,165.764,101.323,101.347,0.00172834,0.0520623,20.9306,119.5,-0.00217392,0.0,0.0
506,126.25,65.0686,69.2297,166.407,101.278,101.331,0.00172865,0.0519643,20.9305,119.5,-0.00478167,0.0,0.0
508,126.75,64.4065,69.4151,162.259,101.324,101.362,0.00173261,0.0519011,20.9304,119.54,-0.00341984,0.0,0.0
510,127.25,64.7577,68.9812,164.582,101.306,101.357,0.00173924,0.0518645,20.9303,119.47,-0.00464783,0.0,0.0
512,127.75,65.2247,69.0849,163.25,101.331,101.382,0.00174769,0.0518349,20.9307,119.46,-0.00463796,0.0,0.0
514,128.25,64.3199,68.919,161.856,101.332,101.382,0.00175454,0.0517494,20.931,119.48,-0.0045332,0.0,0.0
516,128.75,64.8605,68.3579,163.589,101.333,101.426,0.00176626,0.0516801,20.9312,119.51,-0.00845679,0.0,0.0
518,129.25,65.0273,69.0813,161.601,101.337,101.395,0.0017813,0.0516401,20.9314,119.48,-0.00525613,0.0,0.0
520,129.75,64.4661,69.0304,162.51,101.365,101.432,0.00179143,0.0516224,20.9316,119.48,-0.0060998,0.0,0.0
522,130.25,64.4645,69.0362,158.94,101.332,101.408,0.00179778,0.051608,20.9317,119.46,-0.00684755,0.0,0.0
524,130.75,64.1925,68.7414,161.851,101.385,101.422,0.00179539,0.0516578,20.9318,119.46,-0.00337378,0.0,0.0
526,131.25,64.884,69.1561,160.361,101.371,101.397,0.00178666,0.0516982,20.9319,119.44,-0.00230608,0.0,0.0
528,131.75,64.2944,68.8861,162.057,101.37,101.436,0.0017796,0.051731,20.932,119.46,-0.00596211,0.0,0.0
530,132.25,64.3384,68.5022,163.366,101.372,101.388,0.00177387,0.0516959,20.9321,119.46,-0.00142601,0.0,0.0
532,132.75,64.5484,68.8188,164.621,101.374,101.464,0.00175231,0.0516676,20.9321,119.45,-0.00814348,0.0,0.0
534,133.25,64.2617,68.7597,173.517,101.376,101.416,0.00173485,0.0515984,20.9321,119.44,-0.00360905,0.0,0.0
536,133.75,64.39,68.6579,158.962,101.386,101.449,0.00172721,0.0515424,20.9322,119.44,-0.00570593,0.0,0.0
538,134.25,64.507,69.1098,161.877,101.388,101.455,0.00172102,0.0514663,20.9322,119.46,-0.0061223,0.0,0.0
540,134.75,64.4881,69.0058,159.138,101.387,101.476,0.00173034,0.0514046,20.9322,119.4,-0.00810343,0.0,0.0
542,135.25,64.7506,68.798,160.649,101.395,101.475,0.00173788,0.0513547,20.9322,119.43,-0.00722939,0.0,0.0
544,135.75,64.5642,68.839,161.449,101.397,101.503,0.00174399,0.0512835,20.9322,119.259,-0.00961137,0.0,0.0
546,136.25,64.7353,69.343,162.232,101.365,101.435,0.00173722,0.0512258,20.9323,119.279,-0.0064125,0.0,0.0
548,136.75,64.7484,68.9823,168.181,101.404,101.486,0.00173173,0.0512713,20.9323,119.39,-0.00746861,0.0,0.0
550,137.25,64.9652,68.7082,160.479,101.385,101.467,0.00170517,0.0513082,20.9323,119.37,-0.00743898,0.0,0.0
552,137.75,64.5615,69.0746,160.58,101.402,101.467,0.00168365,0.0513074,20.9323,119.329,-0.00587928,0.0,0.0
554,138.25,64.3086,68.6428,162.792,101.401,101.463,0.00165061,0.0513067,20.9323,119.329,-0.00565218,0.0,0.0
556,138.75,64.0225,68.9563,163.235,101.415,101.491,0.00162384,0.051298,20.9323,119.35,-0.00681573,0.0,0.0
558,139.25,64.2161,68.7649,164.291,101.413,101.525,0.00160422,0.0512837,20.9323,119.329,-0.0100976,0.0,0.0
560,139.75,64.4909,68.5723,162.707,101.416,101.488,0.00159017,0.0512964,20.9323,119.36,-0.00648382,0.0,0.0
562,140.25,64.8413,68.8577,157.586,101.418,101.462,0.00158496,0.0513285,20.9323,119.37,-0.00397541,0.0,0.0