File: 01_Data/PEVA/Cone/PEVA_Cone_HF25Scan_240820_R3.csv
Names,Time,Stack TC,Smoke TC,Exh Press,Smoke Comp,Smoke Meas,CO Meter,CO2 Meter,O2 Meter,Sample Mass,Ext Coeff,Start Test,Flame Verif
Chan Gain,,500,500,1,1,1,1,1,1,1,1,1.0,1.0
Offset,,0,0,0.143687,0,0,0,0,0,0,0,0.0,0.0
Gain,,1,1,25.011,11.7833,14.1275,1,1,1,1.00092,1.04852,1.0,1.0
Units,sec,C,C,Pa,%,%,%,%,%,g,/m,,
Baseline,,44.4398,46.3292,174.878,100.325,100.343,-0.000587522,0.0418559,20.9445,-446.923,-0.0016463,,
2,0.25,44.2792,46.4641,172.652,100.304,100.311,-0.000613932,0.0505266,20.9368,135.745,-0.000684196,0.0,0.0
4,0.75,44.5243,46.0854,173.628,100.272,100.311,-0.000614177,0.0505781,20.9365,135.765,-0.00358657,0.0,0.0
6,1.25,44.1018,46.3004,173.511,100.302,100.343,-0.000613153,0.0506198,20.9363,135.705,-0.00377413,0.0,0.0
8,1.75,43.9465,46.1952,173.209,100.272,100.314,-0.000612323,0.0506229,20.9361,135.705,-0.00386956,0.0,0.0
10,2.25,44.1146,45.9115,177.547,100.309,100.36,-0.000621977,0.0506254,20.9359,135.674,-0.004695,0.0,0.0
12,2.75,44.5652,45.6531,176.358,100.301,100.323,-0.000629798,0.0505812,20.9358,135.705,-0.00202258,0.0,0.0
14,3.25,44.1741,46.0759,171.392,100.328,100.364,-0.000645167,0.0505455,20.9357,135.695,-0.00334307,0.0,0.0
16,3.75,44.1117,46.1139,175.352,100.311,100.398,-0.000657617,0.0504704,20.9356,135.695,-0.00790151,0.0,0.0
18,4.25,43.8921,45.9767,171.24,100.338,100.369,-0.000671574,0.0504096,20.9356,135.695,-0.00284896,0.0,0.0
20,4.75,44.4444,45.7831,174.182,100.322,100.312,-0.000682879,0.0502373,20.9355,135.684,0.000878197,0.0,0.0
22,5.25,44.2454,46.0786,173.417,100.34,100.32,-0.000699781,0.0500977,20.9355,135.684,0.00188785,0.0,0.0
24,5.75,44.0665,46.4486,179.408,100.324,100.292,-0.000713472,0.0497849,20.9354,135.684,0.00290069,0.0,0.0
26,6.25,43.3699,46.1275,174.249,100.357,100.283,-0.000729724,0.0495315,20.9354,135.684,0.00675809,0.0,0.0
28,6.75,44.3337,46.3553,175.679,100.367,100.257,-0.000742889,0.0493262,20.9358,135.684,0.010132,0.0,0.0
30,7.25,44.4085,46.0014,175.61,100.379,100.274,-0.000753552,0.0490505,20.9362,135.674,0.00956574,0.0,0.0
32,7.75,43.5482,46.3706,173.161,100.368,100.247,-0.000766941,0.0488271,20.9365,135.654,0.0111012,0.0,0.0
34,8.25,43.9327,46.0886,172.934,100.389,100.145,-0.000782062,0.0486219,20.9367,135.654,0.022399,0.0,0.0
36,8.75,44.1956,46.1627,175.232,100.395,100.128,-0.000795668,0.0484339,20.9369,135.664,0.0244704,0.0,0.0
38,9.25,44.197,46.4027,174.216,100.383,100.042,-0.000807912,0.048314,20.9369,135.684,0.0313329,0.0,0.0
40,9.75,44.0288,46.487,175.402,100.401,99.9717,-0.000816471,0.0482459,20.9368,135.684,0.039411,0.0,0.0
42,10.25,43.9521,46.0154,180.991,100.401,99.9484,-0.000822181,0.0481908,20.9368,135.674,0.0415527,0.0,0.0
44,10.75,44.1408,46.4424,172.098,100.416,99.9006,-0.000826806,0.0481461,20.9373,135.674,0.0473739,0.0,0.0
46,11.25,44.1686,45.5823,174.98,100.41,99.9044,-0.000826476,0.0483713,20.9376,135.674,0.0464238,0.0,0.0
48,11.75,44.532,45.7947,175.224,100.444,99.8436,-0.000824405,0.0484672,20.9379,135.664,0.0551186,0.0,0.0
50,12.25,44.3797,45.8934,168.619,100.435,99.8372,-0.000820862,0.0488159,20.9381,135.684,0.0549235,0.0,0.0
52,12.75,44.0781,46.2856,175.503,100.447,99.7678,-0.000806376,0.0490983,20.9383,135.654,0.0624396,0.0,0.0
54,13.25,43.8664,46.0741,168.942,100.441,99.1655,-0.000794642,0.0495423,20.9385,135.624,0.117574,0.0,0.0
56,13.75,44.2415,46.2145,168.045,100.458,98.4239,-0.000778683,0.049902,20.9384,135.564,0.188159,0.0,1.0
58,14.25,43.8811,46.4538,168.982,100.457,88.1452,-0.000765757,0.0502501,20.9382,135.464,1.20257,0.0,1.0
60,14.75,43.906,46.8144,164.662,100.477,75.0735,-0.000755286,0.050583,20.9379,135.314,2.68073,0.0,1.0
62,15.25,44.1623,46.3361,157.217,100.474,64.8383,-0.000732606,0.0508527,20.9375,135.164,4.02853,0.0,1.0
64,15.75,44.3662,46.9909,150.862,100.482,48.5568,-0.000714235,0.050948,20.937,134.954,6.68881,0.0,1.0
66,16.25,45.0518,48.0212,146.546,100.495,50.8634,-0.00067741,0.0510252,20.9365,134.804,6.26318,0.0,1.0
68,16.75,45.8788,49.0584,145.156,100.501,50.6103,-0.000647582,0.0510109,20.9362,134.654,6.30956,0.0,1.0
70,17.25,47.2396,50.1914,148.879,100.505,54.241,-0.000597613,0.0509992,20.9359,134.513,5.67271,0.0,1.0
72,17.75,47.9812,51.7014,148.184,100.507,57.634,-0.000557137,0.0508694,20.9356,134.353,5.11484,0.0,1.0
74,18.25,48.6374,53.1764,159.285,100.506,56.2876,-0.000512123,0.0506559,20.9355,134.213,5.33223,0.0,1.0
76,18.75,49.4353,54.0057,154.174,100.547,54.8622,-0.000464655,0.0503454,20.9355,134.103,5.57188,0.0,1.0
78,19.25,49.5563,55.8768,155.745,100.511,54.795,-0.000412619,0.0499701,20.9355,133.983,5.57984,0.0,1.0
80,19.75,49.7412,55.7872,155.489,100.52,54.9584,-0.000335058,0.0496661,20.9355,133.863,5.55327,0.0,1.0
82,20.25,51.4689,56.5649,158.82,100.543,52.7544,-0.000280469,0.0493369,20.9355,133.783,5.93186,0.0,1.0
84,20.75,51.6643,57.4484,165.097,100.567,53.3274,-0.000250117,0.0492483,20.9358,133.663,5.83464,0.0,1.0
86,21.25,52.5367,58.1188,158.468,100.546,49.4493,-0.000198215,0.0505646,20.9362,133.593,6.52716,0.0,0.0
88,21.75,52.6945,58.7131,161.53,100.554,51.9641,-8.60669e-05,0.052952,20.9365,133.543,6.07167,0.0,0.0
90,22.25,52.966,59.2321,157.511,100.549,45.397,6.78699e-05,0.0548857,20.9367,133.482,7.31382,0.0,0.0
92,22.75,52.9739,59.4896,160.296,100.554,41.1469,0.000470588,0.0693118,20.9369,133.402,8.21838,0.0,0.0
94,23.25,53.237,59.6896,164.833,100.573,46.1041,0.00104702,0.0809971,20.9371,133.312,7.17387,0.0,0.0
96,23.75,53.8899,59.9621,161.386,100.581,49.2643,0.00151392,0.111315,20.9373,133.272,6.56485,0.0,0.0
98,24.25,53.535,60.1914,158.807,100.584,49.6222,0.00310119,0.135873,20.9311,133.212,6.49858,0.0,0.0
100,24.75,53.1831,60.3032,163.045,100.629,53.5641,0.00438689,0.179523,20.9262,133.182,5.79956,0.0,0.0
102,25.25,54.1047,60.7076,174.494,100.609,53.7128,0.00730805,0.21488,20.8875,133.122,5.77224,0.0,0.0
104,25.75,54.0676,60.8761,164.605,100.602,58.6204,0.00967419,0.259057,20.8561,133.072,4.9675,0.0,0.0
106,26.25,54.4703,61.1569,161.163,100.608,57.3154,0.0138983,0.29484,20.8078,133.012,5.17507,0.0,0.0
108,26.75,53.8024,61.2668,163.614,100.602,56.2406,0.0173197,0.3261,20.748,132.942,5.34862,0.0,0.0
110,27.25,54.6171,61.226,166.329,100.594,60.5278,0.0217353,0.353468,20.6996,132.932,4.67228,0.0,0.0
112,27.75,54.3958,61.0633,168.822,100.612,70.109,0.0253118,0.375636,20.6292,132.882,3.32234,0.0,0.0
114,28.25,54.5279,61.346,162.574,100.599,68.5176,0.0282089,0.388132,20.5722,132.862,3.53235,0.0,0.0
116,28.75,54.3663,60.8374,174.881,100.643,71.8331,0.0311228,0.398254,20.526,132.832,3.10171,0.0,0.0
118,29.25,55.648,61.3879,162.895,100.641,73.1705,0.0339938,0.401722,20.4886,132.822,2.93185,0.0,0.0
120,29.75,54.5555,61.8828,171.908,100.651,76.5596,0.0362356,0.400275,20.4583,132.802,2.51629,0.0,0.0
122,30.25,54.694,61.2922,167.506,100.694,80.827,0.0379762,0.399102,20.4336,132.772,2.02135,0.0,0.0
124,30.75,54.0297,60.9842,165.716,100.664,84.2848,0.0389909,0.390353,20.4136,132.772,1.63338,0.0,0.0
126,31.25,54.3843,60.2943,167.133,100.64,85.0724,0.0394569,0.383266,20.3987,132.742,1.54565,0.0,0.0
128,31.75,54.5752,61.0047,168.984,100.544,88.34,0.0394445,0.372212,20.3867,132.712,1.19015,0.0,0.0
130,32.25,53.9621,60.8924,171.875,100.471,88.5375,0.0390835,0.363259,20.3903,132.702,1.16297,0.0,0.0
132,32.75,54.0674,60.7468,173.966,100.558,89.9559,0.038791,0.351819,20.3932,132.672,1.02478,0.0,0.0
134,33.25,53.8837,60.5783,172.321,100.555,92.3022,0.0377633,0.342553,20.3956,132.692,0.787636,0.0,0.0
136,33.75,53.669,60.5616,168.113,100.638,91.7184,0.0369308,0.335047,20.4022,132.652,0.853553,0.0,0.0
138,34.25,53.7634,59.8313,169.063,100.597,92.438,0.0362565,0.323576,20.4117,132.652,0.777993,0.0,0.0
140,34.75,53.1824,60.0298,174.694,100.594,92.5053,0.0346276,0.314285,20.4233,132.662,0.771041,0.0,0.0
142,35.25,53.1202,59.6321,173.872,100.556,94.4635,0.0333082,0.304882,20.4362,132.672,0.574854,0.0,0.0
144,35.75,53.2454,59.0069,178.918,100.615,95.0313,0.0318041,0.295577,20.4467,132.662,0.525128,0.0,0.0
146,36.25,52.8871,59.2484,172.395,100.643,95.3779,0.030194,0.28804,20.4618,132.672,0.494204,0.0,0.0
148,36.75,52.7001,58.2771,170.152,100.661,95.1632,0.0286044,0.278276,20.474,132.662,0.516575,0.0,0.0
150,37.25,52.8989,58.6206,173.456,100.68,96.4722,0.0270601,0.270366,20.4872,132.632,0.392703,0.0,0.0
152,37.75,52.8768,58.893,175.622,100.691,97.6267,0.0258092,0.260357,20.5009,132.622,0.284232,0.0,0.0
154,38.25,52.5259,58.111,174.787,100.698,97.9173,0.0241499,0.25225,20.5157,132.662,0.25752,0.0,0.0
156,38.75,52.2099,58.248,174.631,100.744,98.6843,0.0228059,0.243697,20.5311,132.662,0.18996,0.0,0.0
158,39.25,52.0525,57.8503,173.172,100.733,98.7723,0.021296,0.234981,20.548,132.682,0.180781,0.0,0.0
160,39.75,52.2084,57.7996,172.459,100.775,99.4405,0.0200729,0.224806,20.5659,132.682,0.122638,0.0,0.0
162,40.25,52.1228,57.5479,174.181,100.788,99.8027,0.0186691,0.216563,20.584,132.672,0.0903499,0.0,0.0
164,40.75,51.9469,57.4603,174.818,100.799,100.004,0.017532,0.206508,20.6021,132.702,0.072824,0.0,0.0
166,41.25,51.6981,57.1342,172.947,100.831,100.324,0.0161598,0.198363,20.6203,132.712,0.0463747,0.0,0.0
168,41.75,51.1848,56.7036,176.886,100.841,100.503,0.0150483,0.191766,20.6382,132.732,0.0308335,0.0,0.0
170,42.25,51.5653,56.8639,176.175,100.873,100.609,0.014148,0.181842,20.6527,132.692,0.0241172,0.0,0.0
172,42.75,50.9404,56.1527,174.423,100.884,100.685,0.0129577,0.173804,20.6675,132.682,0.0181663,0.0,0.0
174,43.25,51.0504,55.9807,176.789,100.88,100.748,0.0119936,0.165577,20.6822,132.672,0.0120572,0.0,0.0
176,43.75,50.5962,55.3243,177.251,100.9,100.793,0.0109747,0.157369,20.6969,132.682,0.00976837,0.0,0.0
178,44.25,50.0613,54.7293,171.197,100.906,100.782,0.0101493,0.149399,20.7113,132.702,0.0113476,0.0,0.0
180,44.75,49.6795,54.6491,174.186,100.94,100.863,0.00927743,0.141754,20.7261,132.702,0.00702761,0.0,0.0
182,45.25,49.9211,54.0309,177.224,100.924,100.893,0.00857117,0.134338,20.7408,132.652,0.00284808,0.0,0.0
184,45.75,49.6015,54.1628,176.208,100.921,100.935,0.0078284,0.127231,20.7527,132.662,-0.00126536,0.0,0.0
186,46.25,49.2701,53.9269,176.01,100.943,100.964,0.00722676,0.120536,20.7681,132.692,-0.00193101,0.0,0.0
188,46.75,49.289,54.1403,176.971,100.955,100.974,0.00666173,0.11427,20.7822,132.702,-0.001721,0.0,0.0
190,47.25,49.0565,53.3199,174.546,100.971,100.965,0.00613413,0.108211,20.7951,132.692,0.000571221,0.0,0.0
192,47.75,48.4074,53.5565,173.52,100.971,100.956,0.00563627,0.102418,20.8056,132.662,0.00133097,0.0,0.0
194,48.25,48.7746,53.3686,176.39,100.992,101.008,0.00516955,0.0977264,20.8176,132.682,-0.00145562,0.0,0.0
196,48.75,49.1834,52.9651,179.073,100.997,101.012,0.0047915,0.0920034,20.8274,132.672,-0.00142218,0.0,0.0
198,49.25,48.2518,52.9503,172.517,101.015,101.007,0.00437654,0.0873677,20.8353,132.692,0.000758697,0.0,0.0
200,49.75,48.7422,52.8199,171.237,101.015,101.004,0.00394255,0.0836128,20.8448,132.682,0.00096042,0.0,0.0
202,50.25,48.487,52.3455,171.615,101.026,101.036,0.00353002,0.0789954,20.8525,132.662,-0.000928721,0.0,0.0
204,50.75,47.8204,52.2253,172.118,101.036,101.022,0.00314097,0.0752553,20.861,132.682,0.00128931,0.0,0.0
206,51.25,48.0328,52.4019,171.928,101.043,101.078,0.00282584,0.0713317,20.8678,132.672,-0.00315716,0.0,0.0
208,51.75,48.4369,52.0282,169.87,101.041,101.053,0.00245891,0.0681537,20.8748,132.692,-0.00112446,0.0,0.0
210,52.25,47.6595,51.9738,174.939,101.08,101.11,0.00216171,0.0649176,20.8817,132.662,-0.0028007,0.0,0.0
212,52.75,47.9641,51.5473,173.249,101.053,101.092,0.0018549,0.0622963,20.8887,132.682,-0.00353501,0.0,0.0
214,53.25,48.1606,52.0655,172.221,101.094,101.076,0.00160638,0.0599223,20.8956,132.662,0.0016138,0.0,0.0
216,53.75,47.8719,51.3845,177.633,101.071,101.089,0.00138194,0.0577735,20.9017,132.672,-0.00163163,0.0,0.0
218,54.25,48.2137,51.2672,168.961,101.098,101.106,0.0011793,0.0558874,20.907,132.652,-0.000732991,0.0,0.0
220,54.75,47.5702,50.5546,173.038,101.087,101.112,0.00100428,0.0542286,20.9113,132.642,-0.00230937,0.0,0.0
222,55.25,47.6847,51.0194,166.469,101.116,101.097,0.000852722,0.052885,20.9157,132.642,0.00164778,0.0,0.0
224,55.75,46.896,51.1497,174.026,101.12,101.12,0.000729957,0.0515817,20.9193,132.632,-3.89233e-05,0.0,0.0
226,56.25,47.4661,50.4902,177.568,101.125,101.127,0.000616307,0.050526,20.9222,132.632,-0.000168851,0.0,0.0
228,56.75,47.1991,50.5961,175.375,101.154,101.142,0.00052425,0.0496709,20.9248,132.632,0.00110842,0.0,0.0
230,57.25,47.3525,50.0846,175.302,101.155,101.147,0.000449684,0.0488328,20.9271,132.642,0.000702783,0.0,0.0
232,57.75,46.9375,50.868,171.717,101.125,101.15,0.000374335,0.048023,20.9289,132.642,-0.00232472,0.0,0.0
234,58.25,47.2416,50.2194,176.526,101.157,101.175,0.000299846,0.0473268,20.9304,132.642,-0.00168811,0.0,0.0
236,58.75,47.0886,50.5025,172.559,101.142,101.157,0.000224563,0.0467264,20.9317,132.642,-0.0014145,0.0,0.0
238,59.25,47.3572,49.8289,171.561,101.167,101.186,0.000150132,0.0462401,20.9331,132.642,-0.00174568,0.0,0.0
240,59.75,46.9995,50.0733,173.746,101.153,101.175,8.98432e-05,0.0457695,20.9343,132.652,-0.00204068,0.0,0.0
242,60.25,47.0185,49.8437,179.953,101.189,101.191,1.7774e-05,0.0453883,20.9353,132.662,-0.000222029,0.0,0.0
244,60.75,46.7877,50.2586,175.545,101.204,101.209,-4.67167e-05,0.0450182,20.936,132.662,-0.000468735,0.0,0.0
246,61.25,46.615,48.8901,172.102,101.185,101.209,-0.000104457,0.0447184,20.9369,132.662,-0.00220079,0.0,0.0
248,61.75,46.5874,49.9484,177.202,101.186,101.206,-0.000129073,0.0445663,20.9374,132.662,-0.00185479,0.0,0.0
250,62.25,46.096,49.5418,176.855,101.19,101.23,-0.000179319,0.0443063,20.9382,132.662,-0.00365018,0.0,0.0
252,62.75,46.3824,49.6937,173.4,101.19,101.238,-0.000227355,0.0440957,20.9388,132.682,-0.00436866,0.0,0.0
254,63.25,46.4006,49.5032,171.382,101.217,101.245,-0.000266265,0.0438944,20.9394,132.652,-0.00253748,0.0,0.0
256,63.75,46.5858,49.2424,172.596,101.218,101.239,-0.000301654,0.0437314,20.9398,132.652,-0.00192388,0.0,0.0
258,64.25,46.5957,49.4645,174.009,101.232,101.255,-0.00033032,0.0436155,20.9402,132.652,-0.0020659,0.0,0.0
260,64.75,46.292,49.5221,175.529,101.229,101.246,-0.0003515,0.0435362,20.9405,132.652,-0.00154445,0.0,0.0
262,65.25,46.3998,49.1417,180.184,101.232,101.209,-0.000366822,0.0434557,20.9407,132.652,0.00205338,0.0,0.0
264,65.75,46.1647,49.2116,172.1,101.245,101.253,-0.000383106,0.0433761,20.9409,132.632,-0.00073957,0.0,0.0
266,66.25,46.7453,49.0231,167.54,101.244,101.303,-0.000396296,0.0432873,20.941,132.612,-0.00544483,0.0,0.0
268,66.75,46.0024,49.1334,174.291,101.252,101.265,-0.000412142,0.0431936,20.9411,132.572,-0.00113707,0.0,0.0
270,67.25,46.492,49.0171,175.599,101.246,101.286,-0.000424978,0.0431419,20.9412,132.592,-0.00368309,0.0,0.0
272,67.75,46.3544,48.8633,172.246,101.236,101.261,-0.000441829,0.0431219,20.9413,132.562,-0.00226056,0.0,0.0
274,68.25,45.8276,48.9833,172.866,101.264,101.275,-0.000455479,0.0431379,20.9414,132.602,-0.00107072,0.0,0.0
276,68.75,46.1936,49.0178,169.253,101.252,101.277,-0.000469117,0.04318,20.9414,132.622,-0.00230553,0.0,0.0
278,69.25,46.0203,48.7816,175.642,101.228,101.291,-0.000480164,0.0432222,20.9415,132.622,-0.00571526,0.0,0.0
280,69.75,46.0529,48.3577,174.871,101.267,101.28,-0.000489111,0.0432636,20.9415,132.622,-0.00124014,0.0,0.0
282,70.25,46.0301,48.6747,170.418,101.281,101.282,-0.00049894,0.0432971,20.9416,132.622,-9.10039e-05,0.0,0.0
284,70.75,45.9749,48.6119,173.027,101.22,101.299,-0.000506902,0.0433001,20.9416,132.622,-0.00720964,0.0,0.0
286,71.25,46.1363,48.6229,176.698,101.262,101.268,-0.000505606,0.0432807,20.9416,132.632,-0.000536169,0.0,0.0
288,71.75,46.0322,48.2567,171.201,101.277,101.301,-0.000504556,0.043273,20.9416,132.632,-0.00220518,0.0,0.0
290,72.25,45.8662,48.2747,170.144,101.268,101.288,-0.000490797,0.0432741,20.9416,132.622,-0.00180764,0.0,0.0
292,72.75,45.9389,48.4122,171.718,101.236,101.269,-0.000479653,0.0432588,20.9416,132.652,-0.00295973,0.0,0.0
294,73.25,46.2143,48.1443,174.004,101.256,101.277,-0.00046587,0.0432319,20.9416,132.612,-0.00184163,0.0,0.0
296,73.75,45.6176,48.2279,174.152,101.302,101.299,-0.000450425,0.0432101,20.9416,132.612,0.000309187,0.0,0.0
298,74.25,45.7379,48.1342,172.103,101.26,101.278,-0.000441992,0.0431771,20.9416,132.612,-0.00170455,0.0,0.0
300,74.75,45.9788,48.0505,172.969,101.283,101.269,-0.000438829,0.0431504,20.9417,132.602,0.00131233,0.0,0.0
302,75.25,45.7614,48.4929,173.417,101.26,101.303,-0.000436268,0.0431747,20.9417,132.602,-0.00397486,0.0,0.0
304,75.75,45.4776,48.1823,178.092,101.251,101.298,-0.000450974,0.0431945,20.9417,132.592,-0.00425019,0.0,0.0
306,76.25,45.297,48.3539,169.488,101.257,101.297,-0.000462886,0.0431701,20.9417,132.602,-0.00361673,0.0,0.0
308,76.75,45.8929,48.0163,175.761,101.268,101.282,-0.000484084,0.043114,20.9417,132.542,-0.00127304,0.0,0.0
310,77.25,45.6536,47.6377,173.088,101.231,101.283,-0.000511649,0.0430686,20.9417,132.612,-0.00474766,0.0,0.0
312,77.75,45.4289,48.0536,173.826,101.248,101.292,-0.000541451,0.0430165,20.9417,132.622,-0.00403464,0.0,0.0
314,78.25,45.7235,48.067,172.011,101.262,101.298,-0.000572316,0.0429742,20.9417,132.592,-0.00330907,0.0,0.0
316,78.75,45.6603,47.7187,181.939,101.267,101.283,-0.000604111,0.042894,20.9417,132.592,-0.00141011,0.0,0.0
318,79.25,45.2966,47.7335,176.256,101.244,101.269,-0.000635979,0.042829,20.9417,132.582,-0.00235214,0.0,0.0
320,79.75,45.2119,48.0113,172.721,101.23,101.299,-0.000661792,0.0427764,20.9417,132.572,-0.00626218,0.0,0.0
322,80.25,45.5852,47.5604,175.51,101.228,101.291,-0.000682701,0.0427184,20.9417,132.602,-0.00570813,0.0,0.0
324,80.75,45.1868,47.4661,175.037,101.24,101.285,-0.000685429,0.0426715,20.9418,132.592,-0.0041202,0.0,0.0
326,81.25,45.1616,47.4212,173.852,101.229,101.276,-0.000687639,0.0426324,20.942,132.592,-0.00427871,0.0,0.0
328,81.75,45.1034,47.4208,172.137,101.247,101.226,-0.000675162,0.0425999,20.9422,132.592,0.00192403,0.0,0.0
330,82.25,45.3035,47.8223,172.392,101.221,101.214,-0.000652215,0.0425575,20.9422,132.592,0.000603015,0.0,0.0
332,82.75,45.358,47.1834,178.244,101.225,101.23,-0.000600067,0.0425086,20.9422,132.582,-0.000415007,0.0,0.0
334,83.25,45.2879,47.5866,174.007,101.217,101.216,-0.000557827,0.0424689,20.9422,132.572,9.31959e-05,0.0,0.0
336,83.75,44.9102,47.6088,172.704,101.219,101.198,-0.000523613,0.0423908,20.9422,132.562,0.00188895,0.0,0.0
338,84.25,45.0551,47.3603,175.094,101.197,101.229,-0.000465327,0.0423275,20.9422,132.562,-0.00292519,0.0,0.0
340,84.75,45.8734,47.3399,176.122,101.206,101.241,-0.000390601,0.0423005,20.9422,132.592,-0.0031588,0.0,0.0
342,85.25,45.3832,47.4694,171.57,101.18,101.219,-0.000299089,0.0423004,20.9421,132.592,-0.00355969,0.0,0.0
344,85.75,45.6339,47.6089,173.305,101.196,101.216,-0.000224965,0.0422923,20.9421,132.582,-0.00180216,0.0,0.0
346,86.25,44.9901,47.637,170,101.19,101.197,-0.000160166,0.0422784,20.9421,132.582,-0.000672683,0.0,0.0
348,86.75,45.279,47.1257,179.25,101.218,101.176,-0.000103396,0.0422672,20.9421,132.582,0.00379724,0.0,0.0
350,87.25,45.4095,47.2711,179.121,101.19,101.151,-6.42094e-05,0.0422581,20.9421,132.592,0.00351447,0.0,0.0
352,87.75,45.1275,47.3522,177.831,101.19,101.147,-3.8586e-05,0.0422749,20.9421,132.612,0.00390684,0.0,0.0
354,88.25,45.3572,47.3934,175.178,101.152,101.186,-2.93819e-05,0.0423103,20.9421,132.632,-0.0031259,0.0,0.0
356,88.75,45.0169,47.3025,175.555,101.167,101.173,-3.23222e-05,0.0423229,20.9421,132.582,-0.000609086,0.0,0.0
358,89.25,45.0684,47.2796,174.715,101.159,101.132,-4.21771e-05,0.0423185,20.9424,132.602,0.00246115,0.0,0.0
360,89.75,45.1149,47.4397,172.766,101.156,101.114,-5.68855e-05,0.042315,20.9428,132.582,0.00385314,0.0,0.0
362,90.25,45.3476,47.0015,174.558,101.131,101.122,-6.87992e-05,0.0422355,20.9431,132.622,0.000812417,0.0,0.0
364,90.75,44.9072,46.9806,176.509,101.137,101.122,-9.13575e-05,0.0421711,20.9433,132.592,0.00138139,0.0,0.0
366,91.25,45.2201,46.7284,172.252,101.109,101.09,-0.00010963,0.0421693,20.9436,132.622,0.00168615,0.0,0.0
368,91.75,45.3365,46.6292,172.444,101.121,101.102,-0.000122182,0.0421924,20.9437,132.642,0.00167409,0.0,0.0
370,92.25,45.4911,47.1827,172.586,101.09,101.1,-0.000143647,0.0422319,20.9438,132.672,-0.000981903,0.0,0.0
372,92.75,45.1718,47.3207,170.712,101.102,101.091,-0.000168507,0.0422486,20.9439,132.632,0.000953842,0.0,0.0
374,93.25,45.4193,46.9759,166.668,101.08,101.05,-0.00019537,0.0422621,20.9442,132.612,0.00276368,0.0,0.0
376,93.75,45.3472,47.3031,172.38,101.085,101.068,-0.000217128,0.0422423,20.9446,132.602,0.00156776,0.0,0.0
378,94.25,45.3067,47.2322,174.607,101.08,101.03,-0.000248341,0.0422264,20.9449,132.632,0.00460275,0.0,0.0
380,94.75,45.1559,47.0514,170.936,101.078,101.047,-0.000285852,0.0422215,20.9451,132.642,0.0028426,0.0,0.0
382,95.25,45.2677,47.395,175.351,101.052,101.009,-0.000340763,0.0422248,20.9453,132.622,0.00393314,0.0,0.0
384,95.75,45.2388,47.0445,172.795,101.037,101.012,-0.000385241,0.0421871,20.9455,132.612,0.00224521,0.0,0.0
386,96.25,45.1434,47.35,180.317,101,101.012,-0.000404203,0.042152,20.9456,132.592,-0.00108882,0.0,0.0
388,96.75,44.7484,46.476,175.785,101.027,101.004,-0.000450826,0.0420918,20.9457,132.632,0.00210709,0.0,0.0
390,97.25,44.7656,47.1882,173.098,101.028,100.983,-0.000488591,0.0420431,20.9458,132.592,0.00416877,0.0,0.0
392,97.75,45.1417,47.0023,174.352,100.985,100.939,-0.00052122,0.0420036,20.9459,132.592,0.00414027,0.0,0.0
394,98.25,45.6444,46.8032,176.97,100.99,100.96,-0.000549483,0.0419959,20.9459,132.562,0.00271326,0.0,0.0
396,98.75,45.2211,47.1513,175.747,100.961,100.953,-0.000566941,0.0420114,20.946,132.592,0.000714843,0.0,0.0
398,99.25,44.9514,46.8594,176.399,100.958,100.944,-0.00057619,0.0420239,20.946,132.602,0.00124546,0.0,0.0
400,99.75,44.5602,47.2581,170.429,100.954,100.954,-0.00057485,0.0420341,20.9461,132.592,5.26284e-05,0.0,0.0
402,100.25,44.8398,47.1426,174.84,100.921,100.918,-0.000565815,0.0420666,20.9461,132.572,0.00029932,0.0,0.0
404,100.75,45.1126,47.198,172.575,100.936,100.919,-0.000550344,0.0421147,20.9461,132.572,0.00149212,0.0,0.0
406,101.25,44.9266,46.6888,173.51,100.926,100.886,-0.000530475,0.0421536,20.9461,132.572,0.00363394,0.0,0.0
408,101.75,44.7965,46.8094,177.399,100.911,100.871,-0.000514381,0.0421545,20.9461,132.562,0.00359339,0.0,0.0
410,102.25,45.3775,46.7095,174.308,100.891,100.874,-0.000488429,0.0421552,20.9461,132.572,0.00148225,0.0,0.0
412,102.75,44.4789,47.1406,172.02,100.897,100.879,-0.000467407,0.0421558,20.9462,132.582,0.00160832,0.0,0.0
414,103.25,44.9005,47.1985,175.302,100.862,100.858,-0.00045038,0.042185,20.9462,132.592,0.000360718,0.0,0.0
416,103.75,44.826,46.7842,175.268,100.877,100.849,-0.000421097,0.0422087,20.946,132.602,0.00255651,0.0,0.0
418,104.25,44.8239,47.0811,172.524,100.846,100.841,-0.000397379,0.0422279,20.9458,132.602,0.000411151,0.0,0.0
420,104.75,44.6972,47.0595,171.611,100.833,100.83,-0.000378167,0.0421668,20.9456,132.602,0.000286163,0.0,0.0
422,105.25,44.9042,47.0249,173.519,100.828,100.834,-0.00037035,0.0421173,20.9454,132.572,-0.000527397,0.0,0.0
424,105.75,44.3227,46.7707,172.841,100.817,100.816,-0.000364018,0.0420691,20.9452,132.612,6.79783e-05,0.0,0.0
426,106.25,44.8459,46.2909,176.383,100.778,100.786,-0.000370508,0.0420229,20.9451,132.592,-0.000721478,0.0,0.0
428,106.75,44.9681,46.8714,175.948,100.803,100.771,-0.000375764,0.0420176,20.945,132.592,0.00288754,0.0,0.0
430,107.25,44.9081,46.5823,177.326,100.785,100.76,-0.000389058,0.0420425,20.945,132.592,0.00233509,0.0,0.0
432,107.75,44.5564,46.7566,172.071,100.789,100.744,-0.000399826,0.0420465,20.9449,132.592,0.00411288,0.0,0.0
434,108.25,45.0398,46.8611,173.803,100.747,100.732,-0.000409906,0.0420352,20.9449,132.592,0.00138139,0.0,0.0
436,108.75,44.4165,46.4483,174.731,100.749,100.73,-0.000419294,0.0420018,20.9448,132.602,0.00174315,0.0,0.0
438,109.25,45.5627,46.6411,170.376,100.734,100.72,-0.000426898,0.041953,20.9448,132.602,0.00133426,0.0,0.0
440,109.75,44.6953,47.103,173.269,100.7,100.689,-0.000433058,0.0419134,20.9448,132.582,0.00105032,0.0,0.0
442,110.25,45.0574,47.1716,171.46,100.706,100.722,-0.000442123,0.0418814,20.9448,132.582,-0.00149565,0.0,0.0
444,110.75,45.1465,46.8918,168.314,100.698,100.692,-0.000453135,0.0418554,20.9447,132.572,0.000609593,0.0,0.0
446,111.25,44.4308,46.7724,172.842,100.664,100.669,-0.000462054,0.0418586,20.9447,132.582,-0.000495599,0.0,0.0
448,111.75,44.2606,47.211,173.754,100.671,100.636,-0.000469279,0.041883,20.9447,132.582,0.00319553,0.0,0.0
450,112.25,45.0784,47.1046,172.877,100.649,100.627,-0.000482876,0.0419028,20.9447,132.572,0.00205776,0.0,0.0
452,112.75,44.6856,47.0538,173.812,100.642,100.606,-0.00049389,0.0419349,20.9447,132.562,0.00325253,0.0,0.0
454,113.25,44.6248,46.8823,170.637,100.616,100.59,-0.000495066,0.0419755,20.9447,132.572,0.0024173,0.0,0.0
456,113.75,44.4501,46.7747,177.223,100.615,100.555,-0.000496018,0.0420164,20.9447,132.582,0.00544654,0.0,0.0
458,114.25,44.8327,46.6421,175.861,100.605,100.551,-0.000487755,0.0420568,20.9447,132.572,0.0049863,0.0,0.0
460,114.75,44.5771,46.9576,173.499,100.584,100.522,-0.000481061,0.0420653,20.9447,132.582,0.00568212,0.0,0.0
462,115.25,44.6517,46.8137,176.301,100.578,100.522,-0.000468166,0.0420504,20.9447,132.582,0.00512327,0.0,0.0
464,115.75,44.5366,46.7048,178.157,100.542,100.518,-0.000450994,0.0420384,20.9447,132.592,0.002163,0.0,0.0
466,116.25,44.8755,46.612,174.535,100.538,100.513,-0.000428253,0.0420439,20.9447,132.592,0.00226823,0.0,0.0
468,116.75,44.9903,46.5672,175.468,100.527,100.482,-0.000401884,0.0420484,20.9447,132.612,0.00416219,0.0,0.0
470,117.25,44.95,46.7274,170.39,100.501,100.486,-0.000373731,0.0420981,20.9447,132.602,0.0014373,0.0,0.0
472,117.75,45.0009,46.8101,174.362,100.488,100.468,-0.000344813,0.0421383,20.9447,132.602,0.00180454,0.0,0.0
474,118.25,44.7421,46.5062,173.987,100.491,100.447,-0.000321389,0.0421556,20.9447,132.612,0.00402849,0.0,0.0
476,118.75,44.6999,46.3533,178.918,100.484,100.423,-0.000292905,0.0421695,20.9447,132.612,0.00561419,0.0,0.0
478,119.25,44.822,46.5525,174.48,100.468,100.434,-0.000261272,0.0421647,20.9447,132.602,0.00307387,0.0,0.0
480,119.75,44.3798,46.8792,172.725,100.443,100.405,-0.000234969,0.0421463,20.9447,132.592,0.00344762,0.0,0.0
482,120.25,44.6518,47.0718,177.729,100.443,100.408,-0.000213053,0.0421475,20.9447,132.582,0.00324376,0.0,0.0
484,120.75,44.8608,46.3362,172.169,100.425,100.382,-0.000203454,0.042163,20.9447,132.572,0.00393424,0.0,0.0
486,121.25,44.7338,46.4765,175.1,100.398,100.406,-0.000203016,0.0421755,20.9447,132.562,-0.000741763,0.0,0.0
488,121.75,44.3748,46.9244,176.114,100.393,100.389,-0.000210814,0.042201,20.9447,132.582,0.00040238,0.0,0.0
490,122.25,44.4835,47.2089,169.509,100.382,100.377,-0.000224468,0.0422217,20.9447,132.572,0.000415537,0.0,0.0
492,122.75,44.6899,46.7592,174.771,100.369,100.346,-0.000235528,0.0422845,20.9447,132.572,0.00204132,0.0,0.0
494,123.25,44.8773,46.6335,177.541,100.379,100.355,-0.000266431,0.0423353,20.9447,132.552,0.00227809,0.0,0.0
496,123.75,45.0987,46.6921,172.052,100.374,100.336,-0.000291462,0.0423611,20.9447,132.532,0.00355612,0.0,0.0
498,124.25,44.7277,46.5934,176.124,100.332,100.338,-0.000329809,0.0423821,20.9447,132.532,-0.000603055,0.0,0.0
500,124.75,44.7288,46.5308,176.072,100.329,100.304,-0.00036087,0.0423748,20.9447,132.562,0.00236031,0.0,0.0
502,125.25,44.8358,46.97,170.793,100.323,100.302,-0.00038603,0.0423471,20.9447,132.552,0.00191964,0.0,0.0
504,125.75,44.5948,46.6611,172.754,100.282,100.288,-0.000415444,0.0423247,20.9447,132.552,-0.000534524,0.0,0.0
506,126.25,44.9479,46.9302,177.702,100.298,100.283,-0.00043927,0.0423065,20.9447,132.542,0.00139674,0.0,0.0
508,126.75,44.737,46.8776,172.072,100.275,100.27,-0.000458569,0.042316,20.9447,132.572,0.000498861,0.0,0.0
510,127.25,44.9858,46.4823,173.17,100.287,100.306,-0.000470329,0.0423455,20.9447,132.572,-0.00169359,0.0,0.0
512,127.75,44.9308,46.8069,170.133,100.266,100.267,-0.000479854,0.0423613,20.9447,132.592,-4.82429e-05,0.0,0.0
514,128.25,44.6305,47.0443,173.98,100.26,100.261,-0.000483494,0.0423669,20.9447,132.572,-1.58982e-05,0.0,0.0
516,128.75,44.4185,46.9999,175.219,100.242,100.254,-0.000482773,0.0424117,20.9447,132.582,-0.00109814,0.0,0.0
518,129.25,44.4705,47.0775,177.501,100.293,100.255,-0.000477433,0.0424844,20.9447,132.602,0.00346625,0.0,0.0
520,129.75,44.6728,46.6859,172.985,100.245,100.213,-0.000468828,0.0425513,20.9447,132.552,0.00295659,0.0,0.0
522,130.25,44.2025,46.7949,171.369,100.222,100.223,-0.00045914,0.0426128,20.9447,132.562,-0.000138151,0.0,0.0
524,130.75,44.6451,46.5976,171.347,100.226,100.214,-0.000448847,0.0426465,20.9447,132.522,0.00112158,0.0,0.0
526,131.25,44.8187,46.9181,169.592,100.214,100.229,-0.000443907,0.0426592,20.9447,132.522,-0.00138434,0.0,0.0
528,131.75,44.4098,46.4583,172.725,100.207,100.22,-0.000442963,0.0426695,20.9447,132.472,-0.0012204,0.0,0.0
530,132.25,44.8374,46.7987,166.952,100.213,100.231,-0.000442198,0.0426779,20.9447,132.452,-0.00164863,0.0,0.0
532,132.75,44.854,47.0929,174.795,100.185,100.189,-0.000471267,0.0426847,20.9447,132.442,-0.000338254,0.0,0.0
534,133.25,44.3791,46.5947,176.529,100.2,100.17,-0.000494813,0.0426901,20.9447,132.472,0.00282287,0.0,0.0
536,133.75,44.9008,46.7587,174.117,100.185,100.193,-0.000524077,0.0426486,20.9447,132.532,-0.000741215,0.0,0.0
538,134.25,44.828,46.8697,178.902,100.181,100.145,-0.000556952,0.0426149,20.9447,132.522,0.00329637,0.0,0.0
540,134.75,44.6302,47.067,178.523,100.163,100.141,-0.000583582,0.0425723,20.9447,132.562,0.00197007,0.0,0.0
542,135.25,44.2301,46.8043,174.729,100.163,100.132,-0.000609023,0.0425377,20.9447,132.522,0.00287329,0.0,0.0
544,135.75,44.3199,46.373,174.403,100.151,100.111,-0.000629631,0.0425404,20.9447,132.522,0.00367778,0.0,0.0
546,136.25,44.8083,46.4203,175.971,100.128,100.088,-0.000646323,0.0425426,20.9447,132.542,0.00367668,0.0,0.0
548,136.75,44.9063,46.9403,179.668,100.12,100.053,-0.000659844,0.0425606,20.9447,132.522,0.0062256,0.0,0.0
550,137.25,44.7141,46.7771,168.813,100.102,100.057,-0.00066176,0.0425896,20.9447,132.512,0.00418411,0.0,0.0
552,137.75,44.2997,47.0467,171.141,100.096,100.051,-0.000663312,0.0426132,20.9447,132.502,0.00409863,0.0,0.0
554,138.25,44.9538,46.5869,172.211,100.077,100.067,-0.000654243,0.0426322,20.9447,132.492,0.000886967,0.0,0.0
556,138.75,44.5981,46.7571,169.842,100.09,100.051,-0.000646896,0.0426719,20.9447,132.422,0.0036164,0.0,0.0
558,139.25,45.0659,46.7459,172.258,100.099,100.061,-0.000640946,0.0427258,20.9447,132.422,0.00345091,0.0,0.0
560,139.75,44.2573,46.5202,175.043,100.069,100.042,-0.00064258,0.0427695,20.9447,132.391,0.00256528,0.0,0.0
562,140.25,44.6892,46.514,172.327,100.087,100.03,-0.000643904,0.0427968,20.9447,132.411,0.00521532,0.0,0.0
564,140.75,44.5737,46.8253,174.631,100.047,100.037,-0.000655303,0.0428116,20.9447,132.411,0.000917664,0.0,0.0
566,141.25,44.4754,46.2125,172.479,100.069,100.073,-0.000664537,0.0428317,20.9447,132.422,-0.000401301,0.0,0.0
568,141.75,44.3274,46.2165,170.66,100.056,100.064,-0.000676771,0.0428553,20.9447,132.432,-0.000792203,0.0,0.0
570,142.25,44.5273,46.3312,173.23,100.048,100.043,-0.000690961,0.0428824,20.9447,132.422,0.000495572,0.0,0.0
572,142.75,45.0157,46.1993,176.179,100.045,100.048,-0.000707619,0.0429117,20.9447,132.442,-0.000245055,0.0,0.0
574,143.25,44.8451,45.8269,173.224,100.058,100.044,-0.000721111,0.0429112,20.9447,132.452,0.00134193,0.0,0.0
576,143.75,44.4794,45.9218,179.935,100.039,100.002,-0.000734758,0.0428889,20.9447,132.472,0.00339611,0.0,0.0
578,144.25,44.3458,46.1634,170.218,100.044,100.002,-0.000748257,0.0428709,20.9447,132.472,0.00382574,0.0,0.0
580,144.75,44.5357,46.5961,173.502,100.009,99.9941,-0.000762584,0.0428085,20.9447,132.472,0.00140442,0.0,0.0
582,145.25,44.2435,46.3879,174.498,100.032,100.004,-0.000777241,0.0427579,20.9446,132.482,0.00264749,0.0,0.0
584,145.75,44.5485,46.0471,172.865,100.017,99.9894,-0.000789114,0.0427492,20.9444,132.482,0.00250171,0.0,0.0
586,146.25,44.6338,46.5998,175.938,100.018,99.9915,-0.000803487,0.0427712,20.9443,132.472,0.00243594,0.0,0.0
588,146.75,44.4958,46.2996,172.08,100.008,99.9932,-0.000819409,0.042789,20.9442,132.462,0.00131891,0.0,0.0
590,147.25,44.5901,46.3117,179.657,100.008,100.01,-0.000836445,0.042825,20.9441,132.452,-0.000122801,0.0,0.0
592,147.75,44.6653,45.9146,168.003,100.019,100.004,-0.00084017,0.0428371,20.9441,132.442,0.00145704,0.0,0.0
594,148.25,44.3247,46.668,175.376,100.024,100.007,-0.000846541,0.042882,20.944,132.462,0.00153706,0.0,0.0
596,148.75,44.3652,46.5215,171.395,100.017,100.012,-0.000848983,0.0429401,20.944,132.452,0.000467066,0.0,0.0
598,149.25,44.4619,46.401,174.331,100.024,100.024,-0.000848516,0.0429872,20.9439,132.522,1.75428e-05,0.0,0.0
600,149.75,44.2524,46.6002,180.274,100.033,100.034,-0.000848138,0.0430092,20.9435,132.472,-2.74107e-05,0.0,0.0
602,150.25,44.0762,46.6477,171.821,99.9662,99.9532,-0.000838999,0.0430125,20.9431,132.482,0.0012027,0.0,0.0
604,150.75,44.4767,46.2395,172.856,99.9749,99.9881,-0.000823648,0.0430152,20.9434,132.482,-0.00121547,0.0,0.0
606,151.25,43.93,46.0826,173.212,100.008,99.9885,-0.000805099,0.0430174,20.9436,132.502,0.00181989,0.0,0.0
608,151.75,44.4552,46.4247,172.511,100.031,99.9989,-0.000784571,0.0430514,20.9438,132.532,0.00298509,0.0,0.0
610,152.25,44.4214,46.4531,176.443,100.008,99.9855,-0.000758908,0.043108,20.944,132.502,0.00203255,0.0,0.0
612,152.75,44.694,46.1134,171.434,100.03,100.021,-0.000738121,0.0431539,20.9441,132.522,0.0007576,0.0,0.0
614,153.25,44.4405,46.3628,173.013,100.003,99.9894,-0.000721283,0.0432064,20.9442,132.462,0.00127835,0.0,0.0
616,153.75,44.2985,46.5991,175.95,100.023,100.037,-0.000694737,0.043249,20.9443,132.472,-0.00133609,0.0,0.0
618,154.25,44.4354,46.2727,175.097,100.008,100.018,-0.000673234,0.0432763,20.9444,132.472,-0.000941331,0.0,0.0
620,154.75,44.6028,46.4611,173.736,100.022,100.054,-0.0006565,0.0432921,20.9444,132.452,-0.0030217,0.0,0.0
622,155.25,44.5529,45.977,176.256,100.018,100.054,-0.000643561,0.0433049,20.9445,132.472,-0.00331949,0.0,0.0
624,155.75,44.4127,46.2242,173.623,100.039,100.046,-0.000637837,0.0433152,20.9445,132.472,-0.000609086,0.0,0.0
626,156.25,44.5618,46.1028,178.228,100.001,100.044,-0.00063748,0.0433236,20.9447,132.502,-0.00391563,0.0,0.0
628,156.75,44.9807,46.5166,177.418,100.046,100.042,-0.00063787,0.0433765,20.9449,132.482,0.000408958,0.0,0.0
630,157.25,44.1752,46.1921,171.183,100.014,100.052,-0.000638798,0.0434192,20.945,132.482,-0.00355092,0.0,0.0
632,157.75,44.7278,46.2595,175.636,100.036,100.04,-0.00063955,0.0434999,20.9451,132.452,-0.000317969,0.0,0.0
634,158.25,44.5499,46.3173,174.507,100.042,100.053,-0.00064274,0.0435653,20.9452,132.462,-0.00101151,0.0,0.0
636,158.75,44.4965,46.3884,175.384,100.033,100.065,-0.000645325,0.0436029,20.9452,132.462,-0.00295425,0.0,0.0
638,159.25,44.3915,46.5448,175.753,100.037,100.061,-0.000648709,0.0436334,20.9453,132.452,-0.00223369,0.0,0.0
640,159.75,44.5527,46.8211,176.724,100.069,100.063,-0.00065145,0.043658,20.9453,132.472,0.000516403,0.0,0.0
642,160.25,44.4083,46.0605,177.961,100.037,100.06,-0.000653671,0.0436627,20.9454,132.492,-0.00207522,0.0,0.0
644,160.75,44.1059,46.5648,176.76,100.071,100.076,-0.000649014,0.0436664,20.9454,132.492,-0.000473121,0.0,0.0
646,161.25,44.7309,46.6529,174.758,100.053,100.079,-0.000645243,0.0437002,20.9454,132.482,-0.0023971,0.0,0.0
648,161.75,44.0511,46.7516,180.455,100.037,100.061,-0.00062928,0.0437275,20.9455,132.432,-0.00220079,0.0,0.0
650,162.25,44.3116,46.4696,172.717,100.056,100.077,-0.00061635,0.043765,20.9455,132.432,-0.00190798,0.0,0.0