File: 01_Data/PEVA/Cone/PEVA_Cone_HF25Scan_240820_R2.csv
Names,Time,Stack TC,Smoke TC,Exh Press,Smoke Comp,Smoke Meas,CO Meter,CO2 Meter,O2 Meter,Sample Mass,Ext Coeff,Start Test,Flame Verif
Chan Gain,,500,500,1,1,1,1,1,1,1,1,1.0,1.0
Offset,,0,0,0.143687,0,0,0,0,0,0,0,0.0,0.0
Gain,,1,1,25.011,11.7833,14.1275,1,1,1,1.00092,1.04852,1.0,1.0
Units,sec,C,C,Pa,%,%,%,%,%,g,/m,,
Baseline,,44.4931,46.5317,174.919,100.318,100.312,-0.000459727,0.0426278,20.9418,-446.876,0.000547959,,
2,0.25,42.9729,45.452,177.409,99.8213,99.7346,-0.000259785,0.0563006,20.933,121.602,0.00799606,0.0,0.0
4,0.75,44.2292,45.926,178.536,99.8321,99.7531,-0.000253814,0.056751,20.9325,121.501,0.00728069,0.0,0.0
6,1.25,43.727,45.517,176.609,99.8217,99.7587,-0.000263245,0.0571159,20.9318,121.391,0.00580266,0.0,0.0
8,1.75,43.2778,45.9656,180.357,99.835,99.7479,-0.000283726,0.0574439,20.9313,121.411,0.00802235,0.0,0.0
10,2.25,43.736,45.6322,176.168,99.8533,99.7566,-0.000309147,0.0577388,20.9308,121.471,0.00891731,0.0,0.0
12,2.75,43.505,45.8745,175.829,99.8393,99.7609,-0.000337687,0.0579127,20.9305,121.441,0.0072281,0.0,0.0
14,3.25,43.4714,45.9125,171.749,99.8465,99.7751,-0.000363522,0.0579951,20.9298,121.411,0.0065784,0.0,0.0
16,3.75,43.9141,45.5044,174.716,99.8296,99.76,-0.000386895,0.0580376,20.9292,121.411,0.00641296,0.0,0.0
18,4.25,43.5002,45.0773,171.911,99.8465,99.7548,-0.000405827,0.05805,20.9287,121.441,0.00844629,0.0,0.0
20,4.75,43.5897,45.6047,178.313,99.8411,99.7669,-0.0004147,0.0580601,20.9283,121.471,0.00683588,0.0,0.0
22,5.25,43.4291,45.6087,176.125,99.8217,99.7311,-0.000421887,0.0578505,20.9279,121.451,0.0083477,0.0,0.0
24,5.75,43.2373,46.2945,176.58,99.8472,99.7203,-0.000413441,0.0576807,20.9275,121.431,0.0116936,0.0,0.0
26,6.25,43.7295,45.6531,175.323,99.8404,99.7169,-0.000393759,0.0573891,20.9272,121.421,0.0113826,0.0,0.0
28,6.75,43.2213,45.5518,177.743,99.8465,99.6936,-0.000366946,0.0570142,20.9265,121.431,0.0140925,0.0,0.0
30,7.25,43.5846,46.0878,177.41,99.863,99.6432,-0.000335445,0.0566537,20.9259,121.451,0.0202725,0.0,0.0
32,7.75,43.3432,45.6614,174.185,99.8745,99.5725,-0.000305173,0.0563107,20.9259,121.441,0.0278597,0.0,0.0
34,8.25,43.8733,45.6051,177.131,99.8468,99.5699,-0.000290015,0.0561645,20.9259,121.421,0.0255485,0.0,0.0
36,8.75,43.8097,45.9932,176.006,99.8767,99.5298,-0.000264095,0.055745,20.9258,121.421,0.0320027,0.0,0.0
38,9.25,43.757,45.939,171.44,99.8508,99.4953,-0.000245681,0.0554052,20.9258,121.421,0.0328057,0.0,0.0
40,9.75,43.5507,45.7392,178.856,99.8803,99.3418,-0.000230765,0.0548683,20.9261,121.431,0.0497199,0.0,0.0
42,10.25,44.0741,45.874,168.68,99.8713,99.256,-0.000223848,0.0544334,20.9265,121.431,0.0568404,0.0,0.0
44,10.75,43.7832,45.4604,171.019,99.8735,99.2271,-0.000218244,0.0538503,20.9268,121.431,0.0597156,0.0,0.0
46,11.25,43.505,45.8623,176.045,99.8587,98.8576,-0.000213705,0.053378,20.927,121.401,0.0926698,0.0,0.0
48,11.75,43.5039,45.8111,174.491,99.8706,98.3545,-0.000210029,0.0528821,20.9272,121.421,0.140692,0.0,0.0
50,12.25,43.8966,45.8154,171.608,99.8609,98.84,-0.000207051,0.0523784,20.9279,121.441,0.0945127,0.0,0.0
52,12.75,43.608,46.1203,172.807,99.8868,97.7302,-0.000203348,0.0519705,20.9283,121.381,0.200748,0.0,1.0
54,13.25,43.9214,45.9755,166.678,99.8364,88.1176,-0.000200349,0.0514555,20.929,121.351,1.14841,0.0,1.0
56,13.75,43.6234,46.5931,155.263,99.8616,71.2286,-0.000196628,0.0510384,20.9297,121.191,3.10775,0.0,1.0
58,14.25,43.7642,46.6622,148.636,99.8702,58.3488,-0.000193615,0.050659,20.9303,120.971,4.94303,0.0,1.0
60,14.75,44.3859,47.1929,146.704,99.8774,58.3652,-0.000192529,0.0503145,20.9308,120.741,4.94111,0.0,1.0
62,15.25,44.7262,47.6083,152.543,99.8832,47.9653,-0.000192869,0.0500354,20.9312,120.551,6.74658,0.0,1.0
64,15.75,46.1116,49.0753,151.35,99.8832,48.7396,-0.000193144,0.0496249,20.9316,120.37,6.59928,0.0,1.0
66,16.25,47.3316,51.0312,151.631,99.9058,51.7214,-0.000194726,0.0492924,20.9321,120.26,6.05523,0.0,1.0
68,16.75,47.758,52.5573,145.59,99.8839,53.9034,-0.00019723,0.0488695,20.9325,120.08,5.67316,0.0,1.0
70,17.25,49.1737,53.5682,155.972,99.8724,51.0428,-0.00020055,0.0485269,20.9329,120.02,6.17363,0.0,1.0
72,17.75,49.8142,54.4567,153.042,99.8756,50.6444,-0.000203239,0.0482033,20.9334,119.92,6.24599,0.0,1.0
74,18.25,50.1476,55.3176,151.437,99.8889,50.3405,-0.000213569,0.0479412,20.934,119.8,6.30258,0.0,1.0
76,18.75,50.4566,55.9277,152.098,99.8753,51.8055,-0.000229273,0.0478097,20.9345,119.69,6.03748,0.0,1.0
78,19.25,51.2676,56.9873,156.028,99.8713,55.2606,-0.000241994,0.047776,20.9349,119.56,5.44329,0.0,1.0
80,19.75,52.0773,58.1172,151.447,99.8792,51.7839,-0.000252298,0.0477487,20.9352,119.48,6.04167,0.0,1.0
82,20.25,52.2989,58.6098,162.885,99.8785,52.6686,-0.000258606,0.0477266,20.9355,119.34,5.8858,0.0,1.0
84,20.75,52.606,59.1282,153.036,99.8832,43.1262,-0.000261881,0.0542637,20.9355,119.299,7.7247,0.0,0.0
86,21.25,53.2169,59.7114,164.579,99.8745,43.4996,-0.000109232,0.0595587,20.9353,119.169,7.64462,0.0,0.0
88,21.75,53.4734,60.1672,158.877,99.8785,43.6906,0.000154185,0.0724061,20.9351,119.089,7.60469,0.0,0.0
90,22.25,53.4134,60.7465,163.922,99.89,47.1453,0.000844772,0.0905151,20.9349,119.029,6.90581,0.0,0.0
92,22.75,53.8795,60.58,166.489,99.8803,47.46,0.00183364,0.117484,20.9348,118.969,6.84372,0.0,0.0
94,23.25,54.2898,61.3172,162.641,99.8792,46.7607,0.00347771,0.150399,20.9312,118.889,6.98015,0.0,0.0
96,23.75,54.2283,61.2305,164.044,99.8774,47.3647,0.00556816,0.187879,20.9095,118.869,6.86194,0.0,0.0
98,24.25,54.3675,61.4949,161.461,99.9105,47.4648,0.00835279,0.227974,20.8751,118.799,6.84558,0.0,0.0
100,24.75,54.4662,61.6471,160.529,99.8878,52.8527,0.0115906,0.260451,20.8472,118.769,5.85457,0.0,0.0
102,25.25,54.6446,61.7926,161.458,99.8648,59.7224,0.0142131,0.298968,20.7994,118.729,4.72852,0.0,0.0
104,25.75,54.9583,62.2688,161.71,99.876,58.2855,0.0187513,0.330166,20.7378,118.739,4.95356,0.0,0.0
106,26.25,55.1158,62.3267,165.682,99.8659,61.519,0.0224273,0.355018,20.688,118.699,4.45603,0.0,0.0
108,26.75,55.1271,62.197,167.93,99.8749,66.8116,0.0254048,0.374771,20.618,118.629,3.69777,0.0,0.0
110,27.25,55.0347,62.1487,163.907,99.8601,72.8415,0.028636,0.39077,20.5613,118.629,2.90167,0.0,0.0
112,27.75,54.9605,62.2787,165.16,99.8771,73.4783,0.0319906,0.400448,20.5154,118.609,2.82317,0.0,0.0
114,28.25,55.2774,62.2145,172.693,99.8659,76.77,0.0347685,0.405334,20.4782,118.579,2.41907,0.0,0.0
116,28.75,54.9529,62.1976,166.143,99.8569,79.0689,0.0370731,0.405579,20.4481,118.589,2.14687,0.0,0.0
118,29.25,54.6545,61.9672,172.94,99.8486,84.9431,0.038718,0.402437,20.4237,118.579,1.48699,0.0,0.0
120,29.75,55.1911,61.8278,169.984,99.8519,85.1544,0.0398507,0.396257,20.4039,118.549,1.46445,0.0,0.0
122,30.25,54.9973,61.4763,169.372,99.8393,87.6778,0.0403862,0.387979,20.3892,118.549,1.19469,0.0,0.0
124,30.75,54.6698,61.6947,167.558,99.8098,89.1238,0.0404762,0.378563,20.3773,118.549,1.04152,0.0,0.0
126,31.25,54.764,62.0507,167.388,99.758,89.1364,0.0401496,0.368495,20.3797,118.509,1.03546,0.0,0.0
128,31.75,54.486,61.3205,171.179,99.7469,89.3739,0.0395255,0.358108,20.3816,118.509,1.00995,0.0,0.0
130,32.25,54.7751,61.242,168.017,99.7217,90.3552,0.03902,0.347685,20.3881,118.499,0.907196,0.0,0.0
132,32.75,54.0823,61.0573,166.584,99.7163,90.9217,0.037798,0.339242,20.3978,118.489,0.849211,0.0,0.0
134,33.25,54.3381,60.5318,170.1,99.6872,91.6223,0.0368081,0.3281,20.4091,118.469,0.775924,0.0,0.0
136,33.75,53.9671,60.8393,173.311,99.7282,93.546,0.0360063,0.319075,20.4215,118.469,0.588592,0.0,0.0
138,34.25,53.7492,60.8163,176.604,99.7066,93.6849,0.0343564,0.309449,20.4315,118.469,0.572962,0.0,0.0
140,34.75,53.6342,60.5342,172.059,99.6843,94.288,0.0330199,0.299569,20.4445,118.459,0.51188,0.0,0.0
142,35.25,53.3876,59.878,169.115,99.7185,95.0283,0.0312033,0.291567,20.455,118.459,0.443102,0.0,0.0
144,35.75,53.1987,60.0325,169.557,99.7199,95.2249,0.0297318,0.280596,20.4677,118.449,0.424227,0.0,0.0
146,36.25,53.1209,59.3758,172.12,99.6998,95.3314,0.0281397,0.27171,20.4818,118.469,0.41209,0.0,0.0
148,36.75,52.9998,58.9054,170.463,99.7167,96.1333,0.0264899,0.262261,20.4933,118.459,0.336603,0.0,0.0
150,37.25,52.5735,58.8948,172.885,99.7016,96.5097,0.0248099,0.252581,20.5101,118.459,0.299271,0.0,0.0
152,37.75,52.3744,58.4292,175.893,99.7109,97.1469,0.0231398,0.242543,20.5237,118.459,0.239605,0.0,0.0
154,38.25,52.5169,58.1082,173.984,99.7408,97.7819,0.0215148,0.232436,20.5436,118.449,0.182428,0.0,0.0
156,38.75,52.253,58.3054,172.288,99.74,98.567,0.0199537,0.222062,20.5598,118.459,0.108809,0.0,0.0
158,39.25,52.2573,58.0799,170.019,99.7163,98.6998,0.0184854,0.21169,20.5813,118.479,0.0942371,0.0,0.0
160,39.75,52.1684,57.5088,168.677,99.7311,99.0594,0.0171128,0.203289,20.5987,118.509,0.062151,0.0,0.0
162,40.25,51.8523,57.3885,180.471,99.7192,99.2698,0.016001,0.1926,20.6168,118.519,0.0415418,0.0,0.0
164,40.75,51.7488,57.5698,172.494,99.7483,99.2939,0.0148333,0.183942,20.6351,118.509,0.0419915,0.0,0.0
166,41.25,50.9358,56.722,176.149,99.7375,99.3453,0.013647,0.175006,20.6499,118.489,0.0362455,0.0,0.0
168,41.75,51.4828,56.628,174.959,99.73,99.4099,0.0125394,0.166037,20.6689,118.469,0.0295637,0.0,0.0
170,42.25,50.2618,56.0389,175.432,99.7397,99.5423,0.0115102,0.157523,20.6844,118.479,0.0182221,0.0,0.0
172,42.75,50.2264,55.6172,170.67,99.7404,99.6069,0.0106766,0.149501,20.6969,118.459,0.0123145,0.0,0.0
174,43.25,49.7693,54.9708,176.993,99.7487,99.6031,0.00981508,0.143003,20.7128,118.469,0.0134346,0.0,0.0
176,43.75,49.9971,55.0784,172.711,99.7426,99.6005,0.00894969,0.135977,20.7257,118.459,0.0131105,0.0,0.0
178,44.25,48.7851,54.6985,171.397,99.7239,99.5871,0.00824872,0.128699,20.7414,118.469,0.01262,0.0,0.0
180,44.75,49.4972,54.177,176.171,99.7055,99.6164,0.00748543,0.121801,20.7541,118.469,0.00822063,0.0,0.0
182,45.25,49.5291,53.9585,172.657,99.7239,99.6578,0.0065219,0.115309,20.7684,118.479,0.00609193,0.0,0.0
184,45.75,49.1593,53.8629,172.791,99.7246,99.6492,0.00621117,0.110052,20.78,118.479,0.0069542,0.0,0.0
186,46.25,49.0347,53.8628,175.745,99.739,99.6458,0.00567982,0.104034,20.7917,118.469,0.00859964,0.0,0.0
188,46.75,48.6262,53.5147,176.512,99.7192,99.6358,0.005166,0.0991591,20.8033,118.459,0.00769042,0.0,0.0
190,47.25,48.8475,53.4078,176.553,99.74,99.6626,0.00467473,0.0942638,20.8127,118.469,0.00714703,0.0,0.0
192,47.75,48.6164,53.072,174.559,99.7055,99.6608,0.00427679,0.0894463,20.8248,118.439,0.00412274,0.0,0.0
194,48.25,48.5954,53.1177,173.181,99.7127,99.6466,0.0038707,0.0855441,20.8346,118.459,0.0060996,0.0,0.0
196,48.75,48.5795,52.8965,171.128,99.7041,99.6289,0.00346636,0.0809147,20.8439,118.459,0.00693448,0.0,0.0
198,49.25,48.2678,52.6147,173.392,99.7325,99.6647,0.00305561,0.0771648,20.8527,118.459,0.0062519,0.0,0.0
200,49.75,47.9753,52.9048,170.349,99.7102,99.679,0.0027229,0.0732791,20.8608,118.489,0.00288206,0.0,0.0
202,50.25,48.1618,52.3974,173.345,99.721,99.7255,0.00238072,0.0701316,20.8681,118.469,-0.000417748,0.0,0.0
204,50.75,47.848,51.9909,172.828,99.6922,99.6833,0.00210356,0.0668736,20.8755,118.469,0.000825573,0.0,0.0
206,51.25,48.1728,52.2769,174.112,99.7016,99.6927,0.00181427,0.0642347,20.8828,118.439,0.000813513,0.0,0.0
208,51.75,47.4898,51.7823,174.886,99.698,99.644,0.00157995,0.0616355,20.8896,118.479,0.00497753,0.0,0.0
210,52.25,47.7322,51.735,178.237,99.6886,99.66,0.00134615,0.0595302,20.8959,118.479,0.00264311,0.0,0.0
212,52.75,47.3681,51.3134,173.049,99.7228,99.6828,0.00115678,0.0575174,20.9015,118.459,0.00368545,0.0,0.0
214,53.25,47.497,51.5327,171.503,99.6951,99.6095,0.00096591,0.055887,20.9065,118.459,0.00789637,0.0,0.0
216,53.75,47.3561,50.9401,174.809,99.6865,99.6298,0.000811304,0.0544046,20.9105,118.489,0.00522957,0.0,0.0
218,54.25,47.4,51.2106,170.917,99.6832,99.6264,0.000686072,0.0530583,20.9147,118.499,0.00524929,0.0,0.0
220,54.75,47.1409,51.5845,182.066,99.6811,99.6393,0.000545899,0.0519678,20.918,118.469,0.00385533,0.0,0.0
222,55.25,47.2863,50.7586,172.216,99.6861,99.6608,0.000432359,0.0508388,20.9212,118.499,0.00233071,0.0,0.0
224,55.75,47.2218,50.3917,168.417,99.676,99.644,0.000321028,0.0499242,20.9242,118.459,0.0029533,0.0,0.0
226,56.25,47.0109,50.6793,172.571,99.6613,99.6173,0.00023085,0.0491269,20.9267,118.449,0.00406027,0.0,0.0
228,56.75,47.4122,50.7481,176.368,99.6606,99.5979,0.000151012,0.0484301,20.9286,118.469,0.00578512,0.0,0.0
230,57.25,47.4064,50.3534,174.675,99.6696,99.6147,8.02289e-05,0.0478657,20.9302,118.479,0.00506301,0.0,0.0
232,57.75,47.087,50.413,174.955,99.6318,99.5953,2.28946e-05,0.0473011,20.9315,118.459,0.0033698,0.0,0.0
234,58.25,46.7885,49.9416,175.231,99.6534,99.5979,-3.64543e-05,0.0468438,20.9326,118.479,0.00512218,0.0,0.0
236,58.75,47.0113,50.5344,174.274,99.6365,99.5582,-8.45269e-05,0.0463966,20.9337,118.489,0.00722591,0.0,0.0
238,59.25,47.1926,50.1491,173.291,99.6358,99.6048,-0.00013026,0.0460344,20.9347,118.459,0.00285794,0.0,0.0
240,59.75,46.9558,49.8237,173.317,99.6473,99.5854,-0.000173418,0.0457103,20.9356,118.489,0.00571281,0.0,0.0
242,60.25,46.7794,50.2442,172.134,99.6426,99.597,-0.000208377,0.0454477,20.9363,118.509,0.00420603,0.0,0.0
244,60.75,46.4878,49.9412,177.077,99.6196,99.572,-0.000236693,0.0451705,20.9369,118.469,0.00439124,0.0,0.0
246,61.25,46.3364,49.5633,172.882,99.6329,99.5746,-0.000259629,0.0448878,20.9374,118.479,0.00538079,0.0,0.0
248,61.75,46.4915,49.5575,174.182,99.6228,99.563,-0.000261426,0.0446588,20.9378,118.489,0.00552653,0.0,0.0
250,62.25,47.0728,49.2333,174.01,99.6257,99.5824,-0.000262882,0.0444652,20.9381,118.459,0.00399999,0.0,0.0
252,62.75,46.4695,49.4279,172.697,99.621,99.5612,-0.000261344,0.0443011,20.9383,118.449,0.00551995,0.0,0.0
254,63.25,46.6155,49.295,174.923,99.6113,99.5608,-0.000257652,0.0441682,20.9385,118.439,0.00466302,0.0,0.0
256,63.75,46.4069,49.1383,174.894,99.6063,99.5475,-0.000253983,0.0440606,20.9387,118.459,0.00543229,0.0,0.0
258,64.25,46.1794,49.6262,178.163,99.6192,99.5539,-0.000250399,0.0439411,20.9388,118.459,0.00603057,0.0,0.0
260,64.75,46.5661,49.3986,177.415,99.5973,99.5496,-0.000252251,0.0438152,20.9389,118.449,0.0044033,0.0,0.0
262,65.25,46.1404,49.4662,174.823,99.6142,99.5591,-0.000258032,0.0437133,20.939,118.449,0.00508711,0.0,0.0
264,65.75,46.1703,49.2188,179.042,99.5685,99.5625,-0.000262715,0.0436307,20.9391,118.459,0.000551487,0.0,0.0
266,66.25,46.2175,48.9554,176.016,99.6038,99.5531,-0.000266508,0.0435331,20.9391,118.459,0.00468165,0.0,0.0
268,66.75,46.1191,49.0983,175.409,99.5379,99.5272,-0.000282488,0.0434541,20.9395,118.449,0.000994406,0.0,0.0
270,67.25,45.9893,48.9642,172.139,99.5692,99.5358,-0.000295432,0.0433497,20.94,118.459,0.00308812,0.0,0.0
272,67.75,46.0768,48.856,177.908,99.5822,99.5362,-0.000307955,0.0432288,20.9405,118.449,0.00424329,0.0,0.0
274,68.25,45.8838,48.6028,170.74,99.5721,99.5328,-0.000319934,0.0431309,20.9408,118.459,0.00363175,0.0,0.0
276,68.75,45.9273,48.6872,178.23,99.5628,99.5147,-0.000329636,0.0430678,20.9411,118.449,0.00444165,0.0,0.0
278,69.25,45.7336,48.944,171.069,99.5779,99.5095,-0.000338174,0.0430311,20.9414,118.459,0.00631545,0.0,0.0
280,69.75,46.0518,48.9476,171.541,99.5764,99.5134,-0.000345701,0.0430015,20.9416,118.459,0.00582348,0.0,0.0
282,70.25,46.0646,48.3831,171.89,99.5534,99.5173,-0.000355195,0.0429314,20.9417,118.449,0.00333911,0.0,0.0
284,70.75,45.554,48.4298,172.527,99.5502,99.5065,-0.000365943,0.0428747,20.9423,118.469,0.00403616,0.0,0.0
286,71.25,45.8286,48.3174,168.553,99.5505,99.4931,-0.000381442,0.042798,20.9428,118.479,0.00530518,0.0,0.0
288,71.75,46.0151,48.1821,175.232,99.5602,99.5056,-0.000400111,0.0427359,20.9427,118.459,0.00504547,0.0,0.0
290,72.25,45.5933,48.6147,172.533,99.5423,99.4961,-0.000425552,0.0426857,20.9426,118.439,0.00426192,0.0,0.0
292,72.75,45.688,48.4606,177.259,99.5477,99.5112,-0.000433004,0.0426449,20.943,118.439,0.00336542,0.0,0.0
294,73.25,45.6641,48.4413,173.609,99.5689,99.4854,-0.000442352,0.0426119,20.9433,118.429,0.00771561,0.0,0.0
296,73.75,45.5897,48.1973,172.021,99.5548,99.4927,-0.000446866,0.0425852,20.9436,118.449,0.00574349,0.0,0.0
298,74.25,45.4059,48.2019,174.572,99.5477,99.4966,-0.000444408,0.0425482,20.9438,118.429,0.00472001,0.0,0.0
300,74.75,45.3433,47.871,173.176,99.5246,99.4918,-0.000436914,0.0425183,20.944,118.439,0.00303222,0.0,0.0
302,75.25,45.429,47.8838,170.689,99.5113,99.4698,-0.000430845,0.042494,20.9441,118.439,0.0038356,0.0,0.0
304,75.75,45.6613,47.8926,175.268,99.5329,99.4755,-0.000413019,0.0424743,20.9442,118.469,0.00531066,0.0,0.0
306,76.25,45.2783,47.744,173.73,99.5203,99.475,-0.000386963,0.0424584,20.9439,118.459,0.0041874,0.0,0.0
308,76.75,45.8126,48.0012,174.012,99.5441,99.4724,-0.000365858,0.0424455,20.9436,118.449,0.00662004,0.0,0.0
310,77.25,45.6235,47.7488,174.842,99.5056,99.4686,-0.000334564,0.0424351,20.9434,118.459,0.00342351,0.0,0.0
312,77.75,45.0247,46.8535,172.506,99.5379,99.4686,-0.000309215,0.0424419,20.9432,118.449,0.00641406,0.0,0.0
314,78.25,45.6432,47.5044,174.722,99.5228,99.472,-0.000289973,0.0424475,20.943,118.469,0.00469918,0.0,0.0
316,78.75,45.1452,47.64,179.694,99.5437,99.4733,-0.000274387,0.0424601,20.9429,118.469,0.00650719,0.0,0.0
318,79.25,45.3229,47.925,172.222,99.5081,99.4561,-0.000275962,0.0424776,20.9428,118.479,0.00481206,0.0,0.0
320,79.75,45.2838,47.7267,175.339,99.5009,99.4686,-0.000277238,0.0424594,20.9427,118.479,0.00299057,0.0,0.0
322,80.25,45.196,47.5784,173.029,99.507,99.4453,-0.000286424,0.0424156,20.9427,118.439,0.00570952,0.0,0.0
324,80.75,45.5409,47.9393,175.229,99.5387,99.4556,-0.000301202,0.0423963,20.9426,118.459,0.00767727,0.0,0.0
326,81.25,44.8826,47.5296,168.077,99.4923,99.4513,-0.000320918,0.0423952,20.9426,118.449,0.00378847,0.0,0.0
328,81.75,45.1238,47.6185,172.467,99.5185,99.4638,-0.000336887,0.0423943,20.9425,118.439,0.00505862,0.0,0.0
330,82.25,44.9168,47.0995,174.294,99.4948,99.4552,-0.000349823,0.0424396,20.9425,118.439,0.00366134,0.0,0.0
332,82.75,45.2727,47.6428,175.888,99.5174,99.4772,-0.000364172,0.0424763,20.9427,118.409,0.00372271,0.0,0.0
334,83.25,45.5637,47.7634,175.598,99.5052,99.4582,-0.000375795,0.04246,20.9431,118.409,0.0043474,0.0,0.0
336,83.75,44.8957,47.476,170.45,99.5358,99.4617,-0.000377465,0.0424468,20.9432,118.419,0.00685341,0.0,0.0
338,84.25,45.2406,47.2634,179.974,99.5092,99.4479,-0.000378818,0.0424281,20.943,118.449,0.00566898,0.0,0.0
340,84.75,44.9723,47.6677,175.673,99.5221,99.472,-0.000370877,0.0424056,20.9429,118.429,0.00463234,0.0,0.0
342,85.25,45.3479,47.3872,173.414,99.5121,99.4655,-0.000364446,0.0424027,20.9428,118.459,0.00430028,0.0,0.0
344,85.75,45.0252,47.4626,175.969,99.5196,99.4673,-0.000341165,0.0424004,20.9427,118.459,0.00483945,0.0,0.0
346,86.25,45.1474,47.583,176.419,99.5099,99.4776,-0.000322307,0.0423985,20.9427,118.459,0.00298509,0.0,0.0
348,86.75,45.1221,46.9387,173.894,99.5031,99.4595,-0.000285088,0.042397,20.9426,118.459,0.00402739,0.0,0.0
350,87.25,44.7418,47.5454,173.431,99.5092,99.4548,-0.00025494,0.04242,20.9426,118.459,0.00503123,0.0,0.0
352,87.75,45.2619,47.9658,177.434,99.5264,99.4578,-0.000222367,0.0424604,20.9425,118.449,0.00634722,0.0,0.0
354,88.25,45.4762,47.089,176.446,99.5085,99.4617,-0.000188646,0.0424932,20.9425,118.439,0.00432768,0.0,0.0
356,88.75,44.6553,47.1435,171.423,99.5308,99.4888,-0.000161332,0.0425197,20.9425,118.449,0.00387615,0.0,0.0
358,89.25,44.8832,47.1069,176.573,99.5135,99.4711,-0.000139208,0.042525,20.9425,118.449,0.00391561,0.0,0.0
360,89.75,45.1805,47.1775,171.299,99.5466,99.5237,-0.000121287,0.0425148,20.9425,118.439,0.00211038,0.0,0.0
362,90.25,44.9441,47.506,171.212,99.5153,99.4733,-0.000116962,0.0425065,20.9426,118.429,0.00388273,0.0,0.0
364,90.75,44.8065,46.7238,173.599,99.521,99.4746,-0.000122631,0.0424385,20.9427,118.439,0.0042948,0.0,0.0
366,91.25,44.9563,47.2998,174.704,99.5225,99.4716,-0.000132658,0.0423834,20.9428,118.419,0.00470576,0.0,0.0
368,91.75,45.2373,47.2479,173.032,99.5347,99.4871,-0.000145672,0.0423387,20.9428,118.419,0.0044011,0.0,0.0
370,92.25,44.8762,47.2745,171.728,99.5459,99.4819,-0.000154854,0.0423025,20.9429,118.399,0.00591004,0.0,0.0
372,92.75,45.0213,46.9215,175.982,99.5556,99.5005,-0.000161068,0.0422733,20.9429,118.419,0.00509369,0.0,0.0
374,93.25,44.7615,47.0795,177.353,99.5415,99.4987,-0.000151903,0.0422495,20.9429,118.419,0.00395616,0.0,0.0
376,93.75,45.4014,47.1903,171.55,99.5581,99.4953,-0.000144479,0.0421996,20.9429,118.419,0.00580375,0.0,0.0
378,94.25,44.4846,47.2311,168.741,99.5326,99.4944,-0.00013072,0.0421592,20.943,118.429,0.00352434,0.0,0.0
380,94.75,44.6005,46.8764,174.716,99.5592,99.5121,-0.000119576,0.0421725,20.943,118.419,0.0043496,0.0,0.0
382,95.25,44.902,47.0179,176.304,99.5243,99.513,-0.00012862,0.0421833,20.943,118.419,0.00104593,0.0,0.0
384,95.75,45.1057,46.8145,173.68,99.5746,99.5143,-0.000135946,0.0421597,20.943,118.399,0.00557803,0.0,0.0
386,96.25,44.7654,46.8679,172.079,99.5628,99.5242,-0.00014188,0.0421115,20.943,118.409,0.00356599,0.0,0.0
388,96.75,44.567,46.7654,172.907,99.566,99.519,-0.000198321,0.0420725,20.943,118.399,0.00434192,0.0,0.0
390,97.25,44.7308,46.5723,169.843,99.5487,99.5263,-0.000244038,0.0421329,20.943,118.399,0.00207092,0.0,0.0
392,97.75,44.5054,46.4869,172.604,99.5739,99.5324,-0.000296695,0.0421819,20.943,118.399,0.00383779,0.0,0.0
394,98.25,45.0248,46.6472,177.191,99.5379,99.5332,-0.00035341,0.0421973,20.943,118.389,0.000436368,0.0,0.0
396,98.75,44.4896,46.5591,173.51,99.5789,99.5483,-0.000400708,0.042188,20.943,118.419,0.00282944,0.0,0.0
398,99.25,44.909,46.7274,175.065,99.5692,99.5587,-0.000440242,0.0421805,20.943,118.419,0.000976865,0.0,0.0
400,99.75,45.0461,46.5881,173.967,99.5879,99.5306,-0.000472265,0.0421897,20.943,118.429,0.00529313,0.0,0.0
402,100.25,44.6516,47.2415,180.24,99.5689,99.5488,-0.000480132,0.0421972,20.943,118.429,0.00185826,0.0,0.0
404,100.75,44.4257,46.4756,172.75,99.5793,99.5548,-0.000486504,0.0422339,20.943,118.439,0.00226494,0.0,0.0
406,101.25,44.7701,46.5948,171.721,99.6056,99.522,-0.000482833,0.0422637,20.943,118.429,0.00771671,0.0,0.0
408,101.75,44.7326,46.5179,172.668,99.6009,99.5444,-0.000471911,0.0422571,20.943,118.419,0.00521313,0.0,0.0
410,102.25,44.2765,47.0932,173.837,99.5843,99.5406,-0.000460346,0.0422518,20.943,118.429,0.00404383,0.0,0.0
412,102.75,45.274,46.5075,171.955,99.598,99.5608,-0.000448533,0.0422152,20.943,118.429,0.00343337,0.0,0.0
414,103.25,44.8973,46.9905,176.857,99.6156,99.5677,-0.000438965,0.0421565,20.943,118.429,0.00442412,0.0,0.0
416,103.75,44.5309,46.8448,174.785,99.5851,99.5798,-0.00045574,0.0421089,20.943,118.409,0.000485705,0.0,0.0
418,104.25,44.7542,46.541,178.424,99.6214,99.6108,-0.000469329,0.0420704,20.943,118.399,0.000973576,0.0,0.0
420,104.75,44.3378,46.7887,178.984,99.6045,99.6233,-0.000492564,0.0420392,20.943,118.419,-0.00174129,0.0,0.0
422,105.25,44.5913,46.9355,174.023,99.6095,99.6358,-0.000522391,0.0420059,20.943,118.449,-0.00243055,0.0,0.0
424,105.75,44.9565,46.62,177.446,99.6329,99.5923,-0.000551986,0.0419716,20.943,118.449,0.00374792,0.0,0.0
426,106.25,44.0912,46.7248,171.089,99.6304,99.5841,-0.00058085,0.0419277,20.943,118.429,0.00427179,0.0,0.0
428,106.75,45.0016,46.5558,172.612,99.6444,99.5832,-0.000604229,0.0418776,20.943,118.429,0.00564596,0.0,0.0
430,107.25,44.6,47.0625,177.971,99.6232,99.6104,-0.000623167,0.041829,20.943,118.429,0.00117968,0.0,0.0
432,107.75,44.9504,47.0723,174.415,99.6131,99.6126,-0.00063375,0.0417823,20.943,118.399,5.04355e-05,0.0,0.0
434,108.25,44.6973,46.6405,174.779,99.6444,99.61,-0.000638043,0.0417445,20.943,118.409,0.0031769,0.0,0.0
436,108.75,44.6712,46.7071,179.608,99.6552,99.6177,-0.000627252,0.0416986,20.943,118.409,0.00345639,0.0,0.0
438,109.25,45.0278,45.9425,172.24,99.6667,99.6208,-0.000605671,0.0416613,20.943,118.419,0.00424,0.0,0.0
440,109.75,44.7433,46.4921,173.122,99.6465,99.5983,-0.000588191,0.0416554,20.943,118.409,0.00445151,0.0,0.0
442,110.25,44.9085,46.563,175.379,99.662,99.6156,-0.000574032,0.0416724,20.943,118.399,0.00428603,0.0,0.0
444,110.75,44.5695,46.6435,169.48,99.6534,99.6289,-0.000523837,0.0416862,20.943,118.389,0.00225617,0.0,0.0
446,111.25,44.5234,46.0782,176.266,99.6904,99.6341,-0.00048318,0.0416973,20.943,118.389,0.00519669,0.0,0.0
448,111.75,44.6041,46.6431,174.865,99.6728,99.6315,-0.000450248,0.0417305,20.9435,118.399,0.0038093,0.0,0.0
450,112.25,44.521,46.5526,166.33,99.6821,99.6621,-0.000397755,0.0417793,20.9439,118.379,0.0018462,0.0,0.0
452,112.75,45.1787,46.3926,175.327,99.6875,99.647,-0.000355237,0.0418026,20.9443,118.359,0.00373696,0.0,0.0
454,113.25,44.0545,46.43,168.28,99.7041,99.6742,-0.000323514,0.0418069,20.9446,118.369,0.00275601,0.0,0.0
456,113.75,44.2332,46.5993,172.638,99.6933,99.6535,-0.000300265,0.0418347,20.9449,118.359,0.0036712,0.0,0.0
458,114.25,44.3119,46.6429,174.407,99.7091,99.6798,-0.000299505,0.0418789,20.9451,118.359,0.0027023,0.0,0.0
460,114.75,44.5335,46.6758,178.028,99.6937,99.7005,-0.000298889,0.0419148,20.9453,118.359,-0.000632112,0.0,0.0
462,115.25,45.0271,46.3838,173.24,99.7188,99.7466,-0.000311299,0.0419438,20.9454,118.329,-0.00256545,0.0,0.0
464,115.75,44.8682,46.3056,177.939,99.716,99.7134,-0.000321351,0.0419213,20.9456,118.339,0.000231343,0.0,0.0
466,116.25,44.4835,47.2437,174.504,99.7206,99.7272,-0.000338529,0.0419031,20.9456,118.369,-0.000610182,0.0,0.0
468,116.75,44.7236,46.685,175.042,99.721,99.7009,-0.000352443,0.0418884,20.9457,118.399,0.00184839,0.0,0.0
470,117.25,44.429,46.0022,172.34,99.7544,99.7333,-0.000363714,0.0418765,20.9458,118.389,0.00195034,0.0,0.0
472,117.75,44.3195,46.3484,171.937,99.7365,99.7682,-0.000371552,0.0418668,20.9458,118.359,-0.00292683,0.0,0.0
474,118.25,44.3021,46.6741,172.189,99.7638,99.7307,-0.000377901,0.0418743,20.9459,118.409,0.00305085,0.0,0.0
476,118.75,44.5746,46.4102,181.12,99.7508,99.7238,-0.00036239,0.0418803,20.9459,118.359,0.00249294,0.0,0.0
478,119.25,44.1412,46.7018,171.137,99.7652,99.7471,-0.000349826,0.0418853,20.9459,118.369,0.001673,0.0,0.0
480,119.75,44.4502,46.5274,175.797,99.7512,99.7367,-0.000330816,0.0418893,20.946,118.349,0.00133426,0.0,0.0
482,120.25,44.6023,46.658,175.603,99.7717,99.7432,-0.00030747,0.0419086,20.946,118.359,0.00262776,0.0,0.0
484,120.75,44.3528,46.7186,169.755,99.7559,99.7479,-0.000285842,0.0419388,20.946,118.359,0.000731288,0.0,0.0
486,121.25,44.2366,46.5601,171.905,99.7749,99.7803,-0.000265878,0.0419633,20.946,118.399,-0.000492309,0.0,0.0
488,121.75,44.6056,46.6173,176.989,99.8001,99.7475,-0.000249707,0.0418911,20.946,118.379,0.00484822,0.0,0.0
490,122.25,44.3361,46.1448,171.146,99.8044,99.7742,-0.000230154,0.0418326,20.946,118.389,0.00278231,0.0,0.0
492,122.75,44.4439,46.3041,174.494,99.8138,99.7859,-0.000212958,0.0417853,20.946,118.389,0.00256967,0.0,0.0
494,123.25,44.4986,46.3449,171.524,99.822,99.8186,-0.000197805,0.0417469,20.946,118.369,0.000312477,0.0,0.0
496,123.75,44.4082,46.5569,175.996,99.8199,99.848,-0.000185532,0.0417562,20.946,118.389,-0.00258684,0.0,0.0
498,124.25,44.4736,46.4294,173.824,99.821,99.8234,-0.000182385,0.0418,20.946,118.389,-0.000223674,0.0,0.0
500,124.75,44.6961,46.6727,172.201,99.8123,99.8117,-0.00018595,0.0418356,20.9456,118.389,5.37248e-05,0.0,0.0
502,125.25,44.3526,46.5287,173.607,99.8335,99.8199,-0.00019767,0.0418643,20.9452,118.369,0.00125423,0.0,0.0
504,125.75,44.204,46.8935,171.33,99.8321,99.8148,-0.000215112,0.0418876,20.9449,118.369,0.00159736,0.0,0.0
506,126.25,44.7788,47.0011,179.258,99.8634,99.8385,-0.000240789,0.0419065,20.9447,118.379,0.00229563,0.0,0.0
508,126.75,44.3322,47.0472,172.201,99.854,99.8359,-0.000271983,0.0419218,20.9445,118.389,0.0016719,0.0,0.0
510,127.25,44.4698,46.5546,171.313,99.8814,99.8359,-0.000310159,0.0419342,20.9444,118.379,0.0041885,0.0,0.0
512,127.75,44.1756,46.5418,174.919,99.872,99.8643,-0.000352698,0.041928,20.9442,118.369,0.000707169,0.0,0.0
514,128.25,44.4277,46.1725,173.797,99.872,99.8958,-0.000397346,0.0419086,20.9441,118.349,-0.00219092,0.0,0.0
516,128.75,44.4309,46.1133,171.121,99.8749,99.8557,-0.000442683,0.0418928,20.9441,118.319,0.00176618,0.0,0.0
518,129.25,44.5618,46.61,170.955,99.8857,99.8833,-0.000479405,0.0419414,20.944,118.339,0.000218186,0.0,0.0
520,129.75,44.6067,46.5546,174.297,99.881,99.8699,-0.000515604,0.0419807,20.9439,118.349,0.00101852,0.0,0.0
522,130.25,44.2717,46.2885,176.95,99.8864,99.8807,-0.000544926,0.0419964,20.9439,118.359,0.000522981,0.0,0.0
524,130.75,44.5613,46.9389,175.561,99.8918,99.901,-0.000557426,0.0419955,20.9439,118.359,-0.000846481,0.0,0.0
526,131.25,44.2582,46.7836,178.09,99.9439,99.9096,-0.000578708,0.0419931,20.9438,118.369,0.00315936,0.0,0.0
528,131.75,44.7648,46.7489,173.504,99.904,99.8941,-0.000584433,0.0419925,20.9438,118.359,0.000914375,0.0,0.0
530,132.25,43.8601,46.6081,173.899,99.9414,99.9363,-0.000603055,0.0418995,20.9438,118.389,0.000468163,0.0,0.0
532,132.75,44.6192,46.8298,177.39,99.9206,99.9281,-0.000626088,0.0418241,20.9438,118.389,-0.000697903,0.0,0.0
534,133.25,44.0417,46.0999,171.69,99.9429,99.9523,-0.000654935,0.0418243,20.9438,118.389,-0.000868412,0.0,0.0
536,133.75,44.2616,46.8447,180.411,99.9518,99.9424,-0.000687474,0.0418246,20.9438,118.369,0.000871619,0.0,0.0
538,134.25,44.7223,46.3952,170.593,99.968,99.9527,-0.00071383,0.0418248,20.9437,118.359,0.00140771,0.0,0.0
540,134.75,45.0701,46.6121,169.838,99.9691,99.9523,-0.000735178,0.0417789,20.9437,118.369,0.00154693,0.0,0.0
542,135.25,44.198,46.2909,175.037,99.9968,99.9536,-0.000749889,0.0417417,20.9437,118.359,0.00397588,0.0,0.0
544,135.75,44.7197,46.7388,173.552,99.963,99.9583,-0.000761804,0.0417423,20.9437,118.369,0.00042979,0.0,0.0
546,136.25,44.6794,46.9217,171.605,99.9835,99.9777,-0.000740475,0.0417428,20.9437,118.369,0.000529559,0.0,0.0
548,136.75,44.3681,46.9237,172.208,99.9889,99.9652,-0.000706214,0.0417739,20.9437,118.409,0.00217615,0.0,0.0
550,137.25,43.8608,46.2853,174.988,99.9975,99.9717,-0.000663177,0.041799,20.9442,118.399,0.00237456,0.0,0.0
552,137.75,44.8996,46.5405,178.35,100.011,99.9674,-0.000628316,0.0418113,20.9445,118.399,0.00402849,0.0,0.0
554,138.25,44.946,46.5139,175.015,100.019,100.003,-0.000579018,0.041814,20.9448,118.359,0.00150308,0.0,0.0
556,138.75,44.4494,46.4765,173.671,100.035,100.01,-0.000520131,0.0418323,20.945,118.359,0.00232413,0.0,0.0
558,139.25,44.5387,46.5672,174.669,100.001,100.001,-0.000472433,0.0418617,20.9452,118.369,-2.41214e-05,0.0,0.0
560,139.75,44.2249,46.4953,172.753,100.022,100.002,-0.000436379,0.0418855,20.9454,118.359,0.00177494,0.0,0.0
562,140.25,44.3069,46.4755,169.84,100.041,100.007,-0.000407176,0.0419355,20.9455,118.359,0.00311881,0.0,0.0
564,140.75,44.8713,46.5516,176.311,100.07,100.026,-0.000414501,0.0419759,20.9456,118.339,0.00398465,0.0,0.0
566,141.25,44.4354,46.6402,172.212,100.034,100.029,-0.000420435,0.0419627,20.9457,118.339,0.000435271,0.0,0.0
568,141.75,44.4434,47.061,174.664,100.052,100.034,-0.000451058,0.0419519,20.9458,118.349,0.00165217,0.0,0.0
570,142.25,44.0907,46.5254,176.761,100.059,100.023,-0.000475862,0.041911,20.9458,118.369,0.00335007,0.0,0.0
572,142.75,44.6556,46.945,176.812,100.076,100.061,-0.000507571,0.0418487,20.9459,118.329,0.0014099,0.0,0.0
574,143.25,44.4831,46.7364,175.513,100.045,100.046,-0.000533256,0.0417983,20.9459,118.339,-0.000118963,0.0,0.0
576,143.75,44.32,46.1423,175.858,100.081,100.079,-0.00055406,0.0417575,20.9459,118.339,0.000167752,0.0,0.0
578,144.25,44.6868,47.005,172.359,100.082,100.056,-0.000570912,0.0417163,20.9459,118.319,0.00238113,0.0,0.0
580,144.75,44.6552,46.4452,170.296,100.097,100.095,-0.000584562,0.0416757,20.946,118.299,0.00016227,0.0,0.0
582,145.25,44.2561,46.1667,180.129,100.115,100.059,-0.000595618,0.0416429,20.9457,118.319,0.005143,0.0,0.0
584,145.75,44.7169,46.408,171.689,100.112,100.092,-0.000604574,0.0416469,20.9454,118.359,0.00182756,0.0,0.0
586,146.25,44.4044,46.7019,169.26,100.126,100.109,-0.000618282,0.0416501,20.945,118.349,0.00160393,0.0,0.0
588,146.75,44.3361,46.5699,172.234,100.13,100.137,-0.000629386,0.0416366,20.9448,118.339,-0.000646915,0.0,0.0
590,147.25,44.2986,46.4717,172.131,100.112,100.094,-0.000636341,0.0416112,20.9446,118.299,0.00166861,0.0,0.0
592,147.75,44.5306,46.6487,175.761,100.149,100.129,-0.000640142,0.0415986,20.9444,118.299,0.00185606,0.0,0.0
594,148.25,44.385,46.6112,173.211,100.132,100.112,-0.000626439,0.0415957,20.9443,118.329,0.00185497,0.0,0.0
596,148.75,43.9581,46.5646,173.573,100.155,100.136,-0.000615339,0.0416176,20.9442,118.359,0.00179029,0.0,0.0
598,149.25,44.3989,46.4717,173.602,100.141,100.176,-0.000584405,0.0416571,20.9441,118.349,-0.00314619,0.0,0.0
600,149.75,44.187,46.3513,172.644,100.145,100.225,-0.000559348,0.041673,20.944,118.349,-0.00740057,0.0,0.0
602,150.25,44.6875,46.5654,171.977,100.154,100.215,-0.000527501,0.0416713,20.944,118.339,-0.00562584,0.0,0.0
604,150.75,44.4532,46.4439,171.714,100.18,100.237,-0.000491311,0.0416699,20.9439,118.349,-0.00520018,0.0,0.0
606,151.25,44.1727,46.4676,169.088,100.197,100.191,-0.000461997,0.0416995,20.9439,118.349,0.000618364,0.0,0.0
608,151.75,44.3262,46.7498,174.148,100.21,100.182,-0.000432818,0.0417234,20.9438,118.339,0.0025324,0.0,0.0
610,152.25,44.4381,45.9474,169.137,100.195,100.192,-0.000404291,0.0417428,20.9438,118.369,0.000309187,0.0,0.0
612,152.75,44.5528,46.5661,169.957,100.211,100.207,-0.000388658,0.0417739,20.9438,118.349,0.000408958,0.0,0.0
614,153.25,44.442,46.4069,175.261,100.224,100.217,-0.00038272,0.041799,20.9438,118.349,0.000640291,0.0,0.0
616,153.75,44.3205,46.2735,171.641,100.254,100.22,-0.000388102,0.0417887,20.9438,118.369,0.00318128,0.0,0.0
618,154.25,44.3667,46.3272,172.024,100.243,100.222,-0.000401633,0.0417723,20.9437,118.349,0.00192074,0.0,0.0
620,154.75,44.4987,46.7565,171.805,100.226,100.247,-0.000421425,0.0417517,20.9437,118.329,-0.00195733,0.0,0.0
622,155.25,44.693,46.9657,176.013,100.254,100.315,-0.000445405,0.0417431,20.9437,118.329,-0.00559238,0.0,0.0
624,155.75,44.4416,46.5143,171.255,100.31,100.289,-0.000470944,0.0417435,20.9437,118.359,0.00188566,0.0,0.0
626,156.25,44.3986,46.5883,174.011,100.311,100.306,-0.000497134,0.0417437,20.9437,118.349,0.000408958,0.0,0.0
628,156.75,44.4409,46.755,176.112,100.292,100.332,-0.000518347,0.0417439,20.9437,118.379,-0.00363702,0.0,0.0
630,157.25,44.9678,46.4734,172.394,100.283,100.297,-0.000540966,0.0417134,20.9437,118.339,-0.00126646,0.0,0.0
632,157.75,44.4377,46.3403,175.099,100.308,100.313,-0.000564178,0.0416887,20.944,118.339,-0.000486827,0.0,0.0
634,158.25,44.3663,46.2007,176.461,100.299,100.301,-0.00058298,0.0416848,20.9442,118.339,-0.000131572,0.0,0.0
636,158.75,44.5326,46.9466,176.182,100.329,100.345,-0.000599569,0.0416962,20.9443,118.329,-0.00146659,0.0,0.0
638,159.25,44.5338,46.7536,174.696,100.337,100.374,-0.000614228,0.0417055,20.9445,118.319,-0.00342752,0.0,0.0
640,159.75,44.6902,46.6608,175.06,100.365,100.355,-0.000629499,0.0417283,20.9446,118.309,0.000914375,0.0,0.0
642,160.25,44.1845,46.8923,172.944,100.376,100.344,-0.000644925,0.0417468,20.9447,118.319,0.0028974,0.0,0.0
644,160.75,44.206,46.5068,172.197,100.362,100.36,-0.000657421,0.0417771,20.9447,118.309,0.00018968,0.0,0.0