File: 01_Data/PEVA/Cone/PEVA_Cone_HF50Scan_240820_R2.csv
Names,Time,Stack TC,Smoke TC,Exh Press,Smoke Comp,Smoke Meas,CO Meter,CO2 Meter,O2 Meter,Sample Mass,Ext Coeff,Start Test,Flame Verif
Chan Gain,,500,500,1,1,1,1,1,1,1,1,1.0,1.0
Offset,,0,0,0.143687,0,0,0,0,0,0,0,0.0,0.0
Gain,,1,1,25.011,11.7833,14.1275,1,1,1,1.00092,1.04852,1.0,1.0
Units,sec,C,C,Pa,%,%,%,%,%,g,/m,,
Baseline,,55.6562,58.5953,168.919,100.706,100.781,-0.000667269,0.0426095,20.9395,-448.537,-0.00688778,,
2,0.25,55.3242,58.5775,169.773,101.36,101.404,-0.000558465,0.0453735,20.9383,126.316,-0.00391069,0.0,0.0
4,0.75,55.3033,58.7733,169.289,101.348,101.394,-0.000583524,0.045353,20.9382,126.126,-0.00423154,0.0,0.0
6,1.25,54.5158,57.8324,167.903,101.374,101.426,-0.000609258,0.0453291,20.9381,126.186,-0.00473669,0.0,0.0
8,1.75,54.6458,57.9439,167.567,101.34,101.447,-0.000634993,0.0453098,20.9381,126.276,-0.00972607,0.0,0.0
10,2.25,54.7965,58.7636,167.688,101.359,101.396,-0.000657877,0.0452941,20.938,126.296,-0.00333703,0.0,0.0
12,2.75,55.2867,58.1809,171.536,101.346,101.309,-0.000678248,0.0452814,20.938,126.226,0.00338405,0.0,0.0
14,3.25,55.1138,58.3066,171.637,101.36,101.277,-0.000693389,0.0452711,20.9379,126.236,0.00752171,0.0,0.0
16,3.75,55.373,58.1421,168.09,101.36,101.15,-0.000704431,0.0452628,20.9379,126.296,0.0191117,0.0,0.0
18,4.25,55.1038,58.6426,166.012,101.355,100.939,-0.000709298,0.04521,20.9379,126.266,0.0378136,0.0,0.0
20,4.75,54.7431,58.6023,165.58,101.347,99.832,-0.000709571,0.0451672,20.9378,126.186,0.138502,0.0,0.0
22,5.25,55.0046,58.181,161.713,101.352,98.8042,-0.000711831,0.0450865,20.9378,126.156,0.234177,0.0,1.0
24,5.75,54.9034,58.1856,161.513,101.348,87.8572,-0.000715496,0.0450211,20.9378,126.046,1.31386,0.0,1.0
26,6.25,55.187,58.521,143.701,101.346,58.924,-0.000718465,0.0449843,20.9378,125.845,4.9877,0.0,1.0
28,6.75,55.1756,58.6766,128.703,101.349,39.4741,-0.000733099,0.0449691,20.9378,125.425,8.67255,0.0,1.0
30,7.25,56.0053,59.3443,143.555,101.353,31.3691,-0.000755959,0.0449567,20.9378,125.185,10.7867,0.0,1.0
32,7.75,56.8405,61.4456,131.798,101.346,32.2732,-0.00077991,0.0449313,20.9378,124.975,10.5248,0.0,1.0
34,8.25,58.457,63.3187,130.6,101.354,30.1555,-0.000804203,0.0449108,20.9378,124.734,11.1497,0.0,1.0
36,8.75,59.6851,65.3594,138.535,101.347,32.9359,-0.000825239,0.0448635,20.9378,124.564,10.3379,0.0,1.0
38,9.25,61.1628,67.6893,139.025,101.349,32.4827,-0.0008435,0.0448251,20.9378,124.364,10.4655,0.0,1.0
40,9.75,62.2159,69.502,147.97,101.342,33.1756,-0.000858971,0.0448401,20.9378,124.204,10.2707,0.0,1.0
42,10.25,63.5654,70.8664,148.273,101.337,29.4325,-0.000872115,0.0448603,20.9378,124.044,11.3714,0.0,1.0
44,10.75,63.8298,71.7525,149.763,101.33,29.4648,-0.000880043,0.044884,20.9378,123.944,11.3606,0.0,1.0
46,11.25,64.3261,72.5168,152.549,101.329,30.0641,-0.00088402,0.0449759,20.9378,123.854,11.1753,0.0,1.0
48,11.75,65.1579,73.3058,153.109,101.332,34.6324,-0.000878408,0.0451157,20.9378,123.774,9.87455,0.0,1.0
50,12.25,65.6095,74.1147,149.119,101.315,37.2386,-0.000865914,0.045229,20.9378,123.683,9.20568,0.0,0.0
52,12.75,66.1028,74.5065,149.801,101.337,35.818,-0.000855793,0.0483077,20.9378,123.563,9.5654,0.0,0.0
54,13.25,66.1759,75.1248,155.899,101.282,40.9119,-0.000727984,0.0508015,20.9375,123.513,8.33745,0.0,0.0
56,13.75,66.3212,75.4421,151.485,101.301,43.2858,-0.000516808,0.0624062,20.9371,123.453,7.82035,0.0,0.0
58,14.25,66.562,75.6696,158.881,101.292,46.1489,0.000293743,0.0804324,20.9368,123.453,7.2305,0.0,0.0
60,14.75,66.8682,76.3897,161.231,101.296,51.9555,0.00152584,0.0950336,20.9363,123.433,6.1408,0.0,0.0
62,15.25,67.2024,76.289,158.422,101.29,56.4523,0.00252383,0.146249,20.9357,123.383,5.37678,0.0,0.0
64,15.75,67.598,76.5499,160.643,101.285,62.4084,0.00597903,0.187734,20.9325,123.363,4.45374,0.0,0.0
66,16.25,67.3142,76.4368,157.118,101.28,65.6881,0.00877773,0.254861,20.9274,123.383,3.98227,0.0,0.0
68,16.75,67.3547,76.5285,159.681,101.277,70.8009,0.0129643,0.309234,20.9233,123.383,3.29258,0.0,0.0
70,17.25,67.281,76.4129,161.116,101.255,77.0279,0.018083,0.353277,20.92,123.323,2.51526,0.0,0.0
72,17.75,67.3183,76.392,161.701,101.278,82.1442,0.0222292,0.394451,20.8653,123.313,1.92587,0.0,0.0
74,18.25,67.1636,76.1822,163.439,101.258,87.8421,0.0277692,0.432753,20.821,123.303,1.30721,0.0,0.0
76,18.75,67.0526,75.8307,161.187,101.236,90.4828,0.03422,0.463778,20.7024,123.293,1.03286,0.0,0.0
78,19.25,66.9459,76.1409,166.673,101.222,93.8495,0.0399044,0.479931,20.6063,123.253,0.695573,0.0,0.0
80,19.75,67.0519,75.8966,161.821,101.226,96.6054,0.0449221,0.493015,20.5227,123.243,0.429743,0.0,0.0
82,20.25,66.5513,75.598,166.48,101.187,98.4489,0.0489864,0.490028,20.4549,123.253,0.252317,0.0,0.0
84,20.75,66.4239,75.2214,163.8,101.191,99.1482,0.051806,0.487609,20.4001,123.263,0.187575,0.0,0.0
86,21.25,66.2783,75.124,159.967,101.168,99.5712,0.0536647,0.479068,20.3556,123.253,0.146299,0.0,0.0
88,21.75,65.9843,74.2656,168.265,101.164,99.9221,0.0544224,0.466227,20.3197,123.263,0.113645,0.0,0.0
90,22.25,65.444,73.8377,165.24,101.148,99.7945,0.0543631,0.455826,20.2905,123.273,0.123895,0.0,0.0
92,22.75,65.652,73.8943,164.569,101.142,100.107,0.0534357,0.439113,20.2669,123.283,0.0946147,0.0,0.0
94,23.25,65.2422,73.1874,168.132,101.141,100.272,0.0518931,0.425574,20.2633,123.313,0.0793516,0.0,0.0
96,23.75,64.9857,73.0843,168.82,101.141,100.809,0.0497787,0.405426,20.2604,123.313,0.0301757,0.0,0.0
98,24.25,65.1722,72.3324,167.326,101.121,100.743,0.0472874,0.389106,20.2682,123.303,0.0344367,0.0,0.0
100,24.75,64.6191,72.1184,166.863,101.128,100.923,0.0452695,0.368288,20.2835,123.283,0.0186521,0.0,0.0
102,25.25,64.4265,72.2406,166.409,101.122,100.879,0.0419561,0.351425,20.3031,123.293,0.0220731,0.0,0.0
104,25.75,64.4436,71.8996,161.248,101.112,100.948,0.0392722,0.333463,20.3256,123.273,0.0149015,0.0,0.0
106,26.25,63.799,71.9146,170.28,101.081,101.045,0.0360157,0.31504,20.3516,123.283,0.0032865,0.0,0.0
108,26.75,64.0275,71.1127,171.513,101.074,101.062,0.0333779,0.296095,20.3798,123.303,0.00110184,0.0,0.0
110,27.25,63.2581,71.0564,169.636,101.074,101.015,0.0312413,0.277129,20.4026,123.303,0.00530737,0.0,0.0
112,27.75,63.7954,70.2843,170.596,101.073,101.069,0.0282048,0.261767,20.4286,123.293,0.000408958,0.0,0.0
114,28.25,63.302,70.4932,167.397,101.055,101.048,0.0257453,0.244993,20.4564,123.263,0.000623846,0.0,0.0
116,28.75,63.4458,69.685,166.472,101.072,101.103,0.0230901,0.227506,20.4789,123.293,-0.00282044,0.0,0.0
118,29.25,61.9893,68.7875,167.233,101.026,101.073,0.0209394,0.210469,20.5109,123.263,-0.00423099,0.0,0.0
120,29.75,62.2641,68.9634,166.012,101.03,101.052,0.0188948,0.194082,20.5369,123.253,-0.00194856,0.0,0.0
122,30.25,61.9611,68.549,170.815,101.012,101.01,0.0169665,0.178683,20.5685,123.243,0.000188584,0.0,0.0
124,30.75,62.1087,68.3382,167.06,101.014,101.038,0.0151945,0.164297,20.5942,123.263,-0.0021339,0.0,0.0
126,31.25,61.726,68.4331,173.253,100.992,100.988,0.0135701,0.151203,20.6301,123.283,0.00039032,0.0,0.0
128,31.75,61.2107,67.8212,166.149,100.975,100.959,0.0119463,0.139299,20.6634,123.283,0.0014099,0.0,0.0
130,32.25,60.8643,67.4827,167.099,100.935,100.978,0.010631,0.128608,20.6941,123.253,-0.00390905,0.0,0.0
132,32.75,60.8502,67.6728,165.429,100.959,100.976,0.00932556,0.119004,20.7216,123.243,-0.00155651,0.0,0.0
134,33.25,60.4756,67.3154,167.5,100.92,100.925,0.00826817,0.111225,20.7462,123.223,-0.000428165,0.0,0.0
136,33.75,61.0332,67.0692,169.608,100.925,100.927,0.00741168,0.103109,20.7661,123.223,-0.000126638,0.0,0.0
138,34.25,60.493,66.9718,167.352,100.915,100.916,0.00647543,0.0965359,20.7841,123.223,-0.000133765,0.0,0.0
140,34.75,60.8217,66.4098,161.954,100.921,100.906,0.00571707,0.0900052,20.8004,123.233,0.00133426,0.0,0.0
142,35.25,60.3526,66.2909,170.057,100.874,100.962,0.00498927,0.0847154,20.8135,123.243,-0.00803429,0.0,0.0
144,35.75,59.9074,66.2628,169.632,100.872,100.874,0.00439976,0.0799434,20.8273,123.243,-0.000255471,0.0,0.0
146,36.25,60.4394,66.0366,166.799,100.852,100.858,0.00392226,0.0756396,20.8385,123.233,-0.000597024,0.0,0.0
148,36.75,60.1044,65.835,169.08,100.842,100.851,0.00343788,0.0721535,20.8497,123.233,-0.000821261,0.0,0.0
150,37.25,60.1803,65.6669,169.912,100.805,100.805,0.00300863,0.0688366,20.8589,123.213,1.535e-05,0.0,0.0
152,37.75,59.8326,65.2657,174.099,100.783,100.816,0.00262772,0.06615,20.8674,123.203,-0.00301567,0.0,0.0
154,38.25,59.5565,65.2661,167.731,100.783,100.764,0.00231919,0.0635427,20.8754,123.183,0.00175083,0.0,0.0
156,38.75,59.4884,65.2177,165.252,100.786,100.778,0.00197728,0.0614308,20.8826,123.173,0.000747733,0.0,0.0
158,39.25,59.4615,64.6933,166.65,100.73,100.772,0.00170033,0.0594124,20.889,123.173,-0.00389424,0.0,0.0
160,39.75,59.3955,64.9206,167.956,100.728,100.775,0.00142298,0.0577776,20.8942,123.193,-0.00429461,0.0,0.0
162,40.25,59.2633,64.5066,165.777,100.685,100.768,0.00119832,0.0564533,20.8989,123.183,-0.00756627,0.0,0.0
164,40.75,58.7062,64.2392,163.704,100.687,100.744,0.00101635,0.0552269,20.9032,123.173,-0.00527697,0.0,0.0
166,41.25,59.3433,64.1631,168.268,100.661,100.711,0.00086895,0.0540951,20.9066,123.203,-0.00453923,0.0,0.0
168,41.75,59.3318,64.328,164.133,100.683,100.707,0.000684988,0.0531783,20.9103,123.203,-0.00221341,0.0,0.0
170,42.25,59.0557,63.5208,172.517,100.64,100.676,0.000535978,0.052236,20.9134,123.223,-0.00329371,0.0,0.0
172,42.75,58.9019,64.2006,167.395,100.606,100.662,0.000397208,0.0514726,20.9163,123.203,-0.0051563,0.0,0.0
174,43.25,58.5891,63.6863,169.158,100.592,100.668,0.000284804,0.0507929,20.9191,123.213,-0.00691832,0.0,0.0
176,43.75,58.5213,63.4256,162.094,100.559,100.661,0.000193757,0.0502422,20.9216,123.203,-0.00931229,0.0,0.0
178,44.25,58.3064,63.6664,169.176,100.581,100.608,0.000120009,0.0497801,20.9238,123.233,-0.002532,0.0,0.0
180,44.75,58.2325,63.0707,162.69,100.561,100.592,6.67272e-05,0.0493912,20.9257,123.243,-0.0028369,0.0,0.0
182,45.25,58.6481,63.1314,165.008,100.549,100.585,2.35689e-05,0.0490357,20.9271,123.233,-0.003331,0.0,0.0
184,45.75,58.2421,62.9485,171.236,100.519,100.555,-6.63352e-06,0.0487114,20.9283,123.203,-0.00337323,0.0,0.0
186,46.25,58.3799,63.1156,165.697,100.532,100.52,-2.68173e-05,0.0484487,20.9297,123.193,0.00115008,0.0,0.0
188,46.75,58.2561,63.0076,168.209,100.493,100.508,-4.31661e-05,0.0481899,20.9309,123.193,-0.00136515,0.0,0.0
190,47.25,57.8596,62.9211,169.08,100.459,100.524,-4.47908e-05,0.0479802,20.9318,123.183,-0.00591932,0.0,0.0
192,47.75,58.1426,62.5365,170.383,100.433,100.453,-4.61067e-05,0.0478023,20.9325,123.173,-0.00185041,0.0,0.0
194,48.25,58.2324,63.0436,165.846,100.452,100.466,-4.71726e-05,0.0476509,20.9331,123.153,-0.00129662,0.0,0.0
196,48.75,58.0823,62.4975,167.19,100.43,100.433,-4.02903e-05,0.0475282,20.9336,123.153,-0.000304812,0.0,0.0
198,49.25,57.7822,62.6929,168.073,100.417,100.473,-3.47156e-05,0.0473521,20.934,123.153,-0.00512229,0.0,0.0
200,49.75,57.8828,62.8513,167.668,100.406,100.43,-3.53639e-05,0.0472094,20.9343,123.153,-0.00226824,0.0,0.0
202,50.25,58.0755,62.1686,163.886,100.397,100.444,-3.5889e-05,0.0470478,20.9346,123.163,-0.00432258,0.0,0.0
204,50.75,57.8636,62.491,164.34,100.368,100.505,-4.66414e-05,0.0469168,20.9348,123.193,-0.0125226,0.0,0.0
206,51.25,57.6698,62.4388,168.081,100.365,100.485,-5.53507e-05,0.0468108,20.935,123.183,-0.0109708,0.0,0.0
208,51.75,57.8774,62.2484,167.521,100.37,100.416,-7.40233e-05,0.0467249,20.9351,123.163,-0.00415421,0.0,0.0
210,52.25,58.4708,62.2359,166.44,100.403,100.447,-8.9148e-05,0.0466246,20.9352,123.163,-0.00403793,0.0,0.0
212,52.75,57.7502,62.2986,165.259,100.421,100.455,-0.000105271,0.0465433,20.9353,123.153,-0.00302938,0.0,0.0
214,53.25,58.1992,62.629,162.803,100.455,100.491,-0.000118331,0.0464775,20.9354,123.183,-0.00328877,0.0,0.0
216,53.75,57.8486,62.013,168.94,100.471,100.504,-0.000128909,0.0464242,20.9355,123.153,-0.00295151,0.0,0.0
218,54.25,57.4402,61.945,166.839,100.499,100.553,-0.000137478,0.0463891,20.9355,123.163,-0.00498681,0.0,0.0
220,54.75,57.7944,62.0639,169.811,100.495,100.558,-0.000144418,0.046368,20.9355,123.123,-0.00574269,0.0,0.0
222,55.25,57.6131,62.1575,169.75,100.547,100.552,-0.00015004,0.0463509,20.9356,123.123,-0.000498888,0.0,0.0
224,55.75,57.3707,61.7725,170.957,100.555,100.607,-0.000154594,0.0462909,20.9356,123.123,-0.00474272,0.0,0.0
226,56.25,57.9337,62.1173,168.674,100.591,100.658,-0.000148091,0.0462424,20.9356,123.123,-0.00618264,0.0,0.0
228,56.75,57.5682,61.6738,167.415,100.585,100.652,-0.000133652,0.0462111,20.9356,123.143,-0.00608554,0.0,0.0
230,57.25,57.9925,61.5959,167.79,100.635,100.66,-0.000104969,0.0461931,20.9357,123.133,-0.00226385,0.0,0.0
232,57.75,57.4521,61.3483,165.55,100.631,100.661,-6.64471e-05,0.0461784,20.9357,123.113,-0.00266525,0.0,0.0
234,58.25,57.4913,61.6707,165.45,100.672,100.7,-2.64057e-05,0.0461513,20.9357,123.073,-0.00253639,0.0,0.0
236,58.75,57.5703,61.8646,164.789,100.675,100.706,1.39823e-05,0.0461292,20.9357,123.083,-0.00282428,0.0,0.0
238,59.25,57.5203,61.4014,168.097,100.659,100.753,4.66965e-05,0.0461728,20.9357,123.113,-0.00863403,0.0,0.0
240,59.75,57.4384,61.8728,163.679,100.684,100.717,7.44873e-05,0.0462081,20.9357,123.133,-0.00305954,0.0,0.0
242,60.25,57.3966,61.554,167.904,100.699,100.75,9.69978e-05,0.0462521,20.9357,123.113,-0.00464509,0.0,0.0
244,60.75,57.4856,61.3831,166.156,100.708,100.729,0.000124277,0.0462877,20.9357,123.093,-0.00192827,0.0,0.0
246,61.25,57.5507,61.259,166.232,100.701,100.757,0.000146373,0.0463165,20.9357,123.083,-0.00507238,0.0,0.0
248,61.75,57.5032,60.801,165.49,100.691,100.754,0.000170394,0.0463399,20.9357,123.083,-0.00571636,0.0,0.0
250,62.25,56.9113,61.4752,166.411,100.74,100.768,0.000195362,0.0463588,20.9357,123.103,-0.00254845,0.0,0.0
252,62.75,57.426,61.3329,166.147,100.722,100.764,0.000215585,0.0463742,20.9357,123.093,-0.00379662,0.0,0.0
254,63.25,57.6468,61.5198,169.671,100.736,100.8,0.000243604,0.0463866,20.9357,123.133,-0.00582771,0.0,0.0
256,63.75,57.418,61.1195,168.219,100.728,100.795,0.000266299,0.0463966,20.9357,123.083,-0.00614369,0.0,0.0
258,64.25,56.8691,60.9519,167.581,100.742,100.814,0.000284682,0.0464201,20.9357,123.073,-0.00659409,0.0,0.0
260,64.75,57.3068,61.1525,163.633,100.719,100.77,0.000334504,0.0464392,20.9354,123.083,-0.00471475,0.0,0.0
262,65.25,57.1264,60.754,169.595,100.718,100.772,0.000374859,0.0464546,20.9349,123.083,-0.00493854,0.0,0.0
264,65.75,57.0054,61.1853,160.98,100.716,100.746,0.000419199,0.0464671,20.9345,123.103,-0.00278041,0.0,0.0
266,66.25,56.8757,61.0005,164.629,100.735,100.774,0.000455114,0.0465079,20.9341,123.083,-0.00352624,0.0,0.0
268,66.75,57.2082,61.0589,166.936,100.715,100.765,0.000482842,0.046541,20.9339,123.103,-0.00461109,0.0,0.0
270,67.25,57.0854,61.37,165.991,100.707,100.761,0.000504075,0.0465597,20.9336,123.103,-0.00494018,0.0,0.0
272,67.75,56.8879,60.7292,162.915,100.663,100.729,0.000515142,0.0465676,20.9335,123.083,-0.00600216,0.0,0.0
274,68.25,57.2239,61.001,169.192,100.709,100.745,0.000518588,0.046574,20.9333,123.073,-0.00328658,0.0,0.0
276,68.75,57.3543,60.9299,169.191,100.661,100.704,0.000521379,0.0465791,20.9332,123.063,-0.00390905,0.0,0.0
278,69.25,56.9851,60.8081,169.226,100.66,100.696,0.000518872,0.0465833,20.9331,123.063,-0.00325916,0.0,0.0
280,69.75,57.1312,60.6821,173.529,100.639,100.706,0.00051255,0.0466191,20.933,123.083,-0.00618264,0.0,0.0
282,70.25,56.8511,60.8772,164.987,100.661,100.678,0.000506748,0.0466771,20.933,123.073,-0.00155322,0.0,0.0
284,70.75,56.8179,60.817,170.416,100.631,100.662,0.000501436,0.0467241,20.9329,123.053,-0.00288844,0.0,0.0
286,71.25,56.9703,60.3417,173.845,100.624,100.674,0.000497814,0.0467468,20.9329,123.073,-0.00454362,0.0,0.0
288,71.75,57.0384,60.2039,159.982,100.603,100.539,0.000495493,0.0467652,20.9329,123.063,0.00585416,0.0,0.0
290,72.25,56.9978,60.3586,166.062,100.612,100.616,0.000501871,0.0468084,20.9328,123.073,-0.000374986,0.0,0.0
292,72.75,57.1061,60.4202,172.834,100.548,100.59,0.000505011,0.04682,20.9328,123.073,-0.00386353,0.0,0.0
294,73.25,56.6659,60.2574,169.466,100.562,100.604,0.000518558,0.0469321,20.9328,123.073,-0.00380923,0.0,0.0
296,73.75,57.0304,60.4256,168.096,100.555,100.555,0.00053689,0.0470228,20.9328,123.063,-4.44054e-05,0.0,0.0
298,74.25,56.9404,59.9517,169.841,100.516,100.555,0.000559918,0.047081,20.9328,123.053,-0.00356463,0.0,0.0
300,74.75,56.8391,60.349,169.532,100.504,100.535,0.000597022,0.0471239,20.9327,123.053,-0.00283635,0.0,0.0
302,75.25,56.4774,60.4237,165.073,100.505,100.538,0.000607003,0.0471201,20.9327,123.023,-0.00297454,0.0,0.0
304,75.75,56.928,60.4016,163.193,100.447,100.528,0.000638393,0.0471137,20.9327,123.043,-0.00740002,0.0,0.0
306,76.25,56.7957,60.2907,169.708,100.46,100.527,0.000676709,0.0471651,20.9327,123.073,-0.00617496,0.0,0.0
308,76.75,56.6009,60.0695,167.503,100.453,100.501,0.000717298,0.0472577,20.9327,123.053,-0.00435494,0.0,0.0
310,77.25,56.2623,60.1764,166.302,100.434,100.457,0.000758774,0.0473326,20.9327,123.013,-0.00210758,0.0,0.0
312,77.75,56.3908,59.9323,166.124,100.412,100.486,0.000792369,0.0473473,20.9327,123.033,-0.00672795,0.0,0.0
314,78.25,56.7083,59.8059,160.707,100.396,100.48,0.000836444,0.0473591,20.9327,123.013,-0.00769685,0.0,0.0
316,78.75,56.6076,60.1362,163.193,100.402,100.461,0.000872145,0.0473534,20.9327,123.033,-0.00540698,0.0,0.0
318,79.25,56.6768,60.4245,168.157,100.378,100.432,0.000914039,0.0473487,20.9327,123.053,-0.00495664,0.0,0.0
320,79.75,56.3959,60.3682,168.584,100.357,100.417,0.000947974,0.0473449,20.9327,123.013,-0.0054525,0.0,0.0
322,80.25,56.3444,60.3752,167.079,100.378,100.488,0.00098974,0.0473419,20.9327,123.013,-0.0100213,0.0,0.0
324,80.75,56.9918,60.1005,168.395,100.351,100.494,0.00102357,0.0473313,20.9327,122.983,-0.0130793,0.0,0.0
326,81.25,56.5447,60.3544,167.345,100.312,100.503,0.00105781,0.0473155,20.9327,122.983,-0.0175404,0.0,0.0
328,81.75,56.7076,60.152,173.784,100.307,100.481,0.00109169,0.0473027,20.9327,123.033,-0.0159235,0.0,0.0
330,82.25,56.4954,60.1535,161.586,100.298,100.451,0.00111914,0.0473537,20.9327,122.983,-0.0140175,0.0,0.0
332,82.75,56.7004,60.478,161.802,100.29,100.43,0.00115566,0.0473951,20.9327,122.993,-0.0127696,0.0,0.0
334,83.25,56.8246,59.9699,170.471,100.26,100.377,0.00118524,0.0474593,20.9327,122.993,-0.010754,0.0,0.0
336,83.75,56.5583,59.9701,167.399,100.237,100.369,0.0012079,0.0475114,20.9327,123.003,-0.0121219,0.0,0.0
338,84.25,56.4023,60.0564,166.234,100.224,100.388,0.00122626,0.0475212,20.9327,122.953,-0.0150416,0.0,0.0
340,84.75,56.6295,59.8744,165.047,100.238,100.328,0.00122424,0.0475,20.9327,122.933,-0.00823566,0.0,0.0
342,85.25,56.4851,60.7495,167.8,100.2,100.286,0.0012226,0.0475233,20.9327,122.953,-0.0079657,0.0,0.0
344,85.75,56.8599,59.9691,170.255,100.206,100.286,0.00120829,0.0475785,20.9327,122.943,-0.00729194,0.0,0.0
346,86.25,56.5431,60.1214,168.658,100.161,100.268,0.00119671,0.0476233,20.9325,122.923,-0.00983747,0.0,0.0
348,86.75,56.8149,60.3024,165.967,100.163,100.252,0.00118732,0.0476353,20.9321,122.933,-0.0081358,0.0,0.0
350,87.25,56.6801,60.2431,169.003,100.152,100.285,0.00116803,0.0476231,20.9318,122.903,-0.0121652,0.0,0.0
352,87.75,56.6968,59.8515,166.54,100.151,100.287,0.00115241,0.0476538,20.9315,122.923,-0.0124957,0.0,0.0
354,88.25,56.4643,60.2081,173.779,100.104,100.263,0.00114795,0.0477149,20.9313,122.933,-0.0146473,0.0,0.0
356,88.75,56.2968,59.4871,166.107,100.096,100.229,0.00115172,0.0477645,20.9311,122.923,-0.0121768,0.0,0.0
358,89.25,56.6995,59.9638,169.718,100.058,100.233,0.00115478,0.0478289,20.931,122.923,-0.0161475,0.0,0.0
360,89.75,56.2341,59.3856,166.859,100.068,100.174,0.00117092,0.0479029,20.9309,122.943,-0.00973485,0.0,0.0
362,90.25,56.3677,59.6345,171.896,100.063,100.203,0.0011963,0.0479629,20.9308,122.943,-0.0128492,0.0,0.0
364,90.75,56.5056,59.4191,170.303,100.079,100.223,0.00121686,0.0480268,20.9307,122.973,-0.0132094,0.0,0.0
366,91.25,55.7284,59.4282,164.541,100.072,100.15,0.00124001,0.0480786,20.9306,122.953,-0.0071482,0.0,0.0
368,91.75,56.2332,59.4944,166.195,100.093,100.191,0.00125876,0.0480898,20.9306,122.953,-0.00903077,0.0,0.0
370,92.25,55.943,59.546,170.433,100.078,100.168,0.00128045,0.0480988,20.9305,122.943,-0.00825542,0.0,0.0
372,92.75,55.9236,59.695,165.332,100.085,100.21,0.0013028,0.0480908,20.9305,122.943,-0.0114269,0.0,0.0
374,93.25,56.5091,59.3879,163.509,100.09,100.189,0.00132522,0.0480843,20.9305,122.953,-0.00909772,0.0,0.0
376,93.75,56.2752,59.4717,167.426,100.103,100.273,0.00134885,0.0480944,20.9305,122.953,-0.0156231,0.0,0.0
378,94.25,56.1754,59.7235,165.128,100.1,100.184,0.00137292,0.0481026,20.9304,122.993,-0.00770453,0.0,0.0
380,94.75,56.0293,59.7762,172.091,100.109,100.149,0.00139242,0.04814,20.9304,122.963,-0.00369735,0.0,0.0
382,95.25,56.1257,59.8514,171.719,100.088,100.221,0.00142122,0.0481703,20.9304,122.963,-0.0122245,0.0,0.0
384,95.75,56.13,60.471,172.395,100.124,100.241,0.00144454,0.048211,20.9304,122.983,-0.0107145,0.0,0.0
386,96.25,56.202,59.9288,170.106,100.113,100.264,0.00146891,0.0482585,20.9304,122.993,-0.0138347,0.0,0.0
388,96.75,56.2733,59.4126,167.118,100.144,100.275,0.00149358,0.048297,20.9304,122.973,-0.012022,0.0,0.0
390,97.25,56.0383,59.9701,166.133,100.123,100.236,0.00151357,0.0482974,20.9304,122.953,-0.010332,0.0,0.0
392,97.75,56.0664,60.1091,164.05,100.151,100.264,0.00153756,0.0482978,20.9304,122.983,-0.0103731,0.0,0.0
394,98.25,55.9405,59.5135,163.78,100.136,100.234,0.001557,0.0483749,20.9304,122.933,-0.00901705,0.0,0.0
396,98.75,56.061,59.7072,169.062,100.166,100.282,0.00159357,0.0484374,20.9301,122.953,-0.0106009,0.0,0.0
398,99.25,55.9338,59.5625,168.058,100.147,100.255,0.00162319,0.0485133,20.9297,122.923,-0.00989894,0.0,0.0
400,99.75,56.0157,59.8347,168.039,100.191,100.273,0.00166295,0.0485975,20.9294,122.863,-0.00756462,0.0,0.0
402,100.25,56.3691,59.5488,166.287,100.175,100.312,0.00170935,0.0486657,20.9298,122.873,-0.0125824,0.0,0.0
404,100.75,56.373,59.5842,163.361,100.194,100.344,0.00176477,0.0487209,20.93,122.853,-0.0137578,0.0,0.0
406,101.25,56.4254,59.5194,165.311,100.169,100.324,0.00182572,0.0487657,20.9303,122.843,-0.0142174,0.0,0.0
408,101.75,56.1191,59.7576,163.615,100.204,100.345,0.00188058,0.0488327,20.9305,122.913,-0.0129782,0.0,0.0
410,102.25,55.6117,59.563,172.589,100.194,100.378,0.00192996,0.0488869,20.9306,122.873,-0.0168719,0.0,0.0
412,102.75,56.4165,59.5991,164.25,100.186,100.362,0.00196995,0.0489147,20.9307,122.883,-0.0162096,0.0,0.0
414,103.25,56.4079,59.4885,168.561,100.192,100.356,0.00199137,0.0489226,20.9308,122.903,-0.0150289,0.0,0.0
416,103.75,56.4217,58.9748,169.203,100.231,100.346,0.00199883,0.0489533,20.9309,122.873,-0.0105493,0.0,0.0
418,104.25,56.3539,59.759,171.474,100.221,100.327,0.00199664,0.0490001,20.931,122.883,-0.0097343,0.0,0.0
420,104.75,56.6827,59.3885,168.807,100.262,100.4,0.00198746,0.0490379,20.931,122.873,-0.01269,0.0,0.0
422,105.25,55.9867,59.4259,165.153,100.243,100.385,0.0019711,0.0491147,20.9311,122.873,-0.0129832,0.0,0.0
424,105.75,55.7863,59.0475,166.817,100.251,100.374,0.00194983,0.0491364,20.9311,122.913,-0.0112304,0.0,0.0
426,106.25,56.4124,59.4989,168.863,100.239,100.392,0.00192438,0.0491176,20.9311,122.883,-0.0140505,0.0,0.0
428,106.75,56.0121,59.328,170.57,100.255,100.391,0.00189635,0.0490942,20.9307,122.873,-0.0125193,0.0,0.0
430,107.25,56.0561,59.5853,164.689,100.255,100.338,0.00186749,0.0490681,20.9304,122.883,-0.00765954,0.0,0.0
432,107.75,56.1179,59.5027,166.772,100.275,100.362,0.00183855,0.0490469,20.9301,122.873,-0.00792016,0.0,0.0
434,108.25,56.1799,59.5614,161.699,100.253,100.403,0.00181512,0.0491066,20.9298,122.883,-0.0137513,0.0,0.0
436,108.75,56.2166,59.6385,168.55,100.251,100.418,0.00179874,0.0491549,20.9297,122.853,-0.0153315,0.0,0.0
438,109.25,56.0847,59.5643,173.883,100.257,100.372,0.00178547,0.0491941,20.9295,122.893,-0.0105109,0.0,0.0
440,109.75,56.2336,58.9916,166.962,100.251,100.381,0.00177472,0.0492086,20.9294,122.843,-0.0119083,0.0,0.0
442,110.25,55.7109,59.6963,170.7,100.28,100.405,0.00176602,0.0492049,20.9293,122.863,-0.0114813,0.0,0.0
444,110.75,56.4471,59.2376,164.727,100.273,100.37,0.00181108,0.0492019,20.9294,122.833,-0.00894187,0.0,0.0
446,111.25,56.0087,59.6192,167.581,100.243,100.423,0.00184758,0.0492456,20.9297,122.833,-0.016465,0.0,0.0
448,111.75,55.8351,59.2659,165.452,100.281,100.398,0.00189843,0.049281,20.93,122.813,-0.0107046,0.0,0.0
450,112.25,55.6539,59.4036,169.398,100.263,100.431,0.00195877,0.0493016,20.9302,122.793,-0.0154666,0.0,0.0
452,112.75,56.0231,59.2295,168.561,100.265,100.424,0.00202001,0.049311,20.9303,122.783,-0.0145243,0.0,0.0
454,113.25,55.6639,59.3867,172.608,100.277,100.385,0.00208074,0.0493105,20.9305,122.763,-0.009849,0.0,0.0
456,113.75,55.3753,59.3845,168.391,100.303,100.401,0.00213475,0.0493028,20.9306,122.813,-0.00897535,0.0,0.0
458,114.25,56.3133,59.0817,163.342,100.287,100.416,0.00218283,0.0493209,20.9307,122.823,-0.0118348,0.0,0.0
460,114.75,55.9333,59.5501,164.99,100.289,100.447,0.00221971,0.0493574,20.9307,122.783,-0.0144804,0.0,0.0
462,115.25,55.9956,59.483,167.994,100.283,100.402,0.00224773,0.0493707,20.9308,122.773,-0.0109077,0.0,0.0
464,115.75,56.1383,59.2167,170.494,100.274,100.442,0.00226355,0.049367,20.9308,122.813,-0.015438,0.0,0.0
466,116.25,56.5377,59.3204,168.751,100.291,100.46,0.00227018,0.049364,20.9309,122.793,-0.0155067,0.0,0.0
468,116.75,55.6413,59.2396,167.342,100.287,100.399,0.00227555,0.0493461,20.9309,122.833,-0.0103347,0.0,0.0
470,117.25,55.7831,59.4918,167.301,100.279,100.408,0.00227509,0.0493317,20.9309,122.853,-0.0118897,0.0,0.0
472,117.75,55.7692,59.6628,169.835,100.275,100.382,0.00227039,0.0493523,20.9309,122.873,-0.00977107,0.0,0.0
474,118.25,55.9091,59.0618,164.286,100.309,100.383,0.00226727,0.0493982,20.931,122.853,-0.00674934,0.0,0.0
476,118.75,55.8078,59.4114,163.022,100.277,100.364,0.00226536,0.0494354,20.931,122.843,-0.00791303,0.0,0.0
478,119.25,55.8476,58.9148,161.017,100.281,100.384,0.00226381,0.049404,20.931,122.843,-0.00947308,0.0,0.0
480,119.75,55.7346,59.744,163.369,100.269,100.388,0.00228606,0.0493785,20.931,122.813,-0.0109571,0.0,0.0
482,120.25,56.2348,59.2001,168.87,100.295,100.397,0.00230408,0.0493426,20.931,122.783,-0.00937814,0.0,0.0
484,120.75,55.8663,59.5929,167.02,100.269,100.369,0.00234481,0.0493134,20.931,122.783,-0.00917949,0.0,0.0
486,121.25,56.2394,59.4226,167.266,100.295,100.406,0.0023778,0.0493052,20.931,122.783,-0.0102013,0.0,0.0
488,121.75,56.2245,59.2365,166.791,100.272,100.33,0.00241759,0.0492985,20.931,122.783,-0.00532634,0.0,0.0
490,122.25,56.2092,59.4436,168.349,100.274,100.397,0.00244983,0.0492769,20.931,122.763,-0.0112195,0.0,0.0
492,122.75,56.5304,59.7352,167.502,100.259,100.367,0.00246768,0.0492449,20.931,122.773,-0.00991211,0.0,0.0
494,123.25,55.9787,58.9929,166.269,100.235,100.368,0.00247471,0.0492189,20.931,122.783,-0.012241,0.0,0.0
496,123.75,55.9032,59.5366,166.872,100.24,100.372,0.00248041,0.0492133,20.931,122.813,-0.012062,0.0,0.0
498,124.25,55.9157,59.6045,169.535,100.234,100.351,0.00245497,0.0492087,20.931,122.783,-0.0107595,0.0,0.0
500,124.75,56.1249,59.1417,167.892,100.235,100.362,0.00243437,0.0492212,20.931,122.773,-0.0116481,0.0,0.0
502,125.25,55.9371,59.6905,165.722,100.254,100.345,0.0023968,0.0492459,20.931,122.803,-0.00843101,0.0,0.0
504,125.75,55.8389,59.3387,170.16,100.236,100.339,0.00236636,0.0492739,20.931,122.803,-0.00946155,0.0,0.0
506,126.25,55.6046,60.0335,166.619,100.242,100.399,0.00233553,0.0493039,20.931,122.803,-0.0143854,0.0,0.0
508,126.75,55.6919,59.6955,164.832,100.251,100.428,0.00230499,0.0493525,20.931,122.793,-0.0161734,0.0,0.0
510,127.25,56.2612,59.7222,172.773,100.218,100.34,0.00227888,0.0494137,20.931,122.793,-0.0111904,0.0,0.0
512,127.75,55.7912,59.5872,164.582,100.225,100.344,0.00225649,0.0494633,20.931,122.743,-0.0109121,0.0,0.0
514,128.25,55.8343,59.615,168.31,100.244,100.413,0.00223287,0.0495035,20.931,122.743,-0.0154518,0.0,0.0
516,128.75,55.8593,59.6701,169.193,100.207,100.386,0.00220879,0.0495036,20.931,122.733,-0.0164348,0.0,0.0
518,129.25,56.1541,59.2414,167.611,100.241,100.407,0.00218928,0.0494746,20.931,122.733,-0.0152684,0.0,0.0
520,129.75,56.1632,59.8978,164.315,100.195,100.405,0.00216305,0.0494512,20.931,122.723,-0.0192553,0.0,0.0
522,130.25,56.1567,59.4499,166.01,100.223,100.375,0.0021418,0.0494089,20.931,122.733,-0.0139555,0.0,0.0
524,130.75,56.1194,60.0164,170.363,100.202,100.336,0.00212459,0.0493537,20.931,122.733,-0.012353,0.0,0.0
526,131.25,55.9446,59.7251,169.78,100.219,100.348,0.00211065,0.0493089,20.9312,122.703,-0.0117969,0.0,0.0
528,131.75,56.1941,59.4556,161.177,100.193,100.316,0.00209936,0.0492112,20.9313,122.723,-0.011254,0.0,0.0
530,132.25,56.0703,59.6341,164.92,100.209,100.309,0.00210196,0.0491321,20.9314,122.713,-0.00919595,0.0,0.0
532,132.75,56.0504,59.7179,169.32,100.187,100.284,0.00210405,0.049068,20.9315,122.723,-0.00892322,0.0,0.0
534,133.25,55.6974,59.4216,171.685,100.199,100.32,0.00210576,0.0490484,20.9316,122.713,-0.011108,0.0,0.0
536,133.75,55.8311,59.6616,163.657,100.172,100.28,0.00212156,0.0490617,20.9317,122.703,-0.00992089,0.0,0.0
538,134.25,56.4761,59.3147,165.069,100.192,100.322,0.00214733,0.0490644,20.9314,122.693,-0.0119067,0.0,0.0
540,134.75,56.0308,58.9923,166.569,100.162,100.286,0.00218196,0.0490592,20.9312,122.703,-0.0113929,0.0,0.0
542,135.25,55.9754,59.3157,167.913,100.19,100.294,0.00222237,0.0490389,20.931,122.703,-0.0095285,0.0,0.0
544,135.75,55.9819,58.924,166.93,100.139,100.286,0.00226818,0.0490079,20.9309,122.693,-0.0134334,0.0,0.0
546,136.25,56.0946,59.4991,164.689,100.185,100.288,0.00231704,0.0489827,20.9308,122.693,-0.00944399,0.0,0.0
548,136.75,55.7957,59.2897,167.239,100.168,100.313,0.00236487,0.048947,20.9307,122.683,-0.0132884,0.0,0.0
550,137.25,56.2624,59.5057,171.157,100.154,100.312,0.00241105,0.0489181,20.9307,122.713,-0.014498,0.0,0.0
552,137.75,55.9399,59.342,165.311,100.14,100.258,0.00244845,0.0488865,20.9306,122.713,-0.0108298,0.0,0.0
554,138.25,55.9539,59.2416,169.857,100.142,100.241,0.00247462,0.0488537,20.9306,122.723,-0.00902309,0.0,0.0
556,138.75,56.2444,59.366,173.087,100.116,100.29,0.0024921,0.0488271,20.9305,122.693,-0.0159757,0.0,0.0
558,139.25,55.6714,59.3567,168.537,100.149,100.282,0.00249663,0.0488056,20.9305,122.703,-0.0121866,0.0,0.0
560,139.75,56.3174,59.6282,170.537,100.134,100.222,0.00249163,0.0487881,20.9305,122.673,-0.00804197,0.0,0.0
562,140.25,56.0567,59.1714,172.047,100.108,100.239,0.00248758,0.0488643,20.9305,122.703,-0.0120692,0.0,0.0
564,140.75,56.0792,58.9098,165.854,100.117,100.208,0.00247645,0.048926,20.9304,122.683,-0.00828834,0.0,0.0
566,141.25,55.5839,59.5503,172.992,100.128,100.251,0.00246745,0.0489922,20.9302,122.693,-0.011293,0.0,0.0
568,141.75,55.8993,59.821,165.724,100.1,100.23,0.00246799,0.0490604,20.9301,122.693,-0.0119391,0.0,0.0
570,142.25,55.9055,59.267,167.56,100.11,100.233,0.00246843,0.0490849,20.93,122.703,-0.0112112,0.0,0.0
572,142.75,56.1328,59.396,168.436,100.116,100.258,0.00248708,0.0491047,20.9299,122.713,-0.0130562,0.0,0.0
574,143.25,55.6479,59.189,172.234,100.116,100.244,0.00250219,0.0491046,20.9298,122.693,-0.0117448,0.0,0.0
576,143.75,56.1263,59.4812,167.925,100.083,100.242,0.00252613,0.0490899,20.9297,122.673,-0.014593,0.0,0.0
578,144.25,56.2205,59.2462,165.221,100.104,100.227,0.00255605,0.049078,20.9297,122.663,-0.0112914,0.0,0.0
580,144.75,56.0715,59.3755,165.021,100.095,100.174,0.00258028,0.049053,20.9297,122.653,-0.00725024,0.0,0.0
582,145.25,55.9271,59.8322,169.038,100.1,100.144,0.00260907,0.0490328,20.9296,122.663,-0.00405603,0.0,0.0
584,145.75,56.2162,59.5032,170.258,100.087,100.171,0.00263239,0.0490083,20.9296,122.683,-0.0077391,0.0,0.0
586,146.25,55.6435,59.9042,161.776,100.071,100.18,0.00263689,0.0489812,20.9296,122.643,-0.0100175,0.0,0.0
588,146.75,56.4279,59.142,165.316,100.09,100.218,0.00264053,0.0489592,20.9296,122.683,-0.0117826,0.0,0.0
590,147.25,56.3651,59.4533,172.333,100.082,100.229,0.00261211,0.0489414,20.9296,122.713,-0.0134652,0.0,0.0
592,147.75,55.9093,59.717,166.801,100.088,100.199,0.00258908,0.0489189,20.9296,122.673,-0.0101733,0.0,0.0