File: 01_Data/PEVA/Cone/PEVA_Cone_HF75Scan_240820_R3.csv
Names,Time,Stack TC,Smoke TC,Exh Press,Smoke Comp,Smoke Meas,CO Meter,CO2 Meter,O2 Meter,Sample Mass,Ext Coeff,Start Test,Flame Verif
Chan Gain,,500,500,1,1,1,1,1,1,1,1,1.0,1.0
Offset,,0,0,0.143687,0,0,0,0,0,0,0,0.0,0.0
Gain,,1,1,25.011,11.7833,14.1275,1,1,1,1.00092,1.04852,1.0,1.0
Units,sec,C,C,Pa,%,%,%,%,%,g,/m,,
Baseline,,64.7823,69.0523,163.381,100.701,100.721,-0.000687672,0.041609,20.9415,-449.568,-0.00183189,,
2,0.25,64.3158,67.934,164.455,101.229,101.241,-0.00073364,0.050976,20.9272,116.907,-0.00114584,0.0,0.0
4,0.75,64.2581,67.4803,162.79,101.216,101.233,-0.000744381,0.0509459,20.9276,116.787,-0.001545,0.0,0.0
6,1.25,63.8783,67.5224,161.284,101.199,101.175,-0.000745743,0.0510593,20.9279,116.757,0.00220904,0.0,0.0
8,1.75,63.7683,67.8801,161.767,101.201,101.078,-0.000728502,0.051275,20.9282,116.807,0.0112271,0.0,0.0
10,2.25,63.9756,67.8134,167.36,101.176,100.934,-0.000698026,0.0514497,20.9284,116.747,0.0220195,0.0,0.0
12,2.75,63.7875,67.9604,162.856,101.181,99.9247,-0.000673341,0.0516722,20.9286,116.597,0.114878,0.0,0.0
14,3.25,63.9798,67.7966,156.438,101.168,93.1817,-0.000653346,0.0519254,20.9287,116.587,0.756321,0.0,1.0
16,3.75,64.1668,67.8621,155.976,101.152,66.3753,-0.000590679,0.0521304,20.9288,116.357,3.87488,0.0,1.0
18,4.25,64.1938,68.2546,103.342,101.163,31.667,-0.000539918,0.0524043,20.9289,115.816,10.6825,0.0,1.0
20,4.75,64.7665,69.1564,118.539,101.135,26.3231,-0.000489765,0.0526261,20.9288,115.486,12.3799,0.0,1.0
22,5.25,65.9078,71.7627,114.314,101.128,24.314,-0.000449142,0.0528981,20.9284,115.056,13.1095,0.0,1.0
24,5.75,68.2326,74.9145,128.795,101.149,21.7543,-0.0004214,0.0531185,20.9281,114.855,14.1345,0.0,1.0
26,6.25,70.2352,78.3709,129.662,101.105,19.2016,-0.000398929,0.05322,20.9279,114.525,15.2786,0.0,1.0
28,6.75,72.3644,81.3648,129.307,101.11,15.7939,-0.000391055,0.0533023,20.9277,114.305,17.076,0.0,1.0
30,7.25,73.914,84.0405,134.325,101.103,13.2113,-0.000384677,0.0532303,20.9276,114.135,18.7175,0.0,1.0
32,7.75,75.2626,85.6379,138.049,101.091,13.6951,-0.000397583,0.053172,20.9272,113.975,18.3857,0.0,1.0
34,8.25,75.6103,86.832,142.343,101.056,13.1665,-0.000408038,0.0530017,20.9267,113.895,18.7445,0.0,1.0
36,8.75,76.6809,88.5541,142.806,101.073,21.4823,-0.000435869,0.0528637,20.9263,113.774,14.2434,0.0,1.0
38,9.25,77.6187,89.0383,142.325,101.031,25.6087,-0.000458412,0.0527519,20.926,113.694,12.6236,0.0,1.0
40,9.75,78.1621,90.0811,149.138,101.061,35.1433,-0.000476671,0.0527076,20.9257,113.604,9.71522,0.0,1.0
42,10.25,78.2352,90.5406,147.445,101.03,49.3807,-0.000460888,0.0526716,20.9255,113.644,6.58412,0.0,0.0
44,10.75,78.8588,91.2704,152.675,101.045,63.807,-0.000420588,0.0582677,20.9254,113.564,4.22812,0.0,0.0
46,11.25,78.9467,91.074,153.975,101.021,72.1556,-5.95647e-05,0.0678631,20.9252,113.604,3.09502,0.0,0.0
48,11.75,79.6134,91.6954,154.215,100.994,79.1749,0.000528406,0.0940281,20.9251,113.604,2.23868,0.0,0.0
50,12.25,78.9686,91.2705,159.17,101.003,83.9687,0.00100466,0.131775,20.925,113.544,1.69879,0.0,0.0
52,12.75,79.1681,91.2395,158.06,100.973,89.0186,0.00395231,0.16235,20.9249,113.544,1.15896,0.0,0.0
54,13.25,78.9108,90.3885,158.336,100.973,90.7406,0.0063399,0.253561,20.9249,113.574,0.982713,0.0,0.0
56,13.75,78.1765,90.3307,160.572,100.954,92.6704,0.0124873,0.327441,20.9096,113.564,0.787426,0.0,0.0
58,14.25,78.3889,89.7816,157.803,100.93,93.9323,0.0174668,0.425994,20.8836,113.624,0.660861,0.0,0.0
60,14.75,77.715,89.9225,156.988,100.925,95.2413,0.0262765,0.505822,20.817,113.504,0.533121,0.0,0.0
62,15.25,77.8597,89.1469,162.505,100.914,95.7897,0.0334124,0.572834,20.7223,113.504,0.479297,0.0,0.0
64,15.75,77.3335,88.7036,160.646,100.904,97.293,0.0430931,0.629231,20.5917,113.574,0.33515,0.0,0.0
66,16.25,77.3195,88.3659,159.358,100.891,97.7604,0.0509344,0.666385,20.4375,113.544,0.289894,0.0,0.0
68,16.75,76.467,87.9636,161.042,100.864,98.6684,0.0572859,0.688806,20.3126,113.524,0.202439,0.0,0.0
70,17.25,76.8459,87.7306,163.981,100.854,99.2349,0.0644574,0.706967,20.2096,113.494,0.148896,0.0,0.0
72,17.75,76.3731,86.9385,159.663,100.848,99.6048,0.0702662,0.707513,20.1262,113.494,0.114051,0.0,0.0
74,18.25,76.6264,86.5732,159.193,100.833,99.901,0.0735066,0.695208,20.0586,113.504,0.0854293,0.0,0.0
76,18.75,75.7648,85.7994,161.065,100.838,100.077,0.0761313,0.671961,20.0039,113.494,0.0696754,0.0,0.0
78,19.25,75.5998,85.6547,164.116,100.811,100.175,0.0756186,0.641179,19.9596,113.474,0.0581523,0.0,0.0
80,19.75,75.4688,85.2005,160.503,100.825,100.22,0.0752033,0.603778,19.9237,113.464,0.0553812,0.0,0.0
82,20.25,75.4165,84.7887,162.69,100.79,100.205,0.0729808,0.562263,19.9182,113.464,0.0535839,0.0,0.0
84,20.75,75.0539,84.5183,163.35,100.804,100.246,0.0694832,0.519617,19.9351,113.464,0.0510394,0.0,0.0
86,21.25,74.7073,84.2563,163.098,100.779,100.328,0.0652223,0.476956,19.9488,113.444,0.0411903,0.0,0.0
88,21.75,74.2828,83.6916,158.672,100.782,100.407,0.0604858,0.4424,19.9598,113.424,0.0342958,0.0,0.0
90,22.25,74.2649,83.4908,162.785,100.744,100.424,0.0566493,0.405156,20.0106,113.424,0.0291964,0.0,0.0
92,22.75,74.1983,83.2492,159.826,100.766,100.519,0.0535417,0.366658,20.0517,113.464,0.0225817,0.0,0.0
94,23.25,73.7441,82.9763,161.918,100.741,100.496,0.0476255,0.335476,20.1036,113.444,0.0223815,0.0,0.0
96,23.75,73.8706,82.3714,163.75,100.748,100.515,0.0428333,0.304864,20.1623,113.474,0.0213019,0.0,0.0
98,24.25,73.5499,82.3774,160.223,100.723,100.492,0.0382461,0.275249,20.2099,113.504,0.0211346,0.0,0.0
100,24.75,73.6164,81.9565,161.82,100.733,100.556,0.0338954,0.251262,20.2724,113.484,0.0162085,0.0,0.0
102,25.25,72.9212,81.4752,160.41,100.695,100.553,0.0300446,0.226192,20.3231,113.454,0.012932,0.0,0.0
104,25.75,72.4148,80.695,166.434,100.718,100.608,0.0266313,0.205886,20.385,113.444,0.0100586,0.0,0.0
106,26.25,72.1821,80.5225,160.018,100.695,100.601,0.0251761,0.195678,20.4352,113.374,0.00859526,0.0,0.0
108,26.75,71.9593,79.589,163.776,100.713,100.676,0.0223123,0.178222,20.4666,113.394,0.00344652,0.0,0.0
110,27.25,71.6706,79.7319,160.638,100.656,100.611,0.018863,0.154993,20.5434,113.444,0.00413479,0.0,0.0
112,27.75,71.7332,79.4542,158.713,100.691,100.612,0.0178464,0.148745,20.5698,113.454,0.00724782,0.0,0.0
114,28.25,71.3026,79.5596,159.907,100.656,100.567,0.0161079,0.136624,20.6151,113.384,0.00819434,0.0,0.0
116,28.75,71.4632,79.4873,162.135,100.663,100.594,0.0144863,0.126806,20.6546,113.354,0.00629572,0.0,0.0
118,29.25,71.2265,78.9502,159.796,100.632,100.567,0.0131728,0.117857,20.6892,113.444,0.00595387,0.0,0.0
120,29.75,70.8964,78.7701,164.041,100.644,100.591,0.0119872,0.110609,20.7192,113.434,0.00479672,0.0,0.0
122,30.25,71.178,78.321,163.741,100.617,100.568,0.0110269,0.104738,20.7455,113.344,0.00453261,0.0,0.0
124,30.75,70.546,78.5698,165.015,100.614,100.574,0.0102491,0.0990969,20.7667,113.344,0.00363942,0.0,0.0
126,31.25,70.5045,78.3585,162.675,100.579,100.526,0.0095057,0.0945277,20.7854,113.354,0.00483397,0.0,0.0
128,31.75,70.1341,77.7684,164.764,100.594,100.534,0.00890358,0.0904756,20.8017,113.354,0.00553858,0.0,0.0
130,32.25,70.5781,77.7969,162.147,100.569,100.516,0.00838127,0.0868775,20.8159,113.344,0.00482083,0.0,0.0
132,32.75,70.3394,77.4086,166.494,100.576,100.521,0.0079582,0.0838163,20.8282,113.344,0.00497205,0.0,0.0
134,33.25,70.2633,77.2087,159.917,100.544,100.515,0.00761817,0.0812046,20.8382,113.264,0.00262995,0.0,0.0
136,33.75,70.2918,77.228,160.987,100.542,100.522,0.00734275,0.0789913,20.8476,113.264,0.0018736,0.0,0.0
138,34.25,70.4577,77.2982,163.527,100.538,100.499,0.00713226,0.0771105,20.8553,113.304,0.00349804,0.0,0.0
140,34.75,70.1014,76.8535,166.71,100.482,100.49,0.00697311,0.0755137,20.8632,113.344,-0.000767531,0.0,0.0
142,35.25,69.7822,76.5065,158.227,100.498,100.446,0.00685751,0.0741543,20.8697,113.284,0.00480548,0.0,0.0
144,35.75,69.5045,76.3236,161.42,100.54,100.442,0.00677585,0.0730044,20.8749,113.284,0.00901589,0.0,0.0
146,36.25,69.6055,76.1944,158.564,100.477,100.439,0.00671812,0.0720289,20.8796,113.274,0.00346187,0.0,0.0
148,36.75,69.347,75.9565,162.951,100.473,100.435,0.00667893,0.0712388,20.8838,113.254,0.00342241,0.0,0.0
150,37.25,69.8897,76.138,162.947,100.469,100.434,0.00664719,0.0704595,20.8873,113.244,0.00317251,0.0,0.0
152,37.75,69.5102,75.8834,162.703,100.463,100.424,0.00662414,0.0698283,20.8903,113.214,0.00355393,0.0,0.0
154,38.25,69.1799,75.5592,167.283,100.436,100.402,0.00660547,0.0692274,20.8929,113.294,0.00314402,0.0,0.0
156,38.75,69.1808,75.5882,155.571,100.432,100.4,0.00657969,0.0686601,20.8953,113.264,0.00290727,0.0,0.0
158,39.25,69.1495,75.2636,158.879,100.427,100.38,0.00655881,0.0681518,20.8974,113.294,0.00426302,0.0,0.0
160,39.75,69.1039,75.3709,160.315,100.392,100.362,0.00652858,0.0676961,20.8992,113.374,0.00276039,0.0,0.0
162,40.25,69.2859,74.9739,162.299,100.388,100.361,0.00650409,0.067327,20.9006,113.304,0.00240415,0.0,0.0
164,40.75,68.6307,74.6659,162.186,100.357,100.384,0.00648706,0.0669352,20.9017,113.314,-0.00252323,0.0,0.0
166,41.25,68.2833,74.8126,169.467,100.365,100.35,0.00647579,0.0665772,20.9026,113.234,0.0013222,0.0,0.0
168,41.75,68.832,75.0338,164.106,100.353,100.31,0.00647718,0.0662506,20.9034,113.254,0.00391122,0.0,0.0
170,42.25,68.6958,74.827,163.881,100.334,100.296,0.00648776,0.0659779,20.9044,113.254,0.0035342,0.0,0.0
172,42.75,68.4416,74.5251,161.916,100.328,100.32,0.00651036,0.0657497,20.9053,113.244,0.00065564,0.0,0.0
174,43.25,68.325,74.2162,161.49,100.307,100.308,0.0065413,0.0655648,20.906,113.214,-0.000117318,0.0,0.0
176,43.75,68.7929,74.2591,160.792,100.305,100.305,0.00656635,0.0653378,20.9065,113.204,7.23639e-05,0.0,0.0
178,44.25,68.0199,74.2984,157.715,100.286,100.272,0.00661052,0.0651539,20.907,113.194,0.00129698,0.0,0.0
180,44.75,68.8372,74.14,162.39,100.287,100.25,0.00666778,0.065005,20.9073,113.204,0.00337418,0.0,0.0
182,45.25,67.8258,73.7922,163.1,100.29,100.262,0.00671416,0.0648844,20.9076,113.224,0.00256309,0.0,0.0
184,45.75,67.7998,73.3655,159.995,100.25,100.248,0.00675172,0.0647403,20.9079,113.224,0.000180909,0.0,0.0
186,46.25,68.4373,73.9021,157.967,100.239,100.225,0.00681553,0.0646235,20.9079,113.254,0.00128821,0.0,0.0
188,46.75,68.2185,73.5091,168.55,100.235,100.203,0.00686722,0.0644672,20.9079,113.254,0.00293576,0.0,0.0
190,47.25,68.2085,73.4131,161.7,100.209,100.25,0.00691843,0.0643405,20.908,113.204,-0.00381746,0.0,0.0
192,47.75,68.2061,73.5635,159.745,100.206,100.189,0.00695992,0.0641298,20.9084,113.244,0.00156995,0.0,0.0
194,48.25,67.6571,73.5293,160.052,100.201,100.156,0.00699352,0.0639591,20.9087,113.234,0.00411616,0.0,0.0
196,48.75,68.2529,73.6013,157.234,100.183,100.161,0.00702074,0.0637899,20.9089,113.184,0.00202269,0.0,0.0
198,49.25,67.8586,73.8219,162.17,100.196,100.167,0.00703744,0.0636529,20.9091,113.194,0.00263105,0.0,0.0
200,49.75,68.2735,73.7465,160.473,100.181,100.158,0.00705097,0.0635264,20.9093,113.194,0.00214107,0.0,0.0
202,50.25,67.6231,73.1808,161.093,100.19,100.172,0.00706327,0.063424,20.9094,113.154,0.00159516,0.0,0.0
204,50.75,68.1632,73.8564,162.217,100.158,100.119,0.00707322,0.0633411,20.9095,113.214,0.00352653,0.0,0.0
206,51.25,68.4115,73.1238,163.307,100.158,100.145,0.00708129,0.0632739,20.9096,113.184,0.00117749,0.0,0.0
208,51.75,67.6555,73.3125,163.323,100.101,100.099,0.00711188,0.0632195,20.9096,113.174,0.000169945,0.0,0.0
210,52.25,67.7215,72.8555,162.993,100.129,100.091,0.00713665,0.0631908,20.9097,113.174,0.00349804,0.0,0.0
212,52.75,67.9631,72.9148,167.291,100.103,100.074,0.00718614,0.0631676,20.9095,113.214,0.00262557,0.0,0.0
214,53.25,67.6571,72.6548,164.391,100.134,100.088,0.00722623,0.0631244,20.9091,113.194,0.00419836,0.0,0.0
216,53.75,67.9659,73.0156,160.288,100.097,100.077,0.00728546,0.0630675,20.9088,113.194,0.00178591,0.0,0.0
218,54.25,67.8143,72.7489,159.42,100.106,100.08,0.00733343,0.0629564,20.9086,113.204,0.00236907,0.0,0.0
220,54.75,67.631,72.7343,160.275,100.072,100.04,0.00737229,0.0628078,20.9084,113.204,0.00294782,0.0,0.0
222,55.25,68.2169,72.7337,168.346,100.078,100.073,0.00741448,0.0626875,20.9082,113.164,0.000504343,0.0,0.0
224,55.75,67.7876,73.1098,160.639,100.095,100.047,0.00744865,0.0625746,20.9081,113.164,0.00436275,0.0,0.0
226,56.25,67.2159,72.4024,162.212,100.09,100.038,0.00746295,0.0624831,20.9082,113.164,0.00473206,0.0,0.0
228,56.75,67.2081,72.6682,162.281,100.039,100.001,0.00746608,0.0622893,20.9087,113.174,0.00355393,0.0,0.0
230,57.25,67.895,72.893,163.916,100.066,99.9911,0.00745848,0.0622372,20.9088,113.174,0.00687313,0.0,0.0
232,57.75,67.8991,72.768,164.544,100.023,99.9928,0.00744548,0.0621155,20.909,113.194,0.002813,0.0,0.0
234,58.25,67.5941,72.3186,157.131,100.04,100.026,0.00740751,0.0619878,20.9092,113.154,0.00124765,0.0,0.0
236,58.75,67.9092,72.6384,160.268,100.016,99.9984,0.00735206,0.0618599,20.9098,113.124,0.00160284,0.0,0.0
238,59.25,67.6245,72.8154,160.572,100.022,100.022,0.00728045,0.0617344,20.9102,113.134,2.41214e-05,0.0,0.0
240,59.75,67.5223,72.5489,165.122,99.9918,99.9928,0.00719841,0.0616164,20.9106,113.114,-9.75826e-05,0.0,0.0
242,60.25,67.058,72.4045,157.117,100.018,100.02,0.0071095,0.0615063,20.9109,113.134,-0.000253278,0.0,0.0
244,60.75,67.376,72.3184,160.997,99.9763,100.002,0.00701727,0.0614171,20.9112,113.114,-0.00235323,0.0,0.0
246,61.25,67.2729,72.611,162.258,100.015,100.004,0.00693554,0.0613448,20.9114,113.154,0.00098125,0.0,0.0
248,61.75,67.417,72.3666,161.819,99.9892,99.982,0.00686304,0.0612863,20.9116,113.114,0.000662218,0.0,0.0
250,62.25,68.1125,72.3908,157.675,99.9961,99.9428,0.00680851,0.0612852,20.9117,113.134,0.00490082,0.0,0.0
252,62.75,67.5388,72.592,157.857,99.9828,99.9437,0.00676814,0.0612518,20.9113,113.084,0.00359777,0.0,0.0
254,63.25,68.0084,72.2931,165.273,99.9777,99.9626,0.00673964,0.0611955,20.9111,113.104,0.00138907,0.0,0.0
256,63.75,67.4473,72.0238,161.9,99.9655,99.9467,0.00672035,0.0611499,20.9109,113.104,0.00173219,0.0,0.0
258,64.25,67.9658,72.2297,162.393,99.9781,99.9549,0.00670472,0.0610666,20.9107,113.144,0.00213559,0.0,0.0
260,64.75,67.2185,72.3176,162.953,99.9623,99.9338,0.00668673,0.0609992,20.9105,113.164,0.00262447,0.0,0.0
262,65.25,67.4383,72.4101,160.51,99.9572,99.9333,0.00667216,0.0609446,20.9104,113.124,0.00220136,0.0,0.0
264,65.75,67.6467,72.3444,161.992,99.9526,99.901,0.00664773,0.0608849,20.9103,113.104,0.0047474,0.0,0.0
266,66.25,67.2263,72.052,162.68,99.96875,99.91,0.00661659,0.0608366,20.9105,113.124,0.0054027,0.0,0.0
268,66.75,66.9012,71.9142,163.16,99.9547,99.9325,0.00659136,0.0607666,20.9108,113.104,0.00204899,0.0,0.0
270,67.25,66.9891,72.2349,164.366,99.9152,99.9053,0.00654163,0.0607098,20.9111,113.084,0.000908893,0.0,0.0
272,67.75,66.9539,71.846,162.799,99.9331,99.8889,0.00650135,0.0606639,20.9115,113.044,0.00407123,0.0,0.0
274,68.25,67.1413,71.8393,163.257,99.9314,99.9299,0.00646873,0.0605698,20.9121,113.064,0.000135956,0.0,0.0
276,68.75,66.9545,72.0859,160.009,99.9328,99.8906,0.00641037,0.0604425,20.9127,113.064,0.00387944,0.0,0.0
278,69.25,67.2761,71.9648,159.392,99.9288,99.8945,0.0063631,0.0602004,20.9132,113.034,0.00315827,0.0,0.0
280,69.75,67.4661,72.2328,166.143,99.9123,99.898,0.0063155,0.0600044,20.9136,113.024,0.00131891,0.0,0.0
282,70.25,66.9929,71.6827,165.452,99.9339,99.9053,0.00627695,0.0598212,20.9139,113.054,0.00262995,0.0,0.0
284,70.75,67.2619,71.8748,166.157,99.9447,99.8945,0.0062311,0.059651,20.9141,113.004,0.0046148,0.0,0.0
286,71.25,67.5172,71.6133,162.361,99.9436,99.879,0.00619395,0.0594481,20.9144,112.974,0.0059451,0.0,0.0
288,71.75,67.3664,71.5627,163.256,99.9288,99.895,0.00616387,0.0592253,20.9145,112.994,0.00311881,0.0,0.0
290,72.25,66.9808,72.1033,163.947,99.9177,99.8786,0.00610098,0.0590449,20.9147,113.004,0.00360106,0.0,0.0
292,72.75,66.9823,71.4774,160.581,99.9457,99.8893,0.00605003,0.0588176,20.9148,113.024,0.00519012,0.0,0.0
294,73.25,66.7886,71.5165,162.606,99.9378,99.8893,0.00597558,0.0585604,20.9149,113.024,0.00446247,0.0,0.0
296,73.75,67.1932,71.5968,159.227,99.9087,99.9075,0.00591528,0.0583359,20.9149,113.024,0.000114028,0.0,0.0
298,74.25,67.3929,71.8643,163.186,99.9191,99.8967,0.00585107,0.0581394,20.9152,112.974,0.00206653,0.0,0.0
300,74.75,67.0865,71.8354,161.13,99.9429,99.895,0.00578525,0.0579883,20.9157,113.004,0.00440987,0.0,0.0
302,75.25,67.0658,71.6408,159.461,99.9127,99.8958,0.00571449,0.0578733,20.916,113.024,0.00155022,0.0,0.0
304,75.75,67.3594,71.4709,166.336,99.9231,99.9217,0.00564148,0.0577558,20.9163,113.014,0.000128281,0.0,0.0
306,76.25,66.681,71.5787,160.223,99.9234,99.9036,0.00555935,0.0576387,20.9166,113.014,0.00182866,0.0,0.0
308,76.75,66.8078,71.4538,161.906,99.9152,99.895,0.00547213,0.0575438,20.9168,112.994,0.00186155,0.0,0.0
310,77.25,66.6952,71.7774,162.12,99.9486,99.882,0.00540148,0.0575441,20.9169,113.004,0.00613028,0.0,0.0
312,77.75,66.8299,71.4698,159.652,99.9285,99.9079,0.00530325,0.0575443,20.9171,113.004,0.00189553,0.0,0.0
314,78.25,66.72,71.4527,165.852,99.9029,99.901,0.00522368,0.0574982,20.9172,112.974,0.000179812,0.0,0.0
316,78.75,67.1707,71.5863,167.257,99.9479,99.9484,0.0051349,0.0574609,20.9172,112.964,-4.76947e-05,0.0,0.0
318,79.25,67.2921,71.4099,163.532,99.9353,99.8885,0.00504108,0.0573576,20.9178,112.974,0.00431014,0.0,0.0
320,79.75,66.9868,71.5325,163.863,99.9648,99.9553,0.00495953,0.0572083,20.9182,112.964,0.000872715,0.0,0.0
322,80.25,66.5578,71.3893,162.478,99.9242,99.9575,0.00488846,0.0571035,20.9185,112.954,-0.00306557,0.0,0.0
324,80.75,66.7531,71.4068,160.25,99.945,99.9902,0.0048316,0.0570333,20.9188,112.974,-0.00416024,0.0,0.0
326,81.25,66.7469,71.5821,162.432,99.9105,99.9557,0.00478616,0.0569602,20.919,112.994,-0.00416463,0.0,0.0
328,81.75,66.1508,71.3172,165.135,99.9572,99.945,0.00474728,0.0568863,20.9192,113.014,0.00112925,0.0,0.0
330,82.25,66.8325,71.5736,165.388,99.9314,99.9527,0.0047139,0.0567941,20.9193,113.014,-0.00196665,0.0,0.0
332,82.75,66.7247,71.4454,165.618,99.9691,99.9851,0.00468687,0.0566902,20.9194,113.014,-0.00146769,0.0,0.0
334,83.25,66.9417,71.2928,158.104,99.9501,99.9394,0.00463728,0.056606,20.9195,113.034,0.000983443,0.0,0.0
336,83.75,66.836,71.2766,160.003,99.9562,99.9368,0.0045971,0.0564781,20.9196,112.974,0.00178371,0.0,0.0
338,84.25,67.2027,71.2821,163.114,99.9486,99.9144,0.00453424,0.0563745,20.9198,112.964,0.00315279,0.0,0.0
340,84.75,66.8694,71.2579,165.695,99.9838,99.9376,0.00448331,0.0562744,20.92,112.914,0.00425206,0.0,0.0
342,85.25,67.3161,71.3088,162.644,99.9623,99.9273,0.00444207,0.0561787,20.9201,112.904,0.00321964,0.0,0.0
344,85.75,66.9179,71.4712,163.495,99.9759,99.9454,0.00436913,0.0561011,20.9202,112.944,0.00280971,0.0,0.0
346,86.25,66.874,71.2714,162.705,99.9472,99.976,0.00431006,0.056014,20.9204,112.904,-0.00265264,0.0,0.0
348,86.75,66.6916,71.1507,163.705,99.9817,100.011,0.00424489,0.0559216,20.9204,112.924,-0.00268883,0.0,0.0
350,87.25,66.6391,71.3424,164.95,100.005,99.9475,0.00417651,0.0558304,20.9205,112.954,0.0053249,0.0,0.0
352,87.75,66.2124,71.4573,161.452,99.9749,99.9894,0.0041066,0.055742,20.9206,112.954,-0.001335,0.0,0.0
354,88.25,66.749,70.8821,161.081,99.9562,99.9454,0.00403688,0.0556137,20.9206,112.934,0.000991117,0.0,0.0
356,88.75,66.5259,71.2504,159.54,100.027,99.9527,0.00396795,0.0554586,20.9206,112.934,0.00679972,0.0,0.0
358,89.25,67.0438,71.6487,161.116,99.9889,99.9208,0.00390092,0.0552844,20.9207,112.934,0.00626285,0.0,0.0
360,89.75,66.9517,71.6284,166.944,100.021,99.9432,0.00383832,0.0550995,20.9207,112.904,0.00711087,0.0,0.0
362,90.25,66.8603,71.2755,159.914,100.035,99.9014,0.00378016,0.0549498,20.9207,112.874,0.0122817,0.0,0.0
364,90.75,66.8496,71.3973,157.681,100.044,99.9419,0.00373304,0.0548284,20.9207,112.874,0.0094113,0.0,0.0
366,91.25,66.3731,71.073,162.855,100.028,99.9389,0.00368306,0.0547302,20.9207,112.894,0.00823487,0.0,0.0
368,91.75,66.7506,71.5531,162.016,100.029,99.8898,0.00364257,0.0546506,20.9205,112.864,0.0127919,0.0,0.0
370,92.25,66.7576,71.45,161.378,100.028,99.9083,0.00360977,0.0545245,20.9204,112.854,0.0109862,0.0,0.0
372,92.75,66.9351,71.5672,163.073,100.036,99.9691,0.0035819,0.0544224,20.9206,112.824,0.00611822,0.0,0.0
374,93.25,66.7256,71.2456,159.434,100.026,99.9294,0.00355932,0.0542935,20.9209,112.844,0.00890854,0.0,0.0
376,93.75,66.7617,70.9021,162.982,100.06,99.9437,0.00353619,0.0541891,20.9211,112.854,0.0106741,0.0,0.0
378,94.25,66.737,71.0413,162.08,100.05,99.9333,0.0035131,0.0540711,20.9214,112.854,0.0107343,0.0,0.0
380,94.75,66.7091,71.0821,163.429,100.06,99.9898,0.00347208,0.0539454,20.9214,112.874,0.00649623,0.0,0.0
382,95.25,66.7797,71.0733,166.859,100.065,99.976,0.00343886,0.0538031,20.9214,112.844,0.00816147,0.0,0.0
384,95.75,66.6747,71.0625,160.367,100.096,99.9786,0.00338572,0.0536514,20.9214,112.834,0.0107661,0.0,0.0
386,96.25,66.4637,71.1454,166.14,100.079,99.9553,0.00334268,0.0535204,20.9214,112.834,0.0113542,0.0,0.0
388,96.75,66.7055,70.7791,159.5,100.104,99.9549,0.0032892,0.053407,20.9214,112.864,0.0137072,0.0,0.0
390,97.25,66.4776,71.2514,161.183,100.104,99.9325,0.00322911,0.0533151,20.9214,112.874,0.0157378,0.0,0.0
392,97.75,66.5707,71.472,162.813,100.104,99.9622,0.00318044,0.0531791,20.9214,112.884,0.0129999,0.0,0.0
394,98.25,66.6608,70.8284,159.452,100.115,99.9644,0.00310567,0.053069,20.9214,112.844,0.0138265,0.0,0.0
396,98.75,66.8761,71.1873,168.835,100.125,99.9833,0.0030738,0.0530221,20.9214,112.874,0.0130054,0.0,0.0
398,99.25,66.4184,71.2073,162.057,100.106,99.9691,0.00301929,0.052911,20.9214,112.854,0.0126298,0.0,0.0
400,99.75,66.527,70.8231,160.568,100.13,100.016,0.00292021,0.052821,20.9216,112.864,0.010454,0.0,0.0
402,100.25,66.2924,71.1443,161.841,100.118,99.9907,0.00283996,0.0527482,20.922,112.864,0.0117035,0.0,0.0
404,100.75,66.8757,71.1733,163.242,100.154,100.007,0.00274491,0.0526891,20.9226,112.824,0.0134992,0.0,0.0
406,101.25,66.7883,71.2352,163.508,100.144,100.011,0.00266791,0.052549,20.9233,112.793,0.0121448,0.0,0.0
408,101.75,67.449,71.2018,165.33,100.138,100.051,0.00257944,0.0524354,20.9238,112.834,0.00800263,0.0,0.0
410,102.25,66.8731,71.0132,164.176,100.144,100.031,0.00250778,0.0523111,20.9242,112.773,0.0103215,0.0,0.0
412,102.75,66.7924,71.1531,164.282,100.163,100.042,0.00243017,0.0521812,20.9246,112.803,0.0110815,0.0,0.0
414,103.25,66.2917,71.3355,162.171,100.16,100.028,0.0023673,0.052068,20.9249,112.783,0.0121919,0.0,0.0
416,103.75,66.9613,71.2661,159.864,100.168,100.046,0.00230072,0.0519689,20.9251,112.763,0.0112195,0.0,0.0
418,104.25,66.8499,71.2147,162.207,100.184,100.034,0.0022468,0.0518796,20.9253,112.773,0.0137816,0.0,0.0
420,104.75,66.9284,71.4343,166.472,100.188,100.054,0.00219557,0.051799,20.9254,112.753,0.0123484,0.0,0.0
422,105.25,66.6833,71.2555,163.337,100.194,100.056,0.00214729,0.0517337,20.9256,112.733,0.0127185,0.0,0.0
424,105.75,66.6316,71.5445,158.627,100.192,100.051,0.00210818,0.0516963,20.9257,112.743,0.0129496,0.0,0.0
426,106.25,67.1796,71.1326,161.977,100.228,100.129,0.00207375,0.0516659,20.9257,112.733,0.00904546,0.0,0.0
428,106.75,66.6163,71.0802,162.041,100.197,100.121,0.0020434,0.0516009,20.9256,112.733,0.00703309,0.0,0.0
430,107.25,66.7373,71.223,162.194,100.192,100.114,0.00202499,0.0515117,20.9256,112.763,0.00713826,0.0,0.0
432,107.75,66.5758,70.894,162.315,100.233,100.107,0.00201563,0.0514395,20.9255,112.783,0.0115743,0.0,0.0
434,108.25,66.5583,70.8825,158.882,100.227,100.18,0.00201766,0.0513503,20.9254,112.773,0.00427507,0.0,0.0
436,108.75,66.1202,70.5444,163.509,100.227,100.118,0.00202795,0.051278,20.9254,112.753,0.0100104,0.0,0.0
438,109.25,66.1639,70.7529,161.822,100.239,100.122,0.00204177,0.0512502,20.9254,112.703,0.0107091,0.0,0.0
440,109.75,66.7325,70.8685,166.962,100.236,100.137,0.00205027,0.0512383,20.9256,112.743,0.00906628,0.0,0.0
442,110.25,66.5384,71.2526,160.091,100.265,100.147,0.0020648,0.0511565,20.926,112.763,0.0108274,0.0,0.0
444,110.75,66.7082,71.2729,169.643,100.242,100.133,0.00207787,0.0510903,20.9263,112.753,0.0100487,0.0,0.0
446,111.25,66.136,71.2623,163.447,100.25,100.126,0.00208846,0.0510366,20.9265,112.743,0.0113432,0.0,0.0
448,111.75,66.166,70.7684,157.364,100.239,100.14,0.00210225,0.0509932,20.9267,112.723,0.00911885,0.0,0.0
450,112.25,66.6344,71.0252,165.515,100.279,100.177,0.00211342,0.050958,20.9269,112.753,0.00940802,0.0,0.0
452,112.75,66.5678,71.0139,162.376,100.25,100.143,0.00212248,0.0508679,20.927,112.743,0.00979137,0.0,0.0
454,113.25,66.3871,71.0602,160.324,100.269,100.184,0.00210503,0.050795,20.9271,112.713,0.00777915,0.0,0.0
456,113.75,66.9662,70.4616,162.183,100.237,100.118,0.00209089,0.0507359,20.9272,112.683,0.0109402,0.0,0.0
458,114.25,66.1266,71.0193,157.841,100.281,100.166,0.00207944,0.0506314,20.9273,112.723,0.0104967,0.0,0.0
460,114.75,66.3598,70.4243,162.276,100.268,100.214,0.00204616,0.0504958,20.9273,112.703,0.00502246,0.0,0.0
462,115.25,66.7008,71.2371,163.041,100.279,100.185,0.00199761,0.0503859,20.9278,112.683,0.00859088,0.0,0.0
464,115.75,66.7358,70.8332,160.764,100.282,100.18,0.00195279,0.0503142,20.9282,112.693,0.00932258,0.0,0.0
466,116.25,66.6063,71.1029,162.011,100.309,100.21,0.00191156,0.0502561,20.9283,112.663,0.00907175,0.0,0.0
468,116.75,66.5265,70.7481,164.508,100.307,100.211,0.00187815,0.0501783,20.9283,112.603,0.00874862,0.0,0.0
470,117.25,66.9093,71.1101,161.409,100.299,100.243,0.00185501,0.0501152,20.9284,112.603,0.00512875,0.0,0.0
472,117.75,66.7972,71.0179,161.758,100.296,100.197,0.00183626,0.0500796,20.9284,112.643,0.00903232,0.0,0.0
474,118.25,66.8488,70.968,158.943,100.322,100.203,0.00181833,0.0500507,20.9284,112.653,0.010892,0.0,0.0
476,118.75,66.5775,71.2214,164.507,100.323,100.189,0.00180134,0.0500434,20.9284,112.583,0.0122576,0.0,0.0
478,119.25,66.6732,71.58,160.03,100.329,100.193,0.00177251,0.0500522,20.9284,112.543,0.0124218,0.0,0.0
480,119.75,66.5271,71.0776,163.082,100.313,100.195,0.00173559,0.0500592,20.9284,112.583,0.0107792,0.0,0.0
482,120.25,66.3191,71.5026,170.211,100.348,100.226,0.00170569,0.0500035,20.9284,112.683,0.0111614,0.0,0.0
484,120.75,66.664,70.5547,165.149,100.339,100.199,0.00162037,0.0499583,20.9285,112.643,0.0127908,0.0,0.0
486,121.25,66.5976,70.8533,165.968,100.335,100.213,0.00155126,0.0499524,20.9285,112.623,0.0111614,0.0,0.0
488,121.75,66.3821,70.7859,166.301,100.311,100.212,0.00145114,0.0499477,20.9285,112.633,0.00910461,0.0,0.0
490,122.25,66.6607,70.8358,163.844,100.355,100.235,0.00137005,0.0500361,20.9285,112.663,0.0110618,0.0,0.0
492,122.75,66.1424,71.1215,163.977,100.348,100.22,0.0013191,0.0500738,20.9285,112.653,0.0117473,0.0,0.0
494,123.25,66.5706,70.6729,165.616,100.328,100.239,0.00119482,0.0500735,20.9285,112.643,0.0081549,0.0,0.0
496,123.75,66.369,70.6222,159.132,100.36,100.213,0.0011532,0.0500589,20.9287,112.633,0.0134368,0.0,0.0
498,124.25,66.2999,70.8572,158.168,100.373,100.248,0.00108203,0.0500339,20.9291,112.633,0.0114111,0.0,0.0
500,124.75,66.5364,70.7355,162.309,100.341,100.231,0.00101921,0.0500137,20.9294,112.613,0.0101331,0.0,0.0
502,125.25,66.4961,71.0615,168.569,100.352,100.226,0.000968318,0.0500216,20.9297,112.613,0.0115962,0.0,0.0
504,125.75,66.4293,70.9935,165.75,100.314,100.278,0.000927097,0.0500498,20.9299,112.653,0.00328321,0.0,0.0
506,126.25,66.4797,70.9262,164.943,100.373,100.277,0.000893708,0.0500727,20.9301,112.673,0.00876724,0.0,0.0
508,126.75,66.6479,70.7976,159.457,100.354,100.279,0.000866663,0.0500605,20.9302,112.643,0.00689614,0.0,0.0
510,127.25,66.2296,70.7678,165.101,100.354,100.252,0.000847484,0.0500506,20.9303,112.633,0.00938721,0.0,0.0
512,127.75,66.08,70.6069,163.85,100.36,100.245,0.000834405,0.0500102,20.9304,112.633,0.0105416,0.0,0.0
514,128.25,66.7417,70.8242,161.846,100.368,100.277,0.00082381,0.0499484,20.9305,112.633,0.00834003,0.0,0.0
516,128.75,66.4937,70.946,163.156,100.364,100.246,0.000820413,0.0498983,20.9306,112.633,0.0107913,0.0,0.0
518,129.25,66.8124,71.0731,163.768,100.35,100.247,0.000817661,0.0497808,20.9306,112.643,0.00949345,0.0,0.0
520,129.75,66.6384,70.8746,162.938,100.355,100.256,0.00080636,0.0496857,20.9304,112.643,0.00909147,0.0,0.0
522,130.25,66.3855,71.1938,166.488,100.404,100.265,0.000797207,0.0496086,20.9301,112.603,0.0127415,0.0,0.0
524,130.75,66.9056,71.0753,160.783,100.374,100.244,0.000769066,0.0495462,20.9298,112.593,0.0119772,0.0,0.0
526,131.25,66.6547,71.0232,157.66,100.374,100.271,0.000746272,0.0495572,20.9295,112.533,0.00945292,0.0,0.0
528,131.75,66.5522,71.0713,163.809,100.385,100.266,0.000701917,0.049566,20.9296,112.573,0.0109161,0.0,0.0
530,132.25,66.9928,70.759,166.559,100.378,100.296,0.000665988,0.0495425,20.9298,112.633,0.0074494,0.0,0.0
532,132.75,66.8094,71.1074,159.097,100.398,100.305,0.000613599,0.0495233,20.93,112.603,0.00857664,0.0,0.0
534,133.25,66.0162,70.8738,155.678,100.384,100.325,0.000571163,0.0494755,20.9301,112.553,0.00543339,0.0,0.0
536,133.75,66.719,70.6542,166.865,100.403,100.282,0.00052386,0.0494076,20.9303,112.543,0.0110935,0.0,0.0
538,134.25,66.6538,70.7976,162.061,100.386,100.357,0.000473907,0.0493527,20.9308,112.553,0.00270668,0.0,0.0
540,134.75,66.202,70.8355,163.167,100.387,100.319,0.000432085,0.0494311,20.9313,112.573,0.00621136,0.0,0.0
542,135.25,66.7406,71.7007,162.873,100.399,100.277,0.000396985,0.0495028,20.9316,112.593,0.0111669,0.0,0.0
544,135.75,66.7667,71.1481,160.161,100.4,100.316,0.000368554,0.0495681,20.9319,112.583,0.00768056,0.0,0.0
546,136.25,66.2804,70.9493,165.188,100.411,100.327,0.000358452,0.049621,20.9322,112.563,0.00774629,0.0,0.0
548,136.75,66.6241,70.4734,168.881,100.396,100.316,0.00035027,0.0496639,20.9323,112.573,0.00734423,0.0,0.0
550,137.25,66.5682,70.8105,162.387,100.412,100.294,0.000343642,0.0496371,20.9325,112.503,0.0108165,0.0,0.0
552,137.75,66.4449,71.2664,158.581,100.403,100.307,0.000351204,0.0496154,20.9327,112.463,0.0088001,0.0,0.0
554,138.25,66.4821,71.079,157.93,100.417,100.334,0.000359942,0.0495903,20.9331,112.533,0.00759511,0.0,0.0
556,138.75,66.6583,70.957,163.123,100.4,100.366,0.000366994,0.0495775,20.9332,112.483,0.00308921,0.0,0.0
558,139.25,66.5348,70.655,162.724,100.427,100.351,0.000372707,0.0495428,20.9334,112.483,0.00694982,0.0,0.0
560,139.75,66.1428,69.7822,162.935,100.407,100.386,0.000382508,0.0494929,20.9333,112.483,0.00200405,0.0,0.0
562,140.25,66.0887,70.6409,159.114,100.436,100.353,0.000386686,0.0494716,20.9331,112.443,0.00760168,0.0,0.0
564,140.75,66.2619,70.7658,158.658,100.443,100.371,0.000393831,0.0494514,20.9328,112.503,0.00656745,0.0,0.0
566,141.25,66.0989,70.8994,160.885,100.396,100.338,0.000403023,0.0494496,20.9326,112.523,0.00533477,0.0,0.0
568,141.75,66.3854,70.4691,165.308,100.422,100.374,0.000413533,0.0494481,20.9324,112.453,0.0043485,0.0,0.0
570,142.25,66.6216,70.7924,155.751,100.433,100.366,0.000428856,0.0494009,20.9323,112.423,0.00615986,0.0,0.0
572,142.75,66.1916,70.1583,163.581,100.411,100.399,0.000447398,0.0493625,20.9321,112.443,0.00103607,0.0,0.0
574,143.25,66.3127,70.5574,160.649,100.407,100.343,0.000465142,0.0493161,20.9321,112.443,0.00587497,0.0,0.0
576,143.75,66.457,71.216,162.756,100.427,100.333,0.000481967,0.0492785,20.932,112.423,0.00852954,0.0,0.0
578,144.25,66.345,70.6551,166.195,100.45,100.413,0.000495595,0.0492788,20.9319,112.443,0.00343447,0.0,0.0