File: 01_Data/PEVA/Cone/PEVA_Cone_HF25Scan_240820_R1.csv
Names,Time,Stack TC,Smoke TC,Exh Press,Smoke Comp,Smoke Meas,CO Meter,CO2 Meter,O2 Meter,Sample Mass,Ext Coeff,Start Test,Flame Verif
Chan Gain,,500,500,1,1,1,1,1,1,1,1,1.0,1.0
Offset,,0,0,0.143687,0,0,0,0,0,0,0,0.0,0.0
Gain,,1,1,25.011,11.7176,14.1531,1,1,1,1.00092,1.04852,1.0,1.0
Units,sec,C,C,Pa,%,%,%,%,%,g,/m,,
Baseline,,44.0085,46.1634,174.982,99.1987,99.9398,-0.000345495,0.0430369,20.9379,-446.898,-0.0684583,,
2,0.25,44.2592,46.7965,169.659,99.1363,99.8053,-0.000783471,0.052102,20.929,130.219,-0.061858,0.0,0.0
4,0.75,43.7346,46.352,171.886,99.1514,99.8287,-0.000781261,0.0518469,20.9293,130.31,-0.0626142,0.0,0.0
6,1.25,44.0658,46.3085,174.049,99.151,99.823,-0.000767921,0.0516476,20.9295,130.38,-0.0621296,0.0,0.0
8,1.75,43.3137,46.278,176.049,99.1403,99.8179,-0.000756763,0.0515626,20.9296,130.36,-0.0626473,0.0,0.0
10,2.25,43.6836,45.8521,172.249,99.1514,99.8053,-0.000737683,0.0515558,20.9297,130.29,-0.0604651,0.0,0.0
12,2.75,43.5958,45.4769,173.12,99.1667,99.8192,-0.000706738,0.0515502,20.9299,130.26,-0.0603117,0.0,0.0
14,3.25,43.946,45.8615,174.834,99.1685,99.8243,-0.000681673,0.0517149,20.93,130.27,-0.060624,0.0,0.0
16,3.75,44.0251,45.521,173.282,99.175,99.8127,-0.00066137,0.0518484,20.9301,130.25,-0.0589521,0.0,0.0
18,4.25,43.3512,46.0158,173.536,99.1489,99.8347,-0.000644925,0.0519565,20.9301,130.229,-0.063403,0.0,0.0
20,4.75,43.5787,46.1774,171.333,99.1639,99.8239,-0.000639349,0.052044,20.9302,130.209,-0.0610147,0.0,0.0
22,5.25,43.4623,45.7603,174.601,99.1517,99.7928,-0.000634833,0.0520583,20.9302,130.209,-0.0592771,0.0,0.0
24,5.75,43.6314,45.996,174.903,99.1521,99.7932,-0.000638919,0.0520188,20.9303,130.24,-0.0592837,0.0,0.0
26,6.25,43.2579,46.1796,174.617,99.1599,99.7963,-0.00064223,0.0519868,20.9303,130.27,-0.0588329,0.0,0.0
28,6.75,43.8715,45.6915,171.065,99.151,99.7401,-0.000644911,0.0516993,20.9303,130.24,-0.0544852,0.0,0.0
30,7.25,43.4833,45.9059,175.268,99.166,99.7285,-0.000662573,0.0514665,20.9303,130.229,-0.0520172,0.0,0.0
32,7.75,43.7065,45.7198,175.226,99.1721,99.6766,-0.000676879,0.0511323,20.9304,130.24,-0.0466714,0.0,0.0
34,8.25,43.5746,45.9758,175.876,99.1585,99.6542,-0.000700085,0.0507304,20.9304,130.229,-0.0458593,0.0,0.0
36,8.75,43.6487,46.3795,170.614,99.1639,99.7099,-0.000718881,0.050405,20.9304,130.26,-0.0505028,0.0,0.0
38,9.25,43.6734,46.0866,177.883,99.1868,99.554,-0.000734781,0.0499243,20.9304,130.24,-0.0339862,0.0,0.0
40,9.75,43.8596,45.6491,177.139,99.1571,99.5134,-0.000748267,0.0495349,20.9308,130.25,-0.0329881,0.0,0.0
42,10.25,43.6782,45.9272,172.789,99.1775,99.3358,-0.000755016,0.0488221,20.9314,130.26,-0.0146753,0.0,0.0
44,10.75,43.6711,45.9566,173.575,99.1835,99.227,-0.000751258,0.0486304,20.9314,130.24,-0.00402751,0.0,0.0
46,11.25,43.7448,46.0089,171.077,99.1907,99.1972,-0.000744832,0.0482216,20.9315,130.25,-0.000601958,0.0,0.0
48,11.75,43.761,45.8138,179.36,99.1746,99.0365,-0.000722847,0.0478178,20.9318,130.219,0.012816,0.0,0.0
50,12.25,43.3761,45.9008,178.294,99.1907,98.9532,-0.00070504,0.0475716,20.9323,130.219,0.0220523,0.0,0.0
52,12.75,43.4334,46.218,174.948,99.181,99.0136,-0.000675125,0.0474449,20.9327,130.219,0.0155386,0.0,0.0
54,13.25,43.8719,45.7572,174.818,99.19,98.0288,-0.000650895,0.0474797,20.933,130.34,0.108302,0.0,1.0
56,13.75,43.9741,46.2652,168.599,99.1886,89.9364,-0.000631268,0.0476316,20.9332,130.089,0.900617,0.0,1.0
58,14.25,44.1941,46.0972,159.085,99.1943,75.4079,-0.000596008,0.0477547,20.9334,129.939,2.52166,0.0,1.0
60,14.75,44.0418,46.3417,165.082,99.1871,67.3172,-0.000565409,0.0479773,20.9336,129.749,3.56488,0.0,1.0
62,15.25,44.0382,46.715,148.545,99.2014,52.3378,-0.00053879,0.0481577,20.9337,129.539,5.88119,0.0,1.0
64,15.75,44.1891,46.7896,150.63,99.2168,42.3925,-0.000517229,0.0482269,20.9338,129.339,7.82098,0.0,1.0
66,16.25,44.9804,47.7433,146.653,99.2129,42.7535,-0.000504927,0.048283,20.9339,129.189,7.7426,0.0,1.0
68,16.75,45.5539,48.8191,147.289,99.2247,48.933,-0.000499683,0.0481936,20.9339,129.028,6.50203,0.0,1.0
70,17.25,46.6573,50.4089,146.107,99.2286,51.2667,-0.000492753,0.0480409,20.934,128.918,6.0739,0.0,1.0
72,17.75,47.5291,51.4199,165.296,99.2243,54.8248,-0.000488974,0.0478687,20.934,128.738,5.45633,0.0,1.0
74,18.25,48.2569,52.966,153.768,99.2343,56.4367,-0.000484622,0.0476855,20.9341,128.628,5.19073,0.0,1.0
76,18.75,48.8804,54.0684,154.107,99.2497,55.4183,-0.000481098,0.0475372,20.9341,128.538,5.35965,0.0,1.0
78,19.25,49.8729,54.6548,157.571,99.2136,58.5406,-0.000478243,0.0475545,20.9341,128.398,4.85218,0.0,1.0
80,19.75,50.2337,55.8712,157.441,99.235,55.1626,-0.000470495,0.0476922,20.9342,128.298,5.40083,0.0,1.0
82,20.25,50.9962,56.4217,160.107,99.2422,51.2023,-0.000459328,0.0478037,20.9344,128.238,6.08671,0.0,1.0
84,20.75,51.4074,57.0852,159.446,99.2182,53.0514,-0.000450283,0.0496801,20.9346,128.148,5.7582,0.0,1.0
86,21.25,51.975,58.0348,166.993,99.2275,50.9786,-0.000442956,0.0528074,20.9347,128.078,6.12563,0.0,1.0
88,21.75,52.5836,58.138,160.949,99.2497,44.8013,-0.000271701,0.0553405,20.935,128.007,7.31572,0.0,1.0
90,22.25,52.6315,58.4544,159.009,99.2508,44.8337,-0.000132985,0.0721852,20.9352,127.917,7.30917,0.0,1.0
92,22.75,52.874,59.4092,164.637,99.2697,44.6026,0.000629097,0.0858293,20.9352,127.827,7.35845,0.0,1.0
94,23.25,53.2001,59.313,160.73,99.2701,46.0573,0.00124638,0.107385,20.9349,127.777,7.0633,0.0,0.0
96,23.75,53.3208,59.5831,161.057,99.2594,44.6453,0.00311649,0.134298,20.9308,127.727,7.34868,0.0,0.0
98,24.25,53.6492,60.0264,166.429,99.2883,47.5198,0.00463128,0.177827,20.9238,127.657,6.77747,0.0,0.0
100,24.75,53.1637,60.0574,164.015,99.2672,50.9185,0.00774273,0.213086,20.8976,127.607,6.14014,0.0,0.0
102,25.25,53.8357,60.4966,167.253,99.283,52.7136,0.010263,0.256088,20.8578,127.557,5.82294,0.0,0.0
104,25.75,53.8522,60.8237,165.937,99.2797,54.9514,0.0143172,0.290919,20.8017,127.557,5.44026,0.0,0.0
106,26.25,54.1094,61.1313,167.599,99.279,59.09,0.0176011,0.32423,20.7348,127.517,4.77233,0.0,0.0
108,26.75,54.2373,60.6963,166.626,99.2812,55.4895,0.0219139,0.351212,20.6656,127.487,5.35075,0.0,0.0
110,27.25,54.3328,61.1288,165.43,99.2472,62.8343,0.0254073,0.373068,20.5961,127.427,4.20429,0.0,0.0
112,27.75,54.0589,61.0125,169.967,99.259,66.6141,0.0282369,0.388018,20.5398,127.397,3.66812,0.0,0.0
114,28.25,53.8421,61.1555,166.333,99.2626,70.3238,0.0318426,0.400127,20.4942,127.377,3.16999,0.0,0.0
116,28.75,54.2122,61.1587,169.387,99.2626,74.7873,0.0347633,0.400964,20.4573,127.307,2.604,0.0,0.0
118,29.25,54.4654,61.3397,168.184,99.2508,78.0621,0.0371274,0.401642,20.4274,127.277,2.20874,0.0,0.0
120,29.75,54.5648,61.7399,169.061,99.2926,78.5553,0.0390423,0.395655,20.4031,127.287,2.15468,0.0,0.0
122,30.25,54.6305,61.6313,167.994,99.2808,81.3365,0.0402758,0.390806,20.3835,127.287,1.83359,0.0,0.0
124,30.75,54.421,60.8912,163.901,99.2797,79.474,0.0409889,0.383153,20.3707,127.257,2.04655,0.0,0.0
126,31.25,54.4596,61.4089,167.201,99.2808,83.6131,0.0411442,0.373601,20.3604,127.247,1.57969,0.0,0.0
128,31.75,53.8899,61.2135,167.349,99.269,85.2518,0.0408899,0.365864,20.3598,127.217,1.40008,0.0,0.0
130,32.25,54.1987,60.6793,170.27,99.279,87.7202,0.0406839,0.354456,20.3665,127.217,1.13848,0.0,0.0
132,32.75,53.8512,60.6098,171.583,99.2751,89.6004,0.0395185,0.345216,20.3766,127.217,0.943068,0.0,0.0
134,33.25,53.9994,60.5472,172.088,99.2551,90.4003,0.0385746,0.334323,20.3889,127.207,0.859465,0.0,0.0
136,33.75,53.9192,60.5215,174.499,99.2358,91.3285,0.0370893,0.325499,20.4032,127.207,0.76372,0.0,0.0
138,34.25,53.738,60.0083,172.978,99.1356,91.7686,0.0358862,0.316542,20.4185,127.207,0.710218,0.0,0.0
140,34.75,53.671,59.9385,172.733,99.1886,93.0229,0.0349117,0.307658,20.4309,127.197,0.590267,0.0,0.0
142,35.25,53.6991,59.9832,173.522,99.1814,92.7633,0.0332323,0.300461,20.4476,127.177,0.615306,0.0,0.0
144,35.75,53.1831,59.7881,174.993,99.1592,94.2902,0.031872,0.290992,20.4612,127.147,0.463096,0.0,0.0
146,36.25,53.159,59.4852,177.091,99.1349,92.873,0.030163,0.283323,20.4749,127.147,0.600123,0.0,0.0
148,36.75,52.8977,58.7718,172.335,99.1882,94.2496,0.0287786,0.273294,20.4886,127.157,0.469742,0.0,0.0
150,37.25,52.8286,59.026,170.441,99.2093,94.8076,0.0270399,0.265171,20.5023,127.137,0.417402,0.0,0.0
152,37.75,52.7546,58.8115,171.758,99.2189,95.0331,0.0256314,0.254719,20.5157,127.137,0.396451,0.0,0.0
154,38.25,52.2055,58.0445,174.784,99.2504,94.7044,0.0239152,0.246254,20.531,127.157,0.431235,0.0,0.0
156,38.75,52.1585,58.0503,172.773,99.274,96.3379,0.022525,0.235948,20.5473,127.177,0.276129,0.0,0.0
158,39.25,52.1949,58.1513,172.09,99.298,96.5482,0.0208985,0.2276,20.5648,127.177,0.258289,0.0,0.0
160,39.75,52.1547,57.9911,171.895,99.3184,97.3792,0.019581,0.218878,20.5828,127.157,0.181351,0.0,0.0
162,40.25,52.0997,57.5455,174.762,99.3151,97.7585,0.0180479,0.21005,20.5973,127.107,0.145304,0.0,0.0
164,40.75,51.7629,57.4691,176.168,99.3366,98.0124,0.016806,0.202899,20.6162,127.097,0.123427,0.0,0.0
166,41.25,51.0827,56.7564,172.034,99.3359,98.2617,0.0158001,0.192651,20.6315,127.137,0.100004,0.0,0.0
168,41.75,51.2443,57.0917,179.007,99.3741,98.4975,0.0146846,0.18435,20.6439,127.107,0.0814993,0.0,0.0
170,42.25,51.3779,56.561,170.001,99.3863,98.9644,0.0135105,0.177626,20.6539,127.107,0.0391282,0.0,0.0
172,42.75,51.3126,56.499,174.169,99.3799,98.9454,0.0125594,0.172179,20.6679,127.117,0.0402996,0.0,0.0
174,43.25,50.628,55.9623,170.212,99.3706,98.9903,0.0117891,0.162509,20.6791,127.097,0.0352636,0.0,0.0
176,43.75,50.7284,55.937,175.021,99.377,99.3384,0.0107304,0.154675,20.6909,127.157,0.00357147,0.0,0.0
178,44.25,50.657,55.8131,179.711,99.3659,99.3708,0.00987294,0.146325,20.7027,127.127,-0.000453384,0.0,0.0
180,44.75,50.6951,55.6011,178.381,99.4017,99.7077,0.00897404,0.139561,20.7161,127.127,-0.0282737,0.0,0.0
182,45.25,50.2282,55.2433,174.742,99.4174,99.7898,0.00824593,0.13218,20.7302,127.127,-0.0343857,0.0,0.0
184,45.75,49.7576,55.1878,175.933,99.4117,99.8986,0.00749765,0.126202,20.7417,127.127,-0.0449414,0.0,0.0
186,46.25,50.241,54.4887,173.098,99.4113,99.8826,0.00689155,0.12042,20.7577,127.107,-0.0435026,0.0,0.0
188,46.75,50.2342,54.583,177.156,99.4292,99.9336,0.0063348,0.114891,20.7706,127.107,-0.0465408,0.0,0.0
190,47.25,50.0311,54.6296,171.878,99.4024,99.9453,0.00582461,0.109683,20.7856,127.117,-0.0500949,0.0,0.0
192,47.75,49.5457,54.0465,173.674,99.4281,100.036,0.00532341,0.104806,20.7988,127.137,-0.0560565,0.0,0.0
194,48.25,48.7747,52.9441,175.846,99.4253,100.045,0.00491743,0.100856,20.8106,127.097,-0.0571156,0.0,0.0
196,48.75,48.7745,53.4661,170.051,99.4671,100.103,0.0045886,0.0961795,20.8202,127.087,-0.0586442,0.0,0.0
198,49.25,48.3898,52.8489,175.814,99.4403,100.109,0.00419265,0.0923914,20.8293,127.097,-0.0616008,0.0,0.0
200,49.75,48.3376,52.5314,169.57,99.4718,100.125,0.00387193,0.0881289,20.838,127.127,-0.0601588,0.0,0.0
202,50.25,48.1005,52.6122,172.244,99.4707,100.118,0.00352469,0.0846764,20.8462,127.137,-0.0597025,0.0,0.0
204,50.75,48.1921,52.6914,176.229,99.4807,100.153,0.00324342,0.08144,20.8539,127.107,-0.0619507,0.0,0.0
206,51.25,48.2994,51.9525,174.884,99.4682,100.154,0.00296488,0.0784227,20.8601,127.107,-0.0631871,0.0,0.0
208,51.75,48.3218,52.1017,174.747,99.4861,100.143,0.00269361,0.0755081,20.8665,127.107,-0.0605429,0.0,0.0
210,52.25,48.0806,51.9279,173.025,99.5025,100.153,0.00243558,0.0727238,20.8716,127.127,-0.0599734,0.0,0.0
212,52.75,47.7663,52.2505,179.46,99.4914,100.165,0.0021921,0.0704684,20.8782,127.127,-0.0620694,0.0,0.0
214,53.25,47.7899,52.2409,173.709,99.495,100.164,0.00199489,0.0680092,20.8835,127.127,-0.0616593,0.0,0.0
216,53.75,47.4796,51.4619,174.081,99.4961,100.18,0.00176122,0.0660171,20.8883,127.107,-0.0629879,0.0,0.0
218,54.25,47.2758,51.304,171.524,99.49,100.166,0.00157194,0.0638334,20.8926,127.107,-0.0623205,0.0,0.0
220,54.75,47.866,51.4373,172.031,99.495,100.118,0.00135649,0.0620647,20.897,127.117,-0.0574548,0.0,0.0
222,55.25,47.6277,51.1665,173.068,99.52,100.157,0.00118197,0.0604051,20.9014,127.107,-0.058711,0.0,0.0
224,55.75,47.591,51.2585,174.584,99.5193,100.209,0.0010406,0.0588566,20.905,127.117,-0.0635354,0.0,0.0
226,56.25,47.587,50.8176,175.732,99.5004,100.178,0.000876973,0.0576024,20.9088,127.107,-0.0624326,0.0,0.0
228,56.75,47.4576,51.1151,180.442,99.5529,100.22,0.000744432,0.0562941,20.9119,127.107,-0.0613806,0.0,0.0
230,57.25,47.2776,51.0594,179.959,99.5394,100.206,0.00061899,0.0552344,20.9148,127.137,-0.0613674,0.0,0.0
232,57.75,46.986,50.5452,182.406,99.5386,100.23,0.000517383,0.0541762,20.9176,127.127,-0.0636541,0.0,0.0
234,58.25,46.202,50.5171,177.401,99.5444,100.298,0.000429915,0.053319,20.9199,127.107,-0.0693848,0.0,0.0
236,58.75,46.8516,50.3021,173.256,99.5676,100.243,0.000359066,0.0524555,20.9217,127.057,-0.0622063,0.0,0.0
238,59.25,47.2303,50.2123,172.595,99.5665,100.237,0.000297806,0.0517562,20.9235,127.097,-0.0617504,0.0,0.0
240,59.75,46.4887,50.0101,169.123,99.5808,100.244,0.000248185,0.0510821,20.9251,127.097,-0.0610236,0.0,0.0
242,60.25,46.4898,49.9083,172.303,99.5801,100.26,0.000201537,0.0505361,20.9266,127.107,-0.062596,0.0,0.0
244,60.75,46.964,50.0829,171.587,99.5841,100.243,0.000163752,0.0499248,20.9281,127.117,-0.0606869,0.0,0.0
246,61.25,46.1402,49.6595,168.088,99.5787,100.258,0.000131856,0.0494297,20.9293,127.107,-0.0625689,0.0,0.0
248,61.75,46.2321,49.7512,173.106,99.5955,100.263,0.000106019,0.0490286,20.9302,127.067,-0.0614529,0.0,0.0
250,62.25,46.3481,49.4324,173.789,99.583,100.288,8.5092e-05,0.0483659,20.931,127.057,-0.0649062,0.0,0.0
252,62.75,45.9505,49.7989,174.157,99.6098,100.27,6.6782e-05,0.0478291,20.9316,127.107,-0.0607664,0.0,0.0
254,63.25,46.4305,49.5267,168.58,99.5905,100.264,5.07278e-05,0.0473457,20.9321,127.087,-0.0620346,0.0,0.0
256,63.75,46.1236,49.319,174.544,99.6012,100.269,3.36476e-05,0.0469106,20.9325,127.067,-0.0614789,0.0,0.0
258,64.25,46.3444,49.3454,173.02,99.6019,100.27,1.61439e-05,0.0465582,20.9333,127.067,-0.0614529,0.0,0.0
260,64.75,46.063,49.0436,175.019,99.6098,100.294,1.96595e-06,0.0461653,20.9344,127.057,-0.0629448,0.0,0.0
262,65.25,46.0953,49.2877,173.879,99.628,100.288,-1.98452e-05,0.045847,20.9353,127.047,-0.0607063,0.0,0.0
264,65.75,45.5961,48.9459,170.489,99.6127,100.296,-3.75122e-05,0.0455892,20.936,127.057,-0.0629183,0.0,0.0
266,66.25,46.4726,49.0522,175.826,99.6216,100.288,-5.18224e-05,0.0452116,20.9365,127.067,-0.0613403,0.0,0.0
268,66.75,45.6302,48.9481,173.032,99.6316,100.283,-9.0521e-05,0.0449057,20.9371,127.087,-0.0599403,0.0,0.0
270,67.25,45.5426,48.5364,169.684,99.6252,100.312,-0.000121867,0.0446733,20.9375,127.077,-0.0631485,0.0,0.0
272,67.75,45.972,48.9376,169.141,99.6445,100.32,-0.000152421,0.044485,20.9379,127.087,-0.0621583,0.0,0.0
274,68.25,46.0227,48.5715,171.371,99.6448,100.318,-0.00017717,0.0442711,20.9382,127.067,-0.0618878,0.0,0.0
276,68.75,46.0229,49.0125,172.613,99.6298,100.325,-0.00020367,0.0440979,20.9384,127.057,-0.0639081,0.0,0.0
278,69.25,45.6358,48.3735,169.983,99.6388,100.326,-0.000225136,0.0439414,20.9386,127.057,-0.0632015,0.0,0.0
280,69.75,45.8204,48.4924,176.934,99.647,100.298,-0.000242523,0.0438002,20.9388,127.057,-0.059868,0.0,0.0
282,70.25,45.6879,48.6664,176.392,99.6631,100.356,-0.000268223,0.0436857,20.9391,127.077,-0.0636889,0.0,0.0
284,70.75,46.0064,48.2261,171.062,99.6409,100.384,-0.000289041,0.043501,20.9396,127.077,-0.0683469,0.0,0.0
286,71.25,45.8123,48.5208,171.644,99.6388,100.35,-0.000309776,0.0433514,20.94,127.077,-0.0653788,0.0,0.0
288,71.75,45.3649,48.567,173.798,99.6699,100.344,-0.000326571,0.0431979,20.9404,127.077,-0.0619921,0.0,0.0
290,72.25,45.7991,47.7344,176.529,99.6706,100.381,-0.000337458,0.0430445,20.9406,127.067,-0.0653313,0.0,0.0
292,72.75,45.5065,48.5809,176.226,99.6574,100.384,-0.000343831,0.0429606,20.9408,127.107,-0.0668288,0.0,0.0
294,73.25,45.1523,48.1958,172.446,99.6974,100.366,-0.00034084,0.042929,20.941,127.077,-0.0614314,0.0,0.0
296,73.75,45.3952,48.4213,174.07,99.6763,100.385,-0.000331079,0.0429034,20.9412,127.067,-0.0651596,0.0,0.0
298,74.25,45.7161,47.7273,174.612,99.677,100.383,-0.000323173,0.0428826,20.9413,127.077,-0.0649349,0.0,0.0
300,74.75,45.5816,47.7401,170.006,99.667,100.394,-0.000301279,0.0428658,20.9414,127.057,-0.0668873,0.0,0.0
302,75.25,44.9926,47.9469,172.243,99.6913,100.392,-0.000283545,0.0427755,20.9415,127.067,-0.0644463,0.0,0.0
304,75.75,45.3615,48.0285,172.522,99.6684,100.38,-0.000261435,0.0427024,20.9415,127.057,-0.06545,0.0,0.0
306,76.25,45.4611,47.7413,177.691,99.6956,100.398,-0.000243526,0.0426512,20.9416,127.027,-0.0646048,0.0,0.0
308,76.75,45.6109,48.1317,173.675,99.6813,100.385,-0.00022902,0.042617,20.9416,127.027,-0.0646572,0.0,0.0
310,77.25,45.3382,47.5822,173.051,99.7203,100.407,-0.000219852,0.0425893,20.9416,127.037,-0.063159,0.0,0.0
312,77.75,45.203,47.5777,173.527,99.6674,100.386,-0.000212426,0.0424902,20.9417,127.057,-0.0660629,0.0,0.0
314,78.25,44.9386,47.3379,170.613,99.7232,100.431,-0.000216738,0.0424099,20.9417,127.037,-0.0650713,0.0,0.0
316,78.75,45.3722,48.2741,174.439,99.7342,100.401,-0.000227024,0.0423142,20.9417,127.037,-0.0612405,0.0,0.0
318,79.25,44.8842,47.6691,175.387,99.7446,100.435,-0.00024147,0.0422367,20.9417,127.047,-0.0634085,0.0,0.0
320,79.75,44.9617,47.5097,171.789,99.7418,100.432,-0.000258607,0.0421739,20.9417,127.017,-0.0633958,0.0,0.0
322,80.25,45.5035,47.6501,176.829,99.7253,100.446,-0.00027738,0.0421231,20.9417,127.017,-0.0662175,0.0,0.0
324,80.75,45.2741,47.3012,174.213,99.7249,100.428,-0.000292585,0.0421125,20.9417,126.997,-0.064629,0.0,0.0
326,81.25,45.112,47.7022,182.082,99.7772,100.477,-0.000313938,0.042104,20.9417,127.027,-0.064284,0.0,0.0
328,81.75,44.9355,47.6702,171.966,99.731,100.448,-0.000331234,0.0420664,20.9417,127.027,-0.0659276,0.0,0.0
330,82.25,44.5145,47.1301,172.064,99.7578,100.467,-0.000349115,0.042036,20.9418,127.007,-0.0651944,0.0,0.0
332,82.75,45.2826,47.5691,173.209,99.7507,100.435,-0.000363599,0.0420113,20.9418,126.997,-0.0628885,0.0,0.0
334,83.25,45.2245,47.2775,170.102,99.76,100.474,-0.000375331,0.0420067,20.9418,126.987,-0.06555,0.0,0.0
336,83.75,44.8514,47.3694,175.225,99.7557,100.458,-0.000368053,0.0420029,20.9418,127.007,-0.0644827,0.0,0.0
338,84.25,45.0611,47.1841,178.285,99.785,100.472,-0.000362158,0.0419386,20.9418,127.007,-0.0630845,0.0,0.0
340,84.75,45.1191,46.4407,174.265,99.7922,100.476,-0.000344475,0.0418864,20.9418,127.017,-0.0627814,0.0,0.0
342,85.25,44.6169,47.0306,175.928,99.7797,100.488,-0.000330151,0.0418441,20.9418,127.027,-0.0650415,0.0,0.0
344,85.75,45.1979,47.0884,175.067,99.77,100.474,-0.000319229,0.0418099,20.9418,127.057,-0.0646274,0.0,0.0
346,86.25,44.3974,47.3851,175.485,99.7822,100.5,-0.000310993,0.0418145,20.9418,127.027,-0.0659182,0.0,0.0
348,86.75,44.9776,47.2373,170.969,99.7736,100.502,-0.000310437,0.0418473,20.9418,127.047,-0.0669072,0.0,0.0
350,87.25,44.7511,47.2009,173.881,99.8129,100.499,-0.000315489,0.0418738,20.9418,127.057,-0.0630442,0.0,0.0
352,87.75,44.228,46.5666,176.238,99.7968,100.502,-0.000319581,0.0418646,20.9418,127.047,-0.0647245,0.0,0.0
354,88.25,44.9771,47.3401,178.373,99.8086,100.513,-0.000320314,0.0418572,20.9418,127.047,-0.0646655,0.0,0.0
356,88.75,45.0846,46.8207,173.933,99.7864,100.506,-0.000320908,0.0418512,20.9418,127.027,-0.0660762,0.0,0.0
358,89.25,44.5104,47.1428,174.162,99.8118,100.519,-0.000321389,0.0418544,20.9418,127.037,-0.0649614,0.0,0.0
360,89.75,44.9336,47.547,174.07,99.8068,100.525,-0.00027789,0.0418642,20.942,127.027,-0.0659365,0.0,0.0
362,90.25,44.6413,47.0899,171.278,99.8354,100.554,-0.000242656,0.0419045,20.9423,127.017,-0.0659475,0.0,0.0
364,90.75,45.1344,46.834,173.904,99.8111,100.523,-0.000214116,0.0419662,20.9426,127.027,-0.0653827,0.0,0.0
366,91.25,44.8067,47.1305,168.648,99.8401,100.531,-0.000169054,0.0420161,20.9428,127.037,-0.0633858,0.0,0.0
368,91.75,44.4982,46.645,173.855,99.8283,100.538,-0.000132554,0.0420566,20.943,127.027,-0.0651447,0.0,0.0
370,92.25,44.4911,47.0827,175.866,99.8333,100.548,-0.000124934,0.0420894,20.9431,127.017,-0.0656322,0.0,0.0
372,92.75,44.5413,47.0797,175.022,99.8136,100.531,-0.000118761,0.0420917,20.9432,127.027,-0.0658636,0.0,0.0
374,93.25,44.7286,47.0039,175.845,99.8465,100.543,-0.000126669,0.0420718,20.9433,127.017,-0.0639384,0.0,0.0
376,93.75,45.1154,46.9744,175.398,99.8419,100.554,-0.000144693,0.0420234,20.9434,126.977,-0.0653948,0.0,0.0
378,94.25,45.3171,47.0756,170.405,99.8619,100.585,-0.000150339,0.0419874,20.9435,126.956,-0.0663937,0.0,0.0
380,94.75,44.7108,46.7768,170.441,99.8458,100.569,-0.000159993,0.0419179,20.9435,126.966,-0.0663754,0.0,0.0
382,95.25,44.2728,46.4397,175.453,99.8816,100.576,-0.000167813,0.0418544,20.9436,126.987,-0.0637529,0.0,0.0
384,95.75,44.4645,47.2595,174.016,99.8905,100.564,-0.000162529,0.0418029,20.9436,126.977,-0.0618238,0.0,0.0
386,96.25,44.9156,46.7262,175.799,99.9045,100.58,-0.000158249,0.0417765,20.9436,126.997,-0.0619618,0.0,0.0
388,96.75,44.9267,46.9893,178.503,99.878,100.573,-0.000157365,0.0417551,20.9436,127.007,-0.0637667,0.0,0.0
390,97.25,44.9795,46.3984,177.866,99.9037,100.605,-0.000156648,0.0417378,20.9437,127.027,-0.0643177,0.0,0.0
392,97.75,44.6376,46.8009,171.262,99.8716,100.604,-0.000156068,0.0417238,20.9437,127.027,-0.0671634,0.0,0.0
394,98.25,44.2913,46.7252,171.776,99.9066,100.572,-0.000183996,0.0417124,20.9437,127.027,-0.0610534,0.0,0.0
396,98.75,43.8114,46.8599,168.853,99.9059,100.592,-0.000222243,0.0417339,20.9437,127.017,-0.062936,0.0,0.0
398,99.25,44.902,46.7795,176.093,99.9048,100.612,-0.000267287,0.0417513,20.944,126.987,-0.0648907,0.0,0.0
400,99.75,45.0296,46.6975,171.658,99.908,100.636,-0.000303773,0.0418268,20.9444,127.017,-0.0668056,0.0,0.0
402,100.25,44.6738,46.8098,170.532,99.9045,100.616,-0.000365597,0.0418879,20.9447,127.027,-0.0653181,0.0,0.0
404,100.75,44.6073,46.6083,173.542,99.9098,100.614,-0.000415675,0.0419051,20.945,127.017,-0.0645876,0.0,0.0
406,101.25,44.8132,46.1792,173.378,99.9045,100.618,-0.000471728,0.04189,20.9452,126.997,-0.0654368,0.0,0.0
408,101.75,44.1343,46.6477,167.045,99.9284,100.631,-0.000517131,0.041847,20.9453,126.997,-0.0644159,0.0,0.0
410,102.25,44.6402,46.5393,173.436,99.9366,100.639,-0.000552617,0.0418123,20.9455,127.007,-0.0644088,0.0,0.0
412,102.75,44.838,46.3664,172.137,99.9466,100.651,-0.000581361,0.0418301,20.9456,127.007,-0.0645932,0.0,0.0
414,103.25,44.5966,46.8799,172.904,99.9213,100.686,-0.000590443,0.0418446,20.9457,126.997,-0.0701255,0.0,0.0
416,103.75,44.4731,47.1952,175.305,99.9552,100.646,-0.0005978,0.0418563,20.9458,127.017,-0.0633687,0.0,0.0
418,104.25,44.3946,46.9939,170.662,99.9502,100.638,-0.000603759,0.0418026,20.9458,127.037,-0.0630403,0.0,0.0
420,104.75,44.58,46.7905,173.917,99.9509,100.65,-0.000590507,0.041759,20.9459,127.037,-0.0641189,0.0,0.0
422,105.25,44.534,46.9858,173.127,99.9531,100.654,-0.000579773,0.0417561,20.9459,127.027,-0.064316,0.0,0.0
424,105.75,44.2603,46.8994,172.417,99.9645,100.646,-0.000567681,0.0417827,20.946,127.017,-0.062474,0.0,0.0
426,106.25,44.773,46.8981,173.344,99.9585,100.661,-0.000554829,0.0418043,20.9458,127.017,-0.0643751,0.0,0.0
428,106.75,44.7203,47.1367,180.61,99.972,100.67,-0.000539664,0.0418218,20.9457,127.007,-0.0639931,0.0,0.0
430,107.25,44.5348,47.0838,173.41,99.977,100.667,-0.0005231,0.041836,20.9456,127.017,-0.0632959,0.0,0.0
432,107.75,44.8117,47.3009,177.956,99.976,100.69,-0.000509682,0.0418168,20.9455,127.017,-0.0654462,0.0,0.0
434,108.25,44.6358,46.834,174.426,99.9667,100.678,-0.000488488,0.0418013,20.9455,127.017,-0.0651972,0.0,0.0
436,108.75,44.7931,47.1367,173.134,99.9996,100.668,-0.000471321,0.0418193,20.9454,127.027,-0.0613023,0.0,0.0
438,109.25,44.2789,46.8087,175.054,99.9674,100.693,-0.000435472,0.041834,20.9454,127.047,-0.0665118,0.0,0.0
440,109.75,44.8417,46.5446,170.809,100.018,100.712,-0.000388619,0.0418072,20.9453,127.017,-0.0635763,0.0,0.0
442,110.25,44.4207,46.9911,177.244,99.9678,100.679,-0.000372586,0.0417999,20.9453,126.997,-0.0651767,0.0,0.0
444,110.75,44.7136,46.3455,172.869,100.011,100.712,-0.000345169,0.0417795,20.9453,127.017,-0.0642741,0.0,0.0
446,111.25,44.805,46.8481,175.281,99.9896,100.711,-0.000322961,0.0417557,20.9453,126.987,-0.0660894,0.0,0.0
448,111.75,44.0793,46.4167,169.057,100.014,100.727,-0.000288193,0.0417364,20.9453,126.997,-0.0653584,0.0,0.0
450,112.25,44.3947,46.3155,170.937,100.016,100.7,-0.00026003,0.0417208,20.9453,126.987,-0.0626368,0.0,0.0
452,112.75,44.4513,47.0611,176.058,100.017,100.708,-0.00022499,0.0417235,20.9453,126.987,-0.0633599,0.0,0.0
454,113.25,44.621,46.9118,172.75,100.015,100.741,-0.000185601,0.0417257,20.945,126.977,-0.0665151,0.0,0.0
456,113.75,44.2228,46.5461,176.961,100.045,100.758,-0.000153696,0.0417275,20.9449,126.977,-0.0653308,0.0,0.0
458,114.25,44.2535,46.9351,170.289,100.014,100.727,-0.000113658,0.0417289,20.9447,126.977,-0.0653915,0.0,0.0
460,114.75,44.5965,46.3211,169.368,100.037,100.782,-8.12283e-05,0.0417472,20.9446,126.946,-0.068189,0.0,0.0
462,115.25,44.9085,46.5948,176.893,100.036,100.758,-5.23771e-05,0.0417774,20.9446,126.916,-0.0661529,0.0,0.0
464,115.75,44.189,46.8071,173.636,100.048,100.803,-2.90076e-05,0.0417857,20.9447,126.946,-0.0691346,0.0,0.0
466,116.25,44.5842,46.3879,171.579,100.015,100.776,-1.27966e-05,0.041778,20.9447,126.946,-0.0697416,0.0,0.0
468,116.75,44.7793,46.5447,178.376,100.04,100.798,-2.11202e-06,0.0417555,20.9443,126.977,-0.0694897,0.0,0.0
470,117.25,44.6121,46.6692,176.232,100.038,100.766,-9.3159e-07,0.0417228,20.944,126.977,-0.0666653,0.0,0.0
472,117.75,44.7876,46.609,177.16,100.035,100.791,-6.7021e-06,0.0416963,20.9437,126.946,-0.0692141,0.0,0.0
474,118.25,44.4455,46.3951,170.526,100.035,100.76,-1.13762e-05,0.0417209,20.9435,126.956,-0.0664809,0.0,0.0
476,118.75,44.3972,46.6278,168.74,100.066,100.79,-2.3994e-05,0.0417408,20.9434,126.977,-0.0663025,0.0,0.0
478,119.25,44.435,46.3573,170.9,100.069,100.771,-4.21629e-05,0.0417407,20.9432,126.966,-0.0642387,0.0,0.0
480,119.75,44.4028,46.0381,172.371,100.06,100.785,-5.89182e-05,0.0417261,20.9431,126.966,-0.0663616,0.0,0.0
482,120.25,44.7469,46.1312,178.721,100.06,100.774,-7.43244e-05,0.0417063,20.9435,126.956,-0.0653755,0.0,0.0
484,120.75,44.3149,46.5364,168.815,100.081,100.802,-8.47651e-05,0.0416829,20.9435,126.956,-0.0659983,0.0,0.0
486,121.25,44.4113,45.9464,173.049,100.057,100.784,-9.13876e-05,0.0416882,20.9433,126.936,-0.0666178,0.0,0.0
488,121.75,44.2912,46.2242,173.343,100.088,100.802,-9.41706e-05,0.0417143,20.9432,126.936,-0.0654009,0.0,0.0
490,122.25,44.3931,46.6738,172.607,100.078,100.792,-9.64248e-05,0.0417112,20.9431,126.956,-0.0654208,0.0,0.0
492,122.75,44.2451,46.1539,170.073,100.102,100.817,-9.95417e-05,0.0416869,20.943,126.966,-0.0654324,0.0,0.0
494,123.25,44.4884,46.4608,176.782,100.089,100.812,-0.000102066,0.0416188,20.9429,126.977,-0.0661424,0.0,0.0
496,123.75,44.0857,46.1984,174.776,100.094,100.834,-0.000117019,0.0415201,20.9429,126.977,-0.0677317,0.0,0.0
498,124.25,44.4247,46.4686,174.878,100.08,100.819,-0.000129132,0.0414643,20.9428,126.966,-0.0676737,0.0,0.0
500,124.75,44.2435,46.5001,175.353,100.098,100.827,-0.000138942,0.041441,20.9428,126.956,-0.0668056,0.0,0.0
502,125.25,44.4739,46.5479,180.118,100.113,100.813,-0.000159118,0.041422,20.9428,126.936,-0.0641316,0.0,0.0
504,125.75,44.37,46.6765,172.893,100.095,100.845,-0.000186466,0.0413825,20.9427,126.946,-0.0686435,0.0,0.0
506,126.25,44.2488,45.9967,177.086,100.092,100.82,-0.000210657,0.0413286,20.9427,126.906,-0.0667007,0.0,0.0
508,126.75,44.4389,45.948,176.114,100.101,100.819,-0.000232086,0.041285,20.9427,126.926,-0.0657609,0.0,0.0
510,127.25,43.9662,46.1034,171.802,100.12,100.836,-0.000249443,0.0412804,20.9427,126.956,-0.0655627,0.0,0.0
512,127.75,44.3473,46.3927,174.413,100.12,100.847,-0.000262212,0.0412766,20.9427,126.926,-0.0665477,0.0,0.0
514,128.25,44.1805,46.2915,174.662,100.117,100.842,-0.000272554,0.0412889,20.9427,126.936,-0.0662981,0.0,0.0
516,128.75,44.2834,46.4034,173.476,100.12,100.845,-0.000265442,0.0412989,20.9427,126.936,-0.0663837,0.0,0.0
518,129.25,44.5113,46.9223,171.393,100.129,100.818,-0.000259681,0.0413069,20.9427,126.946,-0.0630872,0.0,0.0
520,129.75,44.393,46.0191,175.171,100.133,100.838,-0.000239524,0.0413134,20.9427,126.946,-0.0645711,0.0,0.0
522,130.25,44.4187,46.3153,172.377,100.122,100.847,-0.000223197,0.0413494,20.9431,126.946,-0.066344,0.0,0.0
524,130.75,44.8317,45.8255,173.278,100.139,100.859,-0.000203517,0.0413785,20.9435,126.956,-0.0658376,0.0,0.0
526,131.25,44.7648,46.1582,176.623,100.121,100.852,-0.000187577,0.0414425,20.9437,126.946,-0.0669221,0.0,0.0
528,131.75,44.0404,46.5631,172.658,100.16,100.851,-0.000174665,0.0415306,20.944,126.936,-0.0632964,0.0,0.0
530,132.25,43.9874,46.1929,175.335,100.135,100.841,-0.000168079,0.0415858,20.9442,126.946,-0.0646163,0.0,0.0
532,132.75,44.5657,45.9988,174.11,100.134,100.838,-0.000162745,0.041616,20.9443,126.936,-0.0644789,0.0,0.0
534,133.25,44.1976,46.527,171.497,100.146,100.851,-0.000170042,0.0416405,20.9444,126.936,-0.064544,0.0,0.0
536,133.75,44.1331,46.6025,176.164,100.143,100.847,-0.000175953,0.0416757,20.9445,126.916,-0.0644132,0.0,0.0
538,134.25,44.1925,46.5312,169.781,100.154,100.868,-0.000192358,0.0417041,20.9446,126.926,-0.0653181,0.0,0.0
540,134.75,44.3832,46.1885,170.624,100.139,100.853,-0.000205645,0.0417425,20.9447,126.916,-0.0653517,0.0,0.0
542,135.25,44.3311,46.5542,177.38,100.148,100.853,-0.000216409,0.0417736,20.9447,126.926,-0.0645048,0.0,0.0
544,135.75,44.0117,46.3431,171.308,100.141,100.836,-0.000233279,0.0417988,20.9448,126.916,-0.0636254,0.0,0.0
546,136.25,44.6383,46.5435,174.167,100.177,100.858,-0.000254282,0.0418031,20.9448,126.926,-0.0623172,0.0,0.0
548,136.75,43.9184,46.6842,175.64,100.149,100.839,-0.000271295,0.041792,20.9449,126.916,-0.063106,0.0,0.0
550,137.25,44.5675,46.6139,171.563,100.155,100.88,-0.00029282,0.0417831,20.945,126.906,-0.0663285,0.0,0.0
552,137.75,44.0435,46.7666,177.721,100.145,100.89,-0.000310255,0.0418218,20.9451,126.916,-0.0681542,0.0,0.0
554,138.25,44.0309,46.6037,170.088,100.165,100.865,-0.000323086,0.0418532,20.9452,126.896,-0.0640643,0.0,0.0
556,138.75,43.6759,46.4087,179.317,100.161,100.864,-0.00033348,0.0418463,20.9452,126.906,-0.0643795,0.0,0.0
558,139.25,43.9375,46.3526,175.086,100.188,100.902,-0.000341899,0.0418117,20.9453,126.916,-0.0653032,0.0,0.0
560,139.75,44.1437,46.56,171.505,100.136,100.87,-0.000321611,0.0417836,20.9453,126.916,-0.0671568,0.0,0.0
562,140.25,44.2692,46.5683,170.857,100.167,100.875,-0.000305177,0.0417149,20.9449,126.896,-0.0647985,0.0,0.0
564,140.75,44.2127,46.1915,173.792,100.193,100.867,-0.000281539,0.0416592,20.9445,126.906,-0.0617333,0.0,0.0
566,141.25,43.902,46.1713,173.05,100.15,100.894,-0.000262393,0.0416295,20.9443,126.926,-0.0680747,0.0,0.0
568,141.75,44.293,46.1138,176.274,100.155,100.858,-0.000248175,0.0416054,20.944,126.906,-0.0642807,0.0,0.0
570,142.25,44.2649,46.2254,177.254,100.157,100.873,-0.000236658,0.0415859,20.9441,126.916,-0.0654561,0.0,0.0
572,142.75,43.6898,46.2039,172.46,100.168,100.86,-0.000233784,0.0415701,20.9443,126.886,-0.0632567,0.0,0.0
574,143.25,44.2087,46.5702,172.543,100.167,100.875,-0.000231456,0.0415573,20.9443,126.886,-0.064766,0.0,0.0
576,143.75,44.2901,46.416,175.521,100.176,100.863,-0.000242478,0.0415469,20.9441,126.906,-0.0628753,0.0,0.0
578,144.25,43.8992,46.4055,181.407,100.184,100.905,-0.000251406,0.0415998,20.9441,126.916,-0.0660187,0.0,0.0
580,144.75,44.4062,46.4166,172.171,100.19,100.878,-0.000274129,0.0416427,20.9444,126.906,-0.0629415,0.0,0.0
582,145.25,44.0986,46.4967,173.019,100.189,100.881,-0.000292534,0.0416855,20.9446,126.906,-0.0632887,0.0,0.0
584,145.75,44.4701,46.1342,174.115,100.193,100.885,-0.000307442,0.0417275,20.9447,126.896,-0.0633478,0.0,0.0
586,146.25,44.2192,46.6397,169.507,100.183,100.872,-0.000335008,0.0417614,20.9449,126.916,-0.0630524,0.0,0.0
588,146.75,44.0792,45.7468,176.753,100.176,100.891,-0.000357336,0.0417718,20.945,126.906,-0.0654086,0.0,0.0
590,147.25,43.9509,46.2566,173.449,100.192,100.9,-0.000377456,0.0417648,20.9451,126.906,-0.0648234,0.0,0.0
592,147.75,43.8807,46.5237,169.764,100.159,100.882,-0.000395583,0.0417591,20.9451,126.906,-0.0661259,0.0,0.0
594,148.25,43.968,46.1278,171.054,100.203,100.902,-0.000410267,0.0417546,20.9451,126.896,-0.0638987,0.0,0.0
596,148.75,43.9179,45.9747,171.121,100.176,100.887,-0.00042087,0.0417508,20.945,126.906,-0.065015,0.0,0.0
598,149.25,44.0999,46.0759,169.388,100.173,100.911,-0.000429458,0.0417478,20.9449,126.896,-0.0675218,0.0,0.0
600,149.75,44.1264,46.3817,174.313,100.182,100.967,-0.000432542,0.0417454,20.9449,126.906,-0.0718111,0.0,0.0
602,150.25,43.8689,46.4967,174.155,100.191,100.936,-0.00043504,0.0417434,20.9448,126.876,-0.0681177,0.0,0.0
604,150.75,43.7222,46.3275,173.017,100.187,100.912,-0.000420283,0.0417418,20.9448,126.886,-0.0663208,0.0,0.0
606,151.25,44.2364,46.4005,176.119,100.205,100.902,-0.00040833,0.0417252,20.9447,126.886,-0.0636944,0.0,0.0
608,151.75,44.202,45.9211,172.546,100.176,100.884,-0.000375413,0.0417117,20.9447,126.876,-0.0647395,0.0,0.0
610,152.25,43.9377,45.8987,175.953,100.208,100.914,-0.00034875,0.0416766,20.9447,126.866,-0.0645341,0.0,0.0
612,152.75,44.0642,46.1223,173.117,100.202,100.903,-0.000327153,0.0416263,20.9446,126.876,-0.0641482,0.0,0.0
614,153.25,43.9897,46.054,176.309,100.208,100.899,-0.000283843,0.0416018,20.9446,126.866,-0.0631965,0.0,0.0
616,153.75,43.9597,45.7081,169.001,100.192,100.889,-0.000248762,0.0415964,20.9446,126.876,-0.0637999,0.0,0.0
618,154.25,44.4003,46.11,176.469,100.188,100.901,-0.000202275,0.0415921,20.9446,126.886,-0.0651983,0.0,0.0
620,154.75,43.8906,46.2526,172.209,100.178,100.881,-0.00016462,0.0415885,20.9446,126.866,-0.0643326,0.0,0.0
622,155.25,44.1508,46.3939,172.254,100.213,100.911,-0.00012121,0.0415857,20.9446,126.876,-0.0638722,0.0,0.0
624,155.75,44.4113,46.1756,175.248,100.2,100.917,-8.60482e-05,0.041568,20.9446,126.876,-0.0655709,0.0,0.0
626,156.25,44.2973,46.2061,172.417,100.214,100.924,-6.01487e-05,0.0415537,20.9446,126.856,-0.0649934,0.0,0.0
628,156.75,44.1255,46.4156,180.223,100.2,100.896,-3.91702e-05,0.0415422,20.9446,126.846,-0.063642,0.0,0.0
630,157.25,44.2352,46.0242,172.027,100.197,100.915,-4.67106e-05,0.0415328,20.9446,126.826,-0.0656372,0.0,0.0
632,157.75,44.3957,46.1616,173.548,100.194,100.907,-5.28184e-05,0.0415884,20.9446,126.856,-0.0651519,0.0,0.0
634,158.25,43.9995,46.7149,178.608,100.223,100.913,-5.77657e-05,0.0416335,20.9446,126.866,-0.063117,0.0,0.0
636,158.75,43.9754,46.5544,173.191,100.189,100.918,-9.50635e-05,0.04167,20.9446,126.856,-0.0667399,0.0,0.0
638,159.25,44.0259,46.4909,176.369,100.216,100.905,-0.000155236,0.0416995,20.9446,126.886,-0.0629857,0.0,0.0
640,159.75,43.7323,46.1858,179.996,100.216,100.909,-0.000203976,0.0416468,20.9446,126.896,-0.0633858,0.0,0.0
642,160.25,44.2102,46.3789,173.045,100.217,100.91,-0.000270631,0.0416041,20.9446,126.876,-0.0633925,0.0,0.0
644,160.75,44.1052,45.6512,174.201,100.2,100.913,-0.000349079,0.0415453,20.9447,126.866,-0.0652502,0.0,0.0
646,161.25,44.5421,46.0572,177.75,100.198,100.915,-0.000422813,0.0414758,20.9447,126.876,-0.0655787,0.0,0.0
648,161.75,43.9475,46.2669,175.107,100.205,100.994,-0.00049171,0.0414115,20.9447,126.876,-0.0721161,0.0,0.0
650,162.25,44.2975,46.0332,176.053,100.204,100.957,-0.000521761,0.0413803,20.9447,126.866,-0.0687987,0.0,0.0
652,162.75,43.9507,46.1335,176.295,100.192,100.903,-0.000573148,0.0413592,20.9447,126.846,-0.0651,0.0,0.0
654,163.25,44.064,46.1024,174.353,100.228,100.933,-0.000607299,0.0413711,20.9447,126.846,-0.0644358,0.0,0.0
656,163.75,43.6634,46.3342,173.952,100.217,100.888,-0.000628234,0.0413969,20.9447,126.866,-0.0613194,0.0,0.0
658,164.25,44.112,46.2869,176.377,100.202,100.934,-0.000630245,0.0414323,20.9447,126.856,-0.0668708,0.0,0.0
660,164.75,44.3916,46.0558,173.891,100.208,100.915,-0.000618423,0.0414449,20.9447,126.876,-0.0646854,0.0,0.0
662,165.25,44.2878,45.7592,172.928,100.197,100.921,-0.000599335,0.0414405,20.9447,126.866,-0.0661882,0.0,0.0
664,165.75,44.1036,46.4395,174.381,100.203,100.893,-0.000575313,0.0414693,20.9448,126.886,-0.0631043,0.0,0.0
666,166.25,44.1843,46.4819,172.78,100.197,100.954,-0.000555856,0.0415216,20.9448,126.866,-0.0692185,0.0,0.0