File: 01_Data/PEVA/Cone/PEVA_Cone_HF75Scan_240820_R1.csv
Names,Time,Stack TC,Smoke TC,Exh Press,Smoke Comp,Smoke Meas,CO Meter,CO2 Meter,O2 Meter,Sample Mass,Ext Coeff,Start Test,Flame Verif
Chan Gain,,500,500,1,1,1,1,1,1,1,1,1.0,1.0
Offset,,0,0,0.143687,0,0,0,0,0,0,0,0.0,0.0
Gain,,1,1,25.011,11.7833,14.1275,1,1,1,1.00092,1.04852,1.0,1.0
Units,sec,C,C,Pa,%,%,%,%,%,g,/m,,
Baseline,,61.1857,65.4818,164.722,100.821,100.913,-0.000556616,0.0427558,20.94,-448.951,-0.00839892,,
2,0.25,61.3813,66.0396,168.058,100.992,101.062,-0.000705721,0.0470276,20.9368,137.056,-0.00636148,0.0,0.0
4,0.75,61.9304,65.7761,167.217,100.98,101.078,-0.000720883,0.0470714,20.9366,137.026,-0.00899894,0.0,0.0
6,1.25,60.8565,64.8338,165.613,100.981,101.055,-0.00072637,0.0471375,20.9364,136.996,-0.00674934,0.0,0.0
8,1.75,61.2387,65.4895,166.081,100.942,100.951,-0.000724699,0.0471911,20.9363,136.956,-0.000858543,0.0,0.0
10,2.25,61.244,65.2283,167.051,100.953,100.774,-0.000723346,0.047296,20.9362,136.966,0.0163168,0.0,0.0
12,2.75,61.274,65.3287,163.512,100.977,99.8885,-0.000703906,0.047381,20.9361,136.876,0.0996584,0.0,0.0
14,3.25,61.0221,65.6924,155.235,100.959,94.5894,-0.00067165,0.0474498,20.936,136.896,0.599402,0.0,1.0
16,3.75,61.1736,65.6398,157.566,100.968,62.2593,-0.000645522,0.0475362,20.936,136.615,4.44693,0.0,1.0
18,4.25,61.146,65.6035,124.983,100.937,34.1038,-0.000602406,0.0476063,20.9359,136.115,9.98007,0.0,1.0
20,4.75,61.8774,66.3229,121.634,100.948,28.3292,-0.000567482,0.0476611,20.9359,135.735,11.6874,0.0,1.0
22,5.25,62.8501,68.2452,133.917,100.968,22.0173,-0.000534029,0.0477055,20.9355,135.444,14.0076,0.0,1.0
24,5.75,64.4624,70.6926,135.138,100.934,17.3684,-0.000506933,0.0476801,20.9349,135.134,16.1859,0.0,1.0
26,6.25,66.0029,73.9405,128.583,100.95,18.1668,-0.000496603,0.0476594,20.9345,134.914,15.774,0.0,1.0
28,6.75,67.6849,75.7789,130.605,100.937,17.0739,-0.000488235,0.0477195,20.9341,134.654,16.3434,0.0,1.0
30,7.25,69.4412,77.9219,143.368,100.939,16.4272,-0.000484855,0.0477682,20.9338,134.513,16.6988,0.0,1.0
32,7.75,70.4846,80.1147,143.265,100.923,15.1665,-0.000485174,0.0478077,20.9336,134.403,17.4317,0.0,1.0
34,8.25,71.5039,82.0176,140.452,100.931,15.4662,-0.00047796,0.0478857,20.9334,134.253,17.2525,0.0,1.0
36,8.75,71.9176,82.7495,144.537,100.916,20.0138,-0.000465389,0.0479489,20.9332,134.163,14.8803,0.0,1.0
38,9.25,72.7559,83.5895,146.455,100.931,29.8817,-0.000455207,0.0480155,20.9331,134.133,11.1951,0.0,1.0
40,9.75,73.7543,83.9567,152.862,100.907,36.9187,-0.000420463,0.0480694,20.9327,134.093,9.24794,0.0,0.0
42,10.25,73.9534,84.9106,151.318,100.905,45.3936,-0.000368473,0.0498168,20.9322,134.013,7.34706,0.0,0.0
44,10.75,74.0345,84.8559,150.218,100.888,56.5536,-0.000198315,0.0527654,20.9318,134.043,5.32371,0.0,0.0
46,11.25,74.3856,85.7026,155.882,100.893,65.9851,5.47542e-05,0.0643313,20.9315,134.033,3.90554,0.0,0.0
48,11.75,74.2763,85.2833,155.685,100.844,75.1722,0.000857935,0.0819595,20.9313,134.033,2.70213,0.0,0.0
50,12.25,74.4023,85.1564,161.035,100.854,81.704,0.00204689,0.0962383,20.9306,133.983,1.9367,0.0,0.0
52,12.75,74.4636,85.5633,157.379,100.849,86.8099,0.00432745,0.146293,20.9301,133.963,1.37877,0.0,0.0
54,13.25,74.0721,85.3367,160.566,100.841,91.4382,0.00736046,0.209915,20.9212,133.943,0.90028,0.0,0.0
56,13.75,74.0966,84.9691,160.377,100.816,94.1975,0.0117252,0.282219,20.914,133.943,0.624574,0.0,0.0
58,14.25,74.0265,84.7346,160.611,100.837,96.1777,0.0169779,0.340785,20.8806,133.983,0.435098,0.0,0.0
60,14.75,73.364,84.2796,160.213,100.818,97.0188,0.0212326,0.414273,20.8286,133.953,0.35327,0.0,0.0
62,15.25,73.2993,83.9359,160.21,100.82,97.5349,0.0296399,0.473799,20.7426,133.963,0.304672,0.0,0.0
64,15.75,73.6305,83.992,164.716,100.815,97.6755,0.0364497,0.520446,20.6333,133.963,0.291003,0.0,0.0
66,16.25,73.1556,83.7078,168.555,100.756,98.0178,0.0419657,0.556819,20.5447,133.943,0.253442,0.0,0.0
68,16.75,72.6838,82.8513,166.815,100.703,98.6015,0.0496946,0.586281,20.4441,133.943,0.194001,0.0,0.0
70,17.25,72.9092,82.9439,162.261,100.687,99.1568,0.055955,0.599588,20.3365,133.933,0.140804,0.0,0.0
72,17.75,72.0834,82.1445,163.139,100.689,99.3573,0.0607625,0.600864,20.2494,133.923,0.122489,0.0,0.0
74,18.25,71.9841,81.6504,166.284,100.71,99.4742,0.0644194,0.590721,20.1788,133.913,0.113552,0.0,0.0
76,18.75,71.823,81.8116,163.285,100.711,99.6665,0.066322,0.572444,20.1217,133.893,0.0959212,0.0,0.0
78,19.25,71.6261,81.2797,164.083,100.696,99.8225,0.0669094,0.548664,20.0754,133.893,0.0801506,0.0,0.0
80,19.75,71.2892,80.9273,165.714,100.67,100.101,0.0660101,0.521324,20.0378,133.913,0.0521198,0.0,0.0
82,20.25,70.9152,80.6022,161.964,100.693,100.179,0.0640441,0.499179,20.0075,133.913,0.047062,0.0,0.0
84,20.75,70.634,79.6277,160.312,100.652,100.2,0.0624517,0.481241,20.0175,133.873,0.0414163,0.0,0.0
86,21.25,69.8395,79.2621,163.17,100.659,100.234,0.0611618,0.442088,20.0257,133.893,0.0389087,0.0,0.0
88,21.75,70.4595,79.0675,164.72,100.647,100.26,0.0561993,0.410375,20.0513,133.863,0.0354504,0.0,0.0
90,22.25,69.8938,79.1031,160.179,100.653,100.35,0.0521798,0.373906,20.089,133.873,0.0277864,0.0,0.0
92,22.75,69.4487,78.0326,158.115,100.656,100.402,0.0470704,0.344366,20.1339,133.863,0.0232029,0.0,0.0
94,23.25,69.4395,78.4982,165.511,100.66,100.442,0.0429318,0.315149,20.1831,133.883,0.0199651,0.0,0.0
96,23.75,69.4509,78.1702,162.403,100.649,100.477,0.0387297,0.286723,20.2229,133.853,0.0157028,0.0,0.0
98,24.25,68.6986,77.2639,161.408,100.646,100.477,0.0345612,0.263698,20.2832,133.853,0.0154795,0.0,0.0
100,24.75,68.7959,77.4671,161.669,100.637,100.561,0.0311847,0.238153,20.332,133.873,0.0070035,0.0,0.0
102,25.25,68.5054,76.7065,164.842,100.642,100.586,0.0276109,0.217461,20.3849,133.863,0.00514519,0.0,0.0
104,25.75,68.179,76.921,162.834,100.614,100.538,0.0247161,0.196447,20.4398,133.843,0.00691914,0.0,0.0
106,26.25,68.4652,76.751,160.966,100.642,100.448,0.0219464,0.179427,20.491,133.833,0.0177625,0.0,0.0
108,26.75,68.6223,75.8056,162.773,100.604,100.584,0.019703,0.163131,20.5386,133.823,0.00177933,0.0,0.0
110,27.25,68.2345,75.9276,161.373,100.611,100.585,0.0176145,0.149931,20.583,133.803,0.00235811,0.0,0.0
112,27.75,68.5551,75.9888,163.34,100.581,100.543,0.0159227,0.137476,20.6242,133.823,0.00342131,0.0,0.0
114,28.25,68.0419,75.5189,160.477,100.614,100.555,0.0143698,0.127387,20.6576,133.843,0.00545311,0.0,0.0
116,28.75,67.6747,75.5124,164.907,100.572,100.512,0.0131119,0.118479,20.6913,133.833,0.00547174,0.0,0.0
118,29.25,67.5007,74.9178,160.488,100.567,100.566,0.0120423,0.110599,20.7186,133.843,0.00011951,0.0,0.0
120,29.75,67.2854,75.0842,162.181,100.561,100.538,0.0115623,0.10724,20.7324,133.833,0.00212463,0.0,0.0
122,30.25,67.1798,74.7892,166.276,100.589,100.54,0.0107415,0.101055,20.7559,133.803,0.00448549,0.0,0.0
124,30.75,67.4594,74.3627,166.058,100.535,100.521,0.0100359,0.0956487,20.775,133.783,0.00132768,0.0,0.0
126,31.25,67.233,74.637,166.792,100.549,100.543,0.00942766,0.0910164,20.793,133.773,0.000532848,0.0,0.0
128,31.75,67.3345,74.0248,165.94,100.51,100.499,0.00891814,0.0870367,20.8077,133.743,0.000970287,0.0,0.0
130,32.25,66.9227,74.476,161.977,100.531,100.518,0.00849026,0.0836746,20.8227,133.723,0.00116872,0.0,0.0
132,32.75,66.3438,73.8601,159.767,100.5,100.501,0.0079826,0.0796124,20.8402,133.733,-8.16842e-05,0.0,0.0
134,33.25,66.3953,73.0736,164.25,100.484,100.521,0.00784394,0.0785196,20.8451,133.763,-0.0033842,0.0,0.0
136,33.75,66.5025,73.8405,160.656,100.474,100.487,0.00761525,0.0763879,20.8534,133.743,-0.00125495,0.0,0.0
138,34.25,66.8778,73.8443,164.668,100.503,100.505,0.00743759,0.0746613,20.8619,133.723,-0.000134313,0.0,0.0
140,34.75,66.6017,72.979,160.432,100.491,100.514,0.00730351,0.0731079,20.8688,133.723,-0.00212786,0.0,0.0
142,35.25,66.0887,72.9774,160.796,100.477,100.492,0.00720375,0.0718497,20.8744,133.723,-0.00135364,0.0,0.0
144,35.75,66.3974,73.1034,164.437,100.443,100.496,0.00712294,0.0707687,20.879,133.693,-0.00487601,0.0,0.0
146,36.25,66.4647,73.1858,161.482,100.43,100.461,0.00707617,0.0698931,20.8831,133.703,-0.00290325,0.0,0.0
148,36.75,66.6105,72.8855,162.484,100.446,100.464,0.00703828,0.0691269,20.8869,133.693,-0.00169797,0.0,0.0
150,37.25,66.5277,72.7327,165.311,100.449,100.455,0.00700759,0.068455,20.8899,133.713,-0.000526849,0.0,0.0
152,37.75,66.2938,72.6158,163.021,100.431,100.436,0.00700142,0.0679107,20.8924,133.693,-0.000404042,0.0,0.0
154,38.25,66.5748,72.3985,164.92,100.396,100.411,0.00699642,0.0674235,20.8944,133.693,-0.00138105,0.0,0.0
156,38.75,66.1544,72.6586,161.058,100.4,100.451,0.00702175,0.0670289,20.8963,133.713,-0.00469007,0.0,0.0
158,39.25,65.8493,72.2629,163.493,100.392,100.441,0.00704227,0.0667092,20.898,133.713,-0.00450632,0.0,0.0
160,39.75,65.9277,72.252,156.799,100.384,100.399,0.00707929,0.0664503,20.8994,133.673,-0.00136844,0.0,0.0
162,40.25,66.0096,71.7425,158.013,100.392,100.423,0.00712764,0.0662324,20.9005,133.683,-0.00280893,0.0,0.0
164,40.75,65.1859,72.3073,165.682,100.365,100.41,0.00720694,0.0660486,20.9014,133.693,-0.00410265,0.0,0.0
166,41.25,65.8431,71.9424,157.989,100.37,100.383,0.00727117,0.065916,20.9021,133.643,-0.00117928,0.0,0.0
168,41.75,65.7868,72.1418,160.13,100.36,100.383,0.00734998,0.0658232,20.9027,133.663,-0.00210758,0.0,0.0
170,42.25,65.6432,71.8875,162.174,100.336,100.393,0.00741382,0.0657725,20.9032,133.663,-0.005232,0.0,0.0
172,42.75,65.3911,71.9854,164.825,100.322,100.388,0.00748428,0.0657534,20.9036,133.663,-0.0060038,0.0,0.0
174,43.25,65.564,71.5735,159.387,100.314,100.365,0.00754136,0.0657379,20.9039,133.603,-0.00470104,0.0,0.0
176,43.75,65.6672,71.6079,159.345,100.314,100.365,0.00758759,0.0657254,20.9042,133.623,-0.00470104,0.0,0.0
178,44.25,65.44,71.6217,159.663,100.293,100.349,0.00762504,0.0656997,20.9044,133.603,-0.00511845,0.0,0.0
180,44.75,65.3245,71.758,165.122,100.292,100.337,0.00770498,0.065679,20.9048,133.603,-0.00418382,0.0,0.0
182,45.25,65.1671,71.1332,162.287,100.291,100.305,0.00776974,0.0656703,20.9052,133.613,-0.00127907,0.0,0.0
184,45.75,65.6599,71.4803,162.083,100.291,100.326,0.00783985,0.0656706,20.9056,133.593,-0.00318293,0.0,0.0
186,46.25,65.5859,71.1704,165.458,100.246,100.33,0.00791254,0.0656546,20.9064,133.583,-0.00769466,0.0,0.0
188,46.75,65.4772,71.1608,157.884,100.289,100.286,0.00798627,0.065627,20.907,133.593,0.000296031,0.0,0.0
190,47.25,65.3282,70.9405,160.655,100.265,100.267,0.00805934,0.0655964,20.9075,133.613,-0.000186943,0.0,0.0
192,47.75,65.3486,70.859,163.57,100.25,100.264,0.00813127,0.0655644,20.9079,133.603,-0.00136132,0.0,0.0
194,48.25,64.7685,70.8794,166.215,100.259,100.269,0.00820099,0.0655303,20.9082,133.593,-0.000899115,0.0,0.0
196,48.75,64.9332,70.7042,163.512,100.239,100.277,0.00826879,0.0654953,20.9085,133.613,-0.00349827,0.0,0.0
198,49.25,65.1901,70.9168,167.697,100.212,100.256,0.0083339,0.0654019,20.9087,133.613,-0.00400228,0.0,0.0
200,49.75,64.8366,70.1419,163.054,100.233,100.274,0.00839373,0.0652677,20.9089,133.583,-0.00375603,0.0,0.0
202,50.25,65.583,70.3546,167.284,100.216,100.254,0.00844855,0.065159,20.909,133.563,-0.00351417,0.0,0.0
204,50.75,64.6924,70.4434,166.375,100.191,100.219,0.00849296,0.0649163,20.9091,133.563,-0.00258738,0.0,0.0
206,51.25,65.2642,70.6366,167.543,100.183,100.233,0.0085339,0.0647198,20.9092,133.563,-0.00457982,0.0,0.0
208,51.75,64.5076,70.0126,166.008,100.171,100.24,0.00857151,0.0645037,20.9093,133.533,-0.0063346,0.0,0.0
210,52.25,64.7777,70.2357,159.48,100.174,100.209,0.00859702,0.0642774,20.9094,133.563,-0.00315606,0.0,0.0
212,52.75,65.1214,70.0001,166.752,100.154,100.232,0.00861322,0.0640941,20.9094,133.583,-0.00714216,0.0,0.0
214,53.25,64.7643,69.8946,164.155,100.153,100.181,0.00862635,0.063853,20.9094,133.543,-0.00263729,0.0,0.0
216,53.75,64.484,70.2558,162.289,100.176,100.234,0.00861142,0.0636576,20.9097,133.523,-0.00539162,0.0,0.0
218,54.25,65.1792,70.0313,162.067,100.146,100.165,0.00859932,0.0633758,20.9101,133.523,-0.00169414,0.0,0.0
220,54.75,64.7206,69.7231,163.328,100.14,100.188,0.00857931,0.0632557,20.9103,133.503,-0.00441966,0.0,0.0
222,55.25,64.6576,69.7739,163.728,100.134,100.14,0.00854509,0.0630259,20.9106,133.482,-0.000593735,0.0,0.0
224,55.75,64.7564,69.4759,162.181,100.15,100.204,0.00849049,0.0628178,20.9109,133.472,-0.00499942,0.0,0.0
226,56.25,64.9006,70.0858,162.757,100.12,100.164,0.00844627,0.0625994,20.9115,133.492,-0.00409936,0.0,0.0
228,56.75,64.5004,69.6681,160.504,100.105,100.165,0.00839207,0.0623777,20.9121,133.462,-0.00556605,0.0,0.0
230,57.25,64.618,69.7628,164.371,100.093,100.148,0.00830586,0.0620729,20.9127,133.472,-0.00499997,0.0,0.0
232,57.75,64.8828,70.1211,166.263,100.132,100.15,0.00828266,0.0619601,20.9128,133.492,-0.00163711,0.0,0.0
234,58.25,64.7137,69.7078,160.093,100.126,100.161,0.0082202,0.0617673,20.913,133.512,-0.00326026,0.0,0.0
236,58.75,64.6377,69.6679,162.076,100.167,100.18,0.0081696,0.0615949,20.9131,133.503,-0.00119135,0.0,0.0
238,59.25,64.9086,69.7799,161.965,100.125,100.174,0.00812086,0.0614405,20.9132,133.503,-0.00447451,0.0,0.0
240,59.75,64.1862,69.3204,161.226,100.166,100.211,0.00807439,0.0612587,20.9132,133.472,-0.00410649,0.0,0.0
242,60.25,64.7674,69.6333,166.212,100.149,100.217,0.0080311,0.0610602,20.9132,133.452,-0.00621336,0.0,0.0
244,60.75,64.4156,69.7875,165.714,100.189,100.228,0.00799096,0.0608995,20.9133,133.482,-0.00354379,0.0,0.0
246,61.25,64.5882,69.3297,164.414,100.172,100.226,0.00795845,0.0606921,20.9133,133.472,-0.00504221,0.0,0.0
248,61.75,64.4888,69.7904,162.396,100.222,100.235,0.00791335,0.0605241,20.9136,133.512,-0.00113981,0.0,0.0
250,62.25,64.3567,69.4818,161.434,100.214,100.266,0.00787682,0.0603109,20.914,133.492,-0.00478606,0.0,0.0
252,62.75,64.1145,69.2849,162.822,100.236,100.252,0.00781911,0.0601382,20.9143,133.472,-0.00146165,0.0,0.0
254,63.25,64.259,69.1733,164.72,100.235,100.274,0.00777236,0.0599058,20.9146,133.442,-0.00355147,0.0,0.0
256,63.75,64.4402,69.1849,159.394,100.236,100.318,0.0077064,0.0597175,20.9148,133.442,-0.00755749,0.0,0.0
258,64.25,64.4269,69.6321,163.58,100.227,100.294,0.00765296,0.0595163,20.915,133.422,-0.00613546,0.0,0.0
260,64.75,64.2401,69.5073,163.101,100.264,100.32,0.00760968,0.0593095,20.9151,133.422,-0.00510254,0.0,0.0
262,65.25,64.5302,69.0108,165.556,100.259,100.299,0.00753852,0.0591419,20.9153,133.412,-0.00370009,0.0,0.0
264,65.75,64.4167,69.5134,163.542,100.275,100.322,0.00746892,0.0588212,20.9154,133.382,-0.00428529,0.0,0.0
266,66.25,64.5626,69.0687,161.539,100.286,100.314,0.00740178,0.0585614,20.9154,133.412,-0.00261042,0.0,0.0
268,66.75,64.4127,69.3512,159.55,100.309,100.334,0.0073474,0.058351,20.9155,133.422,-0.00225179,0.0,0.0
270,67.25,64.0715,69.2679,161.506,100.303,100.339,0.00730336,0.0581491,20.9156,133.452,-0.00328603,0.0,0.0
272,67.75,64.3625,69.1179,164.536,100.341,100.365,0.00721296,0.0579573,20.916,133.462,-0.00222876,0.0,0.0
274,68.25,64.0555,69.1419,163.081,100.343,100.344,0.00713974,0.0577451,20.9167,133.462,-6.24966e-05,0.0,0.0
276,68.75,64.1128,68.8012,166.298,100.337,100.387,0.00706148,0.0575221,20.9173,133.432,-0.00458037,0.0,0.0
278,69.25,64.0483,68.8056,164.97,100.346,100.38,0.00698104,0.0573253,20.9179,133.412,-0.00315606,0.0,0.0
280,69.75,64.3385,69.4921,162.134,100.368,100.399,0.00688994,0.0571513,20.9184,133.432,-0.00288406,0.0,0.0
282,70.25,64.2537,69.3597,160.329,100.389,100.396,0.0067928,0.0570103,20.9188,133.422,-0.000630467,0.0,0.0
284,70.75,63.7256,68.5958,162.633,100.41,100.42,0.00671412,0.0569115,20.9191,133.402,-0.000892535,0.0,0.0
286,71.25,64.2753,69.1567,160.985,100.425,100.419,0.00660249,0.0568315,20.9194,133.412,0.000576703,0.0,0.0
288,71.75,64.0311,69.2725,159.642,100.423,100.429,0.00651206,0.0566937,20.9196,133.402,-0.000536169,0.0,0.0
290,72.25,64.0963,68.9815,165.207,100.425,100.461,0.00643882,0.0565164,20.9198,133.392,-0.00332552,0.0,0.0
292,72.75,64.13,68.8214,165.218,100.429,100.446,0.00628918,0.0563728,20.9199,133.412,-0.00151594,0.0,0.0
294,73.25,64.2829,68.7692,166.743,100.423,100.41,0.00616796,0.0561486,20.92,133.432,0.0011753,0.0,0.0
296,73.75,64.0547,68.8924,166.761,100.43,100.441,0.00608698,0.056053,20.9201,133.442,-0.000942976,0.0,0.0
298,74.25,63.8356,68.8542,164.13,100.455,100.476,0.0059485,0.0558572,20.9206,133.422,-0.00194088,0.0,0.0
300,74.75,63.9499,68.7236,166.895,100.433,100.486,0.00580915,0.0556693,20.921,133.442,-0.0048239,0.0,0.0
302,75.25,64.0959,68.6976,164.47,100.467,100.505,0.00567182,0.0554523,20.9214,133.422,-0.00345878,0.0,0.0
304,75.75,64.2835,68.843,158.982,100.456,100.48,0.00554874,0.0552182,20.9216,133.422,-0.0021646,0.0,0.0
306,76.25,63.5005,68.5744,161.41,100.49,100.472,0.0054384,0.0550043,20.9223,133.412,0.00160722,0.0,0.0
308,76.75,63.4028,68.604,159.23,100.487,100.489,0.00534902,0.0548091,20.9229,133.392,-0.000162273,0.0,0.0
310,77.25,63.9347,68.7672,159.613,100.501,100.496,0.00525812,0.054651,20.9233,133.392,0.00049009,0.0,0.0
312,77.75,63.4006,68.4104,161.955,100.47,100.525,0.00518448,0.0544459,20.9237,133.382,-0.00502301,0.0,0.0
314,78.25,63.6791,68.1935,162.882,100.516,100.512,0.00509841,0.0542798,20.9242,133.412,0.000340983,0.0,0.0
316,78.75,63.6975,68.1564,158.014,100.515,100.522,0.00502869,0.0540724,20.9248,133.402,-0.000633209,0.0,0.0
318,79.25,63.8178,68.4927,164.502,100.516,100.564,0.00497222,0.0538387,20.9253,133.392,-0.00435988,0.0,0.0
320,79.75,63.6547,68.6921,167.208,100.524,100.551,0.00485257,0.0536494,20.9257,133.382,-0.00244645,0.0,0.0
322,80.25,64.2848,68.91,160.816,100.516,100.555,0.00475566,0.0533884,20.9261,133.362,-0.00349224,0.0,0.0
324,80.75,63.671,68.7978,163.552,100.551,100.552,0.00463902,0.0531769,20.9264,133.382,-5.86591e-05,0.0,0.0
326,81.25,63.5332,68.8821,159.446,100.542,100.57,0.00451023,0.052949,20.9266,133.362,-0.00256929,0.0,0.0
328,81.75,64.0578,68.5107,167.403,100.551,100.543,0.00437061,0.0527133,20.9268,133.352,0.000657833,0.0,0.0
330,82.25,64.432,68.6272,160.481,100.561,100.583,0.00422575,0.0524414,20.9269,133.342,-0.00204835,0.0,0.0
332,82.75,63.8476,68.845,162.973,100.545,100.564,0.00405196,0.0521483,20.927,133.322,-0.00168865,0.0,0.0
334,83.25,63.4948,68.8156,162.574,100.577,100.604,0.00391118,0.0518704,20.9271,133.332,-0.00246126,0.0,0.0
336,83.75,64.0063,68.546,160.286,100.551,100.569,0.00376542,0.0516089,20.9272,133.352,-0.00166837,0.0,0.0
338,84.25,63.7115,68.6625,161.877,100.569,100.589,0.00361878,0.0513566,20.9281,133.332,-0.00181093,0.0,0.0
340,84.75,63.9659,68.4047,166.878,100.558,100.588,0.00346487,0.0511158,20.9289,133.312,-0.0027848,0.0,0.0
342,85.25,64.2843,68.9661,164.534,100.588,100.609,0.00330859,0.0509208,20.9295,133.322,-0.00188221,0.0,0.0
344,85.75,63.9824,68.5731,160.572,100.575,100.63,0.003182,0.0507013,20.93,133.312,-0.00506854,0.0,0.0
346,86.25,63.5998,68.4111,165.743,100.58,100.633,0.00303751,0.0505235,20.9305,133.322,-0.0048058,0.0,0.0
348,86.75,63.6514,68.2748,164.241,100.613,100.678,0.00288273,0.0503634,20.9308,133.302,-0.00598954,0.0,0.0
350,87.25,63.9158,68.3814,165.125,100.619,100.676,0.00273333,0.050219,20.9311,133.312,-0.00523309,0.0,0.0
352,87.75,63.5833,67.9966,164.772,100.633,100.67,0.0025907,0.0501022,20.9313,133.302,-0.00332826,0.0,0.0
354,88.25,63.7793,68.189,162.98,100.631,100.693,0.00247516,0.0498845,20.9314,133.272,-0.00561926,0.0,0.0
356,88.75,63.8434,68.4673,165.028,100.637,100.673,0.00235942,0.0497082,20.9316,133.302,-0.0033151,0.0,0.0
358,89.25,63.62,68.564,162.91,100.69,100.715,0.00226293,0.0494731,20.9317,133.302,-0.0021997,0.0,0.0
360,89.75,63.5052,68.3928,162.819,100.66,100.697,0.0021823,0.0492827,20.9318,133.302,-0.00344946,0.0,0.0
362,90.25,63.7039,68.3206,158.191,100.673,100.713,0.00211699,0.0491285,20.9319,133.292,-0.00365183,0.0,0.0
364,90.75,63.6427,68.4062,161.255,100.684,100.714,0.0020641,0.0489421,20.9319,133.262,-0.00267951,0.0,0.0
366,91.25,63.4529,68.0184,159.72,100.707,100.744,0.00202948,0.0487911,20.932,133.282,-0.00336555,0.0,0.0
368,91.75,63.6702,68.1096,169.442,100.668,100.747,0.00200884,0.0486688,20.9323,133.292,-0.00722171,0.0,0.0
370,92.25,63.7757,68.4688,167.71,100.711,100.776,0.00199761,0.0485698,20.9326,133.282,-0.00591658,0.0,0.0
372,92.75,63.6715,68.259,161.689,100.703,100.768,0.00199346,0.0484896,20.9328,133.262,-0.00589793,0.0,0.0
374,93.25,63.7443,68.3673,159.594,100.718,100.782,0.00199009,0.0483785,20.9329,133.262,-0.00588312,0.0,0.0
376,93.75,63.6129,68.2225,154.942,100.697,100.754,0.00198476,0.0482885,20.9331,133.282,-0.00526326,0.0,0.0
378,94.25,63.8003,68.4527,161.171,100.706,100.756,0.00198044,0.0481347,20.9332,133.282,-0.00452662,0.0,0.0
380,94.75,64.0679,68.1364,159.921,100.721,100.752,0.00195609,0.0479374,20.9333,133.282,-0.00279357,0.0,0.0
382,95.25,63.6218,68.2642,160.775,100.734,100.791,0.00193637,0.0477452,20.9334,133.282,-0.00526436,0.0,0.0
384,95.75,63.8005,67.7311,164.598,100.717,100.784,0.00190463,0.0475605,20.9334,133.272,-0.0061777,0.0,0.0
386,96.25,63.7595,68.2275,161.76,100.72,100.793,0.00186474,0.0473946,20.9335,133.252,-0.00666924,0.0,0.0
388,96.75,63.6199,68.0437,161.813,100.701,100.761,0.00180249,0.0472458,20.9335,133.252,-0.00545854,0.0,0.0
390,97.25,63.7625,68.0545,162.202,100.74,100.786,0.00175207,0.0471333,20.9335,133.232,-0.00420083,0.0,0.0
392,97.75,63.748,68.2707,169.544,100.735,100.789,0.0016866,0.0470494,20.9336,133.252,-0.0048963,0.0,0.0
394,98.25,63.5047,67.954,161.117,100.74,100.82,0.00161141,0.0469815,20.9336,133.272,-0.00723653,0.0,0.0
396,98.75,64.2237,67.9701,164.636,100.734,100.781,0.0015505,0.0468785,20.9336,133.282,-0.00421563,0.0,0.0
398,99.25,63.3863,67.9418,167.758,100.733,100.803,0.00145831,0.0467951,20.934,133.242,-0.0064317,0.0,0.0
400,99.75,63.3342,68.3344,163.917,100.743,100.761,0.00138364,0.0467195,20.9347,133.222,-0.0016892,0.0,0.0
402,100.25,63.879,68.0589,157.186,100.742,100.818,0.00131155,0.0466509,20.9352,133.202,-0.00694191,0.0,0.0
404,100.75,63.3718,68.2364,161.478,100.753,100.787,0.00124271,0.0465954,20.9356,133.202,-0.00313796,0.0,0.0
406,101.25,63.8775,67.8681,165.767,100.729,100.783,0.00118696,0.0464583,20.936,133.202,-0.00497693,0.0,0.0
408,101.75,63.379,67.9376,161.275,100.752,100.777,0.00115346,0.0463472,20.9363,133.222,-0.00225234,0.0,0.0
410,102.25,63.786,67.8693,164.941,100.775,100.753,0.00112634,0.0462112,20.9365,133.222,0.00197336,0.0,0.0
412,102.75,63.4123,68.2926,165.603,100.752,100.763,0.00110307,0.046101,20.9367,133.222,-0.000999448,0.0,0.0
414,103.25,63.735,68.1526,160.979,100.775,100.776,0.00108422,0.0460037,20.9368,133.252,-0.000145278,0.0,0.0
416,103.75,63.66,67.8626,164.153,100.728,100.799,0.00104949,0.0459176,20.937,133.232,-0.00642566,0.0,0.0
418,104.25,63.2072,67.9949,167.164,100.732,100.767,0.00102137,0.0457403,20.9371,133.222,-0.00315222,0.0,0.0
420,104.75,63.4233,67.8268,164.096,100.765,100.819,0.000964889,0.0455968,20.9372,133.212,-0.00496542,0.0,0.0
422,105.25,63.2877,68.1721,164.598,100.752,100.8,0.000919141,0.0454652,20.9372,133.212,-0.00438347,0.0,0.0
424,105.75,63.849,67.9575,161.036,100.754,100.796,0.00084065,0.0453585,20.9373,133.202,-0.00375384,0.0,0.0
426,106.25,63.412,67.8572,164.347,100.761,100.818,0.000777073,0.0452964,20.9373,133.202,-0.00520237,0.0,0.0
428,106.75,64.1521,67.9151,163.383,100.768,100.784,0.000725575,0.0452679,20.9373,133.202,-0.00145014,0.0,0.0
430,107.25,63.4551,67.7778,164.969,100.759,100.788,0.00063084,0.0452448,20.9374,133.212,-0.00265812,0.0,0.0
432,107.75,63.3181,67.5881,160.784,100.751,100.785,0.000554104,0.0451494,20.9374,133.192,-0.00309793,0.0,0.0
434,108.25,63.4064,67.855,164.685,100.758,100.782,0.000460945,0.0450721,20.9374,133.162,-0.00219915,0.0,0.0
436,108.75,63.4544,67.9874,165.797,100.764,100.8,0.000385486,0.0450185,20.9374,133.172,-0.00326081,0.0,0.0
438,109.25,63.4755,67.9416,160.072,100.752,100.797,0.000318925,0.0449833,20.9374,133.152,-0.00417395,0.0,0.0
440,109.75,63.2057,67.6192,162.206,100.757,100.813,0.000260115,0.0449467,20.9376,133.172,-0.0050647,0.0,0.0
442,110.25,62.9608,67.8361,161.503,100.756,100.785,0.000217915,0.0449097,20.9378,133.172,-0.00267841,0.0,0.0
444,110.75,62.9527,67.4091,163.418,100.76,100.794,0.000188626,0.0448394,20.9379,133.182,-0.00307051,0.0,0.0
446,111.25,63.0519,67.6551,163.559,100.749,100.8,0.000166941,0.0447461,20.938,133.202,-0.00463961,0.0,0.0
448,111.75,63.7357,67.5445,160.465,100.726,100.81,0.000151211,0.0446706,20.938,133.182,-0.00765186,0.0,0.0
450,112.25,63.4548,67.5915,164.479,100.741,100.803,0.000135752,0.0446707,20.9381,133.182,-0.00566973,0.0,0.0
452,112.75,63.3582,67.5297,161.936,100.764,100.799,0.000120782,0.0446709,20.9381,133.152,-0.00321529,0.0,0.0
454,113.25,63.3194,67.5759,161.103,100.747,100.779,0.000108657,0.044671,20.9386,133.162,-0.00287638,0.0,0.0
456,113.75,62.4783,67.3016,164.713,100.746,100.795,9.88356e-05,0.0446469,20.939,133.142,-0.00446903,0.0,0.0
458,114.25,63.359,67.5481,163.362,100.748,100.793,9.49586e-05,0.0446055,20.9393,133.162,-0.00410759,0.0,0.0
460,114.75,63.3539,67.5164,166.271,100.732,100.796,9.54886e-05,0.044572,20.9395,133.142,-0.00578931,0.0,0.0
462,115.25,62.7829,67.6421,160.619,100.728,100.78,0.000104077,0.0445756,20.9396,133.152,-0.004695,0.0,0.0
464,115.75,63.5862,67.9133,161.32,100.719,100.773,0.000118376,0.0445785,20.9397,133.162,-0.0049517,0.0,0.0
466,116.25,62.9805,67.5232,163.26,100.73,100.753,0.000129958,0.0445808,20.9397,133.122,-0.00216296,0.0,0.0
468,116.75,63.4736,67.7729,167.397,100.76,100.778,0.000154847,0.0445827,20.9398,133.142,-0.00168701,0.0,0.0
470,117.25,63.2865,67.4533,162.504,100.733,100.776,0.000175007,0.0445228,20.9398,133.132,-0.00391343,0.0,0.0
472,117.75,63.9443,67.5843,162.825,100.74,100.79,0.000195214,0.0444743,20.9396,133.122,-0.00456117,0.0,0.0
474,118.25,63.4568,67.6113,162.338,100.706,100.764,0.000211078,0.0444183,20.9391,133.112,-0.00528081,0.0,0.0
476,118.75,63.6271,67.2872,164.214,100.72,100.774,0.000210624,0.0444032,20.939,133.122,-0.00501094,0.0,0.0
478,119.25,63.5236,67.4752,159.701,100.694,100.759,0.000209847,0.0443936,20.9387,133.132,-0.00596485,0.0,0.0
480,119.75,63.2696,67.4949,161.982,100.708,100.775,0.000187257,0.0444004,20.9385,133.102,-0.00606744,0.0,0.0
482,120.25,63.1842,67.4056,162.542,100.695,100.749,0.000168958,0.0443735,20.9384,133.102,-0.00492154,0.0,0.0
484,120.75,63.3248,67.1723,162.465,100.713,100.743,0.000154137,0.0443227,20.9382,133.102,-0.00272228,0.0,0.0
486,121.25,63.4202,67.3438,166.032,100.703,100.717,0.000115019,0.0442815,20.9381,133.102,-0.0013191,0.0,0.0
488,121.75,63.1722,67.1262,163.75,100.679,100.742,8.33333e-05,0.0442482,20.9381,133.092,-0.00576353,0.0,0.0
490,122.25,63.0474,67.7436,159.304,100.678,100.718,5.42707e-05,0.0442212,20.938,133.102,-0.00366389,0.0,0.0
492,122.75,63.1221,67.8084,161.21,100.67,100.709,2.76724e-05,0.0441751,20.9379,133.112,-0.00352679,0.0,0.0
494,123.25,62.831,67.95,165.379,100.626,100.701,7.41881e-06,0.0441159,20.9379,133.112,-0.0068278,0.0,0.0
496,123.75,63.744,67.5652,163.109,100.67,100.711,-1.21563e-06,0.0440988,20.9379,133.082,-0.00375055,0.0,0.0
498,124.25,63.3856,68.0788,167.639,100.651,100.678,-1.53011e-05,0.0440695,20.9378,133.112,-0.00246565,0.0,0.0
500,124.75,63.2362,67.7064,160.826,100.652,100.704,-2.60988e-05,0.0440457,20.9378,133.102,-0.00469775,0.0,0.0
502,125.25,63.0854,68.2315,162.227,100.621,100.668,-3.68833e-05,0.0440265,20.9378,133.082,-0.00424909,0.0,0.0
504,125.75,63.1605,67.5387,161.461,100.638,100.711,-4.74532e-05,0.0440109,20.9378,133.082,-0.00664181,0.0,0.0
506,126.25,63.6263,67.8204,163.491,100.6,100.631,-6.07707e-05,0.0439983,20.9378,133.082,-0.00283909,0.0,0.0
508,126.75,63.4109,68.0131,165.7,100.619,100.679,-7.5838e-05,0.0439881,20.9377,133.062,-0.00546951,0.0,0.0
510,127.25,63.1995,67.8518,162.496,100.594,100.629,-8.80426e-05,0.0439644,20.9377,133.062,-0.00320816,0.0,0.0
512,127.75,63.0228,67.7186,165.337,100.587,100.641,-0.000104043,0.0439453,20.9377,133.032,-0.00496871,0.0,0.0
514,128.25,63.2911,67.6537,164.913,100.569,100.633,-0.000122507,0.0439379,20.9377,133.042,-0.00589683,0.0,0.0
516,128.75,63.2404,67.5225,161.951,100.59,100.616,-0.000142218,0.0439391,20.9377,133.052,-0.00238065,0.0,0.0
518,129.25,63.4251,67.9393,166.926,100.558,100.61,-0.000162465,0.0439402,20.9382,133.032,-0.00475589,0.0,0.0
520,129.75,63.3728,67.8047,158.804,100.569,100.619,-0.000178865,0.043895,20.9385,133.032,-0.00456337,0.0,0.0
522,130.25,64.3728,67.5715,158.856,100.53,100.583,-0.000201185,0.0438583,20.9388,133.052,-0.00485133,0.0,0.0
524,130.75,63.1776,67.8208,162.917,100.525,100.592,-0.000219264,0.0438287,20.939,133.032,-0.00610035,0.0,0.0
526,131.25,63.1113,67.7664,161.453,100.507,100.536,-0.000237782,0.0438046,20.9392,133.002,-0.00264551,0.0,0.0
528,131.75,63.4154,67.2106,163.316,100.492,100.564,-0.00025278,0.0437932,20.9394,133.062,-0.00659793,0.0,0.0
530,132.25,63.1365,67.6518,160.652,100.471,100.558,-0.000255893,0.0437913,20.9395,133.052,-0.00802716,0.0,0.0
532,132.75,63.0962,67.5547,163.227,100.459,100.528,-0.000258414,0.0437816,20.9396,133.022,-0.00638562,0.0,0.0
534,133.25,63.1488,68.0319,161.984,100.463,100.503,-0.0002557,0.0437666,20.9397,133.002,-0.00362989,0.0,0.0
536,133.75,62.9362,67.9308,166.185,100.477,100.521,-0.000249221,0.0437543,20.9398,133.032,-0.00404287,0.0,0.0
538,134.25,63.6159,67.8697,159.627,100.446,100.508,-0.000243974,0.0437905,20.9398,133.032,-0.00567796,0.0,0.0
540,134.75,63.4054,68,164.919,100.439,100.489,-0.000241082,0.0438197,20.9396,133.022,-0.0046067,0.0,0.0
542,135.25,63.3604,67.9567,165.868,100.419,100.474,-0.000239963,0.0438434,20.9392,133.022,-0.00507622,0.0,0.0
544,135.75,63.5811,67.905,162.287,100.424,100.441,-0.000235659,0.0438626,20.939,133.002,-0.00154225,0.0,0.0
546,136.25,63.8552,67.5672,161.098,100.396,100.462,-0.000229116,0.0438782,20.9387,133.002,-0.00604604,0.0,0.0
548,136.75,63.9762,67.68,164.744,100.404,100.469,-0.000223816,0.0438908,20.939,133.012,-0.0059857,0.0,0.0
550,137.25,63.4424,67.7373,163.821,100.415,100.479,-0.000208652,0.043901,20.9392,133.002,-0.00587215,0.0,0.0
552,137.75,63.3621,67.8168,160.558,100.407,100.496,-0.000186586,0.0439335,20.9393,133.012,-0.00810343,0.0,0.0
554,138.25,63.2118,68.0726,162.851,100.445,100.474,-0.000161918,0.0439816,20.9395,133.002,-0.00266525,0.0,0.0
556,138.75,63.4845,67.7613,161.284,100.41,100.498,-0.000135823,0.0439722,20.9396,133.022,-0.00803045,0.0,0.0
558,139.25,63.5243,68.0425,161.104,100.437,100.488,-0.000114685,0.0439209,20.9397,132.992,-0.00465935,0.0,0.0
559,139.5,63.1449,67.6508,162.957,100.432,100.503,-0.000106353,0.043899,20.9397,133.012,-0.00653484,0.0,0.0