File: 01_Data/PEVA/Cone/PEVA_Cone_HF50Scan_240820_R1.csv
Names,Time,Stack TC,Smoke TC,Exh Press,Smoke Comp,Smoke Meas,CO Meter,CO2 Meter,O2 Meter,Sample Mass,Ext Coeff,Start Test,Flame Verif
Chan Gain,,500,500,1,1,1,1,1,1,1,1,1.0,1.0
Offset,,0,0,0.143687,0,0,0,0,0,0,0,0.0,0.0
Gain,,1,1,25.011,11.7833,14.1275,1,1,1,1.00092,1.04852,1.0,1.0
Units,sec,C,C,Pa,%,%,%,%,%,g,/m,,
Baseline,,55.6956,59.0859,168.112,101.091,101.203,-0.000499237,0.042842,20.9337,-448.427,-0.0101949,,
2,0.25,55.15,58.3432,168.1,100.595,100.678,-0.000753416,0.049944,20.9304,141.53,-0.00759315,0.0,0.0
4,0.75,55.2553,57.9137,170.334,100.571,100.646,-0.000723159,0.0504159,20.9298,141.65,-0.00680914,0.0,0.0
6,1.25,54.5795,57.9334,168.746,100.545,100.673,-0.000694982,0.0507981,20.9293,141.65,-0.0116597,0.0,0.0
8,1.75,55.0086,58.1066,164.027,100.541,100.709,-0.000672158,0.0512,20.9289,141.58,-0.0154018,0.0,0.0
10,2.25,54.4655,57.8826,168.915,100.507,100.607,-0.000660465,0.0515256,20.9286,141.51,-0.0091515,0.0,0.0
12,2.75,54.7332,57.9341,168.62,100.51,100.548,-0.000657109,0.0517083,20.9284,141.55,-0.00345385,0.0,0.0
14,3.25,54.6444,57.424,167.326,100.475,100.358,-0.000660504,0.0517833,20.9282,141.55,0.0107562,0.0,0.0
16,3.75,54.7755,58.0396,166.213,100.495,100.159,-0.000668758,0.0517956,20.9276,141.55,0.030839,0.0,0.0
18,4.25,54.8128,57.8388,165.994,100.453,99.7359,-0.0006802,0.0517617,20.9271,141.6,0.0659412,0.0,0.0
20,4.75,54.9327,57.8019,166.619,100.433,99.1474,-0.000693748,0.0517181,20.9267,141.49,0.118464,0.0,0.0
22,5.25,54.9057,57.9451,161.922,100.42,98.1355,-0.000704721,0.0516682,20.9263,141.38,0.211627,0.0,0.0
24,5.75,54.8957,58.1023,167.723,100.413,89.8607,-0.00071361,0.0515631,20.9261,141.41,1.0212,0.0,1.0
26,6.25,54.6987,57.969,152.322,100.395,60.8904,-0.000719451,0.0514196,20.9258,141.119,4.59911,0.0,1.0
28,6.75,55.0783,58.7402,122.721,100.356,42.8895,-0.000722959,0.0513034,20.9259,140.739,7.81873,0.0,1.0
30,7.25,55.651,59.1365,114.707,100.369,39.371,-0.000725801,0.0510708,20.9262,140.429,8.60726,0.0,1.0
32,7.75,56.2807,60.5589,136.127,100.334,31.5912,-0.000717775,0.0508824,20.9264,140.149,10.6289,0.0,1.0
34,8.25,58.043,63.1609,130.957,100.304,30.9445,-0.000711275,0.0506975,20.9265,139.878,10.8164,0.0,1.0
36,8.75,59.7264,66.198,128.028,100.304,29.8494,-0.00070601,0.0505185,20.9267,139.638,11.1478,0.0,1.0
38,9.25,61.322,68.6489,130.764,100.262,29.0845,-0.000690127,0.0503736,20.9268,139.478,11.3826,0.0,1.0
40,9.75,63.204,70.773,140.026,100.237,26.5706,-0.000677262,0.0502562,20.9269,139.348,12.2118,0.0,1.0
42,10.25,64.5867,73.0453,146.683,100.241,24.6248,-0.000666841,0.0501368,20.927,139.178,12.9116,0.0,1.0
44,10.75,65.0187,74.3896,142.44,100.186,21.9238,-0.000638697,0.0500182,20.927,139.078,13.9752,0.0,1.0
46,11.25,65.9023,74.9931,154.375,100.178,24.0139,-0.000598169,0.0499222,20.9277,138.978,13.1369,0.0,1.0
48,11.75,66.3768,76.2057,150.868,100.152,24.7037,-0.000565341,0.0501674,20.9282,138.817,12.874,0.0,1.0
50,12.25,67.2902,77.1048,154.219,100.137,27.2009,-0.000507769,0.050366,20.9286,138.717,11.987,0.0,1.0
52,12.75,67.2228,78.1595,149.796,100.104,32.8997,-0.000404723,0.0523606,20.929,138.677,10.2345,0.0,0.0
54,13.25,67.8346,77.7915,151.843,100.104,41.9695,-0.000270483,0.0539762,20.9288,138.627,7.99508,0.0,0.0
56,13.75,68.5302,78.8646,159.3,100.083,48.5327,0.00017857,0.0659304,20.9287,138.587,6.65678,0.0,0.0
58,14.25,68.1443,78.8441,158.817,100.117,57.6375,0.000848589,0.0904896,20.9277,138.517,5.07855,0.0,0.0
60,14.75,68.9716,78.9864,156.786,100.099,61.3125,0.00233476,0.123771,20.9269,138.517,4.50839,0.0,0.0
62,15.25,68.6548,78.7029,159.763,100.123,71.0027,0.00438767,0.15073,20.9209,138.557,3.16101,0.0,0.0
64,15.75,68.8751,78.9053,161.766,100.105,74.8834,0.00605053,0.220967,20.916,138.527,2.66992,0.0,0.0
66,16.25,68.4596,78.6986,156.388,100.145,77.6659,0.00990064,0.277858,20.8931,138.507,2.33802,0.0,0.0
68,16.75,68.673,78.838,158.847,100.097,82.5322,0.0152721,0.341072,20.8575,138.487,1.77468,0.0,0.0
70,17.25,68.3776,78.6335,161.541,100.149,85.5113,0.021825,0.407694,20.8287,138.437,1.45332,0.0,0.0
72,17.75,68.7471,78.2579,158.875,100.149,88.9298,0.0291147,0.461657,20.7661,138.397,1.09276,0.0,0.0
74,18.25,68.2308,78.3843,159.024,100.192,89.7512,0.0350193,0.507298,20.6799,138.387,1.01213,0.0,0.0
76,18.75,68.3691,78.2998,161.72,100.175,90.2659,0.0424384,0.544267,20.5435,138.387,0.958013,0.0,0.0
78,19.25,68.0457,77.6932,164.352,100.192,91.7206,0.0484478,0.563147,20.433,138.347,0.812559,0.0,0.0
80,19.75,67.6446,77.2035,156.652,100.193,92.6963,0.0541405,0.57844,20.3435,138.397,0.715338,0.0,0.0
82,20.25,67.5258,77.34,160.046,100.222,93.3529,0.0587517,0.58134,20.271,138.417,0.653057,0.0,0.0
84,20.75,67.1226,77.0496,166.46,100.207,95.6922,0.06181,0.575152,20.2122,138.387,0.424029,0.0,0.0
86,21.25,67.0289,76.6679,169.709,100.228,96.7701,0.0636782,0.561807,20.1646,138.387,0.322958,0.0,0.0
88,21.75,66.9908,76.2629,166.539,100.235,97.9212,0.0641059,0.543498,20.1261,138.337,0.214788,0.0,0.0
90,22.25,66.5988,75.7909,166.193,100.265,98.6429,0.0634755,0.528668,20.1091,138.337,0.150018,0.0,0.0
92,22.75,66.5112,75.4832,166.758,100.262,99.0025,0.0629648,0.501679,20.0954,138.267,0.116255,0.0,0.0
94,23.25,66.261,75.1638,164.804,100.264,99.359,0.0596759,0.479819,20.0973,138.297,0.0833553,0.0,0.0
96,23.75,65.8159,74.4401,170.592,100.279,99.4526,0.057012,0.455401,20.1107,138.277,0.0761509,0.0,0.0
98,24.25,65.6985,74.4867,167.9,100.304,99.4651,0.0530841,0.429582,20.1356,138.337,0.0772372,0.0,0.0
100,24.75,65.4584,74.0361,169.428,100.293,99.8182,0.0499026,0.403835,20.1684,138.367,0.0436219,0.0,0.0
102,25.25,64.7939,73.3335,166.968,100.302,100.081,0.0464615,0.378629,20.2054,138.347,0.0202846,0.0,0.0
104,25.75,65.0141,72.645,166.441,100.311,100.14,0.0428968,0.35401,20.2449,138.367,0.0156765,0.0,0.0
106,26.25,64.5634,72.8225,169.527,100.332,100.211,0.0393566,0.330288,20.2891,138.347,0.0111023,0.0,0.0
108,26.75,63.8304,71.7647,163.631,100.345,100.233,0.0359016,0.307785,20.3358,138.377,0.0102251,0.0,0.0
110,27.25,63.3376,71.2504,168.124,100.353,100.295,0.0326648,0.286598,20.3737,138.377,0.00533367,0.0,0.0
112,27.75,63.0585,71.2506,166.065,100.328,100.365,0.0296486,0.269437,20.4186,138.387,-0.00345494,0.0,0.0
114,28.25,62.8429,70.6758,165.215,100.355,100.398,0.0267999,0.249419,20.4549,138.417,-0.00398473,0.0,0.0
116,28.75,63.2119,69.967,172.469,100.346,100.358,0.0241276,0.233204,20.4968,138.347,-0.00109594,0.0,0.0
118,29.25,62.813,69.9112,163.535,100.365,100.355,0.0219631,0.214835,20.5307,138.327,0.00099331,0.0,0.0
120,29.75,62.5568,69.5212,164.546,100.402,100.41,0.0198491,0.199956,20.5582,138.317,-0.000742311,0.0,0.0
122,30.25,62.2597,69.5921,166.04,100.386,100.435,0.0178123,0.187904,20.5903,138.307,-0.0044427,0.0,0.0
124,30.75,62.1089,69.2636,168.922,100.42,100.422,0.0159484,0.17315,20.6162,138.267,-0.000200648,0.0,0.0
126,31.25,62.0345,69.0053,166.822,100.405,100.443,0.0142462,0.161199,20.6457,138.277,-0.00351911,0.0,0.0
128,31.75,62.1641,68.8778,164.919,100.42,100.451,0.0127154,0.148677,20.6696,138.297,-0.00284567,0.0,0.0
130,32.25,61.8582,68.8123,165.279,100.422,100.456,0.0113387,0.138535,20.6889,138.287,-0.00311548,0.0,0.0
132,32.75,61.2392,68.3684,169.313,100.429,100.458,0.0102236,0.130319,20.7078,138.287,-0.00266087,0.0,0.0
134,33.25,61.3949,67.9211,172.758,100.415,100.525,0.00913487,0.120406,20.7261,138.287,-0.0100943,0.0,0.0
136,33.75,61.3955,68.0723,170.947,100.462,100.533,0.0080861,0.112376,20.7483,138.327,-0.0064904,0.0,0.0
138,34.25,60.8794,67.738,166.825,100.461,100.496,0.00715241,0.10432,20.7663,138.317,-0.00320322,0.0,0.0
140,34.75,61.0485,67.5544,171.3,100.46,100.551,0.00632035,0.0977954,20.7853,138.337,-0.00834376,0.0,0.0
142,35.25,61.2239,67.137,166.794,100.45,100.529,0.00557761,0.0914735,20.8007,138.307,-0.00721568,0.0,0.0
144,35.75,60.5261,67.241,173.214,100.49,100.608,0.00491412,0.0863528,20.8172,138.297,-0.0107441,0.0,0.0
146,36.25,60.5261,66.6457,166.996,100.492,100.585,0.00437669,0.0813093,20.8305,138.227,-0.00848972,0.0,0.0
148,36.75,60.6884,66.3255,169.964,100.478,100.58,0.00386669,0.077224,20.8413,138.277,-0.00933424,0.0,0.0
150,37.25,59.9212,66.1908,163.821,100.469,100.576,0.00338637,0.0735092,20.8527,138.267,-0.00973594,0.0,0.0
152,37.75,60.1005,66.1182,168.014,100.48,100.58,0.00299731,0.070135,20.862,138.297,-0.0091493,0.0,0.0
154,38.25,59.6151,65.7746,163.044,100.497,100.562,0.00258873,0.0674019,20.8704,138.267,-0.00601258,0.0,0.0
156,38.75,59.7733,65.781,166.645,100.479,100.571,0.00225777,0.0647742,20.8781,138.317,-0.00834102,0.0,0.0
158,39.25,59.6895,65.7619,164.132,100.494,100.568,0.00193788,0.0626457,20.8848,138.257,-0.00668296,0.0,0.0
160,39.75,59.6582,65.683,165.749,100.519,100.601,0.00167877,0.0606446,20.8908,138.247,-0.00751305,0.0,0.0
162,40.25,59.3938,65.2273,163.383,100.503,100.543,0.00144947,0.0590237,20.8961,138.247,-0.00371709,0.0,0.0
164,40.75,59.4292,64.9533,165.92,100.53,100.57,0.00126375,0.0574953,20.9008,138.257,-0.00369461,0.0,0.0
166,41.25,59.0365,64.6224,161.817,100.487,100.557,0.00110854,0.0562574,20.9049,138.297,-0.00638781,0.0,0.0
168,41.75,59.3668,65.078,166.378,100.511,100.602,0.000978533,0.055198,20.9084,138.267,-0.00836187,0.0,0.0
170,42.25,59.0323,64.4643,165.721,100.496,100.583,0.000867781,0.0542889,20.9115,138.287,-0.00789877,0.0,0.0
172,42.75,59.4212,64.6914,166.933,100.515,100.608,0.00077317,0.0535525,20.9142,138.297,-0.00844033,0.0,0.0
174,43.25,59.2263,64.4422,166.506,100.52,100.544,0.000696536,0.0528637,20.9163,138.257,-0.00221066,0.0,0.0
176,43.75,59.0225,63.6995,164.839,100.54,100.583,0.00061119,0.0523058,20.9183,138.277,-0.00388437,0.0,0.0
178,44.25,59.0754,64.2891,165.811,100.523,100.606,0.00054206,0.0517407,20.9202,138.297,-0.00766448,0.0,0.0
180,44.75,59.0156,64.2161,164.195,100.56,100.625,0.000480895,0.0511809,20.9217,138.277,-0.00594401,0.0,0.0
182,45.25,59.0364,64.1575,163.821,100.523,100.591,0.000431352,0.050679,20.9229,138.237,-0.00621885,0.0,0.0
184,45.75,59.4749,63.4859,167.435,100.542,100.582,0.000392514,0.0502287,20.9241,138.207,-0.0036085,0.0,0.0
186,46.25,58.3996,63.9994,169.938,100.528,100.611,0.000361055,0.0498721,20.9253,138.167,-0.00757121,0.0,0.0
188,46.75,58.6323,63.685,164.917,100.574,100.712,0.000332989,0.0495906,20.9262,138.147,-0.0125726,0.0,0.0
190,47.25,58.2808,63.3457,165.809,100.549,100.624,0.000310255,0.0493382,20.927,138.207,-0.00681298,0.0,0.0
192,47.75,58.4054,63.8299,172.194,100.557,100.625,0.00029184,0.049112,20.9276,138.227,-0.00620733,0.0,0.0
194,48.25,58.6202,63.3395,171.997,100.517,100.598,0.000276925,0.0489116,20.9281,138.197,-0.0074088,0.0,0.0
196,48.75,58.1359,63.0459,168.113,100.574,100.66,0.000272329,0.0487338,20.9286,138.207,-0.00785268,0.0,0.0
198,49.25,58.0892,62.5112,162.022,100.542,100.648,0.000275343,0.0485898,20.9289,138.187,-0.00967119,0.0,0.0
200,49.75,58.628,62.5523,167.387,100.548,100.641,0.000277785,0.0484731,20.9292,138.217,-0.00851386,0.0,0.0
202,50.25,57.7558,62.8681,163.797,100.524,100.592,0.000304271,0.0483786,20.9294,138.187,-0.00622543,0.0,0.0
204,50.75,58.1218,62.7699,172.095,100.56,100.631,0.000347782,0.0483021,20.9294,138.167,-0.00656117,0.0,0.0
206,51.25,58.3329,62.742,165.366,100.539,100.618,0.000383026,0.048194,20.9294,138.127,-0.00714271,0.0,0.0
208,51.75,57.9207,62.4797,166.327,100.549,100.636,0.000449127,0.0481064,20.9294,138.157,-0.00791632,0.0,0.0
210,52.25,58.0121,61.9492,164.79,100.522,100.648,0.000502669,0.0480816,20.9294,138.157,-0.0115521,0.0,0.0
212,52.75,57.8348,62.2669,166.519,100.575,100.668,0.000555108,0.0480615,20.9294,138.147,-0.00848972,0.0,0.0
214,53.25,58.0501,62.4051,168.394,100.542,100.677,0.000597583,0.048029,20.9294,138.157,-0.0123431,0.0,0.0
216,53.75,57.9209,61.9782,161.806,100.568,100.716,0.000625509,0.0479882,20.9294,138.137,-0.0135251,0.0,0.0
218,54.25,58.1678,62.1464,164.528,100.557,100.647,0.000648129,0.0479389,20.9294,138.137,-0.0082823,0.0,0.0
220,54.75,57.9792,62.2311,164.393,100.578,100.673,0.00066236,0.0478845,20.9295,138.137,-0.00869933,0.0,0.0
222,55.25,57.1519,62.0588,163.634,100.558,100.599,0.000670206,0.0478403,20.9295,138.157,-0.00377632,0.0,0.0
224,55.75,57.952,61.6931,167.389,100.579,100.665,0.00067656,0.0478046,20.9295,138.177,-0.00782579,0.0,0.0
226,56.25,57.3812,61.6834,164.03,100.562,100.667,0.000676254,0.047791,20.9295,138.167,-0.00960149,0.0,0.0
228,56.75,57.9012,61.7653,165.466,100.594,100.699,0.000671098,0.0477801,20.9307,138.137,-0.00958942,0.0,0.0
230,57.25,57.7228,61.8004,165.735,100.553,100.662,0.000666921,0.0477469,20.9317,138.157,-0.00991815,0.0,0.0
232,57.75,57.2886,61.8205,167.803,100.56,100.642,0.000660812,0.0476982,20.9326,138.177,-0.0075136,0.0,0.0
234,58.25,57.5762,61.6783,169.147,100.541,100.661,0.000653411,0.0476587,20.9332,138.167,-0.0109181,0.0,0.0
236,58.75,57.9594,61.8069,169.99,100.553,100.638,0.000647413,0.0477036,20.9338,138.157,-0.00781701,0.0,0.0
238,59.25,57.4226,61.3934,165.7,100.547,100.596,0.000642553,0.0477399,20.9342,138.167,-0.00451345,0.0,0.0
240,59.75,57.0246,61.8004,170.459,100.542,100.665,0.000641343,0.0478174,20.9346,138.157,-0.0112068,0.0,0.0
242,60.25,57.0326,61.5236,166.68,100.556,100.63,0.000642816,0.0478801,20.935,138.157,-0.00677293,0.0,0.0
244,60.75,57.305,61.2868,165.624,100.562,100.662,0.000654236,0.0478694,20.9354,138.167,-0.00912241,0.0,0.0
246,61.25,57.2545,61.4898,165.233,100.547,100.684,0.000672691,0.0478608,20.9357,138.197,-0.0125583,0.0,0.0
248,61.75,57.2357,60.9388,167.951,100.571,100.601,0.000687639,0.0478999,20.936,138.207,-0.00271077,0.0,0.0
250,62.25,57.2785,61.1389,169.661,100.545,100.637,0.000723077,0.0479316,20.9362,138.207,-0.00846173,0.0,0.0
252,62.75,56.8024,60.7831,168.021,100.543,100.592,0.000751782,0.0479815,20.9363,138.207,-0.00448164,0.0,0.0
254,63.25,57.1001,61.4245,170.635,100.562,100.612,0.000786702,0.0480438,20.9364,138.197,-0.00448548,0.0,0.0
256,63.75,57.3913,61.0188,169.897,100.532,100.612,0.000814988,0.0480942,20.9365,138.187,-0.0073276,0.0,0.0
258,64.25,56.9932,60.9762,165.962,100.537,100.596,0.0008379,0.0480121,20.9366,138.197,-0.00533018,0.0,0.0
260,64.75,57.0767,61.1374,167.162,100.521,100.601,0.000874619,0.0479457,20.9365,138.197,-0.00728975,0.0,0.0
262,65.25,56.9866,61.2741,163.63,100.525,100.6,0.000904362,0.0479242,20.9361,138.207,-0.00687553,0.0,0.0
264,65.75,57.2077,61.0369,163.363,100.538,100.646,0.000941431,0.0479359,20.9358,138.217,-0.00991431,0.0,0.0
266,66.25,57.0247,61.255,164.885,100.526,100.615,0.000971457,0.047913,20.9356,138.197,-0.00815665,0.0,0.0
268,66.75,56.9832,61.413,173.431,100.506,100.652,0.000999877,0.0478654,20.9354,138.167,-0.0133938,0.0,0.0
270,67.25,56.9074,61.0497,167.262,100.518,100.589,0.00102659,0.0478349,20.9353,138.157,-0.00647614,0.0,0.0
272,67.75,57.0818,60.5845,167.025,100.508,100.55,0.00104822,0.0478174,20.9352,138.127,-0.0038542,0.0,0.0
274,68.25,56.9338,60.86,166.272,100.505,100.545,0.00106574,0.0478276,20.9351,138.097,-0.00367815,0.0,0.0
276,68.75,56.9054,61.0972,167.363,100.485,100.513,0.00107652,0.0478576,20.935,138.097,-0.0024969,0.0,0.0
278,69.25,57.1492,61.0581,168.435,100.511,100.549,0.00108218,0.047882,20.9349,138.107,-0.00340065,0.0,0.0
280,69.75,57.1741,60.837,170.928,100.472,100.524,0.00108676,0.047871,20.9349,138.097,-0.00474053,0.0,0.0
282,70.25,57.2631,60.7007,166.676,100.494,100.53,0.00108788,0.047862,20.9348,138.107,-0.00328494,0.0,0.0
284,70.75,57.1729,61.1747,165.592,100.472,100.545,0.00108878,0.0478467,20.9348,138.057,-0.00663413,0.0,0.0
286,71.25,56.7728,60.6367,165.978,100.491,100.547,0.00109566,0.047827,20.9348,138.087,-0.00515904,0.0,0.0
288,71.75,56.7338,60.9877,168.47,100.475,100.577,0.00110677,0.0478515,20.9347,138.077,-0.00928814,0.0,0.0
290,72.25,56.9761,60.6848,172.167,100.468,100.538,0.00111576,0.0479078,20.9347,138.077,-0.00640372,0.0,0.0
292,72.75,56.9447,60.8064,164.456,100.442,100.538,0.00114383,0.0479533,20.9347,138.067,-0.00884036,0.0,0.0
294,73.25,56.8171,60.7423,167.2,100.453,100.533,0.00115579,0.0479595,20.9347,138.077,-0.00724092,0.0,0.0
296,73.75,57.2182,60.704,164.776,100.443,100.566,0.00121004,0.0479621,20.9347,138.077,-0.0113051,0.0,0.0
298,74.25,57.231,60.7558,166.441,100.487,100.491,0.00125398,0.0480127,20.9347,138.097,-0.000352508,0.0,0.0
300,74.75,56.8218,60.5054,167.483,100.441,100.46,0.00131429,0.0480537,20.9347,138.087,-0.00176432,0.0,0.0
302,75.25,57.0694,60.4792,164.171,100.439,100.495,0.00136313,0.0481023,20.9347,138.067,-0.00508664,0.0,0.0
304,75.75,56.5808,60.5699,169.142,100.413,100.471,0.00141701,0.0481416,20.9347,138.087,-0.00528081,0.0,0.0
306,76.25,56.7817,61.028,167.51,100.439,100.478,0.00146065,0.0481581,20.9347,138.087,-0.00358711,0.0,0.0
308,76.75,56.8237,60.7729,167.346,100.414,100.474,0.00150511,0.0481715,20.9347,138.067,-0.0054909,0.0,0.0
310,77.25,56.9206,60.6384,165.927,100.42,100.427,0.00154112,0.0481985,20.9347,138.077,-0.000707223,0.0,0.0
312,77.75,57.1275,60.5986,166.356,100.392,100.465,0.00157029,0.0482349,20.9347,138.067,-0.00668461,0.0,0.0
314,78.25,57.3393,60.7332,164.089,100.431,100.483,0.00160303,0.0482644,20.9347,138.077,-0.00474601,0.0,0.0
316,78.75,56.3683,60.2547,166.901,100.398,100.484,0.00162955,0.0482883,20.9347,138.077,-0.00785487,0.0,0.0
318,79.25,56.503,60.2553,171.295,100.384,100.478,0.00165104,0.0482462,20.9347,138.007,-0.00855447,0.0,0.0
320,79.75,56.9442,60.5267,171.562,100.39,100.442,0.0016372,0.0482121,20.9345,137.987,-0.0047504,0.0,0.0
322,80.25,56.6776,60.2117,168.658,100.415,100.463,0.00162599,0.0482152,20.9342,137.977,-0.00434014,0.0,0.0
324,80.75,56.7974,60.2741,167.952,100.382,100.51,0.0015909,0.0482177,20.934,137.997,-0.0117371,0.0,0.0
326,81.25,56.7392,60.6632,172.189,100.387,100.473,0.00156248,0.0482966,20.9339,137.957,-0.00788889,0.0,0.0
328,81.75,56.5329,60.3046,167.018,100.375,100.432,0.00151996,0.0483605,20.9337,137.967,-0.00518702,0.0,0.0
330,82.25,56.832,60.4062,170.94,100.364,100.442,0.00148552,0.0483507,20.9336,137.987,-0.00714984,0.0,0.0
332,82.75,56.8311,60.4203,167.351,100.368,100.395,0.00145557,0.0483429,20.9335,137.967,-0.00241684,0.0,0.0
334,83.25,57.2045,60.1442,165.603,100.365,100.418,0.00142947,0.0483365,20.9334,137.997,-0.00481293,0.0,0.0
336,83.75,56.1795,59.8414,164.311,100.332,100.398,0.00142132,0.0483313,20.9334,137.997,-0.00598954,0.0,0.0
338,84.25,56.8029,60.1296,165.253,100.38,100.412,0.00142642,0.0483271,20.9333,137.997,-0.00287693,0.0,0.0
340,84.75,56.5376,60.3574,169.242,100.336,100.375,0.00143055,0.0483852,20.9333,137.997,-0.00363812,0.0,0.0
342,85.25,56.6868,60.5285,165.278,100.354,100.408,0.00145169,0.0484323,20.9333,137.977,-0.00488698,0.0,0.0
344,85.75,56.4389,60.0939,168.402,100.329,100.361,0.00148484,0.0484704,20.9332,137.977,-0.00300086,0.0,0.0
346,86.25,56.4563,60.2704,167.417,100.343,100.399,0.00151922,0.0484552,20.9332,137.987,-0.0051914,0.0,0.0
348,86.75,56.6614,60.3681,159.034,100.327,100.375,0.00155386,0.0484347,20.9328,137.997,-0.00446245,0.0,0.0
350,87.25,56.9317,59.8286,170.292,100.326,100.38,0.00158123,0.0484109,20.9324,138.007,-0.00496926,0.0,0.0
352,87.75,56.4633,60.1166,172.038,100.331,100.371,0.00160278,0.0483997,20.9321,138.047,-0.00367157,0.0,0.0
354,88.25,56.3837,59.6877,164.452,100.328,100.361,0.00161407,0.0483979,20.9318,138.017,-0.00309957,0.0,0.0
356,88.75,56.8905,60.3055,166.126,100.308,100.338,0.00161766,0.0483802,20.9316,137.997,-0.00277877,0.0,0.0
358,89.25,56.443,60.1475,166.886,100.338,100.385,0.00161099,0.0483514,20.9315,138.017,-0.00434946,0.0,0.0
360,89.75,56.8245,59.8584,166.162,100.299,100.349,0.00159696,0.048328,20.9318,138.007,-0.00458476,0.0,0.0
362,90.25,56.7153,60.2599,163.766,100.324,100.367,0.00159098,0.0483332,20.9319,138.027,-0.00394908,0.0,0.0
364,90.75,57.0464,59.5872,166.359,100.3,100.349,0.00156644,0.0483422,20.9321,138.037,-0.00441966,0.0,0.0
366,91.25,56.1116,59.8473,168.2,100.295,100.323,0.00154657,0.0483575,20.9323,137.997,-0.002583,0.0,0.0
368,91.75,57.0107,59.8039,165.855,100.283,100.324,0.00153047,0.0483772,20.9325,137.977,-0.00378345,0.0,0.0
370,92.25,56.6059,59.8747,165.747,100.288,100.345,0.00153044,0.0483931,20.9325,137.937,-0.00523145,0.0,0.0
372,92.75,56.3321,60.4497,173.884,100.275,100.32,0.00153041,0.0483446,20.9325,137.987,-0.00419205,0.0,0.0
374,93.25,56.3595,59.9999,167.313,100.268,100.325,0.00157724,0.0483052,20.9322,137.997,-0.0052874,0.0,0.0
376,93.75,55.8983,60.1497,167.387,100.257,100.308,0.00161517,0.0483138,20.9318,137.987,-0.0046226,0.0,0.0
378,94.25,56.3624,59.333,162.406,100.263,100.315,0.00168889,0.0483572,20.9314,137.977,-0.00473395,0.0,0.0
380,94.75,56.488,60.1488,162.362,100.258,100.325,0.00174861,0.0483923,20.9311,137.997,-0.00614479,0.0,0.0
382,95.25,56.2124,59.8563,165.685,100.266,100.31,0.00181654,0.0484207,20.9309,137.977,-0.00396334,0.0,0.0
384,95.75,56.0403,59.8558,165.361,100.272,100.337,0.00187156,0.0484284,20.9307,137.967,-0.00592536,0.0,0.0
386,96.25,56.9195,59.7279,169.009,100.245,100.317,0.001907,0.0484346,20.9306,137.977,-0.00661384,0.0,0.0
388,96.75,56.4613,59.9512,165.751,100.281,100.319,0.00193571,0.0485319,20.9304,137.957,-0.0035065,0.0,0.0
390,97.25,56.5103,60.3797,168.065,100.247,100.311,0.0019394,0.0486107,20.9303,137.947,-0.00582333,0.0,0.0
392,97.75,56.2872,60.2684,161.906,100.252,100.318,0.00194098,0.0486442,20.9303,137.937,-0.00607292,0.0,0.0
394,98.25,56.36,59.676,170.856,100.222,100.286,0.00194367,0.0486709,20.9302,137.947,-0.00583978,0.0,0.0
396,98.75,56.361,59.9877,166.689,100.242,100.301,0.00190677,0.0486925,20.9302,137.967,-0.00538284,0.0,0.0
398,99.25,56.5298,60.2145,165.86,100.209,100.267,0.00187689,0.0486486,20.9301,137.937,-0.00536035,0.0,0.0
400,99.75,56.1323,59.8349,166.301,100.224,100.282,0.00183055,0.0486129,20.9303,137.947,-0.00529288,0.0,0.0
402,100.25,56.2321,59.6657,167.229,100.211,100.267,0.00179301,0.0486148,20.9307,137.897,-0.00509651,0.0,0.0
404,100.75,56.4643,59.3986,173.689,100.22,100.262,0.00175029,0.0486164,20.931,137.947,-0.00383007,0.0,0.0
406,101.25,56.5174,60.0416,171.004,100.199,100.258,0.00170458,0.0486176,20.9312,137.927,-0.00541466,0.0,0.0
408,101.75,56.1719,59.5036,170.855,100.221,100.252,0.00166757,0.0485791,20.9314,137.957,-0.00278206,0.0,0.0
410,102.25,56.1321,59.8587,171.51,100.173,100.255,0.00162321,0.0485125,20.9316,137.927,-0.00748177,0.0,0.0
412,102.75,56.294,59.855,163.188,100.193,100.252,0.00157435,0.0484828,20.9316,137.897,-0.00535596,0.0,0.0
414,103.25,56.106,59.567,167.34,100.177,100.24,0.00152452,0.0484806,20.9315,137.917,-0.00577341,0.0,0.0
416,103.75,55.9346,59.6575,172.79,100.2,100.227,0.00147492,0.0484788,20.9315,137.877,-0.00250732,0.0,0.0
418,104.25,56.2845,60.0076,165.874,100.165,100.23,0.00142381,0.0484927,20.9315,137.897,-0.00591439,0.0,0.0
420,104.75,56.4668,59.9101,168.31,100.186,100.248,0.00137257,0.0485039,20.9315,137.917,-0.00569332,0.0,0.0
422,105.25,56.1435,59.6945,167.651,100.155,100.222,0.00133106,0.0484807,20.9315,137.887,-0.00609322,0.0,0.0
424,105.75,56.1906,59.9036,169.122,100.188,100.218,0.00131337,0.0484555,20.9315,137.877,-0.00276561,0.0,0.0
426,106.25,56.7228,59.5559,166.307,100.173,100.192,0.0012948,0.0484123,20.9315,137.856,-0.00174458,0.0,0.0
428,106.75,56.5711,60.0547,164.296,100.164,100.193,0.00127975,0.0484542,20.9315,137.836,-0.0026499,0.0,0.0
430,107.25,56.4939,59.8771,161.604,100.121,100.201,0.00130005,0.0484882,20.9315,137.856,-0.00737149,0.0,0.0
432,107.75,56.0694,59.5831,163.612,100.136,100.207,0.00132881,0.0484542,20.9315,137.836,-0.00649808,0.0,0.0
434,108.25,56.5084,59.6724,165.454,100.127,100.216,0.00136319,0.0484267,20.9315,137.897,-0.00818848,0.0,0.0
436,108.75,56.4365,59.4294,166.984,100.148,100.187,0.00139103,0.0483736,20.9315,137.867,-0.00362112,0.0,0.0
438,109.25,56.129,59.7942,169.502,100.112,100.168,0.0014279,0.0483307,20.9315,137.867,-0.0051755,0.0,0.0
440,109.75,56.3276,59.932,168.037,100.137,100.188,0.00145776,0.048342,20.9315,137.856,-0.00472407,0.0,0.0
442,110.25,55.9046,59.6425,171.28,100.146,100.164,0.00149366,0.0483511,20.9315,137.826,-0.0015757,0.0,0.0
444,110.75,56.2684,59.6748,166.06,100.118,100.157,0.00152273,0.0483586,20.9315,137.826,-0.00358492,0.0,0.0
446,111.25,56.2469,59.6188,165.904,100.104,100.155,0.0015541,0.0483646,20.9315,137.867,-0.0047153,0.0,0.0
448,111.75,55.7084,59.9426,164.555,100.119,100.151,0.0015795,0.0483694,20.9315,137.856,-0.00297838,0.0,0.0
450,112.25,56.8045,59.8249,167.278,100.125,100.152,0.00160008,0.0482793,20.9315,137.826,-0.00248813,0.0,0.0
452,112.75,56.4783,59.6919,167.447,100.154,100.165,0.00162716,0.0482062,20.9314,137.836,-0.00100109,0.0,0.0
454,113.25,56.4356,59.4766,164.766,100.094,100.165,0.0016491,0.0482086,20.9312,137.816,-0.00659024,0.0,0.0
456,113.75,55.8054,60.0047,167.499,100.136,100.164,0.00167598,0.0482104,20.9311,137.796,-0.00256655,0.0,0.0
458,114.25,55.7084,59.9636,168.599,100.086,100.166,0.00169776,0.048212,20.931,137.766,-0.00739673,0.0,0.0
460,114.75,56.2374,59.5899,169.533,100.119,100.155,0.00172431,0.0482132,20.9309,137.766,-0.00332771,0.0,0.0
462,115.25,56.2092,59.8425,173.488,100.09,100.131,0.00175383,0.0482223,20.9309,137.776,-0.00378674,0.0,0.0
464,115.75,55.9953,59.6834,161.501,100.105,100.147,0.00178461,0.0482369,20.9308,137.796,-0.00379771,0.0,0.0
466,116.25,56.2917,59.4968,165.408,100.076,100.148,0.00181571,0.0482488,20.9308,137.756,-0.00666595,0.0,0.0
468,116.75,56.3222,59.4702,170.348,100.11,100.153,0.00186337,0.0483501,20.9307,137.746,-0.00395512,0.0,0.0
470,117.25,56.1085,59.1685,165.908,100.055,100.123,0.00187804,0.0483774,20.9307,137.726,-0.00617331,0.0,0.0
472,117.75,56.0532,59.3807,167.278,100.087,100.164,0.00190587,0.0483933,20.9307,137.716,-0.00713942,0.0,0.0
474,118.25,56.5745,59.6407,168.648,100.094,100.133,0.00193088,0.0484062,20.9307,137.716,-0.00358108,0.0,0.0
476,118.75,56.2116,59.6633,166.869,100.074,100.152,0.00195113,0.0484013,20.9306,137.736,-0.00718002,0.0,0.0
478,119.25,56.2055,59.8539,170.273,100.072,100.123,0.00196686,0.0483973,20.9306,137.746,-0.00461986,0.0,0.0
480,119.75,55.8938,59.6784,167.978,100.098,100.15,0.00197897,0.048394,20.9306,137.726,-0.00480799,0.0,0.0
482,120.25,56.0043,59.6189,166.162,100.075,100.118,0.00198227,0.0483914,20.9306,137.766,-0.00395292,0.0,0.0
484,120.75,55.9833,59.5904,166.769,100.114,100.146,0.00198494,0.0483278,20.9306,137.716,-0.00299812,0.0,0.0
486,121.25,56.1386,59.4328,165.265,100.074,100.118,0.00198299,0.0482763,20.9306,137.766,-0.00401928,0.0,0.0
488,121.75,55.9828,59.8031,167.111,100.101,100.171,0.0019802,0.0482543,20.9306,137.736,-0.00645035,0.0,0.0
490,122.25,55.6268,60.0716,169.045,100.092,100.157,0.00196859,0.0482629,20.9306,137.746,-0.00596431,0.0,0.0
492,122.75,55.7431,60.0132,162.858,100.131,100.172,0.001953,0.0482698,20.9306,137.746,-0.00374835,0.0,0.0
494,123.25,56.0809,59.5135,173.255,100.077,100.164,0.0019349,0.0483061,20.9306,137.736,-0.008031,0.0,0.0
496,123.75,56.184,59.5997,166.217,100.124,100.173,0.00191529,0.0483356,20.9306,137.716,-0.00453485,0.0,0.0
498,124.25,56.1791,59.4102,165.429,100.108,100.163,0.00189941,0.0483594,20.9306,137.696,-0.00503782,0.0,0.0
500,124.75,56.2372,59.7579,161.361,100.131,100.194,0.00188655,0.0483634,20.9306,137.686,-0.00580029,0.0,0.0
502,125.25,56.3794,59.6143,169.626,100.144,100.189,0.00188779,0.0483666,20.9309,137.676,-0.00406974,0.0,0.0
504,125.75,56.2543,59.5482,165.82,100.149,100.216,0.00189929,0.0483692,20.9315,137.706,-0.00616728,0.0,0.0
506,126.25,55.7929,59.7011,165.928,100.128,100.196,0.0019086,0.0484481,20.9319,137.716,-0.00622872,0.0,0.0
508,126.75,55.7773,59.4227,163.29,100.167,100.214,0.00195526,0.0485121,20.932,137.686,-0.00425183,0.0,0.0
510,127.25,55.9362,59.3437,165.86,100.159,100.22,0.00199306,0.0485331,20.9319,137.706,-0.00559842,0.0,0.0
512,127.75,56.2252,59.2698,167.68,100.174,100.256,0.00205239,0.0485502,20.9318,137.686,-0.00750153,0.0,0.0
514,128.25,55.6443,59.5214,165.166,100.183,100.248,0.00210044,0.048564,20.9318,137.696,-0.00599722,0.0,0.0
516,128.75,55.8951,59.5311,165.281,100.185,100.255,0.00214349,0.0485752,20.9317,137.676,-0.00639878,0.0,0.0
518,129.25,56.1531,59.5689,170.511,100.193,100.251,0.00218207,0.0486085,20.9316,137.666,-0.00524406,0.0,0.0
520,129.75,56.2887,59.569,175.443,100.211,100.256,0.00219896,0.0486573,20.9316,137.636,-0.00417395,0.0,0.0
522,130.25,56.0273,59.433,167.13,100.22,100.269,0.00221264,0.0486354,20.9316,137.636,-0.00442954,0.0,0.0
524,130.75,55.8485,59.2053,165.61,100.202,100.274,0.00220675,0.0486177,20.9315,137.646,-0.00666047,0.0,0.0
526,131.25,56.2695,59.8561,167.365,100.222,100.292,0.00220199,0.0486033,20.9315,137.646,-0.0064723,0.0,0.0
528,131.75,55.9719,59.1195,171.058,100.219,100.36,0.00220087,0.0485916,20.9315,137.636,-0.0129085,0.0,0.0
530,132.25,55.6103,59.4246,170.479,100.242,100.359,0.0022017,0.0485867,20.9315,137.626,-0.0107447,0.0,0.0
532,132.75,55.9713,58.7912,171.108,100.265,100.324,0.00220311,0.0485701,20.9315,137.596,-0.00535925,0.0,0.0
534,133.25,56.5161,59.4953,169.254,100.269,100.29,0.00220425,0.0485494,20.9315,137.616,-0.00188002,0.0,0.0
536,133.75,56.3854,59.3635,164.675,100.297,100.303,0.00224958,0.0485326,20.9315,137.596,-0.000493954,0.0,0.0
538,134.25,56.2024,59.6481,165,100.278,100.293,0.00228629,0.0485271,20.9315,137.626,-0.00140518,0.0,0.0
540,134.75,56.397,59.4787,168.297,100.277,100.311,0.00234085,0.0485299,20.9315,137.616,-0.00305241,0.0,0.0
542,135.25,55.839,60.0607,169.438,100.306,100.312,0.00238505,0.0485969,20.9315,137.606,-0.000572353,0.0,0.0
544,135.75,55.951,59.3825,160.091,100.311,100.327,0.00241741,0.0487095,20.9315,137.606,-0.001494,0.0,0.0
546,136.25,55.8736,59.5097,165.391,100.313,100.355,0.00244053,0.0488006,20.9315,137.596,-0.00385201,0.0,0.0
548,136.75,56.3131,59.775,162.469,100.336,100.369,0.00244894,0.0488744,20.9314,137.596,-0.00298002,0.0,0.0
550,137.25,56.5514,59.3999,172.419,100.334,100.361,0.00244646,0.0489342,20.9314,137.596,-0.00253913,0.0,0.0
552,137.75,55.8975,59.2646,167.607,100.326,100.386,0.00243827,0.0489519,20.9314,137.596,-0.00551614,0.0,0.0
554,138.25,56.5397,59.7652,163.171,100.37,100.424,0.00242607,0.0489663,20.9314,137.606,-0.00489795,0.0,0.0
556,138.75,56.2323,59.9707,168.608,100.319,100.391,0.00241824,0.0489625,20.9314,137.586,-0.00658311,0.0,0.0
558,139.25,56.1205,60.4582,167.819,100.362,100.377,0.00241376,0.0489595,20.9314,137.586,-0.001318,0.0,0.0
560,139.75,56.2562,60.3083,170.606,100.35,100.418,0.00241013,0.0488955,20.9314,137.596,-0.00623037,0.0,0.0
562,140.25,56.5023,59.7639,168.078,100.377,100.394,0.00241476,0.0488437,20.9314,137.596,-0.00157954,0.0,0.0
564,140.75,56.272,59.809,168.661,100.372,100.42,0.00242531,0.0488018,20.9314,137.606,-0.00441747,0.0,0.0
566,141.25,56.1478,59.7514,165.791,100.389,100.441,0.00243042,0.0487678,20.9314,137.566,-0.00473724,0.0,0.0
568,141.75,56.3838,59.5737,169.171,100.358,100.435,0.00243146,0.0487645,20.9314,137.566,-0.00705164,0.0,0.0
570,142.25,55.9707,60.1334,165.869,100.395,100.468,0.00243231,0.0487837,20.9314,137.556,-0.00672356,0.0,0.0
572,142.75,56.0631,59.5152,162.963,100.379,100.439,0.00239252,0.0487993,20.9314,137.576,-0.0054558,0.0,0.0
574,143.25,56.3652,59.5867,167.894,100.4,100.462,0.00236028,0.0487965,20.9314,137.556,-0.00567686,0.0,0.0
576,143.75,56.2433,59.8735,163.952,100.398,100.436,0.00229765,0.0487942,20.9317,137.616,-0.00351308,0.0,0.0
578,144.25,56.3817,59.6333,164.935,100.418,100.471,0.00224692,0.0488232,20.9321,137.596,-0.00481951,0.0,0.0
580,144.75,56.6384,60.2974,165.178,100.42,100.468,0.00218366,0.0488466,20.9324,137.576,-0.00439169,0.0,0.0
582,145.25,56.7336,60.0544,161.781,100.437,100.521,0.00213243,0.0488656,20.9327,137.546,-0.00772374,0.0,0.0
583,145.5,56.076,59.7579,163.634,100.42,100.505,0.00211196,0.0488737,20.9328,137.516,-0.00781207,0.0,0.0