File: 01_Data/Thermoplastic_Helmet_Shell/STA/N2/10K_min/Thermoplastic_Helmet_Shell_STA_N2_10KData_250219_R1.csv
Temp./C,Time/min,DSC/(mW/mg),Mass loss/mg
35.0,0.0,0.56398,0.0140943
35.5,0.06913,0.570127,0.0122823
36,0.139287,0.586904,0.0117459
36.5,0.207378,0.596981,0.0120824
37,0.27294,0.600657,0.0135247
37.5,0.338298,0.606286,0.0120192
38,0.404947,0.61753,0.0137572
38.5,0.467503,0.62391,0.0130775
39,0.533119,0.63552,0.0139405
39.5,0.598176,0.638816,0.0133064
40,0.661038,0.642984,0.0127698
40.5,0.724081,0.648819,0.0139255
41,0.785544,0.656114,0.0128931
41.5,0.848044,0.65946,0.0118164
42,0.909104,0.665031,0.0127019
42.5,0.972356,0.679081,0.0140678
43,1.0265,0.672236,0.0144773
43.5,1.09116,0.688751,0.012689
44,1.15153,0.688989,0.0131092
44.5,1.21185,0.693655,0.0126356
45,1.26959,0.700119,0.0126159
45.5,1.32975,0.701587,0.0128315
46,1.38768,0.712918,0.0124613
46.5,1.44739,0.720951,0.0114898
47,1.50526,0.717714,0.0116784
47.5,1.56284,0.722024,0.0120104
48,1.62271,0.72192,0.0114391
48.5,1.67803,0.730499,0.0115149
49,1.73578,0.741595,0.0127046
49.5,1.79225,0.745917,0.0123296
50,1.84759,0.743949,0.0114489
50.5,1.90685,0.746454,0.0130674
51,1.95989,0.753483,0.0130819
51.5,2.01695,0.754553,0.012069
52,2.07119,0.759936,0.0121193
52.5,2.128,0.763351,0.0124783
53,2.18207,0.763219,0.0116777
53.5,2.23904,0.77153,0.0119689
54,2.29388,0.772268,0.0119962
54.5,2.34771,0.771779,0.0120923
55,2.40234,0.775468,0.0125579
55.5,2.45683,0.781706,0.0119724
56,2.51049,0.779368,0.0106678
56.5,2.56548,0.781739,0.0120362
57,2.61986,0.784905,0.0106032
57.5,2.67269,0.787669,0.0105926
58,2.72474,0.787685,0.0105899
58.5,2.77942,0.789483,0.00964282
59,2.83212,0.795054,0.00837481
59.5,2.88443,0.800889,0.00935893
60,2.93767,0.808675,0.00945241
60.5,2.99033,0.803151,0.00958708
61,3.04313,0.806059,0.00919256
61.5,3.09659,0.807957,0.00965421
62,3.14806,0.815838,0.00927872
62.5,3.19848,0.81301,0.0106496
63,3.25161,0.818454,0.0107118
63.5,3.30424,0.823624,0.0106066
64,3.35512,0.822681,0.0107406
64.5,3.4069,0.824696,0.00934167
65,3.45938,0.828423,0.0106387
65.5,3.51119,0.839046,0.0106704
66,3.56183,0.837087,0.0105732
66.5,3.61282,0.837544,0.0098878
67,3.66458,0.840063,0.0106982
67.5,3.71657,0.837678,0.0107326
68,3.76628,0.844525,0.0107391
68.5,3.81886,0.844568,0.0106398
69,3.86882,0.845724,0.00933149
69.5,3.92001,0.847144,0.00897217
70,3.97089,0.844934,0.00932433
70.5,4.02193,0.8478,0.00801339
71,4.07306,0.859305,0.00934477
71.5,4.12307,0.857896,0.00934703
72,4.17344,0.85899,0.00931377
72.5,4.22411,0.866939,0.00934653
73,4.27515,0.870327,0.00998983
73.5,4.32544,0.878565,0.0087727
74,4.37599,0.879195,0.00963209
74.5,4.42744,0.887608,0.0118496
75,4.47616,0.888012,0.00918955
75.5,4.52714,0.888194,0.00923525
76,4.57766,0.89997,0.00799788
76.5,4.62554,0.897274,0.00791545
77,4.67788,0.900016,0.00870687
77.5,4.72916,0.904856,0.00921386
78,4.77904,0.913568,0.00791292
78.5,4.82866,0.909679,0.00929875
79,4.87899,0.919245,0.00916814
79.5,4.92783,0.919224,0.0105504
80,4.97916,0.917874,0.01055
80.5,5.02917,0.923444,0.0101768
81,5.07745,0.930059,0.00985994
81.5,5.12661,0.925086,0.00923023
82,5.17785,0.925236,0.00922856
82.5,5.22833,0.924934,0.0106742
83,5.27685,0.927249,0.00921888
83.5,5.32638,0.935369,0.00926412
84,5.3742,0.939855,0.00916175
84.5,5.42131,0.947389,0.00785535
85,5.47505,0.942887,0.00921927
85.5,5.52462,0.946591,0.00922846
86,5.574,0.951465,0.0105751
86.5,5.62392,0.952211,0.01055
87,5.67327,0.954699,0.0105456
87.5,5.72237,0.958613,0.0092382
88,5.77223,0.961932,0.00976068
88.5,5.81969,0.957884,0.0105398
89,5.86993,0.962023,0.0105368
89.5,5.91848,0.963272,0.0105652
90,5.967,0.963158,0.0105259
90.5,6.01528,0.962124,0.0114923
91,6.06443,0.966221,0.0105456
91.5,6.11302,0.974163,0.011914
92,6.16372,0.975451,0.0105479
92.5,6.20922,0.973945,0.0105463
93,6.26074,0.974761,0.00919532
93.5,6.3078,0.976637,0.00971288
94,6.35745,0.976977,0.00921843
94.5,6.40619,0.977604,0.00793482
95,6.45481,0.984623,0.00811254
95.5,6.50259,0.987205,0.00923075
96,6.55112,0.985573,0.0104916
96.5,6.60013,0.983794,0.00984686
97,6.64857,0.988477,0.00923031
97.5,6.69677,0.990821,0.00960217
98,6.74601,0.988985,0.0105499
98.5,6.79433,0.988837,0.01055
99,6.84095,1.00041,0.01055
99.5,6.89125,0.993187,0.0105501
100,6.93818,0.995359,0.0101936
100.5,6.98697,0.996776,0.0092792
101,7.03424,0.995792,0.0103315
101.5,7.08218,0.994347,0.00922099
102,7.13085,1.00056,0.0100623
102.5,7.17906,0.996807,0.00906406
103,7.22798,0.999972,0.00856648
103.5,7.27441,1.00612,0.00781022
104,7.32393,1.0053,0.00894956
104.5,7.37248,1.00892,0.00780014
105,7.41884,1.0116,0.0078
105.5,7.46666,1.01619,0.00780001
106,7.51465,1.01659,0.0080143
106.5,7.56375,1.01562,0.00911571
107,7.61078,1.01535,0.0078352
107.5,7.65948,1.01305,0.00911811
108,7.7083,1.02439,0.00912
108.5,7.75619,1.02275,0.00911994
109,7.80307,1.0164,0.00914612
109.5,7.85196,1.02343,0.00770679
110,7.89954,1.02497,0.00878817
110.5,7.94476,1.02188,0.00835773
111,7.99563,1.02716,0.00812975
111.5,8.04322,1.03031,0.00809831
112,8.09126,1.02902,0.00841105
112.5,8.13984,1.02497,0.00913043
113,8.18694,1.03159,0.00878355
113.5,8.23578,1.03421,0.00873762
114,8.28357,1.0249,0.00910996
114.5,8.33201,1.03511,0.00911
115,8.37929,1.04358,0.00911001
115.5,8.42675,1.03345,0.00895994
116,8.47518,1.03347,0.00780159
116.5,8.52353,1.03767,0.00779377
117,8.5707,1.0354,0.00912307
117.5,8.61827,1.03661,0.00778784
118,8.66774,1.03725,0.00920913
118.5,8.71453,1.03149,0.00912022
119,8.7632,1.03546,0.00911988
119.5,8.80919,1.03035,0.00976836
120,8.85815,1.03374,0.0102691
120.5,8.90544,1.03179,0.00911933
121,8.95337,1.03107,0.00709876
121.5,9.00183,1.02802,0.00647977
122,9.04985,1.02153,0.00677282
122.5,9.09668,1.02332,0.00782618
123,9.14423,1.01785,0.0087071
123.5,9.19208,1.01424,0.00739731
124,9.24037,1.01602,0.00583137
124.5,9.28778,1.01141,0.00583
125,9.33541,1.015,0.00583089
125.5,9.38388,1.01423,0.00712929
126,9.43058,1.01502,0.00637091
126.5,9.47848,1.01654,0.00582
127,9.52588,1.01745,0.00582
127.5,9.57444,1.01968,0.00582014
128,9.62081,1.03066,0.00667686
128.5,9.66978,1.0314,0.00714039
129,9.71681,1.03251,0.00693937
129.5,9.76366,1.03773,0.00582151
130,9.81191,1.05172,0.00581344
130.5,9.86007,1.06242,0.00714826
131,9.90697,1.06822,0.00721478
131.5,9.95493,1.07758,0.00582989
132,10.0038,1.08166,0.00582684
132.5,10.0518,1.09733,0.00718571
133,10.0985,1.09579,0.00713996
133.5,10.1464,1.10916,0.00711903
134,10.1939,1.11017,0.00530467
134.5,10.2414,1.12185,0.00516937
135,10.2898,1.1245,0.00533514
135.5,10.337,1.12538,0.00648183
136,10.3824,1.12886,0.00695393
136.5,10.4296,1.14047,0.00647997
137,10.4804,1.15218,0.00648
137.5,10.5284,1.16218,0.00648
138,10.5752,1.17285,0.00648
138.5,10.6229,1.17826,0.00648011
139,10.6702,1.18446,0.0051922
139.5,10.7172,1.19463,0.00516014
140,10.7644,1.21096,0.00510029
140.5,10.8124,1.22461,0.00384606
141,10.8596,1.23378,0.00518162
141.5,10.9069,1.23879,0.00648307
142,10.9532,1.24567,0.00647976
142.5,11.0008,1.24779,0.00514734
143,11.049,1.25254,0.00652557
143.5,11.0965,1.26836,0.0051718
144,11.1433,1.27125,0.00517
144.5,11.1899,1.27379,0.00517
145,11.2382,1.27273,0.00517028
145.5,11.2862,1.28387,0.0050029
146,11.3329,1.28679,0.00488698
146.5,11.3798,1.28022,0.0048299
147,11.4264,1.27856,0.00482991
147.5,11.4749,1.27888,0.00483609
148,11.5226,1.27403,0.00383326
148.5,11.5696,1.27571,0.00384102
149,11.6161,1.28095,0.00481538
149.5,11.6648,1.27655,0.00515993
150,11.711,1.278,0.00516417
150.5,11.7574,1.28261,0.00381453
151,11.8047,1.28289,0.00385002
151.5,11.8524,1.2881,0.00385
152,11.9011,1.28647,0.00385
152.5,11.9473,1.28697,0.00385
153,11.9946,1.28386,0.00385
153.5,12.0414,1.28663,0.00385675
154,12.0892,1.28898,0.002517
154.5,12.1367,1.29243,0.00252978
155,12.1829,1.29207,0.00149963
155.5,12.2303,1.29883,0.00191669
156,12.2771,1.29938,0.00253028
156.5,12.3239,1.29664,0.00253015
157,12.3712,1.29216,0.00337839
157.5,12.4187,1.29585,0.0038504
158,12.4662,1.30047,0.00385
158.5,12.5124,1.29563,0.00385
159,12.5597,1.29598,0.00384999
159.5,12.606,1.30233,0.0038515
160,12.6542,1.29989,0.00260449
160.5,12.7014,1.31145,0.00278999
161,12.7488,1.31067,0.0025516
161.5,12.795,1.30788,0.00253001
162,12.8427,1.31323,0.00253
162.5,12.8893,1.30692,0.00253
163,12.9373,1.31283,0.00253
163.5,12.9836,1.30758,0.00253098
164,13.0309,1.31408,0.00354308
164.5,13.0756,1.31517,0.00253
165,13.1248,1.32502,0.00252183
165.5,13.1707,1.31622,0.0012109
166,13.2184,1.32356,0.00171371
166.5,13.2658,1.32263,0.00253061
167,13.313,1.31861,0.0025183
167.5,13.3603,1.31649,0.00385506
168,13.4073,1.31723,0.0038468
168.5,13.4552,1.32597,0.00252951
169,13.5007,1.32305,0.00250033
169.5,13.5484,1.32118,0.0012215
170,13.596,1.32367,0.00125799
170.5,13.6426,1.32793,-0.000100738
171,13.6896,1.32936,-9.9999e-05
171.5,13.7367,1.3323,-9.99996e-05
172,13.7839,1.32296,-9.88146e-05
172.5,13.8317,1.32819,0.000985761
173,13.8788,1.3289,0.00121021
173.5,13.9255,1.33962,0.00120985
174,13.9726,1.33505,0.000460654
174.5,14.0204,1.33102,0.000219487
175,14.0674,1.33067,0.000219707
175.5,14.1142,1.33591,-9.4356e-05
176,14.1609,1.33421,-0.000117262
176.5,14.2084,1.33478,0.00121517
177,14.2563,1.33658,0.00121
177.5,14.3034,1.34194,-0.000257278
178,14.3498,1.33591,-0.00142787
178.5,14.3974,1.34113,-0.00142955
179,14.4435,1.3331,-0.000689897
179.5,14.4922,1.3354,-0.000110339
180,14.5389,1.33901,-4.98421e-05
180.5,14.5859,1.3451,0.000546095
181,14.6331,1.34079,-0.000751619
181.5,14.6804,1.33958,-0.000760016
182,14.728,1.3411,-0.000760016
182.5,14.7748,1.3319,-0.0010474
183,14.8221,1.33702,-0.00207854
183.5,14.8689,1.33761,-0.00208
184,14.9176,1.34279,-0.00208
184.5,14.9619,1.34729,-0.00208
185,15.0095,1.34374,-0.00208
185.5,15.0544,1.34049,-0.00207904
186,15.1047,1.35065,-0.00139976
186.5,15.1509,1.35393,-0.00142008
187,15.1982,1.35621,-0.00141988
187.5,15.2449,1.36004,-0.00137576
188,15.2917,1.36466,-0.00274302
188.5,15.3384,1.36782,-0.00206171
189,15.3855,1.37023,-0.00208015
189.5,15.433,1.36694,-0.00161983
190,15.4798,1.36926,-0.00227962
190.5,15.5273,1.36867,-0.00274026
191,15.5739,1.37214,-0.00274
191.5,15.6214,1.37148,-0.00274003
192,15.6685,1.37565,-0.00273269
192.5,15.7159,1.3763,-0.00142757
193,15.7622,1.37623,-0.00143004
193.5,15.809,1.37306,-0.00143667
194,15.8561,1.38249,-0.0001052
194.5,15.9033,1.37221,-0.000557544
195,15.9504,1.37695,-0.00143679
195.5,15.9976,1.369,-0.00240914
196,16.0449,1.38392,-0.00241
196.5,16.0919,1.37935,-0.00240996
197,16.1392,1.37897,-0.00242962
197.5,16.1867,1.38099,-0.00344175
198,16.2327,1.38104,-0.00245387
198.5,16.2801,1.37717,-0.00240427
199,16.3271,1.37278,-0.00339597
199.5,16.3728,1.36567,-0.00372984
200,16.4194,1.38172,-0.00373
200.5,16.4674,1.37512,-0.00373
201,16.5143,1.37212,-0.00373
201.5,16.5614,1.37173,-0.00372683
202,16.6087,1.38086,-0.00242904
202.5,16.6547,1.38065,-0.00240076
203,16.7026,1.37602,-0.00339313
203.5,16.7494,1.38286,-0.0034001
204,16.7974,1.38412,-0.00338356
204.5,16.8437,1.38738,-0.0043926
205,16.8918,1.39381,-0.00471194
205.5,16.9381,1.38902,-0.00472079
206,16.9842,1.39503,-0.00537414
206.5,17.0329,1.39399,-0.00570985
207,17.0795,1.39022,-0.005755
207.5,17.1264,1.40401,-0.00505044
208,17.1726,1.40543,-0.00439423
208.5,17.2193,1.39133,-0.00439001
209,17.267,1.39177,-0.00438781
209.5,17.3157,1.39357,-0.00306429
210,17.3617,1.39673,-0.00358
210.5,17.4078,1.40549,-0.00372052
211,17.4556,1.40395,-0.00402062
211.5,17.5041,1.39502,-0.00437971
212,17.5509,1.39286,-0.00438
212.5,17.5978,1.39235,-0.00438
213,17.6445,1.39959,-0.00438
213.5,17.6913,1.4025,-0.00438
214,17.7383,1.40951,-0.00438
214.5,17.7861,1.41373,-0.00437999
215,17.833,1.40701,-0.00447098
215.5,17.8793,1.40573,-0.00176049
216,17.9269,1.40699,-0.00171817
216.5,17.9742,1.40462,-0.00437963
217,18.0215,1.405,-0.00452891
217.5,18.0694,1.41763,-0.00537626
218,18.1151,1.41547,-0.00570073
218.5,18.1624,1.41593,-0.00570001
219,18.2101,1.41598,-0.00570001
219.5,18.2566,1.41494,-0.00569972
220,18.3032,1.41505,-0.00466882
220.5,18.3517,1.4185,-0.00568409
221,18.3982,1.42002,-0.0057013
221.5,18.4462,1.42442,-0.00439352
222,18.4926,1.41969,-0.00438972
222.5,18.5405,1.4283,-0.00439
223,18.5867,1.42414,-0.00439
223.5,18.6346,1.42907,-0.00438713
224,18.6805,1.42335,-0.00573984
224.5,18.7278,1.42577,-0.00639495
225,18.7753,1.42686,-0.00571673
225.5,18.8238,1.42344,-0.00702111
226,18.8681,1.42265,-0.0070276
226.5,18.9181,1.4308,-0.00570537
227,18.9651,1.44158,-0.00513748
227.5,19.0124,1.44114,-0.00439076
228,19.0593,1.4356,-0.00437596
228.5,19.1066,1.44137,-0.00346405
229,19.1547,1.45279,-0.00519953
229.5,19.2016,1.45579,-0.00602896
230,19.2482,1.44786,-0.00603
230.5,19.2958,1.45416,-0.00602999
231,19.3424,1.4551,-0.00604421
231.5,19.3902,1.46441,-0.00471005
232,19.4366,1.45946,-0.0057125
232.5,19.4848,1.46448,-0.00571003
233,19.5317,1.47172,-0.00570824
233.5,19.5798,1.47815,-0.00451146
234,19.6267,1.48291,-0.00438785
234.5,19.6733,1.49133,-0.00570574
235,19.7204,1.49267,-0.00569503
235.5,19.768,1.49786,-0.00703578
236,19.8137,1.50442,-0.00682311
236.5,19.861,1.5139,-0.00603058
237,19.9095,1.51642,-0.00566788
237.5,19.957,1.51979,-0.00636603
238,20.0041,1.52694,-0.00668979
238.5,20.0511,1.53882,-0.00669
239,20.0982,1.54339,-0.00669
239.5,20.1461,1.55317,-0.00668974
240,20.1925,1.55818,-0.00701248
240.5,20.2405,1.56228,-0.00702001
241,20.2882,1.57791,-0.00702
241.5,20.3344,1.59282,-0.00702
242,20.3823,1.60135,-0.00701795
242.5,20.4305,1.62403,-0.00580609
243,20.4773,1.64056,-0.00570615
243.5,20.5255,1.64303,-0.00598762
244,20.5719,1.67159,-0.00735308
244.5,20.6202,1.68306,-0.00734999
245,20.6657,1.69429,-0.00734882
245.5,20.7143,1.72148,-0.0060503
246,20.7598,1.74649,-0.00637316
246.5,20.8103,1.76839,-0.00702047
247,20.8573,1.79601,-0.00702537
247.5,20.9047,1.80828,-0.00702647
248,20.9533,1.84524,-0.00702091
248.5,20.9995,1.87368,-0.0083342
249,21.0484,1.91756,-0.00836643
249.5,21.0953,1.93218,-0.00701732
250,21.1429,1.96963,-0.00634765
250.5,21.1913,1.99783,-0.00744183
251,21.2386,2.04014,-0.0087846
251.5,21.2854,2.06947,-0.00877999
252,21.3337,2.07916,-0.00878
252.5,21.3818,2.0992,-0.00878026
253,21.4286,2.10692,-0.0084995
253.5,21.4762,2.09607,-0.00746081
254,21.5239,2.08638,-0.0074662
254.5,21.5698,2.05009,-0.00812405
255,21.6173,1.99606,-0.00809496
255.5,21.6644,1.9435,-0.00779025
256,21.7102,1.88188,-0.00779
256.5,21.7577,1.81634,-0.00779001
257,21.8036,1.75812,-0.00779495
257.5,21.8499,1.70108,-0.00715049
258,21.8973,1.64863,-0.00712999
258.5,21.9439,1.60675,-0.00712785
259,21.9914,1.57126,-0.00781485
259.5,22.0367,1.5371,-0.00779002
260,22.0843,1.5128,-0.00779
260.5,22.1311,1.49454,-0.00779
261,22.1796,1.48785,-0.00779
261.5,22.2256,1.46804,-0.00779
262,22.2732,1.46088,-0.0077936
262.5,22.3209,1.46193,-0.00873589
263,22.3677,1.44605,-0.00911009
263.5,22.4147,1.4525,-0.00990525
264,22.4619,1.4246,-0.0104302
264.5,22.5098,1.42627,-0.0102703
265,22.5575,1.42809,-0.00911024
265.5,22.6047,1.42328,-0.00911
266,22.6512,1.41331,-0.00911
266.5,22.7005,1.41845,-0.00911
267,22.746,1.41756,-0.00911
267.5,22.7949,1.41104,-0.00911175
268,22.8409,1.40579,-0.0102014
268.5,22.8892,1.41397,-0.0100999
269,22.936,1.42501,-0.0101
269.5,22.9837,1.40722,-0.0101
270,23.0305,1.40457,-0.0101
270.5,23.0785,1.41016,-0.0101
271,23.1258,1.41545,-0.0101
271.5,23.1734,1.41928,-0.00989204
272,23.2201,1.4132,-0.00944755
272.5,23.2676,1.41028,-0.00977176
273,23.3152,1.41707,-0.00976661
273.5,23.3612,1.40287,-0.0111212
274,23.4098,1.40424,-0.0110799
274.5,23.4581,1.40333,-0.0110799
275,23.5052,1.39922,-0.0123387
275.5,23.5518,1.40539,-0.0110893
276,23.5996,1.40053,-0.0120437
276.5,23.6468,1.38994,-0.0124001
277,23.6949,1.39263,-0.0118094
277.5,23.7405,1.39609,-0.0117928
278,23.7893,1.39936,-0.0110812
278.5,23.8375,1.39117,-0.01108
279,23.884,1.39996,-0.01108
279.5,23.9316,1.39486,-0.01108
280,23.9782,1.38985,-0.01108
280.5,24.0252,1.39834,-0.01108
281,24.0743,1.38848,-0.0120423
281.5,24.121,1.3825,-0.0133884
282,24.1683,1.39184,-0.01339
282.5,24.2159,1.38843,-0.0133855
283,24.263,1.38499,-0.0120758
283.5,24.3113,1.37635,-0.01207
284,24.3583,1.37636,-0.01207
284.5,24.4056,1.374,-0.0120684
285,24.4536,1.36837,-0.0113374
285.5,24.5015,1.37536,-0.0123983
286,24.5471,1.37035,-0.0124
286.5,24.5956,1.38532,-0.0123926
287,24.6431,1.37791,-0.0141959
287.5,24.6909,1.36979,-0.0141599
288,24.7383,1.37409,-0.01416
288.5,24.7856,1.36872,-0.01416
289,24.8336,1.37217,-0.01416
289.5,24.8818,1.3681,-0.01416
290,24.9284,1.36585,-0.0141604
290.5,24.9755,1.36858,-0.0147545
291,25.0233,1.36221,-0.0161293
291.5,25.0711,1.35373,-0.0153945
292,25.1181,1.36421,-0.0141611
292.5,25.1655,1.35821,-0.01416
293,25.2132,1.35293,-0.01416
293.5,25.2605,1.34597,-0.01416
294,25.3088,1.34962,-0.01416
294.5,25.3555,1.35135,-0.01416
295,25.4036,1.34491,-0.0141553
295.5,25.4515,1.34305,-0.0148041
296,25.4991,1.33889,-0.01482
296.5,25.5475,1.339,-0.01482
297,25.5942,1.3309,-0.014807
297.5,25.6421,1.33067,-0.0135116
298,25.6881,1.31883,-0.0135
298.5,25.7367,1.32274,-0.0135
299,25.7849,1.31489,-0.0135
299.5,25.8315,1.32347,-0.0134994
300,25.8798,1.31879,-0.0138253
300.5,25.9269,1.3107,-0.0158513
301,25.9746,1.30894,-0.0158101
301.5,26.0222,1.31227,-0.01581
302,26.0701,1.30342,-0.01581
302.5,26.118,1.30066,-0.0158129
303,26.1653,1.29804,-0.0164666
303.5,26.213,1.29107,-0.0171234
304,26.2601,1.29035,-0.01712
304.5,26.309,1.28906,-0.01712
305,26.3559,1.27777,-0.0171201
305.5,26.4032,1.27282,-0.0174723
306,26.451,1.2691,-0.01745
306.5,26.4991,1.27116,-0.017448
307,26.5465,1.25824,-0.0187662
307.5,26.5943,1.25835,-0.0187605
308,26.6418,1.25746,-0.0173615
308.5,26.6897,1.24472,-0.0174292
309,26.7374,1.24997,-0.0161314
309.5,26.7844,1.24013,-0.0161009
310,26.8303,1.23746,-0.0174528
310.5,26.8807,1.23251,-0.0174444
311,26.928,1.23684,-0.0187734
311.5,26.9757,1.23667,-0.018769
312,27.0227,1.2283,-0.0200815
312.5,27.0697,1.2245,-0.02008
313,27.1185,1.21393,-0.02008
313.5,27.1653,1.21537,-0.0200862
314,27.2136,1.21549,-0.0191006
314.5,27.2612,1.20745,-0.0191015
315,27.3082,1.20749,-0.0203966
315.5,27.3562,1.19695,-0.0217998
316,27.4031,1.19582,-0.02173
316.5,27.4509,1.18574,-0.0216958
317,27.497,1.18148,-0.0243878
317.5,27.5452,1.17347,-0.0243637
318,27.5943,1.17415,-0.0230493
318.5,27.642,1.16335,-0.023052
319,27.6873,1.15757,-0.0216963
319.5,27.7366,1.14908,-0.0224132
320,27.7843,1.14245,-0.0230496
320.5,27.8318,1.13582,-0.02305
321,27.8797,1.13113,-0.02305
321.5,27.9276,1.12277,-0.0230594
322,27.9748,1.12003,-0.0255605
322.5,28.0225,1.11878,-0.02568
323,28.0707,1.12093,-0.0256797
323.5,28.1185,1.10603,-0.0270849
324,28.1656,1.09395,-0.0270001
324.5,28.2131,1.0932,-0.027
325,28.2613,1.08656,-0.0270324
325.5,28.3088,1.08098,-0.0294856
326,28.3568,1.07495,-0.0296404
326.5,28.4054,1.06945,-0.0309453
327,28.4532,1.06226,-0.0309516
327.5,28.5003,1.06028,-0.0321584
328,28.5487,1.05338,-0.0331304
328.5,28.5967,1.04025,-0.0335901
329,28.6443,1.03231,-0.03359
329.5,28.6918,1.03449,-0.0335899
330,28.7406,1.02754,-0.033651
330.5,28.7881,1.01895,-0.0349068
331,28.8359,1.01688,-0.0346269
331.5,28.882,1.00628,-0.0342348
332,28.9315,0.996642,-0.0348828
332.5,28.979,0.991636,-0.0360861
333,29.0261,0.989593,-0.0375199
333.5,29.0748,0.978778,-0.0388778
334,29.1224,0.970691,-0.0401687
334.5,29.1702,0.967046,-0.0401692
335,29.2173,0.962455,-0.0415182
335.5,29.2661,0.957905,-0.0414838
336,29.3133,0.951684,-0.0428133
336.5,29.3619,0.946761,-0.0439192
337,29.4102,0.936469,-0.0455246
337.5,29.4575,0.944342,-0.0459311
338,29.5057,0.942274,-0.0480566
338.5,29.554,0.93683,-0.0494223
339,29.6011,0.932554,-0.0493022
339.5,29.6485,0.922972,-0.0507216
340,29.6959,0.926221,-0.0521435
340.5,29.7444,0.920449,-0.0526173
341,29.7914,0.909459,-0.0527485
341.5,29.8393,0.905858,-0.053468
342,29.8887,0.907922,-0.054818
342.5,29.9374,0.900009,-0.0561285
343,29.9847,0.901999,-0.0564968
343.5,30.033,0.892135,-0.0587239
344,30.0808,0.889327,-0.0600606
344.5,30.1279,0.891693,-0.0613569
345,30.1749,0.895065,-0.0613876
345.5,30.2238,0.885844,-0.0626765
346,30.2726,0.89085,-0.0640789
346.5,30.3205,0.888152,-0.0657796
347,30.3685,0.89239,-0.0670792
347.5,30.4164,0.887129,-0.0683892
348,30.4635,0.885876,-0.0697027
348.5,30.5119,0.884275,-0.0710741
349,30.5607,0.884496,-0.0735156
349.5,30.6087,0.888263,-0.0748869
350,30.656,0.880415,-0.0762901
350.5,30.7043,0.887067,-0.076769
351,30.7524,0.893709,-0.0782314
351.5,30.8009,0.883367,-0.0806479
352,30.8487,0.887783,-0.082427
352.5,30.8967,0.89051,-0.0842029
353,30.9424,0.904613,-0.085522
353.5,30.9905,0.895139,-0.0868192
354,31.0408,0.903769,-0.0880907
354.5,31.0882,0.907865,-0.0903012
355,31.1358,0.91471,-0.0918504
355.5,31.1842,0.91796,-0.0907826
356,31.2323,0.91719,-0.093509
356.5,31.2818,0.92468,-0.0951418
357,31.3277,0.927944,-0.0972928
357.5,31.3783,0.929661,-0.0982103
358,31.4261,0.936757,-0.0995683
358.5,31.4745,0.944446,-0.10078
359,31.5225,0.948494,-0.10495
359.5,31.5708,0.955646,-0.10673
360,31.6187,0.957373,-0.109708
360.5,31.668,0.952779,-0.112491
361,31.7155,0.960334,-0.113742
361.5,31.7635,0.964542,-0.113702
362,31.8119,0.978137,-0.115021
362.5,31.8601,0.973988,-0.118474
363,31.9082,0.974305,-0.119852
363.5,31.9571,0.987195,-0.122992
364,32.0052,0.9883,-0.124263
364.5,32.0539,0.994444,-0.125056
365,32.1017,1.00885,-0.126368
365.5,32.1505,1.01267,-0.128917
366,32.198,1.01966,-0.130371
366.5,32.2468,1.02477,-0.134595
367,32.2954,1.03604,-0.136716
367.5,32.3436,1.04109,-0.138728
368,32.3923,1.04759,-0.140409
368.5,32.4417,1.06145,-0.141774
369,32.4883,1.06008,-0.144853
369.5,32.537,1.06652,-0.148023
370,32.5867,1.07389,-0.15072
370.5,32.6337,1.08712,-0.152074
371,32.6819,1.08725,-0.153691
371.5,32.7308,1.08725,-0.155564
372,32.7799,1.09909,-0.15868
372.5,32.828,1.10677,-0.161126
373,32.8757,1.11186,-0.162497
373.5,32.9251,1.12565,-0.164237
374,32.9733,1.12201,-0.166151
374.5,33.0222,1.13245,-0.167893
375,33.0698,1.13684,-0.170507
375.5,33.1182,1.14755,-0.172492
376,33.1666,1.14932,-0.175059
376.5,33.2135,1.15577,-0.17853
377,33.2635,1.16661,-0.181423
377.5,33.312,1.16258,-0.184395
378,33.3594,1.16973,-0.18613
378.5,33.4087,1.17246,-0.188131
379,33.4569,1.17753,-0.190303
379.5,33.5049,1.17541,-0.192875
380,33.5539,1.18082,-0.195837
380.5,33.6018,1.18639,-0.199165
381,33.6478,1.1852,-0.201688
381.5,33.6994,1.18196,-0.204925
382,33.7473,1.19479,-0.207937
382.5,33.7958,1.19457,-0.210537
383,33.844,1.2082,-0.211987
383.5,33.8923,1.21024,-0.215269
384,33.9407,1.20865,-0.220094
384.5,33.987,1.20646,-0.223437
385,34.0356,1.22281,-0.225084
385.5,34.0858,1.22234,-0.228394
386,34.134,1.2264,-0.231785
386.5,34.1825,1.2337,-0.234884
387,34.2315,1.2318,-0.237773
387.5,34.2802,1.2303,-0.242834
388,34.3274,1.23356,-0.245008
388.5,34.3776,1.23864,-0.24582
389,34.4256,1.24475,-0.249297
389.5,34.4721,1.23907,-0.253074
390,34.5224,1.24559,-0.256816
390.5,34.5708,1.25103,-0.26086
391,34.6198,1.25382,-0.264264
391.5,34.6679,1.24953,-0.267918
392,34.7165,1.25384,-0.272612
392.5,34.765,1.25316,-0.275738
393,34.8134,1.25846,-0.280009
393.5,34.8627,1.26444,-0.285109
394,34.911,1.27235,-0.288656
394.5,34.9596,1.26649,-0.292425
395,35.0081,1.27473,-0.296155
395.5,35.0557,1.27845,-0.301619
396,35.1042,1.2775,-0.305921
396.5,35.153,1.26995,-0.309961
397,35.2018,1.26569,-0.315347
397.5,35.25,1.28719,-0.320414
398,35.2986,1.28871,-0.324491
398.5,35.3468,1.28001,-0.329602
399,35.3957,1.291,-0.334566
399.5,35.4441,1.29385,-0.339677
400,35.4919,1.29367,-0.343799
400.5,35.5416,1.28098,-0.348935
401,35.5899,1.28553,-0.354367
401.5,35.6363,1.28247,-0.360639
402,35.6873,1.28719,-0.367041
402.5,35.7352,1.27746,-0.374039
403,35.7838,1.28572,-0.379808
403.5,35.8331,1.27754,-0.384901
404,35.8815,1.29034,-0.391791
404.5,35.9303,1.28181,-0.399257
405,35.9786,1.27538,-0.406449
405.5,36.0273,1.2702,-0.412243
406,36.076,1.27192,-0.421181
406.5,36.1247,1.26656,-0.42911
407,36.1726,1.25861,-0.435341
407.5,36.2214,1.25639,-0.443899
408,36.2703,1.25799,-0.452662
408.5,36.3193,1.26377,-0.459061
409,36.3664,1.25767,-0.465542
409.5,36.4161,1.26137,-0.47423
410,36.4648,1.2662,-0.482927
410.5,36.5128,1.25336,-0.491974
411,36.5611,1.2613,-0.500812
411.5,36.61,1.25561,-0.510907
412,36.6588,1.25488,-0.518352
412.5,36.7064,1.25888,-0.52983
413,36.755,1.26241,-0.541402
413.5,36.8045,1.26719,-0.553828
414,36.8529,1.25526,-0.564585
414.5,36.9011,1.26862,-0.575429
415,36.9507,1.26781,-0.586359
415.5,36.9979,1.25896,-0.597193
416,37.046,1.2673,-0.610407
416.5,37.096,1.26723,-0.622842
417,37.1446,1.27418,-0.635679
417.5,37.1924,1.28682,-0.648603
418,37.2414,1.29809,-0.662156
418.5,37.2909,1.2955,-0.677212
419,37.339,1.3009,-0.690647
419.5,37.3879,1.30991,-0.702893
420,37.4375,1.31788,-0.717676
420.5,37.4859,1.32778,-0.730573
421,37.5345,1.32359,-0.747636
421.5,37.5825,1.33576,-0.762189
422,37.6317,1.35183,-0.776476
422.5,37.681,1.34484,-0.792011
423,37.7296,1.34475,-0.806996
423.5,37.7779,1.34935,-0.822796
424,37.8266,1.35352,-0.838361
424.5,37.8749,1.3587,-0.852462
425,37.9231,1.36888,-0.866553
425.5,37.9714,1.36021,-0.88193
426,38.0183,1.37588,-0.897322
426.5,38.0689,1.38372,-0.912803
427,38.118,1.38215,-0.927804
427.5,38.1669,1.37904,-0.943857
428,38.2159,1.37785,-0.960684
428.5,38.2645,1.38013,-0.975896
429,38.3136,1.37232,-0.991245
429.5,38.3616,1.37645,-1.00746
430,38.4101,1.37796,-1.0224
430.5,38.4585,1.37885,-1.03905
431,38.5079,1.37643,-1.05366
431.5,38.557,1.3738,-1.06862
432,38.6049,1.36648,-1.08401
432.5,38.6543,1.35605,-1.09985
433,38.7031,1.35231,-1.11537
433.5,38.752,1.36066,-1.12775
434,38.8005,1.36307,-1.144
434.5,38.8493,1.3526,-1.15941
435,38.8981,1.34937,-1.17655
435.5,38.9467,1.34571,-1.19079
436,38.9962,1.33577,-1.20593
436.5,39.0431,1.33231,-1.21879
437,39.0933,1.32132,-1.23561
437.5,39.1415,1.32107,-1.25138
438,39.1911,1.3144,-1.266
438.5,39.2402,1.30522,-1.28147
439,39.2888,1.30746,-1.2965
439.5,39.3375,1.29913,-1.31248
440,39.3864,1.29208,-1.32652
440.5,39.4324,1.29506,-1.34025
441,39.4834,1.28763,-1.35461
441.5,39.5321,1.27682,-1.37017
442,39.5818,1.25644,-1.38555
442.5,39.6294,1.2531,-1.40045
443,39.6784,1.24793,-1.4147
443.5,39.7275,1.24705,-1.42937
444,39.7738,1.23711,-1.44506
444.5,39.8259,1.24124,-1.45935
445,39.8749,1.23143,-1.47339
445.5,39.9233,1.2238,-1.48889
446,39.972,1.22368,-1.50487
446.5,40.0211,1.21611,-1.51895
447,40.0699,1.20588,-1.53268
447.5,40.1181,1.19531,-1.5464
448,40.1668,1.18818,-1.56241
448.5,40.2133,1.19198,-1.57631
449,40.2654,1.17667,-1.58911
449.5,40.3139,1.18564,-1.60448
450,40.3632,1.18651,-1.6187
450.5,40.4118,1.17248,-1.63409
451,40.461,1.16313,-1.64805
451.5,40.5104,1.16498,-1.66232
452,40.5596,1.17348,-1.67661
452.5,40.6086,1.17777,-1.69001
453,40.6567,1.18088,-1.70479
453.5,40.7063,1.18731,-1.71831
454,40.7552,1.19169,-1.73121
454.5,40.8035,1.19602,-1.74613
455,40.8543,1.19921,-1.7611
455.5,40.9026,1.20001,-1.7721
456,40.9497,1.20564,-1.784
456.5,41.0009,1.21119,-1.79775
457,41.0497,1.21118,-1.81257
457.5,41.0987,1.21881,-1.82642
458,41.1484,1.22094,-1.83884
458.5,41.1966,1.21755,-1.85169
459,41.2464,1.21334,-1.86456
459.5,41.2952,1.21192,-1.87916
460,41.3437,1.21031,-1.89006
460.5,41.3933,1.21205,-1.90229
461,41.4425,1.20536,-1.91595
461.5,41.4888,1.20764,-1.92775
462,41.5403,1.20859,-1.93994
462.5,41.5895,1.20777,-1.95273
463,41.6383,1.2111,-1.96327
463.5,41.6874,1.20419,-1.97314
464,41.737,1.19614,-1.98507
464.5,41.7853,1.19442,-1.99641
465,41.8343,1.19261,-2.00653
465.5,41.8843,1.18233,-2.01764
466,41.9322,1.18084,-2.02817
466.5,41.9818,1.17806,-2.04025
467,42.0304,1.17512,-2.05114
467.5,42.0795,1.16344,-2.06167
468,42.1274,1.16189,-2.06957
468.5,42.1769,1.16225,-2.07981
469,42.2263,1.15512,-2.08806
469.5,42.2751,1.14437,-2.09778
470,42.3247,1.14421,-2.10907
470.5,42.3738,1.11802,-2.11733
471,42.4223,1.12006,-2.12712
471.5,42.4716,1.1227,-2.13564
472,42.5201,1.11216,-2.14433
472.5,42.5689,1.09301,-2.15409
473,42.6187,1.09446,-2.16174
473.5,42.6671,1.08793,-2.17054
474,42.7154,1.0817,-2.17758
474.5,42.7647,1.07577,-2.18638
475,42.8144,1.06742,-2.19476
475.5,42.8636,1.05987,-2.20454
476,42.9126,1.05293,-2.21351
476.5,42.9611,1.04396,-2.22048
477,43.0112,1.04149,-2.22853
477.5,43.0598,1.03201,-2.23545
478,43.1079,1.02127,-2.24375
478.5,43.1583,1.01576,-2.25258
479,43.2075,1.00962,-2.26138
479.5,43.256,0.995793,-2.26983
480,43.3053,0.990732,-2.27612
480.5,43.3536,0.980641,-2.2842
481,43.403,0.970041,-2.29233
481.5,43.4524,0.961701,-2.30111
482,43.5018,0.955359,-2.30887
482.5,43.5508,0.945187,-2.31453
483,43.5997,0.943291,-2.32246
483.5,43.6492,0.933696,-2.33077
484,43.6988,0.92833,-2.33993
484.5,43.7481,0.914862,-2.34782
485,43.797,0.908841,-2.35535
485.5,43.8459,0.901457,-2.36256
486,43.8962,0.893631,-2.37128
486.5,43.945,0.893707,-2.38017
487,43.9936,0.892427,-2.38669
487.5,44.0429,0.886279,-2.39492
488,44.0922,0.886285,-2.40537
488.5,44.1413,0.880048,-2.41424
489,44.1907,0.876675,-2.42152
489.5,44.2397,0.876,-2.43112
490,44.289,0.872466,-2.44083
490.5,44.3387,0.86495,-2.45082
491,44.3879,0.866289,-2.45826
491.5,44.4369,0.860108,-2.46753
492,44.4865,0.856311,-2.47683
492.5,44.5362,0.86045,-2.4871
493,44.5851,0.861339,-2.49693
493.5,44.6319,0.857049,-2.50335
494,44.6844,0.850864,-2.5142
494.5,44.7317,0.853873,-2.52314
495,44.7818,0.850695,-2.53363
495.5,44.8307,0.848277,-2.54458
496,44.8802,0.850166,-2.55436
496.5,44.9291,0.842425,-2.56461
497,44.9792,0.839126,-2.57516
497.5,45.0285,0.843128,-2.58395
498,45.0779,0.835331,-2.59618
498.5,45.1246,0.834821,-2.60457
499,45.176,0.827919,-2.61746
499.5,45.2252,0.822372,-2.62711
500,45.2753,0.815088,-2.63552
500.5,45.3217,0.814187,-2.64546
501,45.3734,0.803494,-2.65769
501.5,45.4216,0.805103,-2.66777
502,45.472,0.798168,-2.68037
502.5,45.5198,0.812728,-2.69049
503,45.5695,0.803411,-2.70092
503.5,45.6189,0.801668,-2.71075
504,45.6682,0.796833,-2.72061
504.5,45.7183,0.785801,-2.73156
505,45.7663,0.772062,-2.74279
505.5,45.8162,0.767285,-2.75189
506,45.8644,0.758703,-2.76228
506.5,45.9144,0.757084,-2.7716
507,45.9631,0.755243,-2.7799
507.5,46.0123,0.743883,-2.79022
508,46.0623,0.742472,-2.7999
508.5,46.1115,0.735473,-2.80974
509,46.1614,0.731114,-2.81904
509.5,46.2115,0.723237,-2.82966
510,46.2597,0.709379,-2.83875
510.5,46.31,0.705639,-2.84778
511,46.3589,0.692181,-2.85644
511.5,46.4085,0.691669,-2.86543
512,46.4579,0.684734,-2.87419
512.5,46.5066,0.678416,-2.88338
513,46.5564,0.665365,-2.89157
513.5,46.6056,0.658499,-2.90035
514,46.6551,0.655991,-2.90888
514.5,46.7038,0.645424,-2.91687
515,46.7538,0.639346,-2.92571
515.5,46.8031,0.630365,-2.93276
516,46.8525,0.618303,-2.93902
516.5,46.9022,0.616225,-2.94708
517,46.9512,0.614024,-2.95604
517.5,46.999,0.600682,-2.96149
518,47.0502,0.589171,-2.96919
518.5,47.0993,0.577147,-2.97623
519,47.1489,0.560912,-2.98324
519.5,47.1984,0.548775,-2.98998
520,47.2478,0.536376,-2.99833
520.5,47.2971,0.523026,-3.00526
521,47.3455,0.503516,-3.01113
521.5,47.3954,0.487855,-3.01799
522,47.4451,0.477378,-3.02497
522.5,47.4946,0.466995,-3.03166
523,47.5435,0.455621,-3.03761
523.5,47.5932,0.440841,-3.04348
524,47.6426,0.425235,-3.04761
524.5,47.6915,0.408092,-3.05458
525,47.7412,0.398017,-3.06077
525.5,47.7897,0.380496,-3.06722
526,47.8396,0.362151,-3.07264
526.5,47.8887,0.342833,-3.07679
527,47.9381,0.32913,-3.08298
527.5,47.9871,0.312568,-3.08804
528,48.0371,0.301107,-3.0931
528.5,48.0853,0.272849,-3.09748
529,48.1356,0.253773,-3.10293
529.5,48.1842,0.239254,-3.10735
530,48.2347,0.221421,-3.11396
530.5,48.283,0.206863,-3.11869
531,48.3319,0.188878,-3.12327
531.5,48.3821,0.173623,-3.12909
532,48.4311,0.164076,-3.13053
532.5,48.4803,0.156668,-3.13335
533,48.53,0.135526,-3.13755
533.5,48.5798,0.127513,-3.14129
534,48.6285,0.113921,-3.14556
534.5,48.6783,0.109875,-3.14981
535,48.7274,0.0917237,-3.15509
535.5,48.7768,0.0889927,-3.15879
536,48.8265,0.0747077,-3.16229
536.5,48.8759,0.0629508,-3.16588
537,48.9262,0.0563845,-3.16689
537.5,48.9739,0.0556649,-3.17094
538,49.0255,0.0418517,-3.17338
538.5,49.0737,0.0364855,-3.1782
539,49.1241,0.0283612,-3.18151
539.5,49.1738,0.0151659,-3.18417
540,49.2232,0.008268,-3.18728
540.5,49.2717,0.00461587,-3.18913
541,49.3221,-0.00125454,-3.19265
541.5,49.3704,-0.0109516,-3.19532
542,49.4215,-0.0038155,-3.19724
542.5,49.4703,-0.0080502,-3.20027
543,49.5204,-0.0117267,-3.20233
543.5,49.5693,-0.0242403,-3.20501
544,49.6188,-0.0289562,-3.20748
544.5,49.6678,-0.0680832,-3.20973
545,49.7177,-0.0698819,-3.21349
545.5,49.7667,-0.0629502,-3.2161
546,49.8169,-0.0669649,-3.2177
546.5,49.8667,-0.0699599,-3.22137
547,49.9162,-0.0711804,-3.22266
547.5,49.9656,-0.0713271,-3.22396
548,50.0153,-0.0840715,-3.22628
548.5,50.0645,-0.0785787,-3.22819
549,50.1123,-0.0845768,-3.2297
549.5,50.1641,-0.0826815,-3.23079
550,50.2134,-0.0865833,-3.2336
550.5,50.2636,-0.0931723,-3.23643
551,50.3125,-0.0840266,-3.23825
551.5,50.3624,-0.0804517,-3.23913
552,50.4116,-0.0921545,-3.24086
552.5,50.4631,-0.10318,-3.24219
553,50.5096,-0.104056,-3.24356
553.5,50.5603,-0.108396,-3.24476
554,50.6105,-0.118546,-3.24755
554.5,50.6593,-0.123349,-3.24918
555,50.7092,-0.120402,-3.25107
555.5,50.7603,-0.132473,-3.25207
556,50.8097,-0.132008,-3.25401
556.5,50.8587,-0.144736,-3.25524
557,50.9085,-0.143905,-3.25738
557.5,50.9565,-0.143064,-3.2588
558,51.0077,-0.1436,-3.25967
558.5,51.0578,-0.147818,-3.26016
559,51.1065,-0.142155,-3.26285
559.5,51.1574,-0.146667,-3.26417
560,51.2065,-0.151672,-3.2642
560.5,51.2554,-0.152168,-3.26561
561,51.3053,-0.155153,-3.26746
561.5,51.3555,-0.153689,-3.26963
562,51.4053,-0.15068,-3.27096
562.5,51.4544,-0.154192,-3.27097
563,51.505,-0.153189,-3.27252
563.5,51.5548,-0.155197,-3.27512
564,51.6053,-0.155387,-3.27572
564.5,51.653,-0.159933,-3.2778
565,51.7041,-0.162192,-3.27931
565.5,51.7531,-0.15956,-3.27931
566,51.8039,-0.15994,-3.28077
566.5,51.8536,-0.162984,-3.28205
567,51.9024,-0.166205,-3.2823
567.5,51.9524,-0.160436,-3.28359
568,52.0024,-0.156605,-3.28422
568.5,52.0516,-0.159529,-3.28558
569,52.1016,-0.155645,-3.2868
569.5,52.1515,-0.15782,-3.28739
570,52.2011,-0.160719,-3.28841
570.5,52.2501,-0.157401,-3.28833
571,52.3007,-0.164045,-3.29064
571.5,52.3506,-0.158541,-3.29218
572,52.4006,-0.166271,-3.29246
572.5,52.4501,-0.161039,-3.29299
573,52.5001,-0.164538,-3.29367
573.5,52.5502,-0.160911,-3.29622
574,52.6001,-0.165707,-3.29719
574.5,52.6505,-0.160532,-3.29618
575,52.6986,-0.158008,-3.29776
575.5,52.7492,-0.149603,-3.30027
576,52.7985,-0.163153,-3.3016
576.5,52.8483,-0.161088,-3.30216
577,52.8983,-0.162659,-3.30161
577.5,52.949,-0.166988,-3.3029
578,52.9981,-0.178626,-3.30423
578.5,53.0482,-0.169067,-3.30474
579,53.0956,-0.172591,-3.30555
579.5,53.1476,-0.167857,-3.30564
580,53.1968,-0.172407,-3.30686
580.5,53.2483,-0.169456,-3.30819
581,53.297,-0.178811,-3.3082
581.5,53.3453,-0.183154,-3.30951
582,53.3965,-0.183762,-3.31082
582.5,53.447,-0.181338,-3.31019
583,53.4971,-0.176825,-3.31148
583.5,53.546,-0.178622,-3.31411
584,53.5965,-0.173151,-3.31545
584.5,53.6468,-0.171173,-3.31477
585,53.6976,-0.168632,-3.31412
585.5,53.7465,-0.170845,-3.3148
586,53.7964,-0.185079,-3.31544
586.5,53.8464,-0.184131,-3.31543
587,53.897,-0.182192,-3.31582
587.5,53.9463,-0.182448,-3.31741
588,53.9967,-0.179239,-3.31807
588.5,54.0464,-0.168264,-3.31939
589,54.0959,-0.181564,-3.31939
589.5,54.1462,-0.174853,-3.32072
590,54.197,-0.178805,-3.32216
590.5,54.2465,-0.181264,-3.32337
591,54.2967,-0.183498,-3.32204
591.5,54.3468,-0.181585,-3.32147
592,54.3961,-0.181822,-3.32135
592.5,54.446,-0.176013,-3.32268
593,54.4972,-0.17895,-3.32267
593.5,54.5457,-0.181217,-3.324
594,54.5968,-0.184236,-3.32531
594.5,54.647,-0.181539,-3.32531
595,54.6965,-0.182898,-3.32531
595.5,54.7462,-0.182716,-3.32629
596,54.7954,-0.179771,-3.32664
596.5,54.8453,-0.18224,-3.32795
597,54.8943,-0.181346,-3.32795
597.5,54.9458,-0.182765,-3.32795
598,54.9965,-0.183919,-3.32927
598.5,55.0462,-0.185307,-3.32886
599,55.0951,-0.18686,-3.32992
599.5,55.1456,-0.184054,-3.32992
600,55.1957,-0.180334,-3.3299
600.5,55.2452,-0.186266,-3.33121
601,55.2961,-0.185669,-3.33256
601.5,55.3461,-0.188603,-3.33256
602,55.3938,-0.187579,-3.33246
602.5,55.4443,-0.187431,-3.33387
603,55.4946,-0.186004,-3.3347
603.5,55.5453,-0.193363,-3.33519
604,55.5948,-0.195272,-3.33652
604.5,55.6449,-0.189021,-3.33651
605,55.6935,-0.18749,-3.33651
605.5,55.7451,-0.193951,-3.33642
606,55.795,-0.193164,-3.33848
606.5,55.8453,-0.197204,-3.33915
607,55.8958,-0.199361,-3.34046
607.5,55.945,-0.200208,-3.34046
608,55.995,-0.197638,-3.34047
608.5,56.0457,-0.195211,-3.33979
609,56.0934,-0.199762,-3.33979
609.5,56.1446,-0.19922,-3.34112
610,56.1948,-0.200203,-3.34112
610.5,56.2449,-0.202956,-3.34234
611,56.2945,-0.200452,-3.34239
611.5,56.3454,-0.206487,-3.34375
612,56.3949,-0.20069,-3.34507
612.5,56.4455,-0.196126,-3.34507
613,56.4947,-0.199363,-3.34638
613.5,56.5451,-0.197433,-3.3451
614,56.5957,-0.198542,-3.34507
614.5,56.646,-0.197558,-3.34507
615,56.6958,-0.196838,-3.34573
615.5,56.7449,-0.199773,-3.34573
616,56.7942,-0.201382,-3.34708
616.5,56.8459,-0.200722,-3.34705
617,56.8948,-0.201554,-3.34705
617.5,56.9455,-0.203682,-3.34848
618,56.9958,-0.196752,-3.34976
618.5,57.0453,-0.207522,-3.34946
619,57.0959,-0.203197,-3.34946
619.5,57.1456,-0.198871,-3.34978
620,57.1954,-0.199343,-3.35111
620.5,57.246,-0.198323,-3.35243
621,57.2961,-0.203569,-3.3513
621.5,57.3454,-0.222953,-3.35111
622,57.3957,-0.209745,-3.35345
622.5,57.4466,-0.199952,-3.35242
623,57.4962,-0.204273,-3.35375
623.5,57.5466,-0.20195,-3.35245
624,57.5962,-0.204164,-3.35243
624.5,57.6457,-0.203238,-3.35374
625,57.6961,-0.200261,-3.35374
625.5,57.7458,-0.205076,-3.35375
626,57.7959,-0.202851,-3.35473
626.5,57.8458,-0.207841,-3.35506
627,57.8958,-0.206065,-3.35506
627.5,57.9445,-0.203826,-3.35501
628,57.9962,-0.198444,-3.35375
628.5,58.0459,-0.197298,-3.35507
629,58.0956,-0.197103,-3.35507
629.5,58.1436,-0.19276,-3.355
630,58.1961,-0.190962,-3.35605
630.5,58.2463,-0.193082,-3.35638
631,58.296,-0.195324,-3.35638
631.5,58.346,-0.204729,-3.35638
632,58.3955,-0.202752,-3.35769
632.5,58.4463,-0.197706,-3.35639
633,58.4968,-0.194325,-3.35638
633.5,58.5463,-0.198475,-3.35638
634,58.5971,-0.206961,-3.35638
634.5,58.647,-0.202904,-3.35768
635,58.6967,-0.207205,-3.35836
635.5,58.7465,-0.209,-3.35928
636,58.7969,-0.206235,-3.36001
636.5,58.8463,-0.206112,-3.36001
637,58.8961,-0.211406,-3.36034
637.5,58.9464,-0.208451,-3.36033
638,58.9972,-0.216804,-3.35935
638.5,59.0469,-0.217176,-3.36006
639,59.0971,-0.212418,-3.36066
639.5,59.1468,-0.204887,-3.36066
640,59.1973,-0.20326,-3.36066
640.5,59.2473,-0.205738,-3.36073
641,59.2981,-0.206768,-3.36198
641.5,59.3468,-0.203861,-3.36198
642,59.3969,-0.20024,-3.35984
642.5,59.4483,-0.203155,-3.36053
643,59.4983,-0.203083,-3.36221
643.5,59.549,-0.205168,-3.36352
644,59.5988,-0.210698,-3.36352
644.5,59.6485,-0.207638,-3.36352
645,59.6993,-0.211839,-3.36352
645.5,59.75,-0.212844,-3.36352
646,59.7985,-0.219551,-3.36353
646.5,59.8487,-0.215096,-3.36484
647,59.8996,-0.203094,-3.36486
647.5,59.9502,-0.206256,-3.36318
648,59.9997,-0.209429,-3.36319
648.5,60.05,-0.215028,-3.36315
649,60.0995,-0.218326,-3.36451
649.5,60.1502,-0.211927,-3.36451
650,60.1999,-0.217586,-3.36451
650.5,60.2504,-0.220258,-3.36319
651,60.3011,-0.218046,-3.36444
651.5,60.3506,-0.222915,-3.3645
652,60.4017,-0.223512,-3.36444
652.5,60.4509,-0.221551,-3.3645
653,60.5015,-0.206028,-3.3645
653.5,60.5511,-0.196277,-3.3645
654,60.6018,-0.205912,-3.3645
654.5,60.6524,-0.201626,-3.3645
655,60.7016,-0.212108,-3.3645
655.5,60.7524,-0.207284,-3.36454
656,60.8029,-0.212179,-3.36319
656.5,60.8528,-0.207902,-3.36436
657,60.9034,-0.213289,-3.3645
657.5,60.9528,-0.221064,-3.3646
658,61.0036,-0.221099,-3.36582
658.5,61.0538,-0.227996,-3.36582
659,61.1045,-0.224332,-3.36601
659.5,61.1542,-0.223515,-3.36715
660,61.2043,-0.229019,-3.36582
660.5,61.2555,-0.230359,-3.36583
661,61.3053,-0.224688,-3.36583
661.5,61.3548,-0.231181,-3.36582
662,61.4048,-0.226808,-3.36737
662.5,61.456,-0.231556,-3.36736
663,61.5051,-0.236522,-3.36823
663.5,61.5554,-0.233168,-3.36734
664,61.6054,-0.239097,-3.36736
664.5,61.6553,-0.229288,-3.36738
665,61.7058,-0.237543,-3.36736
665.5,61.7556,-0.245455,-3.36736
666,61.8062,-0.247279,-3.36903
666.5,61.8556,-0.240488,-3.36905
667,61.9057,-0.24049,-3.36832
667.5,61.9567,-0.238794,-3.36769
668,62.0061,-0.24491,-3.36769
668.5,62.0563,-0.239587,-3.36901
669,62.1065,-0.231159,-3.36901
669.5,62.1571,-0.24995,-3.36899
670,62.2061,-0.24737,-3.36834
670.5,62.2573,-0.24608,-3.36901
671,62.307,-0.247947,-3.36903
671.5,62.3568,-0.24771,-3.36934
672,62.4077,-0.245569,-3.36926
672.5,62.4581,-0.261548,-3.36908
673,62.5078,-0.262598,-3.37032
673.5,62.5592,-0.259746,-3.37032
674,62.6085,-0.264011,-3.37146
674.5,62.6583,-0.265217,-3.37164
675,62.7091,-0.26972,-3.37164
675.5,62.7588,-0.271511,-3.37164
676,62.809,-0.279129,-3.37164
676.5,62.8596,-0.27759,-3.37165
677,62.9095,-0.270719,-3.37214
677.5,62.9597,-0.267381,-3.37296
678,63.0101,-0.281327,-3.37287
678.5,63.0596,-0.278454,-3.37296
679,63.1107,-0.289396,-3.37295
679.5,63.1606,-0.284239,-3.37295
680,63.2103,-0.282228,-3.37295
680.5,63.2589,-0.286994,-3.37295
681,63.3121,-0.291611,-3.37295
681.5,63.3621,-0.277055,-3.37295
682,63.4117,-0.284666,-3.37295
682.5,63.4618,-0.2863,-3.37164
683,63.5129,-0.290142,-3.37303
683.5,63.5623,-0.29234,-3.37328
684,63.6129,-0.293764,-3.37296
684.5,63.6627,-0.291994,-3.37296
685,63.7123,-0.297347,-3.37296
685.5,63.7627,-0.303037,-3.37535
686,63.8115,-0.306092,-3.37562
686.5,63.863,-0.303164,-3.3746
687,63.9133,-0.303197,-3.3742
687.5,63.9641,-0.316047,-3.37461
688,64.0144,-0.317114,-3.37542
688.5,64.0643,-0.311695,-3.37593
689,64.1144,-0.319113,-3.37593
689.5,64.1648,-0.314003,-3.37593
690,64.2147,-0.310924,-3.37593
690.5,64.2649,-0.328407,-3.37593
691,64.3152,-0.319574,-3.37594
691.5,64.3654,-0.326434,-3.37724
692,64.4156,-0.329614,-3.37686
692.5,64.4668,-0.336216,-3.37593
693,64.5166,-0.341926,-3.37595
693.5,64.5672,-0.341264,-3.37724
694,64.6172,-0.349475,-3.37724
694.5,64.667,-0.354731,-3.37856
695,64.718,-0.352952,-3.37682
695.5,64.7676,-0.362964,-3.3772
696,64.8188,-0.35776,-3.37868
696.5,64.8679,-0.368122,-3.37899
697,64.9184,-0.373651,-3.37996
697.5,64.9681,-0.369094,-3.37999
698,65.0177,-0.367318,-3.38034
698.5,65.0683,-0.375883,-3.38032
699,65.1193,-0.377502,-3.38032
699.5,65.169,-0.38411,-3.38032
700,65.2195,-0.383398,-3.37898
700.5,65.27,-0.381867,-3.37984
701,65.3203,-0.383466,-3.37999
701.5,65.37,-0.391892,-3.37999
702,65.4198,-0.385546,-3.37999
702.5,65.4699,-0.384538,-3.37999
703,65.5212,-0.38775,-3.37999
703.5,65.5703,-0.384047,-3.37999
704,65.6217,-0.391923,-3.38137
704.5,65.6719,-0.386539,-3.3813
705,65.7222,-0.400004,-3.3813
705.5,65.7729,-0.398678,-3.38115
706,65.823,-0.404033,-3.37965
706.5,65.8726,-0.39892,-3.38086
707,65.923,-0.403121,-3.38097
707.5,65.9742,-0.41072,-3.38098
708,66.0248,-0.413292,-3.37965
708.5,66.0751,-0.39758,-3.37969
709,66.1256,-0.411631,-3.37833
709.5,66.1762,-0.413515,-3.38061
710,66.2252,-0.41642,-3.38097
710.5,66.2767,-0.425576,-3.38097
711,66.3262,-0.414615,-3.38097
711.5,66.3771,-0.417777,-3.38097
712,66.4277,-0.427063,-3.38102
712.5,66.4771,-0.409138,-3.38229
713,66.528,-0.40593,-3.38229
713.5,66.5781,-0.405298,-3.38229
714,66.6293,-0.412674,-3.38229
714.5,66.6792,-0.421823,-3.38097
715,66.7294,-0.427745,-3.38188
715.5,66.7788,-0.431426,-3.38229
716,66.8307,-0.436374,-3.38229
716.5,66.8802,-0.443904,-3.38229
717,66.9303,-0.441589,-3.38366
717.5,66.9808,-0.447766,-3.38367
718,67.0319,-0.454014,-3.3813
718.5,67.0816,-0.44965,-3.38129
719,67.1321,-0.45417,-3.38263
719.5,67.1821,-0.461738,-3.38262
720,67.2323,-0.467282,-3.38262
720.5,67.2821,-0.473902,-3.38262
721,67.3333,-0.479594,-3.38366
721.5,67.3836,-0.47908,-3.38295
722,67.4333,-0.480437,-3.38328
722.5,67.4844,-0.475226,-3.38264
723,67.5345,-0.472343,-3.38525
723.5,67.585,-0.483556,-3.38525
724,67.635,-0.482439,-3.38525
724.5,67.6854,-0.491895,-3.38525
725,67.7364,-0.484986,-3.38533
725.5,67.7866,-0.48092,-3.38394
726,67.8357,-0.47796,-3.38394
726.5,67.8873,-0.486267,-3.38401
727,67.9374,-0.500103,-3.38394
727.5,67.9882,-0.49553,-3.38394
728,68.0379,-0.488265,-3.38394
728.5,68.0891,-0.492985,-3.38274
729,68.1393,-0.499871,-3.38274
729.5,68.1894,-0.503933,-3.38394
730,68.2399,-0.506902,-3.38521
730.5,68.2893,-0.509597,-3.38525
731,68.3405,-0.512385,-3.38525
731.5,68.3906,-0.518117,-3.38525
732,68.4408,-0.521113,-3.38526
732.5,68.4908,-0.520925,-3.38656
733,68.5422,-0.54037,-3.38657
733.5,68.5911,-0.539207,-3.38657
734,68.6427,-0.546161,-3.38801
734.5,68.6923,-0.550964,-3.38768
735,68.7432,-0.548397,-3.38657
735.5,68.7951,-0.545999,-3.38657
736,68.8436,-0.54921,-3.38657
736.5,68.8935,-0.556962,-3.38656
737,68.9448,-0.554447,-3.38789
737.5,68.9954,-0.557086,-3.38789
738,69.046,-0.575176,-3.38789
738.5,69.096,-0.579318,-3.38789
739,69.1468,-0.584453,-3.38789
739.5,69.197,-0.589695,-3.3879
740,69.2482,-0.585081,-3.38921