File: 01_Data/Thermoplastic_Helmet_Shell/STA/N2/10K_min/Thermoplastic_Helmet_Shell_STA_N2_10KData_250219_R2.csv
Temp./C,Time/min,DSC/(mW/mg),Mass loss/mg
35.0,0.0,0.451042,-0.0294169
35.5,0.0669068,0.460208,-0.0291759
36,0.135936,0.476202,-0.0293487
36.5,0.20521,0.473907,-0.0297098
37,0.269453,0.481876,-0.0288531
37.5,0.336283,0.494174,-0.0303337
38,0.40136,0.501256,-0.0297848
38.5,0.465904,0.510608,-0.0304281
39,0.529628,0.517479,-0.0295186
39.5,0.592308,0.524253,-0.0294846
40,0.657487,0.532077,-0.0306975
40.5,0.719625,0.53639,-0.0310872
41,0.780982,0.543084,-0.0336618
41.5,0.844533,0.55168,-0.0315308
42,0.904265,0.558922,-0.0292998
42.5,0.96412,0.56529,-0.030072
43,1.02649,0.574062,-0.0300077
43.5,1.08498,0.577997,-0.0307702
44,1.14626,0.580302,-0.0299929
44.5,1.20458,0.59468,-0.0300364
45,1.2635,0.587551,-0.0322538
45.5,1.32265,0.594376,-0.0319671
46,1.38113,0.599429,-0.0329789
46.5,1.44015,0.608725,-0.0320308
47,1.49801,0.621135,-0.0319893
47.5,1.55565,0.617035,-0.0320589
48,1.61222,0.623771,-0.031614
48.5,1.66971,0.622039,-0.0334898
49,1.72374,0.628576,-0.0324562
49.5,1.78466,0.628412,-0.0334781
50,1.83743,0.629691,-0.0334869
50.5,1.89804,0.634735,-0.0338073
51,1.95238,0.634573,-0.0323063
51.5,2.01017,0.64225,-0.0332488
52,2.06264,0.64209,-0.0350456
52.5,2.11911,0.645825,-0.0336746
53,2.17541,0.645227,-0.0337569
53.5,2.22996,0.649622,-0.0341136
54,2.28421,0.64921,-0.0343325
54.5,2.33628,0.657488,-0.0337225
55,2.39277,0.643153,-0.0339473
55.5,2.44885,0.647355,-0.0350211
56,2.50339,0.654657,-0.0351131
56.5,2.5583,0.657714,-0.0364461
57,2.60956,0.650868,-0.0350597
57.5,2.66354,0.660242,-0.0362656
58,2.71946,0.654529,-0.0355551
58.5,2.77134,0.665497,-0.0350133
59,2.82365,0.665287,-0.0363279
59.5,2.87888,0.669791,-0.0369457
60,2.93085,0.662469,-0.0363354
60.5,2.9838,0.673268,-0.0363227
61,3.03617,0.670629,-0.0363519
61.5,3.08882,0.677863,-0.0349432
62,3.14032,0.67402,-0.0363309
62.5,3.19102,0.689877,-0.0363751
63,3.2445,0.685252,-0.0363529
63.5,3.29274,0.688688,-0.03767
64,3.34722,0.694172,-0.0377833
64.5,3.40011,0.69731,-0.0374035
65,3.4524,0.694381,-0.0377632
65.5,3.50334,0.699943,-0.0377535
66,3.55566,0.703852,-0.0364528
66.5,3.6081,0.708962,-0.0377616
67,3.6583,0.712673,-0.036771
67.5,3.70983,0.713094,-0.0378697
68,3.76058,0.716185,-0.0364202
68.5,3.81048,0.719078,-0.037203
69,3.86142,0.721261,-0.0372425
69.5,3.91278,0.72346,-0.0377455
70,3.96472,0.72366,-0.0390944
70.5,4.01574,0.73107,-0.0377657
71,4.06512,0.731376,-0.0390689
71.5,4.11592,0.739669,-0.038893
72,4.1673,0.737981,-0.0390774
72.5,4.21741,0.735549,-0.0377726
73,4.26714,0.736166,-0.0378345
73.5,4.319,0.747346,-0.0376903
74,4.36955,0.751336,-0.0391258
74.5,4.41881,0.749035,-0.0377887
75,4.47156,0.746026,-0.0377759
75.5,4.52054,0.748804,-0.0388796
76,4.57101,0.751145,-0.0390766
76.5,4.62176,0.750676,-0.0404097
77,4.67117,0.763584,-0.0394621
77.5,4.72187,0.76112,-0.03908
78,4.77224,0.774897,-0.0390807
78.5,4.82229,0.776406,-0.04036
79,4.87251,0.785295,-0.0396503
79.5,4.92276,0.783871,-0.0403881
80,4.97257,0.790229,-0.0404334
80.5,5.02316,0.787834,-0.0404172
81,5.07209,0.786079,-0.0417188
81.5,5.1232,0.793645,-0.040626
82,5.17153,0.796373,-0.0416914
82.5,5.22257,0.795712,-0.0417201
83,5.27138,0.798092,-0.0416958
83.5,5.32143,0.79684,-0.0417133
84,5.37089,0.808486,-0.0417301
84.5,5.41918,0.802117,-0.0403878
85,5.46931,0.80419,-0.0415649
85.5,5.5189,0.811826,-0.0418315
86,5.56833,0.810355,-0.0420073
86.5,5.61837,0.807234,-0.0421719
87,5.66807,0.807916,-0.040179
87.5,5.71665,0.814066,-0.04018
88,5.7654,0.810247,-0.0401928
88.5,5.81524,0.810208,-0.0401072
89,5.86291,0.808076,-0.040181
89.5,5.91216,0.812501,-0.0414802
90,5.96122,0.812302,-0.0401811
90.5,6.0102,0.817251,-0.0414837
91,6.05805,0.818738,-0.0414994
91.5,6.10639,0.81935,-0.0419455
92,6.1567,0.823629,-0.0415058
92.5,6.20519,0.821437,-0.04248
93,6.25386,0.818682,-0.0411631
93.5,6.30195,0.820031,-0.041167
94,6.35185,0.823928,-0.0415019
94.5,6.39839,0.823752,-0.0427965
95,6.44716,0.825141,-0.0425074
95.5,6.49637,0.828912,-0.0415061
96,6.54528,0.834814,-0.0414234
96.5,6.59239,0.830675,-0.0415
97,6.64231,0.833128,-0.0415009
97.5,6.68692,0.838919,-0.0415839
98,6.73873,0.834395,-0.0414999
98.5,6.78604,0.838638,-0.0415003
99,6.83449,0.844774,-0.0402023
99.5,6.88258,0.845765,-0.0415017
100,6.92967,0.846069,-0.0401665
100.5,6.97887,0.84956,-0.0401769
101,7.02764,0.853396,-0.041543
101.5,7.07529,0.855929,-0.0422683
102,7.12302,0.845362,-0.0415096
102.5,7.17314,0.851434,-0.0415
103,7.21913,0.853766,-0.0415
103.5,7.2683,0.856827,-0.041521
104,7.31566,0.856969,-0.0424452
104.5,7.36381,0.857279,-0.0415002
105,7.41004,0.856042,-0.0414994
105.5,7.4588,0.858715,-0.0429165
106,7.50781,0.857059,-0.0414975
106.5,7.55651,0.856164,-0.0414217
107,7.60372,0.858737,-0.0423342
107.5,7.65243,0.861954,-0.0418199
108,7.7005,0.864837,-0.04182
108.5,7.74803,0.865763,-0.04182
109,7.79512,0.869921,-0.0419401
109.5,7.84388,0.872418,-0.0427611
110,7.89123,0.872392,-0.042848
110.5,7.94054,0.867191,-0.0428198
111,7.98757,0.869684,-0.0428274
111.5,8.0336,0.876902,-0.0414956
112,8.08404,0.875121,-0.0420372
112.5,8.13224,0.878867,-0.0428202
113,8.17907,0.87845,-0.043032
113.5,8.22767,0.877924,-0.0441287
114,8.27521,0.877029,-0.0440762
114.5,8.32477,0.879975,-0.0428161
115,8.3724,0.875786,-0.0414786
115.5,8.41712,0.873081,-0.0424595
116,8.46774,0.871715,-0.0424799
116.5,8.51471,0.872785,-0.0425694
117,8.56281,0.873117,-0.0428151
117.5,8.61024,0.876517,-0.0438055
118,8.65915,0.877893,-0.0424874
118.5,8.70689,0.878881,-0.0424941
119,8.75451,0.874188,-0.0410994
119.5,8.80166,0.873301,-0.0414992
120,8.8501,0.873181,-0.041721
120.5,8.89797,0.872173,-0.0431403
121,8.94625,0.871857,-0.04314
121.5,8.99273,0.865911,-0.0431421
122,9.04085,0.861273,-0.0431224
122.5,9.08812,0.860076,-0.0431399
123,9.1366,0.857826,-0.0422871
123.5,9.18333,0.858182,-0.0430647
124,9.23155,0.856964,-0.04314
124.5,9.2799,0.858114,-0.04314
125,9.32393,0.856058,-0.0430824
125.5,9.37214,0.851868,-0.0431544
126,9.42166,0.853047,-0.04315
126.5,9.47091,0.84993,-0.0431502
127,9.5179,0.851499,-0.0425526
127.5,9.56627,0.852948,-0.0417452
128,9.61278,0.859841,-0.0431413
128.5,9.66127,0.858107,-0.04314
129,9.70833,0.857879,-0.0431404
129.5,9.75634,0.863537,-0.0428774
130,9.80463,0.873205,-0.0425879
130.5,9.85244,0.88241,-0.0431402
131,9.90024,0.889803,-0.0431327
131.5,9.94723,0.891182,-0.0428075
132,9.99557,0.896731,-0.0428095
132.5,10.0428,0.909906,-0.0441854
133,10.0904,0.916412,-0.0431615
133.5,10.1377,0.920573,-0.0436111
134,10.1854,0.925212,-0.0438055
134.5,10.2332,0.944064,-0.0444516
135,10.2806,0.946703,-0.04446
135.5,10.3253,0.950628,-0.0444552
136,10.3754,0.950392,-0.0450999
136.5,10.4227,0.95351,-0.0458208
137,10.4702,0.963151,-0.0447826
137.5,10.5182,0.973511,-0.0447902
138,10.5659,0.984233,-0.0446584
138.5,10.6123,0.994897,-0.04446
139,10.658,1.00293,-0.04578
139.5,10.7076,1.01218,-0.0444774
140,10.7554,1.02319,-0.0444597
140.5,10.8037,1.03603,-0.0444807
141,10.8506,1.03365,-0.0457064
141.5,10.8979,1.04764,-0.0457784
142,10.9455,1.05066,-0.0445838
142.5,10.9922,1.06138,-0.0444599
143,11.0409,1.07022,-0.0447846
143.5,11.0885,1.07763,-0.04479
144,11.1359,1.07785,-0.0447977
144.5,11.1829,1.09047,-0.0457804
145,11.2297,1.09226,-0.0444305
145.5,11.2766,1.10022,-0.0443928
146,11.3262,1.10672,-0.0446531
146.5,11.3721,1.11084,-0.0443523
147,11.4206,1.09871,-0.0456654
147.5,11.4673,1.10769,-0.0456692
148,11.5134,1.10938,-0.046947
148.5,11.5615,1.10973,-0.0484756
149,11.6093,1.10668,-0.0478847
149.5,11.6553,1.11057,-0.045741
150,11.7037,1.11372,-0.0457801
150.5,11.7506,1.11209,-0.0457334
151,11.7977,1.11576,-0.0467693
151.5,11.8447,1.12178,-0.0458495
152,11.8927,1.12446,-0.0457724
152.5,11.9397,1.11992,-0.0459105
153,11.9872,1.12807,-0.0472095
153.5,12.0332,1.12523,-0.0472055
154,12.0813,1.12777,-0.0458876
154.5,12.1284,1.12674,-0.04589
155,12.1755,1.12974,-0.04589
155.5,12.2217,1.12794,-0.04589
156,12.27,1.12923,-0.045885
156.5,12.3168,1.1355,-0.0472012
157,12.3642,1.12898,-0.0471906
157.5,12.4091,1.13307,-0.0478555
158,12.4589,1.13084,-0.047915
158.5,12.5055,1.13722,-0.046537
159,12.552,1.14042,-0.0465726
159.5,12.6002,1.14088,-0.0478604
160,12.6477,1.13875,-0.0478639
160.5,12.6939,1.15065,-0.0465221
161,12.7418,1.14625,-0.04655
161.5,12.7887,1.14699,-0.04655
162,12.8359,1.1418,-0.0465336
162.5,12.8834,1.14129,-0.0472541
163,12.929,1.14784,-0.046715
163.5,12.9771,1.147,-0.0465498
164,13.0235,1.14364,-0.0468018
164.5,13.0708,1.15432,-0.0472786
165,13.117,1.15721,-0.0478596
165.5,13.1643,1.15809,-0.04786
166,13.2096,1.15194,-0.0478602
166.5,13.2587,1.15101,-0.047452
167,13.3062,1.14812,-0.0465412
167.5,13.3528,1.14862,-0.0465397
168,13.4011,1.15657,-0.0469363
168.5,13.4471,1.15043,-0.0478599
169,13.4942,1.15107,-0.04786
169.5,13.5419,1.15592,-0.04786
170,13.5896,1.15815,-0.04786
170.5,13.6358,1.16335,-0.047866
171,13.6836,1.16186,-0.0491832
171.5,13.7288,1.16219,-0.0491804
172,13.7782,1.16723,-0.0485667
172.5,13.8243,1.16787,-0.0478676
173,13.872,1.16025,-0.0488486
173.5,13.9196,1.16698,-0.04885
174,13.9656,1.16889,-0.04885
174.5,14.0136,1.16029,-0.04885
175,14.0608,1.16052,-0.0488548
175.5,14.1071,1.16842,-0.0475962
176,14.1556,1.17358,-0.0478698
176.5,14.2016,1.16812,-0.0478699
177,14.2484,1.1685,-0.0491913
177.5,14.2953,1.1676,-0.0504931
178,14.3425,1.1687,-0.0491626
178.5,14.3902,1.1647,-0.0491799
179,14.4365,1.16534,-0.0491801
179.5,14.4839,1.17376,-0.0491578
180,14.5317,1.17318,-0.0485667
180.5,14.5789,1.17006,-0.0491798
181,14.6251,1.17615,-0.0492277
181.5,14.6732,1.1831,-0.0485208
182,14.7209,1.1796,-0.04852
182.5,14.7668,1.17662,-0.04852
183,14.8143,1.18532,-0.04852
183.5,14.8608,1.17707,-0.0485273
184,14.9086,1.17768,-0.0497439
184.5,14.9546,1.18115,-0.0508299
185,15.0025,1.17886,-0.0508172
185.5,15.0495,1.18444,-0.0481881
186,15.0955,1.18108,-0.0490342
186.5,15.1445,1.18721,-0.0495098
187,15.1903,1.1833,-0.049503
187.5,15.2378,1.18045,-0.0505932
188,15.2841,1.17671,-0.0505
188.5,15.3311,1.18564,-0.0504999
189,15.3797,1.18997,-0.0505498
189.5,15.426,1.18589,-0.0518087
190,15.4732,1.17754,-0.0518255
190.5,15.5204,1.18946,-0.0511574
191,15.5668,1.18658,-0.0502602
191.5,15.6144,1.18562,-0.0501703
192,15.6604,1.19514,-0.0507147
192.5,15.7085,1.18813,-0.0514898
193,15.7544,1.18742,-0.0522432
193.5,15.8016,1.18106,-0.0514796
194,15.8497,1.19106,-0.05148
194.5,15.8967,1.19296,-0.05148
195,15.9441,1.19742,-0.0514744
195.5,15.9918,1.20159,-0.052802
196,16.036,1.19726,-0.0528
196.5,16.0847,1.19675,-0.0527854
197,16.132,1.19678,-0.0518188
197.5,16.1793,1.19461,-0.05182
198,16.2248,1.19474,-0.05182
198.5,16.2714,1.1984,-0.05182
199,16.3202,1.19234,-0.05182
199.5,16.3666,1.19104,-0.051823
200,16.4138,1.201,-0.0531425
200.5,16.4609,1.19702,-0.05314
201,16.5082,1.20042,-0.05314
201.5,16.5548,1.20846,-0.0531416
202,16.6028,1.19701,-0.0528167
202.5,16.6489,1.19844,-0.0535244
203,16.6959,1.19838,-0.0528022
203.5,16.7421,1.19599,-0.0527996
204,16.7898,1.19508,-0.0530281
204.5,16.8368,1.19664,-0.0537906
205,16.8843,1.19688,-0.0537808
205.5,16.9316,1.20194,-0.0531305
206,16.9784,1.20459,-0.05313
206.5,17.0257,1.19996,-0.0531305
207,17.0719,1.20159,-0.0534998
207.5,17.1188,1.19753,-0.0534611
208,17.1662,1.2012,-0.0544752
208.5,17.2141,1.19911,-0.0547799
209,17.2616,1.2036,-0.05478
209.5,17.3069,1.19963,-0.0547794
210,17.3552,1.20271,-0.05431
210.5,17.4025,1.20418,-0.05412
211,17.4491,1.20684,-0.05412
211.5,17.4963,1.20232,-0.0541197
212,17.5435,1.19439,-0.0554855
212.5,17.5903,1.202,-0.0554399
213,17.6373,1.20372,-0.0554403
213.5,17.684,1.20066,-0.0553409
214,17.7319,1.1995,-0.0528736
214.5,17.7793,1.19994,-0.05281
215,17.8259,1.20843,-0.0530372
215.5,17.8728,1.20146,-0.0541285
216,17.9194,1.20839,-0.0541304
216.5,17.9672,1.20655,-0.0536128
217,18.0144,1.2125,-0.05281
217.5,18.0616,1.20996,-0.0528359
218,18.1078,1.20668,-0.055069
218.5,18.1559,1.20577,-0.0551101
219,18.2008,1.20928,-0.05511
219.5,18.2494,1.20849,-0.0551157
220,18.2961,1.20909,-0.053791
220.5,18.3435,1.20833,-0.05379
221,18.3908,1.21116,-0.05379
221.5,18.4377,1.21418,-0.0537582
222,18.4833,1.21396,-0.0544508
222.5,18.5328,1.21574,-0.0544627
223,18.5787,1.21447,-0.0547828
223.5,18.6266,1.2155,-0.0547801
224,18.6732,1.21228,-0.056146
224.5,18.7206,1.21287,-0.0560999
225,18.7681,1.22204,-0.0560997
225.5,18.8148,1.22328,-0.0555523
226,18.8631,1.22609,-0.0551098
226.5,18.9092,1.22258,-0.05511
227,18.9554,1.22531,-0.05511
227.5,19.0034,1.23238,-0.05511
228,19.0504,1.22918,-0.0551044
228.5,19.0962,1.23074,-0.0548045
229,19.1441,1.2254,-0.0547793
229.5,19.1917,1.2333,-0.05478
230,19.2396,1.24327,-0.05478
230.5,19.2875,1.24366,-0.0547816
231,19.3337,1.24548,-0.0559068
231.5,19.3822,1.25863,-0.0561003
232,19.429,1.25278,-0.0557439
232.5,19.4757,1.25742,-0.0570888
233,19.5231,1.25826,-0.0567367
233.5,19.5702,1.26795,-0.0580755
234,19.6169,1.2738,-0.0565736
234.5,19.6645,1.28407,-0.0561003
235,19.7119,1.28567,-0.0561
235.5,19.7601,1.2901,-0.0561014
236,19.8064,1.29423,-0.0571047
236.5,19.8527,1.29879,-0.0573459
237,19.9016,1.30951,-0.0560839
237.5,19.9485,1.31791,-0.0574146
238,19.9961,1.32636,-0.05741
238.5,20.043,1.32629,-0.05741
239,20.0905,1.34043,-0.05741
239.5,20.1384,1.34632,-0.05741
240,20.1854,1.36174,-0.0574049
240.5,20.2328,1.36866,-0.058736
241,20.2808,1.38398,-0.05873
241.5,20.3274,1.38955,-0.0587301
242,20.3746,1.39898,-0.0586868
242.5,20.4222,1.41317,-0.0577568
243,20.4684,1.43151,-0.059048
243.5,20.5169,1.44346,-0.0587276
244,20.5631,1.46156,-0.05873
244.5,20.6114,1.48008,-0.05873
245,20.6589,1.50375,-0.05873
245.5,20.7069,1.52835,-0.05873
246,20.7542,1.54336,-0.05873
246.5,20.8018,1.55744,-0.05873
247,20.8494,1.59111,-0.05873
247.5,20.8969,1.61587,-0.05873
248,20.9438,1.65163,-0.05873
248.5,20.9916,1.67759,-0.0587296
249,21.0399,1.71349,-0.0592166
249.5,21.0883,1.74006,-0.0584107
250,21.1351,1.77637,-0.05841
250.5,21.1822,1.81215,-0.05841
251,21.2303,1.82975,-0.0584098
251.5,21.278,1.8637,-0.0585394
252,21.3257,1.87741,-0.0587401
252.5,21.374,1.88815,-0.0587271
253,21.4208,1.89138,-0.0574199
253.5,21.4681,1.88163,-0.0580639
254,21.5151,1.85495,-0.0584114
254.5,21.5625,1.81363,-0.0597512
255,21.6084,1.76787,-0.0597199
255.5,21.6556,1.70694,-0.05972
256,21.7028,1.65229,-0.0597197
256.5,21.7494,1.59022,-0.0589612
257,21.7959,1.53118,-0.0583943
257.5,21.8415,1.48036,-0.0597198
258,21.8888,1.43701,-0.05972
258.5,21.9359,1.39603,-0.05972
259,21.9827,1.3638,-0.0597221
259.5,22.0293,1.34284,-0.0584134
260,22.0767,1.31052,-0.0583999
260.5,22.1232,1.28296,-0.0598187
261,22.1699,1.25521,-0.0597194
261.5,22.2186,1.25637,-0.0583961
262,22.2652,1.23984,-0.0583993
262.5,22.3127,1.23386,-0.0598331
263,22.3604,1.23158,-0.0607105
263.5,22.4068,1.23006,-0.0602545
264,22.4537,1.22934,-0.0593901
264.5,22.5019,1.22858,-0.05939
265,22.5488,1.22764,-0.05939
265.5,22.5942,1.21993,-0.05939
266,22.6447,1.21497,-0.05939
266.5,22.6917,1.21443,-0.0593903
267,22.7377,1.20772,-0.0593529
267.5,22.7852,1.21533,-0.0584016
268,22.8327,1.2084,-0.0584015
268.5,22.8809,1.21225,-0.0595212
269,22.9284,1.2083,-0.0597199
269.5,22.9748,1.2158,-0.0596547
270,23.0226,1.20992,-0.0570821
270.5,23.0703,1.20943,-0.0576311
271,23.1173,1.21149,-0.0597191
271.5,23.1644,1.19593,-0.060043
272,23.2107,1.20466,-0.0591412
272.5,23.2594,1.20759,-0.0587301
273,23.3064,1.20159,-0.05873
273.5,23.3541,1.19833,-0.05873
274,23.4009,1.20006,-0.05873
274.5,23.4489,1.19645,-0.05873
275,23.4959,1.19737,-0.05873
275.5,23.5443,1.19273,-0.0587296
276,23.5913,1.18856,-0.058944
276.5,23.6386,1.18969,-0.05972
277,23.6865,1.19678,-0.05972
277.5,23.7336,1.20211,-0.0597151
278,23.7812,1.19141,-0.0584043
278.5,23.8289,1.19755,-0.0584533
279,23.8764,1.1927,-0.0583997
279.5,23.9229,1.18886,-0.0584
280,23.9714,1.18867,-0.0584006
280.5,24.0181,1.19397,-0.0597208
281,24.0637,1.19681,-0.05972
281.5,24.1137,1.18738,-0.05972
282,24.161,1.18407,-0.05972
282.5,24.2087,1.18887,-0.0597178
283,24.2568,1.17851,-0.0584654
283.5,24.3042,1.17721,-0.0584096
284,24.3511,1.18411,-0.059671
284.5,24.3989,1.1806,-0.0597203
285,24.4443,1.16865,-0.0597201
285.5,24.4934,1.17665,-0.0595763
286,24.541,1.17323,-0.0589332
286.5,24.5883,1.16959,-0.0584
287,24.636,1.16879,-0.0584178
287.5,24.6834,1.16526,-0.0597169
288,24.7305,1.16224,-0.0597192
288.5,24.7785,1.16633,-0.0583779
289,24.8265,1.17266,-0.0582966
289.5,24.8741,1.16234,-0.0596739
290,24.9195,1.15856,-0.0599748
290.5,24.969,1.15649,-0.0599395
291,25.0166,1.15734,-0.0603766
291.5,25.063,1.15383,-0.060933
292,25.1107,1.15254,-0.0619235
292.5,25.1588,1.15042,-0.0626792
293,25.2061,1.14891,-0.0612509
293.5,25.2539,1.14414,-0.0586326
294,25.3011,1.14866,-0.0586201
294.5,25.3491,1.15176,-0.05857
295,25.3967,1.14707,-0.0596086
295.5,25.4437,1.14607,-0.0602889
296,25.4919,1.13878,-0.0602192
296.5,25.5386,1.14129,-0.062815
297,25.5864,1.13587,-0.062022
297.5,25.6346,1.13675,-0.0614802
298,25.6809,1.13521,-0.061481
298.5,25.7286,1.12652,-0.0600658
299,25.7771,1.13159,-0.0596001
299.5,25.8246,1.12901,-0.0608201
300,25.8703,1.12842,-0.0615248
300.5,25.92,1.13439,-0.0618028
301,25.9668,1.12929,-0.0630973
301.5,26.0143,1.12863,-0.0631364
302,26.0618,1.13583,-0.0618035
302.5,26.1098,1.12648,-0.06181
303,26.158,1.12509,-0.06181
303.5,26.2045,1.11519,-0.0618097
304,26.2534,1.10583,-0.0631133
304.5,26.3004,1.1012,-0.0641259
305,26.3477,1.10061,-0.0641099
305.5,26.3959,1.09664,-0.0641103
306,26.4436,1.10533,-0.0639768
306.5,26.4904,1.0952,-0.0627899
307,26.538,1.09244,-0.0627439
307.5,26.586,1.09121,-0.0641137
308,26.6331,1.08703,-0.06411
308.5,26.6816,1.08262,-0.06411
309,26.7291,1.07487,-0.0641208
309.5,26.7768,1.06959,-0.0668052
310,26.8243,1.06465,-0.0653746
310.5,26.8717,1.06378,-0.0654484
311,26.9188,1.06307,-0.066741
311.5,26.9667,1.05402,-0.06675
312,27.0143,1.0419,-0.06675
312.5,27.0619,1.04153,-0.06675
313,27.1094,1.03916,-0.0667458
313.5,27.1568,1.02631,-0.067743
314,27.2048,1.02646,-0.0691012
314.5,27.2535,1.01675,-0.0690499
315,27.3006,1.01727,-0.0690316
315.5,27.3475,1.01397,-0.0704654
316,27.3957,1.00238,-0.0707004
316.5,27.4434,1.00103,-0.0707
317,27.4916,1.0014,-0.0707
317.5,27.5389,0.990582,-0.0707
318,27.5864,0.981498,-0.0706922
318.5,27.6345,0.968142,-0.0720265
319,27.6824,0.961874,-0.0720194
319.5,27.7298,0.958636,-0.0733222
320,27.777,0.946693,-0.07334
320.5,27.8244,0.945176,-0.073362
321,27.8719,0.937753,-0.0746584
321.5,27.9203,0.931098,-0.0746599
322,27.9681,0.931569,-0.073517
322.5,28.0162,0.930387,-0.0733416
323,28.0632,0.927627,-0.0745817
323.5,28.1111,0.913677,-0.0759703
324,28.1581,0.90837,-0.0760009
324.5,28.2062,0.899644,-0.0772909
325,28.2542,0.897763,-0.0772867
325.5,28.3022,0.883955,-0.0786134
326,28.35,0.878078,-0.07861
326.5,28.397,0.868193,-0.0786361
327,28.445,0.866792,-0.0799171
327.5,28.4931,0.872427,-0.07992
328,28.5416,0.855307,-0.07992
328.5,28.5892,0.855349,-0.0786094
329,28.6357,0.854161,-0.0802301
329.5,28.6845,0.850608,-0.0819493
330,28.7314,0.841263,-0.0818918
330.5,28.7802,0.827372,-0.0832052
331,28.8275,0.830908,-0.0831115
331.5,28.8753,0.824358,-0.083592
332,28.9233,0.81266,-0.0832206
332.5,28.9715,0.809796,-0.0832197
333,29.0189,0.8101,-0.0834328
333.5,29.0664,0.797919,-0.0858419
334,29.1148,0.796509,-0.086813
334.5,29.1618,0.785951,-0.08716
335,29.2099,0.775983,-0.0871223
335.5,29.2578,0.767832,-0.0884521
336,29.3059,0.763791,-0.0885812
336.5,29.3533,0.75535,-0.0886436
337,29.4015,0.756822,-0.0911085
337.5,29.4494,0.744374,-0.0918688
338,29.498,0.748129,-0.0924316
338.5,29.5452,0.742253,-0.0936156
339,29.5934,0.735288,-0.0937505
339.5,29.6408,0.736152,-0.0950883
340,29.6892,0.732653,-0.0952516
340.5,29.7371,0.722399,-0.0963786
341,29.7846,0.735491,-0.0964037
341.5,29.8337,0.7303,-0.0976975
342,29.8808,0.723105,-0.0990148
342.5,29.9288,0.725024,-0.0990343
343,29.9772,0.721071,-0.100329
343.5,30.0246,0.718902,-0.100462
344,30.0723,0.706458,-0.102034
344.5,30.1216,0.706859,-0.103834
345,30.1699,0.713838,-0.105823
345.5,30.2165,0.706438,-0.10618
346,30.2649,0.705741,-0.107241
346.5,30.3131,0.713326,-0.109948
347,30.3619,0.716239,-0.11231
347.5,30.4102,0.713588,-0.112772
348,30.4579,0.709342,-0.112329
348.5,30.5055,0.710442,-0.112822
349,30.5531,0.70388,-0.113849
349.5,30.6016,0.713781,-0.115713
350,30.65,0.713693,-0.117822
350.5,30.6976,0.717118,-0.119332
351,30.7461,0.713788,-0.120626
351.5,30.7936,0.721569,-0.121077
352,30.8423,0.72974,-0.122402
352.5,30.8908,0.737332,-0.123823
353,30.9392,0.735813,-0.125167
353.5,30.9854,0.733064,-0.126494
354,31.0331,0.729113,-0.128168
354.5,31.0826,0.734647,-0.129412
355,31.1314,0.745141,-0.131158
355.5,31.1796,0.743281,-0.133058
356,31.2274,0.743117,-0.134592
356.5,31.2759,0.752354,-0.136524
357,31.3227,0.74819,-0.139219
357.5,31.371,0.756457,-0.140629
358,31.4201,0.761243,-0.14229
358.5,31.4676,0.759781,-0.143736
359,31.5171,0.767281,-0.144881
359.5,31.5644,0.778853,-0.146183
360,31.6137,0.777845,-0.147601
360.5,31.6613,0.78669,-0.150134
361,31.7093,0.784976,-0.152099
361.5,31.7581,0.796196,-0.15344
362,31.8061,0.805909,-0.155667
362.5,31.8546,0.814415,-0.157681
363,31.9023,0.822435,-0.158972
363.5,31.9509,0.826327,-0.159977
364,31.999,0.842767,-0.162024
364.5,32.048,0.852326,-0.164454
365,32.096,0.846109,-0.165141
365.5,32.1442,0.854694,-0.167709
366,32.1923,0.853281,-0.169413
366.5,32.2408,0.856205,-0.170718
367,32.2894,0.872222,-0.171928
367.5,32.3369,0.874058,-0.175214
368,32.3859,0.874258,-0.17674
368.5,32.4346,0.882872,-0.179371
369,32.4825,0.89459,-0.181029
369.5,32.5306,0.893578,-0.182418
370,32.5791,0.912453,-0.183909
370.5,32.6279,0.908924,-0.186532
371,32.676,0.920197,-0.188198
371.5,32.7237,0.927738,-0.190952
372,32.7719,0.931671,-0.192672
372.5,32.8208,0.936079,-0.195695
373,32.8688,0.940636,-0.197239
373.5,32.9173,0.940188,-0.198577
374,32.9656,0.943158,-0.2001
374.5,33.0148,0.946037,-0.203378
375,33.0636,0.958123,-0.205477
375.5,33.1111,0.953244,-0.207866
376,33.1593,0.96586,-0.20935
376.5,33.2086,0.97156,-0.212417
377,33.2562,0.976176,-0.214695
377.5,33.3046,0.976076,-0.214912
378,33.3524,0.984263,-0.217816
378.5,33.4012,0.989697,-0.221335
379,33.4499,0.994665,-0.22416
379.5,33.4987,0.994849,-0.227118
380,33.5465,0.997584,-0.229607
380.5,33.5954,1.00202,-0.231966
381,33.6441,1.01325,-0.234869
381.5,33.6894,1.01863,-0.236826
382,33.7402,1.0143,-0.23903
382.5,33.7896,1.02395,-0.241094
383,33.8378,1.025,-0.244266
383.5,33.886,1.03229,-0.246222
384,33.9341,1.02269,-0.248864
384.5,33.9826,1.03799,-0.251682
385,34.0321,1.04014,-0.254814
385.5,34.0792,1.03614,-0.257641
386,34.1289,1.04547,-0.259378
386.5,34.1762,1.04806,-0.262474
387,34.2251,1.05258,-0.265965
387.5,34.2728,1.05903,-0.269435
388,34.322,1.05954,-0.272062
388.5,34.37,1.06218,-0.27421
389,34.417,1.06326,-0.277466
389.5,34.4669,1.06516,-0.281147
390,34.5153,1.06334,-0.285477
390.5,34.5633,1.06981,-0.287661
391,34.6118,1.07391,-0.29059
391.5,34.6608,1.07141,-0.293861
392,34.7099,1.07474,-0.296516
392.5,34.7566,1.08217,-0.30044
393,34.8064,1.08702,-0.304036
393.5,34.8546,1.0941,-0.308386
394,34.903,1.10064,-0.313484
394.5,34.9508,1.09503,-0.316898
395,34.9999,1.10223,-0.320456
395.5,35.0489,1.10146,-0.324272
396,35.0969,1.10027,-0.32827
396.5,35.1453,1.10329,-0.33176
397,35.1936,1.10861,-0.336375
397.5,35.2403,1.10881,-0.340972
398,35.2906,1.10266,-0.346455
398.5,35.3397,1.10071,-0.350565
399,35.3875,1.09257,-0.354151
399.5,35.436,1.10759,-0.359124
400,35.4854,1.10848,-0.36391
400.5,35.532,1.10725,-0.369674
401,35.583,1.1063,-0.375021
401.5,35.6315,1.11325,-0.379379
402,35.6799,1.10581,-0.385625
402.5,35.7278,1.11897,-0.39091
403,35.7763,1.11414,-0.396617
403.5,35.8249,1.11104,-0.402187
404,35.8733,1.1139,-0.407866
404.5,35.9232,1.11108,-0.415329
405,35.9705,1.11399,-0.419978
405.5,36.0196,1.11207,-0.427629
406,36.0684,1.11563,-0.432781
406.5,36.1169,1.11868,-0.437858
407,36.1655,1.11857,-0.445264
407.5,36.2139,1.11454,-0.453413
408,36.2639,1.10893,-0.462128
408.5,36.3112,1.11078,-0.468351
409,36.3608,1.10767,-0.477133
409.5,36.4091,1.11201,-0.484296
410,36.4575,1.11111,-0.491188
410.5,36.5069,1.11578,-0.500471
411,36.5552,1.11738,-0.508923
411.5,36.6038,1.11769,-0.516697
412,36.6526,1.12851,-0.524621
412.5,36.7016,1.13601,-0.532368
413,36.7502,1.14043,-0.543598
413.5,36.7989,1.14993,-0.552449
414,36.847,1.14986,-0.563286
414.5,36.8952,1.1569,-0.571571
415,36.9443,1.15304,-0.581404
415.5,36.9934,1.15125,-0.590873
416,37.0421,1.15295,-0.601114
416.5,37.0898,1.15817,-0.611399
417,37.1395,1.17657,-0.622121
417.5,37.1871,1.15973,-0.632144
418,37.2358,1.16855,-0.643144
418.5,37.2843,1.17215,-0.655239
419,37.3329,1.17677,-0.665399
419.5,37.3822,1.17993,-0.677032
420,37.4309,1.18296,-0.689313
420.5,37.4799,1.19169,-0.700484
421,37.5262,1.19402,-0.712198
421.5,37.5772,1.18611,-0.723725
422,37.6254,1.20003,-0.734647
422.5,37.6741,1.19977,-0.746264
423,37.723,1.20167,-0.758664
423.5,37.7722,1.20635,-0.77252
424,37.8216,1.20207,-0.783901
424.5,37.8696,1.2061,-0.796307
425,37.9194,1.20973,-0.809619
425.5,37.9665,1.21149,-0.820951
426,38.0154,1.21228,-0.833013
426.5,38.065,1.21662,-0.845163
427,38.1129,1.21387,-0.858118
427.5,38.1593,1.21413,-0.87034
428,38.2097,1.21333,-0.882261
428.5,38.2603,1.21253,-0.895525
429,38.3079,1.21145,-0.908454
429.5,38.3579,1.19961,-0.921531
430,38.4062,1.19782,-0.934594
430.5,38.4551,1.18591,-0.946393
431,38.5027,1.17934,-0.959511
431.5,38.5532,1.18139,-0.972539
432,38.6019,1.17227,-0.985909
432.5,38.6503,1.16906,-0.999718
433,38.6985,1.16738,-1.01052
433.5,38.7469,1.15967,-1.02297
434,38.7959,1.16212,-1.03697
434.5,38.8451,1.15545,-1.04874
435,38.8936,1.1447,-1.06363
435.5,38.9423,1.15018,-1.0757
436,38.9915,1.14865,-1.08756
436.5,39.04,1.13736,-1.10016
437,39.0884,1.12885,-1.11225
437.5,39.1374,1.12124,-1.12639
438,39.1862,1.112,-1.13977
438.5,39.235,1.10428,-1.15195
439,39.2834,1.0979,-1.16537
439.5,39.3332,1.08567,-1.17646
440,39.3809,1.07457,-1.18902
440.5,39.4303,1.06969,-1.20141
441,39.4785,1.05664,-1.21439
441.5,39.528,1.03605,-1.22764
442,39.5757,1.03523,-1.24005
442.5,39.6248,1.0224,-1.25268
443,39.6734,1.01509,-1.2662
443.5,39.7225,1.00933,-1.27835
444,39.7716,0.983694,-1.2911
444.5,39.8193,0.983611,-1.3046
445,39.8689,0.982321,-1.31955
445.5,39.9176,0.9734,-1.3315
446,39.9665,0.96952,-1.34289
446.5,40.0159,0.9582,-1.35565
447,40.0643,0.952861,-1.36837
447.5,40.1135,0.945374,-1.38107
448,40.1626,0.931809,-1.39421
448.5,40.211,0.927271,-1.40648
449,40.2602,0.911229,-1.4212
449.5,40.3097,0.904765,-1.43459
450,40.3574,0.899591,-1.44626
450.5,40.4071,0.895663,-1.45952
451,40.4563,0.891674,-1.47231
451.5,40.5053,0.88837,-1.48545
452,40.5531,0.88038,-1.49698
452.5,40.6033,0.876007,-1.50932
453,40.652,0.879581,-1.52361
453.5,40.7011,0.876635,-1.53568
454,40.7499,0.859186,-1.54878
454.5,40.7992,0.866473,-1.56322
455,40.8487,0.872376,-1.5745
455.5,40.8974,0.897067,-1.58863
456,40.9469,0.911835,-1.60082
456.5,40.9971,0.922971,-1.61471
457,41.0449,0.948604,-1.62661
457.5,41.0936,0.970258,-1.641
458,41.1444,0.99806,-1.65655
458.5,41.1934,1.01997,-1.67089
459,41.2431,1.02941,-1.68265
459.5,41.2916,1.0369,-1.69521
460,41.341,1.04121,-1.7092
460.5,41.3908,1.0513,-1.72256
461,41.4388,1.05203,-1.73482
461.5,41.4899,1.06441,-1.74836
462,41.5378,1.06953,-1.76067
462.5,41.5873,1.07362,-1.77569
463,41.6358,1.08336,-1.78693
463.5,41.6849,1.08547,-1.79865
464,41.7353,1.09473,-1.81087
464.5,41.7837,1.10302,-1.82348
465,41.8331,1.10741,-1.83432
465.5,41.8804,1.11336,-1.84498
466,41.9306,1.10956,-1.85735
466.5,41.9792,1.10794,-1.86974
467,42.0287,1.11103,-1.88147
467.5,42.0786,1.11359,-1.89329
468,42.1248,1.10477,-1.90405
468.5,42.1763,1.10882,-1.91657
469,42.225,1.10357,-1.9279
469.5,42.2747,1.0978,-1.93941
470,42.3236,1.09761,-1.9514
470.5,42.373,1.09149,-1.96064
471,42.4219,1.09444,-1.97107
471.5,42.4708,1.08034,-1.98244
472,42.5201,1.08591,-1.99294
472.5,42.5679,1.07624,-2.00346
473,42.6169,1.07074,-2.01489
473.5,42.666,1.07365,-2.02567
474,42.715,1.05783,-2.03652
474.5,42.7648,1.05164,-2.04766
475,42.8138,1.04573,-2.0587
475.5,42.8626,1.03334,-2.06889
476,42.9119,1.03196,-2.07908
476.5,42.9611,1.01988,-2.09043
477,43.0098,1.01037,-2.10066
477.5,43.0585,0.999582,-2.11035
478,43.1074,0.992573,-2.12127
478.5,43.1568,0.975364,-2.13069
479,43.206,0.970991,-2.14137
479.5,43.2546,0.946819,-2.15503
480,43.3041,0.944926,-2.16505
480.5,43.3535,0.927503,-2.17465
481,43.4032,0.924069,-2.18548
481.5,43.4511,0.90612,-2.19506
482,43.5001,0.888897,-2.20589
482.5,43.5502,0.879898,-2.21802
483,43.5983,0.864271,-2.22692
483.5,43.6468,0.851582,-2.23745
484,43.6968,0.837844,-2.24673
484.5,43.7455,0.829012,-2.25769
485,43.795,0.810766,-2.26915
485.5,43.8441,0.796198,-2.28046
486,43.893,0.788448,-2.29051
486.5,43.9426,0.771776,-2.30102
487,43.9912,0.758864,-2.31079
487.5,44.0413,0.744388,-2.32039
488,44.0874,0.729835,-2.33177
488.5,44.1394,0.723957,-2.34234
489,44.1867,0.715212,-2.3528
489.5,44.2373,0.69586,-2.36257
490,44.2864,0.688644,-2.37366
490.5,44.3354,0.68507,-2.38504
491,44.3854,0.671737,-2.39655
491.5,44.4346,0.653992,-2.40828
492,44.4831,0.652839,-2.41865
492.5,44.5329,0.652026,-2.42956
493,44.583,0.640566,-2.44017
493.5,44.6306,0.628057,-2.4512
494,44.6811,0.619601,-2.46246
494.5,44.7303,0.616215,-2.47426
495,44.7793,0.608229,-2.48546
495.5,44.8287,0.59969,-2.496
496,44.8778,0.591831,-2.507
496.5,44.9273,0.584503,-2.5176
497,44.9764,0.571824,-2.53133
497.5,45.0262,0.578653,-2.54273
498,45.0756,0.56905,-2.55428
498.5,45.1246,0.559658,-2.56545
499,45.1738,0.553588,-2.5741
499.5,45.2229,0.550836,-2.5863
500,45.2722,0.544333,-2.59693
500.5,45.3213,0.535552,-2.60858
501,45.3718,0.535486,-2.61909
501.5,45.4207,0.527951,-2.63147
502,45.4698,0.521702,-2.64108
502.5,45.5192,0.509599,-2.65265
503,45.5677,0.505352,-2.66155
503.5,45.6175,0.501646,-2.67272
504,45.6669,0.494869,-2.68325
504.5,45.7164,0.489541,-2.6931
505,45.7656,0.487581,-2.70241
505.5,45.8127,0.480404,-2.71191
506,45.8644,0.473173,-2.72244
506.5,45.9133,0.465304,-2.7327
507,45.963,0.463067,-2.74137
507.5,46.0121,0.454574,-2.75021
508,46.0622,0.457644,-2.75946
508.5,46.1117,0.449951,-2.76903
509,46.1599,0.443352,-2.77756
509.5,46.2104,0.441406,-2.78606
510,46.2584,0.4429,-2.79447
510.5,46.3094,0.431891,-2.80311
511,46.3585,0.435139,-2.8102
511.5,46.4061,0.428079,-2.8177
512,46.4574,0.416196,-2.82617
512.5,46.5055,0.42086,-2.83457
513,46.5558,0.420601,-2.84169
513.5,46.6058,0.41339,-2.84918
514,46.6549,0.410021,-2.85721
514.5,46.7041,0.399458,-2.8639
515,46.7532,0.401329,-2.86993
515.5,46.8023,0.387031,-2.87735
516,46.8524,0.37534,-2.88427
516.5,46.9025,0.372293,-2.89034
517,46.9514,0.363415,-2.89679
517.5,46.9999,0.363958,-2.90357
518,47.05,0.357387,-2.90992
518.5,47.0993,0.344446,-2.91759
519,47.1489,0.337466,-2.92336
519.5,47.198,0.332257,-2.92995
520,47.2473,0.31635,-2.93421
520.5,47.2958,0.310571,-2.93852
521,47.3455,0.30312,-2.9449
521.5,47.3957,0.295139,-2.9525
522,47.4439,0.280671,-2.95571
522.5,47.4936,0.273885,-2.96162
523,47.5429,0.267208,-2.96774
523.5,47.5925,0.260307,-2.97212
524,47.642,0.24398,-2.97553
524.5,47.6916,0.237456,-2.98135
525,47.7406,0.2281,-2.98667
525.5,47.7903,0.212941,-2.99092
526,47.8391,0.201393,-2.99641
526.5,47.8882,0.194324,-3.00075
527,47.9379,0.174001,-3.00423
527.5,47.9875,0.165387,-3.0084
528,48.0364,0.162154,-3.01325
528.5,48.085,0.149464,-3.0179
529,48.1346,0.141238,-3.02209
529.5,48.1841,0.139009,-3.0254
530,48.2339,0.125705,-3.03055
530.5,48.2823,0.113425,-3.03255
531,48.3325,0.109064,-3.03688
531.5,48.3812,0.103756,-3.0418
532,48.4316,0.0937138,-3.04315
532.5,48.4802,0.0887877,-3.046
533,48.5303,0.0802891,-3.05037
533.5,48.5785,0.0693695,-3.0539
534,48.6286,0.0673939,-3.05684
534.5,48.6786,0.0648793,-3.06215
535,48.7273,0.0538596,-3.06318
535.5,48.7743,0.0443863,-3.06644
536,48.8268,0.0341591,-3.0705
536.5,48.8743,0.0268634,-3.07272
537,48.9264,0.0258444,-3.07489
537.5,48.9756,0.0183772,-3.07863
538,49.0253,0.000342132,-3.081
538.5,49.0749,-0.00787229,-3.08235
539,49.1227,-0.0099515,-3.08437
539.5,49.1749,-0.0157847,-3.08758
540,49.2238,-0.0202955,-3.09077
540.5,49.2732,-0.01833,-3.09425
541,49.3226,-0.0243108,-3.09663
541.5,49.3722,-0.0304547,-3.0996
542,49.4217,-0.0320963,-3.10092
542.5,49.4719,-0.0355555,-3.10237
543,49.5207,-0.0320325,-3.1039
543.5,49.5695,-0.129086,-3.10541
544,49.6199,-0.0993172,-3.10698
544.5,49.6697,-0.0853381,-3.11002
545,49.719,-0.0685859,-3.11171
545.5,49.7694,-0.0761795,-3.11414
546,49.8185,-0.0786303,-3.11682
546.5,49.868,-0.0769426,-3.11945
547,49.9175,-0.0667572,-3.12088
547.5,49.9678,-0.0706103,-3.12074
548,50.0171,-0.0664459,-3.12324
548.5,50.0658,-0.0622486,-3.12536
549,50.1157,-0.0682639,-3.12723
549.5,50.1657,-0.0655486,-3.12911
550,50.2152,-0.0643066,-3.13087
550.5,50.266,-0.0684083,-3.13251
551,50.314,-0.0720172,-3.13531
551.5,50.3651,-0.0736589,-3.13553
552,50.4148,-0.0768446,-3.13815
552.5,50.4638,-0.0898117,-3.13943
553,50.5134,-0.0829925,-3.1413
553.5,50.5633,-0.0881429,-3.14278
554,50.6129,-0.0930575,-3.14505
554.5,50.6628,-0.0941704,-3.14771
555,50.7123,-0.0850372,-3.1483
555.5,50.7631,-0.0902337,-3.14901
556,50.8123,-0.0893846,-3.15033
556.5,50.8594,-0.0950402,-3.15165
557,50.9104,-0.0870393,-3.15296
557.5,50.9607,-0.0930805,-3.15439
558,51.011,-0.0977747,-3.1557
558.5,51.061,-0.097488,-3.15662
559,51.1105,-0.10178,-3.15843
559.5,51.1603,-0.0998597,-3.15977
560,51.2098,-0.10167,-3.16107
560.5,51.2601,-0.110816,-3.16239
561,51.3098,-0.1129,-3.16394
561.5,51.359,-0.112573,-3.16383
562,51.4092,-0.114715,-3.16511
562.5,51.4583,-0.118691,-3.16618
563,51.5085,-0.118414,-3.16635
563.5,51.5585,-0.120881,-3.16778
564,51.6084,-0.120982,-3.16928
564.5,51.6581,-0.120313,-3.17077
565,51.7077,-0.121763,-3.17206
565.5,51.7579,-0.120386,-3.17346
566,51.8081,-0.122461,-3.1747
566.5,51.8573,-0.12348,-3.1761
567,51.907,-0.125435,-3.17752
567.5,51.9567,-0.12617,-3.1774
568,52.007,-0.12933,-3.18007
568.5,52.0566,-0.124444,-3.18139
569,52.1064,-0.130049,-3.18134
569.5,52.1558,-0.132821,-3.18281
570,52.2056,-0.126508,-3.18271
570.5,52.256,-0.124953,-3.18403
571,52.3054,-0.127238,-3.18678
571.5,52.3543,-0.12847,-3.18554
572,52.405,-0.122484,-3.18735
572.5,52.4547,-0.127465,-3.18738
573,52.5041,-0.123875,-3.18805
573.5,52.5537,-0.124235,-3.1894
574,52.6036,-0.132344,-3.1907
574.5,52.6542,-0.120028,-3.19139
575,52.7033,-0.128154,-3.1927
575.5,52.7526,-0.129395,-3.19401
576,52.8024,-0.125217,-3.19403
576.5,52.8522,-0.124849,-3.19545
577,52.902,-0.117124,-3.19676
577.5,52.9515,-0.125918,-3.19807
578,53.0015,-0.120627,-3.19808
578.5,53.0526,-0.113427,-3.1994
579,53.1018,-0.113723,-3.20071
579.5,53.1518,-0.118147,-3.19939
580,53.2017,-0.118218,-3.20071
580.5,53.251,-0.120273,-3.20199
581,53.3012,-0.120617,-3.20332
581.5,53.3478,-0.128586,-3.20334
582,53.401,-0.126007,-3.20466
582.5,53.4506,-0.128556,-3.20466
583,53.5,-0.134639,-3.206
583.5,53.5506,-0.133001,-3.20598
584,53.6009,-0.130714,-3.20732
584.5,53.651,-0.139412,-3.2073
585,53.7006,-0.127884,-3.20872
585.5,53.7498,-0.135618,-3.20938
586,53.8007,-0.136529,-3.21047
586.5,53.8504,-0.142184,-3.21005
587,53.9007,-0.137129,-3.21272
587.5,53.9498,-0.137161,-3.21274
588,53.9992,-0.138681,-3.21267
588.5,54.0488,-0.137898,-3.21268
589,54.0996,-0.137869,-3.21269
589.5,54.1492,-0.146576,-3.21399
590,54.1985,-0.153394,-3.21412
590.5,54.249,-0.147113,-3.21532
591,54.2983,-0.149057,-3.21595
591.5,54.3482,-0.155808,-3.21587
592,54.3984,-0.149586,-3.2173
592.5,54.4482,-0.156492,-3.2186
593,54.4987,-0.16625,-3.21966
593.5,54.5474,-0.154833,-3.2196
594,54.598,-0.16374,-3.21995
594.5,54.6479,-0.162958,-3.21995
595,54.6979,-0.17306,-3.22124
595.5,54.7478,-0.164904,-3.22122
596,54.7988,-0.173076,-3.22256
596.5,54.8484,-0.177296,-3.22321
597,54.8979,-0.186546,-3.22385
597.5,54.9479,-0.188384,-3.22447
598,54.9969,-0.191939,-3.22519
598.5,55.0479,-0.1954,-3.22655
599,55.096,-0.193979,-3.22651
599.5,55.1474,-0.196448,-3.22681
600,55.1975,-0.197854,-3.22783
600.5,55.2463,-0.207537,-3.2292
601,55.2981,-0.213081,-3.22977
601.5,55.3476,-0.214676,-3.22981
602,55.3972,-0.218747,-3.22981
602.5,55.4467,-0.225268,-3.22979
603,55.4971,-0.230862,-3.22909
603.5,55.5463,-0.233062,-3.23013
604,55.5965,-0.224106,-3.23003
604.5,55.6465,-0.236692,-3.23145
605,55.6953,-0.237678,-3.23283
605.5,55.7478,-0.237727,-3.23276
606,55.7968,-0.242435,-3.23243
606.5,55.8469,-0.240971,-3.23371
607,55.8972,-0.2479,-3.23508
607.5,55.9477,-0.247411,-3.23365
608,55.998,-0.248398,-3.23507
608.5,56.0481,-0.256136,-3.23507
609,56.0974,-0.25355,-3.23491
609.5,56.1481,-0.256685,-3.23507
610,56.1977,-0.261913,-3.23507
610.5,56.2474,-0.26363,-3.23507
611,56.2977,-0.264765,-3.23583
611.5,56.3454,-0.267311,-3.23744
612,56.3979,-0.263184,-3.23738
612.5,56.447,-0.277039,-3.23864
613,56.4971,-0.280629,-3.23838
613.5,56.5466,-0.287225,-3.23739
614,56.5967,-0.278637,-3.23739
614.5,56.6474,-0.292581,-3.23792
615,56.6976,-0.282005,-3.2387
615.5,56.7471,-0.291959,-3.23882
616,56.7973,-0.30045,-3.24001
616.5,56.847,-0.308141,-3.24002
617,56.8973,-0.304804,-3.23959
617.5,56.9475,-0.305967,-3.24035
618,56.9971,-0.308682,-3.24167
618.5,57.0468,-0.3157,-3.24166
619,57.0971,-0.311703,-3.24166
619.5,57.1473,-0.315602,-3.24166
620,57.1965,-0.322474,-3.24166
620.5,57.2469,-0.321464,-3.24165
621,57.2971,-0.321457,-3.24298
621.5,57.3469,-0.325025,-3.24297
622,57.3965,-0.331916,-3.24361
622.5,57.4473,-0.332988,-3.24364
623,57.4967,-0.331321,-3.24364
623.5,57.5469,-0.33917,-3.24364
624,57.5959,-0.331616,-3.24365
624.5,57.6467,-0.335765,-3.24393
625,57.6964,-0.337134,-3.24397
625.5,57.7473,-0.342112,-3.24397
626,57.797,-0.338812,-3.24397
626.5,57.8465,-0.340436,-3.24391
627,57.8959,-0.341497,-3.24528
627.5,57.9469,-0.351664,-3.24528
628,57.9968,-0.353735,-3.24527
628.5,58.0467,-0.350574,-3.24661
629,58.0974,-0.358495,-3.2466
629.5,58.147,-0.359811,-3.24786
630,58.1964,-0.359019,-3.24792
630.5,58.2471,-0.359843,-3.24792
631,58.2973,-0.360674,-3.24728
631.5,58.3471,-0.354803,-3.2466
632,58.3976,-0.36105,-3.24736
632.5,58.4476,-0.365514,-3.2476
633,58.498,-0.366036,-3.24891
633.5,58.5477,-0.369472,-3.24891
634,58.5973,-0.372888,-3.24927
634.5,58.6471,-0.380449,-3.24924
635,58.6978,-0.383181,-3.25053
635.5,58.7471,-0.379409,-3.24923
636,58.7974,-0.393572,-3.24923
636.5,58.8471,-0.396181,-3.24998
637,58.8976,-0.397896,-3.25185
637.5,58.9471,-0.403481,-3.25187
638,58.9978,-0.414875,-3.25186
638.5,59.0478,-0.418329,-3.2532
639,59.0983,-0.4224,-3.25319
639.5,59.1477,-0.412006,-3.25314
640,59.1976,-0.420706,-3.25187
640.5,59.2479,-0.418696,-3.25238
641,59.2986,-0.423398,-3.25451
641.5,59.3484,-0.423684,-3.25451
642,59.3988,-0.430671,-3.25451
642.5,59.4483,-0.424426,-3.25423
643,59.4989,-0.425543,-3.25447
643.5,59.5492,-0.43448,-3.2545
644,59.5985,-0.447314,-3.2545
644.5,59.6487,-0.444861,-3.25314
645,59.6989,-0.449058,-3.25446
645.5,59.7498,-0.46625,-3.25541
646,59.7987,-0.463779,-3.25444
646.5,59.8494,-0.470411,-3.25593
647,59.8997,-0.474249,-3.25334
647.5,59.9492,-0.466198,-3.25314
648,59.9999,-0.46739,-3.25542
648.5,60.0504,-0.470952,-3.25549
649,60.0999,-0.469036,-3.25549
649.5,60.1494,-0.468424,-3.25415
650,60.2009,-0.472083,-3.25419
650.5,60.2507,-0.476018,-3.25679
651,60.3004,-0.476797,-3.25681
651.5,60.3495,-0.4856,-3.25674
652,60.3997,-0.48804,-3.25682
652.5,60.4505,-0.496058,-3.25551
653,60.5003,-0.492331,-3.25546
653.5,60.5498,-0.500569,-3.25517
654,60.5995,-0.498685,-3.25513
654.5,60.6503,-0.493746,-3.2555
655,60.6999,-0.506612,-3.25681
655.5,60.7509,-0.4984,-3.25681
656,60.8007,-0.50366,-3.25681
656.5,60.8504,-0.499226,-3.25681
657,60.9004,-0.509961,-3.25681
657.5,60.9508,-0.50639,-3.25681
658,61.0005,-0.502714,-3.25681
658.5,61.0509,-0.512737,-3.25681
659,61.1004,-0.506954,-3.25678
659.5,61.1508,-0.50896,-3.25639
660,61.2007,-0.514269,-3.25714
660.5,61.2521,-0.515906,-3.25714
661,61.3007,-0.514313,-3.25714
661.5,61.3515,-0.51733,-3.25714
662,61.3996,-0.516878,-3.25714
662.5,61.4522,-0.524164,-3.25714
663,61.5014,-0.527103,-3.25714
663.5,61.5518,-0.526083,-3.25842
664,61.6019,-0.532458,-3.26
664.5,61.6528,-0.530893,-3.25871
665,61.7026,-0.540145,-3.25713
665.5,61.7524,-0.543978,-3.25714
666,61.8021,-0.533138,-3.25714
666.5,61.8533,-0.546431,-3.25845
667,61.9034,-0.539497,-3.25846
667.5,61.9532,-0.545041,-3.25977
668,62.0027,-0.559407,-3.25977
668.5,62.0528,-0.559258,-3.25977
669,62.1034,-0.567414,-3.2595
669.5,62.1538,-0.562441,-3.25846
670,62.2043,-0.570197,-3.25973
670.5,62.2537,-0.580865,-3.25977
671,62.3038,-0.581728,-3.25976
671.5,62.3541,-0.586664,-3.25846
672,62.4045,-0.581702,-3.25987
672.5,62.4547,-0.584597,-3.26109
673,62.5036,-0.589568,-3.26109
673.5,62.5548,-0.589059,-3.26111
674,62.605,-0.601966,-3.26208
674.5,62.6561,-0.612417,-3.26206
675,62.7053,-0.621356,-3.26109
675.5,62.7556,-0.618834,-3.2611
676,62.8062,-0.612551,-3.2611
676.5,62.8556,-0.615794,-3.26112
677,62.9067,-0.628326,-3.26241
677.5,62.9565,-0.625457,-3.26241
678,63.0076,-0.635809,-3.26241
678.5,63.0565,-0.632425,-3.26241
679,63.1059,-0.642395,-3.26241
679.5,63.1582,-0.642664,-3.26377
680,63.2078,-0.646934,-3.26373
680.5,63.2579,-0.653417,-3.26373
681,63.3081,-0.651389,-3.26372
681.5,63.3588,-0.656438,-3.26504
682,63.4088,-0.664684,-3.26504
682.5,63.4593,-0.666501,-3.2641
683,63.5088,-0.666099,-3.2651
683.5,63.5597,-0.668397,-3.26373
684,63.6097,-0.66856,-3.26373
684.5,63.66,-0.673782,-3.26373
685,63.7106,-0.681134,-3.26372
685.5,63.7606,-0.677763,-3.26472
686,63.8112,-0.681316,-3.26472
686.5,63.8611,-0.685229,-3.26472
687,63.9116,-0.68619,-3.26505
687.5,63.9625,-0.685861,-3.2664
688,64.0122,-0.68453,-3.26636
688.5,64.0621,-0.686606,-3.26636
689,64.1125,-0.689474,-3.26636
689.5,64.1628,-0.689671,-3.26635
690,64.2132,-0.696448,-3.26505
690.5,64.264,-0.707681,-3.2651
691,64.3145,-0.706766,-3.26715
691.5,64.3646,-0.714059,-3.26768
692,64.4143,-0.705881,-3.26637
692.5,64.4645,-0.721317,-3.26636
693,64.515,-0.730308,-3.26636
693.5,64.5653,-0.72908,-3.26636
694,64.6153,-0.734915,-3.26636
694.5,64.6656,-0.731532,-3.26635
695,64.7159,-0.736573,-3.2658
695.5,64.7661,-0.746629,-3.26636
696,64.8157,-0.752603,-3.26636
696.5,64.8663,-0.757636,-3.26636
697,64.9172,-0.760131,-3.26635
697.5,64.967,-0.756671,-3.26538
698,65.0178,-0.76363,-3.26594
698.5,65.0678,-0.770036,-3.2667
699,65.1176,-0.763979,-3.2667
699.5,65.1679,-0.771862,-3.2667
700,65.2176,-0.783972,-3.2667
700.5,65.2674,-0.780212,-3.2667
701,65.3182,-0.781144,-3.2667
701.5,65.3681,-0.787733,-3.2677
702,65.4171,-0.793464,-3.268
702.5,65.4686,-0.793388,-3.26932
703,65.5187,-0.794454,-3.26939
703.5,65.5687,-0.792764,-3.26933
704,65.6199,-0.798409,-3.26801
704.5,65.6699,-0.795979,-3.26801
705,65.7202,-0.808383,-3.26733
705.5,65.7697,-0.809579,-3.26735
706,65.8202,-0.812457,-3.26735
706.5,65.8703,-0.816383,-3.26735
707,65.9206,-0.810722,-3.26867
707.5,65.9718,-0.81738,-3.26867
708,66.0213,-0.827097,-3.26867
708.5,66.0722,-0.819341,-3.26867
709,66.1222,-0.820839,-3.26867
709.5,66.1724,-0.824255,-3.27018
710,66.2234,-0.831247,-3.27263
710.5,66.2727,-0.836472,-3.27009
711,66.3234,-0.841641,-3.2701
711.5,66.374,-0.838475,-3.27007
712,66.4241,-0.844963,-3.27009
712.5,66.4744,-0.849964,-3.27009
713,66.5244,-0.847971,-3.27009
713.5,66.5755,-0.859313,-3.27009
714,66.6254,-0.863237,-3.27012
714.5,66.6755,-0.864096,-3.2691
715,66.7262,-0.865941,-3.2699
715.5,66.7776,-0.86618,-3.27042
716,66.8276,-0.87501,-3.27042
716.5,66.8781,-0.882718,-3.27042
717,66.9292,-0.884929,-3.27042
717.5,66.9795,-0.884824,-3.27042
718,67.0293,-0.88948,-3.27042
718.5,67.0797,-0.897105,-3.2701
719,67.1308,-0.889319,-3.2701
719.5,67.1812,-0.895174,-3.27141
720,67.2306,-0.90625,-3.27142
720.5,67.2815,-0.908742,-3.27273
721,67.3329,-0.907379,-3.27141
721.5,67.3826,-0.916312,-3.27141
722,67.4311,-0.922566,-3.2724
722.5,67.4834,-0.928719,-3.27275
723,67.5346,-0.935522,-3.27142
723.5,67.5853,-0.943514,-3.27142
724,67.6352,-0.940999,-3.2716
724.5,67.6855,-0.945851,-3.2724
725,67.7362,-0.956284,-3.27237
725.5,67.7864,-0.95138,-3.27271
726,67.8372,-0.956814,-3.27142
726.5,67.8874,-0.970968,-3.27141
727,67.9381,-0.967851,-3.27176
727.5,67.9884,-0.966279,-3.27174
728,68.0377,-0.971978,-3.27303
728.5,68.0885,-0.978278,-3.27306
729,68.1397,-0.973579,-3.27306
729.5,68.1887,-0.97647,-3.27175
730,68.2394,-0.986413,-3.27174
730.5,68.2905,-0.990384,-3.27174
731,68.3407,-0.988689,-3.27207
731.5,68.391,-0.996842,-3.27273
732,68.4412,-0.998626,-3.27336
732.5,68.4921,-1.00295,-3.27339
733,68.5418,-1.04073,-3.27339
733.5,68.5934,-1.02372,-3.27339
734,68.643,-1.02943,-3.27209
734.5,68.6933,-1.02994,-3.27207
735,68.7446,-1.0288,-3.27207
735.5,68.7947,-1.04064,-3.27207
736,68.8456,-1.04342,-3.27211
736.5,68.8958,-1.05536,-3.27339
737,68.9464,-1.05611,-3.27339
737.5,68.9956,-1.06301,-3.27203
738,69.0475,-1.07271,-3.27261
738.5,69.0979,-1.07061,-3.27339
739,69.1471,-1.06951,-3.27345
739.5,69.1988,-1.08237,-3.27245
740,69.2497,-1.09534,-3.27462