File: 01_Data/Thermoplastic_Helmet_Shell/STA/N2/10K_min/Thermoplastic_Helmet_Shell_STA_N2_10KData_250220_R3.csv
Temp./C,Time/min,DSC/(mW/mg),Mass loss/mg
35.0,0.0,0.414148,0.0335059
35.5,0.0684678,0.419377,0.0323635
36,0.136436,0.430458,0.0302367
36.5,0.204817,0.434159,0.0362335
37,0.271825,0.441366,0.0357348
37.5,0.33897,0.445459,0.0355398
38,0.405655,0.452955,0.0358145
38.5,0.470202,0.460992,0.0359749
39,0.533533,0.462274,0.034622
39.5,0.595215,0.469337,0.0346226
40,0.66124,0.476507,0.0360098
40.5,0.725991,0.482851,0.0342286
41,0.78346,0.487267,0.034612
41.5,0.848672,0.499699,0.0356387
42,0.910023,0.499787,0.0361497
42.5,0.970196,0.494469,0.0353588
43,1.03307,0.505223,0.038604
43.5,1.09144,0.505574,0.0378489
44,1.15117,0.518478,0.0359295
44.5,1.21142,0.512511,0.0332792
45,1.27262,0.52126,0.033173
45.5,1.32991,0.522417,0.034884
46,1.3901,0.534874,0.0347292
46.5,1.44618,0.53363,0.036467
47,1.50538,0.536103,0.0365316
47.5,1.56243,0.548015,0.0364514
48,1.61869,0.548284,0.0350552
48.5,1.6766,0.549311,0.0351278
49,1.73375,0.559703,0.0343602
49.5,1.79124,0.555087,0.0336527
50,1.84829,0.567292,0.0337026
50.5,1.90227,0.57274,0.0341418
51,1.96034,0.571955,0.0370412
51.5,2.01624,0.574962,0.0380715
52,2.07253,0.579255,0.0383914
52.5,2.12737,0.591943,0.038863
53,2.18231,0.58492,0.0388673
53.5,2.23728,0.586272,0.0375491
54,2.29254,0.59077,0.0382636
54.5,2.34739,0.592604,0.0387684
55,2.39875,0.59947,0.0382787
55.5,2.45563,0.604926,0.0371762
56,2.51018,0.610454,0.0374975
56.5,2.56447,0.613773,0.037542
57,2.61856,0.616641,0.0369648
57.5,2.67093,0.618646,0.0362396
58,2.72486,0.623713,0.0362459
58.5,2.7758,0.626471,0.0376664
59,2.83125,0.629986,0.0378767
59.5,2.88485,0.631855,0.0378083
60,2.93684,0.636986,0.0396878
60.5,2.99013,0.639394,0.0417452
61,3.04243,0.636473,0.0415985
61.5,3.09391,0.646393,0.0410568
62,3.14654,0.643453,0.0403246
62.5,3.19911,0.648606,0.0413628
63,3.25249,0.651382,0.0402891
63.5,3.30516,0.653092,0.040228
64,3.35596,0.652386,0.0402875
64.5,3.40766,0.661401,0.0402901
65,3.45965,0.664282,0.040275
65.5,3.51102,0.66593,0.0403039
66,3.5639,0.67223,0.0393997
66.5,3.61486,0.676556,0.0402906
67,3.66691,0.677442,0.0409016
67.5,3.71666,0.679987,0.0416098
68,3.76817,0.67826,0.0413798
68.5,3.81997,0.686788,0.0416775
69,3.87076,0.683512,0.0413639
69.5,3.92172,0.691116,0.0416466
70,3.9728,0.696945,0.041065
70.5,4.02347,0.696572,0.0404011
71,4.07392,0.703326,0.0402883
71.5,4.12617,0.708016,0.0400462
72,4.17767,0.704419,0.0403633
72.5,4.22613,0.70882,0.0416093
73,4.2776,0.715594,0.0411447
73.5,4.32829,0.710998,0.0417046
74,4.37824,0.714348,0.0401717
74.5,4.42971,0.71294,0.0416177
75,4.48025,0.7198,0.0429076
75.5,4.52974,0.717105,0.0429303
76,4.57853,0.720433,0.0433695
76.5,4.63077,0.718576,0.0429331
77,4.68178,0.727336,0.0442818
77.5,4.73021,0.726775,0.0443347
78,4.78052,0.73318,0.0443114
78.5,4.83197,0.739216,0.0417002
79,4.882,0.731533,0.0427669
79.5,4.93249,0.739995,0.0430361
80,4.98128,0.746557,0.0430283
80.5,5.03174,0.743087,0.0436968
81,5.0806,0.749405,0.0430395
81.5,5.13265,0.750118,0.0430387
82,5.1821,0.753253,0.0417415
82.5,5.2309,0.748694,0.0430738
83,5.28183,0.757839,0.0417155
83.5,5.33092,0.762405,0.041711
84,5.37982,0.765357,0.0435362
84.5,5.43003,0.767167,0.0432455
85,5.47869,0.771032,0.0419381
85.5,5.5286,0.767308,0.0419411
86,5.5788,0.776844,0.0419039
86.5,5.62814,0.779476,0.0432946
87,5.67688,0.785851,0.0432499
87.5,5.72548,0.776709,0.0432607
88,5.77574,0.778548,0.044563
88.5,5.82516,0.782061,0.0449159
89,5.87363,0.785356,0.0450535
89.5,5.91967,0.788774,0.0445696
90,5.97054,0.783832,0.0445471
90.5,6.02071,0.786775,0.0432525
91,6.06949,0.792106,0.0420018
91.5,6.11841,0.791873,0.0433679
92,6.16514,0.795093,0.0433702
92.5,6.21631,0.792567,0.0431364
93,6.2642,0.797347,0.0420371
93.5,6.31119,0.791726,0.0420502
94,6.36136,0.80151,0.0420612
94.5,6.41143,0.80278,0.0433482
95,6.45964,0.795041,0.0420328
95.5,6.50853,0.812236,0.0433641
96,6.55395,0.816909,0.0423182
96.5,6.60702,0.812244,0.0407541
97,6.65385,0.80867,0.0413005
97.5,6.70385,0.811566,0.0420421
98,6.74916,0.819659,0.04195
98.5,6.79897,0.82231,0.0433727
99,6.84773,0.822716,0.04337
99.5,6.89538,0.830598,0.04337
100,6.94344,0.833586,0.0433684
100.5,6.99385,0.833884,0.0422092
101,7.04021,0.833493,0.0420772
101.5,7.0896,0.83629,0.0434396
102,7.13826,0.840668,0.0423714
102.5,7.1857,0.845954,0.04237
103,7.2335,0.854089,0.042371
103.5,7.28134,0.84867,0.0420452
104,7.32976,0.855646,0.0420258
104.5,7.37587,0.85647,0.0440436
105,7.42702,0.858902,0.0462577
105.5,7.47515,0.863134,0.0462201
106,7.52315,0.864213,0.0475512
106.5,7.57118,0.865031,0.0465508
107,7.61933,0.87161,0.0465704
107.5,7.66763,0.870411,0.0464591
108,7.71546,0.875833,0.04721
108.5,7.76286,0.873487,0.0471997
109,7.81141,0.876731,0.04589
109.5,7.85948,0.87538,0.04589
110,7.90722,0.879035,0.0459548
110.5,7.95602,0.884128,0.0445675
111,8.00458,0.884294,0.04457
111.5,8.05175,0.888368,0.0445792
112,8.09947,0.896005,0.045149
112.5,8.14746,0.898162,0.0449051
113,8.19642,0.895636,0.0449962
113.5,8.24429,0.896622,0.0448961
114,8.29165,0.904266,0.0449013
114.5,8.33926,0.890962,0.0459319
115,8.38805,0.895342,0.0462158
115.5,8.43629,0.90093,0.0475263
116,8.48365,0.898988,0.0462927
116.5,8.53161,0.898815,0.0433775
117,8.57941,0.900795,0.0434805
117.5,8.62756,0.899754,0.0460015
118,8.67557,0.910378,0.046
118.5,8.72337,0.908839,0.045969
119,8.7713,0.908111,0.0473176
119.5,8.81918,0.912624,0.0459891
120,8.86816,0.913632,0.0460231
120.5,8.91585,0.915655,0.0473091
121,8.96374,0.920892,0.0473396
121.5,9.01183,0.920892,0.0471529
122,9.05891,0.924675,0.0473202
122.5,9.10646,0.923018,0.04732
123,9.15422,0.927197,0.04732
123.5,9.20331,0.937275,0.0472928
124,9.25067,0.937805,0.0486527
124.5,9.29704,0.937038,0.0473145
125,9.34608,0.939649,0.0473117
125.5,9.39294,0.935775,0.0460078
126,9.44109,0.938607,0.046
126.5,9.4886,0.942671,0.0460003
127,9.5346,0.949704,0.0445764
127.5,9.58514,0.943432,0.0459999
128,9.63218,0.948993,0.0470946
128.5,9.67874,0.942962,0.0473085
129,9.72784,0.94649,0.0460108
129.5,9.77461,0.950573,0.0459995
130,9.82206,0.95087,0.0453828
130.5,9.87043,0.950889,0.0466469
131,9.91667,0.950823,0.04666
131.5,9.96563,0.9565,0.04666
132,10.0135,0.958633,0.0466648
132.5,10.0614,0.963485,0.0476414
133,10.1082,0.965282,0.0476471
133.5,10.1569,0.969324,0.046996
134,10.2034,0.976923,0.0469899
134.5,10.2515,0.977104,0.0457701
135,10.2986,0.981878,0.0456456
135.5,10.3463,0.990199,0.0460063
136,10.3932,0.993932,0.0473119
136.5,10.4403,1.00073,0.0472239
137,10.4883,1.01335,0.048662
137.5,10.5363,1.00561,0.0499489
138,10.5829,1.01578,0.0499498
138.5,10.6311,1.03017,0.0486622
139,10.6785,1.03073,0.04864
139.5,10.7267,1.03637,0.048639
140,10.773,1.03586,0.0472293
140.5,10.8199,1.05267,0.0486433
141,10.8666,1.05231,0.04864
141.5,10.915,1.05897,0.04864
142,10.9626,1.07362,0.0486409
142.5,11.0099,1.07563,0.04602
143,11.0572,1.08412,0.046
143.5,11.1051,1.08477,0.046
144,11.1523,1.09082,0.0462498
144.5,11.1991,1.09343,0.0473044
145,11.2465,1.0922,0.0473203
145.5,11.2939,1.09356,0.0478829
146,11.3404,1.09812,0.0481572
146.5,11.388,1.09624,0.0473101
147,11.4319,1.09001,0.0473109
147.5,11.4813,1.10052,0.0484582
148,11.5282,1.09897,0.0486304
148.5,11.5752,1.10184,0.04863
149,11.6244,1.10477,0.04863
149.5,11.6683,1.09446,0.04863
150,11.7176,1.1057,0.0486289
150.5,11.7647,1.10231,0.0475837
151,11.8123,1.09556,0.0480505
151.5,11.8598,1.10314,0.0486399
152,11.9069,1.09973,0.04864
152.5,11.9536,1.09951,0.04864
153,12.0017,1.09707,0.0485971
153.5,12.0489,1.10353,0.0487733
154,12.0932,1.108,0.0495919
154.5,12.1436,1.10464,0.0496199
155,12.19,1.1032,0.0496976
155.5,12.2377,1.10699,0.0482996
156,12.2849,1.10545,0.0483
156.5,12.3318,1.10789,0.0483
157,12.3789,1.10805,0.0483083
157.5,12.4258,1.11536,0.0486366
158,12.4722,1.11262,0.0499494
158.5,12.5195,1.10408,0.04995
159,12.5675,1.11367,0.0499489
159.5,12.6135,1.11466,0.0486104
160,12.6611,1.11872,0.0486301
160.5,12.7076,1.11716,0.0486299
161,12.7548,1.11537,0.0486228
161.5,12.8026,1.12121,0.0486234
162,12.85,1.11859,0.0486369
162.5,12.8974,1.11525,0.0496137
163,12.9441,1.11617,0.051238
163.5,12.9914,1.11502,0.0512702
164,13.0393,1.11647,0.0512614
164.5,13.0848,1.11859,0.0499614
165,13.1322,1.12047,0.0513356
165.5,13.18,1.11976,0.0499435
166,13.2269,1.11648,0.04995
166.5,13.273,1.11872,0.04995
167,13.3211,1.1209,0.0499504
167.5,13.3685,1.12749,0.0505322
168,13.4147,1.12385,0.0523192
168.5,13.46,1.13277,0.0522482
169,13.5091,1.13029,0.0509573
169.5,13.554,1.1291,0.0509399
170,13.6013,1.12592,0.0506756
170.5,13.6502,1.12445,0.0496316
171,13.6965,1.13018,0.0499518
171.5,13.7447,1.12323,0.0512691
172,13.7923,1.12989,0.0525762
172.5,13.8394,1.13487,0.0525787
173,13.8856,1.1327,0.05128
173.5,13.933,1.14241,0.0520821
174,13.9803,1.13339,0.0512062
174.5,14.0277,1.13587,0.0499598
175,14.0747,1.13924,0.0499506
175.5,14.1212,1.13609,0.0502759
176,14.1685,1.1377,0.05028
176.5,14.2157,1.12842,0.05028
177,14.2632,1.13167,0.0514604
177.5,14.31,1.14241,0.0515004
178,14.3578,1.13355,0.0529107
178.5,14.4017,1.13836,0.0529104
179,14.4518,1.1375,0.0516261
179.5,14.4985,1.14186,0.0502714
180,14.5442,1.14282,0.0515811
180.5,14.5923,1.14089,0.0516001
181,14.6403,1.13979,0.0506318
181.5,14.6868,1.1409,0.0502794
182,14.7336,1.13826,0.05028
182.5,14.7804,1.14354,0.0503068
183,14.8281,1.14271,0.0515963
183.5,14.8752,1.14445,0.0516001
184,14.9213,1.14605,0.0529822
184.5,14.9675,1.15309,0.0530636
185,15.0156,1.15568,0.0502746
185.5,15.0622,1.15058,0.05028
186,15.1094,1.14728,0.0502801
186.5,15.1569,1.15346,0.0507872
187,15.2006,1.15109,0.0515886
187.5,15.252,1.15309,0.0512473
188,15.2988,1.16058,0.0507649
188.5,15.3453,1.16079,0.0502805
189,15.3931,1.16226,0.0502884
189.5,15.439,1.15962,0.0515837
190,15.4869,1.15484,0.0516024
190.5,15.5335,1.1631,0.0502598
191,15.5803,1.16608,0.0516327
191.5,15.6268,1.1706,0.052897
192,15.674,1.16633,0.0516335
192.5,15.7211,1.16594,0.0528972
193,15.7674,1.16273,0.0518371
193.5,15.8143,1.1755,0.0515998
194,15.8618,1.17219,0.0515997
194.5,15.9092,1.16841,0.0518192
195,15.9555,1.16613,0.0515168
195.5,16.0026,1.17219,0.051596
196,16.0497,1.17343,0.0529262
196.5,16.0938,1.17659,0.0518382
197,16.1446,1.17848,0.0519233
197.5,16.1904,1.1769,0.0532446
198,16.2382,1.17448,0.0532417
198.5,16.2854,1.17506,0.0541975
199,16.3319,1.17734,0.0542305
199.5,16.3786,1.18081,0.0539985
200,16.4263,1.18374,0.0525386
200.5,16.4726,1.18427,0.0522502
201,16.5194,1.18338,0.0519534
201.5,16.5666,1.17276,0.0515898
202,16.6138,1.18633,0.05159
202.5,16.6611,1.18554,0.05159
203,16.7078,1.18546,0.05159
203.5,16.7556,1.18223,0.0515896
204,16.8008,1.19488,0.0527026
204.5,16.8487,1.18551,0.0529149
205,16.8942,1.1921,0.0519541
205.5,16.9427,1.19668,0.0532539
206,16.9907,1.19787,0.0532518
206.5,17.0371,1.19597,0.0543766
207,17.0856,1.19781,0.0545723
207.5,17.1322,1.19953,0.0558858
208,17.1788,1.2033,0.05588
208.5,17.2251,1.20189,0.0558798
209,17.2717,1.20607,0.0570812
209.5,17.319,1.2021,0.0568691
210,17.3662,1.19727,0.0557819
210.5,17.4131,1.20433,0.0542556
211,17.4602,1.20813,0.0523531
211.5,17.5081,1.20251,0.0510519
212,17.5548,1.20594,0.0510496
212.5,17.6013,1.20686,0.0524019
213,17.6487,1.21086,0.0516638
213.5,17.6955,1.21233,0.0529978
214,17.7428,1.20973,0.0523548
214.5,17.7902,1.20897,0.052358
215,17.8377,1.21208,0.0511987
215.5,17.8846,1.20821,0.05105
216,17.9317,1.20722,0.0510574
216.5,17.9759,1.21189,0.052364
217,18.0266,1.21148,0.05236
217.5,18.0717,1.2193,0.0523616
218,18.1201,1.21873,0.0536146
218.5,18.167,1.22177,0.0536801
219,18.2138,1.22364,0.0540784
219.5,18.2618,1.22242,0.0543392
220,18.3075,1.23341,0.0557351
220.5,18.3543,1.23632,0.0556589
221,18.4031,1.22664,0.0549584
221.5,18.4494,1.23106,0.0546466
222,18.4968,1.23822,0.0523451
222.5,18.5433,1.23789,0.0523696
223,18.5917,1.23395,0.0537049
223.5,18.6378,1.2309,0.0536905
224,18.6846,1.23824,0.0534793
224.5,18.7328,1.23804,0.0537206
225,18.7802,1.24024,0.0536899
225.5,18.8271,1.24972,0.05369
226,18.8722,1.25023,0.05369
226.5,18.9209,1.25003,0.05369
227,18.9679,1.25903,0.0536895
227.5,19.0154,1.2572,0.053315
228,19.0626,1.25681,0.052979
228.5,19.1099,1.2596,0.0535307
229,19.1566,1.26051,0.0536759
229.5,19.2034,1.26127,0.0549931
230,19.251,1.26723,0.055
230.5,19.296,1.27289,0.0550022
231,19.3459,1.28202,0.0563088
231.5,19.3934,1.28344,0.0550142
232,19.441,1.29252,0.0549843
232.5,19.4878,1.29295,0.0543733
233,19.5344,1.29907,0.0536795
233.5,19.5799,1.30215,0.05368
234,19.6299,1.30586,0.05368
234.5,19.6772,1.31238,0.05368
235,19.724,1.3153,0.0536773
235.5,19.7715,1.32391,0.0543765
236,19.8191,1.33685,0.0543399
236.5,19.8659,1.34422,0.05434
237,19.9127,1.3402,0.054342
237.5,19.9606,1.36058,0.0556161
238,20.006,1.36171,0.05566
238.5,20.0553,1.37613,0.0556728
239,20.103,1.38818,0.0550072
239.5,20.1494,1.39546,0.0550606
240,20.1977,1.40814,0.0534814
240.5,20.245,1.41542,0.0511563
241,20.2916,1.43814,0.0511599
241.5,20.3385,1.44615,0.0518984
242,20.3863,1.45989,0.0530469
242.5,20.4345,1.48414,0.0539074
243,20.4815,1.50345,0.0552334
243.5,20.5292,1.52488,0.05523
244,20.5762,1.54488,0.05523
244.5,20.6236,1.5695,0.05523
245,20.6722,1.59256,0.0552296
245.5,20.7193,1.61161,0.0556054
246,20.7657,1.63653,0.0565399
246.5,20.8133,1.66428,0.0567368
247,20.8628,1.67836,0.0579535
247.5,20.9097,1.67847,0.0565368
248,20.957,1.68728,0.0552167
248.5,21.0041,1.67859,0.0539141
249,21.0517,1.66814,0.05391
249.5,21.0988,1.65665,0.0539074
250,21.1454,1.63097,0.0552357
250.5,21.1927,1.6089,0.0538982
251,21.2389,1.58374,0.0538861
251.5,21.2872,1.55237,0.0537569
252,21.3338,1.51817,0.0535305
252.5,21.3803,1.47995,0.0551763
253,21.4274,1.43815,0.0563626
253.5,21.4738,1.40762,0.0551098
254,21.5208,1.36994,0.0551089
254.5,21.5666,1.33907,0.053904
255,21.6143,1.31681,0.052467
255.5,21.6611,1.28776,0.0524673
256,21.7078,1.26118,0.0537837
256.5,21.7564,1.24535,0.0537772
257,21.8026,1.23722,0.0551037
257.5,21.8499,1.22492,0.05511
258,21.8963,1.21351,0.055107
258.5,21.9439,1.21097,0.0564254
259,21.9905,1.1991,0.0564582
259.5,22.0378,1.19309,0.0551122
260,22.0853,1.19137,0.0561313
260.5,22.1325,1.19554,0.0564299
261,22.1797,1.19065,0.05643
261.5,22.2267,1.18284,0.0564292
262,22.2745,1.1774,0.0551686
262.5,22.3216,1.18345,0.0561051
263,22.3697,1.18419,0.0561
263.5,22.4161,1.18678,0.0561015
264,22.4638,1.18659,0.0548025
264.5,22.5113,1.18187,0.0547899
265,22.5578,1.18373,0.0548234
265.5,22.6046,1.18797,0.0534699
266,22.6507,1.18517,0.0510856
266.5,22.6994,1.18214,0.0508308
267,22.7468,1.1827,0.0519422
267.5,22.7943,1.1817,0.0534512
268,22.8424,1.18468,0.0534541
268.5,22.8895,1.18417,0.0534876
269,22.9371,1.18322,0.05347
269.5,22.9836,1.18414,0.0546793
270,23.0294,1.18282,0.0547896
270.5,23.0797,1.17899,0.0539774
271,23.1267,1.17503,0.05347
271.5,23.1736,1.17591,0.0534797
272,23.222,1.16773,0.0547731
272.5,23.2688,1.17497,0.05478
273,23.3164,1.17115,0.05478
273.5,23.365,1.16835,0.05478
274,23.4112,1.1684,0.05478
274.5,23.4581,1.16646,0.05478
275,23.5062,1.16079,0.0547801
275.5,23.5533,1.16243,0.0533755
276,23.6014,1.16084,0.0534603
276.5,23.6487,1.16944,0.053392
277,23.6958,1.15957,0.0547801
277.5,23.744,1.16551,0.0547834
278,23.7912,1.1646,0.0534228
278.5,23.8385,1.15839,0.0545556
279,23.8857,1.15791,0.0534694
279.5,23.9339,1.16298,0.05346
280,23.9808,1.15936,0.05346
280.5,24.0285,1.15749,0.0534601
281,24.0762,1.15493,0.0535056
281.5,24.1233,1.14804,0.0533986
282,24.1718,1.15649,0.0532114
282.5,24.2185,1.14746,0.0520338
283,24.2663,1.15125,0.0539453
283.5,24.3141,1.14665,0.0542299
284,24.3616,1.14491,0.0543349
284.5,24.4082,1.14331,0.0528999
285,24.4563,1.14122,0.0516007
285.5,24.5041,1.13297,0.05159
286,24.5489,1.125,0.05159
286.5,24.6001,1.12506,0.05159
287,24.6465,1.11624,0.0515907
287.5,24.6944,1.1174,0.0505774
288,24.7421,1.11286,0.0519863
288.5,24.7893,1.10199,0.0519279
289,24.8372,1.10372,0.0532372
289.5,24.8846,1.09969,0.05324
290,24.9327,1.10192,0.0532506
290.5,24.9798,1.09586,0.0535864
291,25.027,1.09379,0.0532519
291.5,25.0742,1.08826,0.05325
292,25.1222,1.08993,0.0532234
292.5,25.1701,1.08068,0.0519318
293,25.2152,1.08645,0.05193
293.5,25.2647,1.08045,0.05193
294,25.312,1.07898,0.0519429
294.5,25.3598,1.07794,0.0532479
295,25.4079,1.07977,0.0533047
295.5,25.4553,1.07511,0.0506184
296,25.5024,1.06989,0.0506102
296.5,25.5495,1.07296,0.0504562
297,25.5978,1.06519,0.0502798
297.5,25.643,1.0695,0.05028
298,25.6931,1.06539,0.05028
298.5,25.7386,1.06477,0.0502802
299,25.7876,1.0663,0.050136
299.5,25.8362,1.06092,0.0492902
300,25.8828,1.05559,0.049386
300.5,25.9309,1.05401,0.0466533
301,25.9781,1.05421,0.0466601
301.5,26.0253,1.04815,0.0466552
302,26.0736,1.04195,0.0476516
302.5,26.121,1.0535,0.04765
303,26.169,1.03366,0.0476476
303.5,26.2156,1.0437,0.045987
304,26.2641,1.04205,0.0459995
304.5,26.3113,1.04035,0.0463868
305,26.3592,1.03261,0.0473199
305.5,26.4061,1.03342,0.04732
306,26.4548,1.03157,0.0473556
306.5,26.502,1.02829,0.0473493
307,26.5502,1.0277,0.0473199
307.5,26.597,1.0195,0.04732
308,26.6451,1.01353,0.04732
308.5,26.6934,1.01565,0.04732
309,26.7405,1.00481,0.0473343
309.5,26.7886,1.00043,0.046319
310,26.8355,0.997878,0.0459992
310.5,26.8844,0.994608,0.046
311,26.9317,0.989886,0.0460003
311.5,26.9792,0.99074,0.0457818
312,27.0265,0.987681,0.0446804
312.5,27.0743,0.987399,0.0446776
313,27.1221,0.983407,0.046004
313.5,27.1701,0.974784,0.0460035
314,27.2178,0.972297,0.0450119
314.5,27.265,0.966447,0.0436919
315,27.3124,0.964269,0.0433365
315.5,27.3601,0.958913,0.0423834
316,27.408,0.954151,0.0410531
316.5,27.4564,0.956251,0.04106
317,27.5035,0.95115,0.04106
317.5,27.552,0.951191,0.041034
318,27.5979,0.947486,0.0400745
318.5,27.6478,0.936446,0.0397464
319,27.6954,0.931403,0.0380999
319.5,27.743,0.928362,0.0381012
320,27.7898,0.924615,0.0370379
320.5,27.8385,0.926526,0.0357897
321,27.8873,0.920366,0.03579
321.5,27.9351,0.913237,0.03579
322,27.9823,0.901279,0.0344101
322.5,28.0302,0.904425,0.0344701
323,28.0776,0.892293,0.03447
323.5,28.1254,0.887702,0.03447
324,28.1729,0.879854,0.03447
324.5,28.2212,0.883918,0.03447
325,28.2685,0.870842,0.03447
325.5,28.3171,0.87249,0.03447
326,28.3642,0.866646,0.03447
326.5,28.4123,0.85834,0.0344738
327,28.4595,0.862419,0.0331241
327.5,28.5073,0.851314,0.0331417
328,28.5542,0.846052,0.0305188
328.5,28.6041,0.843297,0.0305203
329,28.6515,0.841248,0.0291305
329.5,28.6989,0.833262,0.0292
330,28.747,0.827213,0.0286743
330.5,28.7943,0.81793,0.0278799
331,28.8424,0.809931,0.0260753
331.5,28.891,0.808315,0.0245255
332,28.9367,0.801511,0.0245896
332.5,28.9862,0.796253,0.0238259
333,29.0341,0.803492,0.0238526
333.5,29.0812,0.794052,0.0232727
334,29.1297,0.791469,0.02327
334.5,29.1774,0.787838,0.0232691
335,29.2251,0.779697,0.0222821
335.5,29.2734,0.777773,0.0219525
336,29.3207,0.768338,0.0206567
336.5,29.3668,0.756581,0.0192873
337,29.4143,0.75695,0.0190442
337.5,29.4644,0.755998,0.0153974
338,29.5112,0.746594,0.0147646
338.5,29.5593,0.745233,0.0133997
339,29.6077,0.737992,0.0133928
339.5,29.656,0.735553,0.0123878
340,29.7022,0.736344,0.0120753
340.5,29.7509,0.728664,0.0118702
341,29.7985,0.726884,0.0114204
341.5,29.8463,0.726793,0.0114201
342,29.8949,0.725392,0.0101165
342.5,29.9422,0.722428,0.00875123
343,29.9897,0.719895,0.00816378
343.5,30.0381,0.720092,0.00710415
344,30.085,0.713635,0.00571
344.5,30.1339,0.709508,0.00446215
345,30.1822,0.727441,0.00436947
345.5,30.2296,0.718687,0.00311786
346,30.2772,0.718841,0.00174688
346.5,30.3262,0.718003,0.00170091
347,30.3733,0.711824,-0.000836253
347.5,30.4214,0.71624,-0.00346649
348,30.4695,0.709414,-0.00398814
348.5,30.5183,0.714407,-0.00610673
349,30.5656,0.696821,-0.00977586
349.5,30.6128,0.706807,-0.0127238
350,30.6618,0.702057,-0.0155763
350.5,30.7098,0.700125,-0.016147
351,30.7576,0.709148,-0.0172291
351.5,30.8063,0.705373,-0.01723
352,30.8538,0.708212,-0.0172236
352.5,30.903,0.702943,-0.0185144
353,30.9501,0.707371,-0.0203483
353.5,30.9978,0.7112,-0.0211188
354,31.0459,0.713044,-0.0224829
354.5,31.0939,0.711154,-0.0244902
355,31.143,0.714421,-0.0268107
355.5,31.1905,0.720307,-0.0281033
356,31.2384,0.715547,-0.030655
356.5,31.2873,0.721119,-0.032481
357,31.3348,0.733875,-0.0331342
357.5,31.383,0.735162,-0.0353191
358,31.4312,0.736721,-0.0368057
358.5,31.4789,0.748671,-0.038068
359,31.5279,0.75649,-0.0405862
359.5,31.5765,0.747028,-0.042244
360,31.6254,0.756141,-0.0452383
360.5,31.6734,0.755753,-0.0451652
361,31.721,0.767002,-0.046501
361.5,31.77,0.777857,-0.0479096
362,31.818,0.771841,-0.0492832
362.5,31.8652,0.778766,-0.0514467
363,31.9137,0.784708,-0.0524905
363.5,31.9623,0.791271,-0.0555322
364,32.01,0.798608,-0.0574905
364.5,32.0582,0.807702,-0.0607475
365,32.1077,0.808774,-0.063141
365.5,32.1549,0.819913,-0.0664101
366,32.2027,0.82466,-0.0676257
366.5,32.2516,0.837817,-0.0704717
367,32.3006,0.837751,-0.0722037
367.5,32.3483,0.842256,-0.0740779
368,32.3973,0.859406,-0.0776768
368.5,32.4445,0.857357,-0.0789387
369,32.4933,0.861161,-0.0802783
369.5,32.5414,0.867077,-0.0815214
370,32.5901,0.883033,-0.0832789
370.5,32.6388,0.879705,-0.085341
371,32.6865,0.879564,-0.0875345
371.5,32.7341,0.886453,-0.0889085
372,32.7828,0.894119,-0.0914054
372.5,32.8316,0.899254,-0.0918177
373,32.8801,0.902962,-0.0939477
373.5,32.928,0.907377,-0.0984721
374,32.9772,0.913787,-0.101696
374.5,33.0257,0.921211,-0.104775
375,33.0735,0.929633,-0.106779
375.5,33.1227,0.935898,-0.1106
376,33.1699,0.935566,-0.111148
376.5,33.2181,0.947959,-0.112087
377,33.2647,0.949397,-0.114914
377.5,33.3151,0.948078,-0.117589
378,33.3639,0.949106,-0.11998
378.5,33.4121,0.961227,-0.123156
379,33.4611,0.970874,-0.12597
379.5,33.5083,0.979871,-0.128081
380,33.5556,0.985982,-0.131259
380.5,33.6062,0.987272,-0.13406
381,33.6538,0.998363,-0.138146
381.5,33.7027,1.00659,-0.140799
382,33.7512,1.00474,-0.142803
382.5,33.7995,1.00446,-0.145473
383,33.8472,1.00095,-0.14828
383.5,33.8966,1.00657,-0.149329
384,33.9446,1.00978,-0.151056
384.5,33.9933,1.0105,-0.155184
385,34.0412,1.01632,-0.159858
385.5,34.0888,1.02496,-0.161898
386,34.138,1.02264,-0.164577
386.5,34.1867,1.02364,-0.167938
387,34.235,1.02295,-0.171044
387.5,34.2834,1.01647,-0.172385
388,34.3319,1.019,-0.175708
388.5,34.38,1.01897,-0.180158
389,34.4286,1.02621,-0.183162
389.5,34.4774,1.02233,-0.18714
390,34.5264,1.02193,-0.189971
390.5,34.5746,1.02476,-0.193077
391,34.6233,1.02971,-0.196772
391.5,34.6717,1.02864,-0.201246
392,34.721,1.02449,-0.204914
392.5,34.7686,1.03102,-0.208393
393,34.8179,1.04035,-0.211462
393.5,34.8656,1.04164,-0.216324
394,34.9146,1.03627,-0.22052
394.5,34.9631,1.03544,-0.224241
395,35.012,1.04029,-0.228982
395.5,35.0594,1.04251,-0.233235
396,35.1086,1.04185,-0.238381
396.5,35.1567,1.04526,-0.242409
397,35.2063,1.04836,-0.248487
397.5,35.2552,1.05329,-0.251967
398,35.3033,1.05108,-0.256276
398.5,35.3509,1.04881,-0.260131
399,35.4004,1.05155,-0.264443
399.5,35.4489,1.05427,-0.270193
400,35.4967,1.05578,-0.275905
400.5,35.5459,1.05899,-0.279597
401,35.5943,1.05608,-0.286207
401.5,35.6429,1.06191,-0.293757
402,35.6911,1.05501,-0.298452
402.5,35.7398,1.04862,-0.305565
403,35.7878,1.05282,-0.311482
403.5,35.8367,1.05125,-0.318023
404,35.8858,1.0555,-0.323428
404.5,35.9331,1.04986,-0.32838
405,35.982,1.05146,-0.335208
405.5,36.0317,1.05244,-0.344029
406,36.0791,1.05787,-0.350491
406.5,36.1285,1.05263,-0.359887
407,36.1765,1.04889,-0.366632
407.5,36.2266,1.05228,-0.371575
408,36.2739,1.052,-0.378829
408.5,36.3228,1.05998,-0.386855
409,36.3711,1.05679,-0.394756
409.5,36.42,1.05261,-0.403588
410,36.4684,1.05746,-0.410969
410.5,36.5165,1.06093,-0.419104
411,36.5661,1.04719,-0.428782
411.5,36.6149,1.05194,-0.437251
412,36.6633,1.0539,-0.446603
412.5,36.7122,1.05533,-0.456712
413,36.7606,1.06276,-0.466733
413.5,36.8086,1.05613,-0.475033
414,36.8574,1.05759,-0.484885
414.5,36.9066,1.05864,-0.495856
415,36.9549,1.0628,-0.507346
415.5,37.0033,1.05987,-0.516088
416,37.0526,1.06026,-0.527574
416.5,37.1007,1.05792,-0.53855
417,37.1501,1.06164,-0.549422
417.5,37.1983,1.06143,-0.560165
418,37.2474,1.0658,-0.571602
418.5,37.2952,1.07322,-0.582116
419,37.345,1.08472,-0.59414
419.5,37.3928,1.09183,-0.608253
420,37.4422,1.09286,-0.621289
420.5,37.4905,1.09265,-0.633489
421,37.539,1.09737,-0.644525
421.5,37.5874,1.0966,-0.654954
422,37.6361,1.10108,-0.667206
422.5,37.6849,1.10216,-0.679431
423,37.7338,1.10114,-0.691134
423.5,37.7831,1.10342,-0.703248
424,37.832,1.09986,-0.717883
424.5,37.8808,1.10025,-0.732085
425,37.9295,1.10126,-0.746815
425.5,37.9774,1.09848,-0.76087
426,38.0269,1.09591,-0.7736
426.5,38.0731,1.10057,-0.785918
427,38.1238,1.08944,-0.798772
427.5,38.1726,1.08814,-0.813186
428,38.2207,1.07968,-0.827422
428.5,38.2698,1.08135,-0.841298
429,38.3164,1.079,-0.849293
429.5,38.3676,1.07413,-0.8637
430,38.4147,1.07575,-0.876861
430.5,38.4645,1.06889,-0.89188
431,38.5136,1.06679,-0.904256
431.5,38.5621,1.06556,-0.917546
432,38.6117,1.0498,-0.931496
432.5,38.659,1.05144,-0.946235
433,38.709,1.05183,-0.958912
433.5,38.7569,1.04306,-0.973229
434,38.8054,1.04557,-0.986041
434.5,38.8529,1.03277,-0.998613
435,38.9025,1.03257,-1.01111
435.5,38.9509,1.01999,-1.02451
436,38.9992,1.02135,-1.03768
436.5,39.0487,1.01128,-1.053
437,39.0978,1.00925,-1.06564
437.5,39.1457,0.99955,-1.0798
438,39.1945,0.988404,-1.09419
438.5,39.2437,0.985115,-1.11046
439,39.2919,0.979637,-1.12429
439.5,39.3407,0.969249,-1.1386
440,39.3893,0.966099,-1.15003
440.5,39.4382,0.950085,-1.16433
441,39.4862,0.950507,-1.17892
441.5,39.5355,0.940013,-1.19282
442,39.5831,0.935362,-1.2054
442.5,39.6315,0.926574,-1.21925
443,39.6809,0.911549,-1.2317
443.5,39.7299,0.904369,-1.24814
444,39.7782,0.891051,-1.26229
444.5,39.8271,0.892218,-1.27663
445,39.8757,0.889146,-1.28994
445.5,39.924,0.882238,-1.30268
446,39.9728,0.878867,-1.31811
446.5,40.0214,0.874357,-1.33166
447,40.0708,0.870173,-1.3451
447.5,40.1195,0.874861,-1.36001
448,40.1682,0.879449,-1.37483
448.5,40.2176,0.879142,-1.38942
449,40.2661,0.876447,-1.40411
449.5,40.3141,0.87076,-1.41689
450,40.3642,0.872296,-1.43118
450.5,40.4113,0.865957,-1.44555
451,40.4617,0.863971,-1.4592
451.5,40.5109,0.865322,-1.47403
452,40.5569,0.867706,-1.48782
452.5,40.6086,0.87582,-1.5051
453,40.6567,0.878278,-1.52062
453.5,40.707,0.901364,-1.53582
454,40.7565,0.909002,-1.55112
454.5,40.8052,0.941389,-1.56591
455,40.8553,0.960721,-1.57987
455.5,40.9032,0.970549,-1.59454
456,40.9518,0.981491,-1.60952
456.5,41.0027,0.987517,-1.62435
457,41.0515,1.00016,-1.63813
457.5,41.1001,0.999941,-1.6521
458,41.1502,1.01104,-1.66456
458.5,41.1991,1.01735,-1.67881
459,41.2477,1.02876,-1.69167
459.5,41.2977,1.04007,-1.70516
460,41.3466,1.04304,-1.71784
460.5,41.3957,1.05459,-1.73169
461,41.4451,1.0575,-1.7459
461.5,41.4945,1.06277,-1.75805
462,41.5431,1.07374,-1.76928
462.5,41.5917,1.07005,-1.78372
463,41.6412,1.07891,-1.79722
463.5,41.6906,1.08636,-1.81004
464,41.7394,1.08654,-1.82489
464.5,41.7885,1.08658,-1.83762
465,41.8381,1.08406,-1.84901
465.5,41.8869,1.08015,-1.86341
466,41.934,1.07468,-1.87595
466.5,41.9853,1.07186,-1.89009
467,42.0346,1.06653,-1.90167
467.5,42.0839,1.06087,-1.91344
468,42.1307,1.06067,-1.92463
468.5,42.1817,1.044,-1.93716
469,42.2301,1.03778,-1.94789
469.5,42.2797,1.03585,-1.95953
470,42.3296,1.02768,-1.97162
470.5,42.3782,1.01791,-1.98058
471,42.4267,1.00339,-1.99199
471.5,42.4753,0.997343,-2.00152
472,42.5252,0.98209,-2.00932
472.5,42.5729,0.963876,-2.02146
473,42.6236,0.95743,-2.03295
473.5,42.6721,0.946044,-2.0435
474,42.7216,0.932511,-2.05432
474.5,42.7713,0.919045,-2.06563
475,42.8207,0.905904,-2.07597
475.5,42.87,0.8996,-2.08477
476,42.9181,0.880018,-2.09415
476.5,42.9677,0.864214,-2.10393
477,43.0164,0.849744,-2.11508
477.5,43.066,0.836831,-2.12556
478,43.1149,0.832031,-2.13754
478.5,43.164,0.809016,-2.15
479,43.2124,0.792292,-2.15784
479.5,43.2617,0.780091,-2.16523
480,43.3113,0.76834,-2.17518
480.5,43.3591,0.753674,-2.18398
481,43.4076,0.74526,-2.19306
481.5,43.4571,0.737197,-2.20459
482,43.5068,0.726119,-2.21391
482.5,43.5557,0.718694,-2.22385
483,43.6053,0.708734,-2.23326
483.5,43.6545,0.692725,-2.2431
484,43.7026,0.682071,-2.25162
484.5,43.7526,0.671338,-2.2627
485,43.8005,0.664033,-2.27109
485.5,43.8506,0.66129,-2.28249
486,43.8988,0.653266,-2.29102
486.5,43.9484,0.642159,-2.30187
487,43.9975,0.637078,-2.31133
487.5,44.0468,0.627028,-2.32072
488,44.0952,0.614675,-2.33108
488.5,44.1447,0.608628,-2.34159
489,44.1941,0.602291,-2.35022
489.5,44.2402,0.592232,-2.35978
490,44.2923,0.589877,-2.37081
490.5,44.3408,0.582302,-2.38128
491,44.39,0.57146,-2.39106
491.5,44.4399,0.577624,-2.40234
492,44.4888,0.564176,-2.41187
492.5,44.5376,0.558797,-2.42171
493,44.5873,0.556919,-2.43233
493.5,44.6361,0.553895,-2.44267
494,44.6845,0.545507,-2.45189
494.5,44.7339,0.540378,-2.46204
495,44.7834,0.535152,-2.47414
495.5,44.8324,0.530358,-2.4851
496,44.8817,0.522218,-2.49428
496.5,44.9301,0.523574,-2.50355
497,44.9797,0.516731,-2.51304
497.5,45.0297,0.512115,-2.52105
498,45.0783,0.507313,-2.52991
498.5,45.127,0.508581,-2.54181
499,45.1768,0.508329,-2.55081
499.5,45.2259,0.492124,-2.5607
500,45.2743,0.492257,-2.57034
500.5,45.3246,0.490865,-2.58037
501,45.3739,0.474845,-2.58907
501.5,45.4238,0.473038,-2.59888
502,45.4725,0.464332,-2.60747
502.5,45.5212,0.461948,-2.6165
503,45.5706,0.457871,-2.62538
503.5,45.6199,0.446418,-2.63314
504,45.6698,0.449633,-2.64149
504.5,45.7196,0.439362,-2.64943
505,45.7669,0.440905,-2.65663
505.5,45.8171,0.427955,-2.66509
506,45.8647,0.429747,-2.67238
506.5,45.9163,0.425135,-2.68179
507,45.9656,0.414759,-2.68847
507.5,46.0147,0.420754,-2.69686
508,46.0645,0.418373,-2.70398
508.5,46.1122,0.409547,-2.71146
509,46.1612,0.400232,-2.71796
509.5,46.2135,0.398163,-2.72571
510,46.2617,0.392515,-2.73074
510.5,46.3121,0.384786,-2.73667
511,46.3594,0.379293,-2.74299
511.5,46.4084,0.379893,-2.7491
512,46.4593,0.37331,-2.7553
512.5,46.5095,0.364015,-2.76211
513,46.5582,0.35967,-2.76865
513.5,46.6071,0.355976,-2.77571
514,46.6569,0.348216,-2.78256
514.5,46.7063,0.333264,-2.79013
515,46.7563,0.338232,-2.7967
515.5,46.8058,0.31416,-2.80254
516,46.8547,0.305908,-2.80887
516.5,46.9044,0.293202,-2.81367
517,46.9536,0.280273,-2.81893
517.5,47.0034,0.277325,-2.82453
518,47.0523,0.271412,-2.82777
518.5,47.1015,0.255062,-2.83326
519,47.1513,0.244734,-2.83873
519.5,47.2001,0.244786,-2.84602
520,47.2501,0.230035,-2.85006
520.5,47.2993,0.218596,-2.8535
521,47.3473,0.207446,-2.857
521.5,47.3987,0.191842,-2.8624
522,47.4465,0.188358,-2.86909
522.5,47.496,0.175277,-2.87452
523,47.5459,0.171509,-2.88055
523.5,47.5931,0.153334,-2.88714
524,47.645,0.13803,-2.89277
524.5,47.6945,0.124544,-2.89767
525,47.7432,0.11739,-2.90299
525.5,47.7933,0.110918,-2.90844
526,47.8417,0.0893025,-2.91083
526.5,47.8912,0.0841046,-2.91501
527,47.9401,0.0694904,-2.9191
527.5,47.9901,0.0628301,-2.92232
528,48.0376,-0.0424303,-2.92645
528.5,48.088,-0.0282526,-2.92911
529,48.1374,-0.0174445,-2.93039
529.5,48.1847,-0.0121627,-2.93259
530,48.2365,-0.0187286,-2.93633
530.5,48.2852,-0.0250682,-2.94177
531,48.3354,-0.0313675,-2.94896
531.5,48.3848,-0.0370575,-2.95411
532,48.4339,-0.0471475,-2.95608
532.5,48.4818,-0.0572196,-2.95916
533,48.5326,-0.0617553,-2.96204
533.5,48.582,-0.0674505,-2.96466
534,48.6311,-0.0773113,-2.96676
534.5,48.6814,-0.0920948,-2.96867
535,48.731,-0.0944826,-2.97122
535.5,48.7801,-0.0959472,-2.97285
536,48.8295,-0.100023,-2.97623
536.5,48.8791,-0.10706,-2.98011
537,48.9278,-0.117253,-2.98317
537.5,48.9778,-0.117789,-2.98517
538,49.0264,-0.14569,-2.98855
538.5,49.0764,-0.138468,-2.99079
539,49.1258,-0.141023,-2.99212
539.5,49.1752,-0.143846,-2.99478
540,49.2247,-0.147429,-2.9977
540.5,49.2737,-0.152571,-2.99904
541,49.3229,-0.155395,-3.00176
541.5,49.3716,-0.160961,-3.00478
542,49.4227,-0.159513,-3.00636
542.5,49.4719,-0.161837,-3.0091
543,49.5214,-0.165823,-3.01073
543.5,49.5709,-0.165365,-3.01402
544,49.6208,-0.17077,-3.01748
544.5,49.6704,-0.170786,-3.01934
545,49.7206,-0.170611,-3.02159
545.5,49.7697,-0.17427,-3.02198
546,49.8196,-0.177956,-3.02353
546.5,49.8695,-0.184721,-3.02699
547,49.9189,-0.186136,-3.02855
547.5,49.9674,-0.19806,-3.02955
548,50.0173,-0.196245,-3.0316
548.5,50.0675,-0.198458,-3.03418
549,50.1172,-0.195733,-3.03561
549.5,50.1667,-0.206553,-3.03691
550,50.2161,-0.215118,-3.03827
550.5,50.2658,-0.214407,-3.03983
551,50.3152,-0.214222,-3.04275
551.5,50.3646,-0.211735,-3.04406
552,50.4145,-0.223968,-3.04547
552.5,50.4647,-0.230346,-3.04832
553,50.5133,-0.231233,-3.04827
553.5,50.563,-0.227918,-3.04965
554,50.6122,-0.23612,-3.05099
554.5,50.6622,-0.230354,-3.0537
555,50.7122,-0.237437,-3.05589
555.5,50.7613,-0.240371,-3.05723
556,50.8113,-0.245181,-3.05836
556.5,50.8607,-0.243509,-3.05758
557,50.91,-0.247272,-3.05756
557.5,50.9607,-0.250719,-3.05887
558,51.0087,-0.251182,-3.06008
558.5,51.0593,-0.250402,-3.06015
559,51.1093,-0.252345,-3.06258
559.5,51.1589,-0.249601,-3.06613
560,51.2083,-0.251096,-3.06915
560.5,51.2575,-0.256517,-3.07018
561,51.3073,-0.258905,-3.0715
561.5,51.3579,-0.252576,-3.07108
562,51.4063,-0.263392,-3.0715
562.5,51.4562,-0.254056,-3.07281
563,51.5065,-0.25995,-3.07361
563.5,51.5558,-0.258236,-3.07455
564,51.6066,-0.268438,-3.07462
564.5,51.656,-0.268704,-3.07619
565,51.7056,-0.262903,-3.07831
565.5,51.7554,-0.269738,-3.08139
566,51.8052,-0.261765,-3.08446
566.5,51.8551,-0.270232,-3.08599
567,51.9045,-0.272403,-3.08599
567.5,51.9542,-0.263872,-3.08864
568,52.0038,-0.270762,-3.08871
568.5,52.0538,-0.270963,-3.08731
569,52.1027,-0.272026,-3.0873
569.5,52.1531,-0.273644,-3.08577
570,52.2022,-0.268675,-3.08715
570.5,52.2529,-0.265547,-3.08852
571,52.3013,-0.279086,-3.08977
571.5,52.3517,-0.268793,-3.09147
572,52.4016,-0.265743,-3.09251
572.5,52.4509,-0.26554,-3.0928
573,52.5008,-0.277093,-3.09421
573.5,52.5512,-0.263674,-3.09548
574,52.6001,-0.257916,-3.09683
574.5,52.6496,-0.263943,-3.09913
575,52.6998,-0.264599,-3.10048
575.5,52.7491,-0.261612,-3.10126
576,52.7988,-0.258209,-3.10047
576.5,52.849,-0.262203,-3.10201
577,52.8981,-0.256491,-3.10403
577.5,52.9485,-0.260912,-3.10466
578,52.9982,-0.26043,-3.10758
578.5,53.0482,-0.263708,-3.10909
579,53.0983,-0.256866,-3.10921
579.5,53.1483,-0.256043,-3.10801
580,53.1979,-0.259498,-3.10672
580.5,53.2472,-0.256807,-3.10641
581,53.2976,-0.257901,-3.10641
581.5,53.3469,-0.256228,-3.10905
582,53.3965,-0.258848,-3.10982
582.5,53.4464,-0.26149,-3.11036
583,53.4962,-0.269707,-3.11035
583.5,53.5462,-0.266223,-3.11168
584,53.596,-0.262417,-3.11168
584.5,53.6466,-0.268846,-3.11168
585,53.6956,-0.265445,-3.11036
585.5,53.745,-0.274849,-3.11135
586,53.795,-0.269505,-3.11252
586.5,53.8454,-0.259212,-3.11435
587,53.8947,-0.255402,-3.11695
587.5,53.9437,-0.262228,-3.11828
588,53.9946,-0.269079,-3.11959
588.5,54.044,-0.267721,-3.1209
589,54.0938,-0.271816,-3.1196
589.5,54.1435,-0.26768,-3.1198
590,54.1936,-0.267937,-3.12085
590.5,54.2431,-0.261961,-3.12231
591,54.2942,-0.263298,-3.11919
591.5,54.3432,-0.260549,-3.11905
592,54.3921,-0.262247,-3.11746
592.5,54.443,-0.265621,-3.11914
593,54.4932,-0.270221,-3.12334
593.5,54.5419,-0.268428,-3.12411
594,54.5929,-0.274833,-3.12477
594.5,54.6426,-0.279471,-3.12741
595,54.6927,-0.283792,-3.12739
595.5,54.7426,-0.277882,-3.12804
596,54.7922,-0.279037,-3.12797
596.5,54.8421,-0.284289,-3.1287
597,54.8922,-0.287389,-3.12913
597.5,54.9412,-0.290706,-3.13001
598,54.9921,-0.295373,-3.13001
598.5,55.0418,-0.293009,-3.12988
599,55.0904,-0.291998,-3.12734
599.5,55.1411,-0.300227,-3.12877
600,55.1902,-0.30295,-3.13015
600.5,55.2392,-0.298443,-3.13161
601,55.289,-0.305921,-3.13339
601.5,55.3415,-0.305914,-3.13396
602,55.3916,-0.307298,-3.13396
602.5,55.4404,-0.301241,-3.13396
603,55.4914,-0.307446,-3.13267
603.5,55.541,-0.301779,-3.13327
604,55.5916,-0.296856,-3.1352
604.5,55.6401,-0.299692,-3.13462
605,55.6903,-0.3028,-3.13461
605.5,55.7403,-0.303234,-3.13459
606,55.7907,-0.305675,-3.13583
606.5,55.8401,-0.301851,-3.1358
607,55.8903,-0.305663,-3.13452
607.5,55.9405,-0.308338,-3.1359
608,55.9905,-0.300149,-3.13715
608.5,56.0407,-0.300768,-3.13715
609,56.0902,-0.310961,-3.13634
609.5,56.1407,-0.304706,-3.13427
610,56.1908,-0.302955,-3.13373
610.5,56.2408,-0.308936,-3.13656
611,56.2906,-0.306457,-3.13904
611.5,56.3402,-0.300427,-3.14083
612,56.3902,-0.305695,-3.14218
612.5,56.4408,-0.308976,-3.14093
613,56.4917,-0.306521,-3.14087
613.5,56.5408,-0.304222,-3.14184
614,56.5921,-0.304231,-3.14187
614.5,56.6417,-0.298175,-3.14187
615,56.692,-0.29502,-3.14187
615.5,56.7425,-0.294276,-3.14164
616,56.7913,-0.296069,-3.14055
616.5,56.8415,-0.28847,-3.14055
617,56.8922,-0.286072,-3.14176
617.5,56.9421,-0.289474,-3.14454
618,56.9919,-0.301676,-3.14443
618.5,57.0428,-0.287813,-3.14295
619,57.093,-0.291238,-3.14631
619.5,57.1424,-0.296274,-3.14798
620,57.193,-0.28906,-3.14923
620.5,57.2424,-0.289755,-3.14891
621,57.2923,-0.292494,-3.1489
621.5,57.3427,-0.283717,-3.1489
622,57.3922,-0.289992,-3.14891
622.5,57.4419,-0.295737,-3.14758
623,57.492,-0.293427,-3.14663
623.5,57.5414,-0.28692,-3.14527
624,57.5929,-0.289479,-3.14534
624.5,57.6427,-0.289562,-3.14527
625,57.6937,-0.285396,-3.14649
625.5,57.742,-0.287517,-3.14791
626,57.7934,-0.286863,-3.14792
626.5,57.8426,-0.277608,-3.14922
627,57.8928,-0.281603,-3.15053
627.5,57.9425,-0.284149,-3.15054
628,57.993,-0.279443,-3.15054
628.5,58.0421,-0.277043,-3.15054
629,58.0922,-0.277051,-3.15054
629.5,58.1433,-0.283493,-3.15076
630,58.1934,-0.284402,-3.15187
630.5,58.242,-0.281255,-3.15318
631,58.2914,-0.282461,-3.15317
631.5,58.3428,-0.282701,-3.15449
632,58.3921,-0.276324,-3.15449
632.5,58.4433,-0.278165,-3.15449
633,58.4932,-0.277222,-3.15446
633.5,58.5421,-0.280068,-3.15181
634,58.5934,-0.278056,-3.15052
634.5,58.6437,-0.276553,-3.14923
635,58.6924,-0.279933,-3.1492
635.5,58.7408,-0.272428,-3.15083
636,58.7936,-0.272663,-3.15405
636.5,58.8431,-0.277279,-3.15693
637,58.8932,-0.280717,-3.15566
637.5,58.9428,-0.284319,-3.15555
638,58.9929,-0.286305,-3.15672
638.5,59.0436,-0.276893,-3.15723
639,59.0939,-0.284494,-3.15735
639.5,59.1436,-0.275468,-3.15535
640,59.1934,-0.279167,-3.15403
640.5,59.2439,-0.280159,-3.15406
641,59.2945,-0.271004,-3.15536
641.5,59.3443,-0.271743,-3.15854
642,59.3947,-0.277649,-3.15987
642.5,59.445,-0.274696,-3.16117
643,59.4943,-0.272419,-3.16119
643.5,59.545,-0.2728,-3.15987
644,59.5951,-0.276958,-3.15987
644.5,59.6435,-0.276358,-3.15857
645,59.6948,-0.278123,-3.1585
645.5,59.7448,-0.272212,-3.15856
646,59.795,-0.283905,-3.15856
646.5,59.8452,-0.285036,-3.16045
647,59.8952,-0.272035,-3.16009
647.5,59.9456,-0.274185,-3.16008
648,59.9953,-0.273015,-3.15831
648.5,60.0454,-0.274374,-3.15735
649,60.093,-0.275777,-3.15754
649.5,60.1453,-0.272463,-3.15867
650,60.1963,-0.266119,-3.15867
650.5,60.2458,-0.269116,-3.15867
651,60.2958,-0.269776,-3.15964
651.5,60.3459,-0.266126,-3.16131
652,60.3954,-0.27118,-3.16131
652.5,60.4464,-0.274836,-3.16262
653,60.4957,-0.277826,-3.16131
653.5,60.5465,-0.270387,-3.16135
654,60.5965,-0.282012,-3.16557
654.5,60.6462,-0.269315,-3.16678
655,60.6972,-0.267323,-3.16679
655.5,60.7474,-0.270015,-3.1666
656,60.7967,-0.279581,-3.16404
656.5,60.847,-0.277026,-3.16129
657,60.8964,-0.26756,-3.15976
657.5,60.9474,-0.265089,-3.15977
658,60.9976,-0.26589,-3.16119
658.5,61.0474,-0.2654,-3.16251
659,61.0971,-0.264225,-3.16384
659.5,61.1479,-0.26144,-3.1653
660,61.1982,-0.263413,-3.16654
660.5,61.2478,-0.267631,-3.16886
661,61.2982,-0.267708,-3.1692
661.5,61.3479,-0.266024,-3.16928
662,61.3972,-0.261349,-3.16735
662.5,61.4465,-0.260976,-3.16657
663,61.4985,-0.260019,-3.16657
663.5,61.5484,-0.254712,-3.16657
664,61.5988,-0.260165,-3.16545
664.5,61.6487,-0.264538,-3.1666
665,61.6997,-0.261176,-3.16904
665.5,61.749,-0.260454,-3.16932
666,61.799,-0.261242,-3.16936
666.5,61.8493,-0.264747,-3.16724
667,61.8994,-0.267065,-3.16701
667.5,61.9506,-0.263529,-3.16701
668,61.9995,-0.263056,-3.16701
668.5,62.0498,-0.257643,-3.16763
669,62.1005,-0.266284,-3.16833
669.5,62.1506,-0.26476,-3.16832
670,62.2009,-0.261692,-3.16966
670.5,62.2512,-0.257887,-3.16877
671,62.3006,-0.25639,-3.16734
671.5,62.3516,-0.260054,-3.17002
672,62.4014,-0.26587,-3.17001
672.5,62.4519,-0.269126,-3.17128
673,62.5015,-0.271741,-3.17262
673.5,62.5521,-0.276011,-3.1726
674,62.6019,-0.278227,-3.17131
674.5,62.6518,-0.276827,-3.17129
675,62.7019,-0.283832,-3.1706
675.5,62.7527,-0.282238,-3.16997
676,62.8027,-0.293481,-3.16997
676.5,62.8524,-0.284421,-3.16997
677,62.9007,-0.283486,-3.16997
677.5,62.9529,-0.283067,-3.17143
678,63.0033,-0.276585,-3.17395
678.5,63.0529,-0.280459,-3.17393
679,63.1035,-0.283101,-3.17393
679.5,63.1541,-0.279849,-3.17275
680,63.2033,-0.277566,-3.17326
680.5,63.2541,-0.279458,-3.17326
681,63.3038,-0.280303,-3.17261
681.5,63.3545,-0.283014,-3.17259
682,63.4042,-0.274149,-3.17392
682.5,63.4539,-0.273108,-3.17389
683,63.5047,-0.280099,-3.17524
683.5,63.5546,-0.275035,-3.17524
684,63.6043,-0.263945,-3.17555
684.5,63.6548,-0.266022,-3.1748
685,63.7049,-0.27528,-3.17349
685.5,63.7555,-0.266255,-3.17481
686,63.8057,-0.267675,-3.17481
686.5,63.8552,-0.264656,-3.17481
687,63.9057,-0.259106,-3.17481
687.5,63.957,-0.267832,-3.17481
688,64.0067,-0.272736,-3.17481
688.5,64.0555,-0.264059,-3.17481
689,64.1059,-0.267178,-3.17481
689.5,64.1562,-0.260543,-3.17481
690,64.2066,-0.262048,-3.17481
690.5,64.2571,-0.26751,-3.17481
691,64.3079,-0.265534,-3.17619
691.5,64.3585,-0.265394,-3.1775
692,64.4079,-0.27372,-3.17768
692.5,64.4586,-0.273414,-3.17734
693,64.5082,-0.284144,-3.17742
693.5,64.5585,-0.280435,-3.17876
694,64.609,-0.282695,-3.17747
694.5,64.6586,-0.287089,-3.17744
695,64.7091,-0.285578,-3.17744
695.5,64.759,-0.273132,-3.17744
696,64.8099,-0.281236,-3.17744
696.5,64.8592,-0.273098,-3.1775
697,64.9104,-0.284364,-3.17812
697.5,64.9607,-0.273069,-3.17876
698,65.0101,-0.274519,-3.17863
698.5,65.0607,-0.276912,-3.17775
699,65.1103,-0.274705,-3.17843
699.5,65.1608,-0.282895,-3.17843
700,65.2105,-0.286807,-3.17843
700.5,65.2614,-0.283166,-3.17843
701,65.3115,-0.29164,-3.17843
701.5,65.3613,-0.289706,-3.17975
702,65.4118,-0.289233,-3.17999
702.5,65.4621,-0.293345,-3.17869
703,65.5124,-0.292732,-3.17876
703.5,65.5626,-0.293648,-3.17876
704,65.6127,-0.293746,-3.17876
704.5,65.6641,-0.29053,-3.17874
705,65.7136,-0.28523,-3.18
705.5,65.7639,-0.294992,-3.18272
706,65.814,-0.289485,-3.18296
706.5,65.8643,-0.296172,-3.18353
707,65.9147,-0.297575,-3.184
707.5,65.9649,-0.294622,-3.18402
708,66.0149,-0.300245,-3.18271
708.5,66.0654,-0.303005,-3.18076
709,66.1161,-0.305252,-3.18007
709.5,66.1666,-0.306802,-3.18005
710,66.2165,-0.300963,-3.17939
710.5,66.2675,-0.303872,-3.18233
711,66.3172,-0.309972,-3.18181
711.5,66.3684,-0.300406,-3.18216
712,66.4189,-0.304029,-3.18216
712.5,66.4689,-0.3019,-3.18221
713,66.5193,-0.305336,-3.1829
713.5,66.5693,-0.298823,-3.18262
714,66.6201,-0.300657,-3.18395
714.5,66.6699,-0.310693,-3.18555
715,66.7211,-0.307577,-3.18557
715.5,66.7708,-0.311978,-3.18689
716,66.8196,-0.312906,-3.18553
716.5,66.8715,-0.31269,-3.18394
717,66.922,-0.315057,-3.18392
717.5,66.9718,-0.317145,-3.18394
718,67.0225,-0.320622,-3.18438
718.5,67.0728,-0.325084,-3.18437
719,67.1243,-0.333133,-3.18568
719.5,67.1731,-0.333686,-3.18568
720,67.2217,-0.321281,-3.18568
720.5,67.2741,-0.32793,-3.18568
721,67.3243,-0.330111,-3.18568
721.5,67.3751,-0.337954,-3.18568
722,67.425,-0.344877,-3.18568
722.5,67.4758,-0.353226,-3.18568
723,67.5258,-0.357807,-3.18568
723.5,67.5757,-0.357635,-3.18568
724,67.6256,-0.362218,-3.18569
724.5,67.6769,-0.371809,-3.18435
725,67.727,-0.369161,-3.18304
725.5,67.7773,-0.371599,-3.18446
726,67.8277,-0.375258,-3.18436
726.5,67.8772,-0.381573,-3.18436
727,67.9283,-0.384184,-3.1853
727.5,67.979,-0.389448,-3.18666
728,68.0268,-0.390269,-3.18666
728.5,68.0795,-0.391357,-3.18571
729,68.1286,-0.394173,-3.18666
729.5,68.179,-0.391289,-3.18762
730,68.2298,-0.399132,-3.18905
730.5,68.2801,-0.396774,-3.18732
731,68.3287,-0.402578,-3.1868
731.5,68.3803,-0.413831,-3.1882
732,68.4312,-0.413374,-3.18824
732.5,68.4824,-0.414406,-3.18688
733,68.5319,-0.432452,-3.18688
733.5,68.5806,-0.425213,-3.18522
734,68.6318,-0.436267,-3.18337
734.5,68.6843,-0.434001,-3.18465
735,68.7339,-0.428988,-3.186
735.5,68.7854,-0.43421,-3.1874
736,68.835,-0.439456,-3.18966
736.5,68.8858,-0.444094,-3.19277
737,68.9371,-0.445792,-3.19271
737.5,68.9867,-0.442922,-3.19402
738,69.038,-0.456058,-3.19542
738.5,69.0882,-0.4541,-3.19753
739,69.1379,-0.453025,-3.19666
739.5,69.1895,-0.45529,-3.19383
740,69.2396,-0.455053,-3.19246