File: 01_Data/Helmet_Flap/STA/N2/10K_min/Helmet_Flap_STA_N2_10KData_250528_R4.csv
Temp./C,Time/min,DSC/(mW/mg),Mass loss/mg
40.0,0.0,1.0568,-0.109585
40.6,0.0826565,1.0872,-0.109658
41.2,0.164849,1.11175,-0.111397
41.8,0.243335,1.14358,-0.111821
42.4,0.322477,1.17212,-0.113861
43,0.399374,1.20901,-0.113207
43.6,0.474296,1.22979,-0.113799
44.2,0.552632,1.25177,-0.11523
44.8,0.626708,1.28166,-0.115226
45.4,0.704874,1.309,-0.115076
46,0.777043,1.33197,-0.116426
46.6,0.850735,1.36172,-0.117838
47.2,0.924129,1.38605,-0.119436
47.8,0.996765,1.41317,-0.120944
48.4,1.06859,1.45255,-0.120905
49,1.13729,1.47811,-0.120884
49.6,1.21134,1.49991,-0.12055
50.2,1.28305,1.53028,-0.12197
50.8,1.35181,1.55567,-0.125042
51.4,1.42181,1.58137,-0.126822
52,1.49398,1.61186,-0.1268
52.6,1.56382,1.64168,-0.128178
53.2,1.63098,1.66549,-0.12968
53.8,1.69831,1.69495,-0.131184
54.4,1.76443,1.71416,-0.132726
55,1.83467,1.74306,-0.13273
55.6,1.90189,1.77153,-0.134066
56.2,1.96905,1.80028,-0.135341
56.8,2.03637,1.82506,-0.135352
57.4,2.10205,1.85087,-0.136381
58,2.16741,1.88,-0.138987
58.6,2.23511,1.90502,-0.139097
59.2,2.29988,1.92731,-0.141697
59.8,2.36591,1.94828,-0.143006
60.4,2.42963,1.96708,-0.144359
61,2.49534,1.9931,-0.145526
61.6,2.56012,2.00678,-0.14733
62.2,2.62333,2.02674,-0.148239
62.8,2.68725,2.0528,-0.14964
63.4,2.75181,2.0594,-0.150966
64,2.81485,2.07851,-0.151942
64.6,2.87778,2.09835,-0.15227
65.2,2.94178,2.11417,-0.152608
65.8,3.00472,2.12659,-0.154515
66.4,3.06685,2.14448,-0.157934
67,3.12894,2.15391,-0.158212
67.6,3.19187,2.17034,-0.16028
68.2,3.25239,2.17949,-0.16028
68.8,3.31683,2.18607,-0.162769
69.4,3.37791,2.19364,-0.16609
70,3.44064,2.20281,-0.167419
70.6,3.49994,2.19849,-0.168749
71.2,3.56213,2.21165,-0.171387
71.8,3.62363,2.22698,-0.17269
72.4,3.68467,2.22612,-0.172687
73,3.74677,2.23567,-0.17401
73.6,3.80739,2.23712,-0.173995
74.2,3.86862,2.24039,-0.17665
74.8,3.92889,2.23677,-0.177984
75.4,3.98933,2.23741,-0.179209
76,4.05061,2.23408,-0.180613
76.6,4.1127,2.23258,-0.183227
77.2,4.1722,2.22813,-0.18323
77.8,4.23175,2.21778,-0.185989
78.4,4.29313,2.21372,-0.1873
79,4.35362,2.21482,-0.189273
79.6,4.41309,2.21049,-0.18927
80.2,4.47422,2.1988,-0.189996
80.8,4.5334,2.19819,-0.189925
81.4,4.59344,2.18969,-0.192562
82,4.65308,2.1801,-0.192565
82.6,4.71294,2.17301,-0.194307
83.2,4.77367,2.16995,-0.195224
83.8,4.83214,2.14625,-0.197831
84.4,4.89135,2.13992,-0.199139
85,4.95024,2.12682,-0.200455
85.6,5.01042,2.11639,-0.20103
86.2,5.06865,2.10222,-0.201648
86.8,5.12862,2.09433,-0.204293
87.4,5.18886,2.08262,-0.20442
88,5.2466,2.06598,-0.20442
88.6,5.30503,2.0515,-0.204285
89.2,5.36328,2.04,-0.208692
89.8,5.42284,2.02269,-0.20776
90.4,5.48101,2.01422,-0.20629
91,5.53952,2.00808,-0.20629
91.6,5.59841,1.985,-0.207044
92.2,5.65557,1.9647,-0.207929
92.8,5.71423,1.95295,-0.208899
93.4,5.77262,1.9372,-0.210248
94,5.83049,1.9169,-0.211053
94.6,5.88821,1.91023,-0.212844
95.2,5.94663,1.88571,-0.215712
95.8,6.00205,1.88373,-0.216666
96.4,6.05965,1.86174,-0.21693
97,6.12008,1.84536,-0.216918
97.6,6.17698,1.82346,-0.215607
98.2,6.23592,1.80803,-0.215615
98.8,6.29399,1.79551,-0.218267
99.4,6.35067,1.78242,-0.21957
100,6.40968,1.76926,-0.218228
100.6,6.46758,1.74975,-0.219571
101.2,6.5241,1.74245,-0.219533
101.8,6.58265,1.72276,-0.220879
102.4,6.64029,1.70697,-0.22088
103,6.69683,1.70462,-0.222249
103.6,6.75471,1.69288,-0.222193
104.2,6.81256,1.67569,-0.223517
104.8,6.86983,1.66186,-0.223527
105.4,6.92635,1.65838,-0.225793
106,6.98387,1.64304,-0.226304
106.6,7.04135,1.62768,-0.226151
107.2,7.1004,1.61094,-0.224833
107.8,7.15689,1.59947,-0.224003
108.4,7.21389,1.59205,-0.22484
109,7.27106,1.58065,-0.22484
109.6,7.32875,1.57013,-0.223842
110.2,7.38526,1.55923,-0.22483
110.8,7.44294,1.54781,-0.226139
111.4,7.5009,1.53646,-0.22615
112,7.55871,1.53065,-0.227578
112.6,7.61634,1.51482,-0.22747
113.2,7.67221,1.51575,-0.22747
113.8,7.72983,1.50313,-0.229007
114.4,7.78725,1.49581,-0.229571
115,7.84451,1.4727,-0.23021
115.6,7.90194,1.47073,-0.23021
116.2,7.95835,1.46556,-0.228897
116.8,8.01492,1.46153,-0.2289
117.4,8.07355,1.45177,-0.228751
118,8.13075,1.45211,-0.22758
118.6,8.1869,1.44286,-0.22758
119.2,8.24538,1.44302,-0.22758
119.8,8.30162,1.43286,-0.22758
120.4,8.35964,1.42762,-0.227167
121,8.41709,1.42652,-0.22758
121.6,8.47322,1.42437,-0.227608
122.2,8.53097,1.42583,-0.228888
122.8,8.58846,1.41703,-0.231636
123.4,8.64548,1.4145,-0.231406
124,8.70329,1.41232,-0.231525
124.6,8.76,1.40149,-0.231528
125.2,8.81669,1.39914,-0.23153
125.8,8.87364,1.39273,-0.23027
126.4,8.93092,1.394,-0.23021
127,8.98838,1.39301,-0.230209
127.6,9.04445,1.38802,-0.228857
128.2,9.10247,1.38947,-0.228894
128.8,9.15875,1.38823,-0.229617
129.4,9.21607,1.39576,-0.230876
130,9.27362,1.39622,-0.230924
130.6,9.33043,1.38927,-0.231069
131.2,9.38682,1.39644,-0.23153
131.8,9.44497,1.39163,-0.231526
132.4,9.49896,1.39325,-0.232862
133,9.55851,1.40317,-0.23354
133.6,9.61502,1.40041,-0.233838
134.2,9.67116,1.40649,-0.232103
134.8,9.72818,1.3985,-0.230762
135.4,9.78543,1.40607,-0.232954
136,9.84269,1.41032,-0.232539
136.6,9.89956,1.41332,-0.23241
137.2,9.95716,1.41297,-0.232407
137.8,10.0126,1.41288,-0.232416
138.4,10.0695,1.41525,-0.231185
139,10.1274,1.42785,-0.23242
139.6,10.1846,1.41631,-0.23242
140.2,10.2405,1.42855,-0.232421
140.8,10.298,1.43174,-0.233832
141.4,10.3565,1.43586,-0.23274
142,10.4118,1.43769,-0.23274
142.6,10.4671,1.44256,-0.23274
143.2,10.5248,1.45057,-0.23274
143.8,10.5823,1.44831,-0.23274
144.4,10.6371,1.45202,-0.233922
145,10.6922,1.45846,-0.234056
145.6,10.7518,1.46064,-0.235374
146.2,10.808,1.46304,-0.236689
146.8,10.8658,1.47024,-0.235087
147.4,10.9211,1.46951,-0.23494
148,10.9781,1.4667,-0.234591
148.6,11.0338,1.48086,-0.234654
149.2,11.0915,1.48145,-0.23362
149.8,11.1487,1.48635,-0.23362
150.4,11.2038,1.47993,-0.23362
151,11.2608,1.49171,-0.23446
151.6,11.317,1.49211,-0.234941
152.2,11.3745,1.49476,-0.236249
152.8,11.4306,1.49787,-0.235919
153.4,11.4881,1.50061,-0.236243
154,11.5419,1.50452,-0.236426
154.6,11.6,1.50675,-0.237574
155.2,11.657,1.51232,-0.237615
155.8,11.7114,1.51805,-0.235951
156.4,11.7713,1.52135,-0.234607
157,11.8272,1.53328,-0.23461
157.6,11.884,1.52809,-0.236003
158.2,11.9396,1.52442,-0.23593
158.8,11.9959,1.53944,-0.236852
159.4,12.0521,1.53805,-0.237564
160,12.1092,1.5471,-0.23757
160.6,12.1634,1.54718,-0.237632
161.2,12.222,1.54691,-0.235226
161.8,12.2787,1.54676,-0.23494
162.4,12.335,1.55736,-0.235162
163,12.3896,1.5651,-0.237615
163.6,12.4483,1.57031,-0.238084
164.2,12.5033,1.56393,-0.23889
164.8,12.5611,1.56819,-0.23889
165.4,12.6176,1.57443,-0.238888
166,12.6741,1.58038,-0.238322
166.6,12.7302,1.5831,-0.238863
167.2,12.7877,1.58262,-0.237998
167.8,12.8444,1.58804,-0.23823
168.4,12.9006,1.59244,-0.23823
169,12.9571,1.60128,-0.239581
169.6,13.0138,1.59799,-0.23955
170.2,13.0702,1.60147,-0.23955
170.8,13.1266,1.59964,-0.239935
171.4,13.1827,1.60508,-0.24086
172,13.2398,1.60947,-0.239496
172.6,13.2959,1.6068,-0.239211
173.2,13.3515,1.62015,-0.23921
173.8,13.4065,1.62545,-0.23921
174.4,13.4666,1.62954,-0.239387
175,13.5223,1.63558,-0.240528
175.6,13.5774,1.63512,-0.241852
176.2,13.6347,1.63882,-0.241851
176.8,13.6911,1.64156,-0.243167
177.4,13.7451,1.64927,-0.24317
178,13.804,1.65332,-0.243511
178.6,13.8608,1.65276,-0.24218
179.2,13.917,1.65003,-0.242174
179.8,13.9726,1.65406,-0.243498
180.4,14.0294,1.65589,-0.24349
181,14.0863,1.66111,-0.242186
181.6,14.1391,1.65604,-0.242324
182.2,14.199,1.64854,-0.2435
182.8,14.2553,1.66276,-0.243502
183.4,14.3115,1.65863,-0.24317
184,14.3687,1.67017,-0.24317
184.6,14.4246,1.67316,-0.24317
185.2,14.4816,1.67319,-0.243168
185.8,14.5382,1.67142,-0.244489
186.4,14.5946,1.67315,-0.24449
187,14.6495,1.68081,-0.24449
187.6,14.7053,1.67657,-0.244483
188.2,14.7632,1.67914,-0.245808
188.8,14.8189,1.6868,-0.24581
189.4,14.8752,1.687,-0.245811
190,14.9322,1.68742,-0.245152
190.6,14.9872,1.68421,-0.24515
191.2,15.0455,1.68624,-0.24515
191.8,15.1016,1.69197,-0.24515
192.4,15.1586,1.68635,-0.245119
193,15.2145,1.69035,-0.247829
193.6,15.2704,1.69694,-0.24778
194.2,15.3259,1.68767,-0.246837
194.8,15.3834,1.69328,-0.251428
195.4,15.4384,1.69528,-0.248801
196,15.4963,1.69783,-0.248111
196.6,15.5528,1.69746,-0.249456
197.2,15.6089,1.70396,-0.24942
197.8,15.6653,1.70606,-0.248699
198.4,15.7217,1.70956,-0.248416
199,15.7785,1.7151,-0.24745
199.6,15.8338,1.71304,-0.24745
200.2,15.8904,1.71488,-0.24745
200.8,15.9473,1.71471,-0.247674
201.4,16.0023,1.71698,-0.248318
202,16.059,1.72441,-0.24943
202.6,16.1149,1.72557,-0.250385
203.2,16.1724,1.71982,-0.25075
203.8,16.228,1.72695,-0.25075
204.4,16.2849,1.72056,-0.25075
205,16.3414,1.72492,-0.25075
205.6,16.3978,1.7239,-0.253117
206.2,16.4532,1.72217,-0.257846
206.8,16.5102,1.72909,-0.251006
207.4,16.566,1.72986,-0.249644
208,16.6223,1.72732,-0.250468
208.6,16.6783,1.7269,-0.250991
209.2,16.735,1.72546,-0.253608
209.8,16.7916,1.72939,-0.253569
210.4,16.8475,1.73409,-0.25491
211,16.9032,1.73245,-0.255046
211.6,16.9599,1.72607,-0.255899
212.2,17.0159,1.72704,-0.255912
212.8,17.0732,1.73421,-0.257222
213.4,17.1289,1.72483,-0.25722
214,17.1851,1.7284,-0.25722
214.6,17.2415,1.73221,-0.258216
215.2,17.2982,1.72594,-0.25887
215.8,17.3555,1.72615,-0.261188
216.4,17.4096,1.73347,-0.26117
217,17.4662,1.73093,-0.261185
217.6,17.5228,1.72347,-0.262492
218.2,17.5801,1.7225,-0.26249
218.8,17.6366,1.71925,-0.262842
219.4,17.6929,1.71811,-0.262819
220,17.7487,1.72114,-0.265212
220.6,17.8053,1.71988,-0.26546
221.2,17.8624,1.71716,-0.26546
221.8,17.9178,1.72332,-0.265457
222.4,17.9736,1.71184,-0.266735
223,18.0306,1.71721,-0.26809
223.6,18.0872,1.70864,-0.269995
224.2,18.1439,1.71198,-0.27072
224.8,18.1997,1.70824,-0.270721
225.4,18.2559,1.70499,-0.272054
226,18.3132,1.70281,-0.272044
226.6,18.3695,1.70386,-0.273359
227.2,18.4265,1.70646,-0.274647
227.8,18.4824,1.70174,-0.276028
228.4,18.5383,1.69414,-0.275924
229,18.5957,1.6922,-0.279394
229.6,18.6515,1.70036,-0.27995
230.2,18.7061,1.69113,-0.280599
230.8,18.7646,1.68859,-0.280664
231.4,18.8202,1.69179,-0.279868
232,18.8773,1.68754,-0.281273
232.6,18.9334,1.68656,-0.282588
233.2,18.9899,1.6811,-0.283895
233.8,19.0438,1.68231,-0.284088
234.4,19.1026,1.67356,-0.287555
235,19.1587,1.67301,-0.28785
235.6,19.2155,1.67479,-0.289168
236.2,19.2729,1.67163,-0.290508
236.8,19.3281,1.67043,-0.293119
237.4,19.3853,1.66798,-0.294601
238,19.4412,1.66064,-0.29455
238.6,19.4979,1.66624,-0.295365
239.2,19.5548,1.66948,-0.297207
239.8,19.6117,1.66043,-0.297188
240.4,19.6682,1.66539,-0.299229
241,19.7243,1.65751,-0.301606
241.6,19.7808,1.66728,-0.30509
242.2,19.8382,1.66858,-0.307107
242.8,19.894,1.66278,-0.308353
243.4,19.9515,1.66434,-0.309048
244,20.0079,1.6604,-0.31086
244.6,20.0638,1.66923,-0.312334
245.2,20.1212,1.67272,-0.313733
245.8,20.178,1.67968,-0.31497
246.4,20.2353,1.67426,-0.316191
247,20.2905,1.68065,-0.318698
247.6,20.3487,1.68265,-0.321721
248.2,20.4041,1.68737,-0.323566
248.8,20.4611,1.69649,-0.323506
249.4,20.5179,1.70746,-0.324767
250,20.5749,1.71519,-0.327394
250.6,20.6317,1.73721,-0.328926
251.2,20.689,1.77818,-0.329028
251.8,20.7465,1.84156,-0.329357
252.4,20.8042,1.90979,-0.331658
253,20.8611,1.98133,-0.332871
253.6,20.9185,2.05081,-0.33568
254.2,20.9757,2.12306,-0.338556
254.8,21.0331,2.17226,-0.339887
255.4,21.0898,2.16271,-0.341235
256,21.1462,2.11054,-0.342761
256.6,21.2021,2.04724,-0.345295
257.2,21.2593,1.9909,-0.345538
257.8,21.3145,1.9535,-0.347136
258.4,21.3717,1.93483,-0.349686
259,21.4279,1.92234,-0.352082
259.6,21.4848,1.91485,-0.353906
260.2,21.5414,1.91059,-0.351973
260.8,21.5978,1.88808,-0.352051
261.4,21.654,1.8513,-0.35835
262,21.711,1.82571,-0.362024
262.6,21.7672,1.77151,-0.365134
263.2,21.8225,1.75782,-0.365148
263.8,21.8799,1.72034,-0.36646
264.4,21.9361,1.69192,-0.364732
265,21.9924,1.6776,-0.369299
265.6,22.0497,1.64939,-0.373336
266.2,22.1051,1.63898,-0.375171
266.8,22.1627,1.62379,-0.37797
267.4,22.219,1.60396,-0.379301
268,22.2747,1.59663,-0.380726
268.6,22.332,1.58467,-0.382043
269.2,22.3882,1.57598,-0.384499
269.8,22.4456,1.57225,-0.386125
270.4,22.5024,1.5555,-0.387535
271,22.5591,1.54768,-0.388839
271.6,22.6156,1.53589,-0.389569
272.2,22.6726,1.52527,-0.392141
272.8,22.729,1.51235,-0.394118
273.4,22.786,1.50201,-0.396225
274,22.8416,1.49293,-0.398638
274.6,22.899,1.47579,-0.402001
275.2,22.9548,1.45317,-0.406533
275.8,23.012,1.44566,-0.408334
276.4,23.0681,1.4264,-0.410096
277,23.1254,1.41662,-0.411847
277.6,23.1812,1.3982,-0.413636
278.2,23.238,1.37525,-0.415924
278.8,23.2948,1.35988,-0.418758
279.4,23.3514,1.3444,-0.420354
280,23.4076,1.33018,-0.422016
280.6,23.4643,1.30989,-0.424745
281.2,23.5212,1.29747,-0.427726
281.8,23.578,1.27529,-0.430541
282.4,23.6349,1.25864,-0.431881
283,23.6917,1.23782,-0.435183
283.6,23.7467,1.22513,-0.438983
284.2,23.8043,1.20428,-0.441729
284.8,23.8613,1.1852,-0.444179
285.4,23.9168,1.16565,-0.447067
286,23.9738,1.15019,-0.44897
286.6,24.0304,1.12561,-0.451754
287.2,24.0863,1.10326,-0.455054
287.8,24.1431,1.07508,-0.457968
288.4,24.2007,1.04694,-0.460956
289,24.2579,1.01014,-0.464353
289.6,24.3133,0.980763,-0.467445
290.2,24.37,0.942325,-0.47057
290.8,24.4263,0.894136,-0.473239
291.4,24.4826,0.850481,-0.474905
292,24.5387,0.795869,-0.479988
292.6,24.5945,0.732743,-0.483743
293.2,24.6513,0.674597,-0.486731
293.8,24.7067,0.603622,-0.489907
294.4,24.7632,0.515893,-0.49411
295,24.8188,0.439437,-0.499949
295.6,24.8753,0.345658,-0.504319
296.2,24.9315,0.254317,-0.508912
296.8,24.9868,0.151855,-0.517046
297.4,25.0428,0.0454772,-0.520721
298,25.0984,-0.0622603,-0.52766
298.6,25.1533,-0.171666,-0.534124
299.2,25.2089,-0.295798,-0.543501
299.8,25.2639,-0.419389,-0.550775
300.4,25.3204,-0.549739,-0.560577
301,25.375,-0.68312,-0.571589
301.6,25.4296,-0.810842,-0.580275
302.2,25.4858,-0.931148,-0.59301
302.8,25.5408,-1.02885,-0.608265
303.4,25.5976,-1.11068,-0.627559
304,25.6537,-1.16281,-0.64554
304.6,25.7096,-1.16896,-0.668091
305.2,25.7671,-1.1409,-0.689383
305.8,25.8253,-1.05853,-0.714544
306.4,25.8837,-0.95874,-0.739562
307,25.9409,-0.82782,-0.766387
307.6,25.9995,-0.692008,-0.792123
308.2,26.0577,-0.547302,-0.817909
308.8,26.1154,-0.406732,-0.84557
309.4,26.1728,-0.263283,-0.87055
310,26.2338,-0.13773,-0.896983
310.6,26.2922,-0.0161228,-0.919087
311.2,26.3495,0.0809105,-0.941874
311.8,26.4082,0.170316,-0.966068
312.4,26.467,0.248715,-0.989488
313,26.525,0.313131,-1.01198
313.6,26.5816,0.366162,-1.03334
314.2,26.6407,0.408124,-1.05579
314.8,26.6978,0.452443,-1.07423
315.4,26.7553,0.481286,-1.09575
316,26.8129,0.51494,-1.11434
316.6,26.8709,0.53684,-1.1342
317.2,26.9272,0.561449,-1.1526
317.8,26.9852,0.578938,-1.17291
318.4,27.042,0.599739,-1.18986
319,27.1013,0.616398,-1.2094
319.6,27.158,0.643535,-1.22715
320.2,27.2135,0.67025,-1.24314
320.8,27.2737,0.69969,-1.26242
321.4,27.3316,0.730284,-1.27439
322,27.3888,0.774716,-1.28872
322.6,27.4464,0.812854,-1.30162
323.2,27.5036,0.859245,-1.31516
323.8,27.5617,0.913876,-1.32699
324.4,27.6199,0.956627,-1.34014
325,27.6775,1.00559,-1.34999
325.6,27.736,1.06686,-1.35845
326.2,27.7956,1.10855,-1.36708
326.8,27.8516,1.15449,-1.37295
327.4,27.9101,1.20354,-1.37884
328,27.968,1.23973,-1.38644
328.6,28.0255,1.27422,-1.39042
329.2,28.0845,1.30916,-1.39671
329.8,28.1416,1.32748,-1.40084
330.4,28.201,1.35643,-1.4044
331,28.2577,1.36955,-1.40813
331.6,28.316,1.38234,-1.41179
332.2,28.372,1.39722,-1.41438
332.8,28.4308,1.40681,-1.41669
333.4,28.4876,1.40857,-1.419
334,28.5461,1.41783,-1.42269
334.6,28.6032,1.41541,-1.42537
335.2,28.6615,1.41606,-1.42751
335.8,28.7166,1.41061,-1.42933
336.4,28.7768,1.41014,-1.43197
337,28.8347,1.40964,-1.43316
337.6,28.8907,1.39753,-1.43451
338.2,28.9494,1.39051,-1.43643
338.8,29.0061,1.38668,-1.43808
339.4,29.0644,1.37885,-1.44096
340,29.1217,1.37623,-1.44244
340.6,29.1786,1.3711,-1.44375
341.2,29.2346,1.36599,-1.4452
341.8,29.2932,1.35968,-1.44775
342.4,29.3515,1.3565,-1.45023
343,29.4064,1.35582,-1.45095
343.6,29.4667,1.35018,-1.45249
344.2,29.524,1.34729,-1.45492
344.8,29.5819,1.34058,-1.45517
345.4,29.6379,1.3427,-1.45687
346,29.6969,1.34001,-1.45943
346.6,29.7537,1.34007,-1.46131
347.2,29.8119,1.33283,-1.46463
347.8,29.8685,1.32979,-1.46701
348.4,29.9268,1.32246,-1.46854
349,29.9844,1.31958,-1.46996
349.6,30.0414,1.32312,-1.47273
350.2,30.0993,1.31924,-1.47449
350.8,30.1569,1.32286,-1.47673
351.4,30.2145,1.31716,-1.47764
352,30.2726,1.31071,-1.47809
352.6,30.33,1.30662,-1.47937
353.2,30.3874,1.31223,-1.47943
353.8,30.4445,1.30989,-1.4822
354.4,30.5025,1.306,-1.48495
355,30.5602,1.30664,-1.48645
355.6,30.6182,1.30948,-1.48939
356.2,30.6757,1.3076,-1.49093
356.8,30.733,1.30151,-1.49365
357.4,30.7909,1.308,-1.49492
358,30.8493,1.31494,-1.49625
358.6,30.9067,1.31566,-1.49815
359.2,30.9623,1.31617,-1.50042
359.8,31.022,1.31753,-1.50265
360.4,31.0803,1.32349,-1.50478
361,31.138,1.32647,-1.50616
361.6,31.1958,1.3274,-1.50803
362.2,31.2541,1.32914,-1.51058
362.8,31.3114,1.33764,-1.51347
363.4,31.3702,1.34151,-1.51679
364,31.4266,1.34945,-1.51789
364.6,31.485,1.35082,-1.52038
365.2,31.5426,1.35937,-1.52142
365.8,31.6014,1.36762,-1.52429
366.4,31.6576,1.3784,-1.52661
367,31.7166,1.37523,-1.5278
367.6,31.774,1.38969,-1.52975
368.2,31.8321,1.39376,-1.53278
368.8,31.8901,1.39863,-1.53722
369.4,31.9482,1.40659,-1.5402
370,32.0063,1.42181,-1.54312
370.6,32.0637,1.42395,-1.54746
371.2,32.1219,1.42883,-1.54906
371.8,32.1797,1.44037,-1.55195
372.4,32.238,1.44758,-1.55338
373,32.2963,1.45724,-1.55574
373.6,32.3547,1.47021,-1.55776
374.2,32.4125,1.48069,-1.5584
374.8,32.4707,1.48518,-1.56133
375.4,32.5291,1.49758,-1.5658
376,32.5865,1.50428,-1.56882
376.6,32.6447,1.50576,-1.57191
377.2,32.7033,1.51387,-1.57493
377.8,32.7603,1.51749,-1.57807
378.4,32.8186,1.52093,-1.57935
379,32.8772,1.52686,-1.58274
379.6,32.9346,1.53348,-1.58487
380.2,32.9925,1.52859,-1.58777
380.8,33.0512,1.54248,-1.59108
381.4,33.1093,1.53869,-1.59414
382,33.1678,1.53862,-1.59722
382.6,33.2255,1.54406,-1.59864
383.2,33.2843,1.54468,-1.60207
383.8,33.3415,1.54608,-1.6048
384.4,33.4004,1.55056,-1.60787
385,33.4582,1.55028,-1.61079
385.6,33.514,1.5439,-1.61304
386.2,33.5744,1.5503,-1.61467
386.8,33.632,1.54304,-1.61874
387.4,33.6897,1.54277,-1.62241
388,33.7481,1.5488,-1.62352
388.6,33.8061,1.54234,-1.62495
389.2,33.8636,1.5377,-1.62627
389.8,33.9215,1.5397,-1.62808
390.4,33.9802,1.54123,-1.63091
391,34.0386,1.5422,-1.63239
391.6,34.0967,1.53659,-1.63539
392.2,34.1544,1.54886,-1.63886
392.8,34.2124,1.53742,-1.6408
393.4,34.271,1.53669,-1.64285
394,34.3268,1.54173,-1.64657
394.6,34.3865,1.53524,-1.64846
395.2,34.4437,1.53198,-1.6499
395.8,34.5046,1.53528,-1.65359
396.4,34.5615,1.54114,-1.65598
397,34.6201,1.55033,-1.66273
397.6,34.6785,1.54348,-1.65778
398.2,34.7378,1.54714,-1.65868
398.8,34.7955,1.54814,-1.66125
399.4,34.8536,1.54922,-1.66351
400,34.9122,1.55087,-1.66828
400.6,34.9705,1.56592,-1.66986
401.2,35.0285,1.56004,-1.67294
401.8,35.0864,1.55964,-1.67456
402.4,35.1451,1.56695,-1.67499
403,35.2041,1.56464,-1.67776
403.6,35.2621,1.56856,-1.68056
404.2,35.3201,1.56851,-1.68449
404.8,35.3783,1.56478,-1.68656
405.4,35.4366,1.56796,-1.68908
406,35.495,1.57831,-1.6904
406.6,35.5532,1.57188,-1.69127
407.2,35.6115,1.58303,-1.69351
407.8,35.6702,1.57647,-1.69669
408.4,35.7293,1.58137,-1.6982
409,35.7874,1.58244,-1.70154
409.6,35.8454,1.58226,-1.70554
410.2,35.9035,1.5855,-1.7067
410.8,35.9622,1.59002,-1.70938
411.4,36.0211,1.5885,-1.71269
412,36.0786,1.57811,-1.71576
412.6,36.137,1.58504,-1.71773
413.2,36.193,1.58361,-1.71946
413.8,36.2538,1.58166,-1.72232
414.4,36.312,1.58374,-1.72505
415,36.3706,1.57486,-1.72893
415.6,36.429,1.57868,-1.73198
416.2,36.4876,1.58608,-1.73299
416.8,36.5459,1.57796,-1.73311
417.4,36.6042,1.57485,-1.73609
418,36.6631,1.57365,-1.73992
418.6,36.721,1.56976,-1.74292
419.2,36.7789,1.56806,-1.74495
419.8,36.8377,1.565,-1.74624
420.4,36.8973,1.55831,-1.7477
421,36.9549,1.55675,-1.74957
421.6,37.0132,1.55305,-1.75226
422.2,37.0713,1.54833,-1.75521
422.8,37.1287,1.54864,-1.75863
423.4,37.188,1.54617,-1.76208
424,37.2464,1.54697,-1.76447
424.6,37.3048,1.54255,-1.76869
425.2,37.3638,1.53919,-1.77174
425.8,37.4222,1.53283,-1.77495
426.4,37.4807,1.52959,-1.77757
427,37.5389,1.53144,-1.78089
427.6,37.5968,1.52692,-1.78284
428.2,37.6561,1.51683,-1.78626
428.8,37.7143,1.51904,-1.78837
429.4,37.7734,1.51347,-1.79026
430,37.8324,1.51008,-1.79155
430.6,37.8901,1.51686,-1.7946
431.2,37.9485,1.5163,-1.79642
431.8,38.0071,1.51047,-1.79915
432.4,38.0654,1.50934,-1.80393
433,38.1248,1.50689,-1.80518
433.6,38.1834,1.49615,-1.80901
434.2,38.2411,1.49634,-1.81124
434.8,38.3001,1.49649,-1.81444
435.4,38.359,1.49935,-1.81831
436,38.4175,1.49546,-1.81934
436.6,38.4764,1.49124,-1.82147
437.2,38.5354,1.4915,-1.82203
437.8,38.5937,1.4925,-1.82503
438.4,38.6521,1.4961,-1.82792
439,38.7107,1.49503,-1.8293
439.6,38.7677,1.48594,-1.83067
440.2,38.828,1.49611,-1.83419
440.8,38.8873,1.49365,-1.83775
441.4,38.9456,1.49913,-1.83972
442,39.0022,1.49786,-1.84283
442.6,39.0633,1.49039,-1.84281
443.2,39.1212,1.49068,-1.84433
443.8,39.1806,1.49303,-1.84744
444.4,39.239,1.48934,-1.84965
445,39.2971,1.49986,-1.85289
445.6,39.3567,1.50086,-1.85625
446.2,39.4157,1.49572,-1.85827
446.8,39.4742,1.49595,-1.86112
447.4,39.5331,1.48772,-1.86257
448,39.5911,1.4926,-1.86256
448.6,39.6489,1.48432,-1.86569
449.2,39.7091,1.48687,-1.86771
449.8,39.7683,1.48387,-1.87063
450.4,39.8261,1.4871,-1.87279
451,39.885,1.48405,-1.87439
451.6,39.9447,1.48453,-1.87687
452.2,40.0023,1.48553,-1.88029
452.8,40.0616,1.48059,-1.88245
453.4,40.1198,1.47391,-1.88384
454,40.1793,1.4803,-1.88387
454.6,40.2376,1.4822,-1.88552
455.2,40.2962,1.48555,-1.88806
455.8,40.3552,1.48754,-1.89106
456.4,40.4144,1.48335,-1.89376
457,40.4721,1.48786,-1.89623
457.6,40.5321,1.48693,-1.89816
458.2,40.591,1.49687,-1.90087
458.8,40.6492,1.48763,-1.9023
459.4,40.709,1.49212,-1.90468
460,40.7668,1.49357,-1.90555
460.6,40.824,1.48607,-1.90712
461.2,40.8845,1.4908,-1.91001
461.8,40.9429,1.49592,-1.91089
462.4,41.0022,1.49588,-1.91212
463,41.0603,1.4967,-1.91388
463.6,41.119,1.4998,-1.91759
464.2,41.1793,1.50725,-1.91903
464.8,41.238,1.50775,-1.92184
465.4,41.2969,1.50247,-1.92429
466,41.3557,1.50505,-1.92716
466.6,41.4135,1.50669,-1.92897
467.2,41.473,1.50408,-1.93055
467.8,41.5325,1.50804,-1.93243
468.4,41.5903,1.50968,-1.93436
469,41.6498,1.51067,-1.93667
469.6,41.7081,1.51524,-1.93814
470.2,41.7676,1.51944,-1.93949
470.8,41.8264,1.51343,-1.94223
471.4,41.8857,1.51696,-1.94357
472,41.944,1.52184,-1.9453
472.6,42.0035,1.51303,-1.94675
473.2,42.0619,1.51336,-1.94809
473.8,42.1216,1.51972,-1.94952
474.4,42.1797,1.52444,-1.95085
475,42.2392,1.52197,-1.95388
475.6,42.2979,1.52575,-1.95593
476.2,42.3579,1.52012,-1.96509
476.8,42.4164,1.51826,-1.96168
477.4,42.4753,1.52426,-1.96009
478,42.5342,1.51872,-1.96161
478.6,42.5936,1.52708,-1.96396
479.2,42.6522,1.52976,-1.96566
479.8,42.7123,1.53667,-1.96696
480.4,42.7706,1.53193,-1.96828
481,42.8303,1.53826,-1.9708
481.6,42.8892,1.53648,-1.97359
482.2,42.9486,1.53969,-1.97371
482.8,43.0079,1.53865,-1.97632
483.4,43.0672,1.54458,-1.97652
484,43.1257,1.5451,-1.97834
484.6,43.1856,1.55436,-1.98227
485.2,43.2441,1.5504,-1.98329
485.8,43.3038,1.56025,-1.98401
486.4,43.3627,1.56142,-1.98542
487,43.4222,1.55958,-1.98596
487.6,43.4807,1.56111,-1.98828
488.2,43.5413,1.56336,-1.99103
488.8,43.5979,1.56818,-1.99304
489.4,43.659,1.56436,-1.99516
490,43.7179,1.5723,-1.99714
490.6,43.7775,1.56703,-1.99792
491.2,43.8365,1.5669,-2.00156
491.8,43.8956,1.57592,-2.00311
492.4,43.9549,1.56535,-2.00393
493,44.0148,1.5681,-2.00461
493.6,44.0734,1.57458,-2.00528
494.2,44.1322,1.57342,-2.00661
494.8,44.1917,1.57211,-2.00793
495.4,44.2506,1.57096,-2.0092
496,44.3103,1.57733,-2.01063
496.6,44.3689,1.57527,-2.01175
497.2,44.4293,1.56846,-2.014
497.8,44.4875,1.57115,-2.01527
498.4,44.5467,1.56771,-2.01809
499,44.6061,1.56657,-2.01931
499.6,44.6657,1.56332,-2.02142
500.2,44.7246,1.56839,-2.02262
500.8,44.7817,1.56342,-2.02187
501.4,44.8428,1.56651,-2.02319
502,44.9012,1.57244,-2.03057
502.6,44.9606,1.57351,-2.02604
503.2,45.0198,1.56572,-2.02568
503.8,45.0761,1.57266,-2.0284
504.4,45.1378,1.56484,-2.03247
505,45.1976,1.56223,-2.03365
505.6,45.255,1.5729,-2.03645
506.2,45.3161,1.56344,-2.03779
506.8,45.3753,1.56008,-2.03911
507.4,45.4341,1.55793,-2.04051
508,45.4948,1.56155,-2.0419
508.6,45.5533,1.55543,-2.0444
509.2,45.613,1.56327,-2.04547
509.8,45.6728,1.56361,-2.04592
510.4,45.7318,1.55799,-2.04591
511,45.791,1.56015,-2.0459
511.6,45.8507,1.56529,-2.04879
512.2,45.909,1.55918,-2.04895
512.8,45.969,1.55616,-2.05006
513.4,46.0278,1.55114,-2.05265
514,46.0866,1.55089,-2.0556
514.6,46.1467,1.55053,-2.05666
515.2,46.2057,1.5529,-2.05801
515.8,46.2654,1.55646,-2.05937
516.4,46.3242,1.55324,-2.06076
517,46.3838,1.55628,-2.06144
517.6,46.4437,1.55577,-2.06265
518.2,46.5017,1.55019,-2.06372
518.8,46.562,1.55171,-2.0661
519.4,46.6208,1.55258,-2.06739
520,46.6806,1.54601,-2.07028
520.6,46.7393,1.54542,-2.07293
521.2,46.7991,1.54675,-2.07592
521.8,46.8577,1.54403,-2.08221
522.4,46.9171,1.54733,-2.07567
523,46.976,1.54962,-2.07571
523.6,47.0369,1.54557,-2.07817
524.2,47.0953,1.54117,-2.07907
524.8,47.1546,1.53863,-2.08173
525.4,47.2144,1.53464,-2.08458
526,47.2729,1.53165,-2.08643
526.6,47.3306,1.53151,-2.08643
527.2,47.3909,1.53315,-2.08619
527.8,47.4503,1.52393,-2.08785
528.4,47.5114,1.52488,-2.08774
529,47.5699,1.52313,-2.09032
529.6,47.6285,1.52059,-2.09279
530.2,47.6883,1.51926,-2.09409
530.8,47.7483,1.51746,-2.09428
531.4,47.8076,1.51687,-2.09563
532,47.867,1.50799,-2.09689
532.6,47.9263,1.51347,-2.09938
533.2,47.9857,1.51342,-2.10101
533.8,48.0449,1.50706,-2.10264
534.4,48.1037,1.49938,-2.10395
535,48.1641,1.50224,-2.10527
535.6,48.2228,1.49898,-2.10783
536.2,48.2826,1.50016,-2.1097
536.8,48.3422,1.4969,-2.11115
537.4,48.4016,1.49164,-2.11111
538,48.4602,1.48136,-2.11108
538.6,48.5198,1.48281,-2.1137
539.2,48.5801,1.48159,-2.11373
539.8,48.6398,1.48497,-2.11642
540.4,48.6991,1.47025,-2.11794
541,48.7589,1.47043,-2.11789
541.6,48.8181,1.46977,-2.11914
542.2,48.8777,1.47027,-2.12155
542.8,48.9377,1.46631,-2.12153
543.4,48.997,1.46241,-2.1224
544,49.0562,1.45252,-2.12319
544.6,49.116,1.45579,-2.12455
545.2,49.1751,1.44969,-2.12716
545.8,49.2347,1.44693,-2.12842
546.4,49.2943,1.43988,-2.13094
547,49.3546,1.43438,-2.13244
547.6,49.414,1.42995,-2.13304
548.2,49.4728,1.43187,-2.13109
548.8,49.5323,1.42364,-2.13231
549.4,49.5924,1.41958,-2.13362
550,49.6502,1.41758,-2.13494
550.6,49.7112,1.41651,-2.13626
551.2,49.7715,1.40961,-2.13758
551.8,49.8306,1.40918,-2.13895
552.4,49.8897,1.40536,-2.14137
553,49.9498,1.40104,-2.14296
553.6,50.0074,1.39789,-2.14292
554.2,50.0687,1.39081,-2.14414
554.8,50.1285,1.38321,-2.14565
555.4,50.1877,1.38318,-2.14833
556,50.2475,1.37998,-2.1497
556.6,50.3077,1.37219,-2.15108
557.2,50.3649,1.3711,-2.15116
557.8,50.4263,1.37458,-2.15081
558.4,50.4857,1.371,-2.15113
559,50.546,1.36527,-2.15279
559.6,50.6057,1.36502,-2.15504
560.2,50.6649,1.3597,-2.15636
560.8,50.7241,1.36584,-2.15649
561.4,50.784,1.3621,-2.15768
562,50.8438,1.35954,-2.15778
562.6,50.9031,1.3514,-2.15813
563.2,50.9631,1.34727,-2.15815
563.8,51.0223,1.34268,-2.16187
564.4,51.082,1.34502,-2.1618
565,51.1415,1.34457,-2.1624
565.6,51.2016,1.34318,-2.1635
566.2,51.2609,1.34647,-2.16349
566.8,51.32,1.33978,-2.16608
567.4,51.3796,1.33184,-2.16613
568,51.4397,1.32349,-2.16744
568.6,51.4994,1.3269,-2.1688
569.2,51.5582,1.32581,-2.16876
569.8,51.6193,1.31838,-2.16869
570.4,51.6772,1.31444,-2.16882
571,51.7374,1.31153,-2.17143
571.6,51.798,1.31192,-2.17267
572.2,51.8567,1.30085,-2.17277
572.8,51.9167,1.30536,-2.17403
573.4,51.976,1.30309,-2.1727
574,52.0363,1.30766,-2.17403
574.6,52.0961,1.30032,-2.17395
575.2,52.1544,1.30102,-2.17524
575.8,52.2151,1.31098,-2.17798
576.4,52.2759,1.30898,-2.17875
577,52.3337,1.30686,-2.17944
577.6,52.3942,1.30895,-2.17936
578.2,52.4544,1.30632,-2.17998
578.8,52.5143,1.30399,-2.18125
579.4,52.5737,1.30081,-2.18125
580,52.6315,1.30092,-2.18259
580.6,52.6927,1.29408,-2.1839
581.2,52.7534,1.29122,-2.18504
581.8,52.8123,1.29274,-2.18474
582.4,52.8728,1.29313,-2.18467
583,52.9321,1.29595,-2.18539
583.6,52.9909,1.28987,-2.18597
584.2,53.0522,1.28183,-2.18996
584.8,53.112,1.28557,-2.19144
585.4,53.1717,1.28858,-2.1881
586,53.2316,1.28695,-2.189
586.6,53.2921,1.29044,-2.19027
587.2,53.3513,1.28282,-2.19028
587.8,53.4115,1.28292,-2.19329
588.4,53.4718,1.28216,-2.19858
589,53.5317,1.27902,-2.19361
589.6,53.5914,1.28185,-2.19197
590.2,53.6513,1.27528,-2.19467
590.8,53.7115,1.27188,-2.19546
591.4,53.7716,1.2783,-2.1973
592,53.8301,1.27782,-2.19979
592.6,53.8915,1.27109,-2.19995
593.2,53.9521,1.27711,-2.19872
593.8,54.0108,1.27713,-2.19862
594.4,54.0718,1.27942,-2.19994
595,54.1317,1.27855,-2.19994
595.6,54.1917,1.27713,-2.20113
596.2,54.2526,1.2725,-2.20109
596.8,54.3124,1.26833,-2.20126
597.4,54.3716,1.27687,-2.20158
598,54.4303,1.27883,-2.20125
598.6,54.4914,1.27646,-2.20257
599.2,54.552,1.27257,-2.20389
599.8,54.6117,1.26864,-2.20411
600.4,54.6708,1.26757,-2.20663
601,54.7285,1.27092,-2.20795
601.6,54.7908,1.2634,-2.21059
602.2,54.851,1.26249,-2.21059
602.8,54.9105,1.26657,-2.21191
603.4,54.9703,1.25654,-2.21191
604,55.0302,1.26241,-2.21322
604.6,55.0903,1.26546,-2.21188
605.2,55.1504,1.26158,-2.21181
605.8,55.2103,1.26651,-2.21179
606.4,55.269,1.26472,-2.21181
607,55.3306,1.26672,-2.21309
607.6,55.3878,1.26715,-2.21442
608.2,55.4503,1.27129,-2.21442
608.8,55.511,1.27011,-2.21574
609.4,55.5706,1.26025,-2.21706
610,55.6298,1.25871,-2.21838
610.6,55.6892,1.25458,-2.21754
611.2,55.7506,1.25712,-2.21765
611.8,55.8114,1.26306,-2.21838
612.4,55.8686,1.26156,-2.21969
613,55.9304,1.25837,-2.21973
613.6,55.9908,1.26535,-2.22102
614.2,56.0505,1.26708,-2.22102
614.8,56.1106,1.26382,-2.22236
615.4,56.1698,1.26345,-2.22446
616,56.2317,1.25811,-2.22496
616.6,56.2912,1.25584,-2.2256
617.2,56.3521,1.25049,-2.22666
617.8,56.4119,1.25888,-2.2276
618.4,56.4721,1.25057,-2.22764
619,56.532,1.25559,-2.22759
619.6,56.5925,1.24967,-2.2269
620.2,56.653,1.25529,-2.22675
620.8,56.7132,1.24325,-2.22761
621.4,56.7729,1.24741,-2.22892
622,56.8327,1.24744,-2.22893
622.6,56.8929,1.24454,-2.23168
623.2,56.9537,1.25155,-2.23151
623.8,57.0132,1.23987,-2.23287
624.4,57.0737,1.24324,-2.23354
625,57.1345,1.23865,-2.23353
625.6,57.1936,1.23683,-2.23466
626.2,57.2534,1.23077,-2.23537
626.8,57.3148,1.22741,-2.23617
627.4,57.3739,1.22421,-2.23748
628,57.4346,1.22175,-2.23674
628.6,57.4952,1.22607,-2.23814
629.2,57.5561,1.22332,-2.23952
629.8,57.6158,1.21647,-2.23949
630.4,57.6756,1.21671,-2.23977
631,57.7332,1.21605,-2.23979
631.6,57.7956,1.20504,-2.24113
632.2,57.8546,1.19883,-2.24252
632.8,57.916,1.20099,-2.24111
633.4,57.9765,1.20063,-2.24246
634,58.0371,1.19629,-2.24372
634.6,58.0964,1.19896,-2.24374
635.2,58.157,1.1897,-2.24514
635.8,58.2174,1.19092,-2.24636
636.4,58.2779,1.19062,-2.24647
637,58.3378,1.18353,-2.24632
637.6,58.3978,1.18113,-2.25041
638.2,58.4584,1.17982,-2.24791
638.8,58.5174,1.18136,-2.24659
639.4,58.5783,1.17146,-2.24795
640,58.6371,1.16742,-2.25068
640.6,58.6993,1.1624,-2.25519
641.2,58.7601,1.16182,-2.25201
641.8,58.8194,1.16113,-2.2476
642.4,58.879,1.15468,-2.2489
643,58.9396,1.14936,-2.25021
643.6,58.9992,1.15152,-2.25031
644.2,59.0604,1.14475,-2.25244
644.8,59.1203,1.14211,-2.25286
645.4,59.1807,1.13765,-2.2542
646,59.2403,1.13948,-2.25703
646.6,59.3003,1.13073,-2.25945
647.2,59.3606,1.13532,-2.25944
647.8,59.42,1.12407,-2.25946
648.4,59.4808,1.1222,-2.25944
649,59.5403,1.11765,-2.25938
649.6,59.6013,1.1223,-2.26075
650.2,59.6609,1.12007,-2.25944
650.8,59.7224,1.10989,-2.25944
651.4,59.782,1.10443,-2.25944
652,59.8415,1.109,-2.26076
652.6,59.9027,1.10874,-2.26076
653.2,59.9626,1.10501,-2.26208
653.8,60.0232,1.10474,-2.26337
654.4,60.0837,1.09235,-2.26307
655,60.1431,1.08482,-2.26438
655.6,60.2039,1.08259,-2.2657
656.2,60.2636,1.0816,-2.26567
656.8,60.3247,1.07671,-2.26702
657.4,60.3852,1.07687,-2.26724
658,60.4449,1.06767,-2.27559
658.6,60.5061,1.06543,-2.26923
659.2,60.5666,1.06599,-2.26671
659.8,60.626,1.05776,-2.26943
660.4,60.6869,1.05029,-2.26946
661,60.7472,1.05381,-2.2698
661.6,60.808,1.04937,-2.27201
662.2,60.8687,1.04065,-2.27508
662.8,60.9286,1.03782,-2.27454
663.4,60.9891,1.03682,-2.27175
664,61.0491,1.03597,-2.27206
664.6,61.1097,1.02822,-2.27206
665.2,61.1699,1.02582,-2.27206
665.8,61.2285,1.02072,-2.27337
666.4,61.2909,1.01543,-2.27469
667,61.3512,1.01388,-2.27469
667.6,61.4111,1.01101,-2.27469
668.2,61.4721,1.00247,-2.27601
668.8,61.5325,1.00109,-2.27733
669.4,61.5923,0.998471,-2.27736
670,61.6532,0.9936,-2.27932
670.6,61.7132,0.992306,-2.2801
671.2,61.7731,0.9807,-2.28128
671.8,61.834,0.982959,-2.28164
672.4,61.8948,0.978832,-2.28161
673,61.955,0.979498,-2.28293
673.6,62.0148,0.974652,-2.28293
674.2,62.0749,0.970155,-2.28293
674.8,62.1352,0.959839,-2.28262
675.4,62.1949,0.951166,-2.28532
676,62.2554,0.952786,-2.28631
676.6,62.3166,0.95375,-2.28621
677.2,62.376,0.949269,-2.28615
677.8,62.4361,0.944556,-2.28666
678.4,62.4967,0.935642,-2.28809
679,62.5572,0.930729,-2.2883
679.6,62.6176,0.921142,-2.29042
680.2,62.6777,0.903168,-2.29061
680.8,62.7376,0.911729,-2.2907
681.4,62.799,0.89878,-2.29003
682,62.8579,0.895718,-2.2905
682.6,62.9191,0.902126,-2.29325
683.2,62.9788,0.886467,-2.29326
683.8,63.0388,0.881814,-2.29457
684.4,63.099,0.877062,-2.29457
685,63.1586,0.870469,-2.2933
685.6,63.2197,0.86759,-2.29325
686.2,63.2803,0.863518,-2.29457
686.8,63.3402,0.857052,-2.2948
687.4,63.4012,0.852225,-2.29488
688,63.4617,0.839563,-2.29588
688.6,63.5194,0.8395,-2.29588
689.2,63.5823,0.830103,-2.29802
689.8,63.6417,0.827682,-2.29819
690.4,63.7023,0.815245,-2.2995
691,63.7639,0.810774,-2.29963
691.6,63.8241,0.806218,-2.29983
692.2,63.8849,0.796069,-2.29951
692.8,63.945,0.794727,-2.29983
693.4,64.0055,0.785917,-2.30115
694,64.0652,0.771529,-2.30109
694.6,64.1262,0.766793,-2.3029
695.2,64.1863,0.753434,-2.30383
695.8,64.2469,0.7479,-2.30433
696.4,64.3077,0.739205,-2.30547
697,64.3683,0.72818,-2.30773
697.6,64.4281,0.719776,-2.30643
698.2,64.4894,0.711252,-2.30644
698.8,64.5496,0.705538,-2.30774
699.4,64.6098,0.70107,-2.30776
700,64.6707,0.698158,-2.30873
700.6,64.7319,0.696622,-2.31041
701.2,64.7915,0.691882,-2.30968
701.8,64.8524,0.686927,-2.31012
702.4,64.9124,0.680101,-2.31037
703,64.9722,0.672988,-2.31041
703.6,65.033,0.677987,-2.31235
704.2,65.0945,0.668124,-2.31297
704.8,65.154,0.665127,-2.31249
705.4,65.2139,0.660058,-2.31188
706,65.2761,0.661216,-2.31324
706.6,65.3361,0.651847,-2.31435
707.2,65.3967,0.642232,-2.31561
707.8,65.4558,0.637517,-2.31696
708.4,65.5176,0.635925,-2.3156
709,65.577,0.635077,-2.31708
709.6,65.638,0.630097,-2.31838
710.2,65.6989,0.623958,-2.31832
710.8,65.7588,0.631596,-2.32056
711.4,65.8175,0.617359,-2.32214
712,65.8808,0.621739,-2.32234
712.6,65.9407,0.614534,-2.32234
713.2,66.0011,0.616338,-2.32233
713.8,66.0611,0.611094,-2.32236
714.4,66.1221,0.617806,-2.32207
715,66.1823,0.620526,-2.32275
715.6,66.2424,0.6192,-2.32365
716.2,66.3026,0.62699,-2.32234
716.8,66.3615,0.628029,-2.32334
717.4,66.4239,0.62285,-2.32433
718,66.485,0.622947,-2.32559
718.6,66.5454,0.63251,-2.32564
719.2,66.6058,0.630491,-2.32565
719.8,66.6668,0.624296,-2.32826
720.4,66.7268,0.633824,-2.32849
721,66.7869,0.637867,-2.32858
721.6,66.8483,0.63797,-2.32981
722.2,66.9086,0.635923,-2.33111
722.8,66.9695,0.63744,-2.33314
723.4,67.0295,0.638921,-2.33363
724,67.0913,0.639258,-2.33266
724.6,67.1504,0.632617,-2.33266
725.2,67.2124,0.631644,-2.33167
725.8,67.2727,0.62361,-2.33451
726.4,67.3304,0.624152,-2.33427
727,67.3934,0.628404,-2.33454
727.6,67.4555,0.624641,-2.33585
728.2,67.5165,0.621911,-2.33452
728.8,67.5787,0.624004,-2.33453
729.4,67.6409,0.61844,-2.33582
730,67.7039,0.617486,-2.3385
730.6,67.7655,0.619965,-2.33851
731.2,67.8285,0.620416,-2.33915
731.8,67.8916,0.614166,-2.3398
732.4,67.9524,0.615834,-2.34131
733,68.0167,0.602901,-2.34243
733.6,68.079,0.599056,-2.34243
734.2,68.1419,0.594856,-2.34375
734.8,68.2045,0.590491,-2.34294
735.4,68.2678,0.584282,-2.34462
736,68.3298,0.57804,-2.34559
736.6,68.39,0.570688,-2.34494
737.2,68.4541,0.576602,-2.34508
737.8,68.5166,0.564923,-2.34346
738.4,68.5788,0.56397,-2.34225
739,68.6403,0.55491,-2.34212
739.6,68.703,0.546692,-2.34561
740.2,68.7647,0.549799,-2.34707
740.8,68.8257,0.53677,-2.3488
741.4,68.8862,0.530327,-2.34925
742,68.9486,0.528645,-2.35012
742.6,69.0093,0.526591,-2.35128
743.2,69.0712,0.523295,-2.34999
743.8,69.132,0.516932,-2.34869
744.4,69.1922,0.507463,-2.35001
745,69.2531,0.503808,-2.34859
745.6,69.3146,0.49741,-2.35001
746.2,69.3757,0.486478,-2.3505
746.8,69.4356,0.486006,-2.35264
747.4,69.4964,0.477963,-2.35395
748,69.5573,0.474705,-2.35396
748.6,69.6173,0.465641,-2.35487
749.2,69.6784,0.461745,-2.35495
749.8,69.7377,0.457691,-2.35528
750.4,69.7995,0.449447,-2.35528
751,69.8596,0.452104,-2.35556
751.6,69.9206,0.43755,-2.35584
752.2,69.9805,0.432012,-2.35677
752.8,70.0405,0.436512,-2.35684
753.4,70.1009,0.435473,-2.35682
754,70.1609,0.430502,-2.35814
754.6,70.2209,0.423457,-2.35814
755.2,70.2817,0.426898,-2.35945
755.8,70.3427,0.426304,-2.35945
756.4,70.4025,0.424902,-2.36076
757,70.4624,0.420028,-2.35945
757.6,70.5234,0.412126,-2.36075
758.2,70.5816,0.41232,-2.36342
758.8,70.6437,0.407545,-2.36194
759.4,70.7031,0.406969,-2.3634
760,70.7638,0.397688,-2.3632
760.6,70.8248,0.396875,-2.36223
761.2,70.8848,0.390521,-2.36243
761.8,70.9458,0.396374,-2.3634
762.4,71.0067,0.3917,-2.36742
763,71.0673,0.395938,-2.36985
763.6,71.1271,0.397112,-2.36326
764.2,71.188,0.389466,-2.36319
764.8,71.2483,0.39084,-2.3658
765.4,71.3078,0.3859,-2.36713
766,71.37,0.39019,-2.36778
766.6,71.4298,0.388551,-2.36911
767.2,71.4893,0.387178,-2.36886
767.8,71.5518,0.382963,-2.36912
768.4,71.6125,0.381534,-2.36912
769,71.6723,0.381287,-2.36912
769.6,71.7339,0.384247,-2.36912
770.2,71.7946,0.37911,-2.36914
770.8,71.855,0.378828,-2.37068
771.4,71.9146,0.378623,-2.37054
772,71.9756,0.37977,-2.37054
772.6,72.0377,0.377171,-2.37186
773.2,72.0984,0.385607,-2.37186
773.8,72.1585,0.379139,-2.37296
774.4,72.2192,0.378597,-2.37335
775,72.2794,0.376909,-2.37319
775.6,72.3403,0.384258,-2.37317
776.2,72.401,0.368567,-2.37318
776.8,72.4616,0.366662,-2.37449
777.4,72.523,0.363615,-2.37449
778,72.5843,0.362174,-2.37462
778.6,72.6449,0.366255,-2.37614
779.2,72.7054,0.365839,-2.37754
779.8,72.7664,0.360518,-2.37612
780.4,72.8271,0.366971,-2.37614
781,72.8873,0.36585,-2.37821
781.6,72.9486,0.368063,-2.37877
782.2,73.0094,0.369819,-2.37925
782.8,73.0706,0.370118,-2.37844
783.4,73.1315,0.373361,-2.37811
784,73.1911,0.364899,-2.3781
784.6,73.2526,0.367393,-2.37918
785.2,73.3133,0.367848,-2.37877
785.8,73.3737,0.356824,-2.38009
786.4,73.4343,0.365974,-2.38009
787,73.4962,0.366581,-2.38009
787.6,73.5565,0.367578,-2.38007
788.2,73.6169,0.36355,-2.38142
788.8,73.6778,0.359675,-2.38273
789.4,73.7389,0.355448,-2.38272
790,73.7999,0.354442,-2.38372