File: 01_Data/Helmet_Flap/STA/N2/10K_min/Helmet_Flap_STA_N2_10KData_250514_R1.csv
Temp./C,Time/min,DSC/(mW/mg),Mass loss/mg
40.0,0.0,0.941853,-0.135602
40.6,0.0775898,0.962603,-0.136175
41.2,0.162158,0.993506,-0.135989
41.8,0.24319,1.01617,-0.137008
42.4,0.321616,1.03896,-0.137868
43,0.397444,1.06221,-0.138492
43.6,0.4756,1.08988,-0.13788
44.2,0.551921,1.10939,-0.139358
44.8,0.628175,1.13517,-0.141778
45.4,0.702765,1.15755,-0.140944
46,0.777897,1.18402,-0.14095
46.6,0.851129,1.21116,-0.142387
47.2,0.925129,1.23901,-0.142499
47.8,0.999427,1.26028,-0.144266
48.4,1.06921,1.2788,-0.145122
49,1.14057,1.30749,-0.145063
49.6,1.21154,1.33458,-0.1453
50.2,1.28209,1.35062,-0.147046
50.8,1.35184,1.37898,-0.149064
51.4,1.42111,1.4007,-0.149099
52,1.49057,1.41117,-0.150668
52.6,1.56095,1.43737,-0.15071
53.2,1.62878,1.45692,-0.15303
53.8,1.69662,1.47479,-0.15337
54.4,1.76331,1.49128,-0.15566
55,1.83107,1.52025,-0.156991
55.6,1.89792,1.53792,-0.156018
56.2,1.96608,1.55671,-0.157054
56.8,2.03192,1.57996,-0.159731
57.4,2.09818,1.5893,-0.158757
58,2.16477,1.61026,-0.160067
58.6,2.22968,1.62556,-0.161385
59.2,2.29567,1.64523,-0.162699
59.8,2.36083,1.66427,-0.162722
60.4,2.42241,1.67502,-0.164363
61,2.49051,1.69153,-0.165653
61.6,2.55402,1.70515,-0.167447
62.2,2.61658,1.72205,-0.16798
62.8,2.68191,1.73978,-0.169382
63.4,2.7458,1.75226,-0.17014
64,2.80855,1.75747,-0.170867
64.6,2.87127,1.76408,-0.17193
65.2,2.93475,1.77162,-0.173257
65.8,2.998,1.78828,-0.173889
66.4,3.06033,1.79802,-0.175215
67,3.12219,1.80316,-0.177185
67.6,3.18499,1.81658,-0.178479
68.2,3.24719,1.81393,-0.179828
68.8,3.30874,1.81799,-0.179831
69.4,3.37093,1.82667,-0.182135
70,3.43241,1.82589,-0.182131
70.6,3.49492,1.8291,-0.182457
71.2,3.55506,1.82814,-0.184581
71.8,3.61805,1.83269,-0.186122
72.4,3.67553,1.8339,-0.18641
73,3.73954,1.83044,-0.187772
73.6,3.80041,1.83249,-0.18905
74.2,3.86149,1.8341,-0.189524
74.8,3.92231,1.83143,-0.191731
75.4,3.98386,1.8249,-0.191674
76,4.04383,1.82701,-0.193004
76.6,4.10491,1.8187,-0.195705
77.2,4.16618,1.81786,-0.19566
77.8,4.22594,1.80965,-0.196944
78.4,4.28611,1.807,-0.198266
79,4.34321,1.79675,-0.198269
79.6,4.40693,1.79169,-0.200531
80.2,4.46648,1.78648,-0.20091
80.8,4.52599,1.77356,-0.202228
81.4,4.58721,1.76578,-0.203527
82,4.6477,1.75801,-0.203536
82.6,4.7074,1.74603,-0.205852
83.2,4.76696,1.73773,-0.206213
83.8,4.82669,1.72494,-0.20847
84.4,4.88482,1.70573,-0.20848
85,4.94648,1.69887,-0.208399
85.6,5.00468,1.68787,-0.208493
86.2,5.06373,1.67382,-0.209592
86.8,5.12265,1.66646,-0.211112
87.4,5.17876,1.65245,-0.211113
88,5.24127,1.63671,-0.212428
88.6,5.2994,1.626,-0.21243
89.2,5.35787,1.60696,-0.213732
89.8,5.41725,1.60237,-0.21375
90.4,5.47681,1.59401,-0.213771
91,5.53539,1.57536,-0.216322
91.6,5.59268,1.56414,-0.216388
92.2,5.65047,1.55223,-0.217691
92.8,5.71043,1.53489,-0.2177
93.4,5.76932,1.5209,-0.218376
94,5.82738,1.50623,-0.21902
94.6,5.8855,1.48681,-0.21902
95.2,5.94307,1.47495,-0.219045
95.8,6.00095,1.46393,-0.220006
96.4,6.0593,1.44548,-0.22077
97,6.11429,1.43602,-0.22133
97.6,6.17391,1.41883,-0.22133
98.2,6.23369,1.40378,-0.221639
98.8,6.29054,1.39158,-0.22165
99.4,6.3493,1.37735,-0.22165
100,6.40629,1.36,-0.223051
100.6,6.46489,1.348,-0.224288
101.2,6.52282,1.33585,-0.224613
101.8,6.58,1.32584,-0.22429
102.4,6.63862,1.31269,-0.224753
103,6.69436,1.30002,-0.226589
103.6,6.7525,1.2926,-0.226589
104.2,6.8098,1.2775,-0.225617
104.8,6.86712,1.26582,-0.226542
105.4,6.92479,1.25422,-0.22659
106,6.98244,1.24182,-0.226589
106.6,7.04082,1.22609,-0.225264
107.2,7.09725,1.22451,-0.225618
107.8,7.15169,1.20866,-0.22561
108.4,7.21137,1.2155,-0.22561
109,7.26809,1.20367,-0.226916
109.6,7.32807,1.19145,-0.22693
110.2,7.38549,1.17776,-0.227107
110.8,7.44252,1.17347,-0.22824
111.4,7.49961,1.16366,-0.228241
112,7.55756,1.15211,-0.228325
112.6,7.61429,1.15057,-0.227915
113.2,7.67192,1.14186,-0.22791
113.8,7.72975,1.14048,-0.227931
114.4,7.78798,1.1328,-0.229234
115,7.84609,1.12456,-0.22923
115.6,7.90118,1.11581,-0.229228
116.2,7.95981,1.11014,-0.229234
116.8,8.01721,1.10795,-0.22923
117.4,8.07569,1.1101,-0.229264
118,8.13258,1.10359,-0.22792
118.6,8.18964,1.1038,-0.229216
119.2,8.24866,1.10049,-0.229234
119.8,8.30493,1.09884,-0.228238
120.4,8.36248,1.09015,-0.228247
121,8.42062,1.09805,-0.22956
121.6,8.4772,1.08781,-0.22956
122.2,8.53444,1.0895,-0.229217
122.8,8.59252,1.09142,-0.22923
123.4,8.64929,1.09157,-0.229225
124,8.70685,1.08516,-0.230547
124.6,8.76457,1.09578,-0.229325
125.2,8.82181,1.07298,-0.230546
125.8,8.87762,1.07183,-0.22915
126.4,8.93515,1.06578,-0.227919
127,8.99158,1.06763,-0.227919
127.6,9.04932,1.07542,-0.22924
128.2,9.10448,1.06617,-0.230612
128.8,9.16479,1.0631,-0.22923
129.4,9.22235,1.06347,-0.22923
130,9.27909,1.06398,-0.228505
130.6,9.3333,1.06131,-0.227877
131.2,9.392,1.0571,-0.229228
131.8,9.44882,1.06653,-0.22923
132.4,9.50667,1.07056,-0.22923
133,9.56492,1.06773,-0.229237
133.6,9.62191,1.07341,-0.230547
134.2,9.67878,1.06724,-0.229986
134.8,9.73499,1.07069,-0.22923
135.4,9.79151,1.06231,-0.229202
136,9.84908,1.07339,-0.22792
136.6,9.90638,1.07846,-0.227919
137.2,9.9635,1.06988,-0.2289
137.8,10.0206,1.07946,-0.229236
138.4,10.0773,1.07894,-0.229517
139,10.1348,1.07722,-0.23055
139.6,10.1918,1.0885,-0.23055
140.2,10.247,1.08677,-0.229512
140.8,10.3058,1.10069,-0.230187
141.4,10.3583,1.10067,-0.230528
142,10.4167,1.09918,-0.229231
142.6,10.4746,1.09669,-0.230222
143.2,10.5315,1.09115,-0.23021
143.8,10.5883,1.0934,-0.231524
144.4,10.6459,1.10047,-0.23022
145,10.701,1.10445,-0.23022
145.6,10.7572,1.10915,-0.229856
146.2,10.8139,1.11256,-0.230196
146.8,10.8711,1.11976,-0.230922
147.4,10.9266,1.1151,-0.230542
148,10.9825,1.12283,-0.23022
148.6,11.0399,1.11635,-0.23022
149.2,11.0977,1.11899,-0.23022
149.8,11.1532,1.12308,-0.230233
150.4,11.2105,1.12184,-0.23153
151,11.2667,1.12326,-0.23153
151.6,11.3244,1.1255,-0.23153
152.2,11.3809,1.12107,-0.231555
152.8,11.4377,1.12851,-0.23154
153.4,11.4944,1.13346,-0.231517
154,11.5509,1.1309,-0.23187
154.6,11.6076,1.13799,-0.231489
155.2,11.6645,1.12981,-0.232196
155.8,11.7211,1.13362,-0.232206
156.4,11.7782,1.14497,-0.231536
157,11.8346,1.14175,-0.23154
157.6,11.8906,1.13904,-0.23154
158.2,11.9483,1.14677,-0.23154
158.8,12.006,1.15164,-0.231541
159.4,12.0609,1.14913,-0.231481
160,12.1178,1.16279,-0.230199
160.6,12.1726,1.15584,-0.232262
161.2,12.2299,1.15745,-0.23252
161.8,12.2878,1.15817,-0.23252
162.4,12.3444,1.16373,-0.232519
163,12.4009,1.16611,-0.232849
163.6,12.4579,1.16366,-0.234122
164.2,12.5138,1.1592,-0.234272
164.8,12.5705,1.16267,-0.23285
165.4,12.6273,1.17292,-0.23285
166,12.6837,1.16945,-0.232961
166.6,12.7414,1.16609,-0.23417
167.2,12.7973,1.17174,-0.234191
167.8,12.8528,1.1826,-0.23286
168.4,12.9092,1.18176,-0.23286
169,12.9629,1.17772,-0.232787
169.6,13.0234,1.1874,-0.234157
170.2,13.0803,1.18391,-0.23286
170.8,13.1368,1.18545,-0.233218
171.4,13.1929,1.18494,-0.234245
172,13.2505,1.17903,-0.23318
172.6,13.3055,1.18724,-0.23318
173.2,13.3629,1.1862,-0.233155
173.8,13.4213,1.19058,-0.234169
174.4,13.4753,1.18913,-0.23417
175,13.5335,1.19558,-0.234169
175.6,13.5902,1.19634,-0.233847
176.2,13.6458,1.20076,-0.234172
176.8,13.7026,1.19329,-0.23417
177.4,13.7595,1.19818,-0.234193
178,13.8166,1.19945,-0.235491
178.6,13.8726,1.20029,-0.23546
179.2,13.9291,1.19996,-0.234199
179.8,13.9856,1.19361,-0.23549
180.4,14.0434,1.20104,-0.23549
181,14.0984,1.2048,-0.23549
181.6,14.1554,1.20427,-0.23532
182.2,14.2124,1.19815,-0.23483
182.8,14.2688,1.2061,-0.236129
183.4,14.3254,1.20914,-0.23615
184,14.3821,1.21086,-0.236184
184.6,14.4376,1.20544,-0.237461
185.2,14.4941,1.2042,-0.23681
185.8,14.5509,1.20594,-0.2368
186.4,14.6078,1.2049,-0.2368
187,14.6616,1.20087,-0.2368
187.6,14.721,1.19472,-0.2368
188.2,14.7762,1.20554,-0.2368
188.8,14.8331,1.20459,-0.2368
189.4,14.8878,1.2101,-0.236804
190,14.9462,1.20569,-0.238117
190.6,15.002,1.20963,-0.23812
191.2,15.0596,1.20487,-0.23812
191.8,15.1154,1.20316,-0.238155
192.4,15.1715,1.20647,-0.23748
193,15.2277,1.20113,-0.23878
193.6,15.2846,1.19829,-0.23878
194.2,15.341,1.19905,-0.23878
194.8,15.3974,1.20268,-0.23878
195.4,15.4532,1.203,-0.23878
196,15.5104,1.20326,-0.23878
196.6,15.5671,1.20212,-0.238753
197.2,15.6219,1.19362,-0.239769
197.8,15.6783,1.20046,-0.23977
198.4,15.7357,1.19651,-0.23977
199,15.7919,1.1878,-0.23977
199.6,15.8481,1.19731,-0.239775
200.2,15.9022,1.19425,-0.240089
200.8,15.961,1.19524,-0.240098
201.4,16.0174,1.19133,-0.24075
202,16.0739,1.19867,-0.241474
202.6,16.1308,1.19809,-0.24141
203.2,16.1866,1.19939,-0.24141
203.8,16.2433,1.20267,-0.24141
204.4,16.3003,1.19299,-0.241428
205,16.3557,1.19716,-0.24403
205.6,16.4127,1.19735,-0.24405
206.2,16.4693,1.19239,-0.244087
206.8,16.5252,1.19511,-0.24339
207.4,16.5819,1.19565,-0.24339
208,16.6379,1.19333,-0.243396
208.6,16.6938,1.19184,-0.245364
209.2,16.7508,1.18572,-0.2457
209.8,16.8084,1.18868,-0.2457
210.4,16.8636,1.19198,-0.2457
211,16.9199,1.18479,-0.246399
211.6,16.9762,1.18771,-0.24737
212.2,17.0325,1.18609,-0.248526
212.8,17.0887,1.18612,-0.24866
213.4,17.1464,1.18346,-0.24866
214,17.201,1.17999,-0.24866
214.6,17.2585,1.1766,-0.248815
215.2,17.3158,1.16719,-0.249976
215.8,17.3713,1.16605,-0.250958
216.4,17.4275,1.16651,-0.25096
217,17.4837,1.15867,-0.250928
217.6,17.5395,1.16027,-0.252548
218.2,17.5963,1.1546,-0.25261
218.8,17.6545,1.15222,-0.253387
219.4,17.7099,1.1551,-0.253229
220,17.7658,1.1517,-0.253271
220.6,17.8218,1.14315,-0.254596
221.2,17.8787,1.14033,-0.254841
221.8,17.9353,1.1351,-0.256902
222.4,17.9931,1.13867,-0.2569
223,18.0476,1.12768,-0.256951
223.6,18.1046,1.12867,-0.258209
224.2,18.16,1.12792,-0.259872
224.8,18.2162,1.12452,-0.261163
225.4,18.2736,1.12319,-0.2625
226,18.3306,1.10975,-0.262261
226.6,18.3874,1.10857,-0.262492
227.2,18.4444,1.11509,-0.263825
227.8,18.5,1.11161,-0.265134
228.4,18.5563,1.09826,-0.265782
229,18.6126,1.09739,-0.266452
229.6,18.6695,1.0973,-0.267776
230.2,18.727,1.09342,-0.26777
230.8,18.7814,1.08309,-0.268843
231.4,18.8396,1.08104,-0.269957
232,18.8947,1.07984,-0.271926
232.6,18.953,1.0746,-0.273041
233.2,19.0084,1.07335,-0.274403
233.8,19.0656,1.07818,-0.274343
234.4,19.1224,1.07933,-0.27578
235,19.179,1.07741,-0.276991
235.6,19.2352,1.0691,-0.27823
236.2,19.292,1.08185,-0.279624
236.8,19.3483,1.0803,-0.280938
237.4,19.4046,1.08151,-0.281127
238,19.4618,1.07878,-0.282108
238.6,19.518,1.07525,-0.284893
239.2,19.5744,1.07368,-0.286205
239.8,19.6317,1.07326,-0.287585
240.4,19.6887,1.07721,-0.288818
241,19.7449,1.06745,-0.290158
241.6,19.8015,1.07122,-0.291503
242.2,19.8585,1.07478,-0.291823
242.8,19.9152,1.07506,-0.293138
243.4,19.9728,1.0808,-0.293204
244,20.028,1.07842,-0.295561
244.6,20.0842,1.08377,-0.297077
245.2,20.1427,1.08247,-0.298496
245.8,20.1978,1.08549,-0.29981
246.4,20.2554,1.09505,-0.301117
247,20.3123,1.10532,-0.303397
247.6,20.3684,1.11189,-0.304309
248.2,20.4253,1.10955,-0.3051
248.8,20.4822,1.11625,-0.306363
249.4,20.5386,1.12414,-0.307716
250,20.5964,1.14199,-0.30904
250.6,20.6529,1.16464,-0.312355
251.2,20.7093,1.19361,-0.313739
251.8,20.7678,1.24545,-0.315203
252.4,20.825,1.31579,-0.31695
253,20.8827,1.41023,-0.318213
253.6,20.9413,1.51295,-0.316985
254.2,20.999,1.62928,-0.320097
254.8,21.0573,1.71315,-0.321311
255.4,21.1131,1.71898,-0.323031
256,21.1689,1.64625,-0.325289
256.6,21.225,1.53527,-0.326599
257.2,21.2811,1.45314,-0.32783
257.8,21.3375,1.38313,-0.329222
258.4,21.3935,1.35236,-0.330993
259,21.4491,1.33981,-0.331896
259.6,21.5066,1.33748,-0.335553
260.2,21.5632,1.32748,-0.336876
260.8,21.6193,1.30194,-0.337988
261.4,21.6774,1.28098,-0.338983
262,21.7328,1.24735,-0.340586
262.6,21.7895,1.2004,-0.341006
263.2,21.8457,1.1608,-0.342802
263.8,21.9016,1.12265,-0.344861
264.4,21.9582,1.09268,-0.346295
265,22.0148,1.07121,-0.348135
265.6,22.0715,1.0514,-0.349528
266.2,22.1278,1.0327,-0.351551
266.8,22.1854,1.02203,-0.353634
267.4,22.2422,1.00648,-0.354899
268,22.2976,1.01075,-0.356224
268.6,22.3552,0.998563,-0.358246
269.2,22.4108,0.988116,-0.360015
269.8,22.4689,0.982837,-0.361561
270.4,22.5255,0.968723,-0.363721
271,22.5817,0.964248,-0.364948
271.6,22.6386,0.952996,-0.367303
272.2,22.6954,0.945691,-0.369029
272.8,22.7527,0.931225,-0.370416
273.4,22.8089,0.926021,-0.371932
274,22.8655,0.917181,-0.374154
274.6,22.9223,0.905045,-0.376124
275.2,22.9793,0.889766,-0.377575
275.8,23.0345,0.883523,-0.380373
276.4,23.0921,0.869551,-0.381541
277,23.1495,0.862191,-0.38459
277.6,23.2067,0.843992,-0.387245
278.2,23.2612,0.833057,-0.389885
278.8,23.3187,0.819767,-0.391088
279.4,23.3774,0.810432,-0.393747
280,23.4336,0.798463,-0.395149
280.6,23.4911,0.780676,-0.39659
281.2,23.547,0.768773,-0.399009
281.8,23.6019,0.756686,-0.400759
282.4,23.6595,0.734988,-0.403917
283,23.718,0.714236,-0.406453
283.6,23.7747,0.701759,-0.407986
284.2,23.8299,0.685064,-0.409448
284.8,23.8868,0.666101,-0.41225
285.4,23.9442,0.651058,-0.415135
286,24.0025,0.626862,-0.416485
286.6,24.0584,0.602718,-0.4192
287.2,24.1131,0.59354,-0.422691
287.8,24.1717,0.571527,-0.424991
288.4,24.229,0.555475,-0.428816
289,24.2853,0.52535,-0.431811
289.6,24.3425,0.500915,-0.433864
290.2,24.3984,0.471581,-0.435124
290.8,24.4559,0.433572,-0.438025
291.4,24.5118,0.40286,-0.441271
292,24.5687,0.366805,-0.444395
292.6,24.6257,0.341372,-0.448759
293.2,24.681,0.300749,-0.450425
293.8,24.739,0.252978,-0.453475
294.4,24.7949,0.209833,-0.457029
295,24.8515,0.15197,-0.460502
295.6,24.9063,0.0994465,-0.463831
296.2,24.9653,0.0325357,-0.468086
296.8,25.0204,-0.0102641,-0.473804
297.4,25.0767,-0.0753151,-0.477123
298,25.1344,-0.153409,-0.481484
298.6,25.1895,-0.235317,-0.4864
299.2,25.2462,-0.316856,-0.491365
299.8,25.3023,-0.40284,-0.496783
300.4,25.3573,-0.501723,-0.502406
301,25.4137,-0.59732,-0.509312
301.6,25.4691,-0.708211,-0.516061
302.2,25.5253,-0.819429,-0.524566
302.8,25.5811,-0.940477,-0.532789
303.4,25.6371,-1.05925,-0.540974
304,25.6925,-1.16639,-0.551247
304.6,25.748,-1.2659,-0.56406
305.2,25.8045,-1.36086,-0.57725
305.8,25.8605,-1.42606,-0.595274
306.4,25.9169,-1.483,-0.612688
307,25.9742,-1.50162,-0.635758
307.6,26.0309,-1.49109,-0.654725
308.2,26.0883,-1.44773,-0.678248
308.8,26.1471,-1.37998,-0.703992
309.4,26.2045,-1.28855,-0.731422
310,26.2624,-1.18528,-0.761162
310.6,26.3206,-1.07107,-0.79152
311.2,26.3786,-0.959851,-0.824007
311.8,26.4378,-0.839534,-0.855537
312.4,26.4955,-0.717849,-0.88804
313,26.5553,-0.625266,-0.919916
313.6,26.6124,-0.531331,-0.952261
314.2,26.6707,-0.457458,-0.98342
314.8,26.7283,-0.369483,-1.01572
315.4,26.7876,-0.30243,-1.04853
316,26.845,-0.247031,-1.08043
316.6,26.9002,-0.208741,-1.11083
317.2,26.9601,-0.159089,-1.14265
317.8,27.0185,-0.119379,-1.17589
318.4,27.0763,-0.0957359,-1.20471
319,27.1328,-0.058421,-1.23744
319.6,27.1917,-0.0353929,-1.26762
320.2,27.2486,-0.0106755,-1.29708
320.8,27.3066,0.0173799,-1.32582
321.4,27.3645,0.0447653,-1.35407
322,27.4219,0.0710834,-1.3817
322.6,27.4804,0.105489,-1.40538
323.2,27.5373,0.139466,-1.43276
323.8,27.5957,0.171651,-1.45503
324.4,27.6533,0.230461,-1.47747
325,27.7116,0.278394,-1.49688
325.6,27.7693,0.32998,-1.51632
326.2,27.8281,0.380695,-1.53309
326.8,27.886,0.422793,-1.54774
327.4,27.9429,0.470049,-1.55887
328,28.0015,0.52699,-1.57059
328.6,28.0595,0.560325,-1.57831
329.2,28.1174,0.59765,-1.58999
329.8,28.1749,0.62734,-1.59735
330.4,28.2329,0.660459,-1.60481
331,28.2911,0.686215,-1.61013
331.6,28.3474,0.69374,-1.61491
332.2,28.4064,0.714536,-1.62044
332.8,28.4638,0.717216,-1.62367
333.4,28.5207,0.724916,-1.62778
334,28.5773,0.719546,-1.63063
334.6,28.6356,0.728202,-1.63344
335.2,28.6953,0.709627,-1.63446
335.8,28.753,0.696509,-1.639
336.4,28.8102,0.690395,-1.64029
337,28.8677,0.68287,-1.64357
337.6,28.9252,0.670949,-1.64513
338.2,28.983,0.660024,-1.64883
338.8,29.0402,0.653802,-1.65243
339.4,29.0971,0.645096,-1.65241
340,29.1557,0.632239,-1.65378
340.6,29.2127,0.629752,-1.65515
341.2,29.2706,0.617925,-1.65791
341.8,29.3283,0.613671,-1.66072
342.4,29.3863,0.606073,-1.66366
343,29.4431,0.599749,-1.6651
343.6,29.5008,0.599349,-1.66672
344.2,29.5587,0.585037,-1.66799
344.8,29.6165,0.580689,-1.6708
345.4,29.6742,0.574839,-1.67525
346,29.7315,0.576422,-1.67567
346.6,29.789,0.568717,-1.67674
347.2,29.8471,0.56902,-1.67843
347.8,29.9041,0.559344,-1.68087
348.4,29.9617,0.557574,-1.68283
349,30.0198,0.555924,-1.68504
349.6,30.0778,0.549793,-1.6854
350.2,30.1344,0.555363,-1.68721
350.8,30.1936,0.538845,-1.68962
351.4,30.2506,0.540221,-1.69149
352,30.3095,0.531576,-1.69402
352.6,30.3659,0.531891,-1.69689
353.2,30.4246,0.538994,-1.6997
353.8,30.4824,0.53283,-1.70108
354.4,30.54,0.529707,-1.70241
355,30.5983,0.519758,-1.70644
355.6,30.6552,0.527806,-1.70726
356.2,30.7135,0.525532,-1.70949
356.8,30.7714,0.522244,-1.70935
357.4,30.8278,0.516835,-1.71233
358,30.8869,0.529087,-1.71364
358.6,30.9444,0.524851,-1.7167
359.2,31.0026,0.523115,-1.72033
359.8,31.0602,0.526259,-1.72064
360.4,31.118,0.519301,-1.72304
361,31.1759,0.519914,-1.72598
361.6,31.2336,0.521318,-1.72731
362.2,31.2906,0.51872,-1.72911
362.8,31.3487,0.527388,-1.7319
363.4,31.4072,0.530632,-1.7337
364,31.4653,0.531948,-1.73637
364.6,31.5233,0.526883,-1.73777
365.2,31.5802,0.536239,-1.74084
365.8,31.6391,0.537898,-1.74332
366.4,31.6967,0.545736,-1.74502
367,31.7553,0.545315,-1.74628
367.6,31.8127,0.550837,-1.75024
368.2,31.8707,0.559364,-1.75326
368.8,31.9288,0.560194,-1.75486
369.4,31.9869,0.564839,-1.75776
370,32.0448,0.570384,-1.75938
370.6,32.1036,0.581077,-1.76094
371.2,32.1611,0.580764,-1.76445
371.8,32.2201,0.586471,-1.76766
372.4,32.2778,0.585428,-1.77056
373,32.3355,0.599197,-1.7733
373.6,32.3921,0.607544,-1.77585
374.2,32.4526,0.608183,-1.77824
374.8,32.5106,0.614018,-1.78193
375.4,32.5689,0.618478,-1.78344
376,32.6273,0.626609,-1.78584
376.6,32.686,0.630861,-1.78899
377.2,32.7433,0.641067,-1.7915
377.8,32.8014,0.648746,-1.79337
378.4,32.86,0.643398,-1.79611
379,32.9185,0.655382,-1.80068
379.6,32.9759,0.660929,-1.80319
380.2,33.0342,0.656915,-1.80602
380.8,33.0937,0.669392,-1.80644
381.4,33.1513,0.673618,-1.81066
382,33.2095,0.677779,-1.81399
382.6,33.2682,0.679709,-1.81483
383.2,33.3258,0.689973,-1.81849
383.8,33.384,0.689516,-1.82104
384.4,33.4428,0.687611,-1.82545
385,33.4997,0.688401,-1.82711
385.6,33.5583,0.695596,-1.83015
386.2,33.6169,0.697136,-1.83304
386.8,33.6752,0.691974,-1.83562
387.4,33.7346,0.70353,-1.8364
388,33.7917,0.696968,-1.84023
388.6,33.85,0.704479,-1.84281
389.2,33.9076,0.69441,-1.84489
389.8,33.9666,0.703793,-1.84808
390.4,34.0252,0.703371,-1.85149
391,34.0825,0.694058,-1.85466
391.6,34.1403,0.698816,-1.85743
392.2,34.1995,0.696234,-1.8596
392.8,34.2583,0.687157,-1.86188
393.4,34.3153,0.685064,-1.86466
394,34.3746,0.687391,-1.86689
394.6,34.4325,0.687486,-1.87
395.2,34.4904,0.688728,-1.87109
395.8,34.5488,0.687227,-1.87397
396.4,34.6058,0.682514,-1.87697
397,34.6663,0.682111,-1.87884
397.6,34.7245,0.681667,-1.88171
398.2,34.7827,0.678973,-1.88364
398.8,34.8408,0.676991,-1.88593
399.4,34.8985,0.686913,-1.88928
400,34.9572,0.684114,-1.89228
400.6,35.0143,0.677132,-1.89417
401.2,35.0739,0.675911,-1.89602
401.8,35.1315,0.676898,-1.89771
402.4,35.19,0.674856,-1.89956
403,35.2477,0.66739,-1.90357
403.6,35.3067,0.670368,-1.90557
404.2,35.3653,0.666015,-1.90796
404.8,35.4227,0.667237,-1.91069
405.4,35.4815,0.664266,-1.91158
406,35.5396,0.665994,-1.91354
406.6,35.5982,0.667554,-1.91644
407.2,35.6562,0.669262,-1.91877
407.8,35.7141,0.667752,-1.92058
408.4,35.7726,0.647902,-1.92155
409,35.8316,0.652849,-1.92342
409.6,35.8879,0.652326,-1.92758
410.2,35.9482,0.654132,-1.93027
410.8,36.0064,0.64596,-1.93185
411.4,36.0647,0.644135,-1.93478
412,36.1239,0.649235,-1.93795
412.6,36.1823,0.639758,-1.93923
413.2,36.2399,0.642291,-1.94061
413.8,36.2985,0.641762,-1.9431
414.4,36.3561,0.641089,-1.9458
415,36.4156,0.630216,-1.94847
415.6,36.4738,0.630654,-1.9496
416.2,36.5329,0.632614,-1.95159
416.8,36.5906,0.627512,-1.95382
417.4,36.6498,0.630483,-1.95637
418,36.7086,0.619997,-1.95926
418.6,36.7665,0.615064,-1.96105
419.2,36.8253,0.618724,-1.96234
419.8,36.884,0.619613,-1.96545
420.4,36.9426,0.619854,-1.96785
421,37.0007,0.609223,-1.96849
421.6,37.057,0.610716,-1.9716
422.2,37.1178,0.608499,-1.97592
422.8,37.1765,0.605013,-1.97723
423.4,37.2341,0.600309,-1.97908
424,37.2935,0.597372,-1.98079
424.6,37.3526,0.597583,-1.98332
425.2,37.4116,0.590183,-1.98643
425.8,37.4686,0.591841,-1.98788
426.4,37.527,0.585684,-1.99082
427,37.5868,0.585492,-1.99488
427.6,37.6449,0.58661,-1.99781
428.2,37.7031,0.579232,-1.99799
428.8,37.7617,0.581528,-2.00089
429.4,37.8195,0.574386,-2.00268
430,37.8793,0.573948,-2.00548
430.6,37.9365,0.562219,-2.00717
431.2,37.9956,0.557712,-2.00987
431.8,38.0542,0.562909,-2.01085
432.4,38.1135,0.558347,-2.01359
433,38.1711,0.556148,-2.0166
433.6,38.2302,0.555966,-2.01983
434.2,38.2883,0.556713,-2.02128
434.8,38.3466,0.556534,-2.02386
435.4,38.4053,0.560213,-2.02681
436,38.4644,0.55635,-2.02888
436.6,38.5229,0.554341,-2.03067
437.2,38.5815,0.558153,-2.03352
437.8,38.6403,0.562872,-2.03627
438.4,38.6993,0.556268,-2.03848
439,38.7576,0.555796,-2.04078
439.6,38.817,0.562446,-2.04361
440.2,38.8756,0.557608,-2.04401
440.8,38.9337,0.561702,-2.04706
441.4,38.9926,0.557762,-2.04964
442,39.0513,0.557021,-2.05214
442.6,39.1103,0.563389,-2.05363
443.2,39.1682,0.567919,-2.05568
443.8,39.2275,0.569121,-2.0588
444.4,39.2863,0.576611,-2.06105
445,39.345,0.581213,-2.0626
445.6,39.403,0.58174,-2.06523
446.2,39.4615,0.577249,-2.06719
446.8,39.5202,0.588661,-2.06967
447.4,39.5793,0.589352,-2.07109
448,39.6383,0.590048,-2.07396
448.6,39.6966,0.596647,-2.07689
449.2,39.7564,0.593852,-2.07918
449.8,39.8142,0.597013,-2.08042
450.4,39.8723,0.599317,-2.08311
451,39.9326,0.603107,-2.08342
451.6,39.9919,0.604419,-2.08751
452.2,40.0491,0.606116,-2.09035
452.8,40.1077,0.606677,-2.0926
453.4,40.1668,0.60606,-2.09385
454,40.2261,0.611084,-2.09542
454.6,40.2844,0.611763,-2.09809
455.2,40.3433,0.613884,-2.10012
455.8,40.4023,0.617156,-2.10157
456.4,40.4596,0.61995,-2.10396
457,40.5203,0.616956,-2.10647
457.6,40.5783,0.621198,-2.10904
458.2,40.6377,0.621442,-2.11143
458.8,40.6977,0.630596,-2.11276
459.4,40.7567,0.633091,-2.11511
460,40.8143,0.635982,-2.11691
460.6,40.8733,0.643767,-2.11978
461.2,40.9331,0.645979,-2.12076
461.8,40.9915,0.641731,-2.1221
462.4,41.0505,0.65073,-2.1242
463,41.1094,0.64953,-2.12537
463.6,41.1666,0.646442,-2.12795
464.2,41.2278,0.64893,-2.12977
464.8,41.2862,0.65804,-2.1311
465.4,41.3459,0.667136,-2.13473
466,41.4048,0.666219,-2.13617
466.6,41.464,0.666425,-2.13745
467.2,41.5215,0.68091,-2.14056
467.8,41.5815,0.682744,-2.14177
468.4,41.6406,0.684678,-2.14298
469,41.6998,0.681409,-2.14598
469.6,41.7586,0.686682,-2.1471
470.2,41.8172,0.687128,-2.14896
470.8,41.8767,0.693046,-2.15099
471.4,41.9363,0.69662,-2.15383
472,41.9944,0.703317,-2.15518
472.6,42.0528,0.700385,-2.15647
473.2,42.1118,0.713241,-2.15818
473.8,42.1708,0.705748,-2.15926
474.4,42.2299,0.718562,-2.16151
475,42.289,0.71834,-2.16336
475.6,42.3468,0.726552,-2.16508
476.2,42.4074,0.723174,-2.16767
476.8,42.4655,0.728213,-2.16898
477.4,42.5245,0.726507,-2.1703
478,42.5846,0.736542,-2.1719
478.6,42.6431,0.739391,-2.17541
479.2,42.7031,0.743317,-2.17806
479.8,42.7629,0.746607,-2.17682
480.4,42.8225,0.748275,-2.17917
481,42.8804,0.751767,-2.17941
481.6,42.9406,0.758498,-2.18089
482.2,43,0.759273,-2.18358
482.8,43.0597,0.762761,-2.18481
483.4,43.1184,0.772028,-2.18619
484,43.1771,0.770396,-2.18857
484.6,43.2363,0.779388,-2.18917
485.2,43.2954,0.769206,-2.19144
485.8,43.3547,0.784123,-2.1928
486.4,43.4138,0.78495,-2.1941
487,43.4706,0.788651,-2.19546
487.6,43.5326,0.798549,-2.19688
488.2,43.5917,0.800216,-2.19897
488.8,43.6506,0.800914,-2.19926
489.4,43.7098,0.806546,-2.20033
490,43.768,0.818647,-2.2007
490.6,43.8281,0.822275,-2.2034
491.2,43.8868,0.826206,-2.20469
491.8,43.9479,0.82973,-2.20728
492.4,44.0056,0.832437,-2.20859
493,44.0656,0.836202,-2.21095
493.6,44.1244,0.842672,-2.21004
494.2,44.1838,0.851466,-2.21142
494.8,44.2435,0.855531,-2.21358
495.4,44.302,0.845559,-2.21677
496,44.3623,0.854259,-2.21832
496.6,44.4209,0.862685,-2.21827
497.2,44.4802,0.867006,-2.2196
497.8,44.5396,0.871112,-2.21959
498.4,44.5992,0.88708,-2.22026
499,44.6585,0.883679,-2.22174
499.6,44.7174,0.886506,-2.22362
500.2,44.7762,0.88617,-2.22418
500.8,44.8351,0.888783,-2.22652
501.4,44.8957,0.90015,-2.22742
502,44.9539,0.905119,-2.22919
502.6,45.0135,0.906791,-2.23151
503.2,45.0738,0.91765,-2.23274
503.8,45.1298,0.920082,-2.23408
504.4,45.191,0.924754,-2.23544
505,45.2513,0.926912,-2.2362
505.6,45.3099,0.936118,-2.23826
506.2,45.3697,0.937999,-2.23946
506.8,45.4271,0.940262,-2.24051
507.4,45.4856,0.942341,-2.24077
508,45.548,0.949316,-2.24207
508.6,45.606,0.947505,-2.24408
509.2,45.6657,0.956731,-2.245
509.8,45.7255,0.95805,-2.24538
510.4,45.7856,0.961294,-2.24796
511,45.8439,0.969508,-2.24847
511.6,45.9026,0.966908,-2.24923
512.2,45.9621,0.967593,-2.25066
512.8,46.0216,0.968481,-2.25199
513.4,46.0814,0.968447,-2.25308
514,46.1414,0.975766,-2.25388
514.6,46.2002,0.974435,-2.25527
515.2,46.2587,0.980332,-2.25661
515.8,46.3201,0.983965,-2.25731
516.4,46.3782,0.981395,-2.25861
517,46.4371,0.990174,-2.25991
517.6,46.4975,0.990242,-2.2625
518.2,46.5561,1.00184,-2.26379
518.8,46.6157,0.993327,-2.26428
519.4,46.6736,0.996581,-2.26561
520,46.7353,1.00089,-2.26582
520.6,46.7958,0.997941,-2.26824
521.2,46.8565,0.995644,-2.27086
521.8,46.9152,0.997547,-2.27086
522.4,46.9759,1.00711,-2.27218
523,47.0353,0.998447,-2.2735
523.6,47.0943,1.00542,-2.27481
524.2,47.1545,1.00632,-2.27612
524.8,47.2133,1.00357,-2.27875
525.4,47.273,1.00712,-2.27878
526,47.3325,1.00112,-2.28008
526.6,47.3922,1.00047,-2.28105
527.2,47.4512,0.999607,-2.28215
527.8,47.5111,1.00633,-2.28335
528.4,47.571,1.00639,-2.28475
529,47.6298,1.01726,-2.28745
529.6,47.6903,1.00846,-2.28861
530.2,47.7498,1.00851,-2.28954
530.8,47.8094,1.00484,-2.28864
531.4,47.8688,1.00275,-2.28996
532,47.9282,1.00663,-2.29141
532.6,47.9884,0.998399,-2.29268
533.2,48.0465,1.00358,-2.29259
533.8,48.1067,1.00393,-2.29523
534.4,48.1652,1.01209,-2.29656
535,48.2248,1.00916,-2.29798
535.6,48.2841,1.01045,-2.29787
536.2,48.3433,1.00524,-2.29907
536.8,48.4018,1.00213,-2.29949
537.4,48.4626,1.01439,-2.3019
538,48.5223,1.00976,-2.30238
538.6,48.5805,1.00585,-2.30267
539.2,48.6408,1.0131,-2.30514
539.8,48.7002,1.00214,-2.30544
540.4,48.7595,0.998649,-2.30677
541,48.8192,1.00443,-2.3081
541.6,48.8789,1.00034,-2.3096
542.2,48.9376,0.997823,-2.31071
542.8,48.9979,1.00306,-2.31202
543.4,49.0575,0.999441,-2.31204
544,49.1179,0.995058,-2.31333
544.6,49.1771,0.997859,-2.31466
545.2,49.2363,0.9922,-2.31598
545.8,49.295,0.99556,-2.31598
546.4,49.356,0.981953,-2.31729
547,49.4151,0.991568,-2.31751
547.6,49.4749,0.98891,-2.31814
548.2,49.5337,0.993157,-2.32018
548.8,49.5949,0.984112,-2.32159
549.4,49.6539,0.9862,-2.32168
550,49.7136,0.979743,-2.32294
550.6,49.7738,0.976,-2.32432
551.2,49.8335,0.987756,-2.3257
551.8,49.894,0.979646,-2.32643
552.4,49.9523,0.987357,-2.32657
553,50.0124,0.983121,-2.32794
553.6,50.0727,0.979885,-2.32925
554.2,50.1315,0.977594,-2.3306
554.8,50.1918,0.982138,-2.3319
555.4,50.2517,0.986482,-2.3319
556,50.3113,0.984813,-2.33322
556.6,50.3706,0.988717,-2.33351
557.2,50.4304,0.98757,-2.33476
557.8,50.4908,0.987673,-2.33486
558.4,50.5506,0.979862,-2.33618
559,50.61,0.981606,-2.33619
559.6,50.67,0.986488,-2.33818
560.2,50.7292,0.982924,-2.33816
560.8,50.7892,0.977334,-2.33947
561.4,50.8487,0.972327,-2.34088
562,50.9092,0.977711,-2.34081
562.6,50.9686,0.976243,-2.34211
563.2,51.029,0.977802,-2.34343
563.8,51.0867,0.975259,-2.34477
564.4,51.1485,0.977449,-2.34475
565,51.208,0.973619,-2.34607
565.6,51.2672,0.965309,-2.34741
566.2,51.3268,0.969816,-2.34869
566.8,51.3877,0.963646,-2.34932
567.4,51.4471,0.958978,-2.34874
568,51.507,0.956772,-2.35002
568.6,51.5664,0.952949,-2.35231
569.2,51.6257,0.955052,-2.35322
569.8,51.6854,0.953023,-2.35232
570.4,51.7457,0.955283,-2.35364
571,51.8057,0.956046,-2.35424
571.6,51.8644,0.950572,-2.35496
572.2,51.9235,0.947164,-2.35496
572.8,51.9839,0.943097,-2.35571
573.4,52.0437,0.93669,-2.35567
574,52.1047,0.935142,-2.35736
574.6,52.1635,0.937985,-2.35761
575.2,52.2238,0.941912,-2.35889
575.8,52.283,0.949601,-2.35824
576.4,52.3433,0.944253,-2.35894
577,52.4034,0.932901,-2.36024
577.6,52.4628,0.936632,-2.36151
578.2,52.5228,0.935518,-2.36359
578.8,52.5828,0.931386,-2.36488
579.4,52.6424,0.933099,-2.36484
580,52.7022,0.928793,-2.36484
580.6,52.7615,0.926492,-2.36401
581.2,52.8227,0.926717,-2.36544
581.8,52.8825,0.927061,-2.36615
582.4,52.9421,0.933456,-2.36518
583,53.0022,0.928106,-2.3665
583.6,53.0626,0.927248,-2.3678
584.2,53.1214,0.932667,-2.3684
584.8,53.1817,0.919861,-2.36944
585.4,53.2423,0.931461,-2.37036
586,53.3007,0.937283,-2.37043
586.6,53.3605,0.932899,-2.3708
587.2,53.4185,0.928574,-2.37211
587.8,53.4802,0.928454,-2.37199
588.4,53.5401,0.933036,-2.3734
589,53.6002,0.931027,-2.37471
589.6,53.6601,0.933901,-2.37473
590.2,53.7205,0.924842,-2.37603
590.8,53.7803,0.923709,-2.37603
591.4,53.8401,0.928072,-2.37736
592,53.9004,0.92651,-2.37809
592.6,53.9605,0.917477,-2.37866
593.2,54.021,0.924507,-2.37871
593.8,54.0816,0.923502,-2.37998
594.4,54.1418,0.923461,-2.37998
595,54.201,0.921288,-2.37962
595.6,54.2612,0.922925,-2.37998
596.2,54.3214,0.923475,-2.38063
596.8,54.3804,0.916881,-2.38104
597.4,54.4416,0.919324,-2.38065
598,54.5019,0.915203,-2.38285
598.6,54.5609,0.919761,-2.38327
599.2,54.6214,0.919883,-2.38459
599.8,54.6815,0.91494,-2.38498
600.4,54.7417,0.910906,-2.38492
601,54.8015,0.914505,-2.38589
601.6,54.8617,0.907637,-2.38624
602.2,54.9219,0.901494,-2.38756
602.8,54.9808,0.908729,-2.38764
603.4,55.0417,0.910858,-2.38725
604,55.1019,0.905664,-2.38857
604.6,55.1611,0.904144,-2.38987
605.2,55.2221,0.906229,-2.38982
605.8,55.2812,0.897182,-2.39119
606.4,55.3419,0.894808,-2.39258
607,55.4016,0.900867,-2.39185
607.6,55.4612,0.895814,-2.39283
608.2,55.5208,0.893689,-2.39283
608.8,55.5802,0.899754,-2.39283
609.4,55.6407,0.89244,-2.39283
610,55.7003,0.893551,-2.39414
610.6,55.7615,0.886637,-2.3941
611.2,55.8206,0.881732,-2.39511
611.8,55.8808,0.890095,-2.39513
612.4,55.9405,0.883777,-2.39512
613,56.001,0.882282,-2.39609
613.6,56.0613,0.883424,-2.39612
614.2,56.1212,0.887487,-2.39645
614.8,56.1812,0.885994,-2.39776
615.4,56.2414,0.889209,-2.39777
616,56.301,0.89551,-2.39772
616.6,56.3611,0.888816,-2.39909
617.2,56.4208,0.892327,-2.39905
617.8,56.4805,0.890445,-2.4004
618.4,56.541,0.892652,-2.40136
619,56.6018,0.889463,-2.40174
619.6,56.6613,0.892138,-2.40304
620.2,56.7214,0.889169,-2.40303
620.8,56.7821,0.892093,-2.40457
621.4,56.8417,0.897075,-2.40661
622,56.9021,0.89159,-2.40656
622.6,56.9596,0.892021,-2.40666
623.2,57.0211,0.892802,-2.40666
623.8,57.0816,0.878707,-2.40796
624.4,57.143,0.876121,-2.40798
625,57.2016,0.877017,-2.40716
625.6,57.2614,0.873536,-2.40822
626.2,57.3224,0.881875,-2.4083
626.8,57.3821,0.884987,-2.40963
627.4,57.4422,0.870542,-2.40962
628,57.5018,0.872979,-2.40962
628.6,57.5629,0.875974,-2.41092
629.2,57.623,0.870427,-2.41094
629.8,57.6822,0.870108,-2.41223
630.4,57.7423,0.869199,-2.41192
631,57.8026,0.871074,-2.41334
631.6,57.8607,0.866668,-2.41335
632.2,57.9226,0.866881,-2.41476
632.8,57.9826,0.864872,-2.41336
633.4,58.0429,0.864836,-2.41469
634,58.1022,0.856719,-2.416
634.6,58.1628,0.870931,-2.41478
635.2,58.2226,0.860848,-2.416
635.8,58.2826,0.859621,-2.416
636.4,58.3422,0.857965,-2.4173
637,58.4024,0.860166,-2.41731
637.6,58.4638,0.86295,-2.41842
638.2,58.5237,0.866439,-2.41863
638.8,58.5842,0.855249,-2.41939
639.4,58.643,0.860103,-2.41995
640,58.704,0.865013,-2.41994
640.6,58.7639,0.86171,-2.41996
641.2,58.8243,0.858972,-2.42124
641.8,58.8851,0.858147,-2.42261
642.4,58.9444,0.853766,-2.42262
643,59.0049,0.852098,-2.42258
643.6,59.0652,0.84896,-2.42258
644.2,59.1251,0.84264,-2.42391
644.8,59.1852,0.846536,-2.4239
645.4,59.2453,0.840086,-2.4239
646,59.3055,0.840469,-2.42522
646.6,59.3639,0.824255,-2.42516
647.2,59.4258,0.820915,-2.42653
647.8,59.4861,0.819876,-2.42653
648.4,59.5462,0.811522,-2.4292
649,59.6061,0.81004,-2.42804
649.6,59.6666,0.805867,-2.42785
650.2,59.7265,0.801436,-2.42917
650.8,59.7876,0.800203,-2.42917
651.4,59.8467,0.792354,-2.42985
652,59.906,0.793056,-2.43048
652.6,59.9667,0.7854,-2.42915
653.2,60.0277,0.769412,-2.43048
653.8,60.0878,0.771094,-2.43059
654.4,60.1482,0.766221,-2.43263
655,60.2084,0.766626,-2.43308
655.6,60.2691,0.764291,-2.4331
656.2,60.329,0.75164,-2.43411
656.8,60.3885,0.754477,-2.4341
657.4,60.4488,0.745002,-2.4341
658,60.5096,0.735828,-2.43442
658.6,60.57,0.734857,-2.43575
659.2,60.6303,0.716246,-2.43577
659.8,60.6911,0.721662,-2.43575
660.4,60.7513,0.71052,-2.43576
661,60.8108,0.704792,-2.43642
661.6,60.8714,0.689838,-2.43707
662.2,60.9327,0.685169,-2.43772
662.8,60.9905,0.688892,-2.43904
663.4,61.0525,0.685268,-2.43977
664,61.1132,0.676855,-2.44036
664.6,61.1738,0.669563,-2.44036
665.2,61.2342,0.655763,-2.4414
665.8,61.2947,0.651988,-2.44135
666.4,61.3558,0.651365,-2.44039
667,61.4151,0.640268,-2.44136
667.6,61.4757,0.642125,-2.44165
668.2,61.5362,0.638075,-2.443
668.8,61.5961,0.630901,-2.44299
669.4,61.6566,0.625022,-2.44167
670,61.7144,0.614405,-2.443
670.6,61.7784,0.609966,-2.44399
671.2,61.8383,0.603879,-2.44531
671.8,61.898,0.600803,-2.44535
672.4,61.9599,0.590788,-2.44628
673,62.019,0.592197,-2.44637
673.6,62.0795,0.588351,-2.44692
674.2,62.1395,0.589592,-2.44827
674.8,62.2001,0.583893,-2.44793
675.4,62.2604,0.575039,-2.44831
676,62.32,0.572791,-2.44827
676.6,62.3805,0.567843,-2.44961
677.2,62.4409,0.562842,-2.45062
677.8,62.5008,0.556933,-2.45091
678.4,62.5612,0.552332,-2.45122
679,62.6221,0.548268,-2.45157
679.6,62.6811,0.539001,-2.45354
680.2,62.741,0.5308,-2.45354
680.8,62.8011,0.524451,-2.45354
681.4,62.8611,0.519098,-2.45222
682,62.9218,0.510227,-2.45363
682.6,62.9816,0.512798,-2.45343
683.2,63.042,0.511149,-2.45491
683.8,63.1026,0.50597,-2.45628
684.4,63.1624,0.502271,-2.45538
685,63.2221,0.498004,-2.45661
685.6,63.2825,0.487541,-2.45661
686.2,63.3431,0.49183,-2.45629
686.8,63.403,0.490195,-2.45628
687.4,63.4637,0.479885,-2.45644
688,63.5243,0.480173,-2.4576
688.6,63.583,0.473697,-2.45889
689.2,63.6443,0.473233,-2.45759
689.8,63.704,0.477276,-2.45892
690.4,63.7641,0.470432,-2.45892
691,63.8255,0.464116,-2.45892
691.6,63.8856,0.458426,-2.46024
692.2,63.9462,0.460902,-2.46024
692.8,64.0065,0.461359,-2.46156
693.4,64.0672,0.455235,-2.46156
694,64.1273,0.446185,-2.46029
694.6,64.1876,0.445589,-2.46155
695.2,64.2483,0.438541,-2.46285
695.8,64.3088,0.428567,-2.46287
696.4,64.3687,0.430737,-2.46372
697,64.4295,0.426992,-2.46419
697.6,64.4876,0.42308,-2.46419
698.2,64.5499,0.426254,-2.46419
698.8,64.6103,0.418046,-2.46552
699.4,64.6703,0.412202,-2.46546
700,64.7312,0.403008,-2.46664
700.6,64.7921,0.406809,-2.46675
701.2,64.8529,0.397022,-2.46814
701.8,64.9134,0.396135,-2.46946
702.4,64.9725,0.397807,-2.46943
703,65.0331,0.385024,-2.46979
703.6,65.0933,0.375092,-2.46979
704.2,65.1545,0.373873,-2.46979
704.8,65.2133,0.375877,-2.4711
705.4,65.2755,0.365668,-2.47107
706,65.3347,0.362536,-2.47341
706.6,65.396,0.3586,-2.47308
707.2,65.4556,0.354084,-2.47341
707.8,65.5159,0.350231,-2.47242
708.4,65.5763,0.34162,-2.47373
709,65.6363,0.336207,-2.47405
709.6,65.697,0.333063,-2.47505
710.2,65.7566,0.327858,-2.47505
710.8,65.8175,0.327545,-2.47599
711.4,65.8779,0.322575,-2.47604
712,65.9379,0.313913,-2.47604
712.6,65.9988,0.302237,-2.47699
713.2,66.0591,0.307075,-2.47834
713.8,66.1188,0.300677,-2.47834
714.4,66.1796,0.289381,-2.47768
715,66.2404,0.28217,-2.47901
715.6,66.301,0.277174,-2.47897
716.2,66.3606,0.26792,-2.48033
716.8,66.4215,0.256323,-2.48098
717.4,66.4811,0.244169,-2.48202
718,66.5421,0.226499,-2.4823
718.6,66.603,0.224794,-2.48359
719.2,66.6631,0.217371,-2.48361
719.8,66.7244,0.209163,-2.48381
720.4,66.7851,0.192999,-2.48362
721,66.8449,0.188631,-2.48493
721.6,66.9062,0.172771,-2.48494
722.2,66.9659,0.163134,-2.48556
722.8,67.0272,0.148754,-2.48626
723.4,67.0875,0.146027,-2.48666
724,67.1481,0.139398,-2.48724
724.6,67.2086,0.133015,-2.48753
725.2,67.2689,0.124317,-2.49024
725.8,67.33,0.133055,-2.48952
726.4,67.3911,0.11959,-2.4896
727,67.4509,0.111367,-2.49018
727.6,67.5118,0.109865,-2.49021
728.2,67.5723,0.100244,-2.4916
728.8,67.6331,0.0930158,-2.49152
729.4,67.6929,0.0858355,-2.49151
730,67.7535,0.0814668,-2.49284
730.6,67.8139,0.0763584,-2.49285
731.2,67.8752,0.0688182,-2.49416
731.8,67.9347,0.0626108,-2.49416
732.4,67.9952,0.0574349,-2.49416
733,68.0562,0.0493598,-2.49513
733.6,68.1169,0.0485219,-2.49548
734.2,68.1777,0.050116,-2.49624
734.8,68.2391,0.042358,-2.4958
735.4,68.299,0.038298,-2.49709
736,68.3597,0.0310131,-2.49712
736.6,68.42,0.021354,-2.49712
737.2,68.4804,0.0166411,-2.49842
737.8,68.5415,0.0182002,-2.49852
738.4,68.6011,0.0132738,-2.49943
739,68.6622,0.00892559,-2.49942
739.6,68.7223,-0.00127827,-2.4991
740.2,68.7832,0.00432502,-2.50008
740.8,68.8437,-0.0054371,-2.50008
741.4,68.9046,-0.00799121,-2.50141
742,68.9656,-0.0167448,-2.50133
742.6,69.0257,-0.0201267,-2.50206
743.2,69.0855,-0.0234489,-2.50298
743.8,69.147,-0.0257448,-2.50337
744.4,69.2074,-0.0294993,-2.50337
745,69.2683,-0.0335157,-2.50337
745.6,69.3287,-0.0294312,-2.50334
746.2,69.3896,-0.0355835,-2.50339
746.8,69.4505,-0.0462222,-2.50482
747.4,69.5112,-0.0484853,-2.50503
748,69.571,-0.0630639,-2.50535
748.6,69.6323,-0.0609804,-2.50537
749.2,69.6924,-0.0664544,-2.5063
749.8,69.7533,-0.0732637,-2.50668
750.4,69.8124,-0.0712545,-2.50543
751,69.8741,-0.0748975,-2.50667
751.6,69.9328,-0.080632,-2.50783
752.2,69.996,-0.082137,-2.50799
752.8,70.0565,-0.083743,-2.50936
753.4,70.1167,-0.0862247,-2.50799
754,70.1776,-0.086236,-2.50799
754.6,70.2385,-0.0917097,-2.508
755.2,70.2986,-0.0968388,-2.50935
755.8,70.359,-0.102014,-2.50997
756.4,70.4207,-0.110653,-2.51129
757,70.4812,-0.106612,-2.51128
757.6,70.5419,-0.112746,-2.50998
758.2,70.6024,-0.118822,-2.51129
758.8,70.663,-0.124848,-2.51128
759.4,70.7244,-0.131397,-2.51207
760,70.7834,-0.128354,-2.5126
760.6,70.8446,-0.135368,-2.5126
761.2,70.9053,-0.133867,-2.51285
761.8,70.9668,-0.13587,-2.51392
762.4,71.0262,-0.132645,-2.51392
763,71.0874,-0.144548,-2.51393
763.6,71.1473,-0.136679,-2.51523
764.2,71.2073,-0.151377,-2.5139
764.8,71.2686,-0.155979,-2.51524
765.4,71.3287,-0.144484,-2.51523
766,71.389,-0.151657,-2.51528
766.6,71.4502,-0.156325,-2.51524
767.2,71.5106,-0.153146,-2.51519
767.8,71.5725,-0.15627,-2.51656
768.4,71.632,-0.160024,-2.5174
769,71.6927,-0.157337,-2.51887
769.6,71.7523,-0.164497,-2.51886
770.2,71.8138,-0.162439,-2.51886
770.8,71.8736,-0.162095,-2.51886
771.4,71.9337,-0.168204,-2.51888
772,71.9949,-0.168861,-2.5188
772.6,72.0556,-0.170248,-2.52018
773.2,72.1154,-0.16888,-2.52018
773.8,72.1765,-0.168972,-2.52018
774.4,72.2371,-0.160341,-2.5209
775,72.2971,-0.162723,-2.52147
775.6,72.3584,-0.166599,-2.52281
776.2,72.4185,-0.169364,-2.52281
776.8,72.4802,-0.168203,-2.52416
777.4,72.5393,-0.172678,-2.52509
778,72.6012,-0.168492,-2.5238
778.6,72.6628,-0.177236,-2.5238
779.2,72.7223,-0.16847,-2.52512
779.8,72.7833,-0.173405,-2.52437
780.4,72.8439,-0.162826,-2.52492
781,72.9055,-0.158837,-2.52577
781.6,72.9657,-0.166773,-2.52577
782.2,73.0273,-0.167257,-2.52708
782.8,73.0882,-0.159426,-2.52709
783.4,73.1478,-0.147512,-2.52689
784,73.21,-0.160686,-2.52713
784.6,73.2709,-0.154337,-2.52642
785.2,73.3313,-0.152295,-2.52652
785.8,73.3928,-0.153396,-2.52775
786.4,73.453,-0.15012,-2.52814
787,73.5122,-0.14813,-2.52906
787.6,73.5747,-0.139872,-2.52903
788.2,73.6362,-0.146398,-2.5317
788.8,73.6965,-0.144419,-2.5304
789.4,73.7576,-0.145505,-2.53038
790,73.8171,-0.139625,-2.53038