File: 01_Data/Helmet_Flap/STA/N2/10K_min/Helmet_Flap_STA_N2_10KData_250515_R2.csv
Temp./C,Time/min,DSC/(mW/mg),Mass loss/mg
40.0,0.0,0.907196,-0.0952236
40.6,0.0802266,0.933712,-0.095644
41.2,0.161536,0.96071,-0.0970769
41.8,0.241989,0.980242,-0.0979165
42.4,0.317679,1.00497,-0.0985414
43,0.395931,1.03064,-0.0996621
43.6,0.474885,1.05002,-0.0997189
44.2,0.545104,1.07113,-0.101357
44.8,0.626242,1.09851,-0.101224
45.4,0.697549,1.11875,-0.101649
46,0.77308,1.15024,-0.102631
46.6,0.848399,1.16459,-0.102665
47.2,0.920387,1.1848,-0.103975
47.8,0.994135,1.21503,-0.105143
48.4,1.06481,1.23846,-0.105234
49,1.13693,1.25614,-0.106667
49.6,1.20855,1.28202,-0.107827
50.2,1.27836,1.31232,-0.107933
50.8,1.34934,1.32968,-0.110291
51.4,1.4186,1.34928,-0.110589
52,1.48842,1.3753,-0.110568
52.6,1.55861,1.39522,-0.111859
53.2,1.62708,1.42613,-0.111877
53.8,1.69478,1.44818,-0.113191
54.4,1.76249,1.46891,-0.114508
55,1.83038,1.49406,-0.115828
55.6,1.89858,1.51631,-0.115815
56.2,1.96486,1.55609,-0.117143
56.8,2.03164,1.56036,-0.118407
57.4,2.09881,1.58406,-0.120056
58,2.16403,1.61097,-0.121037
58.6,2.2319,1.62591,-0.12241
59.2,2.29607,1.64552,-0.123774
59.8,2.36087,1.66167,-0.125051
60.4,2.42504,1.68555,-0.126554
61,2.49053,1.70064,-0.126925
61.6,2.55419,1.71642,-0.1279
62.2,2.6175,1.73905,-0.1292
62.8,2.68455,1.75147,-0.130584
63.4,2.74611,1.7609,-0.131635
64,2.80903,1.79042,-0.13295
64.6,2.87382,1.80165,-0.133965
65.2,2.93627,1.81692,-0.134271
65.8,2.9977,1.83164,-0.135596
66.4,3.06174,1.84084,-0.136932
67,3.12448,1.85446,-0.139689
67.6,3.18515,1.86159,-0.140844
68.2,3.24867,1.88238,-0.140837
68.8,3.31225,1.88817,-0.142822
69.4,3.37137,1.89057,-0.144367
70,3.43194,1.89802,-0.144808
70.6,3.4969,1.9039,-0.14612
71.2,3.55712,1.90579,-0.147489
71.8,3.61933,1.92288,-0.147451
72.4,3.68142,1.92907,-0.148738
73,3.7438,1.93489,-0.15139
73.6,3.80329,1.93667,-0.151777
74.2,3.86408,1.93505,-0.15271
74.8,3.92563,1.9468,-0.154146
75.4,3.98329,1.9429,-0.156769
76,4.04605,1.93548,-0.156769
76.6,4.10659,1.93535,-0.158061
77.2,4.16738,1.93945,-0.158103
77.8,4.22987,1.93543,-0.159397
78.4,4.28919,1.93204,-0.160719
79,4.34995,1.92628,-0.160721
79.6,4.41017,1.9265,-0.162036
80.2,4.47138,1.91406,-0.163345
80.8,4.52972,1.91019,-0.16599
81.4,4.58874,1.89911,-0.167316
82,4.64991,1.89481,-0.16731
82.6,4.70908,1.87947,-0.167311
83.2,4.76486,1.87633,-0.168632
83.8,4.82889,1.86781,-0.171232
84.4,4.88714,1.84706,-0.17126
85,4.94635,1.83696,-0.171283
85.6,5.00738,1.82089,-0.173882
86.2,5.06535,1.8127,-0.173891
86.8,5.12443,1.80329,-0.175168
87.4,5.1832,1.79378,-0.176716
88,5.24329,1.77644,-0.17785
88.6,5.3019,1.77058,-0.177809
89.2,5.36068,1.75557,-0.17916
89.8,5.42033,1.74636,-0.17916
90.4,5.47938,1.73217,-0.17982
91,5.53751,1.71751,-0.180475
91.6,5.5957,1.70712,-0.182119
92.2,5.65403,1.6884,-0.18312
92.8,5.71189,1.67965,-0.18312
93.4,5.77048,1.663,-0.18312
94,5.82757,1.64869,-0.183105
94.6,5.88523,1.63437,-0.18443
95.2,5.94513,1.61817,-0.185788
95.8,6.00231,1.60453,-0.185709
96.4,6.06147,1.58932,-0.187069
97,6.11859,1.57023,-0.188213
97.6,6.17696,1.56212,-0.188395
98.2,6.2315,1.54905,-0.189711
98.8,6.29097,1.53441,-0.188215
99.4,6.34976,1.52414,-0.189588
100,6.40708,1.50788,-0.190772
100.6,6.46447,1.49456,-0.192123
101.2,6.52209,1.48161,-0.19223
101.8,6.58066,1.46683,-0.192225
102.4,6.63771,1.45568,-0.193541
103,6.69463,1.44601,-0.193534
103.6,6.75228,1.42531,-0.194211
104.2,6.81004,1.42251,-0.19421
104.8,6.86681,1.40135,-0.195587
105.4,6.92399,1.38264,-0.195594
106,6.98253,1.37891,-0.19684
106.6,7.03995,1.36834,-0.19684
107.2,7.09674,1.35809,-0.196839
107.8,7.15462,1.34785,-0.198182
108.4,7.21212,1.32751,-0.1975
109,7.27024,1.32579,-0.198853
109.6,7.32621,1.30684,-0.19746
110.2,7.3838,1.2935,-0.197494
110.8,7.44164,1.2887,-0.198799
111.4,7.49923,1.28367,-0.19947
112,7.55703,1.27263,-0.199471
112.6,7.61381,1.26331,-0.2008
113.2,7.66785,1.25194,-0.199419
113.8,7.72963,1.23866,-0.19947
114.4,7.78327,1.23,-0.200466
115,7.84415,1.22118,-0.20046
115.6,7.90157,1.21506,-0.200461
116.2,7.95922,1.211,-0.199933
116.8,8.01634,1.19603,-0.2008
117.4,8.07358,1.19672,-0.2008
118,8.13057,1.18791,-0.200811
118.6,8.18762,1.18408,-0.201043
119.2,8.24685,1.1776,-0.20079
119.8,8.30306,1.1694,-0.201163
120.4,8.36096,1.17279,-0.2021
121,8.41745,1.16843,-0.20211
121.6,8.47494,1.17089,-0.202147
122.2,8.53274,1.17204,-0.202187
122.8,8.58993,1.16525,-0.20211
123.4,8.64893,1.16895,-0.20211
124,8.7043,1.1721,-0.200707
124.6,8.76191,1.16296,-0.201026
125.2,8.81999,1.15233,-0.20211
125.8,8.87664,1.14762,-0.20211
126.4,8.93258,1.13576,-0.200757
127,8.98992,1.13061,-0.202106
127.6,9.04672,1.1196,-0.202764
128.2,9.10454,1.11843,-0.20276
128.8,9.1624,1.11965,-0.204429
129.4,9.21846,1.11993,-0.204313
130,9.27507,1.11426,-0.201625
130.6,9.3322,1.1108,-0.20167
131.2,9.38829,1.11,-0.20167
131.8,9.44661,1.1014,-0.203097
132.4,9.50347,1.11186,-0.20299
133,9.56106,1.10896,-0.202978
133.6,9.61799,1.11268,-0.204298
134.2,9.67486,1.11746,-0.202752
134.8,9.73146,1.11248,-0.202936
135.4,9.78824,1.11924,-0.204299
136,9.8461,1.10796,-0.204335
136.6,9.90284,1.1248,-0.202991
137.2,9.95948,1.12129,-0.203344
137.8,10.017,1.12639,-0.20431
138.4,10.0749,1.12796,-0.20431
139,10.1302,1.12332,-0.204925
139.6,10.1879,1.12741,-0.203919
140.2,10.2436,1.13528,-0.20398
140.8,10.3013,1.13133,-0.203988
141.4,10.3588,1.12774,-0.204309
142,10.4149,1.12816,-0.204363
142.6,10.4715,1.1329,-0.20562
143.2,10.529,1.14334,-0.205386
143.8,10.5851,1.14085,-0.204496
144.4,10.6414,1.13681,-0.204293
145,10.6986,1.14536,-0.205587
145.6,10.7546,1.14894,-0.204299
146.2,10.8125,1.14371,-0.204297
146.8,10.8698,1.15542,-0.20532
147.4,10.9254,1.16098,-0.20496
148,10.9825,1.16478,-0.204262
148.6,11.0394,1.16339,-0.20431
149.2,11.0962,1.1716,-0.204325
149.8,11.1528,1.17465,-0.205628
150.4,11.2093,1.18261,-0.206733
151,11.266,1.18447,-0.20563
151.6,11.323,1.17854,-0.20563
152.2,11.3792,1.18146,-0.20563
152.8,11.4364,1.18619,-0.205846
153.4,11.4924,1.18272,-0.20562
154,11.5487,1.18361,-0.20562
154.6,11.6057,1.18957,-0.20562
155.2,11.6622,1.19062,-0.206952
155.8,11.7196,1.19557,-0.206928
156.4,11.7756,1.19451,-0.20562
157,11.8338,1.19793,-0.20562
157.6,11.888,1.19317,-0.205621
158.2,11.9445,1.20365,-0.206602
158.8,12.0019,1.21178,-0.20661
159.4,12.0582,1.20765,-0.206592
160,12.1142,1.20664,-0.205625
160.6,12.1717,1.20997,-0.205945
161.2,12.2287,1.21071,-0.206616
161.8,12.2844,1.21343,-0.20661
162.4,12.3375,1.20787,-0.20661
163,12.3971,1.21133,-0.206981
163.6,12.4531,1.21636,-0.20694
164.2,12.5101,1.22334,-0.208233
164.8,12.567,1.22387,-0.20825
165.4,12.6232,1.22457,-0.208241
166,12.6789,1.23293,-0.208201
166.6,12.7359,1.23006,-0.208315
167.2,12.792,1.23335,-0.206942
167.8,12.8491,1.23457,-0.208266
168.4,12.9067,1.2328,-0.20826
169,12.963,1.24675,-0.208262
169.6,13.0194,1.23589,-0.206938
170.2,13.0763,1.23947,-0.20694
170.8,13.1326,1.2371,-0.20825
171.4,13.1897,1.24081,-0.208288
172,13.2456,1.24734,-0.20958
172.6,13.3021,1.24872,-0.208861
173.2,13.3586,1.2515,-0.20892
173.8,13.4153,1.25421,-0.208128
174.4,13.4713,1.24962,-0.207696
175,13.5277,1.25264,-0.209266
175.6,13.5823,1.24708,-0.20924
176.2,13.6418,1.25356,-0.20924
176.8,13.6973,1.24812,-0.20924
177.4,13.7541,1.25487,-0.209467
178,13.8099,1.25723,-0.210561
178.6,13.867,1.25987,-0.210545
179.2,13.924,1.25556,-0.209236
179.8,13.9805,1.25225,-0.209298
180.4,14.0366,1.25412,-0.210561
181,14.0931,1.25764,-0.210606
181.6,14.1496,1.2531,-0.21056
182.2,14.2062,1.26166,-0.209331
182.8,14.2623,1.26267,-0.211939
183.4,14.3195,1.26056,-0.211928
184,14.375,1.26515,-0.21056
184.6,14.4317,1.26262,-0.21056
185.2,14.4876,1.26649,-0.209911
185.8,14.5434,1.26496,-0.21057
186.4,14.6013,1.27079,-0.21057
187,14.6564,1.26259,-0.212034
187.6,14.713,1.2624,-0.213195
188.2,14.7689,1.25903,-0.211878
188.8,14.8253,1.26691,-0.21188
189.4,14.8828,1.26139,-0.21188
190,14.94,1.26395,-0.21188
190.6,14.9962,1.25846,-0.211902
191.2,15.0519,1.26308,-0.213194
191.8,15.1088,1.26547,-0.2132
192.4,15.1647,1.27012,-0.2132
193,15.2219,1.2608,-0.2132
193.6,15.2778,1.26191,-0.2132
194.2,15.3314,1.26622,-0.2132
194.8,15.391,1.25322,-0.2132
195.4,15.447,1.25114,-0.2132
196,15.5027,1.25611,-0.2132
196.6,15.5596,1.26043,-0.214519
197.2,15.6158,1.26057,-0.21452
197.8,15.6718,1.25605,-0.214515
198.4,15.7276,1.2583,-0.215837
199,15.7838,1.24124,-0.217127
199.6,15.84,1.24133,-0.21715
200.2,15.8977,1.24337,-0.216754
200.8,15.9527,1.24636,-0.21584
201.4,16.0093,1.24988,-0.215853
202,16.0658,1.24893,-0.216489
202.6,16.1225,1.25152,-0.21649
203.2,16.1789,1.24843,-0.21649
203.8,16.2356,1.25382,-0.217175
204.4,16.2914,1.251,-0.217464
205,16.3478,1.25181,-0.2178
205.6,16.4037,1.2432,-0.2178
206.2,16.461,1.24849,-0.2178
206.8,16.5172,1.25028,-0.218931
207.4,16.5732,1.25014,-0.219119
208,16.6306,1.24363,-0.219781
208.6,16.6859,1.24713,-0.219523
209.2,16.7401,1.25156,-0.21945
209.8,16.7995,1.24729,-0.220451
210.4,16.8558,1.24506,-0.221509
211,16.9095,1.23772,-0.221429
211.6,16.9685,1.23659,-0.221756
212.2,17.0253,1.23637,-0.222095
212.8,17.0818,1.2391,-0.223413
213.4,17.1364,1.23822,-0.223528
214,17.1941,1.23096,-0.224731
214.6,17.2506,1.23438,-0.22473
215.2,17.3075,1.22684,-0.22473
215.8,17.3622,1.22689,-0.225506
216.4,17.4198,1.22221,-0.22605
217,17.4765,1.21661,-0.226398
217.6,17.532,1.2172,-0.228342
218.2,17.5888,1.20898,-0.22834
218.8,17.6453,1.21927,-0.22834
219.4,17.7018,1.214,-0.229664
220,17.7574,1.21473,-0.230036
220.6,17.8151,1.21727,-0.23098
221.2,17.871,1.20855,-0.230988
221.8,17.9268,1.20061,-0.231334
222.4,17.9836,1.19437,-0.232621
223,18.0411,1.19076,-0.232982
223.6,18.0978,1.19102,-0.233894
224.2,18.1528,1.18799,-0.23526
224.8,18.2094,1.18571,-0.236531
225.4,18.2662,1.18396,-0.236659
226,18.3227,1.18298,-0.237901
226.6,18.3793,1.17605,-0.239202
227.2,18.436,1.17278,-0.241857
227.8,18.492,1.17117,-0.241827
228.4,18.5487,1.16886,-0.243171
229,18.6054,1.16921,-0.24419
229.6,18.6612,1.15952,-0.24449
230.2,18.7178,1.15833,-0.245826
230.8,18.7745,1.15936,-0.247868
231.4,18.8311,1.15727,-0.248437
232,18.8876,1.14879,-0.249762
232.6,18.9442,1.14861,-0.25112
233.2,19.0011,1.14399,-0.251427
233.8,19.0581,1.14396,-0.252403
234.4,19.1144,1.13989,-0.253713
235,19.1704,1.14701,-0.254497
235.6,19.2287,1.15434,-0.25626
236.2,19.2848,1.15241,-0.257853
236.8,19.3408,1.15235,-0.258972
237.4,19.3986,1.14865,-0.260248
238,19.4552,1.15324,-0.262014
238.6,19.5113,1.14666,-0.265049
239.2,19.5678,1.14825,-0.265695
239.8,19.6238,1.14966,-0.267022
240.4,19.6815,1.15015,-0.26831
241,19.7385,1.14273,-0.269623
241.6,19.7946,1.15372,-0.270959
242.2,19.8517,1.1466,-0.272251
242.8,19.908,1.15654,-0.273579
243.4,19.9659,1.15709,-0.274901
244,20.0222,1.16853,-0.276213
244.6,20.0783,1.16665,-0.278836
245.2,20.1329,1.17103,-0.28016
245.8,20.1911,1.17805,-0.281493
246.4,20.2486,1.17861,-0.282633
247,20.3068,1.17802,-0.283959
247.6,20.3626,1.17995,-0.285564
248.2,20.419,1.19553,-0.287774
248.8,20.4752,1.20239,-0.290496
249.4,20.5328,1.20418,-0.29061
250,20.5898,1.23317,-0.291895
250.6,20.6479,1.25747,-0.29402
251.2,20.7054,1.2825,-0.295443
251.8,20.7622,1.34699,-0.295965
252.4,20.8198,1.43338,-0.297291
253,20.878,1.52839,-0.299425
253.6,20.9362,1.63833,-0.301797
254.2,20.9946,1.76048,-0.303108
254.8,21.0514,1.81775,-0.304435
255.4,21.1083,1.82109,-0.307552
256,21.1633,1.72838,-0.308809
256.6,21.2188,1.61692,-0.310148
257.2,21.2754,1.52635,-0.311343
257.8,21.332,1.47325,-0.312991
258.4,21.3886,1.44838,-0.314286
259,21.4444,1.43312,-0.315604
259.6,21.5011,1.422,-0.316937
260.2,21.5581,1.41872,-0.318212
260.8,21.6156,1.39986,-0.320703
261.4,21.6716,1.3682,-0.322314
262,21.7281,1.3373,-0.323641
262.6,21.7841,1.28953,-0.325988
263.2,21.8409,1.25664,-0.327587
263.8,21.8968,1.21742,-0.329954
264.4,21.9526,1.18966,-0.331914
265,22.0097,1.16957,-0.333195
265.6,22.0666,1.15197,-0.334513
266.2,22.1222,1.13755,-0.33686
266.8,22.1795,1.13511,-0.338899
267.4,22.2359,1.10791,-0.340549
268,22.2927,1.11019,-0.341791
268.6,22.35,1.10518,-0.342598
269.2,22.4068,1.09673,-0.344629
269.8,22.4633,1.08678,-0.348024
270.4,22.5202,1.08347,-0.349458
271,22.5764,1.07046,-0.351265
271.6,22.6335,1.05697,-0.353619
272.2,22.6891,1.04778,-0.356548
272.8,22.7465,1.0342,-0.357951
273.4,22.8028,1.02633,-0.359352
274,22.8598,1.01039,-0.361311
274.6,22.9166,1.00728,-0.363405
275.2,22.9734,0.997715,-0.364816
275.8,23.031,0.983664,-0.366788
276.4,23.0866,0.971064,-0.368786
277,23.1435,0.961222,-0.37336
277.6,23.2,0.944715,-0.373264
278.2,23.2571,0.937866,-0.376419
278.8,23.3137,0.918524,-0.377651
279.4,23.3701,0.911558,-0.378955
280,23.4266,0.900919,-0.381544
280.6,23.4841,0.873098,-0.384746
281.2,23.5417,0.863872,-0.387422
281.8,23.5975,0.845628,-0.388737
282.4,23.6537,0.837438,-0.392129
283,23.7111,0.810067,-0.393365
283.6,23.7684,0.793193,-0.396394
284.2,23.824,0.772823,-0.398805
284.8,23.8807,0.759028,-0.400579
285.4,23.9375,0.739983,-0.40356
286,23.9943,0.712587,-0.404878
286.6,24.0522,0.704629,-0.407741
287.2,24.1083,0.675258,-0.412707
287.8,24.1649,0.654072,-0.415502
288.4,24.2205,0.635568,-0.416948
289,24.2774,0.598937,-0.418623
289.6,24.3344,0.582964,-0.422399
290.2,24.391,0.54808,-0.427254
290.8,24.4474,0.516077,-0.429488
291.4,24.5048,0.478821,-0.431084
292,24.5603,0.439407,-0.433946
292.6,24.6171,0.404125,-0.438704
293.2,24.6744,0.365837,-0.441489
293.8,24.7301,0.31038,-0.444204
294.4,24.7845,0.260438,-0.447837
295,24.8437,0.205385,-0.45107
295.6,24.8999,0.144502,-0.454581
296.2,24.9554,0.0674775,-0.457974
296.8,25.012,0.00151049,-0.463078
297.4,25.0674,-0.0697014,-0.469292
298,25.1238,-0.161372,-0.473291
298.6,25.1803,-0.245629,-0.479209
299.2,25.2354,-0.341064,-0.483897
299.8,25.2916,-0.446291,-0.489897
300.4,25.3473,-0.576029,-0.496747
301,25.4003,-0.683592,-0.50393
301.6,25.4582,-0.817619,-0.510778
302.2,25.5135,-0.963609,-0.520597
302.8,25.5694,-1.09737,-0.530901
303.4,25.6247,-1.24541,-0.542171
304,25.6798,-1.37929,-0.55411
304.6,25.7353,-1.50444,-0.567519
305.2,25.7895,-1.61167,-0.58448
305.8,25.8474,-1.69342,-0.602137
306.4,25.9043,-1.73017,-0.623401
307,25.961,-1.73648,-0.646322
307.6,26.0181,-1.72125,-0.671844
308.2,26.0755,-1.6476,-0.699798
308.8,26.134,-1.55899,-0.729434
309.4,26.1919,-1.44268,-0.760895
310,26.2496,-1.31702,-0.791573
310.6,26.3078,-1.18338,-0.825767
311.2,26.3668,-1.04546,-0.858583
311.8,26.4257,-0.917722,-0.894118
312.4,26.4845,-0.79028,-0.926959
313,26.5418,-0.685447,-0.959693
313.6,26.6013,-0.590633,-0.994519
314.2,26.6587,-0.497664,-1.02806
314.8,26.7165,-0.429887,-1.06241
315.4,26.7746,-0.378514,-1.09501
316,26.8331,-0.304195,-1.12984
316.6,26.8911,-0.262559,-1.15989
317.2,26.9494,-0.221841,-1.19503
317.8,27.0071,-0.186751,-1.22538
318.4,27.0647,-0.141139,-1.2575
319,27.1224,-0.110929,-1.28833
319.6,27.1803,-0.0791059,-1.31795
320.2,27.2378,-0.0453836,-1.34734
320.8,27.2957,-0.0127193,-1.37539
321.4,27.354,0.0327535,-1.40384
322,27.4108,0.070128,-1.42834
322.6,27.4683,0.12417,-1.45306
323.2,27.5265,0.185067,-1.47516
323.8,27.5853,0.243389,-1.49621
324.4,27.6439,0.317246,-1.51685
325,27.7021,0.391398,-1.53481
325.6,27.7595,0.45425,-1.55067
326.2,27.8177,0.519187,-1.56326
326.8,27.8765,0.582266,-1.57697
327.4,27.9348,0.651977,-1.58706
328,27.9925,0.710679,-1.59639
328.6,28.0509,0.768653,-1.60491
329.2,28.1091,0.803602,-1.61131
329.8,28.1678,0.849435,-1.61747
330.4,28.2254,0.870789,-1.62272
331,28.2826,0.88898,-1.62743
331.6,28.3393,0.925009,-1.63202
332.2,28.3992,0.927298,-1.63622
332.8,28.4568,0.931638,-1.64026
333.4,28.5147,0.932481,-1.64264
334,28.5688,0.934643,-1.64526
334.6,28.6292,0.920117,-1.64848
335.2,28.6869,0.913235,-1.65155
335.8,28.7448,0.905793,-1.65268
336.4,28.8016,0.893191,-1.65589
337,28.8595,0.877092,-1.65711
337.6,28.9181,0.873444,-1.6601
338.2,28.9746,0.86115,-1.66313
338.8,29.0319,0.851276,-1.66486
339.4,29.0903,0.841873,-1.66647
340,29.1459,0.831958,-1.67033
340.6,29.2044,0.828333,-1.67296
341.2,29.2612,0.815935,-1.6745
341.8,29.3181,0.808876,-1.6762
342.4,29.3767,0.811166,-1.67885
343,29.4348,0.798938,-1.68093
343.6,29.4921,0.795338,-1.68319
344.2,29.55,0.802101,-1.6845
344.8,29.6072,0.790554,-1.68571
345.4,29.6647,0.784745,-1.68869
346,29.7215,0.787785,-1.69049
346.6,29.7798,0.784426,-1.6927
347.2,29.8377,0.785443,-1.69427
347.8,29.8927,0.776632,-1.69717
348.4,29.9526,0.77295,-1.69856
349,30.0101,0.768121,-1.69987
349.6,30.0686,0.768199,-1.70164
350.2,30.1259,0.759936,-1.70431
350.8,30.1837,0.76254,-1.70619
351.4,30.2417,0.755422,-1.70985
352,30.2994,0.759462,-1.71281
352.6,30.3565,0.753932,-1.71415
353.2,30.4149,0.757207,-1.71483
353.8,30.4721,0.74931,-1.71711
354.4,30.5294,0.751564,-1.72129
355,30.5872,0.750811,-1.72268
355.6,30.6456,0.745367,-1.72543
356.2,30.7033,0.748461,-1.72664
356.8,30.7614,0.747201,-1.72923
357.4,30.8202,0.742846,-1.73082
358,30.8776,0.74903,-1.73247
358.6,30.9344,0.745385,-1.73432
359.2,30.9931,0.750473,-1.737
359.8,31.0508,0.751831,-1.7383
360.4,31.1089,0.757055,-1.74115
361,31.1664,0.745223,-1.74297
361.6,31.2234,0.758328,-1.74575
362.2,31.2822,0.748081,-1.74869
362.8,31.3404,0.749878,-1.75004
363.4,31.3978,0.762021,-1.75309
364,31.4556,0.758389,-1.75541
364.6,31.5143,0.761052,-1.7585
365.2,31.5714,0.763339,-1.75995
365.8,31.63,0.758404,-1.76299
366.4,31.687,0.772659,-1.76544
367,31.7457,0.775649,-1.76661
367.6,31.8006,0.781029,-1.76847
368.2,31.8622,0.779683,-1.7711
368.8,31.9197,0.780719,-1.77432
369.4,31.9775,0.781926,-1.77698
370,32.0363,0.785688,-1.77972
370.6,32.094,0.796008,-1.78237
371.2,32.1514,0.79046,-1.78433
371.8,32.2104,0.80063,-1.78716
372.4,32.268,0.803189,-1.79025
373,32.3263,0.812281,-1.79269
373.6,32.3824,0.81527,-1.79562
374.2,32.4415,0.830258,-1.79845
374.8,32.4999,0.827933,-1.80173
375.4,32.5578,0.83379,-1.80326
376,32.6167,0.838605,-1.80728
376.6,32.672,0.837898,-1.80968
377.2,32.7326,0.849459,-1.8121
377.8,32.7911,0.854083,-1.8134
378.4,32.8498,0.855326,-1.81691
379,32.9081,0.862556,-1.82024
379.6,32.9647,0.865656,-1.82284
380.2,33.0237,0.871776,-1.82609
380.8,33.0817,0.87525,-1.82818
381.4,33.1404,0.88483,-1.83211
382,33.1981,0.893444,-1.83298
382.6,33.2556,0.892423,-1.83553
383.2,33.3138,0.90057,-1.83908
383.8,33.3723,0.898371,-1.84296
384.4,33.4297,0.905893,-1.84517
385,33.4892,0.908499,-1.84817
385.6,33.5462,0.917432,-1.84988
386.2,33.6052,0.913523,-1.85313
386.8,33.6632,0.913955,-1.85659
387.4,33.7217,0.918208,-1.86084
388,33.7801,0.913793,-1.86382
388.6,33.8382,0.921275,-1.86531
389.2,33.8959,0.921927,-1.86714
389.8,33.9547,0.919587,-1.87025
390.4,34.0125,0.9263,-1.87328
391,34.0714,0.923551,-1.87624
391.6,34.1271,0.924301,-1.87864
392.2,34.188,0.92242,-1.88261
392.8,34.246,0.926251,-1.88491
393.4,34.3043,0.933187,-1.88624
394,34.3631,0.929571,-1.88915
394.6,34.4212,0.932418,-1.89247
395.2,34.4789,0.928285,-1.89446
395.8,34.5373,0.932661,-1.89685
396.4,34.5961,0.929016,-1.89967
397,34.6543,0.925043,-1.90296
397.6,34.7127,0.923494,-1.90556
398.2,34.7707,0.931899,-1.9079
398.8,34.829,0.92605,-1.90992
399.4,34.888,0.923764,-1.91364
400,34.9465,0.925489,-1.91569
400.6,35.0046,0.926229,-1.9182
401.2,35.0625,0.926977,-1.92136
401.8,35.1215,0.930017,-1.92147
402.4,35.1797,0.929536,-1.92442
403,35.2377,0.92572,-1.92774
403.6,35.2969,0.922091,-1.92895
404.2,35.3553,0.924738,-1.93117
404.8,35.4121,0.920029,-1.9336
405.4,35.4685,0.915645,-1.937
406,35.5303,0.921338,-1.93998
406.6,35.5888,0.916403,-1.94291
407.2,35.6464,0.91219,-1.94515
407.8,35.7049,0.912941,-1.94753
408.4,35.763,0.915433,-1.94904
409,35.8214,0.903686,-1.95192
409.6,35.8801,0.906327,-1.95512
410.2,35.9391,0.90673,-1.9564
410.8,35.997,0.897133,-1.95925
411.4,36.0566,0.894956,-1.96038
412,36.114,0.894007,-1.96378
412.6,36.1724,0.893536,-1.966
413.2,36.2313,0.890982,-1.96796
413.8,36.2898,0.884364,-1.97084
414.4,36.3478,0.878121,-1.97274
415,36.4065,0.871127,-1.97524
415.6,36.4655,0.868389,-1.97786
416.2,36.5238,0.870206,-1.97958
416.8,36.5822,0.864234,-1.98225
417.4,36.6407,0.863362,-1.98617
418,36.6984,0.861161,-1.98815
418.6,36.7584,0.856149,-1.99061
419.2,36.8165,0.850317,-1.9924
419.8,36.8748,0.848535,-1.99502
420.4,36.9338,0.839148,-1.997
421,36.9918,0.83997,-2.00044
421.6,37.0504,0.828625,-2.00194
422.2,37.1093,0.825298,-2.00346
422.8,37.1672,0.817025,-2.00646
423.4,37.2267,0.817387,-2.00917
424,37.2848,0.817996,-2.01137
424.6,37.3441,0.813025,-2.01409
425.2,37.402,0.802872,-2.01681
425.8,37.46,0.797909,-2.02111
426.4,37.5181,0.790766,-2.02279
427,37.5779,0.793354,-2.02561
427.6,37.6359,0.786567,-2.02838
428.2,37.6951,0.784674,-2.03032
428.8,37.7531,0.782261,-2.03301
429.4,37.8123,0.78044,-2.03402
430,37.8711,0.772172,-2.03691
430.6,37.9292,0.763192,-2.03873
431.2,37.9881,0.759267,-2.04197
431.8,38.0457,0.758579,-2.04543
432.4,38.1053,0.752786,-2.04765
433,38.1643,0.749704,-2.05018
433.6,38.2219,0.753503,-2.05151
434.2,38.2805,0.747394,-2.05467
434.8,38.3392,0.748924,-2.05652
435.4,38.3979,0.749144,-2.05878
436,38.457,0.737999,-2.06336
436.6,38.5153,0.743103,-2.06589
437.2,38.5739,0.740233,-2.0667
437.8,38.6323,0.737298,-2.06947
438.4,38.6909,0.736755,-2.07194
439,38.75,0.741236,-2.07486
439.6,38.8085,0.737446,-2.07801
440.2,38.867,0.739669,-2.07796
440.8,38.9255,0.742858,-2.08085
441.4,38.9848,0.738817,-2.08301
442,39.0428,0.739614,-2.0855
442.6,39.1016,0.737095,-2.08896
443.2,39.1604,0.742576,-2.09188
443.8,39.2196,0.740861,-2.09316
444.4,39.2783,0.740554,-2.09582
445,39.3375,0.740632,-2.09708
445.6,39.3948,0.742138,-2.09863
446.2,39.4539,0.740716,-2.10144
446.8,39.5144,0.742635,-2.10421
447.4,39.5708,0.749252,-2.10564
448,39.632,0.751391,-2.10956
448.6,39.6897,0.749062,-2.11178
449.2,39.7484,0.745029,-2.11366
449.8,39.8076,0.746963,-2.11691
450.4,39.8671,0.749121,-2.1196
451,39.9251,0.74647,-2.1214
451.6,39.985,0.748146,-2.12248
452.2,40.0435,0.740037,-2.12538
452.8,40.1017,0.737724,-2.12712
453.4,40.1606,0.745305,-2.12956
454,40.2204,0.74818,-2.13217
454.6,40.279,0.754695,-2.13352
455.2,40.3374,0.742277,-2.13519
455.8,40.3971,0.744169,-2.1382
456.4,40.4538,0.749825,-2.14038
457,40.5141,0.746586,-2.14207
457.6,40.5729,0.745234,-2.14409
458.2,40.6322,0.754389,-2.14546
458.8,40.6913,0.751323,-2.14717
459.4,40.7503,0.756306,-2.15067
460,40.8087,0.759818,-2.15231
460.6,40.8678,0.760452,-2.15523
461.2,40.927,0.760052,-2.15772
461.8,40.9854,0.756896,-2.15957
462.4,41.0449,0.760787,-2.1613
463,41.1012,0.764332,-2.1633
463.6,41.1622,0.768698,-2.1637
464.2,41.2206,0.770944,-2.16788
464.8,41.2804,0.77295,-2.16919
465.4,41.3403,0.771038,-2.17113
466,41.3986,0.77445,-2.17199
466.6,41.4571,0.763972,-2.17346
467.2,41.5168,0.77666,-2.17605
467.8,41.5752,0.779469,-2.17745
468.4,41.6343,0.781595,-2.17876
469,41.6937,0.78097,-2.18157
469.6,41.752,0.785983,-2.18532
470.2,41.8104,0.790673,-2.18666
470.8,41.8691,0.785782,-2.18797
471.4,41.9292,0.790431,-2.19094
472,41.9881,0.798415,-2.19236
472.6,42.0466,0.793654,-2.19423
473.2,42.1041,0.793023,-2.19643
473.8,42.1647,0.798556,-2.19779
474.4,42.2241,0.799486,-2.20062
475,42.283,0.801727,-2.20097
475.6,42.3422,0.804443,-2.20236
476.2,42.4024,0.811369,-2.20363
476.8,42.46,0.81554,-2.20488
477.4,42.5194,0.816137,-2.20838
478,42.5784,0.826304,-2.20991
478.6,42.6376,0.821445,-2.21124
479.2,42.6954,0.815838,-2.21298
479.8,42.755,0.827938,-2.21538
480.4,42.8135,0.825811,-2.21663
481,42.8726,0.834281,-2.21802
481.6,42.9306,0.831024,-2.21925
482.2,42.9912,0.834244,-2.22093
482.8,43.0501,0.842032,-2.22333
483.4,43.1094,0.840216,-2.22453
484,43.1683,0.840441,-2.22597
484.6,43.2277,0.844329,-2.22727
485.2,43.2875,0.849516,-2.2289
485.8,43.3456,0.850299,-2.23158
486.4,43.4051,0.857113,-2.23238
487,43.4641,0.858983,-2.23358
487.6,43.5243,0.856725,-2.23491
488.2,43.5824,0.861669,-2.23606
488.8,43.6431,0.867076,-2.23798
489.4,43.7017,0.865053,-2.23933
490,43.7613,0.866415,-2.24065
490.6,43.8211,0.872887,-2.24133
491.2,43.8802,0.878937,-2.24374
491.8,43.9394,0.879249,-2.24505
492.4,43.9988,0.881337,-2.24769
493,44.058,0.887105,-2.2484
493.6,44.1174,0.889235,-2.24902
494.2,44.1772,0.893543,-2.25068
494.8,44.2366,0.892898,-2.25316
495.4,44.2961,0.897125,-2.25439
496,44.3557,0.897198,-2.2558
496.6,44.4144,0.902522,-2.25692
497.2,44.4738,0.904853,-2.25832
497.8,44.533,0.905359,-2.25961
498.4,44.5924,0.906195,-2.26097
499,44.6512,0.903938,-2.26328
499.6,44.7118,0.906873,-2.26459
500.2,44.7711,0.90053,-2.26488
500.8,44.8303,0.911638,-2.26624
501.4,44.8886,0.91342,-2.26755
502,44.9482,0.914682,-2.26887
502.6,45.0082,0.91773,-2.27019
503.2,45.0676,0.917233,-2.27189
503.8,45.1257,0.921812,-2.27415
504.4,45.1864,0.898433,-2.27466
505,45.2451,0.890709,-2.27583
505.6,45.3042,0.885351,-2.27694
506.2,45.3633,0.90643,-2.2778
506.8,45.4232,0.917997,-2.27907
507.4,45.4826,0.920601,-2.28042
508,45.5416,0.921626,-2.28139
508.6,45.6012,0.926941,-2.28307
509.2,45.6591,0.931589,-2.28402
509.8,45.7197,0.945962,-2.28536
510.4,45.7806,0.934419,-2.28568
511,45.8389,0.938488,-2.28699
511.6,45.8985,0.937296,-2.2895
512.2,45.9578,0.940069,-2.29072
512.8,46.0171,0.944107,-2.29239
513.4,46.0769,0.944455,-2.29367
514,46.1332,0.946075,-2.29372
514.6,46.1949,0.948181,-2.29503
515.2,46.2536,0.948325,-2.29619
515.8,46.3149,0.95271,-2.30005
516.4,46.3742,0.962693,-2.29908
517,46.4335,0.952405,-2.30037
517.6,46.4926,0.954897,-2.30277
518.2,46.5518,0.955688,-2.30437
518.8,46.6116,0.959087,-2.30606
519.4,46.6707,0.95843,-2.30633
520,46.7298,0.965769,-2.30689
520.6,46.7893,0.962289,-2.30816
521.2,46.8491,0.965952,-2.30895
521.8,46.9077,0.965142,-2.30967
522.4,46.968,0.964925,-2.31244
523,47.0278,0.965435,-2.3133
523.6,47.0874,0.967256,-2.31465
524.2,47.146,0.966955,-2.31593
524.8,47.2069,0.96866,-2.31763
525.4,47.2648,0.97361,-2.31881
526,47.3254,0.967124,-2.31985
526.6,47.3841,0.970177,-2.32127
527.2,47.4443,0.968632,-2.32254
527.8,47.504,0.968033,-2.32357
528.4,47.5627,0.970991,-2.32454
529,47.6225,0.97095,-2.32587
529.6,47.6823,0.97693,-2.32455
530.2,47.7408,0.969896,-2.32619
530.8,47.8008,0.976873,-2.32914
531.4,47.8596,0.975933,-2.33038
532,47.9194,0.980821,-2.3305
532.6,47.9788,0.975907,-2.33245
533.2,48.0381,0.965017,-2.33366
533.8,48.0978,0.976576,-2.33521
534.4,48.157,0.975907,-2.33541
535,48.2162,0.980328,-2.33638
535.6,48.2759,0.972962,-2.33773
536.2,48.3362,0.971508,-2.34036
536.8,48.3954,0.969274,-2.34168
537.4,48.4552,0.953901,-2.34299
538,48.5145,0.949535,-2.34375
538.6,48.5732,0.969039,-2.34356
539.2,48.6331,0.967171,-2.34571
539.8,48.6929,0.957807,-2.34697
540.4,48.7533,0.947756,-2.3491
541,48.8116,0.956018,-2.35028
541.6,48.8714,0.965344,-2.35056
542.2,48.933,0.962249,-2.35191
542.8,48.9914,0.964222,-2.35187
543.4,49.0511,0.955831,-2.35418
544,49.1105,0.964503,-2.35321
544.6,49.1712,0.960909,-2.35451
545.2,49.2301,0.955815,-2.35582
545.8,49.2894,0.961886,-2.35715
546.4,49.35,0.963899,-2.35846
547,49.4096,0.962304,-2.35977
547.6,49.469,0.956198,-2.36058
548.2,49.5279,0.949733,-2.36109
548.8,49.5883,0.951094,-2.36241
549.4,49.647,0.946875,-2.36233
550,49.706,0.954427,-2.36375
550.6,49.7646,0.942087,-2.36505
551.2,49.8265,0.937324,-2.36637
551.8,49.886,0.940765,-2.36743
552.4,49.9461,0.930962,-2.36768
553,50.0052,0.933201,-2.36902
553.6,50.0648,0.943323,-2.37033
554.2,50.1257,0.935406,-2.37164
554.8,50.1846,0.933885,-2.37163
555.4,50.2443,0.928805,-2.37295
556,50.3037,0.912908,-2.37424
556.6,50.3638,0.917668,-2.37491
557.2,50.4235,0.912736,-2.37559
557.8,50.4828,0.911645,-2.3769
558.4,50.5409,0.908882,-2.37822
559,50.6032,0.916267,-2.37937
559.6,50.6627,0.915182,-2.37921
560.2,50.723,0.920249,-2.37919
560.8,50.7822,0.91672,-2.37986
561.4,50.8413,0.912469,-2.38118
562,50.9022,0.903752,-2.38116
562.6,50.9614,0.89506,-2.38353
563.2,51.0206,0.896001,-2.38481
563.8,51.0813,0.91072,-2.38613
564.4,51.139,0.900679,-2.38743
565,51.2003,0.902539,-2.38612
565.6,51.2606,0.898551,-2.38612
566.2,51.32,0.893914,-2.38741
566.8,51.3795,0.886165,-2.38741
567.4,51.4403,0.891145,-2.38905
568,51.5001,0.883337,-2.39007
568.6,51.5598,0.878477,-2.39104
569.2,51.6189,0.890754,-2.39225
569.8,51.6793,0.89105,-2.39403
570.4,51.7388,0.874089,-2.39502
571,51.7985,0.876344,-2.39534
571.6,51.8586,0.870234,-2.39568
572.2,51.9188,0.8782,-2.39689
572.8,51.9781,0.882338,-2.39744
573.4,52.0376,0.873478,-2.39831
574,52.099,0.86962,-2.39831
574.6,52.1585,0.875121,-2.39969
575.2,52.2178,0.876601,-2.39923
575.8,52.2793,0.872833,-2.40061
576.4,52.3383,0.86914,-2.40061
577,52.3978,0.872431,-2.40195
577.6,52.457,0.863165,-2.40325
578.2,52.5181,0.861032,-2.4032
578.8,52.5784,0.855746,-2.40457
579.4,52.6384,0.830366,-2.40562
580,52.6992,0.85074,-2.40588
580.6,52.7579,0.852089,-2.40628
581.2,52.8183,0.844295,-2.40589
581.8,52.8767,0.842661,-2.40589
582.4,52.938,0.825191,-2.40721
583,52.9973,0.835308,-2.40905
583.6,53.0572,0.843295,-2.40985
584.2,53.1178,0.840299,-2.41115
584.8,53.1777,0.832531,-2.40984
585.4,53.2381,0.835075,-2.41116
586,53.2973,0.832735,-2.41116
586.6,53.3578,0.834538,-2.41254
587.2,53.4174,0.832882,-2.4125
587.8,53.4766,0.827551,-2.41381
588.4,53.5372,0.827786,-2.41511
589,53.598,0.832593,-2.41639
589.6,53.6571,0.826727,-2.41643
590.2,53.7176,0.829071,-2.41643
590.8,53.7778,0.817536,-2.4176
591.4,53.8371,0.82274,-2.41775
592,53.897,0.820217,-2.4181
592.6,53.957,0.822968,-2.41898
593.2,54.0173,0.8207,-2.41937
593.8,54.0774,0.815228,-2.42079
594.4,54.1376,0.813984,-2.42072
595,54.1979,0.819068,-2.42203
595.6,54.2576,0.809815,-2.42195
596.2,54.3174,0.813238,-2.42479
596.8,54.3773,0.811867,-2.42388
597.4,54.4376,0.81389,-2.42465
598,54.4979,0.810637,-2.42466
598.6,54.5592,0.812357,-2.42565
599.2,54.6179,0.810894,-2.42589
599.8,54.6786,0.815004,-2.42591
600.4,54.738,0.814775,-2.4273
601,54.7994,0.81478,-2.42814
601.6,54.8584,0.821291,-2.4287
602.2,54.9166,0.810742,-2.42823
602.8,54.978,0.811567,-2.42861
603.4,55.0385,0.810121,-2.43114
604,55.0988,0.81063,-2.4324
604.6,55.1583,0.806795,-2.43256
605.2,55.2182,0.808044,-2.43548
605.8,55.2795,0.803669,-2.43681
606.4,55.3382,0.809698,-2.43544
607,55.3997,0.810162,-2.43673
607.6,55.4583,0.804785,-2.43673
608.2,55.5186,0.797346,-2.43688
608.8,55.5798,0.799168,-2.43905
609.4,55.6378,0.806115,-2.43949
610,55.6992,0.801953,-2.4408
610.6,55.759,0.801615,-2.4408
611.2,55.8197,0.794662,-2.43971
611.8,55.8794,0.800571,-2.44079
612.4,55.9393,0.797001,-2.44232
613,55.9991,0.791953,-2.44343
613.6,56.0601,0.789155,-2.44308
614.2,56.1197,0.788222,-2.44385
614.8,56.1794,0.787977,-2.44343
615.4,56.2399,0.784027,-2.44475
616,56.2984,0.782127,-2.44475
616.6,56.3605,0.776254,-2.44605
617.2,56.4196,0.777174,-2.44711
617.8,56.4809,0.774663,-2.44837
618.4,56.5404,0.776395,-2.44835
619,56.6016,0.778737,-2.44705
619.6,56.6612,0.769453,-2.44705
620.2,56.721,0.774999,-2.44772
620.8,56.7806,0.770722,-2.44837
621.4,56.8419,0.777175,-2.44969
622,56.9017,0.762281,-2.45009
622.6,56.9615,0.762948,-2.451
623.2,57.0228,0.75414,-2.45232
623.8,57.0823,0.758179,-2.45237
624.4,57.1425,0.764936,-2.45364
625,57.2027,0.753648,-2.45382
625.6,57.2609,0.746347,-2.45364
626.2,57.3235,0.750735,-2.45364
626.8,57.3832,0.746367,-2.45493
627.4,57.4442,0.748246,-2.45493
628,57.5043,0.738297,-2.45628
628.6,57.5646,0.741145,-2.45628
629.2,57.6249,0.732644,-2.45628
629.8,57.685,0.734862,-2.45756
630.4,57.7459,0.733034,-2.45891
631,57.8059,0.73336,-2.45891
631.6,57.8673,0.735045,-2.45891
632.2,57.9266,0.730081,-2.45946
632.8,57.9862,0.723467,-2.46023
633.4,58.0476,0.727752,-2.46154
634,58.1082,0.714855,-2.46153
634.6,58.168,0.718895,-2.46115
635.2,58.2283,0.714168,-2.46188
635.8,58.2887,0.71438,-2.46188
636.4,58.3476,0.714673,-2.46304
637,58.4094,0.711429,-2.46403
637.6,58.469,0.709442,-2.46451
638.2,58.5287,0.705009,-2.46451
638.8,58.5898,0.696182,-2.46676
639.4,58.6493,0.694058,-2.46681
640,58.7096,0.688176,-2.46814
640.6,58.7688,0.695899,-2.46814
641.2,58.8301,0.68921,-2.46814
641.8,58.8901,0.689917,-2.46808
642.4,58.9505,0.683817,-2.46944
643,59.0109,0.675134,-2.46945
643.6,59.0712,0.671301,-2.46945
644.2,59.1296,0.671166,-2.47071
644.8,59.1915,0.67796,-2.47116
645.4,59.2516,0.674654,-2.47209
646,59.3113,0.666675,-2.47209
646.6,59.3714,0.663765,-2.4734
647.2,59.433,0.658191,-2.4734
647.8,59.4928,0.660071,-2.47349
648.4,59.5523,0.657821,-2.47277
649,59.6129,0.659544,-2.4736
649.6,59.6727,0.647478,-2.47604
650.2,59.7329,0.641881,-2.4762
650.8,59.7933,0.628524,-2.47735
651.4,59.8535,0.637872,-2.47798
652,59.914,0.621197,-2.47801
652.6,59.9746,0.627919,-2.47769
653.2,60.0353,0.61725,-2.47804
653.8,60.0954,0.61757,-2.47866
654.4,60.1561,0.61295,-2.47759
655,60.2158,0.612416,-2.47926
655.6,60.2757,0.609051,-2.48036
656.2,60.3372,0.606773,-2.48294
656.8,60.3968,0.598195,-2.48152
657.4,60.4565,0.601198,-2.48148
658,60.5166,0.603012,-2.48151
658.6,60.5765,0.594582,-2.48283
659.2,60.6377,0.59452,-2.48284
659.8,60.6977,0.590594,-2.48331
660.4,60.7576,0.586215,-2.48551
661,60.8186,0.585472,-2.4855
661.6,60.8792,0.582895,-2.48416
662.2,60.9391,0.583462,-2.48547
662.8,60.9993,0.581252,-2.48633
663.4,61.059,0.573043,-2.48643
664,61.119,0.572699,-2.48679
664.6,61.1797,0.568868,-2.48845
665.2,61.2385,0.561637,-2.48877
665.8,61.3005,0.565195,-2.49009
666.4,61.3616,0.557149,-2.49009
667,61.421,0.559249,-2.4914
667.6,61.4809,0.554537,-2.49009
668.2,61.5415,0.554798,-2.49009
668.8,61.6017,0.544534,-2.49143
669.4,61.6599,0.539521,-2.49141
670,61.7227,0.544546,-2.49277
670.6,61.7835,0.535149,-2.49174
671.2,61.8422,0.544642,-2.49175
671.8,61.9034,0.532346,-2.49306
672.4,61.9636,0.521343,-2.49306
673,62.023,0.525947,-2.49533
673.6,62.0837,0.517401,-2.49569
674.2,62.144,0.518337,-2.49705
674.8,62.2046,0.510565,-2.49626
675.4,62.2658,0.511,-2.49765
676,62.3257,0.508498,-2.49767
676.6,62.3869,0.506334,-2.49694
677.2,62.4468,0.499393,-2.49694
677.8,62.5073,0.489835,-2.49701
678.4,62.5682,0.487673,-2.49873
679,62.6278,0.483425,-2.49964
679.6,62.6888,0.483407,-2.5008
680.2,62.7497,0.473668,-2.50022
680.8,62.8091,0.478761,-2.49964
681.4,62.8678,0.477377,-2.50097
682,62.9303,0.472475,-2.50096
682.6,62.9899,0.466741,-2.50227
683.2,63.0505,0.465368,-2.50291
683.8,63.1111,0.457061,-2.50359
684.4,63.1694,0.459147,-2.5049
685,63.2326,0.457154,-2.50491
685.6,63.2918,0.448492,-2.50491
686.2,63.3522,0.445803,-2.50491
686.8,63.4125,0.439012,-2.50623
687.4,63.4732,0.435245,-2.50492
688,63.5339,0.428144,-2.50492
688.6,63.5936,0.420742,-2.50622
689.2,63.6522,0.422696,-2.50753
689.8,63.7145,0.415989,-2.50754
690.4,63.7749,0.418704,-2.50827
691,63.8348,0.414589,-2.50886
691.6,63.8948,0.411296,-2.50886
692.2,63.9557,0.406943,-2.50887
692.8,64.0161,0.402457,-2.51017
693.4,64.0764,0.404534,-2.51031
694,64.1372,0.399178,-2.51041
694.6,64.197,0.404801,-2.51081
695.2,64.2563,0.395379,-2.5115
695.8,64.3179,0.3899,-2.51161
696.4,64.3779,0.398047,-2.51389
697,64.4385,0.395837,-2.51301
697.6,64.4995,0.392156,-2.51368
698.2,64.5597,0.385686,-2.51414
698.8,64.6202,0.379028,-2.51545
699.4,64.6801,0.36921,-2.51545
700,64.7407,0.378104,-2.51524
700.6,64.8014,0.375045,-2.51578
701.2,64.862,0.376947,-2.51578
701.8,64.9228,0.370896,-2.5171
702.4,64.9827,0.360094,-2.5171
703,65.0433,0.370618,-2.51842
703.6,65.1041,0.371595,-2.51842
704.2,65.1645,0.365988,-2.51941
704.8,65.2257,0.354984,-2.52069
705.4,65.2853,0.353372,-2.51976
706,65.3465,0.34512,-2.52095
706.6,65.4072,0.348858,-2.52105
707.2,65.4678,0.348324,-2.5217
707.8,65.5283,0.346589,-2.52171
708.4,65.5865,0.338133,-2.52171
709,65.649,0.332681,-2.52305
709.6,65.7098,0.327866,-2.52303
710.2,65.7691,0.325124,-2.52434
710.8,65.8298,0.318774,-2.52434
711.4,65.891,0.313277,-2.52535
712,65.9516,0.311312,-2.52566
712.6,66.0124,0.314857,-2.52645
713.2,66.0723,0.307093,-2.52698
713.8,66.1324,0.310023,-2.52565
714.4,66.1941,0.308097,-2.52698
715,66.2536,0.302437,-2.52697
715.6,66.3144,0.300758,-2.52693
716.2,66.3755,0.29829,-2.52829
716.8,66.4351,0.298224,-2.5296
717.4,66.4958,0.289915,-2.53105
718,66.5566,0.297437,-2.53093
718.6,66.6183,0.279912,-2.53121
719.2,66.6779,0.279923,-2.53093
719.8,66.7367,0.27434,-2.53093
720.4,66.7985,0.278555,-2.53229
721,66.8593,0.270615,-2.53309
721.6,66.9195,0.261611,-2.53257
722.2,66.9806,0.264776,-2.53224
722.8,67.0416,0.265201,-2.53228
723.4,67.1017,0.257285,-2.53357
724,67.1623,0.25453,-2.5352
724.6,67.2234,0.258777,-2.53588
725.2,67.2834,0.266226,-2.53751
725.8,67.3436,0.248677,-2.53751
726.4,67.4041,0.245022,-2.53742
727,67.4646,0.242202,-2.53729
727.6,67.5244,0.237742,-2.53861
728.2,67.5856,0.240711,-2.53861
728.8,67.6461,0.232455,-2.53991
729.4,67.7059,0.231589,-2.53993
730,67.7662,0.219753,-2.53995
730.6,67.8273,0.216896,-2.53895
731.2,67.8872,0.215195,-2.54029
731.8,67.9483,0.21583,-2.54156
732.4,68.0088,0.219482,-2.54157
733,68.0693,0.213846,-2.5429
733.6,68.1296,0.211286,-2.5429
734.2,68.1907,0.206296,-2.54355
734.8,68.2508,0.200636,-2.54389
735.4,68.3114,0.197521,-2.54422
736,68.3714,0.198155,-2.54559
736.6,68.4327,0.192319,-2.54487
737.2,68.4924,0.182155,-2.54488
737.8,68.5543,0.178757,-2.54619
738.4,68.6142,0.181779,-2.54761
739,68.6749,0.183375,-2.54709
739.6,68.7347,0.174348,-2.54608
740.2,68.7957,0.174501,-2.54608
740.8,68.8563,0.173944,-2.5475
741.4,68.9166,0.164815,-2.5474
742,68.9765,0.160687,-2.54869
742.6,69.0375,0.165486,-2.54864
743.2,69.0991,0.157874,-2.55003
743.8,69.1589,0.160367,-2.55003
744.4,69.2196,0.153763,-2.55135
745,69.2808,0.150981,-2.55135
745.6,69.3409,0.152048,-2.55168
746.2,69.4015,0.143404,-2.55168
746.8,69.4619,0.148603,-2.55168
747.4,69.5234,0.147187,-2.55299
748,69.5831,0.153436,-2.55299
748.6,69.6434,0.148916,-2.5543
749.2,69.7042,0.152561,-2.55563
749.8,69.765,0.149304,-2.55548
750.4,69.8261,0.147186,-2.55422
751,69.8862,0.141509,-2.55565
751.6,69.9474,0.131385,-2.5581
752.2,70.0072,0.131321,-2.55693
752.8,70.0684,0.125517,-2.55696
753.4,70.1291,0.12513,-2.55703
754,70.1907,0.122884,-2.55826
754.6,70.2505,0.124177,-2.55826
755.2,70.3116,0.125168,-2.55892
755.8,70.3698,0.119606,-2.56021
756.4,70.4337,0.117059,-2.56024
757,70.4942,0.108517,-2.56037
757.6,70.5543,0.117081,-2.56093
758.2,70.6154,0.114617,-2.56156
758.8,70.6767,0.115192,-2.56156
759.4,70.7365,0.105789,-2.56146
760,70.7979,0.109503,-2.56255
760.6,70.8589,0.119686,-2.56255
761.2,70.9184,0.11132,-2.56421
761.8,70.981,0.112726,-2.56492
762.4,71.039,0.107682,-2.5642
763,71.1016,0.10742,-2.56553
763.6,71.1621,0.105649,-2.56551
764.2,71.2234,0.10942,-2.5643
764.8,71.2827,0.111601,-2.56551
765.4,71.3448,0.112623,-2.56583
766,71.4058,0.115859,-2.56791
766.6,71.4647,0.115786,-2.56912
767.2,71.5275,0.113984,-2.56914
767.8,71.5876,0.102446,-2.56914
768.4,71.6494,0.114141,-2.56914
769,71.7102,0.109485,-2.57042
769.6,71.7703,0.114833,-2.56941
770.2,71.8315,0.107457,-2.57045
770.8,71.89,0.105696,-2.57167
771.4,71.953,0.103188,-2.5715
772,72.0129,0.108629,-2.57175
772.6,72.0738,0.101297,-2.57178
773.2,72.1357,0.0999002,-2.57309
773.8,72.1962,0.106354,-2.57309
774.4,72.2566,0.107667,-2.57309
775,72.3171,0.106058,-2.57341
775.6,72.3783,0.101979,-2.57473
776.2,72.4397,0.106959,-2.57473
776.8,72.5002,0.100413,-2.57389
777.4,72.5608,0.104524,-2.57473
778,72.6212,0.100463,-2.57473
778.6,72.6824,0.0961566,-2.57671
779.2,72.7426,0.10609,-2.57671
779.8,72.8037,0.097706,-2.57671
780.4,72.864,0.0900237,-2.57632
781,72.9243,0.0926252,-2.57671
781.6,72.9848,0.0948477,-2.57693
782.2,73.046,0.0881398,-2.57769
782.8,73.1067,0.0934894,-2.57801
783.4,73.1668,0.0973032,-2.57802
784,73.2285,0.0986956,-2.57818
784.6,73.2893,0.0921875,-2.57934
785.2,73.3504,0.0975212,-2.57965
785.8,73.4114,0.0975535,-2.58066
786.4,73.4704,0.0997737,-2.58163
787,73.5332,0.0996543,-2.58066
787.6,73.593,0.098309,-2.58197
788.2,73.6538,0.103939,-2.58263
788.8,73.7156,0.0996475,-2.58263
789.4,73.7758,0.0994665,-2.58263
790,73.8364,0.0993246,-2.58263