File: 01_Data/Helmet_Flap/STA/N2/10K_min/Helmet_Flap_STA_N2_10KData_250516_R3.csv
Temp./C,Time/min,DSC/(mW/mg),Mass loss/mg
40.0,0.0,0.899509,-0.0986794
40.6,0.0816332,0.922649,-0.0995674
41.2,0.162198,0.953854,-0.102332
41.8,0.239093,0.980617,-0.103094
42.4,0.318936,1.00857,-0.104686
43,0.395812,1.02924,-0.10634
43.6,0.472976,1.05062,-0.105642
44.2,0.548633,1.08244,-0.108203
44.8,0.625044,1.10402,-0.10817
45.4,0.700332,1.12812,-0.110818
46,0.773506,1.15621,-0.112802
46.6,0.846976,1.17514,-0.113971
47.2,0.920524,1.2014,-0.115398
47.8,0.991572,1.22755,-0.115491
48.4,1.06515,1.25182,-0.115901
49,1.13558,1.27589,-0.118125
49.6,1.20435,1.29507,-0.118116
50.2,1.27777,1.31745,-0.120789
50.8,1.34638,1.33986,-0.120792
51.4,1.41753,1.36278,-0.120771
52,1.48622,1.39421,-0.122088
52.6,1.55685,1.41453,-0.12486
53.2,1.6245,1.44397,-0.1261
53.8,1.69274,1.46027,-0.12616
54.4,1.75892,1.48388,-0.127531
55,1.82741,1.51107,-0.12888
55.6,1.8921,1.52967,-0.130201
56.2,1.96263,1.55874,-0.131512
56.8,2.02857,1.5822,-0.132829
57.4,2.0945,1.60311,-0.132787
58,2.16057,1.62589,-0.134131
58.6,2.22676,1.64479,-0.135478
59.2,2.2909,1.65488,-0.136779
59.8,2.35698,1.67868,-0.138094
60.4,2.42152,1.6959,-0.140055
61,2.48567,1.71864,-0.141747
61.6,2.55104,1.73366,-0.143043
62.2,2.61393,1.74921,-0.144359
62.8,2.67778,1.77133,-0.145672
63.4,2.74077,1.78508,-0.146107
64,2.80467,1.8011,-0.147536
64.6,2.86754,1.81239,-0.148295
65.2,2.93126,1.82513,-0.149622
65.8,2.99233,1.84165,-0.15094
66.4,3.05538,1.8561,-0.15095
67,3.11698,1.86678,-0.152585
67.6,3.1801,1.87497,-0.155228
68.2,3.2431,1.88612,-0.156541
68.8,3.30497,1.89889,-0.157037
69.4,3.36819,1.90303,-0.159134
70,3.4285,1.90383,-0.159181
70.6,3.48974,1.91791,-0.160518
71.2,3.55217,1.92598,-0.160498
71.8,3.6136,1.91996,-0.16312
72.4,3.67433,1.92962,-0.164461
73,3.73596,1.93212,-0.16576
73.6,3.79709,1.933,-0.167049
74.2,3.85717,1.93293,-0.168449
74.8,3.91721,1.93171,-0.168399
75.4,3.98063,1.93286,-0.172412
76,4.04015,1.93125,-0.17235
76.6,4.09887,1.92941,-0.17235
77.2,4.16149,1.93356,-0.172355
77.8,4.22237,1.92894,-0.174795
78.4,4.28272,1.92091,-0.174991
79,4.34157,1.92114,-0.176316
79.6,4.40304,1.91638,-0.1763
80.2,4.46186,1.89604,-0.178912
80.8,4.52196,1.89381,-0.178922
81.4,4.58265,1.88549,-0.181562
82,4.64217,1.88242,-0.182879
82.6,4.69885,1.87726,-0.182882
83.2,4.75998,1.86754,-0.185524
83.8,4.82104,1.86397,-0.186823
84.4,4.87958,1.85567,-0.186841
85,4.93995,1.83833,-0.188209
85.6,5.00015,1.83302,-0.189497
86.2,5.05852,1.81077,-0.1908
86.8,5.11796,1.80145,-0.190797
87.4,5.17786,1.7898,-0.192095
88,5.23698,1.77666,-0.19211
88.6,5.29628,1.76572,-0.192098
89.2,5.35275,1.75485,-0.193429
89.8,5.41417,1.74024,-0.194752
90.4,5.47173,1.73395,-0.195194
91,5.5304,1.70889,-0.196051
91.6,5.58689,1.70432,-0.19738
92.2,5.6482,1.68624,-0.198444
92.8,5.7058,1.66577,-0.19869
93.4,5.76386,1.6565,-0.19869
94,5.82277,1.63252,-0.198698
94.6,5.87968,1.61948,-0.200012
95.2,5.93709,1.60085,-0.20001
95.8,5.99801,1.5808,-0.200005
96.4,6.05523,1.5751,-0.201315
97,6.11332,1.55727,-0.201339
97.6,6.16912,1.54799,-0.201345
98.2,6.22827,1.52821,-0.202649
98.8,6.28679,1.51541,-0.20398
99.4,6.34371,1.50117,-0.20396
100,6.40169,1.48671,-0.203941
100.6,6.45928,1.4745,-0.202924
101.2,6.51525,1.46377,-0.203969
101.8,6.57461,1.44995,-0.204397
102.4,6.63269,1.44033,-0.205316
103,6.68968,1.42394,-0.20661
103.6,6.74798,1.40779,-0.20661
104.2,6.80365,1.39555,-0.20594
104.8,6.86164,1.38127,-0.206592
105.4,6.91839,1.36806,-0.2066
106,6.97617,1.35599,-0.206748
106.6,7.03419,1.3471,-0.207258
107.2,7.09178,1.33706,-0.2066
107.8,7.14848,1.32354,-0.207145
108.4,7.20532,1.311,-0.206604
109,7.26444,1.29899,-0.206595
109.6,7.32116,1.29452,-0.207918
110.2,7.37837,1.27755,-0.209333
110.8,7.43552,1.2696,-0.208123
111.4,7.49324,1.26163,-0.20803
112,7.55062,1.25477,-0.208031
112.6,7.60958,1.24131,-0.209388
113.2,7.66566,1.23528,-0.208028
113.8,7.72337,1.23136,-0.207006
114.4,7.7808,1.22222,-0.208047
115,7.83822,1.22063,-0.208029
115.6,7.89562,1.21218,-0.20789
116.2,7.95328,1.20803,-0.207707
116.8,8.00916,1.20684,-0.206704
117.4,8.06742,1.20258,-0.20671
118,8.12403,1.19595,-0.205409
118.6,8.18135,1.19322,-0.205909
119.2,8.23905,1.19596,-0.20662
119.8,8.29651,1.19639,-0.205387
120.4,8.35503,1.188,-0.204161
121,8.41029,1.18954,-0.204038
121.6,8.46982,1.19282,-0.202785
122.2,8.52586,1.18859,-0.202767
122.8,8.58406,1.18958,-0.201562
123.4,8.64144,1.19094,-0.200153
124,8.69926,1.18056,-0.199096
124.6,8.75636,1.18137,-0.198831
125.2,8.8127,1.17429,-0.195832
125.8,8.87071,1.17037,-0.196005
126.4,8.92791,1.16603,-0.19378
127,8.98475,1.15681,-0.191619
127.6,9.04032,1.158,-0.190354
128.2,9.09901,1.16121,-0.188816
128.8,9.15556,1.16048,-0.188489
129.4,9.21311,1.15687,-0.187206
130,9.26949,1.15467,-0.186457
130.6,9.32472,1.1625,-0.18739
131.2,9.38285,1.1613,-0.187303
131.8,9.44068,1.15734,-0.188877
132.4,9.49717,1.1602,-0.190044
133,9.55349,1.14874,-0.193681
133.6,9.61173,1.14919,-0.1975
134.2,9.66836,1.14721,-0.201659
134.8,9.72447,1.15522,-0.205946
135.4,9.78279,1.16166,-0.207251
136,9.83948,1.15307,-0.210611
136.6,9.89662,1.15427,-0.212169
137.2,9.95487,1.16106,-0.216468
137.8,10.0114,1.15827,-0.222846
138.4,10.068,1.16147,-0.228938
139,10.1255,1.15442,-0.228895
139.6,10.1826,1.1584,-0.227773
140.2,10.2391,1.15869,-0.22571
140.8,10.2948,1.15978,-0.222544
141.4,10.3533,1.16162,-0.223316
142,10.4099,1.16595,-0.225361
142.6,10.4666,1.16529,-0.22658
143.2,10.5232,1.16773,-0.225262
143.8,10.5778,1.17831,-0.223015
144.4,10.6351,1.18004,-0.218266
145,10.6915,1.17667,-0.219316
145.6,10.7493,1.1921,-0.21929
146.2,10.806,1.18936,-0.216328
146.8,10.8635,1.18984,-0.214892
147.4,10.9189,1.18959,-0.219138
148,10.9754,1.19788,-0.219379
148.6,11.0318,1.19596,-0.213198
149.2,11.0887,1.1984,-0.210327
149.8,11.146,1.20401,-0.216284
150.4,11.2019,1.20805,-0.215967
151,11.2582,1.2107,-0.21452
151.6,11.314,1.21575,-0.216505
152.2,11.3716,1.21834,-0.219493
152.8,11.429,1.21459,-0.22138
153.4,11.484,1.22463,-0.219766
154,11.5408,1.21802,-0.214783
154.6,11.598,1.21646,-0.21462
155.2,11.6533,1.21724,-0.214537
155.8,11.7109,1.23163,-0.214258
156.4,11.7674,1.22809,-0.218453
157,11.8234,1.23395,-0.218036
157.6,11.8804,1.23877,-0.214647
158.2,11.9352,1.24255,-0.218391
158.8,11.9926,1.2391,-0.221378
159.4,12.0486,1.2331,-0.226668
160,12.1049,1.23344,-0.22834
160.6,12.1622,1.23449,-0.228277
161.2,12.2195,1.2424,-0.229648
161.8,12.2754,1.23816,-0.232599
162.4,12.3324,1.24354,-0.234257
163,12.388,1.24518,-0.227689
163.6,12.4438,1.24495,-0.223748
164.2,12.5015,1.24688,-0.230059
164.8,12.5583,1.25321,-0.234155
165.4,12.6141,1.2542,-0.228663
166,12.6711,1.25647,-0.223227
166.6,12.7271,1.2596,-0.230282
167.2,12.7841,1.25942,-0.232003
167.8,12.8411,1.26623,-0.232801
168.4,12.8972,1.26156,-0.232825
169,12.9543,1.2676,-0.22974
169.6,13.0107,1.2695,-0.23407
170.2,13.0674,1.26918,-0.233843
170.8,13.124,1.27161,-0.233504
171.4,13.1812,1.27483,-0.231214
172,13.2368,1.27241,-0.227469
172.6,13.2935,1.28094,-0.227261
173.2,13.3506,1.27079,-0.230185
173.8,13.4064,1.27235,-0.236037
174.4,13.463,1.27576,-0.230606
175,13.5199,1.27948,-0.228335
175.6,13.5767,1.28501,-0.230552
176.2,13.6332,1.28514,-0.233837
176.8,13.6897,1.28341,-0.23614
177.4,13.7467,1.28121,-0.232846
178,13.8019,1.2894,-0.230922
178.6,13.8607,1.29104,-0.232367
179.2,13.916,1.28891,-0.236321
179.8,13.973,1.29034,-0.239726
180.4,14.0295,1.28696,-0.242622
181,14.0839,1.28343,-0.243521
181.6,14.143,1.29195,-0.235797
182.2,14.1988,1.2869,-0.233964
182.8,14.2559,1.28137,-0.233256
183.4,14.3127,1.28057,-0.237523
184,14.3694,1.27707,-0.2389
184.6,14.4257,1.28124,-0.2402
185.2,14.4822,1.2768,-0.240199
185.8,14.5386,1.27987,-0.238717
186.4,14.5948,1.28342,-0.238771
187,14.6513,1.28004,-0.237477
187.6,14.7076,1.28783,-0.238783
188.2,14.764,1.29393,-0.237437
188.8,14.82,1.28698,-0.23746
189.4,14.8769,1.28852,-0.23746
190,14.9337,1.29158,-0.237183
190.6,14.9896,1.28646,-0.23744
191.2,15.0459,1.2947,-0.235881
191.8,15.1024,1.29718,-0.2346
192.4,15.1575,1.29691,-0.235581
193,15.2157,1.29768,-0.23558
193.6,15.2725,1.28926,-0.23558
194.2,15.3283,1.28899,-0.235583
194.8,15.3836,1.27938,-0.236845
195.4,15.4413,1.28572,-0.239935
196,15.4972,1.28162,-0.24118
196.6,15.5542,1.28214,-0.23967
197.2,15.6104,1.27944,-0.237942
197.8,15.6668,1.28459,-0.237439
198.4,15.722,1.27414,-0.238936
199,15.7794,1.28195,-0.243885
199.6,15.8368,1.27827,-0.24525
200.2,15.8921,1.28318,-0.24525
200.8,15.948,1.27237,-0.246644
201.4,16.0056,1.27235,-0.245152
202,16.0614,1.26873,-0.243822
202.6,16.1166,1.26682,-0.245249
203.2,16.1755,1.26321,-0.244046
203.8,16.2308,1.26471,-0.242525
204.4,16.2871,1.26862,-0.242467
205,16.3443,1.25488,-0.24239
205.6,16.4002,1.25603,-0.24239
206.2,16.4563,1.26275,-0.241367
206.8,16.5128,1.25873,-0.238215
207.4,16.5694,1.26036,-0.23418
208,16.6261,1.26748,-0.231753
208.6,16.6822,1.25929,-0.233031
209.2,16.739,1.25747,-0.24008
209.8,16.7954,1.24903,-0.248904
210.4,16.8516,1.25948,-0.253172
211,16.908,1.24068,-0.25447
211.6,16.9645,1.24141,-0.254469
212.2,17.0207,1.24919,-0.25312
212.8,17.0766,1.236,-0.251755
213.4,17.1334,1.23348,-0.25041
214,17.19,1.23813,-0.25041
214.6,17.2473,1.22678,-0.251446
215.2,17.303,1.22575,-0.25457
215.8,17.3592,1.21028,-0.257855
216.4,17.4153,1.21443,-0.257882
217,17.4704,1.21283,-0.256449
217.6,17.5289,1.20969,-0.25528
218.2,17.5842,1.20678,-0.260669
218.8,17.6409,1.20687,-0.266817
219.4,17.6983,1.19293,-0.262525
220,17.7541,1.20458,-0.255024
220.6,17.8103,1.19471,-0.251002
221.2,17.8668,1.19778,-0.250389
221.8,17.9234,1.19312,-0.257284
222.4,17.9803,1.18421,-0.266232
223,18.0362,1.18692,-0.268964
223.6,18.0933,1.18261,-0.267023
224.2,18.1497,1.18029,-0.265831
224.8,18.2068,1.17015,-0.262479
225.4,18.2619,1.16408,-0.262392
226,18.3184,1.16715,-0.266342
226.6,18.3752,1.1642,-0.268195
227.2,18.4319,1.16259,-0.266882
227.8,18.488,1.16167,-0.266887
228.4,18.5452,1.16033,-0.269719
229,18.6021,1.1541,-0.274473
229.6,18.6583,1.15192,-0.273451
230.2,18.7144,1.14439,-0.270962
230.8,18.7721,1.13914,-0.271819
231.4,18.828,1.14706,-0.272891
232,18.8846,1.14402,-0.274657
232.6,18.941,1.13963,-0.275976
233.2,18.9971,1.14122,-0.275989
233.8,19.0545,1.13221,-0.277258
234.4,19.1111,1.13193,-0.278619
235,19.1658,1.13722,-0.27864
235.6,19.2236,1.13599,-0.281358
236.2,19.2808,1.13273,-0.282901
236.8,19.3371,1.13184,-0.283029
237.4,19.3945,1.13077,-0.287614
238,19.4507,1.13602,-0.289766
238.6,19.5069,1.12834,-0.28992
239.2,19.5637,1.12441,-0.2885
239.8,19.6211,1.13405,-0.292289
240.4,19.6765,1.12605,-0.297553
241,19.7325,1.12775,-0.29981
241.6,19.7894,1.13332,-0.301655
242.2,19.8469,1.13485,-0.301561
242.8,19.9032,1.1313,-0.302603
243.4,19.9592,1.13526,-0.30387
244,20.0174,1.14126,-0.303875
244.6,20.073,1.14095,-0.302441
245.2,20.1297,1.14696,-0.304036
245.8,20.1847,1.14457,-0.308325
246.4,20.2429,1.15381,-0.311713
247,20.3002,1.15978,-0.314555
247.6,20.3566,1.15659,-0.31474
248.2,20.4143,1.16538,-0.314739
248.8,20.4681,1.16961,-0.316051
249.4,20.5276,1.18481,-0.317057
250,20.5835,1.20154,-0.317045
250.6,20.6407,1.22685,-0.318349
251.2,20.6983,1.25861,-0.319902
251.8,20.7559,1.32325,-0.321166
252.4,20.8133,1.40796,-0.324348
253,20.8707,1.49996,-0.326837
253.6,20.9298,1.61696,-0.328807
254.2,20.9875,1.72478,-0.330986
254.8,21.0454,1.79433,-0.332423
255.4,21.1017,1.77741,-0.332863
256,21.1576,1.68311,-0.33477
256.6,21.2141,1.55802,-0.33635
257.2,21.2689,1.47938,-0.33637
257.8,21.3256,1.42998,-0.336333
258.4,21.3814,1.40149,-0.33891
259,21.4379,1.38819,-0.337702
259.6,21.495,1.38226,-0.339963
260.2,21.5512,1.37556,-0.34334
260.8,21.6079,1.35245,-0.34547
261.4,21.6647,1.33102,-0.348552
262,21.7216,1.28919,-0.34888
262.6,21.7765,1.25303,-0.34888
263.2,21.8334,1.20557,-0.349288
263.8,21.8897,1.16985,-0.356137
264.4,21.945,1.14706,-0.359312
265,22.0029,1.11298,-0.359963
265.6,22.0587,1.09397,-0.35997
266.2,22.1158,1.08607,-0.35997
266.8,22.1729,1.06963,-0.35997
267.4,22.2282,1.05648,-0.361473
268,22.2854,1.04231,-0.364199
268.6,22.3423,1.03041,-0.368887
269.2,22.3997,1.01926,-0.370287
269.8,22.4564,1.01246,-0.36896
270.4,22.5109,1.01068,-0.36897
271,22.5689,1.00037,-0.369108
271.6,22.626,0.981371,-0.372384
272.2,22.6829,0.976939,-0.377831
272.8,22.7404,0.966478,-0.383119
273.4,22.7958,0.954142,-0.386333
274,22.8527,0.947291,-0.386116
274.6,22.9109,0.935768,-0.38804
275.2,22.9679,0.927283,-0.39291
275.8,23.0237,0.911475,-0.396724
276.4,23.0787,0.90455,-0.398069
277,23.1374,0.892815,-0.400169
277.6,23.1942,0.872501,-0.402549
278.2,23.2507,0.858447,-0.404109
278.8,23.308,0.849933,-0.405442
279.4,23.3644,0.824664,-0.407005
280,23.4215,0.818342,-0.410974
280.6,23.4793,0.794741,-0.41245
281.2,23.535,0.778346,-0.413757
281.8,23.5924,0.762516,-0.416413
282.4,23.6486,0.751445,-0.418279
283,23.7057,0.720561,-0.421218
283.6,23.7627,0.700925,-0.426153
284.2,23.819,0.692018,-0.433561
284.8,23.8759,0.663281,-0.434735
285.4,23.9325,0.651838,-0.43474
286,23.9899,0.642724,-0.434717
286.6,24.0461,0.61283,-0.436051
287.2,24.103,0.598087,-0.437529
287.8,24.1593,0.568535,-0.440508
288.4,24.2164,0.540324,-0.443973
289,24.2737,0.525096,-0.446013
289.6,24.3293,0.489738,-0.44615
290.2,24.3866,0.460526,-0.449114
290.8,24.4419,0.432796,-0.453666
291.4,24.5004,0.392952,-0.456307
292,24.5561,0.36192,-0.457014
292.6,24.6138,0.31622,-0.458261
293.2,24.6703,0.283664,-0.461102
293.8,24.7264,0.232225,-0.464661
294.4,24.7829,0.184949,-0.469517
295,24.8389,0.128826,-0.475116
295.6,24.8953,0.0721343,-0.478705
296.2,24.9514,0.0051339,-0.483838
296.8,25.0094,-0.0681887,-0.487575
297.4,25.0647,-0.145554,-0.490161
298,25.1197,-0.209844,-0.492046
298.6,25.1763,-0.310583,-0.497549
299.2,25.2325,-0.398824,-0.504709
299.8,25.2881,-0.510355,-0.512316
300.4,25.3434,-0.61626,-0.518416
301,25.3997,-0.728144,-0.525414
301.6,25.4559,-0.852097,-0.533766
302.2,25.5105,-0.987226,-0.544081
302.8,25.5663,-1.1216,-0.552321
303.4,25.6217,-1.24535,-0.561671
304,25.676,-1.36817,-0.572972
304.6,25.7326,-1.49401,-0.588667
305.2,25.7865,-1.59474,-0.60605
305.8,25.8456,-1.66741,-0.624866
306.4,25.9012,-1.71955,-0.643828
307,25.9577,-1.72253,-0.667538
307.6,26.0151,-1.69499,-0.693711
308.2,26.0729,-1.63892,-0.720338
308.8,26.1308,-1.55293,-0.747064
309.4,26.19,-1.45046,-0.777616
310,26.2476,-1.31923,-0.806336
310.6,26.3063,-1.19721,-0.840071
311.2,26.364,-1.07249,-0.875732
311.8,26.4236,-0.946064,-0.91324
312.4,26.4826,-0.829166,-0.947149
313,26.5408,-0.702785,-0.981097
313.6,26.5995,-0.618059,-1.01409
314.2,26.6574,-0.525145,-1.04696
314.8,26.7155,-0.448521,-1.07991
315.4,26.7738,-0.385957,-1.11113
316,26.8317,-0.336199,-1.14549
316.6,26.8902,-0.28059,-1.17965
317.2,26.9462,-0.239537,-1.21175
317.8,27.0057,-0.193715,-1.24378
318.4,27.0629,-0.159082,-1.27566
319,27.121,-0.137726,-1.30405
319.6,27.1791,-0.104888,-1.33516
320.2,27.2374,-0.0827609,-1.36575
320.8,27.2948,-0.0506989,-1.39339
321.4,27.3515,-0.0135715,-1.424
322,27.4093,0.0226794,-1.44947
322.6,27.4671,0.0733374,-1.47277
323.2,27.526,0.106759,-1.49496
323.8,27.5833,0.168015,-1.51766
324.4,27.6413,0.216837,-1.53777
325,27.7005,0.279848,-1.5573
325.6,27.7589,0.341346,-1.57319
326.2,27.8175,0.409743,-1.5897
326.8,27.8749,0.460883,-1.60393
327.4,27.933,0.531873,-1.6174
328,27.9914,0.575464,-1.62761
328.6,28.0504,0.636007,-1.63621
329.2,28.1081,0.67174,-1.64399
329.8,28.1665,0.693155,-1.64965
330.4,28.2248,0.739085,-1.65556
331,28.2825,0.753758,-1.65892
331.6,28.34,0.774775,-1.66536
332.2,28.3985,0.784904,-1.66837
332.8,28.4553,0.786104,-1.67077
333.4,28.5138,0.792889,-1.67275
334,28.5728,0.784425,-1.67412
334.6,28.6289,0.784684,-1.67672
335.2,28.6871,0.774983,-1.67869
335.8,28.7435,0.769636,-1.6827
336.4,28.8012,0.758885,-1.68575
337,28.8591,0.745018,-1.69138
337.6,28.9151,0.729343,-1.69334
338.2,28.9752,0.729847,-1.69516
338.8,29.0323,0.717254,-1.69647
339.4,29.0901,0.705752,-1.69649
340,29.1481,0.693292,-1.69784
340.6,29.2057,0.689631,-1.70048
341.2,29.2642,0.679291,-1.70285
341.8,29.3211,0.6728,-1.705
342.4,29.3789,0.667434,-1.70652
343,29.4361,0.654829,-1.70922
343.6,29.4942,0.647718,-1.70991
344.2,29.551,0.647785,-1.71217
344.8,29.609,0.639813,-1.71563
345.4,29.6668,0.642777,-1.71864
346,29.7247,0.623716,-1.7217
346.6,29.7828,0.618328,-1.72471
347.2,29.8384,0.620346,-1.72595
347.8,29.8978,0.621602,-1.72812
348.4,29.9549,0.613322,-1.73061
349,30.0135,0.60723,-1.7306
349.6,30.071,0.602027,-1.7327
350.2,30.1287,0.600567,-1.73677
350.8,30.1867,0.591047,-1.73826
351.4,30.2441,0.594188,-1.73942
352,30.303,0.590365,-1.74009
352.6,30.3602,0.597639,-1.74131
353.2,30.4188,0.591889,-1.74407
353.8,30.4772,0.582834,-1.74532
354.4,30.534,0.581168,-1.74573
355,30.5918,0.583729,-1.74773
355.6,30.6502,0.581786,-1.7507
356.2,30.7083,0.577381,-1.7534
356.8,30.7665,0.583427,-1.75474
357.4,30.8241,0.588306,-1.7561
358,30.8817,0.57756,-1.75737
358.6,30.9403,0.574223,-1.75611
359.2,30.9963,0.580509,-1.75913
359.8,31.0564,0.573721,-1.76339
360.4,31.1149,0.580422,-1.76475
361,31.1718,0.573835,-1.76666
361.6,31.2303,0.574556,-1.76995
362.2,31.2876,0.574344,-1.77348
362.8,31.3467,0.570536,-1.77625
363.4,31.4039,0.57285,-1.77989
364,31.4618,0.568122,-1.78207
364.6,31.5193,0.565779,-1.78271
365.2,31.5784,0.578407,-1.78393
365.8,31.6358,0.577919,-1.78525
366.4,31.6916,0.572472,-1.78868
367,31.7528,0.584042,-1.79499
367.6,31.8106,0.589683,-1.79654
368.2,31.8682,0.587943,-1.79648
368.8,31.9269,0.605123,-1.79801
369.4,31.984,0.597403,-1.79995
370,32.0413,0.602443,-1.80227
370.6,32.1004,0.60273,-1.80542
371.2,32.1585,0.609005,-1.80851
371.8,32.2142,0.61139,-1.80975
372.4,32.2733,0.615318,-1.81105
373,32.3328,0.619069,-1.81414
373.6,32.3902,0.631296,-1.81751
374.2,32.448,0.635975,-1.82181
374.8,32.5069,0.640497,-1.82183
375.4,32.5643,0.648297,-1.82295
376,32.6224,0.651123,-1.825
376.6,32.68,0.660327,-1.83009
377.2,32.7391,0.665143,-1.83552
377.8,32.7969,0.670046,-1.83874
378.4,32.8549,0.672543,-1.84008
379,32.9131,0.682143,-1.84134
379.6,32.9718,0.682387,-1.84448
380.2,33.0294,0.686617,-1.84773
380.8,33.0881,0.689364,-1.84819
381.4,33.1461,0.695408,-1.85061
382,33.2042,0.703047,-1.85352
382.6,33.2619,0.702255,-1.85589
383.2,33.3208,0.705822,-1.85756
383.8,33.3791,0.705331,-1.86078
384.4,33.4369,0.707685,-1.86475
385,33.496,0.714067,-1.8689
385.6,33.5527,0.714117,-1.86921
386.2,33.6116,0.712878,-1.87422
386.8,33.6691,0.722574,-1.8759
387.4,33.727,0.710807,-1.87958
388,33.7864,0.720465,-1.88437
388.6,33.8449,0.72203,-1.88526
389.2,33.9015,0.715449,-1.88791
389.8,33.9611,0.717838,-1.89081
390.4,34.0189,0.722152,-1.89307
391,34.0769,0.714009,-1.89527
391.6,34.1359,0.720092,-1.89852
392.2,34.1934,0.720454,-1.90186
392.8,34.2522,0.72236,-1.90363
393.4,34.3105,0.722426,-1.90802
394,34.3695,0.71698,-1.91131
394.6,34.4268,0.714835,-1.91273
395.2,34.485,0.711039,-1.91569
395.8,34.544,0.717425,-1.92075
396.4,34.6022,0.706003,-1.92469
397,34.6608,0.711136,-1.92591
397.6,34.7186,0.712385,-1.92589
398.2,34.7771,0.708307,-1.9279
398.8,34.8354,0.704479,-1.92943
399.4,34.8935,0.701078,-1.929
400,34.9509,0.704947,-1.93119
400.6,35.0084,0.701623,-1.93162
401.2,35.0685,0.690239,-1.93386
401.8,35.1263,0.695184,-1.93723
402.4,35.1846,0.699053,-1.94034
403,35.2434,0.69361,-1.94421
403.6,35.3018,0.691862,-1.94828
404.2,35.3594,0.690577,-1.95146
404.8,35.4187,0.690028,-1.9554
405.4,35.4749,0.694115,-1.95845
406,35.5354,0.691751,-1.95974
406.6,35.5946,0.682293,-1.96133
407.2,35.6526,0.681442,-1.96392
407.8,35.7111,0.686424,-1.96716
408.4,35.7695,0.676537,-1.96835
409,35.8282,0.677904,-1.97132
409.6,35.8869,0.674677,-1.97333
410.2,35.9441,0.675931,-1.97542
410.8,36.0033,0.668748,-1.97827
411.4,36.0618,0.668633,-1.98169
412,36.1201,0.665777,-1.98538
412.6,36.1786,0.661543,-1.98887
413.2,36.237,0.662822,-1.99166
413.8,36.2948,0.662239,-1.99247
414.4,36.3545,0.65248,-1.99508
415,36.4126,0.656843,-1.99927
415.6,36.4716,0.653474,-2.00219
416.2,36.5296,0.650629,-2.00188
416.8,36.5886,0.640557,-2.00232
417.4,36.6465,0.634902,-2.00438
418,36.7046,0.637834,-2.00669
418.6,36.7635,0.634901,-2.00902
419.2,36.8211,0.633928,-2.01306
419.8,36.8798,0.629418,-2.0148
420.4,36.9379,0.620942,-2.01773
421,36.9966,0.620444,-2.02017
421.6,37.0552,0.615955,-2.02371
422.2,37.1125,0.607174,-2.0262
422.8,37.1725,0.600861,-2.02819
423.4,37.2303,0.603828,-2.03155
424,37.2892,0.594798,-2.03444
424.6,37.3475,0.590452,-2.03756
425.2,37.4067,0.5911,-2.03755
425.8,37.4652,0.589394,-2.0404
426.4,37.5229,0.584082,-2.04353
427,37.5826,0.576633,-2.04581
427.6,37.6411,0.584951,-2.0481
428.2,37.6993,0.575058,-2.04808
428.8,37.7575,0.571263,-2.05038
429.4,37.8161,0.568059,-2.0529
430,37.8745,0.562344,-2.05494
430.6,37.9329,0.563558,-2.05855
431.2,37.9923,0.554691,-2.06162
431.8,38.0506,0.550334,-2.06292
432.4,38.1087,0.552196,-2.06442
433,38.1668,0.556997,-2.06763
433.6,38.2261,0.555002,-2.07212
434.2,38.2849,0.54871,-2.07501
434.8,38.3425,0.555885,-2.07608
435.4,38.4014,0.553558,-2.07699
436,38.4606,0.548621,-2.0797
436.6,38.5201,0.54976,-2.08303
437.2,38.5776,0.556784,-2.08573
437.8,38.6361,0.548237,-2.08879
438.4,38.6946,0.552205,-2.09007
439,38.7542,0.551092,-2.09236
439.6,38.8111,0.548387,-2.09536
440.2,38.8719,0.550042,-2.09705
440.8,38.9299,0.548419,-2.0985
441.4,38.9885,0.543564,-2.10083
442,39.0473,0.555305,-2.10258
442.6,39.1048,0.552359,-2.10532
443.2,39.1651,0.553184,-2.10969
443.8,39.2239,0.541086,-2.11201
444.4,39.2826,0.55266,-2.11415
445,39.342,0.557738,-2.11539
445.6,39.401,0.548632,-2.11664
446.2,39.4587,0.55629,-2.11925
446.8,39.517,0.550057,-2.12209
447.4,39.577,0.553804,-2.12461
448,39.6358,0.55579,-2.12748
448.6,39.6945,0.555223,-2.12991
449.2,39.7539,0.555743,-2.13196
449.8,39.8125,0.553962,-2.13319
450.4,39.8714,0.553992,-2.1347
451,39.93,0.555049,-2.1376
451.6,39.989,0.55712,-2.13974
452.2,40.048,0.558739,-2.14107
452.8,40.1071,0.550912,-2.14284
453.4,40.1647,0.565069,-2.14328
454,40.2243,0.556993,-2.14649
454.6,40.2833,0.564368,-2.14994
455.2,40.342,0.560486,-2.15284
455.8,40.4008,0.56896,-2.15469
456.4,40.4596,0.564252,-2.15589
457,40.5189,0.571391,-2.15724
457.6,40.5778,0.567222,-2.15722
458.2,40.6362,0.560083,-2.1588
458.8,40.6948,0.576932,-2.16123
459.4,40.7549,0.572777,-2.16443
460,40.8141,0.575482,-2.16941
460.6,40.8708,0.575523,-2.17119
461.2,40.9312,0.57729,-2.17426
461.8,40.9903,0.585177,-2.17546
462.4,41.0486,0.585378,-2.17777
463,41.1083,0.587078,-2.17968
463.6,41.1672,0.58734,-2.18105
464.2,41.226,0.584338,-2.18382
464.8,41.2851,0.596259,-2.18538
465.4,41.344,0.594421,-2.18824
466,41.4027,0.594792,-2.18945
466.6,41.4617,0.592458,-2.19054
467.2,41.5205,0.599645,-2.19177
467.8,41.5792,0.604315,-2.19329
468.4,41.6384,0.596887,-2.19516
469,41.6967,0.603661,-2.19795
469.6,41.7568,0.6,-2.19928
470.2,41.815,0.599281,-2.20123
470.8,41.8741,0.616812,-2.20225
471.4,41.9323,0.611591,-2.20494
472,41.9925,0.612313,-2.20565
472.6,42.0517,0.616929,-2.20648
473.2,42.1084,0.613804,-2.20856
473.8,42.1696,0.621139,-2.21137
474.4,42.2275,0.621516,-2.21409
475,42.2869,0.62897,-2.21552
475.6,42.346,0.621961,-2.21829
476.2,42.4048,0.627329,-2.22065
476.8,42.4642,0.631183,-2.22266
477.4,42.524,0.637763,-2.22487
478,42.5822,0.642676,-2.2269
478.6,42.6418,0.641368,-2.22784
479.2,42.7011,0.644323,-2.23082
479.8,42.7598,0.656586,-2.23122
480.4,42.8197,0.658718,-2.23264
481,42.8779,0.659175,-2.23264
481.6,42.9369,0.662715,-2.23401
482.2,42.997,0.661453,-2.23494
482.8,43.0566,0.666986,-2.23663
483.4,43.1152,0.671635,-2.23787
484,43.1746,0.673786,-2.24004
484.6,43.234,0.669998,-2.24232
485.2,43.293,0.679511,-2.24578
485.8,43.3524,0.684544,-2.248
486.4,43.4115,0.691936,-2.24801
487,43.4708,0.69004,-2.24829
487.6,43.5295,0.6905,-2.24968
488.2,43.5895,0.698306,-2.25097
488.8,43.6496,0.694468,-2.25334
489.4,43.7079,0.704779,-2.25494
490,43.7673,0.699947,-2.2569
490.6,43.8263,0.699929,-2.25778
491.2,43.8863,0.710132,-2.25911
491.8,43.9456,0.720476,-2.26036
492.4,44.0042,0.715994,-2.26235
493,44.0624,0.719083,-2.26367
493.6,44.123,0.719453,-2.26609
494.2,44.1824,0.725713,-2.26739
494.8,44.2417,0.727065,-2.26991
495.4,44.2993,0.731518,-2.27019
496,44.3584,0.732547,-2.2715
496.6,44.4184,0.731068,-2.27342
497.2,44.4783,0.730472,-2.27572
497.8,44.5384,0.737148,-2.27796
498.4,44.5985,0.735166,-2.27855
499,44.6564,0.738251,-2.27995
499.6,44.7167,0.738484,-2.27995
500.2,44.7754,0.739336,-2.28082
500.8,44.8349,0.747797,-2.28226
501.4,44.8947,0.743008,-2.28358
502,44.9541,0.750669,-2.28358
502.6,45.0135,0.749403,-2.2839
503.2,45.0725,0.747626,-2.28516
503.8,45.1321,0.753853,-2.2868
504.4,45.1919,0.749369,-2.28923
505,45.251,0.761938,-2.29077
505.6,45.3107,0.759222,-2.29248
506.2,45.3701,0.756505,-2.29464
506.8,45.43,0.760352,-2.29472
507.4,45.4881,0.761329,-2.29675
508,45.5485,0.766891,-2.29994
508.6,45.6071,0.766791,-2.29994
509.2,45.6677,0.772433,-2.30241
509.8,45.7275,0.776767,-2.30411
510.4,45.7865,0.781152,-2.30542
511,45.8453,0.779322,-2.30643
511.6,45.9052,0.773775,-2.30673
512.2,45.9639,0.774718,-2.30827
512.8,46.0233,0.768984,-2.30951
513.4,46.0836,0.773006,-2.30947
514,46.1423,0.778382,-2.31081
514.6,46.2032,0.778581,-2.31213
515.2,46.2622,0.784148,-2.31346
515.8,46.3215,0.79257,-2.31498
516.4,46.3811,0.791123,-2.31748
517,46.4403,0.7959,-2.3196
517.6,46.5005,0.79433,-2.31892
518.2,46.5594,0.801205,-2.32036
518.8,46.6181,0.802729,-2.32168
519.4,46.6781,0.801801,-2.32481
520,46.7384,0.809655,-2.32686
520.6,46.7977,0.808605,-2.32688
521.2,46.8568,0.803272,-2.32815
521.8,46.918,0.815531,-2.3299
522.4,46.9771,0.819672,-2.32992
523,47.0366,0.819072,-2.33
523.6,47.0959,0.824766,-2.33123
524.2,47.1555,0.822345,-2.33313
524.8,47.2152,0.821749,-2.336
525.4,47.2749,0.826159,-2.3365
526,47.3336,0.821431,-2.33785
526.6,47.3933,0.824593,-2.33792
527.2,47.4529,0.821547,-2.33773
527.8,47.5126,0.817231,-2.34049
528.4,47.5728,0.822177,-2.34184
529,47.6317,0.82499,-2.34311
529.6,47.6913,0.819483,-2.3434
530.2,47.7511,0.825778,-2.34518
530.8,47.8104,0.823347,-2.34616
531.4,47.8699,0.81663,-2.34736
532,47.9293,0.822076,-2.34743
532.6,47.9888,0.821022,-2.3493
533.2,48.0467,0.821581,-2.35142
533.8,48.1078,0.815612,-2.3525
534.4,48.167,0.82166,-2.35308
535,48.2255,0.817379,-2.35439
535.6,48.286,0.820077,-2.35571
536.2,48.3458,0.815673,-2.35657
536.8,48.4049,0.819498,-2.35703
537.4,48.4655,0.814724,-2.35833
538,48.5241,0.81638,-2.35967
538.6,48.583,0.814276,-2.36107
539.2,48.6433,0.81051,-2.3624
539.8,48.7018,0.818282,-2.3624
540.4,48.7615,0.813889,-2.36372
541,48.8184,0.808589,-2.36521
541.6,48.8807,0.807456,-2.36743
542.2,48.9407,0.811858,-2.36916
542.8,49,0.803577,-2.37113
543.4,49.0598,0.801494,-2.37131
544,49.1197,0.798596,-2.37299
544.6,49.179,0.800026,-2.37512
545.2,49.2383,0.793358,-2.37482
545.8,49.2975,0.803325,-2.37503
546.4,49.3573,0.798659,-2.37637
547,49.4165,0.794965,-2.37766
547.6,49.4767,0.796456,-2.37897
548.2,49.5363,0.795115,-2.3786
548.8,49.5946,0.798689,-2.37978
549.4,49.6555,0.787445,-2.38063
550,49.7159,0.787725,-2.3812
550.6,49.7751,0.790675,-2.38318
551.2,49.8341,0.786519,-2.38457
551.8,49.8945,0.785233,-2.38458
552.4,49.9537,0.780817,-2.38589
553,50.0135,0.780243,-2.38716
553.6,50.0742,0.785105,-2.38721
554.2,50.1329,0.780654,-2.38853
554.8,50.1929,0.779973,-2.38985
555.4,50.254,0.790814,-2.39116
556,50.3123,0.784625,-2.39116
556.6,50.3704,0.782923,-2.39131
557.2,50.4326,0.782114,-2.39356
557.8,50.4917,0.774598,-2.3938
558.4,50.5519,0.780153,-2.39547
559,50.6108,0.780433,-2.39719
559.6,50.6711,0.778056,-2.39709
560.2,50.7313,0.775213,-2.39702
560.8,50.7902,0.778129,-2.39702
561.4,50.8499,0.773576,-2.39902
562,50.9089,0.771826,-2.39974
562.6,50.9695,0.778044,-2.40104
563.2,51.0284,0.773711,-2.40247
563.8,51.0888,0.772866,-2.40379
564.4,51.1483,0.772779,-2.40379
565,51.2087,0.769275,-2.40411
565.6,51.2677,0.771841,-2.40544
566.2,51.3285,0.773141,-2.40541
566.8,51.3865,0.772281,-2.40676
567.4,51.4471,0.771168,-2.40849
568,51.5075,0.780651,-2.40944
568.6,51.567,0.77483,-2.41038
569.2,51.6271,0.777738,-2.41006
569.8,51.6865,0.776831,-2.40938
570.4,51.7464,0.773407,-2.41005
571,51.8053,0.776106,-2.41269
571.6,51.8656,0.78219,-2.41323
572.2,51.926,0.781738,-2.41499
572.8,51.986,0.783654,-2.41624
573.4,52.0463,0.781259,-2.41628
574,52.1052,0.780938,-2.41663
574.6,52.1652,0.785857,-2.41763
575.2,52.2253,0.78305,-2.41887
575.8,52.2858,0.782249,-2.41894
576.4,52.3451,0.790885,-2.41995
577,52.4048,0.779716,-2.42114
577.6,52.4652,0.79187,-2.42018
578.2,52.523,0.790777,-2.42158
578.8,52.5858,0.789017,-2.42212
579.4,52.6448,0.786882,-2.42272
580,52.7047,0.780179,-2.42288
580.6,52.7622,0.789239,-2.42421
581.2,52.824,0.786737,-2.4252
581.8,52.8823,0.785923,-2.4265
582.4,52.9436,0.787594,-2.42783
583,53.0042,0.790022,-2.42773
583.6,53.0645,0.780881,-2.42786
584.2,53.125,0.779943,-2.42914
584.8,53.1851,0.784821,-2.42915
585.4,53.2445,0.784631,-2.43051
586,53.3051,0.780497,-2.43077
586.6,53.3648,0.77943,-2.43047
587.2,53.4245,0.770933,-2.43047
587.8,53.4844,0.77495,-2.4316
588.4,53.5429,0.774223,-2.4321
589,53.605,0.771426,-2.43311
589.6,53.6648,0.771858,-2.43447
590.2,53.7247,0.771754,-2.43443
590.8,53.7842,0.769257,-2.43573
591.4,53.8448,0.778724,-2.43703
592,53.9049,0.775947,-2.43821
592.6,53.9647,0.771662,-2.43706
593.2,54.0243,0.774786,-2.43841
593.8,54.0831,0.771008,-2.43838
594.4,54.1441,0.777943,-2.43975
595,54.2045,0.779768,-2.43969
595.6,54.264,0.771489,-2.44078
596.2,54.3242,0.786029,-2.44102
596.8,54.3842,0.782138,-2.44101
597.4,54.445,0.785301,-2.44101
598,54.5044,0.786504,-2.44371
598.6,54.5645,0.795686,-2.44496
599.2,54.6243,0.784621,-2.44493
599.8,54.6847,0.786025,-2.44487
600.4,54.7454,0.78474,-2.44496
601,54.8049,0.787622,-2.44492
601.6,54.8639,0.78733,-2.44542
602.2,54.9244,0.77818,-2.44677
602.8,54.9844,0.790106,-2.44845
603.4,55.0443,0.774492,-2.44936
604,55.1033,0.789197,-2.45023
604.6,55.1632,0.789397,-2.45123
605.2,55.2241,0.793385,-2.45155
605.8,55.2846,0.786526,-2.45093
606.4,55.345,0.796079,-2.45119
607,55.4047,0.788725,-2.45154
607.6,55.4644,0.79883,-2.45284
608.2,55.5241,0.799048,-2.4518
608.8,55.5844,0.795334,-2.45319
609.4,55.6441,0.800824,-2.45451
610,55.7035,0.808736,-2.45451
610.6,55.7629,0.798682,-2.45451
611.2,55.8234,0.80402,-2.45584
611.8,55.8818,0.808358,-2.45716
612.4,55.9425,0.813282,-2.4581
613,56.0027,0.816805,-2.45845
613.6,56.0626,0.813435,-2.45982
614.2,56.1203,0.812843,-2.45978
614.8,56.1822,0.815464,-2.45978
615.4,56.2433,0.81778,-2.46041
616,56.3019,0.819891,-2.46094
616.6,56.363,0.823786,-2.4611
617.2,56.4222,0.820543,-2.46207
617.8,56.483,0.823933,-2.46208
618.4,56.5434,0.827254,-2.46209
619,56.6031,0.822348,-2.46316
619.6,56.6632,0.826985,-2.46308
620.2,56.7243,0.822964,-2.46308
620.8,56.7827,0.828344,-2.46308
621.4,56.844,0.823303,-2.46354
622,56.9035,0.831941,-2.46599
622.6,56.9633,0.837683,-2.46746
623.2,57.024,0.835836,-2.46744
623.8,57.0844,0.837656,-2.46747
624.4,57.1449,0.845814,-2.46882
625,57.2044,0.850763,-2.46879
625.6,57.2646,0.847225,-2.46879
626.2,57.3259,0.844296,-2.4688
626.8,57.3858,0.84383,-2.47011
627.4,57.4457,0.841014,-2.47142
628,57.5067,0.839259,-2.47274
628.6,57.5658,0.842203,-2.47274
629.2,57.6266,0.845908,-2.47272
629.8,57.6876,0.846779,-2.47406
630.4,57.7467,0.843053,-2.47406
631,57.8073,0.851319,-2.47407
631.6,57.8676,0.849522,-2.4754
632.2,57.9278,0.846445,-2.47537
632.8,57.9883,0.850335,-2.47603
633.4,58.0493,0.848716,-2.47604
634,58.108,0.8538,-2.47735
634.6,58.1689,0.854296,-2.47867
635.2,58.2287,0.848129,-2.47735
635.8,58.2906,0.838502,-2.47735
636.4,58.3502,0.846625,-2.4784
637,58.4101,0.842692,-2.47867
637.6,58.4706,0.847373,-2.47885
638.2,58.5306,0.845891,-2.48
638.8,58.5914,0.842027,-2.4813
639.4,58.6517,0.83913,-2.48256
640,58.711,0.839366,-2.4813
640.6,58.7709,0.841565,-2.4813
641.2,58.8322,0.840432,-2.48129
641.8,58.8918,0.839251,-2.48258
642.4,58.9529,0.835141,-2.48524
643,59.0132,0.834623,-2.48525
643.6,59.0732,0.840305,-2.48476
644.2,59.1303,0.839652,-2.48394
644.8,59.1932,0.847455,-2.48525
645.4,59.2529,0.843169,-2.48528
646,59.3143,0.841952,-2.48657
646.6,59.3743,0.841401,-2.48558
647.2,59.4347,0.838254,-2.48693
647.8,59.4949,0.843214,-2.4869
648.4,59.5558,0.847483,-2.48823
649,59.6145,0.844263,-2.48822
649.6,59.6735,0.839471,-2.4879
650.2,59.7367,0.839936,-2.48922
650.8,59.7966,0.838407,-2.48855
651.4,59.8569,0.839311,-2.48987
652,59.9169,0.837954,-2.48987
652.6,59.9767,0.839118,-2.49118
653.2,60.0367,0.837987,-2.49249
653.8,60.0978,0.838757,-2.49267
654.4,60.1581,0.84595,-2.49381
655,60.2193,0.84857,-2.49339
655.6,60.2786,0.84498,-2.49382
656.2,60.3383,0.848555,-2.49245
656.8,60.3979,0.842536,-2.49382
657.4,60.4585,0.838867,-2.49382
658,60.5189,0.842778,-2.49519
658.6,60.5794,0.846762,-2.49513
659.2,60.6375,0.839501,-2.49645
659.8,60.7004,0.835058,-2.49645
660.4,60.7599,0.843083,-2.49645
661,60.8194,0.842579,-2.49781
661.6,60.8801,0.837668,-2.49777
662.2,60.9412,0.838859,-2.49853
662.8,60.9993,0.840316,-2.49777
663.4,61.0613,0.837483,-2.4992
664,61.1229,0.827261,-2.49908
664.6,61.1817,0.837444,-2.49908
665.2,61.2422,0.831693,-2.49907
665.8,61.3027,0.829705,-2.5004
666.4,61.3631,0.82481,-2.50098
667,61.4228,0.824905,-2.50172
667.6,61.4831,0.824206,-2.50172
668.2,61.5437,0.82472,-2.5031
668.8,61.6048,0.820872,-2.50304
669.4,61.6652,0.821241,-2.50435
670,61.7246,0.820669,-2.50424
670.6,61.7848,0.816126,-2.50566
671.2,61.8459,0.81339,-2.50699
671.8,61.9057,0.816381,-2.50699
672.4,61.9662,0.813199,-2.5083
673,62.0269,0.816799,-2.50822
673.6,62.0878,0.807124,-2.50769
674.2,62.148,0.801788,-2.5083
674.8,62.2079,0.800346,-2.5083
675.4,62.2667,0.803428,-2.50962
676,62.3293,0.807052,-2.51094
676.6,62.3896,0.808167,-2.51096
677.2,62.4498,0.799518,-2.51226
677.8,62.5097,0.80613,-2.51226
678.4,62.5708,0.811233,-2.51226
679,62.6309,0.804788,-2.51226
679.6,62.6921,0.80435,-2.51367
680.2,62.7519,0.807543,-2.51357
680.8,62.8126,0.809893,-2.51228
681.4,62.8736,0.804855,-2.51358
682,62.9333,0.800546,-2.51497
682.6,62.9934,0.796266,-2.5149
683.2,63.0546,0.798112,-2.51508
683.8,63.1144,0.797053,-2.51621
684.4,63.1746,0.792169,-2.51667
685,63.2361,0.801181,-2.51753
685.6,63.2957,0.798227,-2.51753
686.2,63.3565,0.797338,-2.51885
686.8,63.4167,0.797983,-2.51885
687.4,63.477,0.793176,-2.52017
688,63.5375,0.792522,-2.52119
688.6,63.5979,0.79916,-2.52032
689.2,63.6577,0.795681,-2.52015
689.8,63.7187,0.796667,-2.52116
690.4,63.7794,0.794699,-2.52148
691,63.8398,0.790909,-2.52145
691.6,63.901,0.790063,-2.52305
692.2,63.9601,0.788282,-2.52313
692.8,64.0213,0.790012,-2.52315
693.4,64.0816,0.783963,-2.52452
694,64.1428,0.784741,-2.52313
694.6,64.2031,0.782514,-2.52453
695.2,64.264,0.781867,-2.52476
695.8,64.3245,0.776408,-2.52611
696.4,64.3851,0.768891,-2.52609
697,64.4466,0.772115,-2.52741
697.6,64.506,0.766427,-2.52741
698.2,64.5669,0.759811,-2.52806
698.8,64.6272,0.765029,-2.52873
699.4,64.6884,0.762597,-2.52873
700,64.7489,0.753823,-2.52887
700.6,64.8093,0.757249,-2.52973
701.2,64.8699,0.758526,-2.52872
701.8,64.9311,0.754798,-2.52971
702.4,64.9921,0.748446,-2.53098
703,65.052,0.744688,-2.53103
703.6,65.1138,0.748669,-2.53233
704.2,65.172,0.748783,-2.53157
704.8,65.2334,0.750052,-2.53236
705.4,65.2946,0.746397,-2.53366
706,65.3562,0.748912,-2.53366
706.6,65.4162,0.743534,-2.53366
707.2,65.4776,0.735324,-2.53366
707.8,65.5377,0.726607,-2.53498
708.4,65.5977,0.735497,-2.53498
709,65.6586,0.72949,-2.5363
709.6,65.7194,0.72452,-2.53776
710.2,65.7807,0.723561,-2.53631
710.8,65.8407,0.725137,-2.53624
711.4,65.9018,0.720061,-2.53729
712,65.9629,0.724467,-2.53758
712.6,66.0234,0.714337,-2.53803
713.2,66.0836,0.715446,-2.54036
713.8,66.1441,0.699979,-2.53895
714.4,66.2052,0.688408,-2.53915
715,66.2656,0.699581,-2.53916
715.6,66.3262,0.68091,-2.54047
716.2,66.3865,0.683064,-2.54045
716.8,66.4476,0.66818,-2.54179
717.4,66.5082,0.65461,-2.54179
718,66.5691,0.654494,-2.54411
718.6,66.6293,0.653924,-2.54411
719.2,66.69,0.643322,-2.54444
719.8,66.7501,0.64124,-2.5441
720.4,66.8104,0.634752,-2.54542
721,66.8712,0.627093,-2.5458
721.6,66.9315,0.628815,-2.54674
722.2,66.9918,0.623258,-2.54806
722.8,67.0535,0.623743,-2.54805
723.4,67.1146,0.610066,-2.54805
724,67.175,0.617451,-2.54804
724.6,67.2353,0.607773,-2.54838
725.2,67.2957,0.592812,-2.54939
725.8,67.3567,0.587919,-2.54937
726.4,67.417,0.582017,-2.54936
727,67.4763,0.581941,-2.54921
727.6,67.5376,0.584994,-2.55002
728.2,67.5984,0.576353,-2.55002
728.8,67.6595,0.578862,-2.55135
729.4,67.721,0.565778,-2.55132
730,67.7808,0.56591,-2.5521
730.6,67.8414,0.565739,-2.552
731.2,67.9021,0.558201,-2.55323
731.8,67.9629,0.552298,-2.55331
732.4,68.0232,0.551286,-2.55367
733,68.084,0.540244,-2.55463
733.6,68.1445,0.550028,-2.55594
734.2,68.2054,0.548288,-2.55531
734.8,68.2661,0.546947,-2.5553
735.4,68.3267,0.545977,-2.5553
736,68.3867,0.53782,-2.55703
736.6,68.4474,0.526748,-2.55772
737.2,68.5076,0.52278,-2.55927
737.8,68.5691,0.525824,-2.55925
738.4,68.6292,0.517101,-2.55925
739,68.6904,0.522859,-2.55925
739.6,68.7507,0.520259,-2.56207
740.2,68.8115,0.519213,-2.56064
740.8,68.8726,0.516864,-2.56068
741.4,68.9326,0.514746,-2.56068
742,68.994,0.500979,-2.56197
742.6,69.0537,0.507356,-2.56338
743.2,69.1141,0.495177,-2.56331
743.8,69.1756,0.49273,-2.56331
744.4,69.2357,0.496453,-2.56458
745,69.2968,0.490563,-2.56463
745.6,69.3577,0.491186,-2.56463
746.2,69.4183,0.487011,-2.56594
746.8,69.4787,0.490349,-2.56594
747.4,69.5397,0.479041,-2.56595
748,69.5998,0.47599,-2.56726
748.6,69.6607,0.477444,-2.56756
749.2,69.7212,0.481069,-2.56808
749.8,69.7825,0.4769,-2.56792
750.4,69.8425,0.471963,-2.56792
751,69.9026,0.467015,-2.56887
751.6,69.9635,0.465244,-2.56924
752.2,70.0248,0.47001,-2.56859
752.8,70.0843,0.467037,-2.56957
753.4,70.1467,0.462756,-2.56989
754,70.2072,0.454094,-2.57121
754.6,70.267,0.459507,-2.57054
755.2,70.3285,0.455437,-2.57055
755.8,70.3878,0.454902,-2.57128
756.4,70.4488,0.449706,-2.57188
757,70.5086,0.453867,-2.57319
757.6,70.5713,0.447056,-2.57319
758.2,70.6311,0.447948,-2.57322
758.8,70.6928,0.441978,-2.57421
759.4,70.7521,0.444335,-2.57384
760,70.8133,0.441381,-2.57385
760.6,70.8747,0.44817,-2.57648
761.2,70.9349,0.441075,-2.57772
761.8,70.9964,0.444611,-2.5778
762.4,71.0569,0.429627,-2.57912
763,71.1174,0.428441,-2.57846
763.6,71.1791,0.430803,-2.57976
764.2,71.2401,0.432969,-2.57911
764.8,71.2991,0.421988,-2.57908
765.4,71.361,0.415025,-2.58043
766,71.4217,0.403472,-2.58043
766.6,71.4828,0.402231,-2.58179
767.2,71.5434,0.40139,-2.58254
767.8,71.6048,0.396952,-2.58274
768.4,71.6653,0.389694,-2.58308
769,71.7255,0.394731,-2.58406
769.6,71.7863,0.378449,-2.58438
770.2,71.849,0.376863,-2.58366
770.8,71.9091,0.366715,-2.58439
771.4,71.969,0.360118,-2.58325
772,72.0308,0.352721,-2.58307
772.6,72.0905,0.359735,-2.58557
773.2,72.1505,0.344468,-2.58569
773.8,72.2119,0.340221,-2.58439
774.4,72.2731,0.34216,-2.58552
775,72.3346,0.341139,-2.58571
775.6,72.3954,0.338262,-2.58701
776.2,72.4554,0.339491,-2.58702
776.8,72.5167,0.33374,-2.58653
777.4,72.5771,0.3326,-2.58669
778,72.6376,0.332521,-2.58702
778.6,72.6985,0.3296,-2.58702
779.2,72.7595,0.327632,-2.58648
779.8,72.8203,0.325819,-2.58694
780.4,72.8809,0.321861,-2.58834
781,72.9421,0.319667,-2.58834
781.6,73.0026,0.317254,-2.58834
782.2,73.0638,0.308078,-2.58781
782.8,73.1247,0.316501,-2.58833
783.4,73.185,0.312194,-2.58833
784,73.2434,0.313625,-2.58974
784.6,73.3067,0.30745,-2.59251
785.2,73.368,0.302743,-2.59386
785.8,73.4281,0.307638,-2.59383
786.4,73.4885,0.311821,-2.59383
787,73.5495,0.305678,-2.59314
787.6,73.6098,0.302445,-2.59285
788.2,73.6712,0.296234,-2.59415
788.8,73.7322,0.301825,-2.59516
789.4,73.7925,0.30045,-2.59468
790,73.8527,0.298604,-2.59493