File: 01_Data/Nylon_SCBA_Nosecup/STA/N2/10K_min/Nylon_SCBA_Nosecup_STA_N2_10KData_240226_R1.csv
Temp./C,Time/min,DSC/(mW/mg),Mass loss/mg
60.0,0.0,1.02957,-0.00931888
60.5,0.0560814,1.05025,-0.00928696
61,0.113278,1.06036,-0.00852293
61.5,0.170315,1.07681,-0.00792172
62,0.225614,1.08993,-0.00790691
62.5,0.282394,1.10291,-0.00793672
63,0.337482,1.11252,-0.00854691
63.5,0.391604,1.12215,-0.0092274
64,0.447448,1.1281,-0.0105201
64.5,0.501499,1.14361,-0.0104891
65,0.555531,1.15554,-0.0092288
65.5,0.61,1.16078,-0.00918736
66,0.662864,1.16801,-0.00945336
66.5,0.71636,1.1779,-0.01029
67,0.771281,1.18218,-0.0106109
67.5,0.82397,1.1933,-0.00921151
68,0.878224,1.20872,-0.00918862
68.5,0.933954,1.21492,-0.00922006
69,0.985642,1.22039,-0.00922766
69.5,1.03949,1.22658,-0.00922993
70,1.09184,1.22954,-0.0104203
70.5,1.14499,1.23508,-0.00917447
71,1.198,1.23809,-0.00917836
71.5,1.25009,1.25205,-0.0114981
72,1.30307,1.25132,-0.0106225
72.5,1.35488,1.25747,-0.01065
73,1.40831,1.26935,-0.0106527
73.5,1.45877,1.27781,-0.0106444
74,1.51111,1.27674,-0.010648
74.5,1.56483,1.27514,-0.0106501
75,1.61648,1.28941,-0.0106583
75.5,1.66965,1.28927,-0.0119631
76,1.71974,1.2904,-0.01066
76.5,1.77188,1.29486,-0.0107441
77,1.82455,1.28594,-0.00933828
77.5,1.87612,1.28299,-0.0106493
78,1.92488,1.2754,-0.0106843
78.5,1.97834,1.27185,-0.0106458
79,2.0303,1.26809,-0.0119485
79.5,2.08093,1.25834,-0.01197
80,2.13116,1.26025,-0.0119702
80.5,2.18183,1.25141,-0.0117605
81,2.23421,1.23934,-0.0106281
81.5,2.2853,1.23585,-0.00968519
82,2.33515,1.23127,-0.0106404
82.5,2.38839,1.23113,-0.0106411
83,2.43857,1.22927,-0.0111621
83.5,2.48909,1.21932,-0.0109823
84,2.53961,1.22526,-0.0119691
84.5,2.59034,1.22414,-0.0119699
85,2.64033,1.22278,-0.0120335
85.5,2.69094,1.22497,-0.0113113
86,2.7421,1.22744,-0.0112171
86.5,2.79154,1.23397,-0.0122647
87,2.84257,1.23606,-0.012631
87.5,2.89343,1.24288,-0.0132066
88,2.94329,1.24168,-0.01328
88.5,2.99352,1.24562,-0.0133189
89,3.04388,1.25245,-0.0122881
89.5,3.09372,1.25383,-0.0122728
90,3.14264,1.25835,-0.0136053
90.5,3.19377,1.26237,-0.0149306
91,3.2437,1.2762,-0.0149294
91.5,3.29319,1.27875,-0.0145722
92,3.343,1.27648,-0.0142915
92.5,3.39286,1.28316,-0.0132908
93,3.44125,1.28168,-0.0131233
93.5,3.49189,1.2869,-0.0119731
94,3.54168,1.29156,-0.01325
94.5,3.59086,1.29599,-0.0132903
95,3.64143,1.29291,-0.0130672
95.5,3.69052,1.30921,-0.0119587
96,3.73947,1.30557,-0.013286
96.5,3.7892,1.30815,-0.01328
97,3.83597,1.31394,-0.0132801
97.5,3.88702,1.31789,-0.0138534
98,3.93603,1.32485,-0.01362
98.5,3.98573,1.32164,-0.0132804
99,4.03592,1.32612,-0.01328
99.5,4.08383,1.33384,-0.01328
100,4.13322,1.34174,-0.0131896
100.5,4.18304,1.34569,-0.0119718
101,4.23188,1.34745,-0.0120026
101.5,4.28089,1.35646,-0.0132909
102,4.32946,1.35618,-0.01329
102.5,4.37631,1.36017,-0.0132906
103,4.42758,1.36025,-0.0146183
103.5,4.47682,1.35853,-0.0136194
104,4.52511,1.37154,-0.0132884
104.5,4.57329,1.3697,-0.01329
105,4.62166,1.37264,-0.0132824
105.5,4.67096,1.37824,-0.0145896
106,4.72136,1.3897,-0.0136116
106.5,4.76906,1.38748,-0.01361
107,4.81682,1.39125,-0.0136109
107.5,4.86638,1.3962,-0.0146756
108,4.91414,1.39236,-0.0146
108.5,4.96392,1.40231,-0.0146
109,5.01346,1.41545,-0.0146052
109.5,5.06013,1.40866,-0.0132446
110,5.10931,1.4145,-0.0132802
110.5,5.15874,1.41784,-0.0140076
111,5.20833,1.42218,-0.0132709
111.5,5.25677,1.42428,-0.0133103
112,5.30443,1.42933,-0.0146124
112.5,5.35385,1.43233,-0.0146099
113,5.40213,1.43544,-0.0146986
113.5,5.45162,1.43769,-0.0155994
114,5.49874,1.43817,-0.0142788
114.5,5.54868,1.44645,-0.0142389
115,5.59731,1.44675,-0.0152601
115.5,5.64582,1.45463,-0.01526
116,5.69441,1.45514,-0.015261
116.5,5.7419,1.462,-0.013857
117,5.79142,1.46407,-0.0153189
117.5,5.83795,1.46707,-0.0152599
118,5.88919,1.47481,-0.01526
118.5,5.93704,1.47259,-0.0152536
119,5.98287,1.47611,-0.0139591
119.5,6.03469,1.48057,-0.0152689
120,6.08285,1.47959,-0.0165152
120.5,6.12979,1.48064,-0.0170815
121,6.17962,1.48443,-0.0165797
121.5,6.22739,1.48402,-0.01658
122,6.27686,1.4917,-0.01658
122.5,6.32541,1.48679,-0.0165799
123,6.37321,1.48672,-0.0166384
123.5,6.42121,1.48936,-0.0152673
124,6.47146,1.49264,-0.0155304
124.5,6.51955,1.49861,-0.0159235
125,6.56687,1.50373,-0.0165778
125.5,6.61505,1.49739,-0.01658
126,6.66157,1.51091,-0.0165839
126.5,6.71153,1.51841,-0.0151906
127,6.75991,1.51625,-0.0152601
127.5,6.80616,1.51621,-0.01526
128,6.85642,1.52185,-0.01526
128.5,6.90332,1.52053,-0.0152747
129,6.95224,1.52806,-0.0165797
129.5,7.00004,1.53178,-0.01658
130,7.04904,1.53573,-0.0165796
130.5,7.09663,1.52841,-0.0179715
131,7.14363,1.52989,-0.0179001
131.5,7.1935,1.52936,-0.0179
132,7.2405,1.53747,-0.01789
132.5,7.2894,1.53437,-0.0172364
133,7.33797,1.53665,-0.017239
133.5,7.38521,1.53825,-0.0165905
134,7.43245,1.54643,-0.0165798
134.5,7.48093,1.54638,-0.0166518
135,7.52989,1.55988,-0.0172393
135.5,7.57534,1.55873,-0.017238
136,7.62558,1.55766,-0.0159278
136.5,7.67398,1.55192,-0.0165657
137,7.7211,1.56239,-0.01657
137.5,7.76945,1.56236,-0.0165701
138,7.81788,1.56755,-0.0165484
138.5,7.86545,1.5714,-0.0175629
139,7.91356,1.57027,-0.0178909
139.5,7.96104,1.56788,-0.01789
140,8.00982,1.57576,-0.01789
140.5,8.05769,1.57982,-0.01789
141,8.10507,1.58181,-0.01789
141.5,8.15389,1.57863,-0.0189796
142,8.2013,1.57504,-0.0192105
142.5,8.24897,1.58779,-0.0177866
143,8.29402,1.58094,-0.01789
143.5,8.34525,1.58568,-0.0178346
144,8.39349,1.58872,-0.0192105
144.5,8.44135,1.58957,-0.0192099
145,8.4878,1.59797,-0.0188712
145.5,8.53719,1.60141,-0.0179002
146,8.58564,1.60554,-0.0179007
146.5,8.63212,1.6034,-0.0187595
147,8.68053,1.60798,-0.0202457
147.5,8.72886,1.60013,-0.0201999
148,8.77624,1.61175,-0.0201616
148.5,8.82456,1.61491,-0.0201263
149,8.87147,1.62246,-0.0208822
149.5,8.91881,1.62232,-0.0205231
150,8.96519,1.62735,-0.02053
150.5,9.01511,1.62418,-0.0205301
151,9.0631,1.62699,-0.0218721
151.5,9.11135,1.62632,-0.0205274
152,9.15934,1.62807,-0.02053
152.5,9.20694,1.63243,-0.02053
153,9.25489,1.63791,-0.02053
153.5,9.2993,1.64073,-0.0205314
154,9.34996,1.64444,-0.0216482
154.5,9.39836,1.64098,-0.02185
155,9.445,1.65237,-0.02185
155.5,9.49272,1.65659,-0.02185
156,9.54166,1.65694,-0.0218495
156.5,9.58886,1.66018,-0.0231525
157,9.6376,1.66088,-0.0231703
157.5,9.68502,1.66425,-0.02317
158,9.73212,1.6677,-0.02317
158.5,9.77859,1.66325,-0.02317
159,9.82818,1.67971,-0.02317
159.5,9.87392,1.67142,-0.02317
160,9.92236,1.67529,-0.02317
160.5,9.97066,1.67726,-0.02317
161,10.0179,1.67614,-0.0233626
161.5,10.066,1.67881,-0.0244886
162,10.1139,1.67251,-0.0244903
162.5,10.161,1.68078,-0.0243208
163,10.2098,1.68456,-0.0231707
163.5,10.2566,1.68677,-0.02317
164,10.3052,1.6928,-0.0231359
164.5,10.353,1.68973,-0.024494
165,10.4011,1.68911,-0.0244899
165.5,10.447,1.69145,-0.0244843
166,10.4956,1.69574,-0.0244794
166.5,10.5437,1.69274,-0.02448
167,10.5887,1.70445,-0.02448
167.5,10.6367,1.70238,-0.02448
168,10.6856,1.70806,-0.02448
168.5,10.734,1.71131,-0.02448
169,10.781,1.71251,-0.02448
169.5,10.8287,1.71829,-0.0244804
170,10.8769,1.71994,-0.0254431
170.5,10.9248,1.72448,-0.0258
171,10.9723,1.72439,-0.0258
171.5,11.0202,1.73067,-0.0258
172,11.0664,1.73346,-0.0258
172.5,11.1158,1.73578,-0.0257999
173,11.1628,1.73827,-0.0258833
173.5,11.2095,1.73908,-0.0244796
174,11.2543,1.74905,-0.02448
174.5,11.3048,1.74798,-0.0244802
175,11.3525,1.75552,-0.0243581
175.5,11.4005,1.75478,-0.0258379
176,11.4478,1.75871,-0.0244802
176.5,11.4956,1.76418,-0.0251016
177,11.5433,1.76933,-0.0263372
177.5,11.5906,1.77348,-0.02712
178,11.6378,1.7779,-0.02712
178.5,11.6849,1.77741,-0.0269991
179,11.7335,1.78414,-0.0258023
179.5,11.7795,1.78768,-0.0258
180,11.8286,1.79409,-0.0258
180.5,11.8757,1.79274,-0.0258
181,11.9245,1.79519,-0.0257996
181.5,11.9712,1.79745,-0.0260596
182,12.0182,1.80366,-0.0264602
182.5,12.0664,1.8135,-0.0264447
183,12.1136,1.81819,-0.0254082
183.5,12.1603,1.81823,-0.0261288
184,12.2083,1.82482,-0.02613
184.5,12.2562,1.82893,-0.02613
185,12.3032,1.83571,-0.02613
185.5,12.3491,1.84096,-0.0261301
186,12.3976,1.84256,-0.0261325
186.5,12.4456,1.84085,-0.0258004
187,12.4934,1.8475,-0.0258004
187.5,12.5408,1.85253,-0.0270813
188,12.5891,1.86749,-0.02711
188.5,12.6372,1.87447,-0.02711
189,12.6839,1.87071,-0.02711
189.5,12.7318,1.8784,-0.0271098
190,12.7793,1.88271,-0.0266341
190.5,12.827,1.89109,-0.0258012
191,12.8748,1.90647,-0.0268012
191.5,12.922,1.90831,-0.0281035
192,12.9696,1.92027,-0.0281093
192.5,13.0167,1.93167,-0.027181
193,13.0643,1.94494,-0.0271197
193.5,13.1118,1.95433,-0.02712
194,13.1598,1.96732,-0.02712
194.5,13.2076,1.97978,-0.0271165
195,13.2555,1.99514,-0.0285162
195.5,13.3031,2.01388,-0.0284399
196,13.3507,2.03752,-0.02844
196.5,13.3986,2.05053,-0.02844
197,13.4459,2.06826,-0.02844
197.5,13.4929,2.09031,-0.02844
198,13.5414,2.10431,-0.02844
198.5,13.5889,2.13573,-0.0284459
199,13.6358,2.15698,-0.0294068
199.5,13.6854,2.18964,-0.02942
200,13.7312,2.22524,-0.0294062
200.5,13.7812,2.27216,-0.0281234
201,13.8291,2.32179,-0.0281081
201.5,13.8768,2.37348,-0.0287937
202,13.9257,2.42686,-0.0274435
202.5,13.974,2.49363,-0.0281112
203,14.022,2.55379,-0.0281098
203.5,14.0692,2.63522,-0.0276789
204,14.1189,2.70241,-0.0271201
204.5,14.1674,2.7654,-0.0271209
205,14.2158,2.83041,-0.0280633
205.5,14.2633,2.89794,-0.0284288
206,14.3123,2.96455,-0.0297447
206.5,14.3605,3.03765,-0.0297501
207,14.4073,3.1052,-0.0297305
207.5,14.4582,3.17544,-0.0284296
208,14.5058,3.24987,-0.0297538
208.5,14.5549,3.32827,-0.02975
209,14.6022,3.40143,-0.02975
209.5,14.6511,3.47092,-0.02975
210,14.7007,3.55308,-0.02975
210.5,14.7493,3.63031,-0.02975
211,14.7976,3.70525,-0.0297502
211.5,14.846,3.75246,-0.0284154
212,14.8951,3.80838,-0.02843
212.5,14.942,3.83939,-0.0284555
213,14.9906,3.87639,-0.0294264
213.5,15.0389,3.87128,-0.02942
214,15.0836,3.82805,-0.0294194
214.5,15.1322,3.7305,-0.0298226
215,15.1782,3.56722,-0.03074
215.5,15.2235,3.33838,-0.0307517
216,15.2684,3.08344,-0.0294223
216.5,15.3125,2.81792,-0.02942
217,15.3573,2.59718,-0.02942
217.5,15.4024,2.40945,-0.02942
218,15.4483,2.268,-0.02942
218.5,15.4941,2.15574,-0.02942
219,15.5398,2.06533,-0.0294204
219.5,15.5861,2.00591,-0.0297376
220,15.633,1.95696,-0.0297501
220.5,15.6798,1.93199,-0.02975
221,15.7274,1.90722,-0.02975
221.5,15.7739,1.88871,-0.0297531
222,15.8211,1.87232,-0.0310585
222.5,15.8675,1.85744,-0.03107
223,15.9157,1.85164,-0.0310507
223.5,15.9623,1.8514,-0.0317318
224,16.0087,1.8486,-0.03173
224.5,16.0561,1.84044,-0.03173
225,16.1033,1.84952,-0.0317114
225.5,16.1502,1.84617,-0.0307422
226,16.1974,1.83576,-0.03074
226.5,16.245,1.83809,-0.03074
227,16.2923,1.84712,-0.03074
227.5,16.3394,1.84549,-0.03074
228,16.3879,1.84576,-0.03074
228.5,16.4349,1.84262,-0.03074
229,16.4819,1.84304,-0.0307696
229.5,16.529,1.84059,-0.0304104
230,16.5768,1.83646,-0.03041
230.5,16.6235,1.8432,-0.03041
231,16.6722,1.83725,-0.03041
231.5,16.7184,1.84401,-0.0304097
232,16.7663,1.83876,-0.0306995
232.5,16.8135,1.84713,-0.0317191
233,16.8616,1.83874,-0.0317199
233.5,16.9083,1.84014,-0.0312319
234,16.9559,1.84649,-0.0310696
234.5,17.0034,1.84429,-0.0310699
235,17.0506,1.84224,-0.031104
235.5,17.0983,1.85251,-0.0300793
236,17.1462,1.85289,-0.0310767
236.5,17.1935,1.84564,-0.0310701
237,17.2407,1.84886,-0.0313753
237.5,17.2882,1.85017,-0.0314001
238,17.3357,1.85204,-0.0314
238.5,17.3831,1.85294,-0.0314
239,17.4307,1.86234,-0.0314
239.5,17.4781,1.85114,-0.0314
240,17.5237,1.85762,-0.0313791
240.5,17.5732,1.85816,-0.0300905
241,17.6202,1.85767,-0.0300964
241.5,17.6682,1.84941,-0.0310689
242,17.7155,1.84721,-0.0310701
242.5,17.7622,1.84971,-0.0315823
243,17.81,1.85531,-0.0323899
243.5,17.8577,1.84769,-0.0323891
244,17.9054,1.84316,-0.0313909
244.5,17.9524,1.84158,-0.0310714
245,17.9998,1.84396,-0.0322211
245.5,18.0474,1.84316,-0.0310699
246,18.096,1.84145,-0.0322563
246.5,18.1429,1.84618,-0.0323904
247,18.1893,1.84922,-0.03239
247.5,18.2374,1.84863,-0.03239
248,18.2829,1.84458,-0.03239
248.5,18.3317,1.84129,-0.03239
249,18.3792,1.83892,-0.03239
249.5,18.4268,1.84129,-0.03239
250,18.474,1.83975,-0.0323895
250.5,18.5223,1.83876,-0.0320366
251,18.5692,1.83746,-0.0317281
251.5,18.6162,1.83263,-0.031056
252,18.6637,1.84258,-0.0310701
252.5,18.7113,1.83405,-0.0310697
253,18.7589,1.83174,-0.0311395
253.5,18.8064,1.83508,-0.0323901
254,18.854,1.82905,-0.03239
254.5,18.9009,1.83168,-0.03239
255,18.9488,1.82626,-0.03239
255.5,18.995,1.8233,-0.03239
256,19.0438,1.82555,-0.0324071
256.5,19.0903,1.82913,-0.0336974
257,19.1361,1.83365,-0.0337085
257.5,19.185,1.82898,-0.0323933
258,19.2328,1.82616,-0.03239
258.5,19.2805,1.82451,-0.03239
259,19.3274,1.82286,-0.03239
259.5,19.374,1.82608,-0.03239
260,19.4227,1.82493,-0.0324081
260.5,19.4691,1.82356,-0.0330554
261,19.5186,1.82307,-0.0330493
261.5,19.5653,1.82662,-0.0337374
262,19.6122,1.82471,-0.034041
262.5,19.6594,1.8239,-0.0340399
263,19.7061,1.82756,-0.0337797
263.5,19.7544,1.83146,-0.0333804
264,19.8026,1.82428,-0.03338
264.5,19.849,1.82777,-0.03338
265,19.8967,1.83575,-0.03338
265.5,19.9442,1.83009,-0.03338
266,19.9924,1.82521,-0.03338
266.5,20.0394,1.83269,-0.03338
267,20.086,1.83084,-0.03338
267.5,20.1336,1.82998,-0.0333732
268,20.1798,1.82554,-0.0337106
268.5,20.2285,1.82568,-0.03371
269,20.2768,1.82478,-0.0337101
269.5,20.324,1.82083,-0.0336845
270,20.3709,1.82609,-0.0343709
270.5,20.4192,1.82819,-0.03437
271,20.4671,1.81905,-0.0343857
271.5,20.5142,1.8226,-0.0350244
272,20.5621,1.82629,-0.03502
272.5,20.6103,1.82311,-0.03502
273,20.6564,1.82817,-0.03502
273.5,20.7057,1.82492,-0.03502
274,20.7527,1.81839,-0.03502
274.5,20.7999,1.8214,-0.03502
275,20.848,1.82146,-0.03502
275.5,20.8955,1.82157,-0.03502
276,20.9429,1.826,-0.03502
276.5,20.9912,1.82216,-0.0350069
277,21.0383,1.82034,-0.0343581
277.5,21.0852,1.81934,-0.0343279
278,21.1337,1.8182,-0.0350211
278.5,21.1822,1.8142,-0.0362812
279,21.2297,1.81744,-0.0363404
279.5,21.2762,1.82022,-0.0363289
280,21.3251,1.81931,-0.0350276
280.5,21.3716,1.82514,-0.03502
281,21.4172,1.82036,-0.0349693
281.5,21.4671,1.82222,-0.0363436
282,21.5141,1.81654,-0.03634
282.5,21.5619,1.82165,-0.0363411
283,21.6096,1.81606,-0.0370532
283.5,21.6575,1.81238,-0.037
284,21.7053,1.81331,-0.0370059
284.5,21.7544,1.8118,-0.0356855
285,21.8012,1.81384,-0.0357249
285.5,21.8482,1.81803,-0.0343584
286,21.8957,1.8185,-0.0355448
286.5,21.944,1.82735,-0.0369976
287,21.9922,1.81951,-0.0357383
287.5,22.0398,1.82058,-0.03568
288,22.0877,1.81581,-0.03568
288.5,22.1344,1.81961,-0.0366972
289,22.1821,1.82312,-0.0366699
289.5,22.2301,1.8194,-0.03667
290,22.2792,1.81672,-0.03667
290.5,22.3252,1.81629,-0.03667
291,22.3737,1.81167,-0.03667
291.5,22.4217,1.81738,-0.0366677
292,22.4695,1.81449,-0.0369921
292.5,22.5177,1.82424,-0.037
293,22.5642,1.8237,-0.037
293.5,22.6129,1.82461,-0.0370004
294,22.6607,1.82181,-0.037966
294.5,22.7084,1.82547,-0.0379901
295,22.7561,1.82684,-0.0379899
295.5,22.8036,1.82297,-0.0380159
296,22.8512,1.82465,-0.03667
296.5,22.8991,1.82192,-0.0365769
297,22.9468,1.82374,-0.0379909
297.5,22.9956,1.82645,-0.0379901
298,23.0427,1.83199,-0.0388413
298.5,23.0898,1.82746,-0.0393004
299,23.1379,1.83039,-0.0393
299.5,23.1865,1.83636,-0.0393051
300,23.2321,1.83684,-0.0379846
300.5,23.2821,1.8369,-0.0381933
301,23.3294,1.83745,-0.0392993
301.5,23.3775,1.84213,-0.0393
302,23.4251,1.85102,-0.0393
302.5,23.4722,1.85102,-0.0393
303,23.52,1.84924,-0.0393001
303.5,23.5685,1.85044,-0.0391339
304,23.6168,1.84563,-0.0402879
304.5,23.6643,1.85025,-0.04029
305,23.7114,1.85005,-0.04029
305.5,23.759,1.8479,-0.0402904
306,23.8079,1.84758,-0.0416067
306.5,23.8545,1.85795,-0.0402386
307,23.9017,1.85978,-0.0389698
307.5,23.9499,1.85555,-0.0389701
308,23.9979,1.8589,-0.0389667
308.5,24.0442,1.85856,-0.0402829
309,24.0923,1.86955,-0.0412727
309.5,24.1415,1.86491,-0.039953
310,24.1878,1.86468,-0.03996
310.5,24.2352,1.85383,-0.03996
311,24.2841,1.85835,-0.0399647
311.5,24.3325,1.85872,-0.0393019
312,24.3798,1.86041,-0.0402945
312.5,24.427,1.86352,-0.04029
313,24.4743,1.86469,-0.0402907
313.5,24.5226,1.85764,-0.0406511
314,24.57,1.86326,-0.04062
314.5,24.6181,1.86393,-0.04062
315,24.6655,1.86493,-0.0406202
315.5,24.7138,1.87391,-0.0414919
316,24.7618,1.87013,-0.0419404
316.5,24.8085,1.86817,-0.0419638
317,24.8568,1.87571,-0.0406207
317.5,24.9048,1.87112,-0.04062
318,24.9524,1.87395,-0.0406304
318.5,25.0002,1.88066,-0.0419225
319,25.0482,1.87526,-0.04194
319.5,25.0957,1.87522,-0.0432495
320,25.1437,1.877,-0.0436183
320.5,25.1901,1.88344,-0.0432531
321,25.2385,1.8815,-0.0432607
321.5,25.2879,1.89057,-0.0435735
322,25.3356,1.88212,-0.0432604
322.5,25.3834,1.88996,-0.0432598
323,25.4318,1.88656,-0.043453
323.5,25.4793,1.89124,-0.0445792
324,25.5273,1.88605,-0.04458
324.5,25.5747,1.88746,-0.04458
325,25.6226,1.8897,-0.0445801
325.5,25.6697,1.88307,-0.0445461
326,25.7187,1.88992,-0.0449509
326.5,25.7663,1.89691,-0.0458903
327,25.8139,1.88953,-0.04589
327.5,25.8622,1.89881,-0.0458883
328,25.911,1.90055,-0.0462118
328.5,25.9582,1.89723,-0.04622
329,26.0062,1.89911,-0.04622
329.5,26.0515,1.90236,-0.0462057
330,26.1027,1.90504,-0.0472007
330.5,26.1511,1.89907,-0.0485837
331,26.1987,1.89718,-0.04852
331.5,26.2468,1.89874,-0.048239
332,26.2942,1.89448,-0.0472104
332.5,26.3424,1.90023,-0.04721
333,26.3903,1.90547,-0.0472174
333.5,26.439,1.90107,-0.048198
334,26.4869,1.9003,-0.0481996
334.5,26.5341,1.90289,-0.0494643
335,26.5829,1.90395,-0.0495229
335.5,26.6297,1.90695,-0.0484984
336,26.6787,1.90319,-0.0485355
336.5,26.7238,1.8969,-0.0498491
337,26.7755,1.89504,-0.04985
337.5,26.8226,1.89898,-0.04985
338,26.8717,1.89652,-0.0498464
338.5,26.9191,1.89823,-0.0504822
339,26.967,1.90116,-0.0511612
339.5,27.0152,1.89974,-0.05116
340,27.0627,1.90072,-0.05116
340.5,27.1105,1.89855,-0.0511702
341,27.1588,1.89969,-0.0522503
341.5,27.2071,1.90216,-0.051161
342,27.2556,1.9001,-0.0511707
342.5,27.303,1.89196,-0.0524713
343,27.3519,1.89492,-0.0534641
343.5,27.3999,1.89717,-0.0537902
344,27.4463,1.89339,-0.0537942
344.5,27.4962,1.8971,-0.0547754
345,27.5438,1.89591,-0.0547801
345.5,27.592,1.88974,-0.0547928
346,27.6401,1.89275,-0.0537978
346.5,27.6866,1.88877,-0.0540469
347,27.7363,1.89127,-0.0551196
347.5,27.7845,1.886,-0.0551195
348,27.8336,1.89308,-0.0557073
348.5,27.8813,1.88867,-0.0561079
349,27.9288,1.88544,-0.0564312
349.5,27.9771,1.88859,-0.0564287
350,28.0255,1.88649,-0.0573962
350.5,28.074,1.88984,-0.0577495
351,28.1221,1.88657,-0.0577095
351.5,28.1695,1.88676,-0.0603837
352,28.2185,1.89272,-0.061512
352.5,28.2662,1.8846,-0.0610413
353,28.3149,1.8881,-0.0622317
353.5,28.3612,1.89874,-0.0617115
354,28.4106,1.88987,-0.0616956
354.5,28.4587,1.89199,-0.0630195
355,28.5053,1.89872,-0.06302
355.5,28.5557,1.89778,-0.0630152
356,28.6039,1.90625,-0.0643525
356.5,28.6518,1.91151,-0.0643397
357,28.7002,1.91302,-0.0644413
357.5,28.7488,1.91176,-0.0656494
358,28.7963,1.91475,-0.0656501
358.5,28.8447,1.91101,-0.0655668
359,28.8931,1.91358,-0.0669643
359.5,28.9411,1.92087,-0.0682984
360,28.9881,1.93069,-0.0682898
360.5,29.0377,1.9199,-0.06961
361,29.086,1.92068,-0.0696111
361.5,29.1339,1.93045,-0.070873
362,29.1817,1.91873,-0.0709211
362.5,29.2314,1.92759,-0.0718805
363,29.28,1.93722,-0.0721956
363.5,29.3264,1.93876,-0.0735595
364,29.376,1.93906,-0.0735607
364.5,29.4238,1.94679,-0.0746878
365,29.4708,1.94584,-0.0766466
365.5,29.5201,1.94456,-0.0775004
366,29.5686,1.94609,-0.0774817
366.5,29.6163,1.95122,-0.0788192
367,29.665,1.95211,-0.0790362
367.5,29.7118,1.95739,-0.0792045
368,29.762,1.96148,-0.0806884
368.5,29.8099,1.96887,-0.0818988
369,29.859,1.96683,-0.0819811
369.5,29.9069,1.97437,-0.08322
370,29.9555,1.97708,-0.0836986
370.5,30.0017,1.9817,-0.0849084
371,30.0515,1.98837,-0.0861929
371.5,30.098,1.99011,-0.0871712
372,30.1487,1.9847,-0.0884914
372.5,30.1974,1.99788,-0.0898111
373,30.2456,1.99516,-0.0911195
373.5,30.2933,1.99806,-0.0924797
374,30.3422,2.00499,-0.0938373
374.5,30.3903,2.01533,-0.0946464
375,30.4385,2.01287,-0.0954802
375.5,30.4871,2.0222,-0.0963904
376,30.5359,2.02311,-0.097789
376.5,30.5841,2.02791,-0.0992248
377,30.6311,2.02867,-0.100616
377.5,30.6815,2.03363,-0.100508
378,30.7299,2.04246,-0.102077
378.5,30.7774,2.04278,-0.1033
379,30.8274,2.05032,-0.104632
379.5,30.8749,2.05411,-0.105942
380,30.9232,2.06993,-0.10732
380.5,30.9712,2.06849,-0.108729
381,31.0195,2.07988,-0.110023
381.5,31.0686,2.07886,-0.112717
382,31.1169,2.09162,-0.114411
382.5,31.1655,2.10463,-0.115728
383,31.2139,2.10615,-0.118264
383.5,31.2631,2.11856,-0.120138
384,31.3112,2.12166,-0.120948
384.5,31.3593,2.1297,-0.122431
385,31.4083,2.1461,-0.122632
385.5,31.4549,2.1429,-0.124079
386,31.505,2.14431,-0.126882
386.5,31.553,2.16442,-0.128235
387,31.601,2.17414,-0.130058
387.5,31.6506,2.17866,-0.132753
388,31.6985,2.18746,-0.134682
388.5,31.7475,2.19094,-0.135581
389,31.7966,2.20727,-0.138369
389.5,31.8442,2.22145,-0.139648
390,31.8923,2.22774,-0.142021
390.5,31.9417,2.2375,-0.144681
391,31.9899,2.2476,-0.147414
391.5,32.0382,2.25904,-0.14991
392,32.087,2.27918,-0.151607
392.5,32.1359,2.28537,-0.153735
393,32.1837,2.29298,-0.156488
393.5,32.2325,2.3169,-0.158947
394,32.2821,2.32522,-0.161059
394.5,32.3313,2.33947,-0.164516
395,32.3796,2.34756,-0.166856
395.5,32.4277,2.36462,-0.16907
396,32.4747,2.38639,-0.172251
396.5,32.5255,2.39448,-0.175759
397,32.5749,2.40361,-0.178586
397.5,32.623,2.42468,-0.181462
398,32.6712,2.43485,-0.184537
398.5,32.7204,2.4556,-0.188056
399,32.7694,2.47008,-0.190392
399.5,32.8181,2.48821,-0.194687
400,32.8686,2.50795,-0.198426
400.5,32.9159,2.51363,-0.200916
401,32.9647,2.52828,-0.204784
401.5,33.0138,2.54555,-0.20892
402,33.0628,2.57238,-0.212048
402.5,33.1123,2.58716,-0.21606
403,33.1612,2.60667,-0.219411
403.5,33.2098,2.62358,-0.223799
404,33.2596,2.65222,-0.227683
404.5,33.3068,2.66548,-0.23298
405,33.3569,2.68344,-0.238483
405.5,33.4056,2.70674,-0.241935
406,33.4546,2.72356,-0.245136
406.5,33.504,2.7478,-0.250143
407,33.5524,2.76826,-0.255225
407.5,33.6017,2.78258,-0.260231
408,33.6507,2.80358,-0.26416
408.5,33.6991,2.82423,-0.269095
409,33.7456,2.85318,-0.275435
409.5,33.7961,2.86987,-0.279403
410,33.8477,2.89477,-0.28599
410.5,33.8941,2.91092,-0.291701
411,33.9454,2.93025,-0.297204
411.5,33.9949,2.96099,-0.304079
412,34.0436,2.99257,-0.309605
412.5,34.0924,3.01394,-0.316694
413,34.1398,3.03089,-0.322211
413.5,34.1906,3.05913,-0.329328
414,34.2396,3.09604,-0.335984
414.5,34.2876,3.11382,-0.342944
415,34.3391,3.14103,-0.349969
415.5,34.3877,3.16648,-0.35746
416,34.436,3.19491,-0.365091
416.5,34.4845,3.21799,-0.372475
417,34.5348,3.23981,-0.381154
417.5,34.5834,3.26868,-0.389068
418,34.6344,3.35585,-0.39761
418.5,34.6826,3.38389,-0.406102
419,34.7317,3.41286,-0.4147
419.5,34.781,3.43816,-0.423031
420,34.8304,3.46719,-0.432332
420.5,34.8798,3.49124,-0.441306
421,34.9277,3.52863,-0.44956
421.5,34.9778,3.56225,-0.459465
422,35.0261,3.5889,-0.470275
422.5,35.0751,3.62517,-0.479512
423,35.1233,3.64676,-0.488343
423.5,35.1738,3.68495,-0.499558
424,35.2231,3.721,-0.511186
424.5,35.2726,3.77804,-0.5208
425,35.322,3.79497,-0.533381
425.5,35.3711,3.81967,-0.543737
426,35.4201,3.85034,-0.554507
426.5,35.4699,3.88227,-0.566287
427,35.519,3.92016,-0.579208
427.5,35.5669,3.95246,-0.590212
428,35.6174,3.98287,-0.602309
428.5,35.6657,4.02023,-0.614194
429,35.716,4.07002,-0.628434
429.5,35.7646,4.09947,-0.642518
430,35.8137,4.13279,-0.655665
430.5,35.8638,4.1726,-0.668686
431,35.9141,4.20442,-0.683454
431.5,35.9619,4.25806,-0.697827
432,36.0102,4.27967,-0.712472
432.5,36.0597,4.30984,-0.727585
433,36.1097,4.3462,-0.742889
433.5,36.1589,4.38673,-0.758632
434,36.2087,4.43557,-0.773714
434.5,36.2581,4.46668,-0.789493
435,36.3087,4.51145,-0.805777
435.5,36.358,4.55475,-0.823256
436,36.4061,4.59875,-0.841353
436.5,36.4563,4.64332,-0.858976
437,36.5051,4.66729,-0.87706
437.5,36.5557,4.70926,-0.895832
438,36.6031,4.74775,-0.912765
438.5,36.6541,4.79579,-0.931663
439,36.7037,4.82704,-0.951396
439.5,36.7527,4.85238,-0.969751
440,36.8023,4.87957,-0.989275
440.5,36.8518,4.91813,-1.00819
441,36.9007,4.96813,-1.02727
441.5,36.9511,5.014,-1.04956
442,36.9992,5.03388,-1.07107
442.5,37.0498,5.07132,-1.09181
443,37.0996,5.11181,-1.11372
443.5,37.1491,5.16617,-1.13683
444,37.1978,5.1941,-1.15902
444.5,37.2482,5.21802,-1.18124
445,37.2972,5.23775,-1.20332
445.5,37.3453,5.29005,-1.22601
446,37.3973,5.33035,-1.25252
446.5,37.4455,5.36275,-1.27516
447,37.4952,5.37915,-1.2985
447.5,37.5456,5.42432,-1.32409
448,37.5941,5.44922,-1.34885
448.5,37.6442,5.47717,-1.37414
449,37.6937,5.5008,-1.39991
449.5,37.743,5.53752,-1.42599
450,37.7917,5.54858,-1.45342
450.5,37.841,5.56212,-1.48068
451,37.8904,5.57792,-1.50533
451.5,37.9398,5.59952,-1.53138
452,37.9886,5.62806,-1.55976
452.5,38.0381,5.62443,-1.58946
453,38.088,5.62298,-1.61635
453.5,38.1369,5.61801,-1.64334
454,38.1859,5.60016,-1.67174
454.5,38.2339,5.59995,-1.69999
455,38.2836,5.56813,-1.72796
455.5,38.3328,5.54131,-1.75458
456,38.3805,5.49435,-1.78279
456.5,38.4299,5.46383,-1.81198
457,38.4788,5.41756,-1.84131
457.5,38.5271,5.37222,-1.86881
458,38.5743,5.31779,-1.89466
458.5,38.6231,5.26925,-1.92403
459,38.6716,5.18116,-1.95366
459.5,38.7203,5.10488,-1.98303
460,38.7684,5.02099,-2.00902
460.5,38.8163,4.91218,-2.03573
461,38.8642,4.82414,-2.06188
461.5,38.9109,4.70993,-2.08778
462,38.9587,4.59776,-2.11363
462.5,39.008,4.47754,-2.13939
463,39.0547,4.3484,-2.16363
463.5,39.102,4.22385,-2.18732
464,39.1497,4.08392,-2.2125
464.5,39.1963,3.95278,-2.23611
465,39.2445,3.81317,-2.25988
465.5,39.2913,3.67057,-2.28132
466,39.3387,3.52454,-2.30302
466.5,39.3857,3.38597,-2.32354
467,39.4345,3.24708,-2.34535
467.5,39.4812,3.09598,-2.36486
468,39.5286,2.96612,-2.38371
468.5,39.5758,2.82445,-2.40321
469,39.6233,2.69501,-2.41993
469.5,39.6707,2.56631,-2.43622
470,39.7177,2.4309,-2.45453
470.5,39.7654,2.31286,-2.46977
471,39.8116,2.18109,-2.48483
471.5,39.8608,2.07134,-2.50099
472,39.9087,1.9606,-2.51462
472.5,39.956,1.84949,-2.5277
473,40.0044,1.75401,-2.53982
473.5,40.052,1.66163,-2.55167
474,40.1007,1.57537,-2.56414
474.5,40.1483,1.50724,-2.57535
475,40.1951,1.43806,-2.58706
475.5,40.2446,1.3642,-2.59726
476,40.2932,1.28928,-2.607
476.5,40.341,1.23507,-2.61617
477,40.3907,1.18154,-2.62548
477.5,40.4381,1.14025,-2.63375
478,40.4881,1.08738,-2.64321
478.5,40.5375,1.05462,-2.65145
479,40.5858,1.01464,-2.65958
479.5,40.6336,0.963796,-2.66608
480,40.6829,0.933946,-2.67416
480.5,40.7311,0.911811,-2.68111
481,40.7822,0.872141,-2.68944
481.5,40.8295,0.848896,-2.6965
482,40.8787,0.814071,-2.70263
482.5,40.9282,0.799262,-2.707
483,40.9759,0.763368,-2.71298
483.5,41.0245,0.736157,-2.71808
484,41.0734,0.717619,-2.72601
484.5,41.1231,0.688105,-2.73204
485,41.1725,0.657628,-2.73684
485.5,41.2215,0.640777,-2.74202
486,41.2702,0.618706,-2.74582
486.5,41.3192,0.600512,-2.74969
487,41.3683,0.582083,-2.75517
487.5,41.4173,0.551601,-2.75862
488,41.4663,0.528698,-2.76181
488.5,41.5126,0.513264,-2.76522
489,41.5635,0.491567,-2.76918
489.5,41.6134,0.468031,-2.77185
490,41.6615,0.452153,-2.77372
490.5,41.711,0.426329,-2.77672
491,41.7591,0.41792,-2.77974
491.5,41.809,0.387597,-2.78105
492,41.858,0.382329,-2.78226
492.5,41.9066,0.353982,-2.7839
493,41.955,0.352396,-2.78585
493.5,42.004,0.344092,-2.7871
494,42.0528,0.322442,-2.78729
494.5,42.1019,0.312518,-2.7886
495,42.1518,0.30148,-2.78959
495.5,42.2006,0.291152,-2.79013
496,42.2498,0.288109,-2.79132
496.5,42.2969,0.281726,-2.79255
497,42.3481,0.278877,-2.79255
497.5,42.3966,0.275431,-2.79345
498,42.4457,0.272889,-2.79254
498.5,42.4953,0.28394,-2.79255
499,42.5451,0.281408,-2.7938
499.5,42.5938,0.279718,-2.79517
500,42.6408,0.27898,-2.79386
500.5,42.6924,0.280622,-2.79386
501,42.7417,0.279741,-2.79392
501.5,42.789,0.279566,-2.7955
502,42.8385,0.279111,-2.79551
502.5,42.8896,0.286233,-2.79551
503,42.9387,0.282878,-2.79551
503.5,42.9884,0.27783,-2.79551
504,43.0349,0.283064,-2.79551
504.5,43.0855,0.279474,-2.79534
505,43.1358,0.274687,-2.79419
505.5,43.1842,0.275362,-2.79518
506,43.2321,0.274226,-2.79452
506.5,43.2839,0.270372,-2.79452
507,43.3319,0.269516,-2.79452
507.5,43.3816,0.261404,-2.79516
508,43.4317,0.261834,-2.79518
508.5,43.481,0.250654,-2.79518
509,43.5297,0.251076,-2.79529
509.5,43.5798,0.255407,-2.79584
510,43.6298,0.248451,-2.79584
510.5,43.6787,0.239749,-2.79584
511,43.7275,0.23855,-2.79584
511.5,43.7773,0.232056,-2.79717
512,43.8257,0.226715,-2.79716
512.5,43.8753,0.222847,-2.79716
513,43.9253,0.224556,-2.79651
513.5,43.9743,0.224029,-2.79681
514,44.0242,0.221048,-2.79683
514.5,44.0736,0.222907,-2.79683
515,44.1221,0.214026,-2.79649
515.5,44.1721,0.212271,-2.7965
516,44.2218,0.213919,-2.7965
516.5,44.271,0.206514,-2.7965
517,44.3212,0.203242,-2.79549
517.5,44.3701,0.200932,-2.79485
518,44.4198,0.198024,-2.79486
518.5,44.4689,0.197329,-2.79594
519,44.5182,0.195879,-2.79618
519.5,44.5686,0.190293,-2.79619
520,44.6172,0.191731,-2.79747
520.5,44.6673,0.188148,-2.79749
521,44.7163,0.178979,-2.7975
521.5,44.7662,0.175906,-2.7965
522,44.8154,0.175709,-2.79641
522.5,44.864,0.174327,-2.79749
523,44.914,0.173368,-2.79749
523.5,44.9646,0.16467,-2.79749
524,45.0134,0.166574,-2.79749
524.5,45.0625,0.155305,-2.79749
525,45.1125,0.154021,-2.79665
525.5,45.1619,0.150913,-2.79618
526,45.2106,0.148743,-2.79566
526.5,45.2603,0.138011,-2.79516
527,45.3104,0.13426,-2.7965
527.5,45.36,0.126962,-2.7965
528,45.4084,0.124148,-2.7965
528.5,45.4578,0.11508,-2.7965
529,45.5082,0.111371,-2.7965
529.5,45.5575,0.111192,-2.7965
530,45.6069,0.106455,-2.7965
530.5,45.6569,0.0975426,-2.79748
531,45.704,0.0929268,-2.79749
531.5,45.7549,0.0881138,-2.79735
532,45.8045,0.0884802,-2.79617
532.5,45.8537,0.0751536,-2.79619
533,45.9029,0.0703894,-2.79573
533.5,45.9527,0.070583,-2.79716
534,46.0016,0.0676311,-2.79648
534.5,46.0517,0.0545684,-2.7965
535,46.1009,0.0567951,-2.7965
535.5,46.1501,0.0457322,-2.7965
536,46.1999,0.0340118,-2.7965
536.5,46.2496,0.0300987,-2.7965
537,46.299,0.0356735,-2.7965
537.5,46.3485,0.0304857,-2.7965
538,46.3959,0.0238722,-2.7965
538.5,46.4478,0.0229493,-2.7965
539,46.497,0.0131995,-2.79782
539.5,46.5468,0.0121821,-2.79782
540,46.5964,0.00761612,-2.79782
540.5,46.6464,0.00351583,-2.79913
541,46.6955,-0.00169374,-2.79837
541.5,46.7452,-0.0115819,-2.79782
542,46.7943,-0.0146563,-2.79782
542.5,46.8447,-0.0208466,-2.79781
543,46.8946,-0.0243417,-2.79749
543.5,46.9433,-0.02597,-2.79859
544,46.9932,-0.0316754,-2.79881
544.5,47.0412,-0.0310409,-2.79881
545,47.0918,-0.0444196,-2.79881
545.5,47.1422,-0.0485733,-2.79881
546,47.1907,-0.0546267,-2.79881
546.5,47.2404,-0.0535415,-2.79881
547,47.2894,-0.0559332,-2.79881
547.5,47.3387,-0.0645621,-2.79881
548,47.3886,-0.072443,-2.79882
548.5,47.4373,-0.0686891,-2.79749
549,47.4883,-0.074812,-2.79884
549.5,47.538,-0.0716981,-2.79881
550,47.5873,-0.0883878,-2.79881
550.5,47.6366,-0.0796621,-2.79881
551,47.686,-0.0823034,-2.79848
551.5,47.7349,-0.0882454,-2.79848
552,47.785,-0.0922974,-2.79817
552.5,47.8351,-0.0925552,-2.79912
553,47.8848,-0.0981146,-2.79913
553.5,47.9332,-0.106941,-2.79885
554,47.9833,-0.107102,-2.79782
554.5,48.0326,-0.113978,-2.79779
555,48.0827,-0.110306,-2.79913
555.5,48.1312,-0.115802,-2.79913
556,48.1815,-0.115633,-2.79863
556.5,48.231,-0.122724,-2.79847
557,48.2816,-0.130439,-2.79847
557.5,48.3301,-0.127591,-2.79847
558,48.3799,-0.137828,-2.79847
558.5,48.4291,-0.137984,-2.79847
559,48.4781,-0.142829,-2.79847
559.5,48.5293,-0.147908,-2.79984
560,48.5773,-0.143592,-2.80012
560.5,48.6271,-0.154572,-2.80012
561,48.677,-0.158902,-2.80011
561.5,48.7264,-0.162151,-2.79883
562,48.7759,-0.160046,-2.79881
562.5,48.8255,-0.166145,-2.79882
563,48.8752,-0.170823,-2.79914
563.5,48.9259,-0.174008,-2.8
564,48.9744,-0.179109,-2.80012
564.5,49.0239,-0.182372,-2.80009
565,49.0737,-0.17916,-2.79881
565.5,49.1236,-0.183934,-2.79881
566,49.1725,-0.18939,-2.79881
566.5,49.2226,-0.193029,-2.79881
567,49.2714,-0.191737,-2.79882
567.5,49.3211,-0.194442,-2.80012
568,49.3717,-0.206505,-2.80012
568.5,49.4208,-0.203881,-2.80012
569,49.4705,-0.207644,-2.80141
569.5,49.5194,-0.197528,-2.80144
570,49.5693,-0.214559,-2.80012
570.5,49.6185,-0.214794,-2.80013
571,49.6688,-0.21572,-2.80013
571.5,49.7187,-0.215037,-2.80013
572,49.7673,-0.223161,-2.80013
572.5,49.8163,-0.220915,-2.80013
573,49.8668,-0.225391,-2.80013
573.5,49.9164,-0.225873,-2.80013
574,49.9667,-0.229887,-2.80142
574.5,50.0151,-0.226094,-2.80142
575,50.0665,-0.218917,-2.80046
575.5,50.1152,-0.221706,-2.80046
576,50.1636,-0.228297,-2.7996
576.5,50.213,-0.230214,-2.80078
577,50.2643,-0.22864,-2.80078
577.5,50.3152,-0.226231,-2.80045
578,50.3644,-0.231977,-2.80045
578.5,50.4141,-0.229076,-2.80045
579,50.4643,-0.236658,-2.79945
579.5,50.5134,-0.245731,-2.79946
580,50.5642,-0.242527,-2.79946
580.5,50.6128,-0.248368,-2.79946
581,50.6618,-0.250886,-2.79946
581.5,50.7113,-0.238046,-2.79946
582,50.762,-0.243033,-2.79946
582.5,50.8114,-0.239023,-2.79946
583,50.8613,-0.237366,-2.79946
583.5,50.9108,-0.238286,-2.80046
584,50.9617,-0.233116,-2.80045
584.5,51.011,-0.238971,-2.80045
585,51.0602,-0.237475,-2.80063
585.5,51.1112,-0.236777,-2.79979
586,51.1605,-0.236443,-2.79979
586.5,51.2098,-0.229726,-2.79979
587,51.2602,-0.22405,-2.79947
587.5,51.3104,-0.224566,-2.79969
588,51.3594,-0.226694,-2.80018
588.5,51.4099,-0.228664,-2.79913
589,51.46,-0.233424,-2.79913
589.5,51.5096,-0.226299,-2.79913
590,51.5593,-0.225974,-2.8004
590.5,51.6093,-0.225638,-2.80045
591,51.6606,-0.229726,-2.80045
591.5,51.7094,-0.228378,-2.80046
592,51.7589,-0.228619,-2.79912
592.5,51.8087,-0.227961,-2.79817
593,51.8587,-0.224631,-2.79782
593.5,51.9083,-0.229226,-2.79782
594,51.9565,-0.232216,-2.79782
594.5,52.0079,-0.216633,-2.7991
595,52.0588,-0.231181,-2.80051
595.5,52.1088,-0.225703,-2.80045
596,52.1572,-0.214781,-2.80045
596.5,52.2076,-0.22007,-2.80045
597,52.2576,-0.211728,-2.80045
597.5,52.3073,-0.213644,-2.80045
598,52.357,-0.208337,-2.80045
598.5,52.4072,-0.204256,-2.80045
599,52.4565,-0.211089,-2.80045
599.5,52.5057,-0.204599,-2.79996
600,52.556,-0.202613,-2.80114
600.5,52.6068,-0.202085,-2.80079
601,52.6559,-0.199206,-2.80079
601.5,52.7037,-0.193057,-2.80043
602,52.7546,-0.201725,-2.80046
602.5,52.8057,-0.196415,-2.80046
603,52.8545,-0.185967,-2.80047
603.5,52.904,-0.187988,-2.80079
604,52.9539,-0.18113,-2.80079
604.5,53.0042,-0.185581,-2.80185
605,53.0526,-0.17964,-2.80175
605.5,53.1031,-0.178124,-2.80045
606,53.1515,-0.176883,-2.80045
606.5,53.2011,-0.17104,-2.80045
607,53.2496,-0.175455,-2.80045
607.5,53.302,-0.165026,-2.80045
608,53.3518,-0.16886,-2.80045
608.5,53.4007,-0.167413,-2.80045
609,53.451,-0.16845,-2.80045
609.5,53.5014,-0.162901,-2.80045
610,53.5505,-0.164444,-2.80045
610.5,53.6003,-0.154553,-2.80045
611,53.651,-0.14962,-2.80082
611.5,53.7004,-0.14558,-2.80078
612,53.7502,-0.14618,-2.80218
612.5,53.8015,-0.140637,-2.8021
613,53.85,-0.135006,-2.80187
613.5,53.9001,-0.130426,-2.80012
614,53.9485,-0.137615,-2.80012
614.5,54.0007,-0.128579,-2.80012
615,54.0502,-0.124307,-2.80012
615.5,54.1006,-0.127985,-2.80012
616,54.1511,-0.125605,-2.80002
616.5,54.2017,-0.128791,-2.79979
617,54.2513,-0.116492,-2.79979
617.5,54.3017,-0.117262,-2.79979
618,54.3513,-0.124846,-2.79971
618.5,54.4024,-0.121717,-2.80111
619,54.4522,-0.108918,-2.80111
619.5,54.501,-0.105061,-2.80111
620,54.5529,-0.107925,-2.80111
620.5,54.6029,-0.114748,-2.80111
621,54.6526,-0.104399,-2.80111
621.5,54.7029,-0.104824,-2.79979
622,54.7533,-0.0985027,-2.7998
622.5,54.8017,-0.0995357,-2.80207
623,54.8533,-0.103035,-2.8021
623.5,54.9048,-0.0971069,-2.80207
624,54.9544,-0.101375,-2.80138
624.5,55.0022,-0.0998466,-2.80078
625,55.0543,-0.0972585,-2.80078
625.5,55.1059,-0.0939098,-2.80078
626,55.1552,-0.0863486,-2.80078
626.5,55.2054,-0.0955104,-2.80078
627,55.2537,-0.0825696,-2.80111
627.5,55.3054,-0.0871631,-2.80111
628,55.3551,-0.0824159,-2.80111
628.5,55.4053,-0.0789033,-2.80111
629,55.4553,-0.075919,-2.80111
629.5,55.5059,-0.0836355,-2.80112
630,55.5557,-0.0824704,-2.80143
630.5,55.6062,-0.0817335,-2.80013
631,55.6556,-0.0842525,-2.80013
631.5,55.7053,-0.0830845,-2.80016
632,55.7576,-0.0853597,-2.80112
632.5,55.8076,-0.0824801,-2.80112
633,55.8576,-0.081786,-2.80112
633.5,55.9083,-0.0771487,-2.80112
634,55.9574,-0.0777549,-2.80112
634.5,56.0081,-0.0715439,-2.80145
635,56.0582,-0.0732206,-2.80145
635.5,56.1095,-0.0794227,-2.80145
636,56.1578,-0.0753638,-2.80145
636.5,56.2092,-0.0735632,-2.80242
637,56.2589,-0.0760787,-2.80243
637.5,56.3094,-0.0724189,-2.80243
638,56.36,-0.0746099,-2.80244
638.5,56.4096,-0.0694221,-2.8021
639,56.459,-0.0730692,-2.8021
639.5,56.51,-0.0780199,-2.80078
640,56.5601,-0.0664219,-2.80078
640.5,56.6088,-0.069906,-2.80346
641,56.6598,-0.0702063,-2.80342
641.5,56.7102,-0.0652876,-2.80335
642,56.7604,-0.0633782,-2.8021
642.5,56.8103,-0.0646321,-2.8021
643,56.8612,-0.061063,-2.8021
643.5,56.9106,-0.0625302,-2.8021
644,56.9608,-0.0642208,-2.8021
644.5,57.011,-0.0561405,-2.80211
645,57.0613,-0.0548058,-2.80111
645.5,57.1103,-0.0627879,-2.80111
646,57.1613,-0.0654446,-2.80111
646.5,57.2111,-0.0659404,-2.80111
647,57.2617,-0.0668102,-2.80174
647.5,57.312,-0.0624079,-2.80243
648,57.3617,-0.0684515,-2.80099
648.5,57.4126,-0.0658532,-2.80111
649,57.4621,-0.0682498,-2.80251
649.5,57.5122,-0.0689451,-2.80176
650,57.5629,-0.0633295,-2.80177
650.5,57.6133,-0.0694563,-2.80177
651,57.6618,-0.0628907,-2.80177
651.5,57.7137,-0.0610507,-2.80177
652,57.7636,-0.0704541,-2.80176
652.5,57.8148,-0.0583069,-2.80309
653,57.8645,-0.0641137,-2.80309
653.5,57.9142,-0.0598781,-2.80309
654,57.9648,-0.0615259,-2.80309
654.5,58.015,-0.065403,-2.80309
655,58.0655,-0.0614104,-2.80309
655.5,58.1164,-0.0587068,-2.80309
656,58.1667,-0.0610901,-2.80309
656.5,58.2164,-0.0519418,-2.80309
657,58.267,-0.0579312,-2.80309
657.5,58.3172,-0.0583465,-2.80309
658,58.3679,-0.0634389,-2.8024
658.5,58.4186,-0.0670724,-2.80379
659,58.4694,-0.0665305,-2.80272
659.5,58.5192,-0.0683149,-2.80275
660,58.5701,-0.0677748,-2.80274
660.5,58.6201,-0.0661153,-2.80144
661,58.6699,-0.064115,-2.80144
661.5,58.7212,-0.0626916,-2.8016
662,58.7718,-0.0680487,-2.80275
662.5,58.8217,-0.0666074,-2.80407
663,58.8718,-0.065142,-2.80407
663.5,58.9222,-0.064426,-2.80341
664,58.9727,-0.0708083,-2.80275
664.5,59.0236,-0.0670263,-2.80275
665,59.0724,-0.0724661,-2.80275
665.5,59.1245,-0.0748083,-2.80277
666,59.174,-0.0707606,-2.80213
666.5,59.2249,-0.0739988,-2.80342
667,59.2755,-0.074424,-2.80342
667.5,59.3254,-0.0717114,-2.80342
668,59.3763,-0.071672,-2.80342
668.5,59.4267,-0.0686917,-2.80342
669,59.4774,-0.0649981,-2.80342
669.5,59.5276,-0.0692296,-2.80342
670,59.5774,-0.0732313,-2.80342
670.5,59.6284,-0.0736929,-2.80342
671,59.6778,-0.0680988,-2.80342
671.5,59.7284,-0.0622746,-2.80342
672,59.7786,-0.0676692,-2.80272
672.5,59.8281,-0.0696596,-2.80276
673,59.8799,-0.0743776,-2.80276
673.5,59.9296,-0.0686776,-2.80274
674,59.9801,-0.0690963,-2.80408
674.5,60.0299,-0.0711226,-2.80408
675,60.0796,-0.0699675,-2.80417
675.5,60.1307,-0.0700781,-2.80276
676,60.1806,-0.0684908,-2.80276
676.5,60.2308,-0.0743647,-2.80276
677,60.2814,-0.0671275,-2.80276
677.5,60.3313,-0.0714203,-2.80277
678,60.3814,-0.0793535,-2.80375
678.5,60.4319,-0.078181,-2.80375
679,60.4818,-0.0800627,-2.80447
679.5,60.5319,-0.0799506,-2.80441
680,60.5816,-0.0811426,-2.80441
680.5,60.6315,-0.085834,-2.80441
681,60.6821,-0.0779567,-2.8034
681.5,60.7327,-0.0875458,-2.80373
682,60.7824,-0.0759142,-2.8047
682.5,60.8329,-0.0786548,-2.80473
683,60.8826,-0.0809725,-2.80339
683.5,60.9331,-0.0807603,-2.80309
684,60.9838,-0.0861672,-2.80309
684.5,61.0329,-0.0833234,-2.80317
685,61.0842,-0.0777632,-2.8044
685.5,61.1338,-0.0841756,-2.80441
686,61.1842,-0.0818129,-2.80274
686.5,61.2349,-0.0764205,-2.8029
687,61.286,-0.0734025,-2.80407
687.5,61.3358,-0.0776373,-2.80407
688,61.3856,-0.078108,-2.80413
688.5,61.4362,-0.0715216,-2.80342
689,61.4871,-0.0747736,-2.80342
689.5,61.5362,-0.0752069,-2.80468
690,61.5874,-0.0692501,-2.80473
690.5,61.6381,-0.0722905,-2.80367
691,61.687,-0.0747882,-2.80374
691.5,61.7371,-0.073189,-2.80374
692,61.7888,-0.0746201,-2.80374
692.5,61.8396,-0.0731739,-2.80374
693,61.8891,-0.0749834,-2.80374
693.5,61.9401,-0.0759974,-2.80377
694,61.9904,-0.0726455,-2.80242
694.5,62.0402,-0.0685844,-2.80243
695,62.091,-0.0695685,-2.80249
695.5,62.1416,-0.0700093,-2.80341
696,62.1915,-0.067635,-2.80341
696.5,62.2416,-0.0630022,-2.80341
697,62.2923,-0.0662917,-2.80343
697.5,62.3426,-0.0549932,-2.80473
698,62.3941,-0.0628676,-2.80406
698.5,62.4443,-0.0570307,-2.8041
699,62.4948,-0.0665937,-2.80342
699.5,62.546,-0.0639009,-2.80343
700,62.5957,-0.0618584,-2.80405
700.5,62.6463,-0.0620433,-2.80441
701,62.6962,-0.0688677,-2.80465
701.5,62.7469,-0.0614108,-2.80474
702,62.797,-0.0597005,-2.80474
702.5,62.8473,-0.0562862,-2.80346
703,62.8984,-0.0670772,-2.80342
703.5,62.9489,-0.0689253,-2.80342
704,62.9982,-0.0625962,-2.80342
704.5,63.0498,-0.0594169,-2.80473
705,63.0968,-0.0572629,-2.80474
705.5,63.1502,-0.0584732,-2.80509
706,63.2005,-0.0606163,-2.80398
706.5,63.2511,-0.0544691,-2.80506
707,63.3028,-0.0544368,-2.80378
707.5,63.3533,-0.0585418,-2.80375
708,63.402,-0.0562529,-2.80375
708.5,63.4537,-0.052936,-2.80488
709,63.5025,-0.0574688,-2.80506
709.5,63.5547,-0.0573794,-2.80394
710,63.6051,-0.0559303,-2.80374
710.5,63.6555,-0.0574822,-2.80374
711,63.7042,-0.0567476,-2.80374
711.5,63.7563,-0.0567797,-2.80506
712,63.8061,-0.0580298,-2.80506
712.5,63.8572,-0.0534306,-2.80373
713,63.9082,-0.0567439,-2.80374
713.5,63.9584,-0.055179,-2.80476
714,64.0095,-0.0599611,-2.80449
714.5,64.0589,-0.0509038,-2.80374
715,64.1092,-0.0635072,-2.80374
715.5,64.1592,-0.0603162,-2.80374
716,64.2105,-0.0529087,-2.80374
716.5,64.2613,-0.0598885,-2.80406
717,64.3108,-0.0463242,-2.80507
717.5,64.3622,-0.0595322,-2.80506
718,64.4124,-0.0542767,-2.80507
718.5,64.4635,-0.0567752,-2.80374
719,64.5132,-0.054842,-2.80358
719.5,64.5631,-0.0557677,-2.80572
720,64.6138,-0.0572332,-2.80564
720.5,64.6655,-0.061046,-2.80506
721,64.7159,-0.0596413,-2.80506
721.5,64.7666,-0.0623719,-2.80506
722,64.8175,-0.0633684,-2.80506
722.5,64.8678,-0.0618049,-2.80506
723,64.9183,-0.0611397,-2.80507
723.5,64.9682,-0.0611749,-2.80572
724,65.0199,-0.0653524,-2.80572
724.5,65.0696,-0.0626035,-2.80572
725,65.1206,-0.0574877,-2.80572
725.5,65.1709,-0.0586043,-2.80572
726,65.2213,-0.0648363,-2.8062
726.5,65.2721,-0.0718436,-2.80638
727,65.3219,-0.063831,-2.80512
727.5,65.3729,-0.0666517,-2.80638
728,65.424,-0.0708259,-2.80638
728.5,65.4742,-0.0688791,-2.80567
729,65.5246,-0.0715145,-2.80583
729.5,65.5744,-0.0703989,-2.80693
730,65.6254,-0.0797888,-2.80702
730.5,65.6753,-0.0797727,-2.80562
731,65.7261,-0.0756201,-2.80562
731.5,65.7765,-0.0742557,-2.80562
732,65.8276,-0.0758,-2.80526
732.5,65.8789,-0.0748585,-2.80531
733,65.928,-0.0766804,-2.80528
733.5,65.9787,-0.0784297,-2.8056
734,66.0294,-0.085706,-2.80561
734.5,66.0798,-0.0874659,-2.80561
735,66.1301,-0.081882,-2.80561
735.5,66.1801,-0.0843381,-2.80561
736,66.2305,-0.090748,-2.80693
736.5,66.281,-0.0925859,-2.80692
737,66.3313,-0.088858,-2.80561
737.5,66.382,-0.0914483,-2.80561
738,66.4322,-0.0907031,-2.80428
738.5,66.482,-0.0944231,-2.80562
739,66.5325,-0.0918225,-2.80561
739.5,66.5836,-0.0946472,-2.80561
740,66.6333,-0.0961608,-2.80693