File: 01_Data/Polycarbonate_Helmet_Shell/STA/N2/10K_min/Polycarbonate_Helmet_Shell_STA_N2_10KData_241008_R2.csv
Temp./C,Time/min,DSC/(mW/mg),Mass loss/mg
60.0,0.0,0.675873,0.00663245
60.5,0.0584814,0.675175,0.00569616
61,0.115556,0.688608,0.00574489
61.5,0.170401,0.694771,0.00571201
62,0.225272,0.697875,0.00567912
62.5,0.279723,0.713872,0.00438918
63,0.335892,0.711321,0.00599341
63.5,0.387747,0.726082,0.00570848
64,0.443311,0.730893,0.00573907
64.5,0.497791,0.728365,0.00696195
65,0.551041,0.744214,0.00568978
65.5,0.605116,0.751909,0.00571931
66,0.658505,0.756465,0.00569923
66.5,0.710851,0.754261,0.00444814
67,0.765343,0.757355,0.00439083
67.5,0.81816,0.759778,0.00569802
68,0.871301,0.768145,0.00650108
68.5,0.924233,0.772275,0.00548732
69,0.976411,0.7722,0.00443814
69.5,1.02946,0.774453,0.00581183
70,1.08216,0.783916,0.00580981
70.5,1.13481,0.777851,0.0047582
71,1.18813,0.786225,0.005815
71.5,1.24068,0.791734,0.00660231
72,1.29174,0.792148,0.00580992
72.5,1.34341,0.793557,0.00573921
73,1.39618,0.798946,0.00578552
73.5,1.44938,0.798733,0.00581037
74,1.50061,0.810458,0.00509865
74.5,1.5537,0.806258,0.00447291
75,1.60459,0.807621,0.00590932
75.5,1.6567,0.808059,0.0044996
76,1.70792,0.806862,0.00500181
76.5,1.75986,0.812536,0.00581212
77,1.81264,0.824669,0.00562659
77.5,1.86418,0.82034,0.00581027
78,1.91526,0.813115,0.00442141
78.5,1.96636,0.821698,0.00482239
79,2.01758,0.819376,0.00417297
79.5,2.06913,0.8158,0.00451407
80,2.1205,0.818701,0.00449999
80.5,2.17197,0.823465,0.00458995
81,2.22214,0.819362,0.00582016
81.5,2.27417,0.819591,0.00434287
82,2.32462,0.815405,0.00582038
82.5,2.37487,0.82157,0.00581733
83,2.42563,0.824984,0.00590795
83.5,2.47584,0.828125,0.00675378
84,2.52794,0.829251,0.00713023
84.5,2.57833,0.823594,0.00712819
85,2.62738,0.825321,0.00581582
85.5,2.67968,0.832899,0.00580902
86,2.72955,0.833573,0.00713737
86.5,2.78019,0.833129,0.00713077
87,2.82965,0.834458,0.00582353
87.5,2.88029,0.831054,0.00582158
88,2.9303,0.833892,0.00713998
88.5,2.9806,0.832645,0.00714014
89,3.03145,0.842292,0.00713319
89.5,3.07867,0.846062,0.00573106
90,3.13031,0.841503,0.00712472
90.5,3.18108,0.841355,0.00580949
91,3.23051,0.849118,0.00449917
91.5,3.27943,0.851015,0.00581019
92,3.32952,0.853538,0.00581
92.5,3.37899,0.854617,0.00580959
93,3.42941,0.856676,0.00670415
93.5,3.47857,0.862797,0.00713001
94,3.52799,0.869279,0.00712358
94.5,3.57803,0.867034,0.00585088
95,3.62556,0.868543,0.0057837
95.5,3.67528,0.862577,0.00582007
96,3.72661,0.870309,0.00581821
96.5,3.77555,0.874745,0.00457895
97,3.82459,0.875545,0.00449994
97.5,3.87435,0.878448,0.00450011
98,3.92365,0.872923,0.00513045
98.5,3.97215,0.882749,0.00548808
99,4.02176,0.886163,0.00548
99.5,4.06874,0.884407,0.00465987
100,4.12031,0.889347,0.00581038
100.5,4.16757,0.894163,0.00580996
101,4.21891,0.890253,0.00580883
101.5,4.26809,0.889388,0.00510068
102,4.31704,0.891585,0.00518304
102.5,4.36594,0.89203,0.00646864
103,4.41619,0.892096,0.00647528
103.5,4.46481,0.899459,0.00704732
104,4.51507,0.897479,0.00714005
104.5,4.56409,0.893107,0.00714
105,4.61237,0.904757,0.00714039
105.5,4.66098,0.901906,0.00662759
106,4.7102,0.908633,0.00680092
106.5,4.75913,0.904096,0.00679999
107,4.80748,0.912527,0.00680001
107.5,4.85661,0.913888,0.00679386
108,4.90635,0.919666,0.00579905
108.5,4.95532,0.919324,0.00581003
109,5.00456,0.91707,0.00581057
109.5,5.05278,0.9205,0.00581118
110,5.10097,0.922482,0.0058051
110.5,5.1487,0.919085,0.00450474
111,5.19945,0.925273,0.00448812
111.5,5.24865,0.922136,0.00572361
112,5.29571,0.930851,0.00582027
112.5,5.34469,0.928136,0.00582245
113,5.39422,0.93659,0.00566739
113.5,5.443,0.937361,0.00670497
114,5.4915,0.931322,0.00581723
114.5,5.54003,0.940656,0.00581001
115,5.58868,0.938132,0.0058103
115.5,5.63682,0.935848,0.00637228
116,5.68608,0.943113,0.00614055
116.5,5.73432,0.947268,0.00614
117,5.78378,0.941464,0.00614
117.5,5.83243,0.950639,0.00614
118,5.8818,0.948109,0.00613985
118.5,5.92932,0.949016,0.00715932
119,5.97739,0.955274,0.00712992
119.5,6.02532,0.958247,0.00712989
120,6.07447,0.955906,0.00721175
120.5,6.1233,0.961135,0.00582003
121,6.17188,0.958198,0.00582
121.5,6.21945,0.951902,0.00582
122,6.26628,0.965354,0.00582011
122.5,6.31778,0.962581,0.00573984
123,6.36497,0.972681,0.00714056
123.5,6.41398,0.971034,0.00785925
124,6.46249,0.972701,0.00845154
124.5,6.51065,0.97655,0.00712654
125,6.56058,0.975456,0.00712998
125.5,6.60829,0.978355,0.00713
126,6.6565,0.990749,0.00712998
126.5,6.70551,0.983407,0.0071427
127,6.75292,0.983124,0.00613822
127.5,6.80203,0.989714,0.00614
128,6.85051,0.989257,0.00614164
128.5,6.89919,0.984085,0.00714768
129,6.9467,0.984277,0.00845054
129.5,6.99409,0.981932,0.00844942
130,7.04346,0.987021,0.00778986
130.5,7.09104,0.995555,0.00715397
131,7.13795,0.99307,0.00845228
131.5,7.1894,1.00128,0.00845474
132,7.2367,0.993651,0.00709373
132.5,7.28142,0.996142,0.00713005
133,7.33098,0.997171,0.00712996
133.5,7.38029,1.0039,0.00712438
134,7.42908,1.00596,0.00844872
134.5,7.47758,1.00024,0.00770936
135,7.52509,0.996575,0.00779008
135.5,7.57391,1.0007,0.00779
136,7.62158,0.997746,0.00779277
136.5,7.6695,1.0068,0.00684092
137,7.71761,1.01251,0.00680988
137.5,7.76409,1.01043,0.00681
138,7.81419,1.01406,0.00681
138.5,7.86218,1.00961,0.00681005
139,7.9097,1.02513,0.00681948
139.5,7.95791,1.02397,0.00811918
140,8.00451,1.0198,0.00812
140.5,8.05446,1.02214,0.00812
141,8.1015,1.02773,0.00812
141.5,8.14983,1.02649,0.00811783
142,8.19836,1.02182,0.0081834
142.5,8.24733,1.03304,0.00811988
143,8.29423,1.02547,0.00812
143.5,8.34302,1.0263,0.00812
144,8.39116,1.03103,0.00812
144.5,8.43641,1.02693,0.00812
145,8.48677,1.03811,0.00811999
145.5,8.53429,1.03239,0.00812274
146,8.5804,1.04293,0.00679957
146.5,8.63161,1.04169,0.00812226
147,8.67714,1.04151,0.00812001
147.5,8.72523,1.03161,0.00812
148,8.77412,1.03637,0.00811999
148.5,8.82228,1.03651,0.00811599
149,8.87068,1.042,0.00746478
149.5,8.91752,1.04556,0.0074601
150,8.96664,1.04843,0.00739158
150.5,9.01372,1.04679,0.00877233
151,9.05927,1.05066,0.00844829
151.5,9.10783,1.05581,0.00845
152,9.15823,1.05452,0.00845013
152.5,9.20533,1.05828,0.00842098
153,9.25349,1.04981,0.00812019
153.5,9.30103,1.05531,0.00810494
154,9.34869,1.06168,0.00802032
154.5,9.39637,1.05797,0.00812036
155,9.4448,1.06175,0.0081207
155.5,9.49205,1.0678,0.00877518
156,9.5405,1.06513,0.0100906
156.5,9.58799,1.07197,0.0100904
157,9.63546,1.06654,0.00992211
157.5,9.68352,1.06592,0.00844768
158,9.72992,1.07011,0.00845001
158.5,9.77898,1.07649,0.0084481
159,9.82626,1.07489,0.00715077
159.5,9.87454,1.08189,0.00713484
160,9.92226,1.07241,0.00810656
160.5,9.97095,1.08415,0.00812001
161,10.018,1.07685,0.00812
161.5,10.0655,1.08355,0.00812
162,10.1135,1.08337,0.00812
162.5,10.1593,1.08465,0.00812003
163,10.2096,1.08206,0.00810906
163.5,10.2572,1.09342,0.00844656
164,10.3045,1.09524,0.00877742
164.5,10.3523,1.09698,0.00911122
165,10.4,1.10156,0.00812146
165.5,10.4485,1.10967,0.00778981
166,10.4963,1.10498,0.00779
166.5,10.5442,1.10078,0.00779
167,10.5917,1.10839,0.00779
167.5,10.6388,1.11578,0.00779
168,10.6875,1.11972,0.00779049
168.5,10.7357,1.11638,0.00832339
169,10.7832,1.12056,0.00844854
169.5,10.8306,1.12832,0.00836509
170,10.8783,1.13714,0.00845018
170.5,10.9262,1.1497,0.00844679
171,10.9745,1.15228,0.00976279
171.5,11.0213,1.16322,0.00843058
172,11.0696,1.17156,0.008268
172.5,11.1177,1.17709,0.00843699
173,11.1645,1.18172,0.00845004
173.5,11.2129,1.18991,0.00845
174,11.261,1.20273,0.00845
174.5,11.3083,1.20453,0.00844927
175,11.3559,1.21557,0.0098737
175.5,11.4021,1.21215,0.00846444
176,11.4514,1.21274,0.00844998
176.5,11.4994,1.21682,0.00845
177,11.547,1.22468,0.00845
177.5,11.5951,1.21368,0.00845
178,11.6419,1.21595,0.00845
178.5,11.69,1.21682,0.00845
179,11.7382,1.21431,0.00845012
179.5,11.7855,1.21671,0.00834496
180,11.8337,1.21698,0.00952347
180.5,11.8788,1.22079,0.00982056
181,11.9285,1.21961,0.0084497
181.5,11.976,1.21735,0.00845
182,12.0228,1.21442,0.00845
182.5,12.0712,1.21203,0.00845182
183,12.1189,1.22382,0.00776294
183.5,12.1671,1.21897,0.00779003
184,12.2133,1.22443,0.00778608
184.5,12.2614,1.22373,0.00911265
185,12.3088,1.22487,0.00911001
185.5,12.3568,1.22792,0.00911
186,12.405,1.22228,0.00911015
186.5,12.4525,1.22262,0.00897383
187,12.5009,1.22477,0.0084505
187.5,12.5457,1.2313,0.00843754
188,12.5946,1.22471,0.00975846
188.5,12.6428,1.22559,0.00905646
189,12.6901,1.23662,0.00910005
189.5,12.7357,1.22849,0.0091
190,12.7853,1.23595,0.0091
190.5,12.8328,1.23222,0.0091
191,12.881,1.2381,0.0090999
191.5,12.9279,1.23703,0.00913096
192,12.975,1.23471,0.00976027
192.5,13.0233,1.23392,0.00976
193,13.0713,1.23441,0.00976
193.5,13.1182,1.2416,0.00976224
194,13.1661,1.2373,0.00844547
194.5,13.2129,1.23598,0.00844925
195,13.2612,1.24438,0.00977281
195.5,13.3086,1.24501,0.00977001
196,13.3562,1.24381,0.00977
196.5,13.4033,1.23988,0.00977
197,13.4514,1.2493,0.00977004
197.5,13.4984,1.24627,0.00975199
198,13.5466,1.24809,0.00843558
198.5,13.5938,1.24921,0.00844989
199,13.6409,1.25575,0.00845
199.5,13.6891,1.25496,0.00844984
200,13.7361,1.26468,0.00876569
200.5,13.784,1.25767,0.00976905
201,13.8303,1.25378,0.00977
201.5,13.8788,1.26317,0.00977
202,13.9261,1.26093,0.00977
202.5,13.9725,1.26078,0.00977
203,14.0213,1.25871,0.00977
203.5,14.0685,1.27025,0.00977
204,14.1156,1.27353,0.00976993
204.5,14.1641,1.27595,0.00854087
205,14.2122,1.27986,0.00844966
205.5,14.2591,1.26711,0.00845
206,14.3058,1.27969,0.00845
206.5,14.3535,1.27543,0.00845
207,14.4008,1.27721,0.00845
207.5,14.4493,1.27731,0.00844949
208,14.4957,1.27171,0.00984794
208.5,14.5437,1.2819,0.00976989
209,14.5924,1.27886,0.00977
209.5,14.6395,1.27898,0.00977
210,14.6868,1.28678,0.00977076
210.5,14.7339,1.28596,0.00910645
211,14.782,1.28876,0.00877938
211.5,14.8299,1.29319,0.00940444
212,14.8769,1.29772,0.0099855
212.5,14.9243,1.29875,0.0100902
213,14.9721,1.3042,0.01009
213.5,15.0199,1.30692,0.01009
214,15.0673,1.30746,0.01009
214.5,15.1126,1.31297,0.01009
215,15.163,1.31501,0.0100901
215.5,15.2114,1.31453,0.0113942
216,15.2583,1.31719,0.0114161
216.5,15.3055,1.31766,0.0100846
217,15.3531,1.32718,0.0100495
217.5,15.4007,1.32792,0.0114106
218,15.4459,1.32332,0.01141
218.5,15.4966,1.33512,0.01141
219,15.5433,1.32968,0.01141
219.5,15.5916,1.33205,0.0114091
220,15.6391,1.3328,0.0110509
220.5,15.6858,1.33679,0.00967055
221,15.7341,1.33509,0.00977003
221.5,15.781,1.33245,0.00976856
222,15.8286,1.34563,0.00904119
222.5,15.876,1.32958,0.0100194
223,15.924,1.34603,0.0104305
223.5,15.9716,1.34315,0.0101854
224,16.0191,1.34565,0.0084526
224.5,16.0672,1.3414,0.00841124
225,16.1133,1.33635,0.00977434
225.5,16.1612,1.34438,0.00942604
226,16.2076,1.33904,0.00944004
226.5,16.256,1.34092,0.00944
227,16.3033,1.34854,0.00944004
227.5,16.3511,1.34717,0.00943447
228,16.3991,1.34387,0.0107567
228.5,16.4465,1.3438,0.0107579
229,16.4946,1.3477,0.00966378
229.5,16.5402,1.34488,0.00943966
230,16.5892,1.34393,0.00944
230.5,16.6361,1.35154,0.00944
231,16.6836,1.3468,0.00944145
231.5,16.7314,1.35202,0.0104897
232,16.7778,1.34998,0.0117507
232.5,16.8262,1.35046,0.01175
233,16.8739,1.34648,0.01175
233.5,16.9207,1.34538,0.01175
234,16.9688,1.34711,0.01175
234.5,17.0157,1.34968,0.0117199
235,17.0637,1.35649,0.0129098
235.5,17.111,1.34958,0.014075
236,17.1597,1.35727,0.0144351
236.5,17.2073,1.3499,0.0130585
237,17.2555,1.34644,0.01306
237.5,17.3015,1.35663,0.0130576
238,17.3481,1.3615,0.0117248
238.5,17.3971,1.35573,0.0118338
239,17.4446,1.35462,0.0104793
239.5,17.4928,1.35171,0.0117383
240,17.5393,1.35654,0.01174
240.5,17.5874,1.36017,0.01174
241,17.635,1.35895,0.01174
241.5,17.6831,1.36016,0.01174
242,17.7289,1.35705,0.01174
242.5,17.7761,1.35899,0.0117507
243,17.8256,1.35505,0.0120727
243.5,17.8722,1.3547,0.01207
244,17.9196,1.36199,0.01207
244.5,17.9673,1.36826,0.0120699
245,18.0151,1.36553,0.0121096
245.5,18.0627,1.36235,0.0120732
246,18.1103,1.36938,0.01207
246.5,18.1584,1.36261,0.0120696
247,18.2052,1.36297,0.012454
247.5,18.2526,1.36291,0.0133877
248,18.2987,1.36411,0.0110795
248.5,18.3477,1.36073,0.01108
249,18.3954,1.36531,0.0110553
249.5,18.4431,1.36153,0.0113435
250,18.4911,1.3595,0.0123992
250.5,18.5378,1.36422,0.0123993
251,18.5856,1.37257,0.0138088
251.5,18.6333,1.36741,0.0143018
252,18.6819,1.37384,0.0137209
252.5,18.7286,1.37215,0.0124646
253,18.7764,1.37671,0.0123998
253.5,18.8234,1.37166,0.0124
254,18.8714,1.37426,0.0124
254.5,18.9172,1.37308,0.0124
255,18.966,1.37615,0.0124005
255.5,19.0144,1.37461,0.0130094
256,19.0614,1.37547,0.0133901
256.5,19.1089,1.37858,0.01339
257,19.1576,1.37722,0.01339
257.5,19.2037,1.37616,0.01339
258,19.2529,1.37665,0.0133902
258.5,19.2996,1.38039,0.0134233
259,19.3476,1.37772,0.0127295
259.5,19.395,1.3793,0.0120108
260,19.4434,1.38141,0.012295
260.5,19.4902,1.37635,0.01339
261,19.5383,1.38412,0.01339
261.5,19.585,1.37993,0.01339
262,19.6332,1.37866,0.01339
262.5,19.6814,1.3724,0.01339
263,19.7289,1.38683,0.0133931
263.5,19.7768,1.38157,0.014687
264,19.8236,1.38174,0.0147093
264.5,19.8712,1.37636,0.0133905
265,19.9196,1.38359,0.0143836
265.5,19.9668,1.3896,0.01438
266,20.0136,1.37834,0.01438
266.5,20.0618,1.38418,0.0143798
267,20.1106,1.37741,0.0153016
267.5,20.1575,1.38756,0.0153594
268,20.2051,1.38573,0.0140645
268.5,20.2518,1.38396,0.0140499
269,20.3,1.38874,0.0140421
269.5,20.3481,1.39161,0.0143797
270,20.3962,1.38684,0.0143757
270.5,20.4439,1.39143,0.0153867
271,20.4919,1.38651,0.0147144
271.5,20.5385,1.38546,0.01471
272,20.586,1.38628,0.0143966
272.5,20.6346,1.38966,0.0133912
273,20.6818,1.38562,0.0138238
273.5,20.7292,1.38477,0.01603
274,20.778,1.39395,0.0160303
274.5,20.8252,1.38872,0.014605
275,20.8736,1.38559,0.0147101
275.5,20.9219,1.39371,0.0147092
276,20.9686,1.39262,0.0150195
276.5,21.0171,1.3878,0.0156732
277,21.0639,1.3912,0.0163496
277.5,21.1116,1.39213,0.0163723
278,21.1604,1.39509,0.0150396
278.5,21.2079,1.39535,0.0140631
279,21.2558,1.39263,0.0137197
279.5,21.3033,1.39297,0.01372
280,21.3506,1.39617,0.01372
280.5,21.3987,1.39582,0.0139554
281,21.4466,1.39974,0.0146991
281.5,21.4922,1.39596,0.0147
282,21.5421,1.39488,0.0146999
282.5,21.589,1.39693,0.0146514
283,21.6375,1.38876,0.0163453
283.5,21.6855,1.393,0.0161628
284,21.7335,1.39368,0.015031
284.5,21.7818,1.39778,0.0150346
285,21.8296,1.39786,0.0156953
285.5,21.8773,1.39979,0.0160205
286,21.9227,1.39491,0.016714
286.5,21.9697,1.39849,0.0166801
287,22.0205,1.40511,0.0169711
287.5,22.0685,1.40377,0.0164543
288,22.1161,1.4056,0.0156215
288.5,22.1645,1.40593,0.0156901
289,22.2117,1.39867,0.01569
289.5,22.2602,1.40582,0.01569
290,22.3071,1.40647,0.0156902
290.5,22.3551,1.40981,0.0156173
291,22.4042,1.40611,0.01536
291.5,22.4504,1.40773,0.01536
292,22.4995,1.40909,0.0163512
292.5,22.5469,1.40658,0.01635
293,22.5947,1.40305,0.01635
293.5,22.6428,1.40685,0.01635
294,22.691,1.40014,0.017661
294.5,22.7382,1.40612,0.01767
295,22.7862,1.40768,0.0162455
295.5,22.8336,1.40167,0.0163501
296,22.881,1.40331,0.01635
296.5,22.9284,1.39997,0.01635
297,22.9771,1.39888,0.01635
297.5,23.0248,1.40785,0.01635
298,23.0737,1.40637,0.01635
298.5,23.1214,1.40252,0.01635
299,23.1685,1.40643,0.01635
299.5,23.2157,1.40332,0.01635
300,23.2616,1.40787,0.01635
300.5,23.3115,1.4016,0.016352
301,23.3588,1.40316,0.0166773
301.5,23.408,1.41407,0.01668
302,23.4547,1.41143,0.01668
302.5,23.5027,1.40965,0.01668
303,23.5489,1.41424,0.01668
303.5,23.5987,1.41174,0.01668
304,23.6465,1.41348,0.01668
304.5,23.6943,1.41031,0.0166801
305,23.7422,1.41347,0.0166448
305.5,23.7886,1.4117,0.0179999
306,23.8379,1.41242,0.018
306.5,23.8867,1.41154,0.018
307,23.9314,1.41428,0.0179998
307.5,23.9823,1.41476,0.0171767
308,24.0304,1.41479,0.01668
308.5,24.0754,1.4126,0.0177668
309,24.1255,1.41393,0.0180002
309.5,24.1738,1.40952,0.018
310,24.2231,1.41421,0.018
310.5,24.2706,1.41159,0.018
311,24.3182,1.41039,0.018
311.5,24.3665,1.4123,0.018
312,24.4147,1.41354,0.018
312.5,24.4622,1.4172,0.018
313,24.5111,1.40917,0.0180072
313.5,24.559,1.41766,0.017011
314,24.6074,1.41262,0.01701
314.5,24.6559,1.40719,0.01701
315,24.7032,1.41302,0.01701
315.5,24.7515,1.41233,0.01701
316,24.8001,1.41374,0.01701
316.5,24.8477,1.41553,0.01701
317,24.8956,1.41841,0.01701
317.5,24.9418,1.41807,0.01701
318,24.9913,1.42706,0.01701
318.5,25.0392,1.41214,0.01701
319,25.0865,1.41236,0.01701
319.5,25.1355,1.41298,0.01701
320,25.1826,1.42005,0.01701
320.5,25.2318,1.42176,0.01701
321,25.2776,1.41975,0.0170177
321.5,25.3261,1.42038,0.0173361
322,25.3755,1.41664,0.0180021
322.5,25.4235,1.42162,0.0179794
323,25.4712,1.41257,0.0166805
323.5,25.5194,1.41574,0.0167046
324,25.567,1.4186,0.0179992
324.5,25.6154,1.42003,0.017993
325,25.6631,1.41636,0.0166796
325.5,25.7113,1.41852,0.0166773
326,25.7601,1.42287,0.0180371
326.5,25.8073,1.42106,0.0179999
327,25.8544,1.42422,0.018
327.5,25.9034,1.42491,0.018
328,25.9522,1.42006,0.018
328.5,25.999,1.42119,0.018
329,26.0479,1.42395,0.018
329.5,26.0961,1.42294,0.0179993
330,26.1442,1.43064,0.0169645
330.5,26.1913,1.42144,0.0166815
331,26.2407,1.42043,0.0170118
331.5,26.2891,1.41605,0.0179098
332,26.3361,1.41828,0.018
332.5,26.384,1.42381,0.0180001
333,26.4328,1.4248,0.0179637
333.5,26.4813,1.42593,0.0186594
334,26.529,1.41926,0.01866
334.5,26.5771,1.42508,0.01866
335,26.6253,1.42584,0.01866
335.5,26.6737,1.42585,0.0186604
336,26.722,1.42784,0.0190158
336.5,26.7694,1.43085,0.01899
337,26.8177,1.4289,0.01899
337.5,26.8662,1.42938,0.01899
338,26.9143,1.42718,0.01899
338.5,26.963,1.43206,0.01899
339,27.0114,1.42868,0.0189898
339.5,27.0588,1.43956,0.0191649
340,27.1078,1.43551,0.0193202
340.5,27.1565,1.43843,0.01932
341,27.2045,1.43304,0.01932
341.5,27.2521,1.43324,0.01932
342,27.3018,1.43448,0.01932
342.5,27.349,1.43369,0.0193199
343,27.3979,1.43089,0.0180161
343.5,27.4458,1.43499,0.0178878
344,27.4921,1.44162,0.0193201
344.5,27.5422,1.43957,0.01932
345,27.5909,1.43769,0.01932
345.5,27.6396,1.44078,0.01932
346,27.6873,1.44277,0.0193198
346.5,27.7356,1.4416,0.0184396
347,27.7834,1.44644,0.0179996
347.5,27.8321,1.44686,0.018
348,27.8786,1.4394,0.018
348.5,27.9282,1.43756,0.0180228
349,27.9776,1.44894,0.0192417
349.5,28.0254,1.45198,0.0183293
350,28.073,1.44371,0.01833
350.5,28.1223,1.44728,0.0183228
351,28.1706,1.4459,0.0186482
351.5,28.2195,1.45014,0.0182402
352,28.2639,1.44919,0.0170106
352.5,28.3158,1.44793,0.01701
353,28.3635,1.45409,0.01701
353.5,28.4118,1.44847,0.01701
354,28.4609,1.45299,0.0170101
354.5,28.508,1.45047,0.0169657
355,28.5569,1.45222,0.0183252
355.5,28.6058,1.45219,0.01833
356,28.6536,1.44533,0.01833
356.5,28.7025,1.44175,0.01833
357,28.7506,1.44586,0.01833
357.5,28.7981,1.45396,0.01833
358,28.8478,1.45593,0.01833
358.5,28.8944,1.45419,0.01833
359,28.9443,1.45412,0.0183229
359.5,28.9925,1.44788,0.0176762
360,29.0408,1.45161,0.01767
360.5,29.0894,1.44647,0.0176701
361,29.1384,1.45379,0.0179953
361.5,29.1858,1.45477,0.0183299
362,29.2339,1.45213,0.01833
362.5,29.2832,1.45199,0.01833
363,29.3316,1.4505,0.01833
363.5,29.3805,1.45168,0.01833
364,29.4282,1.45629,0.0183143
364.5,29.4761,1.45386,0.0176662
365,29.5246,1.45528,0.01767
365.5,29.574,1.44287,0.0176718
366,29.6209,1.44679,0.0169977
366.5,29.6708,1.45049,0.0180108
367,29.7195,1.45257,0.018
367.5,29.7673,1.4579,0.018
368,29.8161,1.45642,0.0179984
368.5,29.8647,1.45895,0.0172491
369,29.9132,1.45497,0.0186234
369.5,29.9618,1.45506,0.0186601
370,30.0101,1.4521,0.01866
370.5,30.0583,1.45397,0.01866
371,30.1062,1.4575,0.0186599
371.5,30.1556,1.45604,0.0174927
372,30.204,1.45342,0.016678
372.5,30.253,1.4491,0.0180407
373,30.3003,1.45133,0.0179999
373.5,30.3489,1.4499,0.0179991
374,30.3972,1.44755,0.0171301
374.5,30.4463,1.45029,0.0154208
375,30.4944,1.44757,0.0166787
375.5,30.5429,1.45117,0.0180029
376,30.5908,1.45053,0.018
376.5,30.6392,1.44192,0.018
377,30.6893,1.44468,0.018
377.5,30.7378,1.44592,0.018
378,30.7858,1.44523,0.018
378.5,30.8341,1.44803,0.018
379,30.8823,1.44682,0.0180007
379.5,30.9318,1.44693,0.0156986
380,30.9804,1.44641,0.0157
380.5,31.0288,1.44921,0.015701
381,31.0767,1.4547,0.0169951
381.5,31.1254,1.44793,0.01702
382,31.174,1.45003,0.0170198
382.5,31.2231,1.44561,0.0179921
383,31.2721,1.44895,0.01833
383.5,31.3203,1.45562,0.01833
384,31.3694,1.44689,0.0183846
384.5,31.4174,1.45184,0.017341
385,31.4665,1.44896,0.01734
385.5,31.5153,1.44584,0.01734
386,31.5639,1.44454,0.01734
386.5,31.6125,1.44052,0.01734
387,31.6611,1.44109,0.0173439
387.5,31.7096,1.44425,0.0170128
388,31.7587,1.4406,0.01603
388.5,31.8059,1.4429,0.01602
389,31.8547,1.44057,0.0160202
389.5,31.9047,1.44553,0.0164723
390,31.9511,1.43361,0.0186602
390.5,32.001,1.4367,0.01866
391,32.0499,1.43655,0.01866
391.5,32.0991,1.43331,0.01866
392,32.1476,1.43801,0.0186599
392.5,32.1961,1.43362,0.0177355
393,32.2455,1.43153,0.0173395
393.5,32.2949,1.42969,0.01734
394,32.3431,1.42202,0.01734
394.5,32.3929,1.41982,0.01734
395,32.4402,1.41644,0.01734
395.5,32.487,1.41953,0.01734
396,32.5377,1.41019,0.01734
396.5,32.587,1.40906,0.01734
397,32.636,1.40717,0.01734
397.5,32.6841,1.40548,0.01734
398,32.7333,1.4046,0.0173357
398.5,32.7823,1.39998,0.0175278
399,32.8303,1.39162,0.0173402
399.5,32.8795,1.38633,0.0168945
400,32.9284,1.38923,0.0160456
400.5,32.9774,1.38314,0.0173357
401,33.0263,1.38236,0.0169742
401.5,33.0739,1.38787,0.016244
402,33.1212,1.38233,0.01603
402.5,33.172,1.38047,0.01603
403,33.2208,1.38291,0.01603
403.5,33.271,1.38507,0.0160276
404,33.319,1.38785,0.0147085
404.5,33.3673,1.3837,0.0158841
405,33.4168,1.37764,0.0160301
405.5,33.4659,1.38103,0.015134
406,33.514,1.37837,0.0147095
406.5,33.5633,1.37721,0.0147095
407,33.6123,1.37153,0.0134142
407.5,33.6612,1.37081,0.0147674
408,33.7103,1.371,0.0147099
408.5,33.7588,1.37123,0.0147091
409,33.8068,1.37601,0.0138997
409.5,33.8565,1.37411,0.0143784
410,33.903,1.37246,0.0144723
410.5,33.9542,1.36504,0.0156977
411,34.0028,1.36589,0.0143983
411.5,34.0509,1.36545,0.0143789
412,34.1002,1.36399,0.0130584
412.5,34.1484,1.37177,0.01306
413,34.1981,1.36553,0.0130595
413.5,34.247,1.36692,0.013261
414,34.2953,1.36119,0.01437
414.5,34.3447,1.35745,0.0143683
415,34.3937,1.36,0.013186
415.5,34.4399,1.35657,0.01306
416,34.489,1.36598,0.01306
416.5,34.5399,1.35948,0.01306
417,34.5893,1.35832,0.01306
417.5,34.6367,1.35452,0.0130695
418,34.6864,1.35879,0.0133923
418.5,34.7349,1.3643,0.013321
419,34.784,1.36595,0.0131606
419.5,34.8324,1.35465,0.01306
420,34.8811,1.35525,0.01306
420.5,34.9304,1.35791,0.01306
421,34.9789,1.34602,0.0117143
421.5,35.0281,1.34817,0.0117405
422,35.0774,1.34985,0.0110153
422.5,35.1265,1.3516,0.0107496
423,35.1746,1.34492,0.01075
423.5,35.2235,1.34976,0.0107515
424,35.2724,1.34745,0.0104325
424.5,35.322,1.33913,0.00910301
425,35.3706,1.3411,0.00911122
425.5,35.4189,1.34328,0.0104037
426,35.4678,1.33813,0.00911141
426.5,35.5162,1.34224,0.00911
427,35.5654,1.33879,0.00910851
427.5,35.614,1.33818,0.00802608
428,35.6628,1.33664,0.00812008
428.5,35.7119,1.33945,0.00813248
429,35.7607,1.33908,0.00772249
429.5,35.8084,1.34214,0.00832304
430,35.8587,1.34372,0.00779258
430.5,35.9081,1.34093,0.00642264
431,35.9569,1.33502,0.00548991
431.5,36.0053,1.33671,0.00549
432,36.0548,1.33693,0.00548977
432.5,36.1038,1.32714,0.00482129
433,36.153,1.33162,0.00416952
433.5,36.2022,1.33316,0.00275372
434,36.2509,1.33523,0.00285004
434.5,36.2993,1.34071,0.00285001
435,36.3486,1.3335,0.00265964
435.5,36.3973,1.33326,0.00153816
436,36.4467,1.33489,0.000214984
436.5,36.4959,1.32956,0.000218917
437,36.5452,1.33897,-0.00107582
437.5,36.5945,1.34298,-0.0011
438,36.6435,1.33445,-0.00112334
438.5,36.6929,1.33449,-0.0024213
439,36.7409,1.32579,-0.00243965
439.5,36.791,1.32428,-0.00372878
440,36.8393,1.32203,-0.00504537
440.5,36.8892,1.31859,-0.00505278
441,36.9369,1.3201,-0.00635148
441.5,36.9864,1.31992,-0.00627603
442,37.0359,1.32528,-0.00769048
442.5,37.0832,1.31511,-0.00793032
443,37.134,1.31741,-0.0076928
443.5,37.1831,1.31526,-0.00900653
444,37.2317,1.3174,-0.00899776
444.5,37.2801,1.31271,-0.0103175
445,37.3303,1.31062,-0.0116401
445.5,37.3788,1.31608,-0.0116379
446,37.4274,1.31067,-0.0129845
446.5,37.4767,1.31092,-0.014322
447,37.5257,1.30899,-0.0153486
447.5,37.574,1.30341,-0.0155849
448,37.6234,1.30983,-0.0169114
448.5,37.6734,1.30775,-0.0174225
449,37.7224,1.29942,-0.0175704
449.5,37.7709,1.30619,-0.0197047
450,37.82,1.29784,-0.021727
450.5,37.8692,1.29972,-0.0217506
451,37.9184,1.29332,-0.0230446
451.5,37.9683,1.30138,-0.0243833
452,38.0172,1.29406,-0.0257603
452.5,38.0661,1.29027,-0.0263254
453,38.1153,1.2952,-0.0277687
453.5,38.1645,1.28607,-0.0295623
454,38.2138,1.28386,-0.0316628
454.5,38.2625,1.27972,-0.0319319
455,38.3119,1.28551,-0.0336241
455.5,38.3586,1.27461,-0.0346587
456,38.4099,1.28728,-0.036842
456.5,38.4589,1.28433,-0.0388948
457,38.5089,1.27475,-0.0401984
457.5,38.5574,1.28096,-0.0415199
458,38.6066,1.28142,-0.043273
458.5,38.6557,1.27554,-0.0451323
459,38.7053,1.2687,-0.0471163
459.5,38.7539,1.27456,-0.0483056
460,38.8039,1.27255,-0.0500558
460.5,38.8526,1.27221,-0.0526922
461,38.9022,1.27589,-0.0542682
461.5,38.9506,1.27191,-0.0558893
462,39.0009,1.27551,-0.0574529
462.5,39.0492,1.27356,-0.0603425
463,39.0981,1.27087,-0.0622471
463.5,39.1479,1.2689,-0.0653154
464,39.1974,1.27085,-0.0686459
464.5,39.2474,1.27389,-0.0701204
465,39.2963,1.27371,-0.0733482
465.5,39.3459,1.27328,-0.0752511
466,39.3923,1.27854,-0.078298
466.5,39.4444,1.27927,-0.0813983
467,39.4917,1.27848,-0.0828044
467.5,39.5421,1.28066,-0.0852486
468,39.5919,1.28329,-0.0889662
468.5,39.6417,1.2836,-0.0922412
469,39.6913,1.28184,-0.0952328
469.5,39.7407,1.27414,-0.0975198
470,39.7901,1.27407,-0.100614
470.5,39.8394,1.27795,-0.102764
471,39.8887,1.27775,-0.106332
471.5,39.9387,1.27261,-0.110002
472,39.9883,1.27787,-0.114341
472.5,40.0369,1.27789,-0.11779
473,40.0864,1.2754,-0.120283
473.5,40.1361,1.27762,-0.124288
474,40.1858,1.27847,-0.128643
474.5,40.2354,1.28074,-0.132482
475,40.2845,1.28295,-0.13658
475.5,40.3333,1.28258,-0.140962
476,40.3839,1.28314,-0.144242
476.5,40.4331,1.28874,-0.148415
477,40.4821,1.29086,-0.153224
477.5,40.5313,1.29208,-0.158058
478,40.5791,1.29544,-0.16205
478.5,40.6306,1.28405,-0.167219
479,40.6801,1.29188,-0.172544
479.5,40.7298,1.29472,-0.17855
480,40.7786,1.28973,-0.183447
480.5,40.8295,1.28771,-0.190012
481,40.8786,1.29453,-0.196228
481.5,40.9274,1.29391,-0.202019
482,40.9783,1.30012,-0.208446
482.5,41.0271,1.29756,-0.215746
483,41.0764,1.30665,-0.222237
483.5,41.1268,1.31007,-0.228378
484,41.1745,1.3117,-0.234767
484.5,41.224,1.30622,-0.24205
485,41.2737,1.30803,-0.249608
485.5,41.3237,1.31667,-0.256538
486,41.3722,1.31749,-0.263647
486.5,41.4213,1.31551,-0.272145
487,41.4714,1.31702,-0.279952
487.5,41.5211,1.32232,-0.288655
488,41.5709,1.3229,-0.297094
488.5,41.6199,1.32069,-0.306622
489,41.6692,1.32987,-0.315836
489.5,41.7186,1.31975,-0.325044
490,41.7682,1.32314,-0.333833
490.5,41.8179,1.33506,-0.344634
491,41.8665,1.33284,-0.354976
491.5,41.9161,1.3393,-0.365559
492,41.9659,1.35236,-0.37689
492.5,42.0131,1.3586,-0.388557
493,42.0644,1.3698,-0.401881
493.5,42.1133,1.37313,-0.413628
494,42.1636,1.36656,-0.426065
494.5,42.2126,1.37384,-0.438649
495,42.2616,1.37094,-0.451694
495.5,42.3115,1.36809,-0.463917
496,42.3613,1.37314,-0.47767
496.5,42.4104,1.37686,-0.4926
497,42.4591,1.37596,-0.506656
497.5,42.5092,1.37631,-0.521539
498,42.559,1.38867,-0.537072
498.5,42.6089,1.39365,-0.554739
499,42.6574,1.3964,-0.571058
499.5,42.7071,1.4007,-0.58741
500,42.7566,1.40926,-0.6051
500.5,42.8069,1.41106,-0.62328
501,42.8555,1.41377,-0.640164
501.5,42.9057,1.41827,-0.65912
502,42.9549,1.42721,-0.678631
502.5,43.0052,1.43282,-0.699075
503,43.0536,1.44438,-0.718937
503.5,43.1048,1.45035,-0.739362
504,43.1541,1.4581,-0.760099
504.5,43.2008,1.45783,-0.78102
505,43.253,1.47174,-0.805193
505.5,43.3012,1.47054,-0.826197
506,43.3528,1.48059,-0.850144
506.5,43.4016,1.4837,-0.873458
507,43.4523,1.49663,-0.898111
507.5,43.5019,1.50426,-0.920874
508,43.5511,1.51128,-0.945816
508.5,43.6014,1.52159,-0.971516
509,43.6504,1.52797,-0.99815
509.5,43.7009,1.54572,-1.02251
510,43.7498,1.544,-1.04723
510.5,43.8003,1.5663,-1.07329
511,43.8498,1.57375,-1.10048
511.5,43.9,1.57919,-1.12667
512,43.9495,1.5886,-1.15085
512.5,43.9986,1.60032,-1.17645
513,44.0488,1.61002,-1.20333
513.5,44.0982,1.62046,-1.22786
514,44.1479,1.62525,-1.25244
514.5,44.1975,1.62459,-1.27752
515,44.2472,1.61854,-1.30465
515.5,44.2968,1.60607,-1.32832
516,44.3459,1.58049,-1.35171
516.5,44.3959,1.54422,-1.37633
517,44.4452,1.51181,-1.40094
517.5,44.4935,1.45563,-1.42423
518,44.5436,1.39307,-1.44754
518.5,44.5925,1.34565,-1.46883
519,44.6413,1.28672,-1.49099
519.5,44.689,1.23013,-1.51382
520,44.7395,1.16433,-1.5346
520.5,44.7882,1.10053,-1.55436
521,44.8361,1.0408,-1.57454
521.5,44.886,0.972748,-1.59589
522,44.9344,0.91239,-1.61526
522.5,44.983,0.846822,-1.63332
523,45.033,0.781,-1.65216
523.5,45.0811,0.724421,-1.67002
524,45.1302,0.674659,-1.68817
524.5,45.1769,0.621081,-1.70388
525,45.226,0.566619,-1.71944
525.5,45.2771,0.505766,-1.73622
526,45.3264,0.464183,-1.75164
526.5,45.3757,0.419025,-1.76603
527,45.4243,0.377486,-1.77847
527.5,45.4728,0.338499,-1.79283
528,45.5226,0.296851,-1.80619
528.5,45.5714,0.260169,-1.81879
529,45.6213,0.232087,-1.83039
529.5,45.6702,0.19847,-1.84201
530,45.7202,0.170962,-1.85375
530.5,45.7698,0.148981,-1.86432
531,45.8188,0.133256,-1.87449
531.5,45.8682,0.124112,-1.88367
532,45.9181,0.111619,-1.89282
532.5,45.9674,0.0895744,-1.90314
533,46.0159,0.0806942,-1.91072
533.5,46.0669,0.0633221,-1.91893
534,46.1163,0.069144,-1.9277
534.5,46.166,0.0559439,-1.93536
535,46.2134,0.0552724,-1.94234
535.5,46.2651,0.0446423,-1.94982
536,46.3151,0.0485146,-1.95706
536.5,46.3652,0.0446425,-1.96379
537,46.4153,0.044179,-1.97029
537.5,46.4634,0.0401329,-1.97607
538,46.5133,0.0384328,-1.98064
538.5,46.5635,0.0429849,-1.98615
539,46.613,0.0485123,-1.99156
539.5,46.6622,0.0484219,-1.99502
540,46.7128,0.0536288,-2.00173
540.5,46.7624,0.0611504,-2.00671
541,46.8125,0.0570064,-2.0121
541.5,46.8617,0.064022,-2.01683
542,46.9126,0.0699247,-2.02132
542.5,46.9624,0.0781928,-2.02601
543,47.0137,0.0862079,-2.03134
543.5,47.0623,0.0806139,-2.03424
544,47.1121,0.0860133,-2.03881
544.5,47.1619,0.0909262,-2.0424
545,47.2121,0.0956482,-2.04603
545.5,47.2623,0.109181,-2.05033
546,47.312,0.111725,-2.05351
546.5,47.3621,0.110574,-2.05758
547,47.4118,0.114803,-2.05983
547.5,47.4622,0.129789,-2.06338
548,47.5117,0.123086,-2.06648
548.5,47.5616,0.127384,-2.06911
549,47.6119,0.143438,-2.07237
549.5,47.6611,0.136374,-2.07437
550,47.7121,0.14229,-2.07781
550.5,47.763,0.142216,-2.07931
551,47.8119,0.150519,-2.08308
551.5,47.8625,0.159345,-2.08556
552,47.9099,0.155024,-2.08791
552.5,47.9626,0.156148,-2.09106
553,48.0123,0.164256,-2.09256
553.5,48.0616,0.170097,-2.09575
554,48.1116,0.175953,-2.09825
554.5,48.1622,0.183328,-2.10032
555,48.2125,0.179896,-2.1036
555.5,48.2612,0.182472,-2.10529
556,48.3128,0.184342,-2.10799
556.5,48.3624,0.190501,-2.11205
557,48.4122,0.194255,-2.11429
557.5,48.4624,0.199393,-2.11685
558,48.5125,0.20008,-2.12018
558.5,48.5618,0.20567,-2.12057
559,48.6115,0.210253,-2.12332
559.5,48.6619,0.21278,-2.12469
560,48.7121,0.211923,-2.12654
560.5,48.7617,0.216933,-2.12892
561,48.8112,0.223448,-2.13211
561.5,48.8626,0.220088,-2.13377
562,48.9115,0.219138,-2.13671
562.5,48.9622,0.226246,-2.13877
563,49.0107,0.218404,-2.14016
563.5,49.0616,0.227491,-2.14292
564,49.1111,0.231993,-2.14428
564.5,49.1599,0.223673,-2.14558
565,49.212,0.230712,-2.14816
565.5,49.2618,0.238106,-2.14991
566,49.3115,0.242416,-2.15299
566.5,49.3599,0.238577,-2.15479
567,49.4116,0.239752,-2.15586
567.5,49.4623,0.244611,-2.15885
568,49.5123,0.249309,-2.16017
568.5,49.5618,0.246368,-2.16357
569,49.6122,0.244995,-2.1649
569.5,49.6617,0.250813,-2.16505
570,49.7122,0.245801,-2.16641
570.5,49.7619,0.251157,-2.16965
571,49.8127,0.255705,-2.17437
571.5,49.861,0.250129,-2.17577
572,49.9119,0.255308,-2.17615
572.5,49.9625,0.256077,-2.17862
573,50.0127,0.261684,-2.18073
573.5,50.063,0.258531,-2.1835
574,50.1125,0.26397,-2.18504
574.5,50.1625,0.267208,-2.18807
575,50.2123,0.267523,-2.18936
575.5,50.2626,0.261703,-2.19082
576,50.3128,0.26917,-2.19381
576.5,50.3622,0.283427,-2.19499
577,50.4133,0.286135,-2.19796
577.5,50.4624,0.28337,-2.20059
578,50.5127,0.300501,-2.20263
578.5,50.5626,0.295148,-2.2026
579,50.6127,0.299681,-2.2049
579.5,50.6622,0.302065,-2.20708
580,50.7126,0.306464,-2.21016
580.5,50.7625,0.309938,-2.21136
581,50.8126,0.313973,-2.21406
581.5,50.8626,0.311344,-2.21584
582,50.9127,0.316824,-2.21737
582.5,50.9623,0.322351,-2.21916
583,51.0121,0.326207,-2.22123
583.5,51.0627,0.327522,-2.22245
584,51.1132,0.331911,-2.22334
584.5,51.1608,0.334621,-2.2262
585,51.2124,0.333195,-2.22742
585.5,51.2621,0.343001,-2.22973
586,51.3121,0.349972,-2.23175
586.5,51.3622,0.351356,-2.23446
587,51.4128,0.351199,-2.23604
587.5,51.4622,0.357635,-2.23735
588,51.5133,0.36059,-2.24015
588.5,51.563,0.365663,-2.24184
589,51.6118,0.36532,-2.2433
589.5,51.6634,0.375482,-2.24548
590,51.7135,0.372686,-2.24736
590.5,51.7646,0.374223,-2.24808
591,51.814,0.379751,-2.24897
591.5,51.864,0.376597,-2.25134
592,51.9135,0.384481,-2.25378
592.5,51.9643,0.38898,-2.25644
593,52.0147,0.393146,-2.25859
593.5,52.0647,0.394629,-2.26124
594,52.1143,0.396088,-2.26239
594.5,52.1648,0.396705,-2.26369
595,52.2142,0.401252,-2.26488
595.5,52.2651,0.403286,-2.26692
596,52.3143,0.407782,-2.26853
596.5,52.3653,0.41473,-2.27134
597,52.4158,0.421387,-2.273
597.5,52.4649,0.431206,-2.27554
598,52.5158,0.425503,-2.27713
598.5,52.5661,0.43375,-2.2785
599,52.6161,0.429706,-2.27985
599.5,52.6663,0.43143,-2.28079
600,52.7161,0.443518,-2.28514
600.5,52.7676,0.444796,-2.28624
601,52.8176,0.43871,-2.28976
601.5,52.8668,0.443395,-2.29356
602,52.9178,0.446875,-2.29386
602.5,52.9678,0.449387,-2.29514
603,53.0181,0.442632,-2.29752
603.5,53.0691,0.457603,-2.29967
604,53.1189,0.465099,-2.30102
604.5,53.1702,0.466917,-2.30258
605,53.2189,0.473169,-2.3038
605.5,53.2709,0.475418,-2.30549
606,53.3202,0.479845,-2.30663
606.5,53.3699,0.481953,-2.30842
607,53.4205,0.48508,-2.30984
607.5,53.4715,0.485632,-2.31235
608,53.5217,0.4883,-2.314
608.5,53.5722,0.496559,-2.31557
609,53.6225,0.494046,-2.31834
609.5,53.6726,0.496946,-2.31957
610,53.7225,0.494757,-2.32185
610.5,53.774,0.505914,-2.32381
611,53.8222,0.506343,-2.32502
611.5,53.8745,0.515417,-2.32621
612,53.9249,0.519883,-2.32734
612.5,53.9747,0.516917,-2.32907
613,54.0254,0.519984,-2.33154
613.5,54.0748,0.533069,-2.33367
614,54.1255,0.532321,-2.33487
614.5,54.1752,0.52931,-2.33618
615,54.2257,0.535335,-2.33749
615.5,54.2756,0.540784,-2.33883
616,54.3244,0.54352,-2.33896
616.5,54.3768,0.550118,-2.3406
617,54.4265,0.543743,-2.3421
617.5,54.4761,0.550888,-2.34439
618,54.5272,0.551865,-2.3443
618.5,54.5772,0.559392,-2.34577
619,54.6263,0.552651,-2.34748
619.5,54.6775,0.562831,-2.35021
620,54.7274,0.560814,-2.35151
620.5,54.7777,0.572853,-2.35244
621,54.8276,0.572351,-2.35377
621.5,54.8781,0.576918,-2.35507
622,54.9287,0.578296,-2.35567
622.5,54.9779,0.588198,-2.35702
623,55.0288,0.594643,-2.35834
623.5,55.0782,0.593814,-2.35971
624,55.1286,0.586447,-2.36066
624.5,55.1783,0.594215,-2.36189
625,55.2297,0.608267,-2.36389
625.5,55.279,0.603913,-2.36624
626,55.3295,0.614957,-2.36757
626.5,55.3798,0.615939,-2.3689
627,55.4301,0.618507,-2.37019
627.5,55.4796,0.62863,-2.37149
628,55.5308,0.624473,-2.37175
628.5,55.5809,0.634286,-2.37229
629,55.6317,0.639432,-2.37432
629.5,55.6813,0.645666,-2.37534
630,55.7315,0.645806,-2.37561
630.5,55.7823,0.649489,-2.37705
631,55.8327,0.655059,-2.37877
631.5,55.8813,0.653218,-2.3796
632,55.9329,0.659263,-2.38144
632.5,55.9827,0.664627,-2.38236
633,56.0335,0.666006,-2.38357
633.5,56.0833,0.670681,-2.38494
634,56.1331,0.676057,-2.38625
634.5,56.1836,0.68068,-2.38768
635,56.2342,0.682793,-2.38898
635.5,56.2844,0.68798,-2.39042
636,56.3326,0.684872,-2.39147
636.5,56.3851,0.688044,-2.39166
637,56.4349,0.692608,-2.39427
637.5,56.4855,0.701212,-2.39571
638,56.5354,0.697921,-2.39531
638.5,56.5856,0.6979,-2.39557
639,56.636,0.706473,-2.39703
639.5,56.686,0.707055,-2.3992
640,56.7362,0.697916,-2.40056
640.5,56.7874,0.703157,-2.40093
641,56.8368,0.707017,-2.40109
641.5,56.888,0.710562,-2.40181
642,56.9379,0.702734,-2.40184
642.5,56.9869,0.713831,-2.40289
643,57.0386,0.712021,-2.40337
643.5,57.0885,0.712456,-2.40498
644,57.1384,0.718939,-2.40711
644.5,57.1885,0.724193,-2.40797
645,57.2387,0.720226,-2.40881
645.5,57.2888,0.717305,-2.4093
646,57.3389,0.727359,-2.40931
646.5,57.389,0.722746,-2.41062
647,57.4396,0.717821,-2.41219
647.5,57.4895,0.720162,-2.41435
648,57.5399,0.729652,-2.41567
648.5,57.5899,0.733572,-2.41661
649,57.6404,0.732088,-2.41698
649.5,57.6902,0.729467,-2.4183
650,57.7408,0.731655,-2.41829
650.5,57.79,0.730623,-2.41926
651,57.8405,0.732433,-2.42072
651.5,57.8912,0.727061,-2.42104
652,57.9411,0.733425,-2.42236
652.5,57.992,0.728613,-2.42237
653,58.0422,0.733221,-2.42368
653.5,58.0914,0.721224,-2.4237
654,58.1412,0.719584,-2.42503
654.5,58.1927,0.718542,-2.42629
655,58.2436,0.719824,-2.42763
655.5,58.2931,0.717139,-2.42763
656,58.343,0.712618,-2.42763
656.5,58.3946,0.704577,-2.42753
657,58.4446,0.704546,-2.42889
657.5,58.4947,0.695953,-2.42895
658,58.5451,0.693742,-2.43037
658.5,58.5953,0.690261,-2.43034
659,58.6453,0.687474,-2.43259
659.5,58.6961,0.682491,-2.43422
660,58.7464,0.678001,-2.4341
660.5,58.7965,0.680187,-2.4348
661,58.8465,0.670681,-2.43554
661.5,58.8968,0.669309,-2.43554
662,58.9466,0.66165,-2.43531
662.5,58.9971,0.656097,-2.43631
663,59.0478,0.657041,-2.43854
663.5,59.0977,0.65335,-2.43959
664,59.1488,0.637248,-2.44093
664.5,59.1986,0.637945,-2.44044
665,59.249,0.63729,-2.44092
665.5,59.2997,0.635431,-2.44222
666,59.3498,0.628731,-2.44224
666.5,59.3988,0.620144,-2.44224
667,59.4503,0.623938,-2.44355
667.5,59.5013,0.621149,-2.44355
668,59.5508,0.620137,-2.44487
668.5,59.6008,0.612542,-2.44487
669,59.6509,0.610056,-2.44574
669.5,59.7022,0.607766,-2.44524
670,59.7513,0.599052,-2.44619
670.5,59.802,0.60427,-2.4475
671,59.852,0.592507,-2.4475
671.5,59.9035,0.592348,-2.44746
672,59.9515,0.591576,-2.44882
672.5,60.0037,0.586624,-2.44882
673,60.0545,0.585892,-2.45011
673.5,60.1042,0.582524,-2.45006
674,60.1544,0.573592,-2.45145
674.5,60.2054,0.569924,-2.45287
675,60.2555,0.575427,-2.45277
675.5,60.3054,0.569681,-2.45405
676,60.3566,0.568775,-2.45311
676.5,60.4075,0.563841,-2.45407
677,60.4571,0.560811,-2.45408
677.5,60.5087,0.563332,-2.4567
678,60.5577,0.55469,-2.4581
678.5,60.6093,0.551472,-2.45705
679,60.6591,0.543608,-2.45807
679.5,60.7097,0.543084,-2.45805
680,60.7585,0.544907,-2.45903
680.5,60.8104,0.535622,-2.45903
681,60.8616,0.533092,-2.45937
681.5,60.9113,0.533825,-2.46066
682,60.9621,0.525054,-2.46179
682.5,61.0134,0.524804,-2.46329
683,61.0639,0.525627,-2.46396
683.5,61.1138,0.52727,-2.46267
684,61.1651,0.513164,-2.46266
684.5,61.2157,0.508477,-2.46262
685,61.2654,0.504345,-2.46398
685.5,61.317,0.510943,-2.46398
686,61.3671,0.503431,-2.46401
686.5,61.418,0.499372,-2.46529
687,61.4684,0.497296,-2.46548
687.5,61.5193,0.493035,-2.46585
688,61.5682,0.490186,-2.46661
688.5,61.6206,0.488967,-2.46603
689,61.6703,0.482506,-2.46529
689.5,61.722,0.474461,-2.46659
690,61.7725,0.479776,-2.46792
690.5,61.822,0.473276,-2.46792
691,61.8731,0.47409,-2.46795
691.5,61.9234,0.471048,-2.46924
692,61.9751,0.462598,-2.46924
692.5,62.0253,0.46257,-2.4705
693,62.0762,0.465044,-2.47056
693.5,62.1263,0.463911,-2.47111
694,62.1767,0.457738,-2.47183
694.5,62.2276,0.458681,-2.4739
695,62.2776,0.45144,-2.47385
695.5,62.328,0.445302,-2.47385
696,62.3796,0.450413,-2.47444
696.5,62.4294,0.449898,-2.47517
697,62.4797,0.449477,-2.47388
697.5,62.5298,0.43886,-2.47517
698,62.58,0.440063,-2.47648
698.5,62.6312,0.433414,-2.47649
699,62.6817,0.43186,-2.47596
699.5,62.732,0.419178,-2.47646
700,62.7822,0.422487,-2.4766
700.5,62.8322,0.410866,-2.4791
701,62.8834,0.412275,-2.48044
701.5,62.9336,0.410067,-2.47899
702,62.9833,0.402127,-2.47912
702.5,63.0345,0.398827,-2.47912
703,63.0851,0.398967,-2.48041
703.5,63.1351,0.396678,-2.48069
704,63.185,0.398156,-2.48181
704.5,63.2355,0.392563,-2.48043
705,63.286,0.392763,-2.48181
705.5,63.3371,0.388929,-2.48177
706,63.3868,0.386383,-2.4831
706.5,63.4368,0.380623,-2.48406
707,63.4879,0.384102,-2.48406
707.5,63.5388,0.377382,-2.48536
708,63.5886,0.380195,-2.48472
708.5,63.6389,0.373656,-2.48472
709,63.6875,0.369666,-2.48494
709.5,63.7403,0.359403,-2.48603
710,63.7894,0.355748,-2.48661
710.5,63.8409,0.351493,-2.48735
711,63.8918,0.349823,-2.4867
711.5,63.9418,0.343677,-2.48669
712,63.9923,0.340835,-2.48741
712.5,64.0441,0.343152,-2.4873
713,64.094,0.338589,-2.48801
713.5,64.1445,0.335079,-2.48877
714,64.1942,0.333143,-2.48933
714.5,64.2451,0.329696,-2.48958
715,64.2956,0.321883,-2.49064
715.5,64.3467,0.320112,-2.49063
716,64.397,0.312295,-2.49196
716.5,64.4471,0.30458,-2.49196
717,64.4971,0.305776,-2.49196
717.5,64.5478,0.295571,-2.49065
718,64.5988,0.298199,-2.49065
718.5,64.6486,0.289637,-2.49199
719,64.6991,0.284446,-2.49197
719.5,64.7498,0.281614,-2.49197
720,64.8007,0.282091,-2.49329
720.5,64.851,0.278037,-2.49329
721,64.901,0.278728,-2.49333
721.5,64.951,0.27014,-2.4946
722,65,0.262489,-2.49461
722.5,65.0537,0.262662,-2.49592
723,65.1043,0.257438,-2.49592
723.5,65.155,0.26185,-2.49623
724,65.2051,0.254356,-2.49711
724.5,65.2559,0.251974,-2.49592
725,65.3057,0.245792,-2.49592
725.5,65.3569,0.249834,-2.49727
726,65.4083,0.238019,-2.49725
726.5,65.4583,0.229688,-2.49854
727,65.5087,0.230277,-2.49989
727.5,65.5593,0.229385,-2.49987
728,65.6106,0.231395,-2.49889
728.5,65.662,0.234541,-2.49888
729,65.7124,0.233983,-2.49888
729.5,65.763,0.225428,-2.49888
730,65.8139,0.22548,-2.49888
730.5,65.8641,0.219178,-2.49888
731,65.915,0.21849,-2.49887
731.5,65.9661,0.208848,-2.50021
732,66.0165,0.203667,-2.50011
732.5,66.0666,0.194142,-2.50151
733,66.1167,0.191366,-2.50151
733.5,66.1674,0.19057,-2.50151
734,66.2182,0.180629,-2.50153
734.5,66.2689,0.169822,-2.5025
735,66.3195,0.165858,-2.50123
735.5,66.3709,0.157625,-2.50251
736,66.4187,0.151972,-2.50251
736.5,66.4716,0.15085,-2.50251
737,66.5221,0.145643,-2.50251
737.5,66.5734,0.146595,-2.50251
738,66.6239,0.138205,-2.5032
738.5,66.6749,0.137131,-2.50383
739,66.7256,0.125598,-2.50383
739.5,66.7762,0.124544,-2.50437
740,66.8266,0.123849,-2.50514
740.5,66.8784,0.113809,-2.50381
741,66.9289,0.11206,-2.50481
741.5,66.9801,0.112582,-2.50514
742,67.0299,0.107965,-2.50514
742.5,67.0808,0.10185,-2.50582
743,67.1324,0.0933096,-2.50644
743.5,67.1828,0.0986911,-2.50778
744,67.2346,0.0996106,-2.50778
744.5,67.2835,0.0969225,-2.50778
745,67.3351,0.0942762,-2.50645
745.5,67.3853,0.0859832,-2.50779
746,67.4353,0.085314,-2.5077
746.5,67.4871,0.084352,-2.50909
747,67.5371,0.0769463,-2.5091
747.5,67.5884,0.0753412,-2.50777
748,67.6393,0.0663547,-2.50777
748.5,67.6879,0.0602393,-2.50792
749,67.7403,0.051425,-2.51042
749.5,67.7905,0.0495481,-2.5104
750,67.8422,0.0485046,-2.5091
750.5,67.8925,0.0436415,-2.51046
751,67.9437,0.0454533,-2.51041
751.5,67.9935,0.0355893,-2.5104
752,68.0449,0.0302791,-2.51174
752.5,68.0953,0.024148,-2.51173
753,68.1461,0.0256099,-2.51173
753.5,68.197,0.0277873,-2.5104
754,68.2479,0.022286,-2.51041
754.5,68.2975,0.0227358,-2.51054
755,68.3482,0.0155563,-2.51172
755.5,68.3996,0.0190833,-2.51169
756,68.4501,0.0148277,-2.51271
756.5,68.5007,0.012606,-2.51305
757,68.5518,0.00198912,-2.51304
757.5,68.6019,-0.00256855,-2.51404
758,68.6527,0.00887453,-2.51403
758.5,68.7011,0.0050685,-2.51471
759,68.7541,0.00216301,-2.51404
759.5,68.8044,-0.000932184,-2.51436
760,68.8554,0.00388241,-2.51437
760.5,68.9055,0.00133974,-2.51437
761,68.9573,0.00204083,-2.51437
761.5,69.0075,0.00168779,-2.51437
762,69.0588,-0.000174801,-2.51437
762.5,69.1102,-0.000714201,-2.51437
763,69.1606,-0.00907886,-2.51437
763.5,69.2098,-0.0105803,-2.51568
764,69.2619,-0.00864555,-2.51568
764.5,69.3136,-0.0104274,-2.51568
765,69.3643,-0.0120751,-2.51466
765.5,69.4149,-0.0174346,-2.5144
766,69.4661,-0.0203311,-2.51568
766.5,69.517,-0.0221937,-2.51568
767,69.5674,-0.0167411,-2.51568
767.5,69.6182,-0.0243253,-2.51569
768,69.6686,-0.0291412,-2.51699
768.5,69.7197,-0.0420292,-2.5176
769,69.771,-0.0450195,-2.51831
769.5,69.8224,-0.0527771,-2.51963
770,69.8731,-0.0576401,-2.51969
770.5,69.9241,-0.0620138,-2.51702
771,69.9748,-0.0668135,-2.51831
771.5,70.0266,-0.0621955,-2.51831
772,70.0759,-0.0684561,-2.51831
772.5,70.1275,-0.0768526,-2.51831
773,70.1781,-0.0718491,-2.51831
773.5,70.2289,-0.0826032,-2.51885
774,70.2801,-0.0801821,-2.51963
774.5,70.3305,-0.086926,-2.51963
775,70.3807,-0.0880685,-2.51963
775.5,70.4324,-0.0806969,-2.51963
776,70.4824,-0.0891057,-2.51963
776.5,70.5334,-0.0869668,-2.51874
777,70.5852,-0.0866808,-2.51963
777.5,70.6358,-0.0921078,-2.51963
778,70.6854,-0.0844767,-2.51963
778.5,70.7371,-0.0869733,-2.51963
779,70.7854,-0.0938659,-2.51958
779.5,70.8394,-0.0951422,-2.52094
780,70.8883,-0.0909085,-2.52094
780.5,70.9398,-0.0981178,-2.52095
781,70.9905,-0.0995367,-2.52226
781.5,71.0414,-0.0957145,-2.52226
782,71.0916,-0.0985803,-2.52226
782.5,71.1429,-0.110652,-2.52303
783,71.1937,-0.101873,-2.5223
783.5,71.2441,-0.1169,-2.52227
784,71.2942,-0.113482,-2.52358
784.5,71.3454,-0.111022,-2.52358
785,71.3971,-0.110517,-2.52259
785.5,71.4474,-0.107588,-2.52355
786,71.4982,-0.114047,-2.52392
786.5,71.5491,-0.105174,-2.52392
787,71.5991,-0.112259,-2.52519
787.5,71.6513,-0.113091,-2.52488
788,71.6994,-0.115476,-2.52353
788.5,71.752,-0.111137,-2.52358
789,71.8033,-0.115016,-2.52386
789.5,71.8539,-0.114994,-2.52424
790,71.9045,-0.109089,-2.52444