File: 01_Data/Polycarbonate_Helmet_Shell/STA/N2/10K_min/Polycarbonate_Helmet_Shell_STA_N2_10KData_241007_R1.csv
Temp./C,Time/min,DSC/(mW/mg),Mass loss/mg
60.0,0.0,0.787149,0.0102727
60.5,0.0558845,0.807389,0.00958325
61,0.109439,0.819878,0.0110468
61.5,0.166074,0.82443,0.0102967
62,0.222473,0.840813,0.0100145
62.5,0.277264,0.84513,0.00941023
63,0.333071,0.842496,0.0090002
63.5,0.386167,0.860653,0.00878201
64,0.440802,0.869757,0.00850396
64.5,0.494371,0.869573,0.00903032
65,0.547467,0.875653,0.00996848
65.5,0.602366,0.890905,0.0117368
66,0.655746,0.889329,0.0104315
66.5,0.708495,0.898554,0.0104324
67,0.763104,0.895589,0.0105843
67.5,0.814818,0.903958,0.0104335
68,0.866592,0.909678,0.00910362
68.5,0.920982,0.909185,0.00778816
69,0.974403,0.911981,0.00778713
69.5,1.02794,0.913774,0.0077886
70,1.07974,0.91791,0.0065573
70.5,1.13199,0.933525,0.00777183
71,1.18498,0.936452,0.0077908
71.5,1.23673,0.931063,0.00712914
72,1.28989,0.936581,0.00638332
72.5,1.34299,0.945945,0.00778994
73,1.39416,0.938621,0.00779028
73.5,1.44684,0.9429,0.0087785
74,1.49987,0.950962,0.00909216
74.5,1.54893,0.95261,0.00907327
75,1.60336,0.959769,0.00909501
75.5,1.65494,0.957297,0.0104355
76,1.7065,0.966671,0.010428
76.5,1.7585,0.962026,0.00914002
77,1.80995,0.965136,0.00778492
77.5,1.86289,0.968663,0.00647079
78,1.91389,0.972439,0.00779357
78.5,1.96299,0.971295,0.00779074
79,2.01617,0.97819,0.00798142
79.5,2.06816,0.976446,0.00909218
80,2.1194,0.978228,0.0104116
80.5,2.17096,0.984984,0.00911113
81,2.22178,0.981163,0.00940104
81.5,2.27226,0.98212,0.0104296
82,2.32383,0.984395,0.0106512
82.5,2.37509,0.984328,0.0116117
83,2.42613,0.982328,0.0116944
83.5,2.47574,0.992959,0.0104218
84,2.52665,0.990824,0.0104185
84.5,2.57651,0.989381,0.00924865
85,2.62727,0.995634,0.0102118
85.5,2.67808,0.999889,0.00921565
86,2.72854,0.994983,0.0106052
86.5,2.77846,1.00303,0.0105399
87,2.8295,1.00605,0.01054
87.5,2.87936,1.00079,0.0105399
88,2.93004,1.00996,0.00940228
88.5,2.97983,1.01374,0.00789981
89,3.03081,1.01333,0.00915338
89.5,3.07995,1.01788,0.00789742
90,3.12967,1.01986,0.00745358
90.5,3.1802,1.01976,0.0065899
91,3.23089,1.02249,0.00659011
91.5,3.27877,1.01868,0.00646253
92,3.32963,1.02066,0.00789985
92.5,3.37603,1.02147,0.00790908
93,3.42861,1.02535,0.00788994
93.5,3.47865,1.02523,0.00790001
94,3.52821,1.03419,0.00790002
94.5,3.57835,1.03391,0.00796962
95,3.62536,1.03637,0.00793133
95.5,3.67636,1.04185,0.00791903
96,3.7251,1.03784,0.00921698
96.5,3.77606,1.0444,0.00921992
97,3.82468,1.04484,0.00932256
97.5,3.8752,1.05253,0.00787983
98,3.92363,1.06359,0.0105883
98.5,3.97237,1.05729,0.0105299
99,4.02128,1.06154,0.0105298
99.5,4.07106,1.06201,0.0110859
100,4.11934,1.06609,0.0118491
100.5,4.16884,1.07127,0.0111369
101,4.21691,1.08057,0.0104555
101.5,4.2661,1.07134,0.0100744
102,4.31446,1.07451,0.010439
102.5,4.36417,1.08216,0.00910079
103,4.41391,1.08239,0.00777243
103.5,4.46311,1.07943,0.00783982
104,4.51172,1.09342,0.00911007
104.5,4.55999,1.0849,0.00910197
105,4.60986,1.09684,0.0104201
105.5,4.65846,1.10334,0.01042
106,4.70742,1.10252,0.0104201
106.5,4.75609,1.10911,0.0103908
107,4.806,1.11539,0.0117444
107.5,4.85415,1.11921,0.01174
108,4.89994,1.126,0.01174
108.5,4.9517,1.12041,0.0117418
109,5,1.12272,0.0107392
109.5,5.04988,1.13017,0.0107038
110,5.09858,1.13006,0.00942926
110.5,5.14673,1.13309,0.00943012
111,5.19599,1.1332,0.00934356
111.5,5.24434,1.13318,0.00945008
112,5.29351,1.13486,0.0104267
112.5,5.34227,1.13831,0.0105849
113,5.38943,1.13405,0.00944068
113.5,5.44032,1.13858,0.00944
114,5.48779,1.14322,0.00943996
114.5,5.53423,1.14713,0.00812109
115,5.58482,1.15282,0.00943755
115.5,5.6334,1.15239,0.00872939
116,5.68314,1.15094,0.00877684
116.5,5.73042,1.15895,0.00803071
117,5.78018,1.16573,0.00943021
117.5,5.82857,1.16026,0.00943
118,5.87774,1.1644,0.00943
118.5,5.92543,1.16613,0.00943
119,5.97451,1.17445,0.00943
119.5,6.02227,1.17215,0.00943
120,6.0704,1.17418,0.00944804
120.5,6.1192,1.17707,0.0117223
121,6.16678,1.18494,0.0131057
121.5,6.21646,1.1816,0.011719
122,6.26536,1.18749,0.011745
122.5,6.31292,1.19319,0.0103807
123,6.36227,1.19286,0.011756
123.5,6.4092,1.2008,0.0104199
124,6.45839,1.19676,0.01042
124.5,6.50666,1.2014,0.01042
125,6.55445,1.20055,0.01042
125.5,6.60405,1.197,0.0104045
126,6.65178,1.20089,0.0117387
126.5,6.70028,1.2046,0.0117419
127,6.74877,1.20821,0.0130322
127.5,6.79632,1.21133,0.0130539
128,6.84426,1.21347,0.0127706
128.5,6.89416,1.20964,0.0130961
129,6.94142,1.22176,0.01306
129.5,6.98915,1.21103,0.01306
130,7.03718,1.22051,0.01306
130.5,7.0852,1.22145,0.01306
131,7.13408,1.22537,0.01306
131.5,7.18296,1.228,0.0130597
132,7.23049,1.22988,0.0117561
132.5,7.27906,1.23348,0.01174
133,7.32821,1.22908,0.0117516
133.5,7.37511,1.2319,0.0119199
134,7.4239,1.23742,0.0117406
134.5,7.47113,1.23719,0.0104636
135,7.51894,1.24577,0.0104199
135.5,7.56779,1.25264,0.0104148
136,7.61576,1.24672,0.0117468
136.5,7.66376,1.24887,0.0117543
137,7.71187,1.25977,0.0117429
137.5,7.75997,1.25345,0.0117376
138,7.80811,1.25821,0.0123257
138.5,7.85677,1.25922,0.0117321
139,7.90435,1.2689,0.0122772
139.5,7.95237,1.26327,0.0124001
140,8.00075,1.26977,0.0124
140.5,8.04835,1.27224,0.0124
141,8.09733,1.27097,0.0123936
141.5,8.14506,1.27296,0.0137292
142,8.19296,1.27763,0.0137247
142.5,8.24043,1.27737,0.0137001
143,8.28989,1.28286,0.0137198
143.5,8.33678,1.27827,0.0124034
144,8.38465,1.28692,0.0124
144.5,8.43339,1.28782,0.0124
145,8.48149,1.29146,0.0123966
145.5,8.52869,1.29838,0.0137206
146,8.57669,1.29352,0.01372
146.5,8.62535,1.29546,0.01372
147,8.6732,1.29948,0.01372
147.5,8.72165,1.30109,0.0137207
148,8.76951,1.2986,0.0125249
148.5,8.81652,1.30341,0.0118271
149,8.86467,1.30711,0.0117499
149.5,8.91285,1.30913,0.01175
150,8.96095,1.30605,0.01175
150.5,9.00883,1.31008,0.01175
151,9.0577,1.31334,0.01175
151.5,9.10423,1.31856,0.01175
152,9.15346,1.3177,0.01175
152.5,9.20064,1.32301,0.0117498
153,9.2482,1.32372,0.012069
153.5,9.29591,1.32966,0.013059
154,9.344,1.3338,0.0130587
154.5,9.3919,1.32839,0.014365
155,9.43934,1.33159,0.0143803
155.5,9.48767,1.3311,0.0137755
156,9.53596,1.33991,0.0126956
156.5,9.58255,1.3499,0.0133899
157,9.63153,1.33983,0.01339
157.5,9.67928,1.34661,0.01339
158,9.72758,1.35169,0.0133903
158.5,9.77433,1.35272,0.0131263
159,9.82237,1.35515,0.0127298
159.5,9.8713,1.35898,0.01273
160,9.91924,1.3612,0.01273
160.5,9.96682,1.36053,0.01273
161,10.0145,1.36564,0.0127326
161.5,10.0613,1.36814,0.0124108
162,10.1091,1.36951,0.0124423
162.5,10.1572,1.37646,0.0119222
163,10.2043,1.37723,0.0124003
163.5,10.2535,1.38106,0.0124
164,10.2997,1.38723,0.0124
164.5,10.3461,1.38965,0.0124
165,10.3975,1.38867,0.0124085
165.5,10.4445,1.39757,0.0110767
166,10.4928,1.40114,0.01108
166.5,10.5409,1.40465,0.011113
167,10.5887,1.40768,0.0133827
167.5,10.6371,1.40674,0.0134225
168,10.6839,1.41555,0.0127294
168.5,10.7316,1.42463,0.0127146
169,10.7797,1.42697,0.0130628
169.5,10.8272,1.43312,0.0140367
170,10.8733,1.4376,0.0140489
170.5,10.9231,1.44954,0.0133985
171,10.9704,1.4575,0.0137191
171.5,11.0181,1.46342,0.0124091
172,11.0662,1.46804,0.0124044
172.5,11.115,1.47852,0.0136976
173,11.1636,1.48161,0.01372
173.5,11.2079,1.49659,0.0137197
174,11.2581,1.50008,0.0137689
174.5,11.3052,1.50309,0.0150396
175,11.353,1.50706,0.0137138
175.5,11.4016,1.50491,0.0137232
176,11.4488,1.51109,0.0140324
176.5,11.4962,1.51561,0.0150348
177,11.5446,1.5242,0.0144952
177.5,11.5922,1.5247,0.0157464
178,11.6404,1.51997,0.0150314
178.5,11.6873,1.51925,0.01503
179,11.7367,1.52275,0.0150326
179.5,11.7833,1.52605,0.0136632
180,11.8306,1.52382,0.0137201
180.5,11.8776,1.52473,0.0137299
181,11.9263,1.53276,0.0143672
181.5,11.975,1.53032,0.01437
182,12.0212,1.54208,0.01437
182.5,12.068,1.54132,0.0143698
183,12.1172,1.5434,0.0145322
183.5,12.1652,1.54675,0.0153811
184,12.2133,1.54387,0.01536
184.5,12.2614,1.55282,0.01536
185,12.3075,1.54351,0.01536
185.5,12.3555,1.54349,0.01536
186,12.4022,1.54245,0.0153605
186.5,12.4518,1.54913,0.0143688
187,12.4983,1.54838,0.0143964
187.5,12.5465,1.54785,0.0140439
188,12.5936,1.55532,0.0127243
188.5,12.6422,1.55338,0.0127299
189,12.6894,1.5583,0.0139575
189.5,12.7365,1.55385,0.0153193
190,12.7817,1.55706,0.0163524
190.5,12.8322,1.55521,0.0153712
191,12.8802,1.55604,0.01537
191.5,12.9265,1.56016,0.0153696
192,12.9761,1.56018,0.0147689
192.5,13.0226,1.56621,0.0140028
193,13.0707,1.56529,0.013723
193.5,13.1176,1.56178,0.013735
194,13.1663,1.5622,0.0123976
194.5,13.2142,1.55996,0.0124
195,13.2619,1.56038,0.0124
195.5,13.3094,1.56378,0.0123996
196,13.3571,1.57401,0.012837
196.5,13.4047,1.57394,0.0137197
197,13.453,1.56465,0.01372
197.5,13.5002,1.5668,0.0137295
198,13.5477,1.56746,0.0150171
198.5,13.595,1.57402,0.01503
199,13.6429,1.57206,0.01503
199.5,13.6894,1.5812,0.0150304
200,13.7391,1.57766,0.0155867
200.5,13.786,1.58749,0.0176406
201,13.8346,1.58716,0.01767
201.5,13.8815,1.58884,0.01767
202,13.9269,1.59088,0.0176726
202.5,13.975,1.5864,0.0162893
203,14.0246,1.58307,0.0154782
203.5,14.0723,1.58619,0.01536
204,14.1205,1.58834,0.0153857
204.5,14.1665,1.58989,0.0150304
205,14.2149,1.59644,0.015031
205.5,14.2638,1.5977,0.0157084
206,14.31,1.59946,0.0150388
206.5,14.359,1.59727,0.0154186
207,14.4068,1.60494,0.0163574
207.5,14.4544,1.60539,0.0151761
208,14.5011,1.60922,0.01504
208.5,14.5497,1.6097,0.01504
209,14.5966,1.60836,0.0159231
209.5,14.6448,1.61139,0.015782
210,14.6917,1.62368,0.0144356
210.5,14.7399,1.62462,0.0137205
211,14.7873,1.63032,0.0137199
211.5,14.8335,1.63641,0.0137683
212,14.8831,1.63894,0.0124
212.5,14.9298,1.64795,0.0123532
213,14.9764,1.64036,0.0137224
213.5,15.0253,1.65288,0.01372
214,15.0729,1.65642,0.01372
214.5,15.12,1.66198,0.0137199
215,15.1679,1.65781,0.0138585
215.5,15.2163,1.66428,0.0143796
216,15.2641,1.67565,0.0157165
216.5,15.311,1.67606,0.0146247
217,15.3583,1.67655,0.0150284
217.5,15.4051,1.6801,0.01503
218,15.4545,1.68201,0.0150304
218.5,15.5017,1.68814,0.0157406
219,15.5496,1.68267,0.0156899
219.5,15.597,1.67923,0.01569
220,15.6447,1.68502,0.0156938
220.5,15.6908,1.68129,0.014958
221,15.7398,1.68816,0.0157074
221.5,15.7879,1.68947,0.01569
222,15.8348,1.68937,0.01569
222.5,15.8832,1.69126,0.0156886
223,15.9314,1.68971,0.0143975
223.5,15.9788,1.69428,0.0143698
224,16.0258,1.68667,0.0144344
224.5,16.0711,1.69074,0.0140319
225,16.1213,1.69257,0.0143798
225.5,16.1693,1.69997,0.01438
226,16.2165,1.69294,0.0143801
226.5,16.2633,1.69863,0.0154265
227,16.3115,1.70495,0.0156904
227.5,16.3596,1.69395,0.0156959
228,16.4068,1.7032,0.0155939
228.5,16.4543,1.70644,0.0156901
229,16.5023,1.70624,0.015737
229.5,16.5491,1.70473,0.0156871
230,16.5971,1.71194,0.0159372
230.5,16.6449,1.71362,0.0170082
231,16.6907,1.70346,0.0170101
231.5,16.7402,1.70489,0.0181573
232,16.787,1.7077,0.0183342
232.5,16.8344,1.71028,0.0169855
233,16.8805,1.71218,0.0170963
233.5,16.9296,1.71449,0.0160233
234,16.9773,1.71998,0.0157005
234.5,17.0248,1.71902,0.0149001
235,17.0719,1.7155,0.0160294
235.5,17.1196,1.71201,0.01603
236,17.1679,1.70756,0.01603
236.5,17.2155,1.71387,0.0160303
237,17.263,1.71349,0.0146733
237.5,17.3103,1.71252,0.0146023
238,17.3579,1.71991,0.0156972
238.5,17.4054,1.71602,0.017058
239,17.4523,1.72087,0.01701
239.5,17.501,1.71968,0.01701
240,17.5483,1.71815,0.01701
240.5,17.5965,1.71454,0.01701
241,17.6439,1.71747,0.0170112
241.5,17.6911,1.71622,0.0177307
242,17.7384,1.72298,0.01767
242.5,17.7861,1.72045,0.01767
243,17.8335,1.71989,0.01767
243.5,17.8811,1.71786,0.016973
244,17.9283,1.72163,0.0163497
244.5,17.9757,1.72179,0.01635
245,18.0237,1.71849,0.01635
245.5,18.0714,1.72429,0.0163516
246,18.117,1.72493,0.0150003
246.5,18.1666,1.7314,0.01504
247,18.2142,1.73046,0.0149278
247.5,18.262,1.7308,0.0163601
248,18.3093,1.72857,0.0163601
248.5,18.3565,1.72694,0.0163179
249,18.4043,1.72988,0.0166756
249.5,18.4513,1.73005,0.01668
250,18.4987,1.72969,0.0166801
250.5,18.5459,1.72942,0.0166044
251,18.5936,1.73867,0.0180003
251.5,18.6389,1.73086,0.018
252,18.6883,1.73356,0.018
252.5,18.7359,1.74286,0.018
253,18.7824,1.73562,0.018
253.5,18.8307,1.73852,0.0189944
254,18.879,1.73891,0.01899
254.5,18.9257,1.73394,0.01899
255,18.9742,1.73737,0.0189902
255.5,19.0214,1.73694,0.0187699
256,19.0681,1.73666,0.0183497
256.5,19.1155,1.73215,0.0180003
257,19.1634,1.74197,0.0173677
257.5,19.2112,1.74568,0.0176698
258,19.2578,1.73838,0.01767
258.5,19.306,1.73924,0.01767
259,19.3547,1.7377,0.01767
259.5,19.4011,1.74145,0.01767
260,19.4491,1.7418,0.0176634
260.5,19.4964,1.74877,0.0189945
261,19.5444,1.74179,0.0189929
261.5,19.5915,1.74452,0.0176711
262,19.6388,1.74805,0.01767
262.5,19.6872,1.74794,0.01767
263,19.7343,1.74707,0.01767
263.5,19.7825,1.74048,0.0176724
264,19.8296,1.75222,0.016296
264.5,19.878,1.75154,0.0163501
265,19.9255,1.75639,0.0163504
265.5,19.9729,1.75793,0.0177028
266,20.0221,1.75055,0.0176699
266.5,20.069,1.75881,0.0176656
267,20.1162,1.75858,0.019937
267.5,20.1633,1.76528,0.01998
268,20.2117,1.76059,0.01998
268.5,20.2586,1.76642,0.01998
269,20.3068,1.76421,0.0199796
269.5,20.3541,1.76437,0.01932
270,20.4025,1.76556,0.0186611
270.5,20.4508,1.76766,0.0196273
271,20.4971,1.76601,0.020965
271.5,20.5455,1.76625,0.0196495
272,20.5923,1.77043,0.0196495
272.5,20.6395,1.76865,0.020624
273,20.6886,1.76439,0.02064
273.5,20.7354,1.76269,0.02064
274,20.7831,1.7642,0.02064
274.5,20.8323,1.75898,0.0206475
275,20.8794,1.76994,0.0193193
275.5,20.9264,1.77256,0.0193201
276,20.9755,1.76975,0.0183496
276.5,21.0224,1.76996,0.01833
277,21.07,1.76658,0.0186455
277.5,21.1185,1.76968,0.0186655
278,21.1652,1.77174,0.0193147
278.5,21.2137,1.76873,0.01931
279,21.2615,1.77112,0.0193118
279.5,21.3096,1.7651,0.0190985
280,21.3571,1.7699,0.0193202
280.5,21.4046,1.76603,0.01932
281,21.4526,1.76375,0.0193214
281.5,21.501,1.77308,0.0206316
282,21.5495,1.7751,0.02063
282.5,21.5968,1.76073,0.02063
283,21.6434,1.77151,0.02063
283.5,21.6925,1.77716,0.02063
284,21.7395,1.77773,0.02063
284.5,21.7885,1.77487,0.0206301
285,21.8366,1.77701,0.020653
285.5,21.8835,1.76861,0.0193075
286,21.931,1.7753,0.01931
286.5,21.979,1.77852,0.0193097
287,22.0274,1.77702,0.0195887
287.5,22.0744,1.78304,0.0206296
288,22.1227,1.78302,0.0202577
288.5,22.1695,1.77628,0.019309
289,22.2159,1.78001,0.0191077
289.5,22.2666,1.77777,0.01931
290,22.3147,1.77646,0.01931
290.5,22.3621,1.77807,0.019308
291,22.4087,1.78129,0.0181096
291.5,22.4576,1.7809,0.018
292,22.5059,1.7759,0.018
292.5,22.5538,1.77961,0.0179971
293,22.6017,1.78459,0.0193172
293.5,22.6493,1.78629,0.01931
294,22.696,1.77739,0.0193208
294.5,22.7451,1.78608,0.0183265
295,22.7924,1.78299,0.0193201
295.5,22.8408,1.78412,0.0195913
296,22.8872,1.78303,0.020959
296.5,22.9357,1.78809,0.0222366
297,22.983,1.7861,0.0222802
297.5,23.0313,1.78917,0.02227
298,23.0793,1.79415,0.0209677
298.5,23.1264,1.79486,0.02096
299,23.1746,1.79145,0.0209601
299.5,23.2224,1.79803,0.0200292
300,23.2706,1.79608,0.0196577
300.5,23.3182,1.78893,0.01965
301,23.3654,1.79724,0.01965
301.5,23.4107,1.79582,0.01965
302,23.4609,1.79597,0.0196512
302.5,23.5091,1.79513,0.0209326
303,23.5568,1.79752,0.0195657
303.5,23.6044,1.80261,0.0196488
304,23.654,1.80145,0.0210074
304.5,23.7004,1.79923,0.0209697
305,23.7487,1.8015,0.0199778
305.5,23.7964,1.80806,0.0196495
306,23.8438,1.80729,0.01965
306.5,23.8915,1.80921,0.0196497
307,23.9401,1.80775,0.0199107
307.5,23.9885,1.81001,0.0209592
308,24.0363,1.81189,0.02096
308.5,24.084,1.81045,0.02096
309,24.133,1.80558,0.0209601
309.5,24.1804,1.8124,0.02089
310,24.2287,1.8085,0.0199709
310.5,24.2766,1.80792,0.0199694
311,24.325,1.81223,0.0213771
311.5,24.3716,1.81564,0.02129
312,24.4209,1.80838,0.0213098
312.5,24.4689,1.81387,0.0209719
313,24.5158,1.81506,0.0196548
313.5,24.5649,1.81048,0.01965
314,24.6129,1.81811,0.0196421
314.5,24.6609,1.81836,0.0212453
315,24.7085,1.81313,0.0216296
315.5,24.7569,1.81309,0.02163
316,24.8057,1.81318,0.0216316
316.5,24.8532,1.81158,0.0209441
317,24.9013,1.81341,0.0209701
317.5,24.9482,1.81609,0.0223793
318,24.9952,1.81523,0.0223887
318.5,25.0455,1.80948,0.0209686
319,25.0938,1.8098,0.0197613
319.5,25.1413,1.81639,0.0197712
320,25.1898,1.81116,0.0210782
320.5,25.2367,1.81471,0.0198247
321,25.2857,1.80984,0.0184398
321.5,25.3333,1.81158,0.01844
322,25.3813,1.81009,0.0184202
322.5,25.4293,1.80827,0.0198014
323,25.4775,1.80665,0.0210838
323.5,25.526,1.81077,0.0223713
324,25.5741,1.80451,0.02239
324.5,25.623,1.80926,0.0223896
325,25.6713,1.80573,0.0220451
325.5,25.7189,1.8101,0.022095
326,25.7667,1.80981,0.021079
326.5,25.8154,1.8139,0.02108
327,25.8636,1.80518,0.0210767
327.5,25.9096,1.80878,0.0224073
328,25.9594,1.8049,0.0223585
328.5,26.0082,1.80677,0.0210717
329,26.0561,1.81173,0.021074
329.5,26.1041,1.81035,0.0188108
330,26.1522,1.80794,0.0184398
330.5,26.201,1.8067,0.01844
331,26.2492,1.80111,0.0184362
331.5,26.2967,1.80574,0.0198291
332,26.3447,1.8036,0.0197599
332.5,26.3933,1.80326,0.01976
333,26.441,1.80795,0.01976
333.5,26.4898,1.81315,0.01976
334,26.5377,1.8165,0.0197601
334.5,26.5855,1.81286,0.0196511
335,26.6337,1.80889,0.0187819
335.5,26.683,1.81371,0.0200895
336,26.7308,1.81727,0.0200873
336.5,26.7785,1.81414,0.0214476
337,26.8272,1.81679,0.0214188
337.5,26.8754,1.80994,0.0220653
338,26.9224,1.81344,0.0220565
338.5,26.9709,1.80847,0.0227613
339,27.0191,1.81319,0.021408
339.5,27.0678,1.81076,0.0211154
340,27.1155,1.80855,0.0200285
340.5,27.1641,1.80968,0.0187715
341,27.2123,1.8051,0.0187686
341.5,27.2601,1.80795,0.0197615
342,27.3091,1.81259,0.01976
342.5,27.3573,1.81503,0.01976
343,27.4053,1.81535,0.01976
343.5,27.4538,1.81589,0.01976
344,27.5019,1.81973,0.01976
344.5,27.5504,1.82259,0.01976
345,27.5993,1.81748,0.01976
345.5,27.6467,1.81733,0.01976
346,27.6939,1.81644,0.01976
346.5,27.7414,1.81604,0.01976
347,27.7904,1.81801,0.0197632
347.5,27.8389,1.81778,0.0183941
348,27.887,1.81946,0.0184351
348.5,27.935,1.82198,0.0197669
349,27.9844,1.81708,0.01976
349.5,28.0328,1.81576,0.01976
350,28.0805,1.81385,0.0200414
350.5,28.1284,1.81608,0.0200901
351,28.1769,1.81839,0.0200906
351.5,28.2249,1.81837,0.0204595
352,28.274,1.8241,0.0217173
352.5,28.3228,1.82388,0.0217326
353,28.3714,1.82463,0.0204232
353.5,28.4182,1.82243,0.02042
354,28.4668,1.81641,0.0204195
354.5,28.5146,1.82456,0.0200713
355,28.5641,1.81582,0.02009
355.5,28.6112,1.81658,0.02009
356,28.6598,1.81968,0.02009
356.5,28.7092,1.82384,0.02009
357,28.7574,1.82323,0.02009
357.5,28.8055,1.8172,0.02009
358,28.8539,1.81881,0.0200828
358.5,28.9016,1.81827,0.0207404
359,28.9508,1.81586,0.019427
359.5,28.9985,1.8166,0.0194199
360,29.0469,1.81682,0.0193668
360.5,29.0957,1.81822,0.0207431
361,29.1443,1.81292,0.0208771
361.5,29.1927,1.81426,0.0220598
362,29.2412,1.81336,0.02206
362.5,29.2892,1.81031,0.0220322
363,29.337,1.80945,0.0207514
363.5,29.3853,1.81854,0.02075
364,29.4341,1.81541,0.02075
364.5,29.4829,1.81221,0.02075
365,29.5311,1.82136,0.02075
365.5,29.5802,1.81802,0.02075
366,29.6289,1.81327,0.02075
366.5,29.6768,1.81554,0.0207486
367,29.7258,1.81229,0.0199745
367.5,29.7739,1.81571,0.0197599
368,29.822,1.81811,0.0197573
368.5,29.8706,1.81506,0.0184446
369,29.9191,1.81407,0.0194895
369.5,29.968,1.81576,0.0200822
370,30.0164,1.81547,0.0200964
370.5,30.0649,1.81651,0.0187634
371,30.1141,1.81734,0.0187781
371.5,30.1627,1.81875,0.0200896
372,30.2103,1.81225,0.0187253
372.5,30.2582,1.81612,0.018692
373,30.3076,1.81623,0.0175784
373.5,30.3562,1.81624,0.0187666
374,30.4047,1.81178,0.0197271
374.5,30.4524,1.81117,0.0202
375,30.5015,1.81184,0.0201937
375.5,30.5506,1.81308,0.0228317
376,30.5988,1.81672,0.0228381
376.5,30.6469,1.81239,0.0215193
377,30.696,1.80971,0.0202255
377.5,30.7444,1.80731,0.0201717
378,30.7925,1.81199,0.0198598
378.5,30.8409,1.8092,0.01986
379,30.8895,1.80216,0.01986
379.5,30.9383,1.80431,0.0198599
380,30.9867,1.80865,0.0199101
380.5,31.0339,1.80724,0.0178278
381,31.0837,1.80886,0.018608
381.5,31.133,1.809,0.0185814
382,31.1812,1.80088,0.0192098
382.5,31.2292,1.8105,0.01921
383,31.2777,1.80769,0.0192091
383.5,31.3261,1.80843,0.0182526
384,31.3752,1.80157,0.0178897
384.5,31.4242,1.80847,0.0178956
385,31.4729,1.8042,0.0192067
385.5,31.5215,1.8043,0.0179183
386,31.5703,1.79487,0.0178899
386.5,31.6186,1.79793,0.01789
387,31.667,1.79217,0.0179465
387.5,31.7156,1.80123,0.0192306
388,31.7641,1.7981,0.0198648
388.5,31.8125,1.78997,0.01986
389,31.8621,1.79311,0.01986
389.5,31.9112,1.78952,0.0198602
390,31.9591,1.79213,0.0184665
390.5,32.0079,1.78722,0.0185117
391,32.0568,1.78826,0.0160581
391.5,32.1058,1.78474,0.0159231
392,32.154,1.78737,0.0145423
392.5,32.2024,1.78576,0.0146
393,32.2523,1.78296,0.0146052
393.5,32.3001,1.78046,0.0158233
394,32.3492,1.77831,0.0172113
394.5,32.3977,1.78105,0.0185369
395,32.4463,1.77625,0.0172535
395.5,32.4952,1.77692,0.0177438
396,32.5427,1.77586,0.0172302
396.5,32.5936,1.76653,0.01723
397,32.6416,1.77089,0.01723
397.5,32.6906,1.76769,0.017231
398,32.7381,1.764,0.0159101
398.5,32.7878,1.76179,0.0158142
399,32.8367,1.76696,0.0159119
399.5,32.8856,1.7621,0.0171357
400,32.9336,1.76071,0.0172351
400.5,32.9818,1.75295,0.0159027
401,33.032,1.75319,0.0157606
401.5,33.0807,1.75676,0.014591
402,33.129,1.7533,0.0145588
402.5,33.1776,1.75692,0.0168919
403,33.2267,1.75968,0.0169
403.5,33.2759,1.76361,0.0169003
404,33.3232,1.75414,0.0155395
404.5,33.3731,1.75395,0.0155859
405,33.4208,1.75769,0.0142538
405.5,33.4705,1.75686,0.01426
406,33.5188,1.75558,0.0142587
406.5,33.5671,1.7439,0.0155771
407,33.6172,1.75283,0.0148557
407.5,33.6656,1.75246,0.0149885
408,33.7154,1.74938,0.0142618
408.5,33.7638,1.75279,0.0142488
409,33.8131,1.74176,0.0145897
409.5,33.8608,1.74257,0.01459
410,33.911,1.74009,0.0146188
410.5,33.9588,1.74114,0.0132809
411,34.0088,1.73983,0.0145955
411.5,34.0566,1.73608,0.0146
412,34.1059,1.7396,0.0146
412.5,34.1543,1.73603,0.0146166
413,34.2025,1.7377,0.0152654
413.5,34.2529,1.73655,0.0152679
414,34.301,1.73076,0.0159248
414.5,34.3503,1.72937,0.0139104
415,34.3992,1.72828,0.0132676
415.5,34.448,1.72896,0.0115085
416,34.4948,1.72672,0.0106406
416.5,34.5462,1.71971,0.01064
417,34.5943,1.71311,0.0106396
417.5,34.6437,1.71955,0.0109602
418,34.6905,1.71598,0.011939
418.5,34.7414,1.71431,0.0106403
419,34.7905,1.72019,0.01064
419.5,34.8377,1.71449,0.0106399
420,34.8881,1.71256,0.0107431
420.5,34.9368,1.71356,0.0100009
421,34.9856,1.71194,0.0106506
421.5,35.0342,1.69922,0.0116972
422,35.0826,1.69631,0.01164
422.5,35.1308,1.6967,0.0116347
423,35.1808,1.68821,0.0103243
423.5,35.23,1.68947,0.0116359
424,35.2785,1.69028,0.0116396
424.5,35.3278,1.6874,0.0102937
425,35.3751,1.68681,0.00900087
425.5,35.4253,1.68794,0.00875294
426,35.4728,1.68493,0.00768054
426.5,35.5232,1.68748,0.00636796
427,35.5718,1.68662,0.00564853
427.5,35.6209,1.68445,0.00571323
428,35.6708,1.69363,0.00506938
428.5,35.7185,1.68405,0.00494421
429,35.7672,1.6791,0.00374244
429.5,35.8161,1.67906,0.00372653
430,35.8643,1.67812,0.00376564
430.5,35.9141,1.67288,0.00240951
431,35.9636,1.67414,0.00279449
431.5,36.0126,1.67327,0.00371899
432,36.0617,1.67558,0.00397249
432.5,36.1108,1.67586,0.00372568
433,36.1593,1.66942,0.00285322
433.5,36.2079,1.6649,0.0010738
434,36.2574,1.67041,0.00107346
434.5,36.306,1.66299,-0.000219778
435,36.3552,1.65982,-0.00218428
435.5,36.4051,1.6673,-0.00284188
436,36.4527,1.66121,-0.00155294
436.5,36.5021,1.66502,-0.00155034
437,36.5517,1.66059,-0.00285357
437.5,36.6006,1.65725,-0.00421282
438,36.6498,1.65665,-0.00510967
438.5,36.6971,1.65714,-0.00648343
439,36.7476,1.65268,-0.00647975
439.5,36.7965,1.64612,-0.00668489
440,36.8461,1.65766,-0.00781203
440.5,36.8943,1.64895,-0.00883055
441,36.9438,1.64828,-0.00778781
441.5,36.9926,1.64289,-0.00912313
442,37.0424,1.6415,-0.0117333
442.5,37.0907,1.64274,-0.0116751
443,37.1397,1.63973,-0.0130702
443.5,37.189,1.6411,-0.0141085
444,37.2387,1.63977,-0.0143803
444.5,37.2873,1.63111,-0.0152296
445,37.3364,1.63072,-0.0152864
445.5,37.3856,1.63257,-0.0163721
446,37.4341,1.6385,-0.017716
446.5,37.4825,1.62938,-0.019003
447,37.5329,1.62582,-0.0190167
447.5,37.5812,1.62613,-0.0203215
448,37.6303,1.62576,-0.0215662
448.5,37.6795,1.62884,-0.0229145
449,37.7291,1.62097,-0.0242388
449.5,37.7784,1.62162,-0.0243739
450,37.8272,1.62739,-0.0257402
450.5,37.8776,1.62407,-0.0269407
451,37.9257,1.61808,-0.0283616
451.5,37.974,1.61533,-0.0296462
452,38.0241,1.61909,-0.0310895
452.5,38.073,1.61836,-0.0324885
453,38.1226,1.61513,-0.0343895
453.5,38.1711,1.61117,-0.0368204
454,38.2212,1.61146,-0.036879
454.5,38.2703,1.61744,-0.0374864
455,38.3192,1.61244,-0.039374
455.5,38.3688,1.61072,-0.0419497
456,38.4167,1.6088,-0.043577
456.5,38.4667,1.60629,-0.045705
457,38.5156,1.61834,-0.0478791
457.5,38.5647,1.61839,-0.0483851
458,38.6142,1.61087,-0.049917
458.5,38.6631,1.6084,-0.0522986
459,38.7131,1.6108,-0.0545304
459.5,38.7614,1.60572,-0.0565762
460,38.8117,1.60388,-0.0582023
460.5,38.8603,1.60647,-0.0606106
461,38.9089,1.60494,-0.062687
461.5,38.9587,1.60158,-0.0655321
462,39.0077,1.59748,-0.0673585
462.5,39.057,1.6007,-0.0695486
463,39.106,1.60381,-0.0717999
463.5,39.1534,1.59463,-0.0747831
464,39.2057,1.59411,-0.0779662
464.5,39.2545,1.59638,-0.0804056
465,39.3036,1.60003,-0.0829908
465.5,39.3522,1.60141,-0.0858487
466,39.4018,1.59547,-0.0886677
466.5,39.451,1.60258,-0.091791
467,39.5014,1.60002,-0.0938212
467.5,39.5499,1.6011,-0.0953093
468,39.6004,1.59735,-0.0990304
468.5,39.6488,1.59755,-0.101487
469,39.6982,1.60478,-0.104408
469.5,39.7474,1.60068,-0.106168
470,39.7971,1.60006,-0.108715
470.5,39.8462,1.59307,-0.112817
471,39.8958,1.59896,-0.117244
471.5,39.9447,1.59962,-0.119213
472,39.9942,1.59778,-0.123886
472.5,40.0438,1.60174,-0.129283
473,40.0927,1.6076,-0.13253
473.5,40.1428,1.61364,-0.135524
474,40.1915,1.60961,-0.139877
474.5,40.2415,1.61451,-0.143695
475,40.2894,1.60316,-0.147458
475.5,40.3394,1.60752,-0.152698
476,40.3884,1.61332,-0.157802
476.5,40.4381,1.61405,-0.162025
477,40.487,1.61649,-0.165847
477.5,40.5368,1.61679,-0.170869
478,40.5863,1.62067,-0.176302
478.5,40.6356,1.63192,-0.180667
479,40.685,1.62595,-0.186321
479.5,40.7347,1.62647,-0.191553
480,40.7834,1.63045,-0.197676
480.5,40.8327,1.62616,-0.20359
481,40.8835,1.63155,-0.210554
481.5,40.933,1.62813,-0.216696
482,40.982,1.6282,-0.22184
482.5,41.0313,1.63649,-0.227235
483,41.0812,1.63952,-0.232394
483.5,41.1299,1.6424,-0.240475
484,41.1792,1.64777,-0.247681
484.5,41.2288,1.65073,-0.254406
485,41.278,1.65161,-0.261799
485.5,41.328,1.64746,-0.269679
486,41.3775,1.6554,-0.277975
486.5,41.4265,1.6515,-0.287299
487,41.4766,1.66027,-0.29584
487.5,41.5244,1.66107,-0.304556
488,41.5749,1.66392,-0.312566
488.5,41.625,1.66668,-0.321917
489,41.674,1.6663,-0.330673
489.5,41.7237,1.66728,-0.340327
490,41.7733,1.66856,-0.349686
490.5,41.8222,1.67515,-0.358411
491,41.8731,1.67593,-0.369329
491.5,41.9217,1.67915,-0.379398
492,41.9718,1.68117,-0.391462
492.5,42.0207,1.68236,-0.403503
493,42.0717,1.69056,-0.415254
493.5,42.1209,1.69472,-0.427657
494,42.1699,1.70071,-0.439605
494.5,42.2203,1.70134,-0.45288
495,42.267,1.7042,-0.46574
495.5,42.317,1.71075,-0.478969
496,42.3682,1.71857,-0.49332
496.5,42.4178,1.72044,-0.507681
497,42.4683,1.72444,-0.520619
497.5,42.5179,1.72668,-0.53623
498,42.567,1.73517,-0.55211
498.5,42.6178,1.73591,-0.567823
499,42.6676,1.73751,-0.583152
499.5,42.7155,1.75107,-0.599732
500,42.7665,1.7554,-0.617404
500.5,42.8161,1.76203,-0.635916
501,42.8666,1.75755,-0.654043
501.5,42.9161,1.76057,-0.671796
502,42.9662,1.76525,-0.692328
502.5,43.015,1.76532,-0.712138
503,43.0643,1.77794,-0.730945
503.5,43.1145,1.78776,-0.751464
504,43.165,1.79059,-0.773812
504.5,43.2141,1.79057,-0.795035
505,43.2637,1.78693,-0.81563
505.5,43.3138,1.80171,-0.838406
506,43.3628,1.81026,-0.8605
506.5,43.4124,1.81299,-0.88496
507,43.46,1.81824,-0.907077
507.5,43.5105,1.82481,-0.930535
508,43.5616,1.828,-0.95581
508.5,43.612,1.84247,-0.981364
509,43.6612,1.84441,-1.00473
509.5,43.709,1.85153,-1.02753
510,43.7614,1.8653,-1.05446
510.5,43.8113,1.87803,-1.08046
511,43.8611,1.8903,-1.1047
511.5,43.9107,1.90462,-1.12894
512,43.9606,1.92216,-1.15431
512.5,44.0091,1.92024,-1.17943
513,44.0597,1.92909,-1.20428
513.5,44.1102,1.93464,-1.22911
514,44.1585,1.92907,-1.25365
514.5,44.2087,1.9298,-1.27795
515,44.2595,1.91489,-1.30302
515.5,44.3082,1.89373,-1.326
516,44.3577,1.87134,-1.34923
516.5,44.4065,1.83678,-1.3738
517,44.4559,1.79919,-1.39763
517.5,44.5055,1.76199,-1.42022
518,44.5539,1.70922,-1.44246
518.5,44.6034,1.64528,-1.46591
519,44.6519,1.5898,-1.48781
519.5,44.7004,1.53116,-1.50937
520,44.7516,1.47481,-1.53037
520.5,44.799,1.40623,-1.55073
521,44.8487,1.34553,-1.57159
521.5,44.8986,1.27864,-1.59176
522,44.9469,1.21409,-1.60988
522.5,44.9953,1.1507,-1.62743
523,45.0448,1.09357,-1.64714
523.5,45.0941,1.03962,-1.66768
524,45.1436,0.979807,-1.68362
524.5,45.1932,0.926192,-1.6996
525,45.2413,0.87334,-1.71594
525.5,45.2902,0.825424,-1.73342
526,45.3395,0.775073,-1.74643
526.5,45.3867,0.728097,-1.76018
527,45.4358,0.688211,-1.77487
527.5,45.4871,0.635873,-1.78978
528,45.536,0.602906,-1.80212
528.5,45.5836,0.566284,-1.8131
529,45.635,0.536636,-1.82561
529.5,45.6839,0.509195,-1.83786
530,45.7347,0.478977,-1.84896
530.5,45.7832,0.452906,-1.85846
531,45.8325,0.427292,-1.86853
531.5,45.8823,0.410883,-1.87914
532,45.9314,0.396518,-1.88903
532.5,45.9816,0.374883,-1.89842
533,46.0316,0.35825,-1.90735
533.5,46.0807,0.350284,-1.91641
534,46.1297,0.339289,-1.92388
534.5,46.1806,0.325305,-1.9319
535,46.2305,0.321117,-1.93912
535.5,46.2795,0.317258,-1.94475
536,46.3289,0.31089,-1.95163
536.5,46.3795,0.312075,-1.95815
537,46.429,0.311698,-1.96441
537.5,46.4772,0.311706,-1.96901
538,46.529,0.307656,-1.97553
538.5,46.5791,0.316123,-1.98113
539,46.6284,0.314545,-1.98578
539.5,46.6788,0.314025,-1.99231
540,46.7283,0.320502,-1.99774
540.5,46.7777,0.325491,-2.00297
541,46.828,0.324781,-2.00749
541.5,46.8775,0.326175,-2.01128
542,46.9279,0.328922,-2.0157
542.5,46.978,0.330087,-2.02016
543,47.0272,0.341157,-2.02414
543.5,47.0773,0.339093,-2.02779
544,47.1271,0.356924,-2.03169
544.5,47.1777,0.363409,-2.03518
545,47.2277,0.366674,-2.03918
545.5,47.2769,0.366857,-2.04371
546,47.3273,0.37474,-2.04717
546.5,47.3767,0.377337,-2.0502
547,47.4277,0.387705,-2.0544
547.5,47.4762,0.391303,-2.05747
548,47.5252,0.39166,-2.0612
548.5,47.5751,0.398562,-2.06395
549,47.6274,0.404747,-2.06671
549.5,47.6771,0.419037,-2.06926
550,47.7265,0.410367,-2.07269
550.5,47.775,0.422749,-2.07502
551,47.8269,0.410028,-2.07796
551.5,47.8771,0.424907,-2.07953
552,47.9265,0.431266,-2.08269
552.5,47.9768,0.430128,-2.08537
553,48.0268,0.442533,-2.08865
553.5,48.076,0.442425,-2.09074
554,48.1259,0.449308,-2.09316
554.5,48.1768,0.448947,-2.09637
555,48.2253,0.448012,-2.09823
555.5,48.2755,0.460687,-2.10034
556,48.3257,0.462483,-2.10246
556.5,48.3741,0.461761,-2.10507
557,48.4257,0.466907,-2.10808
557.5,48.4762,0.461452,-2.10922
558,48.525,0.461619,-2.1122
558.5,48.5759,0.468394,-2.11442
559,48.6262,0.468504,-2.11682
559.5,48.6756,0.472875,-2.11951
560,48.7259,0.471921,-2.12252
560.5,48.775,0.474362,-2.12485
561,48.8248,0.476598,-2.12758
561.5,48.8751,0.480937,-2.12918
562,48.924,0.489946,-2.13073
562.5,48.9745,0.495233,-2.13389
563,49.0247,0.492685,-2.13561
563.5,49.0751,0.496965,-2.13813
564,49.1245,0.487914,-2.14067
564.5,49.174,0.491724,-2.14197
565,49.2249,0.500733,-2.14535
565.5,49.2749,0.498363,-2.14623
566,49.3247,0.507844,-2.1485
566.5,49.3749,0.501679,-2.15008
567,49.4237,0.51301,-2.15286
567.5,49.4739,0.511855,-2.15547
568,49.5245,0.521335,-2.15707
568.5,49.5739,0.519306,-2.15997
569,49.6244,0.515898,-2.16153
569.5,49.6742,0.519057,-2.16291
570,49.7239,0.520171,-2.16422
570.5,49.774,0.518558,-2.16663
571,49.8242,0.511427,-2.16872
571.5,49.8741,0.519362,-2.16995
572,49.9242,0.523927,-2.17166
572.5,49.9745,0.528729,-2.17458
573,50.0249,0.531251,-2.17665
573.5,50.0744,0.541573,-2.17917
574,50.1254,0.54064,-2.18066
574.5,50.1753,0.536717,-2.1827
575,50.2257,0.540229,-2.18364
575.5,50.2748,0.544412,-2.18598
576,50.3242,0.55301,-2.18914
576.5,50.3745,0.552658,-2.19046
577,50.4249,0.555709,-2.19437
577.5,50.4746,0.560456,-2.19577
578,50.5254,0.557325,-2.19754
578.5,50.5757,0.559217,-2.20005
579,50.625,0.560271,-2.2009
579.5,50.6754,0.563308,-2.20144
580,50.7242,0.565911,-2.20414
580.5,50.7751,0.570045,-2.20674
581,50.8251,0.564209,-2.20801
581.5,50.8735,0.578121,-2.21038
582,50.9264,0.588,-2.21235
582.5,50.975,0.590128,-2.21335
583,51.024,0.591258,-2.21483
583.5,51.0761,0.596208,-2.21772
584,51.126,0.594229,-2.22047
584.5,51.1762,0.601371,-2.22182
585,51.2254,0.605276,-2.22465
585.5,51.2768,0.608095,-2.22758
586,51.3265,0.612188,-2.22939
586.5,51.3767,0.615362,-2.23075
587,51.4271,0.614671,-2.23234
587.5,51.4759,0.617409,-2.2336
588,51.5274,0.62542,-2.23587
588.5,51.5774,0.63227,-2.23694
589,51.6279,0.630401,-2.24066
589.5,51.6776,0.625465,-2.24217
590,51.7286,0.632763,-2.24417
590.5,51.7783,0.635742,-2.24674
591,51.8288,0.627639,-2.248
591.5,51.8785,0.630191,-2.24873
592,51.9289,0.640495,-2.25107
592.5,51.9789,0.63881,-2.25327
593,52.0297,0.641462,-2.25518
593.5,52.0799,0.611948,-2.25693
594,52.1295,0.619875,-2.25966
594.5,52.1801,0.635659,-2.25992
595,52.2305,0.638656,-2.26125
595.5,52.2799,0.642236,-2.26321
596,52.3314,0.641434,-2.26704
596.5,52.3815,0.640068,-2.26833
597,52.4323,0.642086,-2.27141
597.5,52.4807,0.633248,-2.27297
598,52.532,0.633897,-2.27427
598.5,52.583,0.633448,-2.27558
599,52.6332,0.632319,-2.2769
599.5,52.6821,0.633872,-2.27765
600,52.7328,0.624286,-2.28019
600.5,52.7833,0.624727,-2.28367
601,52.8329,0.625729,-2.28559
601.5,52.8834,0.62703,-2.28843
602,52.9339,0.629044,-2.28918
602.5,52.9836,0.636096,-2.29104
603,53.0344,0.639054,-2.29265
603.5,53.082,0.638386,-2.29376
604,53.1337,0.642372,-2.29484
604.5,53.1837,0.645606,-2.29709
605,53.2321,0.65013,-2.29853
605.5,53.2847,0.649429,-2.29982
606,53.335,0.64239,-2.30158
606.5,53.3848,0.637562,-2.30521
607,53.4343,0.641421,-2.30521
607.5,53.4843,0.641919,-2.30749
608,53.5341,0.643275,-2.30938
608.5,53.5848,0.64848,-2.31078
609,53.636,0.653127,-2.312
609.5,53.6852,0.660583,-2.31333
610,53.7355,0.658755,-2.31441
610.5,53.7856,0.666812,-2.31479
611,53.8359,0.669955,-2.31606
611.5,53.8864,0.677662,-2.31744
612,53.9365,0.684247,-2.31971
612.5,53.9868,0.687382,-2.32283
613,54.0366,0.688178,-2.32415
613.5,54.087,0.692498,-2.32561
614,54.137,0.69168,-2.3269
614.5,54.1874,0.695933,-2.32981
615,54.2383,0.700542,-2.33166
615.5,54.2876,0.69701,-2.33359
616,54.338,0.694978,-2.33465
616.5,54.3881,0.706782,-2.336
617,54.4384,0.709102,-2.33595
617.5,54.4883,0.71862,-2.33731
618,54.5393,0.715478,-2.33851
618.5,54.5891,0.716519,-2.34068
619,54.6387,0.721206,-2.34135
619.5,54.6894,0.722075,-2.3429
620,54.7403,0.725525,-2.34496
620.5,54.7889,0.727448,-2.34698
621,54.8395,0.736782,-2.34839
621.5,54.8903,0.729851,-2.34836
622,54.9411,0.73116,-2.34969
622.5,54.9888,0.732029,-2.35001
623,55.0407,0.731111,-2.35193
623.5,55.0902,0.744689,-2.35291
624,55.1407,0.737552,-2.35459
624.5,55.1905,0.74196,-2.35557
625,55.2411,0.739158,-2.35634
625.5,55.2894,0.741024,-2.35782
626,55.3407,0.748735,-2.35997
626.5,55.3913,0.74696,-2.36045
627,55.442,0.75445,-2.36175
627.5,55.4918,0.751568,-2.36468
628,55.5426,0.758111,-2.36604
628.5,55.5912,0.758979,-2.3677
629,55.6418,0.765202,-2.36908
629.5,55.6924,0.757972,-2.37006
630,55.7409,0.766246,-2.37269
630.5,55.7931,0.76623,-2.37293
631,55.8434,0.770591,-2.37562
631.5,55.8927,0.762128,-2.37691
632,55.9437,0.770448,-2.37822
632.5,55.9941,0.764746,-2.37823
633,56.044,0.778169,-2.37825
633.5,56.0945,0.779038,-2.37955
634,56.1443,0.776349,-2.38067
634.5,56.1951,0.777129,-2.381
635,56.2454,0.777649,-2.38219
635.5,56.2954,0.77247,-2.38356
636,56.3454,0.776303,-2.38354
636.5,56.3955,0.773228,-2.38508
637,56.4457,0.774315,-2.38706
637.5,56.4962,0.767628,-2.38746
638,56.5454,0.773784,-2.38811
638.5,56.5966,0.769178,-2.38999
639,56.6472,0.772921,-2.39145
639.5,56.6961,0.774796,-2.39319
640,56.747,0.774324,-2.39552
640.5,56.7981,0.771179,-2.39435
641,56.8482,0.784917,-2.39558
641.5,56.8988,0.784705,-2.3956
642,56.9487,0.772332,-2.39558
642.5,56.9992,0.779273,-2.39557
643,57.0502,0.781906,-2.39811
643.5,57.1002,0.783678,-2.39952
644,57.1511,0.785828,-2.40076
644.5,57.2002,0.79565,-2.40079
645,57.2498,0.802968,-2.40217
645.5,57.3011,0.807214,-2.40207
646,57.3514,0.816166,-2.40307
646.5,57.4019,0.819554,-2.40475
647,57.4513,0.820253,-2.40755
647.5,57.5021,0.83189,-2.40885
648,57.5527,0.832703,-2.41163
648.5,57.6029,0.838033,-2.41161
649,57.6534,0.850278,-2.4126
649.5,57.7035,0.852066,-2.4126
650,57.7544,0.856835,-2.41296
650.5,57.8047,0.859657,-2.41291
651,57.8543,0.86236,-2.41323
651.5,57.9054,0.858596,-2.41458
652,57.955,0.86503,-2.41457
652.5,58.0058,0.856216,-2.41588
653,58.0566,0.862369,-2.41687
653.5,58.1072,0.858922,-2.41816
654,58.1573,0.860588,-2.41952
654.5,58.2077,0.860283,-2.41951
655,58.2586,0.873189,-2.42055
655.5,58.3096,0.872968,-2.42215
656,58.3599,0.898904,-2.42302
656.5,58.4105,0.903372,-2.42346
657,58.4611,0.907057,-2.42346
657.5,58.5113,0.906112,-2.42478
658,58.5613,0.906054,-2.4261
658.5,58.6125,0.904337,-2.42747
659,58.6618,0.924633,-2.42709
659.5,58.7132,0.922959,-2.42739
660,58.7637,0.926289,-2.42742
660.5,58.8146,0.931627,-2.42873
661,58.8649,0.916985,-2.42766
661.5,58.9144,0.923775,-2.42874
662,58.9653,0.916187,-2.43033
662.5,59.0155,0.910505,-2.43136
663,59.0667,0.908945,-2.43155
663.5,59.1169,0.89765,-2.43268
664,59.1671,0.900023,-2.43334
664.5,59.2169,0.8976,-2.43466
665,59.2662,0.897323,-2.43466
665.5,59.3187,0.888675,-2.43595
666,59.3686,0.887727,-2.43632
666.5,59.4199,0.881877,-2.43798
667,59.4699,0.877058,-2.43984
667.5,59.5201,0.87999,-2.44003
668,59.5705,0.873979,-2.43902
668.5,59.6203,0.87878,-2.44037
669,59.6713,0.868804,-2.44037
669.5,59.7223,0.868885,-2.44037
670,59.7724,0.8591,-2.44102
670.5,59.8223,0.856065,-2.44168
671,59.8723,0.848995,-2.44233
671.5,59.9225,0.85012,-2.44301
672,59.9731,0.842325,-2.44432
672.5,60.0237,0.84815,-2.44436
673,60.0736,0.847079,-2.44565
673.5,60.1233,0.841696,-2.44695
674,60.1723,0.841796,-2.44827
674.5,60.2226,0.843434,-2.44827
675,60.2749,0.839956,-2.44833
675.5,60.3251,0.834212,-2.44926
676,60.3758,0.831443,-2.44922
676.5,60.4261,0.827779,-2.45059
677,60.4769,0.828745,-2.45321
677.5,60.5269,0.828148,-2.45321
678,60.5775,0.830825,-2.45321
678.5,60.6285,0.822402,-2.45311
679,60.6789,0.821918,-2.45321
679.5,60.7286,0.820583,-2.45459
680,60.7804,0.818484,-2.45322
680.5,60.8293,0.818941,-2.45312
681,60.8803,0.818918,-2.45445
681.5,60.9305,0.815516,-2.45604
682,60.9801,0.809155,-2.45717
682.5,61.0323,0.800102,-2.45717
683,61.0827,0.797748,-2.45579
683.5,61.1333,0.790743,-2.45585
684,61.1829,0.792319,-2.45655
684.5,61.2348,0.790053,-2.45856
685,61.2848,0.787861,-2.45849
685.5,61.3358,0.784857,-2.45849
686,61.386,0.78441,-2.45841
686.5,61.4361,0.777793,-2.4598
687,61.4868,0.778022,-2.46111
687.5,61.5374,0.779776,-2.46239
688,61.5879,0.774465,-2.46379
688.5,61.6388,0.770827,-2.46497
689,61.6889,0.771796,-2.46375
689.5,61.7397,0.76869,-2.46277
690,61.7902,0.763839,-2.46275
690.5,61.8409,0.757526,-2.46408
691,61.8921,0.754629,-2.46408
691.5,61.9413,0.751622,-2.46408
692,61.9919,0.752984,-2.46408
692.5,62.0423,0.74977,-2.46545
693,62.0928,0.739217,-2.46539
693.5,62.1433,0.737977,-2.46738
694,62.1941,0.736883,-2.46739
694.5,62.2451,0.739758,-2.46795
695,62.295,0.732942,-2.4679
695.5,62.3462,0.731101,-2.46927
696,62.3959,0.724563,-2.46802
696.5,62.4459,0.725738,-2.46803
697,62.4961,0.719657,-2.46808
697.5,62.5468,0.706694,-2.47068
698,62.598,0.708499,-2.47067
698.5,62.6479,0.705971,-2.47077
699,62.6988,0.70998,-2.47198
699.5,62.75,0.714953,-2.47236
700,62.8003,0.711824,-2.47457
700.5,62.8501,0.703927,-2.47339
701,62.9011,0.701673,-2.47212
701.5,62.9514,0.711231,-2.47335
702,63.0016,0.69715,-2.47342
702.5,63.0519,0.701165,-2.47342
703,63.1028,0.699626,-2.4744
703.5,63.1535,0.699206,-2.47473
704,63.2043,0.691739,-2.47473
704.5,63.2545,0.684913,-2.47604
705,63.3057,0.683014,-2.47604
705.5,63.3558,0.672583,-2.47736
706,63.406,0.676726,-2.47875
706.5,63.4562,0.669862,-2.47868
707,63.5061,0.667088,-2.47868
707.5,63.556,0.659435,-2.47868
708,63.6085,0.662399,-2.47869
708.5,63.6591,0.654414,-2.47999
709,63.71,0.644649,-2.48
709.5,63.7596,0.638995,-2.47941
710,63.8103,0.633122,-2.48002
710.5,63.861,0.631722,-2.48132
711,63.9112,0.635113,-2.48132
711.5,63.9614,0.625673,-2.48132
712,64.0118,0.630245,-2.48132
712.5,64.062,0.62481,-2.48057
713,64.1138,0.636946,-2.48159
713.5,64.1634,0.632156,-2.48419
714,64.2135,0.633133,-2.48418
714.5,64.2638,0.632002,-2.48548
715,64.3142,0.62432,-2.48549
715.5,64.365,0.630936,-2.48549
716,64.4151,0.626055,-2.4854
716.5,64.466,0.623708,-2.4868
717,64.5164,0.621091,-2.4868
717.5,64.5662,0.625108,-2.48821
718,64.6172,0.618637,-2.48812
718.5,64.668,0.613723,-2.48813
719,64.718,0.607936,-2.48813
719.5,64.7685,0.602894,-2.48813
720,64.8193,0.600783,-2.48813
720.5,64.8706,0.602574,-2.48813
721,64.9194,0.600275,-2.48706
721.5,64.9717,0.591609,-2.48814
722,65.0211,0.589367,-2.48807
722.5,65.0715,0.587228,-2.48944
723,65.1222,0.587192,-2.48944
723.5,65.1723,0.586975,-2.48944
724,65.2241,0.580681,-2.49076
724.5,65.2742,0.580701,-2.49076
725,65.3248,0.570389,-2.49075
725.5,65.3757,0.565088,-2.4934
726,65.426,0.556933,-2.49469
726.5,65.4772,0.554272,-2.49603
727,65.5278,0.54798,-2.49539
727.5,65.5779,0.549723,-2.49508
728,65.6283,0.545211,-2.49471
728.5,65.6797,0.549509,-2.49471
729,65.7298,0.540439,-2.49471
729.5,65.7807,0.538268,-2.49471
730,65.8318,0.532594,-2.49604
730.5,65.8827,0.5317,-2.49603
731,65.9339,0.525918,-2.49603
731.5,65.9837,0.526663,-2.49603
732,66.0346,0.523414,-2.49733
732.5,66.0856,0.527328,-2.49739
733,66.1367,0.523367,-2.49866
733.5,66.1869,0.52502,-2.49866
734,66.2378,0.519449,-2.49903
734.5,66.2882,0.516599,-2.49899
735,66.3391,0.511015,-2.49873
735.5,66.39,0.505558,-2.49866
736,66.4406,0.503572,-2.49866
736.5,66.4916,0.504538,-2.49866
737,66.542,0.494407,-2.50056
737.5,66.5933,0.489577,-2.5013
738,66.6439,0.480782,-2.50261
738.5,66.695,0.478534,-2.50401
739,66.7452,0.468408,-2.50393
739.5,66.7965,0.472493,-2.50393
740,66.8467,0.464762,-2.50253