File: 01_Data/Polycarbonate_Helmet_Shell/STA/N2/10K_min/Polycarbonate_Helmet_Shell_STA_N2_10KData_241009_R3.csv
Temp./C,Time/min,DSC/(mW/mg),Mass loss/mg
60.0,0.0,0.760995,-0.000622497
60.5,0.0559167,0.766402,0.000347459
61,0.113956,0.77489,0.00111213
61.5,0.168543,0.780508,0.000745727
62,0.225367,0.786423,0.00119757
62.5,0.279563,0.800526,0.00121643
63,0.33326,0.794505,-0.000112933
63.5,0.387787,0.802552,-0.00139597
64,0.441955,0.815101,-0.00142817
64.5,0.497453,0.817218,-0.00256283
65,0.551668,0.821871,-0.00151236
65.5,0.604573,0.827439,-0.00128602
66,0.658866,0.837687,-0.00135109
66.5,0.713732,0.833671,-0.000250892
67,0.764974,0.83764,-0.000347375
67.5,0.817526,0.850076,-0.000662925
68,0.869556,0.841841,-1.0049e-05
68.5,0.925313,0.8522,-7.99284e-06
69,0.977484,0.851215,-0.00137926
69.5,1.02983,0.856276,-1.03582e-05
70,1.08501,0.865019,-0.0011894
70.5,1.13622,0.867301,7.86167e-06
71,1.18586,0.870899,1.21016e-05
71.5,1.24182,0.879376,0.00118425
72,1.29326,0.881336,0.000877423
72.5,1.34753,0.898016,-9.81278e-06
73,1.39914,0.89558,-0.000304037
73.5,1.45053,0.88751,-0.00133062
74,1.50433,0.889492,-0.00133027
74.5,1.55628,0.899356,-0.00164702
75,1.60709,0.892296,-0.00297006
75.5,1.65889,0.902369,-0.00300126
76,1.71119,0.900509,-0.00294528
76.5,1.76319,0.903058,-0.00296488
77,1.81634,0.909228,-0.00164942
77.5,1.86804,0.906838,-0.00183059
78,1.91841,0.907798,-0.00299744
78.5,1.97014,0.903435,-0.00165961
79,2.02195,0.904853,-0.000663891
79.5,2.07177,0.8985,-0.000667709
80,2.12399,0.910728,-8.64181e-05
80.5,2.17436,0.909885,0.000600564
81,2.2255,0.905255,4.57272e-05
81.5,2.27713,0.906636,-0.00067354
82,2.32687,0.912149,-0.000659989
82.5,2.37826,0.905274,-0.000660004
83,2.4291,0.913233,-0.000662578
83.5,2.47979,0.916826,-0.00197954
84,2.5301,0.912437,-0.00114527
84.5,2.58076,0.913264,-0.000656474
85,2.6316,0.912498,0.000629755
85.5,2.68191,0.91329,0.000680699
86,2.73177,0.907168,0.00192088
86.5,2.78248,0.915646,-0.00202456
87,2.83242,0.929558,-0.000326775
87.5,2.88344,0.918327,0.000724479
88,2.93311,0.918723,0.000513494
88.5,2.98317,0.926429,-0.000769569
89,3.03288,0.925999,-0.00138443
89.5,3.08393,0.93388,-0.00137921
90,3.1334,0.930612,0.000119086
90.5,3.18172,0.92953,0.000100375
91,3.23409,0.933261,-0.000270756
91.5,3.28286,0.935205,-0.00024638
92,3.33274,0.941893,-0.00176127
92.5,3.382,0.951004,-0.000174209
93,3.43146,0.950938,0.00108116
93.5,3.48094,0.952775,5.92618e-05
94,3.52994,0.953368,0.0010181
94.5,3.57993,0.959254,0.00109114
95,3.62926,0.958832,-0.000311825
95.5,3.67883,0.958918,-0.00152882
96,3.72711,0.961945,-0.000211015
96.5,3.77736,0.962426,-0.000889832
97,3.82732,0.963582,-0.00154213
97.5,3.87602,0.975134,-0.00154
98,3.92572,0.970088,-0.00154
98.5,3.9724,0.977268,-0.00154
99,4.02343,0.968657,-0.00154006
99.5,4.07333,0.972247,-0.0014868
100,4.12265,0.988409,-0.00239021
100.5,4.17224,0.985458,-0.00155044
101,4.22109,0.98183,-0.00155
101.5,4.26965,0.979842,-0.00155
102,4.31973,0.995693,-0.00155001
102.5,4.36851,0.995485,-0.00153874
103,4.4178,0.998197,-0.000227854
103.5,4.46545,1.00351,-0.000257382
104,4.51661,1.0058,-0.000222623
104.5,4.56501,1.0102,0.00109005
105,4.61322,1.01351,0.00108918
105.5,4.66275,1.01365,1.01303e-05
106,4.71215,1.0173,0.00108471
106.5,4.76059,1.01095,0.0011001
107,4.8091,1.01471,0.0010606
107.5,4.85791,1.0247,0.0025443
108,4.90774,1.02337,0.00195633
108.5,4.95712,1.0197,0.00241034
109,5.0069,1.0245,0.00236204
109.5,5.05285,1.02651,0.00108819
110,5.10145,1.03319,0.00109522
110.5,5.15022,1.02805,-0.000236235
111,5.19988,1.02974,-0.000540596
111.5,5.24901,1.02691,-0.000165373
112,5.29658,1.03447,-0.000230041
112.5,5.345,1.03127,-0.000229093
113,5.393,1.03466,-0.000258074
113.5,5.44283,1.02739,-0.000219991
114,5.49074,1.0292,-0.00108987
114.5,5.5403,1.03703,-0.00153997
115,5.5899,1.03512,-0.00154
115.5,5.63761,1.03615,-0.00154002
116,5.68531,1.03927,-0.00153891
116.5,5.73392,1.03775,-0.000218011
117,5.78311,1.03865,-0.000217866
117.5,5.83185,1.04438,0.000339261
118,5.87818,1.03737,-0.000229999
118.5,5.92788,1.05245,-0.000231776
119,5.97645,1.04882,0.00238067
119.5,6.02553,1.05182,0.00241004
120,6.07416,1.05839,0.00239944
120.5,6.12265,1.06188,0.00104835
121,6.17029,1.06248,0.00241134
121.5,6.21965,1.06074,0.00245948
122,6.26744,1.06013,0.00302398
122.5,6.31695,1.06948,0.00241021
123,6.36394,1.07214,0.00241009
123.5,6.41214,1.07536,0.0014669
124,6.46133,1.07661,0.00108939
124.5,6.50985,1.08158,0.00109
125,6.55878,1.07062,0.00109
125.5,6.60704,1.07684,0.00109
126,6.65487,1.07971,0.00108991
126.5,6.70348,1.08563,0.00115063
127,6.75033,1.07813,-0.000232157
127.5,6.799,1.08124,-0.000458624
128,6.84861,1.08289,-0.000132676
128.5,6.89585,1.08664,-0.000217091
129,6.94448,1.09097,0.00110034
129.5,6.99138,1.08799,0.00103038
130,7.04023,1.08894,0.00241618
130.5,7.0893,1.09147,0.00370672
131,7.13823,1.08377,0.00373004
131.5,7.18491,1.09408,0.00373
132,7.23263,1.09503,0.00372494
132.5,7.28284,1.1012,0.00112774
133,7.32964,1.09257,0.00108525
133.5,7.37661,1.09632,0.00241329
134,7.42598,1.09953,0.00238032
134.5,7.47447,1.0974,0.00142048
135,7.52153,1.10556,0.00141999
135.5,7.57054,1.10542,0.00147505
136,7.61847,1.10304,0.0027384
136.5,7.6665,1.10762,0.00267587
137,7.7144,1.10798,-0.000456187
137.5,7.76319,1.10901,0.00278661
138,7.81103,1.11172,0.00275738
138.5,7.85836,1.1139,0.00263354
139,7.90646,1.11647,0.00393305
139.5,7.95493,1.12392,0.00395737
140,8.0028,1.11931,0.00132376
140.5,8.05081,1.12441,-5.75659e-05
141,8.09838,1.12271,0.000947674
141.5,8.1462,1.12612,0.00131062
142,8.19244,1.12402,0.00131949
142.5,8.24188,1.12205,-2.74249e-05
143,8.28724,1.12984,-0.000424555
143.5,8.33712,1.12609,-0.00134859
144,8.38649,1.12523,7.14273e-07
144.5,8.43431,1.13472,6.95035e-06
145,8.48163,1.13985,0.00131294
145.5,8.53007,1.14444,0.00131993
146,8.57836,1.14314,0.00137119
146.5,8.62604,1.1419,0.00130111
147,8.67322,1.13365,0.00139789
147.5,8.72199,1.14472,6.89512e-05
148,8.76915,1.13917,0.00142407
148.5,8.81767,1.15155,0.00142
149,8.86512,1.14853,0.00142
149.5,8.91295,1.15493,0.00142
150,8.96033,1.15527,0.00141998
150.5,9.00855,1.1529,0.00144098
151,9.05682,1.1604,0.00221663
151.5,9.10422,1.15843,0.00112951
152,9.15278,1.1576,0.00109987
152.5,9.20033,1.15531,0.00109928
153,9.24823,1.16048,0.00208159
153.5,9.29641,1.15351,0.000761115
154,9.34404,1.16139,0.000760024
154.5,9.39261,1.16888,0.000726298
155,9.43976,1.16702,0.00250768
155.5,9.4872,1.16779,0.0026577
156,9.53606,1.17337,0.00262998
156.5,9.58264,1.17075,0.00263
157,9.63201,1.17235,0.00263
157.5,9.67793,1.17966,0.00263
158,9.72722,1.1814,0.00262999
158.5,9.77414,1.17366,0.00237652
159,9.82205,1.18281,0.00130993
159.5,9.87064,1.18667,0.000594788
160,9.91789,1.18127,0.000650081
160.5,9.96657,1.18447,0.000650551
161,10.0137,1.18558,-0.000391329
161.5,10.0621,1.19257,-1.03719e-05
162,10.11,1.1966,-3.26051e-05
162.5,10.158,1.19814,0.000651755
163,10.2055,1.20156,0.000662169
163.5,10.2529,1.1927,0.00197345
164,10.3012,1.1968,0.00326306
164.5,10.3492,1.20378,0.00188478
165,10.3965,1.20579,0.00327235
165.5,10.4436,1.21714,0.00275151
166,10.4922,1.21556,0.00197073
166.5,10.541,1.21494,0.00196998
167,10.5885,1.21556,0.00197687
167.5,10.6372,1.21804,0.0032785
168,10.6821,1.23085,0.00328626
168.5,10.7311,1.23439,0.00476419
169,10.7795,1.24695,0.00493105
169.5,10.8261,1.24838,0.00602952
170,10.8748,1.25515,0.00603
170.5,10.9222,1.26253,0.00603
171,10.9698,1.26035,0.00602986
171.5,11.0178,1.26762,0.0060832
172,11.0665,1.27878,0.00373581
172.5,11.1134,1.28902,0.00372956
173,11.1605,1.29289,0.00336424
173.5,11.2084,1.29995,0.000697234
174,11.2565,1.31731,-0.000673018
174.5,11.3036,1.32251,-0.000670006
175,11.3518,1.32118,-0.000669941
175.5,11.3994,1.32967,0.000102791
176,11.4472,1.33193,0.00065047
176.5,11.4939,1.3372,0.00065008
177,11.5426,1.34156,0.000547069
177.5,11.5904,1.34188,0.00197048
178,11.6374,1.3412,0.00197
178.5,11.686,1.34019,0.00197
179,11.7337,1.34165,0.00196998
179.5,11.7812,1.3398,0.00199165
180,11.8292,1.34132,0.00327975
180.5,11.8762,1.34199,0.00226423
181,11.9241,1.33902,0.00108354
181.5,11.9716,1.34177,-0.000713634
182,12.0195,1.34329,-0.000665004
182.5,12.0668,1.35057,0.000660272
183,12.1141,1.34538,0.00191741
183.5,12.1618,1.34198,0.00201171
184,12.2089,1.3462,0.00296629
184.5,12.2569,1.34276,0.00296016
185,12.3048,1.33721,0.00298183
185.5,12.3515,1.33663,0.000333797
186,12.3999,1.34112,-0.000997629
186.5,12.4474,1.3507,-0.000990007
187,12.4951,1.34721,-0.00099
187.5,12.5413,1.33881,0.000334512
188,12.5911,1.34284,0.000329993
188.5,12.6367,1.34739,0.000329999
189,12.6847,1.35361,0.000329908
189.5,12.7324,1.34756,0.0010572
190,12.7799,1.34589,0.00128267
190.5,12.8276,1.34417,0.000663262
191,12.8746,1.3525,0.0019706
191.5,12.9222,1.35278,0.00196035
192,12.9689,1.35103,0.00292797
192.5,13.0137,1.35472,0.00296003
193,13.0637,1.35531,0.00296
193.5,13.1112,1.35362,0.00295999
194,13.1579,1.35635,0.00296649
194.5,13.2061,1.36066,0.00300178
195,13.2536,1.36046,0.00293959
195.5,13.3005,1.35901,0.00164037
196,13.3484,1.35397,0.00164007
196.5,13.3964,1.34796,0.00160469
197,13.4426,1.35093,0.00428274
197.5,13.49,1.35768,0.00428
198,13.5379,1.35533,0.00427999
198.5,13.5857,1.35801,0.00428068
199,13.6334,1.35397,0.0029722
199.5,13.6799,1.36092,0.0029599
200,13.728,1.36138,0.0029975
200.5,13.775,1.36148,0.00361322
201,13.8235,1.3549,0.00391832
201.5,13.8703,1.36474,0.00338035
202,13.9167,1.35414,0.00163846
202.5,13.9649,1.36471,0.00163999
203,14.0126,1.36109,0.00163983
203.5,14.06,1.35816,0.00033253
204,14.1068,1.36966,0.000319975
204.5,14.1535,1.3647,0.00032
205,14.2015,1.36939,0.000319803
205.5,14.2492,1.36862,0.000499564
206,14.2973,1.37806,0.00098689
206.5,14.3436,1.37694,0.000306226
207,14.3917,1.3781,0.000977261
207.5,14.44,1.38306,0.00164991
208,14.4874,1.38504,0.00178144
208.5,14.5346,1.37477,0.00295849
209,14.5818,1.38962,0.00293479
209.5,14.6296,1.38701,0.0015685
210,14.6781,1.38776,0.00296078
210.5,14.7252,1.38499,0.00296008
211,14.7726,1.38154,0.00164971
211.5,14.8207,1.38061,0.000289207
212,14.868,1.37861,0.00139912
212.5,14.9151,1.38334,0.000310187
213,14.9616,1.38164,-0.000975524
213.5,15.0104,1.38357,9.18338e-05
214,15.0563,1.38893,0.00180743
214.5,15.1047,1.38057,0.003053
215,15.1542,1.38753,0.0017518
215.5,15.2015,1.39313,0.000725735
216,15.249,1.38782,-0.00047665
216.5,15.2962,1.39663,-0.00186986
217,15.345,1.39506,-0.000548713
217.5,15.3921,1.39906,0.000808225
218,15.439,1.40135,0.00211837
218.5,15.4873,1.39664,0.00211282
219,15.533,1.38927,0.00339945
219.5,15.5827,1.39709,0.00340391
220,15.6281,1.38755,0.00163357
220.5,15.6757,1.38567,0.00141994
221,15.7259,1.39304,0.00142338
221.5,15.7735,1.38776,9.60744e-05
222,15.8208,1.39027,9.80693e-05
222.5,15.8686,1.38786,-0.00120068
223,15.9162,1.38586,-0.00122002
223.5,15.964,1.38385,-0.00121906
224,16.0111,1.38376,6.5476e-05
224.5,16.0592,1.38812,0.000100021
225,16.1064,1.39018,0.0001
225.5,16.1533,1.39152,0.0001
226,16.2011,1.39326,0.000100008
226.5,16.2481,1.39179,9.1519e-05
227,16.2963,1.3959,0.00142702
227.5,16.3441,1.38937,0.00142
228,16.3909,1.38893,0.0014197
228.5,16.4383,1.38836,0.00156632
229,16.4865,1.39739,0.00274618
229.5,16.5332,1.39936,0.00406253
230,16.5807,1.40176,0.00400145
230.5,16.6292,1.407,0.00228416
231,16.676,1.41246,0.00131002
231.5,16.7233,1.40566,0.00129728
232,16.7719,1.39965,-4.53632e-06
232.5,16.8191,1.40209,-0.00135717
233,16.8654,1.40016,0.000580498
233.5,16.9139,1.40641,0.00214146
234,16.9616,1.40834,0.00283994
234.5,17.0087,1.39927,0.00285669
235,17.0563,1.39445,0.00147958
235.5,17.1043,1.39558,0.000209335
236,17.1513,1.39585,-0.000684385
236.5,17.1989,1.39908,0.000222993
237,17.2465,1.40296,-0.000894924
237.5,17.2929,1.40357,0.000201026
238,17.3425,1.40029,0.000542951
238.5,17.39,1.40225,0.000550975
239,17.4369,1.40659,0.00148281
239.5,17.4846,1.40157,0.00185995
240,17.5323,1.40506,0.00171925
240.5,17.5799,1.39925,0.000542097
241,17.6268,1.40292,0.000539998
241.5,17.6749,1.40548,0.000539997
242,17.7219,1.40592,0.000536515
242.5,17.7699,1.40592,0.00189424
243,17.8182,1.40875,0.00223888
243.5,17.8655,1.40588,0.00317999
244,17.9129,1.40063,0.00318543
244.5,17.961,1.40544,0.00490738
245,18.0085,1.41268,0.00482987
245.5,18.0566,1.40085,0.00483021
246,18.1038,1.4037,0.00485681
246.5,18.1509,1.40886,0.00350998
247,18.1982,1.40425,0.00210416
247.5,18.2461,1.40007,0.002173
248,18.2933,1.40057,0.00185572
248.5,18.3411,1.39888,0.00167537
249,18.3883,1.39545,0.000541331
249.5,18.4364,1.39708,0.000539997
250,18.4832,1.39226,0.00054
250.5,18.5317,1.39435,0.00054
251,18.5785,1.39171,0.00054
251.5,18.6267,1.39405,0.000539995
252,18.673,1.39565,0.000537581
252.5,18.721,1.40759,0.000860152
253,18.7672,1.39548,0.00207979
253.5,18.8155,1.39821,0.000881658
254,18.8635,1.40019,0.00219384
254.5,18.9105,1.40283,0.00225936
255,18.9585,1.39558,0.00153147
255.5,19.0064,1.39704,0.00157284
256,19.0541,1.39723,0.00285078
256.5,19.1003,1.39315,0.00284999
257,19.1486,1.39742,0.00285
257.5,19.1963,1.39873,0.00285
258,19.244,1.39611,0.00285
258.5,19.2907,1.39611,0.00285013
259,19.3381,1.39964,0.00282932
259.5,19.3856,1.3944,0.000830326
260,19.4339,1.40212,0.000210216
260.5,19.4809,1.39644,0.000209999
261,19.5283,1.40086,0.00021
261.5,19.5763,1.40366,0.00021
262,19.623,1.3982,0.00021
262.5,19.6688,1.40134,0.000210001
263,19.7168,1.40245,0.000209647
263.5,19.7665,1.39522,0.000269857
264,19.8137,1.40059,0.000210051
264.5,19.8611,1.39724,0.000189264
265,19.9087,1.40016,0.00153079
265.5,19.9562,1.40522,0.00153162
266,20.0044,1.40691,0.00280337
266.5,20.0501,1.40162,0.00276389
267,20.0999,1.39451,0.00416927
267.5,20.1483,1.40037,0.00284504
268,20.1953,1.40099,0.00283907
268.5,20.2426,1.40111,0.000211671
269,20.2902,1.40558,-0.0016788
269.5,20.3386,1.40251,0.00307657
270,20.3865,1.40986,0.00447115
270.5,20.4349,1.40132,0.00329207
271,20.4805,1.40947,0.00328998
271.5,20.5281,1.41679,0.00328648
272,20.576,1.41438,0.00221694
272.5,20.6246,1.4138,0.00131018
273,20.6722,1.40707,0.00131001
273.5,20.7193,1.40472,0.00130425
274,20.767,1.40847,0.00227128
274.5,20.8148,1.40513,0.00229999
275,20.8626,1.40796,0.00229987
275.5,20.9105,1.40783,0.00239409
276,20.9588,1.40378,0.000979308
276.5,21.0057,1.40573,0.00098
277,21.0538,1.40087,0.000980007
277.5,21.1011,1.40556,0.000971815
278,21.1486,1.40245,0.00229866
278.5,21.1971,1.40613,0.00231049
279,21.2442,1.40762,0.00360868
279.5,21.2929,1.40106,0.00362003
280,21.3411,1.40843,0.00362067
280.5,21.3884,1.41079,0.00227978
281,21.4372,1.40862,0.00230006
281.5,21.4819,1.40763,0.0023
282,21.5316,1.41015,0.0023
282.5,21.579,1.41219,0.00229844
283,21.6279,1.41568,0.00131837
283.5,21.6753,1.41119,0.00130998
284,21.7228,1.40931,0.00130984
284.5,21.7707,1.41696,0.00131562
285,21.8189,1.42161,0.00263009
285.5,21.8666,1.40709,0.00262998
286,21.9143,1.40564,0.00262301
286.5,21.9625,1.41757,0.00131667
287,22.0097,1.41589,0.00131951
287.5,22.0581,1.41348,0.0019729
288,22.1063,1.41624,0.00197
288.5,22.1535,1.41384,0.00196953
289,22.2015,1.40977,0.00146549
289.5,22.2501,1.41343,0.00229827
290,22.2969,1.4128,0.00231259
290.5,22.3445,1.41782,0.00362242
291,22.3929,1.41557,0.00329767
291.5,22.4396,1.41252,0.00197353
292,22.4876,1.41005,0.00196282
292.5,22.5362,1.41501,0.0033239
293,22.5828,1.41134,0.00197036
293.5,22.6303,1.40626,0.00197
294,22.6785,1.40394,0.00197
294.5,22.7264,1.40757,0.00197
295,22.7745,1.40422,0.00197
295.5,22.8223,1.4056,0.00197047
296,22.8695,1.40576,0.00157027
296.5,22.9178,1.4071,-0.000673167
297,22.9655,1.39939,-0.000669991
297.5,23.0123,1.40249,-0.000668039
298,23.0607,1.40552,0.000591796
298.5,23.1095,1.40418,0.000606935
299,23.156,1.40627,0.0019717
299.5,23.204,1.39988,0.00197
300,23.2517,1.40208,0.00197
300.5,23.2998,1.40797,0.00196706
301,23.3471,1.40818,0.00156346
301.5,23.3949,1.40645,0.00131399
302,23.4426,1.40466,0.00108023
302.5,23.4906,1.40902,6.02927e-07
303,23.5382,1.40348,-5.41567e-05
303.5,23.5866,1.40421,0.00131136
304,23.6341,1.40864,0.00130992
304.5,23.6822,1.40763,0.00150361
305,23.7306,1.41356,0.00394653
305.5,23.778,1.41764,0.00396613
306,23.8236,1.41375,0.00526023
306.5,23.8734,1.41563,0.00513909
307,23.9218,1.41964,0.00312407
307.5,23.9687,1.41452,0.00177033
308,24.0172,1.41287,0.0013098
308.5,24.0651,1.41333,-5.81785e-05
309,24.111,1.41315,0.00139481
309.5,24.1604,1.40436,0.00104376
310,24.2058,1.40159,-0.000361598
310.5,24.2566,1.40464,-0.00169169
311,24.3046,1.40292,-0.00165002
311.5,24.3529,1.39867,-0.00165003
312,24.4009,1.39705,-0.00162602
312.5,24.4492,1.39889,0.000993659
313,24.496,1.39463,0.000979992
313.5,24.5444,1.39586,0.00098
314,24.5924,1.3905,0.00097998
314.5,24.6403,1.39201,0.000988773
315,24.6886,1.39855,0.00229064
315.5,24.7359,1.39178,0.00229996
316,24.7849,1.39667,0.00234139
316.5,24.8317,1.3919,-0.000655231
317,24.8805,1.39298,-0.00164898
317.5,24.9284,1.39853,-0.00179119
318,24.9768,1.39456,-0.00198938
318.5,25.0235,1.39504,-0.00166004
319,25.0721,1.39204,-0.00166057
319.5,25.12,1.3916,-0.000237861
320,25.1676,1.38883,-0.000342028
320.5,25.2158,1.39477,0.000652104
321,25.264,1.39441,0.00197093
321.5,25.3106,1.3938,0.00196999
322,25.3601,1.39153,0.00197
322.5,25.4077,1.39851,0.00197
323,25.4554,1.39698,0.00197001
323.5,25.5039,1.39771,0.00224401
324,25.5517,1.39017,0.00230056
324.5,25.5996,1.38912,0.00196038
325,25.6475,1.39106,0.000979923
325.5,25.695,1.38628,0.000979525
326,25.7434,1.38718,0.00143142
326.5,25.7906,1.3881,0.000989834
327,25.8387,1.38426,0.000984675
327.5,25.8868,1.38358,1.49755e-05
328,25.9354,1.38554,0.00131731
328.5,25.9832,1.38352,0.00275869
329,26.0304,1.38304,0.00137581
329.5,26.0793,1.39101,0.00169702
330,26.1275,1.38369,0.002739
330.5,26.1746,1.38478,0.00274
331,26.2224,1.38465,0.00274
331.5,26.2708,1.38453,0.00274075
332,26.3168,1.38253,0.000152644
332.5,26.3671,1.38473,-0.00119108
333,26.4146,1.38602,0.000170916
333.5,26.4634,1.39102,0.00141829
334,26.5098,1.3861,0.00283679
334.5,26.5588,1.38163,0.00404078
335,26.607,1.38741,0.00304061
335.5,26.6546,1.38965,0.00226026
336,26.7027,1.38311,0.0025193
336.5,26.7488,1.38621,0.00264992
337,26.799,1.38433,0.00285014
337.5,26.8472,1.37855,0.00285
338,26.8954,1.38196,0.00284864
338.5,26.9434,1.38756,0.00420717
339,26.9916,1.38802,0.00416916
339.5,27.0397,1.38949,0.00315201
340,27.0876,1.38856,0.00228663
340.5,27.135,1.39336,0.00011721
341,27.1838,1.39165,0.00105136
341.5,27.2314,1.38054,0.000219786
342,27.2797,1.37851,0.000219995
342.5,27.3265,1.38632,0.000221331
343,27.3763,1.37898,0.000147645
343.5,27.4243,1.37934,0.000220071
344,27.4729,1.38314,0.00152823
344.5,27.5205,1.38084,0.00271904
345,27.5699,1.38497,0.00242686
345.5,27.6176,1.37649,2.07977e-06
346,27.6664,1.37287,0.00135889
346.5,27.7142,1.37717,0.00130996
347,27.7613,1.38036,0.00131
347.5,27.8106,1.37643,0.00131
348,27.8593,1.37428,0.00131
348.5,27.9065,1.37085,0.00131
349,27.9563,1.37747,0.00131
349.5,28.004,1.37904,0.00130999
350,28.0525,1.37345,0.00132617
350.5,28.1,1.37795,0.00104627
351,28.1481,1.37506,0.000979623
351.5,28.1967,1.3771,0.000980001
352,28.245,1.38121,0.00098
352.5,28.2927,1.37869,0.000980065
353,28.3415,1.3754,0.00101395
353.5,28.39,1.37308,-0.000330348
354,28.4392,1.37929,-0.000330237
354.5,28.4862,1.3713,-0.0007337
355,28.5355,1.37305,-0.00132009
355.5,28.5829,1.37707,-0.00114293
356,28.6315,1.37607,0.00130902
356.5,28.6807,1.38174,0.000545007
357,28.7289,1.37446,0.00131904
357.5,28.7773,1.37426,0.00132337
358,28.825,1.37639,-0.000651345
358.5,28.8742,1.36744,-0.00264246
359,28.922,1.37322,-5.62352e-06
359.5,28.9702,1.37233,-9.81321e-06
360,29.0165,1.36405,-1.74669e-05
360.5,29.0666,1.36234,-0.00138326
361,29.1155,1.36613,-0.000297695
361.5,29.1636,1.36282,-0.000340031
362,29.2118,1.36785,-0.000339992
362.5,29.2601,1.36407,-0.000292882
363,29.3084,1.37269,-0.0016618
363.5,29.358,1.36891,-0.000341807
364,29.4052,1.36867,-0.00034
364.5,29.4539,1.36173,-0.000339998
365,29.5002,1.36365,-0.000342459
365.5,29.5504,1.36162,-0.00163376
366,29.5998,1.36749,-0.00165983
366.5,29.6474,1.35879,-0.00175514
367,29.6957,1.35516,-0.0029703
367.5,29.7453,1.3564,-0.00165884
368,29.7924,1.35525,0.000971031
368.5,29.8408,1.35123,0.000980085
369,29.889,1.35487,0.000980003
369.5,29.9375,1.35361,0.000978039
370,29.9863,1.35468,-0.000337645
370.5,30.0343,1.35666,-0.000995139
371,30.0824,1.3504,-0.000195179
371.5,30.1317,1.34685,-0.0016229
372,30.1796,1.34736,-0.00165003
372.5,30.2274,1.34508,-0.00165
373,30.2768,1.33863,-0.00165
373.5,30.325,1.33859,-0.00165
374,30.3732,1.33964,-0.00165
374.5,30.4223,1.33873,-0.00165
375,30.4704,1.34295,-0.00165096
375.5,30.5192,1.34179,-0.0032165
376,30.5674,1.33434,-0.00656195
376.5,30.6161,1.33276,-0.00449923
377,30.6644,1.32967,-0.0017508
377.5,30.7137,1.32868,-0.00176001
378,30.7613,1.32574,-0.00178597
378.5,30.8102,1.32432,-0.0020756
379,30.8584,1.32088,-0.00209002
379.5,30.9072,1.32333,-0.00209149
380,30.9559,1.32195,-0.00109279
380.5,31.0035,1.31942,-0.00109997
381,31.0531,1.32516,-0.0011
381.5,31.1014,1.31353,-0.0011
382,31.1499,1.32236,-0.000985088
382.5,31.1979,1.3202,-0.00242015
383,31.2469,1.32215,-0.00242
383.5,31.2954,1.32181,-0.00278929
384,31.3445,1.3135,-0.00580955
384.5,31.3923,1.31351,-0.00583013
385,31.4411,1.3111,-0.00583911
385.5,31.4889,1.30558,-0.00550343
386,31.538,1.31404,-0.00560387
386.5,31.5862,1.3124,-0.00418029
387,31.635,1.30543,-0.00418
387.5,31.6842,1.30769,-0.00418
388,31.7329,1.31441,-0.00418024
388.5,31.7811,1.30067,-0.00385198
389,31.8301,1.30458,-0.00279576
389.5,31.8782,1.30581,-0.00351921
390,31.9273,1.29939,-0.00352
390.5,31.9753,1.2974,-0.00351937
391,32.0243,1.30236,-0.00263887
391.5,32.0737,1.29437,-0.0015403
392,32.1217,1.29382,-0.00154045
392.5,32.1696,1.29722,-0.000565608
393,32.2172,1.29498,-0.00185657
393.5,32.2674,1.28912,-0.00187002
394,32.3157,1.28285,-0.00187
394.5,32.3644,1.28327,-0.00186999
395,32.4135,1.28038,-0.00188152
395.5,32.4622,1.27512,-0.00425567
396,32.5107,1.27859,-0.0039587
396.5,32.5591,1.2771,-0.00319014
397,32.6084,1.27965,-0.00319
397.5,32.6564,1.28026,-0.00318891
398,32.7058,1.28035,-0.00418809
398.5,32.7541,1.27841,-0.00450945
399,32.8028,1.27692,-0.00580743
399.5,32.8512,1.27237,-0.00729528
400,32.8997,1.26718,-0.00625163
400.5,32.948,1.27462,-0.00410392
401,32.997,1.27073,-0.00212667
401.5,33.0465,1.2721,-0.00318954
402,33.0944,1.27145,-0.00259427
402.5,33.1436,1.2604,-0.00171457
403,33.1926,1.27021,-0.00280643
403.5,33.2399,1.26421,-0.00456346
404,33.2896,1.26842,-0.00624225
404.5,33.3384,1.26283,-0.00624407
405,33.3872,1.25879,-0.00614852
405.5,33.436,1.25799,-0.00616501
406,33.4842,1.25203,-0.00484545
406.5,33.5338,1.25734,-0.00634425
407,33.5817,1.25362,-0.00633835
407.5,33.6309,1.25813,-0.00636088
408,33.6796,1.25134,-0.0076976
408.5,33.7282,1.25941,-0.00885462
409,33.7766,1.2607,-0.00971571
409.5,33.8259,1.25415,-0.00861388
410,33.875,1.252,-0.00834999
410.5,33.9234,1.25658,-0.00840536
411,33.9721,1.24891,-0.00581435
411.5,34.0218,1.25605,-0.00702376
412,34.0694,1.24795,-0.00840769
412.5,34.1188,1.24752,-0.00966819
413,34.1686,1.25538,-0.00967581
413.5,34.2167,1.25206,-0.00834982
414,34.2656,1.25434,-0.00764675
414.5,34.3144,1.25802,-0.00693016
415,34.363,1.25696,-0.00691016
415.5,34.4116,1.24951,-0.00700814
416,34.4603,1.24824,-0.00841263
416.5,34.5091,1.24975,-0.00706236
417,34.5577,1.25456,-0.00571223
417.5,34.6072,1.25458,-0.00619722
418,34.6555,1.24887,-0.0070275
418.5,34.705,1.24589,-0.0096649
419,34.7538,1.25081,-0.00967
419.5,34.803,1.25356,-0.00967
420,34.851,1.2525,-0.00966962
420.5,34.9001,1.23905,-0.0101718
421,34.9492,1.2372,-0.0126539
421.5,34.9986,1.24756,-0.0152199
422,35.0472,1.24686,-0.0165782
422.5,35.0959,1.24791,-0.0152587
423,35.1468,1.23903,-0.0152597
423.5,35.1945,1.24496,-0.0165762
424,35.244,1.24016,-0.015898
424.5,35.2926,1.24197,-0.0160202
425,35.342,1.24034,-0.0133047
425.5,35.3908,1.24843,-0.0131178
426,35.4395,1.2384,-0.0143269
426.5,35.4889,1.24133,-0.0142478
427,35.5384,1.24558,-0.0160898
427.5,35.5874,1.24744,-0.0149362
428,35.6355,1.24299,-0.0136193
428.5,35.6849,1.24128,-0.0129354
429,35.7347,1.23862,-0.0129601
429.5,35.783,1.25357,-0.0129579
430,35.8317,1.25046,-0.0120918
430.5,35.8804,1.2508,-0.0129689
431,35.9297,1.24474,-0.0142648
431.5,35.9794,1.2412,-0.0142805
432,36.0284,1.24217,-0.0149948
432.5,36.0768,1.24077,-0.0146048
433,36.1261,1.2512,-0.0133123
433.5,36.1747,1.2482,-0.0146031
434,36.2234,1.24536,-0.0156259
434.5,36.2737,1.24136,-0.0177953
435,36.3214,1.24211,-0.017698
435.5,36.3712,1.23384,-0.0191046
436,36.4206,1.23743,-0.0204219
436.5,36.4696,1.23627,-0.0250021
437,36.5179,1.22621,-0.0276757
437.5,36.5675,1.22242,-0.0305458
438,36.6165,1.21899,-0.0325142
438.5,36.6646,1.21661,-0.0318712
439,36.7138,1.20746,-0.0318399
439.5,36.7635,1.21786,-0.0318405
440,36.8128,1.21254,-0.0303536
440.5,36.8607,1.20873,-0.0304361
441,36.9102,1.2085,-0.03042
441.5,36.9591,1.21637,-0.0304009
442,37.0083,1.20915,-0.029109
442.5,37.0569,1.20256,-0.0306101
443,37.107,1.19588,-0.0322339
443.5,37.1547,1.20412,-0.0320678
444,37.2037,1.19276,-0.0315348
444.5,37.2526,1.1956,-0.0327315
445,37.3023,1.19535,-0.0348096
445.5,37.3511,1.18975,-0.0374821
446,37.4002,1.19074,-0.0386866
446.5,37.45,1.18789,-0.038774
447,37.4992,1.18738,-0.0407854
447.5,37.548,1.18334,-0.0407299
448,37.5974,1.17925,-0.0407298
448.5,37.6454,1.18619,-0.0407444
449,37.695,1.17789,-0.0420516
449.5,37.7444,1.18136,-0.0420611
450,37.7916,1.18049,-0.042436
450.5,37.8421,1.18812,-0.0440579
451,37.8915,1.17224,-0.0446839
451.5,37.9404,1.17505,-0.045997
452,37.9901,1.1808,-0.0487733
452.5,38.0401,1.17135,-0.0514269
453,38.0886,1.16678,-0.0531455
453.5,38.1372,1.17742,-0.0544272
454,38.1879,1.18119,-0.0558145
454.5,38.2357,1.17501,-0.056139
455,38.2854,1.17102,-0.0572182
455.5,38.3348,1.17494,-0.0587248
456,38.3828,1.1685,-0.0604834
456.5,38.4333,1.17165,-0.061902
457,38.483,1.17104,-0.0631688
457.5,38.5317,1.16113,-0.065762
458,38.581,1.17201,-0.0686846
458.5,38.6303,1.16859,-0.0703356
459,38.68,1.16849,-0.0724405
459.5,38.7294,1.16717,-0.0743613
460,38.7791,1.16728,-0.0772537
460.5,38.8277,1.15896,-0.079815
461,38.8769,1.16543,-0.0814177
461.5,38.9274,1.14679,-0.0818163
462,38.9747,1.15349,-0.0850353
462.5,39.0261,1.15149,-0.0884934
463,39.0749,1.15421,-0.0905594
463.5,39.1237,1.15402,-0.0929589
464,39.174,1.1593,-0.0930025
464.5,39.2238,1.16102,-0.0975923
465,39.2728,1.17049,-0.0991423
465.5,39.3221,1.15944,-0.102488
466,39.3723,1.16257,-0.105327
466.5,39.4207,1.15296,-0.10712
467,39.4702,1.15042,-0.109203
467.5,39.5203,1.1504,-0.112048
468,39.5693,1.15457,-0.113906
468.5,39.6187,1.14847,-0.116784
469,39.6682,1.15339,-0.120519
469.5,39.7162,1.16123,-0.123896
470,39.7676,1.15322,-0.130893
470.5,39.8171,1.16006,-0.137157
471,39.866,1.1581,-0.133105
471.5,39.9151,1.16653,-0.13614
472,39.9637,1.16467,-0.139926
472.5,40.0135,1.17216,-0.145452
473,40.0633,1.16732,-0.149496
473.5,40.1121,1.17493,-0.153611
474,40.1624,1.17855,-0.15705
474.5,40.2109,1.17636,-0.160479
475,40.2603,1.18132,-0.165043
475.5,40.3093,1.19015,-0.169837
476,40.3589,1.18443,-0.175098
476.5,40.4079,1.18453,-0.178894
477,40.4558,1.18274,-0.182534
477.5,40.5064,1.18168,-0.187109
478,40.5563,1.18032,-0.190992
478.5,40.6057,1.18262,-0.196356
479,40.6546,1.18105,-0.202057
479.5,40.7043,1.18628,-0.207506
480,40.7537,1.18888,-0.212862
480.5,40.8033,1.18955,-0.220499
481,40.8519,1.18755,-0.226433
481.5,40.902,1.18884,-0.230355
482,40.9514,1.19176,-0.236864
482.5,40.9999,1.19563,-0.244677
483,41.0496,1.19005,-0.250514
483.5,41.0991,1.1912,-0.256836
484,41.1483,1.19706,-0.262925
484.5,41.1955,1.20225,-0.270047
485,41.2477,1.2086,-0.275812
485.5,41.2977,1.20321,-0.282151
486,41.3462,1.20315,-0.289567
486.5,41.3958,1.20487,-0.296306
487,41.444,1.20785,-0.305291
487.5,41.4939,1.2111,-0.313656
488,41.5443,1.21046,-0.323613
488.5,41.5934,1.20677,-0.332485
489,41.644,1.21091,-0.342991
489.5,41.6925,1.21809,-0.352361
490,41.742,1.21432,-0.36158
490.5,41.7913,1.21829,-0.370988
491,41.8402,1.22401,-0.37986
491.5,41.8898,1.23438,-0.391045
492,41.9399,1.25026,-0.402567
492.5,41.9894,1.25768,-0.413761
493,42.0383,1.25996,-0.425107
493.5,42.0886,1.2637,-0.436516
494,42.1379,1.2605,-0.446565
494.5,42.1867,1.26384,-0.458858
495,42.2367,1.26904,-0.473195
495.5,42.2858,1.27217,-0.485783
496,42.3335,1.27461,-0.498135
496.5,42.3847,1.28315,-0.513343
497,42.4343,1.28799,-0.527373
497.5,42.4831,1.2918,-0.541923
498,42.5332,1.29298,-0.558098
498.5,42.5826,1.29225,-0.574177
499,42.6321,1.29676,-0.590512
499.5,42.6802,1.29841,-0.606732
500,42.7314,1.30455,-0.623648
500.5,42.7805,1.3008,-0.640828
501,42.8304,1.31005,-0.659415
501.5,42.8785,1.31351,-0.677156
502,42.9277,1.31764,-0.696283
502.5,42.9791,1.32325,-0.7165
503,43.0287,1.323,-0.73587
503.5,43.0774,1.32632,-0.755495
504,43.1279,1.32941,-0.775607
504.5,43.1774,1.33352,-0.796486
505,43.227,1.34505,-0.817269
505.5,43.2768,1.33801,-0.840429
506,43.3264,1.34216,-0.865349
506.5,43.3758,1.34739,-0.887637
507,43.4256,1.34508,-0.910526
507.5,43.4757,1.35515,-0.933145
508,43.5259,1.3588,-0.955372
508.5,43.574,1.36668,-0.980162
509,43.6249,1.36499,-1.00486
509.5,43.6738,1.37246,-1.03003
510,43.724,1.37887,-1.05696
510.5,43.7749,1.37497,-1.08216
511,43.8228,1.38339,-1.10695
511.5,43.8739,1.39804,-1.13805
512,43.9228,1.41165,-1.15806
512.5,43.9725,1.41491,-1.18462
513,44.0223,1.42463,-1.21054
513.5,44.0722,1.42948,-1.23689
514,44.1224,1.4293,-1.26421
514.5,44.1719,1.43387,-1.28881
515,44.2221,1.4379,-1.31407
515.5,44.2708,1.43261,-1.33879
516,44.3195,1.4232,-1.36336
516.5,44.3689,1.4069,-1.3878
517,44.4191,1.38004,-1.41226
517.5,44.4671,1.34769,-1.43438
518,44.5173,1.30283,-1.45826
518.5,44.5662,1.26324,-1.48147
519,44.6147,1.21721,-1.50301
519.5,44.664,1.16066,-1.52484
520,44.7139,1.08978,-1.54716
520.5,44.7617,1.04055,-1.56714
521,44.8108,0.978975,-1.58754
521.5,44.8603,0.914457,-1.60867
522,44.9094,0.85554,-1.62877
522.5,44.9577,0.794176,-1.6489
523,45.0062,0.732101,-1.66943
523.5,45.0551,0.666277,-1.6872
524,45.1043,0.613052,-1.70434
524.5,45.1535,0.558902,-1.72106
525,45.202,0.500274,-1.73882
525.5,45.2511,0.446,-1.76036
526,45.3001,0.398138,-1.76976
526.5,45.3498,0.358471,-1.78322
527,45.3986,0.30661,-1.79724
527.5,45.4486,0.269096,-1.81216
528,45.4971,0.214698,-1.83137
528.5,45.5456,0.177654,-1.84122
529,45.5956,0.156402,-1.85205
529.5,45.6435,0.122577,-1.86326
530,45.6923,0.0880346,-1.87426
530.5,45.7434,0.0661144,-1.88564
531,45.7925,0.0387084,-1.89576
531.5,45.8419,0.0155682,-1.90639
532,45.8912,-0.00253788,-1.91696
532.5,45.9407,-0.0128347,-1.92683
533,45.9893,-0.0299775,-1.93493
533.5,46.0393,-0.0460966,-1.94476
534,46.0885,-0.0492915,-1.95424
534.5,46.1383,-0.0693483,-1.96237
535,46.1874,-0.0621368,-1.96773
535.5,46.2376,-0.0677134,-1.97498
536,46.287,-0.0737591,-1.98241
536.5,46.3367,-0.0815723,-1.98759
537,46.3857,-0.0814418,-1.99553
537.5,46.4363,-0.0847384,-2.00204
538,46.484,-0.0816618,-2.00675
538.5,46.5351,-0.0854324,-2.01255
539,46.5849,-0.0826035,-2.01879
539.5,46.6352,-0.0854083,-2.02398
540,46.6853,-0.0748521,-2.0297
540.5,46.7347,-0.0740494,-2.03436
541,46.785,-0.0701784,-2.04042
541.5,46.8353,-0.0592019,-2.04371
542,46.8838,-0.0546139,-2.04679
542.5,46.9354,-0.0518732,-2.05232
543,46.9829,-0.0498687,-2.05674
543.5,47.034,-0.0481472,-2.06014
544,47.0842,-0.0480589,-2.06312
544.5,47.1348,-0.0392234,-2.0673
545,47.1841,-0.0329479,-2.07117
545.5,47.2343,-0.0253449,-2.0757
546,47.2837,-0.0248316,-2.07914
546.5,47.3338,-0.00890901,-2.08189
547,47.3855,-0.0116544,-2.08504
547.5,47.4349,-0.00896819,-2.08839
548,47.4841,-0.0137655,-2.09379
548.5,47.5345,-0.00375407,-2.09708
549,47.5844,0.00737188,-2.09966
549.5,47.6344,0.00259841,-2.10197
550,47.6852,0.00613308,-2.10466
550.5,47.7336,0.0155852,-2.10776
551,47.7839,0.0192816,-2.11152
551.5,47.8346,0.0249516,-2.11335
552,47.8837,0.0255911,-2.11475
552.5,47.9332,0.0311953,-2.1179
553,47.9839,0.0321957,-2.12428
553.5,48.0341,0.030281,-2.12967
554,48.0832,0.0241499,-2.13136
554.5,48.1333,0.0294881,-2.13422
555,48.1837,0.0300889,-2.13562
555.5,48.2339,0.0343925,-2.13693
556,48.2832,0.0422767,-2.13562
556.5,48.332,0.0474269,-2.13686
557,48.3831,0.0501177,-2.138
557.5,48.4325,0.0510777,-2.14388
558,48.4825,0.0493936,-2.14974
558.5,48.532,0.0565517,-2.1528
559,48.5824,0.047846,-2.15476
559.5,48.6304,0.0559217,-2.15711
560,48.6822,0.0598039,-2.16174
560.5,48.7318,0.062649,-2.16588
561,48.7823,0.0631578,-2.16964
561.5,48.8317,0.0630344,-2.17074
562,48.8815,0.0651718,-2.17105
562.5,48.9292,0.0725616,-2.17243
563,48.9806,0.0712073,-2.17412
563.5,49.0309,0.0688756,-2.17654
564,49.0811,0.0756619,-2.17655
564.5,49.1318,0.0780715,-2.17795
565,49.1807,0.0853754,-2.17953
565.5,49.2312,0.080781,-2.18271
566,49.2809,0.0849304,-2.18451
566.5,49.3302,0.087019,-2.18593
567,49.3811,0.0905904,-2.18867
567.5,49.4316,0.0886795,-2.19017
568,49.4808,0.0915437,-2.19203
568.5,49.5311,0.0973099,-2.19436
569,49.5808,0.0963965,-2.1958
569.5,49.6312,0.100895,-2.19827
570,49.6805,0.100142,-2.19873
570.5,49.7311,0.109931,-2.20064
571,49.7808,0.10588,-2.20216
571.5,49.8313,0.116317,-2.20525
572,49.8813,0.113463,-2.20679
572.5,49.932,0.116892,-2.20857
573,49.9824,0.122064,-2.21127
573.5,50.0329,0.119931,-2.21525
574,50.0816,0.129184,-2.21922
574.5,50.1326,0.119959,-2.22008
575,50.1825,0.116104,-2.22134
575.5,50.2323,0.126312,-2.22411
576,50.2824,0.133861,-2.22836
576.5,50.3323,0.13263,-2.23057
577,50.3831,0.128782,-2.23302
577.5,50.4326,0.13145,-2.23528
578,50.4829,0.12685,-2.23824
578.5,50.533,0.144751,-2.23909
579,50.5822,0.139609,-2.24013
579.5,50.6338,0.149279,-2.24176
580,50.6825,0.145384,-2.24198
580.5,50.7339,0.148484,-2.24489
581,50.7829,0.152234,-2.24488
581.5,50.8331,0.158616,-2.24582
582,50.8839,0.154913,-2.24918
582.5,50.9305,0.16287,-2.25062
583,50.9834,0.158175,-2.25234
583.5,51.0338,0.158681,-2.25376
584,51.0838,0.162097,-2.25739
584.5,51.1342,0.170976,-2.26133
585,51.1843,0.16291,-2.26284
585.5,51.2355,0.170413,-2.26542
586,51.2846,0.170038,-2.26621
586.5,51.3355,0.182494,-2.26844
587,51.3852,0.180608,-2.26977
587.5,51.4348,0.179444,-2.27131
588,51.4848,0.176071,-2.27438
588.5,51.536,0.183446,-2.27633
589,51.5858,0.186996,-2.2784
589.5,51.6365,0.186998,-2.27899
590,51.6864,0.18759,-2.28173
590.5,51.737,0.196129,-2.28355
591,51.7873,0.198557,-2.28573
591.5,51.8377,0.200233,-2.28581
592,51.8878,0.203412,-2.28767
592.5,51.9376,0.203764,-2.28986
593,51.988,0.198611,-2.29178
593.5,52.0381,0.209115,-2.29498
594,52.0878,0.203669,-2.29762
594.5,52.1386,0.211593,-2.29939
595,52.1888,0.212635,-2.30046
595.5,52.2386,0.219014,-2.30246
596,52.2881,0.202624,-2.30239
596.5,52.339,0.216838,-2.30472
597,52.3889,0.231319,-2.30703
597.5,52.4376,0.234311,-2.30904
598,52.489,0.238023,-2.31144
598.5,52.5399,0.240854,-2.3128
599,52.5897,0.24462,-2.31466
599.5,52.6393,0.253806,-2.31678
600,52.6908,0.252914,-2.31831
600.5,52.7402,0.251844,-2.32036
601,52.7904,0.268778,-2.32342
601.5,52.84,0.264156,-2.32457
602,52.8899,0.266824,-2.32528
602.5,52.941,0.270335,-2.3275
603,52.9908,0.275002,-2.32935
603.5,53.0406,0.271434,-2.3306
604,53.0913,0.279378,-2.33197
604.5,53.1404,0.289606,-2.33256
605,53.1903,0.282482,-2.33504
605.5,53.2406,0.286874,-2.33654
606,53.2908,0.279547,-2.33804
606.5,53.3407,0.282712,-2.34063
607,53.3907,0.291764,-2.34314
607.5,53.4415,0.29085,-2.3464
608,53.4911,0.295108,-2.34764
608.5,53.5427,0.294612,-2.34891
609,53.5924,0.305671,-2.34904
609.5,53.6424,0.312931,-2.34928
610,53.6928,0.302986,-2.35218
610.5,53.7407,0.312242,-2.35407
611,53.7939,0.312818,-2.35757
611.5,53.8431,0.318898,-2.35897
612,53.8933,0.322177,-2.36115
612.5,53.9437,0.323952,-2.36286
613,53.995,0.329379,-2.36341
613.5,54.045,0.333261,-2.36505
614,54.095,0.335269,-2.36604
614.5,54.1452,0.332858,-2.36903
615,54.1948,0.338981,-2.37063
615.5,54.2453,0.352867,-2.37188
616,54.2956,0.351493,-2.373
616.5,54.3455,0.35738,-2.37519
617,54.3958,0.353219,-2.37595
617.5,54.4463,0.355453,-2.37781
618,54.4963,0.340716,-2.38036
618.5,54.5472,0.366933,-2.38172
619,54.5963,0.379641,-2.38328
619.5,54.6465,0.379367,-2.38429
620,54.6967,0.380808,-2.38563
620.5,54.7471,0.394358,-2.38698
621,54.7969,0.393053,-2.38859
621.5,54.8469,0.400485,-2.38992
622,54.897,0.401253,-2.39189
622.5,54.9467,0.403183,-2.39319
623,54.9984,0.413281,-2.3945
623.5,55.0483,0.417707,-2.3951
624,55.0979,0.414631,-2.39644
624.5,55.1483,0.419908,-2.39802
625,55.1984,0.424039,-2.3993
625.5,55.2467,0.432049,-2.40193
626,55.2979,0.432225,-2.40277
626.5,55.3491,0.441399,-2.40326
627,55.399,0.43742,-2.40372
627.5,55.4495,0.441749,-2.40581
628,55.4993,0.446416,-2.40698
628.5,55.5492,0.458531,-2.40745
629,55.6001,0.453528,-2.40883
629.5,55.6501,0.462586,-2.41293
630,55.7002,0.469988,-2.41329
630.5,55.7502,0.468573,-2.41435
631,55.8009,0.472949,-2.41706
631.5,55.85,0.473279,-2.41958
632,55.9006,0.485994,-2.421
632.5,55.9518,0.483672,-2.41995
633,56.0021,0.492788,-2.41993
633.5,56.051,0.495525,-2.41996
634,56.1023,0.500885,-2.41906
634.5,56.1536,0.497754,-2.42049
635,56.2036,0.502511,-2.42129
635.5,56.2544,0.497741,-2.42398
636,56.3045,0.505275,-2.42654
636.5,56.3549,0.508574,-2.42891
637,56.4043,0.511184,-2.43044
637.5,56.4555,0.515061,-2.43061
638,56.5062,0.514956,-2.43337
638.5,56.5569,0.52227,-2.43394
639,56.6076,0.521489,-2.43498
639.5,56.6576,0.522801,-2.43543
640,56.708,0.527667,-2.43316
640.5,56.7581,0.527132,-2.43311
641,56.8088,0.534738,-2.43463
641.5,56.8591,0.542552,-2.43596
642,56.9098,0.541357,-2.43714
642.5,56.9594,0.544,-2.43942
643,57.0099,0.54318,-2.43982
643.5,57.0594,0.551988,-2.43983
644,57.1103,0.548195,-2.44235
644.5,57.1603,0.545137,-2.4442
645,57.211,0.546783,-2.44519
645.5,57.2608,0.550828,-2.44653
646,57.3119,0.551873,-2.44899
646.5,57.3616,0.558978,-2.45043
647,57.4122,0.560642,-2.45046
647.5,57.4623,0.557315,-2.45179
648,57.5125,0.557205,-2.45291
648.5,57.5626,0.558808,-2.45442
649,57.6118,0.555707,-2.45481
649.5,57.664,0.560451,-2.45574
650,57.7136,0.553336,-2.45574
650.5,57.7647,0.566716,-2.45574
651,57.8144,0.56199,-2.45867
651.5,57.8657,0.557092,-2.45985
652,57.9155,0.557347,-2.4594
652.5,57.9664,0.555455,-2.45937
653,58.0169,0.555429,-2.46068
653.5,58.0661,0.548207,-2.45944
654,58.1164,0.55273,-2.46074
654.5,58.1678,0.556311,-2.46068
655,58.2171,0.549015,-2.46122
655.5,58.2675,0.557285,-2.4621
656,58.3182,0.548344,-2.46343
656.5,58.3683,0.547778,-2.46342
657,58.4186,0.550433,-2.46462
657.5,58.4685,0.548349,-2.4647
658,58.5195,0.548627,-2.46604
658.5,58.5697,0.541857,-2.46475
659,58.6205,0.544637,-2.46601
659.5,58.6704,0.538663,-2.46738
660,58.7207,0.546293,-2.46878
660.5,58.7713,0.53541,-2.47216
661,58.8215,0.537123,-2.47437
661.5,58.872,0.532726,-2.47466
662,58.9213,0.522864,-2.47603
662.5,58.9716,0.525435,-2.47737
663,59.0223,0.518331,-2.47867
663.5,59.0722,0.504798,-2.47868
664,59.1223,0.510474,-2.47868
664.5,59.1734,0.505174,-2.47868
665,59.2229,0.500945,-2.47869
665.5,59.274,0.510191,-2.47868
666,59.3246,0.50049,-2.47962
666.5,59.3745,0.493695,-2.48
667,59.4243,0.492336,-2.48131
667.5,59.4753,0.489633,-2.48
668,59.5261,0.484579,-2.48132
668.5,59.5756,0.476305,-2.48264
669,59.6258,0.474164,-2.48263
669.5,59.6777,0.468997,-2.48141
670,59.7278,0.4722,-2.48242
670.5,59.7779,0.466639,-2.48376
671,59.8287,0.462626,-2.48549
671.5,59.8788,0.461946,-2.48679
672,59.9294,0.45908,-2.48681
672.5,59.9805,0.461297,-2.48681
673,60.0289,0.460436,-2.48538
673.5,60.0811,0.452185,-2.48711
674,60.1315,0.447383,-2.48998
674.5,60.1817,0.444898,-2.48977
675,60.2324,0.448594,-2.49054
675.5,60.2817,0.444084,-2.48986
676,60.3326,0.445812,-2.4899
676.5,60.3833,0.436855,-2.49251
677,60.4334,0.432689,-2.49252
677.5,60.4837,0.429747,-2.49285
678,60.5336,0.429049,-2.49415
678.5,60.5845,0.41644,-2.49414
679,60.6345,0.41111,-2.49548
679.5,60.6836,0.411284,-2.4967
680,60.7356,0.401894,-2.4982
680.5,60.7866,0.400899,-2.49812
681,60.8366,0.385556,-2.49811
681.5,60.8877,0.39136,-2.49811
682,60.9381,0.390465,-2.4981
682.5,60.9887,0.387715,-2.4993
683,61.0384,0.389289,-2.49813
683.5,61.0887,0.375122,-2.50004
684,61.1382,0.368838,-2.50107
684.5,61.1893,0.358193,-2.50119
685,61.2399,0.356701,-2.50061
685.5,61.2901,0.351424,-2.50014
686,61.3408,0.352804,-2.50121
686.5,61.3908,0.351752,-2.50249
687,61.4414,0.347161,-2.50237
687.5,61.4914,0.346471,-2.50251
688,61.5424,0.345538,-2.5037
688.5,61.5916,0.335025,-2.50515
689,61.6427,0.331866,-2.50643
689.5,61.6932,0.331984,-2.50645
690,61.7441,0.331909,-2.50787
690.5,61.7933,0.323883,-2.50647
691,61.8435,0.327104,-2.50777
691.5,61.8949,0.320145,-2.5091
692,61.9442,0.32411,-2.51043
692.5,61.9942,0.311783,-2.51041
693,62.0452,0.308439,-2.51173
693.5,62.0962,0.304527,-2.51305
694,62.1458,0.307738,-2.51436
694.5,62.1961,0.300363,-2.51435
695,62.247,0.306066,-2.51178
695.5,62.2972,0.298673,-2.51174
696,62.3477,0.296551,-2.51305
696.5,62.3976,0.293276,-2.51305
697,62.4479,0.287383,-2.51442
697.5,62.4986,0.276747,-2.51305
698,62.5478,0.274905,-2.51305
698.5,62.5987,0.274214,-2.51446
699,62.6497,0.274914,-2.51436
699.5,62.7011,0.277771,-2.51435
700,62.7499,0.282104,-2.51569
700.5,62.8005,0.280739,-2.51597
701,62.8504,0.266793,-2.517
701.5,62.9011,0.263799,-2.517
702,62.9514,0.257704,-2.517
702.5,63.0016,0.258722,-2.517
703,63.0519,0.257651,-2.51699
703.5,63.1028,0.253296,-2.51833
704,63.1508,0.254282,-2.51832
704.5,63.2033,0.252257,-2.51714
705,63.2542,0.24415,-2.517
705.5,63.3048,0.244184,-2.51736
706,63.355,0.233391,-2.517
706.5,63.4048,0.237129,-2.517
707,63.4556,0.237171,-2.517
707.5,63.5074,0.224797,-2.51841
708,63.5571,0.228075,-2.51971
708.5,63.6078,0.222447,-2.52333
709,63.659,0.227177,-2.52369
709.5,63.7091,0.223647,-2.52369
710,63.7595,0.226126,-2.52345
710.5,63.8102,0.215205,-2.52248
711,63.861,0.21094,-2.52139
711.5,63.9117,0.211686,-2.52276
712,63.9623,0.215564,-2.52403
712.5,64.0133,0.208593,-2.52536
713,64.0637,0.199532,-2.52403
713.5,64.114,0.205955,-2.52403
714,64.1631,0.198343,-2.52502
714.5,64.2148,0.19216,-2.52403
715,64.2666,0.193883,-2.52534
715.5,64.317,0.189204,-2.52663
716,64.3678,0.186844,-2.52866
716.5,64.4184,0.186757,-2.52864
717,64.4697,0.183753,-2.52902
717.5,64.5184,0.175645,-2.53061
718,64.5688,0.174131,-2.53184
718.5,64.6209,0.176899,-2.53193
719,64.6718,0.170779,-2.53193
719.5,64.7204,0.171526,-2.53274
720,64.7726,0.161194,-2.53193
720.5,64.8226,0.152698,-2.53193
721,64.8744,0.1518,-2.53193
721.5,64.9249,0.147182,-2.53193
722,64.975,0.146558,-2.53193
722.5,65.0254,0.14001,-2.53193
723,65.0756,0.145183,-2.53127
723.5,65.1273,0.138623,-2.53186
724,65.1775,0.139988,-2.53442
724.5,65.2283,0.129363,-2.53625
725,65.2788,0.128432,-2.53597
725.5,65.3301,0.129845,-2.5344
726,65.3797,0.139807,-2.5333
726.5,65.4302,0.123941,-2.5347
727,65.4812,0.120559,-2.53599
727.5,65.5322,0.119855,-2.5379
728,65.5833,0.118058,-2.5383
728.5,65.6337,0.114281,-2.53833
729,65.6841,0.11017,-2.53698
729.5,65.7351,0.102267,-2.53961
730,65.7859,0.105284,-2.53988
730.5,65.8355,0.0985883,-2.5406
731,65.8856,0.0914487,-2.5406
731.5,65.937,0.0992809,-2.5406
732,65.9876,0.0958548,-2.54041
732.5,66.0384,0.09184,-2.53927
733,66.0885,0.0831391,-2.53935
733.5,66.1396,0.0836751,-2.53796
734,66.19,0.0712095,-2.53797
734.5,66.2415,0.0785898,-2.53736
735,66.2923,0.0797781,-2.53698
735.5,66.3422,0.0784103,-2.53698
736,66.3927,0.0745563,-2.53717
736.5,66.4437,0.0730231,-2.53965
737,66.4944,0.0672025,-2.53959
737.5,66.5455,0.0637707,-2.54093
738,66.596,0.0618454,-2.54093
738.5,66.6454,0.0577423,-2.54093
739,66.6965,0.0570456,-2.54093
739.5,66.7483,0.0490812,-2.54235
740,66.7986,0.0466819,-2.54223
740.5,66.8492,0.0427799,-2.54357
741,66.9,0.0402744,-2.54356
741.5,66.9507,0.0381099,-2.54356
742,67.0015,0.0336823,-2.54356
742.5,67.0521,0.0292942,-2.5436
743,67.1027,0.0297278,-2.54426
743.5,67.1527,0.0217981,-2.54558
744,67.2039,0.00530498,-2.54549
744.5,67.2534,0.0157352,-2.54653
745,67.3064,0.00968583,-2.54653
745.5,67.3559,0.0149003,-2.54653
746,67.407,0.0060947,-2.54653
746.5,67.457,0.000844968,-2.54653
747,67.508,-0.00118106,-2.54685
747.5,67.5601,-0.00556724,-2.54815
748,67.6103,-0.00567287,-2.54818
748.5,67.6615,-0.00719023,-2.54818
749,67.7121,-0.0157177,-2.54818
749.5,67.7626,-0.0121355,-2.54805
750,67.8136,-0.0193759,-2.54884
750.5,67.8651,-0.0190248,-2.54884
751,67.9152,-0.0218456,-2.54884
751.5,67.9669,-0.022367,-2.5495
752,68.0172,-0.028635,-2.5495
752.5,68.0676,-0.0337901,-2.5495
753,68.118,-0.0336116,-2.54949
753.5,68.1695,-0.0375469,-2.55147
754,68.2196,-0.03883,-2.55097
754.5,68.2697,-0.0367578,-2.55147
755,68.3215,-0.0378255,-2.55147
755.5,68.3724,-0.035457,-2.55157
756,68.4231,-0.0435885,-2.55138
756.5,68.4748,-0.0403518,-2.55279
757,68.525,-0.0503605,-2.55279
757.5,68.5749,-0.0541402,-2.55343
758,68.6256,-0.0519209,-2.55411
758.5,68.6772,-0.0547054,-2.55344
759,68.727,-0.0609843,-2.55279
759.5,68.7788,-0.0565605,-2.55278
760,68.8295,-0.0541096,-2.55517
760.5,68.8813,-0.0576068,-2.55542
761,68.932,-0.0609545,-2.55681
761.5,68.9816,-0.0697314,-2.55678
762,69.0306,-0.069129,-2.55542
762.5,69.0835,-0.0741131,-2.55542
763,69.1336,-0.0762214,-2.55411
763.5,69.1851,-0.0687615,-2.5551
764,69.2365,-0.0701804,-2.55543
764.5,69.2859,-0.078071,-2.55543
765,69.3373,-0.0775936,-2.55543
765.5,69.3879,-0.0793226,-2.55543
766,69.439,-0.0773836,-2.55672
766.5,69.4898,-0.0857072,-2.55664
767,69.5413,-0.0830273,-2.55675
767.5,69.5919,-0.0851397,-2.55674
768,69.6427,-0.0814218,-2.55674
768.5,69.6935,-0.0758903,-2.55674
769,69.7439,-0.0770681,-2.55674
769.5,69.7946,-0.0778716,-2.55674
770,69.8456,-0.0769795,-2.55741
770.5,69.8954,-0.0831338,-2.5574
771,69.9481,-0.0823643,-2.55804
771.5,69.999,-0.080303,-2.55843
772,70.0493,-0.0865696,-2.55804
772.5,70.1009,-0.0832181,-2.55815
773,70.1515,-0.0843046,-2.55806
773.5,70.2031,-0.0913656,-2.55806
774,70.2539,-0.0894507,-2.558
774.5,70.3049,-0.0976605,-2.55938
775,70.3548,-0.103507,-2.56004
775.5,70.406,-0.103238,-2.56008
776,70.4571,-0.104991,-2.56068
776.5,70.5081,-0.105795,-2.56201
777,70.5582,-0.0988655,-2.56201
777.5,70.6099,-0.108915,-2.56077
778,70.6608,-0.108254,-2.55927
778.5,70.7122,-0.11025,-2.55795
779,70.7618,-0.111128,-2.55795
779.5,70.8118,-0.106948,-2.55931
780,70.8642,-0.115313,-2.55926
780.5,70.9147,-0.11768,-2.55926
781,70.9657,-0.122953,-2.56058
781.5,71.0166,-0.111415,-2.56058
782,71.0674,-0.115057,-2.56195
782.5,71.1176,-0.119278,-2.56304
783,71.1689,-0.116165,-2.56356
783.5,71.2194,-0.12086,-2.56386
784,71.2709,-0.118257,-2.56388
784.5,71.3212,-0.119403,-2.56388
785,71.372,-0.123138,-2.56388
785.5,71.4234,-0.123335,-2.56382
786,71.4736,-0.121277,-2.56454
786.5,71.5239,-0.126214,-2.56452
787,71.5748,-0.125904,-2.56322
787.5,71.6262,-0.128027,-2.5619
788,71.6763,-0.117789,-2.56356
788.5,71.7279,-0.131004,-2.56453
789,71.7778,-0.122539,-2.56424
789.5,71.8287,-0.121361,-2.56321
790,71.8792,-0.119243,-2.56321