File: 01_Data/Neoprene_SCBA_Face_Seal/STA/N2/30K_min/Neoprene_SCBA_Face_Seal_STA_N2_30KData_250912_R2.csv
Temp./C,Time/min,DSC/(mW/mg),Mass loss/mg
40.0,0.0,1.4941,0.00226027
40.6,0.0388762,1.5665,0.00275336
41.2,0.0745608,1.63471,0.00187202
41.8,0.113777,1.69647,0.00295636
42.4,0.149109,1.76234,0.00248352
43,0.183885,1.81978,0.00192061
43.6,0.218058,1.8862,0.00331784
44.2,0.2514,1.94153,0.00328865
44.8,0.283962,1.99601,0.00261312
45.4,0.316683,2.04669,0.00279638
46,0.348237,2.10645,0.0016276
46.6,0.379335,2.14431,0.000652079
47.2,0.410512,2.19776,0.000757142
47.8,0.440195,2.24266,0.000460056
48.4,0.470282,2.28587,0.000292415
49,0.500125,2.33137,0.000918867
49.6,0.529052,2.37878,0.000915666
50.2,0.558269,2.41514,0.00112706
50.8,0.586608,2.45534,0.000773977
51.4,0.615249,2.48725,0.00122926
52,0.642803,2.52419,0.00148152
52.6,0.670782,2.56841,0.00145359
53.2,0.698395,2.60717,0.00190964
53.8,0.72555,2.6455,0.000867736
54.4,0.752489,2.68616,0.000582016
55,0.780119,2.71596,0.00147814
55.6,0.80672,2.76107,0.000988447
56.2,0.833022,2.80928,0.00164743
56.8,0.859532,2.85206,0.00143282
57.4,0.885742,2.89488,0.000843505
58,0.911401,2.94951,0.000293975
58.6,0.938004,3.00424,0.000332971
59.2,0.963718,3.05643,-0.000711613
59.8,0.989307,3.1046,-0.000989569
60.4,1.01445,3.13505,-0.00117279
61,1.04001,3.16933,-0.000504686
61.6,1.06543,3.18806,-0.00020991
62.2,1.08984,3.19703,-0.000176094
62.8,1.11453,3.21367,9.46897e-05
63.4,1.13899,3.22468,0.000603048
64,1.16303,3.22215,-5.88366e-06
64.6,1.18774,3.23818,-0.000650495
65.2,1.21214,3.25343,-0.000527453
65.8,1.23643,3.26396,-0.000429066
66.4,1.2605,3.27775,-0.000828056
67,1.2849,3.29363,-0.00117898
67.6,1.30845,3.31545,-0.000453172
68.2,1.33279,3.32751,-0.000567155
68.8,1.35605,3.34299,-0.000723639
69.4,1.38028,3.35373,-0.000354367
70,1.40391,3.36965,-0.000454054
70.6,1.42805,3.38951,-0.000551063
71.2,1.45115,3.41515,-0.000591189
71.8,1.47458,3.43504,-0.00115661
72.4,1.49751,3.45307,-0.00115703
73,1.52183,3.46757,-0.00047667
73.6,1.54447,3.49807,-0.00116212
74.2,1.5679,3.51408,-0.0022037
74.8,1.59144,3.53452,-0.00240935
75.4,1.6144,3.55534,-0.00246514
76,1.63745,3.5784,-0.00228155
76.6,1.66101,3.59826,-0.00240817
77.2,1.68353,3.61544,-0.00239885
77.8,1.70662,3.63211,-0.00216185
78.4,1.72965,3.65918,-0.00223903
79,1.75211,3.67195,-0.00245605
79.6,1.77497,3.69973,-0.00248435
80.2,1.79809,3.71455,-0.00311273
80.8,1.82039,3.7387,-0.00269573
81.4,1.84275,3.75685,-0.00339057
82,1.86463,3.77166,-0.00266735
82.6,1.88724,3.78692,-0.0041685
83.2,1.90967,3.7957,-0.00297281
83.8,1.93279,3.81719,-0.00416936
84.4,1.95478,3.83823,-0.00417024
85,1.97664,3.86126,-0.00287078
85.6,1.99901,3.85991,-0.00421549
86.2,2.02121,3.88168,-0.00366274
86.8,2.0437,3.89698,-0.00511418
87.4,2.06543,3.90963,-0.00555038
88,2.08724,3.91769,-0.00604064
88.6,2.10892,3.93459,-0.00592521
89.2,2.13078,3.95311,-0.00559478
89.8,2.15225,3.97047,-0.00458872
90.4,2.17426,3.99027,-0.00579618
91,2.19578,4.00369,-0.00467372
91.6,2.21741,4.01389,-0.00596935
92.2,2.23898,4.03698,-0.00607857
92.8,2.26037,4.04758,-0.00494777
93.4,2.28204,4.05502,-0.00475772
94,2.30343,4.07379,-0.00578534
94.6,2.32497,4.08654,-0.00467477
95.2,2.34569,4.1012,-0.0059171
95.8,2.3673,4.11733,-0.00585457
96.4,2.38781,4.13385,-0.00479093
97,2.40971,4.14343,-0.00610961
97.6,2.43047,4.15769,-0.00621057
98.2,2.45187,4.16592,-0.00630858
98.8,2.47288,4.17975,-0.00604861
99.4,2.49369,4.19319,-0.00602478
100,2.51475,4.20132,-0.00505143
100.6,2.53563,4.20572,-0.00567838
101.2,2.55664,4.21105,-0.00604219
101.8,2.57681,4.20935,-0.00705059
102.4,2.5978,4.2232,-0.00640178
103,2.61954,4.22865,-0.00669491
103.6,2.63984,4.22439,-0.00772032
104.2,2.66018,4.2341,-0.00765049
104.8,2.68129,4.23451,-0.00619877
105.4,2.7023,4.24331,-0.0072104
106,2.72286,4.24701,-0.00639684
106.6,2.74383,4.24089,-0.00625486
107.2,2.76415,4.24178,-0.00625011
107.8,2.78452,4.25067,-0.00624733
108.4,2.80527,4.25911,-0.00687588
109,2.82592,4.24899,-0.00753945
109.6,2.84601,4.26386,-0.00752479
110.2,2.86687,4.26636,-0.00621582
110.8,2.88753,4.26171,-0.00625689
111.4,2.90765,4.26377,-0.00627214
112,2.92868,4.27987,-0.00660687
112.6,2.94864,4.28522,-0.00762694
113.2,2.96917,4.28576,-0.00680705
113.8,2.98979,4.29644,-0.00672651
114.4,3.00992,4.30109,-0.00759849
115,3.03003,4.31067,-0.00758118
115.6,3.05055,4.30535,-0.00757909
116.2,3.07066,4.3139,-0.0075655
116.8,3.09124,4.31725,-0.00721292
117.4,3.11138,4.33145,-0.00623483
118,3.13186,4.33715,-0.00719959
118.6,3.15189,4.34674,-0.00757033
119.2,3.17194,4.35005,-0.00756999
119.8,3.1923,4.34878,-0.00757015
120.4,3.21222,4.36738,-0.00757181
121,3.23201,4.36297,-0.00894247
121.6,3.25207,4.37214,-0.00889083
122.2,3.2726,4.37528,-0.00886787
122.8,3.29245,4.39389,-0.0081308
123.4,3.3125,4.39505,-0.00795867
124,3.33242,4.40761,-0.00888256
124.6,3.35186,4.41428,-0.00888943
125.2,3.3722,4.41277,-0.00888814
125.8,3.39204,4.42868,-0.00886578
126.4,3.41229,4.4412,-0.00816192
127,3.43161,4.44594,-0.00757653
127.6,3.4515,4.45414,-0.00757975
128.2,3.47146,4.45548,-0.0075798
128.8,3.49116,4.45944,-0.00758552
129.4,3.51104,4.47021,-0.00850332
130,3.53093,4.4814,-0.00890008
130.6,3.54972,4.48504,-0.00804919
131.2,3.56992,4.49956,-0.00760647
131.8,3.58938,4.50244,-0.00758352
132.4,3.60885,4.50444,-0.00760322
133,3.62854,4.51801,-0.00827335
133.6,3.64841,4.52073,-0.00889546
134.2,3.66748,4.5305,-0.00889038
134.8,3.68693,4.53087,-0.00889003
135.4,3.70668,4.54986,-0.00889
136,3.72619,4.55641,-0.00889
136.6,3.74526,4.56346,-0.00889
137.2,3.76479,4.56946,-0.00888999
137.8,3.78407,4.58064,-0.00888986
138.4,3.80342,4.58359,-0.00888774
139,3.82246,4.59532,-0.00885234
139.6,3.84208,4.595,-0.00886431
140.2,3.86094,4.60918,-0.00889252
140.8,3.88055,4.61489,-0.00889053
141.4,3.89967,4.62412,-0.00889006
142,3.91872,4.62584,-0.00888995
142.6,3.93784,4.63887,-0.00888943
143.2,3.95725,4.64866,-0.00888267
143.8,3.97629,4.66205,-0.00883638
144.4,3.99517,4.65665,-0.00757028
145,4.01435,4.67158,-0.00758109
145.6,4.03346,4.68363,-0.00758025
146.2,4.0517,4.69386,-0.00758004
146.8,4.07063,4.69987,-0.00758
147.4,4.0904,4.7112,-0.00758
148,4.10972,4.71499,-0.00758
148.6,4.12852,4.71866,-0.00758
149.2,4.14762,4.73969,-0.00758
149.8,4.16617,4.74028,-0.00758001
150.4,4.18569,4.75961,-0.0075801
151,4.20441,4.76745,-0.00757946
151.6,4.22308,4.7682,-0.00755429
152.2,4.24204,4.77311,-0.00791768
152.8,4.26103,4.78866,-0.00790145
153.4,4.27966,4.78891,-0.00789517
154,4.29868,4.79717,-0.00778125
154.6,4.31786,4.80128,-0.00898414
155.2,4.33648,4.80849,-0.00889811
155.8,4.35529,4.81828,-0.0088905
156.4,4.37391,4.82541,-0.00889004
157,4.39265,4.83781,-0.00889
157.6,4.41152,4.84613,-0.00889
158.2,4.43022,4.85234,-0.00889
158.8,4.44906,4.85229,-0.00888999
159.4,4.46767,4.8605,-0.00888993
160,4.48622,4.8644,-0.00888948
160.6,4.5054,4.87871,-0.00888755
161.2,4.52397,4.88724,-0.00893119
161.8,4.54276,4.8889,-0.00759378
162.4,4.56144,4.89127,-0.00758126
163,4.58001,4.90372,-0.00758013
163.6,4.59829,4.89833,-0.00758007
164.2,4.6177,4.90962,-0.00758062
164.8,4.63605,4.91302,-0.00758343
165.4,4.65454,4.92365,-0.00757095
166,4.67331,4.93544,-0.00883765
166.6,4.69213,4.93605,-0.00888267
167.2,4.71065,4.9412,-0.00888926
167.8,4.72911,4.94944,-0.00888998
168.4,4.74795,4.95192,-0.00889071
169,4.76676,4.95768,-0.00889861
169.6,4.78519,4.96688,-0.00898382
170.2,4.80346,4.96643,-0.00921442
170.8,4.822,4.97421,-0.00921996
171.4,4.84012,4.98844,-0.00922005
172,4.85865,4.99448,-0.00922001
172.6,4.87701,5.00128,-0.00922
173.2,4.89651,5.004,-0.00922
173.8,4.91482,5.01276,-0.00922
174.4,4.93313,5.01868,-0.00922
175,4.95163,5.01996,-0.00922
175.6,4.96985,5.02915,-0.00922
176.2,4.98854,5.04017,-0.00922
176.8,5.00701,5.04755,-0.00922
177.4,5.0258,5.05175,-0.00922001
178,5.04379,5.04719,-0.00921985
178.6,5.06236,5.05378,-0.00921651
179.2,5.0804,5.05932,-0.00916348
179.8,5.09911,5.06243,-0.0102222
180.4,5.11741,5.06385,-0.010527
181,5.13577,5.07327,-0.0105395
181.6,5.15392,5.0776,-0.01054
182.2,5.17235,5.07821,-0.01054
182.8,5.19098,5.0888,-0.01054
183.4,5.20945,5.08988,-0.0105402
184,5.22749,5.09867,-0.0105434
184.6,5.24569,5.10349,-0.010571
185.2,5.26376,5.11034,-0.00976489
185.8,5.28225,5.11515,-0.00921748
186.4,5.30053,5.12111,-0.0092184
187,5.31878,5.12276,-0.0092198
187.6,5.33705,5.12471,-0.00921997
188.2,5.35495,5.14341,-0.00922006
188.8,5.3734,5.13549,-0.00922185
189.4,5.39169,5.14541,-0.00935295
190,5.40953,5.1568,-0.0105438
190.6,5.42817,5.15919,-0.0118176
191.2,5.44591,5.16894,-0.011859
191.8,5.46433,5.17634,-0.0118619
192.4,5.48221,5.17515,-0.0118593
193,5.50054,5.18281,-0.0110823
193.6,5.51874,5.20267,-0.011269
194.2,5.53658,5.20618,-0.0118424
194.8,5.55503,5.19612,-0.0118661
195.4,5.57334,5.20551,-0.0118765
196,5.59097,5.21741,-0.0134717
196.6,5.60928,5.2271,-0.0145343
197.2,5.62727,5.23314,-0.0144926
197.8,5.64528,5.2391,-0.01449
198.4,5.6636,5.24422,-0.01449
199,5.68146,5.2435,-0.01449
199.6,5.69984,5.25333,-0.0144899
200.2,5.71751,5.27051,-0.0144888
200.8,5.73542,5.27558,-0.0144795
201.4,5.75367,5.28029,-0.0144436
202,5.77159,5.29308,-0.0138115
202.6,5.78969,5.29355,-0.0138173
203.2,5.80794,5.30291,-0.0136737
203.8,5.82597,5.31606,-0.0135358
204.4,5.844,5.32118,-0.0144211
205,5.86192,5.3226,-0.0144773
205.6,5.87993,5.32849,-0.0144886
206.2,5.89776,5.3423,-0.0144877
206.8,5.91626,5.35661,-0.0144765
207.4,5.93375,5.35253,-0.0150606
208,5.95184,5.3631,-0.0158415
208.6,5.9699,5.36254,-0.0158145
209.2,5.98765,5.36934,-0.0158183
209.8,6.00576,5.37615,-0.015845
210.4,6.02374,5.38084,-0.0170924
211,6.04222,5.39464,-0.017123
211.6,6.05969,5.39709,-0.0171257
212.2,6.0778,5.39691,-0.0170987
212.8,6.09543,5.40472,-0.0178298
213.4,6.11345,5.41246,-0.0184536
214,6.13168,5.41624,-0.0184423
214.6,6.14954,5.41926,-0.0184403
215.2,6.16726,5.43361,-0.0184401
215.8,6.18538,5.4414,-0.0184402
216.4,6.20356,5.44448,-0.0184359
217,6.22123,5.44874,-0.0183495
217.6,6.23927,5.45272,-0.0196786
218.2,6.25729,5.46214,-0.0197535
218.8,6.27494,5.46671,-0.0200997
219.4,6.29217,5.46667,-0.0211295
220,6.3103,5.48212,-0.0210921
220.6,6.32796,5.49614,-0.0211607
221.2,6.34647,5.49377,-0.0198949
221.8,6.36454,5.50011,-0.0197609
222.4,6.38256,5.50425,-0.0197168
223,6.40028,5.50784,-0.0208459
223.6,6.41821,5.51868,-0.0210649
224.2,6.43598,5.51678,-0.021078
224.8,6.45395,5.51947,-0.0210921
225.4,6.47184,5.52587,-0.0217619
226,6.48939,5.53677,-0.022408
226.6,6.50737,5.53854,-0.0225032
227.2,6.5252,5.54115,-0.0237223
227.8,6.54313,5.54038,-0.0236308
228.4,6.56106,5.55332,-0.0251911
229,6.57876,5.55242,-0.0254305
229.6,6.5966,5.55418,-0.0267276
230.2,6.61378,5.56258,-0.0266368
230.8,6.63257,5.56772,-0.0278956
231.4,6.65016,5.57518,-0.0279748
232,6.66799,5.57728,-0.0279561
232.6,6.68574,5.58024,-0.0287246
233.2,6.7035,5.58633,-0.0293334
233.8,6.72153,5.59302,-0.0297047
234.4,6.73921,5.59334,-0.0307027
235,6.75716,5.59637,-0.0308061
235.6,6.77488,5.58981,-0.0320506
236.2,6.79247,5.59763,-0.0320408
236.8,6.81025,5.60377,-0.0329579
237.4,6.82837,5.60877,-0.033324
238,6.84629,5.61065,-0.0336439
238.6,6.86412,5.61524,-0.0333632
239.2,6.88167,5.61549,-0.0335107
239.8,6.89934,5.62191,-0.0349361
240.4,6.91707,5.63143,-0.0349799
241,6.93503,5.62685,-0.036229
241.6,6.95328,5.62988,-0.0370625
242.2,6.97066,5.63073,-0.0376656
242.8,6.98855,5.64106,-0.0376044
243.4,7.00593,5.65129,-0.0387472
244,7.02397,5.65311,-0.0390464
244.6,7.04192,5.65338,-0.0405853
245.2,7.05978,5.65452,-0.0416953
245.8,7.07735,5.65924,-0.0424394
246.4,7.09512,5.668,-0.043932
247,7.11286,5.6604,-0.0441044
247.6,7.13051,5.66822,-0.0453301
248.2,7.14832,5.67261,-0.0453744
248.8,7.16639,5.67276,-0.0466257
249.4,7.18385,5.67259,-0.0456403
250,7.20163,5.6799,-0.0471936
250.6,7.21957,5.68355,-0.0481779
251.2,7.23747,5.68995,-0.0491115
251.8,7.25474,5.68797,-0.0507837
252.4,7.27248,5.68617,-0.0530547
253,7.29067,5.68747,-0.0545702
253.6,7.30835,5.6934,-0.055025
254.2,7.32613,5.69989,-0.0564614
254.8,7.3437,5.69847,-0.0570781
255.4,7.36147,5.70173,-0.0580147
256,7.37925,5.71225,-0.0594233
256.6,7.39685,5.7156,-0.0601312
257.2,7.41485,5.71391,-0.0603743
257.8,7.43278,5.71389,-0.0618326
258.4,7.45005,5.71929,-0.0631232
259,7.46794,5.71316,-0.0635919
259.6,7.48582,5.71574,-0.0651614
260.2,7.5037,5.72521,-0.0652569
260.8,7.52111,5.72793,-0.0653764
261.4,7.53898,5.72583,-0.0673301
262,7.55651,5.72619,-0.0692773
262.6,7.57415,5.72428,-0.0709536
263.2,7.59215,5.73072,-0.0719994
263.8,7.61008,5.73209,-0.0733154
264.4,7.6274,5.726,-0.0749679
265,7.64532,5.72506,-0.0761063
265.6,7.66316,5.71568,-0.077817
266.2,7.68056,5.72142,-0.0791722
266.8,7.69838,5.72129,-0.0788644
267.4,7.71635,5.72662,-0.0803333
268,7.73388,5.72905,-0.0820565
268.6,7.75199,5.73568,-0.0836189
269.2,7.76919,5.73764,-0.0845014
269.8,7.7875,5.73264,-0.0861966
270.4,7.80488,5.73823,-0.0880455
271,7.82253,5.7383,-0.0899067
271.6,7.8404,5.73749,-0.0914472
272.2,7.85823,5.73304,-0.0921399
272.8,7.87576,5.73125,-0.0937109
273.4,7.89371,5.73055,-0.095298
274,7.91146,5.73571,-0.0967987
274.6,7.92907,5.7361,-0.098657
275.2,7.94693,5.71949,-0.100523
275.8,7.96471,5.72609,-0.101544
276.4,7.98235,5.7249,-0.102881
277,8.00013,5.72591,-0.104586
277.6,8.01795,5.72787,-0.10645
278.2,8.03559,5.72131,-0.108332
278.8,8.0535,5.72468,-0.109324
279.4,8.07118,5.72905,-0.110475
280,8.08877,5.72061,-0.112741
280.6,8.10661,5.72362,-0.114953
281.2,8.12425,5.72248,-0.116869
281.8,8.14256,5.71991,-0.118867
282.4,8.15963,5.72477,-0.121018
283,8.17758,5.72365,-0.123089
283.6,8.19543,5.71991,-0.12502
284.2,8.21324,5.72196,-0.127112
284.8,8.23082,5.72254,-0.129841
285.4,8.24868,5.71936,-0.131853
286,8.26643,5.72437,-0.133606
286.6,8.28407,5.72677,-0.135007
287.2,8.30199,5.72061,-0.137806
287.8,8.31979,5.7197,-0.139937
288.4,8.33753,5.71411,-0.141823
289,8.35531,5.71266,-0.14326
289.6,8.37295,5.70561,-0.145267
290.2,8.3907,5.70267,-0.147278
290.8,8.40829,5.70673,-0.149002
291.4,8.42635,5.69272,-0.150792
292,8.44426,5.68128,-0.152936
292.6,8.46176,5.68203,-0.155093
293.2,8.47977,5.67594,-0.158039
293.8,8.49739,5.67066,-0.16064
294.4,8.51506,5.67065,-0.16289
295,8.53281,5.66984,-0.164627
295.6,8.55075,5.66711,-0.166458
296.2,8.56824,5.6587,-0.168722
296.8,8.58617,5.65758,-0.170979
297.4,8.60409,5.64562,-0.173924
298,8.62138,5.63312,-0.176454
298.6,8.6388,5.63692,-0.178431
299.2,8.65764,5.62088,-0.181232
299.8,8.67512,5.61424,-0.184271
300.4,8.69274,5.60661,-0.185643
301,8.71035,5.6052,-0.187313
301.6,8.72831,5.59164,-0.190555
302.2,8.74618,5.59012,-0.192668
302.8,8.76365,5.58882,-0.194673
303.4,8.78169,5.57658,-0.195967
304,8.79942,5.57032,-0.198531
304.6,8.81715,5.56385,-0.201204
305.2,8.835,5.56205,-0.203875
305.8,8.8528,5.55378,-0.206574
306.4,8.87045,5.54473,-0.209084
307,8.88841,5.54279,-0.211052
307.6,8.90626,5.52746,-0.213037
308.2,8.92391,5.52418,-0.215716
308.8,8.94153,5.51022,-0.218909
309.4,8.9593,5.51687,-0.221481
310,8.97737,5.50544,-0.224808
310.6,8.99488,5.49323,-0.227699
311.2,9.01232,5.47994,-0.229461
311.8,9.03068,5.46736,-0.231867
312.4,9.04834,5.46025,-0.234895
313,9.06574,5.46038,-0.236935
313.6,9.08392,5.45134,-0.238832
314.2,9.10157,5.43154,-0.24137
314.8,9.11899,5.42128,-0.244089
315.4,9.13708,5.41588,-0.24668
316,9.15471,5.40958,-0.248232
316.6,9.17286,5.39943,-0.251277
317.2,9.19057,5.38497,-0.253783
317.8,9.20803,5.37093,-0.255654
318.4,9.22573,5.35221,-0.258088
319,9.24402,5.33771,-0.260838
319.6,9.26183,5.31789,-0.262846
320.2,9.27936,5.30858,-0.265369
320.8,9.29728,5.29051,-0.268026
321.4,9.31482,5.26802,-0.269744
322,9.33289,5.26506,-0.271833
322.6,9.35063,5.24979,-0.27364
323.2,9.36864,5.22369,-0.275575
323.8,9.38655,5.21115,-0.27807
324.4,9.40431,5.19962,-0.280463
325,9.4219,5.18572,-0.282763
325.6,9.43979,5.17375,-0.285177
326.2,9.4574,5.1625,-0.28727
326.8,9.47544,5.142,-0.289777
327.4,9.49327,5.12856,-0.292322
328,9.51089,5.11966,-0.29433
328.6,9.52875,5.1041,-0.297373
329.2,9.54671,5.08959,-0.29909
329.8,9.56435,5.07011,-0.30086
330.4,9.582,5.04814,-0.302947
331,9.59992,5.03968,-0.305007
331.6,9.61801,5.02617,-0.30675
332.2,9.6359,5.00671,-0.308727
332.8,9.65351,4.97746,-0.311205
333.4,9.67129,4.96091,-0.313584
334,9.68924,4.94454,-0.315409
334.6,9.70697,4.9275,-0.317673
335.2,9.72519,4.91401,-0.320514
335.8,9.74289,4.89209,-0.322598
336.4,9.76052,4.87399,-0.325571
337,9.77864,4.86266,-0.327977
337.6,9.79621,4.82903,-0.329583
338.2,9.81405,4.81046,-0.331344
338.8,9.83181,4.78666,-0.333396
339.4,9.85012,4.76019,-0.335698
340,9.86783,4.73077,-0.338732
340.6,9.88554,4.70811,-0.341107
341.2,9.90339,4.68178,-0.343018
341.8,9.92114,4.66092,-0.345232
342.4,9.93926,4.63726,-0.347375
343,9.9573,4.60403,-0.350178
343.6,9.97474,4.57762,-0.352494
344.2,9.99258,4.54563,-0.355013
344.8,10.0107,4.51291,-0.358019
345.4,10.0285,4.47941,-0.360682
346,10.0462,4.44124,-0.363206
346.6,10.0639,4.41643,-0.365148
347.2,10.0819,4.38487,-0.367817
347.8,10.1,4.3505,-0.37022
348.4,10.1179,4.32097,-0.373027
349,10.1357,4.28502,-0.376009
349.6,10.1536,4.24747,-0.379454
350.2,10.1718,4.20953,-0.382932
350.8,10.1894,4.17002,-0.385884
351.4,10.207,4.13247,-0.388781
352,10.2251,4.09813,-0.392317
352.6,10.243,4.05789,-0.394254
353.2,10.2609,4.01522,-0.396786
353.8,10.2789,3.9652,-0.400368
354.4,10.2967,3.93223,-0.403379
355,10.3143,3.89441,-0.406741
355.6,10.3324,3.84663,-0.410857
356.2,10.3502,3.79582,-0.414586
356.8,10.368,3.75177,-0.417947
357.4,10.386,3.69207,-0.421414
358,10.4042,3.65108,-0.425198
358.6,10.4217,3.59426,-0.428725
359.2,10.4395,3.55742,-0.431502
359.8,10.4574,3.49668,-0.435726
360.4,10.4754,3.43957,-0.440831
361,10.4933,3.40077,-0.444145
361.6,10.5113,3.34723,-0.448943
362.2,10.5288,3.29016,-0.45273
362.8,10.5469,3.22849,-0.457753
363.4,10.5644,3.18252,-0.463185
364,10.5827,3.12028,-0.469195
364.6,10.6006,3.06476,-0.474398
365.2,10.6186,3.004,-0.47898
365.8,10.6366,2.94247,-0.485104
366.4,10.6541,2.88753,-0.489946
367,10.6723,2.83004,-0.496548
367.6,10.6899,2.76989,-0.501516
368.2,10.7081,2.70817,-0.507785
368.8,10.7258,2.65147,-0.514081
369.4,10.7439,2.59708,-0.52085
370,10.7618,2.53506,-0.528116
370.6,10.7798,2.48,-0.534753
371.2,10.7977,2.43151,-0.542833
371.8,10.8154,2.37487,-0.548809
372.4,10.8335,2.30909,-0.557498
373,10.8515,2.25744,-0.564714
373.6,10.8692,2.2017,-0.57356
374.2,10.8875,2.14904,-0.581634
374.8,10.905,2.09575,-0.589109
375.4,10.9231,2.07017,-0.598794
376,10.9413,2.00114,-0.60804
376.6,10.9591,1.96035,-0.618606
377.2,10.9772,1.91565,-0.627765
377.8,10.9954,1.87067,-0.639601
378.4,11.0132,1.82851,-0.648439
379,11.031,1.79204,-0.660125
379.6,11.0487,1.75663,-0.669607
380.2,11.0667,1.72109,-0.681075
380.8,11.0852,1.68689,-0.692715
381.4,11.1034,1.66087,-0.704651
382,11.1214,1.62833,-0.717802
382.6,11.1395,1.60818,-0.729863
383.2,11.1579,1.58344,-0.745594
383.8,11.1757,1.58213,-0.75806
384.4,11.1938,1.55563,-0.774498
385,11.2119,1.54988,-0.787389
385.6,11.2301,1.54144,-0.803626
386.2,11.2484,1.53371,-0.817873
386.8,11.2666,1.54103,-0.834065
387.4,11.2847,1.53776,-0.848752
388,11.303,1.54736,-0.864562
388.6,11.3212,1.55635,-0.882044
389.2,11.3396,1.56111,-0.897684
389.8,11.3581,1.58061,-0.917574
390.4,11.3761,1.59975,-0.93324
391,11.3945,1.61428,-0.954461
391.6,11.4128,1.63382,-0.970776
392.2,11.4312,1.65645,-0.991664
392.8,11.4495,1.68576,-1.00927
393.4,11.4676,1.7148,-1.03007
394,11.4862,1.74381,-1.04998
394.6,11.5045,1.77617,-1.06932
395.2,11.5229,1.81238,-1.09088
395.8,11.5414,1.85015,-1.1109
396.4,11.5597,1.88766,-1.13423
397,11.5782,1.93101,-1.15376
397.6,11.5964,1.98244,-1.17794
398.2,11.615,2.019,-1.19714
398.8,11.6333,2.05915,-1.22169
399.4,11.652,2.1021,-1.24139
400,11.6702,2.15142,-1.26383
400.6,11.6888,2.19573,-1.2837
401.2,11.7074,2.23483,-1.307
401.8,11.726,2.29018,-1.32916
402.4,11.7442,2.32444,-1.35119
403,11.7628,2.36717,-1.37441
403.6,11.7813,2.42111,-1.39528
404.2,11.8001,2.45708,-1.41941
404.8,11.8185,2.50068,-1.43738
405.4,11.837,2.536,-1.46057
406,11.8556,2.57564,-1.47858
406.6,11.8741,2.62122,-1.50206
407.2,11.8926,2.6482,-1.52049
407.8,11.9108,2.69327,-1.54301
408.4,11.9295,2.72968,-1.56199
409,11.9478,2.76007,-1.58329
409.6,11.9662,2.788,-1.6031
410.2,11.9847,2.81723,-1.62299
410.8,12.0028,2.84827,-1.64202
411.4,12.0219,2.87962,-1.65989
412,12.0403,2.90307,-1.67961
412.6,12.0588,2.9171,-1.69628
413.2,12.0778,2.93798,-1.71714
413.8,12.0959,2.96584,-1.73287
414.4,12.1146,2.97937,-1.75309
415,12.133,3.00632,-1.76758
415.6,12.1517,3.02494,-1.78562
416.2,12.1702,3.04384,-1.80099
416.8,12.1882,3.05918,-1.81768
417.4,12.2075,3.07339,-1.83244
418,12.2259,3.09081,-1.84712
418.6,12.2442,3.11112,-1.86283
419.2,12.2629,3.11692,-1.87795
419.8,12.2814,3.11629,-1.89245
420.4,12.3002,3.13937,-1.90502
421,12.3184,3.13891,-1.92026
421.6,12.3368,3.14909,-1.93265
422.2,12.3555,3.16163,-1.94858
422.8,12.3741,3.16736,-1.96031
423.4,12.3927,3.1712,-1.97473
424,12.4115,3.17548,-1.98607
424.6,12.4294,3.19112,-1.99924
425.2,12.4482,3.20587,-2.01137
425.8,12.4661,3.20768,-2.02393
426.4,12.4849,3.21236,-2.0366
427,12.5034,3.21882,-2.04852
427.6,12.5219,3.21966,-2.05908
428.2,12.5405,3.22505,-2.06923
428.8,12.5599,3.24062,-2.08154
429.4,12.5784,3.2358,-2.09143
430,12.5969,3.25104,-2.10328
430.6,12.6158,3.266,-2.1131
431.2,12.634,3.26148,-2.12471
431.8,12.6527,3.27948,-2.13353
432.4,12.6715,3.26973,-2.14388
433,12.6899,3.28552,-2.15233
433.6,12.7088,3.29245,-2.16286
434.2,12.7274,3.29603,-2.17243
434.8,12.7459,3.3043,-2.1816
435.4,12.7643,3.31786,-2.19117
436,12.7832,3.32494,-2.20044
436.6,12.8017,3.34393,-2.2104
437.2,12.8204,3.35447,-2.21945
437.8,12.8392,3.35406,-2.22968
438.4,12.8579,3.36321,-2.23837
439,12.8763,3.36926,-2.24849
439.6,12.8953,3.37837,-2.25588
440.2,12.914,3.39279,-2.26499
440.8,12.9324,3.39377,-2.27251
441.4,12.9513,3.41365,-2.28309
442,12.9698,3.42759,-2.29108
442.6,12.9885,3.43729,-2.30035
443.2,13.0074,3.44823,-2.30821
443.8,13.0259,3.45232,-2.31726
444.4,13.0446,3.45506,-2.32623
445,13.0635,3.48023,-2.33429
445.6,13.0822,3.49157,-2.34284
446.2,13.1009,3.50637,-2.35017
446.8,13.1195,3.52252,-2.35944
447.4,13.1386,3.53393,-2.36778
448,13.1569,3.53986,-2.37814
448.6,13.1757,3.55659,-2.38611
449.2,13.1945,3.57021,-2.39598
449.8,13.2133,3.59082,-2.40314
450.4,13.2314,3.59778,-2.41229
451,13.2504,3.61147,-2.42076
451.6,13.2694,3.63273,-2.43079
452.2,13.2879,3.64965,-2.4392
452.8,13.3065,3.65881,-2.44836
453.4,13.3256,3.6713,-2.45726
454,13.3444,3.67971,-2.46595
454.6,13.3633,3.69987,-2.47543
455.2,13.3818,3.71207,-2.48461
455.8,13.4007,3.73766,-2.49488
456.4,13.4196,3.74974,-2.5034
457,13.4382,3.76023,-2.51301
457.6,13.4572,3.77711,-2.52109
458.2,13.4762,3.79532,-2.5317
458.8,13.4946,3.80777,-2.53949
459.4,13.5137,3.81666,-2.55042
460,13.5323,3.84144,-2.55872
460.6,13.5513,3.83858,-2.56897
461.2,13.5698,3.85187,-2.57754
461.8,13.5887,3.8678,-2.58753
462.4,13.6075,3.87848,-2.59547
463,13.6261,3.89014,-2.60413
463.6,13.645,3.90453,-2.61335
464.2,13.6638,3.9183,-2.62286
464.8,13.6827,3.93298,-2.63381
465.4,13.7015,3.93566,-2.64402
466,13.7203,3.94154,-2.65483
466.6,13.7388,3.95235,-2.66316
467.2,13.7578,3.96328,-2.67394
467.8,13.7768,3.97873,-2.6828
468.4,13.7954,3.98696,-2.69418
469,13.8143,3.9951,-2.70311
469.6,13.8331,4.00082,-2.7152
470.2,13.8519,4.00314,-2.72482
470.8,13.8709,4.01733,-2.73655
471.4,13.8899,4.02141,-2.74572
472,13.9084,4.02467,-2.75569
472.6,13.9272,4.02193,-2.76484
473.2,13.9458,4.02371,-2.77484
473.8,13.965,4.02213,-2.78518
474.4,13.9836,4.02326,-2.79515
475,14.0024,4.0237,-2.80619
475.6,14.0213,4.02506,-2.81486
476.2,14.0403,4.01954,-2.82632
476.8,14.059,4.01773,-2.83551
477.4,14.0777,4.00937,-2.84751
478,14.0965,4.00911,-2.85738
478.6,14.1153,4.00128,-2.86909
479.2,14.1344,3.99211,-2.87794
479.8,14.1531,3.98306,-2.8891
480.4,14.1718,3.97239,-2.89816
481,14.1908,3.9635,-2.90974
481.6,14.2094,3.94286,-2.91886
482.2,14.2284,3.92955,-2.92958
482.8,14.2472,3.9143,-2.93921
483.4,14.266,3.89813,-2.94964
484,14.2847,3.88341,-2.95958
484.6,14.3035,3.86657,-2.96894
485.2,14.322,3.84347,-2.97898
485.8,14.3411,3.81113,-2.98846
486.4,14.3598,3.79459,-2.99948
487,14.3787,3.76971,-3.00787
487.6,14.3975,3.73851,-3.01785
488.2,14.416,3.71342,-3.0257
488.8,14.4349,3.68331,-3.0355
489.4,14.4537,3.65329,-3.04332
490,14.4718,3.61953,-3.05286
490.6,14.4908,3.58089,-3.06098
491.2,14.5096,3.54211,-3.07075
491.8,14.5287,3.50227,-3.07897
492.4,14.5476,3.46186,-3.08716
493,14.5655,3.4181,-3.09355
493.6,14.585,3.36612,-3.10123
494.2,14.6037,3.32112,-3.1097
494.8,14.6225,3.27643,-3.11782
495.4,14.6413,3.21402,-3.12566
496,14.6598,3.16193,-3.13152
496.6,14.6785,3.10465,-3.13864
497.2,14.6972,3.04463,-3.14305
497.8,14.7161,2.98845,-3.15006
498.4,14.7347,2.92029,-3.15521
499,14.7533,2.85338,-3.16209
499.6,14.7719,2.79277,-3.16744
500.2,14.791,2.72653,-3.17333
500.8,14.8095,2.66216,-3.17743
501.4,14.828,2.59745,-3.1818
502,14.8468,2.52795,-3.1857
502.6,14.8657,2.47349,-3.19036
503.2,14.8842,2.4129,-3.19298
503.8,14.9032,2.34295,-3.19676
504.4,14.9216,2.28694,-3.20051
505,14.9409,2.23191,-3.20349
505.6,14.9595,2.18275,-3.20598
506.2,14.9781,2.1263,-3.20839
506.8,14.9969,2.06299,-3.21172
507.4,15.0157,2.02078,-3.21427
508,15.0346,1.97853,-3.21628
508.6,15.0534,1.92892,-3.21744
509.2,15.0723,1.88931,-3.21929
509.8,15.0912,1.85601,-3.22101
510.4,15.1094,1.82056,-3.22194
511,15.1283,1.78476,-3.22322
511.6,15.1477,1.76257,-3.22328
512.2,15.1664,1.73937,-3.2244
512.8,15.1855,1.69752,-3.22414
513.4,15.2047,1.67344,-3.22475
514,15.2235,1.65019,-3.22529
514.6,15.2423,1.6345,-3.22636
515.2,15.2614,1.61197,-3.22694
515.8,15.2803,1.59317,-3.22762
516.4,15.2994,1.57938,-3.22842
517,15.3183,1.56033,-3.22887
517.6,15.3373,1.54247,-3.22983
518.2,15.3562,1.54095,-3.23034
518.8,15.3751,1.53549,-3.23052
519.4,15.3942,1.52311,-3.23057
520,15.4133,1.50607,-3.23058
520.6,15.432,1.48305,-3.23058
521.2,15.4515,1.476,-3.23059
521.8,15.4698,1.45874,-3.23085
522.4,15.4889,1.44782,-3.23195
523,15.5087,1.43389,-3.23189
523.6,15.5274,1.44076,-3.23189
524.2,15.5466,1.43759,-3.2319
524.8,15.5658,1.4334,-3.23195
525.4,15.5846,1.42787,-3.23321
526,15.6035,1.42261,-3.23321
526.6,15.6229,1.41944,-3.23321
527.2,15.642,1.41459,-3.23336
527.8,15.6605,1.40586,-3.2346
528.4,15.6798,1.40159,-3.23454
529,15.699,1.39483,-3.23453
529.6,15.7181,1.38913,-3.23453
530.2,15.7371,1.38219,-3.23451
530.8,15.7563,1.3797,-3.23531
531.4,15.7749,1.36682,-3.23585
532,15.794,1.36958,-3.23585
532.6,15.8137,1.37391,-3.23585
533.2,15.8328,1.36527,-3.23577
533.8,15.8519,1.36114,-3.23714
534.4,15.871,1.35418,-3.23659
535,15.89,1.3574,-3.23586
535.6,15.9088,1.3507,-3.23584
536.2,15.9283,1.3385,-3.23586
536.8,15.9473,1.3414,-3.23603
537.4,15.9665,1.34428,-3.23716
538,15.9858,1.33845,-3.23716
538.6,16.0048,1.33353,-3.23716
539.2,16.0239,1.33018,-3.23716
539.8,16.0429,1.32105,-3.23716
540.4,16.0619,1.3139,-3.23716
541,16.0812,1.31009,-3.23716
541.6,16.1001,1.31095,-3.23715
542.2,16.1196,1.30553,-3.23799
542.8,16.139,1.30593,-3.23845
543.4,16.1572,1.30565,-3.23848
544,16.1773,1.30157,-3.23848
544.6,16.1964,1.29703,-3.23848
545.2,16.2154,1.29158,-3.23847
545.8,16.2344,1.28677,-3.23808
546.4,16.2536,1.28522,-3.23712
547,16.2729,1.28379,-3.23716
547.6,16.292,1.28163,-3.23716
548.2,16.3111,1.28104,-3.23716
548.8,16.3305,1.27445,-3.23716
549.4,16.3492,1.26972,-3.23716
550,16.3686,1.26579,-3.23718
550.6,16.388,1.25814,-3.23742
551.2,16.4074,1.25295,-3.23849
551.8,16.4262,1.25322,-3.23848
552.4,16.4456,1.25017,-3.23848
553,16.4649,1.24855,-3.23848
553.6,16.4838,1.24371,-3.23849
554.2,16.5034,1.24043,-3.23769
554.8,16.5224,1.23948,-3.23743
555.4,16.5415,1.22927,-3.23878
556,16.5608,1.23169,-3.23881
556.6,16.58,1.22967,-3.23881
557.2,16.599,1.21652,-3.23881
557.8,16.6185,1.2201,-3.23881
558.4,16.6376,1.2186,-3.23881
559,16.6568,1.22204,-3.2388
559.6,16.6761,1.2124,-3.23848
560.2,16.6953,1.20873,-3.23885
560.8,16.7147,1.20956,-3.2398
561.4,16.7337,1.20855,-3.2398
562,16.7531,1.20499,-3.2398
562.6,16.7723,1.2071,-3.2398
563.2,16.7916,1.20102,-3.2398
563.8,16.8108,1.19841,-3.23982
564.4,16.8301,1.19453,-3.24012
565,16.8495,1.19631,-3.24081
565.6,16.8685,1.19064,-3.24079
566.2,16.8879,1.18684,-3.24079
566.8,16.9074,1.18575,-3.24079
567.4,16.9265,1.18733,-3.24079
568,16.9457,1.1849,-3.24078
568.6,16.9648,1.17886,-3.24112
569.2,16.9843,1.18141,-3.24112
569.8,17.0038,1.18247,-3.24112
570.4,17.023,1.17813,-3.24112
571,17.0421,1.17786,-3.24112
571.6,17.0617,1.17451,-3.24112
572.2,17.0809,1.16749,-3.24112
572.8,17.1,1.16296,-3.24113
573.4,17.1197,1.15949,-3.24131
574,17.1387,1.15828,-3.24144
574.6,17.1582,1.15611,-3.24145
575.2,17.1775,1.15579,-3.24145
575.8,17.1968,1.16196,-3.24145
576.4,17.216,1.16159,-3.24145
577,17.2353,1.16592,-3.24145
577.6,17.2549,1.16657,-3.24145
578.2,17.2741,1.161,-3.24145
578.8,17.2934,1.16164,-3.24145
579.4,17.3127,1.16662,-3.24148
580,17.3321,1.16364,-3.2411
580.6,17.3515,1.1518,-3.24113
581.2,17.3709,1.15162,-3.24146
581.8,17.3902,1.15402,-3.24248
582.4,17.4093,1.14941,-3.24243
583,17.4288,1.14734,-3.24243
583.6,17.4484,1.14845,-3.24243
584.2,17.4678,1.14166,-3.24243
584.8,17.4871,1.13251,-3.24241
585.4,17.5066,1.13536,-3.24103
586,17.5258,1.12622,-3.24111
586.6,17.5453,1.12672,-3.24111
587.2,17.5649,1.13304,-3.24111
587.8,17.5842,1.12489,-3.24139
588.4,17.6034,1.12332,-3.24245
589,17.6229,1.12462,-3.24243
589.6,17.6424,1.11216,-3.24243
590.2,17.6618,1.11835,-3.24243
590.8,17.6815,1.11835,-3.24243
591.4,17.7006,1.10671,-3.2425
592,17.7197,1.10832,-3.24171
592.6,17.7392,1.0993,-3.24177
593.2,17.7587,1.10003,-3.24177
593.8,17.7784,1.09499,-3.24175
594.4,17.7976,1.10028,-3.2415
595,17.8172,1.09796,-3.24044
595.6,17.8364,1.09189,-3.24093
596.2,17.856,1.08596,-3.24176
596.8,17.8754,1.09323,-3.24184
597.4,17.8949,1.08931,-3.24309
598,17.9144,1.08111,-3.24309
598.6,17.9339,1.07678,-3.24309
599.2,17.9529,1.07103,-3.24309
599.8,17.9726,1.0714,-3.24307
600.4,17.9921,1.06853,-3.24234
601,18.0115,1.05838,-3.24177
601.6,18.0306,1.06429,-3.24177
602.2,18.0505,1.05835,-3.24177
602.8,18.07,1.05445,-3.24266
603.4,18.0892,1.05254,-3.24306
604,18.1088,1.04925,-3.24309
604.6,18.1281,1.05194,-3.24307
605.2,18.1478,1.05435,-3.24349
605.8,18.1669,1.04693,-3.24252
606.4,18.1865,1.04501,-3.24211
607,18.2061,1.04217,-3.24209
607.6,18.2257,1.04113,-3.24202
608.2,18.2448,1.03671,-3.24079
608.8,18.2643,1.02849,-3.24079
609.4,18.284,1.02746,-3.24079
610,18.3033,1.02198,-3.24079
610.6,18.323,1.02299,-3.24079
611.2,18.3425,1.01633,-3.24099
611.8,18.3619,1.02214,-3.24182
612.4,18.3814,1.01494,-3.24178
613,18.401,1.01525,-3.24178
613.6,18.4205,1.0097,-3.24178
614.2,18.4401,1.00482,-3.24178
614.8,18.4589,1.00155,-3.24178
615.4,18.4789,0.997911,-3.24179
616,18.4981,0.999231,-3.24193
616.6,18.5179,1.00022,-3.24315
617.2,18.5372,0.990889,-3.24309
617.8,18.5566,0.990398,-3.24308
618.4,18.5764,0.991652,-3.243
619,18.5959,0.984193,-3.24173
619.6,18.6152,0.978236,-3.24177
620.2,18.6349,0.981021,-3.24177
620.8,18.6544,0.980511,-3.24177
621.4,18.674,0.972213,-3.24203
622,18.6934,0.970579,-3.24311
622.6,18.7131,0.966271,-3.24309
623.2,18.7323,0.965312,-3.24309
623.8,18.7518,0.960873,-3.24309
624.4,18.7711,0.957142,-3.24309
625,18.791,0.952062,-3.24309
625.6,18.8105,0.943058,-3.24309
626.2,18.83,0.934977,-3.24309
626.8,18.8498,0.929532,-3.24309
627.4,18.8691,0.940393,-3.24305
628,18.8885,0.923518,-3.24405
628.6,18.9078,0.918715,-3.2444
629.2,18.9274,0.922041,-3.24441
629.8,18.9468,0.921471,-3.24441
630.4,18.9666,0.910948,-3.24441
631,18.9861,0.907488,-3.24441
631.6,19.0056,0.897938,-3.24441
632.2,19.0254,0.894765,-3.24441
632.8,19.0448,0.893105,-3.24443
633.4,19.0645,0.887814,-3.24338
634,19.0839,0.878787,-3.2431
634.6,19.1033,0.882643,-3.24394
635.2,19.123,0.878203,-3.24441
635.8,19.1421,0.875253,-3.24441
636.4,19.1622,0.87163,-3.24441
637,19.1817,0.877046,-3.24441
637.6,19.2014,0.876592,-3.24441
638.2,19.2209,0.875321,-3.24451
638.8,19.2402,0.867619,-3.2458
639.4,19.2601,0.868608,-3.24573
640,19.2796,0.864447,-3.24572
640.6,19.2991,0.858987,-3.24572
641.2,19.3186,0.854375,-3.24571
641.8,19.3382,0.85296,-3.24557
642.4,19.3577,0.848232,-3.24436
643,19.3774,0.849088,-3.24441
643.6,19.3971,0.845412,-3.24443
644.2,19.4163,0.844913,-3.24583
644.8,19.4363,0.840935,-3.24459
645.4,19.456,0.839315,-3.2444
646,19.4753,0.839871,-3.2444
646.6,19.4951,0.839856,-3.24442
647.2,19.5147,0.8407,-3.24572
647.8,19.5342,0.834713,-3.24572
648.4,19.5535,0.833243,-3.24572
649,19.5732,0.827067,-3.24572
649.6,19.5928,0.821511,-3.24572
650.2,19.6125,0.823214,-3.24572
650.8,19.6321,0.816719,-3.24578
651.4,19.6515,0.816603,-3.24503
652,19.6715,0.81091,-3.24507
652.6,19.6909,0.807126,-3.24507
653.2,19.7103,0.807091,-3.24507
653.8,19.7303,0.802867,-3.24508
654.4,19.7496,0.791279,-3.24532
655,19.7692,0.784235,-3.24644
655.6,19.7888,0.786811,-3.24639
656.2,19.8084,0.7763,-3.24639
656.8,19.828,0.773989,-3.24639
657.4,19.8475,0.772606,-3.24639
658,19.8672,0.767476,-3.24643
658.6,19.887,0.767275,-3.24567
659.2,19.9067,0.761772,-3.24573
659.8,19.926,0.754862,-3.24573
660.4,19.9456,0.745447,-3.24573
661,19.9651,0.735379,-3.24573
661.6,19.9848,0.727848,-3.24573
662.2,20.0046,0.720216,-3.24603
662.8,20.0241,0.719551,-3.24705
663.4,20.0436,0.716322,-3.24703
664,20.0633,0.715751,-3.24775
664.6,20.083,0.71198,-3.24702
665.2,20.1026,0.708758,-3.24705
665.8,20.1222,0.701826,-3.24705
666.4,20.1422,0.704156,-3.24691
667,20.1615,0.697165,-3.24566
667.6,20.1813,0.691149,-3.24573
668.2,20.2009,0.699511,-3.24576
668.8,20.2206,0.69844,-3.24631
669.4,20.2403,0.695091,-3.24669
670,20.2597,0.688013,-3.24687
670.6,20.2797,0.684521,-3.24703
671.2,20.2992,0.682267,-3.24704
671.8,20.3188,0.677078,-3.24698
672.4,20.3387,0.674701,-3.24599
673,20.3583,0.683343,-3.24601
673.6,20.3778,0.676686,-3.24696
674.2,20.3977,0.672503,-3.24736
674.8,20.4165,0.671657,-3.24737
675.4,20.4361,0.67192,-3.24737
676,20.456,0.661426,-3.24737
676.6,20.4761,0.66338,-3.24737
677.2,20.4957,0.658312,-3.24737
677.8,20.5156,0.654516,-3.24737
678.4,20.5353,0.657766,-3.24737
679,20.5548,0.653158,-3.24737
679.6,20.5747,0.654191,-3.24737
680.2,20.5941,0.648714,-3.24737
680.8,20.6137,0.646319,-3.24737
681.4,20.6335,0.647582,-3.24738
682,20.6532,0.647907,-3.2479
682.6,20.6722,0.646868,-3.24872
683.2,20.6925,0.642058,-3.24869
683.8,20.712,0.644812,-3.24869
684.4,20.7318,0.637378,-3.24869
685,20.7513,0.644684,-3.24868
685.6,20.7714,0.633772,-3.24848
686.2,20.7912,0.63518,-3.24837
686.8,20.8107,0.631986,-3.24846
687.4,20.8302,0.632194,-3.2471
688,20.8502,0.635993,-3.24709
688.6,20.8695,0.636729,-3.24601
689.2,20.8893,0.644168,-3.24577
689.8,20.9089,0.641405,-3.24609
690.4,20.9289,0.637308,-3.24706
691,20.9484,0.63812,-3.24706
691.6,20.9681,0.64163,-3.24722
692.2,20.9876,0.638286,-3.24841
692.8,21.0074,0.628265,-3.24836
693.4,21.0271,0.623658,-3.24836
694,21.0467,0.616558,-3.24836
694.6,21.0664,0.615831,-3.24836
695.2,21.0861,0.614645,-3.24836
695.8,21.1058,0.611977,-3.24836
696.4,21.1256,0.614185,-3.24836
697,21.1455,0.606641,-3.24793
697.6,21.165,0.608298,-3.24739
698.2,21.1849,0.607927,-3.24836
698.8,21.2044,0.608693,-3.24836
699.4,21.2242,0.607052,-3.24836
700,21.2438,0.600822,-3.24836
700.6,21.2638,0.590453,-3.24836
701.2,21.2833,0.586024,-3.24836
701.8,21.3031,0.587306,-3.24836
702.4,21.3229,0.585701,-3.24836
703,21.3427,0.581732,-3.24836
703.6,21.3624,0.584117,-3.24839
704.2,21.3821,0.575331,-3.24711
704.8,21.4016,0.57389,-3.24716
705.4,21.4215,0.571987,-3.24843
706,21.4414,0.570227,-3.24836
706.6,21.4614,0.571372,-3.24836
707.2,21.4807,0.571722,-3.24836
707.8,21.5004,0.562815,-3.24836
708.4,21.5205,0.558113,-3.24835
709,21.5402,0.556974,-3.24798
709.6,21.56,0.558355,-3.24701
710.2,21.5797,0.564888,-3.24704
710.8,21.5994,0.568011,-3.24709
711.4,21.6192,0.564504,-3.24846
712,21.639,0.557566,-3.24837
712.6,21.6587,0.559351,-3.24836
713.2,21.6784,0.556103,-3.24838
713.8,21.6981,0.550446,-3.24863
714.4,21.7179,0.556995,-3.24968
715,21.7378,0.551262,-3.24968
715.6,21.7576,0.552267,-3.24968
716.2,21.7772,0.543865,-3.24973
716.8,21.7971,0.540651,-3.24853
717.4,21.8168,0.544694,-3.24836
718,21.8368,0.550643,-3.24836
718.6,21.8564,0.541683,-3.24834
719.2,21.8761,0.543176,-3.24912
719.8,21.8959,0.545483,-3.24968
720.4,21.9157,0.540371,-3.24907
721,21.9357,0.532602,-3.24844
721.6,21.9553,0.526792,-3.24968
722.2,21.9751,0.529899,-3.24968
722.8,21.9943,0.528281,-3.24968
723.4,22.0149,0.526749,-3.24968
724,22.0343,0.526863,-3.24968
724.6,22.0541,0.530561,-3.24968
725.2,22.0743,0.527372,-3.24968
725.8,22.0937,0.527368,-3.24968
726.4,22.1134,0.521354,-3.24968
727,22.1335,0.521854,-3.24968
727.6,22.1532,0.514435,-3.24968
728.2,22.173,0.513501,-3.24988
728.8,22.1927,0.513004,-3.25104
729.4,22.2123,0.521532,-3.251
730,22.2323,0.514366,-3.2507
730.6,22.2522,0.517432,-3.25
731.2,22.2721,0.502544,-3.25001
731.8,22.2918,0.50153,-3.25001
732.4,22.3116,0.500403,-3.25001
733,22.3314,0.500874,-3.25001
733.6,22.3511,0.497587,-3.25006
734.2,22.3708,0.494867,-3.25025
734.8,22.3908,0.498397,-3.25101
735.4,22.411,0.499085,-3.25101
736,22.43,0.494637,-3.25108
736.6,22.4501,0.488491,-3.25059
737.2,22.4704,0.482554,-3.25097
737.8,22.4904,0.480375,-3.25099
738.4,22.5101,0.470218,-3.25099
739,22.5298,0.469783,-3.25099
739.6,22.5497,0.474545,-3.25099
740.2,22.5697,0.472754,-3.25099
740.8,22.5896,0.47182,-3.25099
741.4,22.6091,0.470804,-3.25099
742,22.629,0.460579,-3.25093
742.6,22.6491,0.454448,-3.25186
743.2,22.6691,0.447765,-3.25198
743.8,22.6889,0.443242,-3.25198
744.4,22.7086,0.44248,-3.25198
745,22.7286,0.440194,-3.25195
745.6,22.7484,0.43891,-3.25234
746.2,22.7684,0.436331,-3.25231
746.8,22.7882,0.426674,-3.25303
747.4,22.8083,0.42056,-3.25254
748,22.8279,0.417628,-3.25232
748.6,22.8477,0.418631,-3.25231
749.2,22.8677,0.400897,-3.25234
749.8,22.8875,0.403008,-3.25073
750.4,22.9075,0.39983,-3.24968
751,22.9271,0.38947,-3.24968
751.6,22.9472,0.387455,-3.24968
752.2,22.9671,0.386199,-3.24968
752.8,22.9867,0.387091,-3.24968
753.4,23.0066,0.388254,-3.24975
754,23.0265,0.385164,-3.25104
754.6,23.0466,0.374857,-3.25098
755.2,23.0661,0.373438,-3.25096
755.8,23.0862,0.367738,-3.251
756.4,23.1059,0.361784,-3.25107
757,23.1257,0.358097,-3.25231
757.6,23.1458,0.355012,-3.25231
758.2,23.1658,0.350945,-3.25231
758.8,23.1858,0.349483,-3.25231
759.4,23.2055,0.344509,-3.25231
760,23.2255,0.339302,-3.25231
760.6,23.2453,0.342546,-3.25231
761.2,23.2649,0.334724,-3.25231
761.8,23.2851,0.334241,-3.25231
762.4,23.3052,0.331582,-3.2523
763,23.3249,0.331169,-3.25331
763.6,23.3445,0.320838,-3.2533
764.2,23.3646,0.313894,-3.25334
764.8,23.3843,0.314571,-3.25216
765.4,23.4044,0.308152,-3.2523
766,23.4243,0.307597,-3.25231
766.6,23.4442,0.307043,-3.25231
767.2,23.4641,0.298782,-3.25232
767.8,23.4843,0.310438,-3.25293
768.4,23.5038,0.308233,-3.25364
769,23.5238,0.298135,-3.25363
769.6,23.5435,0.294756,-3.25363
770.2,23.5631,0.29279,-3.25363
770.8,23.5831,0.293588,-3.25365
771.4,23.6033,0.283053,-3.25447
772,23.623,0.280716,-3.25495
772.6,23.6431,0.27994,-3.25494
773.2,23.663,0.273649,-3.2547
773.8,23.6828,0.275199,-3.25259
774.4,23.7027,0.272217,-3.25264
775,23.7226,0.268079,-3.25264
775.6,23.7428,0.268105,-3.25263
776.2,23.7625,0.263397,-3.25379
776.8,23.7824,0.27116,-3.25396
777.4,23.8025,0.269785,-3.25409
778,23.8217,0.272039,-3.25497
778.6,23.8417,0.266913,-3.25494
779.2,23.8623,0.264021,-3.25494
779.8,23.8823,0.256002,-3.25494
780.4,23.9019,0.252121,-3.2549
781,23.9218,0.258814,-3.25482
781.6,23.942,0.250086,-3.25494
782.2,23.962,0.245799,-3.25495
782.8,23.9816,0.246522,-3.25495
783.4,24.0019,0.244723,-3.25495
784,24.0217,0.249976,-3.25495
784.6,24.0415,0.248567,-3.25495
785.2,24.0615,0.250735,-3.2549
785.8,24.0813,0.246638,-3.25611
786.4,24.1013,0.241043,-3.25626
787,24.1214,0.238785,-3.25627
787.6,24.1414,0.234632,-3.25626
788.2,24.1613,0.234889,-3.25617
788.8,24.1812,0.234707,-3.25754
789.4,24.2011,0.238662,-3.25682
790,24.2211,0.242083,-3.25627