File: 01_Data/Neoprene_SCBA_Face_Seal/STA/N2/30K_min/Neoprene_SCBA_Face_Seal_STA_N2_30KData_250911_R1.csv
Temp./C,Time/min,DSC/(mW/mg),Mass loss/mg
40.0,0.0,-1.1642,0.0167599
40.6,0.039137,-1.21478,0.0168883
41.2,0.0782693,-1.27423,0.0183166
41.8,0.114508,-1.32805,0.0179699
42.4,0.151629,-1.38508,0.0168867
43,0.187061,-1.43013,0.0182683
43.6,0.221613,-1.48804,0.018939
44.2,0.255306,-1.52839,0.0183948
44.8,0.288206,-1.56647,0.0176533
45.4,0.320706,-1.62182,0.0173311
46,0.352718,-1.66992,0.0177555
46.6,0.384055,-1.70321,0.0193621
47.2,0.415009,-1.72514,0.0183534
47.8,0.445293,-1.7519,0.0167513
48.4,0.476084,-1.78414,0.0177414
49,0.505375,-1.81334,0.0190636
49.6,0.534561,-1.83461,0.0189835
50.2,0.564527,-1.86656,0.0190972
50.8,0.592969,-1.88911,0.0199468
51.4,0.621235,-1.91991,0.0189918
52,0.648817,-1.93851,0.0189432
52.6,0.677088,-1.96902,0.0197129
53.2,0.704442,-1.9766,0.0191548
53.8,0.731943,-1.98019,0.0193461
54.4,0.758065,-1.9994,0.0191173
55,0.785466,-2.00976,0.0186275
55.6,0.812577,-2.02536,0.0193853
56.2,0.839301,-2.05174,0.0210722
56.8,0.865188,-2.07502,0.0210469
57.4,0.891303,-2.03989,0.0198756
58,0.916033,-2.00037,0.0197619
58.6,0.942366,-1.98678,0.0198385
59.2,0.968815,-2.02261,0.0196543
59.8,0.994153,-2.02934,0.0193862
60.4,1.01969,-2.05426,0.0198002
61,1.04484,-2.08913,0.0199027
61.6,1.06978,-2.11187,0.019381
62.2,1.09487,-2.13268,0.0177467
62.8,1.11849,-2.13837,0.0182334
63.4,1.14448,-2.12574,0.0179545
64,1.16857,-2.13466,0.0180411
64.6,1.19337,-2.1133,0.018426
65.2,1.21791,-2.10974,0.0184976
65.8,1.24171,-2.09989,0.0190227
66.4,1.26605,-2.08159,0.0204134
67,1.28989,-2.08476,0.0203258
67.6,1.314,-2.0776,0.0190958
68.2,1.33801,-2.07665,0.0194781
68.8,1.36183,-2.06621,0.019795
69.4,1.3854,-2.06741,0.020185
70,1.40865,-2.06392,0.0207815
70.6,1.43281,-2.06741,0.0209913
71.2,1.45642,-2.07561,0.0205704
71.8,1.47988,-2.07735,0.0205971
72.4,1.50319,-2.0756,0.0192537
73,1.52669,-2.08131,0.0186417
73.6,1.54959,-2.10273,0.0186993
74.2,1.57336,-2.10644,0.0185793
74.8,1.59682,-2.11872,0.0185275
75.4,1.6202,-2.12843,0.0191192
76,1.64284,-2.13746,0.020021
76.6,1.66639,-2.14156,0.0185699
77.2,1.68899,-2.15809,0.0198263
77.8,1.71186,-2.17098,0.018747
78.4,1.73452,-2.18336,0.0201874
79,1.75782,-2.20521,0.0198477
79.6,1.78063,-2.22055,0.0182556
80.2,1.80312,-2.23801,0.0175425
80.8,1.82604,-2.25807,0.01788
81.4,1.84889,-2.2939,0.0175958
82,1.87163,-2.32285,0.0179037
82.6,1.89393,-2.33136,0.0181081
83.2,1.91615,-2.31378,0.0179616
83.8,1.93875,-2.3271,0.0194383
84.4,1.96093,-2.34355,0.0184995
85,1.98299,-2.36012,0.0195508
85.6,2.0064,-2.48439,0.019915
86.2,2.02925,-2.65713,0.0196438
86.8,2.0517,-2.76741,0.0194358
87.4,2.0739,-2.84002,0.0186222
88,2.09608,-2.86565,0.0181258
88.6,2.11779,-2.83175,0.0180649
89.2,2.13917,-2.75818,0.0193828
89.8,2.16024,-2.66208,0.0180173
90.4,2.18123,-2.51519,0.0187985
91,2.2024,-2.37625,0.0178604
91.6,2.22321,-2.26092,0.0188794
92.2,2.24426,-2.14366,0.0179052
92.8,2.2658,-2.05888,0.0183969
93.4,2.28663,-1.96116,0.0192172
94,2.30735,-1.85751,0.0185725
94.6,2.32862,-1.74533,0.0190859
95.2,2.34895,-1.61568,0.0186598
95.8,2.36952,-1.4637,0.0177744
96.4,2.38987,-1.3146,0.016592
97,2.41061,-1.17904,0.0177832
97.6,2.43088,-1.04897,0.0177768
98.2,2.45144,-0.920586,0.0168267
98.8,2.47189,-0.77192,0.0177566
99.4,2.49162,-0.578277,0.0177888
100,2.51205,-0.351677,0.018354
100.6,2.53203,-0.126684,0.0178065
101.2,2.55169,0.081199,0.0177821
101.8,2.5717,0.29672,0.0177867
102.4,2.59211,0.481872,0.0178425
103,2.61147,0.648113,0.0164695
103.6,2.63197,0.808814,0.0164677
104.2,2.65203,0.945662,0.0169612
104.8,2.67186,1.11596,0.0163412
105.4,2.69174,1.28849,0.0164382
106,2.71135,1.45029,0.0172113
106.6,2.73137,1.63194,0.0178153
107.2,2.75125,1.81683,0.0167291
107.8,2.77098,1.99378,0.0164744
108.4,2.79044,2.16787,0.016354
109,2.81017,2.34829,0.0164023
109.6,2.83011,2.52539,0.0164543
110.2,2.8497,2.70686,0.0164091
110.8,2.86969,2.83292,0.0168898
111.4,2.88865,3.01182,0.0164689
112,2.90841,3.20446,0.0164732
112.6,2.92791,3.37695,0.0154442
113.2,2.94757,3.56659,0.0151514
113.8,2.96729,3.75752,0.0151501
114.4,2.98693,3.93105,0.0151502
115,3.00641,4.08316,0.0151529
115.6,3.02554,4.2358,0.0152108
116.2,3.04544,4.3788,0.0139717
116.8,3.06511,4.51458,0.0138163
117.4,3.08431,4.62785,0.0135413
118,3.10398,4.74901,0.0139084
118.6,3.1237,4.87123,0.0138263
119.2,3.14351,4.97726,0.0138177
119.8,3.16309,5.08594,0.0137863
120.4,3.18274,5.17629,0.0145945
121,3.20205,5.26613,0.0151686
121.6,3.22192,5.35343,0.0152391
122.2,3.24182,5.42912,0.0138745
122.8,3.26106,5.50286,0.0138362
123.4,3.28101,5.57288,0.0151907
124,3.30079,5.63788,0.015195
124.6,3.31985,5.70969,0.0140946
125.2,3.33928,5.77807,0.0138421
125.8,3.35892,5.83554,0.013831
126.4,3.37885,5.90474,0.0138301
127,3.39809,5.97123,0.01383
127.6,3.41802,6.02923,0.01383
128.2,3.43708,6.08878,0.01383
128.8,3.45657,6.14449,0.01383
129.4,3.47642,6.20189,0.0138301
130,3.49539,6.25357,0.013832
130.6,3.51515,6.31011,0.0138951
131.2,3.53432,6.36429,0.0152902
131.8,3.55348,6.4166,0.0140353
132.4,3.57296,6.47984,0.0138224
133,3.5924,6.53071,0.0138201
133.6,3.61143,6.57861,0.0138197
134.2,3.63067,6.62949,0.013819
134.8,3.65021,6.67933,0.01382
135.4,3.66919,6.73485,0.012529
136,3.68851,6.78284,0.0125124
136.6,3.70755,6.82922,0.0125097
137.2,3.72681,6.883,0.0125034
137.8,3.74588,6.92761,0.0124119
138.4,3.76543,6.97378,0.0137637
139,3.78434,7.00676,0.013827
139.6,3.80263,7.03491,0.0138195
140.2,3.82164,7.07104,0.0136731
140.8,3.84093,7.10634,0.0135093
141.4,3.85961,7.1545,0.0135069
142,3.87931,7.19762,0.0141115
142.6,3.89813,7.2496,0.014145
143.2,3.91727,7.27308,0.0140978
143.8,3.93633,7.31831,0.0135066
144.4,3.95526,7.35523,0.0131814
145,3.974,7.38837,0.0131724
145.6,3.99293,7.43393,0.0131703
146.2,4.01176,7.47375,0.01317
146.8,4.03066,7.5115,0.01317
147.4,4.04976,7.56028,0.01317
148,4.06814,7.59078,0.01317
148.6,4.08708,7.62739,0.01317
149.2,4.10594,7.66765,0.0131699
149.8,4.12466,7.70049,0.0131698
150.4,4.14331,7.73519,0.0131721
151,4.16208,7.76709,0.0132405
151.6,4.18082,7.79641,0.0121239
152.2,4.19972,7.84678,0.0121747
152.8,4.21832,7.87057,0.0121796
153.4,4.23693,7.8909,0.0121799
154,4.25622,7.92223,0.0121796
154.6,4.27453,7.94893,0.0121758
155.2,4.29323,7.97194,0.0121392
155.8,4.31203,8.01209,0.0128904
156.4,4.33054,8.03665,0.0128408
157,4.34942,8.06885,0.0128397
157.6,4.36826,8.10629,0.0128392
158.2,4.38643,8.13868,0.0128289
158.8,4.40529,8.17297,0.0126916
159.4,4.42419,8.2024,0.0110859
160,4.44251,8.23711,0.0111844
160.6,4.46101,8.2636,0.0111898
161.2,4.47977,8.29563,0.01119
161.8,4.49835,8.32542,0.01119
162.4,4.51692,8.36039,0.01119
163,4.53534,8.39048,0.01119
163.6,4.5539,8.41666,0.01119
164.2,4.5725,8.46042,0.01119
164.8,4.59072,8.51771,0.01119
165.4,4.60906,8.58074,0.01119
166,4.62777,8.6404,0.01119
166.6,4.6458,8.68962,0.0111899
167.2,4.6647,8.72821,0.0111894
167.8,4.68305,8.75969,0.0111825
168.4,4.70168,8.79396,0.0111153
169,4.71988,8.81564,0.0108713
169.6,4.73863,8.84083,0.0102329
170.2,4.75694,8.86651,0.0102049
170.8,4.77535,8.89076,0.0102072
171.4,4.79408,8.91111,0.00933639
172,4.81228,8.93991,0.00891915
172.6,4.8309,8.96288,0.00853936
173.2,4.84944,8.98683,0.00855151
173.8,4.86759,9.0216,0.0085503
174.4,4.88575,9.06351,0.00854873
175,4.90417,9.10853,0.00851707
175.6,4.92264,9.13631,0.00715377
176.2,4.94077,9.17098,0.00723799
176.8,4.95942,9.18971,0.00724028
177.4,4.97695,9.20913,0.0072401
178,4.99492,9.25503,0.00724001
178.6,5.01404,9.30814,0.00723999
179.2,5.03253,9.34835,0.00723992
179.8,5.05049,9.38827,0.00723991
180.4,5.06863,9.40692,0.00724687
181,5.08699,9.43906,0.00619115
181.6,5.10501,9.50885,0.00593162
182.2,5.12338,9.5644,0.00580317
182.8,5.14126,9.60587,0.00516561
183.4,5.15946,9.6297,0.0059304
184,5.17765,9.64042,0.00592103
184.6,5.1957,9.66182,0.00592009
185.2,5.21404,9.68256,0.0059197
185.8,5.23224,9.7009,0.00591374
186.4,5.24996,9.7193,0.00575718
187,5.26779,9.7235,0.00507736
187.6,5.28626,9.74256,0.00386139
188.2,5.30436,9.75657,0.00394045
188.8,5.32219,9.77049,0.00393912
189.4,5.34015,9.7826,0.00395741
190,5.35865,9.79392,0.00263648
190.6,5.37751,9.80337,0.00263721
191.2,5.39544,9.81218,0.00272324
191.8,5.41386,9.83192,0.00141742
192.4,5.43193,9.83092,0.00131302
193,5.44964,9.85266,0.0013015
193.6,5.46785,9.86373,0.000559733
194.2,5.48612,9.87363,-1.65041e-05
194.8,5.50397,9.8794,-7.7202e-06
195.4,5.52211,9.89481,9.153e-06
196,5.54042,9.9099,-0.000682524
196.6,5.55815,9.91818,-0.00133708
197.2,5.57666,9.94038,-0.0012728
197.8,5.59446,9.9428,-0.00231647
198.4,5.61243,9.95932,-0.00263507
199,5.63062,9.98287,-0.00180802
199.6,5.64823,9.97661,-0.0018518
200.2,5.66663,10.002,-0.00304177
200.8,5.68438,10.0205,-0.00290187
201.4,5.70242,10.0254,-0.00410339
202,5.72054,10.0334,-0.00428725
202.6,5.73857,10.0477,-0.00480971
203.2,5.75635,10.0582,-0.00565147
203.8,5.77471,10.0697,-0.00582449
204.4,5.79246,10.0713,-0.00696325
205,5.81048,10.0767,-0.00692068
205.6,5.82859,10.0824,-0.00820954
206.2,5.84643,10.0925,-0.00832015
206.8,5.86406,10.1072,-0.00906882
207.4,5.88251,10.1097,-0.00960724
208,5.90027,10.1148,-0.01076
208.6,5.9184,10.121,-0.0111266
209.2,5.93613,10.129,-0.0126734
209.8,5.95437,10.1241,-0.0129174
210.4,5.97194,10.1314,-0.0142938
211,5.9903,10.1312,-0.0153731
211.6,6.00829,10.1407,-0.0157798
212.2,6.02576,10.147,-0.0168903
212.8,6.04393,10.1491,-0.0170332
213.4,6.06167,10.153,-0.018351
214,6.07996,10.1739,-0.0186632
214.6,6.09754,10.1865,-0.0199599
215.2,6.11518,10.186,-0.0203112
215.8,6.13334,10.1976,-0.0216289
216.4,6.1511,10.2142,-0.0230483
217,6.16922,10.228,-0.0234583
217.6,6.18691,10.2396,-0.0248973
218.2,6.20462,10.2462,-0.0253501
218.8,6.22262,10.2501,-0.0264783
219.4,6.24042,10.2552,-0.0280112
220,6.2583,10.2628,-0.0279026
220.6,6.2765,10.2766,-0.0294675
221.2,6.29421,10.283,-0.0303753
221.8,6.31185,10.291,-0.0311716
222.4,6.32952,10.2978,-0.0326869
223,6.34763,10.3032,-0.0343841
223.6,6.36534,10.3149,-0.0356852
224.2,6.38327,10.317,-0.0365939
224.8,6.4012,10.3285,-0.0381425
225.4,6.41891,10.3251,-0.0398676
226,6.4368,10.3375,-0.0409225
226.6,6.45434,10.3422,-0.0413685
227.2,6.47236,10.3507,-0.0428636
227.8,6.49015,10.3523,-0.0432521
228.4,6.50826,10.3658,-0.0433968
229,6.52577,10.3562,-0.0448728
229.6,6.54382,10.3643,-0.0460715
230.2,6.56145,10.3674,-0.0471414
230.8,6.57945,10.3781,-0.0485012
231.4,6.59736,10.3777,-0.0502753
232,6.61492,10.3643,-0.0518651
232.6,6.63295,10.3636,-0.0535263
233.2,6.65063,10.3595,-0.0551464
233.8,6.66808,10.3553,-0.0569877
234.4,6.686,10.3412,-0.0588429
235,6.70368,10.3423,-0.0606513
235.6,6.72156,10.3316,-0.0623019
236.2,6.73977,10.3385,-0.0640769
236.8,6.75772,10.3293,-0.0649219
237.4,6.7757,10.3385,-0.0664749
238,6.79323,10.3309,-0.0681704
238.6,6.81087,10.3254,-0.0705733
239.2,6.82888,10.3227,-0.0724283
239.8,6.84677,10.3213,-0.0747506
240.4,6.86456,10.304,-0.0763461
241,6.8823,10.2869,-0.0778162
241.6,6.9003,10.276,-0.0789434
242.2,6.91797,10.2558,-0.0807053
242.8,6.93577,10.2373,-0.082161
243.4,6.95406,10.2293,-0.0842852
244,6.97143,10.2233,-0.0862094
244.6,6.98915,10.2053,-0.0880895
245.2,7.00722,10.206,-0.0901797
245.8,7.02509,10.1955,-0.0925285
246.4,7.04265,10.1926,-0.0946729
247,7.06051,10.1757,-0.0965237
247.6,7.07802,10.156,-0.0984992
248.2,7.09602,10.14,-0.100138
248.8,7.11398,10.1193,-0.102097
249.4,7.13189,10.1119,-0.103939
250,7.14927,10.0925,-0.104923
250.6,7.16748,10.0694,-0.107071
251.2,7.18513,10.036,-0.109234
251.8,7.20293,10.022,-0.110909
252.4,7.221,10.0072,-0.113476
253,7.23871,9.9678,-0.116206
253.6,7.25674,9.91924,-0.118234
254.2,7.27446,9.88112,-0.120109
254.8,7.2923,9.84122,-0.121812
255.4,7.31009,9.82091,-0.123819
256,7.32783,9.78024,-0.126024
256.6,7.34594,9.74617,-0.128279
257.2,7.36346,9.72043,-0.13059
257.8,7.38154,9.69227,-0.133108
258.4,7.39935,9.6617,-0.135298
259,7.41731,9.62279,-0.137907
259.6,7.43496,9.59182,-0.13919
260.2,7.45289,9.56142,-0.141693
260.8,7.47066,9.51758,-0.143768
261.4,7.48872,9.48746,-0.145465
262,7.50674,9.44505,-0.147587
262.6,7.52424,9.40627,-0.150012
263.2,7.54235,9.36282,-0.151955
263.8,7.55999,9.32302,-0.154218
264.4,7.57805,9.26967,-0.157778
265,7.59586,9.22644,-0.16136
265.6,7.61374,9.18483,-0.163686
266.2,7.63159,9.14228,-0.1658
266.8,7.64981,9.09383,-0.168492
267.4,7.66763,9.04184,-0.17064
268,7.68563,8.97911,-0.171464
268.6,7.70356,8.92177,-0.173891
269.2,7.7214,8.86616,-0.17588
269.8,7.73946,8.80378,-0.177872
270.4,7.75742,8.73917,-0.180475
271,7.7753,8.67892,-0.183051
271.6,7.79335,8.60897,-0.185385
272.2,7.81117,8.53608,-0.187384
272.8,7.82904,8.46343,-0.189098
273.4,7.847,8.39625,-0.19033
274,7.86527,8.31819,-0.192616
274.6,7.88318,8.23338,-0.194857
275.2,7.90117,8.16456,-0.196972
275.8,7.9193,8.07911,-0.19894
276.4,7.93756,8.00024,-0.201307
277,7.95535,7.90558,-0.20348
277.6,7.97329,7.81025,-0.205927
278.2,7.99149,7.71073,-0.208265
278.8,8.00964,7.61805,-0.21048
279.4,8.02751,7.51204,-0.212434
280,8.04581,7.41128,-0.213235
280.6,8.06407,7.31236,-0.214982
281.2,8.0821,7.20408,-0.216702
281.8,8.10021,7.1075,-0.218333
282.4,8.11827,7.01831,-0.21976
283,8.13636,6.91372,-0.221744
283.6,8.15407,6.80084,-0.224157
284.2,8.17238,6.65381,-0.226523
284.8,8.19117,6.50099,-0.228427
285.4,8.20918,6.32282,-0.230103
286,8.22787,6.14978,-0.231687
286.6,8.24627,5.96776,-0.233452
287.2,8.26443,5.78292,-0.235351
287.8,8.28247,5.5971,-0.237004
288.4,8.30149,5.41372,-0.238734
289,8.32006,5.22547,-0.240298
289.6,8.33814,5.04058,-0.241825
290.2,8.35692,4.85311,-0.243493
290.8,8.37522,4.67596,-0.244953
291.4,8.39374,4.47948,-0.246179
292,8.41195,4.30517,-0.247688
292.6,8.43078,4.12694,-0.249493
293.2,8.44875,3.94552,-0.25131
293.8,8.46689,3.776,-0.252819
294.4,8.48595,3.59268,-0.254435
295,8.50431,3.40541,-0.255795
295.6,8.52308,3.23185,-0.257082
296.2,8.54142,3.09478,-0.258787
296.8,8.55999,2.93864,-0.259629
297.4,8.57801,2.79213,-0.26117
298,8.59652,2.66182,-0.261875
298.6,8.61462,2.54662,-0.262207
299.2,8.63277,2.43173,-0.263778
299.8,8.65103,2.35234,-0.265535
300.4,8.66907,2.26676,-0.267411
301,8.68742,2.19934,-0.268751
301.6,8.70505,2.14958,-0.269079
302.2,8.72336,2.09697,-0.270654
302.8,8.74144,2.05153,-0.272057
303.4,8.75945,2.00477,-0.273716
304,8.77776,1.97837,-0.274861
304.6,8.79542,1.94081,-0.276065
305.2,8.81319,1.91596,-0.277681
305.8,8.83163,1.90726,-0.278888
306.4,8.84927,1.88978,-0.279952
307,8.86717,1.88351,-0.280638
307.6,8.88503,1.86334,-0.282527
308.2,8.90305,1.86254,-0.284448
308.8,8.92071,1.85566,-0.285601
309.4,8.93876,1.84863,-0.28628
310,8.95671,1.84567,-0.287949
310.6,8.97484,1.83871,-0.289521
311.2,8.99235,1.83492,-0.290769
311.8,9.01033,1.85623,-0.292037
312.4,9.028,1.85689,-0.293883
313,9.04582,1.85457,-0.295314
313.6,9.06391,1.8587,-0.296939
314.2,9.08188,1.85313,-0.298116
314.8,9.09985,1.84684,-0.299566
315.4,9.11759,1.82731,-0.301118
316,9.13552,1.82483,-0.302557
316.6,9.15366,1.8141,-0.304288
317.2,9.17142,1.80386,-0.305534
317.8,9.18931,1.79763,-0.306634
318.4,9.20713,1.79495,-0.307984
319,9.22508,1.77717,-0.309127
319.6,9.24301,1.75955,-0.309126
320.2,9.26079,1.74994,-0.310312
320.8,9.27892,1.74359,-0.31212
321.4,9.2963,1.74133,-0.313871
322,9.31459,1.73399,-0.315589
322.6,9.33216,1.72878,-0.315708
323.2,9.35057,1.72544,-0.316325
323.8,9.36796,1.67641,-0.318117
324.4,9.38633,1.59355,-0.320067
325,9.40492,1.51918,-0.321961
325.6,9.42288,1.44019,-0.323483
326.2,9.4411,1.36694,-0.324178
326.8,9.45939,1.3007,-0.325257
327.4,9.47721,1.24941,-0.326876
328,9.49511,1.19642,-0.328422
328.6,9.51332,1.15794,-0.330024
329.2,9.53135,1.1279,-0.331236
329.8,9.54921,1.11724,-0.332813
330.4,9.56745,1.09771,-0.333238
331,9.58552,1.09758,-0.334584
331.6,9.60341,1.1078,-0.336581
332.2,9.62104,1.13115,-0.337887
332.8,9.63907,1.15545,-0.339647
333.4,9.65715,1.15671,-0.341169
334,9.67484,1.15597,-0.344113
334.6,9.69309,1.14946,-0.34582
335.2,9.71092,1.13926,-0.34754
335.8,9.72877,1.13247,-0.349387
336.4,9.74676,1.12641,-0.350107
337,9.76487,1.12618,-0.350921
337.6,9.78281,1.1253,-0.352467
338.2,9.80057,1.13021,-0.354532
338.8,9.81814,1.14158,-0.356742
339.4,9.83587,1.15479,-0.359187
340,9.85467,1.17085,-0.361008
340.6,9.87214,1.18834,-0.362985
341.2,9.8903,1.20645,-0.364923
341.8,9.90798,1.22557,-0.367126
342.4,9.92602,1.24064,-0.369585
343,9.94414,1.25516,-0.372343
343.6,9.96194,1.28219,-0.374182
344.2,9.97998,1.30382,-0.376408
344.8,9.99783,1.32732,-0.378682
345.4,10.0161,1.35123,-0.381258
346,10.0338,1.37913,-0.383617
346.6,10.0519,1.40416,-0.385949
347.2,10.0696,1.44012,-0.388668
347.8,10.0875,1.47943,-0.39123
348.4,10.1054,1.49915,-0.39323
349,10.1235,1.53842,-0.395868
349.6,10.1417,1.5698,-0.39884
350.2,10.1596,1.59764,-0.401239
350.8,10.1777,1.63031,-0.40419
351.4,10.1955,1.65928,-0.407588
352,10.2134,1.69806,-0.409439
352.6,10.2316,1.73378,-0.412302
353.2,10.2493,1.76336,-0.415421
353.8,10.2674,1.81044,-0.418897
354.4,10.2855,1.85179,-0.422251
355,10.3032,1.89743,-0.425061
355.6,10.3213,1.93547,-0.428638
356.2,10.3391,1.97752,-0.432817
356.8,10.357,2.02102,-0.436034
357.4,10.3752,2.07048,-0.440286
358,10.3931,2.11667,-0.44516
358.6,10.4113,2.15417,-0.448754
359.2,10.4292,2.20585,-0.453293
359.8,10.4473,2.25168,-0.45808
360.4,10.4651,2.29949,-0.46253
361,10.4833,2.35011,-0.467961
361.6,10.5015,2.40659,-0.473032
362.2,10.5194,2.45489,-0.477716
362.8,10.5374,2.50572,-0.482429
363.4,10.5554,2.55681,-0.487435
364,10.5734,2.61266,-0.493684
364.6,10.5914,2.67304,-0.498522
365.2,10.6094,2.71994,-0.504713
365.8,10.6277,2.77242,-0.509777
366.4,10.6455,2.83109,-0.516329
367,10.6636,2.8765,-0.522583
367.6,10.6817,2.92909,-0.529595
368.2,10.6998,2.99364,-0.536462
368.8,10.7173,3.04791,-0.542971
369.4,10.7353,3.09803,-0.550817
370,10.7537,3.14271,-0.557813
370.6,10.7717,3.19402,-0.567445
371.2,10.79,3.25428,-0.57491
371.8,10.8082,3.30909,-0.584219
372.4,10.8262,3.3623,-0.591556
373,10.8441,3.41095,-0.600487
373.6,10.8618,3.45585,-0.609088
374.2,10.8807,3.50736,-0.619012
374.8,10.8985,3.5526,-0.629312
375.4,10.9165,3.58886,-0.637758
376,10.9343,3.62187,-0.649327
376.6,10.9529,3.66965,-0.658887
377.2,10.9711,3.70036,-0.671504
377.8,10.989,3.73119,-0.681374
378.4,11.0072,3.76233,-0.694876
379,11.0252,3.79129,-0.70596
379.6,11.0435,3.80596,-0.719048
380.2,11.0616,3.83613,-0.730805
380.8,11.08,3.86549,-0.743638
381.4,11.0982,3.8795,-0.757468
382,11.1159,3.8934,-0.770008
382.6,11.1341,3.91461,-0.785135
383.2,11.153,3.92836,-0.79852
383.8,11.1709,3.93438,-0.814887
384.4,11.1891,3.93147,-0.828533
385,11.2073,3.9257,-0.84634
385.6,11.2258,3.9279,-0.860918
386.2,11.2443,3.9252,-0.878319
386.8,11.2625,3.91489,-0.893627
387.4,11.2808,3.89616,-0.910229
388,11.2993,3.88404,-0.927959
388.6,11.3176,3.8748,-0.945393
389.2,11.336,3.85299,-0.966034
389.8,11.3545,3.8284,-0.983607
390.4,11.3725,3.80724,-1.00491
391,11.3913,3.77957,-1.02255
391.6,11.4095,3.7555,-1.04429
392.2,11.428,3.72402,-1.06233
392.8,11.4465,3.69883,-1.08575
393.4,11.465,3.67159,-1.10569
394,11.4835,3.63002,-1.12864
394.6,11.5017,3.58525,-1.14912
395.2,11.5205,3.5437,-1.17099
395.8,11.5387,3.51088,-1.19309
396.4,11.5571,3.4721,-1.21398
397,11.5758,3.43027,-1.23834
397.6,11.5946,3.31109,-1.25901
398.2,11.6132,3.21867,-1.28452
398.8,11.6317,3.17133,-1.30488
399.4,11.6501,3.13835,-1.33092
400,11.6689,3.10677,-1.35153
400.6,11.6872,3.08248,-1.376
401.2,11.7058,3.0559,-1.3974
401.8,11.7241,3.02512,-1.42205
402.4,11.7425,3.00222,-1.44372
403,11.7612,2.97119,-1.46725
403.6,11.7797,2.93878,-1.49005
404.2,11.7981,2.90933,-1.51175
404.8,11.8165,2.88492,-1.5357
405.4,11.8351,2.85981,-1.55518
406,11.8535,2.83352,-1.57909
406.6,11.8721,2.8121,-1.59759
407.2,11.8907,2.7766,-1.62106
407.8,11.9089,2.76216,-1.63863
408.4,11.9278,2.73923,-1.66106
409,11.946,2.71342,-1.67822
409.6,11.9643,2.68718,-1.69795
410.2,11.9833,2.6696,-1.71664
410.8,12.0017,2.64823,-1.73584
411.4,12.0201,2.62111,-1.75398
412,12.0383,2.6082,-1.77103
412.6,12.0569,2.58459,-1.78966
413.2,12.0754,2.55962,-1.80422
413.8,12.094,2.55492,-1.82344
414.4,12.1125,2.5443,-1.83827
415,12.1307,2.52493,-1.85549
415.6,12.1494,2.50614,-1.86806
416.2,12.1678,2.48755,-1.88391
416.8,12.1862,2.47391,-1.89633
417.4,12.2048,2.46059,-1.91099
418,12.2235,2.43846,-1.92344
418.6,12.2415,2.42052,-1.93691
419.2,12.2606,2.41643,-1.95081
419.8,12.2785,2.40197,-1.96377
420.4,12.2972,2.39505,-1.97763
421,12.3159,2.38623,-1.9901
421.6,12.3344,2.3823,-2.00562
422.2,12.3531,2.35498,-2.01815
422.8,12.3715,2.34792,-2.0334
423.4,12.3901,2.33243,-2.04502
424,12.4086,2.32346,-2.06044
424.6,12.427,2.31016,-2.07304
425.2,12.4455,2.28938,-2.08772
425.8,12.4643,2.28695,-2.09878
426.4,12.4826,2.27358,-2.11031
427,12.501,2.25393,-2.12114
427.6,12.5195,2.23752,-2.13178
428.2,12.5383,2.21544,-2.1418
428.8,12.5567,2.20037,-2.15151
429.4,12.5754,2.18649,-2.16316
430,12.5939,2.16587,-2.1727
430.6,12.6128,2.15182,-2.18435
431.2,12.6311,2.13224,-2.19277
431.8,12.6498,2.11384,-2.20345
432.4,12.6685,2.08987,-2.2115
433,12.6872,2.07808,-2.22251
433.6,12.7055,2.0613,-2.23079
434.2,12.724,2.04597,-2.24035
434.8,12.7429,2.02405,-2.24745
435.4,12.7613,2.01507,-2.25632
436,12.78,1.99358,-2.26549
436.6,12.7986,1.98077,-2.27434
437.2,12.8169,1.95932,-2.28385
437.8,12.8359,1.93939,-2.29265
438.4,12.8544,1.9297,-2.30297
439,12.8731,1.90975,-2.31128
439.6,12.8915,1.89131,-2.31966
440.2,12.9102,1.87543,-2.32714
440.8,12.9286,1.85457,-2.33614
441.4,12.9476,1.84577,-2.34387
442,12.9663,1.82484,-2.35333
442.6,12.985,1.79368,-2.36091
443.2,13.0033,1.78064,-2.36976
443.8,13.0223,1.76281,-2.37815
444.4,13.0409,1.74503,-2.38659
445,13.0593,1.72313,-2.39542
445.6,13.0783,1.70535,-2.40423
446.2,13.0968,1.6757,-2.41363
446.8,13.1156,1.65653,-2.42122
447.4,13.1342,1.63687,-2.43023
448,13.1526,1.62365,-2.43768
448.6,13.1713,1.60996,-2.4474
449.2,13.1902,1.58632,-2.45538
449.8,13.209,1.56636,-2.46519
450.4,13.2277,1.55618,-2.47281
451,13.2462,1.54262,-2.48213
451.6,13.2649,1.52206,-2.49035
452.2,13.2836,1.50363,-2.49985
452.8,13.3025,1.48457,-2.50847
453.4,13.3209,1.4774,-2.51725
454,13.3399,1.45621,-2.52653
454.6,13.3589,1.43433,-2.53523
455.2,13.3774,1.41962,-2.54485
455.8,13.3961,1.40539,-2.55334
456.4,13.4148,1.39857,-2.56333
457,13.4338,1.37532,-2.57122
457.6,13.4523,1.35494,-2.58126
458.2,13.471,1.33417,-2.58923
458.8,13.4894,1.31158,-2.59966
459.4,13.5085,1.29211,-2.60771
460,13.5272,1.27487,-2.61775
460.6,13.5458,1.2474,-2.62576
461.2,13.5647,1.23373,-2.63565
461.8,13.5829,1.21525,-2.64417
462.4,13.6017,1.19611,-2.65375
463,13.6207,1.17126,-2.66285
463.6,13.64,1.15496,-2.67207
464.2,13.6586,1.13498,-2.68173
464.8,13.6775,1.11738,-2.69102
465.4,13.6959,1.10028,-2.70186
466,13.715,1.07805,-2.70977
466.6,13.734,1.0671,-2.72048
467.2,13.7526,1.05128,-2.72866
467.8,13.7717,1.03154,-2.73945
468.4,13.7905,1.02461,-2.74821
469,13.8092,1.00376,-2.75994
469.6,13.8279,0.986145,-2.76881
470.2,13.8469,0.968025,-2.77956
470.8,13.8657,0.952792,-2.78828
471.4,13.8845,0.947422,-2.7989
472,13.9035,0.932395,-2.8087
472.6,13.9223,0.933495,-2.81978
473.2,13.941,0.928577,-2.82997
473.8,13.9601,0.915764,-2.83997
474.4,13.9791,0.917924,-2.84993
475,13.9979,0.915465,-2.85917
475.6,14.0168,0.907551,-2.87023
476.2,14.0358,0.900573,-2.87994
476.8,14.0544,0.891132,-2.89064
477.4,14.0733,0.89227,-2.89857
478,14.092,0.88923,-2.90946
478.6,14.1107,0.895016,-2.91812
479.2,14.13,0.897539,-2.92992
479.8,14.1487,0.906587,-2.93874
480.4,14.1676,0.898843,-2.95016
481,14.1871,0.904273,-2.95967
481.6,14.2055,0.910552,-2.97094
482.2,14.2243,0.91639,-2.98039
482.8,14.2432,0.926724,-2.99064
483.4,14.2623,0.937949,-2.99927
484,14.2811,0.963123,-3.00844
484.6,14.3001,0.978847,-3.0185
485.2,14.3189,0.9854,-3.02839
485.8,14.3376,0.995827,-3.03818
486.4,14.3564,1.02916,-3.04622
487,14.3751,1.04909,-3.05596
487.6,14.3942,1.058,-3.06432
488.2,14.4131,1.08599,-3.07384
488.8,14.4318,1.11277,-3.08117
489.4,14.4508,1.14497,-3.09094
490,14.4696,1.1733,-3.09854
490.6,14.4882,1.2035,-3.10706
491.2,14.5073,1.24589,-3.11412
491.8,14.5263,1.27799,-3.12332
492.4,14.5453,1.31751,-3.13014
493,14.5638,1.3625,-3.13736
493.6,14.5826,1.4017,-3.14354
494.2,14.6014,1.45069,-3.15028
494.8,14.6203,1.50007,-3.15788
495.4,14.639,1.54555,-3.16349
496,14.6577,1.58852,-3.16977
496.6,14.6768,1.64456,-3.17551
497.2,14.6952,1.7004,-3.18207
497.8,14.7138,1.75956,-3.18702
498.4,14.7333,1.81283,-3.19261
499,14.7519,1.86511,-3.19645
499.6,14.7711,1.91702,-3.20123
500.2,14.7894,1.96932,-3.20495
500.8,14.8086,2.01561,-3.20894
501.4,14.8274,2.07111,-3.21162
502,14.8461,2.11786,-3.21286
502.6,14.865,2.17022,-3.21531
503.2,14.8837,2.20498,-3.21864
503.8,14.9027,2.255,-3.22154
504.4,14.9212,2.29165,-3.22391
505,14.9399,2.33626,-3.22606
505.6,14.9588,2.37363,-3.22795
506.2,14.9783,2.40301,-3.22969
506.8,14.9971,2.4232,-3.23127
507.4,15.0161,2.47065,-3.23293
508,15.035,2.48982,-3.23454
508.6,15.0537,2.51883,-3.2354
509.2,15.073,2.54376,-3.23691
509.8,15.092,2.56635,-3.23735
510.4,15.1108,2.58482,-3.23825
511,15.1298,2.61208,-3.23933
511.6,15.1489,2.62048,-3.23979
512.2,15.1679,2.63453,-3.24119
512.8,15.1872,2.65413,-3.24123
513.4,15.206,2.66963,-3.24279
514,15.225,2.68372,-3.2423
514.6,15.244,2.69665,-3.24225
515.2,15.2633,2.70503,-3.24285
515.8,15.2821,2.71488,-3.24289
516.4,15.3011,2.72508,-3.24423
517,15.3206,2.73353,-3.24419
517.6,15.3393,2.75075,-3.24545
518.2,15.3584,2.75769,-3.2455
518.8,15.3772,2.76171,-3.24564
519.4,15.3966,2.76432,-3.24691
520,15.4155,2.76973,-3.24684
520.6,15.4348,2.77383,-3.24683
521.2,15.4538,2.77776,-3.24682
521.8,15.4728,2.78702,-3.24663
522.4,15.4917,2.79785,-3.24651
523,15.511,2.80806,-3.2465
523.6,15.5298,2.81554,-3.2465
524.2,15.5492,2.82199,-3.24675
524.8,15.5684,2.82215,-3.24786
525.4,15.5875,2.8259,-3.24782
526,15.6064,2.82907,-3.24782
526.6,15.6254,2.83684,-3.24781
527.2,15.6448,2.8322,-3.24862
527.8,15.664,2.83369,-3.2491
528.4,15.6831,2.84031,-3.24914
529,15.7019,2.84426,-3.24925
529.6,15.7212,2.8467,-3.25045
530.2,15.7404,2.84554,-3.25045
530.8,15.7598,2.84505,-3.25045
531.4,15.7784,2.85012,-3.25045
532,15.7971,2.85157,-3.25045
532.6,15.817,2.86494,-3.25045
533.2,15.8363,2.85389,-3.25045
533.8,15.8552,2.85836,-3.25048
534.4,15.8743,2.85071,-3.2509
535,15.8935,2.86321,-3.25069
535.6,15.9125,2.85816,-3.25077
536.2,15.9317,2.857,-3.25078
536.8,15.9509,2.86252,-3.25078
537.4,15.9702,2.86658,-3.25078
538,15.9891,2.87147,-3.25078
538.6,16.0085,2.87037,-3.25078
539.2,16.0276,2.86432,-3.25079
539.8,16.0465,2.86842,-3.25113
540.4,16.0658,2.86391,-3.25214
541,16.0852,2.86506,-3.2521
541.6,16.1044,2.86866,-3.2521
542.2,16.1233,2.87905,-3.2521
542.8,16.1427,2.87388,-3.2521
543.4,16.1618,2.87327,-3.2521
544,16.1811,2.87112,-3.2521
544.6,16.2002,2.86496,-3.2521
545.2,16.2195,2.85366,-3.25269
545.8,16.2388,2.85269,-3.25349
546.4,16.2578,2.85448,-3.2521
547,16.2765,2.85237,-3.25209
547.6,16.2962,2.85435,-3.25209
548.2,16.3155,2.85173,-3.25209
548.8,16.3345,2.85144,-3.25209
549.4,16.3538,2.84158,-3.25209
550,16.3727,2.84989,-3.25209
550.6,16.3922,2.85325,-3.25209
551.2,16.4114,2.84693,-3.25207
551.8,16.4305,2.85503,-3.2531
552.4,16.4499,2.84893,-3.25341
553,16.4692,2.84413,-3.25341
553.6,16.4881,2.84751,-3.25341
554.2,16.5075,2.84505,-3.25341
554.8,16.5266,2.84879,-3.25341
555.4,16.5462,2.83707,-3.25341
556,16.5651,2.84265,-3.25341
556.6,16.5846,2.84082,-3.25341
557.2,16.6036,2.84431,-3.25341
557.8,16.6228,2.83773,-3.25341
558.4,16.6422,2.83788,-3.25341
559,16.6614,2.84772,-3.25341
559.6,16.6804,2.84573,-3.25341
560.2,16.7,2.84578,-3.25341
560.8,16.7189,2.84748,-3.25341
561.4,16.7385,2.84554,-3.2546
562,16.7578,2.8377,-3.25472
562.6,16.7769,2.83066,-3.25473
563.2,16.796,2.83761,-3.25473
563.8,16.8153,2.84819,-3.25473
564.4,16.8347,2.84983,-3.25473
565,16.854,2.84905,-3.25473
565.6,16.8731,2.84268,-3.25473
566.2,16.8923,2.84175,-3.25473
566.8,16.9116,2.84777,-3.25473
567.4,16.931,2.83828,-3.25473
568,16.9502,2.83967,-3.25473
568.6,16.9694,2.83824,-3.25507
569.2,16.9885,2.8344,-3.25505
569.8,17.0077,2.83896,-3.25592
570.4,17.0271,2.83925,-3.25604
571,17.0464,2.84078,-3.25605
571.6,17.0657,2.84466,-3.25605
572.2,17.0848,2.84445,-3.25605
572.8,17.1042,2.84587,-3.25605
573.4,17.1237,2.83954,-3.25605
574,17.1428,2.84139,-3.25605
574.6,17.1621,2.84542,-3.25609
575.2,17.1815,2.85126,-3.25534
575.8,17.2006,2.84868,-3.2554
576.4,17.2199,2.84839,-3.2554
577,17.2394,2.8538,-3.2554
577.6,17.2589,2.85068,-3.25541
578.2,17.2778,2.848,-3.25592
578.8,17.2973,2.85347,-3.25604
579.4,17.3166,2.84331,-3.25605
580,17.3361,2.83652,-3.25605
580.6,17.3555,2.84432,-3.25609
581.2,17.3749,2.84439,-3.25578
581.8,17.3941,2.84957,-3.25604
582.4,17.4134,2.83596,-3.25605
583,17.4328,2.83515,-3.25603
583.6,17.4525,2.84096,-3.2558
584.2,17.4716,2.84015,-3.25539
584.8,17.4909,2.83955,-3.25522
585.4,17.5106,2.84847,-3.25475
586,17.5296,2.83369,-3.25473
586.6,17.549,2.83166,-3.25473
587.2,17.5685,2.83053,-3.25472
587.8,17.588,2.82752,-3.25561
588.4,17.6069,2.83181,-3.25571
589,17.6259,2.83196,-3.25572
589.6,17.6462,2.83148,-3.25569
590.2,17.6656,2.82433,-3.25608
590.8,17.6847,2.82713,-3.25605
591.4,17.7042,2.83246,-3.25605
592,17.7234,2.82118,-3.25606
592.6,17.7431,2.8207,-3.25513
593.2,17.7626,2.82561,-3.25475
593.8,17.782,2.8238,-3.25473
594.4,17.8011,2.82487,-3.25473
595,17.821,2.82146,-3.25473
595.6,17.8401,2.81554,-3.25473
596.2,17.8597,2.81204,-3.25473
596.8,17.8792,2.82246,-3.25473
597.4,17.8987,2.82294,-3.25495
598,17.9181,2.82544,-3.25609
598.6,17.9374,2.82875,-3.25605
599.2,17.9569,2.82834,-3.25605
599.8,17.9766,2.82228,-3.25605
600.4,17.9958,2.82454,-3.25605
601,18.0155,2.82059,-3.25605
601.6,18.0347,2.82795,-3.25605
602.2,18.0544,2.82909,-3.25605
602.8,18.0736,2.82876,-3.25605
603.4,18.0929,2.8224,-3.25605
604,18.1127,2.82505,-3.25605
604.6,18.1322,2.82245,-3.25605
605.2,18.1514,2.82314,-3.25605
605.8,18.1711,2.8214,-3.25608
606.4,18.1908,2.81786,-3.25676
607,18.2101,2.83075,-3.25607
607.6,18.2296,2.8276,-3.25605
608.2,18.2491,2.81709,-3.25605
608.8,18.2687,2.81962,-3.25603
609.4,18.2881,2.82357,-3.2568
610,18.3076,2.8228,-3.25737
610.6,18.3271,2.81439,-3.25737
611.2,18.3465,2.81446,-3.25836
611.8,18.3664,2.82118,-3.25808
612.4,18.386,2.81629,-3.25735
613,18.4052,2.81451,-3.25736
613.6,18.425,2.81387,-3.25736
614.2,18.4438,2.81956,-3.25736
614.8,18.4633,2.81892,-3.25736
615.4,18.4826,2.81286,-3.25736
616,18.5027,2.81161,-3.25736
616.6,18.5223,2.82148,-3.25736
617.2,18.5417,2.82355,-3.25736
617.8,18.5615,2.83219,-3.25736
618.4,18.5811,2.81934,-3.25736
619,18.6006,2.82313,-3.25736
619.6,18.62,2.82779,-3.25736
620.2,18.6396,2.82494,-3.25736
620.8,18.659,2.82692,-3.25736
621.4,18.6787,2.82151,-3.25736
622,18.698,2.824,-3.25738
622.6,18.7176,2.82505,-3.25787
623.2,18.7371,2.82791,-3.25801
623.8,18.7569,2.82366,-3.25802
624.4,18.7765,2.83497,-3.25802
625,18.796,2.83738,-3.25799
625.6,18.8155,2.83568,-3.25856
626.2,18.835,2.83857,-3.25876
626.8,18.8547,2.83613,-3.25739
627.4,18.8746,2.83104,-3.25737
628,18.8937,2.83891,-3.25737
628.6,18.9135,2.83735,-3.25737
629.2,18.9329,2.84521,-3.25737
629.8,18.9529,2.84358,-3.25737
630.4,18.9721,2.84527,-3.25738
631,18.992,2.84611,-3.25749
631.6,19.0111,2.8431,-3.25869
632.2,19.031,2.84318,-3.25869
632.8,19.0506,2.84768,-3.25869
633.4,19.0701,2.8488,-3.25869
634,19.0899,2.85647,-3.25869
634.6,19.1089,2.84965,-3.25869
635.2,19.129,2.85283,-3.25869
635.8,19.1486,2.85571,-3.25869
636.4,19.1679,2.86173,-3.25869
637,19.1878,2.859,-3.25869
637.6,19.2073,2.85698,-3.25866
638.2,19.2269,2.86469,-3.25927
638.8,19.2466,2.85974,-3.25934
639.4,19.2664,2.86518,-3.25917
640,19.2857,2.86462,-3.25798
640.6,19.3054,2.86221,-3.25803
641.2,19.3249,2.86936,-3.25804
641.8,19.3447,2.87308,-3.25814
642.4,19.3642,2.86512,-3.25871
643,19.3838,2.8624,-3.25868
643.6,19.4034,2.87041,-3.25868
644.2,19.423,2.87094,-3.25868
644.8,19.4427,2.86961,-3.25868
645.4,19.4622,2.87018,-3.25868
646,19.4819,2.87413,-3.25868
646.6,19.5014,2.87517,-3.25868
647.2,19.5213,2.87323,-3.25868
647.8,19.5408,2.86911,-3.25868
648.4,19.5605,2.87111,-3.25869
649,19.5798,2.86884,-3.25999
649.6,19.5993,2.87927,-3.26001
650.2,19.6192,2.87661,-3.259
650.8,19.6391,2.877,-3.25902
651.4,19.6586,2.88699,-3.25901
652,19.6783,2.88692,-3.25872
652.6,19.6981,2.88517,-3.25919
653.2,19.7176,2.89184,-3.25968
653.8,19.7373,2.89629,-3.25968
654.4,19.7569,2.89509,-3.2599
655,19.7763,2.89898,-3.25999
655.6,19.7961,2.90339,-3.26
656.2,19.8157,2.9102,-3.26
656.8,19.8354,2.9155,-3.26
657.4,19.8552,2.91362,-3.26
658,19.8747,2.91181,-3.26001
658.6,19.8943,2.9154,-3.2601
659.2,19.9141,2.91554,-3.26069
659.8,19.9337,2.9188,-3.26068
660.4,19.9533,2.92441,-3.26084
661,19.9731,2.92877,-3.2613
661.6,19.9926,2.93197,-3.26132
662.2,20.0125,2.9308,-3.26129
662.8,20.0323,2.92982,-3.26028
663.4,20.0517,2.92972,-3.26033
664,20.0711,2.93453,-3.26033
664.6,20.091,2.93964,-3.26033
665.2,20.1108,2.93267,-3.26033
665.8,20.1304,2.93734,-3.26033
666.4,20.1501,2.93795,-3.26033
667,20.1696,2.95429,-3.26033
667.6,20.1894,2.9507,-3.26033
668.2,20.209,2.9609,-3.26033
668.8,20.2287,2.96434,-3.26035
669.4,20.2484,2.96026,-3.26115
670,20.2679,2.96078,-3.26168
670.6,20.2877,2.96435,-3.26129
671.2,20.3073,2.96457,-3.26131
671.8,20.3269,2.96146,-3.26131
672.4,20.3467,2.96212,-3.26131
673,20.3665,2.96312,-3.26128
673.6,20.3862,2.96557,-3.26026
674.2,20.4056,2.96615,-3.261
674.8,20.4255,2.96876,-3.26099
675.4,20.4451,2.97882,-3.26099
676,20.4648,2.98071,-3.26099
676.6,20.4846,2.99243,-3.26099
677.2,20.5045,2.99621,-3.26099
677.8,20.524,2.99473,-3.261
678.4,20.5436,3.00721,-3.26109
679,20.5634,3.01118,-3.26131
679.6,20.5831,3.02092,-3.26132
680.2,20.603,3.02164,-3.26132
680.8,20.6226,3.02024,-3.26132
681.4,20.6421,3.01748,-3.26132
682,20.6618,3.02254,-3.26132
682.6,20.6816,3.01699,-3.26131
683.2,20.7012,3.02172,-3.26206
683.8,20.721,3.03209,-3.26263
684.4,20.7409,3.02626,-3.26264
685,20.7603,3.02417,-3.26264
685.6,20.7802,3.02296,-3.26264
686.2,20.7999,3.01983,-3.26264
686.8,20.8195,3.02025,-3.26264
687.4,20.8393,3.02716,-3.26259
688,20.8592,3.02399,-3.26396
688.6,20.8791,3.02796,-3.26401
689.2,20.8987,3.03243,-3.26286
689.8,20.9181,3.03591,-3.26265
690.4,20.9381,3.03518,-3.26264
691,20.9578,3.04253,-3.26264
691.6,20.9775,3.03689,-3.26264
692.2,20.9973,3.04006,-3.26264
692.8,21.0168,3.03684,-3.26264
693.4,21.0369,3.04268,-3.26264
694,21.0562,3.05249,-3.26267
694.6,21.0762,3.05238,-3.2632
695.2,21.0957,3.05795,-3.26396
695.8,21.1156,3.05816,-3.26395
696.4,21.1353,3.06172,-3.26395
697,21.1549,3.07518,-3.26395
697.6,21.175,3.06576,-3.26395
698.2,21.1945,3.06563,-3.26396
698.8,21.2139,3.0663,-3.26325
699.4,21.2339,3.06671,-3.26296
700,21.2539,3.076,-3.26296
700.6,21.2732,3.07066,-3.26296
701.2,21.2933,3.07478,-3.26293
701.8,21.3131,3.07546,-3.26381
702.4,21.3326,3.07009,-3.26528
703,21.3527,3.06143,-3.26527
703.6,21.3722,3.05287,-3.26527
704.2,21.3923,3.06477,-3.26527
704.8,21.412,3.06768,-3.26509
705.4,21.4316,3.06815,-3.2639
706,21.4516,3.06853,-3.26393
706.6,21.4711,3.07137,-3.26468
707.2,21.491,3.07959,-3.26526
707.8,21.5106,3.0836,-3.26516
708.4,21.5307,3.07989,-3.26388
709,21.5503,3.08597,-3.26395
709.6,21.5696,3.10029,-3.26396
710.2,21.5901,3.0937,-3.26396
710.8,21.6099,3.09311,-3.26396
711.4,21.6295,3.09043,-3.26396
712,21.6493,3.0925,-3.26396
712.6,21.6694,3.09594,-3.26396
713.2,21.6891,3.10547,-3.26396
713.8,21.7088,3.11188,-3.26396
714.4,21.7283,3.11019,-3.26396
715,21.7485,3.10887,-3.26396
715.6,21.7684,3.1134,-3.26514
716.2,21.7879,3.11754,-3.2647
716.8,21.808,3.12036,-3.26398
717.4,21.8277,3.12447,-3.26396
718,21.8473,3.12352,-3.26396
718.6,21.8672,3.12405,-3.2641
719.2,21.8872,3.13056,-3.26533
719.8,21.9071,3.13517,-3.26527
720.4,21.9271,3.12663,-3.26527
721,21.9464,3.12914,-3.26527
721.6,21.9666,3.12879,-3.26527
722.2,21.9862,3.12441,-3.26527
722.8,22.0061,3.1316,-3.26517
723.4,22.026,3.13735,-3.26388
724,22.0459,3.15089,-3.26397
724.6,22.0655,3.14443,-3.26424
725.2,22.0855,3.15166,-3.26532
725.8,22.1052,3.14359,-3.26527
726.4,22.1252,3.14916,-3.26527
727,22.145,3.14177,-3.265
727.6,22.1649,3.13751,-3.2651
728.2,22.185,3.13567,-3.26524
728.8,22.2046,3.1405,-3.26527
729.4,22.2243,3.14289,-3.26527
730,22.2441,3.14304,-3.26527
730.6,22.2637,3.13921,-3.26527
731.2,22.284,3.14576,-3.26527
731.8,22.3038,3.15293,-3.26527
732.4,22.3238,3.15355,-3.26529
733,22.3433,3.1668,-3.26552
733.6,22.3636,3.1718,-3.2666
734.2,22.3835,3.17763,-3.26658
734.8,22.4034,3.18024,-3.26619
735.4,22.4229,3.18097,-3.26523
736,22.4427,3.17635,-3.26527
736.6,22.4627,3.17582,-3.26527
737.2,22.4828,3.18091,-3.26528
737.8,22.5019,3.17265,-3.26533
738.4,22.522,3.17645,-3.26663
739,22.542,3.17163,-3.26659
739.6,22.5622,3.18048,-3.26659
740.2,22.5823,3.18025,-3.26659
740.8,22.6022,3.18273,-3.2666
741.4,22.6222,3.17563,-3.26669
742,22.6419,3.18012,-3.26723
742.6,22.6618,3.17633,-3.26728
743.2,22.6819,3.17991,-3.2676
743.8,22.7014,3.18289,-3.26789
744.4,22.7214,3.18284,-3.2679
745,22.7413,3.17897,-3.2679
745.6,22.7614,3.17878,-3.26789
746.2,22.781,3.19172,-3.26778
746.8,22.801,3.19961,-3.2674
747.4,22.8206,3.19686,-3.26657
748,22.8406,3.194,-3.26659
748.6,22.8599,3.19504,-3.26691
749.2,22.8799,3.19114,-3.26692
749.8,22.9006,3.1935,-3.26635
750.4,22.9206,3.20137,-3.26565
751,22.9404,3.20252,-3.26659
751.6,22.9602,3.20046,-3.26659
752.2,22.9802,3.1938,-3.26659
752.8,23.0002,3.19304,-3.26664
753.4,23.02,3.1975,-3.26822
754,23.0397,3.19249,-3.26824
754.6,23.0598,3.19403,-3.26824
755.2,23.0796,3.2006,-3.26827
755.8,23.0997,3.20239,-3.26892
756.4,23.1197,3.20227,-3.2689
757,23.1395,3.20069,-3.26891
757.6,23.1594,3.20691,-3.26948
758.2,23.1795,3.20832,-3.27023
758.8,23.1994,3.20888,-3.27022
759.4,23.2194,3.21085,-3.27022
760,23.2391,3.21756,-3.27022
760.6,23.2592,3.20924,-3.27022
761.2,23.2794,3.21578,-3.26892
761.8,23.2989,3.22049,-3.2689
762.4,23.3191,3.22173,-3.2689
763,23.3388,3.22321,-3.2689
763.6,23.3591,3.22957,-3.2689
764.2,23.3788,3.23073,-3.26912
764.8,23.3986,3.2375,-3.27024
765.4,23.4188,3.23767,-3.27021
766,23.4385,3.24185,-3.27021
766.6,23.4585,3.24329,-3.27021
767.2,23.4784,3.24283,-3.27021
767.8,23.4983,3.24685,-3.26901
768.4,23.5182,3.24968,-3.26944
769,23.5382,3.24983,-3.26951
769.6,23.5583,3.24935,-3.26986
770.2,23.5782,3.25179,-3.27023
770.8,23.5978,3.2557,-3.27021
771.4,23.6177,3.25435,-3.27021
772,23.6379,3.2537,-3.27021
772.6,23.6579,3.26767,-3.27021
773.2,23.6775,3.26841,-3.27021
773.8,23.6977,3.26677,-3.27038
774.4,23.7174,3.27299,-3.27158
775,23.7374,3.27837,-3.27152
775.6,23.7573,3.27321,-3.27109
776.2,23.7773,3.27173,-3.27018
776.8,23.7975,3.27567,-3.27021
777.4,23.8171,3.29135,-3.27022
778,23.8373,3.28441,-3.27063
778.6,23.8568,3.28405,-3.27155
779.2,23.8771,3.29487,-3.27159
779.8,23.8972,3.29459,-3.27081
780.4,23.9167,3.29266,-3.27065
781,23.9368,3.29106,-3.27055
781.6,23.9566,3.29822,-3.27053
782.2,23.9768,3.30716,-3.27044
782.8,23.9965,3.31478,-3.27162
783.4,24.0166,3.30508,-3.27154
784,24.0368,3.31322,-3.27153
784.6,24.0566,3.30806,-3.27153
785.2,24.0766,3.31232,-3.27153
785.8,24.0961,3.31801,-3.27153
786.4,24.1157,3.32683,-3.27153
787,24.1363,3.33096,-3.27153
787.6,24.1561,3.32967,-3.27152
788.2,24.1762,3.32769,-3.27122
788.8,24.1962,3.32877,-3.27016
789.4,24.2159,3.33048,-3.27114
790,24.2363,3.34404,-3.27151