File: 01_Data/Neoprene_SCBA_Face_Seal/STA/N2/30K_min/Neoprene_SCBA_Face_Seal_STA_N2_30KData_250915_R3.csv
Temp./C,Time/min,DSC/(mW/mg),Mass loss/mg
40.0,0.0,1.62717,0.000430155
40.6,0.0394537,1.70357,0.000118505
41.2,0.0767897,1.77055,-0.000297324
41.8,0.113756,1.84258,-0.000306006
42.4,0.149205,1.9048,-0.0015057
43,0.184233,1.96423,-0.00124355
43.6,0.21809,2.03709,-0.0011349
44.2,0.250141,2.09304,-0.00185507
44.8,0.282883,2.15215,-0.00191465
45.4,0.316357,2.2036,-0.00192881
46,0.348192,2.26928,-0.00108155
46.6,0.379164,2.30638,-0.000534388
47.2,0.410325,2.35163,-0.00151231
47.8,0.440575,2.41088,-0.00234079
48.4,0.470392,2.44899,-0.00217899
49,0.499646,2.49457,-0.00217823
49.6,0.528454,2.5432,-0.00131682
50.2,0.557222,2.58353,-0.00107218
50.8,0.586549,2.64171,-0.00183194
51.4,0.614776,2.68075,-0.00247547
52,0.642656,2.72079,-0.00187731
52.6,0.670475,2.75984,-0.00148044
53.2,0.697703,2.8056,-0.00129293
53.8,0.724377,2.83144,-0.00171946
54.4,0.752674,2.88243,-0.0029006
55,0.779317,2.9345,-0.00258437
55.6,0.806192,2.98288,-0.00319945
56.2,0.832293,3.02847,-0.00376028
56.8,0.859014,3.07495,-0.00321701
57.4,0.88443,3.13202,-0.0031006
58,0.91131,3.19213,-0.00241264
58.6,0.937349,3.2498,-0.00251887
59.2,0.963181,3.29715,-0.00337576
59.8,0.988524,3.3302,-0.00358155
60.4,1.01358,3.363,-0.00348702
61,1.03855,3.37741,-0.00303191
61.6,1.0637,3.39221,-0.00285196
62.2,1.08853,3.41246,-0.00138291
62.8,1.1131,3.42585,-0.00110394
63.4,1.1384,3.44352,-0.00120942
64,1.16245,3.46209,-0.0014213
64.6,1.18675,3.48297,-0.00201634
65.2,1.21108,3.49644,-0.00188231
65.8,1.23524,3.51991,-0.00293766
66.4,1.25941,3.53179,-0.0036019
67,1.28394,3.55008,-0.00368946
67.6,1.30728,3.56768,-0.00433121
68.2,1.33144,3.58322,-0.00410113
68.8,1.3549,3.59886,-0.00400103
69.4,1.37861,3.61211,-0.00407448
70,1.40295,3.64169,-0.00532358
70.6,1.42679,3.65685,-0.005199
71.2,1.4503,3.68739,-0.00519988
71.8,1.47364,3.7059,-0.00586033
72.4,1.49729,3.7135,-0.0057854
73,1.52045,3.70848,-0.00424585
73.6,1.54378,3.72318,-0.00397204
74.2,1.56683,3.73256,-0.00493218
74.8,1.59089,3.78389,-0.00439662
75.4,1.61369,3.8237,-0.00538228
76,1.63687,3.84955,-0.00645237
76.6,1.65964,3.87133,-0.00572322
77.2,1.68296,3.89761,-0.00674853
77.8,1.70595,3.93114,-0.00699006
78.4,1.72915,3.94844,-0.00686977
79,1.75199,3.96049,-0.00693877
79.6,1.77475,3.99094,-0.00705131
80.2,1.79741,4.00455,-0.0070289
80.8,1.82015,4.03185,-0.00615038
81.4,1.84302,4.05475,-0.00706449
82,1.86508,4.07492,-0.00705489
82.6,1.8877,4.09506,-0.00706102
83.2,1.90983,4.10884,-0.00689516
83.8,1.93226,4.12496,-0.00689129
84.4,1.95462,4.14665,-0.00707069
85,1.97674,4.16681,-0.00748764
85.6,1.9989,4.1906,-0.00837287
86.2,2.02106,4.20491,-0.0095201
86.8,2.0431,4.22287,-0.00840116
87.4,2.06481,4.2313,-0.00819687
88,2.08681,4.25549,-0.00858136
88.6,2.10912,4.2579,-0.00956084
89.2,2.13059,4.28367,-0.00980794
89.8,2.15275,4.30592,-0.00896
90.4,2.17455,4.32539,-0.00987765
91,2.19645,4.32566,-0.00912328
91.6,2.21743,4.34845,-0.00944635
92.2,2.23913,4.36654,-0.00994329
92.8,2.26089,4.37938,-0.00869097
93.4,2.2821,4.39087,-0.00994518
94,2.30326,4.39775,-0.00996668
94.6,2.3248,4.42113,-0.00857052
95.2,2.34565,4.44974,-0.00994276
95.8,2.36773,4.46235,-0.00902494
96.4,2.38876,4.47994,-0.00927699
97,2.41,4.48456,-0.00985596
97.6,2.43127,4.49942,-0.00988437
98.2,2.4526,4.50773,-0.00891931
98.8,2.47347,4.52107,-0.0099315
99.4,2.49433,4.52393,-0.00987726
100,2.5154,4.52195,-0.00955086
100.6,2.53674,4.53561,-0.00989259
101.2,2.55709,4.53931,-0.00987705
101.8,2.57794,4.54689,-0.0100094
102.4,2.59916,4.55434,-0.0102705
103,2.61974,4.55429,-0.00982513
103.6,2.641,4.55684,-0.0111358
104.2,2.66163,4.57413,-0.0111954
104.8,2.68252,4.60812,-0.011153
105.4,2.70296,4.62871,-0.0112826
106,2.7239,4.62325,-0.0112026
106.6,2.74461,4.62324,-0.0112063
107.2,2.7653,4.61088,-0.0118028
107.8,2.78588,4.6222,-0.0125079
108.4,2.80613,4.62212,-0.0111561
109,2.82706,4.63211,-0.0112583
109.6,2.84733,4.63298,-0.0125183
110.2,2.86811,4.62455,-0.0119103
110.8,2.88842,4.62573,-0.0112149
111.4,2.90902,4.62787,-0.0111917
112,2.92978,4.63985,-0.0111884
112.6,2.95001,4.63998,-0.011165
113.2,2.97025,4.64825,-0.010694
113.8,2.99122,4.65119,-0.0109462
114.4,3.01131,4.66313,-0.011189
115,3.03164,4.67779,-0.0112988
115.6,3.05195,4.68619,-0.0125959
116.2,3.0722,4.68163,-0.0125337
116.8,3.0927,4.68927,-0.0114073
117.4,3.11299,4.69366,-0.0111656
118,3.13292,4.70776,-0.0123921
118.6,3.15282,4.7133,-0.0125027
119.2,3.17281,4.715,-0.0125094
119.8,3.1935,4.73004,-0.01251
120.4,3.21407,4.7373,-0.01251
121,3.23413,4.75267,-0.01251
121.6,3.25431,4.76007,-0.0125096
122.2,3.27402,4.77816,-0.0125043
122.8,3.29425,4.77556,-0.0124417
123.4,3.31468,4.78503,-0.0132168
124,3.33471,4.80245,-0.0124983
124.6,3.35424,4.81361,-0.0136976
125.2,3.37428,4.82315,-0.0138187
125.8,3.39445,4.83073,-0.0138153
126.4,3.41447,4.83907,-0.0128799
127,3.43372,4.84421,-0.0137357
127.6,3.45403,4.86135,-0.013823
128.2,3.47296,4.86787,-0.0138277
128.8,3.49328,4.88548,-0.0138097
129.4,3.51321,4.89864,-0.013062
130,3.53294,4.9038,-0.0125174
130.6,3.55247,4.91625,-0.0125198
131.2,3.57241,4.92087,-0.0125201
131.8,3.59192,4.94221,-0.0125218
132.4,3.61141,4.95174,-0.0125441
133,3.63117,4.95303,-0.0129219
133.6,3.65076,4.9578,-0.0138378
134.2,3.67062,4.96884,-0.0138309
134.8,3.69023,4.97468,-0.0138349
135.4,3.70925,4.98427,-0.0138868
136,3.72874,5.00252,-0.0131504
136.6,3.74827,5.01628,-0.0124403
137.2,3.76772,5.01536,-0.0125319
137.8,3.78623,5.02742,-0.0138377
138.4,3.80628,5.03309,-0.0138285
139,3.82566,5.04622,-0.0138292
139.6,3.84512,5.0611,-0.0138367
140.2,3.86422,5.06846,-0.0125531
140.8,3.8831,5.07108,-0.0125171
141.4,3.90279,5.08171,-0.0125106
142,3.92097,5.09061,-0.0125101
142.6,3.94126,5.10032,-0.0125099
143.2,3.96069,5.11445,-0.0125089
143.8,3.97952,5.12373,-0.0124981
144.4,3.99865,5.13738,-0.0128936
145,4.01776,5.14774,-0.0135248
145.6,4.03617,5.15326,-0.0138309
146.2,4.05562,5.15924,-0.0138304
146.8,4.07492,5.16637,-0.0138301
147.4,4.09406,5.17845,-0.01383
148,4.11285,5.19236,-0.01383
148.6,4.13198,5.20389,-0.01383
149.2,4.15075,5.21525,-0.01383
149.8,4.17017,5.21431,-0.01383
150.4,4.18837,5.2325,-0.01383
151,4.20785,5.23985,-0.01383
151.6,4.22695,5.24492,-0.01383
152.2,4.24582,5.25656,-0.0138299
152.8,4.26449,5.25814,-0.0138324
153.4,4.28333,5.26602,-0.0126694
154,4.30208,5.27832,-0.0126617
154.6,4.32106,5.2937,-0.0132016
155.2,4.33908,5.29237,-0.0132219
155.8,4.35902,5.30676,-0.0138458
156.4,4.37765,5.31645,-0.01383
157,4.39622,5.31445,-0.0138288
157.6,4.41496,5.33425,-0.0138358
158.2,4.43394,5.33963,-0.0146862
158.8,4.45275,5.34218,-0.0151535
159.4,4.47142,5.34856,-0.0151504
160,4.49027,5.35751,-0.01515
160.6,4.50883,5.37114,-0.01515
161.2,4.52773,5.37788,-0.01515
161.8,4.54643,5.37966,-0.0151498
162.4,4.56493,5.39263,-0.015151
163,4.58385,5.39345,-0.0151885
163.6,4.60223,5.40037,-0.0142062
164.2,4.62123,5.41372,-0.0141635
164.8,4.63973,5.42135,-0.0141603
165.4,4.65828,5.42063,-0.01416
166,4.67719,5.4351,-0.01416
166.6,4.69552,5.44964,-0.01416
167.2,4.71427,5.43392,-0.0141605
167.8,4.73286,5.45748,-0.0141713
168.4,4.75117,5.46199,-0.0144855
169,4.7701,5.46212,-0.0155357
169.6,4.78881,5.47438,-0.0154837
170.2,4.80663,5.48817,-0.0154797
170.8,4.82586,5.49951,-0.0154777
171.4,4.84462,5.51159,-0.0155188
172,4.86277,5.5165,-0.0144371
172.6,4.88122,5.52242,-0.0144842
173.2,4.90045,5.53077,-0.0144941
173.8,4.91859,5.53747,-0.014508
174.4,4.93712,5.54507,-0.0148135
175,4.95543,5.55426,-0.0148112
175.6,4.97423,5.54732,-0.0147552
176.2,4.99266,5.56136,-0.0161097
176.8,5.01104,5.57105,-0.0161285
177.4,5.02885,5.58053,-0.0161299
178,5.0478,5.57932,-0.01613
178.6,5.06637,5.59305,-0.01613
179.2,5.08487,5.59452,-0.01613
179.8,5.10324,5.60018,-0.01613
180.4,5.12176,5.60268,-0.0161302
181,5.13984,5.61596,-0.0161322
181.6,5.1582,5.62551,-0.0161389
182.2,5.17643,5.63874,-0.0155262
182.8,5.19475,5.64899,-0.0151252
183.4,5.21315,5.65673,-0.0163765
184,5.23105,5.65334,-0.0164579
184.6,5.2494,5.67178,-0.0164688
185.2,5.26801,5.67438,-0.0164693
185.8,5.28581,5.68864,-0.0164756
186.4,5.3042,5.68779,-0.0168945
187,5.32235,5.69619,-0.0182311
187.6,5.3407,5.70471,-0.019151
188.2,5.35912,5.7232,-0.0191041
188.8,5.37718,5.726,-0.0191002
189.4,5.39567,5.73209,-0.0191
190,5.41365,5.74279,-0.0191
190.6,5.4318,5.74473,-0.0190996
191.2,5.45004,5.76548,-0.0190947
191.8,5.46803,5.76646,-0.0196919
192.4,5.48616,5.77401,-0.0203989
193,5.5043,5.78175,-0.0204114
193.6,5.52247,5.78841,-0.0204103
194.2,5.54065,5.79599,-0.02041
194.8,5.55866,5.81143,-0.02041
195.4,5.57706,5.81687,-0.02041
196,5.595,5.82822,-0.02041
196.6,5.61289,5.83462,-0.02041
197.2,5.63097,5.83784,-0.02041
197.8,5.6492,5.84636,-0.02041
198.4,5.6675,5.85093,-0.02041
199,5.68522,5.86108,-0.02041
199.6,5.70353,5.86706,-0.02041
200.2,5.72159,5.87588,-0.0204102
200.8,5.7393,5.88533,-0.0204118
201.4,5.75766,5.89057,-0.0204277
202,5.77554,5.89883,-0.0217388
202.6,5.7935,5.90756,-0.0215972
203.2,5.81084,5.91432,-0.0203165
203.8,5.82916,5.92804,-0.0204129
204.4,5.84749,5.92772,-0.0204201
205,5.86546,5.93123,-0.0204166
205.6,5.88371,5.93768,-0.0203079
206.2,5.90148,5.94445,-0.0226518
206.8,5.91958,5.94755,-0.0230209
207.4,5.93745,5.95841,-0.0230291
208,5.95537,5.96569,-0.0237096
208.6,5.9736,5.97054,-0.024261
209.2,5.99171,5.97563,-0.0229663
209.8,6.00876,5.9853,-0.0230627
210.4,6.02715,5.9891,-0.0231248
211,6.04476,6.00191,-0.0243518
211.6,6.06375,6.00771,-0.0243668
212.2,6.08125,6.01029,-0.0243953
212.8,6.09879,6.01648,-0.0246608
213.4,6.11685,6.02974,-0.0256954
214,6.13462,6.03522,-0.0256897
214.6,6.15307,6.03639,-0.0256894
215.2,6.17134,6.04033,-0.0256815
215.8,6.18925,6.05084,-0.0264243
216.4,6.20733,6.04981,-0.0269916
217,6.22531,6.06274,-0.0270098
217.6,6.24298,6.0706,-0.0281391
218.2,6.26086,6.07881,-0.0282978
218.8,6.27894,6.08738,-0.0283127
219.4,6.2967,6.09206,-0.0287732
220,6.31476,6.09693,-0.0296497
220.6,6.33249,6.09641,-0.0296369
221.2,6.35033,6.10547,-0.0295409
221.8,6.3682,6.10992,-0.0308263
222.4,6.3865,6.11502,-0.0309588
223,6.40418,6.1191,-0.0309664
223.6,6.42196,6.12488,-0.0313183
224.2,6.43999,6.12566,-0.0322585
224.8,6.45794,6.1364,-0.0318514
225.4,6.47588,6.14265,-0.0330565
226,6.4936,6.15013,-0.0329666
226.6,6.51141,6.15559,-0.0343988
227.2,6.52929,6.15755,-0.0346392
227.8,6.54667,6.16028,-0.0360535
228.4,6.56495,6.16512,-0.0359963
229,6.58293,6.17284,-0.0372256
229.6,6.60081,6.18569,-0.0373148
230.2,6.61847,6.18381,-0.0380026
230.8,6.63646,6.18805,-0.0387257
231.4,6.65421,6.19326,-0.0393156
232,6.67225,6.20302,-0.0401158
232.6,6.69001,6.20152,-0.0403043
233.2,6.70778,6.19767,-0.0414344
233.8,6.72579,6.20997,-0.0417639
234.4,6.74347,6.21381,-0.0429619
235,6.76084,6.22114,-0.0439955
235.6,6.77902,6.22855,-0.0439776
236.2,6.79701,6.22546,-0.0438131
236.8,6.81454,6.23284,-0.0450686
237.4,6.83226,6.22947,-0.0451056
238,6.84975,6.23737,-0.0451747
238.6,6.86847,6.23781,-0.0465552
239.2,6.88631,6.24579,-0.0465074
239.8,6.90384,6.25003,-0.0479669
240.4,6.92195,6.25204,-0.0486627
241,6.93944,6.2587,-0.0494434
241.6,6.95744,6.26588,-0.0506645
242.2,6.9749,6.26211,-0.0512262
242.8,6.9931,6.26588,-0.0524879
243.4,7.0106,6.26573,-0.0537077
244,7.02846,6.27216,-0.0536708
244.6,7.0462,6.26846,-0.0542303
245.2,7.06407,6.27514,-0.055089
245.8,7.08201,6.2785,-0.0556321
246.4,7.09975,6.28125,-0.0567761
247,7.11743,6.28284,-0.0573467
247.6,7.13534,6.28575,-0.0587298
248.2,7.15291,6.29502,-0.0601321
248.8,7.17061,6.27896,-0.0605889
249.4,7.18864,6.28194,-0.0618682
250,7.2062,6.28704,-0.0640054
250.6,7.22404,6.29231,-0.0646405
251.2,7.24165,6.30188,-0.0663048
251.8,7.25974,6.29063,-0.067044
252.4,7.27754,6.29245,-0.0676758
253,7.29501,6.29826,-0.0691458
253.6,7.31284,6.29791,-0.0706434
254.2,7.33059,6.30455,-0.0714585
254.8,7.34832,6.30888,-0.0726791
255.4,7.36623,6.3057,-0.0744781
256,7.38378,6.29714,-0.0753669
256.6,7.40186,6.29654,-0.0769511
257.2,7.41959,6.30645,-0.0787169
257.8,7.43716,6.30424,-0.0806713
258.4,7.45499,6.30443,-0.0824225
259,7.47243,6.31937,-0.083802
259.6,7.49059,6.3225,-0.0842083
260.2,7.50812,6.3285,-0.0855199
260.8,7.5261,6.34253,-0.0864139
261.4,7.54363,6.33932,-0.0869509
262,7.56142,6.34482,-0.0885167
262.6,7.57959,6.35465,-0.0902202
263.2,7.59686,6.35572,-0.0918222
263.8,7.61481,6.33208,-0.0933643
264.4,7.63229,6.33429,-0.0954601
265,7.65017,6.31656,-0.097905
265.6,7.66766,6.3034,-0.0996248
266.2,7.68563,6.29726,-0.100806
266.8,7.70333,6.30568,-0.102341
267.4,7.72042,6.31296,-0.104105
268,7.73811,6.32082,-0.105806
268.6,7.75596,6.3221,-0.107733
269.2,7.77408,6.32408,-0.108663
269.8,7.79217,6.32853,-0.110139
270.4,7.80949,6.34046,-0.111827
271,7.82749,6.33605,-0.113816
271.6,7.84531,6.33621,-0.115924
272.2,7.86285,6.33461,-0.117675
272.8,7.88081,6.33555,-0.120073
273.4,7.8984,6.3403,-0.121151
274,7.9163,6.33644,-0.12314
274.6,7.93384,6.34195,-0.124886
275.2,7.95187,6.34256,-0.1266
275.8,7.96969,6.33604,-0.128585
276.4,7.98733,6.33833,-0.130574
277,8.0051,6.34085,-0.132475
277.6,8.02274,6.33828,-0.134252
278.2,8.04062,6.33897,-0.136344
278.8,8.05824,6.34236,-0.138582
279.4,8.07616,6.34176,-0.140843
280,8.09403,6.33857,-0.143578
280.6,8.11178,6.33036,-0.145764
281.2,8.12942,6.32824,-0.148642
281.8,8.14713,6.33062,-0.151514
282.4,8.16468,6.31975,-0.153606
283,8.18232,6.32605,-0.155227
283.6,8.20052,6.32172,-0.157049
284.2,8.21829,6.3125,-0.159123
284.8,8.23565,6.30705,-0.161404
285.4,8.25338,6.30395,-0.163515
286,8.27153,6.29579,-0.165234
286.6,8.28915,6.29404,-0.167561
287.2,8.30692,6.29406,-0.170341
287.8,8.32475,6.29696,-0.172244
288.4,8.34184,6.28212,-0.174496
289,8.35968,6.28169,-0.177692
289.6,8.37728,6.26686,-0.18018
290.2,8.39583,6.26249,-0.182752
290.8,8.41352,6.26123,-0.18512
291.4,8.43111,6.25177,-0.186892
292,8.44884,6.24515,-0.189357
292.6,8.46676,6.23384,-0.19184
293.2,8.48432,6.23283,-0.194751
293.8,8.5021,6.23532,-0.197358
294.4,8.52002,6.23365,-0.199258
295,8.53762,6.2188,-0.201918
295.6,8.55581,6.21116,-0.204924
296.2,8.57349,6.2025,-0.206907
296.8,8.59088,6.19061,-0.208716
297.4,8.60894,6.18642,-0.21038
298,8.62679,6.18558,-0.212682
298.6,8.64439,6.17598,-0.215457
299.2,8.66232,6.16283,-0.217432
299.8,8.67994,6.16046,-0.219646
300.4,8.69793,6.14697,-0.222169
301,8.71563,6.13943,-0.224565
301.6,8.73341,6.12389,-0.227546
302.2,8.75108,6.12005,-0.231156
302.8,8.76864,6.10396,-0.233753
303.4,8.78691,6.09053,-0.23607
304,8.80385,6.08254,-0.238417
304.6,8.8218,6.06907,-0.241237
305.2,8.84027,6.05653,-0.244027
305.8,8.85773,6.04954,-0.24564
306.4,8.87587,6.03939,-0.248164
307,8.89347,6.02849,-0.250769
307.6,8.9114,6.02669,-0.252476
308.2,8.92925,6.01435,-0.254986
308.8,8.94668,5.99835,-0.257711
309.4,8.96472,5.98293,-0.259721
310,8.98249,5.97097,-0.261626
310.6,9.00044,5.9629,-0.264784
311.2,9.01791,5.96282,-0.266986
311.8,9.0358,5.9471,-0.269254
312.4,9.05365,5.93073,-0.271541
313,9.07135,5.92366,-0.274493
313.6,9.08924,5.90083,-0.277026
314.2,9.1069,5.89967,-0.2785
314.8,9.12463,5.87953,-0.2802
315.4,9.14285,5.86474,-0.282952
316,9.16036,5.8599,-0.285359
316.6,9.17815,5.84505,-0.287641
317.2,9.19581,5.8361,-0.290001
317.8,9.21343,5.81328,-0.292975
318.4,9.2318,5.80372,-0.295767
319,9.24964,5.7978,-0.297694
319.6,9.26712,5.77959,-0.299694
320.2,9.28508,5.76176,-0.301434
320.8,9.3024,5.74111,-0.303343
321.4,9.32061,5.72708,-0.305383
322,9.3383,5.72862,-0.307253
322.6,9.35625,5.69652,-0.309712
323.2,9.37403,5.67751,-0.310838
323.8,9.39165,5.66251,-0.313989
324.4,9.40971,5.63767,-0.316732
325,9.42736,5.62828,-0.318555
325.6,9.44522,5.60963,-0.320653
326.2,9.46307,5.58563,-0.32267
326.8,9.48094,5.56867,-0.324969
327.4,9.49888,5.55003,-0.326929
328,9.51637,5.54322,-0.329571
328.6,9.53433,5.52562,-0.331479
329.2,9.55195,5.50921,-0.333324
329.8,9.56998,5.48308,-0.3355
330.4,9.58788,5.46752,-0.337171
331,9.60598,5.45076,-0.339537
331.6,9.62312,5.42696,-0.342068
332.2,9.64096,5.40466,-0.34407
332.8,9.65856,5.38303,-0.346138
333.4,9.67684,5.3653,-0.348296
334,9.69481,5.33687,-0.350358
334.6,9.7126,5.32014,-0.352937
335.2,9.73052,5.30678,-0.355246
335.8,9.74829,5.26718,-0.357067
336.4,9.76616,5.24519,-0.359366
337,9.78405,5.21372,-0.361038
337.6,9.8018,5.18794,-0.362941
338.2,9.81969,5.16278,-0.364798
338.8,9.83733,5.13937,-0.367227
339.4,9.85521,5.11442,-0.369614
340,9.87299,5.08255,-0.372167
340.6,9.89096,5.05838,-0.373285
341.2,9.9089,5.02855,-0.375292
341.8,9.92672,5.00004,-0.377285
342.4,9.9441,4.96513,-0.378521
343,9.96241,4.93434,-0.380521
343.6,9.98036,4.90953,-0.383172
344.2,9.99825,4.87276,-0.386028
344.8,10.0159,4.84572,-0.389105
345.4,10.0332,4.80611,-0.392706
346,10.0512,4.7677,-0.396903
346.6,10.069,4.74133,-0.400141
347.2,10.0874,4.70054,-0.402509
347.8,10.1052,4.66068,-0.404954
348.4,10.1228,4.62961,-0.407329
349,10.1411,4.59343,-0.408959
349.6,10.1589,4.5556,-0.41087
350.2,10.1768,4.50954,-0.414681
350.8,10.1946,4.47077,-0.417231
351.4,10.2116,4.42704,-0.420029
352,10.2301,4.37755,-0.42379
352.6,10.2481,4.32935,-0.426564
353.2,10.2659,4.28332,-0.429469
353.8,10.2839,4.23944,-0.432609
354.4,10.3016,4.19761,-0.435945
355,10.3193,4.15096,-0.439432
355.6,10.3373,4.10465,-0.442838
356.2,10.355,4.04323,-0.446871
356.8,10.373,4.00069,-0.450109
357.4,10.3907,3.94759,-0.45222
358,10.4085,3.89009,-0.456202
358.6,10.4267,3.83541,-0.460693
359.2,10.4447,3.784,-0.464083
359.8,10.4622,3.72796,-0.468916
360.4,10.4804,3.67156,-0.474107
361,10.498,3.61657,-0.478034
361.6,10.5159,3.55552,-0.48277
362.2,10.5332,3.50828,-0.487602
362.8,10.552,3.44291,-0.492874
363.4,10.5695,3.38879,-0.497989
364,10.5874,3.3263,-0.501592
364.6,10.6051,3.26541,-0.507461
365.2,10.6231,3.20449,-0.512224
365.8,10.6411,3.13623,-0.518514
366.4,10.6591,3.07547,-0.524128
367,10.6768,3.02312,-0.530373
367.6,10.6947,2.96593,-0.536427
368.2,10.7127,2.90137,-0.542455
368.8,10.7309,2.83072,-0.549534
369.4,10.7487,2.77683,-0.555661
370,10.7666,2.71745,-0.562962
370.6,10.7845,2.65207,-0.568689
371.2,10.8024,2.59148,-0.576867
371.8,10.8202,2.53497,-0.584159
372.4,10.8383,2.47079,-0.592955
373,10.8562,2.41648,-0.600934
373.6,10.8742,2.37068,-0.608783
374.2,10.8921,2.31909,-0.617398
374.8,10.9101,2.26723,-0.625567
375.4,10.9277,2.21913,-0.635589
376,10.946,2.16925,-0.644106
376.6,10.964,2.12226,-0.65516
377.2,10.9819,2.07458,-0.663704
377.8,11.0001,2.03705,-0.674732
378.4,11.0182,1.99426,-0.684652
379,11.036,1.95714,-0.695602
379.6,11.0542,1.92932,-0.706956
380.2,11.0724,1.88985,-0.71803
380.8,11.0903,1.85041,-0.73166
381.4,11.1083,1.81667,-0.74331
382,11.1268,1.78529,-0.758072
382.6,11.1446,1.77093,-0.768752
383.2,11.1624,1.75231,-0.782255
383.8,11.181,1.73218,-0.794995
384.4,11.1992,1.72986,-0.810037
385,11.2175,1.70934,-0.824365
385.6,11.2355,1.70054,-0.839553
386.2,11.2537,1.69186,-0.855494
386.8,11.2721,1.69338,-0.870776
387.4,11.29,1.70067,-0.88839
388,11.3086,1.70502,-0.904083
388.6,11.3266,1.70772,-0.923468
389.2,11.3449,1.73148,-0.938392
389.8,11.3632,1.73709,-0.958281
390.4,11.3818,1.76035,-0.974901
391,11.3999,1.78006,-0.995107
391.6,11.4184,1.79983,-1.01304
392.2,11.4365,1.8265,-1.03231
392.8,11.455,1.84015,-1.05158
393.4,11.473,1.86692,-1.07029
394,11.4918,1.9073,-1.09282
394.6,11.51,1.94091,-1.11215
395.2,11.5283,1.9865,-1.13604
395.8,11.5468,2.02177,-1.15487
396.4,11.5653,2.05019,-1.17935
397,11.5837,2.09598,-1.1981
397.6,11.6023,2.13677,-1.22237
398.2,11.6205,2.17777,-1.24226
398.8,11.639,2.21837,-1.26645
399.4,11.6577,2.26341,-1.28816
400,11.6762,2.30723,-1.31021
400.6,11.6946,2.34111,-1.33341
401.2,11.713,2.38056,-1.35575
401.8,11.7315,2.42515,-1.38047
402.4,11.75,2.46772,-1.40098
403,11.7686,2.5064,-1.42619
403.6,11.7869,2.54319,-1.44576
404.2,11.8054,2.58363,-1.47171
404.8,11.8238,2.62439,-1.49144
405.4,11.8424,2.6514,-1.51642
406,11.8609,2.68503,-1.536
406.6,11.8794,2.72238,-1.5594
407.2,11.8977,2.75367,-1.57999
407.8,11.9163,2.78014,-1.60214
408.4,11.9348,2.81096,-1.62235
409,11.9535,2.83933,-1.6409
409.6,11.9716,2.86916,-1.65907
410.2,11.99,2.8929,-1.67354
410.8,12.0086,2.92559,-1.69107
411.4,12.0274,2.94108,-1.70593
412,12.0455,2.95301,-1.72568
412.6,12.064,2.97094,-1.7412
413.2,12.0828,2.9925,-1.76208
413.8,12.101,3.00539,-1.77922
414.4,12.1193,3.01823,-1.79993
415,12.1384,3.03944,-1.81735
415.6,12.1563,3.03784,-1.83366
416.2,12.1749,3.05819,-1.84905
416.8,12.1935,3.07252,-1.86492
417.4,12.2121,3.08892,-1.88214
418,12.2305,3.09267,-1.89665
418.6,12.2489,3.09686,-1.91339
419.2,12.2674,3.11361,-1.92627
419.8,12.2861,3.12262,-1.94336
420.4,12.3044,3.13468,-1.95645
421,12.3228,3.15201,-1.97304
421.6,12.3416,3.15708,-1.98602
422.2,12.3599,3.15366,-2.00096
422.8,12.3784,3.15235,-2.01368
423.4,12.397,3.16401,-2.02704
424,12.4155,3.17943,-2.03941
424.6,12.4342,3.18307,-2.05154
425.2,12.4528,3.19281,-2.06396
425.8,12.4711,3.19937,-2.07479
426.4,12.4899,3.20443,-2.08772
427,12.5082,3.22423,-2.09793
427.6,12.5267,3.22025,-2.11108
428.2,12.5457,3.22196,-2.1213
428.8,12.5642,3.23666,-2.13386
429.4,12.5828,3.24556,-2.14394
430,12.6012,3.25793,-2.15607
430.6,12.6198,3.26892,-2.16631
431.2,12.6387,3.27743,-2.17723
431.8,12.6569,3.28839,-2.18652
432.4,12.6757,3.28793,-2.19519
433,12.6944,3.29226,-2.20511
433.6,12.7128,3.3141,-2.21474
434.2,12.7313,3.32793,-2.22533
434.8,12.7502,3.33884,-2.23411
435.4,12.7685,3.35026,-2.24473
436,12.7874,3.36366,-2.25371
436.6,12.8058,3.37074,-2.2645
437.2,12.8243,3.38436,-2.27231
437.8,12.8432,3.39517,-2.28242
438.4,12.8615,3.40795,-2.29054
439,12.8805,3.42365,-2.30045
439.6,12.899,3.44147,-2.30863
440.2,12.9174,3.4561,-2.31781
440.8,12.9365,3.45448,-2.3266
441.4,12.955,3.47551,-2.33502
442,12.9737,3.49639,-2.34298
442.6,12.9923,3.51672,-2.35048
443.2,13.011,3.52375,-2.36008
443.8,13.0297,3.54265,-2.36927
444.4,13.0485,3.56058,-2.38055
445,13.0671,3.57881,-2.38858
445.6,13.0856,3.58609,-2.39725
446.2,13.1046,3.60317,-2.4052
446.8,13.1231,3.61905,-2.41454
447.4,13.1418,3.63636,-2.42237
448,13.1606,3.64909,-2.43195
448.6,13.1794,3.67081,-2.44003
449.2,13.198,3.68674,-2.44982
449.8,13.2168,3.70018,-2.4587
450.4,13.2351,3.72189,-2.46724
451,13.2541,3.74128,-2.47674
451.6,13.2729,3.7613,-2.48544
452.2,13.2914,3.76845,-2.49347
452.8,13.3104,3.79616,-2.50141
453.4,13.3291,3.80758,-2.51112
454,13.3479,3.83215,-2.51903
454.6,13.3667,3.84599,-2.52959
455.2,13.3854,3.8637,-2.53776
455.8,13.4039,3.87852,-2.54775
456.4,13.4226,3.90026,-2.5554
457,13.4414,3.91786,-2.56564
457.6,13.4602,3.92532,-2.57434
458.2,13.4789,3.94929,-2.58462
458.8,13.4976,3.9667,-2.59388
459.4,13.5164,3.98086,-2.60447
460,13.5351,3.97791,-2.61383
460.6,13.5539,4.00473,-2.62314
461.2,13.5729,4.02627,-2.63374
461.8,13.5915,4.03749,-2.64303
462.4,13.6101,4.05696,-2.65394
463,13.6286,4.06695,-2.66283
463.6,13.6478,4.08352,-2.67377
464.2,13.6664,4.09978,-2.68195
464.8,13.6852,4.11585,-2.69177
465.4,13.7042,4.12407,-2.70037
466,13.7226,4.12748,-2.71129
466.6,13.7415,4.14295,-2.71991
467.2,13.7605,4.15821,-2.73028
467.8,13.7795,4.16762,-2.73929
468.4,13.7975,4.18105,-2.74941
469,13.8169,4.17341,-2.76044
469.6,13.8356,4.18723,-2.77081
470.2,13.8543,4.20352,-2.78079
470.8,13.873,4.21713,-2.78992
471.4,13.892,4.22329,-2.80079
472,13.9108,4.23187,-2.81025
472.6,13.9294,4.23246,-2.82196
473.2,13.9484,4.23304,-2.83137
473.8,13.9673,4.24042,-2.8427
474.4,13.9858,4.23596,-2.85049
475,14.0048,4.23076,-2.86159
475.6,14.0234,4.23344,-2.87147
476.2,14.0423,4.23539,-2.88448
476.8,14.0611,4.22832,-2.8945
477.4,14.08,4.22149,-2.90585
478,14.0988,4.21941,-2.91532
478.6,14.1175,4.21267,-2.9257
479.2,14.1362,4.20838,-2.93483
479.8,14.1551,4.20058,-2.94493
480.4,14.1738,4.1842,-2.95607
481,14.1928,4.16888,-2.96604
481.6,14.2113,4.15494,-2.97692
482.2,14.2301,4.1439,-2.98604
482.8,14.2491,4.12342,-2.99737
483.4,14.268,4.10786,-3.0073
484,14.2863,4.08927,-3.01891
484.6,14.3055,4.06854,-3.0274
485.2,14.3242,4.05042,-3.03807
485.8,14.3431,4.02152,-3.04641
486.4,14.3617,3.99843,-3.05683
487,14.3801,3.96823,-3.06391
487.6,14.3991,3.93785,-3.07428
488.2,14.4179,3.91227,-3.08297
488.8,14.4368,3.87182,-3.09192
489.4,14.4552,3.84435,-3.10042
490,14.4742,3.80472,-3.10897
490.6,14.4927,3.7636,-3.1178
491.2,14.5118,3.72653,-3.12546
491.8,14.5304,3.68971,-3.13347
492.4,14.5492,3.6374,-3.14003
493,14.5675,3.58466,-3.14837
493.6,14.5866,3.53029,-3.15681
494.2,14.6054,3.48791,-3.16593
494.8,14.624,3.43146,-3.172
495.4,14.6428,3.37992,-3.17944
496,14.6613,3.32492,-3.1849
496.6,14.6802,3.26831,-3.19143
497.2,14.6986,3.21305,-3.1951
497.8,14.7175,3.15727,-3.20055
498.4,14.7362,3.09252,-3.20564
499,14.7549,3.03523,-3.21058
499.6,14.7736,2.96815,-3.21497
500.2,14.7924,2.90933,-3.21921
500.8,14.8108,2.85478,-3.22313
501.4,14.8299,2.79531,-3.22726
502,14.8484,2.73023,-3.23105
502.6,14.8674,2.68596,-3.23425
503.2,14.8862,2.62663,-3.23794
503.8,14.905,2.57504,-3.24128
504.4,14.9236,2.52438,-3.24335
505,14.9423,2.48522,-3.24556
505.6,14.961,2.43628,-3.24736
506.2,14.9799,2.39558,-3.24894
506.8,14.9985,2.35583,-3.25102
507.4,15.0174,2.33268,-3.25283
508,15.0364,2.30031,-3.25456
508.6,15.0551,2.26694,-3.25569
509.2,15.074,2.23506,-3.25689
509.8,15.0928,2.20769,-3.25806
510.4,15.1116,2.18788,-3.25902
511,15.1309,2.15703,-3.25923
511.6,15.1487,2.13765,-3.26068
512.2,15.1679,2.12019,-3.26152
512.8,15.1869,2.09748,-3.26256
513.4,15.2061,2.0722,-3.2642
514,15.2247,2.06707,-3.26445
514.6,15.2438,2.04832,-3.26552
515.2,15.2633,2.02942,-3.26549
515.8,15.282,2.01988,-3.26652
516.4,15.3011,2.00923,-3.26678
517,15.3202,1.98861,-3.26682
517.6,15.3391,1.98124,-3.26712
518.2,15.3579,1.97071,-3.26813
518.8,15.3772,1.96184,-3.26813
519.4,15.3963,1.95592,-3.26815
520,15.4152,1.94379,-3.26943
520.6,15.4344,1.94112,-3.26944
521.2,15.453,1.92983,-3.26961
521.8,15.4721,1.91988,-3.27083
522.4,15.4911,1.90777,-3.27076
523,15.5102,1.90352,-3.27067
523.6,15.5294,1.90445,-3.27201
524.2,15.5484,1.9001,-3.27171
524.8,15.5676,1.88444,-3.27174
525.4,15.5862,1.87842,-3.27174
526,15.6053,1.87428,-3.27174
526.6,15.6244,1.86831,-3.27232
527.2,15.6435,1.87174,-3.27308
527.8,15.6626,1.86355,-3.27306
528.4,15.6818,1.8546,-3.27306
529,15.7009,1.85252,-3.27306
529.6,15.7198,1.85343,-3.27307
530.2,15.7391,1.83843,-3.27324
530.8,15.7582,1.84195,-3.27443
531.4,15.7772,1.84091,-3.27438
532,15.7964,1.83459,-3.27439
532.6,15.8151,1.8266,-3.27437
533.2,15.8345,1.81548,-3.27569
533.8,15.8533,1.80421,-3.27569
534.4,15.8727,1.80596,-3.27569
535,15.8915,1.79399,-3.27569
535.6,15.9107,1.78872,-3.27569
536.2,15.93,1.79543,-3.27569
536.8,15.949,1.79617,-3.27572
537.4,15.9679,1.78786,-3.27533
538,15.987,1.78179,-3.27536
538.6,16.0064,1.78528,-3.27536
539.2,16.0256,1.77259,-3.27536
539.8,16.0447,1.7777,-3.27596
540.4,16.0638,1.77714,-3.27669
541,16.0829,1.77741,-3.27668
541.6,16.1021,1.76566,-3.27668
542.2,16.1212,1.7669,-3.27668
542.8,16.1405,1.76188,-3.27668
543.4,16.1597,1.75771,-3.27668
544,16.1787,1.75856,-3.27668
544.6,16.198,1.75627,-3.27669
545.2,16.2168,1.74759,-3.27678
545.8,16.2363,1.74329,-3.27558
546.4,16.2555,1.74289,-3.27568
547,16.2746,1.73977,-3.27569
547.6,16.2933,1.73993,-3.27569
548.2,16.3127,1.73955,-3.27568
548.8,16.3321,1.73234,-3.27673
549.4,16.3514,1.71755,-3.27699
550,16.3703,1.71355,-3.27701
550.6,16.3897,1.71425,-3.27702
551.2,16.4088,1.71825,-3.27717
551.8,16.428,1.71819,-3.27838
552.4,16.4468,1.71625,-3.27833
553,16.4659,1.71205,-3.27833
553.6,16.4854,1.70662,-3.27833
554.2,16.5048,1.7027,-3.27833
554.8,16.5242,1.70234,-3.27833
555.4,16.5435,1.69952,-3.27854
556,16.5626,1.6964,-3.27969
556.6,16.5817,1.69716,-3.27965
557.2,16.6009,1.69626,-3.27964
557.8,16.6203,1.69393,-3.27964
558.4,16.6391,1.68984,-3.27964
559,16.6587,1.67967,-3.27964
559.6,16.6779,1.69043,-3.27964
560.2,16.697,1.67341,-3.27964
560.8,16.7163,1.67693,-3.27964
561.4,16.7354,1.67759,-3.27997
562,16.7544,1.68438,-3.2803
562.6,16.7735,1.67957,-3.2803
563.2,16.7933,1.6688,-3.2803
563.8,16.8123,1.6655,-3.2803
564.4,16.8316,1.66991,-3.2803
565,16.8512,1.66645,-3.27968
565.6,16.87,1.66199,-3.27894
566.2,16.8893,1.66025,-3.27934
566.8,16.9087,1.65241,-3.27931
567.4,16.928,1.65783,-3.27931
568,16.9474,1.65222,-3.27931
568.6,16.9665,1.65738,-3.27931
569.2,16.986,1.65844,-3.27931
569.8,17.0053,1.65242,-3.27931
570.4,17.0246,1.64689,-3.27931
571,17.0437,1.64659,-3.27931
571.6,17.063,1.64551,-3.27931
572.2,17.0824,1.64033,-3.27931
572.8,17.1017,1.63905,-3.27931
573.4,17.1209,1.62969,-3.27931
574,17.14,1.62878,-3.27931
574.6,17.1595,1.63044,-3.27911
575.2,17.1789,1.62079,-3.27794
575.8,17.1982,1.62168,-3.27798
576.4,17.2174,1.616,-3.27836
577,17.2368,1.61135,-3.27834
577.6,17.2563,1.60916,-3.27836
578.2,17.2753,1.61227,-3.27961
578.8,17.2946,1.61149,-3.28054
579.4,17.314,1.60809,-3.28095
580,17.3332,1.59777,-3.28096
580.6,17.3527,1.59357,-3.28096
581.2,17.3718,1.59811,-3.28096
581.8,17.3914,1.60162,-3.28096
582.4,17.4106,1.5916,-3.28096
583,17.4299,1.59819,-3.28096
583.6,17.4494,1.596,-3.28097
584.2,17.4688,1.59462,-3.28105
584.8,17.4879,1.57842,-3.27968
585.4,17.5075,1.57472,-3.28018
586,17.5262,1.58243,-3.28096
586.6,17.5461,1.5718,-3.28097
587.2,17.5656,1.57873,-3.28097
587.8,17.5849,1.57342,-3.28097
588.4,17.6044,1.57261,-3.28097
589,17.6239,1.57555,-3.28097
589.6,17.6427,1.56562,-3.27986
590.2,17.6624,1.56922,-3.27964
590.8,17.6819,1.57365,-3.27903
591.4,17.7011,1.56666,-3.27821
592,17.7206,1.56487,-3.27823
592.6,17.7401,1.56314,-3.27731
593.2,17.7594,1.56081,-3.27724
593.8,17.7788,1.5632,-3.27723
594.4,17.7982,1.56025,-3.27723
595,17.8174,1.55617,-3.27723
595.6,17.8373,1.55477,-3.27723
596.2,17.8563,1.55312,-3.27722
596.8,17.876,1.55143,-3.27715
597.4,17.8951,1.55071,-3.27844
598,17.9148,1.5454,-3.27949
598.6,17.9343,1.54237,-3.27987
599.2,17.9537,1.53593,-3.28008
599.8,17.9731,1.52787,-3.28123
600.4,17.9924,1.53405,-3.28119
601,18.0119,1.52786,-3.2811
601.6,18.031,1.52501,-3.28245
602.2,18.0506,1.51684,-3.28253
602.8,18.0699,1.52552,-3.28119
603.4,18.0896,1.5226,-3.28118
604,18.1088,1.51861,-3.28111
604.6,18.1286,1.51782,-3.28238
605.2,18.1479,1.50989,-3.2825
605.8,18.1674,1.50639,-3.2825
606.4,18.187,1.51114,-3.2825
607,18.2065,1.51038,-3.2825
607.6,18.2261,1.50583,-3.2825
608.2,18.2453,1.51072,-3.2825
608.8,18.2647,1.51471,-3.2825
609.4,18.2846,1.51762,-3.2825
610,18.3038,1.51913,-3.2825
610.6,18.3228,1.5124,-3.2825
611.2,18.3422,1.5102,-3.28249
611.8,18.3623,1.50836,-3.28205
612.4,18.3815,1.50654,-3.28246
613,18.4013,1.50767,-3.2825
613.6,18.4207,1.51133,-3.28249
614.2,18.4403,1.51408,-3.28241
614.8,18.4598,1.50901,-3.28374
615.4,18.4793,1.51187,-3.28382
616,18.4988,1.50132,-3.28382
616.6,18.5184,1.49252,-3.28382
617.2,18.5379,1.50288,-3.28382
617.8,18.5573,1.4864,-3.2838
618.4,18.5771,1.49146,-3.28463
619,18.5966,1.48717,-3.28512
619.6,18.6161,1.48423,-3.28513
620.2,18.6355,1.48434,-3.28513
620.8,18.6551,1.48175,-3.28514
621.4,18.6746,1.47971,-3.28447
622,18.6942,1.48059,-3.28447
622.6,18.7136,1.47521,-3.2844
623.2,18.7332,1.47511,-3.28383
623.8,18.7527,1.47419,-3.28382
624.4,18.7725,1.47475,-3.28382
625,18.7918,1.47388,-3.28382
625.6,18.8115,1.46232,-3.28382
626.2,18.8309,1.46512,-3.28382
626.8,18.8506,1.46027,-3.28502
627.4,18.87,1.45325,-3.28513
628,18.8899,1.45623,-3.28387
628.6,18.9092,1.46461,-3.2838
629.2,18.9288,1.46568,-3.28496
629.8,18.9484,1.44749,-3.28492
630.4,18.9682,1.45215,-3.28497
631,18.9875,1.4565,-3.28402
631.6,19.0071,1.4576,-3.28395
632.2,19.0265,1.45012,-3.28357
632.8,19.0464,1.44246,-3.2836
633.4,19.0656,1.44419,-3.28493
634,19.0856,1.44042,-3.28492
634.6,19.105,1.44352,-3.28492
635.2,19.1245,1.44032,-3.28492
635.8,19.1438,1.44284,-3.28492
636.4,19.1629,1.43688,-3.28492
637,19.1831,1.42899,-3.28492
637.6,19.2026,1.42777,-3.28492
638.2,19.2227,1.42521,-3.28492
638.8,19.2421,1.43296,-3.28492
639.4,19.2618,1.43071,-3.28492
640,19.2813,1.4324,-3.28494
640.6,19.301,1.43156,-3.28523
641.2,19.3206,1.43021,-3.28628
641.8,19.3396,1.42903,-3.28622
642.4,19.3597,1.4288,-3.28552
643,19.3793,1.42308,-3.28492
643.6,19.3989,1.42208,-3.28492
644.2,19.4183,1.41932,-3.28495
644.8,19.4381,1.4107,-3.28632
645.4,19.4575,1.41423,-3.28624
646,19.4771,1.42169,-3.28623
646.6,19.4969,1.42517,-3.28623
647.2,19.5166,1.41089,-3.28623
647.8,19.5362,1.4107,-3.28623
648.4,19.5557,1.4111,-3.28623
649,19.5755,1.41285,-3.28624
649.6,19.5951,1.41466,-3.28755
650.2,19.6144,1.40933,-3.28755
650.8,19.6342,1.40678,-3.28755
651.4,19.6538,1.40288,-3.28755
652,19.6733,1.39869,-3.28755
652.6,19.6933,1.39535,-3.28757
653.2,19.7126,1.39849,-3.28826
653.8,19.7324,1.39403,-3.28888
654.4,19.752,1.39453,-3.28889
655,19.7714,1.39254,-3.28932
655.6,19.7914,1.3788,-3.28857
656.2,19.8104,1.37976,-3.28854
656.8,19.8307,1.37332,-3.28854
657.4,19.8499,1.36946,-3.28854
658,19.8697,1.36634,-3.28854
658.6,19.8892,1.36364,-3.28854
659.2,19.9084,1.3651,-3.28854
659.8,19.9283,1.35426,-3.28854
660.4,19.948,1.34848,-3.28854
661,19.9682,1.34661,-3.28854
661.6,19.9876,1.33817,-3.28854
662.2,20.0072,1.32758,-3.28854
662.8,20.0267,1.32707,-3.28854
663.4,20.0467,1.32602,-3.28854
664,20.0663,1.31463,-3.28854
664.6,20.0859,1.31274,-3.28854
665.2,20.1054,1.31844,-3.28854
665.8,20.125,1.32015,-3.28887
666.4,20.1446,1.31016,-3.28888
667,20.1644,1.30612,-3.28976
667.6,20.1841,1.30909,-3.29018
668.2,20.2038,1.30367,-3.29018
668.8,20.2235,1.29704,-3.29018
669.4,20.2432,1.29633,-3.29018
670,20.2627,1.29089,-3.29018
670.6,20.2821,1.28324,-3.29018
671.2,20.3023,1.28319,-3.29018
671.8,20.3215,1.27138,-3.29018
672.4,20.3415,1.26917,-3.29018
673,20.3609,1.27201,-3.29018
673.6,20.3808,1.26374,-3.29018
674.2,20.4002,1.26562,-3.29018
674.8,20.42,1.26331,-3.29018
675.4,20.4398,1.26229,-3.29018
676,20.4594,1.25591,-3.29018
676.6,20.479,1.25432,-3.29015
677.2,20.4988,1.24849,-3.28967
677.8,20.5184,1.25078,-3.28899
678.4,20.538,1.25203,-3.29023
679,20.5579,1.24361,-3.29018
679.6,20.5778,1.24038,-3.29018
680.2,20.5975,1.23248,-3.29018
680.8,20.617,1.22795,-3.29018
681.4,20.6366,1.22326,-3.29018
682,20.6566,1.2128,-3.29022
682.6,20.6762,1.21601,-3.29152
683.2,20.6959,1.21062,-3.2915
683.8,20.7158,1.20192,-3.2915
684.4,20.7354,1.20327,-3.2915
685,20.7551,1.19893,-3.2915
685.6,20.775,1.19427,-3.2915
686.2,20.7945,1.18888,-3.2915
686.8,20.8142,1.18927,-3.2915
687.4,20.8337,1.1885,-3.2915
688,20.8534,1.18009,-3.2915
688.6,20.8735,1.18049,-3.2915
689.2,20.8926,1.17589,-3.2915
689.8,20.9123,1.17409,-3.29153
690.4,20.9324,1.16963,-3.29094
691,20.9523,1.16318,-3.29098
691.6,20.9721,1.15432,-3.29175
692.2,20.9918,1.1556,-3.29173
692.8,21.0114,1.14733,-3.29173
693.4,21.0313,1.14472,-3.29173
694,21.0511,1.14364,-3.2916
694.6,21.0706,1.13965,-3.29034
695.2,21.0904,1.13087,-3.29036
695.8,21.1102,1.1315,-3.29144
696.4,21.1298,1.12404,-3.29171
697,21.1497,1.12764,-3.29172
697.6,21.1694,1.1196,-3.29172
698.2,21.189,1.11499,-3.29172
698.8,21.2087,1.11471,-3.29172
699.4,21.2283,1.10331,-3.29172
700,21.2483,1.09543,-3.29172
700.6,21.2678,1.09401,-3.29172
701.2,21.2877,1.09621,-3.29172
701.8,21.3075,1.0808,-3.29172
702.4,21.3262,1.07513,-3.29172
703,21.347,1.0883,-3.29178
703.6,21.3668,1.08514,-3.29307
704.2,21.3859,1.07355,-3.29304
704.8,21.4066,1.07104,-3.29304
705.4,21.4261,1.06545,-3.29304
706,21.4462,1.0657,-3.29304
706.6,21.4655,1.05764,-3.29304
707.2,21.4856,1.05363,-3.29304
707.8,21.5053,1.0511,-3.29434
708.4,21.5252,1.04826,-3.29304
709,21.5443,1.04434,-3.29304
709.6,21.564,1.04416,-3.29304
710.2,21.5845,1.03878,-3.29304
710.8,21.6038,1.03364,-3.29304
711.4,21.6238,1.03099,-3.29304
712,21.6436,1.02862,-3.29304
712.6,21.6629,1.01565,-3.29304
713.2,21.6826,1.0156,-3.29304
713.8,21.7029,1.01572,-3.29308
714.4,21.7229,1.0198,-3.29207
715,21.7426,1.00731,-3.29205
715.6,21.7623,1.00929,-3.29204
716.2,21.7823,1.00368,-3.2918
716.8,21.8019,0.995561,-3.29173
717.4,21.8216,0.985738,-3.29172
718,21.8415,0.980678,-3.29172
718.6,21.861,0.975459,-3.29172
719.2,21.881,0.979568,-3.29176
719.8,21.901,0.966603,-3.29293
720.4,21.9205,0.960941,-3.29354
721,21.9401,0.957819,-3.294
721.6,21.9598,0.951474,-3.29402
722.2,21.9795,0.948193,-3.29402
722.8,21.9994,0.939477,-3.29402
723.4,22.0198,0.942149,-3.29402
724,22.0396,0.934491,-3.29402
724.6,22.0595,0.920181,-3.294
725.2,22.0793,0.925062,-3.29368
725.8,22.0992,0.920317,-3.29269
726.4,22.1191,0.914485,-3.2927
727,22.1389,0.918339,-3.29271
727.6,22.1588,0.909232,-3.29278
728.2,22.1786,0.91322,-3.29227
728.8,22.1985,0.899953,-3.29362
729.4,22.2184,0.906794,-3.29514
730,22.2383,0.909032,-3.29515
730.6,22.2577,0.904233,-3.29639
731.2,22.2777,0.900069,-3.29634
731.8,22.2978,0.886179,-3.29634
732.4,22.3175,0.881631,-3.29634
733,22.3373,0.878275,-3.29634
733.6,22.3572,0.877755,-3.29634
734.2,22.377,0.874156,-3.29634
734.8,22.3967,0.87024,-3.29633
735.4,22.4167,0.868837,-3.29669
736,22.4363,0.85949,-3.29667
736.6,22.4561,0.856645,-3.29667
737.2,22.4762,0.854229,-3.29661
737.8,22.4955,0.851048,-3.29633
738.4,22.5161,0.849321,-3.29633
739,22.5359,0.853308,-3.29632
739.6,22.5559,0.851009,-3.29703
740.2,22.5757,0.846175,-3.29765
740.8,22.5955,0.836653,-3.29765
741.4,22.6154,0.843747,-3.29765
742,22.635,0.834437,-3.29765
742.6,22.6549,0.828553,-3.29765
743.2,22.675,0.829371,-3.29765
743.8,22.6949,0.833811,-3.29738
744.4,22.7144,0.827365,-3.29599
745,22.7346,0.821814,-3.296
745.6,22.7544,0.817112,-3.296
746.2,22.7744,0.811213,-3.29598
746.8,22.794,0.807184,-3.29727
747.4,22.814,0.811559,-3.29732
748,22.8339,0.803016,-3.29732
748.6,22.8536,0.792808,-3.29732
749.2,22.8737,0.794218,-3.29732
749.8,22.8935,0.793424,-3.29755
750.4,22.9132,0.78126,-3.29834
751,22.9332,0.787327,-3.29857
751.6,22.9531,0.790831,-3.29817
752.2,22.973,0.785664,-3.29729
752.8,22.993,0.781846,-3.29732
753.4,23.0125,0.778168,-3.29732
754,23.0325,0.783336,-3.29734
754.6,23.0525,0.781728,-3.29802
755.2,23.0726,0.777299,-3.29863
755.8,23.0926,0.7742,-3.29863
756.4,23.1124,0.769464,-3.29863
757,23.1323,0.766276,-3.29863
757.6,23.1523,0.762519,-3.29863
758.2,23.1718,0.755834,-3.29863
758.8,23.1918,0.755169,-3.29863
759.4,23.2117,0.742498,-3.29863
760,23.2316,0.741826,-3.29863
760.6,23.2515,0.740988,-3.29863
761.2,23.2713,0.741381,-3.29864
761.8,23.2912,0.739986,-3.29872
762.4,23.3112,0.737862,-3.29728
763,23.331,0.735648,-3.29859
763.6,23.3511,0.734008,-3.29864
764.2,23.3711,0.735147,-3.29864
764.8,23.3909,0.737653,-3.29863
765.4,23.4108,0.732389,-3.2984
766,23.4307,0.728842,-3.29726
766.6,23.4505,0.727195,-3.29732
767.2,23.4706,0.729969,-3.29732
767.8,23.4903,0.727237,-3.29734
768.4,23.5103,0.728032,-3.29777
769,23.5301,0.724575,-3.29865
769.6,23.55,0.717868,-3.29864
770.2,23.5701,0.714398,-3.29863
770.8,23.5898,0.709863,-3.29848
771.4,23.6097,0.7117,-3.29727
772,23.6299,0.7035,-3.29732
772.6,23.6496,0.705123,-3.29731
773.2,23.6698,0.702808,-3.2981
773.8,23.6893,0.69837,-3.29861
774.4,23.7092,0.698277,-3.29863
775,23.7295,0.699264,-3.29856
775.6,23.7492,0.687618,-3.29985
776.2,23.7694,0.685039,-3.29995
776.8,23.7891,0.687776,-3.29994
777.4,23.8089,0.686551,-3.29985
778,23.8286,0.682423,-3.29858
778.6,23.8489,0.675385,-3.29863
779.2,23.8689,0.681915,-3.29864
779.8,23.8887,0.679266,-3.29879
780.4,23.9084,0.683204,-3.3
781,23.9286,0.670989,-3.29995
781.6,23.9489,0.663493,-3.29995
782.2,23.9688,0.658007,-3.29995
782.8,23.9883,0.660044,-3.29995
783.4,24.0083,0.657703,-3.29995
784,24.0278,0.660537,-3.29996
784.6,24.0476,0.662337,-3.30004
785.2,24.0677,0.658367,-3.30132
785.8,24.0883,0.656862,-3.30127
786.4,24.1079,0.660267,-3.30127
787,24.1281,0.654666,-3.30127
787.6,24.148,0.651899,-3.30127
788.2,24.1678,0.640728,-3.30127
788.8,24.1877,0.638395,-3.30122
789.4,24.2078,0.632703,-3.30242
790,24.2276,0.635251,-3.3026