File: 01_Data/SCBA_Bracket/STA/N2/10K_min/SCBA_Bracket_STA_N2_10KData_240724_R1.csv
Temp./C,Time/min,DSC/(mW/mg),Mass loss/mg
60,0,1.09418,-0.0128386
60.4,0.045311,1.1171,-0.0120419
60.8,0.08971042,1.12256,-0.0128438
61.2,0.137056,1.14446,-0.01285578
61.6,0.179836,1.1568,-0.0134079
62,0.225761,1.15898,-0.0141384
62.4,0.268228,1.17973,-0.0141759
62.8,0.312379,1.19276,-0.0141626
63.2,0.356509,1.20026,-0.0147799
63.6,0.400105,1.21222,-0.0153816
64,0.443242,1.21965,-0.0155513
64.4,0.486569,1.23375,-0.0160834
64.8,0.527739,1.22859,-0.0154737
65.2,0.574175,1.24574,-0.0167311
65.6,0.614842,1.24911,-0.0154758
66,0.659257,1.25626,-0.01591465
66.4,0.702106,1.2588,-0.0167919
66.8,0.744126,1.26163,-0.0168026
67.2,0.788489,1.25622,-0.01679583
67.6,0.830159,1.27332,-0.0167693
68,0.872307,1.272,-0.0167996
68.4,0.914166,1.27262,-0.0168001
68.8,0.955959,1.28552,-0.0171364
69.2,0.999994,1.27379,-0.0170385
69.6,1.04205,1.29124,-0.0167791
70,1.08359,1.29247,-0.0168638
70.4,1.12526,1.29185,-0.01679993
70.8,1.16842,1.30267,-0.0168033
71.2,1.20977,1.29142,-0.0167904
71.6,1.25212,1.30631,-0.0167922
72,1.29478,1.30063,-0.0181757
72.4,1.33169,1.30436,-0.01811023
72.8,1.37627,1.29696,-0.01811
73.2,1.41538,1.30399,-0.018103
73.6,1.45908,1.30408,-0.0168025
74,1.50316,1.31312,-0.0168029
74.4,1.54235,1.31445,-0.0169518
74.8,1.58549,1.31582,-0.0179984
75.2,1.62773,1.31852,-0.0168008
75.6,1.66485,1.3231,-0.0169793
76,1.71071,1.32227,-0.0167997
76.4,1.75035,1.31936,-0.0168067
76.8,1.79238,1.32646,-0.0181741
77.2,1.83242,1.33075,-0.0181103
77.6,1.87475,1.3315,-0.0181323
78,1.91487,1.33517,-0.0194411
78.4,1.9567,1.33493,-0.01943878
78.8,1.99823,1.33161,-0.01801685
79.2,2.03927,1.32491,-0.01943
79.6,2.08014,1.3312,-0.01943
80,2.12115,1.34069,-0.01943
80.4,2.16238,1.33398,-0.0194282
80.8,2.2026,1.34063,-0.0180362
81.2,2.2442,1.33847,-0.0181205
81.6,2.28471,1.33197,-0.0183681
82,2.32482,1.34029,-0.0194434
82.4,2.36543,1.34002,-0.019329
82.8,2.40652,1.34166,-0.0181162
83.2,2.44512,1.34828,-0.0181143
83.6,2.48735,1.34108,-0.0194092
84,2.52824,1.35107,-0.0181295
84.4,2.56839,1.34961,-0.0181101
84.8,2.60884,1.35163,-0.0194283
85.2,2.64822,1.35243,-0.01943
85.6,2.69078,1.35685,-0.0194303
86,2.73219,1.35544,-0.0198225
86.4,2.76986,1.35312,-0.0187772
86.8,2.81107,1.36685,-0.0187701
87.2,2.85058,1.36797,-0.01877
87.6,2.89175,1.37222,-0.01877
88,2.93196,1.37387,-0.0187703
88.4,2.9706,1.37581,-0.0188591
88.8,3.01066,1.38118,-0.0194292
89.2,3.05242,1.38236,-0.0194298
89.6,3.09078,1.39296,-0.0194446
90,3.12972,1.38936,-0.01944
90.4,3.17184,1.39145,-0.0208496
90.8,3.21014,1.39041,-0.0207595
91.2,3.24759,1.4037,-0.019413
91.6,3.28959,1.39192,-0.01943
92,3.33028,1.41004,-0.0194296
92.4,3.36957,1.41237,-0.0193846
92.8,3.40667,1.41348,-0.0181109
93.2,3.44868,1.40782,-0.01811
93.6,3.48835,1.40596,-0.0181106
94,3.52721,1.40847,-0.0190053
94.4,3.56729,1.41553,-0.0194301
94.8,3.60559,1.40665,-0.01943
95.2,3.64621,1.41215,-0.01943
95.6,3.68624,1.41324,-0.0194279
96,3.72539,1.41627,-0.0197765
96.4,3.76402,1.41883,-0.0194908
96.8,3.80398,1.41549,-0.0194391
97.2,3.84279,1.42896,-0.0194304
97.6,3.88282,1.41899,-0.019507
98,3.92073,1.423,-0.0181209
98.4,3.96126,1.42584,-0.01812
98.8,4.00086,1.42753,-0.01812
99.2,4.03916,1.43379,-0.018583
99.6,4.07729,1.43149,-0.0194391
100,4.11703,1.4282,-0.0207447
100.4,4.15591,1.41782,-0.0207698
100.8,4.19561,1.42101,-0.0194421
101.2,4.23293,1.42684,-0.0194325
101.6,4.27186,1.42443,-0.0208095
102,4.31308,1.41863,-0.0207496
102.4,4.35268,1.42977,-0.0205034
102.8,4.39118,1.42658,-0.0194258
103.2,4.42945,1.43089,-0.02011055
103.6,4.46894,1.4367,-0.0194282
104,4.50661,1.43117,-0.01941261
104.4,4.54714,1.43504,-0.0180957
104.8,4.58619,1.42264,-0.0181099
105.2,4.62496,1.426,-0.0181291
105.6,4.66339,1.42353,-0.0194341
106,4.70311,1.42834,-0.01943
106.4,4.74118,1.41991,-0.01943
106.8,4.78033,1.42692,-0.0194267
107.2,4.8198,1.42174,-0.0180912
107.6,4.85875,1.42053,-0.01812
108,4.8976,1.42215,-0.01812
108.4,4.93617,1.42512,-0.0181207
108.8,4.9752,1.42129,-0.0190483
109.2,5.0141,1.42301,-0.01943005
109.6,5.05254,1.42268,-0.01943
110,5.09189,1.42695,-0.01943
110.4,5.13116,1.43817,-0.01943
110.8,5.16987,1.4322,-0.01943
111.2,5.20826,1.42995,-0.01943268
111.6,5.24683,1.4268,-0.0183899
112,5.28689,1.4336,-0.0191333
112.4,5.32527,1.42738,-0.0191002
112.8,5.36348,1.4257,-0.01912579
113.2,5.40269,1.43236,-0.0187721
113.6,5.44209,1.4322,-0.0194334
114,5.48057,1.42713,-0.01808283
114.4,5.51988,1.43186,-0.0181099
114.8,5.55915,1.42556,-0.01811
115.2,5.59839,1.43329,-0.0181084
115.6,5.63636,1.42588,-0.0191
116,5.67661,1.42719,-0.01943
116.4,5.71258,1.43549,-0.01943
116.8,5.7536,1.42634,-0.01943
117.2,5.79167,1.43276,-0.01943
117.6,5.83052,1.42763,-0.01943
118,5.87024,1.43514,-0.0194301
118.4,5.9083,1.43922,-0.0194222
118.8,5.94746,1.43987,-0.0181133
119.2,5.98628,1.43939,-0.0194313
119.6,6.02453,1.43653,-0.01944
120,6.06289,1.43956,-0.01944
120.4,6.10231,1.43766,-0.01944
120.8,6.14088,1.44353,-0.0194399
121.2,6.18044,1.44949,-0.0194292
121.6,6.21856,1.44536,-0.0181211
122,6.25706,1.44775,-0.0181201
122.4,6.297,1.44467,-0.0181154
122.8,6.33534,1.45011,-0.0194097
123.2,6.37155,1.45187,-0.01943
123.6,6.41302,1.45158,-0.01943
124,6.45154,1.45108,-0.01943
124.4,6.48828,1.45539,-0.01943
124.8,6.52852,1.4582,-0.01943
125.2,6.56861,1.46523,-0.01943
125.6,6.60642,1.46051,-0.0194327
126,6.64504,1.46385,-0.019072
126.4,6.68319,1.45911,-0.0191131
126.8,6.72295,1.45735,-0.018117
127.2,6.75925,1.45733,-0.0194087
127.6,6.7992,1.46363,-0.0194299
128,6.83761,1.46959,-0.0194302
128.4,6.87596,1.47502,-0.0195026
128.8,6.91528,1.4698,-0.0181123
129.2,6.95302,1.48363,-0.0193545
129.6,6.99263,1.47794,-0.0194299
130,7.03137,1.47509,-0.0194302
130.4,7.06975,1.46806,-0.01964367
130.8,7.10787,1.46682,-0.0194311
131.2,7.14575,1.48484,-0.0180434
131.6,7.1847,1.48738,-0.01811
132,7.22351,1.48466,-0.0192062
132.4,7.26188,1.48676,-0.0194286
132.8,7.3009,1.48971,-0.01943
133.2,7.33911,1.48716,-0.01943
133.6,7.37788,1.49444,-0.0194292
134,7.41582,1.49678,-0.018702
134.4,7.45491,1.49644,-0.018442
134.8,7.49207,1.49791,-0.0184408
135.2,7.53072,1.49735,-0.0185435
135.6,7.56993,1.4994,-0.0190992
136,7.61065,1.50059,-0.0191
136.4,7.6468,1.50698,-0.0190999
136.8,7.68347,1.49901,-0.0191011
137.2,7.72301,1.51082,-0.0194251
137.6,7.7615,1.52078,-0.0194705
138,7.80155,1.50963,-0.018133
138.4,7.83906,1.51108,-0.0184767
138.8,7.87741,1.51571,-0.0191075
139.2,7.91409,1.51906,-0.01911
139.6,7.95179,1.52828,-0.0191104
140,7.99125,1.52254,-0.0185577
140.4,8.03136,1.52797,-0.0177923
140.8,8.06884,1.52207,-0.01779
141.2,8.10757,1.528,-0.0190278
141.6,8.1439,1.52839,-0.0204285
142,8.18488,1.53192,-0.0204203
142.4,8.22316,1.53987,-0.0204583
142.8,8.26128,1.54015,-0.0191158
143.2,8.29905,1.53648,-0.0191
143.6,8.33547,1.54307,-0.0191
144,8.37695,1.53856,-0.0191
144.4,8.41493,1.55074,-0.0191
144.8,8.45379,1.54477,-0.019096
145.2,8.49205,1.55238,-0.0193489
145.6,8.52992,1.55167,-0.0194402
146,8.56839,1.54605,-0.0194366
146.4,8.60632,1.54976,-0.01814372
146.8,8.64464,1.54436,-0.01942963
147.2,8.68389,1.55759,-0.01943
147.6,8.72237,1.5622,-0.01943
148,8.76032,1.55398,-0.01943
148.4,8.79814,1.55454,-0.0194301
148.8,8.83739,1.55065,-0.0194368
149.2,8.87579,1.56751,-0.0196166
149.6,8.91411,1.56538,-0.0194309
150,8.95216,1.56457,-0.01943
150.4,8.98914,1.55721,-0.0194301
150.8,9.02938,1.56233,-0.0194407
151.2,9.0675,1.5695,-0.0196801
151.6,9.1051,1.57865,-0.0197588
152,9.14405,1.56702,-0.01975999
152.4,9.18225,1.58053,-0.0197599
152.8,9.21972,1.57968,-0.0197552
153.2,9.25844,1.58088,-0.0184409
153.6,9.29682,1.57442,-0.0197398
154,9.33494,1.57914,-0.01976
154.4,9.37322,1.58494,-0.01976
154.8,9.4099,1.58325,-0.01976
155.2,9.44945,1.58324,-0.01976
155.6,9.48749,1.57287,-0.01976
156,9.5253,1.58587,-0.01976
156.4,9.56402,1.59365,-0.0197566
156.8,9.60364,1.59869,-0.02081862
157.2,9.6405,1.60149,-0.0207503
157.6,9.67993,1.60548,-0.02075
158,9.71771,1.60917,-0.02075
158.4,9.7562,1.59841,-0.0207529
158.8,9.79425,1.60069,-0.0196708
159.2,9.8328,1.6089,-0.0194309
159.6,9.87184,1.61067,-0.01943
160,9.90843,1.61535,-0.01943
160.4,9.94772,1.60967,-0.0194301
160.8,9.98598,1.6204,-0.0194053
161.2,10.0236,1.61686,-0.0197604
161.6,10.0625,1.61088,-0.02024321
162,10.1007,1.63104,-0.02041965
162.4,10.1393,1.6241,-0.02042
162.8,10.1766,1.62775,-0.0204225
163.2,10.2149,1.64241,-0.0207719
163.6,10.2532,1.64298,-0.0213235
164,10.291,1.63984,-0.0206137
164.4,10.3292,1.63637,-0.02042
164.8,10.3673,1.63347,-0.0204193
165.2,10.4055,1.64652,-0.0191235
165.6,10.4437,1.64969,-0.0191236
166,10.4815,1.65314,-0.0204532
166.4,10.5201,1.64375,-0.0213892
166.8,10.5584,1.65401,-0.0214
167.2,10.5968,1.65329,-0.0214042
167.6,10.6349,1.6548,-0.0227512
168,10.6728,1.65349,-0.0227203
168.4,10.7112,1.65774,-0.02272
168.8,10.7466,1.66,-0.02272
169.2,10.7876,1.66159,-0.02272
169.6,10.826,1.65715,-0.02271837
170,10.8633,1.6643,-0.0222888
170.4,10.9017,1.66181,-0.0224649
170.8,10.9399,1.67155,-0.0224002
171.2,10.9779,1.67218,-0.0224
171.6,11.0166,1.67214,-0.0224
172,11.0537,1.67773,-0.0224
172.4,11.0927,1.68299,-0.0224
172.8,11.1301,1.68831,-0.0224
173.2,11.1678,1.68593,-0.0224001
173.6,11.2064,1.68853,-0.0224426
174,11.2452,1.69195,-0.0220681
174.4,11.2834,1.69111,-0.02207
174.8,11.3211,1.6846,-0.0220704
175.2,11.3582,1.70223,-0.0220552
175.6,11.3979,1.69013,-0.0224006
176,11.4358,1.6979,-0.0223979
176.4,11.4741,1.70187,-0.0229611
176.8,11.5114,1.68911,-0.0230595
177.2,11.5497,1.69835,-0.02306
177.6,11.5881,1.70826,-0.02306
178,11.6257,1.70982,-0.0230601
178.4,11.6645,1.70705,-0.0230807
178.8,11.7032,1.71353,-0.024386
179.2,11.7401,1.72389,-0.0242784
179.6,11.7797,1.7162,-0.0220929
180,11.8162,1.72458,-0.0220704
180.4,11.8546,1.71897,-0.0220724
180.8,11.893,1.72469,-0.0237852
181.2,11.9306,1.72207,-0.0240494
181.6,11.9697,1.72787,-0.02405
182,12.0067,1.73304,-0.02405
182.4,12.0452,1.73903,-0.02405
182.8,12.0824,1.74395,-0.0240499
183.2,12.1203,1.7343,-0.0240439
183.6,12.1595,1.73761,-0.0227272
184,12.1968,1.74299,-0.0227309
184.4,12.2353,1.73741,-0.0231629
184.8,12.2727,1.74843,-0.0234078
185.2,12.3109,1.74196,-0.024713
185.6,12.348,1.74799,-0.0246997
186,12.3874,1.74975,-0.0236671
186.4,12.425,1.74508,-0.0247159
186.8,12.4621,1.75426,-0.0247027
187.2,12.5007,1.76722,-0.025744
187.6,12.5378,1.74819,-0.0243735
188,12.5766,1.7509,-0.0243695
188.4,12.6149,1.74715,-0.0241606
188.8,12.652,1.75602,-0.0240405
189.2,12.6909,1.76263,-0.02404
189.6,12.7284,1.76369,-0.02404
190,12.766,1.76375,-0.02404
190.4,12.8041,1.76089,-0.0240515
190.8,12.8423,1.75752,-0.0245655
191.2,12.8808,1.76758,-0.0246993
191.6,12.9191,1.75566,-0.0247
192,12.9564,1.77247,-0.0247
192.4,12.9936,1.76237,-0.0247
192.8,13.0324,1.76578,-0.0246999
193.2,13.0703,1.7709,-0.0246913
193.6,13.1086,1.77523,-0.023707
194,13.1456,1.77736,-0.0236556
194.4,13.1843,1.77372,-0.0250314
194.8,13.2217,1.77487,-0.0238528
195.2,13.2602,1.77418,-0.0237111
195.6,13.2974,1.77453,-0.02371
196,13.3361,1.77013,-0.0237101
196.4,13.3745,1.78108,-0.0237231
196.8,13.4123,1.77283,-0.02509346
197.2,13.4505,1.78129,-0.0250302
197.6,13.4884,1.78167,-0.0256388
198,13.5261,1.78744,-0.0263486
198.4,13.5643,1.78323,-0.0263545
198.8,13.6017,1.7886,-0.0256162
199.2,13.6411,1.798,-0.0257159
199.6,13.6788,1.79998,-0.02503
200,13.7168,1.80149,-0.02503
200.4,13.7546,1.82385,-0.02503
200.8,13.7929,1.80601,-0.02503
201.2,13.831,1.8271,-0.02503
201.6,13.8688,1.83464,-0.02503
202,13.9066,1.8337,-0.02503
202.4,13.9447,1.84037,-0.02502999
202.8,13.9838,1.8494,-0.0250283
203.2,14.0214,1.85568,-0.0248203
203.6,14.0592,1.86721,-0.0237099
204,14.0978,1.88443,-0.0237065
204.4,14.136,1.89229,-0.0250131
204.8,14.1749,1.90357,-0.0250299
205.2,14.2128,1.91986,-0.0250301
205.6,14.2512,1.93077,-0.025037
206,14.2882,1.93836,-0.0253547
206.4,14.324,1.95546,-0.025416
206.8,14.3663,1.98726,-0.025387
207.2,14.4028,2.00287,-0.0246922
207.6,14.4418,2.03855,-0.0247
208,14.4808,2.06819,-0.0247003
208.4,14.5199,2.0904,-0.0246918
208.8,14.5572,2.12814,-0.0250309
209.2,14.5971,2.16187,-0.02503
209.6,14.6348,2.20265,-0.02503
210,14.6734,2.23934,-0.02503
210.4,14.7128,2.30074,-0.02503
210.8,14.7502,2.35678,-0.02503
211.2,14.7885,2.41941,-0.02503
211.6,14.8278,2.46768,-0.0250299
212,14.8673,2.54397,-0.0248178
212.4,14.9048,2.60464,-0.0237145
212.8,14.9456,2.68836,-0.0237197
213.2,14.9853,2.7632,-0.023673
213.6,15.0242,2.85531,-0.0250177
214,15.064,2.94558,-0.0250299
214.4,15.103,3.0469,-0.02503
214.8,15.1423,3.13889,-0.02503
215.2,15.182,3.25371,-0.0250263
215.6,15.221,3.36575,-0.0263221
216,15.2614,3.48238,-0.0263478
216.4,15.3013,3.60644,-0.0253023
216.8,15.3415,3.72651,-0.0253597
217.2,15.3808,3.85394,-0.0253671
217.6,15.4192,3.9735,-0.0240647
218,15.4591,4.09748,-0.0240401
218.4,15.4991,4.22236,-0.0240414
218.8,15.5392,4.35407,-0.0253615
219.2,15.5792,4.47783,-0.02536
219.6,15.6194,4.58765,-0.0253547
220,15.6583,4.69525,-0.026214
220.4,15.6974,4.79382,-0.0263501
220.8,15.7369,4.8872,-0.0251667
221.2,15.7768,4.95166,-0.0250309
221.6,15.8162,5.00524,-0.02503
222,15.854,5.01831,-0.02503
222.4,15.8925,4.98763,-0.02503
222.8,15.9293,4.91771,-0.02503
223.2,15.9666,4.75551,-0.0250223
223.6,16.0012,4.52893,-0.026335
224,16.0357,4.21114,-0.0263564
224.4,16.0698,3.85989,-0.0252847
224.8,16.1042,3.52678,-0.0250106
225.2,16.1393,3.21247,-0.02371559
225.6,16.1741,2.95725,-0.0243624
226,16.2094,2.73752,-0.0260253
226.4,16.2433,2.5627,-0.0260197
226.8,16.2811,2.40385,-0.02602
227.2,16.3171,2.28973,-0.02602
227.6,16.3519,2.19612,-0.02602
228,16.3904,2.11685,-0.0260234
228.4,16.4269,2.05555,-0.0246789
228.8,16.4648,2.00983,-0.0247096
229.2,16.5023,1.95777,-0.02471
229.6,16.5397,1.93126,-0.02471
230,16.5755,1.90164,-0.0247137
230.4,16.6136,1.88031,-0.0257465
230.8,16.6494,1.87528,-0.0256901
231.2,16.6892,1.85397,-0.02569
231.6,16.7271,1.83424,-0.02569
232,16.764,1.81979,-0.0256899
232.4,16.8025,1.81638,-0.0256728
232.8,16.8399,1.81776,-0.0243744
233.2,16.8795,1.80424,-0.0243841
233.6,16.9166,1.80632,-0.025659
234,16.9539,1.80523,-0.0260222
234.4,16.992,1.80032,-0.02589333
234.8,17.0296,1.80088,-0.0247029
235.2,17.0686,1.80512,-0.02470996
235.6,17.1057,1.80512,-0.02471
236,17.1436,1.79566,-0.02471
236.4,17.1813,1.80684,-0.0247103
236.8,17.2194,1.80089,-0.0247196
237.2,17.2573,1.79575,-0.023388
237.6,17.295,1.8048,-0.0233909
238,17.3337,1.79351,-0.023637
238.4,17.3711,1.78832,-0.0247134
238.8,17.4098,1.7899,-0.02471
239.2,17.4483,1.80253,-0.02471
239.6,17.4858,1.79903,-0.02471
240,17.5236,1.79615,-0.02471
240.4,17.5617,1.79227,-0.02471
240.8,17.6,1.78857,-0.02471
241.2,17.6381,1.79133,-0.0247092
241.6,17.6768,1.7969,-0.0251582
242,17.7141,1.80045,-0.0253573
242.4,17.7518,1.80062,-0.0253697
242.8,17.7897,1.80415,-0.0240511
243.2,17.8271,1.8016,-0.02405001
243.6,17.8666,1.79246,-0.02405
244,17.9048,1.80549,-0.02405
244.4,17.9419,1.80213,-0.02405
244.8,17.9798,1.81263,-0.02405
245.2,18.0177,1.81216,-0.02405
245.6,18.0575,1.79906,-0.0240507
246,18.0951,1.80077,-0.0244794
246.4,18.1322,1.81321,-0.0247089
246.8,18.1704,1.81746,-0.0247185
247.2,18.2082,1.80328,-0.0231742
247.6,18.2463,1.80125,-0.0231701
248,18.2844,1.79246,-0.0231696
248.4,18.3225,1.80547,-0.0238769
248.8,18.361,1.81568,-0.0244886
249.2,18.3988,1.81088,-0.02449
249.6,18.438,1.8056,-0.02449
250,18.4753,1.80864,-0.02449
250.4,18.5128,1.80338,-0.0244895
250.8,18.5512,1.80711,-0.0245591
251.2,18.5886,1.80937,-0.0238255
251.6,18.6276,1.81042,-0.0238472
252,18.6659,1.81189,-0.0231735
252.4,18.7036,1.81122,-0.02317
252.8,18.7418,1.81843,-0.02317
253.2,18.7796,1.80969,-0.0231688
253.6,18.8162,1.81395,-0.0228241
254,18.856,1.80956,-0.0228399
254.4,18.8944,1.80598,-0.02284
254.8,18.932,1.81506,-0.02284
255.2,18.9702,1.80346,-0.02284
255.6,19.0088,1.79923,-0.02284
256,19.0451,1.79667,-0.02284
256.4,19.0819,1.81212,-0.02284
256.8,19.1225,1.81439,-0.02284
257.2,19.1611,1.81535,-0.02284
257.6,19.1977,1.81552,-0.02284
258,19.2366,1.81397,-0.0228402
258.4,19.2748,1.81427,-0.0228767
258.8,19.3132,1.80946,-0.0225068
259.2,19.3483,1.80191,-0.0225084
259.6,19.3895,1.79615,-0.0218376
260,19.4263,1.80171,-0.0218499
260.4,19.4658,1.804,-0.02185
260.8,19.5031,1.80182,-0.02185
261.2,19.5409,1.8051,-0.02185
261.6,19.5793,1.80524,-0.02185
262,19.6174,1.8013,-0.02185
262.4,19.6554,1.80181,-0.02185
262.8,19.6938,1.80233,-0.02185
263.2,19.7325,1.81582,-0.02185
263.6,19.7701,1.8104,-0.02185
264,19.808,1.8039,-0.02185
264.4,19.8459,1.80756,-0.02185
264.8,19.8836,1.80742,-0.02185
265.2,19.922,1.80639,-0.02185
265.6,19.9603,1.80451,-0.02185
266,19.9994,1.81205,-0.0218499
266.4,20.0372,1.80648,-0.0218994
266.8,20.0759,1.80863,-0.0211869
267.2,20.1141,1.80423,-0.02119
267.6,20.1494,1.80793,-0.02119
268,20.1901,1.81192,-0.021195
268.4,20.2267,1.81334,-0.0222673
268.8,20.2656,1.81243,-0.0218493
269.2,20.3015,1.81067,-0.0218493
269.6,20.3424,1.81211,-0.0216495
270,20.3813,1.81564,-0.0208588
270.4,20.4196,1.81111,-0.02086
270.8,20.4578,1.80134,-0.02086
271.2,20.4957,1.81355,-0.0208603
271.6,20.5332,1.81016,-0.0209166
272,20.5724,1.81682,-0.0201952
272.4,20.6104,1.82078,-0.0202
272.8,20.6478,1.81286,-0.0202
273.2,20.6842,1.81269,-0.0202
273.6,20.7254,1.809,-0.0202
274,20.7627,1.82358,-0.0202
274.4,20.8006,1.82068,-0.0201993
274.8,20.8382,1.81478,-0.0205185
275.2,20.878,1.81777,-0.0208359
275.6,20.9156,1.82792,-0.0208595
276,20.9535,1.82539,-0.0208595
276.4,20.9926,1.82791,-0.0207752
276.8,21.03,1.82236,-0.0221715
277.2,21.0678,1.82536,-0.02061
277.6,21.1067,1.81994,-0.0193522
278,21.1448,1.82078,-0.019322
278.4,21.1834,1.82157,-0.02072601
278.8,21.2224,1.82697,-0.0206405
279.2,21.2605,1.82706,-0.020638
279.6,21.2987,1.8162,-0.0196243
280,21.3367,1.82735,-0.0196503
280.4,21.3744,1.82049,-0.01965
280.8,21.4125,1.81923,-0.01965
281.2,21.4507,1.82426,-0.01965
281.6,21.4897,1.82379,-0.01965
282,21.5272,1.8365,-0.01965
282.4,21.5662,1.8276,-0.01965
282.8,21.6047,1.8214,-0.0196492
283.2,21.643,1.82652,-0.0194643
283.6,21.681,1.83095,-0.0193208
284,21.7191,1.83025,-0.01932
284.4,21.7565,1.82638,-0.0193213
284.8,21.7963,1.82172,-0.019813
285.2,21.8352,1.82095,-0.019979
285.6,21.8714,1.83344,-0.01998
286,21.9107,1.82732,-0.0199801
286.4,21.9483,1.82609,-0.0199769
286.8,21.9877,1.82276,-0.0186419
287.2,22.0258,1.82231,-0.0186598
287.6,22.0645,1.82707,-0.01866
288,22.1027,1.81746,-0.01866
288.4,22.1406,1.83509,-0.01866252
288.8,22.1795,1.82874,-0.017984
289.2,22.2167,1.83927,-0.0178703
289.6,22.2559,1.83038,-0.0160915
290,22.2937,1.83097,-0.0173274
290.4,22.3321,1.83396,-0.01773
290.8,22.3704,1.84218,-0.0187798
291.2,22.4071,1.84185,-0.01878
291.6,22.4473,1.83464,-0.01878
292,22.4865,1.84168,-0.0187797
292.4,22.524,1.8409,-0.0186554
292.8,22.5616,1.83439,-0.0174536
293.2,22.6014,1.83822,-0.0174333
293.6,22.6386,1.83351,-0.0184493
294,22.6778,1.82773,-0.01845001
294.4,22.716,1.82777,-0.0184493
294.8,22.7549,1.82244,-0.01824787
295.2,22.7927,1.83028,-0.0181206
295.6,22.8315,1.82984,-0.0181201
296,22.8689,1.82809,-0.0181204
296.4,22.9091,1.82413,-0.0194332
296.8,22.9468,1.82458,-0.0194049
297.2,22.9846,1.83141,-0.0165076
297.6,23.0228,1.84382,-0.0165792
298,23.0614,1.83525,-0.0165369
298.4,23.1001,1.82809,-0.0178888
298.8,23.1386,1.83491,-0.01789
299.2,23.1774,1.83713,-0.01789
299.6,23.2158,1.83324,-0.0178907
300,23.255,1.84013,-0.0180376
300.4,23.2931,1.83276,-0.0182194
300.8,23.3311,1.83773,-0.01822
301.2,23.3698,1.84589,-0.01822
301.6,23.4086,1.84677,-0.01822
302,23.4463,1.83821,-0.01822
302.4,23.4842,1.84273,-0.01822
302.8,23.524,1.84216,-0.0182217
303.2,23.5624,1.83454,-0.0185226
303.6,23.6007,1.8442,-0.0195402
304,23.6372,1.84415,-0.01954
304.4,23.6779,1.84309,-0.0195413
304.8,23.7163,1.83861,-0.0182329
305.2,23.7536,1.83762,-0.01817
305.6,23.7936,1.832,-0.0192069
306,23.8317,1.83866,-0.019212
306.4,23.8694,1.8336,-0.0178749
306.8,23.9082,1.84539,-0.0178897
307.2,23.9462,1.84382,-0.0178898
307.6,23.9855,1.84361,-0.0178271
308,24.0245,1.84912,-0.0191951
308.4,24.0629,1.84283,-0.0192099
308.8,24.1015,1.839,-0.01921
309.2,24.1397,1.84303,-0.01921
309.6,24.1779,1.83405,-0.01921
310,24.2163,1.83642,-0.01921
310.4,24.254,1.84128,-0.0192102
310.8,24.294,1.84331,-0.01923
311.2,24.3317,1.84475,-0.0178845
311.6,24.37,1.84065,-0.01788995
312,24.4092,1.8414,-0.0178911
312.4,24.4465,1.84245,-0.01857527
312.8,24.4852,1.8486,-0.0198307
313.2,24.5241,1.83874,-0.02134076
313.6,24.5627,1.84934,-0.0197038
314,24.601,1.84454,-0.018441
314.4,24.6398,1.84572,-0.0184401
314.8,24.678,1.84541,-0.01844
315.2,24.7164,1.85287,-0.01844
315.6,24.7564,1.84781,-0.01844
316,24.7942,1.84696,-0.01844
316.4,24.8333,1.84423,-0.01844
316.8,24.8706,1.84166,-0.018436
317.2,24.9087,1.83859,-0.0197427
317.6,24.9478,1.84548,-0.020097
318,24.9866,1.85334,-0.0203522
318.4,25.0253,1.84907,-0.0204043
318.8,25.0634,1.84702,-0.0190984
319.2,25.1017,1.84928,-0.0191
319.6,25.1403,1.8563,-0.0191
320,25.1786,1.84156,-0.0191
320.4,25.2183,1.84863,-0.0191
320.8,25.2554,1.85503,-0.0191
321.2,25.2946,1.85456,-0.0190937
321.6,25.3331,1.846,-0.020319
322,25.3723,1.85553,-0.0204198
322.4,25.4112,1.84837,-0.02042
322.8,25.4493,1.84164,-0.02042
323.2,25.4865,1.85565,-0.02042
323.6,25.5259,1.85122,-0.0204196
324,25.5647,1.8539,-0.0203424
324.4,25.6028,1.85638,-0.0217268
324.8,25.6414,1.84985,-0.0217353
325.2,25.68,1.85293,-0.0204291
325.6,25.7184,1.85466,-0.0201273
326,25.7577,1.85142,-0.0203396
326.4,25.7965,1.84396,-0.0204202
326.8,25.8356,1.84849,-0.0207625
327.2,25.8732,1.84434,-0.021733
327.6,25.9122,1.85063,-0.02173
328,25.9496,1.84552,-0.02173
328.4,25.9894,1.85858,-0.02172955
328.8,26.0285,1.85148,-0.0223494
329.2,26.0666,1.85415,-0.0217197
329.6,26.1058,1.85478,-0.0217398
330,26.1437,1.85053,-0.02174
330.4,26.1833,1.85468,-0.02174
330.8,26.2215,1.85096,-0.02174
331.2,26.2597,1.85467,-0.02174
331.6,26.2992,1.85628,-0.0217133
332,26.337,1.85958,-0.0223921
332.4,26.3758,1.85257,-0.02239
332.8,26.4145,1.8577,-0.0223901
333.2,26.4527,1.85836,-0.0224308
333.6,26.4915,1.85679,-0.0237173
334,26.5303,1.86241,-0.02371
334.4,26.5689,1.85828,-0.023709
334.8,26.6079,1.86257,-0.0223784
335.2,26.6463,1.86454,-0.02235772
335.6,26.6848,1.86295,-0.02372837
336,26.7236,1.86312,-0.0243565
336.4,26.7614,1.85669,-0.0243799
336.8,26.7997,1.86402,-0.02438
337.2,26.8398,1.86658,-0.02438
337.6,26.8778,1.86381,-0.02438
338,26.9162,1.86644,-0.0243828
338.4,26.9553,1.86656,-0.0257508
338.8,26.994,1.8613,-0.02564669
339.2,27.0328,1.86873,-0.0257748
339.6,27.0712,1.86782,-0.025689
340,27.1103,1.87755,-0.0263741
340.4,27.148,1.88183,-0.0270103
340.8,27.1869,1.87516,-0.0264978
341.2,27.2252,1.87374,-0.02601915
341.6,27.2639,1.87162,-0.0260199
342,27.3007,1.86837,-0.0260132
342.4,27.3419,1.87236,-0.0273496
342.8,27.3804,1.87659,-0.0273398
343.2,27.4192,1.88736,-0.0277026
343.6,27.4574,1.8818,-0.0286618
344,27.4961,1.88967,-0.02866
344.4,27.5356,1.87876,-0.02866
344.8,27.574,1.87919,-0.02866
345.2,27.6119,1.88868,-0.02866
345.6,27.6511,1.88728,-0.02866
346,27.69,1.89659,-0.0286599
346.4,27.7285,1.89258,-0.0286637
346.8,27.7672,1.89819,-0.0299717
347.2,27.8068,1.89498,-0.02997
347.6,27.8455,1.90403,-0.02997
348,27.8839,1.90396,-0.0299697
348.4,27.9221,1.8939,-0.029932
348.8,27.9609,1.89799,-0.03095447
349.2,28.0001,1.90595,-0.0309584
349.6,28.0384,1.90448,-0.0319171
350,28.0782,1.90176,-0.0323064
350.4,28.1162,1.89814,-0.0323423
350.8,28.1557,1.90691,-0.0322804
351.2,28.1945,1.91171,-0.0322799
351.6,28.233,1.90898,-0.0322707
352,28.2714,1.91168,-0.0335716
352.4,28.3103,1.9137,-0.0329951
352.8,28.3488,1.91747,-0.0335899
353.2,28.3877,1.90644,-0.0338031
353.6,28.4261,1.91285,-0.0362325
354,28.4659,1.91712,-0.0362303
354.4,28.5035,1.91976,-0.03532976
354.8,28.5434,1.91672,-0.0362044
355.2,28.5824,1.92612,-0.0362399
355.6,28.6204,1.92819,-0.0375807
356,28.6592,1.92732,-0.0375401
356.4,28.6988,1.92867,-0.0375399
356.8,28.7378,1.93514,-0.0366962
357.2,28.7752,1.93864,-0.0378543
357.6,28.8152,1.94023,-0.0378543
358,28.8541,1.94233,-0.0391711
358.4,28.8937,1.94518,-0.0391899
358.8,28.9315,1.94991,-0.0391976
359.2,28.9709,1.95062,-0.0405566
359.6,29.0101,1.94735,-0.0401719
360,29.0465,1.96681,-0.04148
360.4,29.0872,1.95131,-0.04148915
360.8,29.1245,1.95875,-0.0424969
361.2,29.1648,1.95933,-0.042809
361.6,29.2046,1.96624,-0.04281
362,29.2431,1.96638,-0.0428043
362.4,29.2809,1.96044,-0.0441104
362.8,29.3207,1.97064,-0.0441298
363.2,29.3595,1.96756,-0.0441236
363.6,29.3983,1.96661,-0.0454544
364,29.4378,1.97141,-0.0453979
364.4,29.4738,1.9724,-0.0467599
364.8,29.5155,1.97874,-0.0481462
365.2,29.5551,1.98117,-0.0482778
365.6,29.5949,1.98285,-0.0491559
366,29.6326,1.98503,-0.0495179
366.4,29.6715,1.98611,-0.0495213
366.8,29.7105,2.00002,-0.0510333
367.2,29.7496,1.99581,-0.0521451
367.6,29.7875,1.99777,-0.0534514
368,29.8279,2.00648,-0.0548963
368.4,29.8663,1.99635,-0.05373452
368.8,29.9059,2.00238,-0.0549015
369.2,29.9442,1.99706,-0.055969
369.6,29.9837,1.99968,-0.0561531
370,30.0219,2.01327,-0.0572301
370.4,30.061,2.00703,-0.0576577
370.8,30.0999,2.0129,-0.05893488
371.2,30.1397,2.01834,-0.0589493
371.6,30.1782,2.01917,-0.0595527
372,30.2171,2.02778,-0.0610961
372.4,30.2559,2.0335,-0.0622663
372.8,30.2946,2.031,-0.0642135
373.2,30.3339,2.03839,-0.0652473
373.6,30.3734,2.045,-0.0642592
374,30.4125,2.05319,-0.0655417
374.4,30.452,2.05411,-0.0668491
374.8,30.4898,2.05743,-0.068183
375.2,30.529,2.06435,-0.0681863
375.6,30.5662,2.06202,-0.0693983
376,30.6073,2.07079,-0.0708309
376.4,30.6464,2.07523,-0.0721227
376.8,30.6854,2.07301,-0.0734471
377.2,30.725,2.09615,-0.0748034
377.6,30.7633,2.09136,-0.0763079
378,30.8018,2.1046,-0.0775675
378.4,30.8413,2.10941,-0.0787581
378.8,30.8808,2.10538,-0.0794718
379.2,30.9195,2.10959,-0.0810149
379.6,30.9579,2.1188,-0.0824517
380,30.9975,2.12592,-0.0830993
380.4,31.037,2.13422,-0.0844069
380.8,31.0759,2.13397,-0.0843486
381.2,31.1145,2.14013,-0.0849551
381.6,31.154,2.14336,-0.0880254
382,31.1926,2.14821,-0.0900136
382.4,31.2328,2.1616,-0.0913098
382.8,31.2687,2.16198,-0.0912235
383.2,31.3104,2.16651,-0.0926189
383.6,31.3489,2.17532,-0.0940796
384,31.3876,2.17736,-0.0955211
384.4,31.4266,2.18524,-0.0955101
384.8,31.4673,2.19292,-0.0969129
385.2,31.5054,2.19984,-0.0997074
385.6,31.5449,2.19761,-0.102818
386,31.5841,2.20915,-0.105508
386.4,31.623,2.22229,-0.10747
386.8,31.6605,2.22914,-0.108196
387.2,31.7014,2.2274,-0.110261
387.6,31.74,2.24139,-0.111301
388,31.7801,2.23885,-0.113229
388.4,31.8198,2.2454,-0.115916
388.8,31.8583,2.25501,-0.116258
389.2,31.8967,2.27305,-0.117565
389.6,31.937,2.26281,-0.120293
390,31.9755,2.27893,-0.122682
390.4,32.0153,2.28547,-0.123255
390.8,32.0541,2.29642,-0.125963
391.2,32.0933,2.30168,-0.128856
391.6,32.1324,2.30855,-0.130755
392,32.1718,2.32377,-0.1329
392.4,32.2117,2.3256,-0.133804
392.8,32.2502,2.33965,-0.1366897
393.2,32.2907,2.33834,-0.138995
393.6,32.3284,2.35203,-0.141813
394,32.3686,2.36891,-0.143482
394.4,32.4066,2.37708,-0.146748
394.8,32.4472,2.38152,-0.147916
395.2,32.4858,2.4048,-0.149618
395.6,32.5255,2.40822,-0.152095
396,32.5642,2.42537,-0.154007
396.4,32.6036,2.42594,-0.157099
396.8,32.6436,2.43881,-0.160423
397.2,32.6833,2.44408,-0.16242
397.6,32.7218,2.45018,-0.164759
398,32.761,2.46313,-0.167071
398.4,32.7996,2.47881,-0.1704
398.8,32.8402,2.48905,-0.172266
399.2,32.8786,2.49248,-0.174642
399.6,32.9186,2.51413,-0.177826
400,32.9576,2.52241,-0.182685
400.4,32.9947,2.53432,-0.185197
400.8,33.0364,2.53728,-0.187837
401.2,33.0763,2.56286,-0.190876
401.6,33.115,2.57401,-0.194089
402,33.1543,2.58326,-0.195865
402.4,33.1947,2.60009,-0.199785
402.8,33.2336,2.60979,-0.203078
403.2,33.2724,2.62265,-0.206056
403.6,33.312,2.64349,-0.210318
404,33.3517,2.65441,-0.213513
404.4,33.391,2.6731,-0.216793
404.8,33.4313,2.68375,-0.22019
405.2,33.4699,2.69688,-0.223842
405.6,33.509,2.7157,-0.228148
406,33.5483,2.72378,-0.231832
406.4,33.5871,2.74052,-0.235692
406.8,33.6276,2.76479,-0.239064
407.2,33.6661,2.7743,-0.242776
407.6,33.7066,2.78612,-0.247073
408,33.7462,2.81726,-0.251314
408.4,33.7856,2.82901,-0.25556
408.8,33.8247,2.85203,-0.260627
409.2,33.8647,2.85916,-0.266142
409.6,33.9035,2.87206,-0.270822
410,33.9431,2.89533,-0.273958
410.4,33.9836,2.91699,-0.278717
410.8,34.0224,2.94608,-0.282991
411.2,34.0619,2.9577,-0.287551
411.6,34.1016,2.96755,-0.2931166
412,34.1406,2.98086,-0.297188
412.4,34.1806,2.99033,-0.302621
412.8,34.2195,3.00196,-0.307495
413.2,34.2597,3.01001,-0.313417
413.6,34.2993,3.02845,-0.319311
414,34.338,3.03681,-0.323839
414.4,34.3764,3.05704,-0.329163
414.8,34.4139,3.07187,-0.335125
415.2,34.4538,3.08948,-0.341678
415.6,34.4952,3.10038,-0.347866
416,34.535,3.11852,-0.353851
416.4,34.5748,3.14405,-0.360406
416.8,34.6147,3.16811,-0.366869
417.2,34.6538,3.18588,-0.372432
417.6,34.6931,3.20481,-0.38105
418,34.732,3.23993,-0.387813
418.4,34.7713,3.26096,-0.393669
418.8,34.8124,3.28545,-0.401574
419.2,34.8501,3.31504,-0.407273
419.6,34.8909,3.33707,-0.415008
420,34.9307,3.35795,-0.422475
420.4,34.9701,3.38762,-0.43138
420.8,35.0102,3.42445,-0.438381
421.2,35.0495,3.45092,-0.446593
421.6,35.0888,3.48029,-0.45495
422,35.1295,3.50738,-0.463066
422.4,35.1682,3.54397,-0.472418
422.8,35.2087,3.56747,-0.481117
423.2,35.2478,3.59697,-0.489797
423.6,35.2872,3.63023,-0.499893
424,35.3275,3.66625,-0.509587
424.4,35.3678,3.70111,-0.519632
424.8,35.4077,3.73416,-0.528989
425.2,35.4477,3.80755,-0.539093
425.6,35.4872,3.87167,-0.550052
426,35.5271,3.90009,-0.562483
426.4,35.5669,3.93247,-0.574454
426.8,35.6066,3.95968,-0.586046
427.2,35.6462,3.98859,-0.596811
427.6,35.6855,4.0177,-0.607481
428,35.7266,4.06682,-0.619208
428.4,35.766,4.10474,-0.629848
428.8,35.8052,4.13101,-0.641586
429.2,35.845,4.17247,-0.654388
429.6,35.8866,4.20418,-0.66828
430,35.9248,4.24579,-0.680378
430.4,35.9661,4.28947,-0.693835
430.8,36.0048,4.32318,-0.706353
431.2,36.0455,4.35713,-0.720178
431.6,36.0844,4.39267,-0.734042
432,36.1244,4.42646,-0.746939
432.4,36.165,4.47619,-0.760766
432.8,36.2039,4.50539,-0.774984
433.2,36.2445,4.54607,-0.790591
433.6,36.2847,4.58,-0.805213
434,36.3245,4.62068,-0.819862
434.4,36.3648,4.65328,-0.836075
434.8,36.4049,4.69411,-0.852188
435.2,36.4439,4.72355,-0.86541
435.6,36.4844,4.77067,-0.882043
436,36.5244,4.79604,-0.899148
436.4,36.5645,4.83481,-0.915131
436.8,36.6043,4.87692,-0.9313
437.2,36.6441,4.9185,-0.948253
437.6,36.6834,4.9503,-0.965231
438,36.7231,4.99391,-0.982508
438.4,36.7642,5.02065,-1.00106
438.8,36.8032,5.06195,-1.01938
439.2,36.8433,5.0982,-1.03839
439.6,36.884,5.13779,-1.05739
440,36.9238,5.17882,-1.07619
440.4,36.9633,5.21945,-1.09533
440.8,37.0041,5.26703,-1.11588
441.2,37.0437,5.30504,-1.13584
441.6,37.0847,5.34879,-1.15605
442,37.1231,5.37331,-1.17551
442.4,37.1642,5.41843,-1.19709
442.8,37.2037,5.45163,-1.21828
443.2,37.2443,5.48396,-1.23931
443.6,37.284,5.52871,-1.26027
444,37.3242,5.55847,-1.28078
444.4,37.3641,5.59297,-1.30407
444.8,37.4036,5.62953,-1.32709
445.2,37.4437,5.66547,-1.34897
445.6,37.4839,5.69998,-1.37096
446,37.5232,5.73749,-1.39363
446.4,37.5636,5.77091,-1.41799
446.8,37.604,5.79268,-1.44134
447.2,37.6442,5.8259,-1.46423
447.6,37.683,5.85735,-1.48803
448,37.7241,5.88783,-1.51393
448.4,37.7637,5.91975,-1.53876
448.8,37.8037,5.9417,-1.56247
449.2,37.8438,5.98117,-1.58779
449.6,37.8841,5.99783,-1.61333
450,37.924,6.02531,-1.6399
450.4,37.9643,6.04306,-1.66645
450.8,38.0013,6.06126,-1.69048
451.2,38.043,6.07826,-1.71799
451.6,38.0835,6.09024,-1.74489
452,38.1229,6.10399,-1.77131
452.4,38.1635,6.11868,-1.79864
452.8,38.2027,6.1387,-1.82523
453.2,38.2427,6.1422,-1.85289
453.6,38.2823,6.13864,-1.88038
454,38.3228,6.1443,-1.90827
454.4,38.362,6.14094,-1.93571
454.8,38.4026,6.12062,-1.96394
455.2,38.4414,6.10703,-1.99196
455.6,38.4787,6.08829,-2.01796
456,38.5203,6.0648,-2.0476
456.4,38.5592,6.03272,-2.07515
456.8,38.5982,6.01224,-2.10249
457.2,38.6393,5.96714,-2.1319
457.6,38.6774,5.92845,-2.15941
458,38.716,5.88351,-2.18702
458.4,38.7548,5.83713,-2.21501
458.8,38.7939,5.77857,-2.24267
459.2,38.8338,5.71349,-2.27038
459.6,38.8721,5.64938,-2.2966
460,38.9108,5.57593,-2.3235
460.4,38.9495,5.50806,-2.35118
460.8,38.9878,5.42438,-2.37761
461.2,39.0268,5.32889,-2.40465
461.6,39.0658,5.23606,-2.43121
462,39.1038,5.14359,-2.45592
462.4,39.1416,5.04078,-2.48057
462.8,39.1805,4.92335,-2.50629
463.2,39.2193,4.82646,-2.53089
463.6,39.2577,4.70503,-2.55471
464,39.2932,4.59507,-2.57731
464.4,39.3337,4.45636,-2.60142
464.8,39.3716,4.34016,-2.62483
465.2,39.4097,4.21456,-2.64672
465.6,39.4473,4.08707,-2.66827
466,39.4851,3.94769,-2.68829
466.4,39.5229,3.82446,-2.70914
466.8,39.5606,3.691,-2.7286
467.2,39.5988,3.56918,-2.74958
467.6,39.6366,3.42837,-2.76949
468,39.6747,3.29556,-2.78914
468.4,39.7123,3.15878,-2.80693
468.8,39.7507,3.04334,-2.8249
469.2,39.7885,2.91607,-2.84216
469.6,39.8261,2.79415,-2.85908
470,39.8641,2.67141,-2.87427
470.4,39.9018,2.54105,-2.89067
470.8,39.9401,2.43623,-2.9064
471.2,39.9778,2.31675,-2.92103
471.6,40.0173,2.19321,-2.93503
472,40.0556,2.09684,-2.949
472.4,40.0934,1.98782,-2.96301
472.8,40.1317,1.88513,-2.97555
473.2,40.1709,1.78443,-2.98725
473.6,40.2083,1.70468,-2.99899
474,40.2473,1.61768,-3.00874
474.4,40.285,1.53366,-3.02018
474.8,40.3237,1.44751,-3.03138
475.2,40.3627,1.36638,-3.04127
475.6,40.4006,1.28783,-3.05156
476,40.4391,1.22869,-3.06105
476.4,40.478,1.15349,-3.07033
476.8,40.5167,1.09188,-3.07949
477.2,40.5553,1.03689,-3.08788
477.6,40.5946,0.974301,-3.09701
478,40.6333,0.924143,-3.10519
478.4,40.6715,0.880202,-3.11347
478.8,40.7112,0.833835,-3.12049
479.2,40.7504,0.789045,-3.12751
479.6,40.7893,0.757714,-3.13397
480,40.8284,0.725447,-3.14063
480.4,40.8677,0.669093,-3.14793
480.8,40.9076,0.637721,-3.15257
481.2,40.9456,0.612821,-3.15853
481.6,40.9856,0.577836,-3.1637
482,41.0243,0.552133,-3.17001
482.4,41.0645,0.530555,-3.17542
482.8,41.1034,0.505057,-3.18164
483.2,41.1427,0.481384,-3.18629
483.6,41.1823,0.45551,-3.19157
484,41.2222,0.439436,-3.1948
484.4,41.2613,0.418,-3.20003
484.8,41.3015,0.401086,-3.20421
485.2,41.3403,0.384408,-3.20834
485.6,41.3804,0.357284,-3.21213
486,41.4188,0.349627,-3.21479
486.4,41.4585,0.326392,-3.21893
486.8,41.4982,0.307701,-3.22287
487.2,41.5384,0.288018,-3.22603
487.6,41.5768,0.275016,-3.2296
488,41.6164,0.258209,-3.23131
488.4,41.6559,0.235765,-3.23499
488.8,41.6962,0.221882,-3.23865
489.2,41.7352,0.208575,-3.24047
489.6,41.7759,0.186951,-3.24277
490,41.8143,0.179762,-3.24508
490.4,41.8539,0.164752,-3.2466
490.8,41.8934,0.148712,-3.24829
491.2,41.9332,0.14302,-3.25151
491.6,41.9735,0.126098,-3.25268
492,42.0129,0.114477,-3.25383
492.4,42.0509,0.105186,-3.25597
492.8,42.0913,0.0910601,-3.25677
493.2,42.1309,0.0810124,-3.25683
493.6,42.1711,0.06127707,-3.25818
494,42.2103,0.0686334,-3.26119
494.4,42.2502,0.0541374,-3.26321
494.8,42.2896,0.0515601,-3.26392
495.2,42.3294,0.0352229,-3.2639
495.6,42.3686,0.0429501,-3.26451
496,42.4086,0.0333978,-3.26482
496.4,42.4482,0.0366785,-3.26583
496.8,42.4888,0.0248025,-3.26681
497.2,42.5279,0.02483,-3.26638
497.6,42.5669,0.0113556,-3.26638
498,42.6075,0.02363463,-3.26724
498.4,42.6475,0.0175285,-3.2677
498.8,42.6853,0.0261979,-3.2677
499.2,42.7266,0.0258722,-3.2677
499.6,42.766,0.0197256,-3.2677
500,42.806,0.0127926,-3.2677
500.4,42.8458,0.02052937,-3.2677
500.8,42.886,0.01318492,-3.26768
501.2,42.9251,0.0221556,-3.26706
501.6,42.9655,0.0270626,-3.26705
502,43.0045,0.0121558,-3.26841
502.4,43.0436,0.0270948,-3.26835
502.8,43.0821,0.0190523,-3.26835
503.2,43.1243,0.0197755,-3.26835
503.6,43.1642,0.0211254,-3.26835
504,43.2042,0.0238104,-3.26835
504.4,43.2442,0.0203873,-3.26835
504.8,43.2845,0.0177328,-3.26835
505.2,43.3246,0.0205969,-3.26827
505.6,43.3639,0.0231256,-3.26967
506,43.4033,0.0254513,-3.27007
506.4,43.4436,0.0159869,-3.27066
506.8,43.4831,0.0227075,-3.27066
507.2,43.5223,0.0147034,-3.27049
507.6,43.5633,0.019812,-3.26934
508,43.603,0.0150311,-3.26934
508.4,43.6416,0.0145314,-3.26934
508.8,43.6821,0.002534796,-3.26825
509.2,43.7218,-0.001779674,-3.26803
509.6,43.762,-0.01745173,-3.26896
510,43.802,-0.0234712,-3.26935
510.4,43.8413,-0.0258145,-3.26966
510.8,43.8812,-0.0252855,-3.27065
511.2,43.9207,-0.0291213,-3.26941
511.6,43.961,-0.0158536,-3.26799
512,44.0006,-0.0138986,-3.26935
512.4,44.0411,-0.0150442,-3.26935
512.8,44.0813,-0.0141998,-3.26935
513.2,44.1186,-0.009188955,-3.26838
513.6,44.1603,-0.002690066,-3.26803
514,44.1993,-0.001022124,-3.26934
514.4,44.2404,-0.00118196,-3.26935
514.8,44.2809,-0.004154434,-3.26935
515.2,44.3211,0.000822355,-3.26935
515.6,44.3603,0.004945513,-3.26935
516,44.4007,0.005168173,-3.26935
516.4,44.4404,0.007651334,-3.26935
516.8,44.4805,7.47E-05,-3.26924
517.2,44.5208,0.008103945,-3.26802
517.6,44.5618,0.004560717,-3.26915
518,44.5983,0.0143708,-3.26886
518.4,44.6406,0.0165167,-3.26874
518.8,44.6808,0.00993253,-3.26902
519.2,44.721,0.008153755,-3.26902
519.6,44.7609,0.0121523,-3.26903
520,44.8015,0.017128,-3.27034
520.4,44.842,0.0166923,-3.27034
520.8,44.8784,0.0154829,-3.26901
521.2,44.9201,0.0180807,-3.26902
521.6,44.9607,0.019376,-3.26902
522,45.0003,0.0183726,-3.26904
522.4,45.0407,0.0232631,-3.2677
522.8,45.0811,0.01235216,-3.26787
523.2,45.1212,0.0140047,-3.26902
523.6,45.1596,0.0185784,-3.26903
524,45.2011,0.0125823,-3.26869
524.4,45.2408,0.0235566,-3.26868
524.8,45.2814,0.0182202,-3.26868
525.2,45.3215,0.02433122,-3.26911
525.6,45.3609,0.0263964,-3.26934
526,45.4006,0.0305657,-3.26934
526.4,45.4415,0.0269011,-3.26934
526.8,45.4816,0.030606,-3.26934
527.2,45.522,0.0313333,-3.26934
527.6,45.5615,0.0381295,-3.26934
528,45.5998,0.0402127,-3.26933
528.4,45.6415,0.0351239,-3.26795
528.8,45.6825,0.04147928,-3.26733
529.2,45.7232,0.0473007,-3.26736
529.6,45.7633,0.0552011,-3.26736
530,45.803,0.0495311,-3.26736
530.4,45.8435,0.0530725,-3.26738
530.8,45.8835,0.0586623,-3.26868
531.2,45.9222,0.0678234,-3.26868
531.6,45.9638,0.0702263,-3.26868
532,46.0034,0.0725522,-3.26857
532.4,46.0437,0.0815946,-3.26762
532.8,46.0842,0.0744463,-3.26761
533.2,46.124,0.0773129,-3.26868
533.6,46.1647,0.0907323,-3.26868
534,46.2038,0.0928524,-3.26868
534.4,46.2441,0.09311221,-3.26868
534.8,46.2847,0.100809,-3.26868
535.2,46.3254,0.104829,-3.26868
535.6,46.366,0.0944812,-3.26869
536,46.4058,0.092954,-3.26772
536.4,46.4452,0.103119,-3.26769
536.8,46.4863,0.0996757,-3.269
537.2,46.5254,0.101691,-3.26902
537.6,46.5666,0.102804,-3.26902
538,46.6062,0.0914773,-3.26902
538.4,46.6463,0.0980994,-3.26902
538.8,46.6869,0.0947657,-3.2687
539.2,46.7264,0.0908724,-3.26726
539.6,46.7664,0.093682,-3.26737
540,46.807,0.0871428,-3.26835
540.4,46.8481,0.0923449,-3.26869
540.8,46.8874,0.0973493,-3.26869
541.2,46.9275,0.0831066,-3.26846
541.6,46.9667,0.08637505,-3.26737
542,47.0077,0.0792336,-3.26737
542.4,47.0471,0.0827774,-3.26828
542.8,47.0869,0.08678763,-3.26869
543.2,47.1278,0.0852069,-3.26865
543.6,47.1682,0.0725604,-3.26899
544,47.206,0.08210933,-3.26869
544.4,47.248,0.0723742,-3.26869
544.8,47.2874,0.0748685,-3.26869
545.2,47.3279,0.0702852,-3.2685
545.6,47.3677,0.0664189,-3.26737
546,47.4074,0.0669529,-3.26765
546.4,47.4476,0.0712004,-3.26869
546.8,47.488,0.0695972,-3.2683
547.2,47.5254,0.0730328,-3.26737
547.6,47.5676,0.0641993,-3.2686
548,47.608,0.06496186,-3.26868
548.4,47.6476,0.0639355,-3.26978
548.8,47.6893,0.059353,-3.26931
549.2,47.7282,0.0591172,-3.26728
549.6,47.7678,0.0711148,-3.26737
550,47.8076,0.0620481,-3.26737
550.4,47.8474,0.0554044,-3.26804
550.8,47.8872,0.0477764,-3.26803
551.2,47.926,0.0588203,-3.26803
551.6,47.9679,0.0633964,-3.26783
552,48.0083,0.0577924,-3.26704
552.4,48.0477,0.0586926,-3.26704
552.8,48.0868,0.0581752,-3.26704
553.2,48.1258,0.0575883,-3.26704
553.6,48.1678,0.0599415,-3.26704
554,48.2067,0.053103,-3.26704
554.4,48.2478,0.05834869,-3.26705
554.8,48.288,0.0638761,-3.26769
555.2,48.3276,0.0508484,-3.26769
555.6,48.3681,0.0612396,-3.26737
556,48.4074,0.0542932,-3.26736
556.4,48.4478,0.0570277,-3.26736
556.8,48.4885,0.0540905,-3.26736
557.2,48.5252,0.0517054,-3.26736
557.6,48.5681,0.0527384,-3.26736
558,48.6078,0.05752501,-3.26736
558.4,48.6475,0.0453747,-3.26736
558.8,48.6872,0.0497076,-3.26736
559.2,48.7271,0.0594062,-3.26737
559.6,48.768,0.0489372,-3.26733
560,48.8081,0.0475612,-3.26737
560.4,48.848,0.0476236,-3.26737
560.8,48.8882,0.0478293,-3.26737
561.2,48.9282,0.0395393,-3.26737
561.6,48.9687,0.044408,-3.26737
562,49.0091,0.039312,-3.26737
562.4,49.0488,0.0341288,-3.26737
562.8,49.0894,0.0423515,-3.26737
563.2,49.1287,0.0411898,-3.26737
563.6,49.1683,0.0404469,-3.26737
564,49.2089,0.0406952,-3.26737
564.4,49.249,0.0382897,-3.2687
564.8,49.2884,0.0448437,-3.26799
565.2,49.3295,0.0328707,-3.26732
565.6,49.3688,0.0387747,-3.26638
566,49.4098,0.037376,-3.26638
566.4,49.4492,0.0298441,-3.26605
566.8,49.4901,0.0373793,-3.26605
567.2,49.53,0.0324265,-3.26605
567.6,49.5704,0.0282321,-3.26602
568,49.6108,0.0284107,-3.26737
568.4,49.6504,0.0261729,-3.26737
568.8,49.6911,0.0191789,-3.26737
569.2,49.7309,0.0310357,-3.26737
569.6,49.7717,0.0246701,-3.26737
570,49.8121,0.0319551,-3.26737
570.4,49.852,0.0328017,-3.26737
570.8,49.8922,0.0277822,-3.26737
571.2,49.9334,0.0250405,-3.26869
571.6,49.9713,0.020701,-3.26869
572,50.0112,0.0234897,-3.26738
572.4,50.0535,0.0229655,-3.26737
572.8,50.0944,0.033658,-3.26737
573.2,50.1345,0.0191494,-3.26733
573.6,50.1743,0.0217275,-3.26602
574,50.2146,0.0226946,-3.26604
574.4,50.2545,0.0255973,-3.26731
574.8,50.295,0.0245944,-3.26737
575.2,50.3348,0.0171036,-3.26737
575.6,50.3749,0.0183915,-3.26737
576,50.4148,0.0257471,-3.26737
576.4,50.4567,0.0146752,-3.26737
576.8,50.4959,0.0144902,-3.26737
577.2,50.5376,0.0178628,-3.2674
577.6,50.5765,0.017889,-3.26706
578,50.6166,0.0197738,-3.26639
578.4,50.6571,0.009399428,-3.26638
578.8,50.6974,0.007473227,-3.26638
579.2,50.737,0.0139978,-3.26638
579.6,50.7765,0.004863498,-3.26638
580,50.8169,0.0107162,-3.26638
580.4,50.8563,0.008928427,-3.26638
580.8,50.8972,0.000450158,-3.26637
581.2,50.9378,0.0102484,-3.26769
581.6,50.9775,0.005492023,-3.26769
582,51.0182,0.0115664,-3.26743
582.4,51.0584,0.0140634,-3.26736
582.8,51.0987,0.0120106,-3.26736
583.2,51.1394,0.0157907,-3.26736
583.6,51.1788,-0.002515971,-3.26736
584,51.2194,0.00383752,-3.26739
584.4,51.2591,0.004612714,-3.26638
584.8,51.2988,0.007550034,-3.26638
585.2,51.3395,0.006506143,-3.26638
585.6,51.3802,0.007050699,-3.26638
586,51.4206,0.00478221,-3.26637
586.4,51.459,0.003029196,-3.26704
586.8,51.5012,0.0102029,-3.26705
587.2,51.5412,0.0111514,-3.26837
587.6,51.5809,0.0134966,-3.26836
588,51.6215,0.0106499,-3.26835
588.4,51.6625,0.0160774,-3.26704
588.8,51.7024,0.0133787,-3.26584
589.2,51.7429,0.009422979,-3.26592
589.6,51.7809,0.0186576,-3.26638
590,51.8238,0.0204575,-3.2663
590.4,51.8643,0.0139951,-3.26737
590.8,51.9031,0.008264189,-3.26689
591.2,51.9445,0.0106227,-3.26605
591.6,51.9842,0.0124899,-3.26605
592,52.0257,0.0110519,-3.26605
592.4,52.0651,0.01280346,-3.26605
592.8,52.1056,0.0169596,-3.26605
593.2,52.147,0.0163596,-3.26605
593.6,52.1878,0.0125007,-3.26605
594,52.2268,0.0119663,-3.26605
594.4,52.2689,0.011934,-3.26606
594.8,52.3087,0.009279077,-3.26738
595.2,52.3485,0.009227713,-3.26737
595.6,52.3894,0.008191538,-3.26638
596,52.429,0.003359459,-3.26638
596.4,52.4701,0.008841543,-3.26638
596.8,52.511,0.00692256,-3.26633
597.2,52.5506,0.003548766,-3.26737
597.6,52.5909,0.004084444,-3.26598
598,52.6321,0.0115368,-3.26605
598.4,52.6719,0.00760458,-3.26605
598.8,52.7121,0.0101594,-3.26624
599.2,52.753,0.0195107,-3.26737
599.6,52.7931,0.0146387,-3.26737
600,52.8337,0.007700124,-3.26737
,,,
,,,
,,,
,,,
,,,
,,,
,,,
,,,
,,,
,,,
,,,
,,,
,,,
,,,
,,,
,,,
,,,
,,,
,,,
,,,
,,,
,,,
,,,
,,,
,,,
,,,
,,,
,,,
,,,
,,,
,,,
,,,
,,,
,,,
,,,
,,,
,,,
,,,
,,,
,,,
,,,
,,,
,,,
,,,
,,,
,,,
,,,
,,,
,,,
,,,
,,,
,,,
,,,
,,,
,,,
,,,
,,,
,,,
,,,
,,,
,,,
,,,
,,,
,,,
,,,
,,,
,,,
,,,
,,,
,,,
,,,
,,,
,,,
,,,
,,,
,,,
,,,
,,,
,,,
,,,
,,,
,,,
,,,
,,,
,,,
,,,
,,,
,,,
,,,
,,,
,,,
,,,
,,,
,,,
,,,
,,,
,,,
,,,
,,,
,,,
,,,
,,,
,,,
,,,
,,,
,,,
,,,
,,,
,,,
,,,
,,,
,,,
,,,
,,,
,,,
,,,
,,,
,,,
,,,
,,,
,,,
,,,
,,,
,,,
,,,
,,,
,,,
,,,
,,,
,,,
,,,
,,,
,,,
,,,
,,,
,,,
,,,
,,,
,,,
,,,
,,,
,,,
,,,
,,,
,,,
,,,
,,,
,,,
,,,
,,,
,,,
,,,
,,,
,,,
,,,
,,,
,,,
,,,
,,,
,,,
,,,
,,,
,,,
,,,
,,,
,,,
,,,
,,,
,,,
,,,
,,,
,,,
,,,
,,,
,,,
,,,
,,,
,,,
,,,
,,,
,,,
,,,
,,,
,,,
,,,
,,,
,,,
,,,
,,,
,,,
,,,
,,,
,,,
,,,
,,,
,,,
,,,
,,,
,,,
,,,
,,,
,,,
,,,
,,,
,,,
,,,
,,,
,,,
,,,
,,,
,,,
,,,
,,,
,,,
,,,
,,,
,,,
,,,
,,,
,,,
,,,
,,,
,,,
,,,
,,,
,,,
,,,
,,,
,,,
,,,
,,,
,,,
,,,
,,,
,,,
,,,
,,,
,,,
,,,
,,,
,,,
,,,
,,,
,,,
,,,
,,,
,,,
,,,
,,,
,,,
,,,
,,,
,,,
,,,
,,,
,,,
,,,
,,,
,,,
,,,
,,,
,,,
,,,
,,,
,,,
,,,
,,,
,,,
,,,
,,,
,,,
,,,
,,,
,,,
,,,
,,,
,,,
,,,
,,,
,,,
,,,
,,,
,,,
,,,
,,,
,,,
,,,
,,,
,,,
,,,
,,,
,,,
,,,
,,,
,,,
,,,
,,,
,,,