File: 01_Data/SCBA_Bracket/STA/N2/10K_min/SCBA_Bracket_STA_N2_10KData_240726_R3.csv
Temp./C,Time/min,DSC/(mW/mg),Mass loss/mg
60,0,1.1786,-0.0291067
60.4,0.04586022,1.18994,-0.0277793
60.8,0.0901869,1.2082,-0.0291019
61.2,0.134552,1.21481,-0.0291741
61.6,0.180041,1.23494,-0.0292712
62,0.224412,1.24503,-0.0305744
62.4,0.269367,1.25461,-0.0293121
62.8,0.312687,1.27067,-0.02870505
63.2,0.3569005,1.288,-0.027718
63.6,0.401237,1.2996,-0.0290645
64,0.442425,1.31291,-0.0304023
64.4,0.487014,1.31916,-0.0291648
64.8,0.527351,1.32722,-0.0302978
65.2,0.573292,1.3355,-0.02908013
65.6,0.616537,1.3424,-0.0304001
66,0.658721,1.35146,-0.0290823
66.4,0.702067,1.34804,-0.030617
66.8,0.743905,1.36154,-0.0319627
67.2,0.788637,1.35468,-0.0306214
67.6,0.827681,1.37349,-0.030725
68,0.873101,1.37569,-0.0293077
68.4,0.916457,1.37755,-0.0293068
68.8,0.958506,1.37504,-0.0302395
69.2,1.00153,1.37929,-0.0293119
69.6,1.04326,1.387,-0.0295325
70,1.08556,1.39605,-0.0307488
70.4,1.12791,1.38888,-0.0320547
70.8,1.16862,1.38898,-0.03072501
71.2,1.21201,1.40325,-0.0308101
71.6,1.25413,1.40374,-0.0306876
72,1.29578,1.40955,-0.0307415
72.4,1.33811,1.42615,-0.0321163
72.8,1.37842,1.40995,-0.0320602
73.2,1.42018,1.40932,-0.0316059
73.6,1.46258,1.4204,-0.03073226
74,1.50395,1.42143,-0.0293758
74.4,1.54611,1.43581,-0.0301638
74.8,1.58686,1.42392,-0.0307295
75.2,1.62993,1.42817,-0.0307769
75.6,1.66668,1.42331,-0.0307381
76,1.71182,1.43044,-0.03073
76.4,1.75359,1.43618,-0.0307313
76.8,1.79424,1.43433,-0.0320523
77.2,1.83727,1.43654,-0.03204998
77.6,1.87844,1.44368,-0.0320421
78,1.91826,1.4377,-0.0319867
78.4,1.95952,1.43896,-0.032072
78.8,2.00194,1.44733,-0.0335191
79.2,2.04229,1.44561,-0.0334649
79.6,2.08395,1.44914,-0.0321411
80,2.12445,1.45762,-0.0321599
80.4,2.16561,1.45125,-0.03216
80.8,2.20559,1.45781,-0.03216
81.2,2.24679,1.45907,-0.0321605
81.6,2.28854,1.462,-0.0323612
82,2.32859,1.46863,-0.0334963
82.4,2.36969,1.47063,-0.0325031
82.8,2.41079,1.47255,-0.0322903
83.2,2.45129,1.47873,-0.0334872
83.6,2.49185,1.48537,-0.0334799
84,2.53158,1.48098,-0.03346469
84.4,2.57325,1.48487,-0.0334001
84.8,2.61294,1.49225,-0.0334699
85.2,2.65457,1.49944,-0.0334693
85.6,2.69439,1.49151,-0.0348267
86,2.73445,1.51911,-0.03349
86.4,2.77454,1.51199,-0.0334801
86.8,2.81475,1.50877,-0.03348
87.2,2.855,1.52159,-0.0334854
87.6,2.89514,1.52782,-0.0321912
88,2.93473,1.53205,-0.0321274
88.4,2.97635,1.5323,-0.0334787
88.8,3.01535,1.53167,-0.0334794
89.2,3.05579,1.5464,-0.0347787
89.6,3.09633,1.55124,-0.0347999
90,3.13581,1.5529,-0.0348
90.4,3.17592,1.55425,-0.03480655
90.8,3.21386,1.54955,-0.0335083
91.2,3.25522,1.55483,-0.0334789
91.6,3.29437,1.55939,-0.034795
92,3.33535,1.57222,-0.0347875
92.4,3.37403,1.56229,-0.0333893
92.8,3.41347,1.56732,-0.0347902
93.2,3.45346,1.56795,-0.03479
93.6,3.49277,1.57069,-0.03479
94,3.53215,1.57239,-0.03479
94.4,3.56937,1.57234,-0.0347995
94.8,3.61006,1.56745,-0.0361512
95.2,3.6487,1.56444,-0.0347997
95.6,3.69033,1.56484,-0.0348
96,3.72892,1.57125,-0.0348012
96.4,3.76785,1.57403,-0.0352375
96.8,3.80844,1.57354,-0.0361231
97.2,3.8477,1.57182,-0.0361095
97.6,3.8866,1.57651,-0.0351231
98,3.92645,1.56718,-0.03513
98.4,3.96643,1.5786,-0.03513
98.8,4.00553,1.57201,-0.035122
99.2,4.04493,1.57501,-0.0348082
99.6,4.08235,1.57124,-0.0347974
100,4.12172,1.57346,-0.0333811
100.4,4.16173,1.57331,-0.0347937
100.8,4.20147,1.57086,-0.0347909
101.2,4.24004,1.56673,-0.0353504
101.6,4.27924,1.56633,-0.03611114
102,4.31826,1.56229,-0.0361075
102.4,4.35746,1.57392,-0.03544162
102.8,4.39605,1.56147,-0.0348529
103.2,4.43726,1.56998,-0.0347686
103.6,4.47542,1.56533,-0.0354429
104,4.5143,1.56784,-0.03544
104.4,4.55213,1.56487,-0.0351399
104.8,4.59183,1.5672,-0.03513
105.2,4.63018,1.55966,-0.0351283
105.6,4.66986,1.56999,-0.0357923
106,4.70969,1.55563,-0.0357784
106.4,4.74767,1.56432,-0.035019
106.8,4.78674,1.57222,-0.0361777
107.2,4.82654,1.57158,-0.0361203
107.6,4.86447,1.57259,-0.03612
108,4.90348,1.58166,-0.03611859
108.4,4.94312,1.58015,-0.035777
108.8,4.98125,1.58469,-0.0360857
109.2,5.01838,1.57379,-0.0361099
109.6,5.0606,1.57939,-0.03611
110,5.09817,1.57694,-0.03611
110.4,5.13811,1.58017,-0.03611
110.8,5.17652,1.58413,-0.03610968
111.2,5.21536,1.58088,-0.0360411
111.6,5.25436,1.58056,-0.0360005
112,5.29344,1.5862,-0.0361092
112.4,5.3321,1.57969,-0.0360792
112.8,5.37105,1.58444,-0.0347837
113.2,5.40922,1.5884,-0.03479
113.6,5.44862,1.59328,-0.03478999
114,5.48717,1.59684,-0.03479194
114.4,5.52631,1.59097,-0.03531498
114.8,5.56572,1.59117,-0.0361109
115.2,5.60446,1.59579,-0.0361015
115.6,5.64314,1.59888,-0.03617218
116,5.68265,1.60397,-0.0346594
116.4,5.72025,1.5976,-0.0346882
116.8,5.75929,1.59742,-0.0357109
117.2,5.79853,1.60874,-0.036
117.6,5.83783,1.60673,-0.03599908
118,5.87711,1.61516,-0.0351991
118.4,5.91612,1.61553,-0.0350512
118.8,5.95456,1.61109,-0.0360227
119.2,5.99448,1.61573,-0.0352024
119.6,6.03126,1.60965,-0.0363327
120,6.07024,1.61741,-0.03633
120.4,6.10836,1.62534,-0.0363289
120.8,6.14855,1.61482,-0.0353291
121.2,6.18368,1.62766,-0.0353531
121.6,6.22517,1.6175,-0.0349877
122,6.26408,1.62439,-0.0350657
122.4,6.30264,1.62791,-0.0363346
122.8,6.34224,1.62649,-0.0363301
123.2,6.38045,1.63429,-0.0363499
123.6,6.41901,1.6365,-0.0376484
124,6.45911,1.63621,-0.036974
124.4,6.49777,1.63149,-0.0363278
124.8,6.53551,1.64035,-0.0350097
125.2,6.57336,1.63692,-0.0350201
125.6,6.61314,1.6303,-0.0363194
126,6.65189,1.64942,-0.0376361
126.4,6.6903,1.64408,-0.0376499
126.8,6.72933,1.64578,-0.03765
127.2,6.76695,1.65414,-0.0364679
127.6,6.8072,1.65725,-0.0363085
128,6.84491,1.66447,-0.0376526
128.4,6.88497,1.66156,-0.0365365
128.8,6.92312,1.65714,-0.0363408
129.2,6.96082,1.66186,-0.03634
129.6,6.99963,1.65908,-0.03634
130,7.03798,1.6709,-0.0363465
130.4,7.07672,1.67325,-0.0373266
130.8,7.11517,1.67126,-0.0373201
131.2,7.15388,1.67697,-0.03732
131.6,7.19104,1.67373,-0.03732
132,7.22932,1.67699,-0.03731997
132.4,7.26576,1.68376,-0.0373386
132.8,7.30748,1.68144,-0.0360331
133.2,7.34549,1.69239,-0.0373241
133.6,7.38278,1.69111,-0.0373201
134,7.42261,1.69212,-0.037323
134.4,7.46132,1.69812,-0.0364731
134.8,7.49751,1.70293,-0.0359992
135.2,7.53779,1.7011,-0.03597702
135.6,7.57646,1.71144,-0.0363307
136,7.61538,1.7119,-0.0369792
136.4,7.65318,1.71788,-0.03862497
136.8,7.69201,1.70907,-0.0386394
137.2,7.73088,1.70986,-0.0385757
137.6,7.76874,1.71816,-0.0373204
138,7.80665,1.72802,-0.03732
138.4,7.84523,1.71985,-0.03732
138.8,7.8844,1.72913,-0.03731981
139.2,7.92196,1.72852,-0.0372998
139.6,7.96095,1.73062,-0.0400056
140,7.99892,1.72748,-0.0399602
140.4,8.03632,1.73981,-0.0386212
140.8,8.07626,1.73051,-0.0386399
141.2,8.11485,1.73613,-0.03864
141.6,8.15305,1.74042,-0.03864
142,8.19016,1.73851,-0.03864
142.4,8.2293,1.74751,-0.03864
142.8,8.26753,1.74078,-0.03864
143.2,8.30566,1.7486,-0.03864
143.6,8.34464,1.74908,-0.0386355
144,8.38373,1.74844,-0.03937
144.4,8.42014,1.75103,-0.0393249
144.8,8.45903,1.75625,-0.0396214
145.2,8.49748,1.752,-0.03863763
145.6,8.53536,1.75355,-0.03864
146,8.57477,1.75073,-0.03864
146.4,8.61238,1.76424,-0.03864
146.8,8.65026,1.76666,-0.03864
147.2,8.68935,1.76684,-0.0386393
147.6,8.7276,1.77546,-0.0395176
148,8.76525,1.77125,-0.0409199
148.4,8.80373,1.77437,-0.0404794
148.8,8.84219,1.77171,-0.039619
149.2,8.88033,1.76809,-0.0396199
149.6,8.91882,1.77067,-0.039623
150,8.95731,1.77591,-0.0409411
150.4,8.9941,1.77323,-0.04094
150.8,9.0343,1.78094,-0.04094
151.2,9.07232,1.77877,-0.0409425
151.6,9.10828,1.77921,-0.04193
152,9.1452,1.78277,-0.0419297
152.4,9.18667,1.78718,-0.04193
152.8,9.22414,1.7916,-0.04193
153.2,9.26193,1.79386,-0.04193
153.6,9.302,1.79902,-0.0419315
154,9.34089,1.79723,-0.0415178
154.4,9.37833,1.8083,-0.0412715
154.8,9.41621,1.80436,-0.0405693
155.2,9.45496,1.80595,-0.0406097
155.6,9.49188,1.80526,-0.04061
156,9.52995,1.811,-0.0406103
156.4,9.56929,1.81099,-0.04193119
156.8,9.6074,1.81566,-0.0422616
157.2,9.64504,1.80848,-0.0422596
157.6,9.68342,1.81685,-0.0422429
158,9.72151,1.82749,-0.0427122
158.4,9.7603,1.82104,-0.0422608
158.8,9.79892,1.82495,-0.04226
159.2,9.83588,1.82558,-0.04226
159.6,9.87374,1.83454,-0.04226
160,9.913,1.83298,-0.04226
160.4,9.95104,1.83547,-0.04226
160.8,9.9888,1.83574,-0.04226
161.2,10.0273,1.84488,-0.04226
161.6,10.0656,1.84706,-0.04226
162,10.1034,1.84723,-0.0422606
162.4,10.1408,1.85087,-0.0436392
162.8,10.1806,1.85006,-0.04357041
163.2,10.2182,1.84079,-0.04357
163.6,10.2556,1.84793,-0.04357
164,10.294,1.85667,-0.04357005
164.4,10.3324,1.85388,-0.043577
164.8,10.3706,1.86024,-0.042434
165.2,10.4088,1.85811,-0.04291787
165.6,10.4466,1.86074,-0.0442687
166,10.4842,1.85735,-0.0442304
166.4,10.5237,1.86649,-0.04423
166.8,10.5623,1.86451,-0.0442259
167.2,10.5995,1.87713,-0.0452627
167.6,10.6378,1.87429,-0.0455488
168,10.6758,1.87803,-0.0441713
168.4,10.7141,1.87916,-0.0442296
168.8,10.7516,1.88705,-0.04423
169.2,10.7902,1.89244,-0.04423
169.6,10.8289,1.88819,-0.04423
170,10.8666,1.88646,-0.0442304
170.4,10.9052,1.8919,-0.0446977
170.8,10.9435,1.89903,-0.0448886
171.2,10.9804,1.89038,-0.0448871
171.6,11.0191,1.89667,-0.0456673
172,11.057,1.90459,-0.04497688
172.4,11.0953,1.91166,-0.0449007
172.8,11.1341,1.90478,-0.0449
173.2,11.1722,1.90213,-0.0449
173.6,11.2098,1.9149,-0.0448997
174,11.2479,1.92021,-0.0451906
174.4,11.2861,1.9267,-0.0461191
174.8,11.3238,1.91761,-0.04620924
175.2,11.362,1.92078,-0.0462099
175.6,11.4005,1.922,-0.0461999
176,11.4372,1.92159,-0.044907
176.4,11.4771,1.93305,-0.0448998
176.8,11.5153,1.92616,-0.044852
177.2,11.5535,1.93573,-0.0458764
177.6,11.5922,1.93507,-0.04588
178,11.6301,1.93563,-0.04588041
178.4,11.6671,1.93619,-0.0458569
178.8,11.7066,1.94564,-0.04646843
179.2,11.7441,1.9516,-0.0472045
179.6,11.7819,1.95516,-0.047102
180,11.8211,1.96073,-0.0485072
180.4,11.8577,1.95873,-0.0485696
180.8,11.897,1.96443,-0.0461554
181.2,11.9348,1.95892,-0.0462193
181.6,11.9732,1.95859,-0.04622
182,12.0116,1.9647,-0.04622
182.4,12.0496,1.966,-0.0462204
182.8,12.0867,1.97345,-0.0474384
183.2,12.1252,1.97198,-0.047529
183.6,12.1632,1.96528,-0.04753
184,12.2013,1.97782,-0.04753
184.4,12.2389,1.97463,-0.04753
184.8,12.2776,1.97424,-0.04753
185.2,12.3148,1.97381,-0.04753
185.6,12.351,1.97759,-0.04753
186,12.3904,1.98761,-0.0475285
186.4,12.4278,1.97798,-0.04881926
186.8,12.4684,1.97881,-0.04885
187.2,12.5058,1.98856,-0.0488497
187.6,12.5441,1.99418,-0.0487408
188,12.5823,2.00294,-0.05014202
188.4,12.621,1.99771,-0.0485398
188.8,12.6585,1.9951,-0.0478565
189.2,12.6959,2.00157,-0.04786
189.6,12.7348,2.00167,-0.04786
190,12.7726,2.01162,-0.0478596
190.4,12.8102,2.00698,-0.0478152
190.8,12.8481,1.99933,-0.0491781
191.2,12.887,2.00252,-0.0492529
191.6,12.9249,2.01199,-0.0481834
192,12.9608,2.01454,-0.04819
192.4,13.0006,2.02547,-0.04819
192.8,13.0375,2.01442,-0.04819
193.2,13.0756,2.00913,-0.04819
193.6,13.1132,2.02494,-0.04819
194,13.1503,2.02128,-0.04819
194.4,13.1879,2.01949,-0.04819
194.8,13.2251,2.03143,-0.0481955
195.2,13.2659,2.02635,-0.0493395
195.6,13.3034,2.03392,-0.0495094
196,13.3395,2.02687,-0.04951
196.4,13.3797,2.03202,-0.04951
196.8,13.4175,2.04337,-0.04951
197.2,13.456,2.04331,-0.04951
197.6,13.493,2.04682,-0.04951
198,13.532,2.05115,-0.04951
198.4,13.5695,2.04577,-0.04951
198.8,13.6069,2.05185,-0.04951
199.2,13.6449,2.06041,-0.04951
199.6,13.6834,2.069,-0.04951206
200,13.7225,2.05938,-0.0500629
200.4,13.76,2.07748,-0.0508339
200.8,13.7969,2.08075,-0.0508201
201.2,13.8354,2.07729,-0.0508226
201.6,13.8742,2.08305,-0.0504457
202,13.9111,2.09493,-0.04992479
202.4,13.9496,2.09843,-0.0491797
202.8,13.9886,2.11357,-0.0488586
203.2,14.0267,2.12906,-0.0488503
203.6,14.0644,2.12801,-0.04885
204,14.1023,2.13869,-0.0488499
204.4,14.1404,2.15411,-0.0488721
204.8,14.1782,2.16997,-0.0491841
205.2,14.2178,2.18087,-0.04917
205.6,14.2558,2.20005,-0.04917
206,14.2928,2.21493,-0.04917
206.4,14.3321,2.23496,-0.04917
206.8,14.3692,2.2482,-0.0491695
207.2,14.4081,2.27986,-0.049587
207.6,14.4466,2.30688,-0.0504931
208,14.4852,2.32544,-0.05049
208.4,14.5237,2.36141,-0.05049
208.8,14.5614,2.40141,-0.05049
209.2,14.6004,2.43679,-0.05049
209.6,14.6392,2.47318,-0.05049
210,14.6743,2.51453,-0.05049
210.4,14.7137,2.56546,-0.05049
210.8,14.7545,2.61731,-0.05049
211.2,14.7937,2.69162,-0.05049
211.6,14.8327,2.75108,-0.05049
212,14.8718,2.81331,-0.05049
212.4,14.9108,2.89334,-0.0504921
212.8,14.9489,2.96527,-0.05001508
213.2,14.9883,3.05566,-0.0504987
213.6,15.0278,3.13239,-0.0505001
214,15.067,3.22906,-0.0505122
214.4,15.1066,3.31915,-0.0511426
214.8,15.1459,3.43024,-0.0511498
215.2,15.1858,3.52684,-0.0511377
215.6,15.2266,3.63386,-0.0521423
216,15.2657,3.75149,-0.0521401
216.4,15.3055,3.86568,-0.05214
216.8,15.3445,3.98588,-0.05214
217.2,15.3839,4.11973,-0.05214
217.6,15.4247,4.25282,-0.05214
218,15.4644,4.38165,-0.05214
218.4,15.5044,4.51686,-0.05214
218.8,15.5428,4.65393,-0.05214
219.2,15.5843,4.79763,-0.05214
219.6,15.6233,4.91713,-0.0521399
220,15.6634,5.03926,-0.0519823
220.4,15.7036,5.15986,-0.0500547
220.8,15.7428,5.25767,-0.0501694
221.2,15.7836,5.34471,-0.0501662
221.6,15.8224,5.40281,-0.0510847
222,15.861,5.43311,-0.0514899
222.4,15.899,5.40385,-0.05149
222.8,15.9355,5.29357,-0.051483
223.2,15.9722,5.10508,-0.051168
223.6,16.0067,4.8338,-0.0511599
224,16.0411,4.48364,-0.05116
224.4,16.0749,4.1373,-0.05116
224.8,16.11,3.78615,-0.05116
225.2,16.1446,3.48086,-0.05116
225.6,16.1788,3.22737,-0.05116
226,16.2151,3.00418,-0.05116
226.4,16.2505,2.82659,-0.05116
226.8,16.2873,2.68552,-0.05116
227.2,16.3228,2.56899,-0.05116
227.6,16.3599,2.45796,-0.05116
228,16.394,2.3904,-0.05116
228.4,16.4341,2.31849,-0.05116
228.8,16.4707,2.27663,-0.05116
229.2,16.5078,2.23571,-0.05116
229.6,16.545,2.19799,-0.0511599
230,16.5824,2.1729,-0.0517404
230.4,16.6186,2.15746,-0.0524714
230.8,16.657,2.13787,-0.0524608
231.2,16.6948,2.1264,-0.05109665
231.6,16.733,2.11529,-0.0498135
232,16.7702,2.0959,-0.0512328
232.4,16.8089,2.08936,-0.0511087
232.8,16.8465,2.08798,-0.0524692
233.2,16.8838,2.07885,-0.0524698
233.6,16.9202,2.08058,-0.0524557
234,16.9563,2.08855,-0.0511576
234.4,16.998,2.07539,-0.0513768
234.8,17.0349,2.08181,-0.0524754
235.2,17.0721,2.07533,-0.05247
235.6,17.1112,2.08094,-0.0524692
236,17.1487,2.07925,-0.0511607
236.4,17.1863,2.08358,-0.051151
236.8,17.2249,2.07983,-0.0511511
237.2,17.2627,2.07877,-0.0514557
237.6,17.2996,2.07648,-0.0524703
238,17.339,2.07768,-0.0524713
238.4,17.3755,2.07647,-0.0511436
238.8,17.4135,2.06969,-0.05115
239.2,17.4516,2.07406,-0.05115
239.6,17.4897,2.08307,-0.05115
240,17.5281,2.07636,-0.05115
240.4,17.5652,2.0853,-0.05115
240.8,17.6042,2.07869,-0.05115
241.2,17.6404,2.08464,-0.05115
241.6,17.6799,2.08406,-0.05115
242,17.7176,2.08136,-0.05115
242.4,17.7564,2.07798,-0.05115
242.8,17.7938,2.08908,-0.0511571
243.2,17.8319,2.07984,-0.0500559
243.6,17.8697,2.08812,-0.0501598
244,17.9078,2.08876,-0.05016
244.4,17.9452,2.08948,-0.0501606
244.8,17.9841,2.09334,-0.0514924
245.2,18.0221,2.08133,-0.0514767
245.6,18.0602,2.08937,-0.0522483
246,18.0975,2.09429,-0.05280086
246.4,18.1363,2.09522,-0.05280001
246.8,18.1735,2.09494,-0.0528
247.2,18.2122,2.09257,-0.0528
247.6,18.2499,2.09148,-0.0528
248,18.2877,2.10276,-0.0528
248.4,18.3261,2.09264,-0.0528
248.8,18.3644,2.09531,-0.0528
249.2,18.4023,2.10733,-0.0527992
249.6,18.4408,2.08876,-0.0520683
250,18.4784,2.09654,-0.0514789
250.4,18.516,2.10333,-0.05148
250.8,18.5555,2.09555,-0.05148
251.2,18.5925,2.09501,-0.05148
251.6,18.6313,2.09587,-0.05148
252,18.6686,2.09452,-0.05148
252.4,18.7065,2.09363,-0.05148
252.8,18.7458,2.08722,-0.05148
253.2,18.7836,2.09,-0.05148
253.6,18.8216,2.08802,-0.05148
254,18.8593,2.09269,-0.05148
254.4,18.8969,2.10086,-0.05148
254.8,18.9357,2.0958,-0.05148
255.2,18.9736,2.09265,-0.05148
255.6,19.0123,2.1028,-0.05148
256,19.0502,2.09592,-0.05148
256.4,19.0885,2.09446,-0.0514801
256.8,19.126,2.10416,-0.0515535
257.2,19.165,2.09815,-0.0524742
257.6,19.2026,2.0964,-0.0524699
258,19.2406,2.09867,-0.05127279
258.4,19.2797,2.10039,-0.0511509
258.8,19.3175,2.09568,-0.0511514
259.2,19.3554,2.10011,-0.0518147
259.6,19.393,2.10459,-0.0521609
260,19.4326,2.09877,-0.0534621
260.4,19.4698,2.1007,-0.05345988
260.8,19.507,2.09643,-0.0534896
261.2,19.5458,2.09605,-0.0531284
261.6,19.5842,2.10453,-0.0531108
262,19.6227,2.10435,-0.0524916
262.4,19.6608,2.10623,-0.0517809
262.8,19.6986,2.10241,-0.051481
263.2,19.7367,2.11024,-0.0511236
263.6,19.7748,2.10233,-0.0511489
264,19.8133,2.10529,-0.0518255
264.4,19.8512,2.10907,-0.0538751
264.8,19.8897,2.09838,-0.0531399
265.2,19.9277,2.10026,-0.0524691
265.6,19.9662,2.10825,-0.05247
266,20.0044,2.09939,-0.0524706
266.4,20.0422,2.10713,-0.0525363
266.8,20.0802,2.10817,-0.0514764
267.2,20.1178,2.10742,-0.0509711
267.6,20.1562,2.10931,-0.0501678
268,20.1943,2.10625,-0.05017
268.4,20.2318,2.10819,-0.0501709
268.8,20.2713,2.10642,-0.050245
269.2,20.3087,2.10929,-0.0514788
269.6,20.3454,2.11465,-0.0515556
270,20.384,2.11291,-0.0528083
270.4,20.423,2.12585,-0.0528
270.8,20.4614,2.11099,-0.0528
271.2,20.4999,2.12037,-0.0528
271.6,20.5376,2.1107,-0.0528
272,20.5761,2.11515,-0.0528
272.4,20.6133,2.1175,-0.0528
272.8,20.6522,2.11904,-0.0528
273.2,20.6908,2.1195,-0.0528014
273.6,20.7282,2.12716,-0.0519431
274,20.7668,2.11507,-0.0501711
274.4,20.8046,2.11715,-0.0504631
274.8,20.8428,2.10467,-0.051485
275.2,20.8812,2.12494,-0.051608
275.6,20.9192,2.12491,-0.0521395
276,20.9543,2.11743,-0.0525339
276.4,20.9953,2.10303,-0.0527992
276.8,21.0352,2.10879,-0.0528
277.2,21.0727,2.11015,-0.0528
277.6,21.1103,2.11771,-0.0528
278,21.1483,2.11117,-0.0528
278.4,21.1872,2.11659,-0.0528
278.8,21.2252,2.1098,-0.0528
279.2,21.2635,2.11366,-0.052801
279.6,21.3022,2.11019,-0.0522378
280,21.3406,2.11738,-0.0518112
280.4,21.3795,2.11445,-0.0512519
280.8,21.4172,2.10944,-0.0504968
281.2,21.4554,2.10763,-0.0515197
281.6,21.494,2.11463,-0.0518167
282,21.5318,2.11416,-0.0521736
282.4,21.5682,2.11093,-0.05215
282.8,21.6087,2.11068,-0.0521538
283.2,21.6453,2.11628,-0.0531565
283.6,21.6856,2.10953,-0.0531302
284,21.7243,2.11714,-0.05313
284.4,21.762,2.12534,-0.0531302
284.8,21.8006,2.12084,-0.0527925
285.2,21.8388,2.11973,-0.0518105
285.6,21.878,2.11948,-0.0530654
286,21.9158,2.1231,-0.0540574
286.4,21.9542,2.11878,-0.0540983
286.8,21.9921,2.11336,-0.0527982
287.2,22.0305,2.12475,-0.0528026
287.6,22.0674,2.11051,-0.0536204
288,22.1064,2.11869,-0.0528
288.4,22.1453,2.11542,-0.0530999
288.8,22.1832,2.11851,-0.0541768
289.2,22.2196,2.11334,-0.0528005
289.6,22.2614,2.12103,-0.0528
290,22.2987,2.12326,-0.0528
290.4,22.3373,2.11057,-0.0528
290.8,22.3759,2.10932,-0.0528006
291.2,22.4129,2.11293,-0.0529375
291.6,22.4523,2.11283,-0.0531293
292,22.4904,2.11664,-0.05313
292.4,22.529,2.11974,-0.0531302
292.8,22.568,2.11412,-0.0531618
293.2,22.6058,2.11835,-0.05248545
293.6,22.6437,2.11186,-0.0524819
294,22.6822,2.12036,-0.0527912
294.4,22.7208,2.11416,-0.0534584
294.8,22.7603,2.11056,-0.05346
295.2,22.7968,2.10982,-0.05346
295.6,22.8359,2.11818,-0.05346
296,22.874,2.12997,-0.0534601
296.4,22.9132,2.11583,-0.05349775
296.8,22.9505,2.11803,-0.0553916
297.2,22.9878,2.11652,-0.0554244
297.6,23.0246,2.11914,-0.0561633
298,23.065,2.11851,-0.0560904
298.4,23.1041,2.1178,-0.05609
298.8,23.1436,2.11871,-0.0560919
299.2,23.181,2.11926,-0.0551316
299.6,23.2202,2.12361,-0.05510126
300,23.2579,2.13035,-0.0551
300.4,23.2971,2.11992,-0.0551
300.8,23.335,2.12347,-0.0551
301.2,23.3744,2.12311,-0.0551
301.6,23.412,2.1233,-0.0551
302,23.4503,2.12123,-0.0550989
302.4,23.4885,2.12823,-0.0557276
302.8,23.5263,2.125,-0.0564217
303.2,23.5645,2.13141,-0.0564199
303.6,23.6036,2.1334,-0.0564088
304,23.6413,2.13202,-0.055058
304.4,23.68,2.13865,-0.0550999
304.8,23.7194,2.12957,-0.05509936
305.2,23.7553,2.13329,-0.0557144
305.6,23.7928,2.13094,-0.0561093
306,23.8316,2.13117,-0.0561
306.4,23.873,2.12702,-0.0561
306.8,23.9106,2.13141,-0.0561
307.2,23.9485,2.12751,-0.0561
307.6,23.988,2.13828,-0.0561001
308,24.0255,2.14062,-0.0561257
308.4,24.0624,2.13381,-0.05741
308.8,24.1026,2.13671,-0.0558832
309.2,24.14,2.13538,-0.0559791
309.6,24.1792,2.13727,-0.0549237
310,24.218,2.13348,-0.0545575
310.4,24.2563,2.12911,-0.0545575
310.8,24.2948,2.12764,-0.0553292
311.2,24.3331,2.13935,-0.0559019
311.6,24.3686,2.14184,-0.0568742
312,24.4107,2.13285,-0.0568693
312.4,24.4483,2.14375,-0.0567702
312.8,24.4866,2.14175,-0.0585024
313.2,24.525,2.14111,-0.05851
313.6,24.5634,2.14344,-0.0585233
314,24.6023,2.14771,-0.05987
314.4,24.6412,2.13915,-0.0594635
314.8,24.6793,2.14434,-0.0585067
315.2,24.7179,2.13891,-0.05851
315.6,24.7568,2.14345,-0.05851
316,24.794,2.14513,-0.05851
316.4,24.8339,2.15094,-0.05851
316.8,24.8716,2.154,-0.05851
317.2,24.9106,2.14461,-0.0585089
317.6,24.9486,2.13377,-0.0591462
318,24.9867,2.14401,-0.0598313
318.4,25.0254,2.15269,-0.05983
318.8,25.0645,2.1325,-0.05983
319.2,25.1029,2.14605,-0.05983
319.6,25.1416,2.13948,-0.059828
320,25.1799,2.13872,-0.0605711
320.4,25.219,2.14341,-0.0611499
320.8,25.2568,2.15224,-0.0611503
321.2,25.2954,2.14751,-0.0624017
321.6,25.3342,2.14518,-0.0624591
322,25.3722,2.14012,-0.0624867
322.4,25.411,2.15148,-0.06052235
322.8,25.4498,2.15933,-0.0604902
323.2,25.489,2.15151,-0.06049
323.6,25.5264,2.15911,-0.060491
324,25.5656,2.15576,-0.0608809
324.4,25.6043,2.15079,-0.0618129
324.8,25.6419,2.1543,-0.06181
325.2,25.6789,2.1467,-0.06180999
325.6,25.72,2.15221,-0.0618088
326,25.758,2.15386,-0.06051128
326.4,25.7971,2.15826,-0.0604926
326.8,25.8332,2.15435,-0.0618805
327.2,25.8738,2.15738,-0.0618005
327.6,25.9128,2.15441,-0.0618129
328,25.9513,2.16481,-0.0631634
328.4,25.9901,2.16093,-0.0631202
328.8,26.0282,2.16153,-0.06312
329.2,26.0652,2.16561,-0.06312
329.6,26.1057,2.16571,-0.06311962
330,26.1442,2.16364,-0.063036
330.4,26.1827,2.15482,-0.0644362
330.8,26.2213,2.16106,-0.0644399
331.2,26.2598,2.16594,-0.0644304
331.6,26.2987,2.1556,-0.0631163
332,26.3364,2.16886,-0.0631198
332.4,26.3755,2.17053,-0.0630628
332.8,26.4135,2.16777,-0.0641064
333.2,26.4529,2.16103,-0.0641286
333.6,26.4908,2.16064,-0.06511609
334,26.5299,2.16831,-0.0654252
334.4,26.5684,2.16589,-0.06543
334.8,26.6068,2.16036,-0.0654303
335.2,26.6456,2.17424,-0.0656175
335.6,26.6837,2.16107,-0.0660785
336,26.723,2.16464,-0.0653408
336.4,26.7616,2.16635,-0.0657497
336.8,26.8005,2.16465,-0.0667279
337.2,26.8384,2.1751,-0.06674
337.6,26.877,2.16615,-0.0667398
338,26.9138,2.17138,-0.0667006
338.4,26.9548,2.1647,-0.0670723
338.8,26.9932,2.16813,-0.06707135
339.2,27.0323,2.16703,-0.0672713
339.6,27.0705,2.17047,-0.0684411
340,27.1096,2.16898,-0.0683143
340.4,27.1486,2.17248,-0.0697087
340.8,27.1866,2.17526,-0.0697098
341.2,27.2258,2.17475,-0.0696646
341.6,27.2629,2.17569,-0.0697429
342,27.3025,2.1759,-0.0697104
342.4,27.342,2.17058,-0.06971
342.8,27.3799,2.17946,-0.0697086
343.2,27.419,2.17765,-0.0707075
343.6,27.4579,2.17581,-0.0710301
344,27.496,2.1769,-0.0710327
344.4,27.5357,2.17817,-0.0720749
344.8,27.5745,2.17942,-0.0723324
345.2,27.6123,2.18124,-0.0722832
345.6,27.6524,2.17798,-0.0736595
346,27.6902,2.18477,-0.07366
346.4,27.7287,2.18328,-0.07366
346.8,27.7686,2.18653,-0.07366
347.2,27.8074,2.18124,-0.0736602
347.6,27.8458,2.18977,-0.0749918
348,27.8845,2.18751,-0.0749807
348.4,27.9235,2.18489,-0.0752126
348.8,27.9626,2.18999,-0.0749188
349.2,28.0014,2.18807,-0.07498175
349.6,28.0371,2.18991,-0.076197
350,28.0778,2.18697,-0.0765093
350.4,28.1169,2.19002,-0.0776379
350.8,28.156,2.19621,-0.0789388
351.2,28.1949,2.18901,-0.07760368
351.6,28.2338,2.19248,-0.0776099
352,28.2725,2.19158,-0.07761003
352.4,28.3108,2.19058,-0.07761589
352.8,28.3486,2.19802,-0.0789285
353.2,28.3891,2.1973,-0.0789337
353.6,28.4271,2.20336,-0.0802425
354,28.4661,2.20832,-0.0802518
354.4,28.5052,2.21291,-0.080867
354.8,28.5443,2.1984,-0.08156044
355.2,28.5828,2.20563,-0.081555
355.6,28.6213,2.2042,-0.0827458
356,28.6612,2.21445,-0.0819852
356.4,28.6997,2.21026,-0.0818895
356.8,28.7385,2.21027,-0.082846
357.2,28.7777,2.21832,-0.0832101
357.6,28.8174,2.21838,-0.083208
358,28.8551,2.21877,-0.0843438
358.4,28.8947,2.21852,-0.0845515
358.8,28.9323,2.21213,-0.0858482
359.2,28.9718,2.22478,-0.0858401
359.6,29.0101,2.22913,-0.0858462
360,29.0496,2.22701,-0.087166
360.4,29.088,2.23344,-0.0894118
360.8,29.1275,2.2409,-0.0898155
361.2,29.1652,2.23738,-0.091123
361.6,29.2044,2.24225,-0.0911489
362,29.2444,2.24685,-0.0924387
362.4,29.2828,2.24284,-0.0924198
362.8,29.3196,2.24063,-0.0917732
363.2,29.3601,2.24766,-0.0930824
363.6,29.3994,2.24729,-0.09308975
364,29.4387,2.25154,-0.0937336
364.4,29.478,2.24703,-0.09439094
364.8,29.5173,2.25247,-0.0959431
365.2,29.5552,2.25352,-0.0969501
365.6,29.5943,2.26276,-0.0976218
366,29.6336,2.26076,-0.0990288
366.4,29.6721,2.26168,-0.0996639
366.8,29.7107,2.2681,-0.100336
367.2,29.7497,2.26216,-0.101395
367.6,29.7888,2.27288,-0.101657
368,29.8272,2.2792,-0.102966
368.4,29.8662,2.28635,-0.104089
368.8,29.9052,2.2839,-0.105296
369.2,29.9445,2.28591,-0.105902
369.6,29.9835,2.29476,-0.106918
370,30.0218,2.29137,-0.108223
370.4,30.0614,2.30411,-0.109617
370.8,30.1,2.29898,-0.108435
371.2,30.1395,2.3047,-0.108234
371.6,30.1781,2.3066,-0.109585
372,30.2174,2.31112,-0.111597
372.4,30.2551,2.32728,-0.112985
372.8,30.2952,2.33093,-0.114392
373.2,30.3341,2.33175,-0.114687
373.6,30.3734,2.33224,-0.115662
374,30.412,2.33611,-0.117016
374.4,30.4515,2.34002,-0.118395
374.8,30.4909,2.35699,-0.119735
375.2,30.5287,2.35839,-0.121065
375.6,30.5685,2.36078,-0.121074
376,30.6073,2.36085,-0.122287
376.4,30.6468,2.36861,-0.123722
376.8,30.6839,2.3774,-0.125243
377.2,30.7246,2.37833,-0.126296
377.6,30.7637,2.38749,-0.127574
378,30.8027,2.39308,-0.128834
378.4,30.8421,2.39865,-0.129445
378.8,30.8814,2.40596,-0.13075
379.2,30.9201,2.40946,-0.132237
379.6,30.9602,2.41563,-0.13476
380,30.9984,2.41809,-0.136349
380.4,31.0382,2.43558,-0.137611
380.8,31.0747,2.42194,-0.137517
381.2,31.115,2.43759,-0.138911
381.6,31.1549,2.44092,-0.141137
382,31.1946,2.44854,-0.143512
382.4,31.2332,2.45478,-0.143062
382.8,31.2718,2.46072,-0.144272
383.2,31.311,2.47316,-0.146394
383.6,31.3494,2.47845,-0.148109
384,31.39,2.484,-0.149528
384.4,31.4289,2.48824,-0.150941
384.8,31.4666,2.50267,-0.152604
385.2,31.5056,2.51174,-0.15638
385.6,31.5437,2.51445,-0.158057
386,31.5853,2.52783,-0.158718
386.4,31.6239,2.53275,-0.15961
386.8,31.6621,2.53614,-0.162086
387.2,31.7021,2.5424,-0.163384
387.6,31.7422,2.55422,-0.165463
388,31.7806,2.56387,-0.166862
388.4,31.8194,2.56837,-0.169918
388.8,31.8598,2.57913,-0.172162
389.2,31.8984,2.58835,-0.17449
389.6,31.9377,2.5924,-0.176789
390,31.9771,2.59793,-0.178089
390.4,32.0163,2.60656,-0.180872
390.8,32.0545,2.61888,-0.182739
391.2,32.0953,2.6303,-0.184321
391.6,32.1335,2.64052,-0.186998
392,32.1726,2.64602,-0.188792
392.4,32.2132,2.65776,-0.190915
392.8,32.2515,2.66026,-0.194353
393.2,32.2906,2.67543,-0.196962
393.6,32.3304,2.68858,-0.19883
394,32.3687,2.69651,-0.20063
394.4,32.4085,2.70644,-0.203111
394.8,32.4487,2.7151,-0.205599
395.2,32.4878,2.72275,-0.208565
395.6,32.5274,2.74021,-0.212123
396,32.5661,2.75341,-0.213665
396.4,32.6049,2.76456,-0.216093
396.8,32.6456,2.76782,-0.219036
397.2,32.6842,2.79217,-0.222408
397.6,32.7241,2.79396,-0.224795
398,32.7626,2.81255,-0.227778
398.4,32.8023,2.82774,-0.231085
398.8,32.8415,2.84084,-0.233069
399.2,32.8804,2.84727,-0.236396
399.6,32.921,2.86327,-0.239264
400,32.9605,2.88133,-0.241948
400.4,32.9989,2.88239,-0.24526
400.8,33.0392,2.89758,-0.2485877
401.2,33.0781,2.91708,-0.251878
401.6,33.1172,2.93445,-0.255531
402,33.1563,2.95667,-0.258339
402.4,33.1956,2.96828,-0.260704
402.8,33.2358,2.98093,-0.2646586
403.2,33.2749,2.98853,-0.26942
403.6,33.315,3.01135,-0.271947
404,33.3544,3.02038,-0.276522
404.4,33.3937,3.02989,-0.280766
404.8,33.4333,3.05532,-0.284112
405.2,33.4734,3.07095,-0.287999
405.6,33.5125,3.09794,-0.29269
406,33.551,3.1114,-0.296518
406.4,33.5903,3.13108,-0.300354
406.8,33.6308,3.14585,-0.303073
407.2,33.6676,3.17489,-0.306522
407.6,33.7076,3.18983,-0.312108
408,33.7486,3.20253,-0.316585
408.4,33.788,3.22274,-0.320907
408.8,33.8269,3.24878,-0.325923
409.2,33.8685,3.27033,-0.33129
409.6,33.9071,3.29036,-0.335619
410,33.9462,3.30096,-0.34096
410.4,33.9861,3.31653,-0.345895
410.8,34.0261,3.3486,-0.350599
411.2,34.0652,3.3661,-0.356527
411.6,34.1048,3.38469,-0.362372
412,34.1442,3.39682,-0.368513
412.4,34.1845,3.41709,-0.373791
412.8,34.2225,3.43496,-0.378201
413.2,34.2624,3.46305,-0.382189
413.6,34.3006,3.48012,-0.388968
414,34.342,3.52666,-0.397005
414.4,34.3818,3.56969,-0.402967
414.8,34.4204,3.58719,-0.409084
415.2,34.4601,3.59776,-0.415114
415.6,34.5006,3.61913,-0.421978
416,34.5402,3.65816,-0.429453
416.4,34.58,3.67511,-0.43552
416.8,34.6196,3.69251,-0.441379
417.2,34.6589,3.72308,-0.447689
417.6,34.6973,3.75707,-0.454081
418,34.7361,3.78118,-0.463198
418.4,34.7769,3.80862,-0.470374
418.8,34.8171,3.83329,-0.477912
419.2,34.8569,3.8605,-0.484581
419.6,34.8965,3.88905,-0.493274
420,34.9363,3.92501,-0.500735
420.4,34.976,3.95153,-0.508763
420.8,35.0151,3.97163,-0.517421
421.2,35.055,3.97986,-0.526515
421.6,35.0946,3.98219,-0.533598
422,35.132,3.99241,-0.54201
422.4,35.1719,4.01459,-0.549533
422.8,35.2139,4.03919,-0.559944
423.2,35.2535,4.06601,-0.569713
423.6,35.2929,4.08625,-0.578937
424,35.3328,4.12472,-0.588546
424.4,35.3719,4.15121,-0.596897
424.8,35.4123,4.18369,-0.606413
425.2,35.4528,4.21488,-0.617736
425.6,35.4909,4.25123,-0.627653
426,35.5319,4.29132,-0.639749
426.4,35.5716,4.34936,-0.650492
426.8,35.6119,4.41933,-0.661975
427.2,35.6523,4.43545,-0.675156
427.6,35.6919,4.47482,-0.688083
428,35.7319,4.50839,-0.6992888
428.4,35.7713,4.54415,-0.711259
428.8,35.8111,4.57804,-0.723363
429.2,35.8506,4.61523,-0.735884
429.6,35.8912,4.65705,-0.748319
430,35.9307,4.69543,-0.760619
430.4,35.9709,4.74013,-0.775377
430.8,36.0113,4.77869,-0.788307
431.2,36.0505,4.81535,-0.802918
431.6,36.09,4.84962,-0.817209
432,36.1304,4.89939,-0.831073
432.4,36.1712,4.93963,-0.845519
432.8,36.2111,4.97754,-0.858416
433.2,36.2506,5.02133,-0.873617
433.6,36.2906,5.0634,-0.888279
434,36.3306,5.09534,-0.903954
434.4,36.371,5.13753,-0.919352
434.8,36.411,5.1793,-0.935654
435.2,36.451,5.22407,-0.952535
435.6,36.4886,5.25349,-0.967626
436,36.5315,5.30738,-0.985569
436.4,36.572,5.34961,-1.00248
436.8,36.6121,5.38758,-1.02013
437.2,36.6509,5.43134,-1.03709
437.6,36.6908,5.4781,-1.0544
438,36.7316,5.53262,-1.0731
438.4,36.7718,5.57451,-1.09131
438.8,36.8104,5.61189,-1.10955
439.2,36.8514,5.65239,-1.1295
439.6,36.8919,5.69761,-1.14887
440,36.9315,5.73049,-1.16789
440.4,36.9725,5.77197,-1.18956
440.8,37.0115,5.80868,-1.2095
441.2,37.0523,5.84104,-1.23017
441.6,37.0916,5.89085,-1.24903
442,37.1317,5.93712,-1.27001
442.4,37.1716,5.9642,-1.29124
442.8,37.2122,6.00658,-1.31331
443.2,37.2523,6.04078,-1.33579
443.6,37.2926,6.07157,-1.35797
444,37.3329,6.11333,-1.38066
444.4,37.3726,6.15011,-1.40203
444.8,37.412,6.18076,-1.4243
445.2,37.4528,6.2227,-1.44936
445.6,37.4934,6.25313,-1.47345
446,37.5308,6.28438,-1.4951
446.4,37.5726,6.30228,-1.51962
446.8,37.6121,6.35034,-1.54403
447.2,37.6527,6.37537,-1.56908
447.6,37.692,6.40819,-1.59332
448,37.732,6.42613,-1.61794
448.4,37.7723,6.4613,-1.64307
448.8,37.8136,6.49647,-1.67003
449.2,37.8519,6.51599,-1.69639
449.6,37.8929,6.5385,-1.72286
450,37.9317,6.56685,-1.74766
450.4,37.9721,6.58883,-1.77477
450.8,38.0119,6.61004,-1.80126
451.2,38.0517,6.63433,-1.82825
451.6,38.0917,6.65113,-1.85471
452,38.1313,6.65638,-1.88243
452.4,38.1716,6.67304,-1.91095
452.8,38.2117,6.68134,-1.93959
453.2,38.2509,6.68386,-1.96824
453.6,38.2901,6.6748,-1.99509
454,38.3301,6.68286,-2.02257
454.4,38.3698,6.66284,-2.05137
454.8,38.4084,6.63902,-2.07922
455.2,38.4486,6.62452,-2.10776
455.6,38.4879,6.61685,-2.13535
456,38.528,6.59172,-2.16468
456.4,38.5673,6.57179,-2.19513
456.8,38.6058,6.5329,-2.22373
457.2,38.6453,6.50218,-2.25095
457.6,38.6841,6.45661,-2.27935
458,38.7216,6.40872,-2.30667
458.4,38.7621,6.36114,-2.3358
458.8,38.8015,6.29311,-2.36445
459.2,38.84,6.23,-2.39231
459.6,38.8797,6.15732,-2.42092
460,38.9168,6.08297,-2.44683
460.4,38.9568,6.01322,-2.47497
460.8,38.996,5.92448,-2.50214
461.2,39.034,5.84862,-2.52705
461.6,39.0721,5.75191,-2.55255
462,39.11,5.64958,-2.57793
462.4,39.1501,5.52015,-2.60556
462.8,39.1881,5.40895,-2.63028
463.2,39.2266,5.29549,-2.65578
463.6,39.2645,5.18136,-2.67917
464,39.3024,5.06017,-2.7028
464.4,39.3405,4.94617,-2.72697
464.8,39.3792,4.81927,-2.75092
465.2,39.4161,4.69969,-2.77268
465.6,39.4547,4.56759,-2.79525
466,39.4922,4.42898,-2.81589
466.4,39.5311,4.2921,-2.83725
466.8,39.5657,4.17353,-2.85684
467.2,39.6075,4.02452,-2.87947
467.6,39.6445,3.89813,-2.89923
468,39.6825,3.74807,-2.91764
468.4,39.7209,3.62101,-2.93656
468.8,39.7591,3.49443,-2.9549
469.2,39.7965,3.35818,-2.97173
469.6,39.834,3.2377,-2.9883
470,39.8731,3.11171,-3.00554
470.4,39.9108,2.99532,-3.02151
470.8,39.9486,2.87727,-3.03675
471.2,39.9865,2.75678,-3.05132
471.6,40.0243,2.64535,-3.06528
472,40.0634,2.53631,-3.07976
472.4,40.101,2.44381,-3.09336
472.8,40.1401,2.33299,-3.10736
473.2,40.1781,2.2385,-3.11944
473.6,40.2167,2.14126,-3.13179
474,40.2549,2.05539,-3.14187
474.4,40.2928,1.97008,-3.15301
474.8,40.3312,1.89382,-3.16296
475.2,40.3699,1.82139,-3.17417
475.6,40.4084,1.74872,-3.18459
476,40.4471,1.67959,-3.194
476.4,40.4833,1.62406,-3.20317
476.8,40.5248,1.54516,-3.21277
477.2,40.5636,1.49079,-3.22211
477.6,40.6021,1.43233,-3.23078
478,40.6391,1.38377,-3.23767
478.4,40.6802,1.33638,-3.24637
478.8,40.7186,1.28496,-3.25368
479.2,40.7582,1.24978,-3.25982
479.6,40.797,1.20218,-3.26747
480,40.8356,1.1761,-3.27314
480.4,40.8751,1.12818,-3.27975
480.8,40.915,1.10545,-3.28598
481.2,40.954,1.07442,-3.29222
481.6,40.9919,1.04198,-3.298
482,41.0308,1.02073,-3.30355
482.4,41.0691,0.986702,-3.30823
482.8,41.1106,0.969205,-3.31367
483.2,41.1504,0.948285,-3.32027
483.6,41.19,0.91503,-3.32516
484,41.2286,0.894279,-3.32903
484.4,41.2683,0.876572,-3.33296
484.8,41.307,0.857332,-3.33807
485.2,41.3462,0.834712,-3.3413
485.6,41.3858,0.812337,-3.34588
486,41.4261,0.793362,-3.35042
486.4,41.4655,0.777151,-3.35292
486.8,41.5041,0.75525,-3.35649
487.2,41.5447,0.739083,-3.36117
487.6,41.5838,0.724481,-3.36357
488,41.6232,0.709422,-3.36667
488.4,41.663,0.684235,-3.36999
488.8,41.702,0.672274,-3.37281
489.2,41.7418,0.650312,-3.37552
489.6,41.7812,0.634991,-3.37834
490,41.8205,0.621205,-3.3803
490.4,41.8602,0.604132,-3.38245
490.8,41.8996,0.597218,-3.38497
491.2,41.94,0.567549,-3.3866
491.6,41.9794,0.562372,-3.3894
492,42.0191,0.541791,-3.39141
492.4,42.0585,0.532674,-3.39132
492.8,42.0978,0.516648,-3.39271
493.2,42.1372,0.522079,-3.395
493.6,42.1767,0.510017,-3.398
494,42.2161,0.499133,-3.39867
494.4,42.2564,0.487528,-3.39867
494.8,42.2958,0.477403,-3.39972
495.2,42.3359,0.470597,-3.39999
495.6,42.3745,0.477909,-3.40132
496,42.4149,0.466673,-3.40063
496.4,42.4546,0.465409,-3.40164
496.8,42.4942,0.459488,-3.40251
497.2,42.5345,0.451303,-3.40295
497.6,42.5743,0.457767,-3.40324
498,42.614,0.463324,-3.40426
498.4,42.6533,0.460107,-3.40426
498.8,42.6929,0.455262,-3.40426
499.2,42.7329,0.462381,-3.40525
499.6,42.7728,0.468182,-3.40558
500,42.8121,0.458694,-3.40558
500.4,42.8524,0.456967,-3.40525
500.8,42.8916,0.465777,-3.40525
501.2,42.9316,0.451256,-3.40525
501.6,42.9707,0.459295,-3.4053
502,43.0102,0.451138,-3.40558
502.4,43.0494,0.450795,-3.40558
502.8,43.0896,0.453481,-3.4066
503.2,43.1296,0.446322,-3.40657
503.6,43.1701,0.45401,-3.40658
504,43.2093,0.449802,-3.40526
504.4,43.2481,0.458645,-3.40525
504.8,43.2892,0.44538,-3.40525
505.2,43.3286,0.438939,-3.40525
505.6,43.3678,0.435552,-3.40525
506,43.4078,0.447002,-3.40525
506.4,43.4477,0.440408,-3.40525
506.8,43.4877,0.446134,-3.40525
507.2,43.5272,0.446494,-3.40564
507.6,43.5672,0.434372,-3.40624
508,43.6063,0.444189,-3.40624
508.4,43.6465,0.442758,-3.40627
508.8,43.6863,0.44238,-3.40722
509.2,43.7252,0.434487,-3.40723
509.6,43.76557,0.440832,-3.40723
510,43.805,0.44061,-3.40695
510.4,43.8452,0.438477,-3.40591
510.8,43.8839,0.440199,-3.40591
511.2,43.9241,0.441132,-3.40588
511.6,43.9643,0.443948,-3.40624
512,44.004,0.437765,-3.40624
512.4,44.0439,0.436616,-3.40633
512.8,44.0838,0.437459,-3.40722
513.2,44.124,0.447727,-3.40722
513.6,44.1631,0.440547,-3.40722
514,44.2029,0.437862,-3.40719
514.4,44.2426,0.436485,-3.40755
514.8,44.2824,0.431403,-3.40755
515.2,44.3231,0.444338,-3.40755
515.6,44.3628,0.44016,-3.40744
516,44.4023,0.434521,-3.40624
516.4,44.4419,0.441007,-3.40624
516.8,44.4816,0.435863,-3.40624
517.2,44.5217,0.437676,-3.40624
517.6,44.5622,0.438767,-3.40624
518,44.6019,0.441488,-3.40624
518.4,44.6409,0.439607,-3.40624
518.8,44.6807,0.439978,-3.40624
519.2,44.7206,0.436461,-3.40624
519.6,44.7607,0.434361,-3.40626
520,44.8006,0.442245,-3.40723
520.4,44.8406,0.433037,-3.40723
520.8,44.8811,0.439665,-3.40855
521.2,44.9205,0.441812,-3.40854
521.6,44.9603,0.44455,-3.40853
522,44.9993,0.437905,-3.40755
522.4,45.0409,0.439579,-3.4072
522.8,45.0792,0.438175,-3.40723
523.2,45.1191,0.435811,-3.40723
523.6,45.1587,0.437214,-3.40756
524,45.2004,0.442553,-3.40887
524.4,45.2391,0.4241,-3.40888
524.8,45.279,0.433042,-3.40788
525.2,45.318,0.43489,-3.40756
525.6,45.3565,0.440374,-3.40756
526,45.3985,0.431545,-3.40756
526.4,45.4381,0.431942,-3.40756
526.8,45.4787,0.427862,-3.40888
527.2,45.5183,0.428957,-3.40888
527.6,45.5587,0.437007,-3.40887
528,45.5984,0.43901,-3.40824
528.4,45.6383,0.427143,-3.40823
528.8,45.6787,0.43725,-3.4109
529.2,45.7184,0.436598,-3.41081
529.6,45.7591,0.428412,-3.40953
530,45.7983,0.433496,-3.40954
530.4,45.8396,0.436841,-3.40882
530.8,45.8791,0.431003,-3.40821
531.2,45.9191,0.45184,-3.40848
531.6,45.9572,0.445612,-3.40856
532,45.9992,0.441582,-3.40712
532.4,46.0387,0.440765,-3.40712
532.8,46.0783,0.441247,-3.40712
533.2,46.1191,0.435396,-3.40845
533.6,46.1572,0.444991,-3.40844
534,46.1999,0.443498,-3.40844
534.4,46.2397,0.444444,-3.40843
534.8,46.2794,0.439049,-3.40812
535.2,46.3192,0.439824,-3.40811
535.6,46.3602,0.443339,-3.40918
536,46.3989,0.449849,-3.40942
536.4,46.4404,0.439126,-3.40942
536.8,46.4812,0.437078,-3.40942
537.2,46.521,0.446109,-3.40837
537.6,46.5607,0.431392,-3.4081
538,46.6013,0.440031,-3.40817
538.4,46.641,0.435805,-3.40943
538.8,46.6818,0.432355,-3.40942
539.2,46.722,0.432538,-3.40942
539.6,46.7614,0.436044,-3.40942
540,46.8017,0.438893,-3.40894
540.4,46.8411,0.43565,-3.4081
540.8,46.8819,0.43394,-3.4081
541.2,46.9213,0.43017,-3.4081
541.6,46.9616,0.436058,-3.4081
542,47.002,0.423612,-3.4081
542.4,47.0429,0.43833,-3.4081
542.8,47.0823,0.427017,-3.40715
543.2,47.1225,0.432777,-3.40674
543.6,47.1627,0.424901,-3.4082
544,47.2029,0.43465,-3.40812
544.4,47.2433,0.432086,-3.40953
544.8,47.2837,0.426032,-3.40953
545.2,47.3233,0.417859,-3.40953
545.6,47.364,0.426672,-3.40953
546,47.4038,0.418355,-3.40953
546.4,47.4433,0.420464,-3.40827
546.8,47.483,0.423342,-3.40821
547.2,47.5239,0.418876,-3.40821
547.6,47.5641,0.417673,-3.40821
548,47.6038,0.416634,-3.40821
548.4,47.6435,0.417958,-3.40821
548.8,47.6843,0.419296,-3.40821
549.2,47.7249,0.423234,-3.40821
549.6,47.7643,0.421912,-3.40821
550,47.8046,0.415625,-3.40867
550.4,47.8449,0.418461,-3.4102
550.8,47.8826,0.422904,-3.41019
551.2,47.9254,0.415737,-3.41019
551.6,47.9652,0.413086,-3.41019
552,48.005,0.416079,-3.41019
552.4,48.0451,0.421427,-3.41019
552.8,48.0859,0.410819,-3.41019
553.2,48.1251,0.421581,-3.41019
553.6,48.166,0.428136,-3.40981
554,48.2057,0.414618,-3.40886
554.4,48.2459,0.414696,-3.40888
554.8,48.2863,0.418632,-3.40888
555.2,48.3261,0.422122,-3.40888
555.6,48.3668,0.411295,-3.40888
556,48.4052,0.41975,-3.40877
556.4,48.4469,0.414445,-3.4102
556.8,48.4869,0.417155,-3.4102
557.2,48.5259,0.418736,-3.4102
557.6,48.5665,0.41591,-3.4102
558,48.6062,0.416428,-3.4102
558.4,48.6467,0.413563,-3.4102
558.8,48.6878,0.412981,-3.41018
559.2,48.7273,0.406476,-3.41052
559.6,48.7678,0.418871,-3.41052
560,48.8074,0.41055,-3.41052
560.4,48.8471,0.409556,-3.41052
560.8,48.8882,0.407683,-3.4115
561.2,48.9278,0.413104,-3.41086
561.6,48.9683,0.412852,-3.41085
562,49.0082,0.420021,-3.41085
562.4,49.0485,0.413351,-3.41085
562.8,49.0886,0.41769,-3.41085
563.2,49.1272,0.406725,-3.41085
563.6,49.1675,0.412326,-3.41085
564,49.2092,0.413044,-3.41085
564.4,49.2499,0.407016,-3.41085
564.8,49.2895,0.421179,-3.41017
565.2,49.3281,0.406317,-3.41019
565.6,49.3702,0.403846,-3.41064
566,49.4113,0.408635,-3.41151
566.4,49.4512,0.409679,-3.41151
566.8,49.4906,0.410105,-3.41152
567.2,49.532,0.401621,-3.41308
567.6,49.5723,0.402548,-3.41305
568,49.6132,0.40802,-3.41169
568.4,49.6532,0.399571,-3.41173
568.8,49.6932,0.403692,-3.41043
569.2,49.733,0.402366,-3.41041
569.6,49.7734,0.410641,-3.41041
570,49.8141,0.402819,-3.41127
570.4,49.8545,0.402981,-3.41041
570.8,49.8939,0.40051,-3.41043
571.2,49.9349,0.400174,-3.40976
571.6,49.9739,0.409849,-3.40975
572,50.0147,0.397703,-3.40975
572.4,50.055,0.400154,-3.40975
572.8,50.0953,0.403726,-3.41108
573.2,50.136,0.40108,-3.41097
573.6,50.1762,0.391329,-3.41109
574,50.2166,0.383323,-3.41107
574.4,50.2555,0.383401,-3.41107
574.8,50.2955,0.379869,-3.41107
575.2,50.3376,0.389548,-3.41107
575.6,50.3768,0.384735,-3.41107
576,50.417,0.37782,-3.41107
576.4,50.4571,0.373703,-3.41231
576.8,50.4975,0.37738,-3.41238
577.2,50.5379,0.375888,-3.41238
577.6,50.5783,0.376659,-3.41238
578,50.6186,0.369694,-3.41139
578.4,50.6586,0.373262,-3.4114
578.8,50.6989,0.360479,-3.4114
579.2,50.7387,0.359242,-3.41112
579.6,50.7802,0.365161,-3.41006
580,50.82,0.362336,-3.40992
580.4,50.8579,0.353474,-3.41238
580.8,50.8999,0.364676,-3.41157
581.2,50.9405,0.363092,-3.4114
581.6,50.9804,0.362914,-3.4114
582,51.0201,0.361638,-3.41149
582.4,51.0613,0.367191,-3.41272
582.8,51.1013,0.352125,-3.41272
583.2,51.1412,0.361665,-3.41159
583.6,51.1807,0.367761,-3.41107
584,51.2197,0.354164,-3.41108
584.4,51.2602,0.356166,-3.41018
584.8,51.3028,0.355558,-3.41107
585.2,51.3431,0.348663,-3.41107
585.6,51.3834,0.359616,-3.41107
586,51.423,0.351856,-3.41107
586.4,51.4632,0.349776,-3.41107
586.8,51.5039,0.35122,-3.41107
587.2,51.5438,0.343162,-3.41107
587.6,51.5844,0.347384,-3.41249
588,51.6246,0.3404,-3.41239
588.4,51.6642,0.349866,-3.41239
588.8,51.7045,0.343244,-3.41276
589.2,51.7448,0.339031,-3.41206
589.6,51.7837,0.341399,-3.4114
590,51.8251,0.341884,-3.4114
590.4,51.8653,0.344642,-3.41143
590.8,51.9052,0.345258,-3.41237
591.2,51.9454,0.354657,-3.41239
591.6,51.9866,0.343092,-3.41239
592,52.0271,0.353792,-3.41239
592.4,52.0675,0.346834,-3.41238
592.8,52.1085,0.341181,-3.41365
593.2,52.1485,0.343424,-3.41371
593.6,52.1885,0.338696,-3.41349
594,52.2285,0.338906,-3.41272
594.4,52.2694,0.341799,-3.41403
594.8,52.3104,0.343263,-3.41404
595.2,52.3495,0.337669,-3.41404
595.6,52.3897,0.325078,-3.41404
596,52.4305,0.333975,-3.41404
596.4,52.4704,0.325641,-3.41288
596.8,52.511,0.323627,-3.41272
597.2,52.552,0.330371,-3.41272
597.6,52.5918,0.334906,-3.41273
598,52.6314,0.32749,-3.41081
598.4,52.6697,0.324798,-3.41007
598.8,52.7123,0.332332,-3.41162
599.2,52.7518,0.330103,-3.41392
599.6,52.7927,0.329433,-3.41425
600,52.8336,0.329103,-3.41425