File: 01_Data/SCBA_Bracket/STA/N2/10K_min/SCBA_Bracket_STA_N2_10KData_240725_R2.csv
Temp./C,Time/min,DSC/(mW/mg),Mass loss/mg
60,0,1.11265,-0.0270518
60.4,0.0475102,1.12963,-0.0264333
60.8,0.0926204,1.14165,-0.0264592
61.2,0.136348,1.14811,-0.0269301
61.6,0.182536,1.1587,-0.02559909
62,0.227744,1.17977,-0.0270839
62.4,0.271679,1.19546,-0.02585371
62.8,0.316111,1.21003,-0.0270188
63.2,0.358504,1.21711,-0.0270021
63.6,0.402764,1.22386,-0.02721994
64,0.447127,1.23245,-0.0269961
64.4,0.490422,1.24596,-0.0269963
64.8,0.532825,1.25795,-0.0278044
65.2,0.577214,1.25101,-0.0282863
65.6,0.616916,1.26696,-0.0283185
66,0.663939,1.27764,-0.0269942
66.4,0.706595,1.28006,-0.0283183
66.8,0.749454,1.28248,-0.026818
67.2,0.792323,1.27946,-0.02831997
67.6,0.834028,1.29669,-0.0284242
68,0.877207,1.29963,-0.0280375
68.4,0.921081,1.3063,-0.0269564
68.8,0.963022,1.30636,-0.0283065
69.2,1.00502,1.31777,-0.0283099
69.6,1.04731,1.31213,-0.0288571
70,1.08923,1.32487,-0.0296284
70.4,1.13091,1.3293,-0.0296286
70.8,1.17255,1.32928,-0.03001979
71.2,1.2151,1.33746,-0.02996015
71.6,1.25744,1.33444,-0.0299614
72,1.29989,1.33524,-0.030133
72.4,1.34246,1.32844,-0.0305506
72.8,1.38389,1.32883,-0.02963924
73.2,1.42469,1.34813,-0.02963189
73.6,1.46561,1.33855,-0.030936
74,1.50973,1.34365,-0.0296404
74.4,1.55007,1.34324,-0.0307838
74.8,1.59157,1.34798,-0.0309495
75.2,1.63263,1.34796,-0.03095
75.6,1.67536,1.35555,-0.03095019
76,1.71619,1.35725,-0.0297076
76.4,1.75802,1.35157,-0.0310553
76.8,1.79934,1.35628,-0.0309487
77.2,1.84144,1.3627,-0.0295602
77.6,1.88169,1.36879,-0.0307778
78,1.92266,1.37635,-0.0306628
78.4,1.96217,1.37076,-0.0296474
78.8,2.00504,1.37299,-0.0309462
79.2,2.04704,1.37778,-0.029987
79.6,2.08793,1.37894,-0.0296497
80,2.13083,1.38371,-0.0309586
80.4,2.17041,1.38348,-0.03095
80.8,2.21051,1.38048,-0.03095
81.2,2.25145,1.3886,-0.0309482
81.6,2.29374,1.38872,-0.03041846
82,2.33442,1.38675,-0.030889
82.4,2.37483,1.39101,-0.0309499
82.8,2.41493,1.39793,-0.0309471
83.2,2.45591,1.40107,-0.0323401
83.6,2.4972,1.39883,-0.03096
84,2.53568,1.40402,-0.03095988
84.4,2.57668,1.40124,-0.0309512
84.8,2.61892,1.40771,-0.0322673
85.2,2.65856,1.40684,-0.0322348
85.6,2.6992,1.40866,-0.03357
86,2.73947,1.41357,-0.0335908
86.4,2.77647,1.41566,-0.0332765
86.8,2.82102,1.42275,-0.0332317
87.2,2.85968,1.42289,-0.032265
87.6,2.89974,1.42264,-0.03227
88,2.94055,1.42623,-0.0322701
88.4,2.97983,1.43299,-0.0316491
88.8,3.02044,1.4346,-0.03095171
89.2,3.06052,1.44041,-0.0309608
89.6,3.1007,1.44596,-0.0335739
90,3.14059,1.43685,-0.032918
90.4,3.18146,1.43796,-0.03227195
90.8,3.22083,1.45227,-0.0322716
91.2,3.25914,1.45064,-0.0313829
91.6,3.29906,1.444,-0.03227015
92,3.33925,1.46105,-0.03227
92.4,3.37956,1.45564,-0.03227
92.8,3.41983,1.46302,-0.0322721
93.2,3.45892,1.4615,-0.0327048
93.6,3.49808,1.46482,-0.0335801
94,3.53759,1.463,-0.0335804
94.4,3.57674,1.46664,-0.0326461
94.8,3.61742,1.46357,-0.0336652
95.2,3.6576,1.46824,-0.033591
95.6,3.69595,1.47052,-0.0336715
96,3.73563,1.47059,-0.0349118
96.4,3.77515,1.47564,-0.03495279
96.8,3.81451,1.46982,-0.0335965
97.2,3.85378,1.46484,-0.03359
97.6,3.89197,1.47071,-0.03359
98,3.93268,1.45893,-0.03359
98.4,3.97288,1.47055,-0.03359
98.8,4.01183,1.46995,-0.03359
99.2,4.05087,1.46134,-0.0335895
99.6,4.08926,1.4609,-0.0335411
100,4.12963,1.46107,-0.0325406
100.4,4.16761,1.45702,-0.0336996
100.8,4.20758,1.45733,-0.0335865
101.2,4.24644,1.45287,-0.0346112
101.6,4.28506,1.44791,-0.0348912
102,4.32534,1.45751,-0.0345732
102.4,4.36387,1.45554,-0.0345704
102.8,4.40385,1.45457,-0.0346296
103.2,4.44371,1.4584,-0.0335773
103.6,4.479,1.4582,-0.03358
104,4.52144,1.44237,-0.0335799
104.4,4.56033,1.46053,-0.0335657
104.8,4.59875,1.45969,-0.0345144
105.2,4.63482,1.45685,-0.0349027
105.6,4.67643,1.45086,-0.034892
106,4.71552,1.45121,-0.033589
106.4,4.75507,1.44953,-0.03359
106.8,4.79427,1.45385,-0.0335899
107.2,4.83289,1.45686,-0.0335934
107.6,4.8721,1.44532,-0.0349101
108,4.91073,1.44867,-0.03491
108.4,4.94988,1.45049,-0.03491
108.8,4.98886,1.45478,-0.03491
109.2,5.02853,1.44398,-0.0349035
109.6,5.06557,1.45245,-0.0362729
110,5.10648,1.45055,-0.03523993
110.4,5.14398,1.46225,-0.0352305
110.8,5.18307,1.4557,-0.0361961
111.2,5.22352,1.45793,-0.0362218
111.6,5.261,1.4572,-0.03526605
112,5.30137,1.45593,-0.0349014
112.4,5.33918,1.46173,-0.0349
112.8,5.37822,1.46945,-0.03489495
113.2,5.41627,1.46934,-0.0358931
113.6,5.45617,1.46158,-0.0362212
114,5.49473,1.46282,-0.0350101
114.4,5.53312,1.46081,-0.0349009
114.8,5.57192,1.46661,-0.0349
115.2,5.61173,1.46378,-0.0349
115.6,5.64993,1.47255,-0.0349
116,5.68866,1.47729,-0.0349
116.4,5.72789,1.46546,-0.0349004
116.8,5.767,1.46987,-0.0342769
117.2,5.8058,1.46384,-0.0334757
117.6,5.84557,1.47384,-0.0357048
118,5.88392,1.48034,-0.0361089
118.4,5.92232,1.47521,-0.03611
118.8,5.96217,1.47704,-0.03611
119.2,5.99969,1.46769,-0.03611
119.6,6.03895,1.47131,-0.03611
120,6.07934,1.47031,-0.03611
120.4,6.11758,1.48236,-0.0361096
120.8,6.15584,1.47505,-0.0354836
121.2,6.19573,1.48168,-0.0353996
121.6,6.23392,1.48376,-0.0367705
122,6.27224,1.49146,-0.03677
122.4,6.31194,1.48813,-0.03677
122.8,6.34932,1.48964,-0.0367701
123.2,6.3882,1.49731,-0.0367935
123.6,6.42721,1.49684,-0.0381002
124,6.46508,1.50305,-0.03809
124.4,6.50464,1.48792,-0.03809
124.8,6.54293,1.4917,-0.03809
125.2,6.58126,1.49551,-0.0380899
125.6,6.62117,1.49565,-0.0380736
126,6.65965,1.49664,-0.0374533
126.4,6.69892,1.50193,-0.0374313
126.8,6.73787,1.50381,-0.0367217
127.2,6.77538,1.49874,-0.0361089
127.6,6.81416,1.50407,-0.03610999
128,6.85272,1.50464,-0.03611
128.4,6.89261,1.5063,-0.03611
128.8,6.92692,1.50015,-0.0361033
129.2,6.96954,1.50946,-0.0374006
129.6,7.00852,1.51422,-0.0374299
130,7.04545,1.51187,-0.0374302
130.4,7.08422,1.50967,-0.036667
130.8,7.12364,1.52517,-0.0357758
131.2,7.16191,1.51148,-0.0357716
131.6,7.19992,1.52017,-0.0354611
132,7.23946,1.51929,-0.0354498
132.4,7.27793,1.52446,-0.0354104
132.8,7.31317,1.52635,-0.03676945
133.2,7.35516,1.52087,-0.03677
133.6,7.39379,1.52681,-0.03677
134,7.43277,1.53171,-0.03677
134.4,7.46997,1.52974,-0.036769
134.8,7.50916,1.53703,-0.036622
135.2,7.54752,1.53701,-0.0354426
135.6,7.58635,1.53746,-0.0363946
136,7.62204,1.54366,-0.0377648
136.4,7.66335,1.54968,-0.03808171
136.8,7.70154,1.54311,-0.0386909
137.2,7.73911,1.55004,-0.0387394
137.6,7.77704,1.53813,-0.03874
138,7.8174,1.55392,-0.03874
138.4,7.85538,1.55192,-0.03874
138.8,7.89354,1.55062,-0.03874
139.2,7.93235,1.54783,-0.0387383
139.6,7.97133,1.55407,-0.0393072
140,8.00969,1.56423,-0.0393995
140.4,8.0479,1.56788,-0.0394
140.8,8.08573,1.56498,-0.0394
141.2,8.12639,1.56801,-0.0394001
141.6,8.16347,1.56583,-0.0394836
142,8.20137,1.56642,-0.0380827
142.4,8.23988,1.56045,-0.03808
142.8,8.27807,1.57561,-0.0380791
143.2,8.31496,1.57438,-0.0394836
143.6,8.35512,1.57184,-0.0394
144,8.39333,1.57889,-0.0393973
144.4,8.43103,1.57964,-0.04069408
144.8,8.46961,1.58098,-0.0407199
145.2,8.50828,1.58627,-0.04072
145.6,8.54699,1.58383,-0.0407195
146,8.5857,1.59196,-0.03938049
146.4,8.62467,1.59603,-0.03802939
146.8,8.66082,1.59405,-0.0379805
147.2,8.70062,1.60038,-0.0379902
147.6,8.7382,1.60154,-0.0393117
148,8.77687,1.59582,-0.0392891
148.4,8.81449,1.61144,-0.0406446
148.8,8.85258,1.60885,-0.0406104
149.2,8.89168,1.61369,-0.0406293
149.6,8.92913,1.61322,-0.0393157
150,8.96792,1.60764,-0.0392878
150.4,9.0062,1.60674,-0.0400772
150.8,9.04361,1.61396,-0.0403915
151.2,9.0825,1.62452,-0.0402906
151.6,9.12024,1.61632,-0.0402902
152,9.15898,1.62085,-0.0403315
152.4,9.19789,1.61657,-0.0416167
152.8,9.23572,1.62281,-0.0416099
153.2,9.27192,1.62791,-0.0415675
153.6,9.31151,1.62428,-0.04066832
154,9.35158,1.63356,-0.0406202
154.4,9.38763,1.63635,-0.04062
154.8,9.4269,1.63009,-0.0406199
155.2,9.46498,1.64115,-0.0405528
155.6,9.50294,1.63357,-0.0419248
156,9.54107,1.62735,-0.04193
156.4,9.58016,1.65142,-0.0419294
156.8,9.61818,1.65114,-0.0419023
157.2,9.65565,1.64563,-0.0406244
157.6,9.69373,1.64977,-0.04062
158,9.73245,1.65674,-0.0406186
158.4,9.77138,1.65596,-0.0413474
158.8,9.80681,1.66491,-0.043117
159.2,9.84731,1.65642,-0.04323986
159.6,9.88428,1.67087,-0.0420496
160,9.92365,1.65707,-0.0419307
160.4,9.96211,1.66308,-0.0419758
160.8,9.99978,1.67122,-0.0433175
161.2,10.0388,1.66915,-0.0445658
161.6,10.0761,1.68127,-0.04456
162,10.1138,1.68136,-0.0445603
162.4,10.1524,1.68341,-0.0446182
162.8,10.1896,1.67603,-0.0435838
163.2,10.228,1.68373,-0.04358
163.6,10.2667,1.68223,-0.04358
164,10.3057,1.68725,-0.04358
164.4,10.3425,1.68432,-0.0435801
164.8,10.3818,1.68692,-0.0436344
165.2,10.4188,1.6809,-0.0448942
165.6,10.457,1.70916,-0.04489
166,10.4932,1.68934,-0.0447933
166.4,10.5316,1.69287,-0.0435735
166.8,10.5703,1.68725,-0.0435963
167.2,10.6102,1.69938,-0.0449678
167.6,10.6487,1.70312,-0.0449002
168,10.6864,1.71034,-0.0449
168.4,10.7241,1.71016,-0.0449
168.8,10.764,1.7065,-0.0449
169.2,10.8014,1.71846,-0.0448928
169.6,10.8372,1.71084,-0.04613084
170,10.8777,1.71161,-0.04620991
170.4,10.9146,1.70768,-0.04621
170.8,10.9525,1.70571,-0.04621
171.2,10.9931,1.72214,-0.0462121
171.6,11.0296,1.71821,-0.0456265
172,11.0678,1.72229,-0.0462117
172.4,11.1068,1.73001,-0.04621
172.8,11.1451,1.72902,-0.0462099
173.2,11.1822,1.73333,-0.0466718
173.6,11.2198,1.73236,-0.0474674
174,11.2582,1.73993,-0.0468693
174.4,11.2964,1.73628,-0.04687
174.8,11.3348,1.74537,-0.04687
175.2,11.3738,1.74172,-0.04687
175.6,11.411,1.74131,-0.04687
176,11.4489,1.75076,-0.04687
176.4,11.4868,1.73887,-0.04687
176.8,11.5248,1.75148,-0.04687
177.2,11.5624,1.75114,-0.04687
177.6,11.602,1.75616,-0.04687
178,11.6397,1.75662,-0.04687
178.4,11.6771,1.76665,-0.04687
178.8,11.7162,1.76286,-0.04687
179.2,11.7535,1.76197,-0.04687
179.6,11.7931,1.76568,-0.0468698
180,11.8305,1.77073,-0.0468128
180.4,11.8682,1.76125,-0.048186
180.8,11.9055,1.77206,-0.04819
181.2,11.944,1.7636,-0.04819
181.6,11.9826,1.78446,-0.04819
182,12.0204,1.77608,-0.04819
182.4,12.0589,1.783,-0.04819
182.8,12.096,1.7835,-0.04819
183.2,12.1353,1.78373,-0.04819
183.6,12.1729,1.78476,-0.04819
184,12.2114,1.77818,-0.04819
184.4,12.249,1.78712,-0.04819
184.8,12.2874,1.78654,-0.0481883
185.2,12.325,1.79081,-0.0488303
185.6,12.3631,1.78479,-0.0488497
186,12.4009,1.79057,-0.0488512
186.4,12.4392,1.79257,-0.0491124
186.8,12.4775,1.79552,-0.04950914
187.2,12.5146,1.80228,-0.04951
187.6,12.5537,1.79706,-0.04951
188,12.592,1.80147,-0.04951
188.4,12.6299,1.79989,-0.04951
188.8,12.6665,1.80486,-0.04951
189.2,12.7051,1.80283,-0.0495099
189.6,12.7441,1.80569,-0.0494902
190,12.7812,1.8115,-0.0488706
190.4,12.8177,1.80726,-0.0488499
190.8,12.8572,1.81173,-0.0488536
191.2,12.8957,1.81456,-0.0478615
191.6,12.9329,1.81595,-0.04786002
192,12.9725,1.82278,-0.0478596
192.4,13.0098,1.81573,-0.048425
192.8,13.0477,1.82681,-0.0491806
193.2,13.0865,1.82253,-0.0492097
193.6,13.1238,1.8288,-0.0504997
194,13.162,1.82509,-0.0505004
194.4,13.1995,1.83359,-0.0505775
194.8,13.2388,1.83415,-0.0491823
195.2,13.276,1.82792,-0.0491688
195.6,13.3142,1.83124,-0.0505073
196,13.3519,1.82926,-0.0505002
196.4,13.3901,1.82845,-0.0505
196.8,13.4284,1.82618,-0.0505
197.2,13.4664,1.837627,-0.0504985
197.6,13.5054,1.83525,-0.0492354
198,13.5423,1.84499,-0.0481974
198.4,13.5807,1.83793,-0.0478352
198.8,13.6197,1.84358,-0.0488758
199.2,13.6574,1.85114,-0.0491728
199.6,13.6944,1.85497,-0.04918
200,13.7332,1.85718,-0.04918
200.4,13.7711,1.8634,-0.04918
200.8,13.8088,1.86926,-0.0491801
201.2,13.8479,1.86852,-0.0491865
201.6,13.8852,1.87919,-0.0498528
202,13.9234,1.88501,-0.0504743
202.4,13.9622,1.89124,-0.0504899
202.8,14.0012,1.90678,-0.05049
203.2,14.0386,1.91697,-0.05049
203.6,14.0745,1.91815,-0.05049
204,14.1146,1.9361,-0.05049
204.4,14.1531,1.94635,-0.05049
204.8,14.1915,1.9591,-0.0504961
205.2,14.2296,1.97415,-0.04934519
205.6,14.268,1.97838,-0.0491657
206,14.3051,1.992,-0.0478558
206.4,14.3454,2.01388,-0.0491868
206.8,14.3836,2.03579,-0.0504953
207.2,14.4218,2.06032,-0.0504903
207.6,14.4605,2.08038,-0.0504646
208,14.4985,2.1205,-0.0510767
208.4,14.5369,2.14413,-0.0508198
208.8,14.5762,2.18378,-0.05082
209.2,14.6137,2.21053,-0.0508203
209.6,14.6529,2.25231,-0.0508153
210,14.6909,2.31083,-0.0498387
210.4,14.7317,2.35595,-0.0498301
210.8,14.769,2.40924,-0.04983
211.2,14.8077,2.47007,-0.04983
211.6,14.8474,2.53106,-0.04983
212,14.8862,2.59376,-0.04983
212.4,14.9254,2.6623,-0.04982765
212.8,14.9647,2.75353,-0.0507866
213.2,15.0043,2.84007,-0.0511487
213.6,15.0439,2.923,-0.05115
214,15.0822,3.00853,-0.05115
214.4,15.1228,3.10567,-0.05115
214.8,15.1618,3.21032,-0.05115
215.2,15.1987,3.29934,-0.05115
215.6,15.2401,3.42905,-0.05115
216,15.2802,3.53902,-0.05115
216.4,15.3192,3.66055,-0.05115
216.8,15.3605,3.79051,-0.05115
217.2,15.3974,3.91403,-0.0511511
217.6,15.4389,4.03774,-0.0508067
218,15.4788,4.16949,-0.0507794
218.4,15.5195,4.29853,-0.0503332
218.8,15.5596,4.42737,-0.0481271
219.2,15.5987,4.56154,-0.0474486
219.6,15.6392,4.68913,-0.04898495
220,15.6798,4.80989,-0.0494999
220.4,15.7187,4.91491,-0.0496028
220.8,15.7564,5.02181,-0.0508196
221.2,15.7961,5.10084,-0.05082
221.6,15.8363,5.15898,-0.05082
222,15.8749,5.17123,-0.0508181
222.4,15.914,5.14553,-0.0501751
222.8,15.951,5.06307,-0.0494992
223.2,15.9876,4.8894,-0.0494333
223.6,16.0228,4.61878,-0.05211807
224,16.0573,4.31287,-0.05214
224.4,16.0924,3.94076,-0.0521382
224.8,16.1258,3.60803,-0.0509172
225.2,16.1609,3.29814,-0.0508179
225.6,16.1952,3.04143,-0.0515517
226,16.2306,2.81033,-0.0514801
226.4,16.2668,2.62834,-0.05148
226.8,16.303,2.47789,-0.05148
227.2,16.3389,2.35779,-0.05148
227.6,16.375,2.24728,-0.0514796
228,16.4124,2.17258,-0.0514524
228.4,16.4492,2.10646,-0.0501642
228.8,16.4869,2.05286,-0.05016
229.2,16.5234,2.01654,-0.05016
229.6,16.5602,1.98001,-0.05016
230,16.5975,1.93869,-0.05016
230.4,16.6346,1.92767,-0.05016
230.8,16.6719,1.92315,-0.05016
231.2,16.7103,1.90124,-0.05016
231.6,16.747,1.88545,-0.05016
232,16.7859,1.87676,-0.05016
232.4,16.823,1.87334,-0.05016
232.8,16.8606,1.86221,-0.05016
233.2,16.8986,1.86418,-0.0501687
233.6,16.9365,1.85865,-0.0504803
234,16.9737,1.86315,-0.050432
234.4,17.0114,1.85379,-0.0511548
234.8,17.0492,1.85005,-0.05115002
235.2,17.0867,1.85047,-0.05115
235.6,17.1246,1.85263,-0.05115
236,17.1626,1.8545,-0.05115
236.4,17.2008,1.84838,-0.05115
236.8,17.2382,1.8467,-0.05115
237.2,17.2761,1.84982,-0.05115
237.6,17.3133,1.85643,-0.0511491
238,17.3511,1.85,-0.0509715
238.4,17.389,1.84108,-0.05009834
238.8,17.4266,1.85833,-0.0508245
239.2,17.4649,1.84343,-0.0521646
239.6,17.5003,1.84964,-0.0521403
240,17.5403,1.84997,-0.05214436
240.4,17.5792,1.85438,-0.0509951
240.8,17.6166,1.84409,-0.05082
241.2,17.6541,1.84199,-0.0508201
241.6,17.6917,1.85306,-0.0508703
242,17.7304,1.85099,-0.0521468
242.4,17.7685,1.84448,-0.05214
242.8,17.8059,1.8513,-0.0521402
243.2,17.8414,1.85665,-0.0522147
243.6,17.8812,1.85363,-0.0518047
244,17.92,1.84058,-0.05181
244.4,17.9585,1.84678,-0.05181
244.8,17.9961,1.84283,-0.0518102
245.2,18.0341,1.85168,-0.051816
245.6,18.0716,1.84074,-0.0512093
246,18.1087,1.84422,-0.0501624
246.4,18.1477,1.84984,-0.0501599
246.8,18.1851,1.849,-0.0503519
247.2,18.2239,1.8386,-0.0522116
247.6,18.2597,1.84803,-0.0524701
248,18.2998,1.84881,-0.05247
248.4,18.3385,1.84482,-0.05247
248.8,18.3753,1.84357,-0.05247
249.2,18.4144,1.84826,-0.05247
249.6,18.452,1.84446,-0.05247
250,18.4899,1.84725,-0.05247
250.4,18.526,1.83517,-0.05247
250.8,18.5666,1.84139,-0.05247
251.2,18.604,1.84624,-0.0524725
251.6,18.6424,1.84212,-0.0514964
252,18.681,1.84743,-0.0511487
252.4,18.7169,1.84172,-0.0521935
252.8,18.7572,1.83998,-0.05279774
253.2,18.7955,1.84656,-0.0528
253.6,18.833,1.84136,-0.0528
254,18.8714,1.84836,-0.0528
254.4,18.9094,1.84006,-0.0528
254.8,18.9481,1.84865,-0.0528
255.2,18.9853,1.83969,-0.0528
255.6,19.0223,1.83865,-0.0528
256,19.0619,1.84907,-0.0527999
256.4,19.1002,1.84393,-0.0527839
256.8,19.1382,1.84927,-0.0514763
257.2,19.1759,1.84854,-0.05148
257.6,19.2144,1.84846,-0.0514724
258,19.253,1.85222,-0.0527778
258.4,19.2914,1.84779,-0.05149477
258.8,19.3287,1.84494,-0.0514822
259.2,19.3672,1.83614,-0.0518021
259.6,19.4045,1.84296,-0.0534504
260,19.4431,1.84566,-0.0534599
260.4,19.4804,1.84499,-0.05346
260.8,19.5191,1.84106,-0.0534566
261.2,19.5574,1.8347,-0.0531291
261.6,19.5953,1.83189,-0.05219733
262,19.6332,1.83883,-0.0521406
262.4,19.6716,1.83845,-0.05214
262.8,19.71,1.84095,-0.05214
263.2,19.7486,1.8473,-0.05214
263.6,19.7862,1.83817,-0.05214
264,19.8242,1.84544,-0.05214
264.4,19.8616,1.84194,-0.0521401
264.8,19.9002,1.83222,-0.0522291
265.2,19.9381,1.83998,-0.0511453
265.6,19.9772,1.84461,-0.0518085
266,20.0146,1.8407,-0.0518097
266.4,20.0534,1.84773,-0.0518103
266.8,20.09,1.85462,-0.0518281
267.2,20.1291,1.84196,-0.0504979
267.6,20.1677,1.85083,-0.05049
268,20.2062,1.8498,-0.0507348
268.4,20.2436,1.84871,-0.0518147
268.8,20.2819,1.85273,-0.0518113
269.2,20.3203,1.84708,-0.052392
269.6,20.3589,1.8524,-0.0534576
270,20.3966,1.84604,-0.05345777
270.4,20.4338,1.85653,-0.0539526
270.8,20.473,1.85462,-0.0541197
271.2,20.5109,1.8482,-0.05412
271.6,20.5488,1.85389,-0.0541195
272,20.5867,1.8388,-0.0541572
272.4,20.6255,1.85314,-0.0528007
272.8,20.6634,1.85189,-0.0528
273.2,20.7015,1.84654,-0.0528
273.6,20.7397,1.85449,-0.0528
274,20.7792,1.85138,-0.0528939
274.4,20.8176,1.8528,-0.0514966
274.8,20.8523,1.84754,-0.052798
275.2,20.8928,1.85823,-0.0527999
275.6,20.9312,1.85186,-0.054301
276,20.9694,1.84862,-0.0542298
276.4,21.0078,1.84767,-0.0542827
276.8,21.0467,1.8494,-0.0529223
277.2,21.0841,1.846754,-0.0516067
277.6,21.123,1.85086,-0.0515901
278,21.1613,1.84954,-0.0515884
278.4,21.1994,1.8559,-0.0525375
278.8,21.2371,1.85177,-0.052913
279.2,21.2765,1.84982,-0.05423066
279.6,21.3152,1.85576,-0.0542302
280,21.3533,1.84674,-0.054257
280.4,21.3911,1.84908,-0.05357027
280.8,21.4295,1.85102,-0.05357
281.2,21.4683,1.84878,-0.05357
281.6,21.5069,1.85561,-0.05357
282,21.5432,1.8575,-0.05356991
282.4,21.5826,1.85541,-0.0535528
282.8,21.6211,1.8629,-0.0522083
283.2,21.66,1.85821,-0.0522461
283.6,21.6977,1.86093,-0.0532626
284,21.7364,1.86051,-0.0532387
284.4,21.7745,1.85591,-0.053587
284.8,21.8129,1.85996,-0.0535701
285.2,21.8514,1.85204,-0.05357
285.6,21.8898,1.85783,-0.0535699
286,21.9282,1.86076,-0.0548613
286.4,21.9676,1.85992,-0.0548799
286.8,22.0051,1.85633,-0.05488
287.2,22.0443,1.85596,-0.05488
287.6,22.0823,1.85914,-0.0548754
288,22.1193,1.86057,-0.0535739
288.4,22.1588,1.86337,-0.0535701
288.8,22.1965,1.86309,-0.0535695
289.2,22.2348,1.85757,-0.0534481
289.6,22.2741,1.8627,-0.0529085
290,22.3121,1.86558,-0.0529103
290.4,22.3502,1.86765,-0.05290538
290.8,22.3887,1.87042,-0.0542292
291.2,22.4277,1.87655,-0.05423
291.6,22.4642,1.85752,-0.05423003
292,22.5021,1.86565,-0.0542346
292.4,22.542,1.8662,-0.0556525
292.8,22.58,1.86963,-0.0555507
293.2,22.6187,1.87076,-0.05555
293.6,22.6573,1.86412,-0.05555001
294,22.6955,1.86647,-0.055552
294.4,22.7346,1.87725,-0.0557842
294.8,22.7726,1.86949,-0.0568665
295.2,22.8102,1.86411,-0.0575423
295.6,22.8477,1.87259,-0.0561499
296,22.8875,1.87528,-0.0562092
296.4,22.9263,1.87184,-0.0561872
296.8,22.9644,1.87009,-0.0571753
297.2,23.0025,1.87782,-0.0571695
297.6,23.0408,1.88629,-0.05556
298,23.08,1.88693,-0.05488218
298.4,23.1176,1.88143,-0.0545616
298.8,23.1561,1.88764,-0.05456
299.2,23.1933,1.887,-0.05456
299.6,23.2327,1.87684,-0.0545614
300,23.2712,1.87863,-0.0548103
300.4,23.3094,1.86878,-0.0552618
300.8,23.3476,1.8777,-0.0558803
301.2,23.3869,1.87186,-0.05588
301.6,23.4249,1.87582,-0.05588
302,23.4613,1.87235,-0.05588
302.4,23.4991,1.87555,-0.05588
302.8,23.54,1.87376,-0.05588
303.2,23.5786,1.87629,-0.05588
303.6,23.6158,1.87704,-0.0558818
304,23.6546,1.87876,-0.0572405
304.4,23.6928,1.87797,-0.0571883
304.8,23.7312,1.87475,-0.0576697
305.2,23.77,1.88038,-0.0571873
305.6,23.8079,1.87863,-0.0571826
306,23.8458,1.88043,-0.0578495
306.4,23.8847,1.87342,-0.0585117
306.8,23.9234,1.87355,-0.0585001
307.2,23.9615,1.87777,-0.0585
307.6,23.9999,1.88757,-0.0584991
308,24.0385,1.88588,-0.0577875
308.4,24.0769,1.88036,-0.0571898
308.8,24.1147,1.88728,-0.0571913
309.2,24.1533,1.87641,-0.0595417
309.6,24.1904,1.87635,-0.0598196
310,24.2282,1.88273,-0.0598226
310.4,24.2681,1.87409,-0.058496
310.8,24.3071,1.8779,-0.0585
311.2,24.345,1.8727,-0.0585
311.6,24.384,1.88376,-0.0585046
312,24.4214,1.87768,-0.0585547
312.4,24.4607,1.87273,-0.0585106
312.8,24.4983,1.87851,-0.05851
313.2,24.5362,1.87444,-0.05851
313.6,24.5758,1.87191,-0.05851
314,24.6135,1.87279,-0.05851
314.4,24.652,1.87722,-0.05851
314.8,24.6907,1.87574,-0.05851
315.2,24.729,1.87355,-0.05851
315.6,24.768,1.88137,-0.05851
316,24.8059,1.88283,-0.0584986
316.4,24.8443,1.87979,-0.0594907
316.8,24.8827,1.87889,-0.0594999
317.2,24.9209,1.8787,-0.0595
317.6,24.9593,1.87544,-0.059499
318,24.9979,1.88233,-0.0598404
318.4,25.0377,1.87952,-0.05983003
318.8,25.0752,1.87583,-0.0599923
319.2,25.1136,1.87644,-0.0611552
319.6,25.152,1.87763,-0.06115
320,25.1905,1.88771,-0.06115
320.4,25.2286,1.88088,-0.06115
320.8,25.2663,1.87587,-0.0611499
321.2,25.3055,1.87861,-0.0611361
321.6,25.344,1.89074,-0.0605033
322,25.3831,1.88656,-0.0605132
322.4,25.4216,1.88187,-0.0601572
322.8,25.4594,1.87855,-0.060157
323.2,25.4989,1.87032,-0.0612658
323.6,25.5367,1.8712,-0.061479
324,25.5757,1.86928,-0.062712
324.4,25.6125,1.87468,-0.0627887
324.8,25.6508,1.87144,-0.0627899
325.2,25.6882,1.87639,-0.0627802
325.6,25.7298,1.87588,-0.0618099
326,25.769,1.87899,-0.0617999
326.4,25.8074,1.8753,-0.0618001
326.8,25.8453,1.8771,-0.06182663
327.2,25.884,1.88247,-0.0631266
327.6,25.923,1.87647,-0.0631213
328,25.961,1.87331,-0.06335992
328.4,26.0004,1.86975,-0.0637785
328.8,26.0384,1.88105,-0.0637771
329.2,26.0765,1.86597,-0.0649095
329.6,26.116,1.88787,-0.0650694
330,26.1537,1.88642,-0.0644615
330.4,26.1929,1.88592,-0.0644401
330.8,26.2312,1.88835,-0.06444
331.2,26.2698,1.89437,-0.0646226
331.6,26.3079,1.8835,-0.0644407
332,26.3467,1.89887,-0.06444
332.4,26.385,1.88916,-0.06444
332.8,26.4234,1.89217,-0.06444
333.2,26.4631,1.89141,-0.0644396
333.6,26.5014,1.89045,-0.0644155
334,26.5397,1.89056,-0.0654239
334.4,26.578,1.89396,-0.06543001
334.8,26.6146,1.89199,-0.0654175
335.2,26.6572,1.89693,-0.0667406
335.6,26.6951,1.89811,-0.0667401
336,26.7331,1.89785,-0.06674
336.4,26.7717,1.89792,-0.0667457
336.8,26.8083,1.90507,-0.0657473
337.2,26.8458,1.90091,-0.0657499
337.6,26.8882,1.90953,-0.0657501
338,26.9256,1.91086,-0.065767
338.4,26.9643,1.90625,-0.0671074
338.8,27.0041,1.90851,-0.0684412
339.2,27.0415,1.90666,-0.0684163
339.6,27.079,1.9095,-0.06741088
340,27.1204,1.90513,-0.0687264
340.4,27.1584,1.90978,-0.0687203
340.8,27.1966,1.90737,-0.0686979
341.2,27.236,1.90961,-0.070037
341.6,27.2753,1.90535,-0.07004
342,27.3137,1.91371,-0.0700396
342.4,27.3529,1.90869,-0.0699707
342.8,27.3911,1.90222,-0.0710342
343.2,27.4297,1.90813,-0.0713527
343.6,27.4685,1.9107,-0.07135
344,27.5075,1.90293,-0.07135
344.4,27.5461,1.90732,-0.07134311
344.8,27.5848,1.91472,-0.0724422
345.2,27.6235,1.91143,-0.0739811
345.6,27.6623,1.90762,-0.074283
346,27.7011,1.91343,-0.074322
346.4,27.7391,1.90762,-0.0737083
346.8,27.7786,1.90357,-0.0739895
347.2,27.8169,1.91624,-0.07399
347.6,27.8559,1.91663,-0.07399137
348,27.8951,1.91696,-0.0752973
348.4,27.9331,1.91534,-0.0753085
348.8,27.9723,1.92022,-0.0739366
349.2,28.0108,1.91505,-0.0739436
349.6,28.0504,1.91845,-0.0752888
350,28.0891,1.91775,-0.0767272
350.4,28.1279,1.92381,-0.0766205
350.8,28.1658,1.92447,-0.07661994
351.2,28.2046,1.92185,-0.0766009
351.6,28.2413,1.92502,-0.0779205
352,28.2817,1.92509,-0.0779393
352.4,28.3217,1.91889,-0.0787084
352.8,28.3601,1.93289,-0.0779715
353.2,28.3991,1.92764,-0.0779331
353.6,28.4377,1.92987,-0.0794838
354,28.4767,1.93472,-0.0805832
354.4,28.5156,1.93373,-0.0805809
354.8,28.5541,1.93143,-0.0810163
355.2,28.5935,1.93731,-0.0805822
355.6,28.6318,1.94764,-0.0805702
356,28.6703,1.94417,-0.0805847
356.4,28.7092,1.94594,-0.0818977
356.8,28.7478,1.9441,-0.0830063
357.2,28.7866,1.95239,-0.0845262
357.6,28.8256,1.95991,-0.0857738
358,28.8626,1.94704,-0.0845433
358.4,28.9033,1.95901,-0.0845301
358.8,28.9421,1.96067,-0.084531
359.2,28.9809,1.95388,-0.084702
359.6,29.0196,1.95669,-0.0858429
360,29.0588,1.96127,-0.0858092
360.4,29.0981,1.95317,-0.0874807
360.8,29.1359,1.9624,-0.0874455
361.2,29.1753,1.96297,-0.0888018
361.6,29.2138,1.96862,-0.089598
362,29.2529,1.97968,-0.0910959
362.4,29.2926,1.97291,-0.0910634
362.8,29.3315,1.98008,-0.0924173
363.2,29.3704,1.97833,-0.0924299
363.6,29.4102,1.97845,-0.0924304
364,29.4483,1.98158,-0.092459
364.4,29.4867,1.9826,-0.0937483
364.8,29.5256,1.99742,-0.0951054
365.2,29.5647,1.98714,-0.0949813
365.6,29.604,2.00191,-0.0963795
366,29.6431,1.99647,-0.0973249
366.4,29.6817,1.99671,-0.0977191
366.8,29.7205,1.99908,-0.099022
367.2,29.7599,2.00651,-0.0998957
367.6,29.7984,2.00214,-0.100344
368,29.8373,2.00734,-0.102577
368.4,29.8768,2.01486,-0.103357
368.8,29.9158,2.02571,-0.102986
369.2,29.9545,2.01971,-0.104409
369.6,29.9943,2.02302,-0.10299
370,30.0324,2.02297,-0.104409
370.4,30.0714,2.02685,-0.105769
370.8,30.1109,2.032,-0.106003
371.2,30.1497,2.02862,-0.10705
371.6,30.1898,2.03697,-0.10839
372,30.2281,2.04152,-0.111019
372.4,30.267,2.04193,-0.1123
372.8,30.306,2.04508,-0.112929
373.2,30.345,2.04866,-0.114187
373.6,30.3841,2.04984,-0.114007
374,30.4229,2.05769,-0.114897
374.4,30.4628,2.05558,-0.116239
374.8,30.5008,2.06638,-0.11765
375.2,30.5399,2.07194,-0.117786
375.6,30.5794,2.07302,-0.119421
376,30.6181,2.0771,-0.120208
376.4,30.6573,2.08859,-0.12152
376.8,30.697,2.09646,-0.122956
377.2,30.7353,2.1028,-0.123425
377.6,30.7742,2.10166,-0.1242689
378,30.8118,2.11281,-0.125302
378.4,30.8529,2.11056,-0.127234
378.8,30.8911,2.12226,-0.128559
379.2,30.9284,2.12299,-0.13155
379.6,30.9693,2.13322,-0.132211
380,31.0081,2.13842,-0.132377
380.4,31.0473,2.14223,-0.1336
380.8,31.0865,2.1427,-0.134665
381.2,31.1257,2.14778,-0.136701
381.6,31.1641,2.15126,-0.138631
382,31.2032,2.15891,-0.140157
382.4,31.2423,2.15337,-0.14183
382.8,31.2817,2.17845,-0.143938
383.2,31.3216,2.18047,-0.14528
383.6,31.3597,2.19303,-0.146784
384,31.3981,2.19664,-0.148602
384.4,31.4391,2.19791,-0.15058
384.8,31.4771,2.20925,-0.149818
385.2,31.5153,2.2053,-0.150674
385.6,31.556,2.21863,-0.15299
386,31.5935,2.21826,-0.154874
386.4,31.6345,2.23175,-0.157993
386.8,31.6729,2.22633,-0.159542
387.2,31.7116,2.22516,-0.162041
387.6,31.7499,2.2404,-0.163608
388,31.7902,2.24439,-0.164867
388.4,31.8268,2.25437,-0.166384
388.8,31.8688,2.25126,-0.169589
389.2,31.9078,2.26109,-0.17124
389.6,31.947,2.27668,-0.172569
390,31.9853,2.2788,-0.17424
390.4,32.0243,2.28407,-0.177119
390.8,32.0632,2.2944,-0.179375
391.2,32.1035,2.30151,-0.182179
391.6,32.1417,2.30739,-0.183251
392,32.1815,2.31237,-0.184496
392.4,32.2206,2.32165,-0.186986
392.8,32.2596,2.33268,-0.188866
393.2,32.2984,2.3483,-0.191529
393.6,32.3378,2.36088,-0.194036
394,32.3777,2.36072,-0.197049
394.4,32.4146,2.36793,-0.198513
394.8,32.4554,2.38494,-0.200291
395.2,32.4951,2.38494,-0.20382
395.6,32.5347,2.39414,-0.206176
396,32.5729,2.39804,-0.207877
396.4,32.613,2.41412,-0.211518
396.8,32.6522,2.42212,-0.214032
397.2,32.6909,2.43535,-0.215774
397.6,32.7293,2.44088,-0.217933
398,32.7695,2.44829,-0.221571
398.4,32.8081,2.44907,-0.223969
398.8,32.8484,2.47113,-0.227756
399.2,32.8882,2.47988,-0.229274
399.6,32.928,2.48909,-0.232574
400,32.967,2.49978,-0.236868
400.4,33.0057,2.51556,-0.239993
400.8,33.0449,2.52477,-0.24358
401.2,33.084,2.54313,-0.247262
401.6,33.1244,2.55451,-0.250689
402,33.1609,2.56756,-0.253023
402.4,33.2004,2.58088,-0.2561
402.8,33.2396,2.59286,-0.259158
403.2,33.2801,2.60928,-0.262686
403.6,33.3192,2.62927,-0.26496
404,33.3598,2.63156,-0.268788
404.4,33.3984,2.64816,-0.272727
404.8,33.4383,2.6599,-0.276635
405.2,33.4778,2.67976,-0.279998
405.6,33.5176,2.70124,-0.284235
406,33.5569,2.70762,-0.287705
406.4,33.5959,2.72877,-0.291505
406.8,33.6351,2.75705,-0.295659
407.2,33.6741,2.77776,-0.299267
407.6,33.7136,2.79424,-0.303882
408,33.7529,2.81113,-0.307033
408.4,33.7934,2.8331,-0.311721
408.8,33.8311,2.84451,-0.316455
409.2,33.872,2.86118,-0.321232
409.6,33.9119,2.88679,-0.325841
410,33.9511,2.89705,-0.330615
410.4,33.9914,2.91295,-0.335726
410.8,34.0312,2.93842,-0.341402
411.2,34.0698,2.94851,-0.346768
411.6,34.1097,2.97519,-0.351935
412,34.1489,2.99416,-0.357853
412.4,34.1887,3.01254,-0.362379
412.8,34.2285,3.03381,-0.368146
413.2,34.2671,3.05844,-0.373769
413.6,34.3072,3.07857,-0.379169
414,34.3471,3.10177,-0.385629
414.4,34.3863,3.12095,-0.390429
414.8,34.4264,3.14497,-0.396741
415.2,34.4656,3.14631,-0.40177
415.6,34.5048,3.15604,-0.405843
416,34.5446,3.15656,-0.412714
416.4,34.5843,3.17807,-0.419075
416.8,34.6234,3.19329,-0.425622
417.2,34.6632,3.20989,-0.433177
417.6,34.7015,3.22834,-0.439775
418,34.7419,3.24699,-0.44656
418.4,34.7821,3.27025,-0.454402
418.8,34.8217,3.29218,-0.462034
419.2,34.861,3.31912,-0.469191
419.6,34.9006,3.3453,-0.477612
420,34.9392,3.37329,-0.485013
420.4,34.9803,3.4051,-0.493222
420.8,35.0193,3.42833,-0.501456
421.2,35.0593,3.45597,-0.507583
421.6,35.0968,3.48231,-0.51598
422,35.1382,3.5152,-0.523277
422.4,35.1787,3.55347,-0.533864
422.8,35.2181,3.58511,-0.543178
423.2,35.2574,3.61178,-0.551898
423.6,35.2963,3.64708,-0.561413
424,35.3366,3.68542,-0.571872
424.4,35.3773,3.72001,-0.58107
424.8,35.4171,3.75154,-0.590944
425.2,35.4572,3.77904,-0.600799
425.6,35.4962,3.85475,-0.611266
426,35.537,3.90031,-0.622017
426.4,35.5772,3.93512,-0.6351509
426.8,35.6164,3.9787,-0.647936
427.2,35.657,3.99541,-0.659996
427.6,35.6964,4.03472,-0.670683
428,35.7367,4.07182,-0.682394
428.4,35.7765,4.10922,-0.695269
428.8,35.8162,4.14689,-0.708378
429.2,35.8559,4.17266,-0.720306
429.6,35.8951,4.22818,-0.73346
430,35.9355,4.25254,-0.745546
430.4,35.9761,4.29144,-0.758176
430.8,36.0156,4.33601,-0.771067
431.2,36.0556,4.37195,-0.785243
431.6,36.0947,4.4051,-0.799261
432,36.1342,4.4572,-0.813512
432.4,36.1759,4.49214,-0.82781
432.8,36.2149,4.5231,-0.842399
433.2,36.2554,4.57889,-0.857487
433.6,36.295,4.60849,-0.87169
434,36.3358,4.6468,-0.887418
434.4,36.3752,4.68148,-0.903585
434.8,36.4148,4.7323,-0.917827
435.2,36.4551,4.76211,-0.933947
435.6,36.4939,4.79697,-0.949829
436,36.5348,4.84043,-0.967227
436.4,36.5752,4.88064,-0.984807
436.8,36.6148,4.92145,-1.00173
437.2,36.654,4.96167,-1.01852
437.6,36.6954,5.00463,-1.03541
438,36.7325,5.03346,-1.05155
438.4,36.7754,5.09142,-1.07137
438.8,36.8159,5.11576,-1.09007
439.2,36.8544,5.15669,-1.10769
439.6,36.8956,5.2174,-1.12769
440,36.9363,5.26573,-1.14619
440.4,36.9766,5.30193,-1.16682
440.8,37.0151,5.3266,-1.18837
441.2,37.0558,5.3531,-1.20773
441.6,37.0959,5.39898,-1.22862
442,37.1364,5.44419,-1.24839
442.4,37.1755,5.48609,-1.26785
442.8,37.2154,5.52207,-1.29059
443.2,37.2572,5.55792,-1.31239
443.6,37.2966,5.58368,-1.33362
444,37.3368,5.63234,-1.35626
444.4,37.3763,5.6571,-1.37741
444.8,37.4162,5.70122,-1.40053
445.2,37.4571,5.72717,-1.42406
445.6,37.4976,5.76473,-1.44802
446,37.5369,5.7958,-1.47037
446.4,37.5768,5.82611,-1.49379
446.8,37.6162,5.86634,-1.51691
447.2,37.6572,5.8945,-1.54095
447.6,37.6973,5.92798,-1.56561
448,37.7368,5.95568,-1.58745
448.4,37.7763,5.98236,-1.61423
448.8,37.8167,6.00672,-1.64126
449.2,37.8569,6.03605,-1.66588
449.6,37.8967,6.05497,-1.69194
450,37.9365,6.07498,-1.71882
450.4,37.9768,6.10146,-1.74528
450.8,38.017,6.13303,-1.77134
451.2,38.0567,6.14634,-1.79872
451.6,38.0969,6.17189,-1.82593
452,38.1344,6.18183,-1.85038
452.4,38.1774,6.19904,-1.87979
452.8,38.2169,6.2141,-1.90738
453.2,38.2561,6.21123,-1.93426
453.6,38.2938,6.2204,-1.96125
454,38.3365,6.22135,-1.9896
454.4,38.3747,6.21813,-2.01574
454.8,38.415,6.21209,-2.04435
455.2,38.4545,6.20337,-2.07343
455.6,38.4939,6.18142,-2.10318
456,38.5334,6.17054,-2.13241
456.4,38.5722,6.14275,-2.15882
456.8,38.6122,6.10212,-2.18778
457.2,38.6526,6.0629,-2.21617
457.6,38.6902,6.00972,-2.24273
458,38.7294,5.96437,-2.27058
458.4,38.7683,5.91717,-2.29886
458.8,38.8069,5.85628,-2.32538
459.2,38.8456,5.79921,-2.35232
459.6,38.8857,5.72791,-2.3819
460,38.9243,5.66308,-2.411
460.4,38.9631,5.5852,-2.43863
460.8,39.0019,5.49747,-2.46526
461.2,39.0399,5.404,-2.49091
461.6,39.079,5.30019,-2.51626
462,39.1169,5.19288,-2.54158
462.4,39.1553,5.08796,-2.56829
462.8,39.1933,4.98443,-2.59365
463.2,39.2322,4.87089,-2.61826
463.6,39.2682,4.76272,-2.64107
464,39.309,4.63838,-2.66625
464.4,39.347,4.5198,-2.68994
464.8,39.3844,4.40293,-2.71299
465.2,39.4206,4.2783,-2.73284
465.6,39.4608,4.13017,-2.7575
466,39.4992,4.00502,-2.77929
466.4,39.5363,3.87816,-2.79927
466.8,39.5754,3.73307,-2.82002
467.2,39.6124,3.59273,-2.84016
467.6,39.6505,3.47615,-2.86014
468,39.6878,3.3337,-2.87917
468.4,39.7249,3.21815,-2.8969
468.8,39.7622,3.08358,-2.91571
469.2,39.8018,2.94563,-2.93391
469.6,39.8401,2.81902,-2.94946
470,39.8781,2.68839,-2.96751
470.4,39.916,2.57796,-2.9845
470.8,39.9544,2.43649,-3.0007
471.2,39.9925,2.32155,-3.01516
471.6,40.0295,2.21168,-3.02864
472,40.069,2.09773,-3.04369
472.4,40.1063,1.98094,-3.0563
472.8,40.1442,1.88366,-3.07072
473.2,40.1824,1.78856,-3.0833
473.6,40.2189,1.69021,-3.09498
474,40.2592,1.58493,-3.1074
474.4,40.2979,1.50377,-3.11835
474.8,40.3355,1.4238,-3.12885
475.2,40.3741,1.33899,-3.13965
475.6,40.4129,1.26072,-3.15004
476,40.4513,1.19172,-3.15952
476.4,40.4896,1.12474,-3.16862
476.8,40.5286,1.06399,-3.17785
477.2,40.5676,0.991382,-3.18729
477.6,40.6062,0.94819,-3.19416
478,40.645,0.895863,-3.20133
478.4,40.6834,0.8396,-3.21273
478.8,40.7232,0.794315,-3.22042
479.2,40.7611,0.744583,-3.22848
479.6,40.8006,0.710072,-3.23492
480,40.84,0.666678,-3.24253
480.4,40.8781,0.638961,-3.2482
480.8,40.9183,0.599126,-3.25375
481.2,40.9565,0.570406,-3.2585
481.6,40.9961,0.540893,-3.26354
482,41.0359,0.516412,-3.27176
482.4,41.0762,0.480048,-3.2776
482.8,41.1147,0.459689,-3.28246
483.2,41.1542,0.431561,-3.28726
483.6,41.1933,0.406599,-3.2922
484,41.2318,0.400384,-3.29638
484.4,41.272,0.384211,-3.30058
484.8,41.3105,0.350629,-3.30475
485.2,41.3506,0.32541,-3.30912
485.6,41.3905,0.319753,-3.31357
486,41.4293,0.29231,-3.31772
486.4,41.4692,0.264313,-3.32139
486.8,41.5081,0.256481,-3.32445
487.2,41.5482,0.231232,-3.32794
487.6,41.5877,0.217411,-3.33173
488,41.6271,0.197556,-3.33573
488.4,41.6664,0.18007,-3.33965
488.8,41.7061,0.163177,-3.34146
489.2,41.7463,0.15004,-3.34316
489.6,41.7858,0.136753,-3.34728
490,41.824,0.118034,-3.35059
490.4,41.8646,0.0998961,-3.35334
490.8,41.9041,0.0762458,-3.35492
491.2,41.9433,0.0790178,-3.3551
491.6,41.9834,0.0591957,-3.35802
492,42.0203,0.0460427,-3.35961
492.4,42.0625,0.0311029,-3.35914
492.8,42.0989,0.0112791,-3.36117
493.2,42.1411,0.003273988,-3.36313
493.6,42.1802,-0.0109782,-3.36562
494,42.2203,-0.014747,-3.36688
494.4,42.2599,-0.0256639,-3.36824
494.8,42.3,-0.0354023,-3.36966
495.2,42.3395,-0.0451239,-3.36957
495.6,42.3794,-0.0493763,-3.3707
496,42.4186,-0.0665219,-3.3709
496.4,42.459,-0.0644948,-3.37222
496.8,42.4978,-0.0769102,-3.3722
497.2,42.539,-0.0777185,-3.37351
497.6,42.5776,-0.0828042,-3.37352
498,42.6177,-0.0860121,-3.37454
498.4,42.6588,-0.09091647,-3.37484
498.8,42.6981,-0.0833127,-3.37484
499.2,42.738,-0.0823616,-3.37484
499.6,42.7772,-0.0971309,-3.37616
500,42.818,-0.0925331,-3.37615
500.4,42.8564,-0.103924,-3.37583
500.8,42.897,-0.0891796,-3.37583
501.2,42.9368,-0.09288362,-3.37723
501.6,42.9761,-0.0871062,-3.37615
502,43.0167,-0.0993469,-3.37616
502.4,43.0564,-0.0894465,-3.37616
502.8,43.0969,-0.0879244,-3.37616
503.2,43.1365,-0.0874852,-3.37616
503.6,43.1762,-0.08597558,-3.37618
504,43.2169,-0.0933915,-3.37747
504.4,43.2562,-0.0866576,-3.37747
504.8,43.2962,-0.0965402,-3.37747
505.2,43.3352,-0.0810481,-3.37747
505.6,43.3765,-0.0937075,-3.37747
506,43.4162,-0.0941694,-3.37747
506.4,43.456,-0.0963465,-3.37747
506.8,43.4957,-0.08997787,-3.37748
507.2,43.5359,-0.0899205,-3.3765
507.6,43.5754,-0.0860935,-3.37648
508,43.6152,-0.0784713,-3.37648
508.4,43.6555,-0.0879146,-3.37648
508.8,43.6955,-0.0879984,-3.37648
509.2,43.7348,-0.0804798,-3.37693
509.6,43.7759,-0.0842387,-3.3778
510,43.8149,-0.08486148,-3.3778
510.4,43.8555,-0.0859818,-3.37743
510.8,43.8947,-0.0833964,-3.37747
511.2,43.9351,-0.0836332,-3.37747
511.6,43.9747,-0.08320578,-3.37747
512,44.0115,-0.0814262,-3.37747
512.4,44.0547,-0.0815992,-3.37747
512.8,44.0943,-0.0791238,-3.37617
513.2,44.1341,-0.0759207,-3.37616
513.6,44.1742,-0.0721624,-3.37616
514,44.214,-0.0640061,-3.37747
514.4,44.2541,-0.061367,-3.37747
514.8,44.2946,-0.0626672,-3.37747
515.2,44.3331,-0.0632535,-3.37747
515.6,44.3736,-0.0526522,-3.37616
516,44.4141,-0.0377252,-3.37616
516.4,44.4535,-0.0331205,-3.37616
516.8,44.4927,-0.007111218,-3.37616
517.2,44.5334,0.000453278,-3.37616
517.6,44.5712,0.004743642,-3.37635
518,44.6115,0.0210909,-3.37748
518.4,44.6532,0.0291858,-3.37748
518.8,44.6934,0.022496,-3.37748
519.2,44.7336,0.0278561,-3.37748
519.6,44.7722,0.03006153,-3.37748
520,44.8128,0.0438487,-3.37751
520.4,44.8532,0.0333397,-3.37715
520.8,44.8896,0.0297896,-3.37715
521.2,44.9321,0.031801,-3.37801
521.6,44.9726,0.0300992,-3.37847
522,45.0127,0.03846143,-3.37847
522.4,45.0527,0.0342664,-3.37847
522.8,45.0929,0.0437718,-3.37848
523.2,45.1324,0.0281614,-3.3798
523.6,45.1726,0.03386485,-3.37978
524,45.2126,0.0304478,-3.37978
524.4,45.2521,0.0294848,-3.37976
524.8,45.2928,0.037012,-3.37847
525.2,45.3333,0.0465855,-3.37844
525.6,45.3728,0.0425267,-3.37854
526,45.413,0.0427239,-3.37846
526.4,45.4537,0.0361687,-3.37846
526.8,45.4925,0.0366026,-3.37846
527.2,45.5335,0.03837862,-3.37835
527.6,45.5733,0.0419055,-3.37847
528,45.613,0.0343643,-3.37847
528.4,45.6537,0.0317319,-3.37925
528.8,45.6931,0.0390184,-3.37945
529.2,45.7328,0.0352479,-3.37945
529.6,45.7727,0.0432078,-3.37945
530,45.8128,0.0405018,-3.37945
530.4,45.8528,0.0379894,-3.37848
530.8,45.8927,0.0322864,-3.37813
531.2,45.9331,0.0398715,-3.37813
531.6,45.9725,0.0322915,-3.37813
532,46.0131,0.0520396,-3.37813
532.4,46.054,0.03180674,-3.37813
532.8,46.0931,0.0327514,-3.37813
533.2,46.1333,0.0341905,-3.37813
533.6,46.174,0.0277719,-3.37813
534,46.2129,0.031599,-3.37813
534.4,46.2537,0.02194855,-3.3768
534.8,46.2935,0.0258604,-3.37681
535.2,46.3317,0.0233619,-3.37681
535.6,46.3709,0.0316724,-3.37681
536,46.412,0.0173324,-3.37681
536.4,46.4528,0.0216889,-3.37832
536.8,46.4931,0.0159252,-3.37714
537.2,46.5328,0.0227225,-3.37715
537.6,46.5725,0.026142,-3.37752
538,46.6128,0.0271196,-3.37747
538.4,46.65,0.0269077,-3.37747
538.8,46.693,0.03311979,-3.37747
539.2,46.7331,0.0265988,-3.37747
539.6,46.7726,0.03264046,-3.3788
540,46.8134,0.0300436,-3.37879
540.4,46.8531,0.02503096,-3.3788
540.8,46.893,0.0301489,-3.3778
541.2,46.9327,0.0235656,-3.3778
541.6,46.9731,0.0287116,-3.37783
542,47.0134,0.0266406,-3.37912
542.4,47.0534,0.0184552,-3.37912
542.8,47.0938,0.0274334,-3.37912
543.2,47.1341,0.0269784,-3.37912
543.6,47.1735,0.0221602,-3.37912
544,47.2141,0.0200213,-3.37912
544.4,47.2536,0.0231358,-3.37912
544.8,47.2934,0.0162195,-3.37912
545.2,47.3336,0.0111491,-3.37902
545.6,47.3734,0.0144748,-3.3778
546,47.4127,0.0146622,-3.3775
546.4,47.4536,0.0143633,-3.37844
546.8,47.4937,0.0140009,-3.37846
547.2,47.5334,0.008906506,-3.37846
547.6,47.5736,0.005035719,-3.37846
548,47.6102,0.00693975,-3.37846
548.4,47.6539,0.0125074,-3.37846
548.8,47.6938,0.004163966,-3.37881
549.2,47.7342,0.004968402,-3.37879
549.6,47.7735,0.006514246,-3.37914
550,47.8138,0.006729482,-3.37882
550.4,47.8541,0.000714302,-3.3788
550.8,47.8938,0.004753,-3.3788
551.2,47.9327,0.007547409,-3.3788
551.6,47.9741,0.005166951,-3.3788
552,48.0136,0.001059417,-3.37858
552.4,48.0539,-0.0105839,-3.37748
552.8,48.094,-0.008117889,-3.37741
553.2,48.1334,-0.002120955,-3.37815
553.6,48.1739,-0.003002122,-3.37814
554,48.2137,-0.00730779,-3.37814
554.4,48.2546,-0.0108974,-3.37814
554.8,48.294,-0.00045351,-3.37814
555.2,48.3335,-0.0157512,-3.37814
555.6,48.3738,-0.007384584,-3.37853
556,48.4144,-0.0162959,-3.37879
556.4,48.4542,-0.0181123,-3.37849
556.8,48.495,-0.0149389,-3.37813
557.2,48.5347,-0.0235013,-3.37813
557.6,48.5743,-0.0259596,-3.37813
558,48.6142,-0.0226519,-3.37905
558.4,48.6548,-0.0169358,-3.37944
558.8,48.6949,-0.0205428,-3.37843
559.2,48.735,-0.0258103,-3.37714
559.6,48.7751,-0.02793089,-3.37715
560,48.8161,-0.0228534,-3.37715
560.4,48.8559,-0.0183028,-3.37663
560.8,48.8958,-0.017052,-3.376161
561.2,48.9359,-0.0107529,-3.37617
561.6,48.9766,-0.0213098,-3.37748
562,49.0156,-0.012931,-3.37747
562.4,49.0571,-0.0137999,-3.3774
562.8,49.0966,-0.0204948,-3.37879
563.2,49.1376,-0.0211029,-3.37879
563.6,49.1774,-0.0204433,-3.37879
564,49.2172,-0.0243426,-3.3775
564.4,49.2575,-0.0236099,-3.37747
564.8,49.2975,-0.0255718,-3.37747
565.2,49.3382,-0.0243042,-3.37747
565.6,49.3788,-0.02793438,-3.37747
566,49.4186,-0.0207847,-3.37704
566.4,49.4585,-0.0216749,-3.37616
566.8,49.4989,-0.033335,-3.37615
567.2,49.5395,-0.0321424,-3.37615
567.6,49.5789,-0.0240342,-3.37542
568,49.6195,-0.0343177,-3.37634
568.4,49.659,-0.0292625,-3.37681
568.8,49.6997,-0.03171206,-3.37681
569.2,49.7401,-0.0394713,-3.37681
569.6,49.7799,-0.0463628,-3.37781
570,49.8198,-0.0501952,-3.37823
570.4,49.8597,-0.0413889,-3.37944
570.8,49.9006,-0.0417307,-3.37797
571.2,49.9403,-0.0463519,-3.3781
571.6,49.981,-0.04432797,-3.3767
572,50.021,-0.0419039,-3.3767
572.4,50.061,-0.0410438,-3.3767
572.8,50.1014,-0.0516622,-3.3765
573.2,50.141,-0.0547318,-3.37538
573.6,50.1822,-0.053837,-3.37535
574,50.221,-0.0511078,-3.37603
574.4,50.2614,-0.0587348,-3.37604
574.8,50.3018,-0.0540438,-3.37503
575.2,50.3412,-0.0494668,-3.37506
575.6,50.3823,-0.0603703,-3.37506
576,50.422,-0.0465737,-3.37506
576.4,50.4625,-0.0467831,-3.37506
576.8,50.503,-0.0489369,-3.37484
577.2,50.5414,-0.0563954,-3.37495
577.6,50.5831,-0.0523584,-3.37692
578,50.622,-0.0516711,-3.37692
578.4,50.663,-0.0518,-3.37549
578.8,50.7029,-0.056156,-3.37418
579.2,50.7431,-0.0589006,-3.37418
579.6,50.7832,-0.0560545,-3.37418
580,50.8237,-0.0524339,-3.37418
580.4,50.8629,-0.0539945,-3.37418
580.8,50.9038,-0.0684595,-3.37429
581.2,50.944,-0.069228,-3.3759
581.6,50.9838,-0.0581607,-3.37682
582,51.0222,-0.0640058,-3.37685
582.4,51.0652,-0.0563811,-3.3755
582.8,51.1047,-0.0568177,-3.3755
583.2,51.1444,-0.0594263,-3.3755
583.6,51.1843,-0.0608876,-3.3755
584,51.2252,-0.0589832,-3.3755
584.4,51.2657,-0.069184,-3.3755
584.8,51.3046,-0.0649703,-3.3755
585.2,51.3447,-0.0703413,-3.3755
585.6,51.3843,-0.0688898,-3.37525
586,51.4254,-0.0699958,-3.37549
586.4,51.4651,-0.0715152,-3.3755
586.8,51.5053,-0.0721407,-3.3755
587.2,51.5466,-0.0714819,-3.3755
587.6,51.5855,-0.0724248,-3.3755
588,51.626,-0.078768,-3.3755
588.4,51.6662,-0.078796,-3.3755
588.8,51.707,-0.08041302,-3.3755
589.2,51.7468,-0.0844459,-3.3755
589.6,51.7867,-0.0867255,-3.3755
590,51.8276,-0.0745763,-3.3755
590.4,51.8672,-0.0768601,-3.37429
590.8,51.9075,-0.07715,-3.37418
591.2,51.9473,-0.08463682,-3.37556
591.6,51.9877,-0.0777516,-3.3755
592,52.0282,-0.07340388,-3.3755
592.4,52.0683,-0.0785881,-3.37558
592.8,52.109,-0.0763646,-3.37416
593.2,52.1491,-0.0669787,-3.37492
593.6,52.1893,-0.0773033,-3.37549
594,52.2295,-0.0670704,-3.37549
594.4,52.2693,-0.0758121,-3.37549
594.8,52.3103,-0.0778286,-3.37612
595.2,52.3484,-0.07689917,-3.37551
595.6,52.3889,-0.0866367,-3.37547
596,52.4313,-0.0859817,-3.37679
596.4,52.4716,-0.0848104,-3.37739
596.8,52.5123,-0.0838256,-3.37747
597.2,52.5527,-0.0877318,-3.37614
597.6,52.5926,-0.08249893,-3.37549
598,52.6328,-0.086557,-3.37547
598.4,52.6742,-0.084517,-3.37418
598.8,52.7141,-0.0849315,-3.37421
599.2,52.7543,-0.0812172,-3.37515
599.6,52.794,-0.0826555,-3.37517
600,52.8352,-0.0785946,-3.3752