File: 01_Data/Helmet_Brim_Edging/STA/N2/10K_min/Helmet_Brim_Edging_STA_N2_10KData_240223_R1.csv
Temp./C,Time/min,DSC/(mW/mg),Mass loss/mg
60.0,0.0,0.755005,0.00055654
60.4,0.0405752,0.765373,0.000280349
60.8,0.0892887,0.775289,0.000501326
61.2,0.135583,0.779363,0.0015319
61.6,0.180118,0.79423,0.00151664
62,0.224637,0.799587,0.00176901
62.4,0.269126,0.794241,0.000444578
62.8,0.312852,0.80697,0.000688455
63.2,0.356443,0.813739,0.00159831
63.6,0.4007,0.813221,0.00134682
64,0.442525,0.823005,0.000465577
64.4,0.487754,0.823984,0.000436553
64.8,0.532897,0.820928,0.000660231
65.2,0.572829,0.826765,0.000457239
65.6,0.61888,0.832156,-0.00075167
66,0.66302,0.830807,0.000554015
66.4,0.704809,0.832121,0.000442925
66.8,0.748045,0.836917,0.000371648
67.2,0.79125,0.848055,0.000419494
67.6,0.83313,0.849688,0.000447668
68,0.873917,0.846166,0.000430485
68.4,0.918951,0.855505,-0.000966354
68.8,0.961299,0.850297,0.000438314
69.2,0.999714,0.855263,-0.000899882
69.6,1.04594,0.86847,-0.000885678
70,1.08962,0.869204,-0.00189065
70.4,1.13112,0.867399,-0.000880951
70.8,1.17343,0.871406,-0.00086722
71.2,1.21545,0.867853,0.000464314
71.6,1.25743,0.869321,-0.000846977
72,1.3,0.873134,-0.000848898
72.4,1.34193,0.870053,-0.000217194
72.8,1.38348,0.871553,-0.000871591
73.2,1.4256,0.87717,-0.00086464
73.6,1.46624,0.879067,-0.000197451
74,1.50935,0.887586,-0.000864205
74.4,1.54629,0.890624,-0.000870028
74.8,1.59304,0.885482,-0.000845743
75.2,1.63425,0.88704,-0.000121339
75.6,1.67555,0.890584,0.00041271
76,1.71693,0.890164,0.000440004
76.4,1.75892,0.891335,0.000439918
76.8,1.8,0.889243,0.000430486
77.2,1.83837,0.893363,-0.000879057
77.6,1.88105,0.892144,-0.000960191
78,1.9237,0.894095,-0.00140082
78.4,1.96321,0.889345,-0.00158965
78.8,2.00704,0.901099,-0.000879275
79.2,2.04783,0.903678,0.000376954
79.6,2.08854,0.898082,-0.000864226
80,2.13031,0.898501,-0.000869992
80.4,2.17133,0.90462,-0.000867982
80.8,2.21206,0.908668,-0.00219537
81.2,2.25176,0.905659,-0.00217479
81.6,2.2947,0.910169,-0.000873328
82,2.3347,0.910631,-0.000879961
82.4,2.37566,0.90887,-0.000880276
82.8,2.41736,0.908285,-0.00100212
83.2,2.45688,0.913789,-0.000879366
83.6,2.49762,0.901327,-0.000879731
84,2.53856,0.918471,-0.00206046
84.4,2.58095,0.911159,-0.00219949
84.8,2.61969,0.910732,-0.00351999
85.2,2.66083,0.912414,-0.00351
85.6,2.69902,0.909275,-0.00351059
86,2.74192,0.91316,-0.00246235
86.4,2.78155,0.911885,-0.00215424
86.8,2.82188,0.916326,-0.00217945
87.2,2.86218,0.917546,-0.000865872
87.6,2.9034,0.912955,-0.00218647
88,2.94251,0.916734,-0.000827828
88.4,2.98356,0.921961,-0.000879725
88.8,3.02061,0.91954,-0.000887579
89.2,3.0631,0.920906,-0.00216995
89.6,3.10381,0.927053,-0.000873012
90,3.14241,0.927857,-0.000880575
90.4,3.18378,0.928736,-0.00240845
90.8,3.22407,0.93131,-0.00284863
91.2,3.26334,0.92311,-0.00284991
91.6,3.30028,0.926564,-0.00284877
92,3.34303,0.935163,-0.00151842
92.4,3.38169,0.933501,-0.00152061
92.8,3.42317,0.934759,-0.00283673
93.2,3.46167,0.937345,-0.00284996
93.6,3.50176,0.935658,-0.00285
94,3.54212,0.938382,-0.00285001
94.4,3.58158,0.936476,-0.00285201
94.8,3.62125,0.941823,-0.00173525
95.2,3.65918,0.942848,-0.00284238
95.6,3.69903,0.941758,-0.00154474
96,3.73903,0.940504,-0.00154008
96.4,3.77634,0.94837,-0.00154726
96.8,3.81794,0.94573,-0.0029068
97.2,3.85795,0.944925,-0.00285986
97.6,3.89691,0.948134,-0.00155934
98,3.93574,0.949237,-0.00157318
98.4,3.97651,0.949644,-0.00285667
98.8,4.01543,0.949847,-0.00285003
99.2,4.05408,0.954002,-0.00285016
99.6,4.09416,0.949221,-0.00285118
100,4.1328,0.952428,-0.00417123
100.4,4.17162,0.950848,-0.00416998
100.8,4.21032,0.952867,-0.00417
101.2,4.25116,0.946514,-0.00416969
101.6,4.2896,0.956203,-0.00418784
102,4.32933,0.95332,-0.00284761
102.4,4.36785,0.958439,-0.00396588
102.8,4.40687,0.957584,-0.00284584
103.2,4.447,0.958298,-0.00284998
103.6,4.48627,0.960314,-0.00284984
104,4.52554,0.959935,-0.00337789
104.4,4.56479,0.957549,-0.0041688
104.8,4.60457,0.963212,-0.00416985
105.2,4.64338,0.960058,-0.00442158
105.6,4.68165,0.956613,-0.00548112
106,4.71827,0.963897,-0.00548012
106.4,4.75816,0.963123,-0.00413706
106.8,4.7984,0.96495,-0.00416994
107.2,4.83827,0.966109,-0.00418614
107.6,4.87865,0.967819,-0.00550913
108,4.91682,0.973452,-0.00549004
108.4,4.95628,0.961758,-0.00548534
108.8,4.99509,0.972438,-0.00410975
109.2,5.03373,0.975537,-0.00416954
109.6,5.07291,0.971812,-0.0044102
110,5.11161,0.972998,-0.00549531
110.4,5.14959,0.969409,-0.00549003
110.8,5.18853,0.976938,-0.00549
111.2,5.22852,0.973978,-0.00548931
111.6,5.26659,0.976951,-0.00411429
112,5.30611,0.978016,-0.00416969
112.4,5.34592,0.96837,-0.00416756
112.8,5.38532,0.965555,-0.0048844
113.2,5.42334,0.96293,-0.00549045
113.6,5.46325,0.9665,-0.00552061
114,5.50251,0.972913,-0.00413562
114.4,5.54076,0.975833,-0.00416993
114.8,5.5798,0.969978,-0.00417
115.2,5.61895,0.972466,-0.00417
115.6,5.65663,0.975096,-0.00416997
116,5.69626,0.973975,-0.00416704
116.4,5.7344,0.969828,-0.00546228
116.8,5.77307,0.973208,-0.00547947
117.2,5.81223,0.977522,-0.00539234
117.6,5.85172,0.979496,-0.00416709
118,5.89196,0.978924,-0.00416824
118.4,5.92895,0.979199,-0.00517169
118.8,5.96773,0.976755,-0.00548877
119.2,6.00545,0.977471,-0.00554296
119.6,6.04701,0.981759,-0.00515782
120,6.08554,0.985309,-0.0051448
120.4,6.12446,0.988292,-0.00450824
120.8,6.16325,0.985454,-0.00417019
121.2,6.20049,0.99217,-0.00547831
121.6,6.24,0.988306,-0.0054899
122,6.27852,0.988455,-0.00548974
122.4,6.31647,0.990391,-0.00544874
122.8,6.35438,0.992364,-0.00686972
123.2,6.39449,1.00132,-0.00549564
123.6,6.43466,0.989943,-0.00549003
124,6.47232,0.99601,-0.00549
124.4,6.51172,1.00002,-0.00548958
124.8,6.54979,0.99732,-0.00549617
125.2,6.58835,0.993721,-0.00417394
125.6,6.62858,0.993725,-0.00416999
126,6.66656,0.9899,-0.00417021
126.4,6.70528,1.00027,-0.00660362
126.8,6.74323,0.993968,-0.0068051
127.2,6.7821,0.997588,-0.0056563
127.6,6.82113,1.00136,-0.00550397
128,6.85894,1.00131,-0.00680787
128.4,6.89956,1.00465,-0.00680004
128.8,6.9369,1.00095,-0.0068003
129.2,6.97517,1.00757,-0.00685602
129.6,7.01297,1.006,-0.00549673
130,7.05297,1.01704,-0.00549011
130.4,7.0908,1.02193,-0.00549293
130.8,7.1305,1.0137,-0.006414
131.2,7.16899,1.02431,-0.00778674
131.6,7.20821,1.02565,-0.00778999
132,7.24671,1.022,-0.00779001
132.4,7.2848,1.03202,-0.00779176
132.8,7.32369,1.02671,-0.00732126
133.2,7.3614,1.03535,-0.00678524
133.6,7.40063,1.04135,-0.00640182
134,7.43979,1.04813,-0.00778928
134.4,7.47738,1.05809,-0.00778997
134.8,7.51665,1.05043,-0.00768882
135.2,7.55492,1.05675,-0.00646263
135.6,7.59364,1.06137,-0.00646996
136,7.63204,1.06273,-0.00646944
136.4,7.67098,1.06941,-0.00639684
136.8,7.70961,1.07193,-0.00778893
137.2,7.7497,1.07979,-0.00779009
137.6,7.78705,1.0839,-0.00802301
138,7.82543,1.09143,-0.00811947
138.4,7.86395,1.10352,-0.00812
138.8,7.90271,1.10779,-0.00812001
139.2,7.94126,1.12208,-0.00812141
139.6,7.97991,1.13378,-0.0080907
140,8.01904,1.14024,-0.00943729
140.4,8.05682,1.15041,-0.00944003
140.8,8.0962,1.1753,-0.0094482
141.2,8.13483,1.17293,-0.00814676
141.6,8.17278,1.1872,-0.0081201
142,8.21173,1.20082,-0.00812
142.4,8.25039,1.21087,-0.00811997
142.8,8.28839,1.23393,-0.00811789
143.2,8.32837,1.24667,-0.00940312
143.6,8.36678,1.261,-0.00943993
144,8.40406,1.27435,-0.00944
144.4,8.44341,1.29006,-0.00944
144.8,8.48268,1.30553,-0.00944031
145.2,8.52058,1.32486,-0.00945106
145.6,8.55931,1.3487,-0.00812002
146,8.59684,1.36822,-0.00811999
146.4,8.63715,1.39127,-0.00811826
146.8,8.67575,1.4054,-0.00890607
147.2,8.71389,1.42516,-0.00942483
147.6,8.75252,1.46,-0.0104034
148,8.79048,1.47522,-0.01042
148.4,8.82866,1.49393,-0.01042
148.8,8.86803,1.51909,-0.01042
149.2,8.9071,1.54994,-0.0104292
149.6,8.94663,1.5674,-0.0118141
150,8.98421,1.58661,-0.010434
150.4,9.02299,1.60742,-0.01043
150.8,9.06127,1.62855,-0.01043
151.2,9.09955,1.64505,-0.01043
151.6,9.13904,1.66138,-0.0104285
152,9.17851,1.67913,-0.0117815
152.4,9.21617,1.70105,-0.0117503
152.8,9.25452,1.70809,-0.01175
153.2,9.29251,1.72546,-0.01175
153.6,9.33103,1.73034,-0.0117512
154,9.36963,1.73513,-0.0107937
154.4,9.40843,1.73375,-0.0104383
154.8,9.4459,1.72361,-0.0118049
155.2,9.48331,1.71104,-0.0117503
155.6,9.52096,1.69036,-0.01175
156,9.5594,1.66517,-0.01175
156.4,9.59591,1.63892,-0.01175
156.8,9.63548,1.5966,-0.01175
157.2,9.67299,1.55427,-0.01175
157.6,9.71009,1.50826,-0.0117493
158,9.74812,1.46577,-0.0125908
158.4,9.78496,1.41973,-0.0130583
158.8,9.8231,1.37304,-0.0130597
159.2,9.86029,1.33005,-0.0130549
159.6,9.89872,1.2949,-0.012407
160,9.93647,1.25977,-0.0114893
160.4,9.97293,1.22924,-0.0110882
160.8,10.011,1.20322,-0.0111061
161.2,10.0506,1.18044,-0.0104281
161.6,10.0872,1.16714,-0.0104261
162,10.1251,1.15584,-0.0116901
162.4,10.1628,1.15185,-0.0117397
162.8,10.2018,1.13046,-0.01174
163.2,10.2388,1.12473,-0.01174
163.6,10.2776,1.12541,-0.0117398
164,10.3154,1.11407,-0.0116899
164.4,10.3526,1.11503,-0.0128814
164.8,10.391,1.1099,-0.0124004
165.2,10.4298,1.10547,-0.0124
165.6,10.4671,1.11005,-0.0124
166,10.5045,1.11093,-0.0124
166.4,10.544,1.10678,-0.0124001
166.8,10.5824,1.10426,-0.0124089
167.2,10.6184,1.10255,-0.0134541
167.6,10.6583,1.10324,-0.0130636
168,10.6972,1.1045,-0.01306
168.4,10.7344,1.1067,-0.0130601
168.8,10.7724,1.11593,-0.0130674
169.2,10.8088,1.1096,-0.0143388
169.6,10.8475,1.11387,-0.0143795
170,10.8869,1.11627,-0.01438
170.4,10.9256,1.11284,-0.0143802
170.8,10.963,1.11178,-0.0144118
171.2,11.0019,1.11214,-0.0129871
171.6,11.0377,1.11606,-0.0143531
172,11.0758,1.12157,-0.0130242
172.4,11.1137,1.11613,-0.0117702
172.8,11.1513,1.12083,-0.0117569
173.2,11.1897,1.12024,-0.0131125
173.6,11.23,1.12071,-0.0143697
174,11.2676,1.12223,-0.0140987
174.4,11.3048,1.12251,-0.013799
174.8,11.3444,1.12346,-0.0127374
175.2,11.3822,1.11931,-0.01274
175.6,11.421,1.12645,-0.01274
176,11.4602,1.13276,-0.0127418
176.4,11.4968,1.12645,-0.013979
176.8,11.535,1.13063,-0.015408
177.2,11.5734,1.12961,-0.0153602
177.6,11.6117,1.1352,-0.0153532
178,11.649,1.13241,-0.0140592
178.4,11.6881,1.13202,-0.0140501
178.8,11.7261,1.12756,-0.01405
179.2,11.7637,1.12457,-0.01405
179.6,11.8017,1.13261,-0.01405
180,11.8399,1.13064,-0.01405
180.4,11.8785,1.13038,-0.01405
180.8,11.9164,1.134,-0.0140504
181.2,11.9551,1.13295,-0.0142502
181.6,11.9922,1.13975,-0.0147116
182,12.0298,1.13919,-0.01471
182.4,12.0671,1.13894,-0.01471
182.8,12.1057,1.14036,-0.01471
183.2,12.1443,1.14142,-0.0147101
183.6,12.1826,1.14057,-0.0147179
184,12.2201,1.14436,-0.0153536
184.4,12.2582,1.14354,-0.01537
184.8,12.2963,1.14932,-0.01537
185.2,12.3348,1.15063,-0.0153737
185.6,12.3719,1.15503,-0.0167463
186,12.4104,1.15156,-0.0166815
186.4,12.4485,1.1515,-0.0180597
186.8,12.4867,1.15766,-0.0179978
187.2,12.5247,1.1563,-0.0175761
187.6,12.5627,1.15795,-0.0166892
188,12.6011,1.1545,-0.01669
188.4,12.6387,1.1573,-0.01669
188.8,12.6768,1.15159,-0.01669
189.2,12.7149,1.1598,-0.01669
189.6,12.753,1.15947,-0.0166899
190,12.7907,1.16137,-0.0166864
190.4,12.8291,1.15899,-0.0153757
190.8,12.867,1.15505,-0.0153698
191.2,12.905,1.1579,-0.0153059
191.6,12.9438,1.15892,-0.0166777
192,12.9819,1.15194,-0.01669
192.4,13.0183,1.15697,-0.01669
192.8,13.0577,1.16566,-0.01669
193.2,13.0958,1.16132,-0.0166825
193.6,13.1334,1.16806,-0.0179805
194,13.1715,1.16505,-0.0180099
194.4,13.2094,1.16548,-0.0180099
194.8,13.2478,1.16466,-0.0191635
195.2,13.2862,1.16434,-0.0193188
195.6,13.3231,1.1657,-0.01932
196,13.362,1.16515,-0.0193199
196.4,13.4,1.17038,-0.0193056
196.8,13.4379,1.16908,-0.0200188
197.2,13.475,1.17039,-0.0186682
197.6,13.5132,1.16849,-0.0193874
198,13.5511,1.16648,-0.0193203
198.4,13.5893,1.17712,-0.01932
198.8,13.6272,1.17233,-0.01932
199.2,13.6645,1.17067,-0.0193138
199.6,13.7021,1.17572,-0.0204536
200,13.7406,1.17905,-0.02063
200.4,13.7794,1.17485,-0.0206352
200.8,13.8176,1.17776,-0.0212891
201.2,13.8556,1.18211,-0.0212902
201.6,13.8934,1.18977,-0.02129
202,13.9315,1.17436,-0.02129
202.4,13.9679,1.18337,-0.02129
202.8,14.0066,1.18884,-0.02129
203.2,14.0447,1.1862,-0.0212871
203.6,14.0828,1.18771,-0.0219951
204,14.1201,1.18813,-0.0219505
204.4,14.1591,1.19,-0.02195
204.8,14.1943,1.18825,-0.0219519
205.2,14.2328,1.18846,-0.0231965
205.6,14.2728,1.18977,-0.0232693
206,14.3103,1.19707,-0.0232698
206.4,14.3467,1.19582,-0.0218942
206.8,14.3877,1.19737,-0.0219598
207.2,14.4246,1.19794,-0.0219822
207.6,14.4628,1.19216,-0.021295
208,14.5,1.19341,-0.0212966
208.4,14.5385,1.20254,-0.0227071
208.8,14.5765,1.20223,-0.0232707
209.2,14.6156,1.19943,-0.0232698
209.6,14.6533,1.20691,-0.0232406
210,14.6913,1.20738,-0.0245768
210.4,14.7281,1.20774,-0.0253516
210.8,14.7673,1.20352,-0.0258937
211.2,14.8053,1.21014,-0.0252109
211.6,14.8432,1.20698,-0.0252399
212,14.8804,1.20933,-0.02524
212.4,14.9193,1.21183,-0.02524
212.8,14.957,1.20989,-0.02524
213.2,14.9936,1.21906,-0.0252575
213.6,15.0333,1.21312,-0.0265667
214,15.0723,1.21933,-0.0266992
214.4,15.1066,1.21318,-0.0272217
214.8,15.1472,1.21378,-0.027203
215.2,15.1857,1.22225,-0.0281923
215.6,15.2236,1.22464,-0.0282099
216,15.2623,1.21793,-0.02821
216.4,15.2999,1.2202,-0.02821
216.8,15.3373,1.2273,-0.0282107
217.2,15.3761,1.22697,-0.0286918
217.6,15.4133,1.22935,-0.0288692
218,15.4525,1.22571,-0.02887
218.4,15.4895,1.23353,-0.02887
218.8,15.5283,1.23306,-0.02887
219.2,15.5666,1.23155,-0.02887
219.6,15.6045,1.23175,-0.0288742
220,15.6421,1.23136,-0.0281631
220.4,15.6795,1.23265,-0.0282073
220.8,15.7186,1.2351,-0.0289717
221.2,15.7572,1.23795,-0.0295054
221.6,15.7949,1.24286,-0.0308238
222,15.8329,1.23858,-0.0308417
222.4,15.8712,1.24018,-0.0294869
222.8,15.909,1.24632,-0.0288797
223.2,15.9466,1.23889,-0.0288822
223.6,15.9856,1.24853,-0.0302395
224,16.0226,1.24565,-0.0307971
224.4,16.0613,1.24807,-0.0314787
224.8,16.0989,1.25655,-0.0328195
225.2,16.1375,1.25795,-0.03282
225.6,16.1747,1.25293,-0.03282
226,16.2131,1.2538,-0.0328197
226.4,16.2509,1.25642,-0.0328055
226.8,16.2869,1.26057,-0.0341448
227.2,16.3268,1.26101,-0.03414
227.6,16.3646,1.2569,-0.03414
228,16.4009,1.25388,-0.03414
228.4,16.442,1.25399,-0.0341401
228.8,16.4804,1.25746,-0.034144
229.2,16.5177,1.25605,-0.0354232
229.6,16.5562,1.25906,-0.0354595
230,16.5942,1.26464,-0.0354565
230.4,16.6317,1.25991,-0.0356166
230.8,16.6701,1.26523,-0.0351313
231.2,16.7071,1.26787,-0.0351301
231.6,16.746,1.26861,-0.0355668
232,16.7839,1.26472,-0.0364542
232.4,16.8215,1.26761,-0.03645
232.8,16.8598,1.26675,-0.0364498
233.2,16.8977,1.26805,-0.0367938
233.6,16.9362,1.26983,-0.0367801
234,16.9721,1.27193,-0.0367769
234.4,17.0122,1.2658,-0.0379269
234.8,17.0499,1.26576,-0.0381
235.2,17.0884,1.27126,-0.0381009
235.6,17.126,1.27183,-0.0386129
236,17.1643,1.27126,-0.0394232
236.4,17.2021,1.27194,-0.0407713
236.8,17.2389,1.27414,-0.0407198
237.2,17.2782,1.27435,-0.04072
237.6,17.317,1.27555,-0.04072
238,17.3545,1.27602,-0.04072
238.4,17.3926,1.27406,-0.04072
238.8,17.431,1.2753,-0.04072
239.2,17.4678,1.27572,-0.04072
239.6,17.5068,1.27856,-0.0407127
240,17.5452,1.27849,-0.0420169
240.4,17.5828,1.27621,-0.0422545
240.8,17.6204,1.2849,-0.0433603
241.2,17.6586,1.28652,-0.04336
241.6,17.6966,1.28186,-0.0433593
242,17.7345,1.28036,-0.044662
242.4,17.7725,1.28494,-0.0448764
242.8,17.809,1.28837,-0.0460004
243.2,17.8485,1.28566,-0.046
243.6,17.8867,1.2869,-0.0459995
244,17.9243,1.29301,-0.0467873
244.4,17.9626,1.29072,-0.0473085
244.8,18.0016,1.29287,-0.04731
245.2,18.039,1.29282,-0.04731
245.6,18.0777,1.29231,-0.0473041
246,18.1149,1.28866,-0.0485709
246.4,18.1534,1.29431,-0.0486306
246.8,18.1913,1.29888,-0.0486802
247.2,18.23,1.29899,-0.0499499
247.6,18.2673,1.30624,-0.0499523
248,18.3054,1.29752,-0.0512922
248.4,18.3424,1.30694,-0.0512703
248.8,18.3808,1.30804,-0.05127
249.2,18.419,1.3043,-0.0512715
249.6,18.4571,1.30356,-0.0526511
250,18.4955,1.30459,-0.0525815
250.4,18.5343,1.30163,-0.0538439
250.8,18.5713,1.30894,-0.0539892
251.2,18.6097,1.30247,-0.055224
251.6,18.6455,1.31426,-0.0565411
252,18.6856,1.31718,-0.05654
252.4,18.7236,1.31731,-0.05654
252.8,18.7607,1.31259,-0.05654
253.2,18.7966,1.32004,-0.056564
253.6,18.8365,1.31921,-0.0578866
254,18.8751,1.32019,-0.0578603
254.4,18.9129,1.31972,-0.0578709
254.8,18.9511,1.32199,-0.0591911
255.2,18.9885,1.32284,-0.0591699
255.6,19.0275,1.32822,-0.0591972
256,19.0655,1.32791,-0.0614182
256.4,19.1039,1.32614,-0.0614874
256.8,19.1417,1.33046,-0.0618031
257.2,19.1789,1.33865,-0.0617448
257.6,19.2159,1.3329,-0.0631287
258,19.256,1.33362,-0.0631301
258.4,19.2939,1.33601,-0.0631538
258.8,19.333,1.32979,-0.0644588
259.2,19.3704,1.33242,-0.0644517
259.6,19.4084,1.33142,-0.0657571
260,19.4462,1.32984,-0.0657018
260.4,19.4843,1.34009,-0.0670651
260.8,19.5221,1.3392,-0.0670808
261.2,19.5601,1.33131,-0.067086
261.6,19.598,1.3325,-0.0683995
262,19.636,1.33405,-0.0683908
262.4,19.675,1.33488,-0.0696876
262.8,19.7125,1.33723,-0.0697101
263.2,19.7507,1.34091,-0.0697099
263.6,19.7886,1.34042,-0.0699459
264,19.8275,1.33742,-0.0716978
264.4,19.8655,1.34101,-0.072948
264.8,19.9027,1.34327,-0.0729718
265.2,19.9404,1.3395,-0.0749626
265.6,19.979,1.34321,-0.0749761
266,20.0173,1.33629,-0.0762657
266.4,20.0548,1.34541,-0.0762862
266.8,20.0929,1.34682,-0.0771812
267.2,20.1319,1.33813,-0.077609
267.6,20.1695,1.35337,-0.07761
268,20.2072,1.34929,-0.0777562
268.4,20.2457,1.35164,-0.0789539
268.8,20.2834,1.34965,-0.0815776
269.2,20.3224,1.35115,-0.0815697
269.6,20.36,1.35895,-0.08157
270,20.3989,1.35351,-0.0828741
270.4,20.4371,1.35807,-0.0828807
270.8,20.4752,1.35974,-0.0831455
271.2,20.5127,1.35616,-0.0841693
271.6,20.5513,1.3579,-0.085508
272,20.5897,1.3636,-0.0868477
272.4,20.6274,1.36785,-0.0882177
272.8,20.6663,1.36416,-0.0895674
273.2,20.7035,1.3645,-0.0905349
273.6,20.7427,1.36606,-0.0908495
274,20.781,1.36205,-0.0922181
274.4,20.8189,1.36756,-0.0931053
274.8,20.858,1.3664,-0.0935314
275.2,20.8958,1.36869,-0.0940807
275.6,20.9348,1.38216,-0.0949142
276,20.9719,1.37749,-0.0975061
276.4,21.0098,1.3784,-0.0988006
276.8,21.0491,1.3792,-0.100131
277.2,21.0868,1.37659,-0.101517
277.6,21.1246,1.37771,-0.101346
278,21.1633,1.3766,-0.102798
278.4,21.2018,1.3783,-0.104183
278.8,21.2394,1.38149,-0.10551
279.2,21.2778,1.38102,-0.105501
279.6,21.3159,1.38185,-0.105828
280,21.3527,1.3863,-0.106503
280.4,21.393,1.38777,-0.10787
280.8,21.4317,1.39028,-0.109202
281.2,21.4699,1.39802,-0.111422
281.6,21.508,1.39465,-0.11166
282,21.546,1.39711,-0.113079
282.4,21.5845,1.39477,-0.113059
282.8,21.6225,1.40185,-0.114069
283.2,21.6623,1.40234,-0.115396
283.6,21.6999,1.40036,-0.116694
284,21.7379,1.40615,-0.117483
284.4,21.7751,1.40904,-0.118064
284.8,21.8144,1.40636,-0.11988
285.2,21.8522,1.40703,-0.120947
285.6,21.8906,1.40602,-0.122933
286,21.9302,1.406,-0.124382
286.4,21.9675,1.41111,-0.125667
286.8,22.0058,1.41306,-0.12569
287.2,22.0438,1.41752,-0.127138
287.6,22.0812,1.41429,-0.128592
288,22.1197,1.42012,-0.129978
288.4,22.1584,1.41328,-0.131318
288.8,22.1963,1.42674,-0.132127
289.2,22.2352,1.41896,-0.133344
289.6,22.2738,1.41938,-0.133422
290,22.3119,1.41971,-0.134894
290.4,22.3503,1.42239,-0.136254
290.8,22.3884,1.4272,-0.137576
291.2,22.4263,1.42739,-0.138883
291.6,22.4645,1.43057,-0.140289
292,22.5037,1.42994,-0.142264
292.4,22.5405,1.43316,-0.143483
292.8,22.5803,1.43082,-0.144804
293.2,22.617,1.43808,-0.146618
293.6,22.6557,1.43351,-0.14812
294,22.6939,1.4404,-0.149989
294.4,22.7323,1.43838,-0.151288
294.8,22.7715,1.44292,-0.152794
295.2,22.8089,1.43957,-0.153963
295.6,22.8466,1.43887,-0.156197
296,22.8857,1.44412,-0.156951
296.4,22.9231,1.44037,-0.157254
296.8,22.9618,1.44726,-0.158656
297.2,22.9993,1.44185,-0.161083
297.6,23.0386,1.45114,-0.161814
298,23.0762,1.45928,-0.163371
298.4,23.1151,1.45376,-0.164845
298.8,23.1527,1.45882,-0.165998
299.2,23.1908,1.45856,-0.168049
299.6,23.2287,1.46415,-0.170241
300,23.2689,1.46393,-0.173048
300.4,23.3066,1.47259,-0.17438
300.8,23.3448,1.48383,-0.175872
301.2,23.3832,1.48092,-0.177344
301.6,23.4214,1.4841,-0.178872
302,23.4594,1.47958,-0.181409
302.4,23.4975,1.48921,-0.183481
302.8,23.5363,1.49442,-0.184963
303.2,23.575,1.49893,-0.186644
303.6,23.6126,1.50552,-0.188168
304,23.6505,1.50393,-0.190411
304.4,23.69,1.51269,-0.19266
304.8,23.7268,1.5132,-0.19422
305.2,23.766,1.51736,-0.197048
305.6,23.8041,1.52283,-0.198851
306,23.8431,1.52753,-0.2001
306.4,23.8817,1.5378,-0.202155
306.8,23.9202,1.54764,-0.205857
307.2,23.9588,1.55899,-0.207374
307.6,23.9975,1.55765,-0.209928
308,24.0347,1.56984,-0.212094
308.4,24.0734,1.57369,-0.213889
308.8,24.1122,1.58275,-0.217166
309.2,24.1508,1.58401,-0.218697
309.6,24.1888,1.60254,-0.22151
310,24.2272,1.60984,-0.223707
310.4,24.266,1.61228,-0.225881
310.8,24.3046,1.6172,-0.227963
311.2,24.3431,1.62679,-0.229898
311.6,24.3818,1.6327,-0.232809
312,24.4193,1.64203,-0.234901
312.4,24.4587,1.64557,-0.238317
312.8,24.4963,1.65561,-0.24059
313.2,24.535,1.65429,-0.243936
313.6,24.5738,1.65084,-0.245763
314,24.6117,1.6302,-0.249358
314.4,24.6481,1.59957,-0.252558
314.8,24.6878,1.54222,-0.257473
315.2,24.7262,1.50323,-0.259429
315.6,24.7639,1.47145,-0.261917
316,24.8016,1.44599,-0.264274
316.4,24.8384,1.42239,-0.267207
316.8,24.8787,1.41553,-0.270598
317.2,24.9156,1.40482,-0.274082
317.6,24.9545,1.39555,-0.277641
318,24.9928,1.38845,-0.28032
318.4,25.0314,1.38418,-0.284071
318.8,25.071,1.38219,-0.287518
319.2,25.1084,1.38131,-0.291358
319.6,25.1466,1.37605,-0.295656
320,25.1854,1.37263,-0.29937
320.4,25.2233,1.3757,-0.302519
320.8,25.2615,1.37501,-0.306164
321.2,25.3006,1.36754,-0.310634
321.6,25.3389,1.37301,-0.315206
322,25.3774,1.36617,-0.320625
322.4,25.4155,1.37373,-0.324599
322.8,25.454,1.37023,-0.328344
323.2,25.4921,1.37009,-0.333528
323.6,25.5307,1.37414,-0.337796
324,25.5687,1.3759,-0.341933
324.4,25.6086,1.37668,-0.347179
324.8,25.6461,1.37388,-0.352223
325.2,25.6853,1.37501,-0.357012
325.6,25.7244,1.37969,-0.36212
326,25.7618,1.37726,-0.366874
326.4,25.8006,1.37789,-0.37215
326.8,25.8376,1.3732,-0.377347
327.2,25.878,1.36328,-0.383071
327.6,25.9157,1.36423,-0.387341
328,25.9543,1.3646,-0.392917
328.4,25.993,1.36639,-0.398904
328.8,26.0316,1.36079,-0.405202
329.2,26.0702,1.36487,-0.410298
329.6,26.1078,1.35348,-0.416931
330,26.1465,1.35471,-0.422666
330.4,26.185,1.35223,-0.428885
330.8,26.2242,1.34556,-0.435087
331.2,26.2616,1.34506,-0.441072
331.6,26.3012,1.34133,-0.447069
332,26.3396,1.34294,-0.45368
332.4,26.378,1.33422,-0.461257
332.8,26.4167,1.34085,-0.466675
333.2,26.4557,1.34514,-0.474057
333.6,26.4931,1.33846,-0.480337
334,26.5322,1.33915,-0.489111
334.4,26.5709,1.33239,-0.495546
334.8,26.6092,1.32236,-0.503427
335.2,26.647,1.32407,-0.510296
335.6,26.6856,1.32642,-0.517215
336,26.7246,1.31976,-0.525107
336.4,26.7634,1.31278,-0.533313
336.8,26.801,1.31295,-0.54197
337.2,26.8404,1.319,-0.550542
337.6,26.8788,1.30373,-0.558985
338,26.9165,1.29966,-0.568035
338.4,26.9558,1.298,-0.577866
338.8,26.9938,1.29532,-0.587778
339.2,27.0323,1.28922,-0.596736
339.6,27.0711,1.29135,-0.606853
340,27.1087,1.27823,-0.617503
340.4,27.1456,1.2713,-0.628121
340.8,27.1861,1.26788,-0.640533
341.2,27.2243,1.25977,-0.651887
341.6,27.2631,1.25711,-0.662773
342,27.3021,1.24569,-0.674968
342.4,27.3398,1.23905,-0.687413
342.8,27.3778,1.23072,-0.700539
343.2,27.4161,1.22696,-0.713287
343.6,27.4551,1.21732,-0.727386
344,27.493,1.20692,-0.740487
344.4,27.5319,1.19633,-0.753403
344.8,27.5682,1.19996,-0.764979
345.2,27.6086,1.19403,-0.780898
345.6,27.6478,1.19105,-0.797209
346,27.6841,1.18556,-0.810956
346.4,27.724,1.1794,-0.827475
346.8,27.7623,1.18648,-0.841617
347.2,27.8019,1.18461,-0.858687
347.6,27.8368,1.17917,-0.872873
348,27.8775,1.17616,-0.890653
348.4,27.9168,1.18462,-0.906568
348.8,27.9528,1.17553,-0.921865
349.2,27.9914,1.17266,-0.93832
349.6,28.0318,1.17899,-0.955918
350,28.0701,1.18485,-0.972503
350.4,28.1085,1.18024,-0.98928
350.8,28.1477,1.1849,-1.00587
351.2,28.1857,1.18393,-1.02061
351.6,28.2242,1.18731,-1.0353
352,28.2629,1.19248,-1.05403
352.4,28.3009,1.18202,-1.0697
352.8,28.3401,1.18578,-1.08644
353.2,28.3778,1.18124,-1.1017
353.6,28.4166,1.18566,-1.11684
354,28.4552,1.18177,-1.13077
354.4,28.4946,1.17718,-1.14663
354.8,28.5333,1.1817,-1.16042
355.2,28.5708,1.17086,-1.17277
355.6,28.6099,1.16801,-1.18803
356,28.6488,1.16955,-1.20178
356.4,28.6856,1.16649,-1.21447
356.8,28.7239,1.17509,-1.22752
357.2,28.7638,1.16964,-1.2401
357.6,28.8025,1.17919,-1.25169
358,28.8402,1.17504,-1.26379
358.4,28.8791,1.16544,-1.27595
358.8,28.9178,1.17035,-1.28691
359.2,28.9564,1.1675,-1.29696
359.6,28.9951,1.16808,-1.30769
360,29.0332,1.17072,-1.31876
360.4,29.0716,1.17179,-1.32946
360.8,29.1115,1.17322,-1.34145
361.2,29.1499,1.17199,-1.35217
361.6,29.1883,1.17045,-1.36305
362,29.2268,1.16207,-1.37274
362.4,29.2659,1.16923,-1.3824
362.8,29.3045,1.16227,-1.39134
363.2,29.3428,1.16521,-1.40074
363.6,29.3816,1.16553,-1.40982
364,29.4186,1.16306,-1.4188
364.4,29.4566,1.16278,-1.42767
364.8,29.497,1.15833,-1.43668
365.2,29.5346,1.15847,-1.44471
365.6,29.572,1.16129,-1.45344
366,29.6114,1.15988,-1.46231
366.4,29.6498,1.15589,-1.46909
366.8,29.6897,1.15764,-1.47718
367.2,29.7285,1.16108,-1.48462
367.6,29.7666,1.16227,-1.49268
368,29.8046,1.15379,-1.50066
368.4,29.8449,1.15199,-1.50905
368.8,29.8833,1.15064,-1.51679
369.2,29.9208,1.1406,-1.52368
369.6,29.9602,1.1433,-1.53141
370,29.9991,1.1431,-1.53872
370.4,30.0352,1.13908,-1.54511
370.8,30.0761,1.13488,-1.55211
371.2,30.1144,1.12903,-1.55893
371.6,30.1533,1.12411,-1.56594
372,30.1926,1.12868,-1.57299
372.4,30.2309,1.1253,-1.5784
372.8,30.2699,1.1222,-1.58481
373.2,30.3088,1.11835,-1.59093
373.6,30.3477,1.11721,-1.59801
374,30.3867,1.11149,-1.60483
374.4,30.4227,1.11179,-1.60976
374.8,30.4644,1.1065,-1.61576
375.2,30.5035,1.10675,-1.62177
375.6,30.544,1.10433,-1.62831
376,30.5809,1.10159,-1.63429
376.4,30.6201,1.09796,-1.63983
376.8,30.6593,1.08491,-1.6462
377.2,30.6973,1.09423,-1.65216
377.6,30.7362,1.0869,-1.65744
378,30.7751,1.08531,-1.66342
378.4,30.815,1.08448,-1.6681
378.8,30.8533,1.07853,-1.6726
379.2,30.8916,1.08362,-1.67856
379.6,30.9307,1.07337,-1.68342
380,30.9691,1.07209,-1.68977
380.4,31.0069,1.06324,-1.69475
380.8,31.0453,1.06858,-1.70039
381.2,31.0839,1.06406,-1.70513
381.6,31.1232,1.06156,-1.7105
382,31.162,1.0602,-1.71524
382.4,31.2006,1.06291,-1.72117
382.8,31.2408,1.05914,-1.7261
383.2,31.2793,1.04561,-1.73041
383.6,31.3168,1.05244,-1.73575
384,31.3557,1.04672,-1.74014
384.4,31.3951,1.04466,-1.74605
384.8,31.4342,1.04217,-1.7512
385.2,31.4721,1.04117,-1.7552
385.6,31.5111,1.0389,-1.76093
386,31.5502,1.04061,-1.76643
386.4,31.5885,1.03672,-1.77099
386.8,31.6277,1.03776,-1.77574
387.2,31.6666,1.04154,-1.7787
387.6,31.7067,1.04201,-1.78461
388,31.7453,1.03611,-1.79045
388.4,31.7844,1.03383,-1.79454
388.8,31.823,1.02964,-1.79912
389.2,31.8628,1.03154,-1.8054
389.6,31.9017,1.02257,-1.80862
390,31.9404,1.02308,-1.8129
390.4,31.9794,1.02589,-1.81775
390.8,32.0173,1.02446,-1.82262
391.2,32.0572,1.0217,-1.82758
391.6,32.0952,1.01785,-1.83382
392,32.1351,1.0178,-1.83935
392.4,32.174,1.01784,-1.84306
392.8,32.2134,1.01515,-1.84659
393.2,32.252,1.01686,-1.85024
393.6,32.2906,1.01324,-1.85607
394,32.3288,1.00629,-1.86015
394.4,32.3681,1.01028,-1.86541
394.8,32.4074,1.01033,-1.87071
395.2,32.4463,1.00876,-1.8744
395.6,32.4856,1.00964,-1.8791
396,32.5244,1.00858,-1.88188
396.4,32.5635,1.00689,-1.88662
396.8,32.6003,1.00908,-1.89116
397.2,32.6411,1.01095,-1.89624
397.6,32.6802,1.01014,-1.9008
398,32.7189,1.00129,-1.90552
398.4,32.7571,1.00477,-1.91008
398.8,32.7973,1.004,-1.91486
399.2,32.8356,1.007,-1.91907
399.6,32.8746,1.00657,-1.92386
400,32.9134,1.00597,-1.92821
400.4,32.9522,1.00561,-1.93271
400.8,32.9917,1.00127,-1.93655
401.2,33.0313,1.00569,-1.94099
401.6,33.0695,1.00786,-1.94561
402,33.1086,1.00416,-1.95029
402.4,33.1479,1.00346,-1.95469
402.8,33.1865,1.00577,-1.95913
403.2,33.2262,1.01092,-1.96368
403.6,33.2646,1.00916,-1.96753
404,33.304,1.00816,-1.97197
404.4,33.3422,1.00937,-1.9759
404.8,33.3815,1.01668,-1.98053
405.2,33.421,1.0151,-1.9844
405.6,33.4593,1.01421,-1.98796
406,33.4992,1.00864,-1.99344
406.4,33.5376,1.01149,-1.99758
406.8,33.5766,1.01786,-2.0006
407.2,33.6157,1.02101,-2.00472
407.6,33.6543,1.01972,-2.00895
408,33.6927,1.01859,-2.01458
408.4,33.7332,1.02786,-2.0186
408.8,33.7709,1.02057,-2.02154
409.2,33.8099,1.02808,-2.02581
409.6,33.8492,1.027,-2.02961
410,33.8883,1.02618,-2.03494
410.4,33.9278,1.01815,-2.04061
410.8,33.9662,1.03175,-2.04435
411.2,34.0048,1.02653,-2.04859
411.6,34.044,1.03038,-2.05407
412,34.0837,1.03113,-2.0583
412.4,34.1222,1.02589,-2.06215
412.8,34.1614,1.02893,-2.06645
413.2,34.2013,1.03422,-2.07086
413.6,34.2401,1.03855,-2.07458
414,34.2771,1.04056,-2.07818
414.4,34.3178,1.03986,-2.08366
414.8,34.357,1.03483,-2.08752
415.2,34.3948,1.03728,-2.09196
415.6,34.4346,1.04109,-2.09591
416,34.475,1.0438,-2.10031
416.4,34.5139,1.03747,-2.10457
416.8,34.5526,1.0434,-2.10921
417.2,34.5922,1.03965,-2.11387
417.6,34.6301,1.04552,-2.11817
418,34.6695,1.04765,-2.12075
418.4,34.709,1.05471,-2.12578
418.8,34.7485,1.05176,-2.13083
419.2,34.7879,1.05875,-2.13549
419.6,34.827,1.06229,-2.14161
420,34.8662,1.06533,-2.14617
420.4,34.9045,1.05825,-2.15078
420.8,34.9437,1.06555,-2.15438
421.2,34.9829,1.06366,-2.15809
421.6,35.0218,1.07104,-2.16343
422,35.0615,1.06677,-2.1674
422.4,35.1003,1.06886,-2.17197
422.8,35.1395,1.07183,-2.17617
423.2,35.1789,1.07303,-2.18317
423.6,35.2181,1.07666,-2.18722
424,35.2571,1.07551,-2.19227
424.4,35.2968,1.08374,-2.1951
424.8,35.3355,1.08314,-2.19981
425.2,35.3747,1.07693,-2.20525
425.6,35.4145,1.07946,-2.21018
426,35.4529,1.09155,-2.21446
426.4,35.4932,1.0894,-2.21967
426.8,35.5324,1.09052,-2.22451
427.2,35.5699,1.0994,-2.22922
427.6,35.6104,1.09505,-2.23434
428,35.6495,1.10362,-2.23897
428.4,35.689,1.10044,-2.24363
428.8,35.7272,1.11073,-2.24781
429.2,35.7678,1.11501,-2.25338
429.6,35.8055,1.11428,-2.25756
430,35.8456,1.12504,-2.26376
430.4,35.8851,1.12928,-2.26881
430.8,35.9235,1.13117,-2.27494
431.2,35.9629,1.13358,-2.28003
431.6,36.0025,1.1375,-2.28542
432,36.0411,1.14091,-2.29061
432.4,36.0813,1.14814,-2.29504
432.8,36.1207,1.14744,-2.30092
433.2,36.16,1.15875,-2.30709
433.6,36.1991,1.15337,-2.31162
434,36.2379,1.16559,-2.31721
434.4,36.2781,1.17283,-2.32167
434.8,36.315,1.18323,-2.32708
435.2,36.3554,1.18122,-2.33286
435.6,36.3941,1.18003,-2.33785
436,36.4337,1.19241,-2.34425
436.4,36.474,1.19334,-2.35142
436.8,36.5125,1.20514,-2.35859
437.2,36.5525,1.21925,-2.36381
437.6,36.5923,1.22191,-2.36972
438,36.6302,1.22149,-2.37497
438.4,36.6682,1.22927,-2.38084
438.8,36.7091,1.23575,-2.38744
439.2,36.7479,1.23387,-2.39173
439.6,36.7881,1.23953,-2.39879
440,36.827,1.24501,-2.40452
440.4,36.8664,1.25781,-2.41176
440.8,36.9059,1.26424,-2.41869
441.2,36.9451,1.26722,-2.42631
441.6,36.9844,1.27506,-2.43375
442,37.0229,1.27805,-2.43979
442.4,37.0632,1.27912,-2.44553
442.8,37.1027,1.28369,-2.45244
443.2,37.1393,1.28473,-2.45892
443.6,37.1816,1.29058,-2.4663
444,37.2198,1.30264,-2.47305
444.4,37.2593,1.30037,-2.48018
444.8,37.2984,1.30438,-2.48741
445.2,37.3374,1.3116,-2.49547
445.6,37.377,1.31636,-2.50249
446,37.4147,1.3178,-2.50977
446.4,37.4551,1.32346,-2.51772
446.8,37.4937,1.33486,-2.52503
447.2,37.5342,1.33809,-2.53308
447.6,37.5729,1.33976,-2.53984
448,37.6118,1.34634,-2.54887
448.4,37.6512,1.35031,-2.55705
448.8,37.6904,1.35701,-2.56348
449.2,37.7301,1.3546,-2.57137
449.6,37.7686,1.36979,-2.58111
450,37.808,1.37684,-2.58932
450.4,37.8471,1.3741,-2.59655
450.8,37.8865,1.38844,-2.60569
451.2,37.9265,1.38139,-2.61468
451.6,37.966,1.38858,-2.62383
452,38.0046,1.39438,-2.63217
452.4,38.0447,1.38826,-2.64133
452.8,38.0829,1.40035,-2.64958
453.2,38.1233,1.40762,-2.65714
453.6,38.1604,1.40545,-2.66562
454,38.2013,1.41018,-2.67473
454.4,38.2412,1.41558,-2.68435
454.8,38.2801,1.41612,-2.69313
455.2,38.32,1.42204,-2.70525
455.6,38.3581,1.41903,-2.7145
456,38.3984,1.4255,-2.72434
456.4,38.4378,1.42857,-2.73341
456.8,38.4776,1.42614,-2.74355
457.2,38.5167,1.42917,-2.75278
457.6,38.5557,1.42954,-2.76268
458,38.5964,1.43184,-2.77199
458.4,38.6343,1.43044,-2.78179
458.8,38.6742,1.42604,-2.7923
459.2,38.7129,1.43124,-2.8024
459.6,38.7535,1.42372,-2.81211
460,38.7926,1.42858,-2.82212
460.4,38.8329,1.42522,-2.8326
460.8,38.8716,1.41665,-2.84294
461.2,38.9096,1.41759,-2.85261
461.6,38.9498,1.41127,-2.86341
462,38.9898,1.41038,-2.87484
462.4,39.0285,1.41407,-2.88579
462.8,39.0681,1.40487,-2.89564
463.2,39.1071,1.40099,-2.90732
463.6,39.1469,1.39357,-2.91823
464,39.1866,1.38965,-2.92805
464.4,39.2264,1.38547,-2.93935
464.8,39.2649,1.37462,-2.95001
465.2,39.3042,1.36487,-2.961
465.6,39.3434,1.36181,-2.97265
466,39.383,1.35105,-2.98418
466.4,39.4227,1.3356,-2.99398
466.8,39.4626,1.33792,-3.00445
467.2,39.5011,1.3118,-3.01514
467.6,39.5406,1.308,-3.02567
468,39.5791,1.29438,-3.03688
468.4,39.6189,1.28154,-3.04695
468.8,39.6575,1.26636,-3.05794
469.2,39.6977,1.25984,-3.06957
469.6,39.7361,1.23302,-3.07998
470,39.7758,1.21683,-3.09041
470.4,39.8146,1.20439,-3.10096
470.8,39.8536,1.17707,-3.11111
471.2,39.8937,1.16065,-3.121
471.6,39.9326,1.14711,-3.13085
472,39.9711,1.12184,-3.1412
472.4,40.0104,1.09594,-3.15122
472.8,40.05,1.08279,-3.16152
473.2,40.0881,1.05783,-3.17081
473.6,40.1279,1.0325,-3.18143
474,40.1682,1.01963,-3.19051
474.4,40.2064,1.00044,-3.1995
474.8,40.2451,0.971192,-3.20984
475.2,40.285,0.942182,-3.21842
475.6,40.3237,0.920262,-3.22761
476,40.3634,0.890535,-3.23591
476.4,40.4022,0.863631,-3.24369
476.8,40.4408,0.838572,-3.25363
477.2,40.4813,0.807017,-3.26236
477.6,40.5195,0.788611,-3.27001
478,40.5576,0.762174,-3.27865
478.4,40.5974,0.736295,-3.28585
478.8,40.6366,0.702581,-3.29349
479.2,40.6759,0.682813,-3.30142
479.6,40.7142,0.651857,-3.30899
480,40.7536,0.627756,-3.31542
480.4,40.7934,0.58699,-3.32334
480.8,40.8322,0.56578,-3.32869
481.2,40.8705,0.546427,-3.33537
481.6,40.91,0.504691,-3.34146
482,40.9495,0.483879,-3.34756
482.4,40.9879,0.454238,-3.35267
482.8,41.0268,0.418497,-3.35705
483.2,41.0653,0.400865,-3.36265
483.6,41.1044,0.366229,-3.36671
484,41.1436,0.341355,-3.37121
484.4,41.1831,0.31453,-3.376
484.8,41.2222,0.291117,-3.38091
485.2,41.2597,0.269961,-3.38268
485.6,41.2985,0.241497,-3.386
486,41.3379,0.22478,-3.38956
486.4,41.3776,0.206782,-3.39309
486.8,41.4162,0.179748,-3.39483
487.2,41.455,0.162217,-3.39734
487.6,41.4947,0.147781,-3.40009
488,41.5337,0.129685,-3.40276
488.4,41.5727,0.115757,-3.40455
488.8,41.6122,0.102582,-3.4073
489.2,41.6513,0.0890647,-3.40889
489.6,41.6889,0.0717991,-3.40882
490,41.7314,0.0663841,-3.41256
490.4,41.7708,0.0550698,-3.41271
490.8,41.8097,0.0414611,-3.41404
491.2,41.8484,0.027301,-3.41559
491.6,41.8878,0.0231142,-3.41799
492,41.9276,0.0196015,-3.41952
492.4,41.9662,0.017747,-3.42086
492.8,42.0062,0.00372209,-3.42191
493.2,42.0452,0.00107431,-3.4239
493.6,42.0854,-0.00737354,-3.42516
494,42.1243,-0.0191022,-3.42511
494.4,42.1644,-0.0161771,-3.42666
494.8,42.203,-0.0205174,-3.42793
495.2,42.2428,-0.0237079,-3.42785
495.6,42.2825,-0.0292673,-3.42785
496,42.3218,-0.0305338,-3.42785
496.4,42.3612,-0.0349684,-3.42893
496.8,42.4013,-0.0380971,-3.42917
497.2,42.4404,-0.0457958,-3.42917
497.6,42.48,-0.0427244,-3.43049
498,42.5193,-0.0376023,-3.43049
498.4,42.5592,-0.0334577,-3.43116
498.8,42.5984,-0.0392215,-3.43016
499.2,42.6379,-0.0406251,-3.43086
499.6,42.6776,-0.0397886,-3.43157
500,42.7165,-0.0462025,-3.43214
500.4,42.7556,-0.0398162,-3.43214
500.8,42.7963,-0.0373389,-3.43416
501.2,42.835,-0.0420253,-3.43477
501.6,42.8747,-0.0373206,-3.43477
502,42.9154,-0.0324399,-3.43478
502.4,42.9539,-0.0361658,-3.43346
502.8,42.9929,-0.0352615,-3.4328
503.2,43.0324,-0.0350624,-3.4328
503.6,43.073,-0.030387,-3.43275
504,43.1118,-0.0311448,-3.43412
504.4,43.1505,-0.0255842,-3.43412
504.8,43.1903,-0.0259375,-3.43412
505.2,43.2301,-0.0347127,-3.43412
505.6,43.2698,-0.0295627,-3.43544
506,43.3095,-0.0355459,-3.43544
506.4,43.3489,-0.0337156,-3.43633
506.8,43.3896,-0.0327616,-3.43676
507.2,43.4283,-0.0354434,-3.43676
507.6,43.468,-0.0290249,-3.43676
508,43.5073,-0.0396339,-3.43676
508.4,43.5464,-0.0371542,-3.43676
508.8,43.5864,-0.038095,-3.43676
509.2,43.627,-0.0295112,-3.43676
509.6,43.665,-0.035707,-3.43676
510,43.705,-0.0379786,-3.43676
510.4,43.7449,-0.0384075,-3.43666
510.8,43.7848,-0.0323565,-3.43807
511.2,43.8238,-0.041714,-3.43807
511.6,43.8643,-0.0420245,-3.43807
512,43.9029,-0.0397926,-3.43807
512.4,43.9428,-0.0452608,-3.43807
512.8,43.9824,-0.0489252,-3.43807
513.2,44.0221,-0.044699,-3.43807
513.6,44.062,-0.035417,-3.43807
514,44.102,-0.0474717,-3.43807
514.4,44.1411,-0.0480337,-3.43843
514.8,44.1808,-0.04905,-3.4384
515.2,44.2189,-0.046653,-3.4384
515.6,44.2605,-0.0467716,-3.43972
516,44.3001,-0.0447582,-3.43972
516.4,44.3392,-0.0422469,-3.4387
516.8,44.3791,-0.04794,-3.43838
517.2,44.4179,-0.047557,-3.43971
517.6,44.4577,-0.0489644,-3.43972
518,44.4969,-0.0558854,-3.43834
518.4,44.5349,-0.0475643,-3.4384
518.8,44.5766,-0.0532106,-3.4384
519.2,44.6174,-0.0459606,-3.43842
519.6,44.6561,-0.0560629,-3.43972
520,44.6964,-0.0537316,-3.44104
520.4,44.7355,-0.0508993,-3.44104
520.8,44.775,-0.0530195,-3.43976
521.2,44.8149,-0.0496779,-3.43972
521.6,44.8523,-0.0491744,-3.43972
522,44.8939,-0.0500038,-3.43972
522.4,44.9338,-0.0461912,-3.43972
522.8,44.9741,-0.0455214,-3.44103
523.2,45.0135,-0.0490637,-3.44236
523.6,45.0531,-0.0418467,-3.44247
524,45.0924,-0.0454844,-3.44104
524.4,45.1323,-0.0462932,-3.44239
524.8,45.172,-0.0474244,-3.44368
525.2,45.2127,-0.0422303,-3.44367
525.6,45.2517,-0.0428079,-3.44367
526,45.2908,-0.0462874,-3.44363
526.4,45.3317,-0.0482791,-3.44234
526.8,45.3709,-0.0442175,-3.44235
527.2,45.4112,-0.0453642,-3.44235
527.6,45.4508,-0.0402548,-3.44234
528,45.4906,-0.0413303,-3.44366
528.4,45.5308,-0.0391707,-3.44367
528.8,45.57,-0.0358814,-3.44367
529.2,45.6099,-0.0357851,-3.44235
529.6,45.6496,-0.0411985,-3.44236
530,45.6899,-0.0435651,-3.44367
530.4,45.7297,-0.0365638,-3.44301
530.8,45.7696,-0.0419381,-3.44301
531.2,45.8093,-0.0405237,-3.44301
531.6,45.8504,-0.0404373,-3.44301
532,45.8889,-0.0400809,-3.44301
532.4,45.9286,-0.04044,-3.44301
532.8,45.9687,-0.0393153,-3.44301
533.2,46.0086,-0.0376996,-3.44301
533.6,46.0492,-0.0346836,-3.44361
534,46.0883,-0.0303743,-3.44433
534.4,46.1277,-0.0369102,-3.44433
534.8,46.1686,-0.0314375,-3.44567
535.2,46.2078,-0.0334164,-3.44605
535.6,46.2471,-0.0316182,-3.44597
536,46.288,-0.030774,-3.44596
536.4,46.3275,-0.0261624,-3.44463
536.8,46.3677,-0.0270229,-3.44513
537.2,46.4068,-0.0219888,-3.44597
537.6,46.4468,-0.0271313,-3.44597
538,46.4865,-0.0222001,-3.44714
538.4,46.5272,-0.0320529,-3.44729
538.8,46.5669,-0.0247833,-3.44729
539.2,46.6058,-0.0267755,-3.44729
539.6,46.6458,-0.0149825,-3.44736
540,46.6856,-0.0169265,-3.44588
540.4,46.7256,-0.0226352,-3.44729
540.8,46.7661,-0.018455,-3.44729
541.2,46.8057,-0.00610256,-3.44729
541.6,46.8463,-0.0179645,-3.44826
542,46.8857,-0.0139645,-3.44828
542.4,46.9243,-0.0205184,-3.44828
542.8,46.9645,-0.0115583,-3.4488
543.2,47.005,-0.00951492,-3.44894
543.6,47.0456,-0.00863514,-3.44931
544,47.0835,-0.0011162,-3.44956
544.4,47.123,-0.00473887,-3.44861
544.8,47.1624,-0.000705539,-3.44861
545.2,47.2038,-0.00152891,-3.44861
545.6,47.2442,-0.00100009,-3.44861
546,47.2845,0.00890928,-3.45003
546.4,47.3235,0.00837807,-3.44992
546.8,47.363,0.00931993,-3.44992
547.2,47.4032,0.00959862,-3.44992
547.6,47.443,0.00798859,-3.45084
548,47.4825,0.0123821,-3.45124
548.4,47.5232,0.010928,-3.45124
548.8,47.5626,0.0156857,-3.45124
549.2,47.6014,0.018548,-3.45159
549.6,47.6418,0.0232135,-3.45156
550,47.6827,0.023124,-3.45255
550.4,47.7214,0.0224525,-3.45256
550.8,47.762,0.0275819,-3.45369
551.2,47.8023,0.0322461,-3.45347
551.6,47.8416,0.0375572,-3.45256
552,47.8812,0.0352088,-3.45256
552.4,47.9214,0.0480841,-3.45506
552.8,47.9604,0.0495913,-3.45519
553.2,48.0007,0.0504703,-3.45385
553.6,48.0405,0.0561109,-3.45388
554,48.0803,0.0575639,-3.45389
554.4,48.1203,0.0627591,-3.45519
554.8,48.1597,0.0694902,-3.45519
555.2,48.2001,0.0656778,-3.45519
555.6,48.2409,0.0764729,-3.45519
556,48.2801,0.0758628,-3.45377
556.4,48.32,0.079586,-3.45519
556.8,48.3594,0.0876196,-3.45519
557.2,48.3994,0.0959735,-3.45519
557.6,48.4396,0.0984803,-3.45659
558,48.4796,0.102682,-3.45717
558.4,48.5195,0.109841,-3.45717
558.8,48.5592,0.113481,-3.45718
559.2,48.5984,0.113176,-3.45781
559.6,48.6384,0.120176,-3.45783
560,48.6788,0.124679,-3.45778
560.4,48.7176,0.12575,-3.45915
560.8,48.7579,0.130282,-3.45914
561.2,48.7972,0.136643,-3.45783
561.6,48.8377,0.136844,-3.45783
562,48.8778,0.143954,-3.45783
562.4,48.9183,0.147249,-3.45811
562.8,48.9586,0.15182,-3.4598
563.2,48.9955,0.151335,-3.4598
563.6,49.0369,0.155481,-3.45979
564,49.0776,0.157384,-3.46111
564.4,49.1173,0.152924,-3.46112
564.8,49.1578,0.15659,-3.46112
565.2,49.1971,0.160958,-3.46112
565.6,49.2367,0.157224,-3.46193
566,49.2749,0.154671,-3.46211
566.4,49.3158,0.157747,-3.46211
566.8,49.3565,0.153944,-3.46234
567.2,49.3975,0.147963,-3.46146
567.6,49.437,0.144989,-3.46187
568,49.4775,0.149345,-3.46278
568.4,49.5163,0.142519,-3.46409
568.8,49.5569,0.137516,-3.46409
569.2,49.5954,0.137481,-3.46306
569.6,49.6357,0.132213,-3.46374
570,49.6757,0.132597,-3.46375
570.4,49.7152,0.135051,-3.46375
570.8,49.7564,0.126849,-3.46509
571.2,49.795,0.132398,-3.46575
571.6,49.8356,0.13036,-3.46576
572,49.8761,0.11871,-3.46441
572.4,49.9155,0.127989,-3.46441
572.8,49.9555,0.126333,-3.46441
573.2,49.9954,0.127301,-3.46441
573.6,50.035,0.123735,-3.46442
574,50.0756,0.119099,-3.46578
574.4,50.1154,0.124613,-3.46573
574.8,50.1556,0.127666,-3.46573
575.2,50.1953,0.129816,-3.4656
575.6,50.2359,0.12949,-3.46574
576,50.2757,0.132314,-3.46574
576.4,50.3156,0.137247,-3.46706
576.8,50.3555,0.133865,-3.46705
577.2,50.3953,0.135808,-3.46705
577.6,50.4353,0.14135,-3.46705
578,50.475,0.147145,-3.46705
578.4,50.5148,0.145723,-3.46598
578.8,50.5549,0.158617,-3.46707
579.2,50.5956,0.164861,-3.46706
579.6,50.6335,0.163381,-3.46706
580,50.6737,0.170768,-3.46706
580.4,50.7147,0.177802,-3.46706
580.8,50.7556,0.187934,-3.46706
581.2,50.7949,0.182683,-3.46706
581.6,50.8363,0.182638,-3.46706
582,50.8767,0.182442,-3.46706
582.4,50.9169,0.186363,-3.46706
582.8,50.957,0.188912,-3.46733
583.2,50.9962,0.190045,-3.46705
583.6,51.0375,0.189183,-3.46749
584,51.078,0.197623,-3.46837
584.4,51.1177,0.197187,-3.46837
584.8,51.1574,0.192772,-3.46837
585.2,51.1989,0.200403,-3.46838
585.6,51.2384,0.196779,-3.4676
586,51.278,0.201297,-3.46837
586.4,51.3193,0.202694,-3.46836
586.8,51.3599,0.205026,-3.46903
587.2,51.3976,0.205465,-3.46936
587.6,51.438,0.20844,-3.46936
588,51.4775,0.208707,-3.46936
588.4,51.5199,0.206157,-3.4687
588.8,51.5596,0.212754,-3.4687
589.2,51.6007,0.211897,-3.4687
589.6,51.64,0.204508,-3.46903
590,51.6791,0.211302,-3.47002
590.4,51.7204,0.213785,-3.46978
590.8,51.7605,0.2121,-3.46863
591.2,51.8015,0.216244,-3.46771
591.6,51.8406,0.219984,-3.46771
592,51.8811,0.217555,-3.46902
592.4,51.9197,0.220574,-3.46903
592.8,51.9616,0.220613,-3.46903
593.2,52.0017,0.229563,-3.46903
593.6,52.042,0.227381,-3.46903
594,52.0824,0.230631,-3.46969
594.4,52.1222,0.228535,-3.47002
594.8,52.1624,0.229204,-3.46959
595.2,52.2019,0.233232,-3.46936
595.6,52.2431,0.229624,-3.46936
596,52.2834,0.229256,-3.46936
596.4,52.3236,0.235144,-3.46937
596.8,52.3611,0.233333,-3.47069
597.2,52.4034,0.234986,-3.47067
597.6,52.443,0.241989,-3.47067
598,52.4836,0.244551,-3.47067
598.4,52.5239,0.242439,-3.47067
598.8,52.5647,0.249234,-3.47067
599.2,52.6045,0.252915,-3.47088
599.6,52.6449,0.247865,-3.47166
600,52.6843,0.249236,-3.47168
600.4,52.7258,0.256371,-3.47299
600.8,52.7655,0.256079,-3.47298
601.2,52.8049,0.26293,-3.47297
601.6,52.8455,0.262914,-3.47164
602,52.886,0.268086,-3.47166
602.4,52.9254,0.274656,-3.47166
602.8,52.9658,0.27583,-3.47166
603.2,53.007,0.281381,-3.47166
603.6,53.047,0.29126,-3.47166
604,53.0871,0.286113,-3.47165
604.4,53.1276,0.28894,-3.47295
604.8,53.1669,0.295284,-3.47298
605.2,53.2081,0.29484,-3.47298
605.6,53.2479,0.296606,-3.47298
606,53.2872,0.297359,-3.47298
606.4,53.3283,0.298753,-3.47215
606.8,53.368,0.305002,-3.47166
607.2,53.4085,0.307752,-3.47166
607.6,53.4492,0.309879,-3.47166
608,53.4879,0.314199,-3.47304
608.4,53.5275,0.314873,-3.47298
608.8,53.5699,0.314687,-3.47298
609.2,53.6104,0.322218,-3.47429
609.6,53.6503,0.324419,-3.4743
610,53.6909,0.320947,-3.47431
610.4,53.731,0.325956,-3.4743
610.8,53.7706,0.332755,-3.47422
611.2,53.8118,0.335221,-3.47462
611.6,53.8512,0.335771,-3.47464
612,53.8927,0.341794,-3.47595
612.4,53.9324,0.344192,-3.47594
612.8,53.9729,0.343199,-3.47594
613.2,54.0129,0.350736,-3.47592
613.6,54.0527,0.36027,-3.47462
614,54.0941,0.360698,-3.47536
614.4,54.1343,0.363855,-3.47595
614.8,54.1745,0.368217,-3.47731
615.2,54.2145,0.370147,-3.47595
615.6,54.2554,0.374557,-3.47594
616,54.2948,0.37289,-3.4765
616.4,54.3339,0.370998,-3.47726
616.8,54.3746,0.377104,-3.47727
617.2,54.4164,0.379437,-3.47722
617.6,54.4563,0.374358,-3.47726
618,54.4968,0.376623,-3.47853
618.4,54.5368,0.375943,-3.47858
618.8,54.5766,0.383498,-3.47858
619.2,54.6163,0.377534,-3.47858
619.6,54.6579,0.379445,-3.47858
620,54.697,0.380941,-3.47858
620.4,54.738,0.379986,-3.47858
620.8,54.777,0.384873,-3.47792
621.2,54.8184,0.383816,-3.47786
621.6,54.8586,0.388037,-3.47924
622,54.8994,0.393691,-3.47924
622.4,54.9391,0.389767,-3.47924
622.8,54.9792,0.395904,-3.47924
623.2,55.02,0.401306,-3.47924
623.6,55.0593,0.404568,-3.47924
624,55.0977,0.401947,-3.47924
624.4,55.14,0.39977,-3.47924
624.8,55.1806,0.401905,-3.48055
625.2,55.2205,0.402823,-3.48055
625.6,55.2613,0.406685,-3.47989
626,55.2998,0.405911,-3.47989
626.4,55.3413,0.414049,-3.47989
626.8,55.3821,0.407934,-3.47989
627.2,55.4228,0.410044,-3.47989
627.6,55.4629,0.40844,-3.47989
628,55.5029,0.412061,-3.47988
628.4,55.5415,0.412984,-3.48119
628.8,55.5837,0.411446,-3.48121
629.2,55.625,0.416929,-3.48121
629.6,55.665,0.41825,-3.4812
630,55.7054,0.420481,-3.48251
630.4,55.745,0.420325,-3.48253
630.8,55.7849,0.414813,-3.48253
631.2,55.8257,0.422313,-3.48253
631.6,55.8663,0.417013,-3.48253
632,55.9067,0.42583,-3.48201
632.4,55.9469,0.419924,-3.48194
632.8,55.9867,0.422051,-3.48188
633.2,56.0269,0.424358,-3.48188
633.6,56.0669,0.421223,-3.48236
634,56.1078,0.418358,-3.48356
634.4,56.1475,0.415846,-3.48351
634.8,56.1857,0.419598,-3.48353
635.2,56.2269,0.411079,-3.4848
635.6,56.2683,0.409702,-3.48351
636,56.3083,0.409989,-3.48352
636.4,56.3485,0.406791,-3.48352
636.8,56.3885,0.408398,-3.48352
637.2,56.4292,0.409293,-3.48352
637.6,56.4693,0.402489,-3.48412
638,56.5093,0.399592,-3.48484
638.4,56.5497,0.391898,-3.48484
638.8,56.5895,0.388692,-3.48484
639.2,56.6283,0.383577,-3.48566
639.6,56.6695,0.381481,-3.48616
640,56.7098,0.382848,-3.48616