File: 01_Data/Helmet_Brim_Edging/STA/N2/10K_min/Helmet_Brim_Edging_STA_N2_10KData_241011_R3.csv
Temp./C,Time/min,DSC/(mW/mg),Mass loss/mg
60.0,0.0,0.968849,0.0113202
60.5,0.056408,0.987923,0.0113595
61,0.112977,1.01604,0.011282
61.5,0.168261,1.0189,0.0112542
62,0.223017,1.02647,0.0127101
62.5,0.27822,1.03965,0.0124583
63,0.332854,1.05112,0.0112214
63.5,0.388522,1.05587,0.0112767
64,0.441992,1.07365,0.00989601
64.5,0.496517,1.07447,0.0112998
65,0.550145,1.07518,0.0113045
65.5,0.60426,1.09318,0.0113212
66,0.657147,1.09659,0.011259
66.5,0.711389,1.10686,0.0112595
67,0.764414,1.10597,0.0112821
67.5,0.816923,1.10815,0.0104221
68,0.870316,1.11238,0.00994883
68.5,0.923208,1.11153,0.0113029
69,0.97695,1.13054,0.0126293
69.5,1.02923,1.13716,0.0112849
70,1.08243,1.13712,0.0112682
70.5,1.13491,1.13709,0.0113013
71,1.187,1.13431,0.0126497
71.5,1.23978,1.13646,0.0117165
72,1.29174,1.14635,0.0112997
72.5,1.34472,1.1395,0.0113881
73,1.39647,1.14227,0.0112991
73.5,1.44824,1.14897,0.0113152
74,1.50113,1.14441,0.0115924
74.5,1.55347,1.15651,0.0126195
75,1.60453,1.1527,0.0126204
75.5,1.65763,1.15682,0.0120021
76,1.70727,1.16243,0.0113349
76.5,1.76186,1.16457,0.00998097
77,1.81165,1.17179,0.0111527
77.5,1.86417,1.1711,0.0113096
78,1.91662,1.1718,0.0113384
78.5,1.96709,1.178,0.0113088
79,2.01953,1.18367,0.0101273
79.5,2.0703,1.18502,0.0108097
80,2.12103,1.19195,0.0113118
80.5,2.1726,1.18758,0.0110097
81,2.22351,1.19313,0.0113003
81.5,2.27554,1.19661,0.0112991
82,2.32662,1.20272,0.0101672
82.5,2.37729,1.20767,0.0110871
83,2.42878,1.20804,0.0112999
83.5,2.47823,1.20509,0.0113445
84,2.52808,1.21901,0.011224
84.5,2.57974,1.2139,0.0113099
85,2.63096,1.21975,0.0115699
85.5,2.68205,1.22609,0.0126296
86,2.73139,1.22135,0.0121298
86.5,2.78211,1.21791,0.0132989
87,2.83278,1.22793,0.0126165
87.5,2.88328,1.23792,0.0113163
88,2.93338,1.23132,0.0112999
88.5,2.98369,1.23587,0.0113161
89,3.03383,1.24046,0.0126203
89.5,3.08351,1.24803,0.012612
90,3.13401,1.24708,0.0133426
90.5,3.18403,1.25226,0.0126246
91,3.23395,1.24729,0.01262
91.5,3.28546,1.25344,0.01262
92,3.33404,1.24342,0.0126267
92.5,3.37939,1.2652,0.0111657
93,3.433,1.26215,0.0126216
93.5,3.48185,1.25923,0.0126203
94,3.52879,1.26546,0.0123698
94.5,3.58103,1.2665,0.0126077
95,3.63095,1.27841,0.01262
95.5,3.68067,1.2703,0.01262
96,3.73024,1.27506,0.0126194
96.5,3.77884,1.28233,0.0113594
97,3.82909,1.2882,0.0122942
97.5,3.87795,1.28407,0.0126359
98,3.92776,1.27896,0.0139404
98.5,3.97618,1.28447,0.0126844
99,4.02545,1.29832,0.0126196
99.5,4.07429,1.28982,0.0126203
100,4.12398,1.29604,0.0124145
100.5,4.1738,1.29935,0.0116401
101,4.22288,1.29109,0.0112742
101.5,4.27242,1.29766,0.0126137
102,4.32074,1.28939,0.01262
102.5,4.37029,1.30363,0.0126145
103,4.41913,1.29989,0.0113046
103.5,4.46825,1.29977,0.0113269
104,4.51779,1.30622,0.0122878
104.5,4.56584,1.31566,0.0126194
105,4.61459,1.32293,0.0126198
105.5,4.6616,1.3276,0.0132152
106,4.71245,1.33079,0.0132051
106.5,4.76255,1.3254,0.0126199
107,4.8113,1.33722,0.01262
107.5,4.85996,1.3356,0.01262
108,4.90884,1.34256,0.0126022
108.5,4.95723,1.3391,0.0132593
109,5.00429,1.35752,0.0132729
109.5,5.05455,1.34933,0.0126259
110,5.10343,1.35327,0.01262
110.5,5.15235,1.34604,0.0126202
111,5.20074,1.36197,0.0113339
111.5,5.24945,1.36638,0.0122979
112,5.29524,1.36463,0.0113059
112.5,5.34762,1.37231,0.0112999
113,5.39407,1.37728,0.0113218
113.5,5.44409,1.38176,0.0126127
114,5.49271,1.39602,0.0139424
114.5,5.53798,1.3901,0.0126266
115,5.58942,1.39491,0.01262
115.5,5.63604,1.4071,0.0126144
116,5.6876,1.40295,0.0139406
116.5,5.73495,1.41816,0.0138798
117,5.78428,1.41936,0.0126217
117.5,5.83254,1.43189,0.0126198
118,5.88028,1.429,0.0120335
118.5,5.93006,1.42928,0.0116302
119,5.97848,1.42683,0.0116256
119.5,6.02647,1.42319,0.0129523
120,6.07548,1.41916,0.01295
120.5,6.12357,1.41778,0.0129498
121,6.17263,1.41877,0.013338
121.5,6.22059,1.41612,0.0142593
122,6.2686,1.41177,0.0142602
122.5,6.31526,1.41622,0.0141039
123,6.36317,1.41492,0.0139803
123.5,6.41403,1.41636,0.0132812
124,6.46181,1.42139,0.01196
124.5,6.51069,1.42342,0.0119589
125,6.55916,1.43677,0.0133992
125.5,6.60736,1.43588,0.0129284
126,6.65535,1.43138,0.0126218
126.5,6.70409,1.44273,0.0126039
127,6.75207,1.43094,0.013281
127.5,6.79998,1.4346,0.0120359
128,6.8492,1.43388,0.0119598
128.5,6.89696,1.43859,0.01196
129,6.94505,1.44899,0.0119601
129.5,6.99311,1.43977,0.0118734
130,7.04185,1.447,0.0135512
130.5,7.09024,1.44639,0.0148982
131,7.13781,1.44488,0.0149129
131.5,7.18718,1.44701,0.0136129
132,7.2363,1.45697,0.0136117
132.5,7.2831,1.46216,0.0123378
133,7.33024,1.46945,0.0127245
133.5,7.379,1.4727,0.0136099
134,7.428,1.47601,0.01361
134.5,7.47566,1.48688,0.01361
135,7.52503,1.50052,0.01361
135.5,7.56955,1.49969,0.0136101
136,7.62121,1.50663,0.0135126
136.5,7.66764,1.51884,0.0149317
137,7.71456,1.51905,0.0136387
137.5,7.76645,1.54147,0.01361
138,7.81261,1.54613,0.01361
138.5,7.86199,1.55858,0.0136231
139,7.91035,1.57018,0.0149159
139.5,7.95809,1.58197,0.01493
140,8.00699,1.60186,0.01493
140.5,8.05615,1.62198,0.01493
141,8.10378,1.63265,0.0136074
141.5,8.15089,1.64558,0.01361
142,8.19961,1.67372,0.0136101
142.5,8.24714,1.69169,0.0140334
143,8.29565,1.71268,0.0146005
143.5,8.34466,1.73485,0.0149292
144,8.39179,1.75511,0.0162958
144.5,8.44135,1.78556,0.0139844
145,8.4889,1.81655,0.0134998
145.5,8.53705,1.8382,0.0135305
146,8.58575,1.86836,0.01382
146.5,8.63412,1.886,0.0138329
147,8.68187,1.92198,0.014806
147.5,8.73033,1.94763,0.0148107
148,8.77881,1.99016,0.0135393
148.5,8.82603,2.01284,0.0134997
149,8.87509,2.0292,0.0135054
149.5,8.92371,2.06483,0.0144876
150,8.97143,2.08381,0.0144919
150.5,9.01945,2.10941,0.0135465
151,9.06812,2.12607,0.013501
151.5,9.11606,2.15616,0.0147827
152,9.16409,2.16587,0.0148427
152.5,9.21264,2.17629,0.014777
153,9.26008,2.17467,0.0148201
153.5,9.30831,2.16867,0.01482
154,9.35575,2.14952,0.01482
154.5,9.40237,2.12273,0.0147744
155,9.45189,2.0752,0.0161325
155.5,9.49831,2.01901,0.01613
156,9.54583,1.95383,0.0161301
156.5,9.5929,1.88539,0.0157423
157,9.63944,1.81885,0.0148804
157.5,9.68632,1.76839,0.0135023
158,9.73327,1.71109,0.0151852
158.5,9.78125,1.67659,0.01514
159,9.82805,1.63769,0.0151118
159.5,9.87391,1.60826,0.0164443
160,9.92318,1.58349,0.0151467
160.5,9.97052,1.56477,0.01514
161,10.0173,1.5551,0.01514
161.5,10.0655,1.54847,0.0137673
162,10.1134,1.5377,0.013995
162.5,10.1595,1.53163,0.0151485
163,10.2073,1.53592,0.01515
163.5,10.2552,1.53349,0.01515
164,10.3024,1.52317,0.01515
164.5,10.3492,1.52193,0.0151507
165,10.3952,1.52533,0.015773
165.5,10.4451,1.52371,0.0158088
166,10.493,1.52873,0.01581
166.5,10.5402,1.52984,0.0158251
167,10.5889,1.52815,0.0144828
167.5,10.6348,1.52855,0.01449
168,10.6831,1.53218,0.014622
168.5,10.7311,1.5242,0.0158116
169,10.7782,1.52342,0.0148401
169.5,10.826,1.52947,0.0148238
170,10.8734,1.53185,0.01515
170.5,10.9215,1.52802,0.0151501
171,10.9685,1.52607,0.0157626
171.5,11.0168,1.52259,0.0164703
172,11.0636,1.53656,0.01647
172.5,11.1119,1.52801,0.0164659
173,11.1596,1.53585,0.0175827
173.5,11.2065,1.53579,0.0161297
174,11.2544,1.54631,0.01613
174.5,11.3028,1.53562,0.01613
175,11.3505,1.54315,0.0161372
175.5,11.3958,1.5454,0.0148018
176,11.4445,1.5475,0.014815
176.5,11.493,1.54657,0.0151412
177,11.5405,1.5474,0.0151421
177.5,11.588,1.55206,0.0161127
178,11.6358,1.55499,0.01613
178.5,11.6835,1.55299,0.01613
179,11.7318,1.55405,0.01613
179.5,11.7779,1.5539,0.01613
180,11.8235,1.5546,0.01613
180.5,11.8724,1.55232,0.0150564
181,11.9206,1.554,0.0151501
181.5,11.9684,1.56656,0.0151494
182,12.0165,1.56894,0.0165054
182.5,12.0633,1.56593,0.0164702
183,12.1121,1.56051,0.01647
183.5,12.1593,1.56331,0.01647
184,12.2077,1.56075,0.01647
184.5,12.2531,1.56883,0.01647
185,12.3018,1.56268,0.0162678
185.5,12.3478,1.56097,0.0151516
186,12.395,1.56777,0.0164225
186.5,12.4453,1.57221,0.01646
187,12.4917,1.57853,0.0164616
187.5,12.5395,1.56344,0.016138
188,12.5879,1.58159,0.01613
188.5,12.6338,1.57481,0.01613
189,12.6818,1.56864,0.0161295
189.5,12.7292,1.57154,0.0157722
190,12.7769,1.571,0.0148034
190.5,12.8252,1.57985,0.0148241
191,12.8724,1.5875,0.0158129
191.5,12.9203,1.58253,0.0158101
192,12.9689,1.59208,0.0150509
192.5,13.0155,1.59832,0.0157987
193,13.0631,1.58412,0.0158004
193.5,13.1114,1.59513,0.0144747
194,13.1578,1.59403,0.014482
194.5,13.2064,1.5983,0.0138269
195,13.2542,1.59815,0.01382
195.5,13.2998,1.59884,0.0138201
196,13.3478,1.59208,0.0137963
196.5,13.3958,1.5907,0.0164627
197,13.4438,1.59798,0.0165227
197.5,13.4897,1.59701,0.0151195
198,13.5387,1.59674,0.0144915
198.5,13.586,1.60555,0.0138193
199,13.6337,1.60974,0.0138201
199.5,13.6812,1.60844,0.0137088
200,13.7281,1.60231,0.0151434
200.5,13.7762,1.60923,0.0137736
201,13.8241,1.60671,0.01383
201.5,13.8714,1.60673,0.01383
202,13.9179,1.60643,0.01383
202.5,13.9658,1.61026,0.0138413
203,14.0135,1.60434,0.0151389
203.5,14.0608,1.60789,0.0152261
204,14.1085,1.61592,0.0148248
204.5,14.1554,1.61347,0.01482
205,14.2028,1.60977,0.0148254
205.5,14.2507,1.62164,0.0138498
206,14.2985,1.61369,0.0135006
206.5,14.3461,1.60327,0.0135
207,14.3918,1.60996,0.0135
207.5,14.4413,1.6117,0.013497
208,14.4884,1.61729,0.0138198
208.5,14.534,1.61628,0.01383
209,14.5841,1.61805,0.0138303
209.5,14.6308,1.61186,0.0124445
210,14.6787,1.61578,0.0125101
210.5,14.7255,1.62372,0.0125103
211,14.7731,1.62236,0.0138586
211.5,14.8201,1.62528,0.0138299
212,14.8682,1.62906,0.0138303
212.5,14.9165,1.63001,0.0137696
213,14.9633,1.63085,0.0128409
213.5,15.0117,1.62726,0.0128551
214,15.0584,1.6387,0.0118467
214.5,15.1065,1.63172,0.01185
215,15.1534,1.64157,0.01185
215.5,15.2002,1.64091,0.0118461
216,15.249,1.64301,0.0132228
216.5,15.2972,1.64106,0.0131733
217,15.3444,1.65057,0.0128388
217.5,15.3917,1.64185,0.0128382
218,15.4386,1.64392,0.0116075
218.5,15.4876,1.63965,0.01152
219,15.5329,1.63472,0.01152
219.5,15.5822,1.63996,0.0115244
220,15.6297,1.638,0.0110333
220.5,15.6764,1.64089,0.0118631
221,15.7246,1.64224,0.0128401
221.5,15.7716,1.63795,0.01284
222,15.8186,1.64551,0.01284
222.5,15.867,1.6383,0.0128401
223,15.9138,1.65831,0.0121749
223.5,15.9615,1.6463,0.0121901
224,16.0093,1.65046,0.01219
224.5,16.0569,1.64022,0.0121901
225,16.1037,1.65457,0.0122571
225.5,16.1525,1.64965,0.0115311
226,16.1993,1.65308,0.0115301
226.5,16.2464,1.65501,0.0115246
227,16.2941,1.65285,0.0112003
227.5,16.3414,1.65239,0.0112
228,16.3893,1.65152,0.0112
228.5,16.4364,1.6653,0.0112
229,16.4842,1.66317,0.0109332
229.5,16.5311,1.64285,0.0108498
230,16.5784,1.6566,0.00955281
230.5,16.6262,1.6546,0.0095276
231,16.6745,1.65895,0.00886931
231.5,16.7217,1.66222,0.00988455
232,16.769,1.66338,0.00987976
232.5,16.8157,1.66331,0.00987607
233,16.8646,1.66239,0.0112008
233.5,16.9103,1.668,0.0111791
234,16.9591,1.67286,0.00928658
234.5,17.0064,1.664,0.00855982
235,17.0542,1.666,0.00852405
235.5,17.1018,1.66938,0.00988257
236,17.1486,1.66798,0.00988069
236.5,17.1962,1.66842,0.0106755
237,17.2412,1.68337,0.0111222
237.5,17.2904,1.68016,0.00890257
238,17.3391,1.68203,0.0088908
238.5,17.3868,1.68232,0.00855942
239,17.4339,1.68671,0.00856004
239.5,17.4818,1.68009,0.0085503
240,17.5292,1.69042,0.00815992
240.5,17.5769,1.68436,0.00664724
241,17.6248,1.6796,0.00592234
241.5,17.6709,1.68638,0.00716776
242,17.7192,1.68788,0.00723994
242.5,17.767,1.68523,0.00724972
243,17.814,1.68934,0.00592138
243.5,17.8622,1.69528,0.00592
244,17.9093,1.68426,0.00592
244.5,17.9574,1.69695,0.00592
245,18.0037,1.69317,0.00592041
245.5,18.0529,1.68744,0.00454568
246,18.1001,1.69084,0.00460002
246.5,18.1473,1.68066,0.00458551
247,18.1951,1.68506,0.00492973
247.5,18.243,1.68405,0.00490649
248,18.2906,1.6874,0.00394261
248.5,18.3378,1.68856,0.00395001
249,18.3853,1.69265,0.00395
249.5,18.4323,1.69477,0.00395
250,18.4806,1.70199,0.00395
250.5,18.5278,1.70135,0.00395
251,18.5756,1.69997,0.00395
251.5,18.6229,1.69861,0.00395
252,18.6701,1.70017,0.00395174
252.5,18.7181,1.69557,0.00362008
253,18.7663,1.71042,0.00230461
253.5,18.8131,1.70858,0.00230244
254,18.8608,1.70489,0.000921419
254.5,18.9083,1.70498,0.00101707
255,18.955,1.70852,-0.000324079
255.5,19.0037,1.71492,-0.00169474
256,19.0513,1.71084,-0.00140229
256.5,19.0987,1.71376,-0.00165606
257,19.1465,1.71684,-0.00165
257.5,19.1904,1.71132,-0.00165012
258,19.2412,1.71618,-0.00156502
258.5,19.2884,1.71508,-0.00296078
259,19.336,1.71139,-0.00295998
259.5,19.384,1.70957,-0.00289265
260,19.4313,1.71426,-0.00428049
260.5,19.4789,1.71003,-0.00427044
261,19.5267,1.71893,-0.00559679
261.5,19.5748,1.7154,-0.00549489
262,19.6219,1.72145,-0.00560207
262.5,19.6691,1.72152,-0.00643645
263,19.7155,1.72955,-0.00658999
263.5,19.764,1.72503,-0.00659
264,19.8122,1.73119,-0.00658723
264.5,19.8596,1.72486,-0.00690861
265,19.9073,1.72764,-0.00821337
265.5,19.9543,1.73284,-0.00921909
266,20.0011,1.72987,-0.00922
266.5,20.051,1.72656,-0.0092204
267,20.0987,1.73029,-0.00980971
267.5,20.146,1.73071,-0.00922943
268,20.1939,1.73029,-0.00922981
268.5,20.2413,1.73504,-0.0106434
269,20.2888,1.74586,-0.0118046
269.5,20.3371,1.73981,-0.0131828
270,20.3846,1.74778,-0.0140554
270.5,20.4327,1.74589,-0.0144899
271,20.4804,1.75545,-0.0144934
271.5,20.5283,1.74886,-0.0157847
272,20.576,1.74542,-0.01581
272.5,20.6237,1.75261,-0.0158322
273,20.6713,1.75593,-0.0157318
273.5,20.719,1.76037,-0.0171421
274,20.7664,1.75946,-0.0184511
274.5,20.814,1.76347,-0.0197589
275,20.8628,1.76453,-0.0197527
275.5,20.9102,1.76253,-0.0210814
276,20.9584,1.76403,-0.0210809
276.5,21.006,1.76473,-0.0223976
277,21.0541,1.76234,-0.0223418
277.5,21.1016,1.76992,-0.0236991
278,21.1493,1.77768,-0.0250613
278.5,21.1977,1.77558,-0.0262999
279,21.2449,1.77449,-0.0264962
279.5,21.2933,1.7822,-0.0263407
280,21.3404,1.77781,-0.0276773
280.5,21.3885,1.77828,-0.0276696
281,21.4355,1.77993,-0.0288714
281.5,21.4841,1.78801,-0.0302557
282,21.5327,1.78951,-0.0320339
282.5,21.5809,1.78855,-0.0320354
283,21.6283,1.78917,-0.0340903
283.5,21.6766,1.79289,-0.0364006
284,21.7237,1.8008,-0.0368898
284.5,21.7712,1.78982,-0.0368935
285,21.8189,1.78917,-0.0367368
285.5,21.8669,1.79456,-0.0370823
286,21.914,1.80389,-0.0383199
286.5,21.9631,1.78961,-0.0396344
287,22.0103,1.80315,-0.0409372
287.5,22.0587,1.80303,-0.0422759
288,22.106,1.80596,-0.0435925
288.5,22.1536,1.81044,-0.044903
289,22.201,1.81335,-0.0457916
289.5,22.2488,1.82152,-0.0471776
290,22.2967,1.81751,-0.0480694
290.5,22.3444,1.8194,-0.0489082
291,22.3915,1.83131,-0.0511791
291.5,22.4387,1.82377,-0.0519467
292,22.4869,1.82593,-0.0542275
292.5,22.5353,1.82312,-0.0551766
293,22.5832,1.82368,-0.0571628
293.5,22.6311,1.83012,-0.0572044
294,22.6796,1.82776,-0.0584752
294.5,22.7272,1.83908,-0.0617404
295,22.774,1.84777,-0.0640555
295.5,22.8198,1.84322,-0.0651013
296,22.8698,1.84777,-0.0663343
296.5,22.9176,1.85395,-0.0657584
297,22.9645,1.85309,-0.0670737
297.5,23.0129,1.86933,-0.0684589
298,23.061,1.87066,-0.0696215
298.5,23.1087,1.86941,-0.071343
299,23.156,1.88592,-0.07389
299.5,23.2033,1.87648,-0.0747234
300,23.2526,1.89009,-0.0773874
300.5,23.2996,1.88375,-0.0800742
301,23.3474,1.88837,-0.0807984
301.5,23.3945,1.89444,-0.0828554
302,23.4435,1.89817,-0.0854507
302.5,23.4912,1.89521,-0.0872917
303,23.5397,1.91064,-0.0877627
303.5,23.587,1.90867,-0.0901336
304,23.6348,1.9145,-0.0920057
304.5,23.6828,1.9188,-0.0947405
305,23.7308,1.92814,-0.0964783
305.5,23.7783,1.9288,-0.0992303
306,23.8257,1.93591,-0.102316
306.5,23.8742,1.94456,-0.105
307,23.9217,1.95364,-0.105443
307.5,23.9683,1.95549,-0.108967
308,24.019,1.97327,-0.112637
308.5,24.066,1.98619,-0.114517
309,24.1143,1.97991,-0.11594
309.5,24.1625,1.99153,-0.11742
310,24.2107,2.00445,-0.120051
310.5,24.2587,2.00634,-0.125232
311,24.3069,2.01635,-0.129431
311.5,24.3548,2.02099,-0.131193
312,24.4029,2.02621,-0.133032
312.5,24.4511,2.02749,-0.136064
313,24.4979,2.01965,-0.139258
313.5,24.5466,2.0055,-0.143939
314,24.594,1.97519,-0.14731
314.5,24.6417,1.92686,-0.14935
315,24.6892,1.88986,-0.153233
315.5,24.7371,1.85285,-0.156681
316,24.784,1.81919,-0.159983
316.5,24.8327,1.80216,-0.163269
317,24.8795,1.79341,-0.16643
317.5,24.9274,1.78621,-0.170667
318,24.9756,1.77526,-0.174874
318.5,25.0232,1.77471,-0.178796
319,25.0707,1.77241,-0.18264
319.5,25.1171,1.77631,-0.186579
320,25.1663,1.77449,-0.191835
320.5,25.2148,1.78379,-0.19538
321,25.2634,1.77533,-0.200266
321.5,25.3111,1.77898,-0.205244
322,25.3598,1.77447,-0.210109
322.5,25.4061,1.79144,-0.214451
323,25.4542,1.78869,-0.219746
323.5,25.5031,1.79794,-0.225642
324,25.5515,1.78469,-0.231072
324.5,25.5993,1.78645,-0.237291
325,25.6472,1.79828,-0.241471
325.5,25.6962,1.79746,-0.245287
326,25.7432,1.80125,-0.249953
326.5,25.7921,1.80015,-0.257199
327,25.8392,1.79159,-0.263054
327.5,25.8882,1.79303,-0.267396
328,25.936,1.79291,-0.272176
328.5,25.985,1.79753,-0.279241
329,26.0322,1.80348,-0.285268
329.5,26.0789,1.8094,-0.291212
330,26.1292,1.81289,-0.298567
330.5,26.1775,1.80798,-0.30589
331,26.2244,1.81439,-0.312768
331.5,26.2714,1.80626,-0.320801
332,26.3199,1.8159,-0.328224
332.5,26.3702,1.80902,-0.33536
333,26.4176,1.80398,-0.343182
333.5,26.4663,1.80715,-0.350991
334,26.5141,1.80408,-0.359037
334.5,26.5622,1.79977,-0.367202
335,26.6107,1.80014,-0.376961
335.5,26.6588,1.80715,-0.385046
336,26.7071,1.79864,-0.393543
336.5,26.7527,1.79483,-0.400963
337,26.8022,1.79499,-0.409434
337.5,26.8513,1.78706,-0.418535
338,26.8976,1.78199,-0.426146
338.5,26.9465,1.78333,-0.435694
339,26.9963,1.77963,-0.447432
339.5,27.0429,1.77431,-0.457383
340,27.0919,1.76919,-0.46578
340.5,27.1396,1.76525,-0.475646
341,27.1891,1.75905,-0.485517
341.5,27.2368,1.75516,-0.498222
342,27.2847,1.75327,-0.511002
342.5,27.3322,1.74299,-0.52236
343,27.3805,1.73841,-0.534682
343.5,27.4285,1.72125,-0.54895
344,27.4761,1.71879,-0.560642
344.5,27.5248,1.69831,-0.572704
345,27.5738,1.69254,-0.586605
345.5,27.6199,1.68556,-0.601953
346,27.6691,1.67325,-0.618708
346.5,27.7177,1.65533,-0.632876
347,27.7659,1.64783,-0.650833
347.5,27.814,1.65236,-0.669275
348,27.8626,1.63575,-0.686216
348.5,27.9096,1.6286,-0.705001
349,27.9584,1.62653,-0.724724
349.5,28.0078,1.62719,-0.744274
350,28.0559,1.62313,-0.76507
350.5,28.1038,1.61939,-0.787675
351,28.152,1.62266,-0.806484
351.5,28.1986,1.6196,-0.82578
352,28.2493,1.62625,-0.848938
352.5,28.2977,1.63241,-0.871023
353,28.3462,1.63648,-0.894283
353.5,28.3945,1.63763,-0.917235
354,28.4416,1.63008,-0.938208
354.5,28.4912,1.63629,-0.959318
355,28.5388,1.6309,-0.980686
355.5,28.5874,1.63209,-1.00195
356,28.6357,1.62743,-1.02161
356.5,28.6844,1.62811,-1.04329
357,28.7323,1.62773,-1.0634
357.5,28.7812,1.63779,-1.08448
358,28.8287,1.63641,-1.10278
358.5,28.8774,1.6388,-1.12008
359,28.9262,1.64293,-1.13805
359.5,28.9744,1.64227,-1.1542
360,29.0222,1.64061,-1.17014
360.5,29.0712,1.64528,-1.18703
361,29.1193,1.64893,-1.2022
361.5,29.1675,1.65478,-1.21612
362,29.2152,1.66107,-1.23057
362.5,29.2644,1.6609,-1.24585
363,29.3131,1.65234,-1.25886
363.5,29.36,1.65622,-1.27122
364,29.4095,1.6545,-1.284
364.5,29.4546,1.65092,-1.29352
365,29.5061,1.65752,-1.30772
365.5,29.5548,1.64865,-1.31905
366,29.6023,1.64002,-1.33109
366.5,29.6516,1.64762,-1.34296
367,29.6995,1.6402,-1.35403
367.5,29.7484,1.64341,-1.36499
368,29.7967,1.64336,-1.37456
368.5,29.8452,1.63893,-1.38412
369,29.8936,1.63091,-1.39413
369.5,29.9414,1.62564,-1.40494
370,29.9908,1.62285,-1.41434
370.5,30.0385,1.61891,-1.42377
371,30.0865,1.62043,-1.43294
371.5,30.1362,1.60869,-1.44254
372,30.1846,1.6037,-1.45185
372.5,30.2326,1.59552,-1.45914
373,30.2808,1.59274,-1.46802
373.5,30.3286,1.58807,-1.47613
374,30.3777,1.58732,-1.48504
374.5,30.427,1.58276,-1.49206
375,30.4761,1.58253,-1.50025
375.5,30.5231,1.57692,-1.5086
376,30.5725,1.57332,-1.51794
376.5,30.6206,1.55989,-1.5261
377,30.6688,1.56668,-1.53258
377.5,30.717,1.55055,-1.54085
378,30.7665,1.55572,-1.54891
378.5,30.8149,1.54584,-1.55571
379,30.8626,1.54834,-1.56287
379.5,30.9112,1.54342,-1.57138
380,30.959,1.53023,-1.57907
380.5,31.007,1.52526,-1.58693
381,31.056,1.52816,-1.5931
381.5,31.1049,1.52332,-1.60036
382,31.1525,1.52207,-1.60746
382.5,31.2013,1.51708,-1.61336
383,31.2502,1.51606,-1.61931
383.5,31.2982,1.50682,-1.6265
384,31.3467,1.49939,-1.63352
384.5,31.3956,1.49996,-1.6397
385,31.4427,1.50595,-1.64702
385.5,31.4902,1.49846,-1.65385
386,31.54,1.48628,-1.66077
386.5,31.5875,1.49105,-1.66671
387,31.6366,1.49102,-1.67276
387.5,31.6841,1.48235,-1.68024
388,31.7341,1.47696,-1.6856
388.5,31.7818,1.46962,-1.69177
389,31.8305,1.46145,-1.69844
389.5,31.8791,1.46507,-1.70456
390,31.9276,1.45549,-1.70986
390.5,31.9765,1.44811,-1.71677
391,32.0247,1.45152,-1.72342
391.5,32.0736,1.44984,-1.72988
392,32.1219,1.43792,-1.73581
392.5,32.171,1.43608,-1.74126
393,32.2189,1.4387,-1.74669
393.5,32.2672,1.42936,-1.75291
394,32.3164,1.43469,-1.75946
394.5,32.3656,1.4262,-1.76584
395,32.4131,1.43342,-1.77201
395.5,32.4622,1.43344,-1.77806
396,32.5107,1.4277,-1.78382
396.5,32.5597,1.42913,-1.78941
397,32.609,1.43131,-1.79618
397.5,32.6562,1.42086,-1.80182
398,32.7053,1.41241,-1.80764
398.5,32.7538,1.41649,-1.81401
399,32.8033,1.40924,-1.82109
399.5,32.8515,1.41414,-1.82543
400,32.8997,1.41349,-1.83268
400.5,32.9498,1.4083,-1.83834
401,32.9978,1.40304,-1.84369
401.5,33.047,1.4095,-1.84898
402,33.0953,1.40929,-1.85398
402.5,33.1449,1.40478,-1.85992
403,33.193,1.40173,-1.86624
403.5,33.2422,1.41018,-1.87306
404,33.2913,1.40761,-1.87997
404.5,33.3406,1.40524,-1.88372
405,33.389,1.40133,-1.88993
405.5,33.4372,1.4075,-1.89543
406,33.4864,1.40609,-1.90219
406.5,33.5365,1.39926,-1.90766
407,33.5848,1.41404,-1.91298
407.5,33.6339,1.40076,-1.91887
408,33.683,1.39578,-1.92476
408.5,33.7307,1.40468,-1.93012
409,33.7801,1.39965,-1.93645
409.5,33.8296,1.40922,-1.94238
410,33.8775,1.40513,-1.94824
410.5,33.9261,1.40586,-1.95383
411,33.9756,1.4111,-1.95936
411.5,34.024,1.40105,-1.96405
412,34.0733,1.40461,-1.96971
412.5,34.1214,1.40532,-1.97743
413,34.1706,1.40205,-1.98196
413.5,34.2197,1.40643,-1.98687
414,34.2686,1.41092,-1.99184
414.5,34.3173,1.40862,-1.99786
415,34.3655,1.40579,-2.00341
415.5,34.4147,1.40292,-2.00965
416,34.4639,1.41195,-2.01629
416.5,34.5122,1.41599,-2.0222
417,34.5616,1.41359,-2.02805
417.5,34.6076,1.42265,-2.03501
418,34.6589,1.42214,-2.04037
418.5,34.7076,1.40111,-2.04635
419,34.7566,1.42027,-2.05274
419.5,34.8052,1.41755,-2.05878
420,34.8542,1.42002,-2.06451
420.5,34.9029,1.4228,-2.0711
421,34.9518,1.4289,-2.0777
421.5,35.001,1.42837,-2.08281
422,35.0501,1.43405,-2.08847
422.5,35.0989,1.43867,-2.09693
423,35.1486,1.44148,-2.10295
423.5,35.1955,1.44487,-2.10868
424,35.2459,1.45166,-2.11411
424.5,35.2941,1.44826,-2.12124
425,35.3433,1.44254,-2.12884
425.5,35.3921,1.45605,-2.13604
426,35.4415,1.45445,-2.14138
426.5,35.4905,1.45715,-2.14737
427,35.5389,1.45521,-2.15376
427.5,35.5858,1.46574,-2.16164
428,35.637,1.46388,-2.16929
428.5,35.6859,1.46651,-2.17583
429,35.7334,1.47321,-2.1826
429.5,35.7839,1.47011,-2.18991
430,35.8342,1.46793,-2.19671
430.5,35.8831,1.47359,-2.20368
431,35.9319,1.48114,-2.21024
431.5,35.9795,1.48739,-2.21813
432,36.031,1.48696,-2.22616
432.5,36.08,1.48075,-2.23352
433,36.1291,1.49576,-2.24099
433.5,36.1786,1.4931,-2.24792
434,36.228,1.49315,-2.25656
434.5,36.2773,1.50575,-2.26326
435,36.3258,1.51369,-2.27098
435.5,36.3753,1.50911,-2.27835
436,36.4239,1.52592,-2.28707
436.5,36.4738,1.51978,-2.29564
437,36.5229,1.52742,-2.30422
437.5,36.5719,1.52859,-2.31161
438,36.6209,1.52981,-2.31983
438.5,36.6706,1.54369,-2.32833
439,36.7203,1.54545,-2.33768
439.5,36.7688,1.55092,-2.34705
440,36.8181,1.55055,-2.35557
440.5,36.8665,1.55512,-2.36418
441,36.9149,1.57619,-2.37316
441.5,36.9665,1.57015,-2.38395
442,37.0152,1.58387,-2.39265
442.5,37.0644,1.57321,-2.40205
443,37.114,1.58491,-2.41204
443.5,37.163,1.57886,-2.42246
444,37.2124,1.5932,-2.43192
444.5,37.261,1.5938,-2.44215
445,37.3108,1.60927,-2.45281
445.5,37.36,1.60468,-2.46218
446,37.4084,1.61224,-2.47412
446.5,37.4581,1.61507,-2.48482
447,37.507,1.6308,-2.49597
447.5,37.5573,1.62104,-2.50692
448,37.6045,1.63321,-2.51807
448.5,37.6553,1.62313,-2.52971
449,37.7027,1.63476,-2.53885
449.5,37.7513,1.62766,-2.55028
450,37.8029,1.63959,-2.56269
450.5,37.8514,1.64292,-2.57545
451,37.9013,1.64167,-2.58724
451.5,37.9497,1.6499,-2.59879
452,38.0001,1.64772,-2.61211
452.5,38.0483,1.65191,-2.62524
453,38.0983,1.63641,-2.63692
453.5,38.1473,1.64716,-2.64829
454,38.1968,1.6448,-2.66122
454.5,38.2457,1.64845,-2.67429
455,38.2954,1.64744,-2.68784
455.5,38.3432,1.64559,-2.69858
456,38.3921,1.63528,-2.71122
456.5,38.4425,1.63744,-2.72629
457,38.4921,1.63731,-2.74044
457.5,38.5405,1.61791,-2.75437
458,38.5885,1.61839,-2.76671
458.5,38.639,1.6178,-2.77892
459,38.6877,1.60361,-2.79222
459.5,38.737,1.59366,-2.80583
460,38.7861,1.58008,-2.81921
460.5,38.8353,1.5793,-2.83316
461,38.8853,1.56824,-2.84763
461.5,38.9348,1.55024,-2.86348
462,38.9835,1.53918,-2.87652
462.5,39.0325,1.51805,-2.88966
463,39.081,1.51373,-2.90282
463.5,39.1308,1.4938,-2.91764
464,39.18,1.47289,-2.93152
464.5,39.2296,1.46267,-2.94415
465,39.2781,1.44388,-2.95597
465.5,39.327,1.41863,-2.96941
466,39.3765,1.39942,-2.98522
466.5,39.4251,1.37922,-2.99815
467,39.4726,1.3533,-3.01102
467.5,39.5227,1.32725,-3.02418
468,39.5727,1.29877,-3.03793
468.5,39.6215,1.27745,-3.0512
469,39.6709,1.25778,-3.0641
469.5,39.7196,1.22661,-3.07654
470,39.7686,1.1984,-3.08967
470.5,39.818,1.17395,-3.10311
471,39.8669,1.13464,-3.116
471.5,39.9155,1.10043,-3.12754
472,39.9643,1.08056,-3.13871
472.5,40.0128,1.04289,-3.14963
473,40.063,1.00926,-3.16053
473.5,40.1116,0.977034,-3.17199
474,40.16,0.945296,-3.18303
474.5,40.2083,0.908144,-3.1929
475,40.2571,0.871892,-3.20307
475.5,40.3062,0.842972,-3.21233
476,40.3553,0.803827,-3.22146
476.5,40.4037,0.774389,-3.23079
477,40.453,0.739075,-3.23935
477.5,40.5014,0.704031,-3.24709
478,40.5503,0.674547,-3.2564
478.5,40.599,0.634231,-3.26473
479,40.6477,0.588387,-3.27309
479.5,40.6985,0.55836,-3.28006
480,40.7457,0.530318,-3.28656
480.5,40.7947,0.508242,-3.29295
481,40.8429,0.475578,-3.29938
481.5,40.8919,0.435444,-3.30472
482,40.9402,0.40967,-3.31036
482.5,40.9904,0.38088,-3.31518
483,41.0397,0.351522,-3.3194
483.5,41.089,0.332467,-3.32356
484,41.1374,0.301209,-3.32904
484.5,41.1852,0.277576,-3.3334
485,41.2344,0.249815,-3.33568
485.5,41.2836,0.233326,-3.33794
486,41.3328,0.210772,-3.34069
486.5,41.3815,0.197213,-3.34061
487,41.4305,0.187553,-3.3438
487.5,41.4801,0.168496,-3.34749
488,41.5293,0.154926,-3.3496
488.5,41.5772,0.136253,-3.35204
489,41.6266,0.136894,-3.3543
489.5,41.6758,0.117372,-3.35563
490,41.7261,0.106468,-3.35707
490.5,41.7749,0.104711,-3.35841
491,41.8237,0.0976992,-3.35859
491.5,41.8741,0.0830562,-3.35982
492,41.9233,0.0792856,-3.36005
492.5,41.9727,0.0731746,-3.36125
493,42.0224,0.0745922,-3.36308
493.5,42.0713,0.0649604,-3.36438
494,42.121,0.0701324,-3.36562
494.5,42.1704,0.061562,-3.36606
495,42.2174,0.0611458,-3.36606
495.5,42.2695,0.0564245,-3.36624
496,42.3195,0.0491388,-3.36737
496.5,42.3686,0.0620451,-3.36737
497,42.4187,0.0443611,-3.36737
497.5,42.468,0.0551947,-3.36837
498,42.5169,0.0553831,-3.36707
498.5,42.5672,0.0535017,-3.36737
499,42.6164,0.0506743,-3.36765
499.5,42.6669,0.0394496,-3.36869
500,42.716,0.0408006,-3.37001
500.5,42.7656,0.0442464,-3.37008
501,42.8154,0.0401274,-3.36869
501.5,42.8654,0.028055,-3.36869
502,42.914,0.036056,-3.36869
502.5,42.9634,0.0359562,-3.36869
503,43.014,0.0269367,-3.36869
503.5,43.0632,0.0337044,-3.36927
504,43.1118,0.0377732,-3.36934
504.5,43.1626,0.0371037,-3.37032
505,43.2118,0.0330951,-3.37034
505.5,43.2622,0.0384564,-3.36892
506,43.3123,0.0436001,-3.36918
506.5,43.3595,0.0407272,-3.37001
507,43.4087,0.0365989,-3.37001
507.5,43.4598,0.0214438,-3.37
508,43.5109,0.0197114,-3.36902
508.5,43.5597,0.0262005,-3.36907
509,43.6101,0.0236784,-3.36804
509.5,43.659,0.0341123,-3.36804
510,43.7091,0.0174477,-3.36804
510.5,43.7583,0.0164514,-3.36804
511,43.808,0.02175,-3.36841
511.5,43.8569,0.0324153,-3.36935
512,43.9068,0.022887,-3.36967
512.5,43.957,0.0212582,-3.36935
513,44.006,0.0248113,-3.37069
513.5,44.0557,0.0181369,-3.37067
514,44.1054,0.0137314,-3.37067
514.5,44.1552,0.0138259,-3.37067
515,44.2034,0.0213573,-3.37067
515.5,44.2528,0.0223988,-3.37067
516,44.3022,0.0249047,-3.37202
516.5,44.3527,0.0215394,-3.37198
517,44.4017,0.0243378,-3.37057
517.5,44.4514,0.0284721,-3.36935
518,44.5019,0.0213488,-3.36935
518.5,44.5512,0.0212483,-3.36935
519,44.6003,0.0269356,-3.36935
519.5,44.65,0.0264231,-3.36935
520,44.7002,0.0312819,-3.36935
520.5,44.7491,0.0340202,-3.36935
521,44.7982,0.0327222,-3.36985
521.5,44.8482,0.0313098,-3.37034
522,44.897,0.0291863,-3.37034
522.5,44.9477,0.0245064,-3.37034
523,44.9969,0.0229915,-3.37034
523.5,45.0474,0.0312517,-3.37066
524,45.0963,0.023776,-3.37066
524.5,45.1457,0.0337227,-3.37199
525,45.1957,0.0336783,-3.37133
525.5,45.2433,0.0190289,-3.37064
526,45.2952,0.0321643,-3.37067
526.5,45.3455,0.036655,-3.37067
527,45.3949,0.04378,-3.36988
527.5,45.4442,0.0354317,-3.37067
528,45.4933,0.0351166,-3.37108
528.5,45.5434,0.03163,-3.37199
529,45.5934,0.0366685,-3.37199
529.5,45.6418,0.039717,-3.37199
530,45.6921,0.0301716,-3.37199
530.5,45.7425,0.0400718,-3.37197
531,45.7922,0.0379797,-3.37067
531.5,45.843,0.0405786,-3.37067
532,45.8922,0.0457162,-3.37067
532.5,45.9417,0.0497083,-3.37067
533,45.9915,0.0444931,-3.37067
533.5,46.0418,0.0458985,-3.37163
534,46.0921,0.0510222,-3.37198
534.5,46.1422,0.0602409,-3.37198
535,46.19,0.0569156,-3.37198
535.5,46.2414,0.0621784,-3.37198
536,46.2914,0.0576722,-3.37195
536.5,46.3416,0.0592638,-3.37264
537,46.3913,0.0600315,-3.37264
537.5,46.4413,0.0642512,-3.37264
538,46.4909,0.0617934,-3.37264
538.5,46.5403,0.0693578,-3.37264
539,46.5904,0.0632727,-3.37264
539.5,46.6403,0.0701034,-3.37264
540,46.691,0.0649186,-3.37264
540.5,46.7401,0.0723786,-3.37287
541,46.7881,0.0807691,-3.37396
541.5,46.8392,0.0788187,-3.37395
542,46.8897,0.0788226,-3.37415
542.5,46.9396,0.0777943,-3.37462
543,46.9902,0.0771703,-3.37321
543.5,47.0397,0.0835128,-3.3746
544,47.089,0.0856689,-3.37462
544.5,47.1387,0.0850859,-3.37482
545,47.1887,0.0722544,-3.37594
545.5,47.2368,0.0823043,-3.37595
546,47.2868,0.0788677,-3.37462
546.5,47.3375,0.0717504,-3.37512
547,47.3868,0.0835567,-3.37594
547.5,47.4373,0.0822779,-3.37725
548,47.487,0.0887913,-3.37597
548.5,47.5366,0.0858527,-3.37594
549,47.5868,0.0793431,-3.37594
549.5,47.6362,0.0793451,-3.37726
550,47.6862,0.0863605,-3.37726
550.5,47.7357,0.0843718,-3.37726
551,47.7847,0.0839756,-3.37594
551.5,47.8347,0.0832681,-3.37594
552,47.8844,0.0792595,-3.37594
552.5,47.934,0.0871628,-3.37594
553,47.9836,0.0875386,-3.37848
553.5,48.0318,0.0820367,-3.37858
554,48.0828,0.0862967,-3.37858
554.5,48.1332,0.0851252,-3.37725
555,48.1822,0.0831727,-3.37859
555.5,48.2326,0.0861823,-3.37857
556,48.2817,0.0854816,-3.37871
556.5,48.3315,0.0878439,-3.37759
557,48.382,0.0884906,-3.37792
557.5,48.4319,0.0961042,-3.3789
558,48.4816,0.0926585,-3.37957
558.5,48.5311,0.108247,-3.37824
559,48.5803,0.102396,-3.37866
559.5,48.6314,0.110303,-3.37989
560,48.6812,0.108996,-3.37989
560.5,48.7303,0.117352,-3.37989
561,48.7809,0.111967,-3.37989
561.5,48.8303,0.122777,-3.37989
562,48.8808,0.121242,-3.38122
562.5,48.9309,0.122713,-3.38264
563,48.9806,0.131914,-3.38356
563.5,49.0304,0.121905,-3.38376
564,49.0799,0.126943,-3.3829
564.5,49.13,0.124097,-3.38385
565,49.1804,0.11944,-3.38483
565.5,49.2305,0.122196,-3.38483
566,49.2808,0.128669,-3.38483
566.5,49.3308,0.123724,-3.38483
567,49.3805,0.115516,-3.38485
567.5,49.4301,0.108348,-3.38346
568,49.4798,0.103756,-3.38352
568.5,49.5307,0.112002,-3.38482
569,49.578,0.110302,-3.38484
569.5,49.6309,0.0985141,-3.38746
570,49.6796,0.0931673,-3.38747
570.5,49.7306,0.0834754,-3.38747
571,49.7803,0.0674715,-3.38888
571.5,49.8304,0.0644921,-3.38812
572,49.8803,0.0469468,-3.38812
572.5,49.9303,0.045855,-3.38806
573,49.98,0.036309,-3.38746
573.5,50.0305,0.0331023,-3.3877
574,50.0801,0.0141053,-3.38878
574.5,50.1297,0.00675585,-3.38878
575,50.1805,-0.00554229,-3.39033
575.5,50.2301,0.00255044,-3.39142
576,50.2802,-0.000454222,-3.39012
576.5,50.3303,-0.0177111,-3.3901
577,50.3799,-0.0167599,-3.39017
577.5,50.4293,-0.0181016,-3.38944
578,50.4805,-0.0254998,-3.38944
578.5,50.5308,-0.0304138,-3.38945
579,50.5807,-0.0302425,-3.39075
579.5,50.6305,-0.0406328,-3.39076
580,50.6801,-0.0294507,-3.39076
580.5,50.7299,-0.0349136,-3.39076
581,50.7805,-0.032422,-3.3916
581.5,50.8302,-0.034293,-3.39075
582,50.8802,-0.0499744,-3.39076
582.5,50.929,-0.0449944,-3.39076
583,50.9799,-0.0489544,-3.39076
583.5,51.0308,-0.050977,-3.39218
584,51.0806,-0.0461565,-3.39208
584.5,51.13,-0.0500727,-3.39208
585,51.1798,-0.0501179,-3.39209
585.5,51.2312,-0.0512952,-3.39339
586,51.2775,-0.0583261,-3.3934
586.5,51.3304,-0.0456148,-3.39341
587,51.3806,-0.0504417,-3.3947
587.5,51.431,-0.0514891,-3.39334
588,51.4817,-0.0512398,-3.3934
588.5,51.5309,-0.0520714,-3.39334
589,51.5814,-0.0625059,-3.39208
589.5,51.6306,-0.0586515,-3.39208
590,51.6818,-0.0666399,-3.39208
590.5,51.7314,-0.066523,-3.39245
591,51.7811,-0.0646778,-3.39352
591.5,51.8313,-0.0658458,-3.39339
592,51.881,-0.063045,-3.39472
592.5,51.9317,-0.0650739,-3.39474
593,51.9814,-0.0566215,-3.39339
593.5,52.031,-0.0658654,-3.39209
594,52.0811,-0.0630772,-3.39237
594.5,52.1318,-0.0717609,-3.39339
595,52.1821,-0.0535516,-3.39335
595.5,52.232,-0.063076,-3.39339
596,52.282,-0.0632618,-3.39341
596.5,52.3327,-0.0511622,-3.39339
597,52.3829,-0.0539175,-3.39339
597.5,52.4329,-0.0571005,-3.39438
598,52.4831,-0.0616946,-3.39438
598.5,52.5336,-0.0616502,-3.39471
599,52.5835,-0.0612627,-3.39341
599.5,52.6337,-0.0612871,-3.39462
600,52.6838,-0.051783,-3.39476
600.5,52.7344,-0.0687558,-3.39404
601,52.7846,-0.0598431,-3.39473
601.5,52.8347,-0.0573388,-3.39471
602,52.8849,-0.0512528,-3.39471
602.5,52.9353,-0.052531,-3.39471
603,52.9852,-0.0619926,-3.39607
603.5,53.0349,-0.0711121,-3.39603
604,53.0863,-0.0629745,-3.39607
604.5,53.1361,-0.0665979,-3.39471
605,53.187,-0.0561853,-3.39602
605.5,53.2373,-0.0594071,-3.39603
606,53.2877,-0.0552306,-3.39603
606.5,53.3368,-0.0664162,-3.39603
607,53.3873,-0.0601835,-3.39603
607.5,53.4378,-0.0690879,-3.39603
608,53.4877,-0.062614,-3.39603
608.5,53.5382,-0.0546179,-3.39504
609,53.5887,-0.0566664,-3.39504
609.5,53.639,-0.0576155,-3.39504
610,53.6882,-0.0650149,-3.39504
610.5,53.739,-0.0601711,-3.39637
611,53.7895,-0.0596371,-3.39636
611.5,53.8398,-0.0588372,-3.39636
612,53.8904,-0.0645956,-3.39636
612.5,53.9399,-0.0594802,-3.39636
613,53.9896,-0.0631081,-3.39636
613.5,54.0403,-0.0626279,-3.39636
614,54.0907,-0.0662724,-3.3963
614.5,54.1415,-0.0575612,-3.39767
615,54.1909,-0.0605255,-3.39767
615.5,54.242,-0.0629213,-3.39762
616,54.2917,-0.0671628,-3.39866
616.5,54.3426,-0.0679118,-3.39866
617,54.3925,-0.0715163,-3.39866
617.5,54.4431,-0.073907,-3.39866
618,54.4939,-0.0633848,-3.39866
618.5,54.5435,-0.072271,-3.39827
619,54.594,-0.0673018,-3.39866
619.5,54.6454,-0.065329,-3.39866
620,54.6951,-0.0671056,-3.39866
620.5,54.7457,-0.0806304,-3.39742
621,54.7952,-0.0772681,-3.39736
621.5,54.8457,-0.0767739,-3.39867
622,54.8955,-0.0762673,-3.39867
622.5,54.9464,-0.0781351,-3.39933
623,54.9965,-0.0887955,-3.39932
623.5,55.0474,-0.0813075,-3.39932
624,55.0977,-0.0864375,-3.39932
624.5,55.1478,-0.0996496,-3.39932
625,55.1983,-0.0897999,-3.39932
625.5,55.249,-0.0896065,-3.39933
626,55.2982,-0.095352,-3.398
626.5,55.3488,-0.0952484,-3.39801
627,55.3997,-0.0992621,-3.39801
627.5,55.4497,-0.102857,-3.39801
628,55.4998,-0.111539,-3.39801
628.5,55.5499,-0.0998352,-3.39801
629,55.6001,-0.0953678,-3.39801
629.5,55.6502,-0.0980699,-3.39841
630,55.7007,-0.1157,-3.40009
630.5,55.7491,-0.108703,-3.40064
631,55.8011,-0.119394,-3.40064
631.5,55.8514,-0.118744,-3.39999
632,55.9022,-0.121929,-3.39999
632.5,55.9528,-0.109801,-3.39999
633,56.0031,-0.116403,-3.4
633.5,56.0539,-0.112848,-3.40066
634,56.1037,-0.113889,-3.40041
634.5,56.1531,-0.116414,-3.39965
635,56.2037,-0.133066,-3.39965
635.5,56.2553,-0.131188,-3.39965
636,56.3043,-0.12931,-3.39965
636.5,56.3529,-0.122658,-3.39965
637,56.4055,-0.126237,-3.40033
637.5,56.4543,-0.123604,-3.40031
638,56.5063,-0.132161,-3.40031
638.5,56.556,-0.134056,-3.40031
639,56.6071,-0.128274,-3.40041
639.5,56.657,-0.142395,-3.39899
640,56.708,-0.145393,-3.39899
640.5,56.7563,-0.132642,-3.39899
641,56.8086,-0.145861,-3.39899
641.5,56.8593,-0.141856,-3.4002
642,56.9103,-0.143695,-3.40163
642.5,56.9598,-0.150831,-3.40137
643,57.0108,-0.150115,-3.40025
643.5,57.0607,-0.157458,-3.39964
644,57.1121,-0.159022,-3.39965
644.5,57.1617,-0.146791,-3.39965
645,57.213,-0.158458,-3.40079
645.5,57.2635,-0.15193,-3.40096
646,57.3136,-0.148473,-3.4015
646.5,57.3622,-0.16239,-3.40031
647,57.4146,-0.155573,-3.40031
647.5,57.4646,-0.157584,-3.40031
648,57.515,-0.156258,-3.40028
648.5,57.566,-0.157192,-3.39899
649,57.6163,-0.143514,-3.39899
649.5,57.6664,-0.1453,-3.39898
650,57.7167,-0.145758,-3.39864
650.5,57.7669,-0.15595,-3.39833
651,57.8178,-0.155166,-3.39833
651.5,57.8685,-0.152929,-3.39833
652,57.9183,-0.153369,-3.39948
652.5,57.9691,-0.153714,-3.39965
653,58.0189,-0.161249,-3.39965
653.5,58.0689,-0.155835,-3.39902
654,58.1197,-0.158641,-3.39798
654.5,58.1704,-0.150916,-3.39801
655,58.2193,-0.159843,-3.39801
655.5,58.2701,-0.159127,-3.39831
656,58.3211,-0.151608,-3.39866
656.5,58.3706,-0.153695,-3.39866
657,58.421,-0.158112,-3.39866
657.5,58.4716,-0.158524,-3.39866
658,58.5215,-0.159165,-3.39866
658.5,58.5727,-0.15758,-3.39866
659,58.6226,-0.155572,-3.39866
659.5,58.6728,-0.156533,-3.39866
660,58.7229,-0.160046,-3.40001
660.5,58.7722,-0.160501,-3.39998
661,58.8227,-0.165051,-3.39998
661.5,58.8731,-0.164278,-3.39993
662,58.9234,-0.166277,-3.39867
662.5,58.9736,-0.157393,-3.39867
663,59.0241,-0.169874,-3.39863
663.5,59.0746,-0.160098,-3.39933
664,59.1247,-0.154316,-3.39933
664.5,59.1746,-0.154802,-3.39933
665,59.2248,-0.152321,-3.39999
665.5,59.276,-0.139346,-3.39873
666,59.3253,-0.139383,-3.39998
666.5,59.3754,-0.143498,-3.40031
667,59.4263,-0.148704,-3.4013
667.5,59.4745,-0.1384,-3.40074
668,59.5271,-0.1456,-3.39866
668.5,59.578,-0.134742,-3.39866
669,59.6278,-0.132489,-3.39866
669.5,59.6781,-0.144857,-3.39866
670,59.7285,-0.134806,-3.39866
670.5,59.7785,-0.132441,-3.39865
671,59.8292,-0.141864,-3.3973
671.5,59.8798,-0.124334,-3.39938
672,59.9302,-0.135593,-3.39944
672.5,59.9809,-0.128229,-3.39998
673,60.0304,-0.124939,-3.39998
673.5,60.0818,-0.126684,-3.39992
674,60.1323,-0.117706,-3.40136
674.5,60.1832,-0.11659,-3.39894
675,60.2339,-0.119716,-3.39899
675.5,60.2846,-0.1188,-3.39899
676,60.3346,-0.116668,-3.39899
676.5,60.3851,-0.118629,-3.39899
677,60.4352,-0.118444,-3.40031
677.5,60.4875,-0.112213,-3.40031
678,60.5368,-0.113197,-3.40031
678.5,60.5886,-0.115171,-3.39901
679,60.6386,-0.122822,-3.39896
679.5,60.6888,-0.127414,-3.40031
680,60.7392,-0.126761,-3.40031
680.5,60.7902,-0.111368,-3.40031
681,60.8404,-0.120272,-3.39926
681.5,60.892,-0.112268,-3.39862
682,60.9417,-0.11942,-3.39866
682.5,60.9919,-0.12347,-3.40002
683,61.0435,-0.113583,-3.39998
683.5,61.0937,-0.128807,-3.39997
684,61.1445,-0.119976,-3.39867
684.5,61.1955,-0.124825,-3.39972
685,61.246,-0.117954,-3.39998
685.5,61.2968,-0.127102,-3.40002
686,61.3471,-0.122908,-3.4013
686.5,61.398,-0.124216,-3.39997
687,61.4476,-0.121141,-3.39996
687.5,61.4985,-0.129349,-3.4013
688,61.5494,-0.125149,-3.4013
688.5,61.6006,-0.123877,-3.40056
689,61.6504,-0.126603,-3.40078
689.5,61.7007,-0.118974,-3.40129
690,61.7522,-0.125453,-3.40129