File: 01_Data/Helmet_Brim_Edging/STA/N2/10K_min/Helmet_Brim_Edging_STA_N2_10KData_241010_R2.csv
Temp./C,Time/min,DSC/(mW/mg),Mass loss/mg
60.0,0.0,1.00672,0.00389126
60.5,0.0613499,1.00466,0.00619958
61,0.117524,1.03206,0.00650374
61.5,0.171878,1.03844,0.00708416
62,0.226591,1.04128,0.00591476
62.5,0.282214,1.06159,0.00582963
63,0.336306,1.07104,0.0047199
63.5,0.391613,1.07836,0.00451377
64,0.444971,1.08926,0.00318045
64.5,0.500647,1.0985,0.00186413
65,0.553436,1.10739,0.00319524
65.5,0.607859,1.11356,0.00337993
66,0.660789,1.12231,0.00197982
66.5,0.715394,1.125,0.00318223
67,0.769028,1.13866,0.00317149
67.5,0.821699,1.13375,0.00318002
68,0.875102,1.13065,0.00455158
68.5,0.928414,1.14117,0.00450005
69,0.980157,1.13989,0.00410377
69.5,1.03383,1.14759,0.0034934
70,1.0866,1.14955,0.00320287
70.5,1.13831,1.16177,0.00327765
71,1.1926,1.16175,0.00414987
71.5,1.24377,1.16022,0.00470393
72,1.29424,1.16643,0.00450036
72.5,1.34902,1.16785,0.00450381
73,1.40012,1.17245,0.00317798
73.5,1.45434,1.17957,0.00338467
74,1.50499,1.17222,0.00392515
74.5,1.55722,1.17832,0.00310327
75,1.60897,1.17898,0.00311507
75.5,1.66002,1.17995,0.0045679
76,1.71137,1.18381,0.00430477
76.5,1.76298,1.18455,0.00450007
77,1.81625,1.19408,0.00450125
77.5,1.8674,1.19675,0.00579592
78,1.91861,1.20249,0.00583037
78.5,1.97076,1.20315,0.00451082
79,2.02223,1.21502,0.00451
79.5,2.07298,1.2157,0.00451004
80,2.12453,1.21938,0.00449645
80.5,2.17739,1.22028,0.00492872
81,2.22625,1.21686,0.00585756
81.5,2.27901,1.22765,0.0058796
82,2.33076,1.22802,0.00581976
82.5,2.38104,1.22767,0.00582
83,2.43155,1.23931,0.00582001
83.5,2.4822,1.2374,0.00581132
84,2.53232,1.24232,0.00450048
84.5,2.58356,1.24673,0.00449988
85,2.63184,1.24875,0.00346842
85.5,2.68503,1.24758,0.00451166
86,2.7361,1.25397,0.00317319
86.5,2.78511,1.25714,0.00318891
87,2.83689,1.26249,0.0045318
87.5,2.88692,1.26279,0.00582291
88,2.93553,1.2624,0.00447812
88.5,2.98776,1.26936,0.00417267
89,3.03639,1.27622,0.00417294
89.5,3.08364,1.27255,0.00450391
90,3.13641,1.27613,0.00449988
90.5,3.18696,1.28316,0.00461466
91,3.23632,1.28248,0.00581279
91.5,3.28711,1.28922,0.00515463
92,3.33525,1.29231,0.00546302
92.5,3.38568,1.29152,0.00581014
93,3.4352,1.28935,0.00550796
93.5,3.48492,1.29764,0.00449976
94,3.53501,1.2953,0.00449105
94.5,3.58404,1.30615,0.00581976
95,3.63301,1.30799,0.00581989
95.5,3.68335,1.30597,0.00503148
96,3.73101,1.31415,0.00449865
96.5,3.78253,1.3134,0.00452636
97,3.82928,1.31739,0.00449993
97.5,3.8797,1.31879,0.00450001
98,3.93036,1.32069,0.0044942
98.5,3.97827,1.32418,0.00582769
99,4.02679,1.31905,0.00581999
99.5,4.07748,1.32621,0.00582
100,4.12714,1.33004,0.0058202
100.5,4.17637,1.33584,0.00566543
101,4.22443,1.33714,0.00519325
101.5,4.27361,1.33697,0.00449834
102,4.32172,1.34845,0.00444399
102.5,4.37075,1.34424,0.00582166
103,4.42118,1.35368,0.00460594
103.5,4.46991,1.35403,0.00449949
104,4.5187,1.35749,0.00449212
104.5,4.56748,1.36369,0.00582704
105,4.61587,1.36635,0.00581999
105.5,4.66449,1.3725,0.00582091
106,4.71269,1.38261,0.00715177
106.5,4.76192,1.38135,0.00713989
107,4.81161,1.39237,0.00716555
107.5,4.86028,1.39057,0.00581862
108,4.90798,1.39225,0.00581826
108.5,4.95694,1.39804,0.00473852
109,5.00606,1.4006,0.0048301
109.5,5.05264,1.4047,0.00501788
110,5.10359,1.40895,0.00614962
110.5,5.15166,1.40753,0.00550607
111,5.20141,1.41704,0.00614282
111.5,5.24921,1.42119,0.00412202
112,5.29779,1.42981,0.00384596
112.5,5.34479,1.43334,0.00522368
113,5.39486,1.43705,0.00520377
113.5,5.44447,1.43766,0.00646873
114,5.49324,1.44661,0.00517306
114.5,5.54151,1.44959,0.00515999
115,5.5908,1.45566,0.00516102
115.5,5.63846,1.46825,0.0061536
116,5.68717,1.46923,0.00519227
116.5,5.73588,1.47346,0.00516038
117,5.78464,1.48165,0.00584324
117.5,5.83286,1.49303,0.0064757
118,5.88126,1.49737,0.00648016
118.5,5.92721,1.49669,0.00514096
119,5.97794,1.50283,0.00646737
119.5,6.02578,1.49083,0.00505177
120,6.0745,1.49329,0.00614711
120.5,6.1234,1.47794,0.00646999
121,6.17229,1.48441,0.00727578
121.5,6.2204,1.47786,0.00778999
122,6.26963,1.47768,0.00778904
122.5,6.31676,1.47719,0.00660946
123,6.36511,1.48079,0.00647781
123.5,6.4133,1.47999,0.00779102
124,6.46199,1.48594,0.00779
124.5,6.50936,1.49508,0.00779
125,6.55904,1.49899,0.00765448
125.5,6.6066,1.49703,0.00705723
126,6.65527,1.50367,0.00788507
126.5,6.7034,1.50952,0.00878902
127,6.75131,1.51093,0.00879
127.5,6.80043,1.51599,0.00878951
128,6.84808,1.50286,0.00911648
128.5,6.89656,1.51825,0.00878277
129,6.94423,1.52622,0.00845838
129.5,6.99306,1.52467,0.00845997
130,7.04105,1.52946,0.00846007
130.5,7.08864,1.53349,0.00840945
131,7.13486,1.53168,0.00977135
131.5,7.18511,1.53915,0.00977359
132,7.23505,1.54777,0.00842439
132.5,7.28203,1.54855,0.00844518
133,7.33036,1.55481,0.00712949
133.5,7.37841,1.56691,0.00713001
134,7.42663,1.56994,0.00713
134.5,7.47555,1.58377,0.00713
135,7.52229,1.59755,0.00713114
135.5,7.57054,1.60158,0.00785717
136,7.61978,1.60723,0.00942978
136.5,7.66793,1.62629,0.00942266
137,7.71635,1.63102,0.00909532
137.5,7.76395,1.63746,0.00910966
138,7.81234,1.65858,0.00931768
138.5,7.86095,1.66821,0.00947717
139,7.90908,1.679,0.00819103
139.5,7.95625,1.69565,0.00677452
140,8.00379,1.71236,0.00812239
140.5,8.0532,1.72411,0.00812
141,8.10171,1.74062,0.00812
141.5,8.14986,1.75828,0.00812038
142,8.19866,1.78496,0.00875768
142.5,8.24575,1.80251,0.0107629
143,8.29404,1.83254,0.0101667
143.5,8.34211,1.84695,0.0107496
144,8.39098,1.87236,0.0107849
144.5,8.43868,1.90515,0.0120669
145,8.48709,1.93159,0.01207
145.5,8.53486,1.95281,0.0120841
146,8.58346,1.98585,0.0107558
146.5,8.63285,2.01266,0.01076
147,8.67873,2.04197,0.01076
147.5,8.72889,2.06828,0.01076
148,8.77525,2.10278,0.01076
148.5,8.82515,2.12558,0.01076
149,8.87384,2.16022,0.01076
149.5,8.92318,2.18858,0.0107616
150,8.97035,2.21083,0.0117371
150.5,9.01908,2.23781,0.0104549
151,9.06643,2.26668,0.010762
151.5,9.11493,2.28269,0.01076
152,9.16164,2.28755,0.0107604
152.5,9.21156,2.29783,0.0116257
153,9.25955,2.30602,0.0127448
153.5,9.30606,2.29267,0.0127403
154,9.35487,2.26972,0.0126144
154.5,9.40245,2.23799,0.0114208
155,9.44847,2.18834,0.0114199
155.5,9.496,2.1302,0.0114417
156,9.54258,2.07471,0.00879514
156.5,9.58909,2.00627,0.00878003
157,9.63719,1.93658,0.00941274
157.5,9.68414,1.88283,0.0101
158,9.73143,1.83062,0.0101001
158.5,9.77886,1.79266,0.0100125
159,9.82572,1.76212,0.0114102
159.5,9.87311,1.72087,0.01141
160,9.92043,1.70931,0.01141
160.5,9.96875,1.68656,0.0114136
161,10.0127,1.66996,0.0127437
161.5,10.063,1.66391,0.012729
162,10.1105,1.65432,0.0114556
162.5,10.1584,1.65396,0.0114099
163,10.2059,1.6513,0.01141
163.5,10.2542,1.64869,0.0114104
164,10.3014,1.64807,0.0101027
164.5,10.3489,1.64513,0.0101
165,10.397,1.64661,0.0101
165.5,10.444,1.64369,0.0101
166,10.4921,1.64287,0.0101095
166.5,10.5383,1.64402,0.0114066
167,10.5867,1.65019,0.01142
167.5,10.6345,1.65812,0.0114203
168,10.6812,1.65913,0.0124466
168.5,10.7304,1.65882,0.012418
169,10.7767,1.66391,0.0124149
169.5,10.8253,1.66856,0.0114208
170,10.8732,1.66054,0.01142
170.5,10.9202,1.6539,0.0114199
171,10.9688,1.66257,0.0114717
171.5,11.0163,1.6609,0.0104291
172,11.0637,1.66377,0.01043
172.5,11.1118,1.66482,0.01043
173,11.1595,1.66287,0.0104301
173.5,11.2063,1.67279,0.0109697
174,11.2541,1.67332,0.01175
174.5,11.3014,1.67671,0.0117485
175,11.3482,1.6795,0.0107489
175.5,11.3961,1.67349,0.01076
176,11.4448,1.67491,0.01211
176.5,11.4922,1.67867,0.0120801
177,11.5405,1.67982,0.011782
177.5,11.587,1.68262,0.0113228
178,11.6341,1.68961,0.0104307
178.5,11.6832,1.6833,0.0104299
179,11.7305,1.68976,0.00941156
179.5,11.778,1.68981,0.00910954
180,11.8268,1.69071,0.00907877
180.5,11.8737,1.68733,0.0104388
181,11.9207,1.69211,0.0101
181.5,11.9685,1.68395,0.0101
182,12.0151,1.69372,0.010099
182.5,12.0642,1.69414,0.0110906
183,12.1116,1.69516,0.01043
183.5,12.1589,1.69097,0.01043
184,12.2066,1.70161,0.0104295
184.5,12.2534,1.69988,0.0107508
185,12.3023,1.7017,0.01174
185.5,12.3493,1.70539,0.0104354
186,12.3974,1.70301,0.0104301
186.5,12.4446,1.70966,0.0104079
187,12.4913,1.71052,0.011742
187.5,12.5395,1.71395,0.0107588
188,12.5867,1.71921,0.01043
188.5,12.6353,1.71078,0.0104303
189,12.6818,1.71501,0.0104671
189.5,12.7287,1.71496,0.00910947
190,12.7766,1.71255,0.00910491
190.5,12.8247,1.71397,0.0104324
191,12.8727,1.70954,0.01043
191.5,12.9193,1.71686,0.0104295
192,12.9679,1.7177,0.010723
192.5,13.0139,1.72269,0.01175
193,13.0627,1.72421,0.0117542
193.5,13.1099,1.72181,0.0104217
194,13.1573,1.72338,0.01043
194.5,13.2047,1.72215,0.0104301
195,13.2525,1.72749,0.0107143
195.5,13.2988,1.73071,0.0107649
196,13.3461,1.7315,0.0107442
196.5,13.3932,1.74027,0.0107774
197,13.4419,1.73804,0.0120778
197.5,13.4892,1.73394,0.01208
198,13.5373,1.73612,0.01208
198.5,13.5832,1.74421,0.01208
199,13.6322,1.74778,0.0120837
199.5,13.6796,1.74317,0.0107615
200,13.7269,1.74308,0.0107471
200.5,13.7739,1.74541,0.00945663
201,13.822,1.74732,0.00944003
201.5,13.8693,1.74583,0.00946781
202,13.9173,1.74139,0.0120635
202.5,13.9644,1.7397,0.01208
203,14.0128,1.74671,0.010871
203.5,14.0592,1.74859,0.0107595
204,14.1069,1.74388,0.0107532
204.5,14.1547,1.76031,0.0108132
205,14.2019,1.75421,0.01076
205.5,14.2489,1.76044,0.0107511
206,14.2969,1.76977,0.0104273
206.5,14.3441,1.767,0.0104297
207,14.3918,1.7718,0.0105061
207.5,14.4394,1.76312,0.0117505
208,14.4866,1.76784,0.01175
208.5,14.5344,1.76743,0.01175
209,14.5815,1.77329,0.01175
209.5,14.6284,1.77049,0.0117525
210,14.6762,1.77517,0.0104292
210.5,14.7231,1.78007,0.0100083
211,14.7716,1.77395,0.00943955
211.5,14.8189,1.77601,0.00943997
212,14.8658,1.77799,0.00944642
212.5,14.9135,1.78146,0.0104207
213,14.9601,1.77466,0.01042
213.5,15.0086,1.78759,0.01042
214,15.0551,1.78437,0.01042
214.5,15.1029,1.7868,0.0104136
215,15.1506,1.79233,0.0100837
215.5,15.1977,1.78911,0.00943583
216,15.242,1.7932,0.00943999
216.5,15.293,1.79701,0.00944
217,15.3401,1.79555,0.00943589
217.5,15.388,1.79228,0.0104348
218,15.4349,1.79326,0.0100981
218.5,15.4821,1.79572,0.0101
219,15.5301,1.79905,0.01062
219.5,15.5774,1.80265,0.0117748
220,15.624,1.80174,0.0134922
220.5,15.6725,1.80813,0.0138347
221,15.7199,1.81119,0.0125519
221.5,15.7672,1.81204,0.0112003
222,15.8145,1.81208,0.0112
222.5,15.8629,1.80412,0.0112
223,15.9086,1.82009,0.0112
223.5,15.9575,1.80969,0.0111987
224,16.0048,1.82681,0.0101578
224.5,16.0516,1.81936,0.00988998
225,16.0971,1.82233,0.00849237
225.5,16.1449,1.81632,0.00725118
226,16.1942,1.81332,0.00724999
226.5,16.2419,1.82475,0.00725
227,16.2897,1.82723,0.00725
227.5,16.3377,1.8294,0.00725
228,16.3838,1.82615,0.00725
228.5,16.4328,1.83028,0.00724999
229,16.4803,1.83306,0.00726223
229.5,16.5274,1.83652,0.00855626
230,16.5746,1.83149,0.00857001
230.5,16.6236,1.83116,0.00857048
231,16.671,1.83262,0.00983607
231.5,16.7183,1.83514,0.00988313
232,16.7671,1.83629,0.00852662
232.5,16.8141,1.83736,0.00856856
233,16.8612,1.83895,0.00725109
233.5,16.9079,1.84233,0.00725001
234,16.955,1.84098,0.00597781
234.5,17.0041,1.84226,0.00592957
235,17.0516,1.83974,0.0059082
235.5,17.0989,1.83842,0.00512364
236,17.1477,1.84289,0.00592976
236.5,17.1949,1.84329,0.00593
237,17.2416,1.84287,0.00592993
237.5,17.2879,1.84292,0.00594314
238,17.3386,1.84525,0.00461682
238.5,17.3852,1.83975,0.00395958
239,17.4332,1.84314,0.00395162
239.5,17.4782,1.84791,0.00503998
240,17.5279,1.84999,0.0052845
240.5,17.5746,1.85913,0.00658193
241,17.6236,1.85348,0.00659002
241.5,17.6712,1.84845,0.00659
242,17.7182,1.85591,0.00659
242.5,17.7659,1.85396,0.00659
243,17.8141,1.8571,0.00658995
243.5,17.8605,1.85375,0.00656916
244,17.9083,1.85857,0.00460696
244.5,17.9556,1.8568,0.00460998
245,18.0038,1.86346,0.00461635
245.5,18.0517,1.85768,0.00326398
246,18.0992,1.86143,0.00213371
246.5,18.1468,1.86187,0.00197983
247,18.1925,1.86308,0.00198
247.5,18.2412,1.86674,0.00197994
248,18.2893,1.86724,0.00207964
248.5,18.3365,1.87657,0.00163767
249,18.3839,1.87494,0.00163893
249.5,18.4335,1.87445,0.000334957
250,18.4795,1.88192,-0.000367196
250.5,18.5275,1.88177,0.00032936
251,18.575,1.87569,0.000315922
251.5,18.622,1.88096,-0.000985388
252,18.6705,1.88278,-0.00226443
252.5,18.7181,1.88174,-0.00362205
253,18.7654,1.88482,-0.00362582
253.5,18.8128,1.89415,-0.00230399
254,18.8607,1.89249,-0.00232647
254.5,18.9078,1.89088,-0.00371366
255,18.956,1.89609,-0.0026519
255.5,19.0036,1.89827,-0.00230987
256,19.0512,1.90128,-0.00231001
256.5,19.0985,1.90652,-0.00230632
257,19.1454,1.90671,-0.00364014
257.5,19.1936,1.89772,-0.00493521
258,19.2412,1.90267,-0.00503388
258.5,19.2892,1.89924,-0.00526172
259,19.3367,1.90897,-0.00659662
259.5,19.3846,1.9109,-0.00727932
260,19.4325,1.91231,-0.00755671
260.5,19.4795,1.91057,-0.00756989
261,19.5276,1.92084,-0.00757
261.5,19.5749,1.91873,-0.00756996
262,19.6223,1.92013,-0.00752411
262.5,19.6704,1.91863,-0.0088927
263,19.718,1.92508,-0.00883394
263.5,19.7657,1.92666,-0.0102102
264,19.8133,1.92336,-0.0102097
264.5,19.861,1.9229,-0.0115885
265,19.908,1.9268,-0.0115299
265.5,19.9564,1.93453,-0.0115301
266,20.0043,1.94077,-0.0115269
266.5,20.0521,1.93711,-0.0128391
267,20.0995,1.93426,-0.0137444
267.5,20.1473,1.93788,-0.0134394
268,20.1953,1.94126,-0.0148827
268.5,20.243,1.94676,-0.0148201
269,20.2914,1.94537,-0.01482
269.5,20.3379,1.94398,-0.0148126
270,20.3856,1.95176,-0.0162551
270.5,20.4328,1.95299,-0.017571
271,20.4814,1.95527,-0.0188653
271.5,20.5282,1.95255,-0.0202052
272,20.5758,1.9587,-0.0201767
272.5,20.6236,1.96207,-0.0228377
273,20.6715,1.96161,-0.0226889
273.5,20.7202,1.96095,-0.0228303
274,20.7666,1.9733,-0.0228298
274.5,20.8149,1.96797,-0.0241922
275,20.8608,1.96985,-0.0241501
275.5,20.9101,1.97866,-0.0244824
276,20.9569,1.98094,-0.025433
276.5,21.0066,1.97915,-0.026785
277,21.0498,1.98313,-0.0278052
277.5,21.1009,1.98475,-0.0294879
278,21.1497,1.98614,-0.0308411
278.5,21.1962,1.99231,-0.0320392
279,21.2444,1.99586,-0.0320376
279.5,21.292,1.9968,-0.0320462
280,21.3404,1.99834,-0.0328195
280.5,21.3878,2.01249,-0.0337453
281,21.4355,2.01269,-0.035002
281.5,21.4831,2.01725,-0.0363372
282,21.5304,2.01934,-0.0377471
282.5,21.5779,2.01518,-0.0376916
283,21.6266,2.0191,-0.0389906
283.5,21.6741,2.01886,-0.0392904
284,21.7224,2.03017,-0.0407862
284.5,21.7677,2.02753,-0.0428086
285,21.8186,2.0254,-0.0440808
285.5,21.8662,2.03291,-0.0453896
286,21.9136,2.03224,-0.0466235
286.5,21.961,2.03443,-0.0473487
287,22.0095,2.03658,-0.0479841
287.5,22.057,2.04042,-0.0503523
288,22.1049,2.047,-0.0510024
288.5,22.1537,2.05017,-0.0520822
289,22.2009,2.04987,-0.0530951
289.5,22.2486,2.05213,-0.0543744
290,22.2961,2.05723,-0.055667
290.5,22.3438,2.06204,-0.0570985
291,22.3921,2.06447,-0.0584288
291.5,22.4393,2.05567,-0.0604901
292,22.4881,2.06404,-0.0630104
292.5,22.536,2.06932,-0.064325
293,22.5836,2.07427,-0.0656481
293.5,22.6318,2.07151,-0.0673725
294,22.6796,2.07729,-0.0690203
294.5,22.7269,2.07983,-0.0712371
295,22.7742,2.08281,-0.0725681
295.5,22.8231,2.0936,-0.0746676
296,22.8702,2.0947,-0.0755056
296.5,22.9172,2.09934,-0.0767475
297,22.9644,2.09826,-0.0781702
297.5,23.0139,2.10252,-0.0800079
298,23.0604,2.10879,-0.0825213
298.5,23.109,2.10572,-0.0858761
299,23.1563,2.11061,-0.085938
299.5,23.2048,2.11825,-0.0887564
300,23.2532,2.12334,-0.0900393
300.5,23.3009,2.1246,-0.0919496
301,23.3486,2.13072,-0.0934704
301.5,23.3966,2.13241,-0.0964049
302,23.4446,2.13549,-0.0982961
302.5,23.4923,2.13868,-0.101591
303,23.5392,2.15024,-0.104945
303.5,23.5873,2.15329,-0.10664
304,23.6365,2.16364,-0.108031
304.5,23.6838,2.16837,-0.111189
305,23.732,2.16964,-0.113807
305.5,23.7802,2.1815,-0.115997
306,23.8275,2.18405,-0.11956
306.5,23.8756,2.19886,-0.121723
307,23.9235,2.19788,-0.123432
307.5,23.9712,2.21248,-0.126747
308,24.0191,2.21525,-0.130961
308.5,24.0674,2.22588,-0.133744
309,24.1151,2.22896,-0.135146
309.5,24.1632,2.23722,-0.137848
310,24.2118,2.24939,-0.141097
310.5,24.2597,2.25842,-0.144099
311,24.308,2.26299,-0.147227
311.5,24.355,2.26536,-0.149572
312,24.404,2.26969,-0.151931
312.5,24.4519,2.2727,-0.156041
313,24.4994,2.2779,-0.159977
313.5,24.5478,2.27331,-0.164544
314,24.595,2.24733,-0.16774
314.5,24.6438,2.22203,-0.171759
315,24.6903,2.17668,-0.174566
315.5,24.7361,2.1432,-0.178295
316,24.7853,2.10228,-0.181811
316.5,24.8329,2.07715,-0.185198
317,24.8814,2.05589,-0.189228
317.5,24.9283,2.04546,-0.194215
318,24.9764,2.03375,-0.198809
318.5,25.0249,2.02658,-0.203759
319,25.0722,2.02906,-0.207801
319.5,25.1203,2.02366,-0.210495
320,25.1686,2.0261,-0.214651
320.5,25.2162,2.02728,-0.220385
321,25.2636,2.03155,-0.224812
321.5,25.3124,2.02183,-0.228503
322,25.36,2.02876,-0.233725
322.5,25.4082,2.02874,-0.23909
323,25.4577,2.02652,-0.242728
323.5,25.5049,2.03089,-0.24879
324,25.5535,2.03248,-0.253953
324.5,25.6017,2.03312,-0.261578
325,25.6488,2.03347,-0.266565
325.5,25.6978,2.04255,-0.271497
326,25.7458,2.045,-0.278147
326.5,25.7934,2.04714,-0.282914
327,25.8419,2.04866,-0.289287
327.5,25.8894,2.04897,-0.295192
328,25.9383,2.05325,-0.303011
328.5,25.9877,2.0555,-0.310185
329,26.0342,2.06227,-0.315418
329.5,26.0822,2.06075,-0.322043
330,26.1314,2.06549,-0.32872
330.5,26.1795,2.06657,-0.335687
331,26.2273,2.07256,-0.343343
331.5,26.2766,2.06904,-0.350384
332,26.3241,2.06906,-0.35889
332.5,26.3719,2.073,-0.366618
333,26.4196,2.07584,-0.37317
333.5,26.4684,2.08096,-0.380221
334,26.5171,2.07375,-0.388337
334.5,26.565,2.07744,-0.396166
335,26.6126,2.0734,-0.404789
335.5,26.6606,2.07196,-0.41274
336,26.7087,2.07408,-0.421317
336.5,26.7575,2.0753,-0.429569
337,26.8055,2.07861,-0.438018
337.5,26.8536,2.07601,-0.446652
338,26.902,2.07652,-0.45696
338.5,26.9504,2.0832,-0.466452
339,26.9977,2.07861,-0.47606
339.5,27.0469,2.08546,-0.487052
340,27.0952,2.07888,-0.496075
340.5,27.144,2.08432,-0.506493
341,27.1892,2.08045,-0.515697
341.5,27.2391,2.07705,-0.526596
342,27.2885,2.07908,-0.537481
342.5,27.3359,2.06822,-0.549134
343,27.3835,2.0632,-0.563461
343.5,27.4321,2.06047,-0.576038
344,27.4811,2.05364,-0.589033
344.5,27.5289,2.05166,-0.601089
345,27.5773,2.04409,-0.61365
345.5,27.6263,2.04358,-0.626057
346,27.6743,2.03085,-0.638666
346.5,27.7225,2.03282,-0.652821
347,27.7707,2.02312,-0.667262
347.5,27.8187,2.01195,-0.679347
348,27.8649,2.0109,-0.693542
348.5,27.914,2.00643,-0.708446
349,27.9623,2.0022,-0.726185
349.5,28.0098,1.99387,-0.741861
350,28.0599,1.97651,-0.759459
350.5,28.1088,1.97529,-0.778388
351,28.1569,1.96357,-0.793129
351.5,28.2052,1.96423,-0.810847
352,28.2535,1.95965,-0.827925
352.5,28.3015,1.94778,-0.846714
353,28.3501,1.94162,-0.866444
353.5,28.397,1.94189,-0.886211
354,28.4465,1.94053,-0.90587
354.5,28.4941,1.94245,-0.92657
355,28.5416,1.94643,-0.946667
355.5,28.5912,1.9395,-0.967964
356,28.64,1.94714,-0.988933
356.5,28.6879,1.94411,-1.01096
357,28.7363,1.95015,-1.03221
357.5,28.7849,1.95299,-1.05464
358,28.8312,1.95024,-1.07366
358.5,28.8807,1.9534,-1.09933
359,28.9296,1.94566,-1.12077
359.5,28.9784,1.94267,-1.14471
360,29.0255,1.94634,-1.16503
360.5,29.0749,1.93145,-1.18921
361,29.1227,1.92862,-1.20844
361.5,29.1722,1.92672,-1.22953
362,29.2198,1.91646,-1.24838
362.5,29.2684,1.91117,-1.26809
363,29.3161,1.90226,-1.28755
363.5,29.3654,1.89478,-1.30582
364,29.4133,1.88207,-1.32331
364.5,29.4615,1.87374,-1.3419
365,29.51,1.86948,-1.35824
365.5,29.5587,1.86616,-1.3744
366,29.6063,1.85911,-1.39038
366.5,29.6543,1.84336,-1.40572
367,29.7031,1.83977,-1.42071
367.5,29.7518,1.83172,-1.43489
368,29.7997,1.82283,-1.44896
368.5,29.8459,1.81447,-1.46209
369,29.8967,1.812,-1.47598
369.5,29.9442,1.79807,-1.48868
370,29.9934,1.78531,-1.50186
370.5,30.0414,1.77995,-1.51427
371,30.0901,1.76682,-1.52458
371.5,30.1381,1.76352,-1.53572
372,30.1867,1.75346,-1.54628
372.5,30.2348,1.73352,-1.55699
373,30.2838,1.73374,-1.56694
373.5,30.3314,1.72616,-1.57555
374,30.3803,1.71518,-1.58522
374.5,30.4277,1.70341,-1.59474
375,30.4754,1.69331,-1.60275
375.5,30.5255,1.69009,-1.61114
376,30.5746,1.68461,-1.61907
376.5,30.622,1.67096,-1.62851
377,30.6709,1.65961,-1.63662
377.5,30.7193,1.65764,-1.64424
378,30.7671,1.65165,-1.65168
378.5,30.8166,1.63882,-1.65915
379,30.8641,1.6327,-1.66749
379.5,30.9129,1.62625,-1.67527
380,30.9608,1.62609,-1.68255
380.5,31.0099,1.61279,-1.69061
381,31.0582,1.61357,-1.69741
381.5,31.1073,1.60557,-1.70531
382,31.1557,1.59954,-1.71198
382.5,31.2028,1.59545,-1.71754
383,31.2501,1.58624,-1.72435
383.5,31.2999,1.58288,-1.73317
384,31.3493,1.57905,-1.73918
384.5,31.397,1.57392,-1.7439
385,31.4452,1.56781,-1.75062
385.5,31.4935,1.56563,-1.7573
386,31.5431,1.55791,-1.76268
386.5,31.5915,1.55876,-1.76809
387,31.64,1.55032,-1.77476
387.5,31.6883,1.54455,-1.78115
388,31.7346,1.53847,-1.78751
388.5,31.7854,1.53688,-1.79375
389,31.8336,1.5388,-1.80116
389.5,31.8825,1.53518,-1.80705
390,31.9312,1.52854,-1.81328
390.5,31.9801,1.52777,-1.8188
391,32.0283,1.51825,-1.82375
391.5,32.0767,1.52005,-1.83026
392,32.1256,1.51042,-1.83603
392.5,32.1739,1.51471,-1.8408
393,32.2226,1.50372,-1.84616
393.5,32.2712,1.50679,-1.85022
394,32.3203,1.50172,-1.85623
394.5,32.3686,1.49556,-1.86191
395,32.4171,1.49032,-1.86906
395.5,32.4651,1.48988,-1.87508
396,32.514,1.48334,-1.88079
396.5,32.5622,1.48357,-1.88574
397,32.6105,1.48218,-1.89108
397.5,32.6601,1.47954,-1.89653
398,32.7086,1.48551,-1.90167
398.5,32.7569,1.48248,-1.90752
399,32.8059,1.48189,-1.91213
399.5,32.8545,1.47874,-1.91731
400,32.9035,1.48194,-1.92188
400.5,32.952,1.4761,-1.92708
401,33.0013,1.47354,-1.93173
401.5,33.05,1.47781,-1.93638
402,33.0987,1.48033,-1.94011
402.5,33.1474,1.47558,-1.94744
403,33.1949,1.47366,-1.95214
403.5,33.2458,1.47158,-1.95734
404,33.2907,1.48078,-1.9618
404.5,33.3417,1.48442,-1.9681
405,33.3903,1.48171,-1.97316
405.5,33.44,1.48172,-1.97949
406,33.4887,1.48385,-1.98636
406.5,33.5379,1.48696,-1.98957
407,33.5863,1.47694,-1.99598
407.5,33.6364,1.48056,-2.00181
408,33.6848,1.47871,-2.00801
408.5,33.7334,1.48213,-2.01296
409,33.7824,1.48239,-2.01841
409.5,33.8311,1.47851,-2.02529
410,33.8794,1.48353,-2.02976
410.5,33.9276,1.48164,-2.03424
411,33.9786,1.48785,-2.03951
411.5,34.0254,1.48676,-2.04453
412,34.0756,1.49169,-2.04989
412.5,34.1242,1.4954,-2.05426
413,34.1735,1.48821,-2.05978
413.5,34.222,1.49074,-2.06304
414,34.2717,1.49501,-2.06862
414.5,34.3208,1.49581,-2.0727
415,34.3695,1.49404,-2.07805
415.5,34.4173,1.50204,-2.08397
416,34.4669,1.50724,-2.09036
416.5,34.5156,1.50037,-2.09428
417,34.5643,1.50676,-2.09907
417.5,34.6126,1.50325,-2.10485
418,34.6619,1.50105,-2.11096
418.5,34.7107,1.5075,-2.11712
419,34.76,1.50685,-2.12235
419.5,34.8082,1.50707,-2.1281
420,34.8576,1.51067,-2.13369
420.5,34.9058,1.51001,-2.14014
421,34.9543,1.5149,-2.14331
421.5,35.0033,1.51594,-2.14978
422,35.0527,1.52372,-2.1551
422.5,35.1014,1.51586,-2.16301
423,35.1509,1.51786,-2.16832
423.5,35.2003,1.52227,-2.17426
424,35.2477,1.52338,-2.18066
424.5,35.2977,1.52904,-2.18709
425,35.3465,1.52546,-2.19177
425.5,35.3959,1.53372,-2.19751
426,35.4453,1.52986,-2.20333
426.5,35.4932,1.5405,-2.2093
427,35.5434,1.54705,-2.21557
427.5,35.5917,1.54816,-2.22172
428,35.6383,1.55837,-2.22656
428.5,35.6896,1.56284,-2.23323
429,35.7382,1.56338,-2.24107
429.5,35.7877,1.56709,-2.24734
430,35.8364,1.56817,-2.25494
430.5,35.8862,1.56975,-2.26243
431,35.935,1.58029,-2.26879
431.5,35.9842,1.58737,-2.27526
432,36.0342,1.59777,-2.28193
432.5,36.0837,1.59676,-2.28703
433,36.1328,1.60088,-2.29385
433.5,36.181,1.60211,-2.30309
434,36.2301,1.60264,-2.31012
434.5,36.2798,1.6065,-2.31691
435,36.3287,1.61921,-2.32399
435.5,36.3789,1.63052,-2.33061
436,36.427,1.62596,-2.33838
436.5,36.4769,1.64341,-2.3444
437,36.5239,1.65984,-2.35184
437.5,36.575,1.65899,-2.359
438,36.6246,1.67955,-2.36834
438.5,36.6734,1.67684,-2.37644
439,36.7225,1.69053,-2.38562
439.5,36.7711,1.6875,-2.39264
440,36.82,1.69674,-2.39948
440.5,36.8692,1.69846,-2.40833
441,36.9195,1.70801,-2.41706
441.5,36.968,1.70888,-2.42601
442,37.0181,1.71594,-2.43534
442.5,37.0678,1.7094,-2.44481
443,37.116,1.72257,-2.45405
443.5,37.1652,1.72809,-2.46158
444,37.2136,1.72874,-2.47116
444.5,37.2637,1.7325,-2.48202
445,37.3127,1.7314,-2.49206
445.5,37.3623,1.74084,-2.50056
446,37.4115,1.73867,-2.50914
446.5,37.4609,1.74495,-2.52049
447,37.5096,1.75229,-2.52961
447.5,37.5559,1.74981,-2.53908
448,37.6081,1.76082,-2.54999
448.5,37.6571,1.76478,-2.56317
449,37.7059,1.76744,-2.57414
449.5,37.756,1.76678,-2.58481
450,37.8048,1.76721,-2.59469
450.5,37.854,1.76575,-2.60686
451,37.9032,1.77353,-2.61749
451.5,37.9521,1.77361,-2.62836
452,38.0011,1.77779,-2.63764
452.5,38.0511,1.78219,-2.64841
453,38.0995,1.77975,-2.66061
453.5,38.1488,1.77111,-2.67159
454,38.1982,1.77376,-2.68235
454.5,38.2478,1.77269,-2.69379
455,38.296,1.77364,-2.7063
455.5,38.3454,1.76883,-2.7187
456,38.3943,1.76982,-2.73068
456.5,38.444,1.76295,-2.7445
457,38.4923,1.75903,-2.75736
457.5,38.5421,1.74745,-2.76829
458,38.5902,1.74354,-2.77962
458.5,38.6406,1.7345,-2.79234
459,38.6888,1.72159,-2.80605
459.5,38.7371,1.72108,-2.81872
460,38.7871,1.70259,-2.83078
460.5,38.8358,1.68538,-2.84398
461,38.8855,1.68849,-2.85703
461.5,38.9344,1.6611,-2.87003
462,38.9838,1.65688,-2.8825
462.5,39.0329,1.64584,-2.89476
463,39.0803,1.62875,-2.90629
463.5,39.1306,1.61647,-2.92186
464,39.1804,1.60783,-2.93358
464.5,39.2299,1.59005,-2.94652
465,39.2785,1.57441,-2.95837
465.5,39.3273,1.55538,-2.97277
466,39.3773,1.53506,-2.98493
466.5,39.4261,1.52144,-2.99798
467,39.4752,1.50147,-3.01005
467.5,39.5239,1.4785,-3.02212
468,39.5738,1.45366,-3.03575
468.5,39.6208,1.43679,-3.04635
469,39.6723,1.40975,-3.05754
469.5,39.7209,1.38514,-3.06994
470,39.7702,1.35518,-3.08189
470.5,39.8193,1.33071,-3.09351
471,39.8679,1.30515,-3.1044
471.5,39.9176,1.26706,-3.11614
472,39.9662,1.24627,-3.12696
472.5,40.0136,1.22029,-3.13793
473,40.065,1.18526,-3.14807
473.5,40.1145,1.1572,-3.15951
474,40.1634,1.12985,-3.16914
474.5,40.2128,1.08424,-3.17804
475,40.2617,1.06717,-3.18824
475.5,40.3103,1.03899,-3.19694
476,40.359,1.00265,-3.20595
476.5,40.4079,0.975483,-3.21297
477,40.4565,0.948488,-3.21953
477.5,40.506,0.909794,-3.22789
478,40.5554,0.87077,-3.23527
478.5,40.6041,0.847082,-3.24233
479,40.652,0.815462,-3.24962
479.5,40.7013,0.783152,-3.25592
480,40.7512,0.748451,-3.26316
480.5,40.8004,0.720551,-3.27011
481,40.8489,0.693449,-3.27376
481.5,40.8975,0.67189,-3.27931
482,40.9462,0.635169,-3.28394
482.5,40.9957,0.62504,-3.28844
483,41.0441,0.593566,-3.29206
483.5,41.0935,0.563373,-3.29749
484,41.1426,0.548508,-3.29948
484.5,41.1915,0.526075,-3.30274
485,41.2384,0.50098,-3.30543
485.5,41.2894,0.483051,-3.30797
486,41.339,0.468679,-3.31085
486.5,41.3863,0.448336,-3.31352
487,41.4374,0.436785,-3.31748
487.5,41.4864,0.431032,-3.32005
488,41.5351,0.416188,-3.32125
488.5,41.5843,0.406786,-3.32315
489,41.6346,0.397605,-3.32434
489.5,41.6833,0.39263,-3.32432
490,41.7329,0.386141,-3.32709
490.5,41.7821,0.379709,-3.32723
491,41.8311,0.366044,-3.3276
491.5,41.8803,0.357937,-3.32851
492,41.9306,0.351597,-3.3298
492.5,41.9795,0.345297,-3.32985
493,42.0287,0.344705,-3.33114
493.5,42.0785,0.3388,-3.33243
494,42.1271,0.333281,-3.33191
494.5,42.1761,0.323493,-3.33161
495,42.2264,0.325876,-3.33403
495.5,42.2759,0.322711,-3.33483
496,42.3251,0.316194,-3.33588
496.5,42.3755,0.316304,-3.3362
497,42.4238,0.303346,-3.33486
497.5,42.4734,0.31234,-3.33586
498,42.5226,0.313095,-3.33587
498.5,42.5721,0.308685,-3.33619
499,42.6214,0.305031,-3.33757
499.5,42.6703,0.301621,-3.33693
500,42.7202,0.297761,-3.33619
500.5,42.7708,0.291798,-3.33619
501,42.819,0.294782,-3.33619
501.5,42.869,0.291701,-3.33619
502,42.9185,0.29793,-3.33619
502.5,42.9685,0.292629,-3.33621
503,43.0179,0.291002,-3.33751
503.5,43.0668,0.290197,-3.33751
504,43.1161,0.293308,-3.33833
504.5,43.1673,0.293682,-3.33883
505,43.2156,0.286815,-3.33883
505.5,43.2657,0.28275,-3.33883
506,43.3158,0.289147,-3.33883
506.5,43.364,0.290091,-3.33882
507,43.414,0.287808,-3.33752
507.5,43.464,0.285267,-3.33751
508,43.5143,0.285803,-3.33751
508.5,43.5636,0.285595,-3.3376
509,43.6125,0.287521,-3.33616
509.5,43.6632,0.285335,-3.33718
510,43.7127,0.280128,-3.33717
510.5,43.7621,0.278103,-3.33849
511,43.8116,0.27648,-3.33913
511.5,43.8613,0.279102,-3.33915
512,43.911,0.280037,-3.33793
512.5,43.9586,0.278127,-3.33707
513,44.0107,0.272228,-3.3363
513.5,44.0599,0.271539,-3.3363
514,44.1095,0.276392,-3.3363
514.5,44.1591,0.280546,-3.33765
515,44.2086,0.274717,-3.33627
515.5,44.2587,0.274193,-3.33622
516,44.308,0.278018,-3.33758
516.5,44.3583,0.276255,-3.33894
517,44.4081,0.268713,-3.34025
517.5,44.4585,0.273429,-3.34024
518,44.5079,0.279718,-3.33948
518.5,44.5577,0.273345,-3.3403
519,44.607,0.273555,-3.34026
519.5,44.6568,0.274037,-3.34026
520,44.7056,0.279622,-3.34026
520.5,44.7567,0.276817,-3.3382
521,44.8068,0.282021,-3.33762
521.5,44.8566,0.274406,-3.33762
522,44.906,0.278342,-3.33762
522.5,44.9559,0.278841,-3.33762
523,45.0061,0.279639,-3.33762
523.5,45.0549,0.280252,-3.33762
524,45.1047,0.279993,-3.33762
524.5,45.1551,0.278606,-3.33762
525,45.2044,0.278415,-3.33763
525.5,45.2538,0.278025,-3.33861
526,45.3027,0.282414,-3.33993
526.5,45.3521,0.281054,-3.3399
527,45.4032,0.286327,-3.33861
527.5,45.453,0.279574,-3.33927
528,45.5023,0.285897,-3.33828
528.5,45.5526,0.279819,-3.33828
529,45.6019,0.291067,-3.33828
529.5,45.6513,0.29048,-3.33742
530,45.7012,0.304416,-3.33728
530.5,45.7503,0.303059,-3.33862
531,45.8011,0.296103,-3.33861
531.5,45.85,0.303766,-3.33861
532,45.9006,0.305431,-3.33861
532.5,45.9495,0.302905,-3.33861
533,46.0008,0.310612,-3.33894
533.5,46.0491,0.318871,-3.3396
534,46.0997,0.311638,-3.3396
534.5,46.1495,0.321133,-3.3396
535,46.1998,0.318043,-3.33953
535.5,46.2483,0.320266,-3.33961
536,46.2987,0.321688,-3.33824
536.5,46.3486,0.325738,-3.33827
537,46.3984,0.328824,-3.3379
537.5,46.4482,0.325373,-3.33762
538,46.4985,0.33254,-3.33762
538.5,46.5483,0.325072,-3.33837
539,46.598,0.326608,-3.33828
539.5,46.6484,0.331123,-3.33833
540,46.6968,0.33195,-3.33959
540.5,46.7478,0.322618,-3.33959
541,46.7971,0.32559,-3.33959
541.5,46.8466,0.323748,-3.3403
542,46.8969,0.329049,-3.33932
542.5,46.9469,0.33445,-3.33908
543,46.9963,0.338261,-3.33993
543.5,47.0467,0.337716,-3.34026
544,47.096,0.327573,-3.34033
544.5,47.1461,0.325079,-3.34158
545,47.1936,0.332801,-3.34158
545.5,47.2461,0.333291,-3.34158
546,47.2953,0.328902,-3.34158
546.5,47.345,0.327929,-3.3417
547,47.3955,0.325238,-3.34289
547.5,47.4448,0.328656,-3.34328
548,47.495,0.324988,-3.3441
548.5,47.5448,0.327847,-3.34392
549,47.5951,0.337064,-3.34289
549.5,47.645,0.334655,-3.34288
550,47.6948,0.336666,-3.34158
550.5,47.7452,0.335052,-3.34289
551,47.7952,0.337518,-3.34289
551.5,47.8447,0.340419,-3.34289
552,47.8941,0.337332,-3.34427
552.5,47.9451,0.337424,-3.3442
553,47.996,0.351787,-3.3452
553.5,48.045,0.346345,-3.3452
554,48.0955,0.352386,-3.3452
554.5,48.1444,0.351172,-3.34422
555,48.1947,0.342931,-3.3456
555.5,48.2457,0.350366,-3.34685
556,48.295,0.344031,-3.34546
556.5,48.3446,0.35215,-3.34553
557,48.3938,0.35457,-3.34423
557.5,48.4456,0.347322,-3.34552
558,48.4937,0.350964,-3.34557
558.5,48.5449,0.351454,-3.34684
559,48.5946,0.358875,-3.34684
559.5,48.6444,0.349175,-3.34686
560,48.695,0.357099,-3.34684
560.5,48.7441,0.348591,-3.34684
561,48.7941,0.343353,-3.34798
561.5,48.8448,0.350844,-3.34684
562,48.8942,0.344823,-3.34684
562.5,48.9454,0.338801,-3.34684
563,48.9949,0.329283,-3.34684
563.5,49.0447,0.328028,-3.34816
564,49.0941,0.324919,-3.34816
564.5,49.1437,0.311237,-3.34846
565,49.1953,0.303144,-3.35079
565.5,49.2434,0.296964,-3.35079
566,49.2936,0.287516,-3.35012
566.5,49.3436,0.276544,-3.35013
567,49.3939,0.260928,-3.35013
567.5,49.4435,0.260543,-3.3508
568,49.494,0.254921,-3.35079
568.5,49.5437,0.24501,-3.35017
569,49.5936,0.235866,-3.35081
569.5,49.6437,0.225484,-3.34981
570,49.6945,0.22292,-3.34981
570.5,49.7429,0.214743,-3.35038
571,49.7941,0.209012,-3.35113
571.5,49.8438,0.203767,-3.35243
572,49.8932,0.204491,-3.35376
572.5,49.9429,0.199131,-3.35376
573,49.9936,0.19833,-3.35376
573.5,50.0428,0.199533,-3.35376
574,50.0938,0.193243,-3.35234
574.5,50.1433,0.193138,-3.35102
575,50.1943,0.186131,-3.35102
575.5,50.2445,0.190027,-3.35102
576,50.2927,0.190496,-3.35102
576.5,50.3431,0.188783,-3.35102
577,50.3933,0.193943,-3.35102
577.5,50.4437,0.197732,-3.35102
578,50.4936,0.189137,-3.35233
578.5,50.5446,0.194453,-3.352
579,50.5944,0.198911,-3.35066
579.5,50.6443,0.193016,-3.35069
580,50.6948,0.196889,-3.35139
580.5,50.7441,0.19596,-3.35332
581,50.7926,0.192225,-3.35332
581.5,50.844,0.188958,-3.35332
582,50.8946,0.187757,-3.35189
582.5,50.9451,0.187128,-3.35211
583,50.9941,0.192937,-3.35244
583.5,51.0454,0.188642,-3.35294
584,51.0949,0.187111,-3.35342
584.5,51.1458,0.189399,-3.35353
585,51.1951,0.178695,-3.35475
585.5,51.2451,0.181725,-3.35505
586,51.2949,0.177561,-3.35508
586.5,51.3454,0.176513,-3.35508
587,51.3954,0.180507,-3.35508
587.5,51.4457,0.181916,-3.35614
588,51.4955,0.173796,-3.35475
588.5,51.5465,0.175577,-3.35475
589,51.5964,0.178566,-3.35475
589.5,51.6465,0.180028,-3.35475
590,51.6968,0.173427,-3.35475
590.5,51.7459,0.174472,-3.35475
591,51.7976,0.169316,-3.35475
591.5,51.8472,0.172741,-3.35506
592,51.8982,0.17226,-3.35512
592.5,51.9477,0.164531,-3.35639
593,51.9992,0.167295,-3.35639
593.5,52.0493,0.165646,-3.35639
594,52.0992,0.169149,-3.3564
594.5,52.1493,0.163766,-3.35508
595,52.1995,0.164717,-3.35638
595.5,52.2501,0.166121,-3.35503
596,52.3001,0.164231,-3.35495
596.5,52.3507,0.160817,-3.35307
597,52.4007,0.157451,-3.35275
597.5,52.4512,0.158894,-3.3554
598,52.5012,0.154384,-3.3554
598.5,52.552,0.153819,-3.3564
599,52.6012,0.151832,-3.35639
599.5,52.652,0.156672,-3.35639
600,52.7028,0.152326,-3.35639
600.5,52.7522,0.155821,-3.35504
601,52.8028,0.160987,-3.35532
601.5,52.8539,0.156902,-3.35672
602,52.903,0.148582,-3.35672
602.5,52.9538,0.153885,-3.35672
603,53.0041,0.157346,-3.35669
603.5,53.0535,0.149952,-3.35571
604,53.1046,0.150066,-3.35674
604.5,53.1548,0.150062,-3.35673
605,53.2036,0.150901,-3.35673
605.5,53.2543,0.15134,-3.35674
606,53.305,0.153807,-3.35541
606.5,53.355,0.150597,-3.35541
607,53.4035,0.149951,-3.35634
607.5,53.455,0.153633,-3.35639
608,53.5053,0.155123,-3.35672
608.5,53.5553,0.149646,-3.35672
609,53.6055,0.152651,-3.35672
609.5,53.6552,0.159849,-3.35803
610,53.705,0.154951,-3.35804
610.5,53.756,0.159109,-3.35735
611,53.8039,0.16588,-3.35672
611.5,53.8552,0.17299,-3.35573
612,53.9069,0.168975,-3.35573
612.5,53.9549,0.162615,-3.35573
613,54.0069,0.166499,-3.3557
613.5,54.0573,0.169132,-3.35705
614,54.1067,0.170826,-3.35669
614.5,54.1563,0.17714,-3.35672
615,54.2071,0.175428,-3.35672
615.5,54.2587,0.170335,-3.35672
616,54.3085,0.172995,-3.35941
616.5,54.3587,0.173694,-3.35936
617,54.4086,0.174969,-3.35936
617.5,54.459,0.17503,-3.35803
618,54.5086,0.175066,-3.35802
618.5,54.5599,0.179853,-3.35937
619,54.6096,0.176187,-3.35936
619.5,54.6612,0.171626,-3.35942
620,54.7104,0.172738,-3.35804
620.5,54.7612,0.169564,-3.35804
621,54.8121,0.166845,-3.35933
621.5,54.8627,0.165919,-3.35935
622,54.9122,0.162873,-3.35936
622.5,54.9631,0.160361,-3.36067
623,55.013,0.161603,-3.36067
623.5,55.0631,0.158163,-3.36067
624,55.1138,0.146245,-3.36067
624.5,55.1639,0.142704,-3.36068
625,55.2139,0.149698,-3.36001
625.5,55.2634,0.139579,-3.36002
626,55.3136,0.133479,-3.36161
626.5,55.3645,0.142611,-3.36265
627,55.4141,0.143813,-3.36265
627.5,55.4644,0.138756,-3.36164
628,55.5148,0.140841,-3.36133
628.5,55.5657,0.143158,-3.36133
629,55.6154,0.142896,-3.36052
629.5,55.6652,0.140554,-3.36133
630,55.716,0.141148,-3.3613
630.5,55.7652,0.138046,-3.36002
631,55.8159,0.134841,-3.36002
631.5,55.8663,0.136423,-3.36099
632,55.916,0.129197,-3.36232
632.5,55.9666,0.135878,-3.3623
633,56.0165,0.130168,-3.36101
633.5,56.0686,0.125317,-3.36101
634,56.1185,0.127076,-3.36102
634.5,56.1683,0.120517,-3.36367
635,56.2184,0.115765,-3.36363
635.5,56.2683,0.11203,-3.36363
636,56.3188,0.106318,-3.36363
636.5,56.3681,0.106308,-3.36363
637,56.4198,0.107677,-3.36244
637.5,56.4692,0.102332,-3.36339
638,56.5206,0.105896,-3.36364
638.5,56.5703,0.0965057,-3.3642
639,56.6207,0.0970725,-3.36495
639.5,56.6709,0.0962985,-3.36495
640,56.7211,0.0924483,-3.36364
640.5,56.7708,0.0927821,-3.36363
641,56.8218,0.0950279,-3.36331
641.5,56.8714,0.0912071,-3.36201
642,56.9221,0.0863589,-3.36199
642.5,56.9724,0.0820987,-3.36216
643,57.0222,0.0830082,-3.36463
643.5,57.0723,0.0848078,-3.36278
644,57.123,0.0791756,-3.36199
644.5,57.1729,0.0807075,-3.36199
645,57.224,0.0817242,-3.36331
645.5,57.2741,0.0833524,-3.36331
646,57.3242,0.0839229,-3.36322
646.5,57.3744,0.0860511,-3.36463
647,57.4245,0.083131,-3.36463
647.5,57.4751,0.0872,-3.36463
648,57.5256,0.0837364,-3.3653
648.5,57.5758,0.0900684,-3.3643
649,57.6266,0.0876338,-3.3643
649.5,57.6755,0.0814623,-3.3643
650,57.7276,0.086993,-3.3643
650.5,57.7777,0.0891182,-3.3643
651,57.8276,0.0795169,-3.36419
651.5,57.878,0.0805617,-3.36397
652,57.929,0.082242,-3.36397
652.5,57.9788,0.0782251,-3.36345
653,58.0293,0.0724115,-3.36265
653.5,58.0785,0.0724392,-3.36265
654,58.1297,0.066167,-3.36265
654.5,58.1798,0.064992,-3.36356
655,58.2298,0.063989,-3.36364
655.5,58.2805,0.0618341,-3.36364
656,58.3313,0.0567588,-3.36364
656.5,58.3808,0.0541651,-3.36364
657,58.4315,0.0627372,-3.36448
657.5,58.4812,0.0601246,-3.36496
658,58.5325,0.0673291,-3.36496
658.5,58.583,0.0633928,-3.36363
659,58.6313,0.0677966,-3.36399
659.5,58.6814,0.0610424,-3.36397
660,58.7343,0.0645957,-3.36397
660.5,58.7848,0.0667233,-3.36397
661,58.8343,0.0637409,-3.36462
661.5,58.8826,0.0656025,-3.36462
662,58.9359,0.0638712,-3.36425
662.5,58.9856,0.0676579,-3.36331
663,59.0366,0.0688272,-3.36331
663.5,59.0873,0.0644293,-3.3633
664,59.1368,0.065336,-3.36462
664.5,59.1878,0.0632218,-3.36462
665,59.2386,0.065547,-3.3646
665.5,59.2892,0.0618333,-3.36331
666,59.3392,0.0673394,-3.36331
666.5,59.3895,0.0624849,-3.36325
667,59.4403,0.0676599,-3.36497
667.5,59.4894,0.0661891,-3.36531
668,59.5414,0.05978,-3.36661
668.5,59.5913,0.0588611,-3.36661
669,59.642,0.061246,-3.36758
669.5,59.692,0.0615088,-3.36758
670,59.7434,0.0519902,-3.36628
670.5,59.7934,0.058295,-3.36496
671,59.8429,0.0582286,-3.3649
671.5,59.8937,0.0556569,-3.36364
672,59.9456,0.0559214,-3.36364
672.5,59.994,0.0567975,-3.36364
673,60.0454,0.0530555,-3.36364
673.5,60.0958,0.0550516,-3.36364
674,60.146,0.048181,-3.36364
674.5,60.1968,0.0605512,-3.36364
675,60.2467,0.0608114,-3.36364
675.5,60.2976,0.0566934,-3.3636
676,60.348,0.0548476,-3.36232
676.5,60.3979,0.0518028,-3.36232
677,60.4489,0.0517462,-3.36297
677.5,60.4989,0.0539173,-3.36292
678,60.5494,0.0516322,-3.36366
678.5,60.5995,0.0554163,-3.36562
679,60.6504,0.049409,-3.36562
679.5,60.7002,0.049278,-3.36562
680,60.7507,0.0440211,-3.36557
680.5,60.8002,0.0557227,-3.36693
681,60.8511,0.0454427,-3.36563
681.5,60.9015,0.044839,-3.36695
682,60.9525,0.0420338,-3.36693
682.5,61.0029,0.0403699,-3.36638
683,61.0509,0.0413605,-3.36561
683.5,61.1032,0.0359929,-3.36562
684,61.1542,0.0398218,-3.36429
684.5,61.2047,0.0391278,-3.36528
685,61.2545,0.0305676,-3.36528
685.5,61.3055,0.0289503,-3.36528
686,61.3566,0.0331165,-3.36527
686.5,61.4063,0.0366477,-3.36424
687,61.4571,0.0331948,-3.36267
687.5,61.5081,0.0378234,-3.36266
688,61.5576,0.0268081,-3.36406
688.5,61.6084,0.0354171,-3.36538
689,61.6585,0.0354912,-3.3646
689.5,61.7086,0.0373525,-3.36514
690,61.76,0.0338471,-3.36371