File: 01_Data/Helmet_Brim_Edging/STA/N2/10K_min/Helmet_Brim_Edging_STA_N2_10KData_241018_R4.csv
Temp./C,Time/min,DSC/(mW/mg),Mass loss/mg
60.0,0.0,0.940595,0.00811037
60.5,0.0565991,0.96276,0.00985819
61,0.111678,0.969939,0.00992329
61.5,0.168207,0.988297,0.00855273
62,0.224553,0.998728,0.00985994
62.5,0.277867,1.01341,0.00909795
63,0.33169,1.01896,0.00866518
63.5,0.386355,1.02821,0.00976917
64,0.440187,1.03685,0.00909251
64.5,0.491096,1.04472,0.00999528
65,0.54811,1.04632,0.00979083
65.5,0.602905,1.05084,0.00844547
66,0.656384,1.06425,0.00974291
66.5,0.709363,1.0767,0.00845754
67,0.760824,1.07496,0.0087718
67.5,0.814234,1.08225,0.00967878
68,0.867691,1.09178,0.0105023
68.5,0.921508,1.08674,0.00970946
69,0.972996,1.10167,0.0106867
69.5,1.02518,1.09783,0.0097707
70,1.07742,1.10393,0.0100987
70.5,1.13093,1.11075,0.008432
71,1.18335,1.11492,0.00844749
71.5,1.23567,1.1148,0.00981824
72,1.28761,1.11689,0.00977019
72.5,1.33961,1.12087,0.00940253
73,1.39117,1.127,0.0097719
73.5,1.44352,1.12608,0.0110589
74,1.49539,1.12813,0.0097713
74.5,1.54628,1.13966,0.00843195
75,1.59845,1.13243,0.00974571
75.5,1.65065,1.13588,0.00845069
76,1.69971,1.1403,0.00842461
76.5,1.75319,1.13999,0.00976949
77,1.80541,1.14248,0.0097701
77.5,1.85728,1.1456,0.00968045
78,1.90781,1.1491,0.00977011
78.5,1.96,1.14706,0.00977419
79,2.01119,1.15447,0.00950647
79.5,2.06138,1.14767,0.0097689
80,2.11356,1.15765,0.0111019
80.5,2.16388,1.15932,0.0100054
81,2.21543,1.15913,0.00976996
81.5,2.26633,1.16864,0.00977005
82,2.31668,1.16978,0.0108169
82.5,2.36918,1.18009,0.0110775
83,2.41875,1.1841,0.0110351
83.5,2.46947,1.18264,0.0110899
84,2.52013,1.18739,0.0117357
84.5,2.56953,1.18885,0.0120775
85,2.62033,1.19824,0.0107433
85.5,2.67033,1.20475,0.01108
86,2.72155,1.20628,0.0124027
86.5,2.77071,1.20941,0.0124131
87,2.82208,1.2133,0.0110847
87.5,2.87066,1.21049,0.0111023
88,2.92079,1.22145,0.0114172
88.5,2.97199,1.22564,0.011422
89,3.02022,1.23273,0.0125721
89.5,3.06724,1.23715,0.0124045
90,3.11894,1.23848,0.0137342
90.5,3.17042,1.2415,0.0124101
91,3.21904,1.24137,0.0110442
91.5,3.26941,1.24101,0.011081
92,3.31916,1.24325,0.0107523
92.5,3.36852,1.24727,0.0105951
93,3.41667,1.24281,0.0094408
93.5,3.46639,1.24047,0.00944017
94,3.51578,1.24355,0.0103373
94.5,3.56518,1.24357,0.00944418
95,3.6137,1.25083,0.0107389
95.5,3.66382,1.25375,0.01076
96,3.71211,1.25038,0.010762
96.5,3.76154,1.25232,0.00939194
97,3.81081,1.25771,0.0107598
97.5,3.85966,1.25793,0.0120205
98,3.90824,1.25896,0.0120702
98.5,3.95726,1.25472,0.01207
99,4.00584,1.25954,0.01207
99.5,4.05647,1.27114,0.01207
100,4.10388,1.27386,0.0120698
100.5,4.15174,1.27258,0.0121176
101,4.202,1.2755,0.0120692
101.5,4.25052,1.28179,0.0120706
102,4.29881,1.2801,0.0133947
102.5,4.34776,1.29,0.0133904
103,4.39759,1.29613,0.0127997
103.5,4.44511,1.29576,0.0120801
104,4.49403,1.31046,0.01208
104.5,4.54299,1.30687,0.0120692
105,4.59128,1.31128,0.0107433
105.5,4.6397,1.31356,0.0120797
106,4.68988,1.31455,0.0120802
106.5,4.73629,1.3179,0.0112703
107,4.7851,1.31678,0.0107568
107.5,4.83446,1.31228,0.0121286
108,4.88259,1.32066,0.0120699
108.5,4.93138,1.33001,0.01207
109,4.98104,1.3283,0.0120736
109.5,5.02919,1.3398,0.0107468
110,5.07737,1.3395,0.0107497
110.5,5.12617,1.34076,0.0110805
111,5.17518,1.34472,0.0120681
111.5,5.22249,1.348,0.0128441
112,5.27332,1.35593,0.01208
112.5,5.32082,1.36846,0.01208
113,5.36949,1.36947,0.0120821
113.5,5.41587,1.37716,0.0123549
114,5.46613,1.37316,0.01208
114.5,5.5148,1.38771,0.01208
115,5.56176,1.38583,0.0120798
115.5,5.60984,1.3924,0.0125763
116,5.65937,1.40472,0.014708
116.5,5.70863,1.4129,0.0147242
117,5.75694,1.41909,0.0133875
117.5,5.80443,1.42427,0.0133816
118,5.85073,1.42511,0.0147096
118.5,5.90296,1.43001,0.0147697
119,5.95117,1.42932,0.0133873
119.5,5.99922,1.42342,0.01339
120,6.0476,1.41365,0.0133901
120.5,6.09523,1.41833,0.0132727
121,6.14376,1.40844,0.0147102
121.5,6.19281,1.40646,0.0146944
122,6.24155,1.40901,0.0137229
122.5,6.28928,1.40771,0.01372
123,6.33804,1.40385,0.01372
123.5,6.38628,1.40718,0.0137217
124,6.43445,1.40894,0.0133968
124.5,6.48252,1.41702,0.0147169
125,6.53004,1.42594,0.01471
125.5,6.5784,1.42169,0.0145822
126,6.62679,1.42569,0.0133916
126.5,6.67545,1.43083,0.01339
127,6.72447,1.42537,0.0133901
127.5,6.77199,1.42989,0.0133656
128,6.8195,1.42855,0.0143797
128.5,6.86872,1.43359,0.0132993
129,6.91511,1.4313,0.0133895
129.5,6.96475,1.436,0.014802
130,7.01328,1.43588,0.01471
130.5,7.06033,1.44807,0.01603
131,7.1099,1.45042,0.01603
131.5,7.15722,1.46342,0.01603
132,7.20574,1.45989,0.0160148
132.5,7.25404,1.46904,0.0147264
133,7.30294,1.4828,0.0146761
133.5,7.34974,1.48545,0.01537
134,7.39737,1.49108,0.01537
134.5,7.44643,1.49357,0.0153689
135,7.49407,1.50497,0.0144484
135.5,7.54233,1.50869,0.0147458
136,7.59069,1.51675,0.0150379
136.5,7.6379,1.52646,0.0153614
137,7.68601,1.54122,0.0153595
137.5,7.73453,1.54674,0.0144609
138,7.78277,1.56691,0.0148421
138.5,7.8307,1.57033,0.01504
139,7.87915,1.58427,0.01504
139.5,7.92714,1.59765,0.01504
140,7.97641,1.61715,0.01504
140.5,8.02339,1.62601,0.01504
141,8.07069,1.64806,0.0150371
141.5,8.11953,1.66365,0.0144215
142,8.16826,1.69125,0.0137214
142.5,8.21585,1.71035,0.0137296
143,8.26317,1.73374,0.0140523
143.5,8.31237,1.75999,0.0140501
144,8.36086,1.77401,0.0126897
144.5,8.40744,1.80372,0.0127554
145,8.45613,1.82467,0.0140427
145.5,8.50445,1.85567,0.0140129
146,8.55232,1.87797,0.0153738
146.5,8.60012,1.9186,0.0153699
147,8.64834,1.93876,0.0141345
147.5,8.69659,1.97283,0.0127433
148,8.74454,2.00163,0.0140386
148.5,8.79278,2.03006,0.0140501
149,8.84064,2.05376,0.0140449
149.5,8.88835,2.08696,0.0150329
150,8.93701,2.10916,0.01503
150.5,8.98165,2.1306,0.0150299
151,9.0323,2.15908,0.0150819
151.5,9.08042,2.16964,0.0137168
152,9.12858,2.18849,0.01372
152.5,9.17547,2.19487,0.0137173
153,9.22415,2.20202,0.0140397
153.5,9.2714,2.18835,0.0144887
154,9.31812,2.17362,0.0153688
154.5,9.36675,2.14023,0.0160205
155,9.4108,2.0849,0.0163601
155.5,9.46133,2.0249,0.01636
156,9.50708,1.96756,0.01636
156.5,9.5539,1.90109,0.0163628
157,9.60024,1.83372,0.0150449
157.5,9.64828,1.77251,0.01504
158,9.69384,1.71879,0.01504
158.5,9.74174,1.67625,0.01504
159,9.78798,1.64058,0.01504
159.5,9.83683,1.60916,0.0150441
160,9.88005,1.58903,0.0136555
160.5,9.92991,1.57149,0.0137201
161,9.97767,1.55489,0.01372
161.5,10.0253,1.54801,0.0137207
162,10.0723,1.5352,0.0140824
162.5,10.1195,1.53203,0.0146356
163,10.166,1.52633,0.0153038
163.5,10.2133,1.52523,0.0140597
164,10.2619,1.52231,0.01406
164.5,10.3094,1.52552,0.0140578
165,10.3568,1.52415,0.0134047
165.5,10.4039,1.52532,0.013397
166,10.451,1.52544,0.014735
166.5,10.4988,1.52633,0.0147208
167,10.5462,1.52765,0.0158271
167.5,10.594,1.52858,0.0160302
168,10.6415,1.52659,0.01603
168.5,10.6885,1.52757,0.0160202
169,10.7364,1.52911,0.0160245
169.5,10.7831,1.53483,0.0160298
170,10.8309,1.54355,0.0174667
170.5,10.8793,1.53222,0.0173435
171,10.9266,1.53162,0.0160243
171.5,10.9747,1.53997,0.0151729
172,11.0211,1.54586,0.0140224
172.5,11.0692,1.54657,0.0140501
173,11.1172,1.54,0.01405
173.5,11.1646,1.54801,0.0140492
174,11.2125,1.54409,0.0142519
174.5,11.2591,1.54365,0.0150396
175,11.3064,1.54058,0.0150399
175.5,11.3538,1.5456,0.0150413
176,11.4022,1.54424,0.0137218
176.5,11.4499,1.5472,0.0137669
177,11.4969,1.54679,0.0149266
177.5,11.544,1.55024,0.0150454
178,11.5923,1.55111,0.0150401
178.5,11.6381,1.55466,0.01504
179,11.6862,1.55357,0.0150575
179.5,11.7348,1.56092,0.0177961
180,11.7802,1.55331,0.0171852
180.5,11.8283,1.56473,0.0163536
181,11.8761,1.56003,0.0150072
181.5,11.9237,1.56524,0.01504
182,11.971,1.57035,0.01504
182.5,12.0184,1.56735,0.01504
183,12.0662,1.56394,0.01504
183.5,12.1127,1.56341,0.0150399
184,12.1595,1.56676,0.0163091
184.5,12.2083,1.57043,0.0163488
185,12.2544,1.57227,0.0150522
185.5,12.3018,1.56437,0.01504
186,12.349,1.57322,0.0150401
186.5,12.3964,1.57707,0.0149343
187,12.4441,1.57261,0.0163605
187.5,12.4915,1.58044,0.01636
188,12.5393,1.58014,0.01636
188.5,12.5863,1.57286,0.01636
189,12.6334,1.5761,0.01636
189.5,12.681,1.58197,0.0163644
190,12.7274,1.58716,0.0162021
190.5,12.7752,1.58271,0.0166895
191,12.8221,1.58943,0.0166895
191.5,12.8693,1.59865,0.0157831
192,12.9171,1.60023,0.0153727
192.5,12.965,1.60013,0.0150437
193,13.0125,1.59644,0.0163666
193.5,13.0589,1.60815,0.0152096
194,13.1071,1.60462,0.0150398
194.5,13.1542,1.6054,0.01504
195,13.2016,1.60396,0.01504
195.5,13.2488,1.598,0.01504
196,13.2953,1.60004,0.0150265
196.5,13.3429,1.60505,0.0140529
197,13.3903,1.60126,0.01405
197.5,13.4377,1.60993,0.0143754
198,13.485,1.6095,0.0143791
198.5,13.5299,1.61291,0.01504
199,13.5795,1.61206,0.01504
199.5,13.628,1.61403,0.01504
200,13.675,1.62171,0.01504
200.5,13.7218,1.62102,0.0150355
201,13.7699,1.61559,0.0137291
201.5,13.8169,1.62085,0.0138658
202,13.8645,1.62329,0.0147088
202.5,13.912,1.62549,0.01471
203,13.9598,1.63064,0.01471
203.5,14.0067,1.63139,0.01471
204,14.0532,1.63149,0.01471
204.5,14.1009,1.6348,0.01471
205,14.1487,1.64117,0.01471
205.5,14.1958,1.63538,0.014714
206,14.2437,1.63268,0.013394
206.5,14.2901,1.64071,0.0134
207,14.3381,1.63865,0.0133962
207.5,14.3852,1.63561,0.0147521
208,14.4323,1.63478,0.01471
208.5,14.479,1.63239,0.01471
209,14.5272,1.6335,0.01471
209.5,14.5741,1.64006,0.0147302
210,14.6219,1.63534,0.0160275
210.5,14.6691,1.64266,0.0154315
211,14.7154,1.64373,0.0134335
211.5,14.764,1.64031,0.01339
212,14.8121,1.6371,0.0134083
212.5,14.8587,1.64783,0.0159098
213,14.9071,1.63419,0.0160303
213.5,14.9545,1.6426,0.0160336
214,15.0017,1.64271,0.0137155
214.5,15.0465,1.65306,0.0133879
215,15.0957,1.64434,0.0133939
215.5,15.143,1.65458,0.0143608
216,15.1906,1.64502,0.01438
216.5,15.2359,1.655,0.01438
217,15.2852,1.65439,0.01438
217.5,15.3319,1.65719,0.01438
218,15.3803,1.65794,0.01438
218.5,15.4276,1.65366,0.01438
219,15.4755,1.65952,0.0143799
219.5,15.5216,1.65825,0.0139207
220,15.5697,1.6545,0.0130591
220.5,15.6172,1.66001,0.0144088
221,15.6648,1.65538,0.0143803
221.5,15.7107,1.65998,0.0134237
222,15.7592,1.65243,0.0121192
222.5,15.8059,1.6591,0.0120696
223,15.8531,1.6567,0.0133638
223.5,15.901,1.66606,0.01339
224,15.9483,1.66426,0.01339
224.5,15.9954,1.65766,0.01339
225,16.0418,1.66481,0.01339
225.5,16.0901,1.66256,0.01339
226,16.1375,1.67255,0.01339
226.5,16.1852,1.66958,0.0133914
227,16.2303,1.66704,0.0130566
227.5,16.2792,1.66576,0.0120527
228,16.3272,1.67446,0.0120701
228.5,16.3737,1.67439,0.012053
229,16.4211,1.67259,0.0133889
229.5,16.4695,1.67646,0.0133976
230,16.5167,1.67549,0.0120658
230.5,16.5641,1.68143,0.01207
231,16.6109,1.68011,0.0118394
231.5,16.6581,1.67216,0.0107518
232,16.7046,1.67474,0.01075
232.5,16.7527,1.67688,0.01075
233,16.8005,1.68009,0.01075
233.5,16.8485,1.68306,0.01075
234,16.8948,1.67909,0.0107521
234.5,16.9427,1.67416,0.0104297
235,16.9897,1.67634,0.01042
235.5,17.0365,1.67737,0.0105465
236,17.0842,1.67904,0.00910981
236.5,17.1313,1.68452,0.00911
237,17.1789,1.67603,0.00911
237.5,17.2266,1.681,0.00911
238,17.2733,1.67776,0.00911
238.5,17.3212,1.68233,0.00910998
239,17.3666,1.68968,0.00913249
239.5,17.4167,1.68733,0.00811248
240,17.4629,1.68253,0.00714076
240.5,17.5097,1.68528,0.00732121
241,17.5578,1.69117,0.00844832
241.5,17.6058,1.68424,0.00844939
242,17.6532,1.69155,0.00775053
242.5,17.7003,1.69724,0.0071406
243,17.7476,1.68928,0.00714
243.5,17.7954,1.68791,0.00714
244,17.8433,1.67964,0.00713999
244.5,17.8899,1.67997,0.00713985
245,17.9384,1.68773,0.00443974
245.5,17.9854,1.68699,0.00450001
246,18.0328,1.68648,0.0045
246.5,18.0801,1.68927,0.00449978
247,18.1285,1.68332,0.00325145
247.5,18.176,1.68725,0.00350357
248,18.2223,1.69282,0.00350999
248.5,18.2699,1.68864,0.00351
249,18.3163,1.67892,0.00351
249.5,18.3644,1.68986,0.00351002
250,18.4109,1.68833,0.00350804
250.5,18.4589,1.68939,0.00286544
251,18.5058,1.68861,0.00286494
251.5,18.553,1.69696,0.00221654
252,18.6018,1.69506,0.00219998
252.5,18.648,1.69464,0.0022
253,18.6949,1.68639,0.00220046
253.5,18.7425,1.6922,0.00204697
254,18.7894,1.69189,0.000879943
254.5,18.8363,1.69543,0.000879995
255,18.8846,1.6866,0.000882732
255.5,18.9319,1.68822,-0.000444339
256,18.9791,1.69224,-0.000440011
256.5,19.0261,1.68873,-0.000436013
257,19.0745,1.69632,-0.00180773
257.5,19.122,1.70059,-0.00174994
258,19.1693,1.70108,-0.00174983
258.5,19.2161,1.69298,-0.00314368
259,19.2641,1.69472,-0.00439235
259.5,19.3084,1.69341,-0.0056944
260,19.3579,1.69893,-0.00571003
260.5,19.4054,1.70536,-0.00570997
261,19.4523,1.70889,-0.00572285
261.5,19.5005,1.70752,-0.00702803
262,19.548,1.71316,-0.00596436
262.5,19.5954,1.70914,-0.00735031
263,19.6434,1.70815,-0.00749724
263.5,19.6903,1.71157,-0.00867
264,19.7375,1.71309,-0.00866998
264.5,19.7838,1.71381,-0.00867733
265,19.8328,1.72041,-0.00999498
265.5,19.8808,1.72328,-0.0113094
266,19.9277,1.72819,-0.0112142
266.5,19.9748,1.7312,-0.0125422
267,20.0229,1.73495,-0.0126088
267.5,20.0704,1.7273,-0.0132857
268,20.1188,1.73282,-0.0135335
268.5,20.1654,1.73577,-0.0152526
269,20.2139,1.73597,-0.016468
269.5,20.2613,1.73336,-0.0152407
270,20.3088,1.74165,-0.0152716
270.5,20.3558,1.73995,-0.0164941
271,20.4031,1.74312,-0.0179032
271.5,20.4509,1.74114,-0.0185987
272,20.4992,1.74308,-0.0187827
272.5,20.5468,1.74014,-0.0194744
273,20.5936,1.74531,-0.0208775
273.5,20.6417,1.74535,-0.0221783
274,20.6895,1.74878,-0.0230797
274.5,20.7369,1.75032,-0.0234913
275,20.7844,1.74934,-0.0247821
275.5,20.8319,1.75422,-0.0249288
276,20.8797,1.75521,-0.0274021
276.5,20.9282,1.75436,-0.0287639
277,20.9759,1.76333,-0.0297873
277.5,21.0213,1.76293,-0.0287614
278,21.0712,1.75485,-0.0301252
278.5,21.1189,1.76089,-0.0300249
279,21.1665,1.76279,-0.0313902
279.5,21.214,1.7668,-0.0330501
280,21.2609,1.77003,-0.0343864
280.5,21.3087,1.76862,-0.0348846
281,21.3571,1.77622,-0.0356809
281.5,21.4039,1.78936,-0.0369782
282,21.4527,1.78131,-0.0378477
282.5,21.5002,1.78063,-0.0392919
283,21.5476,1.78621,-0.039547
283.5,21.5953,1.7887,-0.0409797
284,21.6427,1.79292,-0.0432568
284.5,21.6908,1.79312,-0.044576
285,21.7382,1.78969,-0.0445381
285.5,21.786,1.79472,-0.0459566
286,21.8331,1.79358,-0.047252
286.5,21.882,1.8019,-0.0483131
287,21.9284,1.8061,-0.0497762
287.5,21.9748,1.80849,-0.0515776
288,22.0249,1.80724,-0.0537313
288.5,22.0725,1.80218,-0.0550549
289,22.1199,1.80813,-0.0564033
289.5,22.1682,1.80962,-0.0585279
290,22.216,1.81723,-0.0590704
290.5,22.2629,1.82193,-0.0603504
291,22.3114,1.82366,-0.0617611
291.5,22.358,1.82215,-0.0630551
292,22.4062,1.82575,-0.0643626
292.5,22.4541,1.83114,-0.065799
293,22.5023,1.83415,-0.06715
293.5,22.5487,1.83667,-0.0685211
294,22.5967,1.84058,-0.0698243
294.5,22.645,1.84621,-0.0714405
295,22.6903,1.84721,-0.07433
295.5,22.74,1.85835,-0.0756217
296,22.7875,1.85248,-0.0756366
296.5,22.8349,1.864,-0.0769401
297,22.8839,1.86957,-0.0799154
297.5,22.9307,1.86301,-0.0810292
298,22.9789,1.86908,-0.083764
298.5,23.0265,1.87768,-0.085425
299,23.0744,1.87795,-0.0868743
299.5,23.122,1.88518,-0.0889868
300,23.1697,1.88966,-0.091237
300.5,23.2174,1.88808,-0.093446
301,23.265,1.89213,-0.0957439
301.5,23.3108,1.90355,-0.0966365
302,23.3608,1.9041,-0.0987434
302.5,23.4085,1.90424,-0.100937
303,23.4563,1.90659,-0.103061
303.5,23.5037,1.91334,-0.105403
304,23.5522,1.91595,-0.107061
304.5,23.5995,1.92077,-0.109965
305,23.647,1.92906,-0.111925
305.5,23.6956,1.93282,-0.114719
306,23.7425,1.93791,-0.116751
306.5,23.7903,1.95389,-0.120541
307,23.8387,1.95519,-0.12226
307.5,23.8865,1.96631,-0.125501
308,23.9343,1.96846,-0.125888
308.5,23.9827,1.97111,-0.129156
309,24.0296,1.9767,-0.131975
309.5,24.0784,1.98769,-0.133949
310,24.1261,1.99995,-0.138244
310.5,24.173,2.00644,-0.141953
311,24.2216,2.01247,-0.143585
311.5,24.2701,2.02077,-0.146899
312,24.3177,2.03309,-0.149911
312.5,24.3654,2.03408,-0.153372
313,24.4139,2.03952,-0.156944
313.5,24.46,2.04296,-0.159798
314,24.5089,2.04063,-0.164697
314.5,24.5569,2.02651,-0.167787
315,24.6039,2.00432,-0.171269
315.5,24.6512,1.96682,-0.175501
316,24.6992,1.91669,-0.179002
316.5,24.7469,1.87922,-0.183134
317,24.7935,1.84563,-0.186041
317.5,24.8417,1.82267,-0.19081
318,24.8886,1.81606,-0.195506
318.5,24.936,1.79955,-0.19894
319,24.984,1.79344,-0.203761
319.5,25.0309,1.79723,-0.207665
320,25.0788,1.79211,-0.210514
320.5,25.1272,1.79414,-0.214703
321,25.1736,1.79195,-0.219485
321.5,25.2222,1.79189,-0.224664
322,25.2695,1.7894,-0.229508
322.5,25.317,1.78772,-0.233756
323,25.3653,1.78754,-0.236993
323.5,25.4125,1.78944,-0.242924
324,25.4605,1.7948,-0.248666
324.5,25.5082,1.79453,-0.253868
325,25.5557,1.79445,-0.258764
325.5,25.6034,1.7972,-0.264752
326,25.6519,1.80001,-0.270575
326.5,25.6991,1.80429,-0.275897
327,25.747,1.80083,-0.281856
327.5,25.7947,1.79777,-0.289174
328,25.8415,1.79689,-0.294764
328.5,25.8907,1.80679,-0.299314
329,25.9383,1.8047,-0.305653
329.5,25.9863,1.81105,-0.312665
330,26.0348,1.80994,-0.320104
330.5,26.0824,1.8132,-0.326668
331,26.1294,1.82076,-0.333454
331.5,26.1784,1.82191,-0.339644
332,26.2266,1.82739,-0.346382
332.5,26.2734,1.82443,-0.353546
333,26.3225,1.83,-0.361928
333.5,26.3702,1.83106,-0.368634
334,26.4174,1.83254,-0.376376
334.5,26.4651,1.82832,-0.384899
335,26.5138,1.83067,-0.391692
335.5,26.5623,1.83565,-0.400322
336,26.61,1.83615,-0.408678
336.5,26.6579,1.8429,-0.418831
337,26.7042,1.83665,-0.427498
337.5,26.753,1.83756,-0.436741
338,26.8014,1.83642,-0.446579
338.5,26.8498,1.84081,-0.456802
339,26.8976,1.83914,-0.465606
339.5,26.9457,1.83566,-0.475662
340,26.9943,1.83618,-0.486454
340.5,27.0421,1.82719,-0.495782
341,27.0901,1.82696,-0.505812
341.5,27.1384,1.81899,-0.516983
342,27.1839,1.81431,-0.528657
342.5,27.2335,1.80124,-0.540927
343,27.2828,1.80166,-0.552265
343.5,27.3295,1.79684,-0.563852
344,27.3767,1.79541,-0.575248
344.5,27.4262,1.79113,-0.588323
345,27.4742,1.78545,-0.600235
345.5,27.5223,1.78172,-0.61179
346,27.5701,1.76902,-0.625603
346.5,27.6184,1.77081,-0.639083
347,27.6666,1.7614,-0.65411
347.5,27.7151,1.74865,-0.667803
348,27.7628,1.75383,-0.681396
348.5,27.8104,1.73395,-0.698032
349,27.8582,1.73297,-0.713146
349.5,27.907,1.72441,-0.731626
350,27.9539,1.7112,-0.748399
350.5,28.0037,1.71157,-0.764825
351,28.0507,1.7035,-0.78269
351.5,28.0985,1.68687,-0.800062
352,28.1476,1.68942,-0.819103
352.5,28.1957,1.68437,-0.839474
353,28.2438,1.67826,-0.858692
353.5,28.291,1.67848,-0.878677
354,28.3409,1.67826,-0.901307
354.5,28.3882,1.68084,-0.923193
355,28.4345,1.67773,-0.943397
355.5,28.4843,1.68703,-0.966737
356,28.5334,1.6854,-0.989155
356.5,28.5816,1.69115,-1.01292
357,28.6294,1.69134,-1.03621
357.5,28.6771,1.6859,-1.05872
358,28.726,1.68887,-1.08069
358.5,28.774,1.6852,-1.10319
359,28.8229,1.68861,-1.12642
359.5,28.8699,1.68147,-1.14746
360,28.9193,1.67287,-1.16969
360.5,28.9668,1.67076,-1.19014
361,29.0148,1.67369,-1.21144
361.5,29.0637,1.67124,-1.2326
362,29.1113,1.65879,-1.25132
362.5,29.1592,1.64744,-1.27073
363,29.2076,1.64656,-1.28854
363.5,29.256,1.63383,-1.3081
364,29.3045,1.63645,-1.32696
364.5,29.354,1.63327,-1.34363
365,29.401,1.62335,-1.3591
365.5,29.4497,1.62431,-1.37461
366,29.4973,1.6181,-1.38951
366.5,29.5457,1.61188,-1.40518
367,29.5937,1.60856,-1.41823
367.5,29.6413,1.60278,-1.43049
368,29.6895,1.60048,-1.44321
368.5,29.739,1.58799,-1.45533
369,29.7866,1.58918,-1.46864
369.5,29.8344,1.57667,-1.48076
370,29.8825,1.57737,-1.49163
370.5,29.9309,1.56759,-1.50352
371,29.9786,1.55748,-1.51469
371.5,30.0272,1.55173,-1.52516
372,30.0757,1.54621,-1.53621
372.5,30.1235,1.53622,-1.54749
373,30.1717,1.52719,-1.55726
373.5,30.2197,1.52244,-1.56582
374,30.2684,1.51571,-1.57569
374.5,30.3158,1.50577,-1.5845
375,30.3642,1.49978,-1.59307
375.5,30.412,1.49608,-1.60201
376,30.4601,1.4911,-1.61104
376.5,30.5087,1.47863,-1.61862
377,30.5568,1.47955,-1.62764
377.5,30.6038,1.4713,-1.63506
378,30.6526,1.45759,-1.64338
378.5,30.7009,1.45143,-1.65126
379,30.7477,1.44837,-1.65683
379.5,30.7969,1.43404,-1.66542
380,30.8453,1.43142,-1.67198
380.5,30.8938,1.43325,-1.67994
381,30.9414,1.42423,-1.68671
381.5,30.991,1.41411,-1.69401
382,31.0388,1.40975,-1.70138
382.5,31.0863,1.40919,-1.70873
383,31.1344,1.39757,-1.71546
383.5,31.1819,1.39715,-1.72235
384,31.2301,1.38633,-1.72927
384.5,31.2786,1.38583,-1.736
385,31.3268,1.38039,-1.74195
385.5,31.3747,1.37569,-1.74801
386,31.4232,1.36945,-1.75461
386.5,31.4716,1.37511,-1.7614
387,31.5203,1.37405,-1.76652
387.5,31.5684,1.363,-1.77222
388,31.6159,1.36579,-1.77897
388.5,31.6649,1.35676,-1.78601
389,31.7131,1.35802,-1.7928
389.5,31.7617,1.3544,-1.79976
390,31.81,1.35119,-1.80558
390.5,31.8583,1.35137,-1.81043
391,31.9063,1.33803,-1.81603
391.5,31.9545,1.34285,-1.82136
392,32.0027,1.33631,-1.8264
392.5,32.0494,1.33753,-1.83216
393,32.1003,1.32989,-1.83886
393.5,32.1488,1.32583,-1.84612
394,32.1963,1.32329,-1.85195
394.5,32.2457,1.32391,-1.85809
395,32.2948,1.3256,-1.86339
395.5,32.343,1.31951,-1.86872
396,32.3915,1.32587,-1.87319
396.5,32.4398,1.32031,-1.87928
397,32.4894,1.3215,-1.88754
397.5,32.5375,1.32159,-1.89108
398,32.5855,1.3231,-1.89708
398.5,32.6342,1.31472,-1.90252
399,32.6822,1.311,-1.90807
399.5,32.7308,1.31579,-1.91323
400,32.7803,1.31072,-1.91944
400.5,32.8281,1.31065,-1.92699
401,32.8759,1.30846,-1.93162
401.5,32.9253,1.30572,-1.93696
402,32.9735,1.30931,-1.94122
402.5,33.0221,1.30609,-1.94742
403,33.0689,1.30334,-1.95159
403.5,33.1197,1.30721,-1.95821
404,33.168,1.30357,-1.96528
404.5,33.2158,1.31272,-1.96991
405,33.2655,1.31598,-1.97589
405.5,33.3135,1.30739,-1.98168
406,33.3626,1.31293,-1.98634
406.5,33.4116,1.3057,-1.99049
407,33.4593,1.31475,-1.99694
407.5,33.5084,1.30941,-2.00142
408,33.5557,1.31849,-2.00659
408.5,33.6056,1.31318,-2.01328
409,33.654,1.309,-2.01842
409.5,33.7031,1.31732,-2.02299
410,33.7517,1.31839,-2.02895
410.5,33.7995,1.31309,-2.03487
411,33.8491,1.31816,-2.04015
411.5,33.897,1.32292,-2.04672
412,33.9464,1.32558,-2.0519
412.5,33.9953,1.3241,-2.05753
413,34.0433,1.32723,-2.0624
413.5,34.0928,1.32925,-2.06795
414,34.1414,1.32783,-2.0733
414.5,34.1895,1.32683,-2.07801
415,34.2389,1.3291,-2.08247
415.5,34.2873,1.32411,-2.08885
416,34.336,1.34056,-2.09305
416.5,34.3846,1.33962,-2.09854
417,34.4334,1.345,-2.1047
417.5,34.4819,1.34043,-2.11013
418,34.5306,1.3464,-2.11601
418.5,34.5801,1.34726,-2.12154
419,34.6292,1.36105,-2.12712
419.5,34.6779,1.35387,-2.13419
420,34.7273,1.35391,-2.14071
420.5,34.7755,1.35459,-2.1466
421,34.8221,1.36424,-2.15152
421.5,34.8737,1.36526,-2.1565
422,34.9225,1.37628,-2.163
422.5,34.9711,1.37558,-2.17032
423,35.0198,1.3777,-2.17605
423.5,35.0685,1.38497,-2.18283
424,35.118,1.39061,-2.18913
424.5,35.1661,1.39099,-2.19462
425,35.2162,1.39258,-2.201
425.5,35.2637,1.39501,-2.20679
426,35.3132,1.40277,-2.21302
426.5,35.3623,1.40462,-2.21958
427,35.4104,1.40543,-2.22531
427.5,35.4593,1.41165,-2.23129
428,35.5079,1.4104,-2.23674
428.5,35.5571,1.4162,-2.24342
429,35.6059,1.41989,-2.25043
429.5,35.6548,1.42425,-2.25746
430,35.7044,1.43563,-2.2639
430.5,35.7515,1.434,-2.27078
431,35.8001,1.43661,-2.2783
431.5,35.8513,1.44652,-2.28506
432,35.8996,1.44507,-2.29193
432.5,35.9485,1.45013,-2.299
433,35.9975,1.45742,-2.30574
433.5,36.0471,1.45903,-2.3138
434,36.0953,1.45981,-2.32061
434.5,36.1435,1.47486,-2.32806
435,36.1934,1.47492,-2.33592
435.5,36.2426,1.48381,-2.34261
436,36.2916,1.49309,-2.35007
436.5,36.3401,1.49232,-2.35909
437,36.3888,1.50388,-2.36647
437.5,36.4375,1.50771,-2.37352
438,36.4871,1.51254,-2.38021
438.5,36.5362,1.52048,-2.38864
439,36.5856,1.52406,-2.39736
439.5,36.6344,1.52817,-2.40579
440,36.6831,1.54444,-2.41438
440.5,36.733,1.55422,-2.4228
441,36.7814,1.54944,-2.43118
441.5,36.8305,1.55852,-2.44146
442,36.8801,1.56725,-2.45142
442.5,36.9289,1.57084,-2.45979
443,36.9787,1.57296,-2.46959
443.5,37.0267,1.5811,-2.47916
444,37.0764,1.59276,-2.48785
444.5,37.1238,1.59619,-2.49627
445,37.1749,1.59952,-2.50671
445.5,37.2235,1.60669,-2.51656
446,37.272,1.60417,-2.52549
446.5,37.3212,1.62153,-2.53591
447,37.3696,1.62119,-2.54593
447.5,37.4195,1.63559,-2.55685
448,37.4681,1.63125,-2.5681
448.5,37.5176,1.6385,-2.57851
449,37.5666,1.64654,-2.5888
449.5,37.6159,1.63558,-2.60147
450,37.6647,1.64034,-2.61172
450.5,37.7137,1.6432,-2.62324
451,37.7623,1.64355,-2.63503
451.5,37.812,1.6448,-2.64637
452,37.8601,1.64682,-2.65792
452.5,37.9103,1.64908,-2.66937
453,37.9597,1.65343,-2.68079
453.5,38.0083,1.65487,-2.69224
454,38.0576,1.65392,-2.70435
454.5,38.1076,1.6519,-2.71645
455,38.1554,1.64746,-2.72988
455.5,38.205,1.64604,-2.74221
456,38.2539,1.64138,-2.75325
456.5,38.3034,1.63922,-2.76528
457,38.3519,1.63642,-2.77813
457.5,38.4006,1.62802,-2.79044
458,38.4501,1.62863,-2.80455
458.5,38.4993,1.61892,-2.81669
459,38.5481,1.61995,-2.82987
459.5,38.5975,1.60801,-2.84363
460,38.6462,1.60059,-2.85718
460.5,38.6956,1.58838,-2.86953
461,38.7447,1.57737,-2.88208
461.5,38.7917,1.575,-2.89549
462,38.8432,1.55715,-2.90951
462.5,38.8909,1.5472,-2.9227
463,38.9408,1.53494,-2.93626
463.5,38.9896,1.51551,-2.94924
464,39.0387,1.49538,-2.96314
464.5,39.0885,1.48141,-2.97721
465,39.1377,1.47086,-2.98954
465.5,39.185,1.44909,-3.00195
466,39.2365,1.42608,-3.01523
466.5,39.2851,1.39891,-3.0286
467,39.333,1.37385,-3.04169
467.5,39.3816,1.35623,-3.05543
468,39.4322,1.33232,-3.06881
468.5,39.4787,1.305,-3.0809
469,39.5301,1.27999,-3.09407
469.5,39.5786,1.2534,-3.10692
470,39.6274,1.21982,-3.11934
470.5,39.6764,1.19608,-3.13154
471,39.7238,1.16214,-3.14268
471.5,39.7739,1.13216,-3.15562
472,39.8223,1.11298,-3.16661
472.5,39.8709,1.07786,-3.17619
473,39.9198,1.04684,-3.18733
473.5,39.9694,1.01141,-3.19831
474,40.0169,0.979366,-3.20855
474.5,40.0665,0.947685,-3.21903
475,40.1152,0.914053,-3.22896
475.5,40.1626,0.877953,-3.23872
476,40.2122,0.854346,-3.24918
476.5,40.2612,0.815773,-3.25725
477,40.3099,0.776127,-3.26487
477.5,40.3587,0.740318,-3.27299
478,40.4069,0.704705,-3.28159
478.5,40.4565,0.676073,-3.29067
479,40.5052,0.646374,-3.29813
479.5,40.5532,0.620152,-3.30518
480,40.6009,0.581721,-3.31158
480.5,40.6519,0.544087,-3.31798
481,40.6993,0.520901,-3.32366
481.5,40.7482,0.490668,-3.33052
482,40.797,0.456472,-3.33568
482.5,40.846,0.430134,-3.34115
483,40.8945,0.403971,-3.34583
483.5,40.9437,0.384222,-3.34897
484,40.9929,0.356907,-3.35244
484.5,41.0415,0.320325,-3.35755
485,41.0898,0.312265,-3.36085
485.5,41.1398,0.28499,-3.36446
486,41.1887,0.263448,-3.36637
486.5,41.2372,0.255803,-3.36907
487,41.2872,0.231517,-3.37346
487.5,41.3357,0.220386,-3.37434
488,41.3852,0.200953,-3.37497
488.5,41.4324,0.198612,-3.37735
489,41.4827,0.191444,-3.38049
489.5,41.5317,0.174397,-3.38219
490,41.5816,0.171593,-3.38369
490.5,41.6289,0.157011,-3.38362
491,41.6793,0.157694,-3.38493
491.5,41.7296,0.150544,-3.38626
492,41.779,0.141554,-3.38757
492.5,41.8279,0.135662,-3.38774
493,41.8769,0.129352,-3.38888
493.5,41.9268,0.121491,-3.39022
494,41.9762,0.123042,-3.39119
494.5,42.025,0.111893,-3.3925
495,42.0736,0.116247,-3.39246
495.5,42.125,0.110879,-3.39223
496,42.1739,0.104211,-3.39252
496.5,42.2223,0.101562,-3.39268
497,42.2718,0.101695,-3.3935
497.5,42.3227,0.101353,-3.39382
498,42.3714,0.0999856,-3.3939
498.5,42.4209,0.0963183,-3.39515
499,42.4709,0.0942191,-3.39515
499.5,42.5196,0.0937476,-3.39515
500,42.5695,0.0929955,-3.39516
500.5,42.6184,0.0968581,-3.39679
501,42.6688,0.096681,-3.3968
501.5,42.7182,0.0924496,-3.39787
502,42.7673,0.093694,-3.39778
502.5,42.8172,0.0903334,-3.39761
503,42.8665,0.0889277,-3.39676
503.5,42.9155,0.0959374,-3.39647
504,42.9645,0.0906267,-3.39647
504.5,43.015,0.0860127,-3.39647
505,43.0642,0.0848982,-3.39513
505.5,43.1138,0.087118,-3.39495
506,43.1626,0.0885465,-3.39481
506.5,43.2113,0.0835273,-3.39482
507,43.2621,0.0810073,-3.39482
507.5,43.311,0.0839481,-3.39614
508,43.3614,0.0822612,-3.39614
508.5,43.4099,0.079773,-3.39614
509,43.4602,0.0799364,-3.39614
509.5,43.5085,0.0822385,-3.39614
510,43.5583,0.0823505,-3.39614
510.5,43.6087,0.0786255,-3.39614
511,43.6567,0.0737565,-3.39578
511.5,43.7081,0.0718818,-3.39612
512,43.7571,0.0788771,-3.39614
512.5,43.8058,0.0834788,-3.39743
513,43.8564,0.0761093,-3.39745
513.5,43.9048,0.0784544,-3.39745
514,43.9547,0.0766381,-3.39745
514.5,44.0034,0.075157,-3.39745
515,44.0536,0.0742099,-3.39745
515.5,44.1035,0.0732079,-3.39745
516,44.1532,0.068767,-3.39745
516.5,44.2019,0.0676621,-3.39745
517,44.2513,0.0669644,-3.39745
517.5,44.3005,0.0748322,-3.39745
518,44.3497,0.0667324,-3.39745
518.5,44.3998,0.0728606,-3.39874
519,44.4497,0.0613292,-3.39873
519.5,44.4976,0.0655166,-3.39878
520,44.5475,0.0662865,-3.39877
520.5,44.5973,0.07013,-3.39877
521,44.6455,0.0662838,-3.39877
521.5,44.6948,0.0634048,-3.39877
522,44.745,0.0668229,-3.39877
522.5,44.7953,0.0664135,-3.3983
523,44.844,0.0651614,-3.39778
523.5,44.8937,0.0668068,-3.39778
524,44.9438,0.0727006,-3.39778
524.5,44.993,0.074776,-3.39778
525,45.0436,0.0737499,-3.39778
525.5,45.0928,0.0798526,-3.39778
526,45.1422,0.0772533,-3.39778
526.5,45.192,0.077802,-3.39778
527,45.2429,0.0745576,-3.39778
527.5,45.2925,0.0851473,-3.39774
528,45.3412,0.0849945,-3.3991
528.5,45.3913,0.0886786,-3.3991
529,45.4418,0.0886993,-3.3991
529.5,45.4905,0.0846495,-3.3991
530,45.5413,0.0818645,-3.40042
530.5,45.591,0.0878216,-3.40041
531,45.6406,0.0883679,-3.3991
531.5,45.6917,0.0909748,-3.3991
532,45.7415,0.097053,-3.39906
532.5,45.7912,0.112219,-3.39778
533,45.8409,0.102427,-3.39778
533.5,45.891,0.0997278,-3.39912
534,45.9401,0.100206,-3.3991
534.5,45.99,0.0987129,-3.3991
535,46.04,0.109715,-3.40041
535.5,46.0898,0.109548,-3.40041
536,46.14,0.108448,-3.40041
536.5,46.1892,0.110233,-3.40041
537,46.2393,0.111213,-3.40041
537.5,46.289,0.113487,-3.40041
538,46.339,0.11219,-3.40041
538.5,46.3886,0.110578,-3.40041
539,46.439,0.11141,-3.40041
539.5,46.4891,0.1201,-3.40041
540,46.5391,0.112592,-3.40036
540.5,46.5886,0.114526,-3.40173
541,46.6379,0.116405,-3.40173
541.5,46.6874,0.117941,-3.40173
542,46.7382,0.113027,-3.4018
542.5,46.7874,0.116972,-3.40305
543,46.8372,0.113513,-3.40318
543.5,46.8871,0.124512,-3.40173
544,46.9378,0.11812,-3.40246
544.5,46.9868,0.113258,-3.40167
545,47.0373,0.112634,-3.40306
545.5,47.0862,0.113573,-3.40306
546,47.1368,0.112472,-3.40438
546.5,47.1854,0.112695,-3.40437
547,47.2365,0.108761,-3.40437
547.5,47.2854,0.107525,-3.40308
548,47.3351,0.115466,-3.4043
548.5,47.3848,0.106818,-3.40437
549,47.435,0.116247,-3.40437
549.5,47.4849,0.117102,-3.40437
550,47.5336,0.117194,-3.40437
550.5,47.5852,0.119127,-3.40538
551,47.6339,0.114893,-3.40536
551.5,47.6839,0.116269,-3.40536
552,47.7331,0.115281,-3.40603
552.5,47.7833,0.116783,-3.40601
553,47.8324,0.113449,-3.40599
553.5,47.8831,0.117266,-3.40737
554,47.9322,0.120082,-3.40632
554.5,47.9825,0.120952,-3.40767
555,48.0298,0.128189,-3.40898
555.5,48.0823,0.120059,-3.40892
556,48.1321,0.126784,-3.40767
556.5,48.1828,0.127329,-3.40663
557,48.232,0.134239,-3.40635
557.5,48.2823,0.13534,-3.40837
558,48.3313,0.131007,-3.40865
558.5,48.3823,0.137045,-3.40863
559,48.4325,0.140305,-3.40773
559.5,48.4816,0.14147,-3.40903
560,48.5296,0.143274,-3.40924
560.5,48.5817,0.140822,-3.40997
561,48.6297,0.145401,-3.40997
561.5,48.6814,0.137193,-3.41065
562,48.7322,0.136108,-3.41129
562.5,48.7802,0.138962,-3.41129
563,48.8318,0.137317,-3.41127
563.5,48.8826,0.141082,-3.41261
564,48.9314,0.133982,-3.41161
564.5,48.9824,0.131149,-3.41161
565,49.0315,0.126741,-3.41162
565.5,49.0815,0.121369,-3.41293
566,49.1328,0.117581,-3.41293
566.5,49.1807,0.107731,-3.41547
567,49.2319,0.106745,-3.41557
567.5,49.2808,0.098371,-3.41557
568,49.3312,0.0826215,-3.41531
568.5,49.3812,0.0750383,-3.41458
569,49.4311,0.0693707,-3.41458
569.5,49.4815,0.0681417,-3.41501
570,49.531,0.049109,-3.4159
570.5,49.5807,0.0447982,-3.4159
571,49.6309,0.0327243,-3.41558
571.5,49.6805,0.0242157,-3.41592
572,49.7311,0.0139939,-3.41688
572.5,49.7807,0.00679872,-3.41653
573,49.8308,-0.00719382,-3.4159
573.5,49.8814,-0.00764854,-3.4159
574,49.9308,-0.010621,-3.4172
574.5,49.9802,-0.014176,-3.41721
575,50.0318,-0.0226692,-3.41721
575.5,50.0802,-0.019994,-3.41721
576,50.1309,-0.0169489,-3.41721
576.5,50.1803,-0.020734,-3.41721
577,50.2311,-0.0231198,-3.41855
577.5,50.2808,-0.027545,-3.41853
578,50.3306,-0.0296834,-3.41853
578.5,50.3803,-0.028304,-3.41853
579,50.4311,-0.0387077,-3.41988
579.5,50.481,-0.0309464,-3.41853
580,50.5303,-0.0294507,-3.41853
580.5,50.58,-0.0285295,-3.41853
581,50.6306,-0.0367054,-3.41854
581.5,50.6805,-0.0329209,-3.41852
582,50.7298,-0.0285458,-3.41985
582.5,50.78,-0.0286715,-3.41984
583,50.8274,-0.0335932,-3.41988
583.5,50.8789,-0.034518,-3.41985
584,50.9299,-0.0316773,-3.41985
584.5,50.9798,-0.0379745,-3.41855
585,51.03,-0.0335652,-3.41853
585.5,51.0797,-0.0364138,-3.41989
586,51.1295,-0.0391239,-3.41983
586.5,51.1798,-0.040756,-3.42121
587,51.2294,-0.0420909,-3.41984
587.5,51.2791,-0.0483019,-3.42117
588,51.3301,-0.0493935,-3.42116
588.5,51.3794,-0.0466829,-3.42116
589,51.4284,-0.0488178,-3.42116
589.5,51.4792,-0.0403691,-3.42116
590,51.5291,-0.0484999,-3.42124
590.5,51.5788,-0.0484538,-3.41984
591,51.6289,-0.0481288,-3.42117
591.5,51.6798,-0.0524067,-3.42116
592,51.7286,-0.046471,-3.42116
592.5,51.7793,-0.0514118,-3.42116
593,51.8289,-0.0552228,-3.42116
593.5,51.8788,-0.0469762,-3.42116
594,51.929,-0.0450912,-3.42116
594.5,51.979,-0.046881,-3.42116
595,52.0288,-0.0485979,-3.42115
595.5,52.0786,-0.047561,-3.42385
596,52.1282,-0.0501368,-3.42295
596.5,52.1792,-0.0441239,-3.42248
597,52.2287,-0.0497317,-3.42248
597.5,52.2784,-0.0500751,-3.42248
598,52.3294,-0.049711,-3.42248
598.5,52.3793,-0.0414593,-3.42248
599,52.4286,-0.0370017,-3.42248
599.5,52.4794,-0.0361319,-3.42248
600,52.5278,-0.0379429,-3.42387
600.5,52.5799,-0.0429232,-3.4238
601,52.63,-0.0426585,-3.4238
601.5,52.6766,-0.0378997,-3.4238
602,52.7288,-0.0314602,-3.4238
602.5,52.7801,-0.0263029,-3.4251
603,52.8296,-0.0301831,-3.42512
603.5,52.88,-0.0267088,-3.42412
604,52.9306,-0.0162448,-3.4238
604.5,52.9802,-0.023685,-3.4238
605,53.0286,-0.033583,-3.4238
605.5,53.0815,-0.0246114,-3.4238
606,53.1313,-0.0148634,-3.4238
606.5,53.1817,-0.0129971,-3.4238
607,53.2316,-0.00432402,-3.4238
607.5,53.2822,-0.00415761,-3.4238
608,53.3325,-0.00583458,-3.42516
608.5,53.3836,6.41035e-05,-3.42512
609,53.4333,-0.000798968,-3.42512
609.5,53.4837,0.00282309,-3.42512
610,53.5336,0.00181632,-3.42512
610.5,53.5832,0.00324314,-3.42508
611,53.6354,0.00294961,-3.42413
611.5,53.6845,0.00112491,-3.42536
612,53.7347,0.00302836,-3.42512
612.5,53.785,0.00128194,-3.42512
613,53.8349,0.00717958,-3.42512
613.5,53.8862,0.0108954,-3.42642
614,53.9358,0.00982819,-3.42654
614.5,53.9853,0.0122945,-3.42512
615,54.0361,0.00343207,-3.42512
615.5,54.0872,0.00717234,-3.42504
616,54.1358,0.0044644,-3.42578
616.5,54.1872,-0.000460322,-3.42575
617,54.2356,0.0104781,-3.42643
617.5,54.287,0.00678858,-3.42644
618,54.3371,0.00694377,-3.42512
618.5,54.3879,0.00821969,-3.42508
619,54.4389,0.00879462,-3.42698
619.5,54.4891,0.0110067,-3.42774
620,54.5367,0.0151642,-3.42644
620.5,54.5898,0.0175507,-3.42643
621,54.6398,0.021606,-3.42643
621.5,54.6898,0.0145889,-3.42773
622,54.7404,-0.0283746,-3.42775
622.5,54.7902,-0.0144333,-3.42775
623,54.8412,-0.0188354,-3.42775
623.5,54.8907,-0.0144248,-3.42905
624,54.9414,-0.0179314,-3.43008
624.5,54.9922,-0.0145856,-3.42896
625,55.0428,-0.0242655,-3.42874
625.5,55.0924,-0.0221364,-3.42874
626,55.143,-0.0226431,-3.42874
626.5,55.1939,-0.0198372,-3.42874
627,55.2443,-0.0255698,-3.42787
627.5,55.2949,-0.0275133,-3.42775
628,55.343,-0.0263785,-3.42775
628.5,55.3956,-0.0264282,-3.42849
629,55.444,-0.0274131,-3.4294
629.5,55.4946,-0.0253254,-3.4294
630,55.547,-0.0232713,-3.43068
630.5,55.5977,-0.0212647,-3.42972
631,55.6475,-0.0217424,-3.42972
631.5,55.699,-0.0217177,-3.42976
632,55.7484,-0.0199115,-3.43005
632.5,55.7992,-0.0272436,-3.43005
633,55.848,-0.0216448,-3.43005
633.5,55.8991,-0.0299166,-3.43005
634,55.9503,-0.0284307,-3.43005
634.5,56.0009,-0.0330577,-3.43005
635,56.0519,-0.0257811,-3.43005
635.5,56.1019,-0.0311669,-3.43005
636,56.1526,-0.0282415,-3.42877
636.5,56.203,-0.0391258,-3.42874
637,56.2535,-0.0361694,-3.42874
637.5,56.3039,-0.0267872,-3.4289
638,56.3543,-0.0334222,-3.43006
638.5,56.405,-0.0346749,-3.43006
639,56.4551,-0.0298502,-3.43006
639.5,56.5046,-0.0372219,-3.43006
640,56.5559,-0.033406,-3.43006
640.5,56.6043,-0.0408447,-3.43006
641,56.6558,-0.0365399,-3.43014
641.5,56.7065,-0.0355552,-3.43138
642,56.7567,-0.0389007,-3.43148
642.5,56.8074,-0.039907,-3.43006
643,56.8573,-0.0404922,-3.43006
643.5,56.9081,-0.0378213,-3.43006
644,56.9591,-0.0364608,-3.43041
644.5,57.0088,-0.0395395,-3.43127
645,57.0598,-0.0396252,-3.43105
645.5,57.1097,-0.0381222,-3.43105
646,57.161,-0.03762,-3.43105
646.5,57.2103,-0.0410061,-3.43073
647,57.2615,-0.0413528,-3.43006
647.5,57.3121,-0.0383904,-3.43006
648,57.3623,-0.0406628,-3.43006
648.5,57.4125,-0.0398721,-3.43142
649,57.4636,-0.0435838,-3.43139
649.5,57.5136,-0.048176,-3.43073
650,57.5631,-0.0474567,-3.43139
650.5,57.6143,-0.042437,-3.43133
651,57.6645,-0.0426878,-3.43006
651.5,57.715,-0.0415461,-3.43006
652,57.7657,-0.0403888,-3.43135
652.5,57.8159,-0.0382409,-3.43138
653,57.8661,-0.0451,-3.43006
653.5,57.9162,-0.0431474,-3.43006
654,57.9653,-0.0451219,-3.43006
654.5,58.0173,-0.0440358,-3.43006
655,58.0668,-0.0467293,-3.43006
655.5,58.1172,-0.0423432,-3.43006
656,58.1675,-0.0460822,-3.43005
656.5,58.2174,-0.0471229,-3.43137
657,58.2677,-0.0503014,-3.43137
657.5,58.318,-0.0562969,-3.43201
658,58.3683,-0.0490878,-3.43203
658.5,58.4176,-0.0583589,-3.43202
659,58.4678,-0.0604812,-3.43138
659.5,58.5188,-0.0626731,-3.43079
660,58.5685,-0.052921,-3.43039
660.5,58.6195,-0.0549725,-3.43039
661,58.6675,-0.0513685,-3.43039
661.5,58.7168,-0.0417385,-3.43085
662,58.7703,-0.0486982,-3.43173
662.5,58.8206,-0.0521662,-3.43123
663,58.8713,-0.0581565,-3.43006
663.5,58.9209,-0.0578184,-3.43006
664,58.9716,-0.0565802,-3.43008
664.5,59.0214,-0.0499623,-3.43032
665,59.0719,-0.0503428,-3.43038
665.5,59.1221,-0.0566905,-3.43038
666,59.1726,-0.0484753,-3.43038
666.5,59.223,-0.0494798,-3.43044
667,59.274,-0.0521335,-3.43039
667.5,59.3232,-0.0543366,-3.43043
668,59.3731,-0.0537902,-3.43104
668.5,59.4242,-0.0523216,-3.43104
669,59.4745,-0.0502897,-3.43104
669.5,59.5249,-0.0517681,-3.43075
670,59.5735,-0.0504525,-3.42973
670.5,59.6258,-0.0462624,-3.42973
671,59.6751,-0.0443196,-3.42973
671.5,59.7263,-0.0429407,-3.42973
672,59.7767,-0.0417043,-3.42973
672.5,59.8266,-0.0347874,-3.42973
673,59.8779,-0.0405854,-3.42973
673.5,59.9284,-0.0332874,-3.43056
674,59.979,-0.0367315,-3.43072
674.5,60.0295,-0.0351638,-3.43072
675,60.0806,-0.0416979,-3.43072
675.5,60.132,-0.0343072,-3.43108
676,60.1818,-0.0318175,-3.43111
676.5,60.2325,-0.0384206,-3.43237
677,60.2828,-0.0338484,-3.43223
677.5,60.3335,-0.0313088,-3.43139
678,60.3843,-0.0338751,-3.43138
678.5,60.4346,-0.0365292,-3.43138
679,60.4849,-0.0388131,-3.43138
679.5,60.5365,-0.034583,-3.43138
680,60.587,-0.0326055,-3.43138
680.5,60.6381,-0.0364648,-3.43155
681,60.6881,-0.0436919,-3.43138
681.5,60.7389,-0.0356647,-3.43138
682,60.7885,-0.0349155,-3.43138
682.5,60.8395,-0.0261669,-3.43138
683,60.8899,-0.0273725,-3.43138
683.5,60.9408,-0.0379197,-3.43138
684,60.991,-0.0272698,-3.43138
684.5,61.0412,-0.0365545,-3.43179
685,61.0932,-0.0327949,-3.43269
685.5,61.1429,-0.0357399,-3.43269
686,61.1938,-0.0371337,-3.43269
686.5,61.2446,-0.0324541,-3.43269
687,61.2948,-0.0370996,-3.43268
687.5,61.3459,-0.0370073,-3.4317
688,61.3954,-0.0387292,-3.4317
688.5,61.4472,-0.0399212,-3.4317
689,61.4975,-0.0362824,-3.4317
689.5,61.5479,-0.0451766,-3.43301
690,61.5988,-0.0430271,-3.43302