File: 01_Data/Helmet_Brim_Edging/STA/N2/10K_min/Helmet_Brim_Edging_STA_N2_10KData_250521_R5.csv
Temp./C,Time/min,DSC/(mW/mg),Mass loss/mg
40.0,0.0,0.697255,0.0180213
40.6,0.0824481,0.707797,0.0179819
41.2,0.162071,0.71778,0.0167846
41.8,0.243435,0.730227,0.0174857
42.4,0.322503,0.738951,0.0176567
43,0.399032,0.750153,0.016128
43.6,0.47493,0.757406,0.0181651
44.2,0.55263,0.774251,0.0177022
44.8,0.629463,0.777591,0.0176678
45.4,0.7037,0.79003,0.0180165
46,0.776782,0.789646,0.0178716
46.6,0.852,0.808322,0.0173922
47.2,0.923485,0.812005,0.0173369
47.8,0.99568,0.821466,0.0173618
48.4,1.06505,0.830111,0.0173222
49,1.13606,0.843606,0.0183071
49.6,1.2117,0.848146,0.0190193
50.2,1.28088,0.854971,0.0190131
50.8,1.35073,0.868243,0.0189683
51.4,1.41985,0.8742,0.0188749
52,1.4893,0.878826,0.0174578
52.6,1.55959,0.887317,0.018827
53.2,1.62729,0.890952,0.0188918
53.8,1.69688,0.899139,0.0190017
54.4,1.76362,0.908117,0.0174277
55,1.83305,0.912373,0.0174627
55.6,1.89982,0.915038,0.0176261
56.2,1.96612,0.926786,0.0179299
56.8,2.03362,0.926962,0.018334
57.4,2.10013,0.93775,0.0178401
58,2.1654,0.945063,0.0176783
58.6,2.22978,0.956492,0.0184583
59.2,2.2929,0.954965,0.0188886
59.8,2.36038,0.968354,0.0195131
60.4,2.42693,0.97453,0.0202025
61,2.49023,0.980107,0.0198933
61.6,2.5551,0.978968,0.0215287
62.2,2.61769,0.98407,0.0194616
62.8,2.68287,0.99832,0.0189035
63.4,2.74727,1.00111,0.0197783
64,2.80629,1.01173,0.0201979
64.6,2.87311,1.01591,0.0199456
65.2,2.93757,1.01564,0.0201854
65.8,3.0006,1.0276,0.0184881
66.4,3.06025,1.0213,0.0187682
67,3.12359,1.03013,0.0186824
67.6,3.18798,1.02894,0.0187841
68.2,3.24865,1.02816,0.0187976
68.8,3.31068,1.03589,0.0200999
69.4,3.37291,1.03195,0.0197618
70,3.43477,1.0411,0.0200833
70.6,3.49642,1.03882,0.0187648
71.2,3.55858,1.03936,0.0187963
71.8,3.6185,1.04343,0.0187769
72.4,3.68092,1.03668,0.0187051
73,3.74318,1.04691,0.017485
73.6,3.80465,1.05177,0.0187725
74.2,3.8654,1.05138,0.0192797
74.8,3.92601,1.04843,0.0201025
75.4,3.98671,1.05956,0.0187842
76,4.048,1.05699,0.0200902
76.6,4.10986,1.06166,0.0210613
77.2,4.17052,1.0657,0.0214638
77.8,4.22993,1.06804,0.0210496
78.4,4.29115,1.07373,0.0200722
79,4.35052,1.07145,0.0192113
79.6,4.41204,1.07161,0.0188351
80.2,4.47223,1.07725,0.0200945
80.8,4.53273,1.08127,0.0191542
81.4,4.59172,1.07957,0.0187515
82,4.65266,1.08777,0.0187828
82.6,4.71326,1.09068,0.020091
83.2,4.77235,1.09443,0.0194383
83.8,4.83279,1.09871,0.0207386
84.4,4.89153,1.10024,0.0206152
85,4.95155,1.10216,0.0210471
85.6,5.01223,1.09955,0.0190257
86.2,5.07141,1.10139,0.0191607
86.8,5.13083,1.10665,0.0202148
87.4,5.19036,1.1153,0.0187756
88,5.25032,1.1231,0.017787
88.6,5.30913,1.1158,0.0177853
89.2,5.36743,1.12495,0.0191105
89.8,5.42538,1.12203,0.0190984
90.4,5.48353,1.1301,0.0200789
91,5.54482,1.12492,0.0187765
91.6,5.60145,1.12912,0.0200938
92.2,5.65852,1.12759,0.0192807
92.8,5.72055,1.13171,0.0200998
93.4,5.77841,1.13267,0.0187379
94,5.8364,1.13895,0.0188391
94.6,5.89491,1.14269,0.0187809
95.2,5.95395,1.14149,0.0174546
95.8,6.01257,1.1537,0.0200476
96.4,6.07035,1.15448,0.0221773
97,6.12786,1.14685,0.0208803
97.6,6.18743,1.15804,0.0182801
98.2,6.24591,1.15699,0.01856
98.8,6.30239,1.15603,0.0195522
99.4,6.36132,1.15669,0.0208812
100,6.41712,1.16488,0.0195552
100.6,6.47815,1.16753,0.0195667
101.2,6.53533,1.16366,0.0209159
101.8,6.59172,1.16264,0.0195538
102.4,6.65121,1.17091,0.0182301
103,6.70933,1.17958,0.01823
103.6,6.76639,1.16897,0.0182301
104.2,6.82492,1.17752,0.0168464
104.8,6.88232,1.17601,0.01823
105.4,6.94085,1.1823,0.0168566
106,6.99771,1.18645,0.0178992
106.6,7.0566,1.19214,0.0179143
107.2,7.11381,1.19147,0.0190123
107.8,7.17279,1.19709,0.01954
108.4,7.22994,1.20579,0.018579
109,7.28833,1.20591,0.0195506
109.6,7.34552,1.20573,0.0182508
110.2,7.40448,1.20729,0.0195515
110.8,7.46042,1.21006,0.0196018
111.4,7.51675,1.21043,0.0182237
112,7.57638,1.22357,0.0195497
112.6,7.63364,1.2194,0.0194688
113.2,7.69255,1.22496,0.0195384
113.8,7.74906,1.23675,0.0181682
114.4,7.80678,1.23315,0.0182212
115,7.86298,1.23871,0.0188766
115.6,7.92262,1.2458,0.0188812
116.2,7.97956,1.24293,0.019491
116.8,8.03755,1.25069,0.0195551
117.4,8.09582,1.24822,0.0208545
118,8.15262,1.25169,0.0208599
118.6,8.21022,1.24225,0.02086
119.2,8.26707,1.25131,0.0208118
119.8,8.32544,1.24833,0.0195398
120.4,8.38237,1.24995,0.0198614
121,8.44028,1.24958,0.0195396
121.6,8.49749,1.24855,0.0206314
122.2,8.55459,1.25576,0.0208643
122.8,8.61224,1.25771,0.0191223
123.4,8.66952,1.25546,0.0144687
124,8.72772,1.26019,0.0165224
124.6,8.78581,1.2648,0.0203472
125.2,8.84108,1.27257,0.0201632
125.8,8.90026,1.27209,0.0198866
126.4,8.95654,1.27982,0.0192756
127,9.01489,1.28161,0.0237502
127.6,9.07143,1.29202,0.022368
128.2,9.13012,1.29477,0.0229149
128.8,9.18634,1.29001,0.016897
129.4,9.24272,1.2947,0.0175904
130,9.30126,1.29176,0.0168106
130.6,9.35807,1.29908,0.0174586
131.2,9.41458,1.30966,0.0178995
131.8,9.47301,1.31149,0.0179
132.4,9.52964,1.32286,0.0179
133,9.58688,1.32813,0.0178995
133.6,9.64256,1.34098,0.0182232
134.2,9.70214,1.34702,0.0184983
134.8,9.75824,1.34779,0.0182298
135.4,9.81561,1.37161,0.0182303
136,9.87316,1.37242,0.0195392
136.6,9.92969,1.37767,0.019546
137.2,9.98653,1.38809,0.0182125
137.8,10.0438,1.39096,0.0195402
138.4,10.1013,1.4109,0.0194101
139,10.158,1.41885,0.0195392
139.6,10.2155,1.43505,0.019539
140.2,10.2708,1.44751,0.0188788
140.8,10.3298,1.4662,0.0188799
141.4,10.386,1.48998,0.0188158
142,10.4426,1.5043,0.01757
142.6,10.4985,1.52068,0.0175703
143.2,10.5548,1.55024,0.0175137
143.8,10.6128,1.57028,0.0175211
144.4,10.6712,1.59852,0.0188898
145,10.7288,1.62338,0.0188747
145.6,10.7869,1.65044,0.0188889
146.2,10.8436,1.6809,0.017565
146.8,10.9008,1.70882,0.0189292
147.4,10.9585,1.73399,0.0175451
148,11.0156,1.76585,0.0182065
148.6,11.072,1.79026,0.0188902
149.2,11.1295,1.82673,0.0182772
149.8,11.1835,1.85383,0.0188811
150.4,11.2427,1.87689,0.0188884
151,11.2997,1.90781,0.0201927
151.6,11.3556,1.93227,0.0188864
152.2,11.4139,1.96444,0.01889
152.8,11.4713,1.97117,0.018907
153.4,11.5267,1.99142,0.0202007
154,11.5837,1.98351,0.0202133
154.6,11.6404,1.97313,0.0188924
155.2,11.6959,1.95159,0.01889
155.8,11.7523,1.90136,0.01894
156.4,11.8077,1.84765,0.0186737
157,11.8639,1.77347,0.0188812
157.6,11.9179,1.70299,0.0194536
158.2,11.9756,1.62882,0.0185864
158.8,12.0315,1.55917,0.0182296
159.4,12.0868,1.51498,0.0172342
160,12.1416,1.47633,0.01724
160.6,12.1997,1.44108,0.0173472
161.2,12.2548,1.41708,0.0175419
161.8,12.311,1.39798,0.018897
162.4,12.3671,1.38674,0.0178988
163,12.4233,1.37562,0.0179
163.6,12.4809,1.36227,0.0179
164.2,12.5372,1.35472,0.0179055
164.8,12.5932,1.35783,0.0192435
165.4,12.6493,1.35692,0.0188762
166,12.7065,1.35195,0.0175607
166.6,12.7624,1.35335,0.0189331
167.2,12.8189,1.35545,0.0188883
167.8,12.8761,1.35319,0.0175679
168.4,12.9302,1.35803,0.01757
169,12.9896,1.35325,0.01757
169.6,13.0454,1.35746,0.01757
170.2,13.1026,1.35603,0.0161429
170.8,13.1588,1.35852,0.0162551
171.4,13.2148,1.3545,0.0175695
172,13.2718,1.34816,0.0175701
172.6,13.3285,1.35082,0.0177613
173.2,13.3847,1.36019,0.0176148
173.8,13.4405,1.35994,0.017577
174.4,13.4973,1.35921,0.0169058
175,13.5536,1.35915,0.01691
175.6,13.6109,1.36947,0.01691
176.2,13.6661,1.36458,0.01691
176.8,13.7235,1.36473,0.0177732
177.4,13.7795,1.3614,0.0169099
178,13.8342,1.36252,0.016903
178.6,13.8931,1.36012,0.0155959
179.2,13.9464,1.36401,0.0169009
179.8,14.0041,1.36785,0.0155908
180.4,14.0629,1.36882,0.01559
181,14.1187,1.36844,0.0155901
181.6,14.1758,1.37304,0.0156035
182.2,14.2317,1.37191,0.0175682
182.8,14.2883,1.36098,0.01757
183.4,14.3439,1.37535,0.01757
184,14.4013,1.37664,0.0175702
184.6,14.4578,1.36984,0.0162186
185.2,14.5146,1.37231,0.0162223
185.8,14.5707,1.38277,0.0176135
186.4,14.6258,1.38855,0.0162499
187,14.6838,1.37642,0.01625
187.6,14.7373,1.38641,0.01625
188.2,14.7956,1.3852,0.01625
188.8,14.8521,1.39573,0.01625
189.4,14.9088,1.39648,0.0162638
190,14.9656,1.3943,0.0175699
190.6,15.0202,1.39964,0.01757
191.2,15.0776,1.39315,0.0175698
191.8,15.1343,1.38454,0.0161653
192.4,15.1901,1.39578,0.01626
193,15.2466,1.39433,0.0162604
193.6,15.3032,1.39315,0.0149739
194.2,15.3597,1.4001,0.0155878
194.8,15.416,1.40234,0.0162504
195.4,15.471,1.39071,0.0158522
196,15.5291,1.39627,0.01559
196.6,15.5845,1.39496,0.0155913
197.2,15.6416,1.39704,0.0161981
197.8,15.6977,1.40976,0.0162555
198.4,15.7542,1.40861,0.0150087
199,15.811,1.40575,0.01361
199.6,15.8668,1.41282,0.01361
200.2,15.9245,1.40729,0.0136005
200.8,15.9806,1.40734,0.0142667
201.4,16.0373,1.41236,0.01427
202,16.0932,1.41749,0.0142701
202.6,16.1502,1.41471,0.0145378
203.2,16.2074,1.41955,0.0149177
203.8,16.2636,1.41138,0.01362
204.4,16.3166,1.4187,0.01362
205,16.3759,1.42536,0.01362
205.6,16.432,1.42291,0.0132609
206.2,16.4888,1.42573,0.0132901
206.8,16.5453,1.43067,0.0127141
207.4,16.602,1.42462,0.0133064
208,16.6582,1.41657,0.0146108
208.6,16.7148,1.41258,0.01461
209.2,16.7706,1.42171,0.0146094
209.8,16.827,1.42496,0.0132418
210.4,16.884,1.42625,0.01329
211,16.9383,1.42494,0.013292
211.6,16.9971,1.42132,0.0142485
212.2,17.0529,1.42053,0.0142943
212.8,17.1086,1.42482,0.0142952
213.4,17.1667,1.43832,0.01427
214,17.2238,1.42985,0.01427
214.6,17.2787,1.43422,0.0143165
215.2,17.3359,1.44021,0.01296
215.8,17.3922,1.44552,0.0142692
216.4,17.4479,1.44573,0.0138015
217,17.506,1.45118,0.0132817
217.6,17.5614,1.45032,0.0129498
218.2,17.6177,1.4539,0.0116346
218.8,17.6749,1.44212,0.01164
219.4,17.7307,1.44541,0.01164
220,17.7876,1.45095,0.01164
220.6,17.8443,1.45309,0.01164
221.2,17.9006,1.45484,0.0116417
221.8,17.9568,1.45136,0.0121578
222.4,18.0147,1.44463,0.0113105
223,18.0703,1.44797,0.00998768
223.6,18.1277,1.45304,0.00999
224.2,18.1835,1.45671,0.00999
224.8,18.2406,1.46233,0.00999
225.4,18.2969,1.45947,0.00998993
226,18.3532,1.46507,0.00995767
226.6,18.4096,1.47236,0.00900025
227.2,18.4665,1.46548,0.00971145
227.8,18.5229,1.45994,0.0103199
228.4,18.5792,1.46088,0.0103197
229,18.6355,1.46238,0.00930062
229.6,18.6914,1.46895,0.00899996
230.2,18.7493,1.45894,0.00900308
230.8,18.8053,1.45534,0.00771166
231.4,18.8614,1.46278,0.00801929
232,18.9182,1.46936,0.00798729
232.6,18.9754,1.46631,0.00867985
233.2,19.0315,1.47403,0.00741605
233.8,19.0855,1.46798,0.00736011
234.4,19.1451,1.47721,0.00736322
235,19.2022,1.47864,0.00604019
235.6,19.2578,1.47552,0.00604
236.2,19.3142,1.47603,0.00604
236.8,19.3713,1.48376,0.00603994
237.4,19.4272,1.48211,0.00551041
238,19.4847,1.48006,0.00505004
238.6,19.5406,1.48756,0.00504331
239.2,19.5981,1.48179,0.00472055
239.8,19.654,1.48109,0.00472005
240.4,19.7117,1.48244,0.00444635
241,19.7673,1.48639,0.0040617
241.6,19.8238,1.48713,0.00340506
242.2,19.8816,1.48533,0.0034
242.8,19.938,1.49433,0.0034
243.4,19.9947,1.48932,0.00340003
244,20.0519,1.4822,0.00243487
244.6,20.1082,1.48238,0.0020801
245.2,20.1652,1.48497,0.00208
245.8,20.221,1.48192,0.00208
246.4,20.2779,1.48963,0.00208348
247,20.3357,1.49161,0.00077122
247.6,20.3918,1.49127,0.000770212
248.2,20.4482,1.48975,-7.15352e-05
248.8,20.5051,1.48533,-0.000540036
249.4,20.5626,1.48943,-0.000539949
250,20.6188,1.49083,-0.0020948
250.6,20.6753,1.49067,-0.00372316
251.2,20.7323,1.47996,-0.0025789
251.8,20.7885,1.48681,-0.00219142
252.4,20.8442,1.48789,-0.00219059
253,20.9026,1.48894,-0.00350456
253.6,20.9587,1.48932,-0.00350998
254.2,21.015,1.49608,-0.0035087
254.8,21.0732,1.49499,-0.00615342
255.4,21.1293,1.49463,-0.00615
256,21.1848,1.49728,-0.00615
256.6,21.2426,1.49064,-0.00615
257.2,21.2996,1.49443,-0.00615
257.8,21.3572,1.49753,-0.00615
258.4,21.4134,1.4989,-0.00615208
259,21.4697,1.50335,-0.0082058
259.6,21.5269,1.50785,-0.00844991
260.2,21.5837,1.51397,-0.0084506
260.8,21.6407,1.51843,-0.00849497
261.4,21.6971,1.51583,-0.00981639
262,21.7537,1.51735,-0.00975871
262.6,21.8106,1.5063,-0.00844908
263.2,21.8682,1.52011,-0.00929597
263.8,21.924,1.51901,-0.0107706
264.4,21.9812,1.52012,-0.0107601
265,22.0374,1.52047,-0.0121382
265.6,22.0935,1.51099,-0.012022
266.2,22.1494,1.51773,-0.0133904
266.8,22.2081,1.52307,-0.0138697
267.4,22.2652,1.51313,-0.01438
268,22.3214,1.50534,-0.0143095
268.6,22.3784,1.49747,-0.011531
269.2,22.4346,1.51204,-0.0158526
269.8,22.4926,1.51497,-0.018489
270.4,22.5491,1.52131,-0.0190991
271,22.6041,1.52588,-0.0190918
271.6,22.6625,1.52913,-0.0204105
272.2,22.7189,1.53814,-0.02041
272.8,22.7757,1.53857,-0.0204099
273.4,22.8328,1.54584,-0.0217121
274,22.8897,1.54916,-0.0232769
274.6,22.9471,1.549,-0.0232621
275.2,23.0036,1.5499,-0.0243706
275.8,23.0601,1.55829,-0.02437
276.4,23.1175,1.55417,-0.0258764
277,23.1735,1.55656,-0.0271306
277.6,23.229,1.56298,-0.0283768
278.2,23.2867,1.56376,-0.0297936
278.8,23.3436,1.56469,-0.0309711
279.4,23.4024,1.56558,-0.0324522
280,23.4595,1.56353,-0.0310489
280.6,23.5163,1.5636,-0.0310732
281.2,23.5736,1.56612,-0.0323792
281.8,23.63,1.57177,-0.0323088
282.4,23.685,1.57119,-0.0352749
283,23.7435,1.57677,-0.0374367
283.6,23.8011,1.59301,-0.0389203
284.2,23.8583,1.58283,-0.0404631
284.8,23.9148,1.59782,-0.0403269
285.4,23.9718,1.59913,-0.0417027
286,24.0293,1.59925,-0.0430287
286.6,24.0872,1.60888,-0.0443294
287.2,24.1438,1.61328,-0.044838
287.8,24.2013,1.60959,-0.0457436
288.4,24.258,1.60701,-0.0469917
289,24.3147,1.61184,-0.0496157
289.6,24.3723,1.621,-0.0495733
290.2,24.429,1.62334,-0.0509302
290.8,24.4869,1.62299,-0.0522539
291.4,24.543,1.61617,-0.0535552
292,24.6003,1.62247,-0.0549762
292.6,24.6575,1.63123,-0.0570164
293.2,24.7144,1.63892,-0.0593066
293.8,24.7711,1.63075,-0.0605806
294.4,24.8279,1.63028,-0.0606812
295,24.8854,1.6331,-0.0618903
295.6,24.941,1.63672,-0.0650362
296.2,24.9995,1.63775,-0.0673636
296.8,25.0571,1.64267,-0.0687171
297.4,25.1146,1.64099,-0.0700435
298,25.1713,1.65348,-0.0712724
298.6,25.2279,1.65845,-0.0739041
299.2,25.2856,1.66691,-0.0754194
299.8,25.3433,1.68196,-0.077168
300.4,25.4008,1.67891,-0.0797993
301,25.4557,1.68847,-0.0826482
301.6,25.5142,1.69953,-0.0841227
302.2,25.5709,1.69929,-0.0855857
302.8,25.6286,1.7137,-0.08812
303.4,25.6837,1.71045,-0.0897475
304,25.7427,1.71605,-0.092744
304.6,25.8,1.71631,-0.0962758
305.2,25.8566,1.73316,-0.0995048
305.8,25.9141,1.72986,-0.10402
306.4,25.9717,1.74485,-0.1027
307,26.0256,1.755,-0.106053
307.6,26.0852,1.75803,-0.109097
308.2,26.1432,1.76407,-0.111272
308.8,26.2002,1.7712,-0.114989
309.4,26.2568,1.79081,-0.118744
310,26.3154,1.79942,-0.121255
310.6,26.3719,1.80551,-0.124253
311.2,26.4276,1.81623,-0.126986
311.8,26.4872,1.819,-0.131574
312.4,26.544,1.81389,-0.135455
313,26.5999,1.79445,-0.139169
313.6,26.6589,1.7577,-0.143054
314.2,26.7145,1.70103,-0.146277
314.8,26.7716,1.65532,-0.15098
315.4,26.8284,1.63269,-0.154632
316,26.8851,1.61481,-0.15677
316.6,26.9417,1.59763,-0.161742
317.2,26.9994,1.5954,-0.168583
317.8,27.0556,1.5951,-0.172316
318.4,27.1124,1.59909,-0.17669
319,27.1705,1.601,-0.181107
319.6,27.2274,1.59536,-0.186018
320.2,27.2846,1.59398,-0.190798
320.8,27.3413,1.59396,-0.197852
321.4,27.3984,1.60126,-0.203433
322,27.4565,1.60469,-0.20865
322.6,27.5131,1.6081,-0.212714
323.2,27.5711,1.61122,-0.217976
323.8,27.6286,1.60455,-0.223331
324.4,27.6851,1.60731,-0.229505
325,27.7427,1.61452,-0.23532
325.6,27.801,1.60283,-0.241776
326.2,27.8568,1.61353,-0.247765
326.8,27.9142,1.6234,-0.253243
327.4,27.9725,1.61541,-0.259181
328,28.0302,1.62396,-0.266516
328.6,28.0874,1.62257,-0.274469
329.2,28.1442,1.62389,-0.282535
329.8,28.2022,1.62888,-0.289246
330.4,28.2595,1.6413,-0.297347
331,28.3152,1.64499,-0.304242
331.6,28.3745,1.65142,-0.313181
332.2,28.4323,1.65707,-0.320047
332.8,28.4893,1.66608,-0.329156
333.4,28.5466,1.67442,-0.336885
334,28.604,1.66791,-0.346128
334.6,28.6625,1.67115,-0.355873
335.2,28.7195,1.67701,-0.363891
335.8,28.777,1.67647,-0.375416
336.4,28.8356,1.66857,-0.384942
337,28.8916,1.66915,-0.394816
337.6,28.95,1.67304,-0.405761
338.2,29.008,1.67848,-0.417037
338.8,29.0643,1.68018,-0.429155
339.4,29.1229,1.67545,-0.438653
340,29.1808,1.68213,-0.448001
340.6,29.2378,1.6842,-0.460312
341.2,29.2947,1.68112,-0.471822
341.8,29.3525,1.6858,-0.483384
342.4,29.4109,1.68226,-0.498596
343,29.4688,1.68211,-0.51171
343.6,29.5257,1.67841,-0.525794
344.2,29.584,1.67875,-0.54033
344.8,29.6415,1.68277,-0.551671
345.4,29.6972,1.67581,-0.567028
346,29.7564,1.68331,-0.581635
346.6,29.8139,1.67947,-0.597984
347.2,29.8717,1.67292,-0.614114
347.8,29.9291,1.66539,-0.630712
348.4,29.9866,1.66073,-0.647245
349,30.0438,1.65264,-0.66627
349.6,30.1021,1.64569,-0.684867
350.2,30.1597,1.63904,-0.702981
350.8,30.2172,1.63804,-0.721988
351.4,30.275,1.63873,-0.742557
352,30.3328,1.63292,-0.763985
352.6,30.3901,1.62674,-0.784367
353.2,30.4478,1.62309,-0.806231
353.8,30.5054,1.62152,-0.828254
354.4,30.5629,1.62729,-0.850624
355,30.6213,1.62598,-0.876411
355.6,30.6788,1.63636,-0.899096
356.2,30.737,1.64174,-0.923615
356.8,30.7952,1.6418,-0.947572
357.4,30.8525,1.6426,-0.973124
358,30.9089,1.64803,-0.995501
358.6,30.9674,1.6456,-1.01942
359.2,31.0251,1.63896,-1.04441
359.8,31.0816,1.63731,-1.0659
360.4,31.1412,1.63194,-1.09108
361,31.1987,1.63135,-1.11194
361.6,31.2562,1.6236,-1.1346
362.2,31.3154,1.62271,-1.15681
362.8,31.3727,1.62291,-1.17735
363.4,31.4298,1.61328,-1.19694
364,31.4879,1.61529,-1.21958
364.6,31.5454,1.6176,-1.2373
365.2,31.6032,1.60872,-1.25553
365.8,31.661,1.60801,-1.27521
366.4,31.7183,1.60706,-1.29181
367,31.776,1.60864,-1.30842
367.6,31.8343,1.59485,-1.32416
368.2,31.8924,1.58923,-1.34003
368.8,31.9505,1.58556,-1.35555
369.4,32.0079,1.59225,-1.37059
370,32.066,1.58272,-1.38603
370.6,32.1237,1.58205,-1.39883
371.2,32.181,1.57234,-1.4125
371.8,32.2395,1.56737,-1.42596
372.4,32.2965,1.56024,-1.43766
373,32.3552,1.54585,-1.45071
373.6,32.4131,1.5521,-1.46538
374.2,32.4696,1.54526,-1.47667
374.8,32.5297,1.53645,-1.48877
375.4,32.5873,1.529,-1.4989
376,32.6458,1.52655,-1.50971
376.6,32.702,1.52583,-1.52182
377.2,32.7614,1.51213,-1.53262
377.8,32.8204,1.50884,-1.54348
378.4,32.8773,1.50224,-1.55511
379,32.9363,1.50355,-1.56498
379.6,32.9933,1.49674,-1.57411
380.2,33.0511,1.49421,-1.58388
380.8,33.1103,1.49507,-1.59335
381.4,33.1667,1.48878,-1.6029
382,33.2266,1.48086,-1.6137
382.6,33.2822,1.47991,-1.62141
383.2,33.3424,1.47563,-1.63052
383.8,33.4009,1.47881,-1.64154
384.4,33.4583,1.47467,-1.65045
385,33.5178,1.46621,-1.65969
385.6,33.5756,1.46513,-1.66678
386.2,33.633,1.46661,-1.67556
386.8,33.6911,1.45365,-1.68312
387.4,33.7495,1.45292,-1.69163
388,33.8081,1.44586,-1.70171
388.6,33.8638,1.45154,-1.70893
389.2,33.9241,1.44794,-1.71701
389.8,33.9826,1.44736,-1.72522
390.4,34.0405,1.44596,-1.73322
391,34.0986,1.44297,-1.7405
391.6,34.1577,1.43658,-1.7495
392.2,34.2162,1.43138,-1.75795
392.8,34.273,1.42958,-1.76709
393.4,34.3307,1.42269,-1.77261
394,34.3885,1.41882,-1.78008
394.6,34.4493,1.42336,-1.78907
395.2,34.5072,1.42485,-1.79617
395.8,34.5646,1.42186,-1.80399
396.4,34.6235,1.4166,-1.81052
397,34.6817,1.41906,-1.81975
397.6,34.7399,1.42102,-1.82555
398.2,34.7984,1.41914,-1.83359
398.8,34.8567,1.41981,-1.84024
399.4,34.914,1.41986,-1.84828
400,34.9729,1.42613,-1.85511
400.6,35.0314,1.41745,-1.86234
401.2,35.0897,1.41836,-1.86972
401.8,35.1476,1.41857,-1.87616
402.4,35.205,1.42199,-1.88397
403,35.2645,1.42527,-1.89071
403.6,35.3223,1.42935,-1.89742
404.2,35.3812,1.42875,-1.9045
404.8,35.4385,1.42367,-1.91329
405.4,35.4968,1.42865,-1.91974
406,35.5555,1.43364,-1.92706
406.6,35.6141,1.42706,-1.93393
407.2,35.6716,1.41836,-1.94056
407.8,35.7296,1.40797,-1.9478
408.4,35.7885,1.40325,-1.95508
409,35.847,1.42235,-1.96167
409.6,35.9044,1.42967,-1.96909
410.2,35.9633,1.42894,-1.975
410.8,36.0218,1.42848,-1.98176
411.4,36.0777,1.43079,-1.9888
412,36.1389,1.43454,-1.99495
412.6,36.1977,1.43962,-2.00178
413.2,36.2562,1.43363,-2.00938
413.8,36.3133,1.43514,-2.01641
414.4,36.3727,1.43419,-2.02351
415,36.4303,1.44298,-2.03108
415.6,36.4901,1.45235,-2.03787
416.2,36.5487,1.45787,-2.04451
416.8,36.605,1.46093,-2.05158
417.4,36.6654,1.46955,-2.05893
418,36.7238,1.46827,-2.06619
418.6,36.7825,1.46608,-2.07362
419.2,36.8408,1.46608,-2.08141
419.8,36.8996,1.4747,-2.08908
420.4,36.9581,1.47319,-2.09678
421,37.0168,1.49111,-2.10376
421.6,37.0753,1.48396,-2.11084
422.2,37.1333,1.49337,-2.11732
422.8,37.192,1.50083,-2.12447
423.4,37.2514,1.50677,-2.13215
424,37.3102,1.51017,-2.13961
424.6,37.3685,1.50951,-2.14757
425.2,37.428,1.52271,-2.15514
425.8,37.4854,1.52708,-2.16192
426.4,37.5447,1.52946,-2.16976
427,37.6028,1.53325,-2.17752
427.6,37.6614,1.52933,-2.18355
428.2,37.7208,1.53182,-2.19211
428.8,37.7788,1.54066,-2.20018
429.4,37.8377,1.54573,-2.20757
430,37.8967,1.55651,-2.21666
430.6,37.9548,1.57437,-2.22536
431.2,38.0136,1.57716,-2.23391
431.8,38.0732,1.58109,-2.2424
432.4,38.1303,1.58785,-2.25211
433,38.1893,1.59886,-2.26083
433.6,38.2482,1.60367,-2.26815
434.2,38.307,1.6084,-2.27787
434.8,38.3649,1.60673,-2.28618
435.4,38.424,1.6138,-2.29519
436,38.4842,1.61651,-2.30516
436.6,38.5426,1.61914,-2.31424
437.2,38.6001,1.63241,-2.32362
437.8,38.6597,1.63755,-2.33344
438.4,38.7185,1.65773,-2.34324
439,38.7772,1.6666,-2.35314
439.6,38.8359,1.66647,-2.36494
440.2,38.8954,1.67622,-2.3753
440.8,38.9537,1.68852,-2.3865
441.4,39.0121,1.69544,-2.39676
442,39.0713,1.70447,-2.40632
442.6,39.1285,1.71274,-2.41551
443.2,39.1887,1.70792,-2.42746
443.8,39.2491,1.73003,-2.43882
444.4,39.306,1.74961,-2.45156
445,39.3662,1.75753,-2.46412
445.6,39.4247,1.76235,-2.47369
446.2,39.4833,1.76317,-2.48582
446.8,39.5422,1.75915,-2.49813
447.4,39.6011,1.76714,-2.51054
448,39.6609,1.77479,-2.52428
448.6,39.7186,1.78416,-2.53647
449.2,39.7772,1.79298,-2.54994
449.8,39.8361,1.80169,-2.56103
450.4,39.8953,1.80294,-2.5707
451,39.9552,1.80631,-2.58997
451.6,40.0139,1.80589,-2.60258
452.2,40.073,1.81115,-2.61793
452.8,40.1314,1.81614,-2.63065
453.4,40.1908,1.82414,-2.64601
454,40.2497,1.82948,-2.65978
454.6,40.3084,1.82309,-2.67367
455.2,40.3673,1.81048,-2.68849
455.8,40.4252,1.8088,-2.70166
456.4,40.4845,1.81052,-2.71794
457,40.5444,1.80597,-2.73215
457.6,40.6025,1.80653,-2.74795
458.2,40.6612,1.80784,-2.76173
458.8,40.7202,1.80393,-2.77853
459.4,40.78,1.79694,-2.79329
460,40.8387,1.78951,-2.80947
460.6,40.8952,1.78536,-2.82418
461.2,40.9564,1.76762,-2.84164
461.8,41.0141,1.75114,-2.85796
462.4,41.0737,1.74711,-2.87531
463,41.1327,1.7357,-2.89058
463.6,41.1911,1.7178,-2.90528
464.2,41.2495,1.7061,-2.92059
464.8,41.3088,1.68378,-2.93647
465.4,41.3676,1.66744,-2.95158
466,41.4239,1.64507,-2.96747
466.6,41.4845,1.62042,-2.98315
467.2,41.5437,1.59914,-2.99785
467.8,41.601,1.57366,-3.01427
468.4,41.6601,1.54988,-3.02843
469,41.7193,1.51991,-3.04337
469.6,41.7776,1.49128,-3.05571
470.2,41.8365,1.46523,-3.07175
470.8,41.8939,1.43217,-3.08484
471.4,41.9533,1.38901,-3.09508
472,42.0123,1.35492,-3.10662
472.6,42.0706,1.32041,-3.12581
473.2,42.1285,1.28796,-3.13808
473.8,42.1878,1.23933,-3.14981
474.4,42.2457,1.2052,-3.16026
475,42.3041,1.16894,-3.17334
475.6,42.3627,1.13341,-3.18505
476.2,42.4218,1.09101,-3.19649
476.8,42.4798,1.05296,-3.20533
477.4,42.5387,1.01214,-3.21588
478,42.5971,0.97917,-3.2245
478.6,42.6535,0.940801,-3.23294
479.2,42.7137,0.911683,-3.24385
479.8,42.7728,0.869324,-3.25167
480.4,42.8309,0.846592,-3.25376
481,42.8902,0.807889,-3.26033
481.6,42.9487,0.774558,-3.26637
482.2,43.0074,0.743729,-3.27253
482.8,43.0666,0.715357,-3.27947
483.4,43.1247,0.67898,-3.28381
484,43.1834,0.654663,-3.28696
484.6,43.2429,0.608224,-3.29115
485.2,43.3014,0.591661,-3.29651
485.8,43.3602,0.574339,-3.30079
486.4,43.42,0.555097,-3.30456
487,43.4783,0.521723,-3.3077
487.6,43.5375,0.517118,-3.30903
488.2,43.5959,0.499243,-3.31258
488.8,43.6524,0.475989,-3.31272
489.4,43.7151,0.461146,-3.31423
490,43.7732,0.462568,-3.31554
490.6,43.833,0.460835,-3.3166
491.2,43.8918,0.431392,-3.31827
491.8,43.9501,0.43411,-3.31918
492.4,44.0093,0.438497,-3.31952
493,44.0683,0.428718,-3.32081
493.6,44.1282,0.424426,-3.32165
494.2,44.1863,0.425988,-3.32117
494.8,44.2456,0.416136,-3.32246
495.4,44.3056,0.41454,-3.32246
496,44.3647,0.41691,-3.324
496.6,44.4224,0.410508,-3.32509
497.2,44.4831,0.412233,-3.32509
497.8,44.5425,0.403023,-3.3251
498.4,44.6017,0.3996,-3.3264
499,44.661,0.399559,-3.32335
499.6,44.72,0.401938,-3.32667
500.2,44.7795,0.399343,-3.32861
500.8,44.8372,0.393729,-3.32861
501.4,44.8981,0.407146,-3.32861
502,44.9554,0.404082,-3.32862
502.6,45.0167,0.412587,-3.32598
503.2,45.0749,0.412309,-3.32597
503.8,45.135,0.422151,-3.32729
504.4,45.194,0.415978,-3.32727
505,45.2526,0.411893,-3.32564
505.6,45.3122,0.419267,-3.32532
506.2,45.3723,0.427356,-3.32532
506.8,45.4315,0.421328,-3.32532
507.4,45.4906,0.419485,-3.32631
508,45.5506,0.418326,-3.32762
508.6,45.6091,0.414012,-3.3276
509.2,45.6689,0.417053,-3.32406
509.8,45.7277,0.416369,-3.32933
510.4,45.7868,0.414893,-3.33057
511,45.8473,0.416359,-3.32926
511.6,45.9055,0.415357,-3.32926
512.2,45.9639,0.4183,-3.32549
512.8,46.0227,0.42266,-3.32603
513.4,46.0839,0.423347,-3.32935
514,46.1412,0.412454,-3.33013
514.6,46.2022,0.416758,-3.33035
515.2,46.2621,0.420217,-3.32906
515.8,46.3208,0.417618,-3.32904
516.4,46.3806,0.417595,-3.32904
517,46.439,0.426767,-3.32904
517.6,46.4992,0.420601,-3.32903
518.2,46.5593,0.414307,-3.32773
518.8,46.6187,0.424551,-3.32831
519.4,46.6776,0.421077,-3.32737
520,46.7379,0.425376,-3.32323
520.6,46.7962,0.424379,-3.3237
521.2,46.8559,0.432682,-3.32729
521.8,46.9155,0.428568,-3.32859
522.4,46.975,0.430189,-3.32892
523,47.0343,0.436707,-3.33025
523.6,47.0925,0.430109,-3.33124
524.2,47.1535,0.436033,-3.33124
524.8,47.2132,0.430862,-3.32892
525.4,47.272,0.432593,-3.32893
526,47.3321,0.426643,-3.33005
526.6,47.3904,0.427428,-3.33025
527.2,47.4509,0.439776,-3.33009
527.8,47.5102,0.431108,-3.32861
528.4,47.5705,0.433238,-3.32861
529,47.6296,0.435348,-3.32861
529.6,47.6891,0.435609,-3.32989
530.2,47.7484,0.425767,-3.32992
530.8,47.8089,0.431743,-3.32993
531.4,47.8678,0.427757,-3.32893
532,47.9266,0.432337,-3.32762
532.6,47.9857,0.437365,-3.32762
533.2,48.0467,0.438409,-3.32861
533.8,48.106,0.44226,-3.32861
534.4,48.1663,0.445014,-3.32862
535,48.225,0.443601,-3.32729
535.6,48.2828,0.453039,-3.32865
536.2,48.3442,0.449932,-3.32861
536.8,48.4033,0.452565,-3.32887
537.4,48.4632,0.454398,-3.33029
538,48.5225,0.455811,-3.33068
538.6,48.5822,0.446938,-3.32965
539.2,48.6408,0.448681,-3.32933
539.8,48.7013,0.450089,-3.33158
540.4,48.7602,0.432815,-3.33158
541,48.8196,0.461378,-3.33287
541.6,48.8783,0.460215,-3.3329
542.2,48.9371,0.454008,-3.33229
542.8,48.9995,0.450975,-3.33256
543.4,49.0587,0.446767,-3.33256
544,49.1181,0.450955,-3.33125
544.6,49.1778,0.454663,-3.33124
545.2,49.2368,0.462278,-3.32991
545.8,49.297,0.456271,-3.32994
546.4,49.3558,0.465337,-3.33157
547,49.4152,0.457606,-3.3325
547.6,49.4753,0.45735,-3.33289
548.2,49.5351,0.45854,-3.33298
548.8,49.5951,0.473285,-3.3319
549.4,49.6539,0.466142,-3.33193
550,49.7115,0.460629,-3.33157
550.6,49.7739,0.462027,-3.333
551.2,49.8328,0.467637,-3.333
551.8,49.8932,0.465696,-3.333
552.4,49.9528,0.471297,-3.333
553,50.0124,0.45833,-3.33306
553.6,50.072,0.456791,-3.33168
554.2,50.1312,0.449566,-3.33372
554.8,50.1922,0.443566,-3.33366
555.4,50.2517,0.446313,-3.33366
556,50.311,0.458625,-3.334
556.6,50.3695,0.461682,-3.33528
557.2,50.4311,0.461905,-3.3353
557.8,50.4907,0.454209,-3.33398
558.4,50.551,0.45184,-3.33399
559,50.611,0.453156,-3.33532
559.6,50.6707,0.454124,-3.33667
560.2,50.7309,0.448568,-3.33664
560.8,50.7902,0.452469,-3.33688
561.4,50.8505,0.459484,-3.33864
562,50.9106,0.455718,-3.33997
562.6,50.9698,0.455771,-3.33815
563.2,51.03,0.459402,-3.33674
563.8,51.0897,0.462305,-3.33674
564.4,51.1489,0.461169,-3.33806
565,51.2096,0.461385,-3.33805
565.6,51.2692,0.463373,-3.33937
566.2,51.3287,0.469953,-3.34123
566.8,51.3887,0.468642,-3.34407
567.4,51.4489,0.471952,-3.34018
568,51.5069,0.475442,-3.33904
568.6,51.5691,0.484984,-3.33884
569.2,51.6279,0.485798,-3.33805
569.8,51.6874,0.491135,-3.33914
570.4,51.7478,0.481686,-3.34069
571,51.8083,0.4764,-3.34069
571.6,51.8678,0.481676,-3.342
572.2,51.9282,0.470052,-3.342
572.8,51.9875,0.473832,-3.34168
573.4,52.0476,0.472559,-3.34233
574,52.1075,0.466803,-3.34298
574.6,52.1674,0.467815,-3.34445
575.2,52.2273,0.460798,-3.3465
575.8,52.2874,0.439135,-3.34716
576.4,52.3442,0.430249,-3.34826
577,52.4064,0.414891,-3.34694
577.6,52.4658,0.403012,-3.34694
578.2,52.5262,0.392229,-3.34554
578.8,52.586,0.388023,-3.34695
579.4,52.6463,0.375227,-3.34695
580,52.7051,0.368193,-3.3472
580.6,52.7655,0.360687,-3.34694
581.2,52.8247,0.350094,-3.34628
581.8,52.8852,0.347798,-3.34627
582.4,52.9448,0.345921,-3.34661
583,53.0051,0.326969,-3.34661
583.6,53.0646,0.326492,-3.34661
584.2,53.1246,0.318535,-3.34656
584.8,53.1846,0.317223,-3.34925
585.4,53.245,0.31566,-3.34925
586,53.3043,0.315506,-3.34925
586.6,53.3638,0.310445,-3.34927
587.2,53.4244,0.308453,-3.35018
587.8,53.4822,0.307997,-3.35156
588.4,53.5441,0.313785,-3.35046
589,53.6038,0.307924,-3.35155
589.6,53.6635,0.316237,-3.35018
590.2,53.7227,0.300342,-3.34892
590.8,53.7821,0.301825,-3.35162
591.4,53.8439,0.303134,-3.35155
592,53.9037,0.30637,-3.35155
592.6,53.9636,0.305443,-3.35156
593.2,54.0233,0.302994,-3.35023
593.8,54.0842,0.308383,-3.35143
594.4,54.142,0.304694,-3.35155
595,54.2036,0.30357,-3.35155
595.6,54.2643,0.30136,-3.35155
596.2,54.3242,0.290347,-3.35151
596.8,54.3838,0.28592,-3.35287
597.4,54.4449,0.284088,-3.35414
598,54.5051,0.291366,-3.3542
598.6,54.5642,0.296775,-3.35287
599.2,54.6249,0.296532,-3.35287
599.8,54.6855,0.293964,-3.35286
600.4,54.7451,0.297716,-3.35157
601,54.8061,0.300862,-3.3519
601.6,54.8666,0.299196,-3.35287
602.2,54.9272,0.293369,-3.35287
602.8,54.9868,0.300668,-3.35418
603.4,55.0474,0.296118,-3.35418
604,55.1073,0.291641,-3.35416
604.6,55.1683,0.296482,-3.35287
605.2,55.2279,0.291151,-3.35287
605.8,55.289,0.295457,-3.35429
606.4,55.3488,0.292841,-3.35419
607,55.4091,0.291825,-3.35411
607.6,55.4688,0.291813,-3.3555
608.2,55.5282,0.28779,-3.35551
608.8,55.5892,0.292549,-3.35812
609.4,55.6504,0.286512,-3.35644
610,55.7095,0.290624,-3.35691
610.6,55.7697,0.28901,-3.35682
611.2,55.8298,0.294523,-3.35548
611.8,55.89,0.29718,-3.35647
612.4,55.95,0.294787,-3.35518
613,56.0107,0.30282,-3.35519
613.6,56.0714,0.294284,-3.35551
614.2,56.1311,0.300871,-3.35657
614.8,56.191,0.296094,-3.3568
615.4,56.2516,0.299612,-3.3555
616,56.3115,0.29835,-3.3555
616.6,56.3721,0.293334,-3.35578
617.2,56.4316,0.305465,-3.35682
617.8,56.4925,0.296085,-3.35814
618.4,56.5519,0.297823,-3.3576
619,56.6131,0.299625,-3.35682
619.6,56.673,0.301808,-3.35682
620.2,56.7343,0.302627,-3.35682
620.8,56.7936,0.304818,-3.35813
621.4,56.8542,0.301504,-3.35812
622,56.9125,0.288261,-3.35944
622.6,56.9743,0.283925,-3.35814
623.2,57.0348,0.288145,-3.35938
623.8,57.0948,0.289709,-3.35981
624.4,57.1551,0.28759,-3.36012
625,57.2152,0.282747,-3.36078
625.6,57.2757,0.280435,-3.36078
626.2,57.3355,0.287445,-3.36209
626.8,57.3955,0.283838,-3.35947
627.4,57.4556,0.28235,-3.36067
628,57.5154,0.271263,-3.36011
628.6,57.5759,0.272684,-3.36011
629.2,57.6362,0.275355,-3.36011
629.8,57.6969,0.268853,-3.36011
630.4,57.7568,0.272413,-3.36117
631,57.8169,0.263541,-3.36143
631.6,57.8776,0.263486,-3.36207
632.2,57.9381,0.252264,-3.36209
632.8,57.9982,0.255213,-3.36074
633.4,58.0574,0.255935,-3.36077
634,58.1184,0.247114,-3.36078
634.6,58.1797,0.245946,-3.36078
635.2,58.2391,0.242761,-3.35851
635.8,58.2975,0.241749,-3.35737
636.4,58.3605,0.23767,-3.36216
637,58.4209,0.23746,-3.36352
637.6,58.4808,0.233537,-3.36352
638.2,58.5414,0.229006,-3.36346
638.8,58.6017,0.217352,-3.36275
639.4,58.6619,0.218482,-3.36365
640,58.7214,0.219224,-3.36494
640.6,58.7826,0.215163,-3.36494
641.2,58.8428,0.207888,-3.36502
641.8,58.9038,0.209072,-3.36627
642.4,58.9638,0.203343,-3.36486
643,59.0237,0.208908,-3.36484
643.6,59.0839,0.199664,-3.36352
644.2,59.1439,0.199226,-3.3629
644.8,59.2036,0.197722,-3.36286
645.4,59.265,0.193937,-3.36286
646,59.3259,0.197753,-3.36418
646.6,59.3859,0.186899,-3.3655
647.2,59.4448,0.189327,-3.3655
647.8,59.5052,0.189101,-3.3655
648.4,59.5661,0.189002,-3.3655
649,59.6267,0.179528,-3.3655
649.6,59.6863,0.177596,-3.3655
650.2,59.7471,0.166056,-3.3655
650.8,59.8075,0.166404,-3.3654
651.4,59.8678,0.164714,-3.3655
652,59.9277,0.166941,-3.36501
652.6,59.9884,0.156392,-3.36474
653.2,60.0482,0.154833,-3.36417
653.8,60.1088,0.157833,-3.36419
654.4,60.1694,0.153158,-3.36451
655,60.2285,0.156253,-3.36593
655.6,60.289,0.158242,-3.36584
656.2,60.3501,0.162178,-3.36715
656.8,60.4093,0.15192,-3.36654
657.4,60.4701,0.149582,-3.36681
658,60.53,0.15141,-3.3668
658.6,60.5902,0.149489,-3.36813
659.2,60.6507,0.150247,-3.36813
659.8,60.7091,0.162535,-3.36813
660.4,60.7712,0.152777,-3.36748
661,60.8327,0.155619,-3.36686
661.6,60.8895,0.157782,-3.36323
662.2,60.9517,0.153323,-3.36761
662.8,61.0123,0.161608,-3.3689
663.4,61.0724,0.158623,-3.36891
664,61.1321,0.156982,-3.36908
664.6,61.1931,0.155274,-3.36754
665.2,61.2531,0.153983,-3.36618
665.8,61.314,0.157068,-3.36626
666.4,61.3748,0.158475,-3.36626
667,61.4347,0.159042,-3.36651
667.6,61.4959,0.167892,-3.36758
668.2,61.5558,0.162749,-3.36626
668.8,61.6164,0.170496,-3.36626
669.4,61.677,0.171757,-3.36747
670,61.737,0.168997,-3.36614
670.6,61.7971,0.174849,-3.36626
671.2,61.8583,0.172944,-3.36741
671.8,61.9184,0.175268,-3.36759
672.4,61.9804,0.172935,-3.36738
673,62.0402,0.166445,-3.36792
673.6,62.1003,0.171238,-3.3666
674.2,62.1621,0.174495,-3.3666
674.8,62.2221,0.172258,-3.36663
675.4,62.2823,0.18351,-3.36627
676,62.3434,0.173763,-3.36627
676.6,62.4039,0.188913,-3.36627
677.2,62.4645,0.189184,-3.36625
677.8,62.5244,0.183027,-3.36758
678.4,62.5849,0.18094,-3.36758
679,62.6453,0.187087,-3.36656
679.6,62.7066,0.189153,-3.36626
680.2,62.767,0.186945,-3.36756
680.8,62.8273,0.185616,-3.36753
681.4,62.8869,0.186423,-3.36592
682,62.9481,0.187365,-3.36631
682.6,63.0091,0.186089,-3.36641
683.2,63.0692,0.18194,-3.36757
683.8,63.1299,0.185224,-3.367
684.4,63.1905,0.182847,-3.36792
685,63.2502,0.184957,-3.36791
685.6,63.3109,0.18353,-3.36655
686.2,63.3721,0.190725,-3.36659
686.8,63.4324,0.192277,-3.3663
687.4,63.493,0.194144,-3.36593
688,63.551,0.176303,-3.37012
688.6,63.6119,0.181904,-3.37004
689.2,63.6733,0.176732,-3.36396
689.8,63.7338,0.183928,-3.36527
690.4,63.7948,0.180729,-3.36527
691,63.8556,0.180781,-3.36418
691.6,63.9159,0.18015,-3.36528
692.2,63.9762,0.191006,-3.36528
692.8,64.0361,0.187188,-3.36528
693.4,64.0972,0.19631,-3.36957
694,64.1576,0.192302,-3.36904
694.6,64.2176,0.19516,-3.36616
695.2,64.2782,0.203596,-3.36616
695.8,64.3392,0.208232,-3.36616
696.4,64.3998,0.213165,-3.36651
697,64.4612,0.212484,-3.36805
697.6,64.5207,0.213546,-3.36912
698.2,64.5823,0.214047,-3.37044
698.8,64.6425,0.210857,-3.37042
699.4,64.7039,0.216493,-3.36912
700,64.7634,0.221186,-3.36912
700.6,64.8239,0.22249,-3.36941
701.2,64.8852,0.22361,-3.36527
701.8,64.9452,0.224123,-3.36905
702.4,65.0063,0.223482,-3.37131
703,65.067,0.228521,-3.37001
703.6,65.1273,0.222864,-3.36999
704.2,65.1882,0.222428,-3.36868
704.8,65.2489,0.223947,-3.36868
705.4,65.308,0.223358,-3.36943
706,65.3697,0.224437,-3.37
706.6,65.4306,0.230046,-3.37131
707.2,65.4912,0.234811,-3.37102
707.8,65.5515,0.234089,-3.36818
708.4,65.6124,0.232755,-3.36735
709,65.6732,0.22781,-3.36604
709.6,65.7338,0.235478,-3.366
710.2,65.7942,0.232514,-3.36857
710.8,65.8552,0.233013,-3.36868
711.4,65.9155,0.234748,-3.36868
712,65.9758,0.244671,-3.36868
712.6,66.0366,0.239363,-3.36868
713.2,66.0972,0.251143,-3.36812
713.8,66.1578,0.250873,-3.36868
714.4,66.2187,0.259278,-3.36868
715,66.2796,0.262039,-3.36868
715.6,66.3407,0.264599,-3.36868
716.2,66.4008,0.257456,-3.36737
716.8,66.4612,0.266675,-3.36736
717.4,66.5229,0.268691,-3.36874
718,66.5834,0.265742,-3.37
718.6,66.6432,0.271922,-3.36738
719.2,66.7042,0.273305,-3.36736
719.8,66.7649,0.27485,-3.36835
720.4,66.8256,0.276831,-3.3667
721,66.8843,0.280011,-3.36502
721.6,66.9474,0.28016,-3.36998
722.2,67.0075,0.284082,-3.37131
722.8,67.0685,0.289723,-3.37131
723.4,67.1285,0.293646,-3.37131
724,67.1888,0.287917,-3.37127
724.6,67.2505,0.299388,-3.37187
725.2,67.3116,0.293066,-3.37296
725.8,67.372,0.300013,-3.37296
726.4,67.4325,0.305768,-3.37163
727,67.4936,0.307394,-3.37122
727.6,67.5544,0.302417,-3.37034
728.2,67.6149,0.320264,-3.37033
728.8,67.6757,0.315811,-3.37164
729.4,67.7357,0.316434,-3.37032
730,67.7965,0.320753,-3.37032
730.6,67.8553,0.327799,-3.37164
731.2,67.9168,0.324825,-3.37164
731.8,67.9789,0.333244,-3.37164
732.4,68.0389,0.332805,-3.37169
733,68.1005,0.336744,-3.37033
733.6,68.1603,0.343401,-3.37033
734.2,68.221,0.345324,-3.37033
734.8,68.2813,0.351128,-3.37032
735.4,68.3423,0.3544,-3.36933
736,68.4027,0.367215,-3.37066
736.6,68.4634,0.377122,-3.37066
737.2,68.5247,0.380931,-3.37066
737.8,68.5847,0.385531,-3.37066
738.4,68.6463,0.382979,-3.37066
739,68.7051,0.391676,-3.37066
739.6,68.767,0.390379,-3.37066
740.2,68.8271,0.396283,-3.37071
740.8,68.8885,0.396264,-3.37197
741.4,68.9494,0.398727,-3.37197
742,69.0098,0.407684,-3.37173
742.6,69.07,0.413414,-3.37164
743.2,69.1306,0.419217,-3.37033
743.8,69.1923,0.422972,-3.37162
744.4,69.2521,0.428185,-3.37296
745,69.3131,0.436532,-3.37296
745.6,69.3754,0.43932,-3.3723
746.2,69.4359,0.440676,-3.3723
746.8,69.4971,0.440173,-3.3723
747.4,69.558,0.440007,-3.3723
748,69.6165,0.446762,-3.3723
748.6,69.6792,0.442731,-3.3723
749.2,69.7398,0.448586,-3.37229
749.8,69.8012,0.444078,-3.37294
750.4,69.8623,0.450704,-3.37291
751,69.9231,0.451104,-3.37295
751.6,69.9812,0.454516,-3.37316
752.2,70.0437,0.455192,-3.37289
752.8,70.1063,0.467277,-3.37296
753.4,70.1665,0.467538,-3.37431
754,70.2271,0.479504,-3.37422
754.6,70.287,0.487466,-3.37559
755.2,70.3487,0.488375,-3.37557
755.8,70.4094,0.497629,-3.37428
756.4,70.471,0.507393,-3.37428
757,70.5316,0.514624,-3.37482
757.6,70.5921,0.519113,-3.3756
758.2,70.6533,0.528273,-3.37669
758.8,70.7137,0.537008,-3.37671
759.4,70.7747,0.538609,-3.37555
760,70.835,0.552691,-3.37428
760.6,70.894,0.555876,-3.37348
761.2,70.9575,0.557195,-3.37428
761.8,71.0169,0.577388,-3.37565
762.4,71.0785,0.584225,-3.3756
763,71.1366,0.590827,-3.37562
763.6,71.2008,0.597975,-3.37824
764.2,71.2608,0.614694,-3.37693
764.8,71.3219,0.612981,-3.37701
765.4,71.382,0.615125,-3.37823
766,71.4433,0.620672,-3.37695
766.6,71.502,0.62272,-3.37757
767.2,71.5654,0.628688,-3.37954
767.8,71.6254,0.633325,-3.37955
768.4,71.6867,0.639094,-3.37847
769,71.7471,0.656424,-3.37856
769.6,71.8082,0.658395,-3.37955
770.2,71.869,0.667783,-3.37955
770.8,71.9295,0.663439,-3.37951
771.4,71.9886,0.678282,-3.38086
772,72.0514,0.67156,-3.38137
772.6,72.113,0.689626,-3.38086
773.2,72.174,0.688732,-3.38086
773.8,72.2345,0.700888,-3.38219
774.4,72.2957,0.708633,-3.38152
775,72.3566,0.706466,-3.38215
775.6,72.4176,0.712587,-3.38284
776.2,72.4789,0.718542,-3.38417
776.8,72.54,0.722106,-3.38415
777.4,72.6005,0.724447,-3.38547
778,72.6619,0.728917,-3.38543
778.6,72.7228,0.735323,-3.38645
779.2,72.7835,0.724906,-3.38646
779.8,72.8453,0.726161,-3.38547
780.4,72.9059,0.735373,-3.38547
781,72.9661,0.733842,-3.38593
781.6,73.027,0.738896,-3.38548
782.2,73.0876,0.745603,-3.38547
782.8,73.148,0.747748,-3.38164
783.4,73.2101,0.74162,-3.38553
784,73.271,0.746512,-3.38701
784.6,73.3311,0.737848,-3.38966
785.2,73.3907,0.743199,-3.38964
785.8,73.4542,0.752575,-3.38866
786.4,73.5157,0.757555,-3.38965
787,73.5755,0.762192,-3.38965
787.6,73.6366,0.765086,-3.38795
788.2,73.6975,0.765225,-3.38734
788.8,73.7592,0.761252,-3.38734
789.4,73.8208,0.763516,-3.38726
790,73.8817,0.752316,-3.38869