File: 01_Data/High_Temp_Nylon_SCBA_Nosecup/STA/N2/30K_min/High_Temp_Nylon_SCBA_Nosecup_STA_N2_30KData_251013_R1.csv
Temp./C,Time/min,DSC/(mW/mg),Mass loss/mg
50.0,0.0,1.39395,-0.00222304
50.5,0.032955,1.44142,-0.00089897
51,0.063846,1.50308,-0.00121108
51.5,0.0941045,1.55721,-0.000672607
52,0.124243,1.59956,0.00032034
52.5,0.153105,1.65233,-0.000227216
53,0.182141,1.68866,-0.000309128
53.5,0.210227,1.72914,-0.000273303
54,0.238381,1.76933,-0.00134791
54.5,0.264917,1.79883,-0.000313315
55,0.29124,1.83101,-0.000200668
55.5,0.318444,1.87868,-0.00110883
56,0.34431,1.91258,-0.00126181
56.5,0.369734,1.9448,-0.00197403
57,0.39485,1.97831,-0.00232414
57.5,0.420597,2.00798,-0.0018407
58,0.445692,2.0405,-0.00142674
58.5,0.469949,2.06068,-0.000517456
59,0.49343,2.09502,0.00109296
59.5,0.518433,2.13028,0.000541921
60,0.542049,2.15929,-0.000508228
60.5,0.565495,2.18312,-0.0015502
61,0.588926,2.20341,-0.0020646
61.5,0.611984,2.23315,-0.0029353
62,0.635134,2.24918,-0.00260309
62.5,0.657112,2.28398,-0.00264067
63,0.680322,2.29491,-0.00306305
63.5,0.702761,2.32999,-0.00365028
64,0.724392,2.35856,-0.00392789
64.5,0.747543,2.37784,-0.00365455
65,0.769866,2.39125,-0.00307114
65.5,0.790649,2.42162,-0.00280452
66,0.812768,2.43877,-0.00195289
66.5,0.834829,2.45955,-0.00262223
67,0.856337,2.47903,-0.00316052
67.5,0.877615,2.49651,-0.00346211
68,0.89863,2.5101,-0.00323629
68.5,0.919726,2.53403,-0.00310362
69,0.941162,2.55727,-0.00197922
69.5,0.961939,2.56818,-0.00148066
70,0.982957,2.58464,-0.00076558
70.5,1.00386,2.60161,-0.00107631
71,1.02464,2.62015,-0.00207732
71.5,1.04523,2.63196,-0.00269072
72,1.06641,2.65252,-0.00253021
72.5,1.08623,2.67097,-0.00184174
73,1.10692,2.67856,-0.00247545
73.5,1.12723,2.69487,-0.00281859
74,1.14733,2.70398,-0.00235137
74.5,1.16801,2.71604,-0.00283589
75,1.18804,2.73028,-0.00274661
75.5,1.20701,2.7471,-0.002696
76,1.22685,2.75299,-0.00219332
76.5,1.24828,2.76478,-0.00246892
77,1.2684,2.77691,-0.0027766
77.5,1.28809,2.77863,-0.00132965
78,1.30797,2.79991,-0.00121169
78.5,1.32744,2.81263,-0.000414567
79,1.34717,2.82882,-0.00113385
79.5,1.36753,2.83594,-0.001854
80,1.38656,2.84928,-0.00130529
80.5,1.40628,2.87141,-0.0026111
81,1.42551,2.87994,-0.00141895
81.5,1.44506,2.89021,-0.00160947
82,1.4639,2.91155,-0.00261262
82.5,1.48387,2.92808,-0.00201647
83,1.50286,2.94068,-0.00294846
83.5,1.52268,2.9558,-0.00338762
84,1.54149,2.96336,-0.00320553
84.5,1.56065,2.9767,-0.00315292
85,1.5797,2.99674,-0.00454803
85.5,1.59881,3.01297,-0.00313604
86,1.61778,3.02597,-0.00426281
86.5,1.63641,3.04485,-0.00297261
87,1.65524,3.05909,-0.00363176
87.5,1.67425,3.08086,-0.00303245
88,1.69322,3.08428,-0.00340973
88.5,1.71155,3.09529,-0.00330812
89,1.72995,3.1168,-0.00430351
89.5,1.74903,3.13728,-0.00295358
90,1.76726,3.14385,-0.00298531
90.5,1.7858,3.16073,-0.00329267
91,1.80463,3.17438,-0.0028733
91.5,1.82312,3.19062,-0.00343134
92,1.84139,3.21587,-0.00297038
92.5,1.85985,3.23192,-0.00357715
93,1.87816,3.24526,-0.00388562
93.5,1.89642,3.26059,-0.00461969
94,1.91482,3.27056,-0.00481907
94.5,1.93307,3.29143,-0.00507657
95,1.95128,3.30661,-0.00461726
95.5,1.96918,3.31981,-0.00508621
96,1.98736,3.33677,-0.00460869
96.5,2.00565,3.34904,-0.00461994
97,2.02374,3.36204,-0.00446361
97.5,2.04138,3.37518,-0.00358555
98,2.05963,3.38962,-0.0047168
98.5,2.0777,3.39885,-0.00377988
99,2.09531,3.40798,-0.00419995
99.5,2.11335,3.41699,-0.00460936
100,2.13141,3.43171,-0.00330389
100.5,2.1491,3.4394,-0.00415169
101,2.16731,3.4438,-0.00463246
101.5,2.18495,3.46089,-0.00349726
102,2.2029,3.47151,-0.00472313
102.5,2.2204,3.47401,-0.00407473
103,2.23801,3.47671,-0.00492388
103.5,2.25586,3.49131,-0.00483929
104,2.27361,3.48688,-0.00470484
104.5,2.29085,3.50408,-0.00482155
105,2.30854,3.50654,-0.00483956
105.5,2.32606,3.50531,-0.00483737
106,2.34393,3.52321,-0.00394002
106.5,2.36147,3.5203,-0.00351855
107,2.37877,3.51309,-0.00352007
107.5,2.39661,3.52044,-0.00352416
108,2.41364,3.52465,-0.0025767
108.5,2.4314,3.5311,-0.00351845
109,2.44852,3.52733,-0.00352014
109.5,2.46652,3.52932,-0.0035198
110,2.48359,3.52891,-0.00380122
110.5,2.50106,3.53168,-0.00483114
111,2.51864,3.5391,-0.00351769
111.5,2.53581,3.53893,-0.00353
112,2.55354,3.53587,-0.00353749
112.5,2.57036,3.53525,-0.00416483
113,2.58759,3.53765,-0.00473526
113.5,2.60493,3.54997,-0.00350226
114,2.62239,3.55063,-0.00352048
114.5,2.63962,3.54976,-0.00344768
115,2.65694,3.56373,-0.00487796
115.5,2.67416,3.57303,-0.00485489
116,2.69119,3.57891,-0.00548816
116.5,2.70859,3.58147,-0.00485735
117,2.72588,3.58332,-0.00484002
117.5,2.74299,3.58683,-0.00484005
118,2.75978,3.59191,-0.00483798
118.5,2.77714,3.60098,-0.00512724
119,2.79429,3.5992,-0.00483863
119.5,2.81115,3.60634,-0.00484042
120,2.8282,3.61648,-0.00469161
120.5,2.84547,3.63137,-0.00352667
121,2.86243,3.63244,-0.00354135
121.5,2.8792,3.64026,-0.00445843
122,2.89622,3.64081,-0.00484134
122.5,2.91351,3.65337,-0.00483997
123,2.9304,3.65921,-0.00483998
123.5,2.94695,3.66607,-0.00482977
124,2.96437,3.68139,-0.0041267
124.5,2.98115,3.69269,-0.00516305
125,2.99788,3.69794,-0.00519924
125.5,3.01486,3.69888,-0.00484334
126,3.03169,3.71986,-0.00489584
126.5,3.04828,3.72327,-0.00620398
127,3.06504,3.73932,-0.00617921
127.5,3.0821,3.74494,-0.00478496
128,3.09893,3.76317,-0.004841
128.5,3.11507,3.76547,-0.00483999
129,3.13228,3.76863,-0.00484002
129.5,3.14877,3.77925,-0.00483876
130,3.16536,3.79134,-0.00486097
130.5,3.1821,3.80039,-0.00350194
131,3.1987,3.80319,-0.00353041
131.5,3.21517,3.81926,-0.00353
132,3.23205,3.83329,-0.00353013
132.5,3.24849,3.83732,-0.00350618
133,3.26514,3.84658,-0.00419073
133.5,3.2816,3.85834,-0.00315007
134,3.29812,3.8609,-0.00356439
134.5,3.31441,3.86951,-0.0035296
135,3.33109,3.87865,-0.00353
135.5,3.34735,3.89123,-0.00353
136,3.36363,3.90372,-0.00352999
136.5,3.38048,3.90759,-0.0035302
137,3.39582,3.91372,-0.00354898
137.5,3.41236,3.93133,-0.00485883
138,3.42885,3.93358,-0.0048387
138.5,3.44571,3.938,-0.00483533
139,3.46189,3.95238,-0.00349421
139.5,3.47838,3.96455,-0.00352052
140,3.49416,3.96055,-0.0035186
140.5,3.51082,3.97016,-0.00378887
141,3.5273,3.98163,-0.00484063
141.5,3.54337,3.99426,-0.00484007
142,3.55975,3.99953,-0.00483953
142.5,3.57565,4.0098,-0.00484
143,3.59198,4.01296,-0.0034542
143.5,3.60809,4.03034,-0.00352119
144,3.62423,4.0347,-0.00351998
144.5,3.64049,4.04572,-0.00352
145,3.65638,4.04584,-0.00352
145.5,3.67148,4.0548,-0.00352
146,3.6886,4.06894,-0.00352003
146.5,3.70465,4.08179,-0.00351835
147,3.72074,4.08885,-0.00377018
147.5,3.73654,4.09907,-0.00417736
148,3.75279,4.09822,-0.00374373
148.5,3.76836,4.11692,-0.00362378
149,3.78431,4.12404,-0.0035283
149.5,3.80074,4.12969,-0.00353002
150,3.81686,4.13373,-0.00353
150.5,3.83244,4.14352,-0.00353
151,3.84806,4.14935,-0.00353
151.5,3.86369,4.15932,-0.00353
152,3.87991,4.17127,-0.00353
152.5,3.89556,4.18556,-0.00353
153,3.91186,4.18956,-0.00353
153.5,3.92806,4.19714,-0.00353
154,3.94345,4.20896,-0.00353
154.5,3.95935,4.21713,-0.00352995
155,3.97553,4.22493,-0.00352895
155.5,3.99104,4.23259,-0.00310384
156,4.00696,4.24057,-0.00352693
156.5,4.02261,4.23978,-0.0035199
157,4.03872,4.25233,-0.00352
157.5,4.05451,4.26501,-0.00352
158,4.07002,4.27917,-0.00352
158.5,4.08562,4.28162,-0.00352
159,4.10192,4.28985,-0.00352
159.5,4.11773,4.29534,-0.00352
160,4.13298,4.30204,-0.00352
160.5,4.14869,4.31166,-0.00352
161,4.16495,4.31774,-0.00352
161.5,4.18052,4.32284,-0.00352
162,4.19625,4.32876,-0.00352
162.5,4.212,4.34165,-0.00352
163,4.22767,4.3468,-0.00352
163.5,4.24339,4.35354,-0.00352
164,4.25906,4.35939,-0.00352
164.5,4.27482,4.36858,-0.00352
165,4.29047,4.36865,-0.00352
165.5,4.30587,4.38195,-0.00352
166,4.32172,4.39313,-0.00352
166.5,4.33738,4.3911,-0.00352001
167,4.35293,4.39622,-0.00352122
167.5,4.36851,4.40102,-0.0038849
168,4.38399,4.41325,-0.00482227
168.5,4.39998,4.41442,-0.00484033
169,4.41555,4.42856,-0.0048399
169.5,4.43105,4.43182,-0.00484481
170,4.4465,4.43823,-0.00564717
170.5,4.46135,4.4358,-0.00615848
171,4.47712,4.44719,-0.00616
171.5,4.49347,4.45273,-0.00616
172,4.50909,4.46395,-0.00616
172.5,4.52457,4.46992,-0.00616
173,4.53984,4.47095,-0.00616
173.5,4.55548,4.47813,-0.00615998
174,4.57095,4.47655,-0.00617283
174.5,4.58641,4.48806,-0.00502649
175,4.6017,4.49694,-0.00416812
175.5,4.61676,4.50342,-0.00418004
176,4.63303,4.50555,-0.00418002
176.5,4.64822,4.51274,-0.00417863
177,4.6638,4.51547,-0.00426234
177.5,4.67956,4.52068,-0.00352844
178,4.69519,4.52474,-0.00351994
178.5,4.71018,4.52863,-0.00352
179,4.72574,4.54137,-0.00352004
179.5,4.74155,4.54642,-0.00351781
180,4.75651,4.55034,-0.00373545
180.5,4.77179,4.55407,-0.00486547
181,4.78768,4.56369,-0.00483959
181.5,4.80268,4.57019,-0.00484003
182,4.81813,4.57113,-0.00483865
182.5,4.83344,4.57817,-0.00496944
183,4.84897,4.58427,-0.0061716
183.5,4.86423,4.59101,-0.00615978
184,4.87935,4.59492,-0.00616
184.5,4.89509,4.60012,-0.00616001
185,4.91006,4.60714,-0.00615965
185.5,4.92546,4.61112,-0.00616654
186,4.94065,4.61777,-0.00484
186.5,4.95608,4.61552,-0.00484055
187,4.97143,4.62454,-0.00483998
187.5,4.98652,4.6308,-0.00484
188,5.00191,4.64508,-0.00484
188.5,5.01719,4.64853,-0.00484
189,5.03234,4.65721,-0.00484
189.5,5.04755,4.66272,-0.00484
190,5.06261,4.66738,-0.00484
190.5,5.07794,4.67562,-0.00483998
191,5.09311,4.67381,-0.00484087
191.5,5.10839,4.68543,-0.00451938
192,5.12373,4.69381,-0.00451006
192.5,5.13875,4.69838,-0.00451
193,5.154,4.70201,-0.00451
193.5,5.1691,4.70223,-0.00451
194,5.18442,4.71128,-0.00451
194.5,5.19985,4.72061,-0.00451
195,5.21516,4.72365,-0.00451
195.5,5.23007,4.7241,-0.00451
196,5.245,4.73065,-0.00451
196.5,5.26046,4.73591,-0.00451002
197,5.27546,4.74725,-0.00450908
197.5,5.29062,4.7473,-0.00516653
198,5.30568,4.75447,-0.00582968
198.5,5.32083,4.76584,-0.00583003
199,5.33602,4.76854,-0.00583
199.5,5.35125,4.77795,-0.00583
200,5.36622,4.78402,-0.00583
200.5,5.38144,4.78651,-0.00583
201,5.39663,4.79647,-0.00583
201.5,5.41121,4.80032,-0.00583
202,5.42649,4.81304,-0.00582997
202.5,5.4417,4.81702,-0.00583176
203,5.45681,4.82796,-0.00570626
203.5,5.47163,4.83331,-0.00448841
204,5.48686,4.83445,-0.00451046
204.5,5.5021,4.84842,-0.00450999
205,5.51706,4.85761,-0.00450994
205.5,5.53235,4.86469,-0.00451404
206,5.54717,4.86853,-0.00503694
206.5,5.56232,4.87426,-0.00582411
207,5.57734,4.88258,-0.00583014
207.5,5.59225,4.88749,-0.00583
208,5.60798,4.89264,-0.00583
208.5,5.62278,4.89759,-0.00583
209,5.6375,4.91097,-0.00583
209.5,5.65282,4.91744,-0.00583
210,5.66796,4.92935,-0.00583
210.5,5.68292,4.93149,-0.00583
211,5.69784,4.93897,-0.00583
211.5,5.71309,4.94598,-0.00583002
212,5.7273,4.95708,-0.00582907
212.5,5.74299,4.9654,-0.00589714
213,5.75799,4.96796,-0.00466993
213.5,5.77321,4.97513,-0.00450804
214,5.78797,4.98803,-0.00451004
214.5,5.80308,4.99254,-0.00451
215,5.81807,5.00058,-0.00451
215.5,5.83317,5.00663,-0.00451
216,5.84844,5.01145,-0.00451
216.5,5.8635,5.01609,-0.00451
217,5.87828,5.02776,-0.00451
217.5,5.89321,5.03566,-0.00451
218,5.9081,5.04149,-0.00451
218.5,5.92329,5.05874,-0.00451
219,5.93859,5.06926,-0.00451
219.5,5.9534,5.07547,-0.00451028
220,5.96873,5.08559,-0.00449581
220.5,5.98316,5.09917,-0.00572335
221,5.99829,5.10881,-0.00583127
221.5,6.01332,5.118,-0.00582999
222,6.02834,5.12107,-0.00582947
222.5,6.04343,5.12752,-0.00585492
223,6.05833,5.14465,-0.004793
223.5,6.07346,5.1489,-0.00450621
224,6.08819,5.16762,-0.00451008
224.5,6.10279,5.18295,-0.00451
225,6.11765,5.18402,-0.00451
225.5,6.13243,5.19124,-0.00451
226,6.14807,5.21606,-0.00451
226.5,6.16324,5.22835,-0.00451
227,6.17807,5.23358,-0.00451
227.5,6.19299,5.24514,-0.00451
228,6.20796,5.2559,-0.00451008
228.5,6.22292,5.2724,-0.00450545
229,6.23797,5.28645,-0.00479164
229.5,6.25265,5.29607,-0.00585908
230,6.26792,5.3119,-0.00582945
230.5,6.28279,5.31762,-0.00583012
231,6.29793,5.32778,-0.00582307
231.5,6.31263,5.33396,-0.00535436
232,6.32786,5.34797,-0.00355401
232.5,6.3426,5.35562,-0.00351939
233,6.35754,5.3645,-0.00352001
233.5,6.37242,5.38157,-0.00352
234,6.38758,5.39395,-0.00352
234.5,6.40234,5.41412,-0.00352002
235,6.41671,5.42858,-0.00351951
235.5,6.43211,5.44342,-0.00314073
236,6.44737,5.46126,-0.00320832
236.5,6.46201,5.47897,-0.00326982
237,6.47748,5.5003,-0.0035229
237.5,6.49229,5.52264,-0.00351995
238,6.50648,5.54314,-0.00352
238.5,6.52164,5.57246,-0.00351998
239,6.53676,5.60057,-0.00352165
239.5,6.55189,5.64552,-0.00441091
240,6.56704,5.67814,-0.00483877
240.5,6.582,5.70552,-0.00484004
241,6.5969,5.74245,-0.00484001
241.5,6.61193,5.78522,-0.00483946
242,6.62706,5.83049,-0.00486949
242.5,6.64134,5.87901,-0.0036785
243,6.65704,5.94292,-0.00351712
243.5,6.67263,6.02273,-0.00352006
244,6.68757,6.09359,-0.00352
244.5,6.70256,6.16932,-0.00352
245,6.71788,6.27512,-0.00352
245.5,6.73309,6.38402,-0.00352
246,6.74866,6.4989,-0.00351999
246.5,6.76372,6.63394,-0.00352053
247,6.77905,6.7862,-0.00349263
247.5,6.79463,6.95624,-0.00432475
248,6.81032,7.16813,-0.00451177
248.5,6.82587,7.37099,-0.00450997
249,6.84139,7.58344,-0.00451
249.5,6.85725,7.81721,-0.00451
250,6.87299,8.04257,-0.00451
250.5,6.88831,8.26576,-0.00451
251,6.90358,8.48687,-0.00450998
251.5,6.91939,8.70438,-0.00451096
252,6.93525,8.93103,-0.00448574
252.5,6.9508,9.14671,-0.00583524
253,6.96658,9.36645,-0.00582952
253.5,6.98219,9.57647,-0.00583001
254,6.99712,9.78404,-0.00583
254.5,7.01285,9.97843,-0.00583
255,7.02891,10.1682,-0.00583
255.5,7.0442,10.3462,-0.00583
256,7.0599,10.5184,-0.00582994
256.5,7.07504,10.6756,-0.00583348
257,7.09065,10.796,-0.00537008
257.5,7.10553,10.8613,-0.00450335
258,7.12048,10.8428,-0.00452037
258.5,7.13457,10.7083,-0.00451999
259,7.14858,10.4219,-0.00452
259.5,7.16222,10.0383,-0.00452002
260,7.17568,9.61461,-0.00451998
260.5,7.18901,9.21192,-0.0044913
261,7.20301,8.82734,-0.00519574
261.5,7.21649,8.5004,-0.00516963
262,7.23031,8.20103,-0.00517
262.5,7.24428,7.90756,-0.00517
263,7.25814,7.65057,-0.00517
263.5,7.2722,7.42164,-0.00517
264,7.28608,7.21618,-0.00517
264.5,7.30056,7.01873,-0.00517
265,7.31465,6.84511,-0.00516999
265.5,7.32872,6.68905,-0.00517021
266,7.34309,6.54432,-0.00516899
266.5,7.35747,6.40514,-0.00389035
267,7.37188,6.29749,-0.00384881
267.5,7.38621,6.19382,-0.00385004
268,7.40062,6.09359,-0.00385005
268.5,7.41507,6.00715,-0.00380728
269,7.42965,5.91689,-0.00450229
269.5,7.44438,5.84497,-0.00451019
270,7.45897,5.77933,-0.00451
270.5,7.47345,5.71499,-0.00451
271,7.48804,5.66157,-0.00451
271.5,7.50254,5.62042,-0.00451
272,7.51716,5.57709,-0.00451
272.5,7.532,5.52884,-0.00451
273,7.54641,5.49114,-0.00451
273.5,7.56115,5.46009,-0.00451
274,7.57506,5.43427,-0.00451
274.5,7.59045,5.41197,-0.00451
275,7.6051,5.38765,-0.00451
275.5,7.61969,5.37151,-0.00451
276,7.63448,5.3377,-0.00451001
276.5,7.64943,5.3274,-0.00450971
277,7.66398,5.30611,-0.00452733
277.5,7.67878,5.28865,-0.00347852
278,7.69342,5.27288,-0.00352094
278.5,7.70834,5.26026,-0.00351998
279,7.72322,5.25231,-0.00352
279.5,7.73787,5.24171,-0.00351999
280,7.75267,5.23128,-0.00351777
280.5,7.76732,5.22607,-0.00288523
281,7.78217,5.22737,-0.00285949
281.5,7.7971,5.22049,-0.00285595
282,7.81093,5.20073,-0.00223774
282.5,7.82628,5.20214,-0.00220022
283,7.84121,5.19579,-0.00259757
283.5,7.85589,5.18616,-0.00351881
284,7.87086,5.17956,-0.00352002
284.5,7.88549,5.17228,-0.00352
285,7.9005,5.18083,-0.00352
285.5,7.91537,5.18018,-0.00352
286,7.9301,5.165,-0.00352
286.5,7.94444,5.15795,-0.00352
287,7.95925,5.15751,-0.00352
287.5,7.97468,5.15764,-0.00352007
288,7.98924,5.15475,-0.00351544
288.5,8.00429,5.15118,-0.00398813
289,8.0182,5.15315,-0.00487155
289.5,8.03326,5.15175,-0.00483953
290,8.04852,5.15364,-0.00484001
290.5,8.06355,5.15158,-0.00484
291,8.07815,5.15024,-0.00484
291.5,8.09294,5.15074,-0.00484
292,8.10756,5.15476,-0.00484
292.5,8.12243,5.15258,-0.00484
293,8.13735,5.14911,-0.00484
293.5,8.15182,5.1507,-0.00483996
294,8.16699,5.14117,-0.00484303
294.5,8.18171,5.14341,-0.00418442
295,8.1966,5.14288,-0.00418592
295.5,8.21166,5.14285,-0.00384793
296,8.22586,5.14733,-0.00351606
296.5,8.24104,5.14521,-0.0035201
297,8.256,5.1377,-0.00352
297.5,8.27065,5.13519,-0.00352
298,8.28562,5.13411,-0.00352
298.5,8.30038,5.13144,-0.00352
299,8.31552,5.13603,-0.00352
299.5,8.33022,5.13608,-0.00352
300,8.34496,5.13733,-0.00352
300.5,8.35966,5.13855,-0.00352
301,8.37468,5.13433,-0.00352
301.5,8.38961,5.13249,-0.00352
302,8.40459,5.13609,-0.00352
302.5,8.41953,5.13437,-0.00351996
303,8.43416,5.12644,-0.00352212
303.5,8.44905,5.12925,-0.00336433
304,8.46407,5.13005,-0.0021574
304.5,8.47879,5.12937,-0.00221105
305,8.49356,5.13134,-0.00220998
305.5,8.50829,5.13213,-0.00221
306,8.52331,5.12942,-0.00221
306.5,8.53813,5.13,-0.00221
307,8.5529,5.12124,-0.00221
307.5,8.56789,5.1189,-0.00221
308,8.58294,5.12083,-0.00221
308.5,8.59764,5.12242,-0.00220987
309,8.61248,5.12352,-0.0022165
309.5,8.62755,5.11321,-0.00263678
310,8.64248,5.12226,-0.00351236
310.5,8.65747,5.11908,-0.00353035
311,8.67223,5.12224,-0.00352999
311.5,8.68678,5.1266,-0.00353
312,8.70142,5.13285,-0.00353
312.5,8.7164,5.13025,-0.00353
313,8.73141,5.12962,-0.00353
313.5,8.74625,5.12611,-0.00353
314,8.7612,5.1269,-0.00353
314.5,8.77601,5.12467,-0.00353001
315,8.79101,5.12773,-0.00353004
315.5,8.80624,5.12909,-0.00354712
316,8.82068,5.13072,-0.00257336
316.5,8.8355,5.12483,-0.0035196
317,8.85065,5.12308,-0.00352002
317.5,8.86535,5.12069,-0.00352
318,8.88021,5.1202,-0.00352
318.5,8.8951,5.1197,-0.00352
319,8.91007,5.12077,-0.00352
319.5,8.92509,5.11878,-0.00352
320,8.93996,5.12472,-0.00352
320.5,8.95463,5.12287,-0.00352
321,8.96997,5.12136,-0.00352
321.5,8.98463,5.12541,-0.00352
322,8.99947,5.1197,-0.00351973
322.5,9.01442,5.12191,-0.00353447
323,9.02915,5.12072,-0.00442957
323.5,9.04403,5.11474,-0.00483454
324,9.05928,5.1146,-0.00484009
324.5,9.07405,5.11832,-0.00484
325,9.08892,5.11799,-0.00484
325.5,9.10421,5.11606,-0.00484
326,9.11893,5.12056,-0.00484
326.5,9.13382,5.11931,-0.00484
327,9.14868,5.12013,-0.00483996
327.5,9.16356,5.11772,-0.00484228
328,9.17852,5.11805,-0.00469342
328.5,9.19356,5.11908,-0.0034506
329,9.2085,5.11943,-0.00352134
329.5,9.22272,5.12284,-0.00351997
330,9.23769,5.1207,-0.00352
330.5,9.25286,5.11978,-0.00352
331,9.26808,5.12162,-0.00352
331.5,9.28305,5.12106,-0.00352
332,9.29809,5.12718,-0.00352
332.5,9.31287,5.13127,-0.00352
333,9.32807,5.12984,-0.00352
333.5,9.34303,5.12106,-0.00351999
334,9.35786,5.12692,-0.00352033
334.5,9.37271,5.12378,-0.00350386
335,9.38765,5.12592,-0.0045729
335.5,9.40256,5.1252,-0.00448128
336,9.41765,5.13386,-0.00483021
336.5,9.43277,5.13887,-0.00484019
337,9.44771,5.14438,-0.00484
337.5,9.46232,5.14825,-0.00483988
338,9.47759,5.15242,-0.00484648
338.5,9.49248,5.15438,-0.00561161
339,9.50777,5.14465,-0.00583134
339.5,9.52231,5.14966,-0.00583031
340,9.53778,5.15178,-0.00580848
340.5,9.55177,5.15541,-0.00663743
341,9.56681,5.15581,-0.00715383
341.5,9.58197,5.15986,-0.00714978
342,9.59682,5.1585,-0.00715574
342.5,9.61246,5.16841,-0.00806626
343,9.62763,5.17181,-0.00878331
343.5,9.64237,5.17066,-0.00879013
344,9.65747,5.17119,-0.00879
344.5,9.67247,5.17211,-0.00879
345,9.68736,5.17634,-0.00879
345.5,9.70249,5.18233,-0.00879
346,9.71761,5.18751,-0.00878973
346.5,9.73232,5.19836,-0.00880134
347,9.74742,5.20528,-0.00960155
347.5,9.7623,5.20982,-0.0101
348,9.77696,5.20861,-0.0101085
348.5,9.79223,5.21075,-0.00974841
349,9.80701,5.21631,-0.00880279
349.5,9.82205,5.22284,-0.00878978
350,9.8368,5.22343,-0.00879
350.5,9.85208,5.22725,-0.00879005
351,9.86745,5.23996,-0.00878662
351.5,9.88265,5.2358,-0.00903167
352,9.89782,5.24238,-0.0101389
352.5,9.913,5.25026,-0.0101095
353,9.92784,5.25169,-0.01011
353.5,9.94292,5.26395,-0.0101101
354,9.95814,5.26414,-0.0101054
354.5,9.9731,5.26875,-0.0104178
355,9.98824,5.27649,-0.0106429
355.5,10.0031,5.27775,-0.0101064
356,10.0182,5.28355,-0.0101101
356.5,10.0334,5.29462,-0.01011
357,10.0485,5.30412,-0.01011
357.5,10.0635,5.31221,-0.01011
358,10.0786,5.3285,-0.0101104
358.5,10.0936,5.3383,-0.0100888
359,10.1088,5.34229,-0.0113512
359.5,10.1236,5.3449,-0.011421
360,10.1388,5.35105,-0.01142
360.5,10.154,5.35298,-0.01142
361,10.169,5.36868,-0.01142
361.5,10.1842,5.37215,-0.0114187
362,10.199,5.37887,-0.0115903
362.5,10.2143,5.39215,-0.0127501
363,10.2292,5.4036,-0.0127398
363.5,10.2444,5.41754,-0.0127411
364,10.2596,5.4243,-0.0126831
364.5,10.2746,5.435,-0.0141036
365,10.29,5.44928,-0.0141736
365.5,10.3052,5.45997,-0.0150997
366,10.3201,5.47362,-0.0154891
366.5,10.3354,5.48305,-0.01549
367,10.3501,5.48901,-0.0154902
367.5,10.3654,5.49937,-0.0154843
368,10.3806,5.51667,-0.0167993
368.5,10.396,5.53182,-0.0168006
369,10.4111,5.5455,-0.0171782
369.5,10.4259,5.57316,-0.018228
370,10.441,5.56841,-0.0182312
370.5,10.4565,5.58736,-0.0186062
371,10.4713,5.60072,-0.01954
371.5,10.4865,5.61815,-0.0195501
372,10.502,5.63944,-0.0195597
372.5,10.5172,5.66106,-0.0203487
373,10.5322,5.67846,-0.0209699
373.5,10.5476,5.6996,-0.0218256
374,10.5626,5.70211,-0.0225142
374.5,10.578,5.71176,-0.0233517
375,10.5931,5.73005,-0.0239484
375.5,10.6081,5.75475,-0.0235584
376,10.6235,5.78017,-0.0241696
376.5,10.6389,5.80915,-0.0246393
377,10.6537,5.82419,-0.0256904
377.5,10.6691,5.84421,-0.0261952
378,10.6844,5.8617,-0.0281962
378.5,10.6995,5.87926,-0.0296601
379,10.7146,5.89974,-0.0305718
379.5,10.7301,5.92554,-0.0318594
380,10.7452,5.94983,-0.0324372
380.5,10.7606,5.96947,-0.0333807
381,10.7756,5.98238,-0.0340323
381.5,10.791,6.00325,-0.0349182
382,10.8063,6.00979,-0.035772
382.5,10.8214,6.03432,-0.0365588
383,10.8367,6.06039,-0.0374471
383.5,10.8518,6.08558,-0.0383023
384,10.8666,6.11377,-0.0397211
384.5,10.8817,6.14389,-0.0391725
385,10.8976,6.16516,-0.0405592
385.5,10.913,6.19026,-0.0411928
386,10.9282,6.21087,-0.0420232
386.5,10.9436,6.23639,-0.0434465
387,10.9587,6.25603,-0.0439836
387.5,10.9741,6.28092,-0.0460268
388,10.9892,6.3086,-0.0478771
388.5,11.0046,6.33225,-0.0490952
389,11.0198,6.36574,-0.0501922
389.5,11.0351,6.4051,-0.0516087
390,11.0504,6.43934,-0.0534714
390.5,11.0657,6.4737,-0.0548061
391,11.0812,6.50783,-0.0558746
391.5,11.0967,6.55122,-0.0573818
392,11.1118,6.58961,-0.0590381
392.5,11.1275,6.63811,-0.0606524
393,11.1424,6.67589,-0.0620952
393.5,11.158,6.71213,-0.064607
394,11.1732,6.75272,-0.0668637
394.5,11.1889,6.80127,-0.0688803
395,11.204,6.85145,-0.0705924
395.5,11.2194,6.8903,-0.0718945
396,11.2349,6.94221,-0.0739559
396.5,11.2505,6.99599,-0.0757133
397,11.266,7.04706,-0.0782452
397.5,11.2813,7.09638,-0.0801565
398,11.2966,7.154,-0.0825027
398.5,11.3121,7.20095,-0.084859
399,11.3275,7.26301,-0.087495
399.5,11.3428,7.32077,-0.0890965
400,11.3583,7.3746,-0.0915061
400.5,11.3737,7.43944,-0.0941611
401,11.3894,7.50755,-0.0977532
401.5,11.4043,7.567,-0.100738
402,11.4202,7.63405,-0.103405
402.5,11.436,7.69944,-0.107817
403,11.4514,7.7609,-0.110419
403.5,11.4671,7.82855,-0.114
404,11.4822,7.88651,-0.116937
404.5,11.4979,7.96863,-0.120213
405,11.5131,8.02888,-0.124224
405.5,11.5287,8.10704,-0.127936
406,11.5444,8.18225,-0.133127
406.5,11.5598,8.25971,-0.136286
407,11.5759,8.3404,-0.140353
407.5,11.5912,8.40521,-0.143946
408,11.6067,8.48762,-0.148537
408.5,11.6224,8.56652,-0.152912
409,11.6378,8.64619,-0.157833
409.5,11.6535,8.72144,-0.162265
410,11.6691,8.80502,-0.16696
410.5,11.6844,8.89133,-0.171953
411,11.6998,8.96267,-0.176313
411.5,11.7161,9.05604,-0.182815
412,11.7314,9.15052,-0.187528
412.5,11.7473,9.24396,-0.194376
413,11.7631,9.31548,-0.199835
413.5,11.7784,9.39392,-0.204884
414,11.7939,9.47917,-0.211292
414.5,11.8096,9.57169,-0.217559
415,11.8253,9.65884,-0.225654
415.5,11.8409,9.73687,-0.231415
416,11.8563,9.8187,-0.237633
416.5,11.872,9.91562,-0.243942
417,11.8877,9.99467,-0.251639
417.5,11.9037,10.0824,-0.259928
418,11.9192,10.168,-0.266502
418.5,11.9348,10.2646,-0.273048
419,11.9504,10.346,-0.278618
419.5,11.9664,10.4298,-0.287927
420,11.9819,10.5107,-0.296374
420.5,11.9975,10.5958,-0.306102
421,12.0131,10.6849,-0.314135
421.5,12.0289,10.7762,-0.323139
422,12.0445,10.851,-0.332266
422.5,12.0605,10.9296,-0.339022
423,12.0758,11.0014,-0.349101
423.5,12.0915,11.0767,-0.357442
424,12.1072,11.1575,-0.36844
424.5,12.123,11.2043,-0.377633
425,12.1387,11.2519,-0.386915
425.5,12.1539,11.3311,-0.397666
426,12.1697,11.3879,-0.407916
426.5,12.1853,11.4342,-0.420873
427,12.2008,11.4975,-0.430345
427.5,12.2164,11.5507,-0.440554
428,12.2317,11.5615,-0.450396
428.5,12.2476,11.6307,-0.462411
429,12.2631,11.6607,-0.474461
429.5,12.2787,11.7054,-0.486395
430,12.2943,11.7423,-0.497394
430.5,12.3096,11.7918,-0.507857
431,12.3254,11.8267,-0.520469
431.5,12.3408,11.8481,-0.531108
432,12.3563,11.8831,-0.544988
432.5,12.3715,11.9048,-0.555335
433,12.387,11.9333,-0.569766
433.5,12.403,11.952,-0.581063
434,12.4182,11.9646,-0.592754
434.5,12.434,11.9969,-0.60686
435,12.4491,12.0097,-0.618929
435.5,12.465,12.0368,-0.635479
436,12.4807,12.0657,-0.64813
436.5,12.4956,12.077,-0.66121
437,12.5114,12.0883,-0.673774
437.5,12.527,12.0955,-0.688514
438,12.5425,12.1072,-0.702299
438.5,12.5579,12.1342,-0.717544
439,12.5735,12.136,-0.731018
439.5,12.589,12.1476,-0.744953
440,12.6045,12.1453,-0.759416
440.5,12.6197,12.1332,-0.771111
441,12.6353,12.1118,-0.78769
441.5,12.6507,12.1019,-0.801015
442,12.6661,12.0918,-0.818808
442.5,12.6815,12.0858,-0.831427
443,12.6969,12.0696,-0.844963
443.5,12.7122,12.0444,-0.857918
444,12.7275,12.018,-0.872061
444.5,12.7431,11.9985,-0.886588
445,12.7585,11.9645,-0.900282
445.5,12.774,11.9339,-0.912726
446,12.7892,11.9215,-0.925101
446.5,12.8047,11.8814,-0.938141
447,12.82,11.8398,-0.949245
447.5,12.8354,11.8133,-0.964975
448,12.8508,11.7797,-0.976792
448.5,12.8656,11.7357,-0.99278
449,12.881,11.6857,-1.00521
449.5,12.8964,11.648,-1.01937
450,12.9118,11.6073,-1.0327
450.5,12.927,11.5624,-1.04847
451,12.9425,11.5214,-1.06447
451.5,12.9577,11.4797,-1.0819
452,12.9732,11.4408,-1.09685
452.5,12.9886,11.3978,-1.11506
453,13.0036,11.3404,-1.13228
453.5,13.0189,11.2821,-1.14752
454,13.0343,11.2348,-1.16645
454.5,13.0494,11.1666,-1.18256
455,13.0647,11.1051,-1.20403
455.5,13.08,11.0383,-1.22049
456,13.0954,10.9574,-1.23821
456.5,13.1105,10.8895,-1.25404
457,13.1257,10.8125,-1.27355
457.5,13.1409,10.7284,-1.2901
458,13.1566,10.6368,-1.31041
458.5,13.1715,10.5349,-1.32568
459,13.1869,10.4347,-1.34672
459.5,13.2019,10.3314,-1.36285
460,13.217,10.2169,-1.37993
460.5,13.2321,10.0997,-1.3968
461,13.2474,9.9726,-1.41576
461.5,13.2624,9.83865,-1.43419
462,13.2775,9.70332,-1.45426
462.5,13.2926,9.5738,-1.47055
463,13.3077,9.43851,-1.48934
463.5,13.3227,9.28628,-1.50485
464,13.3378,9.13105,-1.52004
464.5,13.3528,8.97476,-1.53595
465,13.3674,8.82098,-1.55207
465.5,13.3822,8.65184,-1.56759
466,13.3974,8.48657,-1.58463
466.5,13.4128,8.31498,-1.59845
467,13.4277,8.14579,-1.61364
467.5,13.4429,7.96926,-1.62649
468,13.4577,7.80131,-1.63894
468.5,13.4727,7.62442,-1.65101
469,13.4877,7.45452,-1.66408
469.5,13.5025,7.28914,-1.67667
470,13.5176,7.11558,-1.68949
470.5,13.5326,6.94426,-1.70053
471,13.5475,6.79019,-1.71345
471.5,13.5628,6.62499,-1.7245
472,13.5776,6.47463,-1.73495
472.5,13.5926,6.3216,-1.74518
473,13.6078,6.18362,-1.75584
473.5,13.6232,6.04802,-1.76734
474,13.6379,5.92116,-1.77773
474.5,13.6531,5.7901,-1.78899
475,13.6685,5.67227,-1.80101
475.5,13.6836,5.54671,-1.8114
476,13.6986,5.45208,-1.82044
476.5,13.7141,5.35193,-1.83101
477,13.7293,5.25608,-1.83984
477.5,13.7446,5.16353,-1.85115
478,13.7598,5.08838,-1.86014
478.5,13.7755,5.00711,-1.87029
479,13.79,4.95126,-1.87907
479.5,13.8062,4.88273,-1.88981
480,13.8217,4.82307,-1.89865
480.5,13.8371,4.77861,-1.90875
481,13.8526,4.73142,-1.9171
481.5,13.868,4.69064,-1.92695
482,13.8833,4.65194,-1.93578
482.5,13.899,4.61287,-1.94402
483,13.9143,4.57408,-1.95354
483.5,13.9302,4.55397,-1.96189
484,13.9454,4.53054,-1.97231
484.5,13.9613,4.49599,-1.9804
485,13.9765,4.46218,-1.98911
485.5,13.9922,4.43927,-1.99766
486,14.0072,4.41403,-2.00705
486.5,14.0236,4.38791,-2.01831
487,14.039,4.36237,-2.02881
487.5,14.0546,4.33616,-2.03942
488,14.0699,4.31288,-2.04918
488.5,14.0858,4.2992,-2.06082
489,14.1014,4.28708,-2.07115
489.5,14.117,4.26092,-2.08297
490,14.1329,4.24231,-2.09414
490.5,14.1485,4.21269,-2.10631
491,14.1641,4.19271,-2.11744
491.5,14.1796,4.16736,-2.12676
492,14.1954,4.14477,-2.1382
492.5,14.2107,4.1394,-2.14736
493,14.2267,4.11404,-2.15913
493.5,14.2422,4.08816,-2.16709
494,14.2581,4.06696,-2.17445
494.5,14.2736,4.04337,-2.1804
495,14.2892,4.0172,-2.18528
495.5,14.3048,3.98814,-2.19117
496,14.3206,3.96422,-2.1961
496.5,14.336,3.92829,-2.20279
497,14.3517,3.90558,-2.20859
497.5,14.3674,3.87647,-2.21256
498,14.3828,3.83954,-2.21458
498.5,14.3985,3.80411,-2.21699
499,14.4141,3.76548,-2.22222
499.5,14.4295,3.71689,-2.2394
500,14.4448,3.66669,-2.27323
500.5,14.4603,3.63133,-2.30295
501,14.4759,3.58214,-2.33609
501.5,14.4916,3.53306,-2.34907
502,14.5071,3.48543,-2.3562
502.5,14.5234,3.43805,-2.35694
503,14.539,3.38681,-2.35675
503.5,14.5543,3.32227,-2.35301
504,14.5698,3.25565,-2.34826
504.5,14.5852,3.19625,-2.33819
505,14.601,3.13286,-2.33699
505.5,14.6166,3.05875,-2.35464
506,14.6321,2.97298,-2.38347
506.5,14.6477,2.90404,-2.42219
507,14.6634,2.8149,-2.43875
507.5,14.679,2.7407,-2.44633
508,14.6944,2.66843,-2.44845
508.5,14.7102,2.58941,-2.44487
509,14.7252,2.51924,-2.43832
509.5,14.7411,2.43896,-2.43417
510,14.7566,2.35043,-2.43419
510.5,14.7717,2.26982,-2.43873
511,14.787,2.19809,-2.44482
511.5,14.803,2.11315,-2.45039
512,14.8185,2.03084,-2.45468
512.5,14.8336,1.95442,-2.45519
513,14.8493,1.88455,-2.4506
513.5,14.8647,1.82663,-2.43832
514,14.8804,1.75384,-2.42235
514.5,14.8959,1.69281,-2.39723
515,14.9115,1.62881,-2.37736
515.5,14.9268,1.56798,-2.35385
516,14.9423,1.51591,-2.33752
516.5,14.9576,1.4719,-2.32013
517,14.9733,1.41413,-2.30055
517.5,14.9888,1.3765,-2.28153
518,15.0042,1.33823,-2.26221
518.5,15.02,1.30221,-2.25002
519,15.0356,1.27341,-2.24245
519.5,15.0514,1.24821,-2.23971
520,15.0672,1.21188,-2.25351
520.5,15.0833,1.19381,-2.3133
521,15.099,1.1742,-2.46675
521.5,15.115,1.14765,-2.53739
522,15.1309,1.1442,-2.55702
522.5,15.1466,1.12777,-2.55671
523,15.1623,1.09244,-2.56093
523.5,15.1784,1.07569,-2.56541
524,15.1937,1.05644,-2.56875
524.5,15.2098,1.04896,-2.57226
525,15.2256,1.03775,-2.57386
525.5,15.2416,1.027,-2.57457
526,15.2574,1.0212,-2.57626
526.5,15.2734,1.02274,-2.57634
527,15.2893,1.02423,-2.57797
527.5,15.3054,1.02841,-2.57867
528,15.3212,1.02446,-2.57979
528.5,15.3368,1.0298,-2.58019
529,15.3531,1.03036,-2.58121
529.5,15.369,1.0271,-2.58123
530,15.3849,1.02679,-2.58178
530.5,15.4007,1.03757,-2.58276
531,15.4168,1.04341,-2.5828
531.5,15.4329,1.03687,-2.58434
532,15.4487,1.03495,-2.58427
532.5,15.4645,1.03053,-2.5855
533,15.4803,1.02639,-2.58562
533.5,15.4964,1.02724,-2.58635
534,15.5123,1.02396,-2.58598
534.5,15.5283,1.01658,-2.58605
535,15.5442,1.01618,-2.58605
535.5,15.5602,1.01868,-2.58605
536,15.5762,1.01804,-2.58676
536.5,15.5921,1.00746,-2.58736
537,15.6079,1.00788,-2.58737
537.5,15.624,1.00901,-2.58735
538,15.6397,1.01159,-2.58866
538.5,15.6558,1.01627,-2.58869
539,15.6719,1.01103,-2.58869
539.5,15.6875,1.00935,-2.58869
540,15.7036,1.00461,-2.58869
540.5,15.7189,0.996545,-2.58869
541,15.7349,0.994906,-2.58869
541.5,15.7514,0.992684,-2.58869
542,15.7674,0.996855,-2.58869
542.5,15.7833,0.993421,-2.58873
543,15.7992,0.993798,-2.58836
543.5,15.8152,0.983544,-2.58896
544,15.831,0.982603,-2.58968
544.5,15.8472,0.981581,-2.58968
545,15.8631,0.972969,-2.58968
545.5,15.8791,0.968038,-2.58968
546,15.8951,0.962199,-2.58968
546.5,15.911,0.958792,-2.58968
547,15.9271,0.962744,-2.58968
547.5,15.943,0.965899,-2.58968
548,15.9589,0.964345,-2.58968
548.5,15.9744,0.952336,-2.58968
549,15.9903,0.946658,-2.58968
549.5,16.0066,0.945496,-2.58968
550,16.023,0.943767,-2.58968
550.5,16.039,0.945856,-2.58968
551,16.0547,0.939582,-2.58968
551.5,16.0709,0.937611,-2.58968
552,16.0867,0.93565,-2.59004
552.5,16.1026,0.937876,-2.59001
553,16.1185,0.939626,-2.59001
553.5,16.1339,0.939296,-2.59001
554,16.1506,0.931498,-2.58934
554.5,16.1666,0.934471,-2.5887
555,16.1824,0.921266,-2.58869
555.5,16.1986,0.916962,-2.5887
556,16.2144,0.915936,-2.58926
556.5,16.2304,0.914652,-2.59001
557,16.2465,0.915763,-2.59001
557.5,16.2627,0.911945,-2.59001
558,16.2783,0.912418,-2.59001
558.5,16.2947,0.91923,-2.59001
559,16.3107,0.905643,-2.59001
559.5,16.3266,0.908962,-2.59001
560,16.3423,0.911213,-2.59001
560.5,16.3583,0.904478,-2.59001
561,16.3745,0.898938,-2.59001
561.5,16.3897,0.889903,-2.59002
562,16.4065,0.888324,-2.58904
562.5,16.4224,0.884196,-2.58902
563,16.4382,0.889113,-2.58902
563.5,16.4546,0.889409,-2.58816
564,16.4706,0.884171,-2.5877
564.5,16.4865,0.879674,-2.5877
565,16.5026,0.876114,-2.5877
565.5,16.5187,0.872688,-2.58769
566,16.5346,0.875409,-2.58736
566.5,16.5506,0.87172,-2.58737
567,16.5667,0.865025,-2.58737
567.5,16.5829,0.868182,-2.58737
568,16.5989,0.868737,-2.58737
568.5,16.6147,0.859872,-2.58737
569,16.6308,0.860653,-2.58737
569.5,16.6468,0.856131,-2.58737
570,16.6628,0.852823,-2.58737
570.5,16.679,0.854531,-2.58737
571,16.6947,0.858497,-2.58737
571.5,16.7108,0.847443,-2.58632
572,16.7272,0.842542,-2.58605
572.5,16.7432,0.839229,-2.58605
573,16.7593,0.841081,-2.58605
573.5,16.7752,0.836898,-2.58605
574,16.7917,0.834055,-2.58605
574.5,16.8076,0.832351,-2.58606
575,16.8235,0.833858,-2.58692
575.5,16.8396,0.83202,-2.58737
576,16.8557,0.831504,-2.58737
576.5,16.8716,0.827946,-2.58737
577,16.8878,0.820037,-2.58737
577.5,16.904,0.814106,-2.5874
578,16.9198,0.809315,-2.5867
578.5,16.9361,0.808022,-2.58638
579,16.9522,0.804222,-2.58629
579.5,16.9683,0.806068,-2.5857
580,16.9844,0.800424,-2.58471
580.5,17.0006,0.801145,-2.58473
581,17.0163,0.802751,-2.58473
581.5,17.0327,0.798502,-2.58473
582,17.0487,0.793076,-2.58473
582.5,17.0648,0.790003,-2.58473
583,17.081,0.788442,-2.58473
583.5,17.097,0.789946,-2.58473
584,17.1132,0.785555,-2.58518
584.5,17.1292,0.781741,-2.58604
585,17.1453,0.779167,-2.58605
585.5,17.1614,0.771265,-2.58605
586,17.1776,0.770608,-2.58605
586.5,17.194,0.766667,-2.58605
587,17.2101,0.763417,-2.58605
587.5,17.2261,0.763242,-2.58572
588,17.242,0.763173,-2.58473
588.5,17.2583,0.767596,-2.58476
589,17.2744,0.765512,-2.58354
589.5,17.2906,0.759293,-2.58341
590,17.3066,0.762346,-2.58341
590.5,17.3228,0.751257,-2.58341
591,17.339,0.753361,-2.58341
591.5,17.355,0.752042,-2.58341
592,17.3712,0.750499,-2.58341
592.5,17.3875,0.746584,-2.58341
593,17.4036,0.74141,-2.58341
593.5,17.4196,0.74026,-2.58341
594,17.4356,0.741578,-2.58341
594.5,17.452,0.731102,-2.58341
595,17.4678,0.731283,-2.58341
595.5,17.4842,0.725778,-2.58343
596,17.5002,0.720239,-2.58437
596.5,17.5162,0.718377,-2.58473
597,17.5329,0.717961,-2.58473
597.5,17.549,0.719684,-2.58473
598,17.5652,0.715945,-2.58418
598.5,17.5813,0.711405,-2.5821
599,17.5974,0.717634,-2.5821
599.5,17.6136,0.713171,-2.5821
600,17.6301,0.715858,-2.5821
600.5,17.646,0.714286,-2.5821
601,17.6623,0.707027,-2.5821
601.5,17.6783,0.708735,-2.5821
602,17.6945,0.704542,-2.5821
602.5,17.7108,0.702022,-2.5821
603,17.727,0.70502,-2.5821
603.5,17.7432,0.703065,-2.5821
604,17.7594,0.698994,-2.5821
604.5,17.7757,0.699927,-2.5821
605,17.7916,0.702713,-2.58142
605.5,17.8081,0.695214,-2.58144
606,17.8242,0.685515,-2.58144
606.5,17.8403,0.678255,-2.58116
607,17.8563,0.674309,-2.58078
607.5,17.8729,0.667127,-2.58078
608,17.8889,0.664428,-2.58078
608.5,17.9053,0.662324,-2.58078
609,17.9215,0.659966,-2.58078
609.5,17.9378,0.657585,-2.58078
610,17.9539,0.656435,-2.58078
610.5,17.9703,0.64813,-2.58078
611,17.9865,0.63931,-2.58078
611.5,18.0027,0.643707,-2.58078
612,18.0189,0.644536,-2.5808
612.5,18.0351,0.646917,-2.58171
613,18.0517,0.640311,-2.58209
613.5,18.0678,0.642861,-2.58209
614,18.084,0.634174,-2.58209
614.5,18.1002,0.631887,-2.58209
615,18.1166,0.618933,-2.58209
615.5,18.1328,0.615302,-2.58211
616,18.1488,0.621304,-2.58111
616.5,18.1651,0.620834,-2.58078
617,18.1815,0.609953,-2.58078
617.5,18.198,0.613261,-2.58078
618,18.214,0.612193,-2.58078
618.5,18.2303,0.618127,-2.58078
619,18.2464,0.622442,-2.58078
619.5,18.2628,0.61315,-2.58078
620,18.2791,0.606119,-2.58078
620.5,18.2952,0.599588,-2.58078
621,18.3118,0.600113,-2.58079
621.5,18.328,0.602675,-2.58163
622,18.3443,0.592925,-2.5821
622.5,18.3606,0.587064,-2.5821
623,18.3768,0.58343,-2.5821
623.5,18.3925,0.580704,-2.5821
624,18.4089,0.575986,-2.58141
624.5,18.4256,0.582161,-2.58078
625,18.4421,0.580429,-2.58078
625.5,18.4585,0.578087,-2.58078
626,18.4748,0.576899,-2.58078
626.5,18.4911,0.577221,-2.58076
627,18.5073,0.574303,-2.5794
627.5,18.5234,0.567652,-2.57946
628,18.5397,0.56683,-2.57946
628.5,18.5562,0.55693,-2.57946
629,18.5726,0.55677,-2.57946
629.5,18.589,0.55846,-2.57946
630,18.6052,0.559438,-2.57946
630.5,18.6212,0.556311,-2.57946
631,18.6379,0.555207,-2.57946
631.5,18.6543,0.549754,-2.57946
632,18.6705,0.546996,-2.57977
632.5,18.6868,0.551074,-2.58045
633,18.703,0.548549,-2.58045
633.5,18.7193,0.544581,-2.58045
634,18.7358,0.545311,-2.58045
634.5,18.752,0.547148,-2.58045
635,18.7677,0.546481,-2.58042
635.5,18.7847,0.546615,-2.58078
636,18.8011,0.545075,-2.58078
636.5,18.8177,0.542388,-2.58078
637,18.8339,0.542825,-2.58078
637.5,18.8502,0.540881,-2.58078
638,18.8667,0.539221,-2.58078
638.5,18.8828,0.534223,-2.58078
639,18.899,0.531777,-2.58078
639.5,18.916,0.541219,-2.58078
640,18.9318,0.533008,-2.58078
640.5,18.9485,0.535972,-2.58078
641,18.9644,0.534687,-2.58079
641.5,18.9809,0.529164,-2.58146
642,18.9975,0.528299,-2.58177
642.5,19.0138,0.530354,-2.58177
643,19.0304,0.531515,-2.58177
643.5,19.0465,0.519179,-2.58209
644,19.0626,0.514712,-2.5821
644.5,19.0792,0.519002,-2.5821
645,19.0955,0.520344,-2.5821
645.5,19.112,0.518972,-2.58151
646,19.1284,0.507995,-2.58079
646.5,19.1445,0.510141,-2.58078
647,19.1608,0.509105,-2.58078
647.5,19.1774,0.509788,-2.58078
648,19.1937,0.507159,-2.58078
648.5,19.2102,0.504502,-2.58078
649,19.2266,0.494303,-2.58078
649.5,19.243,0.495916,-2.58078
650,19.2593,0.498006,-2.58078
650.5,19.2757,0.503104,-2.58078
651,19.292,0.500205,-2.58187
651.5,19.3085,0.494019,-2.5821
652,19.325,0.49375,-2.5821
652.5,19.3414,0.486991,-2.5821
653,19.3573,0.482537,-2.5821
653.5,19.374,0.486971,-2.5821
654,19.3906,0.482665,-2.58212
654.5,19.4071,0.489192,-2.57967
655,19.4233,0.487692,-2.57946
655.5,19.4397,0.485947,-2.57946
656,19.4564,0.480467,-2.57945
656.5,19.4723,0.476215,-2.58035
657,19.4892,0.480553,-2.58078
657.5,19.5053,0.472241,-2.58078
658,19.5218,0.472729,-2.58078
658.5,19.5382,0.476729,-2.58078
659,19.555,0.466784,-2.58078
659.5,19.5712,0.466577,-2.5815
660,19.5877,0.462966,-2.58209
660.5,19.6036,0.463939,-2.58209
661,19.6204,0.460227,-2.58209
661.5,19.637,0.455742,-2.58188
662,19.6534,0.456075,-2.58078
662.5,19.6697,0.451709,-2.58078
663,19.6862,0.450424,-2.58078
663.5,19.7027,0.448462,-2.58078
664,19.7191,0.450235,-2.58078
664.5,19.7353,0.445593,-2.58078
665,19.752,0.441893,-2.58078
665.5,19.7683,0.439087,-2.58078
666,19.7847,0.441494,-2.58079
666.5,19.8011,0.437413,-2.5818
667,19.8177,0.430978,-2.5821
667.5,19.8344,0.428466,-2.5821
668,19.8508,0.428046,-2.5821
668.5,19.8671,0.426272,-2.5821
669,19.8835,0.427723,-2.5821
669.5,19.8999,0.426608,-2.5821
670,19.9155,0.42731,-2.5821
670.5,19.9325,0.426996,-2.5821
671,19.9492,0.420743,-2.58211
671.5,19.9655,0.415492,-2.58308
672,19.9822,0.413253,-2.58342
672.5,19.9988,0.411945,-2.58342
673,20.015,0.41373,-2.58342
673.5,20.0314,0.409648,-2.5834
674,20.0478,0.403474,-2.58275
674.5,20.0644,0.394948,-2.58276
675,20.0807,0.396205,-2.58276
675.5,20.0974,0.395012,-2.58276
676,20.1136,0.397394,-2.58314
676.5,20.13,0.398173,-2.58409
677,20.1468,0.398672,-2.58408
677.5,20.1631,0.395034,-2.58408
678,20.1794,0.396348,-2.58408
678.5,20.1958,0.390146,-2.58408
679,20.2124,0.379339,-2.58408
679.5,20.229,0.37999,-2.58408
680,20.2452,0.376877,-2.58408
680.5,20.2619,0.367906,-2.58408
681,20.2782,0.366123,-2.58408
681.5,20.2949,0.366478,-2.58408
682,20.3112,0.367929,-2.58408
682.5,20.3275,0.363636,-2.58408
683,20.3441,0.360299,-2.58345
683.5,20.3606,0.360159,-2.58342
684,20.3769,0.359948,-2.58342
684.5,20.3934,0.359909,-2.58342
685,20.4099,0.357019,-2.58342
685.5,20.4264,0.358479,-2.58342
686,20.4427,0.361117,-2.58342
686.5,20.4591,0.361247,-2.58342
687,20.4754,0.355011,-2.58342
687.5,20.4918,0.349507,-2.58348
688,20.5084,0.353463,-2.58479
688.5,20.5249,0.35343,-2.58473
689,20.5412,0.356461,-2.58472
689.5,20.558,0.359305,-2.58383
690,20.5742,0.349187,-2.58374
690.5,20.5905,0.344992,-2.58374
691,20.607,0.349521,-2.58338
691.5,20.6235,0.350015,-2.58341
692,20.6401,0.343117,-2.58341
692.5,20.6564,0.348007,-2.58341
693,20.6729,0.343212,-2.58341
693.5,20.6892,0.33422,-2.5834
694,20.706,0.325033,-2.58411
694.5,20.7225,0.32271,-2.58472
695,20.7389,0.325083,-2.58473
695.5,20.7552,0.324076,-2.58473
696,20.7718,0.318757,-2.58473
696.5,20.7882,0.315701,-2.58473
697,20.8046,0.316355,-2.58473
697.5,20.8211,0.31783,-2.58474
698,20.8374,0.306648,-2.58368
698.5,20.8542,0.298218,-2.58376
699,20.8705,0.304159,-2.58472
699.5,20.8874,0.304769,-2.58506
700,20.9029,0.3069,-2.58506
700.5,20.92,0.302848,-2.58506
701,20.9364,0.29765,-2.58506
701.5,20.9531,0.294416,-2.58506
702,20.9698,0.286982,-2.58506
702.5,20.9858,0.293681,-2.58506
703,21.0026,0.288453,-2.58506
703.5,21.0189,0.275192,-2.58522
704,21.0353,0.277741,-2.58607
704.5,21.0519,0.271463,-2.58606
705,21.0684,0.268917,-2.58606
705.5,21.085,0.272138,-2.58605
706,21.1017,0.272516,-2.585
706.5,21.1183,0.268404,-2.58474
707,21.1346,0.267701,-2.58474
707.5,21.151,0.264784,-2.58474
708,21.1674,0.267034,-2.58472
708.5,21.1842,0.268583,-2.58588
709,21.2004,0.269473,-2.58547
709.5,21.217,0.270213,-2.58474
710,21.2336,0.269385,-2.58474
710.5,21.2497,0.265064,-2.58474
711,21.2661,0.260394,-2.58474
711.5,21.2828,0.260981,-2.58474
712,21.2993,0.254432,-2.58474
712.5,21.3162,0.248388,-2.58473
713,21.3329,0.249497,-2.58608
713.5,21.3493,0.247667,-2.58606
714,21.3659,0.254,-2.58606
714.5,21.3823,0.247643,-2.58606
715,21.3991,0.249096,-2.5861
715.5,21.4152,0.251768,-2.58481
716,21.4322,0.248224,-2.58474
716.5,21.4486,0.256021,-2.58474
717,21.4651,0.257113,-2.58474
717.5,21.4817,0.263004,-2.58474
718,21.4982,0.26537,-2.58474
718.5,21.5147,0.268742,-2.58561
719,21.5316,0.266628,-2.58605
719.5,21.548,0.258406,-2.58605
720,21.5644,0.254527,-2.58605
720.5,21.5808,0.248954,-2.58588
721,21.5974,0.253584,-2.58473
721.5,21.6141,0.250049,-2.58473
722,21.6307,0.250873,-2.58473
722.5,21.6472,0.254556,-2.58473
723,21.6638,0.252739,-2.58473
723.5,21.6805,0.244619,-2.58473
724,21.697,0.240376,-2.58473
724.5,21.7139,0.252648,-2.58473
725,21.7301,0.253064,-2.58473
725.5,21.7468,0.252855,-2.58541
726,21.7632,0.249672,-2.58539
726.5,21.7795,0.249388,-2.58539
727,21.7955,0.253654,-2.58539
727.5,21.813,0.258262,-2.58539
728,21.8296,0.25755,-2.58539
728.5,21.8462,0.261312,-2.58539
729,21.8629,0.257519,-2.58539
729.5,21.8794,0.253469,-2.58539
730,21.8959,0.256524,-2.58539
730.5,21.9126,0.259397,-2.58539
731,21.929,0.255417,-2.58539
731.5,21.9459,0.253604,-2.58539
732,21.9623,0.256324,-2.58539
732.5,21.9788,0.245263,-2.58472
733,21.9953,0.244289,-2.58475
733.5,22.0122,0.24979,-2.58405
734,22.0285,0.2516,-2.58407
734.5,22.0454,0.24873,-2.58407
735,22.0618,0.253764,-2.58407
735.5,22.0785,0.250741,-2.58404
736,22.0952,0.255293,-2.58473
736.5,22.1118,0.253698,-2.58473
737,22.1285,0.250854,-2.58473
737.5,22.1445,0.25002,-2.58524
738,22.1613,0.257815,-2.58605
738.5,22.1782,0.262632,-2.58605
739,22.1945,0.257952,-2.58605
739.5,22.2112,0.269789,-2.58605
740,22.2276,0.265553,-2.58605
740.5,22.2443,0.262179,-2.58605
741,22.2608,0.260642,-2.58605
741.5,22.2774,0.26295,-2.58605
742,22.2942,0.269627,-2.58605
742.5,22.3107,0.268884,-2.58605
743,22.3275,0.258835,-2.58605
743.5,22.3438,0.261257,-2.58606
744,22.3604,0.268791,-2.58469
744.5,22.3773,0.263073,-2.58474
745,22.3937,0.262684,-2.58474
745.5,22.4103,0.267396,-2.58474
746,22.4269,0.26898,-2.58552
746.5,22.4435,0.275068,-2.58605
747,22.4599,0.282179,-2.58606
747.5,22.4768,0.284032,-2.58606
748,22.4933,0.282754,-2.58606
748.5,22.5098,0.281987,-2.58606
749,22.5263,0.28439,-2.58607
749.5,22.543,0.282637,-2.58478
750,22.5598,0.280266,-2.58474
750.5,22.5761,0.286712,-2.58474
751,22.5925,0.288011,-2.58474
751.5,22.6096,0.294667,-2.58472
752,22.6263,0.295065,-2.58609
752.5,22.6429,0.298175,-2.58605
753,22.6596,0.296209,-2.58605
753.5,22.6764,0.289555,-2.58605
754,22.6929,0.291906,-2.58605
754.5,22.7094,0.301329,-2.58605
755,22.726,0.295854,-2.58605
755.5,22.7426,0.295686,-2.58605
756,22.7593,0.308186,-2.58605
756.5,22.7761,0.308473,-2.58605
757,22.7926,0.31036,-2.58559
757.5,22.8091,0.310796,-2.58506
758,22.8257,0.324906,-2.58506
758.5,22.8424,0.319957,-2.58506
759,22.8591,0.318839,-2.58506
759.5,22.8758,0.318917,-2.58506
760,22.8924,0.329072,-2.58506
760.5,22.9089,0.330895,-2.58529
761,22.9254,0.332512,-2.58539
761.5,22.9423,0.335853,-2.58539
762,22.9588,0.335235,-2.58539
762.5,22.9758,0.339763,-2.58539
763,22.9924,0.34217,-2.58559
763.5,23.0086,0.341162,-2.58605
764,23.0253,0.344985,-2.58605
764.5,23.0419,0.347896,-2.58607
765,23.0585,0.350093,-2.58487
765.5,23.0751,0.354153,-2.58473
766,23.0919,0.35487,-2.58473
766.5,23.1083,0.355835,-2.58473
767,23.1252,0.356484,-2.58473
767.5,23.1418,0.359853,-2.58473
768,23.1583,0.362169,-2.58473
768.5,23.1751,0.356618,-2.58502
769,23.1916,0.359241,-2.58604
769.5,23.208,0.360107,-2.58605
770,23.2248,0.358073,-2.58605
770.5,23.2415,0.359251,-2.58605
771,23.2581,0.353628,-2.58605
771.5,23.2748,0.35776,-2.58632
772,23.2916,0.359406,-2.58734
772.5,23.3081,0.35699,-2.58629
773,23.3246,0.359025,-2.58605
773.5,23.3411,0.356507,-2.58605
774,23.3579,0.354452,-2.58605
774.5,23.3742,0.351676,-2.58603
775,23.3908,0.356295,-2.58737
775.5,23.4075,0.357261,-2.58737
776,23.4245,0.358167,-2.58737
776.5,23.4407,0.360211,-2.58737
777,23.4574,0.357215,-2.58737
777.5,23.4741,0.359935,-2.58737
778,23.4908,0.356678,-2.58737
778.5,23.5072,0.352545,-2.58737
779,23.5237,0.346544,-2.58737
779.5,23.5404,0.352399,-2.58737
780,23.5564,0.344613,-2.58737
780.5,23.5736,0.344325,-2.58737
781,23.5902,0.354408,-2.58737
781.5,23.6067,0.358003,-2.58737
782,23.6236,0.35517,-2.58737
782.5,23.6401,0.358152,-2.58737
783,23.6567,0.356993,-2.58847
783.5,23.6731,0.354143,-2.58869
784,23.6898,0.361443,-2.58869
784.5,23.7066,0.363454,-2.58869
785,23.7233,0.354965,-2.5879
785.5,23.7396,0.353117,-2.58738
786,23.7561,0.347407,-2.58737
786.5,23.7729,0.345181,-2.58737
787,23.7894,0.339027,-2.58737
787.5,23.8058,0.336636,-2.58804
788,23.8227,0.337266,-2.58869
788.5,23.8393,0.344116,-2.58764
789,23.8559,0.338973,-2.58737
789.5,23.8724,0.337022,-2.58737
790,23.8891,0.3435,-2.58737