File: 01_Data/High_Temp_Nylon_SCBA_Nosecup/STA/N2/30K_min/High_Temp_Nylon_SCBA_Nosecup_STA_N2_30KData_251014_R2.csv
Temp./C,Time/min,DSC/(mW/mg),Mass loss/mg
50.0,0.0,1.42652,0.02312
50.5,0.0326262,1.48085,0.0217921
51,0.063813,1.53168,0.0223451
51.5,0.0934844,1.59103,0.0220082
52,0.123415,1.63929,0.0218281
52.5,0.152948,1.67882,0.023026
53,0.181546,1.73286,0.0228013
53.5,0.209138,1.775,0.0228598
54,0.23663,1.81932,0.0233019
54.5,0.264425,1.85318,0.0226311
55,0.290939,1.9007,0.0221333
55.5,0.317074,1.94304,0.0228841
56,0.343813,1.96619,0.022352
56.5,0.369346,2.00871,0.0216852
57,0.393477,2.04678,0.0221425
57.5,0.418813,2.08159,0.0225479
58,0.444312,2.11198,0.0235117
58.5,0.469085,2.14597,0.0235325
59,0.493119,2.18076,0.0226993
59.5,0.517142,2.21533,0.0219842
60,0.540659,2.24184,0.0222412
60.5,0.564385,2.2678,0.0240236
61,0.587502,2.2985,0.0236649
61.5,0.610507,2.32258,0.0222987
62,0.634139,2.35797,0.021284
62.5,0.656824,2.39363,0.0210107
63,0.679257,2.42334,0.0209722
63.5,0.701489,2.44282,0.0210482
64,0.72386,2.46798,0.0212648
64.5,0.745788,2.48967,0.0215906
65,0.768173,2.51371,0.0219868
65.5,0.789987,2.53868,0.0220336
66,0.811663,2.56416,0.0220382
66.5,0.833813,2.58015,0.0220659
67,0.854857,2.6022,0.0210801
67.5,0.876777,2.62941,0.0204651
68,0.897845,2.65105,0.0204625
68.5,0.918728,2.67774,0.0205185
69,0.940104,2.69078,0.0213272
69.5,0.960857,2.71329,0.0220153
70,0.981865,2.72618,0.0221925
70.5,1.0027,2.74612,0.0215001
71,1.02353,2.76232,0.0207113
71.5,1.04431,2.77925,0.0209545
72,1.06518,2.80223,0.0206236
72.5,1.08538,2.81835,0.020921
73,1.1057,2.83869,0.0211232
73.5,1.12595,2.85619,0.0211485
74,1.14677,2.86513,0.0222625
74.5,1.16683,2.88526,0.0220882
75,1.18746,2.9082,0.023219
75.5,1.20707,2.91773,0.0229261
76,1.22774,2.9353,0.0214577
76.5,1.24714,2.95454,0.021986
77,1.26739,2.96606,0.022172
77.5,1.28775,2.98182,0.0213647
78,1.30676,2.99432,0.0223823
78.5,1.32696,3.0048,0.0223455
79,1.34625,3.02387,0.0214115
79.5,1.36671,3.03762,0.0208021
80,1.38616,3.06001,0.02123
80.5,1.40536,3.08051,0.0203631
81,1.42545,3.09129,0.0207698
81.5,1.44452,3.11444,0.0213135
82,1.46397,3.12024,0.0206513
82.5,1.48303,3.13958,0.0214128
83,1.50294,3.15892,0.020939
83.5,1.52173,3.17971,0.0211146
84,1.54119,3.19083,0.019903
84.5,1.56024,3.20525,0.0209954
85,1.57908,3.22616,0.019637
85.5,1.59791,3.24205,0.0198742
86,1.61696,3.25236,0.0209845
86.5,1.63631,3.27493,0.0200457
87,1.65509,3.29656,0.0211638
87.5,1.67409,3.31389,0.0224498
88,1.69247,3.32242,0.021655
88.5,1.71144,3.33865,0.0225708
89,1.72948,3.35427,0.0213081
89.5,1.74901,3.3774,0.0220474
90,1.76702,3.40209,0.0211887
90.5,1.78643,3.42008,0.0212998
91,1.80403,3.43279,0.0210778
91.5,1.82318,3.45961,0.0223361
92,1.84152,3.48174,0.0223132
92.5,1.86011,3.49583,0.0212178
93,1.87863,3.51443,0.0223919
93.5,1.89664,3.53059,0.0223531
94,1.91523,3.55087,0.022795
94.5,1.9335,3.55615,0.0223886
95,1.95192,3.5743,0.0223904
95.5,1.9698,3.59632,0.0224374
96,1.98758,3.61456,0.0225166
96.5,2.00628,3.62166,0.0222173
97,2.02371,3.64294,0.0224079
97.5,2.04204,3.6577,0.0209218
98,2.05916,3.67446,0.0222895
98.5,2.0784,3.69115,0.0206552
99,2.0958,3.70343,0.021175
99.5,2.11433,3.71531,0.0220453
100,2.13208,3.72619,0.0213729
100.5,2.14975,3.74317,0.0220544
101,2.16814,3.76095,0.0220599
101.5,2.18604,3.76883,0.0221385
102,2.2032,3.77099,0.0220407
102.5,2.22135,3.78308,0.0220601
103,2.23889,3.79807,0.0220602
103.5,2.25693,3.80665,0.0229274
104,2.27423,3.81275,0.0220499
104.5,2.29217,3.82187,0.0220426
105,2.30952,3.82224,0.0233919
105.5,2.3272,3.82585,0.0233821
106,2.34483,3.83854,0.0227754
106.5,2.36233,3.82893,0.022075
107,2.38006,3.83762,0.0228872
107.5,2.39716,3.84725,0.0225426
108,2.41457,3.84636,0.0220627
108.5,2.43201,3.85226,0.0220589
109,2.44964,3.85307,0.0220836
109.5,2.46689,3.85938,0.0212245
110,2.48479,3.87014,0.0220741
110.5,2.50163,3.87432,0.0220694
111,2.51864,3.87837,0.0220901
111.5,2.53688,3.88209,0.0206666
112,2.55484,3.89111,0.0221311
112.5,2.57136,3.89867,0.022059
113,2.5891,3.90644,0.0220715
113.5,2.60611,3.91509,0.0234696
114,2.62319,3.92554,0.0223198
114.5,2.64058,3.92202,0.0222718
115,2.65814,3.93476,0.0233876
115.5,2.67553,3.93761,0.0233801
116,2.69256,3.94315,0.0234062
116.5,2.7094,3.95355,0.0220575
117,2.72689,3.96024,0.0219892
117.5,2.74475,3.97508,0.0234141
118,2.76132,3.98537,0.0233793
118.5,2.77889,3.98981,0.0233802
119,2.7957,4.00201,0.0234043
119.5,2.81268,4.01306,0.022164
120,2.82939,4.01456,0.0233875
120.5,2.84717,4.02082,0.0233798
121,2.86391,4.03423,0.02338
121.5,2.88099,4.04647,0.0233765
122,2.89766,4.05792,0.0228804
122.5,2.9149,4.07093,0.0220577
123,2.93193,4.07959,0.0220703
123.5,2.94869,4.09539,0.0227051
124,2.96545,4.09234,0.0233846
124.5,2.98257,4.10794,0.02338
125,2.99944,4.12217,0.02338
125.5,3.01662,4.12494,0.02338
126,3.03305,4.13825,0.02338
126.5,3.0501,4.15272,0.0233806
127,3.06684,4.16852,0.0233161
127.5,3.08364,4.18001,0.0238765
128,3.1003,4.18686,0.0233791
128.5,3.11696,4.19244,0.0233836
129,3.13361,4.20469,0.0228932
129.5,3.15031,4.21552,0.0220545
130,3.16719,4.23553,0.0233207
130.5,3.18363,4.24185,0.0233801
131,3.20067,4.24977,0.02338
131.5,3.21691,4.27265,0.02338
132,3.23378,4.28496,0.02338
132.5,3.25013,4.29612,0.0235096
133,3.26651,4.31103,0.0247225
133.5,3.28307,4.31715,0.0246899
134,3.3,4.32613,0.024688
134.5,3.31641,4.34241,0.0236581
135,3.33265,4.35127,0.0237105
135.5,3.34878,4.36696,0.0237385
136,3.36546,4.38024,0.0233792
136.5,3.38198,4.39051,0.0233585
137,3.3983,4.403,0.0246855
137.5,3.41462,4.41915,0.0246994
138,3.43119,4.42185,0.0246667
138.5,3.44738,4.43091,0.0233294
139,3.46392,4.4442,0.0233807
139.5,3.48013,4.45921,0.02338
140,3.4963,4.46676,0.0233797
140.5,3.51255,4.4785,0.0233967
141,3.52849,4.4898,0.024351
141.5,3.54497,4.50084,0.0247022
142,3.56117,4.50359,0.0247
142.5,3.57709,4.52264,0.0247
143,3.59326,4.52993,0.0247
143.5,3.60943,4.54364,0.0247
144,3.62564,4.55775,0.0247
144.5,3.64191,4.56883,0.0247
145,3.65818,4.58156,0.0247
145.5,3.67372,4.5882,0.0247
146,3.68927,4.60123,0.0246997
146.5,3.70524,4.61045,0.0247507
147,3.72149,4.62456,0.0260634
147.5,3.73734,4.64195,0.0253349
148,3.75418,4.65082,0.0253603
148.5,3.77002,4.66331,0.0253602
149,3.7863,4.65973,0.0253708
149.5,3.80195,4.67351,0.0247163
150,3.81792,4.69256,0.0246996
150.5,3.83406,4.70026,0.0247
151,3.84984,4.71294,0.0247
151.5,3.86595,4.72408,0.0247
152,3.88211,4.73056,0.0247
152.5,3.89757,4.73874,0.0247
153,3.91342,4.75006,0.0247
153.5,3.92943,4.76287,0.0247
154,3.94531,4.77509,0.0247
154.5,3.96111,4.7847,0.0247
155,3.97692,4.79005,0.0247
155.5,3.99301,4.80668,0.0247
156,4.00841,4.81653,0.0247
156.5,4.02454,4.82402,0.0247001
157,4.04035,4.83596,0.0246893
157.5,4.05622,4.84774,0.0258905
158,4.0719,4.85582,0.0260111
158.5,4.08788,4.86899,0.02601
159,4.10412,4.87923,0.0260101
159.5,4.1193,4.88202,0.0260052
160,4.13501,4.89798,0.0251223
160.5,4.15085,4.89759,0.0246903
161,4.16625,4.9135,0.02469
161.5,4.18251,4.9244,0.02469
162,4.19758,4.93342,0.02469
162.5,4.21336,4.94756,0.02469
163,4.22974,4.96333,0.02469
163.5,4.24509,4.96072,0.02469
164,4.26054,4.97344,0.0246898
164.5,4.27645,4.99081,0.0246763
165,4.29173,4.99711,0.0233672
165.5,4.30766,4.99731,0.0233803
166,4.32322,5.00892,0.0233807
166.5,4.33858,5.0206,0.0233613
167,4.35467,5.02253,0.0247321
167.5,4.37033,5.03795,0.0252821
168,4.38585,5.04613,0.0256785
168.5,4.40163,5.05577,0.02568
169,4.41701,5.06369,0.02568
169.5,4.43255,5.06831,0.02568
170,4.44798,5.07489,0.02568
170.5,4.46378,5.08732,0.02568
171,4.47969,5.09347,0.02568
171.5,4.49478,5.10585,0.02568
172,4.51054,5.12047,0.02568
172.5,4.52614,5.12167,0.02568
173,4.54158,5.12411,0.02568
173.5,4.55727,5.14019,0.02568
174,4.57279,5.15213,0.02568
174.5,4.58806,5.15833,0.02568
175,4.60348,5.16832,0.02568
175.5,4.61941,5.18177,0.02568
176,4.63492,5.18214,0.02568
176.5,4.65039,5.18901,0.02568
177,4.66572,5.19746,0.02568
177.5,4.681,5.21104,0.02568
178,4.69667,5.216,0.025678
178.5,4.71211,5.22251,0.02589
179,4.72754,5.23546,0.0270344
179.5,4.74279,5.2405,0.0269995
180,4.75823,5.25012,0.027
180.5,4.77378,5.24989,0.0270008
181,4.78937,5.25383,0.0269224
181.5,4.80466,5.26115,0.0256701
182,4.81998,5.2743,0.0256903
182.5,4.83526,5.28438,0.0256898
183,4.85068,5.29239,0.0257025
183.5,4.866,5.30157,0.0244936
184,4.88124,5.30803,0.0243689
184.5,4.89663,5.31548,0.02437
185,4.91187,5.3228,0.02437
185.5,4.92704,5.33204,0.02437
186,4.94263,5.34666,0.02437
186.5,4.95672,5.35186,0.02437
187,4.97308,5.35786,0.0243699
187.5,4.98833,5.36765,0.0243719
188,5.00358,5.37388,0.0253272
188.5,5.0193,5.38063,0.0268259
189,5.03413,5.38899,0.0270014
189.5,5.04942,5.39237,0.027
190,5.06493,5.40357,0.027
190.5,5.07995,5.41642,0.0270003
191,5.0943,5.419,0.0269828
191.5,5.11029,5.42925,0.0262817
192,5.12566,5.43875,0.0263511
192.5,5.14079,5.4462,0.0263501
193,5.15624,5.45335,0.0263457
193.5,5.17117,5.45667,0.0257062
194,5.18629,5.46623,0.0250353
194.5,5.20107,5.47481,0.0250299
195,5.21665,5.47991,0.02503
195.5,5.23193,5.48785,0.02503
196,5.24708,5.50261,0.02503
196.5,5.26209,5.50454,0.02503
197,5.27749,5.50727,0.02503
197.5,5.29229,5.51424,0.02503
198,5.30751,5.53549,0.02503
198.5,5.32282,5.54008,0.02503
199,5.33781,5.54654,0.02503
199.5,5.35308,5.55019,0.02503
200,5.36808,5.56195,0.02503
200.5,5.38335,5.56702,0.0250299
201,5.39826,5.57361,0.0250372
201.5,5.41327,5.58214,0.0256413
202,5.42832,5.58654,0.0260071
202.5,5.44331,5.59872,0.02601
203,5.45863,5.60299,0.02601
203.5,5.47375,5.60912,0.02601
204,5.48884,5.61778,0.02601
204.5,5.50427,5.62734,0.02601
205,5.5189,5.63842,0.02601
205.5,5.53413,5.64654,0.02601
206,5.5492,5.65041,0.02601
206.5,5.5644,5.65988,0.02601
207,5.57942,5.67457,0.02601
207.5,5.59461,5.67842,0.02601
208,5.60957,5.68806,0.02601
208.5,5.62447,5.69474,0.02601
209,5.63944,5.70649,0.02601
209.5,5.65443,5.72155,0.02601
210,5.6698,5.7229,0.02601
210.5,5.68448,5.74159,0.02601
211,5.69966,5.74681,0.02601
211.5,5.71495,5.75546,0.02601
212,5.72973,5.76565,0.02601
212.5,5.74482,5.7738,0.02601
213,5.75997,5.78207,0.02601
213.5,5.77487,5.79048,0.02601
214,5.79009,5.80014,0.02601
214.5,5.80516,5.8106,0.02601
215,5.81985,5.82352,0.02601
215.5,5.83509,5.83247,0.02601
216,5.85002,5.83989,0.02601
216.5,5.86488,5.84589,0.0260101
217,5.87988,5.85745,0.0260066
217.5,5.89507,5.86494,0.0256122
218,5.91013,5.87717,0.0247057
218.5,5.92507,5.88951,0.0246993
219,5.93929,5.90032,0.0250209
219.5,5.95487,5.90726,0.02502
220,5.96988,5.91364,0.02502
220.5,5.98505,5.92316,0.02502
221,5.99972,5.94145,0.02502
221.5,6.01495,5.95603,0.0250201
222,6.03024,5.96581,0.0250116
222.5,6.04538,5.97706,0.0261659
223,6.06015,5.97974,0.0263411
223.5,6.07515,5.99401,0.02634
224,6.08935,6.01382,0.02634
224.5,6.10494,6.02653,0.02634
225,6.11969,6.03459,0.02634
225.5,6.1347,6.0428,0.02634
226,6.14981,6.05457,0.0263388
226.5,6.16478,6.07385,0.0265922
227,6.17959,6.09493,0.0266225
227.5,6.19463,6.10083,0.0263383
228,6.2096,6.1109,0.02634
228.5,6.22453,6.1159,0.02634
229,6.23968,6.13716,0.02634
229.5,6.25459,6.15243,0.02634
230,6.26927,6.15805,0.02634
230.5,6.28424,6.16433,0.02634
231,6.29934,6.17678,0.02634
231.5,6.31418,6.18807,0.02634
232,6.32933,6.20024,0.02634
232.5,6.34409,6.21705,0.02634
233,6.35902,6.23973,0.02634
233.5,6.37381,6.25439,0.02634
234,6.38876,6.26566,0.02634
234.5,6.40378,6.28348,0.0263398
235,6.41864,6.30293,0.0263491
235.5,6.43381,6.32675,0.0268525
236,6.44892,6.33852,0.027323
236.5,6.46304,6.35437,0.0273301
237,6.47869,6.38228,0.02733
237.5,6.49363,6.40784,0.02733
238,6.50851,6.43203,0.02733
238.5,6.52342,6.4614,0.02733
239,6.53826,6.49114,0.02733
239.5,6.55367,6.51574,0.02733
240,6.56851,6.54946,0.02733
240.5,6.58303,6.58822,0.02733
241,6.59823,6.63254,0.02733
241.5,6.61308,6.67365,0.02733
242,6.62811,6.72956,0.02733
242.5,6.64337,6.79023,0.0273293
243,6.65849,6.84668,0.0273762
243.5,6.67372,6.90848,0.0276616
244,6.68872,6.99048,0.02766
244.5,6.70375,7.06827,0.02766
245,6.71896,7.16666,0.02766
245.5,6.73418,7.26862,0.02766
246,6.74963,7.38633,0.02766
246.5,6.76503,7.53646,0.0276605
247,6.78025,7.69721,0.0276307
247.5,6.79575,7.86555,0.0289581
248,6.8112,8.07233,0.0289807
248.5,6.82682,8.2837,0.02898
249,6.84243,8.5146,0.02898
249.5,6.85808,8.73685,0.02898
250,6.87359,8.95462,0.02898
250.5,6.88961,9.18427,0.02898
251,6.90561,9.41648,0.02898
251.5,6.92081,9.62939,0.0289797
252,6.93629,9.8459,0.0289968
252.5,6.95184,10.0552,0.0277488
253,6.96747,10.2726,0.0276692
253.5,6.98306,10.4787,0.02767
254,6.99872,10.6689,0.02767
254.5,7.01416,10.8765,0.02767
255,7.02973,11.0561,0.02767
255.5,7.04527,11.2334,0.02767
256,7.06054,11.3885,0.02767
256.5,7.0757,11.5316,0.02767
257,7.0913,11.6342,0.02767
257.5,7.10611,11.6685,0.02767
258,7.12089,11.6163,0.02767
258.5,7.13519,11.449,0.02767
259,7.14868,11.1515,0.02767
259.5,7.16244,10.7416,0.02767
260,7.17565,10.3286,0.02767
260.5,7.18911,9.93537,0.0276699
261,7.20292,9.57155,0.0276781
261.5,7.21696,9.24118,0.0286332
262,7.23067,8.94735,0.0286504
262.5,7.24462,8.67963,0.02865
263,7.25859,8.43175,0.02865
263.5,7.27257,8.2134,0.02865
264,7.28677,8.00894,0.02865
264.5,7.30106,7.82974,0.02865
265,7.3154,7.65673,0.02865
265.5,7.32956,7.51015,0.02865
266,7.3439,7.37969,0.02865
266.5,7.35822,7.25217,0.02865
267,7.37257,7.14185,0.02865
267.5,7.38691,7.03366,0.02865
268,7.40118,6.94649,0.02865
268.5,7.41559,6.85824,0.02865
269,7.43025,6.77968,0.02865
269.5,7.44451,6.71762,0.02865
270,7.45923,6.66275,0.02865
270.5,7.47367,6.60938,0.02865
271,7.48813,6.56291,0.0286492
271.5,7.50309,6.52395,0.0286878
272,7.5178,6.47574,0.0277166
272.5,7.53151,6.43537,0.027658
273,7.54666,6.40421,0.02766
273.5,7.56116,6.37207,0.02766
274,7.57638,6.35353,0.02766
274.5,7.59114,6.32253,0.02766
275,7.60569,6.30832,0.02766
275.5,7.62002,6.2828,0.02766
276,7.63521,6.26007,0.02766
276.5,7.64977,6.25027,0.02766
277,7.66463,6.23365,0.02766
277.5,7.67859,6.22115,0.02766
278,7.69333,6.21729,0.02766
278.5,7.70797,6.20667,0.0276607
279,7.72365,6.20305,0.0276237
279.5,7.73831,6.19022,0.0286978
280,7.7529,6.18135,0.0289833
280.5,7.76772,6.17058,0.0292177
281,7.78235,6.16766,0.0296361
281.5,7.79724,6.15151,0.0296401
282,7.81195,6.15141,0.02964
282.5,7.82677,6.15785,0.02964
283,7.84155,6.15757,0.02964
283.5,7.85616,6.14915,0.02964
284,7.87095,6.14788,0.02964
284.5,7.88576,6.14132,0.02964
285,7.90065,6.12954,0.02964
285.5,7.91552,6.13091,0.0296399
286,7.93026,6.12839,0.0296425
286.5,7.94503,6.12554,0.0295115
287,7.9598,6.13535,0.0282972
287.5,7.97437,6.12707,0.0283203
288,7.98909,6.12405,0.02832
288.5,8.00433,6.11915,0.02832
289,8.0192,6.11767,0.02832
289.5,8.03384,6.11486,0.02832
290,8.04864,6.11003,0.02832
290.5,8.0637,6.10547,0.0283198
291,8.07827,6.11063,0.028333
291.5,8.09307,6.10567,0.0286511
292,8.10804,6.1013,0.0283186
292.5,8.1227,6.09183,0.02832
293,8.13783,6.08367,0.02832
293.5,8.15235,6.09472,0.02832
294,8.167,6.10257,0.02832
294.5,8.18205,6.09353,0.02832
295,8.19683,6.10249,0.02832
295.5,8.21155,6.09783,0.02832
296,8.22647,6.09989,0.02832
296.5,8.24136,6.10089,0.02832
297,8.25609,6.09631,0.0283201
297.5,8.27105,6.09547,0.0283169
298,8.28553,6.10019,0.0284563
298.5,8.30051,6.09712,0.0296632
299,8.31553,6.10069,0.0296395
299.5,8.33018,6.09859,0.02964
300,8.34507,6.0984,0.02964
300.5,8.36,6.1026,0.02964
301,8.37454,6.10497,0.02964
301.5,8.38937,6.09958,0.02964
302,8.40438,6.09815,0.02964
302.5,8.4189,6.10585,0.0296399
303,8.43407,6.10195,0.0292795
303.5,8.44887,6.10119,0.0283203
304,8.46381,6.1042,0.02832
304.5,8.47858,6.09821,0.02832
305,8.49342,6.10627,0.02832
305.5,8.50844,6.10678,0.02832
306,8.52306,6.10519,0.02832
306.5,8.53788,6.10473,0.02832
307,8.55283,6.11472,0.02832
307.5,8.56758,6.11132,0.02832
308,8.58244,6.11096,0.02832
308.5,8.59706,6.10849,0.02832
309,8.61231,6.11832,0.02832
309.5,8.62714,6.11772,0.02832
310,8.6419,6.11708,0.02832
310.5,8.65681,6.10557,0.02832
311,8.67184,6.10992,0.02832
311.5,8.68644,6.1068,0.02832
312,8.70132,6.10281,0.0283203
312.5,8.71627,6.10131,0.0283036
313,8.73079,6.10952,0.0294965
313.5,8.74579,6.10994,0.0296315
314,8.76055,6.10936,0.02963
314.5,8.77506,6.10476,0.02963
315,8.78975,6.1076,0.0296299
315.5,8.80472,6.1021,0.0296372
316,8.81982,6.09592,0.0285425
316.5,8.83458,6.10226,0.0283192
317,8.84959,6.10342,0.02832
317.5,8.86497,6.0979,0.02832
318,8.87958,6.09415,0.02832
318.5,8.89461,6.0977,0.02832
319,8.90938,6.10002,0.02832
319.5,8.9243,6.09223,0.02832
320,8.93914,6.09179,0.02832
320.5,8.95403,6.08928,0.02832
321,8.96918,6.09191,0.02832
321.5,8.98373,6.0929,0.02832
322,8.99884,6.09359,0.02832
322.5,9.01366,6.08982,0.0280069
323,9.02866,6.08894,0.0269991
323.5,9.04323,6.08826,0.0270001
324,9.05831,6.08685,0.027
324.5,9.07321,6.08673,0.027
325,9.08801,6.09064,0.027
325.5,9.10297,6.0856,0.027
326,9.11815,6.08817,0.027
326.5,9.13278,6.09144,0.027
327,9.14787,6.08852,0.027
327.5,9.16286,6.08083,0.027
328,9.17795,6.08451,0.027
328.5,9.19255,6.08235,0.027
329,9.20744,6.08401,0.0270003
329.5,9.22241,6.07878,0.0269822
330,9.23719,6.08068,0.0271109
330.5,9.25232,6.07877,0.0259706
331,9.26711,6.07593,0.0260108
331.5,9.2822,6.06957,0.02601
332,9.29707,6.07651,0.02601
332.5,9.31185,6.07453,0.02601
333,9.32692,6.07379,0.02601
333.5,9.34183,6.07443,0.02601
334,9.35679,6.07114,0.0260087
334.5,9.3717,6.07094,0.0260771
335,9.38651,6.07403,0.024829
335.5,9.40129,6.08099,0.0246978
336,9.4165,6.08071,0.024707
336.5,9.43157,6.07566,0.0252491
337,9.44619,6.08458,0.0256844
337.5,9.46128,6.08214,0.0256901
338,9.47634,6.08019,0.02569
338.5,9.49111,6.0797,0.02569
339,9.50612,6.07634,0.0256913
339.5,9.52126,6.08011,0.025584
340,9.53611,6.0842,0.0243525
340.5,9.55113,6.09294,0.0243704
341,9.56612,6.09554,0.02437
341.5,9.58108,6.09318,0.02437
342,9.59601,6.08355,0.02437
342.5,9.61117,6.08694,0.02437
343,9.62606,6.09014,0.0243696
343.5,9.64107,6.08875,0.0243866
344,9.65594,6.08164,0.0252235
344.5,9.67085,6.08201,0.0256824
345,9.68591,6.08412,0.0256896
345.5,9.701,6.08885,0.0257167
346,9.71593,6.09418,0.0247365
346.5,9.73105,6.09975,0.0243656
347,9.74581,6.10199,0.0243701
347.5,9.76128,6.10313,0.02437
348,9.77603,6.10681,0.0243703
348.5,9.79101,6.10415,0.0243516
349,9.80607,6.10328,0.0236644
349.5,9.82098,6.10622,0.0236192
350,9.83599,6.10905,0.0223746
350.5,9.8513,6.11593,0.0223903
351,9.86619,6.12251,0.02239
351.5,9.88099,6.12596,0.0223901
352,9.8963,6.13362,0.0223851
352.5,9.91137,6.13151,0.0228112
353,9.92606,6.13462,0.0237198
353.5,9.94137,6.14332,0.023244
354,9.95625,6.15436,0.0224148
354.5,9.97128,6.15425,0.0223997
355,9.98654,6.15911,0.0223989
355.5,10.0015,6.17119,0.022461
356,10.0166,6.17773,0.0212109
356.5,10.0316,6.18663,0.0210783
357,10.0467,6.19094,0.02108
357.5,10.0616,6.18296,0.02108
358,10.0769,6.18461,0.02108
358.5,10.0919,6.18701,0.02108
359,10.1071,6.19959,0.0210812
359.5,10.122,6.20783,0.0209245
360,10.1369,6.21988,0.0197481
360.5,10.1523,6.22501,0.0197602
361,10.1676,6.23678,0.0197589
361.5,10.1824,6.24658,0.0198242
362,10.1978,6.26578,0.0184955
362.5,10.2122,6.28026,0.0184384
363,10.2278,6.28773,0.018441
363.5,10.2424,6.30089,0.0182499
364,10.2578,6.31123,0.0171241
364.5,10.2729,6.31633,0.0171336
365,10.2882,6.32478,0.0165515
365.5,10.3029,6.34296,0.0157994
366,10.318,6.35969,0.015811
366.5,10.3331,6.36633,0.0155543
367,10.3478,6.38095,0.0144935
367.5,10.3634,6.39522,0.0158296
368,10.3789,6.41638,0.0154655
368.5,10.3936,6.43892,0.0143657
369,10.4087,6.45511,0.0143694
369.5,10.4244,6.47828,0.0136426
370,10.4395,6.49589,0.0130571
370.5,10.4548,6.50823,0.0130596
371,10.4697,6.52759,0.0130795
371.5,10.4851,6.54219,0.0119835
372,10.5002,6.56336,0.0117381
372.5,10.5154,6.58457,0.0117347
373,10.5306,6.607,0.0113201
373.5,10.5459,6.63343,0.0104389
374,10.5609,6.64932,0.0104164
374.5,10.5762,6.67717,0.0097322
375,10.5913,6.6888,0.00891425
375.5,10.6065,6.71344,0.00940916
376,10.6217,6.7345,0.00863051
376.5,10.6368,6.75647,0.00865276
377,10.6523,6.77835,0.00776822
377.5,10.6675,6.8018,0.00724457
378,10.6825,6.81778,0.00728949
378.5,10.6977,6.83841,0.00563611
379,10.713,6.85937,0.00413069
379.5,10.7283,6.86473,0.0028409
380,10.7436,6.8807,0.00211497
380.5,10.7588,6.90864,0.00108993
381,10.7741,6.91133,0.000266225
381.5,10.7892,6.9177,-0.000550072
382,10.8045,6.93161,-0.00183595
382.5,10.8198,6.95862,-0.00269104
383,10.8349,6.97505,-0.00382447
383.5,10.8502,6.98604,-0.00528418
384,10.8654,7.0085,-0.00484105
384.5,10.8805,7.03315,-0.00596452
385,10.8956,7.0584,-0.00659979
385.5,10.9111,7.08184,-0.00771943
386,10.9266,7.11098,-0.00953805
386.5,10.9418,7.13766,-0.0108687
387,10.9571,7.16548,-0.0122285
387.5,10.9724,7.19493,-0.0134838
388,10.9875,7.22268,-0.0150381
388.5,11.0022,7.25541,-0.0159115
389,11.0178,7.28791,-0.0187275
389.5,11.0335,7.32633,-0.0203185
390,11.0488,7.35294,-0.0226157
390.5,11.0644,7.37787,-0.0234917
391,11.0796,7.41894,-0.0247557
391.5,11.095,7.45105,-0.0263629
392,11.1098,7.48164,-0.0276111
392.5,11.1256,7.52131,-0.0286444
393,11.1409,7.57287,-0.0299759
393.5,11.1562,7.61262,-0.0316241
394,11.1716,7.66205,-0.0335585
394.5,11.1869,7.71056,-0.0354501
395,11.2023,7.75228,-0.0371346
395.5,11.2178,7.79974,-0.0395852
396,11.2331,7.85578,-0.0416575
396.5,11.2486,7.89819,-0.044321
397,11.264,7.94505,-0.0461368
397.5,11.2791,7.99741,-0.0484267
398,11.2948,8.05281,-0.0503925
398.5,11.3103,8.1159,-0.0517624
399,11.3257,8.16828,-0.0546708
399.5,11.3411,8.21815,-0.0571511
400,11.3564,8.2718,-0.0596287
400.5,11.3721,8.33535,-0.0625739
401,11.3876,8.39607,-0.0654293
401.5,11.4031,8.46055,-0.0678127
402,11.4185,8.52467,-0.0712298
402.5,11.4339,8.59419,-0.0739371
403,11.4495,8.66697,-0.077566
403.5,11.4651,8.72813,-0.0805071
404,11.4806,8.79324,-0.0836993
404.5,11.4961,8.86855,-0.0867928
405,11.5114,8.94256,-0.0900031
405.5,11.527,9.00929,-0.0942346
406,11.5428,9.07957,-0.0973088
406.5,11.5583,9.15472,-0.102316
407,11.5735,9.22681,-0.106181
407.5,11.5892,9.30862,-0.110848
408,11.6046,9.38854,-0.114484
408.5,11.6201,9.4701,-0.118745
409,11.6359,9.54855,-0.123636
409.5,11.6516,9.62609,-0.12893
410,11.6668,9.70194,-0.134484
410.5,11.6826,9.78974,-0.139421
411,11.6981,9.86731,-0.144699
411.5,11.7138,9.95158,-0.149627
412,11.7295,10.0371,-0.155625
412.5,11.7451,10.1268,-0.159794
413,11.7605,10.2119,-0.165923
413.5,11.7764,10.2973,-0.171517
414,11.7914,10.3745,-0.177762
414.5,11.8068,10.4569,-0.18364
415,11.8232,10.5441,-0.189649
415.5,11.8387,10.6446,-0.197223
416,11.8544,10.7242,-0.203404
416.5,11.8701,10.8022,-0.211836
417,11.8855,10.8937,-0.218059
417.5,11.9014,10.9794,-0.224663
418,11.9168,11.0686,-0.232316
418.5,11.9327,11.1602,-0.239906
419,11.9484,11.2467,-0.248981
419.5,11.9638,11.3321,-0.255376
420,11.9797,11.4152,-0.263342
420.5,11.9954,11.5065,-0.271004
421,12.0112,11.5867,-0.279874
421.5,12.0266,11.6625,-0.289228
422,12.0422,11.7451,-0.298157
422.5,12.058,11.8213,-0.307369
423,12.0736,11.8955,-0.31578
423.5,12.0889,11.9513,-0.325771
424,12.1047,12.0217,-0.334771
424.5,12.1202,12.0827,-0.345441
425,12.135,12.1314,-0.353599
425.5,12.1507,12.173,-0.36493
426,12.1669,12.2285,-0.375282
426.5,12.1825,12.267,-0.384489
427,12.1982,12.3178,-0.396127
427.5,12.2133,12.3518,-0.405234
428,12.2289,12.3669,-0.418231
428.5,12.2444,12.3896,-0.427886
429,12.2598,12.4174,-0.438776
429.5,12.2754,12.4472,-0.449336
430,12.2908,12.4462,-0.460617
430.5,12.3064,12.4621,-0.472639
431,12.3211,12.4662,-0.483514
431.5,12.3366,12.4595,-0.494198
432,12.3524,12.4448,-0.505904
432.5,12.3678,12.428,-0.517873
433,12.3832,12.4083,-0.528183
433.5,12.3985,12.3944,-0.542051
434,12.4136,12.3851,-0.552536
434.5,12.4292,12.3641,-0.567187
435,12.4445,12.3512,-0.577488
435.5,12.4601,12.3261,-0.588541
436,12.4753,12.3021,-0.599392
436.5,12.4909,12.2851,-0.612076
437,12.5056,12.2653,-0.623699
437.5,12.5212,12.2465,-0.636817
438,12.5367,12.2328,-0.648437
438.5,12.5519,12.207,-0.660824
439,12.5673,12.1865,-0.674128
439.5,12.5826,12.173,-0.685544
440,12.5983,12.1512,-0.700827
440.5,12.6138,12.1351,-0.712762
441,12.629,12.1206,-0.728205
441.5,12.6443,12.1101,-0.739762
442,12.6595,12.094,-0.752685
442.5,12.675,12.0744,-0.765099
443,12.6906,12.0634,-0.779682
443.5,12.7061,12.0514,-0.794254
444,12.7213,12.0405,-0.808376
444.5,12.7367,12.0377,-0.820832
445,12.7521,12.0328,-0.834254
445.5,12.7676,12.0334,-0.848391
446,12.783,12.0377,-0.861672
446.5,12.7984,12.0394,-0.879357
447,12.814,12.0448,-0.892804
447.5,12.8294,12.046,-0.910441
448,12.8448,12.0426,-0.92379
448.5,12.8604,12.0466,-0.938063
449,12.876,12.0489,-0.953217
449.5,12.8914,12.028,-0.967705
450,12.9068,12.0245,-0.985087
450.5,12.9223,12.0234,-1.00076
451,12.9377,12.0189,-1.01599
451.5,12.9528,11.9943,-1.03038
452,12.9686,11.9761,-1.04707
452.5,12.9839,11.9536,-1.06068
453,12.9997,11.9362,-1.07958
453.5,13.0149,11.8998,-1.09372
454,13.0304,11.8784,-1.11275
454.5,13.0458,11.842,-1.12782
455,13.0608,11.8094,-1.14248
455.5,13.0765,11.7649,-1.159
456,13.0918,11.7148,-1.17478
456.5,13.1071,11.6725,-1.19341
457,13.1224,11.6103,-1.20938
457.5,13.1376,11.5413,-1.22505
458,13.1529,11.4874,-1.23916
458.5,13.1686,11.412,-1.2565
459,13.1835,11.3381,-1.27038
459.5,13.1989,11.2489,-1.28865
460,13.214,11.1588,-1.30214
460.5,13.2294,11.048,-1.32036
461,13.2447,10.9352,-1.33507
461.5,13.2596,10.8262,-1.34903
462,13.2747,10.7044,-1.36159
462.5,13.2897,10.578,-1.37602
463,13.3049,10.4367,-1.38881
463.5,13.32,10.2984,-1.40445
464,13.335,10.1489,-1.41698
464.5,13.3501,9.99643,-1.43319
465,13.3653,9.83861,-1.44599
465.5,13.3804,9.67507,-1.46008
466,13.3952,9.50779,-1.47386
466.5,13.4101,9.34725,-1.48921
467,13.4253,9.16862,-1.50311
467.5,13.4402,8.99005,-1.51841
468,13.455,8.81563,-1.53051
468.5,13.4699,8.63357,-1.54715
469,13.4842,8.46262,-1.55995
469.5,13.4993,8.2877,-1.57429
470,13.5148,8.09075,-1.58727
470.5,13.5298,7.91596,-1.60156
471,13.545,7.75348,-1.6142
471.5,13.56,7.574,-1.62904
472,13.5749,7.40194,-1.64055
472.5,13.5899,7.24406,-1.65548
473,13.6047,7.09068,-1.66624
473.5,13.6202,6.93813,-1.67783
474,13.6349,6.78985,-1.68793
474.5,13.6501,6.64198,-1.69938
475,13.6652,6.49718,-1.70967
475.5,13.6803,6.37071,-1.72126
476,13.6956,6.24752,-1.73073
476.5,13.7108,6.11959,-1.74251
477,13.7258,6.01209,-1.75235
477.5,13.741,5.91891,-1.7619
478,13.7564,5.81593,-1.77249
478.5,13.7718,5.72584,-1.78212
479,13.7862,5.64051,-1.79191
479.5,13.8018,5.56637,-1.80223
480,13.8173,5.50196,-1.81173
480.5,13.8324,5.44882,-1.82069
481,13.8479,5.38557,-1.83031
481.5,13.8631,5.32703,-1.83817
482,13.8794,5.28291,-1.84942
482.5,13.8948,5.22784,-1.85767
483,13.9103,5.18868,-1.86821
483.5,13.9256,5.1434,-1.87623
484,13.9414,5.10482,-1.88341
484.5,13.9566,5.06835,-1.89279
485,13.9724,5.02976,-1.90227
485.5,13.9878,4.98836,-1.91376
486,14.0033,4.95256,-1.92229
486.5,14.0188,4.91675,-1.9311
487,14.0345,4.89359,-1.93911
487.5,14.0501,4.86352,-1.94909
488,14.0653,4.83886,-1.95835
488.5,14.0815,4.81451,-1.96881
489,14.0966,4.78738,-1.97722
489.5,14.1123,4.75257,-1.98648
490,14.1276,4.72336,-1.99593
490.5,14.1433,4.69493,-2.0041
491,14.1592,4.68241,-2.01433
491.5,14.1741,4.64902,-2.02176
492,14.1903,4.61711,-2.03272
492.5,14.2058,4.59095,-2.04006
493,14.2215,4.55557,-2.04823
493.5,14.237,4.52826,-2.05787
494,14.2527,4.49001,-2.06683
494.5,14.2683,4.45323,-2.0782
495,14.2835,4.42719,-2.08713
495.5,14.2993,4.40009,-2.09772
496,14.3149,4.37111,-2.10615
496.5,14.3303,4.33689,-2.11578
497,14.346,4.28293,-2.12548
497.5,14.3617,4.2421,-2.13548
498,14.3771,4.20068,-2.14441
498.5,14.3926,4.15186,-2.15305
499,14.4082,4.10996,-2.16202
499.5,14.4238,4.06326,-2.16918
500,14.4393,4.01142,-2.17816
500.5,14.4546,3.96053,-2.18422
501,14.4698,3.9015,-2.19168
501.5,14.4859,3.85123,-2.19658
502,14.5013,3.777,-2.19945
502.5,14.5169,3.71908,-2.20061
503,14.5323,3.64869,-2.19785
503.5,14.548,3.58666,-2.19181
504,14.5631,3.53044,-2.18332
504.5,14.5783,3.46755,-2.16493
505,14.5937,3.40204,-2.14656
505.5,14.6093,3.33353,-2.12131
506,14.6249,3.2673,-2.10737
506.5,14.6406,3.1916,-2.09762
507,14.6558,3.13245,-2.09232
507.5,14.6712,3.05137,-2.09052
508,14.6864,2.97752,-2.09299
508.5,14.7013,2.90337,-2.09782
509,14.7175,2.80914,-2.109
509.5,14.7331,2.72743,-2.12006
510,14.7485,2.6399,-2.13421
510.5,14.7639,2.55429,-2.14926
511,14.7791,2.46342,-2.17479
511.5,14.7947,2.36578,-2.19214
512,14.8103,2.29135,-2.19971
512.5,14.8256,2.21417,-2.18965
513,14.8411,2.12695,-2.17686
513.5,14.8566,2.05392,-2.16975
514,14.8722,1.98353,-2.17045
514.5,14.8876,1.90965,-2.17996
515,14.9031,1.84091,-2.19132
515.5,14.9184,1.78971,-2.20381
516,14.9342,1.72557,-2.21014
516.5,14.9497,1.66004,-2.22606
517,14.9655,1.61088,-2.2522
517.5,14.9808,1.56613,-2.28061
518,14.9966,1.52274,-2.30109
518.5,15.0121,1.48166,-2.30741
519,15.0278,1.44983,-2.30389
519.5,15.0434,1.42487,-2.29638
520,15.0591,1.40046,-2.27754
520.5,15.075,1.38649,-2.26716
521,15.0906,1.37449,-2.26232
521.5,15.1063,1.36476,-2.26033
522,15.1218,1.34002,-2.25515
522.5,15.1375,1.31728,-2.24795
523,15.1531,1.2954,-2.244
523.5,15.1688,1.27599,-2.241
524,15.1849,1.26315,-2.23938
524.5,15.2005,1.25628,-2.23903
525,15.2161,1.24782,-2.23916
525.5,15.2318,1.24074,-2.24137
526,15.248,1.24702,-2.24343
526.5,15.2634,1.25016,-2.24601
527,15.2794,1.2464,-2.24952
527.5,15.295,1.25173,-2.25161
528,15.311,1.25221,-2.25415
528.5,15.3263,1.25842,-2.25608
529,15.3426,1.25555,-2.26142
529.5,15.3578,1.25985,-2.27242
530,15.3736,1.2659,-2.28375
530.5,15.3896,1.26666,-2.29007
531,15.4054,1.25845,-2.2865
531.5,15.4213,1.2682,-2.27886
532,15.4371,1.27512,-2.27404
532.5,15.4527,1.27331,-2.27157
533,15.4688,1.27037,-2.27152
533.5,15.4846,1.27602,-2.27342
534,15.5002,1.28203,-2.27479
534.5,15.5161,1.29276,-2.27544
535,15.532,1.28309,-2.2771
535.5,15.5476,1.27842,-2.27898
536,15.5635,1.28383,-2.28126
536.5,15.5794,1.27657,-2.2839
537,15.5949,1.2719,-2.28554
537.5,15.6109,1.27174,-2.28742
538,15.6267,1.27477,-2.28952
538.5,15.6425,1.2658,-2.29144
539,15.6581,1.26461,-2.29396
539.5,15.6741,1.26289,-2.29615
540,15.6899,1.26708,-2.29814
540.5,15.7056,1.262,-2.29934
541,15.7213,1.265,-2.30046
541.5,15.7373,1.26697,-2.30198
542,15.7528,1.26593,-2.30304
542.5,15.7689,1.26712,-2.30545
543,15.7846,1.268,-2.30675
543.5,15.8006,1.27602,-2.30896
544,15.816,1.27622,-2.31057
544.5,15.8322,1.27547,-2.31227
545,15.8479,1.26932,-2.31393
545.5,15.8639,1.27382,-2.31554
546,15.8794,1.27367,-2.31764
546.5,15.8954,1.27383,-2.31955
547,15.9111,1.27254,-2.32137
547.5,15.9273,1.27604,-2.32286
548,15.9428,1.27205,-2.32432
548.5,15.9587,1.25898,-2.32618
549,15.9744,1.25738,-2.32694
549.5,15.9903,1.24251,-2.32918
550,16.0064,1.24423,-2.33115
550.5,16.0221,1.24556,-2.33318
551,16.0379,1.24912,-2.33396
551.5,16.054,1.24412,-2.33531
552,16.0698,1.23311,-2.33734
552.5,16.0854,1.23249,-2.33987
553,16.1014,1.23505,-2.34334
553.5,16.1174,1.23341,-2.34667
554,16.1332,1.23678,-2.34996
554.5,16.1492,1.22543,-2.35352
555,16.165,1.22168,-2.35532
555.5,16.1809,1.22464,-2.35552
556,16.1968,1.23404,-2.35594
556.5,16.2126,1.23857,-2.35714
557,16.2285,1.23224,-2.35896
557.5,16.2444,1.22978,-2.35989
558,16.2601,1.23027,-2.36143
558.5,16.2759,1.22951,-2.36411
559,16.2923,1.22687,-2.36629
559.5,16.3078,1.21995,-2.36839
560,16.3239,1.22466,-2.36934
560.5,16.3397,1.22372,-2.37093
561,16.3555,1.21916,-2.3728
561.5,16.3712,1.21606,-2.37459
562,16.3877,1.2211,-2.3755
562.5,16.4031,1.22208,-2.37611
563,16.4193,1.22125,-2.37773
563.5,16.435,1.20867,-2.37819
564,16.4512,1.21138,-2.37949
564.5,16.467,1.2097,-2.38132
565,16.4831,1.20859,-2.38346
565.5,16.4987,1.20023,-2.38467
566,16.5148,1.20523,-2.38536
566.5,16.5307,1.20502,-2.38707
567,16.5467,1.20731,-2.38778
567.5,16.5627,1.20506,-2.38854
568,16.5786,1.19732,-2.38887
568.5,16.5944,1.19634,-2.38985
569,16.6104,1.19655,-2.38986
569.5,16.6263,1.19455,-2.38894
570,16.6421,1.19537,-2.3899
570.5,16.6581,1.1855,-2.38986
571,16.674,1.1817,-2.38987
571.5,16.69,1.18412,-2.39136
572,16.7062,1.17927,-2.3913
572.5,16.722,1.18231,-2.39217
573,16.7379,1.17595,-2.39273
573.5,16.7538,1.17417,-2.39173
574,16.7696,1.17643,-2.39173
574.5,16.7861,1.17338,-2.39171
575,16.802,1.16873,-2.39298
575.5,16.8173,1.16682,-2.39304
576,16.8338,1.15799,-2.39304
576.5,16.8498,1.15866,-2.39342
577,16.8655,1.15148,-2.39554
577.5,16.8816,1.14666,-2.40044
578,16.8979,1.15198,-2.40943
578.5,16.9138,1.15202,-2.41794
579,16.93,1.14713,-2.42364
579.5,16.9456,1.15069,-2.42218
580,16.9619,1.14419,-2.42025
580.5,16.9778,1.15008,-2.4194
581,16.9938,1.14837,-2.41939
581.5,17.0098,1.14344,-2.41777
582,17.0259,1.135,-2.41501
582.5,17.0419,1.12802,-2.41168
583,17.0578,1.12141,-2.40809
583.5,17.0739,1.12673,-2.40642
584,17.0899,1.12694,-2.40491
584.5,17.1058,1.12417,-2.4049
585,17.1222,1.11937,-2.4049
585.5,17.1379,1.11245,-2.4049
586,17.1536,1.11199,-2.4049
586.5,17.1701,1.11548,-2.4049
587,17.1862,1.11922,-2.40461
587.5,17.2019,1.11838,-2.40308
588,17.2184,1.12086,-2.40227
588.5,17.2345,1.11127,-2.40227
589,17.2504,1.11108,-2.40268
589.5,17.2664,1.11508,-2.4046
590,17.2827,1.10647,-2.40655
590.5,17.2986,1.11155,-2.4082
591,17.3149,1.10875,-2.40819
591.5,17.331,1.10978,-2.40956
592,17.347,1.10871,-2.41021
592.5,17.3631,1.11246,-2.41184
593,17.3795,1.11272,-2.41428
593.5,17.3954,1.10527,-2.417
594,17.4118,1.09992,-2.41983
594.5,17.4276,1.10078,-2.42354
595,17.4437,1.09587,-2.42823
595.5,17.46,1.08696,-2.43694
596,17.4764,1.0833,-2.44293
596.5,17.4925,1.08904,-2.44481
597,17.5085,1.08765,-2.44286
597.5,17.5243,1.08196,-2.43907
598,17.5407,1.07833,-2.43234
598.5,17.5569,1.07433,-2.42761
599,17.5732,1.06905,-2.42394
599.5,17.5891,1.06954,-2.42099
600,17.6052,1.06881,-2.41942
600.5,17.6216,1.0633,-2.41723
601,17.6377,1.06098,-2.41512
601.5,17.6539,1.0657,-2.41467
602,17.6698,1.0545,-2.41337
602.5,17.6861,1.04932,-2.41331
603,17.7022,1.04767,-2.41151
603.5,17.7186,1.03528,-2.41072
604,17.7344,1.03442,-2.41072
604.5,17.7508,1.03481,-2.41072
605,17.7671,1.0364,-2.41072
605.5,17.7832,1.03112,-2.41072
606,17.7996,1.03294,-2.41072
606.5,17.8157,1.03305,-2.41073
607,17.8317,1.01887,-2.41132
607.5,17.8483,1.02268,-2.41474
608,17.8645,1.01915,-2.41881
608.5,17.8805,1.01735,-2.42394
609,17.8968,1.01484,-2.42684
609.5,17.9128,1.01208,-2.42763
610,17.9291,1.00412,-2.42894
610.5,17.9455,1.00099,-2.42995
611,17.9614,1.00214,-2.43109
611.5,17.9777,1.00779,-2.43313
612,17.994,1.00326,-2.43475
612.5,18.0103,1.00032,-2.43318
613,18.0267,0.998575,-2.43161
613.5,18.0426,0.992036,-2.43007
614,18.0587,0.988717,-2.42873
614.5,18.075,0.985515,-2.4282
615,18.0912,0.982252,-2.4263
615.5,18.1075,0.983119,-2.42349
616,18.1237,0.978762,-2.42053
616.5,18.1398,0.976477,-2.41659
617,18.1563,0.970353,-2.41279
617.5,18.1725,0.965751,-2.40942
618,18.1886,0.964994,-2.40731
618.5,18.2051,0.957813,-2.40668
619,18.2212,0.952554,-2.40678
619.5,18.2376,0.956488,-2.40965
620,18.2535,0.955432,-2.41225
620.5,18.27,0.950097,-2.41431
621,18.2862,0.947108,-2.41459
621.5,18.3025,0.951358,-2.41428
622,18.3185,0.954203,-2.41423
622.5,18.3349,0.956908,-2.41423
623,18.3508,0.950585,-2.41423
623.5,18.3672,0.951216,-2.41423
624,18.3837,0.960406,-2.41454
624.5,18.3996,0.955948,-2.41816
625,18.416,0.950356,-2.42753
625.5,18.4323,0.948897,-2.44421
626,18.4484,0.950666,-2.46139
626.5,18.4648,0.954658,-2.47101
627,18.481,0.953955,-2.47375
627.5,18.4972,0.949466,-2.47218
628,18.5135,0.956035,-2.47187
628.5,18.5297,0.957162,-2.47225
629,18.5457,0.952688,-2.47396
629.5,18.562,0.952711,-2.47624
630,18.5786,0.954351,-2.47614
630.5,18.5948,0.951954,-2.47485
631,18.611,0.953344,-2.4745
631.5,18.6266,0.9502,-2.4745
632,18.6434,0.956206,-2.47448
632.5,18.6596,0.960118,-2.47406
633,18.6757,0.959193,-2.4735
633.5,18.692,0.945321,-2.4724
634,18.7084,0.949817,-2.4702
634.5,18.7245,0.950348,-2.46825
635,18.7408,0.949132,-2.46637
635.5,18.757,0.952361,-2.46497
636,18.7732,0.953603,-2.46497
636.5,18.7894,0.951855,-2.46336
637,18.8056,0.946521,-2.46331
637.5,18.8221,0.940131,-2.46205
638,18.8381,0.939742,-2.4621
638.5,18.8546,0.937845,-2.4621
639,18.8709,0.935781,-2.46212
639.5,18.8871,0.93766,-2.46098
640,18.9033,0.934297,-2.46079
640.5,18.9195,0.930731,-2.46079
641,18.9359,0.926803,-2.46067
641.5,18.952,0.932495,-2.45879
642,18.968,0.933145,-2.4566
642.5,18.9845,0.933104,-2.45335
643,19.0008,0.935972,-2.45132
643.5,19.0171,0.933015,-2.45146
644,19.0332,0.925801,-2.45204
644.5,19.0492,0.933992,-2.45277
645,19.0656,0.930913,-2.45029
645.5,19.0819,0.934577,-2.44746
646,19.0981,0.923847,-2.44464
646.5,19.1142,0.926445,-2.44254
647,19.1308,0.918561,-2.44172
647.5,19.1467,0.92094,-2.44126
648,19.163,0.92157,-2.44188
648.5,19.1793,0.913753,-2.44396
649,19.1955,0.910362,-2.44642
649.5,19.2117,0.91819,-2.45092
650,19.2281,0.906237,-2.45806
650.5,19.2442,0.91147,-2.46478
651,19.2604,0.914052,-2.47137
651.5,19.2766,0.917538,-2.47524
652,19.293,0.912229,-2.47692
652.5,19.3091,0.916266,-2.47693
653,19.3253,0.91383,-2.47869
653.5,19.3418,0.904676,-2.48142
654,19.3579,0.900648,-2.48465
654.5,19.3737,0.897057,-2.48737
655,19.3903,0.896704,-2.49094
655.5,19.4065,0.896423,-2.4929
656,19.4226,0.892928,-2.49582
656.5,19.4388,0.890866,-2.49712
657,19.4555,0.897143,-2.49728
657.5,19.4714,0.897121,-2.49579
658,19.4877,0.901808,-2.49451
658.5,19.504,0.899283,-2.49438
659,19.5201,0.898546,-2.49437
659.5,19.5365,0.892968,-2.49199
660,19.5526,0.898187,-2.49174
660.5,19.5687,0.899609,-2.49174
661,19.585,0.894536,-2.49179
661.5,19.6014,0.893783,-2.49311
662,19.6176,0.892947,-2.49306
662.5,19.6337,0.885014,-2.49306
663,19.6499,0.887955,-2.49306
663.5,19.6661,0.892938,-2.49307
664,19.6822,0.893845,-2.49123
664.5,19.6986,0.895431,-2.4898
665,19.7147,0.89951,-2.48922
665.5,19.731,0.898749,-2.48914
666,19.7472,0.897977,-2.49103
666.5,19.7637,0.901707,-2.49183
667,19.7798,0.907736,-2.49273
667.5,19.7961,0.908166,-2.49217
668,19.8123,0.901157,-2.49174
668.5,19.8285,0.904177,-2.49174
669,19.8446,0.905633,-2.49174
669.5,19.8609,0.908715,-2.49169
670,19.8772,0.913804,-2.49298
670.5,19.8931,0.912314,-2.49306
671,19.9095,0.915925,-2.49304
671.5,19.9259,0.916305,-2.49423
672,19.9419,0.914759,-2.49412
672.5,19.9581,0.919983,-2.49505
673,19.9742,0.909985,-2.49547
673.5,19.9905,0.917473,-2.49547
674,20.0069,0.922225,-2.49546
674.5,20.023,0.917328,-2.49459
675,20.0389,0.91134,-2.49416
675.5,20.0546,0.906591,-2.49416
676,20.0709,0.908634,-2.49409
676.5,20.0877,0.911439,-2.49563
677,20.1039,0.912763,-2.49571
677.5,20.1202,0.914036,-2.49727
678,20.1365,0.908662,-2.4974
678.5,20.1528,0.912822,-2.4988
679,20.1689,0.91165,-2.49877
679.5,20.1852,0.903772,-2.49877
680,20.201,0.909449,-2.49886
680.5,20.2173,0.912113,-2.50011
681,20.2336,0.907511,-2.49875
681.5,20.25,0.903664,-2.49877
682,20.2663,0.898527,-2.49812
682.5,20.2823,0.894416,-2.49745
683,20.2987,0.886711,-2.49745
683.5,20.3147,0.889384,-2.49749
684,20.3311,0.892208,-2.49883
684.5,20.347,0.885515,-2.49877
685,20.3634,0.877236,-2.49877
685.5,20.3798,0.878829,-2.49877
686,20.3958,0.876295,-2.49877
686.5,20.4115,0.872585,-2.49877
687,20.4277,0.867866,-2.49775
687.5,20.4445,0.861231,-2.49708
688,20.4608,0.860238,-2.49549
688.5,20.4769,0.849029,-2.49561
689,20.4933,0.85832,-2.49428
689.5,20.5093,0.848618,-2.49427
690,20.526,0.844495,-2.4942
690.5,20.542,0.844002,-2.49294
691,20.5585,0.838652,-2.49295
691.5,20.5743,0.831784,-2.49295
692,20.5908,0.831737,-2.49295
692.5,20.6073,0.822954,-2.49295
693,20.6235,0.832303,-2.49295
693.5,20.6395,0.832789,-2.49221
694,20.656,0.828355,-2.49077
694.5,20.672,0.830623,-2.49031
695,20.6883,0.825349,-2.49031
695.5,20.7049,0.814032,-2.49032
696,20.721,0.814518,-2.48913
696.5,20.7371,0.817401,-2.48899
697,20.754,0.811715,-2.48899
697.5,20.7701,0.808095,-2.48899
698,20.7863,0.81002,-2.48899
698.5,20.8027,0.800743,-2.48899
699,20.8189,0.795919,-2.48899
699.5,20.8354,0.798427,-2.48899
700,20.8518,0.795652,-2.48899
700.5,20.8682,0.795251,-2.48899
701,20.8846,0.792649,-2.48898
701.5,20.9007,0.786884,-2.48817
702,20.9171,0.783533,-2.48769
702.5,20.9337,0.782776,-2.48768
703,20.9497,0.778166,-2.48768
703.5,20.9661,0.768439,-2.48768
704,20.9828,0.763706,-2.48746
704.5,20.999,0.767877,-2.48588
705,21.0154,0.767848,-2.48505
705.5,21.0317,0.769276,-2.48505
706,21.0483,0.755512,-2.48505
706.5,21.0647,0.752436,-2.48505
707,21.0811,0.752631,-2.48505
707.5,21.0974,0.751615,-2.48505
708,21.1141,0.744421,-2.48503
708.5,21.1298,0.7475,-2.48371
709,21.1461,0.744789,-2.48373
709.5,21.1636,0.745659,-2.48373
710,21.1797,0.740044,-2.48373
710.5,21.1963,0.743077,-2.48374
711,21.2128,0.742528,-2.48249
711.5,21.2293,0.734466,-2.48241
712,21.2458,0.728445,-2.4823
712.5,21.2624,0.718205,-2.48105
713,21.2788,0.715161,-2.48109
713.5,21.2953,0.722522,-2.48109
714,21.3119,0.726566,-2.48116
714.5,21.3284,0.723303,-2.4798
715,21.345,0.714213,-2.47978
715.5,21.3617,0.711851,-2.47978
716,21.3781,0.718085,-2.47941
716.5,21.395,0.710685,-2.47845
717,21.4114,0.701193,-2.47846
717.5,21.4279,0.699782,-2.47846
718,21.4443,0.69924,-2.47846
718.5,21.4611,0.69098,-2.47846
719,21.4777,0.688468,-2.47846
719.5,21.4943,0.690985,-2.47846
720,21.511,0.687232,-2.47846
720.5,21.5274,0.677136,-2.47846
721,21.5442,0.676862,-2.47846
721.5,21.561,0.680898,-2.47846
722,21.5774,0.684259,-2.47846
722.5,21.5942,0.677741,-2.47846
723,21.6108,0.675695,-2.47839
723.5,21.6273,0.677086,-2.47674
724,21.6442,0.67345,-2.47583
724.5,21.6609,0.675012,-2.47582
725,21.6772,0.675082,-2.47582
725.5,21.6944,0.671149,-2.47582
726,21.7111,0.67163,-2.47582
726.5,21.7276,0.664557,-2.47582
727,21.7445,0.654199,-2.47541
727.5,21.7615,0.633906,-2.4745
728,21.7782,0.63938,-2.47392
728.5,21.7944,0.643457,-2.47352
729,21.8115,0.641409,-2.47355
729.5,21.8284,0.627142,-2.47223
730,21.8449,0.632901,-2.4722
730.5,21.8617,0.638038,-2.4722
731,21.8785,0.631172,-2.4722
731.5,21.8956,0.637839,-2.4722
732,21.9123,0.635946,-2.47219
732.5,21.9291,0.630549,-2.47184
733,21.9461,0.629974,-2.47187
733.5,21.9629,0.630403,-2.47187
734,21.9799,0.628021,-2.47187
734.5,21.9965,0.629035,-2.47187
735,22.0134,0.629693,-2.47187
735.5,22.0302,0.629021,-2.47187
736,22.0468,0.621503,-2.47187
736.5,22.0637,0.617588,-2.47187
737,22.0808,0.613207,-2.47119
737.5,22.0978,0.615731,-2.47122
738,22.1147,0.614137,-2.47122
738.5,22.1315,0.607718,-2.47068
739,22.1484,0.606746,-2.47056
739.5,22.1654,0.60244,-2.47056
740,22.1823,0.606336,-2.47056
740.5,22.1993,0.610501,-2.47054
741,22.2163,0.605847,-2.46944
741.5,22.2332,0.612084,-2.4679
742,22.2501,0.611802,-2.46792
742.5,22.2675,0.601879,-2.46792
743,22.2833,0.606196,-2.46792
743.5,22.3002,0.612721,-2.46792
744,22.318,0.622575,-2.46792
744.5,22.3349,0.614037,-2.46792
745,22.3519,0.608327,-2.46792
745.5,22.369,0.612896,-2.46792
746,22.3853,0.604922,-2.46792
746.5,22.403,0.60594,-2.46792
747,22.4199,0.606064,-2.46797
747.5,22.4369,0.609371,-2.4655
748,22.4538,0.6067,-2.46528
748.5,22.4709,0.608657,-2.46528
749,22.4876,0.615951,-2.46528
749.5,22.5049,0.628154,-2.46528
750,22.522,0.631425,-2.46528
750.5,22.5388,0.633316,-2.46528
751,22.5558,0.636299,-2.46528
751.5,22.5728,0.636923,-2.4659
752,22.5894,0.639517,-2.46594
752.5,22.6071,0.633548,-2.46594
753,22.624,0.624772,-2.46594
753.5,22.6409,0.623394,-2.46593
754,22.6582,0.626171,-2.46492
754.5,22.6748,0.626985,-2.46462
755,22.6924,0.622806,-2.46462
755.5,22.7094,0.617908,-2.46462
756,22.7262,0.616241,-2.46462
756.5,22.7432,0.610198,-2.46462
757,22.7605,0.602045,-2.46462
757.5,22.777,0.600468,-2.46461
758,22.7941,0.595982,-2.46394
758.5,22.8112,0.595351,-2.46198
759,22.828,0.578943,-2.46199
759.5,22.845,0.574398,-2.46118
760,22.862,0.568475,-2.46068
760.5,22.879,0.567007,-2.46068
761,22.8961,0.558937,-2.46068
761.5,22.9131,0.546673,-2.46068
762,22.9301,0.538731,-2.46067
762.5,22.9469,0.528493,-2.46176
763,22.9638,0.518082,-2.46199
763.5,22.9805,0.508326,-2.46199
764,22.9976,0.494235,-2.46199
764.5,23.0148,0.487309,-2.46199
765,23.0311,0.483303,-2.46199
765.5,23.0486,0.474799,-2.46199
766,23.0654,0.471861,-2.46199
766.5,23.0825,0.446905,-2.462
767,23.0993,0.437183,-2.46033
767.5,23.1161,0.426369,-2.45937
768,23.133,0.41331,-2.45936
768.5,23.1493,0.404791,-2.45936
769,23.1668,0.398024,-2.45936
769.5,23.183,0.390093,-2.45936
770,23.2004,0.376408,-2.45936
770.5,23.2174,0.35704,-2.45936
771,23.2342,0.348463,-2.45935
771.5,23.2511,0.334864,-2.45802
772,23.268,0.320914,-2.45804
772.5,23.2849,0.308214,-2.45757
773,23.3018,0.29649,-2.45673
773.5,23.3186,0.288102,-2.45672
774,23.3353,0.275707,-2.45672
774.5,23.3522,0.253634,-2.45672
775,23.3692,0.238036,-2.45672
775.5,23.3862,0.223889,-2.45672
776,23.403,0.213309,-2.45574
776.5,23.42,0.203317,-2.4554
777,23.4368,0.187819,-2.45542
777.5,23.4536,0.174827,-2.45638
778,23.4704,0.161844,-2.45672
778.5,23.4873,0.150069,-2.45672
779,23.5041,0.136691,-2.45672
779.5,23.5211,0.130278,-2.45672
780,23.538,0.111141,-2.45672
780.5,23.5546,0.0932101,-2.45672
781,23.5712,0.0801465,-2.45672
781.5,23.5876,0.0664045,-2.4567
782,23.605,0.0519677,-2.45565
782.5,23.6213,0.0389206,-2.4554
783,23.639,0.0312993,-2.4554
783.5,23.6557,0.0258051,-2.4554
784,23.6725,-8.53308e-05,-2.4554
784.5,23.6893,0.00535904,-2.4554
785,23.7061,-0.00310421,-2.4554
785.5,23.7229,-0.0175995,-2.45526
786,23.7397,-0.0347875,-2.45409
786.5,23.7564,-0.0457209,-2.45409
787,23.7733,-0.0575764,-2.4541
787.5,23.7901,-0.0693528,-2.45271
788,23.8068,-0.0746839,-2.45277
788.5,23.8235,-0.0785629,-2.45277
789,23.8403,-0.0864952,-2.45277
789.5,23.8572,-0.0929415,-2.45277
790,23.874,-0.106189,-2.45277