File: 01_Data/High_Temp_Nylon_SCBA_Nosecup/STA/N2/30K_min/High_Temp_Nylon_SCBA_Nosecup_STA_N2_30KData_251016_R3.csv
Temp./C,Time/min,DSC/(mW/mg),Mass loss/mg
50.0,0.0,1.30167,-0.00397931
50.5,0.0326924,1.35147,-0.00301851
51,0.0647803,1.38955,-0.00318562
51.5,0.0953741,1.44296,-0.00393684
52,0.125388,1.48591,-0.00393413
52.5,0.154876,1.53707,-0.00400571
53,0.183135,1.57654,-0.00570514
53.5,0.21264,1.62479,-0.00556542
54,0.239813,1.65939,-0.00411134
54.5,0.267128,1.68324,-0.004697
55,0.295062,1.72516,-0.00559494
55.5,0.321231,1.76223,-0.004129
56,0.347182,1.7838,-0.00476301
56.5,0.373372,1.8179,-0.00468665
57,0.39888,1.85054,-0.00507327
57.5,0.42429,1.88372,-0.00558182
58,0.44815,1.91001,-0.00647787
58.5,0.473596,1.94516,-0.00696718
59,0.49822,1.96753,-0.00730158
59.5,0.52263,1.98968,-0.00730095
60,0.54639,2.02022,-0.0071869
60.5,0.570253,2.03866,-0.00739415
61,0.593462,2.07526,-0.00631559
61.5,0.617416,2.1025,-0.0061132
62,0.640707,2.12417,-0.00603343
62.5,0.663469,2.15262,-0.00661132
63,0.686326,2.1672,-0.00727895
63.5,0.708912,2.199,-0.00601811
64,0.731484,2.22403,-0.00517989
64.5,0.753664,2.2428,-0.00353565
65,0.775493,2.27054,-0.00153251
65.5,0.797194,2.28245,-0.000383325
66,0.819543,2.30365,-0.000181527
66.5,0.841531,2.32431,-0.00154691
67,0.863021,2.34227,-0.00271023
67.5,0.884972,2.35593,-0.00442263
68,0.905907,2.37815,-0.00626854
68.5,0.928037,2.38597,-0.00689803
69,0.949258,2.40516,-0.00601881
69.5,0.970754,2.41811,-0.00472442
70,0.990986,2.43238,-0.00371427
70.5,1.01197,2.44312,-0.0032306
71,1.03336,2.46626,-0.00364675
71.5,1.05398,2.4781,-0.00373616
72,1.07458,2.48981,-0.00415736
72.5,1.09555,2.51116,-0.00550349
73,1.11572,2.51819,-0.00543076
73.5,1.13624,2.52595,-0.00531622
74,1.15724,2.54308,-0.00494564
74.5,1.17718,2.55095,-0.00499014
75,1.19774,2.55773,-0.00514839
75.5,1.21802,2.57386,-0.00542345
76,1.238,2.58007,-0.00503042
76.5,1.2581,2.59576,-0.00413194
77,1.27816,2.61891,-0.00563346
77.5,1.29779,2.62193,-0.00589903
78,1.31806,2.6356,-0.0059472
78.5,1.33791,2.64637,-0.00617797
79,1.3579,2.65525,-0.00587909
79.5,1.37772,2.65767,-0.00765826
80,1.39723,2.68696,-0.00656574
80.5,1.41683,2.70047,-0.00783833
81,1.43647,2.71401,-0.00682896
81.5,1.45629,2.73045,-0.00768772
82,1.47559,2.74141,-0.00769703
82.5,1.49479,2.75503,-0.0075803
83,1.51396,2.77406,-0.00627313
83.5,1.53345,2.78818,-0.00734752
84,1.55277,2.80285,-0.00627627
84.5,1.57216,2.81828,-0.00751837
85,1.59114,2.82878,-0.00689157
85.5,1.61051,2.84528,-0.00662321
86,1.62947,2.86217,-0.00713897
86.5,1.64812,2.87228,-0.00620714
87,1.66732,2.90164,-0.00683668
87.5,1.68626,2.90777,-0.00675665
88,1.7049,2.92085,-0.00700558
88.5,1.72368,2.9375,-0.00729815
89,1.74235,2.94917,-0.00790848
89.5,1.76136,2.96331,-0.00817738
90,1.77971,2.98592,-0.00790574
90.5,1.7983,2.99215,-0.00796271
91,1.81662,3.00508,-0.00784853
91.5,1.83573,3.02814,-0.00790945
92,1.85366,3.03931,-0.00790821
92.5,1.87248,3.05677,-0.0078324
93,1.89057,3.07158,-0.00791129
93.5,1.90942,3.08317,-0.00789774
94,1.92776,3.09564,-0.00928816
94.5,1.94588,3.11145,-0.00789281
95,1.96438,3.12771,-0.00876778
95.5,1.98217,3.14611,-0.0092887
96,2.00079,3.15821,-0.0082635
96.5,2.01886,3.16453,-0.00945581
97,2.03696,3.18084,-0.00806542
97.5,2.05467,3.18891,-0.00811286
98,2.07303,3.2025,-0.0095639
98.5,2.09079,3.22238,-0.00969231
99,2.10891,3.23393,-0.00989773
99.5,2.12709,3.244,-0.0101316
100,2.14464,3.24156,-0.0111827
100.5,2.16271,3.25371,-0.0108147
101,2.17971,3.26236,-0.00976488
101.5,2.19791,3.26642,-0.0105544
102,2.2159,3.27827,-0.00962645
102.5,2.23424,3.28985,-0.00966537
103,2.25174,3.28723,-0.00871059
103.5,2.26961,3.28986,-0.00834988
104,2.28705,3.2961,-0.00839498
104.5,2.30482,3.30355,-0.00691518
105,2.32243,3.3025,-0.00690644
105.5,2.3406,3.29917,-0.00706495
106,2.35801,3.31062,-0.00680773
106.5,2.37551,3.30835,-0.00744913
107,2.39361,3.30647,-0.00680047
107.5,2.41057,3.31175,-0.00728626
108,2.42808,3.3153,-0.0081336
108.5,2.44578,3.31363,-0.00775704
109,2.46355,3.30936,-0.00784588
109.5,2.48066,3.31674,-0.00813191
110,2.4983,3.3206,-0.00812916
110.5,2.51566,3.32675,-0.00825701
111,2.53302,3.31987,-0.00811584
111.5,2.5504,3.3323,-0.00809922
112,2.56782,3.33305,-0.00942615
112.5,2.58511,3.33706,-0.009439
113,2.60263,3.33874,-0.00943055
113.5,2.61977,3.33828,-0.00874813
114,2.63742,3.34297,-0.0093723
114.5,2.65464,3.34572,-0.0094386
115,2.6718,3.34772,-0.00920274
115.5,2.68895,3.35938,-0.00812118
116,2.70647,3.36201,-0.00812993
116.5,2.72358,3.37156,-0.00813726
117,2.74081,3.37701,-0.00884567
117.5,2.75793,3.38525,-0.00881796
118,2.77514,3.37961,-0.00810787
118.5,2.79244,3.38152,-0.00794786
119,2.80952,3.39829,-0.00779979
119.5,2.82653,3.40319,-0.00779998
120,2.84355,3.40487,-0.00779993
120.5,2.8608,3.41797,-0.00780925
121,2.87807,3.42518,-0.00812682
121.5,2.89491,3.42615,-0.00813053
122,2.912,3.43743,-0.00785554
122.5,2.92909,3.44422,-0.00680308
123,2.94604,3.4581,-0.00680971
123.5,2.96191,3.47088,-0.00680964
124,2.98008,3.46778,-0.00763137
124.5,2.99659,3.47823,-0.0068046
125,3.01352,3.488,-0.00680058
125.5,3.02996,3.49555,-0.00673746
126,3.04741,3.50321,-0.00812404
126.5,3.06395,3.50949,-0.00756401
127,3.08076,3.51779,-0.00681704
127.5,3.09788,3.51916,-0.00680989
128,3.11497,3.52966,-0.00679727
128.5,3.13103,3.5382,-0.00809237
129,3.14674,3.55301,-0.00812987
129.5,3.16405,3.55971,-0.00812997
130,3.18046,3.56974,-0.00812659
130.5,3.19816,3.58505,-0.00760679
131,3.21505,3.58495,-0.00680849
131.5,3.2311,3.59375,-0.00681007
132,3.24761,3.59577,-0.00681002
132.5,3.26452,3.60798,-0.00680975
133,3.28074,3.61935,-0.00727175
133.5,3.29741,3.623,-0.00811745
134,3.31371,3.63563,-0.00946283
134.5,3.33026,3.64556,-0.00944973
135,3.34695,3.65807,-0.00945002
135.5,3.36335,3.66474,-0.00944857
136,3.37971,3.66517,-0.00952004
136.5,3.39607,3.67821,-0.00942474
137,3.41295,3.68442,-0.00944041
137.5,3.42898,3.69327,-0.00944
138,3.44606,3.70218,-0.00944
138.5,3.46173,3.70789,-0.00944
139,3.47828,3.7172,-0.00944016
139.5,3.49423,3.72204,-0.00943626
140,3.51095,3.73205,-0.00861549
140.5,3.52691,3.74402,-0.008116
141,3.54333,3.75095,-0.00812004
141.5,3.55924,3.76601,-0.00812
142,3.57539,3.7669,-0.00812
142.5,3.59183,3.77014,-0.00812
143,3.60769,3.78092,-0.00812
143.5,3.62477,3.79537,-0.00812
144,3.64035,3.79738,-0.00812
144.5,3.65619,3.81214,-0.00812001
145,3.67276,3.82247,-0.00811942
145.5,3.68911,3.83297,-0.00813439
146,3.70499,3.83273,-0.00679728
146.5,3.72115,3.8437,-0.00730041
147,3.73698,3.84904,-0.00812211
147.5,3.75314,3.86253,-0.00812864
148,3.76905,3.87173,-0.00884511
148.5,3.7854,3.88144,-0.00944378
149,3.80105,3.88138,-0.00938774
149.5,3.81737,3.89011,-0.0106968
150,3.833,3.90685,-0.0105591
150.5,3.84929,3.9117,-0.00944422
151,3.86498,3.91406,-0.00998646
151.5,3.88095,3.91672,-0.0107469
152,3.89697,3.92307,-0.00991585
152.5,3.91286,3.94295,-0.0094256
153,3.92866,3.94888,-0.0107217
153.5,3.94497,3.94769,-0.0107596
154,3.96011,3.96029,-0.0107635
154.5,3.97619,3.9633,-0.00961965
155,3.99214,3.96756,-0.00943876
155.5,4.00834,3.97754,-0.00944001
156,4.02413,3.98152,-0.00944
156.5,4.04022,3.9977,-0.00944
157,4.05576,4.0012,-0.00944
157.5,4.07158,4.00576,-0.00944
158,4.0871,4.01005,-0.00944
158.5,4.10314,4.01426,-0.00944004
159,4.11891,4.02241,-0.00943846
159.5,4.13452,4.01948,-0.00975885
160,4.15093,4.03123,-0.0107453
160.5,4.16621,4.03854,-0.0104672
161,4.18191,4.05462,-0.00941227
161.5,4.19774,4.05963,-0.0094404
162,4.21385,4.06719,-0.00944
162.5,4.22929,4.07035,-0.00944
163,4.24511,4.06845,-0.00944002
163.5,4.26066,4.06834,-0.00943822
164,4.27645,4.07781,-0.00959148
164.5,4.2921,4.08856,-0.0110348
165,4.30766,4.09682,-0.0109808
165.5,4.32341,4.10594,-0.0107395
166,4.33924,4.11125,-0.00964966
166.5,4.35462,4.11558,-0.00966549
167,4.37042,4.12025,-0.00856173
167.5,4.38639,4.12488,-0.00833832
168,4.40176,4.14074,-0.00834003
168.5,4.41763,4.14216,-0.00834
169,4.43315,4.14884,-0.00834
169.5,4.4487,4.14591,-0.00834
170,4.46428,4.15042,-0.00834
170.5,4.47998,4.16337,-0.00834
171,4.49579,4.17173,-0.00834
171.5,4.51127,4.17656,-0.00833999
172,4.52677,4.17451,-0.00834054
172.5,4.54212,4.17709,-0.00831181
173,4.55802,4.19044,-0.00958643
173.5,4.57362,4.19599,-0.0101771
174,4.58948,4.20535,-0.0109823
174.5,4.60484,4.20713,-0.01098
175,4.62026,4.21107,-0.01098
175.5,4.63596,4.21686,-0.01098
176,4.6514,4.23312,-0.01098
176.5,4.66685,4.23161,-0.01098
177,4.68232,4.24095,-0.01098
177.5,4.69775,4.23865,-0.01098
178,4.71342,4.23566,-0.01098
178.5,4.72889,4.25018,-0.0109797
179,4.74445,4.25721,-0.010985
179.5,4.75936,4.26274,-0.00966985
180,4.77489,4.26887,-0.00966009
180.5,4.79071,4.2762,-0.00965986
181,4.80577,4.27226,-0.00967114
181.5,4.82129,4.27448,-0.0104829
182,4.83657,4.29179,-0.0106511
182.5,4.85214,4.2922,-0.01065
183,4.86758,4.30092,-0.01065
183.5,4.88302,4.30536,-0.01065
184,4.89807,4.31873,-0.0106512
184.5,4.91275,4.32657,-0.0103785
185,4.92875,4.33391,-0.00932902
185.5,4.94413,4.34194,-0.00933
186,4.95974,4.33967,-0.00933001
186.5,4.97507,4.34641,-0.00932253
187,4.98999,4.35331,-0.00801331
187.5,5.00569,4.36018,-0.00814939
188,5.02084,4.36363,-0.00937412
188.5,5.03609,4.35856,-0.00933721
189,5.05153,4.37253,-0.00953683
189.5,5.06692,4.38802,-0.0106823
190,5.08204,4.38401,-0.0106494
190.5,5.09744,4.38731,-0.01065
191,5.11245,4.40127,-0.01065
191.5,5.12736,4.40298,-0.01065
192,5.14311,4.4009,-0.01065
192.5,5.15841,4.40625,-0.01065
193,5.17371,4.41176,-0.0106503
193.5,5.18876,4.41634,-0.0106338
194,5.20394,4.42295,-0.0120549
194.5,5.219,4.42329,-0.0120802
195,5.23413,4.42973,-0.01208
195.5,5.24996,4.43484,-0.01208
196,5.26496,4.44887,-0.01208
196.5,5.2802,4.44926,-0.01208
197,5.29529,4.44777,-0.0120772
197.5,5.31008,4.44738,-0.0113867
198,5.32556,4.45993,-0.0105456
198.5,5.3404,4.46331,-0.0105131
199,5.3551,4.47843,-0.00920785
199.5,5.37083,4.48818,-0.00922025
200,5.38617,4.48785,-0.00921999
200.5,5.40146,4.4913,-0.00922
201,5.41658,4.49402,-0.00922
201.5,5.43159,4.49572,-0.00922
202,5.44707,4.49967,-0.00922
202.5,5.46181,4.50539,-0.00922
203,5.47738,4.51418,-0.00922
203.5,5.4923,4.52208,-0.00922
204,5.50749,4.53043,-0.00922
204.5,5.52241,4.53724,-0.00922
205,5.53786,4.54002,-0.00922
205.5,5.55271,4.54736,-0.00922
206,5.56796,4.55797,-0.00922
206.5,5.58308,4.55686,-0.00921982
207,5.59835,4.55828,-0.00922873
207.5,5.61334,4.57223,-0.00973025
208,5.62817,4.5731,-0.0105345
208.5,5.64371,4.57981,-0.0114022
209,5.6585,4.58861,-0.0118402
209.5,5.67372,4.59224,-0.0131079
210,5.68893,4.59394,-0.0131809
210.5,5.70408,4.60208,-0.01318
211,5.71895,4.60092,-0.01318
211.5,5.73389,4.6132,-0.01318
212,5.74911,4.62318,-0.0131799
212.5,5.76391,4.62646,-0.013185
213,5.77937,4.63294,-0.0123751
213.5,5.79432,4.63907,-0.0102989
214,5.80934,4.64936,-0.0103303
214.5,5.82443,4.65745,-0.00903333
215,5.83952,4.67068,-0.00899959
215.5,5.85439,4.68231,-0.00900002
216,5.86971,4.68572,-0.00899924
216.5,5.88482,4.69263,-0.00904398
217,5.89933,4.70034,-0.00772872
217.5,5.91468,4.7102,-0.00767877
218,5.92974,4.71401,-0.00667856
218.5,5.9449,4.72423,-0.0078793
219,5.95974,4.73134,-0.00852082
219.5,5.97516,4.74095,-0.00979965
220,5.99001,4.74682,-0.0106914
220.5,6.00519,4.76318,-0.011102
221,6.02008,4.76576,-0.0105491
221.5,6.03513,4.77031,-0.00954392
222,6.05021,4.78426,-0.0095703
222.5,6.06527,4.79109,-0.00995881
223,6.08027,4.79415,-0.00955203
223.5,6.09486,4.81044,-0.00954995
224,6.11006,4.81636,-0.00955
224.5,6.12515,4.83315,-0.00955
225,6.14034,4.8526,-0.00955
225.5,6.15531,4.8477,-0.00955023
226,6.17048,4.86144,-0.00953462
226.5,6.18546,4.87091,-0.00888395
227,6.20069,4.87969,-0.00822075
227.5,6.2155,4.8922,-0.00823031
228,6.23041,4.90704,-0.00823
228.5,6.24559,4.91533,-0.00823
229,6.26037,4.93063,-0.00823
229.5,6.27555,4.94559,-0.00823
230,6.29051,4.9529,-0.00823
230.5,6.30557,4.96596,-0.00823
231,6.32018,4.98569,-0.00823
231.5,6.33543,5.00291,-0.00822996
232,6.35024,5.00289,-0.00823161
232.5,6.36523,5.01818,-0.00858946
233,6.38049,5.03437,-0.00953738
233.5,6.39529,5.04331,-0.00955019
234,6.41045,5.06608,-0.00955
234.5,6.42529,5.08409,-0.00955
235,6.44056,5.09397,-0.00955
235.5,6.45541,5.10617,-0.00955001
236,6.47028,5.11998,-0.00954972
236.5,6.48546,5.14234,-0.00957023
237,6.50063,5.15937,-0.0108855
237.5,6.5154,5.18783,-0.0108697
238,6.53008,5.2101,-0.01087
238.5,6.54563,5.23011,-0.01087
239,6.5605,5.25433,-0.01087
239.5,6.57562,5.2947,-0.01087
240,6.59051,5.32372,-0.0108705
240.5,6.6055,5.35569,-0.0108441
241,6.62054,5.41457,-0.0115144
241.5,6.63579,5.44418,-0.0115303
242,6.65067,5.50019,-0.01153
242.5,6.66568,5.54781,-0.01153
243,6.68106,5.61193,-0.01153
243.5,6.69616,5.67132,-0.0115319
244,6.7113,5.7499,-0.0113886
244.5,6.72658,5.84847,-0.0101674
245,6.74209,5.93347,-0.0102211
245.5,6.75739,6.03497,-0.01022
246,6.77245,6.14799,-0.01022
246.5,6.78796,6.28039,-0.01022
247,6.80351,6.43661,-0.01022
247.5,6.8189,6.63801,-0.01022
248,6.8345,6.83822,-0.01022
248.5,6.85002,7.04939,-0.01022
249,6.86591,7.27257,-0.01022
249.5,6.88182,7.49486,-0.01022
250,6.89744,7.72684,-0.01022
250.5,6.91294,7.94999,-0.01022
251,6.92872,8.18044,-0.01022
251.5,6.94431,8.39273,-0.01022
252,6.96003,8.6221,-0.01022
252.5,6.97556,8.83581,-0.01022
253,6.99152,9.04374,-0.01022
253.5,7.00711,9.2671,-0.0102197
254,7.02319,9.47335,-0.0102355
254.5,7.03859,9.66764,-0.00892273
255,7.05417,9.86429,-0.00988929
255.5,7.06955,10.0409,-0.0102105
256,7.08527,10.218,-0.01021
256.5,7.10043,10.3691,-0.01021
257,7.11603,10.4852,-0.01021
257.5,7.13073,10.5447,-0.01021
258,7.14589,10.5289,-0.01021
258.5,7.15945,10.3885,-0.01021
259,7.17352,10.1081,-0.01021
259.5,7.18744,9.71581,-0.01021
260,7.20072,9.28928,-0.01021
260.5,7.21465,8.85718,-0.0102091
261,7.22862,8.47667,-0.0102609
261.5,7.24232,8.13347,-0.0092192
262,7.25623,7.82146,-0.00923
262.5,7.26957,7.56074,-0.00922924
263,7.28384,7.29706,-0.00977974
263.5,7.29814,7.07055,-0.0105737
264,7.31233,6.84456,-0.010345
264.5,7.32612,6.66344,-0.010218
265,7.3407,6.47876,-0.01022
265.5,7.35486,6.32332,-0.01022
266,7.36947,6.18551,-0.01022
266.5,7.38405,6.04907,-0.0102216
267,7.39829,5.92684,-0.0101402
267.5,7.41272,5.82048,-0.00885686
268,7.42688,5.72461,-0.0101322
268.5,7.44114,5.63822,-0.0103219
269,7.45562,5.56333,-0.01032
269.5,7.47002,5.49322,-0.01032
270,7.48457,5.42746,-0.01032
270.5,7.49914,5.37083,-0.0103174
271,7.51401,5.31604,-0.0108928
271.5,7.52857,5.25992,-0.0116553
272,7.54381,5.21542,-0.0116398
272.5,7.55857,5.18302,-0.01164
273,7.57325,5.1369,-0.01164
273.5,7.58798,5.10251,-0.01164
274,7.60278,5.06995,-0.0116407
274.5,7.61718,5.04903,-0.0116028
275,7.63213,5.02956,-0.0126445
275.5,7.64681,5.00122,-0.0129647
276,7.66167,4.98117,-0.0129599
276.5,7.67632,4.97533,-0.0129582
277,7.69134,4.95296,-0.0135405
277.5,7.70567,4.93736,-0.0142855
278,7.72072,4.92539,-0.0142798
278.5,7.73536,4.91771,-0.01428
279,7.7503,4.90731,-0.01428
279.5,7.76468,4.91015,-0.01428
280,7.77965,4.8959,-0.01428
280.5,7.7943,4.8807,-0.0142764
281,7.80974,4.88035,-0.0136153
281.5,7.82459,4.88174,-0.0130223
282,7.83926,4.87161,-0.0117452
282.5,7.85364,4.86487,-0.0116381
283,7.86868,4.86018,-0.01164
283.5,7.88299,4.85199,-0.0116397
284,7.89849,4.84881,-0.0116535
284.5,7.91323,4.85279,-0.0124931
285,7.92827,4.84999,-0.0129528
285.5,7.94323,4.84756,-0.0129601
286,7.9578,4.84107,-0.01296
286.5,7.97282,4.84112,-0.01296
287,7.98752,4.83771,-0.01296
287.5,8.00252,4.83233,-0.0129613
288,8.0173,4.83672,-0.0128858
288.5,8.03213,4.83203,-0.0141251
289,8.04731,4.82828,-0.0142822
289.5,8.06211,4.82376,-0.01428
290,8.07679,4.82523,-0.01428
290.5,8.09166,4.82748,-0.01428
291,8.10668,4.828,-0.01428
291.5,8.12165,4.82872,-0.0142808
292,8.13643,4.82622,-0.014238
292.5,8.15124,4.82623,-0.012685
293,8.16609,4.82495,-0.01274
293.5,8.18112,4.82294,-0.0127384
294,8.19581,4.82347,-0.0117161
294.5,8.2105,4.82325,-0.0114189
295,8.22553,4.82285,-0.0114199
295.5,8.24053,4.82613,-0.0114269
296,8.25548,4.82377,-0.0107397
296.5,8.26979,4.82097,-0.0100997
297,8.28488,4.82633,-0.0107791
297.5,8.30015,4.82165,-0.0114161
298,8.31501,4.82331,-0.0114201
298.5,8.33027,4.82096,-0.01142
299,8.34477,4.82555,-0.01142
299.5,8.35968,4.83095,-0.01142
300,8.37464,4.83002,-0.01142
300.5,8.38938,4.82964,-0.01142
301,8.4043,4.82566,-0.01142
301.5,8.41933,4.82506,-0.01142
302,8.43428,4.83257,-0.01142
302.5,8.44921,4.84601,-0.01142
303,8.46385,4.84103,-0.01142
303.5,8.47849,4.83329,-0.01142
304,8.49379,4.83202,-0.01142
304.5,8.50883,4.83881,-0.01142
305,8.52369,4.83863,-0.0114207
305.5,8.53808,4.83802,-0.0112652
306,8.55281,4.83633,-0.0100877
306.5,8.56818,4.83779,-0.0101002
307,8.58328,4.83789,-0.0101
307.5,8.59806,4.83854,-0.0101005
308,8.6129,4.83082,-0.0100755
308.5,8.62806,4.83097,-0.011353
309,8.64284,4.83172,-0.0114191
309.5,8.65789,4.83625,-0.0116099
310,8.67311,4.84248,-0.0127875
310.5,8.68754,4.83811,-0.0127391
311,8.70242,4.8439,-0.01274
311.5,8.71753,4.84856,-0.01274
312,8.73257,4.84786,-0.01274
312.5,8.74744,4.84614,-0.01274
313,8.76222,4.84414,-0.01274
313.5,8.77711,4.84599,-0.0127389
314,8.79219,4.84577,-0.0128003
314.5,8.80726,4.83986,-0.0115673
315,8.82217,4.84392,-0.0114181
315.5,8.83714,4.84413,-0.01142
316,8.85205,4.84233,-0.01142
316.5,8.8671,4.83475,-0.01142
317,8.88217,4.83301,-0.01142
317.5,8.89665,4.82759,-0.01142
318,8.91163,4.81951,-0.0114199
318.5,8.92624,4.81653,-0.0114242
319,8.94179,4.82273,-0.0120168
319.5,8.9566,4.81803,-0.0127246
320,8.9715,4.82496,-0.0127301
320.5,8.98653,4.82778,-0.0127305
321,9.00149,4.82538,-0.0127055
321.5,9.01647,4.82478,-0.0136774
322,9.03137,4.8269,-0.0140546
322.5,9.04576,4.8273,-0.0140494
323,9.06052,4.83047,-0.0140749
323.5,9.07589,4.83314,-0.0131161
324,9.09082,4.83451,-0.0127248
324.5,9.10571,4.83716,-0.0127301
325,9.12058,4.84013,-0.01273
325.5,9.13581,4.83795,-0.01273
326,9.15043,4.83731,-0.01273
326.5,9.16586,4.84052,-0.01273
327,9.1807,4.8389,-0.01273
327.5,9.19537,4.83518,-0.01273
328,9.21075,4.83404,-0.0127263
328.5,9.22566,4.83534,-0.012929
329,9.24048,4.83749,-0.015415
329.5,9.25544,4.83524,-0.0153691
330,9.27046,4.83246,-0.0153703
330.5,9.28489,4.84246,-0.0153577
331,9.30076,4.84302,-0.0145499
331.5,9.31555,4.8436,-0.0140592
332,9.3307,4.84496,-0.0140498
332.5,9.34548,4.8422,-0.0140499
333,9.36065,4.84213,-0.0140564
333.5,9.37591,4.84341,-0.0148269
334,9.39075,4.85281,-0.0153629
334.5,9.40569,4.84939,-0.0153701
335,9.42061,4.8551,-0.01537
335.5,9.43536,4.85431,-0.01537
336,9.45092,4.85591,-0.01537
336.5,9.46601,4.85665,-0.01537
337,9.48096,4.85698,-0.01537
337.5,9.49594,4.85944,-0.01537
338,9.51113,4.86176,-0.01537
338.5,9.52608,4.8629,-0.01537
339,9.54117,4.86192,-0.0153693
339.5,9.55626,4.86509,-0.015425
340,9.57124,4.86158,-0.0167105
340.5,9.58619,4.87323,-0.0166896
341,9.60123,4.87442,-0.0166904
341.5,9.61666,4.87343,-0.0166677
342,9.63194,4.86924,-0.0176513
342.5,9.64684,4.87847,-0.0180048
343,9.66228,4.88687,-0.0179999
343.5,9.67691,4.87852,-0.018
344,9.69208,4.88414,-0.018
344.5,9.70734,4.88685,-0.018
345,9.72249,4.89294,-0.0180012
345.5,9.73763,4.89123,-0.0179368
346,9.75271,4.89585,-0.0192036
346.5,9.76794,4.89309,-0.0193388
347,9.78277,4.89474,-0.0180728
347.5,9.79792,4.89758,-0.0180088
348,9.81333,4.9012,-0.01801
348.5,9.8281,4.91057,-0.01801
349,9.84312,4.91418,-0.01801
349.5,9.85823,4.91261,-0.01801
350,9.87333,4.91929,-0.01801
350.5,9.88854,4.9267,-0.0180099
351,9.90367,4.92832,-0.0180169
351.5,9.91875,4.93494,-0.0185751
352,9.93387,4.94038,-0.0193227
352.5,9.94889,4.94418,-0.0183714
353,9.96413,4.95265,-0.0180097
353.5,9.97902,4.95773,-0.01801
354,9.99397,4.96741,-0.0180089
354.5,10.0096,4.96891,-0.0183333
355,10.0246,4.97649,-0.0193204
355.5,10.0398,4.98135,-0.0193207
356,10.055,4.98667,-0.0200103
356.5,10.07,4.99807,-0.0206376
357,10.0854,5.0031,-0.02064
357.5,10.1004,5.01084,-0.020642
358,10.1153,5.01192,-0.0210048
358.5,10.1307,5.02013,-0.0219474
359,10.1459,5.02718,-0.0219603
359.5,10.1611,5.04199,-0.02196
360,10.1764,5.05613,-0.0219599
360.5,10.1915,5.07551,-0.0219637
361,10.2066,5.08661,-0.0225924
361.5,10.2217,5.09849,-0.0232754
362,10.2368,5.10312,-0.0232847
362.5,10.2521,5.10917,-0.0239234
363,10.2673,5.12312,-0.0245929
363.5,10.2825,5.14182,-0.0247764
364,10.2979,5.15558,-0.0260679
364.5,10.3128,5.16817,-0.0260031
365,10.3284,5.18729,-0.0272957
365.5,10.3437,5.19711,-0.0273406
366,10.3591,5.20753,-0.0273388
366.5,10.374,5.21794,-0.0276244
367,10.3891,5.23632,-0.0286728
367.5,10.4044,5.25101,-0.0286664
368,10.4196,5.26493,-0.0297468
368.5,10.4348,5.28111,-0.0302018
369,10.4501,5.29203,-0.0319672
369.5,10.4654,5.31247,-0.0323211
370,10.4806,5.33397,-0.0336943
370.5,10.4959,5.35448,-0.033745
371,10.5111,5.36696,-0.0352791
371.5,10.5263,5.38939,-0.0352538
372,10.5412,5.41083,-0.0356896
372.5,10.5569,5.43472,-0.0352141
373,10.5721,5.45915,-0.0352406
373.5,10.5875,5.47782,-0.035235
374,10.6027,5.4963,-0.0356266
374.5,10.6181,5.52289,-0.0365949
375,10.6331,5.54635,-0.0374352
375.5,10.6486,5.57081,-0.0378729
376,10.6634,5.60097,-0.0378806
376.5,10.6791,5.62169,-0.0378656
377,10.6947,5.64281,-0.0392024
377.5,10.7098,5.66677,-0.039206
378,10.7249,5.67987,-0.0409011
378.5,10.7406,5.7017,-0.0420468
379,10.7558,5.72528,-0.042083
379.5,10.771,5.75762,-0.0435001
380,10.7863,5.78156,-0.0437837
380.5,10.8015,5.79564,-0.0447468
381,10.8169,5.82126,-0.0452082
381.5,10.8325,5.85729,-0.0464058
382,10.8478,5.87369,-0.0469184
382.5,10.8628,5.89397,-0.0483881
383,10.8779,5.92198,-0.0486082
383.5,10.8932,5.95171,-0.0498156
384,10.9089,5.9699,-0.0498368
384.5,10.9242,5.99037,-0.051709
385,10.9399,6.01778,-0.0536987
385.5,10.9551,6.04288,-0.0550706
386,10.9701,6.06976,-0.0555963
386.5,10.9858,6.0945,-0.0574513
387,11.0011,6.1327,-0.058516
387.5,11.0167,6.16912,-0.0596979
388,11.0319,6.19766,-0.0610353
388.5,11.0474,6.2347,-0.0628751
389,11.0627,6.26937,-0.0642768
389.5,11.0782,6.3053,-0.0652677
390,11.0937,6.34206,-0.0671934
390.5,11.1091,6.37557,-0.0691761
391,11.1244,6.41493,-0.0711942
391.5,11.1403,6.45955,-0.0723867
392,11.1554,6.50043,-0.0745363
392.5,11.171,6.54681,-0.0762745
393,11.1858,6.5801,-0.0777618
393.5,11.2014,6.63453,-0.0799729
394,11.2166,6.68192,-0.0824051
394.5,11.2322,6.73104,-0.0846374
395,11.2478,6.77766,-0.087057
395.5,11.2637,6.82539,-0.090141
396,11.2794,6.87663,-0.0924565
396.5,11.2947,6.92773,-0.09508
397,11.3106,6.98308,-0.0973474
397.5,11.3259,7.03983,-0.0997274
398,11.3415,7.09383,-0.102163
398.5,11.3573,7.16175,-0.104828
399,11.3723,7.21818,-0.107698
399.5,11.3883,7.28538,-0.110019
400,11.4037,7.34903,-0.111652
400.5,11.4191,7.41049,-0.113567
401,11.4349,7.46976,-0.116951
401.5,11.4507,7.54239,-0.119109
402,11.4663,7.61588,-0.122269
402.5,11.4819,7.68198,-0.125047
403,11.4977,7.75401,-0.128253
403.5,11.5131,7.83428,-0.132837
404,11.5285,7.90352,-0.137053
404.5,11.5444,7.97939,-0.14154
405,11.5599,8.05972,-0.145176
405.5,11.5756,8.13744,-0.149023
406,11.5915,8.21746,-0.15175
406.5,11.6071,8.29603,-0.156173
407,11.6222,8.36706,-0.15985
407.5,11.6385,8.45653,-0.164064
408,11.6542,8.5359,-0.168092
408.5,11.6697,8.61683,-0.172037
409,11.6856,8.70036,-0.178707
409.5,11.7014,8.78873,-0.184308
410,11.717,8.87315,-0.189814
410.5,11.733,8.95751,-0.19467
411,11.7486,9.04161,-0.199107
411.5,11.7642,9.12919,-0.205412
412,11.7802,9.22076,-0.209701
412.5,11.7955,9.30493,-0.216449
413,11.8115,9.39751,-0.222404
413.5,11.8273,9.48913,-0.228271
414,11.8431,9.58475,-0.235212
414.5,11.8587,9.67063,-0.241306
415,11.8746,9.75613,-0.249228
415.5,11.8901,9.84235,-0.25594
416,11.9062,9.93734,-0.262975
416.5,11.9219,10.0306,-0.270918
417,11.938,10.1167,-0.278798
417.5,11.9535,10.2075,-0.28748
418,11.9693,10.2988,-0.295024
418.5,11.985,10.3744,-0.303332
419,12.0009,10.4766,-0.311534
419.5,12.0167,10.5758,-0.321108
420,12.0326,10.6608,-0.329158
420.5,12.0484,10.7466,-0.340369
421,12.0639,10.8301,-0.349111
421.5,12.0796,10.9057,-0.357219
422,12.0954,10.9624,-0.367026
422.5,12.1109,11.0352,-0.375113
423,12.1271,11.1166,-0.386756
423.5,12.1428,11.184,-0.396264
424,12.1584,11.2532,-0.40581
424.5,12.1741,11.3105,-0.416544
425,12.1898,11.3622,-0.426041
425.5,12.2058,11.424,-0.438881
426,12.2213,11.4601,-0.448814
426.5,12.2368,11.5108,-0.46109
427,12.2527,11.5615,-0.471932
427.5,12.2684,11.6063,-0.480808
428,12.2842,11.6462,-0.492857
428.5,12.2997,11.6817,-0.50325
429,12.3154,11.7175,-0.514055
429.5,12.3309,11.7538,-0.527865
430,12.3465,11.7853,-0.538896
430.5,12.3622,11.7972,-0.549875
431,12.3779,11.8226,-0.563006
431.5,12.3934,11.8505,-0.574192
432,12.409,11.8575,-0.589041
432.5,12.4248,11.8796,-0.601011
433,12.4406,11.8961,-0.614462
433.5,12.4554,11.918,-0.626595
434,12.4711,11.9418,-0.640641
434.5,12.487,11.9482,-0.655095
435,12.5027,11.9605,-0.669761
435.5,12.5185,11.9743,-0.68315
436,12.5342,11.9867,-0.694502
436.5,12.5495,12.0018,-0.708781
437,12.5645,11.994,-0.719199
437.5,12.5804,11.9933,-0.734732
438,12.5963,11.9913,-0.747164
438.5,12.6117,11.9847,-0.762548
439,12.6272,11.9778,-0.77611
439.5,12.643,11.968,-0.789084
440,12.6585,11.9463,-0.804893
440.5,12.6742,11.9308,-0.818321
441,12.6895,11.9116,-0.835774
441.5,12.7048,11.9051,-0.848945
442,12.7203,11.8785,-0.863479
442.5,12.7359,11.8538,-0.876943
443,12.7513,11.8254,-0.892752
443.5,12.7666,11.7891,-0.908909
444,12.7823,11.767,-0.925597
444.5,12.7979,11.7292,-0.94054
445,12.8134,11.703,-0.956003
445.5,12.8287,11.6729,-0.97244
446,12.8443,11.6311,-0.986593
446.5,12.8599,11.5941,-1.00551
447,12.8753,11.5625,-1.01958
447.5,12.8908,11.5319,-1.03799
448,12.9063,11.4949,-1.0518
448.5,12.9215,11.4544,-1.06625
449,12.9372,11.4162,-1.08243
449.5,12.9526,11.3706,-1.09883
450,12.9681,11.3322,-1.1182
450.5,12.9834,11.2924,-1.13457
451,12.999,11.253,-1.15123
451.5,13.0145,11.2114,-1.16672
452,13.0303,11.1651,-1.18554
452.5,13.0456,11.1201,-1.20148
453,13.0604,11.0747,-1.22027
453.5,13.0764,11.0226,-1.23663
454,13.0917,10.9621,-1.25597
454.5,13.1072,10.9044,-1.27378
455,13.1223,10.8293,-1.28899
455.5,13.138,10.773,-1.30741
456,13.1532,10.705,-1.32342
456.5,13.1689,10.6288,-1.34394
457,13.1841,10.5546,-1.35928
457.5,13.1993,10.4712,-1.37607
458,13.2147,10.3717,-1.39135
458.5,13.2301,10.2734,-1.40981
459,13.2455,10.1733,-1.4254
459.5,13.2606,10.0677,-1.44446
460,13.276,9.95692,-1.45985
460.5,13.291,9.83828,-1.47908
461,13.3058,9.72603,-1.49397
461.5,13.321,9.59644,-1.50958
462,13.3362,9.46066,-1.52397
462.5,13.3517,9.3195,-1.54098
463,13.3669,9.17235,-1.5585
463.5,13.3821,9.01823,-1.57633
464,13.3971,8.8642,-1.59181
464.5,13.4123,8.71036,-1.60919
465,13.4274,8.54882,-1.6249
465.5,13.4426,8.37648,-1.63917
466,13.4576,8.205,-1.65605
466.5,13.4728,8.03734,-1.67047
467,13.4878,7.86989,-1.68674
467.5,13.5028,7.70378,-1.70068
468,13.5178,7.52614,-1.71415
468.5,13.5324,7.366,-1.72787
469,13.5481,7.17914,-1.74212
469.5,13.5634,7.00637,-1.75453
470,13.5783,6.84137,-1.76932
470.5,13.5933,6.68054,-1.78185
471,13.6086,6.52615,-1.79689
471.5,13.6236,6.36624,-1.80805
472,13.6388,6.22187,-1.81834
472.5,13.6539,6.07347,-1.82873
473,13.6691,5.92905,-1.84128
473.5,13.6841,5.79829,-1.85114
474,13.6995,5.67219,-1.86384
474.5,13.7146,5.55763,-1.87155
475,13.7303,5.44129,-1.88444
475.5,13.7455,5.32173,-1.89346
476,13.7606,5.22355,-1.90324
476.5,13.7762,5.12841,-1.91319
477,13.7915,5.03148,-1.92398
477.5,13.807,4.95124,-1.93434
478,13.8221,4.87574,-1.94413
478.5,13.8375,4.80304,-1.95273
479,13.8531,4.7405,-1.96144
479.5,13.8687,4.68281,-1.97058
480,13.8844,4.63212,-1.97882
480.5,13.9,4.59114,-1.99022
481,13.9153,4.5355,-1.99871
481.5,13.9308,4.49174,-2.00979
482,13.9463,4.46383,-2.01808
482.5,13.9618,4.42066,-2.02649
483,13.9777,4.38646,-2.03627
483.5,13.9929,4.36777,-2.04519
484,14.0089,4.3351,-2.05636
484.5,14.0244,4.30979,-2.06487
485,14.0403,4.28267,-2.07436
485.5,14.0557,4.26028,-2.08222
486,14.0714,4.23865,-2.09159
486.5,14.0869,4.22315,-2.10086
487,14.1029,4.20912,-2.1105
487.5,14.1186,4.18665,-2.11908
488,14.1343,4.16994,-2.12724
488.5,14.1498,4.15067,-2.13686
489,14.1654,4.13048,-2.1456
489.5,14.1811,4.12034,-2.15677
490,14.1968,4.10188,-2.16665
490.5,14.2125,4.08328,-2.17666
491,14.2284,4.06675,-2.1861
491.5,14.2441,4.04795,-2.19455
492,14.2596,4.03168,-2.20555
492.5,14.2755,4.01592,-2.21435
493,14.2912,4.0016,-2.22519
493.5,14.3071,3.97994,-2.23407
494,14.3226,3.96113,-2.2424
494.5,14.3384,3.94107,-2.25278
495,14.3539,3.91426,-2.26171
495.5,14.3699,3.88972,-2.27407
496,14.3854,3.87072,-2.28253
496.5,14.4014,3.84259,-2.29182
497,14.4173,3.81505,-2.30023
497.5,14.4329,3.78952,-2.30983
498,14.4483,3.76041,-2.32092
498.5,14.4643,3.72813,-2.33003
499,14.4796,3.68839,-2.33812
499.5,14.4956,3.6426,-2.3464
500,14.5113,3.59572,-2.35671
500.5,14.527,3.5565,-2.36739
501,14.5428,3.50619,-2.37829
501.5,14.5577,3.45858,-2.38742
502,14.5731,3.40911,-2.39743
502.5,14.5896,3.35693,-2.40747
503,14.6052,3.30434,-2.41552
503.5,14.6206,3.24067,-2.42587
504,14.6363,3.1757,-2.43525
504.5,14.6521,3.11464,-2.44534
505,14.6674,3.0473,-2.45326
505.5,14.6832,2.96579,-2.46068
506,14.6989,2.88586,-2.47054
506.5,14.7146,2.81743,-2.47845
507,14.7304,2.74833,-2.48968
507.5,14.7457,2.66935,-2.49622
508,14.7613,2.57874,-2.50333
508.5,14.7767,2.50445,-2.51034
509,14.7925,2.42241,-2.51765
509.5,14.8082,2.34158,-2.52695
510,14.8235,2.25546,-2.53305
510.5,14.839,2.1675,-2.53925
511,14.8546,2.08553,-2.54485
511.5,14.8703,1.99881,-2.55106
512,14.8858,1.91362,-2.55625
512.5,14.9014,1.84457,-2.56203
513,14.9172,1.75708,-2.56656
513.5,14.9326,1.69001,-2.57141
514,14.9482,1.61662,-2.57607
514.5,14.9638,1.54842,-2.57833
515,14.9794,1.48414,-2.58277
515.5,14.9951,1.41914,-2.58557
516,15.0108,1.36049,-2.58913
516.5,15.0263,1.3107,-2.5917
517,15.0423,1.2638,-2.59423
517.5,15.0579,1.21592,-2.59675
518,15.0738,1.15979,-2.59874
518.5,15.0887,1.12491,-2.5998
519,15.1046,1.09053,-2.60163
519.5,15.121,1.06438,-2.6036
520,15.1366,1.03678,-2.60376
520.5,15.1526,1.00619,-2.60529
521,15.1684,0.996308,-2.60631
521.5,15.1841,0.985956,-2.6071
522,15.2,0.964156,-2.60869
522.5,15.216,0.934888,-2.60866
523,15.2318,0.908339,-2.60875
523.5,15.2473,0.878243,-2.60998
524,15.2634,0.858744,-2.60997
524.5,15.2794,0.841942,-2.61028
525,15.2951,0.832611,-2.61128
525.5,15.3111,0.830727,-2.61124
526,15.327,0.82906,-2.61122
526.5,15.3428,0.830175,-2.61195
527,15.3589,0.831872,-2.61195
527.5,15.3745,0.837601,-2.61194
528,15.391,0.842731,-2.61228
528.5,15.4066,0.842148,-2.61228
529,15.4228,0.845654,-2.61228
529.5,15.4386,0.847623,-2.61228
530,15.4544,0.84633,-2.61228
530.5,15.4704,0.854161,-2.61335
531,15.4866,0.847571,-2.6136
531.5,15.5026,0.855521,-2.6136
532,15.5188,0.854854,-2.6136
532.5,15.5345,0.847789,-2.6136
533,15.5506,0.85461,-2.6136
533.5,15.5669,0.858403,-2.6136
534,15.5828,0.864945,-2.6136
534.5,15.5985,0.861021,-2.6136
535,15.6144,0.855304,-2.6136
535.5,15.63,0.860064,-2.6136
536,15.6467,0.857926,-2.6136
536.5,15.6625,0.856915,-2.61358
537,15.6784,0.85776,-2.6145
537.5,15.6945,0.859062,-2.61459
538,15.7104,0.861426,-2.61459
538.5,15.7267,0.859966,-2.61459
539,15.7424,0.863731,-2.61459
539.5,15.7584,0.862409,-2.61459
540,15.7746,0.85576,-2.61459
540.5,15.7903,0.860041,-2.61459
541,15.8067,0.866832,-2.61459
541.5,15.8225,0.865095,-2.61459
542,15.8387,0.868494,-2.61458
542.5,15.8548,0.865269,-2.61427
543,15.8709,0.858383,-2.61459
543.5,15.8867,0.856066,-2.61459
544,15.9028,0.854581,-2.61459
544.5,15.9188,0.864289,-2.61459
545,15.9347,0.858304,-2.61459
545.5,15.9509,0.861284,-2.61459
546,15.9668,0.861483,-2.61457
546.5,15.9832,0.863733,-2.61585
547,15.9989,0.864894,-2.6159
547.5,16.0151,0.857614,-2.6159
548,16.031,0.853939,-2.61483
548.5,16.047,0.856636,-2.61456
549,16.0631,0.850958,-2.61541
549.5,16.0792,0.847367,-2.61447
550,16.0952,0.849671,-2.61448
550.5,16.1112,0.851688,-2.61448
551,16.1271,0.845961,-2.61448
551.5,16.1432,0.847053,-2.61448
552,16.1595,0.847576,-2.61449
552.5,16.1746,0.844092,-2.6131
553,16.1917,0.843431,-2.61316
553.5,16.2077,0.846049,-2.61336
554,16.2238,0.848136,-2.61349
554.5,16.2398,0.850664,-2.61312
555,16.2557,0.851513,-2.6125
555.5,16.2719,0.85109,-2.61286
556,16.288,0.842965,-2.61283
556.5,16.3042,0.845079,-2.61283
557,16.3201,0.846314,-2.61283
557.5,16.3362,0.844895,-2.61319
558,16.3521,0.840385,-2.61316
558.5,16.3683,0.831155,-2.61316
559,16.3842,0.833018,-2.61316
559.5,16.4003,0.832175,-2.61397
560,16.4164,0.831312,-2.61448
560.5,16.4328,0.831632,-2.61448
561,16.4491,0.824679,-2.61448
561.5,16.4649,0.83005,-2.61448
562,16.4811,0.829173,-2.61451
562.5,16.4972,0.820587,-2.61331
563,16.5133,0.819031,-2.61316
563.5,16.5293,0.813959,-2.61316
564,16.5454,0.814606,-2.61316
564.5,16.5616,0.806807,-2.61316
565,16.5776,0.79867,-2.61352
565.5,16.5938,0.79409,-2.61449
566,16.6098,0.794047,-2.61448
566.5,16.6258,0.796117,-2.61529
567,16.642,0.794238,-2.6158
567.5,16.6576,0.790888,-2.6158
568,16.6737,0.793795,-2.6158
568.5,16.6898,0.793472,-2.6158
569,16.7059,0.784932,-2.6158
569.5,16.722,0.776359,-2.61603
570,16.7386,0.770345,-2.61646
570.5,16.755,0.764871,-2.61644
571,16.7708,0.762327,-2.61693
571.5,16.7869,0.765108,-2.61711
572,16.8031,0.760095,-2.61711
572.5,16.8194,0.755058,-2.61711
573,16.8353,0.750647,-2.61711
573.5,16.8513,0.749283,-2.61711
574,16.8676,0.74619,-2.61711
574.5,16.8839,0.75011,-2.61711
575,16.8999,0.747952,-2.61711
575.5,16.9162,0.738931,-2.61711
576,16.9323,0.744853,-2.6171
576.5,16.9483,0.740096,-2.61645
577,16.9648,0.736478,-2.6158
577.5,16.9806,0.735212,-2.6158
578,16.9968,0.731543,-2.6158
578.5,17.0133,0.725905,-2.6158
579,17.0292,0.722647,-2.6158
579.5,17.045,0.716605,-2.61543
580,17.0612,0.720755,-2.61448
580.5,17.0774,0.719324,-2.61448
581,17.0938,0.710505,-2.61448
581.5,17.1096,0.710244,-2.61448
582,17.126,0.707157,-2.61556
582.5,17.1423,0.709007,-2.6158
583,17.1583,0.707575,-2.6158
583.5,17.1745,0.69794,-2.6158
584,17.1906,0.698663,-2.61578
584.5,17.2068,0.696643,-2.61681
585,17.2229,0.695063,-2.61678
585.5,17.2389,0.686957,-2.61545
586,17.2553,0.680201,-2.61547
586.5,17.2715,0.677244,-2.61547
587,17.2876,0.677364,-2.61547
587.5,17.3037,0.677706,-2.61547
588,17.3199,0.676,-2.61547
588.5,17.3362,0.668353,-2.61547
589,17.352,0.666835,-2.61547
589.5,17.3684,0.672656,-2.61547
590,17.3845,0.670141,-2.61547
590.5,17.4007,0.66476,-2.61546
591,17.4165,0.659904,-2.61483
591.5,17.4326,0.655725,-2.61415
592,17.4489,0.652444,-2.61415
592.5,17.4655,0.658552,-2.61415
593,17.4818,0.654027,-2.61415
593.5,17.4977,0.651213,-2.61415
594,17.514,0.646047,-2.61415
594.5,17.5302,0.642172,-2.61415
595,17.5463,0.644063,-2.61415
595.5,17.5625,0.638893,-2.61415
596,17.5789,0.635549,-2.61415
596.5,17.5952,0.632991,-2.61415
597,17.6109,0.623064,-2.61416
597.5,17.6273,0.62472,-2.61331
598,17.6437,0.626119,-2.61316
598.5,17.6598,0.623987,-2.61341
599,17.6761,0.621436,-2.61448
599.5,17.6923,0.623307,-2.61448
600,17.7084,0.618856,-2.61448
600.5,17.7246,0.617006,-2.61448
601,17.7409,0.620967,-2.61448
601.5,17.7573,0.62484,-2.61448
602,17.7735,0.617381,-2.61448
602.5,17.7893,0.612686,-2.6151
603,17.8059,0.613031,-2.61579
603.5,17.8222,0.619327,-2.6158
604,17.8384,0.610391,-2.6158
604.5,17.8547,0.60694,-2.6158
605,17.8704,0.604503,-2.61713
605.5,17.8865,0.60106,-2.61711
606,17.9035,0.600721,-2.61711
606.5,17.9196,0.601046,-2.61711
607,17.936,0.597477,-2.61711
607.5,17.9519,0.597264,-2.61711
608,17.9681,0.586326,-2.61711
608.5,17.9839,0.588198,-2.61711
609,18.0004,0.592615,-2.61711
609.5,18.0164,0.582573,-2.61712
610,18.0328,0.585783,-2.618
610.5,18.0491,0.571765,-2.61843
611,18.0654,0.574501,-2.6185
611.5,18.0818,0.575243,-2.61978
612,18.0983,0.566361,-2.61975
612.5,18.1147,0.570606,-2.61974
613,18.1309,0.570503,-2.62034
613.5,18.1473,0.563723,-2.61974
614,18.1632,0.558232,-2.61926
614.5,18.1795,0.561435,-2.61821
615,18.1964,0.558277,-2.61735
615.5,18.2124,0.557857,-2.61666
616,18.2289,0.560267,-2.61665
616.5,18.2451,0.554545,-2.61566
617,18.2615,0.54553,-2.61578
617.5,18.2778,0.552066,-2.61666
618,18.2938,0.558362,-2.61667
618.5,18.3102,0.557522,-2.61667
619,18.3266,0.54245,-2.61677
619.5,18.3427,0.551214,-2.61804
620,18.3592,0.550717,-2.618
620.5,18.3753,0.546682,-2.61902
621,18.392,0.539764,-2.6193
621.5,18.4081,0.537375,-2.61973
622,18.4246,0.539376,-2.62062
622.5,18.4406,0.531593,-2.61925
623,18.4571,0.538632,-2.61931
623.5,18.4736,0.53464,-2.61907
624,18.4894,0.530892,-2.61799
624.5,18.5059,0.532217,-2.61799
625,18.5223,0.528794,-2.61799
625.5,18.5388,0.527651,-2.61799
626,18.5548,0.526005,-2.61799
626.5,18.5714,0.524481,-2.61799
627,18.5876,0.51757,-2.61763
627.5,18.604,0.517516,-2.61666
628,18.6202,0.506855,-2.61628
628.5,18.6364,0.511585,-2.61601
629,18.6528,0.508445,-2.61601
629.5,18.669,0.512597,-2.61601
630,18.6854,0.518509,-2.61601
630.5,18.7019,0.511898,-2.61601
631,18.7181,0.509972,-2.61644
631.5,18.7344,0.513365,-2.617
632,18.7503,0.511537,-2.617
632.5,18.7672,0.512737,-2.617
633,18.7836,0.507836,-2.617
633.5,18.7998,0.504305,-2.61699
634,18.8166,0.502573,-2.61827
634.5,18.8325,0.506697,-2.61876
635,18.8492,0.508865,-2.61876
635.5,18.8653,0.500552,-2.61876
636,18.8818,0.493481,-2.61876
636.5,18.8982,0.489026,-2.61877
637,18.9145,0.492297,-2.61742
637.5,18.931,0.495621,-2.61744
638,18.9472,0.499159,-2.61744
638.5,18.9638,0.498492,-2.61744
639,18.9799,0.490211,-2.61744
639.5,18.9963,0.495755,-2.61776
640,19.0128,0.498765,-2.61777
640.5,19.0291,0.497903,-2.61777
641,19.0449,0.493583,-2.61779
641.5,19.0618,0.490372,-2.61912
642,19.0782,0.488446,-2.61908
642.5,19.0947,0.481407,-2.61805
643,19.1112,0.488042,-2.61777
643.5,19.1272,0.484327,-2.61777
644,19.1437,0.48244,-2.61777
644.5,19.1602,0.486004,-2.61777
645,19.1761,0.480076,-2.61777
645.5,19.1923,0.484476,-2.61781
646,19.2091,0.483721,-2.61744
646.5,19.2255,0.486046,-2.61744
647,19.2422,0.485122,-2.61744
647.5,19.2585,0.484553,-2.61744
648,19.2749,0.481304,-2.61744
648.5,19.291,0.476158,-2.61744
649,19.3075,0.47324,-2.61744
649.5,19.3237,0.473058,-2.61744
650,19.34,0.469007,-2.61744
650.5,19.3559,0.466931,-2.61744
651,19.3732,0.465894,-2.61744
651.5,19.3893,0.463068,-2.61744
652,19.4057,0.456294,-2.61744
652.5,19.422,0.450301,-2.61744
653,19.4387,0.449114,-2.61744
653.5,19.4552,0.447664,-2.61744
654,19.4715,0.449353,-2.61744
654.5,19.4883,0.448665,-2.61744
655,19.5043,0.441728,-2.61744
655.5,19.5202,0.441982,-2.61744
656,19.537,0.443999,-2.61744
656.5,19.5535,0.441987,-2.61747
657,19.5699,0.443916,-2.61711
657.5,19.5863,0.439262,-2.61711
658,19.6029,0.433809,-2.61711
658.5,19.6192,0.433992,-2.61711
659,19.6357,0.433008,-2.61711
659.5,19.6519,0.423372,-2.61662
660,19.6683,0.422467,-2.61661
660.5,19.685,0.423633,-2.61711
661,19.7014,0.420316,-2.61711
661.5,19.7176,0.421222,-2.61709
662,19.7338,0.415837,-2.61633
662.5,19.7505,0.42178,-2.61711
663,19.7668,0.421204,-2.61712
663.5,19.7836,0.421838,-2.61712
664,19.8,0.417906,-2.61712
664.5,19.8161,0.415264,-2.61713
665,19.8325,0.42068,-2.61798
665.5,19.8492,0.414106,-2.61843
666,19.8656,0.413659,-2.61843
666.5,19.8822,0.407094,-2.61843
667,19.8986,0.40734,-2.61868
667.5,19.9148,0.400611,-2.61975
668,19.9314,0.404651,-2.61975
668.5,19.9477,0.400702,-2.62001
669,19.9638,0.396849,-2.62105
669.5,19.9804,0.395989,-2.62105
670,19.9969,0.385835,-2.62202
670.5,20.0136,0.384994,-2.62238
671,20.0298,0.375247,-2.62238
671.5,20.0463,0.371932,-2.62238
672,20.0622,0.366597,-2.62184
672.5,20.0791,0.366733,-2.62172
673,20.0955,0.363089,-2.62172
673.5,20.112,0.360283,-2.62172
674,20.1282,0.361673,-2.62172
674.5,20.1443,0.355453,-2.62172
675,20.1609,0.355708,-2.62171
675.5,20.1779,0.359627,-2.62086
676,20.1944,0.345342,-2.62039
676.5,20.2108,0.350843,-2.62175
677,20.227,0.353519,-2.62173
677.5,20.2427,0.344214,-2.62173
678,20.2604,0.34627,-2.62173
678.5,20.2766,0.344261,-2.62172
679,20.2931,0.339106,-2.62116
679.5,20.3097,0.340518,-2.62041
680,20.3259,0.336196,-2.62148
680.5,20.3427,0.333782,-2.62173
681,20.359,0.336124,-2.62173
681.5,20.3756,0.334963,-2.62173
682,20.392,0.325127,-2.62167
682.5,20.4084,0.316558,-2.62298
683,20.4251,0.307467,-2.62304
683.5,20.4416,0.313184,-2.62304
684,20.458,0.306353,-2.62304
684.5,20.4742,0.307415,-2.62304
685,20.4912,0.301883,-2.62418
685.5,20.5074,0.30305,-2.62363
686,20.5241,0.300415,-2.62304
686.5,20.5399,0.297153,-2.62304
687,20.5565,0.297371,-2.62304
687.5,20.5734,0.295415,-2.62299
688,20.59,0.286817,-2.62334
688.5,20.6066,0.283521,-2.62304
689,20.6229,0.285485,-2.62304
689.5,20.6392,0.289713,-2.62304
690,20.656,0.288908,-2.62304
690.5,20.6726,0.288385,-2.62307
691,20.6892,0.280241,-2.62095
691.5,20.7054,0.281116,-2.62084
692,20.7221,0.277034,-2.62084
692.5,20.7385,0.278045,-2.62084
693,20.7545,0.280043,-2.62084
693.5,20.7712,0.274019,-2.62084
694,20.788,0.274023,-2.62084
694.5,20.8047,0.267227,-2.62084
695,20.8212,0.265215,-2.62084
695.5,20.8377,0.260943,-2.62084
696,20.8541,0.254832,-2.62082
696.5,20.8706,0.255111,-2.6222
697,20.8871,0.245785,-2.62216
697.5,20.9037,0.250084,-2.62216
698,20.9201,0.252705,-2.62286
698.5,20.9367,0.244207,-2.62358
699,20.9535,0.240819,-2.62359
699.5,20.97,0.239688,-2.62359
700,20.9864,0.241989,-2.62438
700.5,21.003,0.244168,-2.62458
701,21.0198,0.239115,-2.62458
701.5,21.0363,0.238539,-2.62458
702,21.053,0.232383,-2.62458
702.5,21.0693,0.221724,-2.62458
703,21.0859,0.228648,-2.62458
703.5,21.1028,0.231872,-2.62458
704,21.1186,0.229695,-2.62458
704.5,21.1349,0.230188,-2.62458
705,21.1521,0.2323,-2.62458
705.5,21.1687,0.227216,-2.62458
706,21.1854,0.224718,-2.62459
706.5,21.2017,0.224418,-2.62382
707,21.2181,0.222546,-2.62359
707.5,21.2348,0.227442,-2.62359
708,21.2513,0.215447,-2.62355
708.5,21.2676,0.20618,-2.62479
709,21.2844,0.208998,-2.6249
709.5,21.3008,0.207006,-2.6249
710,21.3176,0.205062,-2.62488
710.5,21.3341,0.199423,-2.62621
711,21.3507,0.192238,-2.62622
711.5,21.3673,0.196642,-2.62622
712,21.3838,0.190217,-2.62622
712.5,21.4003,0.195788,-2.62622
713,21.4167,0.192179,-2.62642
713.5,21.4337,0.180875,-2.62621
714,21.4503,0.18266,-2.62623
714.5,21.4667,0.185654,-2.62623
715,21.483,0.184959,-2.62623
715.5,21.4998,0.184964,-2.62623
716,21.5163,0.184984,-2.62623
716.5,21.5327,0.178667,-2.62623
717,21.5496,0.178064,-2.62623
717.5,21.566,0.171747,-2.62623
718,21.5827,0.171914,-2.62622
718.5,21.5993,0.171335,-2.62725
719,21.6156,0.172502,-2.62776
719.5,21.6323,0.165789,-2.62776
720,21.6488,0.162833,-2.62775
720.5,21.6655,0.163622,-2.62683
721,21.682,0.168731,-2.62623
721.5,21.6983,0.15679,-2.6254
722,21.7149,0.150331,-2.62468
722.5,21.7318,0.154742,-2.62469
723,21.7483,0.151245,-2.62425
723.5,21.7649,0.148513,-2.62337
724,21.7813,0.151476,-2.62337
724.5,21.7978,0.158449,-2.62337
725,21.8147,0.152903,-2.62337
725.5,21.8312,0.157427,-2.62337
726,21.8477,0.150352,-2.62337
726.5,21.8643,0.147481,-2.62337
727,21.8808,0.142511,-2.62337
727.5,21.8974,0.146787,-2.62337
728,21.9134,0.142177,-2.62337
728.5,21.93,0.13657,-2.62337
729,21.947,0.137833,-2.62337
729.5,21.964,0.142101,-2.62337
730,21.9803,0.14006,-2.62337
730.5,21.9968,0.135559,-2.62337
731,22.0136,0.123737,-2.62377
731.5,22.0298,0.114914,-2.62468
732,22.0466,0.120486,-2.62469
732.5,22.0633,0.119413,-2.62469
733,22.08,0.127349,-2.62538
733.5,22.0967,0.127785,-2.626
734,22.113,0.12571,-2.62601
734.5,22.1298,0.129301,-2.62601
735,22.1464,0.120896,-2.62601
735.5,22.1629,0.124988,-2.62601
736,22.1798,0.124992,-2.62601
736.5,22.1961,0.119415,-2.62603
737,22.213,0.108432,-2.62569
737.5,22.2293,0.10968,-2.62568
738,22.246,0.107152,-2.62568
738.5,22.2628,0.109163,-2.62568
739,22.2795,0.0979663,-2.62622
739.5,22.2959,0.096569,-2.6271
740,22.3126,0.0951645,-2.62711
740.5,22.3291,0.0996664,-2.62711
741,22.3459,0.0967462,-2.62714
741.5,22.3628,0.0919056,-2.6256
742,22.379,0.0925387,-2.62558
742.5,22.3957,0.096376,-2.62433
743,22.4123,0.0976785,-2.62425
743.5,22.429,0.0946136,-2.62425
744,22.4452,0.0898538,-2.62409
744.5,22.4621,0.0928489,-2.62286
745,22.4788,0.0902516,-2.62293
745.5,22.4953,0.0909146,-2.62293
746,22.512,0.0933398,-2.62293
746.5,22.5286,0.0895825,-2.62294
747,22.5452,0.0949433,-2.62373
747.5,22.562,0.0962429,-2.62581
748,22.5788,0.100743,-2.62579
748.5,22.5952,0.104494,-2.62579
749,22.6119,0.104365,-2.62556
749.5,22.6287,0.111739,-2.62403
750,22.6452,0.113955,-2.6232
750.5,22.662,0.116197,-2.62251
751,22.6782,0.112943,-2.6225
751.5,22.6952,0.119742,-2.62209
752,22.7118,0.121554,-2.62119
752.5,22.7284,0.120815,-2.62119
753,22.7452,0.134454,-2.62193
753.5,22.7618,0.129585,-2.62129
754,22.7782,0.135005,-2.62117
754.5,22.7949,0.131337,-2.62117
755,22.8115,0.132886,-2.62112
755.5,22.8284,0.138879,-2.62242
756,22.845,0.136134,-2.62249
756.5,22.8619,0.136485,-2.62249
757,22.8783,0.138972,-2.62249
757.5,22.8949,0.139405,-2.62249
758,22.9119,0.135692,-2.62249
758.5,22.9283,0.137369,-2.62329
759,22.9449,0.155812,-2.62392
759.5,22.9613,0.152682,-2.62381
760,22.9778,0.152586,-2.62401
760.5,22.9945,0.148706,-2.62402
761,23.0113,0.147347,-2.62444
761.5,23.028,0.137771,-2.62527
762,23.0446,0.139505,-2.62666
762.5,23.0612,0.150236,-2.62816
763,23.0779,0.157709,-2.62804
763.5,23.0947,0.148333,-2.63039
764,23.1113,0.146627,-2.63073
764.5,23.1282,0.145971,-2.63068
765,23.1441,0.152513,-2.63204
765.5,23.1612,0.155221,-2.63205
766,23.1782,0.16039,-2.63205
766.5,23.1947,0.165686,-2.63238
767,23.211,0.170562,-2.63336
767.5,23.2281,0.166529,-2.63336
768,23.2445,0.168834,-2.63336
768.5,23.2615,0.164448,-2.63336
769,23.278,0.159826,-2.63336
769.5,23.2945,0.159096,-2.63336
770,23.3114,0.163425,-2.63336
770.5,23.328,0.168414,-2.63336
771,23.3449,0.173666,-2.6331
771.5,23.3615,0.16284,-2.63205
772,23.3782,0.161764,-2.63204
772.5,23.3949,0.162234,-2.63204
773,23.4114,0.158961,-2.63204
773.5,23.4279,0.161727,-2.63207
774,23.4447,0.166625,-2.63074
774.5,23.4613,0.160813,-2.63061
775,23.4778,0.159968,-2.63018
775.5,23.4948,0.163497,-2.6293
776,23.5112,0.156913,-2.62929
776.5,23.5282,0.148407,-2.62929
777,23.5445,0.152806,-2.62929
777.5,23.5613,0.154543,-2.62929
778,23.5782,0.155332,-2.62929
778.5,23.5949,0.160981,-2.62929
779,23.6114,0.162933,-2.62929
779.5,23.6279,0.156546,-2.62929
780,23.6449,0.15664,-2.62929
780.5,23.6613,0.158456,-2.62929
781,23.6779,0.150433,-2.62927
781.5,23.6948,0.150653,-2.63061
782,23.7114,0.150618,-2.63061
782.5,23.7282,0.148496,-2.63061
783,23.7442,0.157561,-2.63079
783.5,23.7611,0.150605,-2.63216
784,23.7782,0.145482,-2.63131
784.5,23.7951,0.146821,-2.63116
785,23.8117,0.149085,-2.63116
785.5,23.8285,0.147191,-2.63113
786,23.8452,0.14378,-2.62958
786.5,23.8617,0.148528,-2.62905
787,23.8784,0.147406,-2.62811
787.5,23.8953,0.146323,-2.62672
788,23.9118,0.143423,-2.62655
788.5,23.9284,0.139914,-2.62652
789,23.9452,0.140869,-2.62522
789.5,23.9633,0.137269,-2.62523
790,23.9802,0.130576,-2.62537