File: 01_Data/Pressure_Treated_Deck/FTIR/IS/Deprecated/Pressure_Treated_Deck_IS_T_220926_R8.dpt
7497.03,0.03033
7491.25,0.03063
7485.46,0.02342
7479.67,0.03117
7473.89,0.02504
7468.1,0.03601
7462.32,0.02341
7456.53,0.01876
7450.74,0.02358
7444.96,0.02237
7439.17,0.02546
7433.38,0.02246
7427.6,0.03399
7421.81,0.02700
7416.03,0.02643
7410.24,0.02440
7404.45,0.02587
7398.67,0.03206
7392.88,0.02098
7387.09,0.02540
7381.31,0.03196
7375.52,0.02471
7369.74,0.02048
7363.95,0.03705
7358.16,0.02319
7352.38,0.03104
7346.59,0.02555
7340.8,0.02813
7335.02,0.03321
7329.23,0.02807
7323.45,0.02797
7317.66,0.02741
7311.87,0.02507
7306.09,0.01974
7300.3,0.02273
7294.51,0.02926
7288.73,0.02727
7282.94,0.02910
7277.16,0.02364
7271.37,0.02302
7265.58,0.02396
7259.8,0.02522
7254.01,0.02238
7248.22,0.02686
7242.44,0.02251
7236.65,0.02266
7230.87,0.02703
7225.08,0.03095
7219.29,0.01565
7213.51,0.02552
7207.72,0.02566
7201.93,0.02186
7196.15,0.02477
7190.36,0.02432
7184.58,0.01736
7178.79,0.02218
7173,0.02779
7167.22,0.03119
7161.43,0.02469
7155.65,0.02404
7149.86,0.02284
7144.07,0.02269
7138.29,0.02982
7132.5,0.02089
7126.71,0.02008
7120.93,0.02630
7115.14,0.02172
7109.36,0.02099
7103.57,0.02572
7097.78,0.02132
7092,0.02653
7086.21,0.02583
7080.42,0.02104
7074.64,0.02833
7068.85,0.02610
7063.07,0.02104
7057.28,0.02684
7051.49,0.02233
7045.71,0.02314
7039.92,0.01955
7034.13,0.02403
7028.35,0.02678
7022.56,0.02321
7016.78,0.02141
7010.99,0.02433
7005.2,0.02723
6999.42,0.02152
6993.63,0.02474
6987.84,0.01774
6982.06,0.03026
6976.27,0.02711
6970.49,0.02265
6964.7,0.02612
6958.91,0.02807
6953.13,0.02283
6947.34,0.02209
6941.55,0.02151
6935.77,0.02218
6929.98,0.02037
6924.2,0.02480
6918.41,0.02112
6912.62,0.02478
6906.84,0.02970
6901.05,0.02346
6895.26,0.02451
6889.48,0.02912
6883.69,0.02506
6877.91,0.02209
6872.12,0.02052
6866.33,0.02824
6860.55,0.02555
6854.76,0.02197
6848.97,0.02124
6843.19,0.02889
6837.4,0.02094
6831.62,0.02418
6825.83,0.02720
6820.04,0.02213
6814.26,0.02165
6808.47,0.02191
6802.68,0.02887
6796.9,0.02350
6791.11,0.02547
6785.33,0.02002
6779.54,0.02103
6773.75,0.02390
6767.97,0.02404
6762.18,0.02372
6756.39,0.02547
6750.61,0.02503
6744.82,0.01934
6739.04,0.02080
6733.25,0.02345
6727.46,0.02247
6721.68,0.02433
6715.89,0.02141
6710.1,0.02398
6704.32,0.02194
6698.53,0.02363
6692.75,0.01723
6686.96,0.02258
6681.17,0.02597
6675.39,0.02061
6669.6,0.02372
6663.82,0.02329
6658.03,0.02406
6652.24,0.02028
6646.46,0.02298
6640.67,0.02198
6634.88,0.02324
6629.1,0.02320
6623.31,0.02091
6617.53,0.02344
6611.74,0.01904
6605.95,0.01770
6600.17,0.02009
6594.38,0.02684
6588.59,0.01983
6582.81,0.02393
6577.02,0.02534
6571.24,0.02300
6565.45,0.02252
6559.66,0.01914
6553.88,0.02370
6548.09,0.02630
6542.3,0.02410
6536.52,0.01986
6530.73,0.02225
6524.95,0.02289
6519.16,0.01789
6513.37,0.01966
6507.59,0.02346
6501.8,0.02534
6496.01,0.02188
6490.23,0.02072
6484.44,0.02322
6478.66,0.02426
6472.87,0.02465
6467.08,0.02239
6461.3,0.02169
6455.51,0.02066
6449.72,0.02342
6443.94,0.02296
6438.15,0.02307
6432.37,0.01810
6426.58,0.02185
6420.79,0.02143
6415.01,0.02164
6409.22,0.02318
6403.43,0.02648
6397.65,0.02235
6391.86,0.02271
6386.08,0.02378
6380.29,0.02354
6374.5,0.02151
6368.72,0.02733
6362.93,0.02420
6357.14,0.02510
6351.36,0.02155
6345.57,0.02206
6339.79,0.02339
6334,0.02323
6328.21,0.02085
6322.43,0.02098
6316.64,0.02393
6310.85,0.02340
6305.07,0.02198
6299.28,0.02202
6293.5,0.02341
6287.71,0.02246
6281.92,0.02384
6276.14,0.02522
6270.35,0.02493
6264.56,0.02367
6258.78,0.02062
6252.99,0.02258
6247.21,0.02405
6241.42,0.02282
6235.63,0.02086
6229.85,0.02642
6224.06,0.02057
6218.27,0.02197
6212.49,0.02312
6206.7,0.01906
6200.92,0.02377
6195.13,0.02052
6189.34,0.02104
6183.56,0.02201
6177.77,0.01916
6171.98,0.02111
6166.2,0.02200
6160.41,0.02491
6154.63,0.02427
6148.84,0.02204
6143.05,0.02342
6137.27,0.02099
6131.48,0.02118
6125.7,0.01900
6119.91,0.01987
6114.12,0.02078
6108.34,0.02222
6102.55,0.02332
6096.76,0.02462
6090.98,0.01850
6085.19,0.02008
6079.41,0.02110
6073.62,0.02180
6067.83,0.02205
6062.05,0.02053
6056.26,0.02154
6050.47,0.01924
6044.69,0.02034
6038.9,0.02033
6033.12,0.02302
6027.33,0.02065
6021.54,0.02213
6015.76,0.02253
6009.97,0.02039
6004.18,0.02032
5998.4,0.02251
5992.61,0.02245
5986.83,0.02225
5981.04,0.02347
5975.25,0.02082
5969.47,0.02233
5963.68,0.02194
5957.89,0.02236
5952.11,0.02172
5946.32,0.02297
5940.54,0.02080
5934.75,0.02307
5928.96,0.02192
5923.18,0.02064
5917.39,0.02267
5911.6,0.02190
5905.82,0.01886
5900.03,0.02141
5894.25,0.02384
5888.46,0.02255
5882.67,0.02146
5876.89,0.02066
5871.1,0.02300
5865.31,0.02177
5859.53,0.02152
5853.74,0.02139
5847.96,0.02282
5842.17,0.02160
5836.38,0.02195
5830.6,0.02302
5824.81,0.02163
5819.02,0.02433
5813.24,0.02105
5807.45,0.02024
5801.67,0.02311
5795.88,0.02194
5790.09,0.02242
5784.31,0.02349
5778.52,0.02216
5772.73,0.02158
5766.95,0.02091
5761.16,0.02225
5755.38,0.02378
5749.59,0.02027
5743.8,0.01979
5738.02,0.02291
5732.23,0.02327
5726.44,0.02321
5720.66,0.02045
5714.87,0.02160
5709.09,0.02192
5703.3,0.02281
5697.51,0.02100
5691.73,0.02175
5685.94,0.02284
5680.15,0.02322
5674.37,0.02373
5668.58,0.02324
5662.8,0.02350
5657.01,0.02170
5651.22,0.02135
5645.44,0.02201
5639.65,0.02103
5633.87,0.02305
5628.08,0.02274
5622.29,0.02106
5616.51,0.02168
5610.72,0.02188
5604.93,0.02150
5599.15,0.02301
5593.36,0.02357
5587.58,0.02390
5581.79,0.02177
5576,0.02213
5570.22,0.02346
5564.43,0.02278
5558.64,0.02256
5552.86,0.02083
5547.07,0.02176
5541.29,0.02271
5535.5,0.02183
5529.71,0.02157
5523.93,0.02342
5518.14,0.02203
5512.35,0.02169
5506.57,0.02113
5500.78,0.02245
5495,0.02348
5489.21,0.02133
5483.42,0.02219
5477.64,0.02371
5471.85,0.02072
5466.06,0.02229
5460.28,0.02372
5454.49,0.02307
5448.71,0.01978
5442.92,0.02227
5437.13,0.02148
5431.35,0.02302
5425.56,0.02378
5419.77,0.02254
5413.99,0.02253
5408.2,0.02392
5402.42,0.02236
5396.63,0.02189
5390.84,0.02286
5385.06,0.02373
5379.27,0.02388
5373.48,0.02316
5367.7,0.02305
5361.91,0.02079
5356.13,0.02141
5350.34,0.02250
5344.55,0.02169
5338.77,0.02190
5332.98,0.02141
5327.19,0.01970
5321.41,0.02039
5315.62,0.02237
5309.84,0.02311
5304.05,0.02040
5298.26,0.02192
5292.48,0.02205
5286.69,0.02123
5280.9,0.02314
5275.12,0.02187
5269.33,0.02180
5263.55,0.02269
5257.76,0.02283
5251.97,0.01994
5246.19,0.02208
5240.4,0.02246
5234.61,0.02275
5228.83,0.02188
5223.04,0.02131
5217.26,0.02181
5211.47,0.02381
5205.68,0.02192
5199.9,0.02373
5194.11,0.02246
5188.32,0.02092
5182.54,0.02182
5176.75,0.02239
5170.97,0.02206
5165.18,0.02244
5159.39,0.02258
5153.61,0.02253
5147.82,0.02241
5142.03,0.02443
5136.25,0.02253
5130.46,0.02260
5124.68,0.02407
5118.89,0.02253
5113.1,0.02275
5107.32,0.02187
5101.53,0.02179
5095.75,0.02277
5089.96,0.02355
5084.17,0.02193
5078.39,0.02215
5072.6,0.02373
5066.81,0.02335
5061.03,0.02267
5055.24,0.02128
5049.46,0.02240
5043.67,0.02346
5037.88,0.02288
5032.1,0.02260
5026.31,0.02245
5020.52,0.02409
5014.74,0.02289
5008.95,0.02265
5003.17,0.02197
4997.38,0.02255
4991.59,0.02147
4985.81,0.02191
4980.02,0.02314
4974.23,0.02271
4968.45,0.02243
4962.66,0.02234
4956.88,0.02290
4951.09,0.02133
4945.3,0.02282
4939.52,0.02243
4933.73,0.02229
4927.94,0.02267
4922.16,0.02216
4916.37,0.02235
4910.59,0.02282
4904.8,0.02344
4899.01,0.02182
4893.23,0.02199
4887.44,0.02308
4881.65,0.02237
4875.87,0.02222
4870.08,0.02184
4864.3,0.02322
4858.51,0.02236
4852.72,0.02243
4846.94,0.02069
4841.15,0.02222
4835.36,0.02201
4829.58,0.02205
4823.79,0.02091
4818.01,0.02257
4812.22,0.02199
4806.43,0.02190
4800.65,0.02149
4794.86,0.02146
4789.07,0.02153
4783.29,0.02286
4777.5,0.02300
4771.72,0.02279
4765.93,0.02228
4760.14,0.02162
4754.36,0.02292
4748.57,0.02221
4742.78,0.02314
4737,0.02238
4731.21,0.02139
4725.43,0.02241
4719.64,0.02207
4713.85,0.02338
4708.07,0.02249
4702.28,0.02267
4696.49,0.02313
4690.71,0.02270
4684.92,0.02316
4679.14,0.02212
4673.35,0.02247
4667.56,0.02148
4661.78,0.02159
4655.99,0.02141
4650.2,0.02255
4644.42,0.02204
4638.63,0.02229
4632.85,0.02200
4627.06,0.02210
4621.27,0.02281
4615.49,0.02215
4609.7,0.02179
4603.92,0.02171
4598.13,0.02284
4592.34,0.02207
4586.56,0.02271
4580.77,0.02197
4574.98,0.02178
4569.2,0.02305
4563.41,0.02165
4557.63,0.02254
4551.84,0.02227
4546.05,0.02245
4540.27,0.02314
4534.48,0.02351
4528.69,0.02307
4522.91,0.02358
4517.12,0.02303
4511.34,0.02300
4505.55,0.02307
4499.76,0.02200
4493.98,0.02291
4488.19,0.02264
4482.4,0.02209
4476.62,0.02236
4470.83,0.02206
4465.05,0.02200
4459.26,0.02293
4453.47,0.02255
4447.69,0.02169
4441.9,0.02186
4436.11,0.02224
4430.33,0.02233
4424.54,0.02226
4418.76,0.02226
4412.97,0.02309
4407.18,0.02294
4401.4,0.02220
4395.61,0.02171
4389.82,0.02209
4384.04,0.02232
4378.25,0.02272
4372.47,0.02285
4366.68,0.02255
4360.89,0.02312
4355.11,0.02225
4349.32,0.02221
4343.53,0.02261
4337.75,0.02272
4331.96,0.02182
4326.18,0.02214
4320.39,0.02242
4314.6,0.02207
4308.82,0.02360
4303.03,0.02232
4297.24,0.02228
4291.46,0.02200
4285.67,0.02205
4279.89,0.02237
4274.1,0.02263
4268.31,0.02317
4262.53,0.02190
4256.74,0.02247
4250.95,0.02246
4245.17,0.02277
4239.38,0.02188
4233.6,0.02247
4227.81,0.02226
4222.02,0.02287
4216.24,0.02230
4210.45,0.02299
4204.66,0.02255
4198.88,0.02308
4193.09,0.02191
4187.31,0.02220
4181.52,0.02256
4175.73,0.02223
4169.95,0.02288
4164.16,0.02339
4158.37,0.02252
4152.59,0.02261
4146.8,0.02284
4141.02,0.02270
4135.23,0.02265
4129.44,0.02223
4123.66,0.02250
4117.87,0.02214
4112.09,0.02226
4106.3,0.02256
4100.51,0.02211
4094.73,0.02300
4088.94,0.02228
4083.15,0.02305
4077.37,0.02297
4071.58,0.02266
4065.8,0.02274
4060.01,0.02214
4054.22,0.02222
4048.44,0.02270
4042.65,0.02228
4036.86,0.02219
4031.08,0.02232
4025.29,0.02211
4019.51,0.02235
4013.72,0.02247
4007.93,0.02298
4002.15,0.02286
3996.36,0.02268
3990.57,0.02274
3984.79,0.02266
3979,0.02190
3973.22,0.02301
3967.43,0.02311
3961.64,0.02309
3955.86,0.02243
3950.07,0.02282
3944.28,0.02274
3938.5,0.02267
3932.71,0.02258
3926.93,0.02257
3921.14,0.02205
3915.35,0.02264
3909.57,0.02298
3903.78,0.02250
3897.99,0.02257
3892.21,0.02266
3886.42,0.02302
3880.64,0.02246
3874.85,0.02288
3869.06,0.02211
3863.28,0.02278
3857.49,0.02333
3851.7,0.02251
3845.92,0.02257
3840.13,0.02299
3834.35,0.02254
3828.56,0.02224
3822.77,0.02250
3816.99,0.02276
3811.2,0.02234
3805.41,0.02301
3799.63,0.02287
3793.84,0.02232
3788.06,0.02241
3782.27,0.02267
3776.48,0.02229
3770.7,0.02269
3764.91,0.02297
3759.12,0.02256
3753.34,0.02285
3747.55,0.02291
3741.77,0.02280
3735.98,0.02240
3730.19,0.02225
3724.41,0.02292
3718.62,0.02192
3712.83,0.02229
3707.05,0.02235
3701.26,0.02272
3695.48,0.02217
3689.69,0.02190
3683.9,0.02234
3678.12,0.02248
3672.33,0.02215
3666.54,0.02206
3660.76,0.02183
3654.97,0.02225
3649.19,0.02185
3643.4,0.02191
3637.61,0.02189
3631.83,0.02130
3626.04,0.02215
3620.25,0.02220
3614.47,0.02221
3608.68,0.02159
3602.9,0.02146
3597.11,0.02180
3591.32,0.02157
3585.54,0.02108
3579.75,0.02138
3573.97,0.02213
3568.18,0.02153
3562.39,0.02147
3556.61,0.02130
3550.82,0.02062
3545.03,0.02074
3539.25,0.02109
3533.46,0.02130
3527.68,0.02135
3521.89,0.02068
3516.1,0.02106
3510.32,0.02147
3504.53,0.02113
3498.74,0.02089
3492.96,0.02079
3487.17,0.02105
3481.39,0.02101
3475.6,0.02047
3469.81,0.02093
3464.03,0.02120
3458.24,0.02090
3452.45,0.02056
3446.67,0.02100
3440.88,0.02068
3435.1,0.02045
3429.31,0.02099
3423.52,0.02035
3417.74,0.02053
3411.95,0.02126
3406.16,0.02061
3400.38,0.01992
3394.59,0.01996
3388.81,0.02062
3383.02,0.02004
3377.23,0.01988
3371.45,0.01998
3365.66,0.02031
3359.87,0.02096
3354.09,0.02068
3348.3,0.02073
3342.52,0.02018
3336.73,0.01962
3330.94,0.02022
3325.16,0.02034
3319.37,0.01984
3313.58,0.02039
3307.8,0.01966
3302.01,0.02026
3296.23,0.01988
3290.44,0.01990
3284.65,0.02051
3278.87,0.01974
3273.08,0.01935
3267.29,0.02004
3261.51,0.02018
3255.72,0.02090
3249.94,0.02060
3244.15,0.02077
3238.36,0.02094
3232.58,0.02063
3226.79,0.02049
3221,0.02112
3215.22,0.02110
3209.43,0.02117
3203.65,0.02026
3197.86,0.02090
3192.07,0.02054
3186.29,0.02068
3180.5,0.02085
3174.71,0.02089
3168.93,0.02099
3163.14,0.02084
3157.36,0.02093
3151.57,0.02108
3145.78,0.02103
3140,0.02078
3134.21,0.02098
3128.42,0.02130
3122.64,0.02060
3116.85,0.02037
3111.07,0.02032
3105.28,0.02023
3099.49,0.02062
3093.71,0.02086
3087.92,0.02115
3082.14,0.02048
3076.35,0.02096
3070.56,0.02029
3064.78,0.02075
3058.99,0.02073
3053.2,0.02055
3047.42,0.02123
3041.63,0.02070
3035.85,0.02104
3030.06,0.02079
3024.27,0.02040
3018.49,0.01998
3012.7,0.01984
3006.91,0.02035
3001.13,0.02042
2995.34,0.02039
2989.56,0.01976
2983.77,0.01992
2977.98,0.01950
2972.2,0.01953
2966.41,0.01965
2960.62,0.01983
2954.84,0.01908
2949.05,0.01947
2943.27,0.01958
2937.48,0.01941
2931.69,0.01987
2925.91,0.01949
2920.12,0.02025
2914.33,0.02027
2908.55,0.02047
2902.76,0.02043
2896.98,0.02041
2891.19,0.02069
2885.4,0.02019
2879.62,0.02004
2873.83,0.02010
2868.04,0.02043
2862.26,0.02052
2856.47,0.01984
2850.69,0.02054
2844.9,0.02098
2839.11,0.02113
2833.33,0.02099
2827.54,0.02097
2821.75,0.02076
2815.97,0.02114
2810.18,0.02126
2804.4,0.02143
2798.61,0.02178
2792.82,0.02170
2787.04,0.02152
2781.25,0.02091
2775.46,0.02135
2769.68,0.02108
2763.89,0.02094
2758.11,0.02137
2752.32,0.02115
2746.53,0.02077
2740.75,0.02088
2734.96,0.02110
2729.17,0.02171
2723.39,0.02153
2717.6,0.02147
2711.82,0.02142
2706.03,0.02160
2700.24,0.02155
2694.46,0.02133
2688.67,0.02190
2682.88,0.02160
2677.1,0.02073
2671.31,0.02125
2665.53,0.02131
2659.74,0.02140
2653.95,0.02063
2648.17,0.02094
2642.38,0.02147
2636.59,0.02142
2630.81,0.02132
2625.02,0.02142
2619.24,0.02122
2613.45,0.02119
2607.66,0.02160
2601.88,0.02143
2596.09,0.02142
2590.3,0.02126
2584.52,0.02170
2578.73,0.02154
2572.95,0.02154
2567.16,0.02159
2561.37,0.02125
2555.59,0.02125
2549.8,0.02124
2544.02,0.02106
2538.23,0.02134
2532.44,0.02157
2526.66,0.02111
2520.87,0.02115
2515.08,0.02094
2509.3,0.02113
2503.51,0.02169
2497.73,0.02164
2491.94,0.02125
2486.15,0.02094
2480.37,0.02131
2474.58,0.02153
2468.79,0.02160
2463.01,0.02132
2457.22,0.02140
2451.44,0.02098
2445.65,0.02119
2439.86,0.02114
2434.08,0.02119
2428.29,0.02109
2422.5,0.02114
2416.72,0.02100
2410.93,0.02118
2405.15,0.02124
2399.36,0.02122
2393.57,0.02118
2387.79,0.02102
2382,0.02130
2376.21,0.02128
2370.43,0.02087
2364.64,0.02138
2358.86,0.02110
2353.07,0.02130
2347.28,0.02149
2341.5,0.02157
2335.71,0.02089
2329.92,0.02115
2324.14,0.02081
2318.35,0.02105
2312.57,0.02108
2306.78,0.02111
2300.99,0.02109
2295.21,0.02132
2289.42,0.02076
2283.63,0.02089
2277.85,0.02113
2272.06,0.02094
2266.28,0.02087
2260.49,0.02088
2254.7,0.02098
2248.92,0.02086
2243.13,0.02124
2237.34,0.02092
2231.56,0.02106
2225.77,0.02123
2219.99,0.02103
2214.2,0.02068
2208.41,0.02107
2202.63,0.02125
2196.84,0.02111
2191.05,0.02106
2185.27,0.02097
2179.48,0.02083
2173.7,0.02083
2167.91,0.02100
2162.12,0.02079
2156.34,0.02102
2150.55,0.02103
2144.76,0.02076
2138.98,0.02100
2133.19,0.02088
2127.41,0.02101
2121.62,0.02079
2115.83,0.02095
2110.05,0.02096
2104.26,0.02069
2098.47,0.02071
2092.69,0.02094
2086.9,0.02069
2081.12,0.02073
2075.33,0.02077
2069.54,0.02104
2063.76,0.02110
2057.97,0.02086
2052.19,0.02127
2046.4,0.02076
2040.61,0.02063
2034.83,0.02118
2029.04,0.02081
2023.25,0.02085
2017.47,0.02050
2011.68,0.02072
2005.9,0.02105
2000.11,0.02095
1994.32,0.02083
1988.54,0.02087
1982.75,0.02055
1976.96,0.02085
1971.18,0.02094
1965.39,0.02072
1959.61,0.02095
1953.82,0.02107
1948.03,0.02086
1942.25,0.02088
1936.46,0.02054
1930.67,0.02061
1924.89,0.02081
1919.1,0.02045
1913.32,0.02071
1907.53,0.02016
1901.74,0.02035
1895.96,0.02031
1890.17,0.02042
1884.38,0.02044
1878.6,0.02022
1872.81,0.02065
1867.03,0.02056
1861.24,0.02057
1855.45,0.02019
1849.67,0.01993
1843.88,0.01991
1838.09,0.02028
1832.31,0.02018
1826.52,0.02006
1820.74,0.02029
1814.95,0.02020
1809.16,0.01997
1803.38,0.01993
1797.59,0.01918
1791.8,0.01939
1786.02,0.01932
1780.23,0.01883
1774.45,0.01875
1768.66,0.01803
1762.87,0.01835
1757.09,0.01769
1751.3,0.01746
1745.51,0.01768
1739.73,0.01853
1733.94,0.01964
1728.16,0.01997
1722.37,0.02085
1716.58,0.02136
1710.8,0.02046
1705.01,0.02014
1699.22,0.02002
1693.44,0.01931
1687.65,0.01897
1681.87,0.01855
1676.08,0.01881
1670.29,0.01821
1664.51,0.01874
1658.72,0.01822
1652.93,0.01863
1647.15,0.01856
1641.36,0.01861
1635.58,0.01809
1629.79,0.01829
1624,0.01873
1618.22,0.01872
1612.43,0.01900
1606.64,0.01880
1600.86,0.01879
1595.07,0.01895
1589.29,0.01827
1583.5,0.01822
1577.71,0.01829
1571.93,0.01832
1566.14,0.01795
1560.35,0.01781
1554.57,0.01814
1548.78,0.01820
1543,0.01855
1537.21,0.01833
1531.42,0.01827
1525.64,0.01859
1519.85,0.01892
1514.07,0.01869
1508.28,0.01857
1502.49,0.01857
1496.71,0.01879
1490.92,0.01905
1485.13,0.01861
1479.35,0.01861
1473.56,0.01886
1467.78,0.01834
1461.99,0.01828
1456.2,0.01842
1450.42,0.01832
1444.63,0.01854
1438.84,0.01874
1433.06,0.01843
1427.27,0.01893
1421.49,0.01868
1415.7,0.01825
1409.91,0.01854
1404.13,0.01822
1398.34,0.01815
1392.55,0.01785
1386.77,0.01820
1380.98,0.01782
1375.2,0.01834
1369.41,0.01798
1363.62,0.01772
1357.84,0.01814
1352.05,0.01780
1346.26,0.01785
1340.48,0.01747
1334.69,0.01745
1328.91,0.01765
1323.12,0.01714
1317.33,0.01721
1311.55,0.01756
1305.76,0.01753
1299.97,0.01716
1294.19,0.01784
1288.4,0.01819
1282.62,0.01835
1276.83,0.01896
1271.04,0.01890
1265.26,0.01923
1259.47,0.01984
1253.68,0.02029
1247.9,0.02009
1242.11,0.01953
1236.33,0.01931
1230.54,0.01940
1224.75,0.01952
1218.97,0.01901
1213.18,0.01885
1207.39,0.01897
1201.61,0.01844
1195.82,0.01819
1190.04,0.01827
1184.25,0.01758
1178.46,0.01777
1172.68,0.01778
1166.89,0.01812
1161.1,0.01755
1155.32,0.01734
1149.53,0.01745
1143.75,0.01724
1137.96,0.01747
1132.17,0.01825
1126.39,0.01876
1120.6,0.01845
1114.81,0.01854
1109.03,0.01839
1103.24,0.01840
1097.46,0.01836
1091.67,0.01762
1085.88,0.01863
1080.1,0.01913
1074.31,0.01913
1068.52,0.01970
1062.74,0.01980
1056.95,0.01966
1051.17,0.01965
1045.38,0.01971
1039.59,0.01956
1033.81,0.01905
1028.02,0.01954
1022.24,0.01923
1016.45,0.01900
1010.66,0.02044
1004.88,0.02089
999.09,0.02104
993.304,0.02101
987.518,0.02112
981.731,0.02095
975.945,0.02015
970.159,0.02048
964.373,0.01957
958.586,0.02022
952.8,0.02028
947.014,0.02039
941.228,0.01939
935.441,0.01998
929.655,0.01934
923.869,0.01894
918.083,0.01885
912.297,0.01876
906.51,0.01937
900.724,0.01901
894.938,0.01857
889.152,0.01886
883.365,0.01915
877.579,0.01886
871.793,0.01855
866.007,0.01933
860.22,0.01901
854.434,0.01842
848.648,0.01894
842.862,0.01843
837.075,0.01816
831.289,0.01794
825.503,0.01908
819.717,0.01893
813.931,0.01909
808.144,0.01939
802.358,0.01843
796.572,0.01870
790.786,0.01919
784.999,0.01849
779.213,0.01921
773.427,0.01901
767.641,0.01829
761.854,0.01722
756.068,0.01727
750.282,0.01830
744.496,0.01838
738.709,0.01809
732.923,0.01790
727.137,0.01841
721.351,0.01758
715.565,0.01812
709.778,0.01699
703.992,0.01797
698.206,0.01930
692.42,0.01697
686.633,0.01738
680.847,0.01721
675.061,0.01854
669.275,0.01772
663.488,0.01765
657.702,0.01653
651.916,0.01712
646.13,0.01644
640.343,0.01637
634.557,0.01695
628.771,0.01738
622.985,0.01521
617.198,0.01458
611.412,0.01458
605.626,0.01547
599.84,0.01696