File: 01_Data/PEVA/FTIR/ATR/PEVA_ATR_240705_R12.0.dpt
4498.36,0.00216
4495.46,0.00201
4492.57,0.00194
4489.68,0.00195
4486.79,0.00221
4483.89,0.00197
4481,0.00193
4478.11,0.00203
4475.21,0.00217
4472.32,0.00208
4469.43,0.00194
4466.54,0.00198
4463.64,0.00207
4460.75,0.00212
4457.86,0.00206
4454.96,0.00203
4452.07,0.00193
4449.18,0.00209
4446.29,0.00197
4443.39,0.00207
4440.5,0.00217
4437.61,0.00209
4434.72,0.00232
4431.82,0.00217
4428.93,0.00210
4426.04,0.00206
4423.14,0.00248
4420.25,0.00234
4417.36,0.00236
4414.47,0.00241
4411.57,0.00252
4408.68,0.00265
4405.79,0.00249
4402.89,0.00262
4400,0.00254
4397.11,0.00272
4394.22,0.00263
4391.32,0.00264
4388.43,0.00240
4385.54,0.00265
4382.64,0.00264
4379.75,0.00263
4376.86,0.00267
4373.97,0.00284
4371.07,0.00271
4368.18,0.00280
4365.29,0.00269
4362.39,0.00273
4359.5,0.00283
4356.61,0.00290
4353.72,0.00307
4350.82,0.00307
4347.93,0.00319
4345.04,0.00317
4342.14,0.00325
4339.25,0.00322
4336.36,0.00329
4333.47,0.00353
4330.57,0.00344
4327.68,0.00309
4324.79,0.00330
4321.89,0.00306
4319,0.00286
4316.11,0.00296
4313.22,0.00289
4310.32,0.00280
4307.43,0.00276
4304.54,0.00294
4301.64,0.00303
4298.75,0.00293
4295.86,0.00278
4292.97,0.00282
4290.07,0.00298
4287.18,0.00288
4284.29,0.00295
4281.39,0.00262
4278.5,0.00295
4275.61,0.00275
4272.72,0.00278
4269.82,0.00301
4266.93,0.00294
4264.04,0.00281
4261.15,0.00296
4258.25,0.00289
4255.36,0.00305
4252.47,0.00283
4249.57,0.00288
4246.68,0.00289
4243.79,0.00299
4240.9,0.00295
4238,0.00278
4235.11,0.00299
4232.22,0.00308
4229.32,0.00322
4226.43,0.00302
4223.54,0.00291
4220.65,0.00306
4217.75,0.00286
4214.86,0.00319
4211.97,0.00299
4209.07,0.00295
4206.18,0.00289
4203.29,0.00295
4200.4,0.00297
4197.5,0.00284
4194.61,0.00294
4191.72,0.00288
4188.82,0.00291
4185.93,0.00284
4183.04,0.00299
4180.15,0.00294
4177.25,0.00270
4174.36,0.00271
4171.47,0.00288
4168.57,0.00288
4165.68,0.00282
4162.79,0.00279
4159.9,0.00280
4157,0.00271
4154.11,0.00273
4151.22,0.00266
4148.32,0.00276
4145.43,0.00282
4142.54,0.00275
4139.65,0.00259
4136.75,0.00256
4133.86,0.00274
4130.97,0.00279
4128.07,0.00262
4125.18,0.00262
4122.29,0.00272
4119.4,0.00273
4116.5,0.00273
4113.61,0.00248
4110.72,0.00274
4107.82,0.00285
4104.93,0.00280
4102.04,0.00263
4099.15,0.00273
4096.25,0.00273
4093.36,0.00279
4090.47,0.00281
4087.58,0.00287
4084.68,0.00295
4081.79,0.00297
4078.9,0.00293
4076,0.00286
4073.11,0.00284
4070.22,0.00277
4067.33,0.00272
4064.43,0.00266
4061.54,0.00274
4058.65,0.00259
4055.75,0.00270
4052.86,0.00285
4049.97,0.00269
4047.08,0.00268
4044.18,0.00285
4041.29,0.00267
4038.4,0.00255
4035.5,0.00277
4032.61,0.00261
4029.72,0.00265
4026.83,0.00254
4023.93,0.00257
4021.04,0.00267
4018.15,0.00261
4015.25,0.00256
4012.36,0.00269
4009.47,0.00273
4006.58,0.00276
4003.68,0.00244
4000.79,0.00253
3997.9,0.00257
3995,0.00243
3992.11,0.00255
3989.22,0.00256
3986.33,0.00261
3983.43,0.00265
3980.54,0.00250
3977.65,0.00248
3974.75,0.00249
3971.86,0.00240
3968.97,0.00238
3966.08,0.00237
3963.18,0.00262
3960.29,0.00249
3957.4,0.00250
3954.5,0.00244
3951.61,0.00260
3948.72,0.00257
3945.83,0.00232
3942.93,0.00243
3940.04,0.00237
3937.15,0.00249
3934.25,0.00265
3931.36,0.00256
3928.47,0.00247
3925.58,0.00248
3922.68,0.00248
3919.79,0.00251
3916.9,0.00275
3914,0.00250
3911.11,0.00262
3908.22,0.00249
3905.33,0.00249
3902.43,0.00274
3899.54,0.00281
3896.65,0.00251
3893.76,0.00247
3890.86,0.00261
3887.97,0.00263
3885.08,0.00265
3882.18,0.00278
3879.29,0.00279
3876.4,0.00267
3873.51,0.00270
3870.61,0.00277
3867.72,0.00284
3864.83,0.00287
3861.93,0.00287
3859.04,0.00279
3856.15,0.00297
3853.26,0.00267
3850.36,0.00271
3847.47,0.00268
3844.58,0.00287
3841.68,0.00277
3838.79,0.00283
3835.9,0.00271
3833.01,0.00275
3830.11,0.00272
3827.22,0.00262
3824.33,0.00277
3821.43,0.00285
3818.54,0.00276
3815.65,0.00264
3812.76,0.00252
3809.86,0.00256
3806.97,0.00263
3804.08,0.00276
3801.18,0.00259
3798.29,0.00263
3795.4,0.00269
3792.51,0.00238
3789.61,0.00241
3786.72,0.00248
3783.83,0.00253
3780.93,0.00254
3778.04,0.00256
3775.15,0.00252
3772.26,0.00246
3769.36,0.00240
3766.47,0.00282
3763.58,0.00267
3760.68,0.00278
3757.79,0.00287
3754.9,0.00283
3752.01,0.00307
3749.11,0.00294
3746.22,0.00316
3743.33,0.00311
3740.43,0.00305
3737.54,0.00294
3734.65,0.00312
3731.76,0.00285
3728.86,0.00261
3725.97,0.00262
3723.08,0.00254
3720.19,0.00258
3717.29,0.00238
3714.4,0.00258
3711.51,0.00237
3708.61,0.00239
3705.72,0.00243
3702.83,0.00252
3699.94,0.00237
3697.04,0.00248
3694.15,0.00267
3691.26,0.00263
3688.36,0.00258
3685.47,0.00272
3682.58,0.00279
3679.69,0.00293
3676.79,0.00285
3673.9,0.00257
3671.01,0.00264
3668.11,0.00268
3665.22,0.00265
3662.33,0.00259
3659.44,0.00266
3656.54,0.00286
3653.65,0.00266
3650.76,0.00274
3647.86,0.00289
3644.97,0.00267
3642.08,0.00267
3639.19,0.00264
3636.29,0.00258
3633.4,0.00263
3630.51,0.00293
3627.61,0.00295
3624.72,0.00279
3621.83,0.00276
3618.94,0.00276
3616.04,0.00297
3613.15,0.00287
3610.26,0.00289
3607.36,0.00297
3604.47,0.00289
3601.58,0.00279
3598.69,0.00282
3595.79,0.00279
3592.9,0.00294
3590.01,0.00291
3587.11,0.00297
3584.22,0.00280
3581.33,0.00304
3578.44,0.00306
3575.54,0.00292
3572.65,0.00298
3569.76,0.00320
3566.86,0.00346
3563.97,0.00302
3561.08,0.00301
3558.19,0.00321
3555.29,0.00328
3552.4,0.00329
3549.51,0.00339
3546.61,0.00371
3543.72,0.00328
3540.83,0.00336
3537.94,0.00343
3535.04,0.00321
3532.15,0.00341
3529.26,0.00331
3526.37,0.00333
3523.47,0.00349
3520.58,0.00309
3517.69,0.00335
3514.79,0.00362
3511.9,0.00365
3509.01,0.00355
3506.12,0.00339
3503.22,0.00343
3500.33,0.00343
3497.44,0.00350
3494.54,0.00355
3491.65,0.00351
3488.76,0.00370
3485.87,0.00367
3482.97,0.00384
3480.08,0.00366
3477.19,0.00364
3474.29,0.00366
3471.4,0.00371
3468.51,0.00379
3465.62,0.00388
3462.72,0.00423
3459.83,0.00405
3456.94,0.00389
3454.04,0.00398
3451.15,0.00415
3448.26,0.00419
3445.37,0.00411
3442.47,0.00434
3439.58,0.00436
3436.69,0.00433
3433.79,0.00434
3430.9,0.00435
3428.01,0.00449
3425.12,0.00459
3422.22,0.00457
3419.33,0.00454
3416.44,0.00465
3413.54,0.00418
3410.65,0.00430
3407.76,0.00428
3404.87,0.00413
3401.97,0.00406
3399.08,0.00402
3396.19,0.00409
3393.29,0.00401
3390.4,0.00377
3387.51,0.00382
3384.62,0.00371
3381.72,0.00373
3378.83,0.00362
3375.94,0.00354
3373.04,0.00372
3370.15,0.00361
3367.26,0.00359
3364.37,0.00351
3361.47,0.00344
3358.58,0.00359
3355.69,0.00388
3352.8,0.00372
3349.9,0.00369
3347.01,0.00356
3344.12,0.00359
3341.22,0.00363
3338.33,0.00367
3335.44,0.00370
3332.55,0.00370
3329.65,0.00363
3326.76,0.00359
3323.87,0.00374
3320.97,0.00363
3318.08,0.00362
3315.19,0.00363
3312.3,0.00368
3309.4,0.00392
3306.51,0.00392
3303.62,0.00405
3300.72,0.00404
3297.83,0.00402
3294.94,0.00403
3292.05,0.00409
3289.15,0.00393
3286.26,0.00368
3283.37,0.00390
3280.47,0.00366
3277.58,0.00360
3274.69,0.00348
3271.8,0.00336
3268.9,0.00354
3266.01,0.00335
3263.12,0.00325
3260.22,0.00327
3257.33,0.00314
3254.44,0.00312
3251.55,0.00320
3248.65,0.00328
3245.76,0.00303
3242.87,0.00313
3239.97,0.00325
3237.08,0.00298
3234.19,0.00308
3231.3,0.00304
3228.4,0.00304
3225.51,0.00323
3222.62,0.00311
3219.72,0.00321
3216.83,0.00317
3213.94,0.00307
3211.05,0.00309
3208.15,0.00311
3205.26,0.00309
3202.37,0.00312
3199.47,0.00301
3196.58,0.00316
3193.69,0.00296
3190.8,0.00311
3187.9,0.00311
3185.01,0.00313
3182.12,0.00310
3179.23,0.00308
3176.33,0.00295
3173.44,0.00294
3170.55,0.00308
3167.65,0.00312
3164.76,0.00294
3161.87,0.00294
3158.98,0.00308
3156.08,0.00292
3153.19,0.00283
3150.3,0.00298
3147.4,0.00302
3144.51,0.00324
3141.62,0.00303
3138.73,0.00322
3135.83,0.00304
3132.94,0.00299
3130.05,0.00311
3127.15,0.00307
3124.26,0.00310
3121.37,0.00310
3118.48,0.00303
3115.58,0.00301
3112.69,0.00327
3109.8,0.00333
3106.9,0.00327
3104.01,0.00328
3101.12,0.00343
3098.23,0.00342
3095.33,0.00346
3092.44,0.00343
3089.55,0.00348
3086.65,0.00354
3083.76,0.00361
3080.87,0.00367
3077.98,0.00366
3075.08,0.00364
3072.19,0.00372
3069.3,0.00376
3066.4,0.00394
3063.51,0.00401
3060.62,0.00405
3057.73,0.00408
3054.83,0.00423
3051.94,0.00414
3049.05,0.00399
3046.15,0.00387
3043.26,0.00390
3040.37,0.00385
3037.48,0.00406
3034.58,0.00417
3031.69,0.00419
3028.8,0.00431
3025.9,0.00434
3023.01,0.00446
3020.12,0.00466
3017.23,0.00488
3014.33,0.00508
3011.44,0.00536
3008.55,0.00566
3005.65,0.00612
3002.76,0.00670
2999.87,0.00732
2996.98,0.00798
2994.08,0.00919
2991.19,0.01057
2988.3,0.01238
2985.41,0.01483
2982.51,0.01794
2979.62,0.02186
2976.73,0.02672
2973.83,0.03219
2970.94,0.03846
2968.05,0.04542
2965.16,0.05178
2962.26,0.05661
2959.37,0.05832
2956.48,0.05681
2953.58,0.05236
2950.69,0.04697
2947.8,0.04317
2944.91,0.04262
2942.01,0.04522
2939.12,0.04983
2936.23,0.05551
2933.33,0.06048
2930.44,0.06362
2927.55,0.06398
2924.66,0.06259
2921.76,0.06050
2918.87,0.05870
2915.98,0.05664
2913.08,0.05339
2910.19,0.05005
2907.3,0.04658
2904.41,0.04268
2901.51,0.03856
2898.62,0.03463
2895.73,0.03123
2892.83,0.02828
2889.94,0.02594
2887.05,0.02464
2884.16,0.02477
2881.26,0.02658
2878.37,0.03006
2875.48,0.03365
2872.58,0.03498
2869.69,0.03384
2866.8,0.03289
2863.91,0.03458
2861.01,0.03703
2858.12,0.03713
2855.23,0.03393
2852.33,0.02976
2849.44,0.02567
2846.55,0.02095
2843.66,0.01662
2840.76,0.01417
2837.87,0.01201
2834.98,0.01072
2832.08,0.00978
2829.19,0.00911
2826.3,0.00862
2823.41,0.00839
2820.51,0.00831
2817.62,0.00826
2814.73,0.00792
2811.84,0.00732
2808.94,0.00656
2806.05,0.00636
2803.16,0.00603
2800.26,0.00556
2797.37,0.00537
2794.48,0.00522
2791.59,0.00507
2788.69,0.00492
2785.8,0.00470
2782.91,0.00463
2780.01,0.00466
2777.12,0.00455
2774.23,0.00439
2771.34,0.00441
2768.44,0.00440
2765.55,0.00441
2762.66,0.00429
2759.76,0.00429
2756.87,0.00432
2753.98,0.00430
2751.09,0.00433
2748.19,0.00433
2745.3,0.00440
2742.41,0.00454
2739.51,0.00459
2736.62,0.00456
2733.73,0.00445
2730.84,0.00461
2727.94,0.00447
2725.05,0.00425
2722.16,0.00412
2719.26,0.00403
2716.37,0.00399
2713.48,0.00399
2710.59,0.00397
2707.69,0.00392
2704.8,0.00385
2701.91,0.00385
2699.01,0.00376
2696.12,0.00376
2693.23,0.00380
2690.34,0.00377
2687.44,0.00379
2684.55,0.00380
2681.66,0.00379
2678.76,0.00378
2675.87,0.00390
2672.98,0.00381
2670.09,0.00378
2667.19,0.00376
2664.3,0.00385
2661.41,0.00385
2658.51,0.00384
2655.62,0.00382
2652.73,0.00376
2649.84,0.00373
2646.94,0.00371
2644.05,0.00373
2641.16,0.00375
2638.26,0.00370
2635.37,0.00371
2632.48,0.00365
2629.59,0.00364
2626.69,0.00352
2623.8,0.00362
2620.91,0.00363
2618.02,0.00356
2615.12,0.00354
2612.23,0.00366
2609.34,0.00336
2606.44,0.00342
2603.55,0.00346
2600.66,0.00336
2597.77,0.00346
2594.87,0.00347
2591.98,0.00345
2589.09,0.00355
2586.19,0.00340
2583.3,0.00333
2580.41,0.00323
2577.52,0.00350
2574.62,0.00353
2571.73,0.00341
2568.84,0.00354
2565.94,0.00341
2563.05,0.00342
2560.16,0.00338
2557.27,0.00352
2554.37,0.00339
2551.48,0.00350
2548.59,0.00352
2545.69,0.00328
2542.8,0.00327
2539.91,0.00344
2537.02,0.00333
2534.12,0.00354
2531.23,0.00328
2528.34,0.00339
2525.44,0.00308
2522.55,0.00317
2519.66,0.00332
2516.77,0.00323
2513.87,0.00319
2510.98,0.00323
2508.09,0.00312
2505.19,0.00311
2502.3,0.00310
2499.41,0.00328
2496.52,0.00318
2493.62,0.00295
2490.73,0.00308
2487.84,0.00303
2484.94,0.00313
2482.05,0.00300
2479.16,0.00307
2476.27,0.00280
2473.37,0.00286
2470.48,0.00283
2467.59,0.00274
2464.69,0.00274
2461.8,0.00292
2458.91,0.00288
2456.02,0.00294
2453.12,0.00267
2450.23,0.00272
2447.34,0.00281
2444.45,0.00263
2441.55,0.00261
2438.66,0.00275
2435.77,0.00274
2432.87,0.00277
2429.98,0.00279
2427.09,0.00276
2424.2,0.00274
2421.3,0.00286
2418.41,0.00273
2415.52,0.00281
2412.62,0.00277
2409.73,0.00284
2406.84,0.00287
2403.95,0.00292
2401.05,0.00285
2398.16,0.00284
2395.27,0.00290
2392.37,0.00300
2389.48,0.00301
2386.59,0.00290
2383.7,0.00320
2380.8,0.00322
2377.91,0.00333
2375.02,0.00343
2372.12,0.00353
2369.23,0.00373
2366.34,0.00380
2363.45,0.00394
2360.55,0.00397
2357.66,0.00396
2354.77,0.00388
2351.87,0.00375
2348.98,0.00350
2346.09,0.00368
2343.2,0.00358
2340.3,0.00349
2337.41,0.00357
2334.52,0.00360
2331.62,0.00358
2328.73,0.00373
2325.84,0.00419
2322.95,0.00394
2320.05,0.00365
2317.16,0.00345
2314.27,0.00312
2311.37,0.00315
2308.48,0.00287
2305.59,0.00304
2302.7,0.00303
2299.8,0.00288
2296.91,0.00293
2294.02,0.00304
2291.12,0.00307
2288.23,0.00298
2285.34,0.00312
2282.45,0.00297
2279.55,0.00287
2276.66,0.00261
2273.77,0.00269
2270.88,0.00275
2267.98,0.00235
2265.09,0.00253
2262.2,0.00250
2259.3,0.00263
2256.41,0.00276
2253.52,0.00269
2250.63,0.00294
2247.73,0.00314
2244.84,0.00278
2241.95,0.00291
2239.05,0.00349
2236.16,0.00332
2233.27,0.00327
2230.38,0.00307
2227.48,0.00285
2224.59,0.00321
2221.7,0.00338
2218.8,0.00240
2215.91,0.00274
2213.02,0.00260
2210.13,0.00333
2207.23,0.00288
2204.34,0.00234
2201.45,0.00326
2198.55,0.00327
2195.66,0.00298
2192.77,0.00214
2189.88,0.00211
2186.98,0.00232
2184.09,0.00242
2181.2,0.00181
2178.3,0.00205
2175.41,0.00122
2172.52,0.00142
2169.63,0.00258
2166.73,0.00268
2163.84,0.00205
2160.95,0.00241
2158.05,-0.00066
2155.16,-0.00014
2152.27,0.00065
2149.38,0.00091
2146.48,0.00091
2143.59,0.00106
2140.7,0.00090
2137.8,0.00133
2134.91,0.00089
2132.02,0.00090
2129.13,0.00105
2126.23,0.00148
2123.34,0.00172
2120.45,0.00153
2117.55,0.00177
2114.66,0.00217
2111.77,0.00191
2108.88,0.00226
2105.98,0.00200
2103.09,0.00211
2100.2,0.00214
2097.3,0.00181
2094.41,0.00152
2091.52,0.00171
2088.63,0.00189
2085.73,0.00238
2082.84,0.00180
2079.95,0.00197
2077.06,0.00225
2074.16,0.00189
2071.27,0.00191
2068.38,0.00198
2065.48,0.00185
2062.59,0.00190
2059.7,0.00183
2056.81,0.00218
2053.91,0.00204
2051.02,0.00259
2048.13,0.00177
2045.23,0.00204
2042.34,0.00189
2039.45,0.00246
2036.56,0.00196
2033.66,0.00175
2030.77,0.00117
2027.88,0.00157
2024.98,0.00094
2022.09,0.00116
2019.2,0.00149
2016.31,0.00020
2013.41,0.00091
2010.52,0.00144
2007.63,0.00085
2004.73,0.00088
2001.84,0.00083
1998.95,0.00157
1996.06,0.00158
1993.16,0.00202
1990.27,0.00183
1987.38,0.00217
1984.48,0.00186
1981.59,0.00205
1978.7,0.00075
1975.81,0.00047
1972.91,0.00086
1970.02,0.00108
1967.13,0.00147
1964.23,0.00162
1961.34,0.00212
1958.45,0.00176
1955.56,0.00252
1952.66,0.00270
1949.77,0.00237
1946.88,0.00212
1943.98,0.00241
1941.09,0.00190
1938.2,0.00228
1935.31,0.00201
1932.41,0.00215
1929.52,0.00189
1926.63,0.00219
1923.73,0.00188
1920.84,0.00212
1917.95,0.00228
1915.06,0.00210
1912.16,0.00205
1909.27,0.00205
1906.38,0.00202
1903.49,0.00207
1900.59,0.00185
1897.7,0.00213
1894.81,0.00208
1891.91,0.00196
1889.02,0.00192
1886.13,0.00207
1883.24,0.00233
1880.34,0.00211
1877.45,0.00211
1874.56,0.00205
1871.66,0.00222
1868.77,0.00197
1865.88,0.00232
1862.99,0.00212
1860.09,0.00213
1857.2,0.00214
1854.31,0.00232
1851.41,0.00249
1848.52,0.00234
1845.63,0.00264
1842.74,0.00267
1839.84,0.00275
1836.95,0.00284
1834.06,0.00325
1831.16,0.00363
1828.27,0.00339
1825.38,0.00351
1822.49,0.00370
1819.59,0.00355
1816.7,0.00350
1813.81,0.00368
1810.91,0.00380
1808.02,0.00374
1805.13,0.00388
1802.24,0.00395
1799.34,0.00386
1796.45,0.00401
1793.56,0.00414
1790.66,0.00438
1787.77,0.00440
1784.88,0.00447
1781.99,0.00459
1779.09,0.00484
1776.2,0.00507
1773.31,0.00518
1770.41,0.00553
1767.52,0.00590
1764.63,0.00622
1761.74,0.00669
1758.84,0.00736
1755.95,0.00836
1753.06,0.00960
1750.16,0.01127
1747.27,0.01303
1744.38,0.01483
1741.49,0.01755
1738.59,0.02263
1735.7,0.03026
1732.81,0.04884
1729.91,0.06980
1727.02,0.09450
1724.13,0.11893
1721.24,0.14077
1718.34,0.15593
1715.45,0.16278
1712.56,0.15056
1709.67,0.12361
1706.77,0.09083
1703.88,0.06078
1700.99,0.04174
1698.09,0.02785
1695.2,0.02111
1692.31,0.01732
1689.42,0.01524
1686.52,0.01397
1683.63,0.01348
1680.74,0.01311
1677.84,0.01254
1674.95,0.01210
1672.06,0.01165
1669.17,0.01059
1666.27,0.00932
1663.38,0.00851
1660.49,0.00782
1657.59,0.00751
1654.7,0.00719
1651.81,0.00719
1648.92,0.00746
1646.02,0.00739
1643.13,0.00774
1640.24,0.00819
1637.34,0.00841
1634.45,0.00772
1631.56,0.00713
1628.67,0.00701
1625.77,0.00670
1622.88,0.00665
1619.99,0.00688
1617.09,0.00694
1614.2,0.00732
1611.31,0.00733
1608.42,0.00699
1605.52,0.00674
1602.63,0.00643
1599.74,0.00613
1596.84,0.00608
1593.95,0.00613
1591.06,0.00615
1588.17,0.00617
1585.27,0.00668
1582.38,0.00817
1579.49,0.01021
1576.59,0.01040
1573.7,0.00926
1570.81,0.00831
1567.92,0.00806
1565.02,0.00789
1562.13,0.00774
1559.24,0.00780
1556.34,0.00770
1553.45,0.00736
1550.56,0.00726
1547.67,0.00710
1544.77,0.00710
1541.88,0.00696
1538.99,0.00709
1536.1,0.00711
1533.2,0.00709
1530.31,0.00712
1527.42,0.00712
1524.52,0.00691
1521.63,0.00696
1518.74,0.00698
1515.85,0.00698
1512.95,0.00736
1510.06,0.00840
1507.17,0.01194
1504.27,0.01427
1501.38,0.01039
1498.49,0.00813
1495.6,0.00759
1492.7,0.00761
1489.81,0.00812
1486.92,0.00874
1484.02,0.00970
1481.13,0.01155
1478.24,0.01420
1475.35,0.01796
1472.45,0.02437
1469.56,0.03429
1466.67,0.04316
1463.77,0.04750
1460.88,0.04725
1457.99,0.04351
1455.1,0.03758
1452.2,0.03198
1449.31,0.02830
1446.42,0.02714
1443.52,0.02805
1440.63,0.03297
1437.74,0.04132
1434.85,0.04779
1431.95,0.04517
1429.06,0.04732
1426.17,0.05505
1423.27,0.04560
1420.38,0.03489
1417.49,0.03062
1414.6,0.03073
1411.7,0.03650
1408.81,0.04295
1405.92,0.03634
1403.02,0.02551
1400.13,0.02102
1397.24,0.02050
1394.35,0.02278
1391.45,0.02659
1388.56,0.03045
1385.67,0.03572
1382.77,0.04041
1379.88,0.04218
1376.99,0.03921
1374.1,0.03285
1371.2,0.02755
1368.31,0.02491
1365.42,0.02416
1362.53,0.02515
1359.63,0.02671
1356.74,0.02805
1353.85,0.02831
1350.95,0.02726
1348.06,0.02623
1345.17,0.02749
1342.28,0.03156
1339.38,0.03845
1336.49,0.04464
1333.6,0.04621
1330.7,0.04528
1327.81,0.04474
1324.92,0.04418
1322.03,0.04364
1319.13,0.04333
1316.24,0.04270
1313.35,0.04202
1310.45,0.04178
1307.56,0.04303
1304.67,0.04575
1301.78,0.04593
1298.88,0.04569
1295.99,0.04895
1293.1,0.05551
1290.2,0.06589
1287.31,0.08040
1284.42,0.09758
1281.53,0.11712
1278.63,0.13981
1275.74,0.16528
1272.85,0.19161
1269.95,0.21392
1267.06,0.22237
1264.17,0.21035
1261.28,0.18723
1258.38,0.17281
1255.49,0.17438
1252.6,0.18037
1249.7,0.18482
1246.81,0.18285
1243.92,0.16912
1241.03,0.14814
1238.13,0.12693
1235.24,0.10858
1232.35,0.09357
1229.45,0.08138
1226.56,0.06718
1223.67,0.05257
1220.78,0.04328
1217.88,0.03907
1214.99,0.03716
1212.1,0.03721
1209.2,0.03693
1206.31,0.03702
1203.42,0.03725
1200.53,0.03740
1197.63,0.03648
1194.74,0.03446
1191.85,0.03213
1188.95,0.02962
1186.06,0.02695
1183.17,0.02481
1180.28,0.02423
1177.38,0.02517
1174.49,0.02845
1171.6,0.02989
1168.71,0.02767
1165.81,0.02626
1162.92,0.02587
1160.03,0.02574
1157.13,0.02605
1154.24,0.02663
1151.35,0.02707
1148.46,0.02693
1145.56,0.02677
1142.67,0.02661
1139.78,0.02737
1136.88,0.03028
1133.99,0.03569
1131.1,0.04578
1128.21,0.06208
1125.31,0.08572
1122.42,0.11274
1119.53,0.13524
1116.63,0.14292
1113.74,0.13411
1110.85,0.11866
1107.96,0.11449
1105.06,0.13728
1102.17,0.15611
1099.28,0.13887
1096.38,0.10673
1093.49,0.08345
1090.6,0.07217
1087.71,0.06739
1084.81,0.06370
1081.92,0.05738
1079.03,0.04946
1076.13,0.04346
1073.24,0.03917
1070.35,0.03564
1067.46,0.03383
1064.56,0.03206
1061.67,0.03104
1058.78,0.02951
1055.88,0.02812
1052.99,0.02703
1050.1,0.02631
1047.21,0.02565
1044.31,0.02545
1041.42,0.02548
1038.53,0.02544
1035.63,0.02594
1032.74,0.02665
1029.85,0.02792
1026.96,0.02988
1024.06,0.03644
1021.17,0.06770
1018.28,0.09543
1015.38,0.05405
1012.49,0.03695
1009.6,0.03301
1006.71,0.03171
1003.81,0.03229
1000.92,0.03372
998.028,0.03547
995.135,0.03734
992.242,0.03895
989.349,0.03993
986.457,0.04199
983.564,0.04574
980.671,0.04970
977.778,0.05372
974.885,0.05732
971.992,0.06052
969.1,0.06338
966.207,0.06683
963.314,0.07112
960.421,0.07495
957.528,0.07622
954.635,0.07394
951.743,0.06868
948.85,0.06358
945.957,0.05917
943.064,0.05499
940.171,0.05136
937.278,0.04809
934.386,0.04566
931.493,0.04392
928.6,0.04264
925.707,0.04207
922.814,0.04181
919.921,0.03992
917.029,0.03690
914.136,0.03476
911.243,0.03380
908.35,0.03310
905.457,0.03210
902.564,0.03049
899.672,0.02896
896.779,0.02782
893.886,0.02672
890.993,0.02541
888.1,0.02477
885.207,0.02485
882.314,0.02772
879.422,0.03540
876.529,0.04756
873.636,0.05056
870.743,0.04120
867.85,0.03275
864.957,0.02907
862.065,0.02789
859.172,0.02667
856.279,0.02673
853.386,0.02690
850.493,0.02686
847.6,0.02696
844.708,0.02675
841.815,0.02668
838.922,0.02726
836.029,0.02875
833.136,0.02939
830.243,0.02842
827.351,0.02588
824.458,0.02195
821.565,0.01919
818.672,0.01790
815.779,0.01720
812.886,0.01651
809.994,0.01688
807.101,0.01654
804.208,0.01601
801.315,0.01549
798.422,0.01686
795.529,0.02043
792.637,0.01810
789.744,0.01723
786.851,0.01865
783.958,0.01931
781.065,0.01988
778.172,0.02040
775.28,0.02085
772.387,0.02283
769.494,0.02343
766.601,0.02292
763.708,0.02141
760.815,0.01797
757.923,0.01544
755.03,0.01566
752.137,0.01556
749.244,0.01592
746.351,0.01689
743.458,0.02114
740.566,0.03069
737.673,0.05735
734.78,0.11164
731.887,0.16887
728.994,0.16045
726.101,0.09482
723.209,0.05740
720.316,0.04098
717.423,0.03515
714.53,0.03509
711.637,0.03752
708.744,0.04204
705.852,0.04747
702.959,0.05281
700.066,0.05552
697.173,0.05756
694.28,0.05834
691.387,0.05854
688.495,0.05805
685.602,0.05780
682.709,0.05707
679.816,0.05578
676.923,0.05391
674.03,0.05032
671.138,0.04582
668.245,0.04104
665.352,0.03763
662.459,0.03590
659.566,0.03885
656.673,0.04328
653.781,0.05092
650.888,0.05916
647.995,0.06646
645.102,0.07473
642.209,0.08405
639.316,0.09474
636.424,0.10181
633.531,0.10114
630.638,0.09617
627.745,0.09324
624.852,0.09292
621.959,0.09654
619.067,0.10162
616.174,0.10536
613.281,0.10859
610.388,0.10962
607.495,0.10736
604.602,0.10174
601.71,0.09046
599.781,0.07728