File: 01_Data/PEVA/FTIR/ATR/PEVA_ATR_240705_R1.0.dpt
4498.36,0.00139
4495.46,0.00142
4492.57,0.00137
4489.68,0.00154
4486.79,0.00135
4483.89,0.00114
4481,0.00141
4478.11,0.00155
4475.21,0.00130
4472.32,0.00128
4469.43,0.00132
4466.54,0.00114
4463.64,0.00133
4460.75,0.00122
4457.86,0.00140
4454.96,0.00162
4452.07,0.00137
4449.18,0.00122
4446.29,0.00111
4443.39,0.00147
4440.5,0.00154
4437.61,0.00139
4434.72,0.00146
4431.82,0.00153
4428.93,0.00138
4426.04,0.00143
4423.14,0.00161
4420.25,0.00155
4417.36,0.00143
4414.47,0.00152
4411.57,0.00132
4408.68,0.00144
4405.79,0.00182
4402.89,0.00134
4400,0.00140
4397.11,0.00134
4394.22,0.00139
4391.32,0.00147
4388.43,0.00161
4385.54,0.00162
4382.64,0.00172
4379.75,0.00165
4376.86,0.00160
4373.97,0.00157
4371.07,0.00167
4368.18,0.00157
4365.29,0.00159
4362.39,0.00162
4359.5,0.00166
4356.61,0.00165
4353.72,0.00172
4350.82,0.00160
4347.93,0.00157
4345.04,0.00179
4342.14,0.00183
4339.25,0.00170
4336.36,0.00188
4333.47,0.00195
4330.57,0.00189
4327.68,0.00175
4324.79,0.00165
4321.89,0.00170
4319,0.00171
4316.11,0.00169
4313.22,0.00150
4310.32,0.00156
4307.43,0.00159
4304.54,0.00164
4301.64,0.00169
4298.75,0.00148
4295.86,0.00168
4292.97,0.00169
4290.07,0.00188
4287.18,0.00178
4284.29,0.00166
4281.39,0.00171
4278.5,0.00162
4275.61,0.00169
4272.72,0.00161
4269.82,0.00177
4266.93,0.00168
4264.04,0.00179
4261.15,0.00171
4258.25,0.00172
4255.36,0.00168
4252.47,0.00166
4249.57,0.00173
4246.68,0.00151
4243.79,0.00156
4240.9,0.00164
4238,0.00166
4235.11,0.00183
4232.22,0.00161
4229.32,0.00153
4226.43,0.00179
4223.54,0.00168
4220.65,0.00183
4217.75,0.00195
4214.86,0.00174
4211.97,0.00175
4209.07,0.00164
4206.18,0.00189
4203.29,0.00190
4200.4,0.00174
4197.5,0.00175
4194.61,0.00176
4191.72,0.00170
4188.82,0.00169
4185.93,0.00163
4183.04,0.00164
4180.15,0.00185
4177.25,0.00179
4174.36,0.00168
4171.47,0.00170
4168.57,0.00179
4165.68,0.00179
4162.79,0.00171
4159.9,0.00170
4157,0.00163
4154.11,0.00171
4151.22,0.00144
4148.32,0.00180
4145.43,0.00159
4142.54,0.00163
4139.65,0.00168
4136.75,0.00161
4133.86,0.00173
4130.97,0.00169
4128.07,0.00166
4125.18,0.00161
4122.29,0.00155
4119.4,0.00153
4116.5,0.00146
4113.61,0.00169
4110.72,0.00173
4107.82,0.00173
4104.93,0.00149
4102.04,0.00154
4099.15,0.00163
4096.25,0.00165
4093.36,0.00138
4090.47,0.00166
4087.58,0.00163
4084.68,0.00179
4081.79,0.00171
4078.9,0.00175
4076,0.00176
4073.11,0.00176
4070.22,0.00157
4067.33,0.00170
4064.43,0.00161
4061.54,0.00170
4058.65,0.00160
4055.75,0.00165
4052.86,0.00152
4049.97,0.00165
4047.08,0.00139
4044.18,0.00148
4041.29,0.00168
4038.4,0.00151
4035.5,0.00150
4032.61,0.00167
4029.72,0.00172
4026.83,0.00162
4023.93,0.00160
4021.04,0.00167
4018.15,0.00159
4015.25,0.00166
4012.36,0.00164
4009.47,0.00169
4006.58,0.00150
4003.68,0.00142
4000.79,0.00162
3997.9,0.00159
3995,0.00150
3992.11,0.00139
3989.22,0.00140
3986.33,0.00145
3983.43,0.00150
3980.54,0.00157
3977.65,0.00160
3974.75,0.00155
3971.86,0.00153
3968.97,0.00153
3966.08,0.00153
3963.18,0.00142
3960.29,0.00159
3957.4,0.00161
3954.5,0.00143
3951.61,0.00154
3948.72,0.00159
3945.83,0.00164
3942.93,0.00171
3940.04,0.00168
3937.15,0.00163
3934.25,0.00163
3931.36,0.00143
3928.47,0.00139
3925.58,0.00153
3922.68,0.00163
3919.79,0.00157
3916.9,0.00153
3914,0.00156
3911.11,0.00168
3908.22,0.00158
3905.33,0.00178
3902.43,0.00151
3899.54,0.00146
3896.65,0.00158
3893.76,0.00157
3890.86,0.00173
3887.97,0.00165
3885.08,0.00143
3882.18,0.00144
3879.29,0.00155
3876.4,0.00160
3873.51,0.00156
3870.61,0.00156
3867.72,0.00146
3864.83,0.00141
3861.93,0.00152
3859.04,0.00162
3856.15,0.00147
3853.26,0.00110
3850.36,0.00133
3847.47,0.00141
3844.58,0.00149
3841.68,0.00153
3838.79,0.00144
3835.9,0.00139
3833.01,0.00148
3830.11,0.00140
3827.22,0.00161
3824.33,0.00151
3821.43,0.00150
3818.54,0.00140
3815.65,0.00146
3812.76,0.00151
3809.86,0.00146
3806.97,0.00144
3804.08,0.00150
3801.18,0.00165
3798.29,0.00126
3795.4,0.00150
3792.51,0.00153
3789.61,0.00137
3786.72,0.00155
3783.83,0.00148
3780.93,0.00154
3778.04,0.00150
3775.15,0.00147
3772.26,0.00153
3769.36,0.00153
3766.47,0.00155
3763.58,0.00142
3760.68,0.00160
3757.79,0.00144
3754.9,0.00131
3752.01,0.00120
3749.11,0.00135
3746.22,0.00150
3743.33,0.00137
3740.43,0.00141
3737.54,0.00110
3734.65,0.00147
3731.76,0.00144
3728.86,0.00130
3725.97,0.00147
3723.08,0.00148
3720.19,0.00144
3717.29,0.00148
3714.4,0.00137
3711.51,0.00154
3708.61,0.00157
3705.72,0.00138
3702.83,0.00156
3699.94,0.00121
3697.04,0.00141
3694.15,0.00138
3691.26,0.00132
3688.36,0.00160
3685.47,0.00165
3682.58,0.00156
3679.69,0.00155
3676.79,0.00163
3673.9,0.00158
3671.01,0.00152
3668.11,0.00142
3665.22,0.00155
3662.33,0.00147
3659.44,0.00149
3656.54,0.00150
3653.65,0.00148
3650.76,0.00129
3647.86,0.00133
3644.97,0.00154
3642.08,0.00156
3639.19,0.00146
3636.29,0.00153
3633.4,0.00141
3630.51,0.00131
3627.61,0.00133
3624.72,0.00147
3621.83,0.00156
3618.94,0.00168
3616.04,0.00166
3613.15,0.00174
3610.26,0.00160
3607.36,0.00126
3604.47,0.00151
3601.58,0.00159
3598.69,0.00146
3595.79,0.00156
3592.9,0.00157
3590.01,0.00157
3587.11,0.00176
3584.22,0.00166
3581.33,0.00165
3578.44,0.00158
3575.54,0.00142
3572.65,0.00169
3569.76,0.00185
3566.86,0.00180
3563.97,0.00182
3561.08,0.00165
3558.19,0.00171
3555.29,0.00189
3552.4,0.00182
3549.51,0.00182
3546.61,0.00176
3543.72,0.00188
3540.83,0.00188
3537.94,0.00191
3535.04,0.00173
3532.15,0.00176
3529.26,0.00183
3526.37,0.00192
3523.47,0.00158
3520.58,0.00186
3517.69,0.00191
3514.79,0.00204
3511.9,0.00208
3509.01,0.00195
3506.12,0.00166
3503.22,0.00176
3500.33,0.00182
3497.44,0.00190
3494.54,0.00193
3491.65,0.00179
3488.76,0.00203
3485.87,0.00196
3482.97,0.00189
3480.08,0.00190
3477.19,0.00192
3474.29,0.00205
3471.4,0.00201
3468.51,0.00216
3465.62,0.00217
3462.72,0.00213
3459.83,0.00210
3456.94,0.00217
3454.04,0.00215
3451.15,0.00211
3448.26,0.00214
3445.37,0.00220
3442.47,0.00207
3439.58,0.00232
3436.69,0.00243
3433.79,0.00229
3430.9,0.00234
3428.01,0.00228
3425.12,0.00233
3422.22,0.00236
3419.33,0.00246
3416.44,0.00237
3413.54,0.00217
3410.65,0.00212
3407.76,0.00216
3404.87,0.00234
3401.97,0.00215
3399.08,0.00203
3396.19,0.00209
3393.29,0.00211
3390.4,0.00222
3387.51,0.00214
3384.62,0.00206
3381.72,0.00206
3378.83,0.00190
3375.94,0.00187
3373.04,0.00199
3370.15,0.00209
3367.26,0.00210
3364.37,0.00209
3361.47,0.00209
3358.58,0.00183
3355.69,0.00199
3352.8,0.00198
3349.9,0.00193
3347.01,0.00184
3344.12,0.00202
3341.22,0.00191
3338.33,0.00193
3335.44,0.00207
3332.55,0.00214
3329.65,0.00214
3326.76,0.00193
3323.87,0.00194
3320.97,0.00200
3318.08,0.00224
3315.19,0.00208
3312.3,0.00216
3309.4,0.00209
3306.51,0.00220
3303.62,0.00226
3300.72,0.00224
3297.83,0.00222
3294.94,0.00200
3292.05,0.00223
3289.15,0.00231
3286.26,0.00220
3283.37,0.00202
3280.47,0.00201
3277.58,0.00211
3274.69,0.00213
3271.8,0.00208
3268.9,0.00196
3266.01,0.00195
3263.12,0.00187
3260.22,0.00184
3257.33,0.00195
3254.44,0.00183
3251.55,0.00185
3248.65,0.00180
3245.76,0.00181
3242.87,0.00180
3239.97,0.00182
3237.08,0.00182
3234.19,0.00189
3231.3,0.00178
3228.4,0.00181
3225.51,0.00194
3222.62,0.00195
3219.72,0.00195
3216.83,0.00193
3213.94,0.00180
3211.05,0.00186
3208.15,0.00192
3205.26,0.00182
3202.37,0.00178
3199.47,0.00162
3196.58,0.00169
3193.69,0.00184
3190.8,0.00177
3187.9,0.00189
3185.01,0.00177
3182.12,0.00174
3179.23,0.00198
3176.33,0.00183
3173.44,0.00179
3170.55,0.00181
3167.65,0.00178
3164.76,0.00175
3161.87,0.00190
3158.98,0.00191
3156.08,0.00177
3153.19,0.00183
3150.3,0.00179
3147.4,0.00177
3144.51,0.00186
3141.62,0.00198
3138.73,0.00180
3135.83,0.00200
3132.94,0.00194
3130.05,0.00188
3127.15,0.00181
3124.26,0.00188
3121.37,0.00179
3118.48,0.00183
3115.58,0.00187
3112.69,0.00187
3109.8,0.00171
3106.9,0.00188
3104.01,0.00204
3101.12,0.00186
3098.23,0.00196
3095.33,0.00209
3092.44,0.00209
3089.55,0.00206
3086.65,0.00207
3083.76,0.00211
3080.87,0.00213
3077.98,0.00210
3075.08,0.00207
3072.19,0.00218
3069.3,0.00216
3066.4,0.00222
3063.51,0.00229
3060.62,0.00228
3057.73,0.00231
3054.83,0.00234
3051.94,0.00224
3049.05,0.00227
3046.15,0.00215
3043.26,0.00212
3040.37,0.00218
3037.48,0.00227
3034.58,0.00221
3031.69,0.00235
3028.8,0.00233
3025.9,0.00233
3023.01,0.00247
3020.12,0.00253
3017.23,0.00255
3014.33,0.00261
3011.44,0.00276
3008.55,0.00288
3005.65,0.00303
3002.76,0.00322
2999.87,0.00360
2996.98,0.00396
2994.08,0.00434
2991.19,0.00499
2988.3,0.00560
2985.41,0.00654
2982.51,0.00784
2979.62,0.00943
2976.73,0.01121
2973.83,0.01340
2970.94,0.01601
2968.05,0.01856
2965.16,0.02103
2962.26,0.02283
2959.37,0.02364
2956.48,0.02276
2953.58,0.02122
2950.69,0.01921
2947.8,0.01769
2944.91,0.01745
2942.01,0.01849
2939.12,0.02019
2936.23,0.02238
2933.33,0.02410
2930.44,0.02527
2927.55,0.02547
2924.66,0.02470
2921.76,0.02381
2918.87,0.02296
2915.98,0.02215
2913.08,0.02108
2910.19,0.01999
2907.3,0.01863
2904.41,0.01723
2901.51,0.01577
2898.62,0.01434
2895.73,0.01286
2892.83,0.01173
2889.94,0.01077
2887.05,0.01027
2884.16,0.01026
2881.26,0.01104
2878.37,0.01259
2875.48,0.01389
2872.58,0.01445
2869.69,0.01393
2866.8,0.01366
2863.91,0.01429
2861.01,0.01526
2858.12,0.01526
2855.23,0.01394
2852.33,0.01210
2849.44,0.01043
2846.55,0.00870
2843.66,0.00709
2840.76,0.00619
2837.87,0.00549
2834.98,0.00489
2832.08,0.00444
2829.19,0.00423
2826.3,0.00402
2823.41,0.00399
2820.51,0.00384
2817.62,0.00376
2814.73,0.00365
2811.84,0.00336
2808.94,0.00322
2806.05,0.00298
2803.16,0.00309
2800.26,0.00287
2797.37,0.00263
2794.48,0.00258
2791.59,0.00270
2788.69,0.00260
2785.8,0.00253
2782.91,0.00245
2780.01,0.00232
2777.12,0.00231
2774.23,0.00235
2771.34,0.00227
2768.44,0.00225
2765.55,0.00233
2762.66,0.00232
2759.76,0.00225
2756.87,0.00233
2753.98,0.00229
2751.09,0.00249
2748.19,0.00239
2745.3,0.00226
2742.41,0.00241
2739.51,0.00237
2736.62,0.00238
2733.73,0.00240
2730.84,0.00238
2727.94,0.00229
2725.05,0.00228
2722.16,0.00219
2719.26,0.00225
2716.37,0.00226
2713.48,0.00225
2710.59,0.00220
2707.69,0.00216
2704.8,0.00211
2701.91,0.00212
2699.01,0.00210
2696.12,0.00216
2693.23,0.00212
2690.34,0.00216
2687.44,0.00211
2684.55,0.00208
2681.66,0.00212
2678.76,0.00203
2675.87,0.00213
2672.98,0.00213
2670.09,0.00211
2667.19,0.00217
2664.3,0.00212
2661.41,0.00214
2658.51,0.00221
2655.62,0.00219
2652.73,0.00212
2649.84,0.00217
2646.94,0.00215
2644.05,0.00210
2641.16,0.00225
2638.26,0.00219
2635.37,0.00202
2632.48,0.00213
2629.59,0.00216
2626.69,0.00209
2623.8,0.00216
2620.91,0.00211
2618.02,0.00209
2615.12,0.00212
2612.23,0.00197
2609.34,0.00211
2606.44,0.00204
2603.55,0.00209
2600.66,0.00193
2597.77,0.00206
2594.87,0.00196
2591.98,0.00205
2589.09,0.00196
2586.19,0.00195
2583.3,0.00196
2580.41,0.00196
2577.52,0.00199
2574.62,0.00202
2571.73,0.00183
2568.84,0.00185
2565.94,0.00193
2563.05,0.00202
2560.16,0.00183
2557.27,0.00197
2554.37,0.00192
2551.48,0.00183
2548.59,0.00187
2545.69,0.00176
2542.8,0.00184
2539.91,0.00189
2537.02,0.00193
2534.12,0.00172
2531.23,0.00173
2528.34,0.00204
2525.44,0.00165
2522.55,0.00181
2519.66,0.00197
2516.77,0.00172
2513.87,0.00186
2510.98,0.00174
2508.09,0.00162
2505.19,0.00193
2502.3,0.00181
2499.41,0.00160
2496.52,0.00173
2493.62,0.00173
2490.73,0.00165
2487.84,0.00162
2484.94,0.00173
2482.05,0.00169
2479.16,0.00167
2476.27,0.00168
2473.37,0.00163
2470.48,0.00161
2467.59,0.00164
2464.69,0.00163
2461.8,0.00166
2458.91,0.00168
2456.02,0.00176
2453.12,0.00185
2450.23,0.00158
2447.34,0.00157
2444.45,0.00156
2441.55,0.00156
2438.66,0.00156
2435.77,0.00162
2432.87,0.00155
2429.98,0.00161
2427.09,0.00158
2424.2,0.00137
2421.3,0.00132
2418.41,0.00154
2415.52,0.00176
2412.62,0.00174
2409.73,0.00157
2406.84,0.00163
2403.95,0.00154
2401.05,0.00169
2398.16,0.00170
2395.27,0.00157
2392.37,0.00156
2389.48,0.00167
2386.59,0.00159
2383.7,0.00156
2380.8,0.00164
2377.91,0.00152
2375.02,0.00139
2372.12,0.00151
2369.23,0.00133
2366.34,0.00110
2363.45,0.00117
2360.55,0.00126
2357.66,0.00127
2354.77,0.00145
2351.87,0.00146
2348.98,0.00148
2346.09,0.00127
2343.2,0.00138
2340.3,0.00113
2337.41,0.00118
2334.52,0.00140
2331.62,0.00131
2328.73,0.00135
2325.84,0.00171
2322.95,0.00189
2320.05,0.00166
2317.16,0.00168
2314.27,0.00151
2311.37,0.00167
2308.48,0.00169
2305.59,0.00159
2302.7,0.00169
2299.8,0.00148
2296.91,0.00153
2294.02,0.00174
2291.12,0.00186
2288.23,0.00178
2285.34,0.00176
2282.45,0.00153
2279.55,0.00164
2276.66,0.00182
2273.77,0.00153
2270.88,0.00177
2267.98,0.00151
2265.09,0.00160
2262.2,0.00147
2259.3,0.00131
2256.41,0.00160
2253.52,0.00165
2250.63,0.00142
2247.73,0.00129
2244.84,0.00153
2241.95,0.00196
2239.05,0.00144
2236.16,0.00166
2233.27,0.00171
2230.38,0.00124
2227.48,0.00167
2224.59,0.00173
2221.7,0.00141
2218.8,0.00115
2215.91,0.00088
2213.02,0.00140
2210.13,0.00156
2207.23,0.00168
2204.34,0.00131
2201.45,0.00121
2198.55,0.00120
2195.66,0.00125
2192.77,0.00124
2189.88,0.00131
2186.98,0.00040
2184.09,0.00167
2181.2,0.00086
2178.3,0.00107
2175.41,0.00068
2172.52,0.00060
2169.63,0.00088
2166.73,0.00088
2163.84,0.00122
2160.95,0.00073
2158.05,-0.00066
2155.16,-0.00109
2152.27,-0.00077
2149.38,0.00016
2146.48,0.00002
2143.59,0.00045
2140.7,0.00046
2137.8,-0.00017
2134.91,0.00012
2132.02,0.00040
2129.13,0.00113
2126.23,0.00101
2123.34,0.00063
2120.45,0.00147
2117.55,0.00098
2114.66,0.00136
2111.77,0.00088
2108.88,0.00139
2105.98,0.00114
2103.09,0.00096
2100.2,0.00081
2097.3,0.00138
2094.41,0.00116
2091.52,0.00139
2088.63,0.00100
2085.73,0.00100
2082.84,0.00115
2079.95,0.00115
2077.06,0.00133
2074.16,0.00127
2071.27,0.00128
2068.38,0.00115
2065.48,0.00120
2062.59,0.00112
2059.7,0.00137
2056.81,0.00156
2053.91,0.00093
2051.02,0.00199
2048.13,0.00109
2045.23,0.00060
2042.34,0.00103
2039.45,0.00186
2036.56,0.00145
2033.66,0.00084
2030.77,0.00111
2027.88,0.00129
2024.98,0.00115
2022.09,0.00109
2019.2,0.00059
2016.31,0.00140
2013.41,0.00135
2010.52,0.00069
2007.63,0.00182
2004.73,0.00044
2001.84,0.00061
1998.95,0.00064
1996.06,0.00055
1993.16,0.00185
1990.27,0.00125
1987.38,0.00157
1984.48,0.00132
1981.59,0.00082
1978.7,0.00102
1975.81,0.00079
1972.91,0.00170
1970.02,0.00083
1967.13,0.00127
1964.23,0.00036
1961.34,0.00105
1958.45,0.00074
1955.56,0.00099
1952.66,0.00120
1949.77,0.00112
1946.88,0.00106
1943.98,0.00069
1941.09,0.00124
1938.2,0.00134
1935.31,0.00165
1932.41,0.00152
1929.52,0.00123
1926.63,0.00134
1923.73,0.00097
1920.84,0.00141
1917.95,0.00168
1915.06,0.00134
1912.16,0.00125
1909.27,0.00137
1906.38,0.00134
1903.49,0.00140
1900.59,0.00130
1897.7,0.00121
1894.81,0.00104
1891.91,0.00137
1889.02,0.00131
1886.13,0.00130
1883.24,0.00128
1880.34,0.00125
1877.45,0.00123
1874.56,0.00136
1871.66,0.00138
1868.77,0.00126
1865.88,0.00129
1862.99,0.00145
1860.09,0.00151
1857.2,0.00145
1854.31,0.00138
1851.41,0.00136
1848.52,0.00148
1845.63,0.00180
1842.74,0.00146
1839.84,0.00144
1836.95,0.00161
1834.06,0.00171
1831.16,0.00181
1828.27,0.00177
1825.38,0.00187
1822.49,0.00199
1819.59,0.00215
1816.7,0.00194
1813.81,0.00184
1810.91,0.00184
1808.02,0.00198
1805.13,0.00202
1802.24,0.00203
1799.34,0.00202
1796.45,0.00203
1793.56,0.00221
1790.66,0.00212
1787.77,0.00224
1784.88,0.00232
1781.99,0.00239
1779.09,0.00251
1776.2,0.00256
1773.31,0.00269
1770.41,0.00268
1767.52,0.00279
1764.63,0.00312
1761.74,0.00326
1758.84,0.00335
1755.95,0.00394
1753.06,0.00451
1750.16,0.00501
1747.27,0.00579
1744.38,0.00652
1741.49,0.00763
1738.59,0.00986
1735.7,0.01303
1732.81,0.02042
1729.91,0.02858
1727.02,0.03782
1724.13,0.04662
1721.24,0.05406
1718.34,0.05897
1715.45,0.06140
1712.56,0.05732
1709.67,0.04802
1706.77,0.03626
1703.88,0.02479
1700.99,0.01755
1698.09,0.01194
1695.2,0.00914
1692.31,0.00755
1689.42,0.00671
1686.52,0.00638
1683.63,0.00597
1680.74,0.00577
1677.84,0.00568
1674.95,0.00556
1672.06,0.00545
1669.17,0.00510
1666.27,0.00457
1663.38,0.00436
1660.49,0.00412
1657.59,0.00389
1654.7,0.00394
1651.81,0.00387
1648.92,0.00383
1646.02,0.00378
1643.13,0.00386
1640.24,0.00412
1637.34,0.00417
1634.45,0.00393
1631.56,0.00368
1628.67,0.00370
1625.77,0.00368
1622.88,0.00354
1619.99,0.00359
1617.09,0.00383
1614.2,0.00393
1611.31,0.00385
1608.42,0.00377
1605.52,0.00361
1602.63,0.00349
1599.74,0.00344
1596.84,0.00335
1593.95,0.00331
1591.06,0.00342
1588.17,0.00331
1585.27,0.00348
1582.38,0.00408
1579.49,0.00494
1576.59,0.00519
1573.7,0.00450
1570.81,0.00410
1567.92,0.00396
1565.02,0.00385
1562.13,0.00375
1559.24,0.00392
1556.34,0.00381
1553.45,0.00373
1550.56,0.00361
1547.67,0.00354
1544.77,0.00353
1541.88,0.00334
1538.99,0.00329
1536.1,0.00352
1533.2,0.00358
1530.31,0.00374
1527.42,0.00364
1524.52,0.00346
1521.63,0.00325
1518.74,0.00342
1515.85,0.00367
1512.95,0.00385
1510.06,0.00407
1507.17,0.00562
1504.27,0.00662
1501.38,0.00498
1498.49,0.00412
1495.6,0.00391
1492.7,0.00385
1489.81,0.00398
1486.92,0.00428
1484.02,0.00478
1481.13,0.00557
1478.24,0.00657
1475.35,0.00793
1472.45,0.01058
1469.56,0.01470
1466.67,0.01834
1463.77,0.02000
1460.88,0.01993
1457.99,0.01855
1455.1,0.01608
1452.2,0.01381
1449.31,0.01241
1446.42,0.01190
1443.52,0.01235
1440.63,0.01428
1437.74,0.01758
1434.85,0.02008
1431.95,0.01905
1429.06,0.01987
1426.17,0.02283
1423.27,0.01915
1420.38,0.01487
1417.49,0.01319
1414.6,0.01329
1411.7,0.01577
1408.81,0.01845
1405.92,0.01580
1403.02,0.01130
1400.13,0.00945
1397.24,0.00924
1394.35,0.01029
1391.45,0.01173
1388.56,0.01335
1385.67,0.01560
1382.77,0.01750
1379.88,0.01809
1376.99,0.01678
1374.1,0.01412
1371.2,0.01218
1368.31,0.01106
1365.42,0.01061
1362.53,0.01109
1359.63,0.01178
1356.74,0.01231
1353.85,0.01232
1350.95,0.01200
1348.06,0.01156
1345.17,0.01203
1342.28,0.01367
1339.38,0.01638
1336.49,0.01879
1333.6,0.01952
1330.7,0.01912
1327.81,0.01899
1324.92,0.01872
1322.03,0.01855
1319.13,0.01829
1316.24,0.01818
1313.35,0.01787
1310.45,0.01778
1307.56,0.01832
1304.67,0.01942
1301.78,0.01961
1298.88,0.01953
1295.99,0.02078
1293.1,0.02329
1290.2,0.02730
1287.31,0.03293
1284.42,0.03936
1281.53,0.04659
1278.63,0.05455
1275.74,0.06318
1272.85,0.07188
1269.95,0.07909
1267.06,0.08175
1264.17,0.07800
1261.28,0.07049
1258.38,0.06580
1255.49,0.06629
1252.6,0.06817
1249.7,0.06972
1246.81,0.06925
1243.92,0.06471
1241.03,0.05766
1238.13,0.05008
1235.24,0.04353
1232.35,0.03802
1229.45,0.03319
1226.56,0.02783
1223.67,0.02212
1220.78,0.01843
1217.88,0.01656
1214.99,0.01597
1212.1,0.01591
1209.2,0.01579
1206.31,0.01596
1203.42,0.01599
1200.53,0.01614
1197.63,0.01559
1194.74,0.01481
1191.85,0.01393
1188.95,0.01298
1186.06,0.01186
1183.17,0.01114
1180.28,0.01075
1177.38,0.01109
1174.49,0.01262
1171.6,0.01303
1168.71,0.01212
1165.81,0.01162
1162.92,0.01155
1160.03,0.01151
1157.13,0.01169
1154.24,0.01174
1151.35,0.01195
1148.46,0.01199
1145.56,0.01190
1142.67,0.01181
1139.78,0.01232
1136.88,0.01324
1133.99,0.01560
1131.1,0.01975
1128.21,0.02631
1125.31,0.03543
1122.42,0.04557
1119.53,0.05357
1116.63,0.05661
1113.74,0.05308
1110.85,0.04755
1107.96,0.04602
1105.06,0.05416
1102.17,0.06092
1099.28,0.05473
1096.38,0.04317
1093.49,0.03432
1090.6,0.02990
1087.71,0.02820
1084.81,0.02709
1081.92,0.02425
1079.03,0.02107
1076.13,0.01876
1073.24,0.01671
1070.35,0.01571
1067.46,0.01473
1064.56,0.01416
1061.67,0.01369
1058.78,0.01294
1055.88,0.01258
1052.99,0.01198
1050.1,0.01154
1047.21,0.01145
1044.31,0.01154
1041.42,0.01137
1038.53,0.01138
1035.63,0.01154
1032.74,0.01200
1029.85,0.01238
1026.96,0.01332
1024.06,0.01593
1021.17,0.02831
1018.28,0.03910
1015.38,0.02312
1012.49,0.01623
1009.6,0.01440
1006.71,0.01385
1003.81,0.01419
1000.92,0.01466
998.028,0.01548
995.135,0.01621
992.242,0.01670
989.349,0.01748
986.457,0.01818
983.564,0.01963
980.671,0.02141
977.778,0.02313
974.885,0.02438
971.992,0.02553
969.1,0.02679
966.207,0.02818
963.314,0.02951
960.421,0.03105
957.528,0.03174
954.635,0.03082
951.743,0.02905
948.85,0.02687
945.957,0.02525
943.064,0.02314
940.171,0.02182
937.278,0.02069
934.386,0.01940
931.493,0.01896
928.6,0.01851
925.707,0.01822
922.814,0.01779
919.921,0.01718
917.029,0.01579
914.136,0.01537
911.243,0.01480
908.35,0.01442
905.457,0.01403
902.564,0.01339
899.672,0.01276
896.779,0.01248
893.886,0.01180
890.993,0.01163
888.1,0.01102
885.207,0.01115
882.314,0.01248
879.422,0.01568
876.529,0.02037
873.636,0.02178
870.743,0.01794
867.85,0.01486
864.957,0.01322
862.065,0.01261
859.172,0.01211
856.279,0.01213
853.386,0.01206
850.493,0.01223
847.6,0.01216
844.708,0.01183
841.815,0.01200
838.922,0.01227
836.029,0.01279
833.136,0.01342
830.243,0.01293
827.351,0.01153
824.458,0.00998
821.565,0.00917
818.672,0.00867
815.779,0.00822
812.886,0.00796
809.994,0.00794
807.101,0.00768
804.208,0.00755
801.315,0.00745
798.422,0.00787
795.529,0.00963
792.637,0.00859
789.744,0.00833
786.851,0.00857
783.958,0.00939
781.065,0.00980
778.172,0.00940
775.28,0.01006
772.387,0.00997
769.494,0.01058
766.601,0.01029
763.708,0.00983
760.815,0.00868
757.923,0.00757
755.03,0.00653
752.137,0.00736
749.244,0.00821
746.351,0.00857
743.458,0.01067
740.566,0.01372
737.673,0.02402
734.78,0.04484
731.887,0.06456
728.994,0.06285
726.101,0.03916
723.209,0.02403
720.316,0.01765
717.423,0.01550
714.53,0.01552
711.637,0.01634
708.744,0.01826
705.852,0.02051
702.959,0.02232
700.066,0.02374
697.173,0.02409
694.28,0.02435
691.387,0.02429
688.495,0.02438
685.602,0.02370
682.709,0.02417
679.816,0.02434
676.923,0.02279
674.03,0.02088
671.138,0.01830
668.245,0.01681
665.352,0.01576
662.459,0.01573
659.566,0.01661
656.673,0.01894
653.781,0.02092
650.888,0.02485
647.995,0.02814
645.102,0.03156
642.209,0.03424
639.316,0.03862
636.424,0.04087
633.531,0.04049
630.638,0.03809
627.745,0.03781
624.852,0.03714
621.959,0.03903
619.067,0.04084
616.174,0.04322
613.281,0.04327
610.388,0.04393
607.495,0.04392
604.602,0.04177
601.71,0.03739
599.781,0.03292