File: 01_Data/PEVA/FTIR/ATR/PEVA_ATR_240705_R4.0.dpt
4498.36,0.00141
4495.46,0.00128
4492.57,0.00138
4489.68,0.00143
4486.79,0.00138
4483.89,0.00112
4481,0.00121
4478.11,0.00138
4475.21,0.00131
4472.32,0.00142
4469.43,0.00139
4466.54,0.00126
4463.64,0.00135
4460.75,0.00156
4457.86,0.00159
4454.96,0.00141
4452.07,0.00131
4449.18,0.00142
4446.29,0.00137
4443.39,0.00150
4440.5,0.00169
4437.61,0.00156
4434.72,0.00129
4431.82,0.00156
4428.93,0.00126
4426.04,0.00166
4423.14,0.00147
4420.25,0.00136
4417.36,0.00125
4414.47,0.00157
4411.57,0.00162
4408.68,0.00164
4405.79,0.00140
4402.89,0.00155
4400,0.00139
4397.11,0.00148
4394.22,0.00166
4391.32,0.00161
4388.43,0.00155
4385.54,0.00142
4382.64,0.00159
4379.75,0.00147
4376.86,0.00157
4373.97,0.00166
4371.07,0.00178
4368.18,0.00161
4365.29,0.00144
4362.39,0.00150
4359.5,0.00169
4356.61,0.00166
4353.72,0.00169
4350.82,0.00158
4347.93,0.00167
4345.04,0.00180
4342.14,0.00184
4339.25,0.00184
4336.36,0.00198
4333.47,0.00175
4330.57,0.00193
4327.68,0.00206
4324.79,0.00170
4321.89,0.00165
4319,0.00173
4316.11,0.00186
4313.22,0.00174
4310.32,0.00173
4307.43,0.00167
4304.54,0.00160
4301.64,0.00174
4298.75,0.00169
4295.86,0.00175
4292.97,0.00164
4290.07,0.00167
4287.18,0.00164
4284.29,0.00150
4281.39,0.00152
4278.5,0.00180
4275.61,0.00172
4272.72,0.00150
4269.82,0.00152
4266.93,0.00177
4264.04,0.00186
4261.15,0.00172
4258.25,0.00155
4255.36,0.00157
4252.47,0.00167
4249.57,0.00191
4246.68,0.00160
4243.79,0.00172
4240.9,0.00168
4238,0.00169
4235.11,0.00163
4232.22,0.00161
4229.32,0.00174
4226.43,0.00161
4223.54,0.00173
4220.65,0.00171
4217.75,0.00167
4214.86,0.00188
4211.97,0.00164
4209.07,0.00173
4206.18,0.00164
4203.29,0.00171
4200.4,0.00177
4197.5,0.00166
4194.61,0.00151
4191.72,0.00169
4188.82,0.00177
4185.93,0.00176
4183.04,0.00174
4180.15,0.00173
4177.25,0.00171
4174.36,0.00156
4171.47,0.00172
4168.57,0.00186
4165.68,0.00156
4162.79,0.00167
4159.9,0.00153
4157,0.00159
4154.11,0.00171
4151.22,0.00177
4148.32,0.00165
4145.43,0.00170
4142.54,0.00137
4139.65,0.00153
4136.75,0.00172
4133.86,0.00180
4130.97,0.00175
4128.07,0.00179
4125.18,0.00170
4122.29,0.00162
4119.4,0.00162
4116.5,0.00150
4113.61,0.00160
4110.72,0.00171
4107.82,0.00167
4104.93,0.00166
4102.04,0.00177
4099.15,0.00162
4096.25,0.00173
4093.36,0.00180
4090.47,0.00170
4087.58,0.00172
4084.68,0.00174
4081.79,0.00173
4078.9,0.00170
4076,0.00170
4073.11,0.00168
4070.22,0.00172
4067.33,0.00174
4064.43,0.00167
4061.54,0.00151
4058.65,0.00160
4055.75,0.00166
4052.86,0.00152
4049.97,0.00168
4047.08,0.00165
4044.18,0.00163
4041.29,0.00146
4038.4,0.00150
4035.5,0.00156
4032.61,0.00154
4029.72,0.00156
4026.83,0.00150
4023.93,0.00163
4021.04,0.00151
4018.15,0.00165
4015.25,0.00177
4012.36,0.00173
4009.47,0.00166
4006.58,0.00152
4003.68,0.00166
4000.79,0.00167
3997.9,0.00159
3995,0.00149
3992.11,0.00159
3989.22,0.00162
3986.33,0.00159
3983.43,0.00147
3980.54,0.00155
3977.65,0.00149
3974.75,0.00166
3971.86,0.00158
3968.97,0.00158
3966.08,0.00169
3963.18,0.00149
3960.29,0.00146
3957.4,0.00137
3954.5,0.00149
3951.61,0.00153
3948.72,0.00143
3945.83,0.00153
3942.93,0.00144
3940.04,0.00168
3937.15,0.00149
3934.25,0.00152
3931.36,0.00156
3928.47,0.00166
3925.58,0.00151
3922.68,0.00150
3919.79,0.00157
3916.9,0.00161
3914,0.00174
3911.11,0.00165
3908.22,0.00161
3905.33,0.00148
3902.43,0.00142
3899.54,0.00149
3896.65,0.00151
3893.76,0.00155
3890.86,0.00151
3887.97,0.00153
3885.08,0.00142
3882.18,0.00172
3879.29,0.00155
3876.4,0.00137
3873.51,0.00138
3870.61,0.00129
3867.72,0.00161
3864.83,0.00158
3861.93,0.00145
3859.04,0.00156
3856.15,0.00164
3853.26,0.00132
3850.36,0.00135
3847.47,0.00153
3844.58,0.00150
3841.68,0.00158
3838.79,0.00143
3835.9,0.00143
3833.01,0.00134
3830.11,0.00127
3827.22,0.00126
3824.33,0.00136
3821.43,0.00129
3818.54,0.00135
3815.65,0.00147
3812.76,0.00149
3809.86,0.00155
3806.97,0.00143
3804.08,0.00154
3801.18,0.00145
3798.29,0.00128
3795.4,0.00135
3792.51,0.00153
3789.61,0.00162
3786.72,0.00159
3783.83,0.00143
3780.93,0.00148
3778.04,0.00156
3775.15,0.00153
3772.26,0.00149
3769.36,0.00137
3766.47,0.00158
3763.58,0.00165
3760.68,0.00153
3757.79,0.00151
3754.9,0.00141
3752.01,0.00138
3749.11,0.00135
3746.22,0.00150
3743.33,0.00151
3740.43,0.00150
3737.54,0.00139
3734.65,0.00137
3731.76,0.00143
3728.86,0.00157
3725.97,0.00149
3723.08,0.00148
3720.19,0.00138
3717.29,0.00123
3714.4,0.00146
3711.51,0.00148
3708.61,0.00146
3705.72,0.00149
3702.83,0.00130
3699.94,0.00129
3697.04,0.00154
3694.15,0.00162
3691.26,0.00159
3688.36,0.00150
3685.47,0.00146
3682.58,0.00160
3679.69,0.00156
3676.79,0.00154
3673.9,0.00146
3671.01,0.00127
3668.11,0.00136
3665.22,0.00161
3662.33,0.00143
3659.44,0.00145
3656.54,0.00139
3653.65,0.00149
3650.76,0.00130
3647.86,0.00136
3644.97,0.00152
3642.08,0.00157
3639.19,0.00136
3636.29,0.00148
3633.4,0.00157
3630.51,0.00145
3627.61,0.00152
3624.72,0.00142
3621.83,0.00141
3618.94,0.00122
3616.04,0.00139
3613.15,0.00154
3610.26,0.00164
3607.36,0.00159
3604.47,0.00160
3601.58,0.00173
3598.69,0.00165
3595.79,0.00152
3592.9,0.00151
3590.01,0.00158
3587.11,0.00154
3584.22,0.00157
3581.33,0.00169
3578.44,0.00159
3575.54,0.00165
3572.65,0.00157
3569.76,0.00157
3566.86,0.00152
3563.97,0.00153
3561.08,0.00166
3558.19,0.00154
3555.29,0.00164
3552.4,0.00156
3549.51,0.00163
3546.61,0.00170
3543.72,0.00182
3540.83,0.00176
3537.94,0.00160
3535.04,0.00162
3532.15,0.00144
3529.26,0.00164
3526.37,0.00171
3523.47,0.00163
3520.58,0.00162
3517.69,0.00167
3514.79,0.00175
3511.9,0.00164
3509.01,0.00164
3506.12,0.00160
3503.22,0.00163
3500.33,0.00173
3497.44,0.00184
3494.54,0.00178
3491.65,0.00184
3488.76,0.00167
3485.87,0.00179
3482.97,0.00185
3480.08,0.00181
3477.19,0.00178
3474.29,0.00174
3471.4,0.00169
3468.51,0.00171
3465.62,0.00182
3462.72,0.00188
3459.83,0.00191
3456.94,0.00175
3454.04,0.00185
3451.15,0.00192
3448.26,0.00208
3445.37,0.00175
3442.47,0.00170
3439.58,0.00197
3436.69,0.00201
3433.79,0.00202
3430.9,0.00209
3428.01,0.00189
3425.12,0.00206
3422.22,0.00200
3419.33,0.00211
3416.44,0.00215
3413.54,0.00193
3410.65,0.00193
3407.76,0.00186
3404.87,0.00199
3401.97,0.00191
3399.08,0.00185
3396.19,0.00188
3393.29,0.00210
3390.4,0.00199
3387.51,0.00176
3384.62,0.00199
3381.72,0.00196
3378.83,0.00171
3375.94,0.00174
3373.04,0.00179
3370.15,0.00184
3367.26,0.00188
3364.37,0.00208
3361.47,0.00188
3358.58,0.00167
3355.69,0.00191
3352.8,0.00164
3349.9,0.00175
3347.01,0.00188
3344.12,0.00181
3341.22,0.00187
3338.33,0.00175
3335.44,0.00190
3332.55,0.00211
3329.65,0.00187
3326.76,0.00218
3323.87,0.00210
3320.97,0.00197
3318.08,0.00206
3315.19,0.00216
3312.3,0.00228
3309.4,0.00245
3306.51,0.00234
3303.62,0.00253
3300.72,0.00257
3297.83,0.00256
3294.94,0.00261
3292.05,0.00250
3289.15,0.00247
3286.26,0.00235
3283.37,0.00227
3280.47,0.00214
3277.58,0.00213
3274.69,0.00221
3271.8,0.00213
3268.9,0.00204
3266.01,0.00194
3263.12,0.00196
3260.22,0.00194
3257.33,0.00188
3254.44,0.00181
3251.55,0.00194
3248.65,0.00189
3245.76,0.00187
3242.87,0.00184
3239.97,0.00167
3237.08,0.00176
3234.19,0.00172
3231.3,0.00180
3228.4,0.00166
3225.51,0.00174
3222.62,0.00170
3219.72,0.00168
3216.83,0.00165
3213.94,0.00179
3211.05,0.00170
3208.15,0.00177
3205.26,0.00173
3202.37,0.00166
3199.47,0.00179
3196.58,0.00165
3193.69,0.00163
3190.8,0.00168
3187.9,0.00164
3185.01,0.00178
3182.12,0.00172
3179.23,0.00153
3176.33,0.00173
3173.44,0.00177
3170.55,0.00159
3167.65,0.00168
3164.76,0.00167
3161.87,0.00173
3158.98,0.00168
3156.08,0.00158
3153.19,0.00171
3150.3,0.00170
3147.4,0.00160
3144.51,0.00179
3141.62,0.00181
3138.73,0.00177
3135.83,0.00160
3132.94,0.00164
3130.05,0.00167
3127.15,0.00177
3124.26,0.00183
3121.37,0.00163
3118.48,0.00168
3115.58,0.00184
3112.69,0.00180
3109.8,0.00185
3106.9,0.00191
3104.01,0.00178
3101.12,0.00183
3098.23,0.00187
3095.33,0.00185
3092.44,0.00198
3089.55,0.00187
3086.65,0.00178
3083.76,0.00202
3080.87,0.00204
3077.98,0.00204
3075.08,0.00206
3072.19,0.00194
3069.3,0.00209
3066.4,0.00199
3063.51,0.00200
3060.62,0.00212
3057.73,0.00212
3054.83,0.00205
3051.94,0.00213
3049.05,0.00207
3046.15,0.00194
3043.26,0.00193
3040.37,0.00195
3037.48,0.00206
3034.58,0.00213
3031.69,0.00212
3028.8,0.00217
3025.9,0.00210
3023.01,0.00212
3020.12,0.00220
3017.23,0.00229
3014.33,0.00230
3011.44,0.00247
3008.55,0.00255
3005.65,0.00273
3002.76,0.00279
2999.87,0.00302
2996.98,0.00345
2994.08,0.00374
2991.19,0.00407
2988.3,0.00467
2985.41,0.00547
2982.51,0.00632
2979.62,0.00759
2976.73,0.00890
2973.83,0.01043
2970.94,0.01254
2968.05,0.01452
2965.16,0.01652
2962.26,0.01781
2959.37,0.01844
2956.48,0.01798
2953.58,0.01677
2950.69,0.01504
2947.8,0.01395
2944.91,0.01376
2942.01,0.01448
2939.12,0.01585
2936.23,0.01756
2933.33,0.01909
2930.44,0.02018
2927.55,0.02077
2924.66,0.02073
2921.76,0.02096
2918.87,0.02104
2915.98,0.02075
2913.08,0.01895
2910.19,0.01698
2907.3,0.01555
2904.41,0.01430
2901.51,0.01301
2898.62,0.01177
2895.73,0.01058
2892.83,0.00981
2889.94,0.00907
2887.05,0.00854
2884.16,0.00860
2881.26,0.00913
2878.37,0.01008
2875.48,0.01122
2872.58,0.01153
2869.69,0.01113
2866.8,0.01093
2863.91,0.01159
2861.01,0.01238
2858.12,0.01244
2855.23,0.01174
2852.33,0.01134
2849.44,0.01084
2846.55,0.00869
2843.66,0.00663
2840.76,0.00536
2837.87,0.00469
2834.98,0.00411
2832.08,0.00380
2829.19,0.00364
2826.3,0.00346
2823.41,0.00339
2820.51,0.00334
2817.62,0.00331
2814.73,0.00322
2811.84,0.00300
2808.94,0.00286
2806.05,0.00268
2803.16,0.00257
2800.26,0.00258
2797.37,0.00246
2794.48,0.00241
2791.59,0.00226
2788.69,0.00227
2785.8,0.00221
2782.91,0.00216
2780.01,0.00217
2777.12,0.00219
2774.23,0.00215
2771.34,0.00210
2768.44,0.00203
2765.55,0.00204
2762.66,0.00212
2759.76,0.00219
2756.87,0.00212
2753.98,0.00218
2751.09,0.00217
2748.19,0.00211
2745.3,0.00213
2742.41,0.00225
2739.51,0.00227
2736.62,0.00224
2733.73,0.00223
2730.84,0.00221
2727.94,0.00217
2725.05,0.00214
2722.16,0.00205
2719.26,0.00207
2716.37,0.00206
2713.48,0.00204
2710.59,0.00195
2707.69,0.00187
2704.8,0.00194
2701.91,0.00193
2699.01,0.00204
2696.12,0.00207
2693.23,0.00194
2690.34,0.00189
2687.44,0.00191
2684.55,0.00193
2681.66,0.00198
2678.76,0.00198
2675.87,0.00194
2672.98,0.00191
2670.09,0.00200
2667.19,0.00185
2664.3,0.00202
2661.41,0.00209
2658.51,0.00210
2655.62,0.00213
2652.73,0.00204
2649.84,0.00201
2646.94,0.00210
2644.05,0.00203
2641.16,0.00195
2638.26,0.00203
2635.37,0.00200
2632.48,0.00210
2629.59,0.00195
2626.69,0.00197
2623.8,0.00211
2620.91,0.00195
2618.02,0.00203
2615.12,0.00192
2612.23,0.00203
2609.34,0.00211
2606.44,0.00186
2603.55,0.00200
2600.66,0.00202
2597.77,0.00185
2594.87,0.00202
2591.98,0.00196
2589.09,0.00185
2586.19,0.00187
2583.3,0.00187
2580.41,0.00193
2577.52,0.00187
2574.62,0.00198
2571.73,0.00214
2568.84,0.00186
2565.94,0.00203
2563.05,0.00198
2560.16,0.00211
2557.27,0.00177
2554.37,0.00196
2551.48,0.00180
2548.59,0.00203
2545.69,0.00211
2542.8,0.00209
2539.91,0.00191
2537.02,0.00208
2534.12,0.00182
2531.23,0.00196
2528.34,0.00194
2525.44,0.00185
2522.55,0.00171
2519.66,0.00198
2516.77,0.00204
2513.87,0.00193
2510.98,0.00191
2508.09,0.00191
2505.19,0.00181
2502.3,0.00171
2499.41,0.00180
2496.52,0.00186
2493.62,0.00168
2490.73,0.00172
2487.84,0.00185
2484.94,0.00187
2482.05,0.00182
2479.16,0.00192
2476.27,0.00158
2473.37,0.00173
2470.48,0.00173
2467.59,0.00183
2464.69,0.00186
2461.8,0.00167
2458.91,0.00160
2456.02,0.00177
2453.12,0.00171
2450.23,0.00168
2447.34,0.00179
2444.45,0.00181
2441.55,0.00174
2438.66,0.00175
2435.77,0.00174
2432.87,0.00182
2429.98,0.00167
2427.09,0.00172
2424.2,0.00193
2421.3,0.00181
2418.41,0.00189
2415.52,0.00182
2412.62,0.00172
2409.73,0.00170
2406.84,0.00174
2403.95,0.00187
2401.05,0.00177
2398.16,0.00175
2395.27,0.00171
2392.37,0.00159
2389.48,0.00169
2386.59,0.00188
2383.7,0.00182
2380.8,0.00172
2377.91,0.00162
2375.02,0.00145
2372.12,0.00135
2369.23,0.00140
2366.34,0.00128
2363.45,0.00150
2360.55,0.00158
2357.66,0.00146
2354.77,0.00153
2351.87,0.00163
2348.98,0.00169
2346.09,0.00168
2343.2,0.00161
2340.3,0.00159
2337.41,0.00141
2334.52,0.00149
2331.62,0.00159
2328.73,0.00135
2325.84,0.00182
2322.95,0.00213
2320.05,0.00198
2317.16,0.00202
2314.27,0.00206
2311.37,0.00187
2308.48,0.00196
2305.59,0.00203
2302.7,0.00213
2299.8,0.00189
2296.91,0.00193
2294.02,0.00204
2291.12,0.00204
2288.23,0.00212
2285.34,0.00229
2282.45,0.00215
2279.55,0.00217
2276.66,0.00236
2273.77,0.00251
2270.88,0.00220
2267.98,0.00199
2265.09,0.00205
2262.2,0.00203
2259.3,0.00219
2256.41,0.00228
2253.52,0.00207
2250.63,0.00209
2247.73,0.00233
2244.84,0.00229
2241.95,0.00242
2239.05,0.00218
2236.16,0.00247
2233.27,0.00246
2230.38,0.00216
2227.48,0.00231
2224.59,0.00284
2221.7,0.00259
2218.8,0.00261
2215.91,0.00245
2213.02,0.00254
2210.13,0.00195
2207.23,0.00215
2204.34,0.00263
2201.45,0.00202
2198.55,0.00239
2195.66,0.00220
2192.77,0.00203
2189.88,0.00249
2186.98,0.00228
2184.09,0.00285
2181.2,0.00189
2178.3,0.00236
2175.41,0.00310
2172.52,0.00162
2169.63,0.00279
2166.73,0.00294
2163.84,0.00359
2160.95,0.00290
2158.05,0.00127
2155.16,0.00151
2152.27,0.00200
2149.38,0.00223
2146.48,0.00164
2143.59,0.00237
2140.7,0.00151
2137.8,0.00192
2134.91,0.00121
2132.02,0.00133
2129.13,0.00142
2126.23,0.00121
2123.34,0.00148
2120.45,0.00173
2117.55,0.00175
2114.66,0.00177
2111.77,0.00198
2108.88,0.00207
2105.98,0.00188
2103.09,0.00169
2100.2,0.00200
2097.3,0.00231
2094.41,0.00182
2091.52,0.00170
2088.63,0.00202
2085.73,0.00167
2082.84,0.00189
2079.95,0.00220
2077.06,0.00180
2074.16,0.00177
2071.27,0.00227
2068.38,0.00222
2065.48,0.00194
2062.59,0.00217
2059.7,0.00203
2056.81,0.00208
2053.91,0.00215
2051.02,0.00239
2048.13,0.00232
2045.23,0.00225
2042.34,0.00260
2039.45,0.00316
2036.56,0.00309
2033.66,0.00280
2030.77,0.00227
2027.88,0.00259
2024.98,0.00264
2022.09,0.00195
2019.2,0.00266
2016.31,0.00247
2013.41,0.00156
2010.52,0.00194
2007.63,0.00217
2004.73,0.00177
2001.84,0.00213
1998.95,0.00219
1996.06,0.00206
1993.16,0.00184
1990.27,0.00218
1987.38,0.00233
1984.48,0.00296
1981.59,0.00293
1978.7,0.00195
1975.81,0.00167
1972.91,0.00187
1970.02,0.00252
1967.13,0.00189
1964.23,0.00203
1961.34,0.00179
1958.45,0.00200
1955.56,0.00184
1952.66,0.00234
1949.77,0.00223
1946.88,0.00216
1943.98,0.00237
1941.09,0.00198
1938.2,0.00205
1935.31,0.00189
1932.41,0.00208
1929.52,0.00131
1926.63,0.00178
1923.73,0.00170
1920.84,0.00179
1917.95,0.00161
1915.06,0.00151
1912.16,0.00134
1909.27,0.00160
1906.38,0.00185
1903.49,0.00155
1900.59,0.00172
1897.7,0.00162
1894.81,0.00170
1891.91,0.00145
1889.02,0.00161
1886.13,0.00162
1883.24,0.00169
1880.34,0.00126
1877.45,0.00150
1874.56,0.00161
1871.66,0.00170
1868.77,0.00185
1865.88,0.00153
1862.99,0.00167
1860.09,0.00164
1857.2,0.00163
1854.31,0.00171
1851.41,0.00158
1848.52,0.00148
1845.63,0.00135
1842.74,0.00175
1839.84,0.00166
1836.95,0.00166
1834.06,0.00165
1831.16,0.00174
1828.27,0.00190
1825.38,0.00193
1822.49,0.00167
1819.59,0.00192
1816.7,0.00182
1813.81,0.00182
1810.91,0.00195
1808.02,0.00200
1805.13,0.00201
1802.24,0.00184
1799.34,0.00175
1796.45,0.00184
1793.56,0.00192
1790.66,0.00202
1787.77,0.00221
1784.88,0.00211
1781.99,0.00225
1779.09,0.00219
1776.2,0.00225
1773.31,0.00229
1770.41,0.00228
1767.52,0.00249
1764.63,0.00260
1761.74,0.00276
1758.84,0.00295
1755.95,0.00313
1753.06,0.00357
1750.16,0.00403
1747.27,0.00446
1744.38,0.00505
1741.49,0.00596
1738.59,0.00759
1735.7,0.00980
1732.81,0.01527
1729.91,0.02168
1727.02,0.02865
1724.13,0.03522
1721.24,0.04072
1718.34,0.04446
1715.45,0.04622
1712.56,0.04328
1709.67,0.03648
1706.77,0.02762
1703.88,0.01892
1700.99,0.01309
1698.09,0.00904
1695.2,0.00689
1692.31,0.00593
1689.42,0.00520
1686.52,0.00477
1683.63,0.00425
1680.74,0.00448
1677.84,0.00450
1674.95,0.00421
1672.06,0.00411
1669.17,0.00387
1666.27,0.00367
1663.38,0.00338
1660.49,0.00328
1657.59,0.00316
1654.7,0.00291
1651.81,0.00295
1648.92,0.00328
1646.02,0.00329
1643.13,0.00381
1640.24,0.00416
1637.34,0.00402
1634.45,0.00368
1631.56,0.00346
1628.67,0.00310
1625.77,0.00307
1622.88,0.00299
1619.99,0.00315
1617.09,0.00318
1614.2,0.00329
1611.31,0.00327
1608.42,0.00311
1605.52,0.00305
1602.63,0.00303
1599.74,0.00288
1596.84,0.00282
1593.95,0.00290
1591.06,0.00300
1588.17,0.00296
1585.27,0.00307
1582.38,0.00366
1579.49,0.00418
1576.59,0.00414
1573.7,0.00403
1570.81,0.00377
1567.92,0.00376
1565.02,0.00380
1562.13,0.00368
1559.24,0.00325
1556.34,0.00326
1553.45,0.00338
1550.56,0.00344
1547.67,0.00345
1544.77,0.00335
1541.88,0.00322
1538.99,0.00307
1536.1,0.00322
1533.2,0.00309
1530.31,0.00319
1527.42,0.00309
1524.52,0.00285
1521.63,0.00277
1518.74,0.00284
1515.85,0.00289
1512.95,0.00306
1510.06,0.00322
1507.17,0.00422
1504.27,0.00520
1501.38,0.00412
1498.49,0.00331
1495.6,0.00313
1492.7,0.00324
1489.81,0.00321
1486.92,0.00347
1484.02,0.00391
1481.13,0.00452
1478.24,0.00538
1475.35,0.00648
1472.45,0.00850
1469.56,0.01184
1466.67,0.01452
1463.77,0.01569
1460.88,0.01553
1457.99,0.01427
1455.1,0.01244
1452.2,0.01093
1449.31,0.00980
1446.42,0.00939
1443.52,0.00977
1440.63,0.01121
1437.74,0.01366
1434.85,0.01569
1431.95,0.01487
1429.06,0.01540
1426.17,0.01768
1423.27,0.01486
1420.38,0.01159
1417.49,0.01026
1414.6,0.01045
1411.7,0.01225
1408.81,0.01429
1405.92,0.01228
1403.02,0.00886
1400.13,0.00753
1397.24,0.00733
1394.35,0.00800
1391.45,0.00931
1388.56,0.01060
1385.67,0.01196
1382.77,0.01356
1379.88,0.01412
1376.99,0.01313
1374.1,0.01106
1371.2,0.00963
1368.31,0.00875
1365.42,0.00842
1362.53,0.00859
1359.63,0.00923
1356.74,0.00961
1353.85,0.00975
1350.95,0.00954
1348.06,0.00919
1345.17,0.00948
1342.28,0.01084
1339.38,0.01287
1336.49,0.01473
1333.6,0.01526
1330.7,0.01502
1327.81,0.01487
1324.92,0.01466
1322.03,0.01457
1319.13,0.01435
1316.24,0.01414
1313.35,0.01397
1310.45,0.01390
1307.56,0.01420
1304.67,0.01512
1301.78,0.01508
1298.88,0.01516
1295.99,0.01615
1293.1,0.01801
1290.2,0.02105
1287.31,0.02509
1284.42,0.03012
1281.53,0.03536
1278.63,0.04135
1275.74,0.04778
1272.85,0.05433
1269.95,0.05967
1267.06,0.06155
1264.17,0.05880
1261.28,0.05340
1258.38,0.04981
1255.49,0.05002
1252.6,0.05153
1249.7,0.05275
1246.81,0.05237
1243.92,0.04907
1241.03,0.04383
1238.13,0.03834
1235.24,0.03333
1232.35,0.02912
1229.45,0.02557
1226.56,0.02126
1223.67,0.01719
1220.78,0.01420
1217.88,0.01295
1214.99,0.01254
1212.1,0.01238
1209.2,0.01236
1206.31,0.01242
1203.42,0.01258
1200.53,0.01260
1197.63,0.01241
1194.74,0.01175
1191.85,0.01087
1188.95,0.01005
1186.06,0.00925
1183.17,0.00861
1180.28,0.00842
1177.38,0.00873
1174.49,0.00969
1171.6,0.01014
1168.71,0.00946
1165.81,0.00910
1162.92,0.00896
1160.03,0.00884
1157.13,0.00917
1154.24,0.00923
1151.35,0.00943
1148.46,0.00945
1145.56,0.00935
1142.67,0.00950
1139.78,0.00954
1136.88,0.01044
1133.99,0.01204
1131.1,0.01525
1128.21,0.02008
1125.31,0.02686
1122.42,0.03443
1119.53,0.04050
1116.63,0.04257
1113.74,0.04034
1110.85,0.03597
1107.96,0.03504
1105.06,0.04098
1102.17,0.04611
1099.28,0.04183
1096.38,0.03339
1093.49,0.02641
1090.6,0.02301
1087.71,0.02160
1084.81,0.02073
1081.92,0.01878
1079.03,0.01656
1076.13,0.01438
1073.24,0.01289
1070.35,0.01193
1067.46,0.01170
1064.56,0.01112
1061.67,0.01063
1058.78,0.00992
1055.88,0.00969
1052.99,0.00941
1050.1,0.00931
1047.21,0.00909
1044.31,0.00895
1041.42,0.00901
1038.53,0.00897
1035.63,0.00913
1032.74,0.00943
1029.85,0.00991
1026.96,0.01035
1024.06,0.01243
1021.17,0.02183
1018.28,0.02985
1015.38,0.01795
1012.49,0.01268
1009.6,0.01122
1006.71,0.01082
1003.81,0.01128
1000.92,0.01138
998.028,0.01209
995.135,0.01294
992.242,0.01330
989.349,0.01349
986.457,0.01417
983.564,0.01543
980.671,0.01674
977.778,0.01772
974.885,0.01874
971.992,0.01986
969.1,0.02091
966.207,0.02185
963.314,0.02319
960.421,0.02430
957.528,0.02435
954.635,0.02357
951.743,0.02230
948.85,0.02103
945.957,0.01963
943.064,0.01833
940.171,0.01681
937.278,0.01617
934.386,0.01545
931.493,0.01499
928.6,0.01453
925.707,0.01456
922.814,0.01422
919.921,0.01351
917.029,0.01268
914.136,0.01216
911.243,0.01174
908.35,0.01150
905.457,0.01118
902.564,0.01053
899.672,0.01049
896.779,0.00981
893.886,0.00963
890.993,0.00909
888.1,0.00876
885.207,0.00894
882.314,0.01002
879.422,0.01221
876.529,0.01600
873.636,0.01697
870.743,0.01400
867.85,0.01169
864.957,0.01051
862.065,0.01011
859.172,0.00972
856.279,0.00979
853.386,0.00993
850.493,0.00949
847.6,0.00925
844.708,0.00937
841.815,0.00978
838.922,0.00990
836.029,0.01017
833.136,0.01039
830.243,0.01045
827.351,0.00930
824.458,0.00799
821.565,0.00716
818.672,0.00684
815.779,0.00647
812.886,0.00645
809.994,0.00635
807.101,0.00625
804.208,0.00651
801.315,0.00602
798.422,0.00641
795.529,0.00770
792.637,0.00697
789.744,0.00698
786.851,0.00720
783.958,0.00743
781.065,0.00764
778.172,0.00792
775.28,0.00785
772.387,0.00839
769.494,0.00858
766.601,0.00924
763.708,0.00793
760.815,0.00768
757.923,0.00660
755.03,0.00610
752.137,0.00566
749.244,0.00537
746.351,0.00639
743.458,0.00790
740.566,0.01147
737.673,0.01884
734.78,0.03486
731.887,0.04969
728.994,0.04804
726.101,0.03028
723.209,0.01917
720.316,0.01449
717.423,0.01291
714.53,0.01248
711.637,0.01281
708.744,0.01480
705.852,0.01595
702.959,0.01756
700.066,0.01887
697.173,0.01904
694.28,0.01968
691.387,0.01961
688.495,0.01972
685.602,0.01987
682.709,0.01946
679.816,0.01971
676.923,0.01820
674.03,0.01640
671.138,0.01595
668.245,0.01354
665.352,0.01326
662.459,0.01328
659.566,0.01337
656.673,0.01502
653.781,0.01719
650.888,0.01955
647.995,0.02181
645.102,0.02407
642.209,0.02717
639.316,0.02947
636.424,0.03130
633.531,0.03193
630.638,0.03024
627.745,0.02885
624.852,0.02982
621.959,0.03218
619.067,0.03329
616.174,0.03298
613.281,0.03448
610.388,0.03436
607.495,0.03469
604.602,0.03357
601.71,0.02827
599.781,0.02538