File: 01_Data/PEVA/FTIR/ATR/PEVA_ATR_240705_R8.0.dpt
4498.36,0.00137
4495.46,0.00144
4492.57,0.00141
4489.68,0.00156
4486.79,0.00141
4483.89,0.00129
4481,0.00141
4478.11,0.00138
4475.21,0.00149
4472.32,0.00129
4469.43,0.00115
4466.54,0.00139
4463.64,0.00139
4460.75,0.00135
4457.86,0.00142
4454.96,0.00133
4452.07,0.00133
4449.18,0.00125
4446.29,0.00139
4443.39,0.00132
4440.5,0.00134
4437.61,0.00159
4434.72,0.00175
4431.82,0.00164
4428.93,0.00152
4426.04,0.00153
4423.14,0.00131
4420.25,0.00150
4417.36,0.00143
4414.47,0.00166
4411.57,0.00172
4408.68,0.00163
4405.79,0.00161
4402.89,0.00157
4400,0.00156
4397.11,0.00147
4394.22,0.00142
4391.32,0.00146
4388.43,0.00153
4385.54,0.00160
4382.64,0.00161
4379.75,0.00158
4376.86,0.00164
4373.97,0.00163
4371.07,0.00148
4368.18,0.00163
4365.29,0.00150
4362.39,0.00158
4359.5,0.00154
4356.61,0.00159
4353.72,0.00159
4350.82,0.00154
4347.93,0.00163
4345.04,0.00159
4342.14,0.00170
4339.25,0.00151
4336.36,0.00159
4333.47,0.00153
4330.57,0.00150
4327.68,0.00174
4324.79,0.00171
4321.89,0.00165
4319,0.00197
4316.11,0.00160
4313.22,0.00166
4310.32,0.00163
4307.43,0.00135
4304.54,0.00157
4301.64,0.00171
4298.75,0.00168
4295.86,0.00160
4292.97,0.00152
4290.07,0.00146
4287.18,0.00147
4284.29,0.00153
4281.39,0.00155
4278.5,0.00144
4275.61,0.00149
4272.72,0.00161
4269.82,0.00144
4266.93,0.00141
4264.04,0.00150
4261.15,0.00146
4258.25,0.00153
4255.36,0.00161
4252.47,0.00154
4249.57,0.00161
4246.68,0.00161
4243.79,0.00141
4240.9,0.00147
4238,0.00144
4235.11,0.00166
4232.22,0.00154
4229.32,0.00173
4226.43,0.00155
4223.54,0.00141
4220.65,0.00159
4217.75,0.00174
4214.86,0.00150
4211.97,0.00152
4209.07,0.00157
4206.18,0.00156
4203.29,0.00151
4200.4,0.00170
4197.5,0.00151
4194.61,0.00166
4191.72,0.00154
4188.82,0.00157
4185.93,0.00162
4183.04,0.00158
4180.15,0.00146
4177.25,0.00155
4174.36,0.00154
4171.47,0.00161
4168.57,0.00157
4165.68,0.00141
4162.79,0.00145
4159.9,0.00153
4157,0.00172
4154.11,0.00148
4151.22,0.00144
4148.32,0.00140
4145.43,0.00145
4142.54,0.00142
4139.65,0.00144
4136.75,0.00148
4133.86,0.00159
4130.97,0.00162
4128.07,0.00148
4125.18,0.00160
4122.29,0.00148
4119.4,0.00157
4116.5,0.00142
4113.61,0.00153
4110.72,0.00150
4107.82,0.00141
4104.93,0.00157
4102.04,0.00143
4099.15,0.00149
4096.25,0.00146
4093.36,0.00143
4090.47,0.00159
4087.58,0.00157
4084.68,0.00149
4081.79,0.00162
4078.9,0.00146
4076,0.00149
4073.11,0.00156
4070.22,0.00162
4067.33,0.00157
4064.43,0.00161
4061.54,0.00153
4058.65,0.00136
4055.75,0.00136
4052.86,0.00139
4049.97,0.00162
4047.08,0.00169
4044.18,0.00139
4041.29,0.00153
4038.4,0.00151
4035.5,0.00152
4032.61,0.00141
4029.72,0.00158
4026.83,0.00158
4023.93,0.00145
4021.04,0.00147
4018.15,0.00156
4015.25,0.00154
4012.36,0.00149
4009.47,0.00144
4006.58,0.00155
4003.68,0.00144
4000.79,0.00150
3997.9,0.00146
3995,0.00154
3992.11,0.00151
3989.22,0.00133
3986.33,0.00143
3983.43,0.00128
3980.54,0.00145
3977.65,0.00141
3974.75,0.00148
3971.86,0.00141
3968.97,0.00131
3966.08,0.00142
3963.18,0.00146
3960.29,0.00156
3957.4,0.00157
3954.5,0.00143
3951.61,0.00146
3948.72,0.00139
3945.83,0.00145
3942.93,0.00142
3940.04,0.00140
3937.15,0.00144
3934.25,0.00153
3931.36,0.00132
3928.47,0.00141
3925.58,0.00148
3922.68,0.00143
3919.79,0.00150
3916.9,0.00153
3914,0.00150
3911.11,0.00143
3908.22,0.00153
3905.33,0.00149
3902.43,0.00148
3899.54,0.00143
3896.65,0.00152
3893.76,0.00151
3890.86,0.00138
3887.97,0.00141
3885.08,0.00133
3882.18,0.00139
3879.29,0.00149
3876.4,0.00153
3873.51,0.00147
3870.61,0.00142
3867.72,0.00141
3864.83,0.00139
3861.93,0.00144
3859.04,0.00149
3856.15,0.00171
3853.26,0.00152
3850.36,0.00143
3847.47,0.00150
3844.58,0.00139
3841.68,0.00146
3838.79,0.00126
3835.9,0.00135
3833.01,0.00137
3830.11,0.00154
3827.22,0.00147
3824.33,0.00148
3821.43,0.00153
3818.54,0.00144
3815.65,0.00150
3812.76,0.00155
3809.86,0.00157
3806.97,0.00142
3804.08,0.00147
3801.18,0.00148
3798.29,0.00128
3795.4,0.00150
3792.51,0.00152
3789.61,0.00160
3786.72,0.00150
3783.83,0.00139
3780.93,0.00147
3778.04,0.00143
3775.15,0.00154
3772.26,0.00154
3769.36,0.00144
3766.47,0.00136
3763.58,0.00143
3760.68,0.00147
3757.79,0.00147
3754.9,0.00142
3752.01,0.00142
3749.11,0.00139
3746.22,0.00147
3743.33,0.00141
3740.43,0.00108
3737.54,0.00126
3734.65,0.00147
3731.76,0.00151
3728.86,0.00130
3725.97,0.00144
3723.08,0.00167
3720.19,0.00148
3717.29,0.00150
3714.4,0.00156
3711.51,0.00126
3708.61,0.00131
3705.72,0.00153
3702.83,0.00163
3699.94,0.00138
3697.04,0.00136
3694.15,0.00143
3691.26,0.00129
3688.36,0.00111
3685.47,0.00152
3682.58,0.00160
3679.69,0.00150
3676.79,0.00143
3673.9,0.00141
3671.01,0.00146
3668.11,0.00144
3665.22,0.00157
3662.33,0.00147
3659.44,0.00147
3656.54,0.00144
3653.65,0.00143
3650.76,0.00151
3647.86,0.00149
3644.97,0.00146
3642.08,0.00162
3639.19,0.00167
3636.29,0.00162
3633.4,0.00145
3630.51,0.00164
3627.61,0.00175
3624.72,0.00166
3621.83,0.00165
3618.94,0.00147
3616.04,0.00159
3613.15,0.00165
3610.26,0.00163
3607.36,0.00160
3604.47,0.00165
3601.58,0.00165
3598.69,0.00151
3595.79,0.00151
3592.9,0.00163
3590.01,0.00177
3587.11,0.00165
3584.22,0.00166
3581.33,0.00173
3578.44,0.00158
3575.54,0.00142
3572.65,0.00157
3569.76,0.00151
3566.86,0.00167
3563.97,0.00151
3561.08,0.00156
3558.19,0.00168
3555.29,0.00168
3552.4,0.00162
3549.51,0.00173
3546.61,0.00168
3543.72,0.00166
3540.83,0.00178
3537.94,0.00163
3535.04,0.00191
3532.15,0.00181
3529.26,0.00184
3526.37,0.00175
3523.47,0.00185
3520.58,0.00173
3517.69,0.00183
3514.79,0.00173
3511.9,0.00172
3509.01,0.00168
3506.12,0.00176
3503.22,0.00170
3500.33,0.00182
3497.44,0.00177
3494.54,0.00195
3491.65,0.00176
3488.76,0.00191
3485.87,0.00187
3482.97,0.00183
3480.08,0.00188
3477.19,0.00186
3474.29,0.00196
3471.4,0.00201
3468.51,0.00206
3465.62,0.00185
3462.72,0.00200
3459.83,0.00217
3456.94,0.00196
3454.04,0.00189
3451.15,0.00202
3448.26,0.00199
3445.37,0.00200
3442.47,0.00208
3439.58,0.00197
3436.69,0.00192
3433.79,0.00205
3430.9,0.00199
3428.01,0.00211
3425.12,0.00222
3422.22,0.00204
3419.33,0.00204
3416.44,0.00215
3413.54,0.00218
3410.65,0.00197
3407.76,0.00193
3404.87,0.00198
3401.97,0.00202
3399.08,0.00195
3396.19,0.00204
3393.29,0.00207
3390.4,0.00201
3387.51,0.00208
3384.62,0.00190
3381.72,0.00191
3378.83,0.00206
3375.94,0.00205
3373.04,0.00194
3370.15,0.00192
3367.26,0.00196
3364.37,0.00199
3361.47,0.00198
3358.58,0.00194
3355.69,0.00182
3352.8,0.00199
3349.9,0.00184
3347.01,0.00193
3344.12,0.00197
3341.22,0.00193
3338.33,0.00186
3335.44,0.00205
3332.55,0.00191
3329.65,0.00200
3326.76,0.00208
3323.87,0.00202
3320.97,0.00213
3318.08,0.00212
3315.19,0.00213
3312.3,0.00221
3309.4,0.00233
3306.51,0.00236
3303.62,0.00246
3300.72,0.00244
3297.83,0.00241
3294.94,0.00246
3292.05,0.00240
3289.15,0.00230
3286.26,0.00222
3283.37,0.00205
3280.47,0.00236
3277.58,0.00221
3274.69,0.00215
3271.8,0.00199
3268.9,0.00176
3266.01,0.00185
3263.12,0.00181
3260.22,0.00189
3257.33,0.00175
3254.44,0.00179
3251.55,0.00185
3248.65,0.00194
3245.76,0.00184
3242.87,0.00180
3239.97,0.00174
3237.08,0.00172
3234.19,0.00180
3231.3,0.00174
3228.4,0.00170
3225.51,0.00172
3222.62,0.00172
3219.72,0.00175
3216.83,0.00167
3213.94,0.00175
3211.05,0.00191
3208.15,0.00180
3205.26,0.00187
3202.37,0.00166
3199.47,0.00164
3196.58,0.00164
3193.69,0.00160
3190.8,0.00167
3187.9,0.00164
3185.01,0.00168
3182.12,0.00158
3179.23,0.00159
3176.33,0.00175
3173.44,0.00163
3170.55,0.00175
3167.65,0.00188
3164.76,0.00166
3161.87,0.00168
3158.98,0.00170
3156.08,0.00165
3153.19,0.00157
3150.3,0.00151
3147.4,0.00177
3144.51,0.00179
3141.62,0.00155
3138.73,0.00162
3135.83,0.00164
3132.94,0.00165
3130.05,0.00165
3127.15,0.00149
3124.26,0.00167
3121.37,0.00175
3118.48,0.00155
3115.58,0.00160
3112.69,0.00157
3109.8,0.00165
3106.9,0.00177
3104.01,0.00165
3101.12,0.00182
3098.23,0.00182
3095.33,0.00167
3092.44,0.00170
3089.55,0.00175
3086.65,0.00185
3083.76,0.00178
3080.87,0.00187
3077.98,0.00174
3075.08,0.00171
3072.19,0.00173
3069.3,0.00181
3066.4,0.00171
3063.51,0.00169
3060.62,0.00180
3057.73,0.00181
3054.83,0.00177
3051.94,0.00171
3049.05,0.00174
3046.15,0.00170
3043.26,0.00169
3040.37,0.00182
3037.48,0.00179
3034.58,0.00202
3031.69,0.00180
3028.8,0.00178
3025.9,0.00183
3023.01,0.00183
3020.12,0.00193
3017.23,0.00182
3014.33,0.00189
3011.44,0.00196
3008.55,0.00215
3005.65,0.00224
3002.76,0.00220
2999.87,0.00238
2996.98,0.00264
2994.08,0.00272
2991.19,0.00291
2988.3,0.00330
2985.41,0.00371
2982.51,0.00421
2979.62,0.00493
2976.73,0.00573
2973.83,0.00674
2970.94,0.00795
2968.05,0.00899
2965.16,0.01022
2962.26,0.01101
2959.37,0.01124
2956.48,0.01114
2953.58,0.01042
2950.69,0.00939
2947.8,0.00874
2944.91,0.00854
2942.01,0.00893
2939.12,0.00979
2936.23,0.01081
2933.33,0.01141
2930.44,0.01203
2927.55,0.01232
2924.66,0.01237
2921.76,0.01241
2918.87,0.01261
2915.98,0.01245
2913.08,0.01143
2910.19,0.01027
2907.3,0.00956
2904.41,0.00873
2901.51,0.00800
2898.62,0.00736
2895.73,0.00671
2892.83,0.00627
2889.94,0.00575
2887.05,0.00548
2884.16,0.00552
2881.26,0.00579
2878.37,0.00638
2875.48,0.00706
2872.58,0.00716
2869.69,0.00704
2866.8,0.00684
2863.91,0.00727
2861.01,0.00772
2858.12,0.00767
2855.23,0.00715
2852.33,0.00680
2849.44,0.00675
2846.55,0.00554
2843.66,0.00429
2840.76,0.00362
2837.87,0.00318
2834.98,0.00298
2832.08,0.00271
2829.19,0.00260
2826.3,0.00256
2823.41,0.00241
2820.51,0.00233
2817.62,0.00247
2814.73,0.00239
2811.84,0.00229
2808.94,0.00212
2806.05,0.00200
2803.16,0.00201
2800.26,0.00193
2797.37,0.00183
2794.48,0.00186
2791.59,0.00190
2788.69,0.00191
2785.8,0.00177
2782.91,0.00181
2780.01,0.00188
2777.12,0.00173
2774.23,0.00165
2771.34,0.00179
2768.44,0.00189
2765.55,0.00183
2762.66,0.00181
2759.76,0.00190
2756.87,0.00169
2753.98,0.00175
2751.09,0.00171
2748.19,0.00175
2745.3,0.00184
2742.41,0.00179
2739.51,0.00171
2736.62,0.00175
2733.73,0.00178
2730.84,0.00183
2727.94,0.00175
2725.05,0.00177
2722.16,0.00171
2719.26,0.00174
2716.37,0.00170
2713.48,0.00172
2710.59,0.00167
2707.69,0.00167
2704.8,0.00176
2701.91,0.00164
2699.01,0.00171
2696.12,0.00165
2693.23,0.00169
2690.34,0.00164
2687.44,0.00167
2684.55,0.00167
2681.66,0.00154
2678.76,0.00162
2675.87,0.00166
2672.98,0.00185
2670.09,0.00180
2667.19,0.00162
2664.3,0.00161
2661.41,0.00176
2658.51,0.00174
2655.62,0.00173
2652.73,0.00171
2649.84,0.00163
2646.94,0.00170
2644.05,0.00156
2641.16,0.00158
2638.26,0.00177
2635.37,0.00159
2632.48,0.00170
2629.59,0.00172
2626.69,0.00168
2623.8,0.00167
2620.91,0.00172
2618.02,0.00155
2615.12,0.00153
2612.23,0.00160
2609.34,0.00179
2606.44,0.00169
2603.55,0.00158
2600.66,0.00171
2597.77,0.00166
2594.87,0.00153
2591.98,0.00176
2589.09,0.00156
2586.19,0.00170
2583.3,0.00179
2580.41,0.00176
2577.52,0.00162
2574.62,0.00172
2571.73,0.00155
2568.84,0.00157
2565.94,0.00181
2563.05,0.00173
2560.16,0.00169
2557.27,0.00173
2554.37,0.00175
2551.48,0.00158
2548.59,0.00163
2545.69,0.00173
2542.8,0.00174
2539.91,0.00155
2537.02,0.00169
2534.12,0.00155
2531.23,0.00182
2528.34,0.00160
2525.44,0.00139
2522.55,0.00152
2519.66,0.00174
2516.77,0.00159
2513.87,0.00160
2510.98,0.00157
2508.09,0.00174
2505.19,0.00170
2502.3,0.00165
2499.41,0.00155
2496.52,0.00159
2493.62,0.00163
2490.73,0.00154
2487.84,0.00151
2484.94,0.00147
2482.05,0.00156
2479.16,0.00165
2476.27,0.00162
2473.37,0.00155
2470.48,0.00154
2467.59,0.00161
2464.69,0.00148
2461.8,0.00154
2458.91,0.00155
2456.02,0.00165
2453.12,0.00173
2450.23,0.00157
2447.34,0.00169
2444.45,0.00187
2441.55,0.00184
2438.66,0.00194
2435.77,0.00151
2432.87,0.00161
2429.98,0.00180
2427.09,0.00179
2424.2,0.00169
2421.3,0.00152
2418.41,0.00160
2415.52,0.00167
2412.62,0.00171
2409.73,0.00164
2406.84,0.00171
2403.95,0.00175
2401.05,0.00170
2398.16,0.00158
2395.27,0.00168
2392.37,0.00159
2389.48,0.00161
2386.59,0.00162
2383.7,0.00161
2380.8,0.00133
2377.91,0.00141
2375.02,0.00140
2372.12,0.00122
2369.23,0.00124
2366.34,0.00100
2363.45,0.00102
2360.55,0.00100
2357.66,0.00114
2354.77,0.00120
2351.87,0.00130
2348.98,0.00149
2346.09,0.00138
2343.2,0.00131
2340.3,0.00133
2337.41,0.00121
2334.52,0.00116
2331.62,0.00124
2328.73,0.00117
2325.84,0.00176
2322.95,0.00171
2320.05,0.00177
2317.16,0.00161
2314.27,0.00175
2311.37,0.00169
2308.48,0.00176
2305.59,0.00180
2302.7,0.00185
2299.8,0.00181
2296.91,0.00164
2294.02,0.00182
2291.12,0.00184
2288.23,0.00202
2285.34,0.00223
2282.45,0.00206
2279.55,0.00225
2276.66,0.00217
2273.77,0.00214
2270.88,0.00221
2267.98,0.00196
2265.09,0.00184
2262.2,0.00224
2259.3,0.00236
2256.41,0.00229
2253.52,0.00230
2250.63,0.00235
2247.73,0.00213
2244.84,0.00213
2241.95,0.00236
2239.05,0.00246
2236.16,0.00252
2233.27,0.00280
2230.38,0.00245
2227.48,0.00238
2224.59,0.00238
2221.7,0.00232
2218.8,0.00253
2215.91,0.00301
2213.02,0.00260
2210.13,0.00239
2207.23,0.00199
2204.34,0.00274
2201.45,0.00283
2198.55,0.00268
2195.66,0.00293
2192.77,0.00255
2189.88,0.00271
2186.98,0.00237
2184.09,0.00251
2181.2,0.00201
2178.3,0.00229
2175.41,0.00255
2172.52,0.00214
2169.63,0.00289
2166.73,0.00285
2163.84,0.00303
2160.95,0.00393
2158.05,0.00218
2155.16,0.00142
2152.27,0.00181
2149.38,0.00277
2146.48,0.00187
2143.59,0.00142
2140.7,0.00188
2137.8,0.00184
2134.91,0.00155
2132.02,0.00170
2129.13,0.00183
2126.23,0.00188
2123.34,0.00148
2120.45,0.00168
2117.55,0.00183
2114.66,0.00206
2111.77,0.00185
2108.88,0.00205
2105.98,0.00160
2103.09,0.00213
2100.2,0.00201
2097.3,0.00188
2094.41,0.00177
2091.52,0.00176
2088.63,0.00209
2085.73,0.00198
2082.84,0.00220
2079.95,0.00260
2077.06,0.00204
2074.16,0.00197
2071.27,0.00232
2068.38,0.00238
2065.48,0.00260
2062.59,0.00201
2059.7,0.00224
2056.81,0.00216
2053.91,0.00245
2051.02,0.00287
2048.13,0.00282
2045.23,0.00229
2042.34,0.00263
2039.45,0.00372
2036.56,0.00279
2033.66,0.00237
2030.77,0.00267
2027.88,0.00318
2024.98,0.00195
2022.09,0.00290
2019.2,0.00248
2016.31,0.00243
2013.41,0.00243
2010.52,0.00290
2007.63,0.00220
2004.73,0.00178
2001.84,0.00287
1998.95,0.00210
1996.06,0.00266
1993.16,0.00187
1990.27,0.00171
1987.38,0.00231
1984.48,0.00262
1981.59,0.00331
1978.7,0.00277
1975.81,0.00199
1972.91,0.00189
1970.02,0.00216
1967.13,0.00161
1964.23,0.00200
1961.34,0.00246
1958.45,0.00226
1955.56,0.00195
1952.66,0.00185
1949.77,0.00186
1946.88,0.00185
1943.98,0.00135
1941.09,0.00155
1938.2,0.00148
1935.31,0.00187
1932.41,0.00149
1929.52,0.00173
1926.63,0.00170
1923.73,0.00160
1920.84,0.00197
1917.95,0.00179
1915.06,0.00159
1912.16,0.00165
1909.27,0.00157
1906.38,0.00145
1903.49,0.00139
1900.59,0.00154
1897.7,0.00162
1894.81,0.00134
1891.91,0.00157
1889.02,0.00157
1886.13,0.00152
1883.24,0.00143
1880.34,0.00154
1877.45,0.00156
1874.56,0.00165
1871.66,0.00162
1868.77,0.00148
1865.88,0.00145
1862.99,0.00128
1860.09,0.00143
1857.2,0.00137
1854.31,0.00152
1851.41,0.00141
1848.52,0.00145
1845.63,0.00162
1842.74,0.00165
1839.84,0.00149
1836.95,0.00159
1834.06,0.00147
1831.16,0.00157
1828.27,0.00160
1825.38,0.00150
1822.49,0.00165
1819.59,0.00168
1816.7,0.00171
1813.81,0.00164
1810.91,0.00150
1808.02,0.00154
1805.13,0.00159
1802.24,0.00158
1799.34,0.00165
1796.45,0.00170
1793.56,0.00176
1790.66,0.00171
1787.77,0.00177
1784.88,0.00180
1781.99,0.00186
1779.09,0.00184
1776.2,0.00181
1773.31,0.00171
1770.41,0.00192
1767.52,0.00200
1764.63,0.00202
1761.74,0.00211
1758.84,0.00226
1755.95,0.00247
1753.06,0.00262
1750.16,0.00275
1747.27,0.00290
1744.38,0.00328
1741.49,0.00385
1738.59,0.00488
1735.7,0.00634
1732.81,0.00958
1729.91,0.01332
1727.02,0.01747
1724.13,0.02131
1721.24,0.02458
1718.34,0.02653
1715.45,0.02732
1712.56,0.02572
1709.67,0.02162
1706.77,0.01642
1703.88,0.01146
1700.99,0.00839
1698.09,0.00593
1695.2,0.00471
1692.31,0.00413
1689.42,0.00359
1686.52,0.00346
1683.63,0.00324
1680.74,0.00323
1677.84,0.00331
1674.95,0.00330
1672.06,0.00310
1669.17,0.00284
1666.27,0.00269
1663.38,0.00249
1660.49,0.00252
1657.59,0.00258
1654.7,0.00240
1651.81,0.00259
1648.92,0.00255
1646.02,0.00265
1643.13,0.00315
1640.24,0.00335
1637.34,0.00328
1634.45,0.00296
1631.56,0.00290
1628.67,0.00262
1625.77,0.00245
1622.88,0.00235
1619.99,0.00249
1617.09,0.00260
1614.2,0.00257
1611.31,0.00247
1608.42,0.00238
1605.52,0.00250
1602.63,0.00235
1599.74,0.00235
1596.84,0.00231
1593.95,0.00235
1591.06,0.00233
1588.17,0.00236
1585.27,0.00247
1582.38,0.00271
1579.49,0.00305
1576.59,0.00318
1573.7,0.00296
1570.81,0.00276
1567.92,0.00266
1565.02,0.00269
1562.13,0.00269
1559.24,0.00216
1556.34,0.00254
1553.45,0.00261
1550.56,0.00248
1547.67,0.00254
1544.77,0.00232
1541.88,0.00225
1538.99,0.00215
1536.1,0.00239
1533.2,0.00219
1530.31,0.00237
1527.42,0.00226
1524.52,0.00216
1521.63,0.00204
1518.74,0.00207
1515.85,0.00208
1512.95,0.00232
1510.06,0.00231
1507.17,0.00270
1504.27,0.00352
1501.38,0.00293
1498.49,0.00235
1495.6,0.00236
1492.7,0.00234
1489.81,0.00223
1486.92,0.00250
1484.02,0.00285
1481.13,0.00326
1478.24,0.00375
1475.35,0.00440
1472.45,0.00571
1469.56,0.00761
1466.67,0.00917
1463.77,0.00990
1460.88,0.00972
1457.99,0.00887
1455.1,0.00788
1452.2,0.00703
1449.31,0.00635
1446.42,0.00612
1443.52,0.00621
1440.63,0.00713
1437.74,0.00870
1434.85,0.00970
1431.95,0.00930
1429.06,0.00963
1426.17,0.01100
1423.27,0.00928
1420.38,0.00741
1417.49,0.00667
1414.6,0.00670
1411.7,0.00775
1408.81,0.00907
1405.92,0.00784
1403.02,0.00584
1400.13,0.00501
1397.24,0.00492
1394.35,0.00521
1391.45,0.00607
1388.56,0.00687
1385.67,0.00775
1382.77,0.00865
1379.88,0.00896
1376.99,0.00829
1374.1,0.00704
1371.2,0.00627
1368.31,0.00577
1365.42,0.00554
1362.53,0.00566
1359.63,0.00600
1356.74,0.00632
1353.85,0.00637
1350.95,0.00610
1348.06,0.00591
1345.17,0.00626
1342.28,0.00695
1339.38,0.00798
1336.49,0.00912
1333.6,0.00943
1330.7,0.00948
1327.81,0.00934
1324.92,0.00917
1322.03,0.00906
1319.13,0.00891
1316.24,0.00889
1313.35,0.00880
1310.45,0.00876
1307.56,0.00912
1304.67,0.00955
1301.78,0.00946
1298.88,0.00942
1295.99,0.01006
1293.1,0.01120
1290.2,0.01301
1287.31,0.01554
1284.42,0.01845
1281.53,0.02155
1278.63,0.02508
1275.74,0.02884
1272.85,0.03261
1269.95,0.03572
1267.06,0.03687
1264.17,0.03551
1261.28,0.03222
1258.38,0.02994
1255.49,0.03002
1252.6,0.03103
1249.7,0.03183
1246.81,0.03158
1243.92,0.02979
1241.03,0.02665
1238.13,0.02333
1235.24,0.02038
1232.35,0.01783
1229.45,0.01571
1226.56,0.01338
1223.67,0.01077
1220.78,0.00910
1217.88,0.00841
1214.99,0.00802
1212.1,0.00826
1209.2,0.00824
1206.31,0.00806
1203.42,0.00814
1200.53,0.00824
1197.63,0.00811
1194.74,0.00747
1191.85,0.00708
1188.95,0.00668
1186.06,0.00631
1183.17,0.00583
1180.28,0.00562
1177.38,0.00582
1174.49,0.00646
1171.6,0.00685
1168.71,0.00649
1165.81,0.00610
1162.92,0.00601
1160.03,0.00588
1157.13,0.00602
1154.24,0.00607
1151.35,0.00608
1148.46,0.00610
1145.56,0.00613
1142.67,0.00606
1139.78,0.00635
1136.88,0.00688
1133.99,0.00802
1131.1,0.00964
1128.21,0.01257
1125.31,0.01675
1122.42,0.02116
1119.53,0.02485
1116.63,0.02610
1113.74,0.02475
1110.85,0.02230
1107.96,0.02155
1105.06,0.02522
1102.17,0.02810
1099.28,0.02558
1096.38,0.02045
1093.49,0.01649
1090.6,0.01474
1087.71,0.01372
1084.81,0.01323
1081.92,0.01202
1079.03,0.01041
1076.13,0.00945
1073.24,0.00890
1070.35,0.00819
1067.46,0.00769
1064.56,0.00728
1061.67,0.00736
1058.78,0.00689
1055.88,0.00660
1052.99,0.00664
1050.1,0.00621
1047.21,0.00627
1044.31,0.00624
1041.42,0.00603
1038.53,0.00596
1035.63,0.00633
1032.74,0.00653
1029.85,0.00642
1026.96,0.00695
1024.06,0.00796
1021.17,0.01370
1018.28,0.01876
1015.38,0.01125
1012.49,0.00837
1009.6,0.00746
1006.71,0.00757
1003.81,0.00727
1000.92,0.00781
998.028,0.00800
995.135,0.00830
992.242,0.00882
989.349,0.00888
986.457,0.00900
983.564,0.00978
980.671,0.01061
977.778,0.01149
974.885,0.01197
971.992,0.01268
969.1,0.01301
966.207,0.01366
963.314,0.01447
960.421,0.01511
957.528,0.01516
954.635,0.01499
951.743,0.01429
948.85,0.01315
945.957,0.01267
943.064,0.01151
940.171,0.01085
937.278,0.01026
934.386,0.00998
931.493,0.00951
928.6,0.00936
925.707,0.00939
922.814,0.00929
919.921,0.00886
917.029,0.00836
914.136,0.00812
911.243,0.00768
908.35,0.00755
905.457,0.00740
902.564,0.00693
899.672,0.00670
896.779,0.00678
893.886,0.00680
890.993,0.00602
888.1,0.00620
885.207,0.00626
882.314,0.00684
879.422,0.00782
876.529,0.01035
873.636,0.01102
870.743,0.00896
867.85,0.00788
864.957,0.00705
862.065,0.00688
859.172,0.00667
856.279,0.00676
853.386,0.00660
850.493,0.00653
847.6,0.00672
844.708,0.00666
841.815,0.00665
838.922,0.00665
836.029,0.00704
833.136,0.00707
830.243,0.00676
827.351,0.00612
824.458,0.00586
821.565,0.00505
818.672,0.00490
815.779,0.00512
812.886,0.00479
809.994,0.00466
807.101,0.00501
804.208,0.00502
801.315,0.00479
798.422,0.00469
795.529,0.00561
792.637,0.00513
789.744,0.00495
786.851,0.00508
783.958,0.00531
781.065,0.00582
778.172,0.00542
775.28,0.00531
772.387,0.00606
769.494,0.00631
766.601,0.00560
763.708,0.00544
760.815,0.00522
757.923,0.00468
755.03,0.00434
752.137,0.00481
749.244,0.00517
746.351,0.00603
743.458,0.00543
740.566,0.00683
737.673,0.01209
734.78,0.02146
731.887,0.03074
728.994,0.02947
726.101,0.01873
723.209,0.01253
720.316,0.00948
717.423,0.00833
714.53,0.00822
711.637,0.00897
708.744,0.00947
705.852,0.01041
702.959,0.01188
700.066,0.01208
697.173,0.01229
694.28,0.01275
691.387,0.01232
688.495,0.01235
685.602,0.01217
682.709,0.01179
679.816,0.01154
676.923,0.01166
674.03,0.01065
671.138,0.01027
668.245,0.00890
665.352,0.00784
662.459,0.00869
659.566,0.00945
656.673,0.01018
653.781,0.01085
650.888,0.01280
647.995,0.01445
645.102,0.01528
642.209,0.01710
639.316,0.01757
636.424,0.02005
633.531,0.01960
630.638,0.01893
627.745,0.01828
624.852,0.01909
621.959,0.01965
619.067,0.01989
616.174,0.02072
613.281,0.02071
610.388,0.02128
607.495,0.02120
604.602,0.02084
601.71,0.01784
599.781,0.01645