File: 01_Data/PEVA/FTIR/ATR/PEVA_ATR_240705_R5.0.dpt
4498.36,0.00137
4495.46,0.00160
4492.57,0.00165
4489.68,0.00134
4486.79,0.00142
4483.89,0.00161
4481,0.00144
4478.11,0.00158
4475.21,0.00150
4472.32,0.00137
4469.43,0.00150
4466.54,0.00159
4463.64,0.00163
4460.75,0.00151
4457.86,0.00141
4454.96,0.00162
4452.07,0.00161
4449.18,0.00170
4446.29,0.00171
4443.39,0.00143
4440.5,0.00155
4437.61,0.00158
4434.72,0.00160
4431.82,0.00160
4428.93,0.00167
4426.04,0.00196
4423.14,0.00168
4420.25,0.00161
4417.36,0.00151
4414.47,0.00165
4411.57,0.00161
4408.68,0.00163
4405.79,0.00165
4402.89,0.00151
4400,0.00148
4397.11,0.00173
4394.22,0.00170
4391.32,0.00173
4388.43,0.00191
4385.54,0.00145
4382.64,0.00178
4379.75,0.00194
4376.86,0.00174
4373.97,0.00211
4371.07,0.00168
4368.18,0.00147
4365.29,0.00154
4362.39,0.00170
4359.5,0.00168
4356.61,0.00184
4353.72,0.00174
4350.82,0.00181
4347.93,0.00170
4345.04,0.00165
4342.14,0.00177
4339.25,0.00173
4336.36,0.00185
4333.47,0.00191
4330.57,0.00188
4327.68,0.00192
4324.79,0.00192
4321.89,0.00182
4319,0.00185
4316.11,0.00168
4313.22,0.00166
4310.32,0.00184
4307.43,0.00155
4304.54,0.00165
4301.64,0.00186
4298.75,0.00184
4295.86,0.00172
4292.97,0.00164
4290.07,0.00165
4287.18,0.00176
4284.29,0.00186
4281.39,0.00181
4278.5,0.00169
4275.61,0.00184
4272.72,0.00168
4269.82,0.00171
4266.93,0.00185
4264.04,0.00176
4261.15,0.00173
4258.25,0.00167
4255.36,0.00176
4252.47,0.00188
4249.57,0.00167
4246.68,0.00178
4243.79,0.00191
4240.9,0.00177
4238,0.00166
4235.11,0.00172
4232.22,0.00150
4229.32,0.00161
4226.43,0.00165
4223.54,0.00178
4220.65,0.00180
4217.75,0.00167
4214.86,0.00172
4211.97,0.00184
4209.07,0.00180
4206.18,0.00166
4203.29,0.00162
4200.4,0.00177
4197.5,0.00173
4194.61,0.00167
4191.72,0.00174
4188.82,0.00159
4185.93,0.00171
4183.04,0.00163
4180.15,0.00176
4177.25,0.00167
4174.36,0.00189
4171.47,0.00175
4168.57,0.00173
4165.68,0.00172
4162.79,0.00177
4159.9,0.00186
4157,0.00165
4154.11,0.00173
4151.22,0.00174
4148.32,0.00178
4145.43,0.00183
4142.54,0.00165
4139.65,0.00181
4136.75,0.00165
4133.86,0.00167
4130.97,0.00175
4128.07,0.00179
4125.18,0.00194
4122.29,0.00173
4119.4,0.00161
4116.5,0.00159
4113.61,0.00161
4110.72,0.00164
4107.82,0.00179
4104.93,0.00181
4102.04,0.00165
4099.15,0.00177
4096.25,0.00174
4093.36,0.00161
4090.47,0.00183
4087.58,0.00171
4084.68,0.00195
4081.79,0.00183
4078.9,0.00178
4076,0.00186
4073.11,0.00168
4070.22,0.00172
4067.33,0.00179
4064.43,0.00187
4061.54,0.00181
4058.65,0.00170
4055.75,0.00168
4052.86,0.00166
4049.97,0.00175
4047.08,0.00171
4044.18,0.00168
4041.29,0.00145
4038.4,0.00155
4035.5,0.00180
4032.61,0.00177
4029.72,0.00183
4026.83,0.00171
4023.93,0.00170
4021.04,0.00168
4018.15,0.00171
4015.25,0.00173
4012.36,0.00164
4009.47,0.00156
4006.58,0.00170
4003.68,0.00176
4000.79,0.00159
3997.9,0.00162
3995,0.00181
3992.11,0.00170
3989.22,0.00181
3986.33,0.00157
3983.43,0.00174
3980.54,0.00151
3977.65,0.00163
3974.75,0.00160
3971.86,0.00159
3968.97,0.00179
3966.08,0.00156
3963.18,0.00163
3960.29,0.00163
3957.4,0.00157
3954.5,0.00153
3951.61,0.00155
3948.72,0.00154
3945.83,0.00164
3942.93,0.00166
3940.04,0.00164
3937.15,0.00182
3934.25,0.00162
3931.36,0.00175
3928.47,0.00167
3925.58,0.00155
3922.68,0.00162
3919.79,0.00150
3916.9,0.00159
3914,0.00182
3911.11,0.00172
3908.22,0.00160
3905.33,0.00131
3902.43,0.00143
3899.54,0.00145
3896.65,0.00162
3893.76,0.00179
3890.86,0.00165
3887.97,0.00158
3885.08,0.00165
3882.18,0.00167
3879.29,0.00150
3876.4,0.00174
3873.51,0.00167
3870.61,0.00149
3867.72,0.00162
3864.83,0.00171
3861.93,0.00158
3859.04,0.00148
3856.15,0.00150
3853.26,0.00126
3850.36,0.00158
3847.47,0.00172
3844.58,0.00182
3841.68,0.00168
3838.79,0.00157
3835.9,0.00174
3833.01,0.00152
3830.11,0.00168
3827.22,0.00168
3824.33,0.00158
3821.43,0.00168
3818.54,0.00157
3815.65,0.00144
3812.76,0.00162
3809.86,0.00162
3806.97,0.00161
3804.08,0.00183
3801.18,0.00142
3798.29,0.00149
3795.4,0.00174
3792.51,0.00179
3789.61,0.00165
3786.72,0.00168
3783.83,0.00178
3780.93,0.00183
3778.04,0.00169
3775.15,0.00158
3772.26,0.00164
3769.36,0.00156
3766.47,0.00152
3763.58,0.00180
3760.68,0.00153
3757.79,0.00139
3754.9,0.00172
3752.01,0.00150
3749.11,0.00163
3746.22,0.00185
3743.33,0.00159
3740.43,0.00168
3737.54,0.00169
3734.65,0.00161
3731.76,0.00158
3728.86,0.00161
3725.97,0.00152
3723.08,0.00146
3720.19,0.00167
3717.29,0.00182
3714.4,0.00158
3711.51,0.00182
3708.61,0.00167
3705.72,0.00150
3702.83,0.00166
3699.94,0.00159
3697.04,0.00166
3694.15,0.00166
3691.26,0.00189
3688.36,0.00180
3685.47,0.00161
3682.58,0.00163
3679.69,0.00168
3676.79,0.00172
3673.9,0.00187
3671.01,0.00188
3668.11,0.00173
3665.22,0.00164
3662.33,0.00156
3659.44,0.00170
3656.54,0.00157
3653.65,0.00163
3650.76,0.00181
3647.86,0.00161
3644.97,0.00158
3642.08,0.00168
3639.19,0.00178
3636.29,0.00166
3633.4,0.00167
3630.51,0.00155
3627.61,0.00139
3624.72,0.00169
3621.83,0.00159
3618.94,0.00167
3616.04,0.00170
3613.15,0.00161
3610.26,0.00160
3607.36,0.00162
3604.47,0.00181
3601.58,0.00166
3598.69,0.00159
3595.79,0.00181
3592.9,0.00180
3590.01,0.00166
3587.11,0.00153
3584.22,0.00142
3581.33,0.00170
3578.44,0.00181
3575.54,0.00169
3572.65,0.00177
3569.76,0.00200
3566.86,0.00187
3563.97,0.00184
3561.08,0.00181
3558.19,0.00174
3555.29,0.00189
3552.4,0.00184
3549.51,0.00174
3546.61,0.00174
3543.72,0.00178
3540.83,0.00169
3537.94,0.00175
3535.04,0.00185
3532.15,0.00184
3529.26,0.00193
3526.37,0.00179
3523.47,0.00183
3520.58,0.00187
3517.69,0.00193
3514.79,0.00184
3511.9,0.00194
3509.01,0.00167
3506.12,0.00194
3503.22,0.00183
3500.33,0.00199
3497.44,0.00185
3494.54,0.00195
3491.65,0.00192
3488.76,0.00199
3485.87,0.00192
3482.97,0.00192
3480.08,0.00183
3477.19,0.00195
3474.29,0.00198
3471.4,0.00206
3468.51,0.00191
3465.62,0.00201
3462.72,0.00192
3459.83,0.00189
3456.94,0.00188
3454.04,0.00184
3451.15,0.00185
3448.26,0.00191
3445.37,0.00199
3442.47,0.00196
3439.58,0.00172
3436.69,0.00185
3433.79,0.00214
3430.9,0.00195
3428.01,0.00207
3425.12,0.00223
3422.22,0.00205
3419.33,0.00217
3416.44,0.00207
3413.54,0.00203
3410.65,0.00191
3407.76,0.00206
3404.87,0.00212
3401.97,0.00200
3399.08,0.00184
3396.19,0.00183
3393.29,0.00195
3390.4,0.00189
3387.51,0.00183
3384.62,0.00199
3381.72,0.00180
3378.83,0.00185
3375.94,0.00182
3373.04,0.00182
3370.15,0.00196
3367.26,0.00181
3364.37,0.00174
3361.47,0.00173
3358.58,0.00184
3355.69,0.00176
3352.8,0.00195
3349.9,0.00183
3347.01,0.00190
3344.12,0.00194
3341.22,0.00189
3338.33,0.00190
3335.44,0.00201
3332.55,0.00206
3329.65,0.00201
3326.76,0.00204
3323.87,0.00211
3320.97,0.00214
3318.08,0.00202
3315.19,0.00202
3312.3,0.00225
3309.4,0.00227
3306.51,0.00224
3303.62,0.00246
3300.72,0.00237
3297.83,0.00248
3294.94,0.00249
3292.05,0.00240
3289.15,0.00219
3286.26,0.00218
3283.37,0.00208
3280.47,0.00208
3277.58,0.00213
3274.69,0.00195
3271.8,0.00196
3268.9,0.00188
3266.01,0.00187
3263.12,0.00180
3260.22,0.00179
3257.33,0.00197
3254.44,0.00185
3251.55,0.00173
3248.65,0.00182
3245.76,0.00171
3242.87,0.00177
3239.97,0.00184
3237.08,0.00186
3234.19,0.00181
3231.3,0.00183
3228.4,0.00192
3225.51,0.00176
3222.62,0.00174
3219.72,0.00168
3216.83,0.00183
3213.94,0.00190
3211.05,0.00176
3208.15,0.00187
3205.26,0.00182
3202.37,0.00185
3199.47,0.00188
3196.58,0.00173
3193.69,0.00174
3190.8,0.00179
3187.9,0.00175
3185.01,0.00177
3182.12,0.00167
3179.23,0.00157
3176.33,0.00172
3173.44,0.00172
3170.55,0.00158
3167.65,0.00177
3164.76,0.00163
3161.87,0.00155
3158.98,0.00156
3156.08,0.00158
3153.19,0.00157
3150.3,0.00162
3147.4,0.00173
3144.51,0.00171
3141.62,0.00179
3138.73,0.00181
3135.83,0.00175
3132.94,0.00150
3130.05,0.00175
3127.15,0.00173
3124.26,0.00185
3121.37,0.00178
3118.48,0.00161
3115.58,0.00161
3112.69,0.00157
3109.8,0.00179
3106.9,0.00172
3104.01,0.00180
3101.12,0.00179
3098.23,0.00179
3095.33,0.00169
3092.44,0.00173
3089.55,0.00184
3086.65,0.00187
3083.76,0.00183
3080.87,0.00177
3077.98,0.00178
3075.08,0.00171
3072.19,0.00175
3069.3,0.00191
3066.4,0.00197
3063.51,0.00196
3060.62,0.00185
3057.73,0.00191
3054.83,0.00186
3051.94,0.00191
3049.05,0.00190
3046.15,0.00192
3043.26,0.00200
3040.37,0.00183
3037.48,0.00180
3034.58,0.00189
3031.69,0.00196
3028.8,0.00203
3025.9,0.00192
3023.01,0.00202
3020.12,0.00208
3017.23,0.00203
3014.33,0.00208
3011.44,0.00199
3008.55,0.00220
3005.65,0.00230
3002.76,0.00235
2999.87,0.00257
2996.98,0.00283
2994.08,0.00310
2991.19,0.00338
2988.3,0.00379
2985.41,0.00445
2982.51,0.00511
2979.62,0.00592
2976.73,0.00698
2973.83,0.00821
2970.94,0.00952
2968.05,0.01105
2965.16,0.01256
2962.26,0.01358
2959.37,0.01411
2956.48,0.01371
2953.58,0.01276
2950.69,0.01165
2947.8,0.01066
2944.91,0.01049
2942.01,0.01125
2939.12,0.01214
2936.23,0.01341
2933.33,0.01435
2930.44,0.01527
2927.55,0.01545
2924.66,0.01566
2921.76,0.01598
2918.87,0.01631
2915.98,0.01607
2913.08,0.01461
2910.19,0.01301
2907.3,0.01188
2904.41,0.01094
2901.51,0.01000
2898.62,0.00913
2895.73,0.00836
2892.83,0.00768
2889.94,0.00709
2887.05,0.00668
2884.16,0.00677
2881.26,0.00715
2878.37,0.00797
2875.48,0.00879
2872.58,0.00901
2869.69,0.00872
2866.8,0.00860
2863.91,0.00894
2861.01,0.00951
2858.12,0.00959
2855.23,0.00907
2852.33,0.00881
2849.44,0.00855
2846.55,0.00699
2843.66,0.00532
2840.76,0.00425
2837.87,0.00387
2834.98,0.00355
2832.08,0.00308
2829.19,0.00305
2826.3,0.00293
2823.41,0.00274
2820.51,0.00290
2817.62,0.00285
2814.73,0.00282
2811.84,0.00258
2808.94,0.00245
2806.05,0.00233
2803.16,0.00231
2800.26,0.00216
2797.37,0.00221
2794.48,0.00218
2791.59,0.00206
2788.69,0.00202
2785.8,0.00211
2782.91,0.00206
2780.01,0.00196
2777.12,0.00197
2774.23,0.00197
2771.34,0.00197
2768.44,0.00190
2765.55,0.00192
2762.66,0.00193
2759.76,0.00188
2756.87,0.00202
2753.98,0.00187
2751.09,0.00197
2748.19,0.00196
2745.3,0.00194
2742.41,0.00200
2739.51,0.00184
2736.62,0.00190
2733.73,0.00194
2730.84,0.00193
2727.94,0.00188
2725.05,0.00191
2722.16,0.00185
2719.26,0.00178
2716.37,0.00183
2713.48,0.00173
2710.59,0.00183
2707.69,0.00181
2704.8,0.00172
2701.91,0.00179
2699.01,0.00184
2696.12,0.00186
2693.23,0.00179
2690.34,0.00176
2687.44,0.00171
2684.55,0.00183
2681.66,0.00174
2678.76,0.00187
2675.87,0.00176
2672.98,0.00180
2670.09,0.00184
2667.19,0.00177
2664.3,0.00180
2661.41,0.00183
2658.51,0.00179
2655.62,0.00189
2652.73,0.00195
2649.84,0.00189
2646.94,0.00189
2644.05,0.00183
2641.16,0.00183
2638.26,0.00193
2635.37,0.00185
2632.48,0.00176
2629.59,0.00177
2626.69,0.00191
2623.8,0.00186
2620.91,0.00183
2618.02,0.00178
2615.12,0.00178
2612.23,0.00176
2609.34,0.00177
2606.44,0.00167
2603.55,0.00168
2600.66,0.00178
2597.77,0.00190
2594.87,0.00181
2591.98,0.00175
2589.09,0.00169
2586.19,0.00177
2583.3,0.00162
2580.41,0.00174
2577.52,0.00176
2574.62,0.00175
2571.73,0.00174
2568.84,0.00178
2565.94,0.00174
2563.05,0.00179
2560.16,0.00179
2557.27,0.00178
2554.37,0.00171
2551.48,0.00169
2548.59,0.00179
2545.69,0.00174
2542.8,0.00187
2539.91,0.00177
2537.02,0.00165
2534.12,0.00173
2531.23,0.00177
2528.34,0.00189
2525.44,0.00172
2522.55,0.00187
2519.66,0.00163
2516.77,0.00163
2513.87,0.00171
2510.98,0.00171
2508.09,0.00156
2505.19,0.00156
2502.3,0.00156
2499.41,0.00183
2496.52,0.00157
2493.62,0.00164
2490.73,0.00164
2487.84,0.00160
2484.94,0.00158
2482.05,0.00156
2479.16,0.00161
2476.27,0.00178
2473.37,0.00166
2470.48,0.00156
2467.59,0.00157
2464.69,0.00166
2461.8,0.00156
2458.91,0.00154
2456.02,0.00157
2453.12,0.00156
2450.23,0.00155
2447.34,0.00147
2444.45,0.00144
2441.55,0.00151
2438.66,0.00140
2435.77,0.00163
2432.87,0.00142
2429.98,0.00161
2427.09,0.00170
2424.2,0.00155
2421.3,0.00170
2418.41,0.00163
2415.52,0.00164
2412.62,0.00154
2409.73,0.00159
2406.84,0.00151
2403.95,0.00167
2401.05,0.00170
2398.16,0.00159
2395.27,0.00150
2392.37,0.00142
2389.48,0.00163
2386.59,0.00151
2383.7,0.00157
2380.8,0.00151
2377.91,0.00128
2375.02,0.00103
2372.12,0.00096
2369.23,0.00083
2366.34,0.00061
2363.45,0.00049
2360.55,0.00066
2357.66,0.00078
2354.77,0.00080
2351.87,0.00119
2348.98,0.00122
2346.09,0.00116
2343.2,0.00106
2340.3,0.00089
2337.41,0.00079
2334.52,0.00079
2331.62,0.00105
2328.73,0.00089
2325.84,0.00135
2322.95,0.00168
2320.05,0.00164
2317.16,0.00165
2314.27,0.00160
2311.37,0.00165
2308.48,0.00155
2305.59,0.00153
2302.7,0.00183
2299.8,0.00173
2296.91,0.00180
2294.02,0.00200
2291.12,0.00222
2288.23,0.00217
2285.34,0.00213
2282.45,0.00215
2279.55,0.00205
2276.66,0.00235
2273.77,0.00206
2270.88,0.00219
2267.98,0.00225
2265.09,0.00233
2262.2,0.00232
2259.3,0.00220
2256.41,0.00241
2253.52,0.00166
2250.63,0.00212
2247.73,0.00228
2244.84,0.00208
2241.95,0.00241
2239.05,0.00260
2236.16,0.00266
2233.27,0.00235
2230.38,0.00237
2227.48,0.00260
2224.59,0.00233
2221.7,0.00275
2218.8,0.00249
2215.91,0.00277
2213.02,0.00174
2210.13,0.00243
2207.23,0.00255
2204.34,0.00267
2201.45,0.00252
2198.55,0.00252
2195.66,0.00220
2192.77,0.00252
2189.88,0.00294
2186.98,0.00308
2184.09,0.00291
2181.2,0.00221
2178.3,0.00239
2175.41,0.00264
2172.52,0.00308
2169.63,0.00296
2166.73,0.00321
2163.84,0.00338
2160.95,0.00273
2158.05,0.00142
2155.16,0.00184
2152.27,0.00218
2149.38,0.00230
2146.48,0.00252
2143.59,0.00138
2140.7,0.00186
2137.8,0.00142
2134.91,0.00188
2132.02,0.00141
2129.13,0.00142
2126.23,0.00179
2123.34,0.00169
2120.45,0.00187
2117.55,0.00190
2114.66,0.00200
2111.77,0.00220
2108.88,0.00168
2105.98,0.00171
2103.09,0.00188
2100.2,0.00196
2097.3,0.00174
2094.41,0.00157
2091.52,0.00139
2088.63,0.00191
2085.73,0.00178
2082.84,0.00211
2079.95,0.00234
2077.06,0.00221
2074.16,0.00179
2071.27,0.00233
2068.38,0.00194
2065.48,0.00201
2062.59,0.00219
2059.7,0.00199
2056.81,0.00198
2053.91,0.00217
2051.02,0.00256
2048.13,0.00270
2045.23,0.00179
2042.34,0.00289
2039.45,0.00272
2036.56,0.00242
2033.66,0.00169
2030.77,0.00280
2027.88,0.00267
2024.98,0.00270
2022.09,0.00246
2019.2,0.00183
2016.31,0.00193
2013.41,0.00265
2010.52,0.00271
2007.63,0.00304
2004.73,0.00178
2001.84,0.00154
1998.95,0.00151
1996.06,0.00201
1993.16,0.00225
1990.27,0.00267
1987.38,0.00239
1984.48,0.00197
1981.59,0.00285
1978.7,0.00262
1975.81,0.00206
1972.91,0.00171
1970.02,0.00223
1967.13,0.00136
1964.23,0.00147
1961.34,0.00251
1958.45,0.00235
1955.56,0.00230
1952.66,0.00239
1949.77,0.00200
1946.88,0.00178
1943.98,0.00155
1941.09,0.00180
1938.2,0.00182
1935.31,0.00184
1932.41,0.00188
1929.52,0.00158
1926.63,0.00167
1923.73,0.00157
1920.84,0.00182
1917.95,0.00146
1915.06,0.00157
1912.16,0.00181
1909.27,0.00152
1906.38,0.00152
1903.49,0.00155
1900.59,0.00152
1897.7,0.00178
1894.81,0.00158
1891.91,0.00140
1889.02,0.00159
1886.13,0.00147
1883.24,0.00131
1880.34,0.00150
1877.45,0.00141
1874.56,0.00156
1871.66,0.00158
1868.77,0.00148
1865.88,0.00163
1862.99,0.00130
1860.09,0.00140
1857.2,0.00157
1854.31,0.00146
1851.41,0.00147
1848.52,0.00152
1845.63,0.00153
1842.74,0.00139
1839.84,0.00149
1836.95,0.00163
1834.06,0.00173
1831.16,0.00160
1828.27,0.00172
1825.38,0.00171
1822.49,0.00171
1819.59,0.00174
1816.7,0.00171
1813.81,0.00178
1810.91,0.00168
1808.02,0.00172
1805.13,0.00163
1802.24,0.00182
1799.34,0.00174
1796.45,0.00169
1793.56,0.00176
1790.66,0.00179
1787.77,0.00180
1784.88,0.00192
1781.99,0.00200
1779.09,0.00199
1776.2,0.00204
1773.31,0.00203
1770.41,0.00206
1767.52,0.00213
1764.63,0.00224
1761.74,0.00227
1758.84,0.00242
1755.95,0.00268
1753.06,0.00294
1750.16,0.00316
1747.27,0.00360
1744.38,0.00409
1741.49,0.00471
1738.59,0.00589
1735.7,0.00760
1732.81,0.01187
1729.91,0.01665
1727.02,0.02173
1724.13,0.02655
1721.24,0.03069
1718.34,0.03307
1715.45,0.03422
1712.56,0.03214
1709.67,0.02717
1706.77,0.02058
1703.88,0.01429
1700.99,0.00991
1698.09,0.00698
1695.2,0.00539
1692.31,0.00466
1689.42,0.00422
1686.52,0.00393
1683.63,0.00357
1680.74,0.00358
1677.84,0.00359
1674.95,0.00349
1672.06,0.00338
1669.17,0.00297
1666.27,0.00288
1663.38,0.00273
1660.49,0.00275
1657.59,0.00267
1654.7,0.00239
1651.81,0.00223
1648.92,0.00263
1646.02,0.00274
1643.13,0.00316
1640.24,0.00343
1637.34,0.00342
1634.45,0.00292
1631.56,0.00286
1628.67,0.00258
1625.77,0.00251
1622.88,0.00252
1619.99,0.00253
1617.09,0.00258
1614.2,0.00272
1611.31,0.00268
1608.42,0.00262
1605.52,0.00250
1602.63,0.00245
1599.74,0.00240
1596.84,0.00240
1593.95,0.00243
1591.06,0.00243
1588.17,0.00247
1585.27,0.00260
1582.38,0.00295
1579.49,0.00340
1576.59,0.00342
1573.7,0.00326
1570.81,0.00304
1567.92,0.00299
1565.02,0.00298
1562.13,0.00291
1559.24,0.00255
1556.34,0.00280
1553.45,0.00305
1550.56,0.00297
1547.67,0.00304
1544.77,0.00308
1541.88,0.00308
1538.99,0.00298
1536.1,0.00307
1533.2,0.00278
1530.31,0.00274
1527.42,0.00274
1524.52,0.00259
1521.63,0.00229
1518.74,0.00227
1515.85,0.00239
1512.95,0.00257
1510.06,0.00268
1507.17,0.00330
1504.27,0.00403
1501.38,0.00324
1498.49,0.00269
1495.6,0.00255
1492.7,0.00255
1489.81,0.00258
1486.92,0.00274
1484.02,0.00308
1481.13,0.00360
1478.24,0.00432
1475.35,0.00498
1472.45,0.00652
1469.56,0.00914
1466.67,0.01118
1463.77,0.01199
1460.88,0.01183
1457.99,0.01086
1455.1,0.00956
1452.2,0.00835
1449.31,0.00760
1446.42,0.00733
1443.52,0.00746
1440.63,0.00855
1437.74,0.01030
1434.85,0.01185
1431.95,0.01124
1429.06,0.01171
1426.17,0.01349
1423.27,0.01139
1420.38,0.00885
1417.49,0.00789
1414.6,0.00818
1411.7,0.00952
1408.81,0.01097
1405.92,0.00937
1403.02,0.00702
1400.13,0.00600
1397.24,0.00588
1394.35,0.00636
1391.45,0.00721
1388.56,0.00813
1385.67,0.00935
1382.77,0.01032
1379.88,0.01066
1376.99,0.01008
1374.1,0.00861
1371.2,0.00735
1368.31,0.00675
1365.42,0.00656
1362.53,0.00675
1359.63,0.00720
1356.74,0.00745
1353.85,0.00749
1350.95,0.00725
1348.06,0.00717
1345.17,0.00738
1342.28,0.00834
1339.38,0.00984
1336.49,0.01121
1333.6,0.01155
1330.7,0.01149
1327.81,0.01131
1324.92,0.01122
1322.03,0.01107
1319.13,0.01102
1316.24,0.01082
1313.35,0.01065
1310.45,0.01071
1307.56,0.01089
1304.67,0.01159
1301.78,0.01159
1298.88,0.01161
1295.99,0.01226
1293.1,0.01369
1290.2,0.01604
1287.31,0.01914
1284.42,0.02276
1281.53,0.02677
1278.63,0.03120
1275.74,0.03603
1272.85,0.04069
1269.95,0.04459
1267.06,0.04597
1264.17,0.04397
1261.28,0.04001
1258.38,0.03728
1255.49,0.03760
1252.6,0.03870
1249.7,0.03954
1246.81,0.03930
1243.92,0.03698
1241.03,0.03302
1238.13,0.02889
1235.24,0.02512
1232.35,0.02209
1229.45,0.01962
1226.56,0.01640
1223.67,0.01315
1220.78,0.01116
1217.88,0.00996
1214.99,0.00978
1212.1,0.00971
1209.2,0.00978
1206.31,0.00974
1203.42,0.00974
1200.53,0.00979
1197.63,0.00944
1194.74,0.00933
1191.85,0.00870
1188.95,0.00777
1186.06,0.00716
1183.17,0.00690
1180.28,0.00690
1177.38,0.00697
1174.49,0.00763
1171.6,0.00790
1168.71,0.00749
1165.81,0.00717
1162.92,0.00710
1160.03,0.00722
1157.13,0.00715
1154.24,0.00735
1151.35,0.00737
1148.46,0.00743
1145.56,0.00735
1142.67,0.00730
1139.78,0.00733
1136.88,0.00801
1133.99,0.00946
1131.1,0.01181
1128.21,0.01554
1125.31,0.02050
1122.42,0.02630
1119.53,0.03060
1116.63,0.03231
1113.74,0.03080
1110.85,0.02765
1107.96,0.02664
1105.06,0.03105
1102.17,0.03509
1099.28,0.03156
1096.38,0.02538
1093.49,0.02033
1090.6,0.01776
1087.71,0.01673
1084.81,0.01602
1081.92,0.01446
1079.03,0.01282
1076.13,0.01140
1073.24,0.01042
1070.35,0.00986
1067.46,0.00917
1064.56,0.00865
1061.67,0.00837
1058.78,0.00818
1055.88,0.00762
1052.99,0.00736
1050.1,0.00723
1047.21,0.00716
1044.31,0.00706
1041.42,0.00722
1038.53,0.00730
1035.63,0.00732
1032.74,0.00746
1029.85,0.00780
1026.96,0.00815
1024.06,0.00976
1021.17,0.01697
1018.28,0.02289
1015.38,0.01390
1012.49,0.01004
1009.6,0.00896
1006.71,0.00858
1003.81,0.00895
1000.92,0.00899
998.028,0.00950
995.135,0.01012
992.242,0.01021
989.349,0.01050
986.457,0.01113
983.564,0.01188
980.671,0.01298
977.778,0.01390
974.885,0.01450
971.992,0.01533
969.1,0.01582
966.207,0.01672
963.314,0.01772
960.421,0.01871
957.528,0.01872
954.635,0.01838
951.743,0.01720
948.85,0.01585
945.957,0.01519
943.064,0.01411
940.171,0.01334
937.278,0.01270
934.386,0.01210
931.493,0.01168
928.6,0.01147
925.707,0.01126
922.814,0.01101
919.921,0.01057
917.029,0.01013
914.136,0.00947
911.243,0.00957
908.35,0.00923
905.457,0.00878
902.564,0.00846
899.672,0.00807
896.779,0.00783
893.886,0.00788
890.993,0.00746
888.1,0.00696
885.207,0.00731
882.314,0.00795
879.422,0.00969
876.529,0.01254
873.636,0.01327
870.743,0.01106
867.85,0.00902
864.957,0.00830
862.065,0.00802
859.172,0.00759
856.279,0.00779
853.386,0.00762
850.493,0.00771
847.6,0.00779
844.708,0.00777
841.815,0.00784
838.922,0.00793
836.029,0.00816
833.136,0.00796
830.243,0.00783
827.351,0.00733
824.458,0.00682
821.565,0.00583
818.672,0.00585
815.779,0.00541
812.886,0.00538
809.994,0.00554
807.101,0.00540
804.208,0.00582
801.315,0.00524
798.422,0.00521
795.529,0.00618
792.637,0.00570
789.744,0.00524
786.851,0.00598
783.958,0.00588
781.065,0.00634
778.172,0.00616
775.28,0.00644
772.387,0.00679
769.494,0.00719
766.601,0.00744
763.708,0.00641
760.815,0.00512
757.923,0.00496
755.03,0.00461
752.137,0.00541
749.244,0.00597
746.351,0.00472
743.458,0.00649
740.566,0.01005
737.673,0.01531
734.78,0.02603
731.887,0.03725
728.994,0.03580
726.101,0.02291
723.209,0.01488
720.316,0.01101
717.423,0.00970
714.53,0.00945
711.637,0.00999
708.744,0.01125
705.852,0.01262
702.959,0.01355
700.066,0.01432
697.173,0.01493
694.28,0.01520
691.387,0.01499
688.495,0.01503
685.602,0.01478
682.709,0.01446
679.816,0.01420
676.923,0.01367
674.03,0.01285
671.138,0.01228
668.245,0.01143
665.352,0.00972
662.459,0.00901
659.566,0.01000
656.673,0.01161
653.781,0.01348
650.888,0.01479
647.995,0.01594
645.102,0.01786
642.209,0.02027
639.316,0.02344
636.424,0.02342
633.531,0.02410
630.638,0.02294
627.745,0.02206
624.852,0.02334
621.959,0.02266
619.067,0.02426
616.174,0.02481
613.281,0.02605
610.388,0.02584
607.495,0.02464
604.602,0.02435
601.71,0.02142
599.781,0.01937