File: 01_Data/PEVA/FTIR/ATR/PEVA_ATR_240705_R2.0.dpt
4498.36,0.00118
4495.46,0.00113
4492.57,0.00103
4489.68,0.00098
4486.79,0.00111
4483.89,0.00099
4481,0.00102
4478.11,0.00087
4475.21,0.00107
4472.32,0.00115
4469.43,0.00113
4466.54,0.00112
4463.64,0.00110
4460.75,0.00098
4457.86,0.00105
4454.96,0.00098
4452.07,0.00109
4449.18,0.00109
4446.29,0.00106
4443.39,0.00095
4440.5,0.00103
4437.61,0.00109
4434.72,0.00111
4431.82,0.00131
4428.93,0.00107
4426.04,0.00114
4423.14,0.00123
4420.25,0.00106
4417.36,0.00106
4414.47,0.00129
4411.57,0.00117
4408.68,0.00123
4405.79,0.00117
4402.89,0.00120
4400,0.00129
4397.11,0.00138
4394.22,0.00107
4391.32,0.00116
4388.43,0.00100
4385.54,0.00109
4382.64,0.00120
4379.75,0.00134
4376.86,0.00114
4373.97,0.00123
4371.07,0.00126
4368.18,0.00134
4365.29,0.00132
4362.39,0.00117
4359.5,0.00143
4356.61,0.00126
4353.72,0.00128
4350.82,0.00146
4347.93,0.00125
4345.04,0.00143
4342.14,0.00139
4339.25,0.00116
4336.36,0.00152
4333.47,0.00140
4330.57,0.00134
4327.68,0.00140
4324.79,0.00127
4321.89,0.00149
4319,0.00123
4316.11,0.00127
4313.22,0.00137
4310.32,0.00107
4307.43,0.00143
4304.54,0.00129
4301.64,0.00123
4298.75,0.00140
4295.86,0.00148
4292.97,0.00137
4290.07,0.00127
4287.18,0.00153
4284.29,0.00126
4281.39,0.00133
4278.5,0.00133
4275.61,0.00131
4272.72,0.00136
4269.82,0.00133
4266.93,0.00120
4264.04,0.00110
4261.15,0.00111
4258.25,0.00129
4255.36,0.00128
4252.47,0.00118
4249.57,0.00141
4246.68,0.00115
4243.79,0.00105
4240.9,0.00124
4238,0.00117
4235.11,0.00130
4232.22,0.00123
4229.32,0.00141
4226.43,0.00127
4223.54,0.00127
4220.65,0.00120
4217.75,0.00117
4214.86,0.00138
4211.97,0.00156
4209.07,0.00113
4206.18,0.00116
4203.29,0.00128
4200.4,0.00139
4197.5,0.00126
4194.61,0.00131
4191.72,0.00123
4188.82,0.00107
4185.93,0.00134
4183.04,0.00133
4180.15,0.00116
4177.25,0.00122
4174.36,0.00132
4171.47,0.00116
4168.57,0.00117
4165.68,0.00130
4162.79,0.00122
4159.9,0.00118
4157,0.00123
4154.11,0.00104
4151.22,0.00117
4148.32,0.00106
4145.43,0.00132
4142.54,0.00116
4139.65,0.00117
4136.75,0.00127
4133.86,0.00123
4130.97,0.00119
4128.07,0.00112
4125.18,0.00112
4122.29,0.00124
4119.4,0.00115
4116.5,0.00120
4113.61,0.00123
4110.72,0.00132
4107.82,0.00124
4104.93,0.00120
4102.04,0.00116
4099.15,0.00130
4096.25,0.00123
4093.36,0.00119
4090.47,0.00116
4087.58,0.00131
4084.68,0.00138
4081.79,0.00137
4078.9,0.00137
4076,0.00124
4073.11,0.00130
4070.22,0.00118
4067.33,0.00142
4064.43,0.00125
4061.54,0.00122
4058.65,0.00118
4055.75,0.00110
4052.86,0.00111
4049.97,0.00110
4047.08,0.00123
4044.18,0.00124
4041.29,0.00130
4038.4,0.00121
4035.5,0.00108
4032.61,0.00117
4029.72,0.00125
4026.83,0.00111
4023.93,0.00120
4021.04,0.00118
4018.15,0.00125
4015.25,0.00120
4012.36,0.00124
4009.47,0.00121
4006.58,0.00134
4003.68,0.00132
4000.79,0.00113
3997.9,0.00131
3995,0.00119
3992.11,0.00120
3989.22,0.00112
3986.33,0.00107
3983.43,0.00120
3980.54,0.00116
3977.65,0.00108
3974.75,0.00141
3971.86,0.00118
3968.97,0.00116
3966.08,0.00135
3963.18,0.00111
3960.29,0.00122
3957.4,0.00117
3954.5,0.00123
3951.61,0.00112
3948.72,0.00129
3945.83,0.00127
3942.93,0.00118
3940.04,0.00123
3937.15,0.00116
3934.25,0.00109
3931.36,0.00105
3928.47,0.00106
3925.58,0.00124
3922.68,0.00133
3919.79,0.00137
3916.9,0.00135
3914,0.00115
3911.11,0.00111
3908.22,0.00103
3905.33,0.00108
3902.43,0.00107
3899.54,0.00108
3896.65,0.00125
3893.76,0.00127
3890.86,0.00104
3887.97,0.00117
3885.08,0.00114
3882.18,0.00118
3879.29,0.00112
3876.4,0.00110
3873.51,0.00114
3870.61,0.00122
3867.72,0.00118
3864.83,0.00120
3861.93,0.00114
3859.04,0.00125
3856.15,0.00127
3853.26,0.00097
3850.36,0.00115
3847.47,0.00120
3844.58,0.00111
3841.68,0.00115
3838.79,0.00126
3835.9,0.00115
3833.01,0.00118
3830.11,0.00111
3827.22,0.00104
3824.33,0.00108
3821.43,0.00134
3818.54,0.00112
3815.65,0.00113
3812.76,0.00109
3809.86,0.00111
3806.97,0.00104
3804.08,0.00098
3801.18,0.00115
3798.29,0.00112
3795.4,0.00105
3792.51,0.00099
3789.61,0.00109
3786.72,0.00105
3783.83,0.00108
3780.93,0.00114
3778.04,0.00105
3775.15,0.00118
3772.26,0.00114
3769.36,0.00114
3766.47,0.00121
3763.58,0.00104
3760.68,0.00112
3757.79,0.00108
3754.9,0.00110
3752.01,0.00117
3749.11,0.00097
3746.22,0.00105
3743.33,0.00096
3740.43,0.00103
3737.54,0.00115
3734.65,0.00101
3731.76,0.00096
3728.86,0.00084
3725.97,0.00097
3723.08,0.00095
3720.19,0.00091
3717.29,0.00094
3714.4,0.00093
3711.51,0.00096
3708.61,0.00083
3705.72,0.00097
3702.83,0.00104
3699.94,0.00099
3697.04,0.00099
3694.15,0.00104
3691.26,0.00126
3688.36,0.00104
3685.47,0.00091
3682.58,0.00104
3679.69,0.00107
3676.79,0.00115
3673.9,0.00102
3671.01,0.00111
3668.11,0.00094
3665.22,0.00110
3662.33,0.00112
3659.44,0.00108
3656.54,0.00093
3653.65,0.00099
3650.76,0.00094
3647.86,0.00078
3644.97,0.00084
3642.08,0.00104
3639.19,0.00097
3636.29,0.00104
3633.4,0.00106
3630.51,0.00100
3627.61,0.00099
3624.72,0.00113
3621.83,0.00101
3618.94,0.00099
3616.04,0.00098
3613.15,0.00111
3610.26,0.00118
3607.36,0.00102
3604.47,0.00095
3601.58,0.00107
3598.69,0.00111
3595.79,0.00094
3592.9,0.00091
3590.01,0.00106
3587.11,0.00101
3584.22,0.00086
3581.33,0.00092
3578.44,0.00111
3575.54,0.00095
3572.65,0.00105
3569.76,0.00123
3566.86,0.00126
3563.97,0.00109
3561.08,0.00106
3558.19,0.00095
3555.29,0.00101
3552.4,0.00108
3549.51,0.00095
3546.61,0.00103
3543.72,0.00117
3540.83,0.00105
3537.94,0.00096
3535.04,0.00101
3532.15,0.00118
3529.26,0.00099
3526.37,0.00097
3523.47,0.00106
3520.58,0.00118
3517.69,0.00111
3514.79,0.00137
3511.9,0.00110
3509.01,0.00092
3506.12,0.00100
3503.22,0.00098
3500.33,0.00088
3497.44,0.00114
3494.54,0.00132
3491.65,0.00107
3488.76,0.00112
3485.87,0.00117
3482.97,0.00132
3480.08,0.00117
3477.19,0.00116
3474.29,0.00129
3471.4,0.00134
3468.51,0.00116
3465.62,0.00117
3462.72,0.00111
3459.83,0.00112
3456.94,0.00113
3454.04,0.00109
3451.15,0.00124
3448.26,0.00124
3445.37,0.00125
3442.47,0.00120
3439.58,0.00123
3436.69,0.00128
3433.79,0.00126
3430.9,0.00121
3428.01,0.00130
3425.12,0.00129
3422.22,0.00141
3419.33,0.00111
3416.44,0.00121
3413.54,0.00132
3410.65,0.00130
3407.76,0.00113
3404.87,0.00109
3401.97,0.00112
3399.08,0.00116
3396.19,0.00111
3393.29,0.00115
3390.4,0.00118
3387.51,0.00125
3384.62,0.00117
3381.72,0.00093
3378.83,0.00112
3375.94,0.00124
3373.04,0.00098
3370.15,0.00101
3367.26,0.00103
3364.37,0.00119
3361.47,0.00109
3358.58,0.00113
3355.69,0.00115
3352.8,0.00108
3349.9,0.00112
3347.01,0.00118
3344.12,0.00106
3341.22,0.00107
3338.33,0.00103
3335.44,0.00093
3332.55,0.00094
3329.65,0.00108
3326.76,0.00122
3323.87,0.00109
3320.97,0.00106
3318.08,0.00116
3315.19,0.00107
3312.3,0.00106
3309.4,0.00103
3306.51,0.00096
3303.62,0.00119
3300.72,0.00116
3297.83,0.00120
3294.94,0.00114
3292.05,0.00113
3289.15,0.00108
3286.26,0.00116
3283.37,0.00107
3280.47,0.00109
3277.58,0.00105
3274.69,0.00095
3271.8,0.00098
3268.9,0.00102
3266.01,0.00107
3263.12,0.00103
3260.22,0.00096
3257.33,0.00107
3254.44,0.00107
3251.55,0.00099
3248.65,0.00111
3245.76,0.00103
3242.87,0.00092
3239.97,0.00086
3237.08,0.00108
3234.19,0.00093
3231.3,0.00098
3228.4,0.00102
3225.51,0.00103
3222.62,0.00105
3219.72,0.00107
3216.83,0.00112
3213.94,0.00107
3211.05,0.00095
3208.15,0.00104
3205.26,0.00110
3202.37,0.00103
3199.47,0.00114
3196.58,0.00117
3193.69,0.00127
3190.8,0.00106
3187.9,0.00108
3185.01,0.00110
3182.12,0.00113
3179.23,0.00107
3176.33,0.00109
3173.44,0.00122
3170.55,0.00104
3167.65,0.00127
3164.76,0.00123
3161.87,0.00111
3158.98,0.00110
3156.08,0.00097
3153.19,0.00119
3150.3,0.00111
3147.4,0.00112
3144.51,0.00117
3141.62,0.00118
3138.73,0.00123
3135.83,0.00129
3132.94,0.00131
3130.05,0.00122
3127.15,0.00123
3124.26,0.00123
3121.37,0.00133
3118.48,0.00122
3115.58,0.00122
3112.69,0.00121
3109.8,0.00126
3106.9,0.00129
3104.01,0.00127
3101.12,0.00131
3098.23,0.00119
3095.33,0.00122
3092.44,0.00131
3089.55,0.00135
3086.65,0.00139
3083.76,0.00140
3080.87,0.00141
3077.98,0.00139
3075.08,0.00150
3072.19,0.00134
3069.3,0.00141
3066.4,0.00150
3063.51,0.00143
3060.62,0.00150
3057.73,0.00146
3054.83,0.00146
3051.94,0.00161
3049.05,0.00136
3046.15,0.00128
3043.26,0.00152
3040.37,0.00140
3037.48,0.00151
3034.58,0.00145
3031.69,0.00155
3028.8,0.00152
3025.9,0.00153
3023.01,0.00156
3020.12,0.00167
3017.23,0.00158
3014.33,0.00174
3011.44,0.00179
3008.55,0.00182
3005.65,0.00180
3002.76,0.00215
2999.87,0.00228
2996.98,0.00239
2994.08,0.00267
2991.19,0.00298
2988.3,0.00351
2985.41,0.00392
2982.51,0.00460
2979.62,0.00564
2976.73,0.00648
2973.83,0.00776
2970.94,0.00922
2968.05,0.01074
2965.16,0.01224
2962.26,0.01314
2959.37,0.01349
2956.48,0.01317
2953.58,0.01214
2950.69,0.01094
2947.8,0.01005
2944.91,0.00987
2942.01,0.01026
2939.12,0.01133
2936.23,0.01231
2933.33,0.01327
2930.44,0.01393
2927.55,0.01393
2924.66,0.01336
2921.76,0.01278
2918.87,0.01236
2915.98,0.01201
2913.08,0.01161
2910.19,0.01108
2907.3,0.01048
2904.41,0.00976
2901.51,0.00883
2898.62,0.00802
2895.73,0.00737
2892.83,0.00667
2889.94,0.00616
2887.05,0.00601
2884.16,0.00604
2881.26,0.00655
2878.37,0.00745
2875.48,0.00803
2872.58,0.00838
2869.69,0.00804
2866.8,0.00778
2863.91,0.00820
2861.01,0.00870
2858.12,0.00850
2855.23,0.00760
2852.33,0.00649
2849.44,0.00552
2846.55,0.00471
2843.66,0.00411
2840.76,0.00365
2837.87,0.00317
2834.98,0.00298
2832.08,0.00263
2829.19,0.00249
2826.3,0.00247
2823.41,0.00243
2820.51,0.00240
2817.62,0.00243
2814.73,0.00232
2811.84,0.00225
2808.94,0.00201
2806.05,0.00193
2803.16,0.00187
2800.26,0.00193
2797.37,0.00177
2794.48,0.00179
2791.59,0.00178
2788.69,0.00176
2785.8,0.00172
2782.91,0.00167
2780.01,0.00166
2777.12,0.00167
2774.23,0.00155
2771.34,0.00164
2768.44,0.00157
2765.55,0.00158
2762.66,0.00151
2759.76,0.00153
2756.87,0.00161
2753.98,0.00166
2751.09,0.00172
2748.19,0.00158
2745.3,0.00166
2742.41,0.00172
2739.51,0.00172
2736.62,0.00170
2733.73,0.00176
2730.84,0.00177
2727.94,0.00166
2725.05,0.00163
2722.16,0.00159
2719.26,0.00166
2716.37,0.00164
2713.48,0.00153
2710.59,0.00152
2707.69,0.00172
2704.8,0.00165
2701.91,0.00159
2699.01,0.00160
2696.12,0.00147
2693.23,0.00145
2690.34,0.00152
2687.44,0.00154
2684.55,0.00156
2681.66,0.00153
2678.76,0.00157
2675.87,0.00152
2672.98,0.00146
2670.09,0.00160
2667.19,0.00154
2664.3,0.00142
2661.41,0.00157
2658.51,0.00154
2655.62,0.00166
2652.73,0.00165
2649.84,0.00157
2646.94,0.00159
2644.05,0.00147
2641.16,0.00146
2638.26,0.00143
2635.37,0.00151
2632.48,0.00156
2629.59,0.00153
2626.69,0.00141
2623.8,0.00148
2620.91,0.00139
2618.02,0.00139
2615.12,0.00143
2612.23,0.00156
2609.34,0.00141
2606.44,0.00153
2603.55,0.00137
2600.66,0.00139
2597.77,0.00153
2594.87,0.00150
2591.98,0.00145
2589.09,0.00126
2586.19,0.00139
2583.3,0.00144
2580.41,0.00146
2577.52,0.00150
2574.62,0.00129
2571.73,0.00134
2568.84,0.00108
2565.94,0.00140
2563.05,0.00125
2560.16,0.00136
2557.27,0.00134
2554.37,0.00140
2551.48,0.00126
2548.59,0.00128
2545.69,0.00130
2542.8,0.00125
2539.91,0.00121
2537.02,0.00156
2534.12,0.00136
2531.23,0.00126
2528.34,0.00127
2525.44,0.00132
2522.55,0.00116
2519.66,0.00131
2516.77,0.00139
2513.87,0.00115
2510.98,0.00120
2508.09,0.00094
2505.19,0.00113
2502.3,0.00122
2499.41,0.00124
2496.52,0.00117
2493.62,0.00100
2490.73,0.00105
2487.84,0.00108
2484.94,0.00105
2482.05,0.00123
2479.16,0.00111
2476.27,0.00108
2473.37,0.00107
2470.48,0.00117
2467.59,0.00116
2464.69,0.00097
2461.8,0.00110
2458.91,0.00098
2456.02,0.00101
2453.12,0.00087
2450.23,0.00110
2447.34,0.00100
2444.45,0.00104
2441.55,0.00103
2438.66,0.00097
2435.77,0.00095
2432.87,0.00110
2429.98,0.00133
2427.09,0.00101
2424.2,0.00109
2421.3,0.00102
2418.41,0.00104
2415.52,0.00101
2412.62,0.00120
2409.73,0.00116
2406.84,0.00097
2403.95,0.00111
2401.05,0.00119
2398.16,0.00125
2395.27,0.00118
2392.37,0.00110
2389.48,0.00104
2386.59,0.00106
2383.7,0.00093
2380.8,0.00116
2377.91,0.00103
2375.02,0.00090
2372.12,0.00092
2369.23,0.00084
2366.34,0.00098
2363.45,0.00089
2360.55,0.00078
2357.66,0.00098
2354.77,0.00097
2351.87,0.00102
2348.98,0.00118
2346.09,0.00108
2343.2,0.00107
2340.3,0.00102
2337.41,0.00095
2334.52,0.00107
2331.62,0.00117
2328.73,0.00090
2325.84,0.00149
2322.95,0.00141
2320.05,0.00123
2317.16,0.00126
2314.27,0.00131
2311.37,0.00105
2308.48,0.00114
2305.59,0.00096
2302.7,0.00101
2299.8,0.00109
2296.91,0.00108
2294.02,0.00106
2291.12,0.00100
2288.23,0.00083
2285.34,0.00116
2282.45,0.00113
2279.55,0.00092
2276.66,0.00090
2273.77,0.00106
2270.88,0.00050
2267.98,0.00091
2265.09,0.00056
2262.2,0.00080
2259.3,0.00061
2256.41,0.00085
2253.52,0.00054
2250.63,0.00053
2247.73,0.00046
2244.84,0.00049
2241.95,0.00048
2239.05,0.00044
2236.16,0.00087
2233.27,0.00064
2230.38,0.00031
2227.48,0.00052
2224.59,0.00089
2221.7,-0.00011
2218.8,0.00005
2215.91,0.00016
2213.02,-0.00012
2210.13,-0.00019
2207.23,0.00005
2204.34,0.00018
2201.45,-0.00043
2198.55,0.00001
2195.66,-0.00045
2192.77,-0.00058
2189.88,0.00009
2186.98,-0.00053
2184.09,-0.00046
2181.2,-0.00077
2178.3,0.00026
2175.41,-0.00057
2172.52,-0.00033
2169.63,-0.00051
2166.73,-0.00071
2163.84,-0.00089
2160.95,-0.00038
2158.05,-0.00197
2155.16,-0.00239
2152.27,-0.00094
2149.38,-0.00119
2146.48,-0.00037
2143.59,-0.00080
2140.7,-0.00057
2137.8,-0.00015
2134.91,-0.00137
2132.02,-0.00068
2129.13,-0.00055
2126.23,-0.00012
2123.34,0.00008
2120.45,0.00034
2117.55,0.00013
2114.66,0.00070
2111.77,0.00009
2108.88,0.00029
2105.98,0.00038
2103.09,0.00015
2100.2,0.00002
2097.3,0.00030
2094.41,0.00013
2091.52,0.00025
2088.63,0.00020
2085.73,0.00036
2082.84,0.00055
2079.95,0.00017
2077.06,0.00067
2074.16,-0.00003
2071.27,0.00067
2068.38,0.00025
2065.48,0.00035
2062.59,0.00002
2059.7,0.00007
2056.81,0.00017
2053.91,-0.00036
2051.02,0.00036
2048.13,-0.00058
2045.23,-0.00097
2042.34,-0.00014
2039.45,-0.00068
2036.56,-0.00048
2033.66,-0.00100
2030.77,-0.00121
2027.88,-0.00083
2024.98,-0.00074
2022.09,-0.00165
2019.2,-0.00099
2016.31,-0.00016
2013.41,-0.00037
2010.52,-0.00086
2007.63,-0.00104
2004.73,-0.00041
2001.84,-0.00002
1998.95,-0.00038
1996.06,-0.00059
1993.16,-0.00062
1990.27,-0.00000
1987.38,-0.00024
1984.48,0.00043
1981.59,0.00024
1978.7,-0.00041
1975.81,-0.00068
1972.91,-0.00064
1970.02,-0.00001
1967.13,-0.00061
1964.23,-0.00027
1961.34,-0.00013
1958.45,-0.00091
1955.56,-0.00029
1952.66,0.00005
1949.77,0.00060
1946.88,0.00046
1943.98,0.00028
1941.09,0.00017
1938.2,0.00063
1935.31,0.00040
1932.41,0.00007
1929.52,-0.00003
1926.63,0.00023
1923.73,0.00076
1920.84,0.00019
1917.95,0.00062
1915.06,0.00042
1912.16,0.00051
1909.27,0.00055
1906.38,0.00032
1903.49,0.00026
1900.59,0.00072
1897.7,0.00066
1894.81,0.00048
1891.91,0.00061
1889.02,0.00060
1886.13,0.00072
1883.24,0.00044
1880.34,0.00061
1877.45,0.00050
1874.56,0.00052
1871.66,0.00038
1868.77,0.00044
1865.88,0.00060
1862.99,0.00078
1860.09,0.00078
1857.2,0.00081
1854.31,0.00081
1851.41,0.00081
1848.52,0.00072
1845.63,0.00084
1842.74,0.00089
1839.84,0.00103
1836.95,0.00102
1834.06,0.00093
1831.16,0.00090
1828.27,0.00111
1825.38,0.00119
1822.49,0.00137
1819.59,0.00113
1816.7,0.00115
1813.81,0.00129
1810.91,0.00124
1808.02,0.00128
1805.13,0.00132
1802.24,0.00119
1799.34,0.00139
1796.45,0.00144
1793.56,0.00137
1790.66,0.00141
1787.77,0.00145
1784.88,0.00143
1781.99,0.00154
1779.09,0.00154
1776.2,0.00160
1773.31,0.00159
1770.41,0.00174
1767.52,0.00189
1764.63,0.00196
1761.74,0.00196
1758.84,0.00205
1755.95,0.00221
1753.06,0.00255
1750.16,0.00304
1747.27,0.00328
1744.38,0.00367
1741.49,0.00436
1738.59,0.00561
1735.7,0.00745
1732.81,0.01178
1729.91,0.01671
1727.02,0.02215
1724.13,0.02722
1721.24,0.03145
1718.34,0.03414
1715.45,0.03543
1712.56,0.03317
1709.67,0.02783
1706.77,0.02100
1703.88,0.01439
1700.99,0.01020
1698.09,0.00709
1695.2,0.00551
1692.31,0.00449
1689.42,0.00406
1686.52,0.00389
1683.63,0.00365
1680.74,0.00349
1677.84,0.00347
1674.95,0.00345
1672.06,0.00325
1669.17,0.00311
1666.27,0.00273
1663.38,0.00251
1660.49,0.00226
1657.59,0.00216
1654.7,0.00215
1651.81,0.00225
1648.92,0.00218
1646.02,0.00225
1643.13,0.00220
1640.24,0.00227
1637.34,0.00248
1634.45,0.00237
1631.56,0.00221
1628.67,0.00219
1625.77,0.00213
1622.88,0.00214
1619.99,0.00210
1617.09,0.00239
1614.2,0.00245
1611.31,0.00239
1608.42,0.00233
1605.52,0.00226
1602.63,0.00213
1599.74,0.00201
1596.84,0.00207
1593.95,0.00211
1591.06,0.00208
1588.17,0.00200
1585.27,0.00205
1582.38,0.00255
1579.49,0.00306
1576.59,0.00321
1573.7,0.00282
1570.81,0.00272
1567.92,0.00244
1565.02,0.00223
1562.13,0.00230
1559.24,0.00269
1556.34,0.00240
1553.45,0.00220
1550.56,0.00217
1547.67,0.00206
1544.77,0.00206
1541.88,0.00235
1538.99,0.00248
1536.1,0.00219
1533.2,0.00208
1530.31,0.00212
1527.42,0.00234
1524.52,0.00226
1521.63,0.00230
1518.74,0.00240
1515.85,0.00250
1512.95,0.00242
1510.06,0.00270
1507.17,0.00370
1504.27,0.00405
1501.38,0.00310
1498.49,0.00268
1495.6,0.00255
1492.7,0.00253
1489.81,0.00283
1486.92,0.00278
1484.02,0.00294
1481.13,0.00350
1478.24,0.00408
1475.35,0.00498
1472.45,0.00650
1469.56,0.00878
1466.67,0.01080
1463.77,0.01176
1460.88,0.01180
1457.99,0.01116
1455.1,0.00971
1452.2,0.00824
1449.31,0.00738
1446.42,0.00704
1443.52,0.00725
1440.63,0.00852
1437.74,0.01054
1434.85,0.01190
1431.95,0.01130
1429.06,0.01173
1426.17,0.01346
1423.27,0.01146
1420.38,0.00910
1417.49,0.00805
1414.6,0.00798
1411.7,0.00943
1408.81,0.01098
1405.92,0.00941
1403.02,0.00682
1400.13,0.00578
1397.24,0.00569
1394.35,0.00626
1391.45,0.00708
1388.56,0.00824
1385.67,0.00941
1382.77,0.01044
1379.88,0.01082
1376.99,0.01008
1374.1,0.00865
1371.2,0.00730
1368.31,0.00680
1365.42,0.00651
1362.53,0.00676
1359.63,0.00706
1356.74,0.00745
1353.85,0.00746
1350.95,0.00721
1348.06,0.00702
1345.17,0.00718
1342.28,0.00820
1339.38,0.00972
1336.49,0.01129
1333.6,0.01166
1330.7,0.01150
1327.81,0.01133
1324.92,0.01115
1322.03,0.01101
1319.13,0.01096
1316.24,0.01095
1313.35,0.01067
1310.45,0.01058
1307.56,0.01091
1304.67,0.01165
1301.78,0.01176
1298.88,0.01153
1295.99,0.01239
1293.1,0.01380
1290.2,0.01629
1287.31,0.01939
1284.42,0.02309
1281.53,0.02725
1278.63,0.03185
1275.74,0.03689
1272.85,0.04183
1269.95,0.04582
1267.06,0.04739
1264.17,0.04546
1261.28,0.04116
1258.38,0.03846
1255.49,0.03842
1252.6,0.03967
1249.7,0.04058
1246.81,0.04041
1243.92,0.03793
1241.03,0.03377
1238.13,0.02957
1235.24,0.02556
1232.35,0.02222
1229.45,0.01957
1226.56,0.01636
1223.67,0.01319
1220.78,0.01091
1217.88,0.00980
1214.99,0.00956
1212.1,0.00947
1209.2,0.00946
1206.31,0.00954
1203.42,0.00959
1200.53,0.00958
1197.63,0.00907
1194.74,0.00905
1191.85,0.00848
1188.95,0.00768
1186.06,0.00711
1183.17,0.00642
1180.28,0.00644
1177.38,0.00662
1174.49,0.00728
1171.6,0.00775
1168.71,0.00724
1165.81,0.00685
1162.92,0.00680
1160.03,0.00679
1157.13,0.00668
1154.24,0.00703
1151.35,0.00716
1148.46,0.00714
1145.56,0.00711
1142.67,0.00713
1139.78,0.00703
1136.88,0.00794
1133.99,0.00884
1131.1,0.01155
1128.21,0.01551
1125.31,0.02075
1122.42,0.02648
1119.53,0.03132
1116.63,0.03303
1113.74,0.03108
1110.85,0.02824
1107.96,0.02692
1105.06,0.03151
1102.17,0.03537
1099.28,0.03216
1096.38,0.02551
1093.49,0.02050
1090.6,0.01779
1087.71,0.01656
1084.81,0.01559
1081.92,0.01421
1079.03,0.01243
1076.13,0.01087
1073.24,0.01001
1070.35,0.00913
1067.46,0.00857
1064.56,0.00844
1061.67,0.00790
1058.78,0.00746
1055.88,0.00740
1052.99,0.00696
1050.1,0.00671
1047.21,0.00671
1044.31,0.00650
1041.42,0.00655
1038.53,0.00675
1035.63,0.00690
1032.74,0.00695
1029.85,0.00726
1026.96,0.00786
1024.06,0.00951
1021.17,0.01702
1018.28,0.02311
1015.38,0.01356
1012.49,0.00950
1009.6,0.00855
1006.71,0.00826
1003.81,0.00822
1000.92,0.00856
998.028,0.00921
995.135,0.00972
992.242,0.01001
989.349,0.01040
986.457,0.01075
983.564,0.01173
980.671,0.01278
977.778,0.01372
974.885,0.01463
971.992,0.01497
969.1,0.01614
966.207,0.01683
963.314,0.01737
960.421,0.01852
957.528,0.01889
954.635,0.01826
951.743,0.01720
948.85,0.01596
945.957,0.01495
943.064,0.01375
940.171,0.01280
937.278,0.01223
934.386,0.01179
931.493,0.01121
928.6,0.01118
925.707,0.01087
922.814,0.01061
919.921,0.01009
917.029,0.00926
914.136,0.00886
911.243,0.00877
908.35,0.00870
905.457,0.00799
902.564,0.00792
899.672,0.00757
896.779,0.00738
893.886,0.00695
890.993,0.00689
888.1,0.00674
885.207,0.00670
882.314,0.00761
879.422,0.00900
876.529,0.01211
873.636,0.01292
870.743,0.01048
867.85,0.00851
864.957,0.00736
862.065,0.00715
859.172,0.00718
856.279,0.00713
853.386,0.00708
850.493,0.00698
847.6,0.00691
844.708,0.00704
841.815,0.00716
838.922,0.00729
836.029,0.00746
833.136,0.00819
830.243,0.00804
827.351,0.00695
824.458,0.00589
821.565,0.00547
818.672,0.00488
815.779,0.00472
812.886,0.00457
809.994,0.00472
807.101,0.00455
804.208,0.00430
801.315,0.00404
798.422,0.00496
795.529,0.00568
792.637,0.00512
789.744,0.00467
786.851,0.00513
783.958,0.00553
781.065,0.00555
778.172,0.00564
775.28,0.00550
772.387,0.00605
769.494,0.00665
766.601,0.00611
763.708,0.00605
760.815,0.00503
757.923,0.00446
755.03,0.00487
752.137,0.00419
749.244,0.00406
746.351,0.00533
743.458,0.00517
740.566,0.00768
737.673,0.01417
734.78,0.02647
731.887,0.03788
728.994,0.03687
726.101,0.02284
723.209,0.01418
720.316,0.01042
717.423,0.00963
714.53,0.00909
711.637,0.00948
708.744,0.01052
705.852,0.01159
702.959,0.01317
700.066,0.01409
697.173,0.01431
694.28,0.01470
691.387,0.01485
688.495,0.01463
685.602,0.01385
682.709,0.01425
679.816,0.01449
676.923,0.01382
674.03,0.01388
671.138,0.01188
668.245,0.00918
665.352,0.00995
662.459,0.00932
659.566,0.00981
656.673,0.01134
653.781,0.01268
650.888,0.01441
647.995,0.01631
645.102,0.01820
642.209,0.02034
639.316,0.02272
636.424,0.02405
633.531,0.02426
630.638,0.02305
627.745,0.02201
624.852,0.02302
621.959,0.02387
619.067,0.02428
616.174,0.02523
613.281,0.02566
610.388,0.02583
607.495,0.02551
604.602,0.02538
601.71,0.02160
599.781,0.01949