File: 01_Data/PEVA/FTIR/ATR/PEVA_ATR_240705_R7.0.dpt
4498.36,0.00135
4495.46,0.00135
4492.57,0.00147
4489.68,0.00140
4486.79,0.00128
4483.89,0.00155
4481,0.00139
4478.11,0.00184
4475.21,0.00149
4472.32,0.00140
4469.43,0.00140
4466.54,0.00149
4463.64,0.00145
4460.75,0.00155
4457.86,0.00162
4454.96,0.00144
4452.07,0.00166
4449.18,0.00159
4446.29,0.00162
4443.39,0.00148
4440.5,0.00139
4437.61,0.00142
4434.72,0.00150
4431.82,0.00147
4428.93,0.00155
4426.04,0.00144
4423.14,0.00169
4420.25,0.00142
4417.36,0.00134
4414.47,0.00151
4411.57,0.00157
4408.68,0.00145
4405.79,0.00157
4402.89,0.00159
4400,0.00152
4397.11,0.00144
4394.22,0.00154
4391.32,0.00183
4388.43,0.00181
4385.54,0.00175
4382.64,0.00161
4379.75,0.00143
4376.86,0.00171
4373.97,0.00140
4371.07,0.00156
4368.18,0.00160
4365.29,0.00158
4362.39,0.00156
4359.5,0.00168
4356.61,0.00162
4353.72,0.00176
4350.82,0.00167
4347.93,0.00158
4345.04,0.00155
4342.14,0.00180
4339.25,0.00168
4336.36,0.00170
4333.47,0.00173
4330.57,0.00175
4327.68,0.00153
4324.79,0.00160
4321.89,0.00165
4319,0.00171
4316.11,0.00174
4313.22,0.00170
4310.32,0.00150
4307.43,0.00153
4304.54,0.00164
4301.64,0.00161
4298.75,0.00163
4295.86,0.00164
4292.97,0.00165
4290.07,0.00163
4287.18,0.00156
4284.29,0.00167
4281.39,0.00158
4278.5,0.00168
4275.61,0.00160
4272.72,0.00154
4269.82,0.00181
4266.93,0.00158
4264.04,0.00150
4261.15,0.00135
4258.25,0.00159
4255.36,0.00172
4252.47,0.00157
4249.57,0.00141
4246.68,0.00146
4243.79,0.00156
4240.9,0.00135
4238,0.00168
4235.11,0.00161
4232.22,0.00144
4229.32,0.00174
4226.43,0.00154
4223.54,0.00153
4220.65,0.00157
4217.75,0.00156
4214.86,0.00151
4211.97,0.00158
4209.07,0.00166
4206.18,0.00155
4203.29,0.00168
4200.4,0.00153
4197.5,0.00152
4194.61,0.00154
4191.72,0.00145
4188.82,0.00171
4185.93,0.00162
4183.04,0.00171
4180.15,0.00167
4177.25,0.00158
4174.36,0.00164
4171.47,0.00160
4168.57,0.00174
4165.68,0.00169
4162.79,0.00175
4159.9,0.00159
4157,0.00172
4154.11,0.00160
4151.22,0.00162
4148.32,0.00161
4145.43,0.00165
4142.54,0.00149
4139.65,0.00169
4136.75,0.00161
4133.86,0.00160
4130.97,0.00164
4128.07,0.00173
4125.18,0.00173
4122.29,0.00155
4119.4,0.00157
4116.5,0.00154
4113.61,0.00149
4110.72,0.00148
4107.82,0.00173
4104.93,0.00155
4102.04,0.00152
4099.15,0.00155
4096.25,0.00150
4093.36,0.00168
4090.47,0.00178
4087.58,0.00165
4084.68,0.00154
4081.79,0.00163
4078.9,0.00178
4076,0.00186
4073.11,0.00163
4070.22,0.00147
4067.33,0.00149
4064.43,0.00150
4061.54,0.00162
4058.65,0.00167
4055.75,0.00154
4052.86,0.00166
4049.97,0.00165
4047.08,0.00167
4044.18,0.00161
4041.29,0.00161
4038.4,0.00151
4035.5,0.00147
4032.61,0.00148
4029.72,0.00150
4026.83,0.00159
4023.93,0.00159
4021.04,0.00161
4018.15,0.00154
4015.25,0.00156
4012.36,0.00155
4009.47,0.00147
4006.58,0.00141
4003.68,0.00135
4000.79,0.00151
3997.9,0.00144
3995,0.00156
3992.11,0.00162
3989.22,0.00160
3986.33,0.00154
3983.43,0.00156
3980.54,0.00157
3977.65,0.00154
3974.75,0.00162
3971.86,0.00161
3968.97,0.00164
3966.08,0.00163
3963.18,0.00175
3960.29,0.00157
3957.4,0.00149
3954.5,0.00156
3951.61,0.00157
3948.72,0.00162
3945.83,0.00163
3942.93,0.00152
3940.04,0.00146
3937.15,0.00155
3934.25,0.00156
3931.36,0.00147
3928.47,0.00143
3925.58,0.00146
3922.68,0.00146
3919.79,0.00146
3916.9,0.00153
3914,0.00158
3911.11,0.00160
3908.22,0.00164
3905.33,0.00152
3902.43,0.00124
3899.54,0.00136
3896.65,0.00149
3893.76,0.00145
3890.86,0.00136
3887.97,0.00147
3885.08,0.00138
3882.18,0.00152
3879.29,0.00162
3876.4,0.00160
3873.51,0.00141
3870.61,0.00149
3867.72,0.00162
3864.83,0.00153
3861.93,0.00143
3859.04,0.00161
3856.15,0.00151
3853.26,0.00141
3850.36,0.00141
3847.47,0.00145
3844.58,0.00150
3841.68,0.00161
3838.79,0.00162
3835.9,0.00154
3833.01,0.00162
3830.11,0.00168
3827.22,0.00162
3824.33,0.00155
3821.43,0.00151
3818.54,0.00148
3815.65,0.00136
3812.76,0.00149
3809.86,0.00158
3806.97,0.00136
3804.08,0.00147
3801.18,0.00137
3798.29,0.00153
3795.4,0.00144
3792.51,0.00156
3789.61,0.00170
3786.72,0.00174
3783.83,0.00167
3780.93,0.00156
3778.04,0.00158
3775.15,0.00155
3772.26,0.00161
3769.36,0.00139
3766.47,0.00146
3763.58,0.00153
3760.68,0.00158
3757.79,0.00141
3754.9,0.00164
3752.01,0.00163
3749.11,0.00136
3746.22,0.00154
3743.33,0.00160
3740.43,0.00167
3737.54,0.00175
3734.65,0.00168
3731.76,0.00152
3728.86,0.00152
3725.97,0.00161
3723.08,0.00151
3720.19,0.00167
3717.29,0.00159
3714.4,0.00157
3711.51,0.00152
3708.61,0.00156
3705.72,0.00149
3702.83,0.00153
3699.94,0.00162
3697.04,0.00158
3694.15,0.00162
3691.26,0.00161
3688.36,0.00145
3685.47,0.00161
3682.58,0.00180
3679.69,0.00161
3676.79,0.00138
3673.9,0.00143
3671.01,0.00148
3668.11,0.00168
3665.22,0.00174
3662.33,0.00162
3659.44,0.00179
3656.54,0.00170
3653.65,0.00181
3650.76,0.00174
3647.86,0.00156
3644.97,0.00180
3642.08,0.00184
3639.19,0.00183
3636.29,0.00188
3633.4,0.00187
3630.51,0.00173
3627.61,0.00159
3624.72,0.00158
3621.83,0.00170
3618.94,0.00174
3616.04,0.00185
3613.15,0.00182
3610.26,0.00182
3607.36,0.00183
3604.47,0.00191
3601.58,0.00199
3598.69,0.00198
3595.79,0.00165
3592.9,0.00197
3590.01,0.00207
3587.11,0.00193
3584.22,0.00194
3581.33,0.00203
3578.44,0.00199
3575.54,0.00192
3572.65,0.00205
3569.76,0.00204
3566.86,0.00208
3563.97,0.00216
3561.08,0.00211
3558.19,0.00220
3555.29,0.00235
3552.4,0.00225
3549.51,0.00228
3546.61,0.00215
3543.72,0.00221
3540.83,0.00226
3537.94,0.00248
3535.04,0.00228
3532.15,0.00235
3529.26,0.00216
3526.37,0.00217
3523.47,0.00218
3520.58,0.00222
3517.69,0.00233
3514.79,0.00220
3511.9,0.00237
3509.01,0.00234
3506.12,0.00242
3503.22,0.00227
3500.33,0.00238
3497.44,0.00242
3494.54,0.00269
3491.65,0.00265
3488.76,0.00252
3485.87,0.00249
3482.97,0.00240
3480.08,0.00244
3477.19,0.00256
3474.29,0.00258
3471.4,0.00258
3468.51,0.00257
3465.62,0.00279
3462.72,0.00266
3459.83,0.00250
3456.94,0.00278
3454.04,0.00281
3451.15,0.00278
3448.26,0.00278
3445.37,0.00244
3442.47,0.00276
3439.58,0.00289
3436.69,0.00274
3433.79,0.00287
3430.9,0.00292
3428.01,0.00257
3425.12,0.00276
3422.22,0.00283
3419.33,0.00282
3416.44,0.00272
3413.54,0.00262
3410.65,0.00285
3407.76,0.00267
3404.87,0.00285
3401.97,0.00262
3399.08,0.00272
3396.19,0.00270
3393.29,0.00265
3390.4,0.00271
3387.51,0.00271
3384.62,0.00268
3381.72,0.00270
3378.83,0.00273
3375.94,0.00269
3373.04,0.00265
3370.15,0.00263
3367.26,0.00276
3364.37,0.00258
3361.47,0.00282
3358.58,0.00273
3355.69,0.00266
3352.8,0.00263
3349.9,0.00261
3347.01,0.00264
3344.12,0.00257
3341.22,0.00266
3338.33,0.00256
3335.44,0.00255
3332.55,0.00269
3329.65,0.00256
3326.76,0.00256
3323.87,0.00275
3320.97,0.00269
3318.08,0.00264
3315.19,0.00254
3312.3,0.00274
3309.4,0.00271
3306.51,0.00272
3303.62,0.00283
3300.72,0.00289
3297.83,0.00291
3294.94,0.00285
3292.05,0.00274
3289.15,0.00274
3286.26,0.00274
3283.37,0.00262
3280.47,0.00269
3277.58,0.00261
3274.69,0.00246
3271.8,0.00260
3268.9,0.00263
3266.01,0.00246
3263.12,0.00236
3260.22,0.00240
3257.33,0.00238
3254.44,0.00244
3251.55,0.00232
3248.65,0.00248
3245.76,0.00224
3242.87,0.00231
3239.97,0.00224
3237.08,0.00218
3234.19,0.00225
3231.3,0.00212
3228.4,0.00213
3225.51,0.00221
3222.62,0.00219
3219.72,0.00227
3216.83,0.00218
3213.94,0.00225
3211.05,0.00212
3208.15,0.00214
3205.26,0.00223
3202.37,0.00226
3199.47,0.00217
3196.58,0.00222
3193.69,0.00219
3190.8,0.00216
3187.9,0.00199
3185.01,0.00205
3182.12,0.00203
3179.23,0.00216
3176.33,0.00194
3173.44,0.00209
3170.55,0.00194
3167.65,0.00205
3164.76,0.00208
3161.87,0.00211
3158.98,0.00200
3156.08,0.00201
3153.19,0.00190
3150.3,0.00199
3147.4,0.00207
3144.51,0.00197
3141.62,0.00197
3138.73,0.00201
3135.83,0.00190
3132.94,0.00183
3130.05,0.00184
3127.15,0.00201
3124.26,0.00184
3121.37,0.00186
3118.48,0.00188
3115.58,0.00195
3112.69,0.00195
3109.8,0.00195
3106.9,0.00191
3104.01,0.00182
3101.12,0.00193
3098.23,0.00192
3095.33,0.00188
3092.44,0.00197
3089.55,0.00194
3086.65,0.00195
3083.76,0.00193
3080.87,0.00209
3077.98,0.00207
3075.08,0.00194
3072.19,0.00193
3069.3,0.00191
3066.4,0.00189
3063.51,0.00186
3060.62,0.00189
3057.73,0.00195
3054.83,0.00195
3051.94,0.00203
3049.05,0.00188
3046.15,0.00184
3043.26,0.00185
3040.37,0.00178
3037.48,0.00174
3034.58,0.00192
3031.69,0.00196
3028.8,0.00198
3025.9,0.00193
3023.01,0.00208
3020.12,0.00212
3017.23,0.00202
3014.33,0.00199
3011.44,0.00204
3008.55,0.00216
3005.65,0.00225
3002.76,0.00244
2999.87,0.00237
2996.98,0.00265
2994.08,0.00281
2991.19,0.00304
2988.3,0.00322
2985.41,0.00367
2982.51,0.00412
2979.62,0.00478
2976.73,0.00564
2973.83,0.00644
2970.94,0.00761
2968.05,0.00870
2965.16,0.00965
2962.26,0.01050
2959.37,0.01087
2956.48,0.01056
2953.58,0.00985
2950.69,0.00878
2947.8,0.00832
2944.91,0.00818
2942.01,0.00837
2939.12,0.00915
2936.23,0.00990
2933.33,0.01061
2930.44,0.01125
2927.55,0.01126
2924.66,0.01114
2921.76,0.01122
2918.87,0.01136
2915.98,0.01127
2913.08,0.01037
2910.19,0.00966
2907.3,0.00879
2904.41,0.00810
2901.51,0.00748
2898.62,0.00681
2895.73,0.00639
2892.83,0.00588
2889.94,0.00553
2887.05,0.00517
2884.16,0.00531
2881.26,0.00561
2878.37,0.00615
2875.48,0.00682
2872.58,0.00701
2869.69,0.00673
2866.8,0.00661
2863.91,0.00680
2861.01,0.00720
2858.12,0.00704
2855.23,0.00663
2852.33,0.00622
2849.44,0.00599
2846.55,0.00500
2843.66,0.00415
2840.76,0.00345
2837.87,0.00318
2834.98,0.00295
2832.08,0.00276
2829.19,0.00266
2826.3,0.00257
2823.41,0.00243
2820.51,0.00239
2817.62,0.00252
2814.73,0.00233
2811.84,0.00227
2808.94,0.00210
2806.05,0.00223
2803.16,0.00210
2800.26,0.00185
2797.37,0.00196
2794.48,0.00192
2791.59,0.00186
2788.69,0.00183
2785.8,0.00192
2782.91,0.00180
2780.01,0.00181
2777.12,0.00179
2774.23,0.00175
2771.34,0.00170
2768.44,0.00179
2765.55,0.00177
2762.66,0.00170
2759.76,0.00179
2756.87,0.00176
2753.98,0.00178
2751.09,0.00179
2748.19,0.00179
2745.3,0.00176
2742.41,0.00185
2739.51,0.00190
2736.62,0.00176
2733.73,0.00185
2730.84,0.00192
2727.94,0.00175
2725.05,0.00172
2722.16,0.00173
2719.26,0.00165
2716.37,0.00168
2713.48,0.00170
2710.59,0.00174
2707.69,0.00175
2704.8,0.00169
2701.91,0.00168
2699.01,0.00173
2696.12,0.00167
2693.23,0.00167
2690.34,0.00165
2687.44,0.00162
2684.55,0.00165
2681.66,0.00165
2678.76,0.00164
2675.87,0.00170
2672.98,0.00170
2670.09,0.00168
2667.19,0.00167
2664.3,0.00173
2661.41,0.00171
2658.51,0.00178
2655.62,0.00180
2652.73,0.00180
2649.84,0.00169
2646.94,0.00172
2644.05,0.00184
2641.16,0.00187
2638.26,0.00179
2635.37,0.00177
2632.48,0.00169
2629.59,0.00176
2626.69,0.00167
2623.8,0.00164
2620.91,0.00179
2618.02,0.00168
2615.12,0.00165
2612.23,0.00162
2609.34,0.00183
2606.44,0.00179
2603.55,0.00176
2600.66,0.00161
2597.77,0.00166
2594.87,0.00183
2591.98,0.00168
2589.09,0.00171
2586.19,0.00165
2583.3,0.00161
2580.41,0.00185
2577.52,0.00170
2574.62,0.00171
2571.73,0.00170
2568.84,0.00162
2565.94,0.00160
2563.05,0.00170
2560.16,0.00177
2557.27,0.00172
2554.37,0.00166
2551.48,0.00163
2548.59,0.00168
2545.69,0.00174
2542.8,0.00180
2539.91,0.00168
2537.02,0.00180
2534.12,0.00182
2531.23,0.00165
2528.34,0.00154
2525.44,0.00150
2522.55,0.00189
2519.66,0.00159
2516.77,0.00165
2513.87,0.00172
2510.98,0.00144
2508.09,0.00173
2505.19,0.00172
2502.3,0.00174
2499.41,0.00148
2496.52,0.00168
2493.62,0.00163
2490.73,0.00179
2487.84,0.00177
2484.94,0.00156
2482.05,0.00167
2479.16,0.00170
2476.27,0.00157
2473.37,0.00154
2470.48,0.00160
2467.59,0.00164
2464.69,0.00166
2461.8,0.00157
2458.91,0.00159
2456.02,0.00160
2453.12,0.00154
2450.23,0.00175
2447.34,0.00154
2444.45,0.00164
2441.55,0.00171
2438.66,0.00164
2435.77,0.00168
2432.87,0.00155
2429.98,0.00158
2427.09,0.00170
2424.2,0.00158
2421.3,0.00153
2418.41,0.00155
2415.52,0.00150
2412.62,0.00152
2409.73,0.00175
2406.84,0.00151
2403.95,0.00166
2401.05,0.00160
2398.16,0.00157
2395.27,0.00171
2392.37,0.00155
2389.48,0.00157
2386.59,0.00138
2383.7,0.00154
2380.8,0.00158
2377.91,0.00142
2375.02,0.00141
2372.12,0.00129
2369.23,0.00109
2366.34,0.00091
2363.45,0.00100
2360.55,0.00110
2357.66,0.00122
2354.77,0.00114
2351.87,0.00116
2348.98,0.00117
2346.09,0.00135
2343.2,0.00132
2340.3,0.00104
2337.41,0.00125
2334.52,0.00131
2331.62,0.00074
2328.73,0.00101
2325.84,0.00108
2322.95,0.00192
2320.05,0.00164
2317.16,0.00204
2314.27,0.00172
2311.37,0.00190
2308.48,0.00186
2305.59,0.00165
2302.7,0.00194
2299.8,0.00172
2296.91,0.00171
2294.02,0.00191
2291.12,0.00190
2288.23,0.00197
2285.34,0.00208
2282.45,0.00205
2279.55,0.00228
2276.66,0.00229
2273.77,0.00233
2270.88,0.00210
2267.98,0.00214
2265.09,0.00174
2262.2,0.00208
2259.3,0.00197
2256.41,0.00178
2253.52,0.00231
2250.63,0.00236
2247.73,0.00193
2244.84,0.00216
2241.95,0.00283
2239.05,0.00260
2236.16,0.00283
2233.27,0.00281
2230.38,0.00253
2227.48,0.00274
2224.59,0.00304
2221.7,0.00272
2218.8,0.00258
2215.91,0.00256
2213.02,0.00271
2210.13,0.00239
2207.23,0.00248
2204.34,0.00276
2201.45,0.00249
2198.55,0.00261
2195.66,0.00267
2192.77,0.00282
2189.88,0.00258
2186.98,0.00293
2184.09,0.00290
2181.2,0.00341
2178.3,0.00332
2175.41,0.00289
2172.52,0.00224
2169.63,0.00246
2166.73,0.00299
2163.84,0.00304
2160.95,0.00330
2158.05,0.00253
2155.16,0.00205
2152.27,0.00244
2149.38,0.00274
2146.48,0.00245
2143.59,0.00253
2140.7,0.00217
2137.8,0.00205
2134.91,0.00217
2132.02,0.00215
2129.13,0.00174
2126.23,0.00171
2123.34,0.00207
2120.45,0.00182
2117.55,0.00247
2114.66,0.00181
2111.77,0.00224
2108.88,0.00203
2105.98,0.00189
2103.09,0.00190
2100.2,0.00191
2097.3,0.00195
2094.41,0.00161
2091.52,0.00191
2088.63,0.00200
2085.73,0.00175
2082.84,0.00215
2079.95,0.00175
2077.06,0.00203
2074.16,0.00234
2071.27,0.00191
2068.38,0.00212
2065.48,0.00189
2062.59,0.00214
2059.7,0.00228
2056.81,0.00254
2053.91,0.00234
2051.02,0.00304
2048.13,0.00241
2045.23,0.00216
2042.34,0.00272
2039.45,0.00250
2036.56,0.00343
2033.66,0.00386
2030.77,0.00285
2027.88,0.00266
2024.98,0.00312
2022.09,0.00370
2019.2,0.00265
2016.31,0.00303
2013.41,0.00310
2010.52,0.00302
2007.63,0.00289
2004.73,0.00258
2001.84,0.00274
1998.95,0.00171
1996.06,0.00241
1993.16,0.00324
1990.27,0.00237
1987.38,0.00236
1984.48,0.00266
1981.59,0.00252
1978.7,0.00352
1975.81,0.00256
1972.91,0.00219
1970.02,0.00158
1967.13,0.00176
1964.23,0.00248
1961.34,0.00264
1958.45,0.00231
1955.56,0.00224
1952.66,0.00204
1949.77,0.00193
1946.88,0.00169
1943.98,0.00188
1941.09,0.00176
1938.2,0.00195
1935.31,0.00177
1932.41,0.00203
1929.52,0.00191
1926.63,0.00197
1923.73,0.00195
1920.84,0.00188
1917.95,0.00180
1915.06,0.00170
1912.16,0.00188
1909.27,0.00166
1906.38,0.00194
1903.49,0.00208
1900.59,0.00154
1897.7,0.00151
1894.81,0.00154
1891.91,0.00154
1889.02,0.00147
1886.13,0.00152
1883.24,0.00158
1880.34,0.00165
1877.45,0.00159
1874.56,0.00166
1871.66,0.00155
1868.77,0.00171
1865.88,0.00160
1862.99,0.00153
1860.09,0.00160
1857.2,0.00156
1854.31,0.00148
1851.41,0.00150
1848.52,0.00169
1845.63,0.00180
1842.74,0.00172
1839.84,0.00166
1836.95,0.00162
1834.06,0.00178
1831.16,0.00172
1828.27,0.00169
1825.38,0.00181
1822.49,0.00185
1819.59,0.00173
1816.7,0.00168
1813.81,0.00170
1810.91,0.00151
1808.02,0.00160
1805.13,0.00170
1802.24,0.00167
1799.34,0.00174
1796.45,0.00172
1793.56,0.00158
1790.66,0.00179
1787.77,0.00178
1784.88,0.00167
1781.99,0.00181
1779.09,0.00178
1776.2,0.00183
1773.31,0.00176
1770.41,0.00188
1767.52,0.00200
1764.63,0.00192
1761.74,0.00203
1758.84,0.00216
1755.95,0.00229
1753.06,0.00246
1750.16,0.00255
1747.27,0.00287
1744.38,0.00309
1741.49,0.00355
1738.59,0.00462
1735.7,0.00605
1732.81,0.00913
1729.91,0.01269
1727.02,0.01677
1724.13,0.02056
1721.24,0.02364
1718.34,0.02548
1715.45,0.02599
1712.56,0.02456
1709.67,0.02089
1706.77,0.01598
1703.88,0.01124
1700.99,0.00804
1698.09,0.00557
1695.2,0.00437
1692.31,0.00407
1689.42,0.00378
1686.52,0.00352
1683.63,0.00343
1680.74,0.00344
1677.84,0.00344
1674.95,0.00333
1672.06,0.00334
1669.17,0.00304
1666.27,0.00310
1663.38,0.00292
1660.49,0.00283
1657.59,0.00285
1654.7,0.00272
1651.81,0.00253
1648.92,0.00279
1646.02,0.00268
1643.13,0.00314
1640.24,0.00340
1637.34,0.00333
1634.45,0.00304
1631.56,0.00305
1628.67,0.00294
1625.77,0.00279
1622.88,0.00271
1619.99,0.00282
1617.09,0.00279
1614.2,0.00289
1611.31,0.00294
1608.42,0.00294
1605.52,0.00288
1602.63,0.00280
1599.74,0.00280
1596.84,0.00272
1593.95,0.00272
1591.06,0.00277
1588.17,0.00287
1585.27,0.00287
1582.38,0.00310
1579.49,0.00343
1576.59,0.00327
1573.7,0.00326
1570.81,0.00308
1567.92,0.00293
1565.02,0.00297
1562.13,0.00281
1559.24,0.00241
1556.34,0.00265
1553.45,0.00268
1550.56,0.00257
1547.67,0.00261
1544.77,0.00237
1541.88,0.00228
1538.99,0.00203
1536.1,0.00231
1533.2,0.00215
1530.31,0.00239
1527.42,0.00228
1524.52,0.00217
1521.63,0.00196
1518.74,0.00198
1515.85,0.00209
1512.95,0.00232
1510.06,0.00242
1507.17,0.00272
1504.27,0.00352
1501.38,0.00290
1498.49,0.00240
1495.6,0.00227
1492.7,0.00243
1489.81,0.00242
1486.92,0.00265
1484.02,0.00295
1481.13,0.00327
1478.24,0.00376
1475.35,0.00436
1472.45,0.00543
1469.56,0.00739
1466.67,0.00895
1463.77,0.00959
1460.88,0.00959
1457.99,0.00870
1455.1,0.00765
1452.2,0.00680
1449.31,0.00617
1446.42,0.00591
1443.52,0.00614
1440.63,0.00700
1437.74,0.00830
1434.85,0.00945
1431.95,0.00912
1429.06,0.00947
1426.17,0.01075
1423.27,0.00911
1420.38,0.00716
1417.49,0.00648
1414.6,0.00671
1411.7,0.00773
1408.81,0.00885
1405.92,0.00763
1403.02,0.00574
1400.13,0.00498
1397.24,0.00484
1394.35,0.00527
1391.45,0.00596
1388.56,0.00659
1385.67,0.00765
1382.77,0.00840
1379.88,0.00881
1376.99,0.00821
1374.1,0.00694
1371.2,0.00616
1368.31,0.00560
1365.42,0.00557
1362.53,0.00563
1359.63,0.00591
1356.74,0.00610
1353.85,0.00627
1350.95,0.00612
1348.06,0.00587
1345.17,0.00608
1342.28,0.00678
1339.38,0.00782
1336.49,0.00894
1333.6,0.00927
1330.7,0.00914
1327.81,0.00906
1324.92,0.00899
1322.03,0.00890
1319.13,0.00872
1316.24,0.00867
1313.35,0.00855
1310.45,0.00861
1307.56,0.00883
1304.67,0.00930
1301.78,0.00931
1298.88,0.00916
1295.99,0.00969
1293.1,0.01085
1290.2,0.01256
1287.31,0.01501
1284.42,0.01782
1281.53,0.02086
1278.63,0.02416
1275.74,0.02786
1272.85,0.03158
1269.95,0.03448
1267.06,0.03549
1264.17,0.03402
1261.28,0.03097
1258.38,0.02886
1255.49,0.02917
1252.6,0.03007
1249.7,0.03068
1246.81,0.03048
1243.92,0.02862
1241.03,0.02577
1238.13,0.02256
1235.24,0.01981
1232.35,0.01735
1229.45,0.01532
1226.56,0.01291
1223.67,0.01054
1220.78,0.00893
1217.88,0.00821
1214.99,0.00782
1212.1,0.00792
1209.2,0.00767
1206.31,0.00785
1203.42,0.00784
1200.53,0.00806
1197.63,0.00777
1194.74,0.00746
1191.85,0.00692
1188.95,0.00653
1186.06,0.00602
1183.17,0.00577
1180.28,0.00548
1177.38,0.00573
1174.49,0.00634
1171.6,0.00653
1168.71,0.00611
1165.81,0.00590
1162.92,0.00580
1160.03,0.00565
1157.13,0.00583
1154.24,0.00592
1151.35,0.00612
1148.46,0.00618
1145.56,0.00614
1142.67,0.00594
1139.78,0.00636
1136.88,0.00683
1133.99,0.00777
1131.1,0.00949
1128.21,0.01223
1125.31,0.01625
1122.42,0.02094
1119.53,0.02389
1116.63,0.02532
1113.74,0.02406
1110.85,0.02186
1107.96,0.02081
1105.06,0.02439
1102.17,0.02711
1099.28,0.02494
1096.38,0.01996
1093.49,0.01617
1090.6,0.01420
1087.71,0.01345
1084.81,0.01286
1081.92,0.01177
1079.03,0.01050
1076.13,0.00930
1073.24,0.00851
1070.35,0.00791
1067.46,0.00770
1064.56,0.00739
1061.67,0.00726
1058.78,0.00699
1055.88,0.00673
1052.99,0.00637
1050.1,0.00632
1047.21,0.00628
1044.31,0.00609
1041.42,0.00614
1038.53,0.00620
1035.63,0.00633
1032.74,0.00632
1029.85,0.00656
1026.96,0.00681
1024.06,0.00809
1021.17,0.01376
1018.28,0.01841
1015.38,0.01140
1012.49,0.00843
1009.6,0.00768
1006.71,0.00739
1003.81,0.00721
1000.92,0.00754
998.028,0.00792
995.135,0.00809
992.242,0.00860
989.349,0.00865
986.457,0.00916
983.564,0.00970
980.671,0.01044
977.778,0.01106
974.885,0.01179
971.992,0.01228
969.1,0.01291
966.207,0.01360
963.314,0.01413
960.421,0.01484
957.528,0.01496
954.635,0.01466
951.743,0.01399
948.85,0.01295
945.957,0.01224
943.064,0.01151
940.171,0.01054
937.278,0.01009
934.386,0.00980
931.493,0.00946
928.6,0.00913
925.707,0.00919
922.814,0.00910
919.921,0.00860
917.029,0.00822
914.136,0.00778
911.243,0.00762
908.35,0.00756
905.457,0.00741
902.564,0.00690
899.672,0.00691
896.779,0.00664
893.886,0.00662
890.993,0.00639
888.1,0.00618
885.207,0.00629
882.314,0.00688
879.422,0.00850
876.529,0.01049
873.636,0.01117
870.743,0.00891
867.85,0.00772
864.957,0.00743
862.065,0.00678
859.172,0.00676
856.279,0.00668
853.386,0.00661
850.493,0.00681
847.6,0.00709
844.708,0.00655
841.815,0.00677
838.922,0.00682
836.029,0.00693
833.136,0.00759
830.243,0.00705
827.351,0.00640
824.458,0.00591
821.565,0.00536
818.672,0.00531
815.779,0.00493
812.886,0.00507
809.994,0.00509
807.101,0.00489
804.208,0.00519
801.315,0.00518
798.422,0.00515
795.529,0.00570
792.637,0.00508
789.744,0.00491
786.851,0.00514
783.958,0.00556
781.065,0.00561
778.172,0.00565
775.28,0.00603
772.387,0.00606
769.494,0.00636
766.601,0.00623
763.708,0.00607
760.815,0.00527
757.923,0.00511
755.03,0.00448
752.137,0.00460
749.244,0.00437
746.351,0.00528
743.458,0.00662
740.566,0.00754
737.673,0.01208
734.78,0.02096
731.887,0.02909
728.994,0.02863
726.101,0.01873
723.209,0.01243
720.316,0.00943
717.423,0.00857
714.53,0.00848
711.637,0.00873
708.744,0.00976
705.852,0.01054
702.959,0.01145
700.066,0.01171
697.173,0.01227
694.28,0.01233
691.387,0.01288
688.495,0.01258
685.602,0.01173
682.709,0.01173
679.816,0.01149
676.923,0.01165
674.03,0.01044
671.138,0.00987
668.245,0.00950
665.352,0.00810
662.459,0.00773
659.566,0.00867
656.673,0.00949
653.781,0.01092
650.888,0.01257
647.995,0.01408
645.102,0.01551
642.209,0.01709
639.316,0.01857
636.424,0.01860
633.531,0.01862
630.638,0.01798
627.745,0.01830
624.852,0.01909
621.959,0.01943
619.067,0.01935
616.174,0.02024
613.281,0.02120
610.388,0.02016
607.495,0.02039
604.602,0.01934
601.71,0.01772
599.781,0.01571