File: 01_Data/Turnout_Gear_Reflector/STA/N2/10K_min/Turnout_Gear_Reflector_STA_N2_10KData_240517_R2.csv
Temp./C,Time/min,DSC/(mW/mg),Mass loss/mg
60.0,0.0,1.11093,-0.0170421
60.5,0.0610489,1.12811,-0.0159413
61,0.117442,1.13613,-0.0171366
61.5,0.172192,1.15552,-0.0171356
62,0.229062,1.17058,-0.0157187
62.5,0.284085,1.18795,-0.0156956
63,0.337139,1.20181,-0.0156943
63.5,0.391995,1.21954,-0.0151042
64,0.4474,1.21663,-0.0143388
64.5,0.501417,1.23655,-0.0157032
65,0.553638,1.25047,-0.0170589
65.5,0.609266,1.25785,-0.0156539
66,0.662068,1.26914,-0.0169597
66.5,0.715076,1.27738,-0.0169832
67,0.769741,1.28704,-0.0170209
67.5,0.822592,1.28794,-0.0179842
68,0.876309,1.30296,-0.0170201
68.5,0.928542,1.31569,-0.017479
69,0.981956,1.31576,-0.01702
69.5,1.03443,1.31875,-0.016971
70,1.08569,1.33182,-0.0183399
70.5,1.1389,1.34615,-0.0192364
71,1.1931,1.35147,-0.0190876
71.5,1.24397,1.3633,-0.0193195
72,1.29684,1.36949,-0.019649
72.5,1.34745,1.37599,-0.0181869
73,1.40122,1.38114,-0.0196506
73.5,1.45386,1.38812,-0.0196635
74,1.50652,1.39661,-0.0207747
74.5,1.5581,1.40735,-0.0196691
75,1.6092,1.41349,-0.0209809
75.5,1.66265,1.42551,-0.02098
76,1.71307,1.43473,-0.02098
76.5,1.76544,1.43231,-0.0209356
77,1.81799,1.44918,-0.0203393
77.5,1.86826,1.45868,-0.0203078
78,1.92014,1.4709,-0.0209692
78.5,1.97134,1.47775,-0.0209858
79,2.02227,1.48186,-0.0222881
79.5,2.07447,1.48685,-0.0209174
80,2.12517,1.50015,-0.0206855
80.5,2.17685,1.51315,-0.0193576
81,2.22695,1.51891,-0.0224486
81.5,2.27805,1.52148,-0.0232798
82,2.32844,1.53137,-0.0232799
82.5,2.37993,1.53255,-0.0237117
83,2.42937,1.53743,-0.0245897
83.5,2.48001,1.5413,-0.0246964
84,2.53123,1.5536,-0.0232713
84.5,2.58084,1.55629,-0.0245766
85,2.63206,1.56452,-0.02459
85.5,2.68277,1.565,-0.02459
86,2.73377,1.56864,-0.0245363
86.5,2.78452,1.57279,-0.0246024
87,2.83321,1.58454,-0.0249648
87.5,2.88483,1.58858,-0.024928
88,2.93545,1.5863,-0.0259904
88.5,2.98523,1.59308,-0.0259209
89,3.03484,1.59754,-0.0270054
89.5,3.0851,1.60267,-0.0268998
90,3.13368,1.60344,-0.0269079
90.5,3.18388,1.60478,-0.0272324
91,3.23444,1.6108,-0.02723
91.5,3.28176,1.61684,-0.0277026
92,3.32983,1.6159,-0.0285503
92.5,3.38072,1.62512,-0.0286153
93,3.43087,1.6297,-0.0272151
93.5,3.48133,1.63293,-0.0298662
94,3.5298,1.6325,-0.0298701
94.5,3.57853,1.63661,-0.0298699
95,3.62835,1.63906,-0.0299055
95.5,3.67755,1.63679,-0.029847
96,3.7272,1.63589,-0.0298355
96.5,3.77679,1.6391,-0.0301891
97,3.8256,1.6352,-0.0305264
97.5,3.87526,1.63446,-0.0315206
98,3.9227,1.63753,-0.03151
98.5,3.9725,1.63821,-0.03151
99,4.02126,1.63202,-0.03151
99.5,4.07139,1.63217,-0.03151
100,4.11984,1.64178,-0.031527
100.5,4.16859,1.64539,-0.0328296
101,4.21701,1.64605,-0.03283
101.5,4.26586,1.64341,-0.032831
102,4.31407,1.64218,-0.0325006
102.5,4.36278,1.63944,-0.0324746
103,4.41218,1.63673,-0.033493
103.5,4.46052,1.63894,-0.0327905
104,4.50903,1.6305,-0.03414
104.5,4.5571,1.6255,-0.03414
105,4.60598,1.62629,-0.0341667
105.5,4.65531,1.62689,-0.0338106
106,4.70286,1.62704,-0.0338099
106.5,4.75232,1.62687,-0.0338774
107,4.80107,1.62463,-0.0344839
107.5,4.84951,1.62936,-0.03447
108,4.89673,1.62291,-0.03447
108.5,4.94509,1.61863,-0.0357919
109,4.99453,1.61884,-0.03579
109.5,5.04194,1.6076,-0.0357599
110,5.09055,1.61637,-0.0374152
110.5,5.13923,1.60873,-0.03744
111,5.18878,1.60514,-0.0374499
111.5,5.23503,1.61046,-0.0361232
112,5.28505,1.61028,-0.036602
112.5,5.33122,1.60491,-0.0375334
113,5.38238,1.60218,-0.0371038
113.5,5.43023,1.60321,-0.0371155
114,5.47909,1.6026,-0.037441
114.5,5.52726,1.6045,-0.0374353
115,5.57484,1.59778,-0.0387647
115.5,5.62397,1.60561,-0.03876
116,5.67218,1.59127,-0.03876
116.5,5.71976,1.5975,-0.0387605
117,5.76776,1.59504,-0.0386197
117.5,5.81716,1.58846,-0.037466
118,5.86535,1.58481,-0.0387523
118.5,5.9112,1.5923,-0.0360263
119,5.96245,1.58222,-0.0371032
119.5,6.0089,1.58445,-0.0387032
120,6.05937,1.57714,-0.0395301
120.5,6.10717,1.58083,-0.0395617
121,6.15562,1.5718,-0.0398599
121.5,6.20307,1.57724,-0.0398034
122,6.25196,1.57271,-0.0392033
122.5,6.29958,1.57368,-0.039313
123,6.34839,1.57894,-0.0378799
123.5,6.39524,1.57192,-0.0380077
124,6.44524,1.57406,-0.0385602
124.5,6.49246,1.57114,-0.0398502
125,6.53978,1.56992,-0.03985
125.5,6.58921,1.56925,-0.0398512
126,6.63707,1.57246,-0.0405919
126.5,6.68287,1.56974,-0.0405091
127,6.73332,1.57101,-0.0391925
127.5,6.78138,1.56861,-0.03919
128,6.82936,1.56535,-0.03919
128.5,6.87728,1.56726,-0.0391897
129,6.92535,1.56316,-0.0393201
129.5,6.9735,1.57311,-0.0401217
130,7.0201,1.56656,-0.0411694
130.5,7.06861,1.56938,-0.04117
131,7.1163,1.5668,-0.04117
131.5,7.165,1.5688,-0.0411709
132,7.21231,1.56601,-0.0399188
132.5,7.26056,1.56574,-0.0398588
133,7.30832,1.56964,-0.0412113
133.5,7.35732,1.56316,-0.0411799
134,7.40503,1.5584,-0.04118
134.5,7.45203,1.56575,-0.04118
135,7.50058,1.55946,-0.0411824
135.5,7.54787,1.55946,-0.0403992
136,7.59551,1.56695,-0.0398604
136.5,7.64349,1.56871,-0.03986
137,7.69087,1.57309,-0.0398598
137.5,7.73873,1.57563,-0.0411205
138,7.78748,1.57644,-0.0411702
138.5,7.83641,1.5767,-0.04117
139,7.88261,1.57575,-0.04117
139.5,7.93061,1.57756,-0.04117
140,7.97879,1.57894,-0.0411689
140.5,8.0267,1.57154,-0.0403626
141,8.07547,1.57947,-0.0401805
141.5,8.12224,1.57312,-0.0406438
142,8.17016,1.57696,-0.0408399
142.5,8.21904,1.58009,-0.04084
143,8.26564,1.57765,-0.04084
143.5,8.31332,1.58128,-0.0408401
144,8.3613,1.5861,-0.0408447
144.5,8.40902,1.58695,-0.0392909
145,8.45741,1.57412,-0.0392148
145.5,8.50486,1.58858,-0.0419583
146,8.5532,1.58744,-0.04194
146.5,8.60121,1.59194,-0.04194
147,8.64901,1.59357,-0.04194
147.5,8.69637,1.6004,-0.04194
148,8.7448,1.6002,-0.04194
148.5,8.79316,1.59627,-0.0419403
149,8.84096,1.59179,-0.0405691
149.5,8.8886,1.59386,-0.0406301
150,8.9355,1.59486,-0.04063
150.5,8.98334,1.60869,-0.0406313
151,9.03166,1.60028,-0.0418043
151.5,9.07919,1.60445,-0.0391937
152,9.12777,1.60616,-0.0393602
152.5,9.17437,1.60721,-0.0412784
153,9.22295,1.61146,-0.04128
153.5,9.26922,1.62013,-0.04128
154,9.31804,1.61506,-0.0412799
154.5,9.36562,1.61149,-0.0414164
155,9.41373,1.62048,-0.0419386
155.5,9.46042,1.6255,-0.0432568
156,9.50785,1.62494,-0.04326
156.5,9.55552,1.62886,-0.04326
157,9.60294,1.62499,-0.0432604
157.5,9.651,1.62628,-0.043125
158,9.69967,1.62652,-0.0416303
158.5,9.7457,1.63077,-0.0420121
159,9.79417,1.63667,-0.0419399
159.5,9.84192,1.63816,-0.04194
160,9.88977,1.64268,-0.04194
160.5,9.93718,1.64222,-0.0419402
161,9.98546,1.64446,-0.0418692
161.5,10.0323,1.64326,-0.0405917
162,10.0799,1.64226,-0.0419322
162.5,10.1277,1.65166,-0.04194
163,10.1752,1.66015,-0.041932
163.5,10.2238,1.65017,-0.0416025
164,10.2705,1.65074,-0.042601
164.5,10.3178,1.64845,-0.0426001
165,10.3658,1.65696,-0.0425059
165.5,10.4107,1.66431,-0.0425979
166,10.461,1.66638,-0.0426
166.5,10.5085,1.66444,-0.0426022
167,10.5559,1.66332,-0.0422765
167.5,10.6036,1.66195,-0.0429345
168,10.6515,1.66503,-0.04293
168.5,10.698,1.66241,-0.0429287
169,10.7466,1.66625,-0.0424248
169.5,10.7925,1.66641,-0.0429292
170,10.8406,1.6716,-0.0430879
170.5,10.8891,1.67984,-0.0439088
171,10.9362,1.67659,-0.0439128
171.5,10.9828,1.68062,-0.045209
172,11.031,1.68124,-0.0452318
172.5,11.079,1.67628,-0.0445478
173,11.1258,1.6802,-0.0445701
173.5,11.1746,1.68113,-0.04457
174,11.2214,1.6825,-0.04457
174.5,11.2687,1.68456,-0.04457
175,11.3159,1.68405,-0.04457
175.5,11.3643,1.68926,-0.04457
176,11.4102,1.69123,-0.04457
176.5,11.4584,1.6913,-0.0445701
177,11.5057,1.69501,-0.0444455
177.5,11.5528,1.69869,-0.0446106
178,11.6008,1.70387,-0.0445799
178.5,11.6481,1.69901,-0.04458
179,11.6959,1.70226,-0.04458
179.5,11.7441,1.70021,-0.044581
180,11.7917,1.70434,-0.0454006
180.5,11.8386,1.70483,-0.0458991
181,11.8863,1.70133,-0.044987
181.5,11.9339,1.69855,-0.0449099
182,11.9819,1.70582,-0.0449099
182.5,12.0283,1.71019,-0.0469104
183,12.0767,1.70664,-0.0468801
183.5,12.1238,1.70947,-0.04688
184,12.1707,1.71185,-0.04688
184.5,12.219,1.71099,-0.0468796
185,12.2657,1.71558,-0.0454542
185.5,12.3142,1.71761,-0.0467817
186,12.3599,1.71727,-0.0478921
186.5,12.4071,1.72002,-0.0480887
187,12.4548,1.71542,-0.0467798
187.5,12.5027,1.71844,-0.0467701
188,12.5495,1.72417,-0.0471659
188.5,12.5976,1.72808,-0.0480794
189,12.6446,1.72132,-0.04808
189.5,12.6923,1.7225,-0.0480596
190,12.7394,1.72438,-0.0467693
190.5,12.7871,1.73079,-0.048
191,12.8346,1.72984,-0.0494047
191.5,12.8818,1.7307,-0.0506411
192,12.9302,1.73002,-0.0501242
192.5,12.9769,1.732,-0.0494073
193,13.0248,1.73458,-0.0480735
193.5,13.0717,1.73676,-0.0479765
194,13.119,1.73099,-0.0507211
194.5,13.1664,1.73171,-0.05072
195,13.2141,1.73165,-0.05072
195.5,13.2613,1.73565,-0.0507196
196,13.3097,1.7409,-0.05072
196.5,13.3556,1.73352,-0.0520401
197,13.4034,1.73838,-0.0520399
197.5,13.4504,1.74048,-0.0520954
198,13.4988,1.74065,-0.0507705
198.5,13.5463,1.73988,-0.0520384
199,13.5941,1.74523,-0.0520351
199.5,13.6426,1.74699,-0.0526865
200,13.6894,1.74537,-0.0527
200.5,13.7356,1.74543,-0.0527
201,13.7843,1.7457,-0.0527078
201.5,13.8324,1.75197,-0.0530392
202,13.8782,1.75033,-0.0543355
202.5,13.9252,1.75409,-0.0546803
203,13.975,1.7514,-0.05468
203.5,14.0218,1.7602,-0.0546777
204,14.0692,1.75485,-0.0569005
204.5,14.1173,1.74943,-0.0573098
205,14.1643,1.76165,-0.0573094
205.5,14.2128,1.75739,-0.0582969
206,14.2609,1.76003,-0.0583
206.5,14.3074,1.76248,-0.0583001
207,14.3554,1.7634,-0.0569308
207.5,14.4017,1.76179,-0.0569803
208,14.4505,1.76548,-0.0575041
208.5,14.4975,1.76865,-0.0584186
209,14.5448,1.76763,-0.05863
209.5,14.5934,1.7711,-0.0586873
210,14.64,1.77361,-0.0599383
210.5,14.6884,1.76953,-0.0599402
211,14.7356,1.77206,-0.0613382
211.5,14.7838,1.76931,-0.0610884
212,14.831,1.77593,-0.0622491
212.5,14.8786,1.77681,-0.06225
213,14.9259,1.7786,-0.0622496
213.5,14.9731,1.77281,-0.0635029
214,15.0211,1.77596,-0.0635597
214.5,15.0693,1.78588,-0.0640732
215,15.1158,1.78485,-0.0658628
215.5,15.1641,1.78641,-0.06587
216,15.2115,1.78821,-0.0661269
216.5,15.2586,1.79266,-0.0655416
217,15.306,1.79346,-0.0655375
217.5,15.3545,1.79851,-0.0668637
218,15.4005,1.79932,-0.0667659
218.5,15.4491,1.80693,-0.0695145
219,15.4962,1.80652,-0.0705544
219.5,15.5438,1.80488,-0.0704798
220,15.5916,1.80148,-0.0706408
220.5,15.6391,1.80138,-0.0717984
221,15.6869,1.80411,-0.0718
221.5,15.7339,1.80663,-0.0718
222,15.7801,1.8103,-0.0716783
222.5,15.8288,1.81417,-0.0731224
223,15.8759,1.81558,-0.0744183
223.5,15.9235,1.81681,-0.0744251
224,15.9716,1.81039,-0.075755
224.5,16.0192,1.81579,-0.0764085
225,16.0662,1.81266,-0.0765109
225.5,16.1142,1.81452,-0.0777299
226,16.1613,1.81082,-0.0777151
226.5,16.2082,1.81434,-0.0790572
227,16.2559,1.81308,-0.0798963
227.5,16.3032,1.81593,-0.0803698
228,16.3515,1.81479,-0.0817257
228.5,16.3983,1.81123,-0.0826794
229,16.4449,1.81765,-0.0837455
229.5,16.4925,1.82279,-0.0849692
230,16.54,1.81743,-0.0863257
230.5,16.5877,1.81452,-0.0864373
231,16.6361,1.81278,-0.0876183
231.5,16.683,1.8126,-0.0889321
232,16.7306,1.80976,-0.0900772
232.5,16.7782,1.81142,-0.0902577
233,16.8252,1.80679,-0.0918719
233.5,16.8718,1.81183,-0.0932188
234,16.9208,1.81559,-0.0944478
234.5,16.9657,1.8119,-0.0961012
235,17.0147,1.81722,-0.0973136
235.5,17.0616,1.81783,-0.0996009
236,17.1098,1.81534,-0.100868
236.5,17.157,1.81883,-0.102192
237,17.2043,1.81281,-0.102576
237.5,17.2504,1.82096,-0.105042
238,17.2969,1.81307,-0.107707
238.5,17.3454,1.81441,-0.107792
239,17.3944,1.81819,-0.109035
239.5,17.4423,1.82188,-0.110487
240,17.4885,1.81331,-0.11182
240.5,17.5359,1.81674,-0.114063
241,17.5845,1.81922,-0.115375
241.5,17.6315,1.81934,-0.116591
242,17.6788,1.81805,-0.118022
242.5,17.7263,1.81857,-0.119851
243,17.7744,1.8125,-0.122663
243.5,17.8213,1.8135,-0.123971
244,17.8665,1.80879,-0.125168
244.5,17.9161,1.804,-0.127116
245,17.9628,1.81109,-0.12814
245.5,18.0108,1.80101,-0.130739
246,18.0585,1.80526,-0.132423
246.5,18.1049,1.81076,-0.13529
247,18.1527,1.79371,-0.137094
247.5,18.2,1.80037,-0.139798
248,18.2487,1.80152,-0.14186
248.5,18.2957,1.80149,-0.144411
249,18.3431,1.80134,-0.145758
249.5,18.3914,1.8025,-0.148339
250,18.439,1.80205,-0.150658
250.5,18.487,1.79828,-0.153619
251,18.5348,1.79654,-0.156411
251.5,18.5816,1.80123,-0.15888
252,18.6286,1.80552,-0.161415
252.5,18.6767,1.81059,-0.163467
253,18.7243,1.82367,-0.166138
253.5,18.7724,1.84376,-0.169325
254,18.8199,1.8927,-0.171969
254.5,18.8695,1.94142,-0.174815
255,18.9166,2.00826,-0.179314
255.5,18.965,2.03742,-0.18247
256,19.0125,2.05994,-0.184085
256.5,19.0595,2.03769,-0.187585
257,19.1069,2.0123,-0.19067
257.5,19.1545,1.97074,-0.194958
258,19.2008,1.93174,-0.198031
258.5,19.2468,1.89873,-0.201884
259,19.295,1.87939,-0.205183
259.5,19.3436,1.85818,-0.208224
260,19.3907,1.83571,-0.212025
260.5,19.4387,1.81175,-0.216226
261,19.4845,1.79841,-0.219618
261.5,19.5315,1.77386,-0.222878
262,19.5791,1.75107,-0.229004
262.5,19.6246,1.73191,-0.231259
263,19.6735,1.71562,-0.233579
263.5,19.7216,1.70146,-0.238694
264,19.7687,1.67782,-0.243295
264.5,19.8161,1.66757,-0.247861
265,19.8639,1.65868,-0.251951
265.5,19.9106,1.63397,-0.256985
266,19.9575,1.61417,-0.261823
266.5,20.0054,1.59413,-0.265893
267,20.0526,1.57309,-0.272391
267.5,20.0999,1.55135,-0.276292
268,20.1467,1.52955,-0.283175
268.5,20.1938,1.49922,-0.289484
269,20.2418,1.46964,-0.2948
269.5,20.2891,1.43222,-0.301173
270,20.3357,1.41296,-0.3074
270.5,20.3835,1.38037,-0.313456
271,20.4308,1.33851,-0.321331
271.5,20.4774,1.30545,-0.328721
272,20.5243,1.25507,-0.33611
272.5,20.5709,1.21038,-0.342877
273,20.6177,1.16228,-0.35193
273.5,20.665,1.11118,-0.36003
274,20.7116,1.05303,-0.368715
274.5,20.7586,0.987481,-0.377671
275,20.8052,0.922389,-0.386112
275.5,20.8529,0.8459,-0.395524
276,20.8992,0.785786,-0.405917
276.5,20.9466,0.703554,-0.418919
277,20.9928,0.624818,-0.429134
277.5,21.0392,0.557122,-0.440451
278,21.0858,0.471155,-0.451548
278.5,21.1322,0.385665,-0.463853
279,21.1796,0.303363,-0.476317
279.5,21.226,0.213383,-0.488744
280,21.2725,0.139794,-0.501205
280.5,21.3196,0.0482999,-0.514784
281,21.3654,-0.0269291,-0.527388
281.5,21.4128,-0.11217,-0.541616
282,21.4588,-0.187026,-0.555818
282.5,21.5055,-0.267389,-0.571034
283,21.5529,-0.346133,-0.588991
283.5,21.5989,-0.41248,-0.604907
284,21.6463,-0.488546,-0.622989
284.5,21.6929,-0.560036,-0.640252
285,21.7394,-0.616988,-0.656732
285.5,21.7864,-0.684121,-0.676133
286,21.8336,-0.728233,-0.6981
286.5,21.8804,-0.763757,-0.7191
287,21.9271,-0.793475,-0.741104
287.5,21.9748,-0.795733,-0.763091
288,22.0219,-0.791042,-0.785707
288.5,22.0705,-0.77393,-0.809637
289,22.1181,-0.736859,-0.834402
289.5,22.1663,-0.681406,-0.859983
290,22.2131,-0.610534,-0.883467
290.5,22.2632,-0.521687,-0.908865
291,22.3129,-0.409083,-0.934165
291.5,22.3615,-0.277966,-0.960742
292,22.4118,-0.117916,-0.986346
292.5,22.4603,0.0416601,-1.01001
293,22.5112,0.224238,-1.03529
293.5,22.5606,0.424441,-1.06165
294,22.6111,0.630227,-1.08584
294.5,22.6612,0.842987,-1.11062
295,22.7094,1.05271,-1.13475
295.5,22.7626,1.27657,-1.1611
296,22.8127,1.48416,-1.18309
296.5,22.8622,1.68458,-1.20592
297,22.914,1.87067,-1.23177
297.5,22.9625,2.04427,-1.25711
298,23.0134,2.21283,-1.28061
298.5,23.0637,2.36232,-1.30274
299,23.113,2.49659,-1.3262
299.5,23.1633,2.6075,-1.35074
300,23.2123,2.71061,-1.37374
300.5,23.2616,2.7963,-1.3971
301,23.3109,2.86355,-1.41989
301.5,23.3602,2.9275,-1.44189
302,23.4087,2.97084,-1.46395
302.5,23.4577,3.00972,-1.48411
303,23.5067,3.03376,-1.50529
303.5,23.5549,3.04615,-1.52645
304,23.6008,3.04771,-1.54503
304.5,23.6516,3.03869,-1.56596
305,23.6987,3.03161,-1.58355
305.5,23.747,3.00574,-1.60222
306,23.7949,2.98713,-1.62135
306.5,23.8424,2.95337,-1.63786
307,23.891,2.91288,-1.65409
307.5,23.9384,2.86668,-1.66938
308,23.9859,2.81465,-1.68515
308.5,24.0329,2.7587,-1.69824
309,24.0809,2.70801,-1.71165
309.5,24.1274,2.64572,-1.7259
310,24.1751,2.58895,-1.7391
310.5,24.2219,2.54237,-1.75023
311,24.2702,2.47716,-1.76347
311.5,24.3169,2.42415,-1.7753
312,24.364,2.36334,-1.78683
312.5,24.4115,2.31861,-1.79629
313,24.4589,2.26911,-1.80659
313.5,24.5061,2.21555,-1.81689
314,24.5536,2.16385,-1.82587
314.5,24.6014,2.11715,-1.83323
315,24.6483,2.07427,-1.84121
315.5,24.6955,2.02514,-1.84942
316,24.744,1.98141,-1.85929
316.5,24.7905,1.94148,-1.86602
317,24.8383,1.90849,-1.87199
317.5,24.8824,1.87477,-1.8782
318,24.9309,1.84527,-1.8833
318.5,24.9803,1.80852,-1.88989
319,25.0272,1.76968,-1.89572
319.5,25.0749,1.73289,-1.90166
320,25.1227,1.708,-1.9091
320.5,25.1703,1.66925,-1.91553
321,25.2183,1.65084,-1.9194
321.5,25.2662,1.61673,-1.92307
322,25.3144,1.59682,-1.92948
322.5,25.3615,1.57247,-1.93423
323,25.4076,1.54545,-1.93798
323.5,25.4566,1.52933,-1.94172
324,25.5055,1.51134,-1.94658
324.5,25.5532,1.48792,-1.95044
325,25.6007,1.47128,-1.95443
325.5,25.6479,1.44698,-1.95857
326,25.6963,1.43633,-1.96368
326.5,25.7438,1.41097,-1.9671
327,25.7918,1.39627,-1.97074
327.5,25.8402,1.37638,-1.97502
328,25.888,1.3693,-1.9786
328.5,25.936,1.34793,-1.98214
329,25.9834,1.33379,-1.98615
329.5,26.0322,1.32082,-1.98913
330,26.079,1.30671,-1.99213
330.5,26.1278,1.29784,-1.9968
331,26.1754,1.28373,-1.99809
331.5,26.2236,1.26862,-2.00156
332,26.2719,1.25764,-2.00457
332.5,26.3186,1.25263,-2.00796
333,26.3674,1.24297,-2.01121
333.5,26.4149,1.23432,-2.0144
334,26.4641,1.22456,-2.01783
334.5,26.5119,1.21932,-2.02222
335,26.5595,1.21004,-2.02518
335.5,26.6055,1.19815,-2.02794
336,26.6562,1.1904,-2.0306
336.5,26.7036,1.17895,-2.03077
337,26.7519,1.17655,-2.03257
337.5,26.799,1.17042,-2.03842
338,26.847,1.16575,-2.04355
338.5,26.896,1.15249,-2.04545
339,26.9443,1.14961,-2.04749
339.5,26.9917,1.14736,-2.05218
340,27.0385,1.13494,-2.05351
340.5,27.0859,1.12582,-2.05618
341,27.1366,1.1234,-2.05937
341.5,27.1846,1.11571,-2.0621
342,27.2333,1.10657,-2.06524
342.5,27.2815,1.11077,-2.0685
343,27.3287,1.10315,-2.06999
343.5,27.3771,1.09185,-2.07173
344,27.4256,1.09157,-2.07458
344.5,27.4743,1.08583,-2.07648
345,27.5222,1.08154,-2.07934
345.5,27.5699,1.07908,-2.08329
346,27.6186,1.07583,-2.08681
346.5,27.6666,1.07055,-2.08904
347,27.7156,1.07031,-2.09189
347.5,27.763,1.06068,-2.09242
348,27.8109,1.05434,-2.0955
348.5,27.8592,1.05172,-2.09906
349,27.9077,1.05046,-2.10036
349.5,27.9563,1.04421,-2.10233
350,28.0043,1.03417,-2.10499
350.5,28.0516,1.03096,-2.10839
351,28.1012,1.02712,-2.11134
351.5,28.1489,1.02232,-2.11322
352,28.1981,1.01628,-2.11602
352.5,28.2464,1.0156,-2.11893
353,28.2933,1.0148,-2.12199
353.5,28.342,1.01161,-2.12521
354,28.391,1.01144,-2.12704
354.5,28.4387,1.00929,-2.13021
355,28.4865,1.00841,-2.13261
355.5,28.5358,1.00509,-2.13483
356,28.5834,0.996893,-2.13494
356.5,28.6331,0.999408,-2.1381
357,28.6808,0.997006,-2.1411
357.5,28.7288,0.991407,-2.14318
358,28.7773,0.989923,-2.14575
358.5,28.8259,0.984941,-2.14795
359,28.8744,0.981113,-2.15142
359.5,28.9227,0.991067,-2.15507
360,28.9715,0.977472,-2.15654
360.5,29.02,0.976122,-2.15869
361,29.0678,0.97238,-2.16072
361.5,29.1164,0.967317,-2.16368
362,29.1656,0.97166,-2.16709
362.5,29.2122,0.966787,-2.1698
363,29.2614,0.964537,-2.17295
363.5,29.3107,0.966796,-2.1763
364,29.3587,0.963761,-2.17812
364.5,29.4063,0.958219,-2.18062
365,29.4552,0.957548,-2.18297
365.5,29.5043,0.947778,-2.18558
366,29.5527,0.953458,-2.18887
366.5,29.6007,0.954369,-2.19148
367,29.6494,0.957101,-2.19359
367.5,29.697,0.95419,-2.19625
368,29.7458,0.956891,-2.19855
368.5,29.7951,0.951816,-2.20193
369,29.8428,0.956083,-2.20467
369.5,29.8916,0.95229,-2.2077
370,29.94,0.959073,-2.20954
370.5,29.9886,0.957377,-2.21305
371,30.038,0.951884,-2.2154
371.5,30.0858,0.959998,-2.21845
372,30.1345,0.957488,-2.22141
372.5,30.1834,0.948198,-2.22537
373,30.2315,0.950905,-2.22856
373.5,30.2803,0.951678,-2.23019
374,30.3296,0.95089,-2.23331
374.5,30.3776,0.956241,-2.23622
375,30.4256,0.95224,-2.23938
375.5,30.4747,0.95166,-2.24325
376,30.522,0.952648,-2.24622
376.5,30.5729,0.953285,-2.24868
377,30.6211,0.960605,-2.25156
377.5,30.6698,0.956367,-2.25504
378,30.7172,0.958867,-2.25847
378.5,30.7668,0.954136,-2.26233
379,30.8153,0.958394,-2.26572
379.5,30.8654,0.957432,-2.26963
380,30.9134,0.959088,-2.27323
380.5,30.9632,0.95442,-2.27684
381,31.0111,0.966324,-2.27951
381.5,31.0595,0.962129,-2.28338
382,31.109,0.956774,-2.28681
382.5,31.1573,0.957,-2.29038
383,31.2067,0.959187,-2.29271
383.5,31.2549,0.969821,-2.29762
384,31.3044,0.963349,-2.30163
384.5,31.3533,0.963933,-2.3061
385,31.4019,0.968068,-2.3099
385.5,31.4516,0.96733,-2.31418
386,31.4994,0.962539,-2.31798
386.5,31.5486,0.975017,-2.32218
387,31.5973,0.979069,-2.32635
387.5,31.6461,0.979027,-2.33178
388,31.6954,0.973023,-2.33683
388.5,31.744,0.976333,-2.34113
389,31.7929,0.980977,-2.34553
389.5,31.8414,0.97851,-2.35034
390,31.8901,0.983111,-2.35452
390.5,31.9384,0.9768,-2.35944
391,31.9876,0.975532,-2.36478
391.5,32.0365,0.973427,-2.36908
392,32.0853,0.977819,-2.37385
392.5,32.1351,0.982337,-2.3777
393,32.1834,0.984023,-2.38242
393.5,32.2324,0.980293,-2.38743
394,32.2812,0.983584,-2.39312
394.5,32.3308,0.994558,-2.39913
395,32.3788,0.991631,-2.40444
395.5,32.4276,0.989762,-2.40981
396,32.4774,0.991025,-2.41614
396.5,32.5248,0.996368,-2.42118
397,32.5738,0.993476,-2.4274
397.5,32.6233,1.00063,-2.43198
398,32.6715,0.99764,-2.43643
398.5,32.7201,0.997709,-2.44151
399,32.7696,0.996732,-2.44782
399.5,32.8177,0.997357,-2.45482
400,32.8665,0.997176,-2.46019
400.5,32.9164,0.993693,-2.46705
401,32.9647,0.993357,-2.47343
401.5,33.0141,0.995623,-2.47748
402,33.0629,0.992599,-2.48387
402.5,33.1112,0.99461,-2.49007
403,33.1602,0.990882,-2.49712
403.5,33.2089,0.98504,-2.50222
404,33.2584,0.983922,-2.50851
404.5,33.307,0.977496,-2.51501
405,33.357,0.972931,-2.5214
405.5,33.405,0.971214,-2.52833
406,33.4536,0.965089,-2.53431
406.5,33.5028,0.950311,-2.54026
407,33.551,0.947733,-2.54665
407.5,33.6002,0.945744,-2.55318
408,33.649,0.940893,-2.55813
408.5,33.6976,0.927268,-2.56365
409,33.7467,0.922117,-2.57049
409.5,33.7947,0.914545,-2.57672
410,33.842,0.90186,-2.58279
410.5,33.8933,0.893457,-2.58913
411,33.9414,0.890103,-2.59523
411.5,33.9909,0.876802,-2.60095
412,34.0402,0.864225,-2.60683
412.5,34.0884,0.863133,-2.6144
413,34.1374,0.851685,-2.62169
413.5,34.1865,0.845336,-2.62609
414,34.2347,0.83903,-2.63297
414.5,34.2843,0.827063,-2.64098
415,34.3324,0.825228,-2.64637
415.5,34.3812,0.811835,-2.65083
416,34.4299,0.797256,-2.65613
416.5,34.4787,0.788697,-2.66283
417,34.5275,0.775744,-2.66902
417.5,34.5768,0.772246,-2.67384
418,34.6245,0.762193,-2.67891
418.5,34.6746,0.753008,-2.68452
419,34.7225,0.74539,-2.69182
419.5,34.7724,0.737097,-2.69717
420,34.8211,0.727489,-2.7033
420.5,34.8696,0.717566,-2.70767
421,34.9183,0.70202,-2.7123
421.5,34.9673,0.699108,-2.71868
422,35.0163,0.681955,-2.72347
422.5,35.0647,0.681876,-2.72686
423,35.1148,0.666452,-2.7316
423.5,35.1624,0.6633,-2.73668
424,35.2112,0.647842,-2.74045
424.5,35.261,0.635996,-2.74614
425,35.3077,0.634995,-2.75036
425.5,35.3585,0.629829,-2.7568
426,35.4072,0.624625,-2.76077
426.5,35.4546,0.617474,-2.7629
427,35.5055,0.61619,-2.76857
427.5,35.5542,0.609835,-2.77271
428,35.6029,0.605097,-2.77729
428.5,35.6516,0.603255,-2.78293
429,35.7005,0.603153,-2.78669
429.5,35.75,0.602151,-2.78999
430,35.7994,0.599939,-2.79494
430.5,35.8471,0.596951,-2.79862
431,35.8985,0.596455,-2.80236
431.5,35.9468,0.586303,-2.80658
432,35.9955,0.58676,-2.81009
432.5,36.0449,0.59407,-2.81473
433,36.0947,0.589583,-2.81917
433.5,36.1437,0.592247,-2.82305
434,36.1924,0.597949,-2.82753
434.5,36.2415,0.592649,-2.83181
435,36.2911,0.596725,-2.83544
435.5,36.3382,0.595339,-2.83942
436,36.3895,0.597746,-2.84279
436.5,36.4377,0.599296,-2.84698
437,36.4876,0.601461,-2.85168
437.5,36.5359,0.600265,-2.85542
438,36.5855,0.605992,-2.85963
438.5,36.6345,0.609567,-2.86244
439,36.683,0.615141,-2.86524
439.5,36.733,0.616148,-2.86836
440,36.7821,0.622234,-2.87225
440.5,36.831,0.632993,-2.87629
441,36.8798,0.630293,-2.87945
441.5,36.929,0.629375,-2.88384
442,36.978,0.634755,-2.88832
442.5,37.0266,0.644413,-2.89237
443,37.0764,0.644352,-2.893
443.5,37.1255,0.645389,-2.89487
444,37.1741,0.652568,-2.90338
444.5,37.2235,0.647956,-2.90778
445,37.2723,0.656031,-2.90955
445.5,37.3213,0.661492,-2.91292
446,37.3704,0.67051,-2.91689
446.5,37.4199,0.668249,-2.92045
447,37.4702,0.672838,-2.92455
447.5,37.519,0.673152,-2.92835
448,37.5678,0.684832,-2.9318
448.5,37.6177,0.68418,-2.93629
449,37.6668,0.685271,-2.93893
449.5,37.7159,0.695005,-2.94284
450,37.7652,0.692271,-2.94645
450.5,37.8147,0.694645,-2.94863
451,37.8639,0.698044,-2.95294
451.5,37.9134,0.698152,-2.95681
452,37.9624,0.700426,-2.95988
452.5,38.0092,0.703904,-2.96393
453,38.0605,0.705004,-2.96857
453.5,38.1105,0.71584,-2.97137
454,38.1591,0.714103,-2.97535
454.5,38.2088,0.711577,-2.97787
455,38.2559,0.71064,-2.98108
455.5,38.3078,0.717977,-2.98475
456,38.3568,0.716335,-2.98822
456.5,38.4052,0.720773,-2.99139
457,38.4551,0.719176,-2.99502
457.5,38.5038,0.723511,-2.9985
458,38.5537,0.721167,-3.00169
458.5,38.6024,0.721465,-3.00173
459,38.6524,0.721507,-3.00673
459.5,38.7011,0.7197,-3.01253
460,38.7509,0.727067,-3.01629
460.5,38.7999,0.736145,-3.01798
461,38.8504,0.730044,-3.02234
461.5,38.8996,0.729738,-3.02483
462,38.9492,0.738003,-3.02758
462.5,38.9983,0.740769,-3.02988
463,39.0475,0.742337,-3.03448
463.5,39.0974,0.749755,-3.03718
464,39.148,0.755822,-3.04158
464.5,39.1961,0.75916,-3.04487
465,39.2442,0.756608,-3.04718
465.5,39.2942,0.767228,-3.04956
466,39.3452,0.768482,-3.05222
466.5,39.3952,0.773491,-3.05518
467,39.4452,0.778772,-3.05858
467.5,39.4941,0.779015,-3.06238
468,39.5428,0.785145,-3.06782
468.5,39.5929,0.786999,-3.06729
469,39.6425,0.795881,-3.06869
469.5,39.6896,0.796499,-3.07088
470,39.7412,0.787429,-3.07433
470.5,39.7889,0.799163,-3.07589
471,39.8403,0.802138,-3.07877
471.5,39.8897,0.801418,-3.08215
472,39.9392,0.80403,-3.0858
472.5,39.9894,0.80067,-3.08986
473,40.0383,0.807226,-3.09183
473.5,40.0879,0.799731,-3.09422
474,40.1374,0.805446,-3.09601
474.5,40.1865,0.806752,-3.09744
475,40.2359,0.803212,-3.09838
475.5,40.2838,0.803541,-3.10093
476,40.3347,0.809225,-3.10294
476.5,40.3845,0.810629,-3.10613
477,40.4344,0.796686,-3.1074
477.5,40.4835,0.808013,-3.10887
478,40.5312,0.800319,-3.11207
478.5,40.5827,0.787379,-3.11454
479,40.6309,0.794465,-3.11496
479.5,40.6813,0.792879,-3.11645
480,40.7302,0.79431,-3.11935
480.5,40.7804,0.782497,-3.12296
481,40.8292,0.781817,-3.12513
481.5,40.8788,0.786698,-3.12662
482,40.9286,0.774587,-3.12654
482.5,40.9777,0.773972,-3.12912
483,41.027,0.771048,-3.13145
483.5,41.0769,0.76979,-3.13375
484,41.1267,0.771781,-3.13482
484.5,41.1751,0.775049,-3.13573
485,41.2262,0.764827,-3.13637
485.5,41.275,0.759569,-3.13835
486,41.3248,0.758891,-3.1391
486.5,41.3739,0.765242,-3.13979
487,41.4238,0.762119,-3.142
487.5,41.4735,0.757839,-3.14351
488,41.523,0.765492,-3.14494
488.5,41.5715,0.75935,-3.14628
489,41.6221,0.747099,-3.14751
489.5,41.671,0.749552,-3.14877
490,41.7205,0.745329,-3.14992
490.5,41.7698,0.739016,-3.15023
491,41.8202,0.744094,-3.15018
491.5,41.8691,0.750902,-3.15151
492,41.9184,0.741347,-3.15347
492.5,41.9682,0.734317,-3.15446
493,42.0174,0.739073,-3.15571
493.5,42.0677,0.743153,-3.15705
494,42.117,0.744579,-3.15719
494.5,42.1665,0.736965,-3.15834
495,42.216,0.737509,-3.15967
495.5,42.2661,0.740103,-3.15994
496,42.3144,0.734268,-3.16001
496.5,42.3643,0.735027,-3.16133
497,42.4145,0.738153,-3.16267
497.5,42.4637,0.738355,-3.16263
498,42.5137,0.730836,-3.16393
498.5,42.5612,0.73168,-3.16625
499,42.6128,0.729292,-3.16628
499.5,42.6632,0.73021,-3.16758
500,42.712,0.732034,-3.1676
500.5,42.761,0.719158,-3.16746
501,42.8107,0.729692,-3.16757
501.5,42.8597,0.731349,-3.1689
502,42.9096,0.723166,-3.17029
502.5,42.9595,0.727217,-3.17022
503,43.0089,0.732329,-3.17151
503.5,43.0592,0.729282,-3.17417
504,43.1084,0.730307,-3.17542
504.5,43.1586,0.726196,-3.17417
505,43.2083,0.730545,-3.17417
505.5,43.2582,0.719111,-3.17417
506,43.3072,0.718581,-3.17559
506.5,43.3574,0.719181,-3.17551
507,43.4066,0.723415,-3.1768
507.5,43.4566,0.724509,-3.17809
508,43.5063,0.721949,-3.17945
508.5,43.5563,0.727037,-3.17944
509,43.6053,0.722472,-3.17944
509.5,43.6547,0.72517,-3.18074
510,43.7027,0.723983,-3.18071
510.5,43.7516,0.724243,-3.18075
511,43.8038,0.72418,-3.18207
511.5,43.8534,0.729026,-3.18207
512,43.902,0.72399,-3.18476
512.5,43.9532,0.729126,-3.18471
513,44.0033,0.724468,-3.18471
513.5,44.0512,0.72477,-3.18471
514,44.1019,0.727699,-3.18422
514.5,44.1523,0.732552,-3.1847
515,44.2012,0.726255,-3.18607
515.5,44.2502,0.723965,-3.18602
516,44.3007,0.723302,-3.18668
516.5,44.3501,0.721239,-3.18734
517,44.4007,0.7155,-3.18799
517.5,44.4501,0.715574,-3.18877
518,44.4987,0.721104,-3.18998
518.5,44.5489,0.720088,-3.19132
519,44.5996,0.72071,-3.19261
519.5,44.6491,0.721689,-3.19129
520,44.6988,0.727777,-3.19129
520.5,44.7482,0.723989,-3.19129
521,44.7975,0.721468,-3.1901
521.5,44.8469,0.723108,-3.19129
522,44.8967,0.726167,-3.19129
522.5,44.9472,0.726559,-3.1922
523,44.9973,0.722668,-3.19262
523.5,45.048,0.72689,-3.19365
524,45.0958,0.719251,-3.19525
524.5,45.1467,0.726171,-3.19537
525,45.1958,0.725498,-3.19656
525.5,45.2464,0.72767,-3.19655
526,45.2959,0.722554,-3.19525
526.5,45.3457,0.721946,-3.19654
527,45.3949,0.725921,-3.19662
527.5,45.4448,0.72678,-3.19788
528,45.4954,0.728504,-3.19788
528.5,45.5424,0.723016,-3.19925
529,45.5946,0.728769,-3.19883
529.5,45.6443,0.733292,-3.1992
530,45.6946,0.735304,-3.19919
530.5,45.7442,0.74162,-3.2002
531,45.7943,0.749015,-3.20051
531.5,45.844,0.760088,-3.20117
532,45.8924,0.766567,-3.20183
532.5,45.9438,0.768209,-3.20314
533,45.9932,0.771995,-3.20184
533.5,46.0433,0.780076,-3.20319
534,46.0929,0.785742,-3.20315
534.5,46.1432,0.790501,-3.20315
535,46.1902,0.797382,-3.20444
535.5,46.2438,0.8031,-3.20446
536,46.2904,0.804195,-3.20449
536.5,46.3428,0.806649,-3.20413
537,46.3937,0.805669,-3.20543
537.5,46.443,0.808367,-3.20545
538,46.4926,0.815043,-3.20545
538.5,46.5436,0.81594,-3.20545
539,46.5925,0.816809,-3.20545
539.5,46.6432,0.815143,-3.20416
540,46.6929,0.818024,-3.20475
540.5,46.7427,0.820974,-3.20612
541,46.7932,0.819148,-3.21013
541.5,46.8417,0.825605,-3.20904
542,46.8904,0.831115,-3.20818
542.5,46.9428,0.844265,-3.20885
543,46.9922,0.843298,-3.20869
543.5,47.0421,0.844962,-3.20754
544,47.092,0.847804,-3.2075
544.5,47.1421,0.853847,-3.21004
545,47.1918,0.846972,-3.21016
545.5,47.2425,0.853331,-3.21149
546,47.2913,0.852412,-3.21079
546.5,47.3416,0.850247,-3.21055
547,47.3912,0.84603,-3.21319
547.5,47.4419,0.849549,-3.21153
548,47.4914,0.85268,-3.21018
548.5,47.5409,0.850415,-3.21137
549,47.5917,0.86299,-3.2115
549.5,47.642,0.852465,-3.2115
550,47.6917,0.850782,-3.2115
550.5,47.7405,0.851037,-3.2115
551,47.792,0.851554,-3.21199
551.5,47.8418,0.854084,-3.21328
552,47.8914,0.84857,-3.2127
552.5,47.9417,0.842174,-3.21281
553,47.9913,0.843261,-3.21281
553.5,48.0398,0.835741,-3.21281
554,48.0887,0.83639,-3.21287
554.5,48.1407,0.831181,-3.21545
555,48.191,0.82894,-3.21545
555.5,48.2412,0.827893,-3.21429
556,48.2908,0.825378,-3.21397
556.5,48.3405,0.827136,-3.21557
557,48.3895,0.823142,-3.21678
557.5,48.4398,0.816002,-3.21807
558,48.4899,0.814218,-3.21808
558.5,48.5402,0.814647,-3.21808
559,48.5902,0.810306,-3.21751
559.5,48.6397,0.81785,-3.21676
560,48.6903,0.81999,-3.21676
560.5,48.7399,0.821127,-3.21675
561,48.7895,0.82077,-3.21809
561.5,48.8392,0.819941,-3.21808
562,48.8895,0.822976,-3.2187
562.5,48.94,0.818128,-3.2194
563,48.9896,0.819435,-3.21927
563.5,49.0402,0.815995,-3.21808
564,49.0903,0.815803,-3.21808
564.5,49.1406,0.820684,-3.21944
565,49.1896,0.814456,-3.2194
565.5,49.2396,0.817633,-3.2194
566,49.2904,0.806539,-3.2194
566.5,49.339,0.813036,-3.21932
567,49.3904,0.813201,-3.22071
567.5,49.4402,0.810587,-3.22002
568,49.4907,0.816737,-3.22005
568.5,49.5393,0.818974,-3.22005
569,49.5905,0.816475,-3.21941
569.5,49.6408,0.810489,-3.22069
570,49.6905,0.811159,-3.22113
570.5,49.7414,0.81244,-3.22336
571,49.7892,0.809854,-3.22095
571.5,49.84,0.808434,-3.22137
572,49.8909,0.81452,-3.22236
572.5,49.9416,0.813322,-3.22239
573,49.9916,0.814604,-3.2249
573.5,50.0417,0.813737,-3.22373
574,50.0917,0.817749,-3.22237
574.5,50.1426,0.820997,-3.22103
575,50.1923,0.822119,-3.22106
575.5,50.2427,0.821317,-3.22236
576,50.2931,0.825549,-3.22235
576.5,50.3423,0.827391,-3.22368
577,50.3934,0.837725,-3.22431
577.5,50.4432,0.841869,-3.22367
578,50.4925,0.835333,-3.22367
578.5,50.5437,0.839302,-3.22367
579,50.5918,0.837994,-3.22601
579.5,50.644,0.839257,-3.22598
580,50.695,0.841503,-3.2264
580.5,50.7437,0.845272,-3.22729
581,50.7949,0.84679,-3.22664
581.5,50.844,0.845342,-3.22664
582,50.8947,0.849042,-3.22664
582.5,50.9447,0.85606,-3.22664
583,50.9957,0.854288,-3.22664
583.5,51.0448,0.866848,-3.22664
584,51.0954,0.864863,-3.22795
584.5,51.1461,0.85917,-3.22783
585,51.196,0.864162,-3.22731
585.5,51.247,0.865225,-3.22861
586,51.2962,0.865798,-3.22861
586.5,51.3467,0.873103,-3.22861
587,51.3972,0.871765,-3.22861
587.5,51.4468,0.873754,-3.22904
588,51.4972,0.872742,-3.22993
588.5,51.548,0.875363,-3.22993
589,51.5987,0.875747,-3.22993
589.5,51.6492,0.876007,-3.22993
590,51.696,0.880679,-3.22993
590.5,51.7489,0.877182,-3.22993
591,51.799,0.882419,-3.22993
591.5,51.8506,0.88388,-3.22838
592,51.8997,0.886189,-3.23002
592.5,51.9493,0.880804,-3.23135
593,52.0002,0.878231,-3.2312
593.5,52.0511,0.878169,-3.23137
594,52.1006,0.877583,-3.23137
594.5,52.1508,0.872482,-3.23137
595,52.2011,0.874053,-3.23137
595.5,52.2511,0.871924,-3.23132
596,52.3013,0.879856,-3.23268
596.5,52.3518,0.877223,-3.23268
597,52.4018,0.876373,-3.2317
597.5,52.4523,0.874165,-3.2317
598,52.5027,0.870976,-3.233
598.5,52.552,0.861958,-3.23268
599,52.6021,0.868197,-3.23268
599.5,52.6525,0.864213,-3.23261
600,52.7027,0.873836,-3.234
600.5,52.753,0.858865,-3.23403
601,52.8037,0.858134,-3.23268
601.5,52.8527,0.863822,-3.23401
602,52.9032,0.858896,-3.23334
602.5,52.9534,0.860285,-3.23334
603,53.0026,0.856941,-3.23334
603.5,53.0553,0.852507,-3.23433
604,53.1048,0.856186,-3.23433
604.5,53.1556,0.849818,-3.23433
605,53.2047,0.848987,-3.23433
605.5,53.2557,0.852004,-3.23434
606,53.306,0.846564,-3.23367
606.5,53.3559,0.845885,-3.234
607,53.4069,0.850254,-3.234
607.5,53.4566,0.840202,-3.23533
608,53.5068,0.845031,-3.23532
608.5,53.557,0.844959,-3.23532
609,53.6072,0.842582,-3.23532
609.5,53.6579,0.843984,-3.23605
610,53.708,0.849012,-3.23663
610.5,53.7589,0.846855,-3.23663
611,53.8079,0.843569,-3.23663
611.5,53.8601,0.845082,-3.23663
612,53.91,0.843021,-3.23663
612.5,53.9603,0.853604,-3.23663
613,54.0106,0.841761,-3.23658
613.5,54.0611,0.842924,-3.23696
614,54.1118,0.844788,-3.23696
614.5,54.161,0.844797,-3.23696
615,54.2118,0.845759,-3.23691
615.5,54.2629,0.840621,-3.23929
616,54.3127,0.846906,-3.23927
616.5,54.3641,0.844914,-3.23927
617,54.4129,0.841197,-3.23927
617.5,54.4648,0.841518,-3.23941
618,54.5157,0.842931,-3.23927
618.5,54.5659,0.845461,-3.23927
619,54.6165,0.843539,-3.23927
619.5,54.6661,0.842098,-3.23927
620,54.718,0.845735,-3.23927
620.5,54.7689,0.848809,-3.23928
621,54.8179,0.846082,-3.24056
621.5,54.8695,0.850155,-3.24058
622,54.9199,0.842804,-3.24058
622.5,54.9709,0.845073,-3.24187
623,55.0207,0.839298,-3.2419
623.5,55.0723,0.838415,-3.2419
624,55.123,0.843207,-3.2419
624.5,55.1735,0.844311,-3.2419
625,55.2246,0.83857,-3.2419
625.5,55.2732,0.83572,-3.24057
626,55.3259,0.835386,-3.24069
626.5,55.376,0.842522,-3.24322
627,55.4257,0.845665,-3.24192
627.5,55.477,0.849944,-3.2419
628,55.5285,0.852098,-3.24255
628.5,55.5776,0.84352,-3.24256
629,55.6304,0.846871,-3.24255
629.5,55.6807,0.835987,-3.24116
630,55.7312,0.836673,-3.24257
630.5,55.7826,0.828991,-3.24257
631,55.8326,0.824994,-3.24257
631.5,55.8838,0.823919,-3.24395
632,55.9336,0.819737,-3.24322
632.5,55.9847,0.820306,-3.24322
633,56.0351,0.816633,-3.24322
633.5,56.0856,0.818582,-3.2442
634,56.1364,0.812672,-3.24454
634.5,56.1874,0.813413,-3.24454
635,56.238,0.817359,-3.24454
635.5,56.2884,0.81334,-3.24453
636,56.3382,0.814629,-3.24587
636.5,56.3898,0.810178,-3.24586
637,56.4397,0.817009,-3.24683
637.5,56.4908,0.814767,-3.24684
638,56.5416,0.806244,-3.24684
638.5,56.5919,0.810569,-3.24669
639,56.6414,0.808798,-3.24685
639.5,56.6922,0.811618,-3.24685
640,56.7427,0.803466,-3.24685
640.5,56.7935,0.810834,-3.24553
641,56.8441,0.801154,-3.24457
641.5,56.8945,0.799458,-3.24586
642,56.9455,0.804332,-3.24689
642.5,56.9952,0.808716,-3.24816
643,57.0464,0.798773,-3.24816
643.5,57.097,0.797166,-3.24816
644,57.1477,0.796351,-3.24816
644.5,57.1985,0.79735,-3.24816
645,57.2488,0.799862,-3.24816
645.5,57.2996,0.79822,-3.24719
646,57.3496,0.7974,-3.24717
646.5,57.4008,0.797009,-3.24717
647,57.4506,0.796304,-3.24888
647.5,57.5019,0.791791,-3.24914
648,57.5515,0.793745,-3.24981
648.5,57.6022,0.795552,-3.24981
649,57.6531,0.792045,-3.24982
649.5,57.7034,0.792516,-3.25112
650,57.7537,0.797334,-3.2508
650.5,57.8046,0.786464,-3.25079
651,57.855,0.796446,-3.24981
651.5,57.9053,0.798051,-3.24981
652,57.956,0.790943,-3.24981
652.5,58.006,0.799637,-3.24981
653,58.0572,0.787872,-3.25114
653.5,58.108,0.782364,-3.25113
654,58.1588,0.787076,-3.25037
654.5,58.2096,0.778663,-3.25145
655,58.26,0.775007,-3.25145
655.5,58.3109,0.778382,-3.25145
656,58.3622,0.785303,-3.25117
656.5,58.4129,0.77439,-3.25112
657,58.463,0.768786,-3.25112
657.5,58.5135,0.77454,-3.25245
658,58.5643,0.764168,-3.25244
658.5,58.6144,0.760539,-3.25244
659,58.6657,0.754397,-3.25244
659.5,58.7165,0.756873,-3.25263
660,58.7669,0.754841,-3.25365
660.5,58.8182,0.751142,-3.25343
661,58.869,0.756034,-3.25343
661.5,58.9191,0.755081,-3.25346
662,58.9698,0.758746,-3.25475
662.5,59.0206,0.752573,-3.25477
663,59.0714,0.750192,-3.25412
663.5,59.1218,0.749054,-3.25475
664,59.1725,0.742894,-3.25475
664.5,59.224,0.740095,-3.25475
665,59.2733,0.744419,-3.25475
665.5,59.3252,0.746276,-3.25538
666,59.3753,0.739623,-3.2562
666.5,59.4251,0.746472,-3.25486
667,59.4769,0.745205,-3.25465
667.5,59.5272,0.745783,-3.25486
668,59.578,0.745561,-3.25485
668.5,59.6279,0.739861,-3.25485
669,59.6787,0.737126,-3.25485
669.5,59.729,0.737741,-3.25485
670,59.7789,0.737077,-3.25416
670.5,59.8295,0.727235,-3.25486
671,59.8794,0.731365,-3.25486
671.5,59.9307,0.728734,-3.25489
672,59.9809,0.73435,-3.25736
672.5,60.0314,0.737849,-3.25749
673,60.0821,0.734869,-3.25749
673.5,60.1326,0.740335,-3.25749
674,60.1836,0.728813,-3.25619
674.5,60.2341,0.728561,-3.25618
675,60.2845,0.728404,-3.25618
675.5,60.3349,0.72304,-3.25619
676,60.3859,0.717558,-3.25845
676.5,60.4359,0.715906,-3.25848
677,60.4874,0.722195,-3.25882
677.5,60.5373,0.712859,-3.25749
678,60.588,0.714187,-3.2575
678.5,60.6377,0.719465,-3.2575
679,60.6898,0.716856,-3.25886
679.5,60.7394,0.714368,-3.25881
680,60.79,0.71937,-3.25881
680.5,60.8407,0.709959,-3.25881
681,60.8918,0.704606,-3.25881
681.5,60.9428,0.707133,-3.2588
682,60.9944,0.705051,-3.26013
682.5,61.0433,0.700195,-3.25871
683,61.0942,0.698891,-3.25881
683.5,61.1446,0.704878,-3.25881
684,61.1962,0.70256,-3.2589
684.5,61.2466,0.698796,-3.26013
685,61.297,0.69767,-3.26013
685.5,61.3478,0.691179,-3.26013
686,61.3982,0.693349,-3.26013
686.5,61.4495,0.696445,-3.26013
687,61.4992,0.688296,-3.26013
687.5,61.5509,0.690234,-3.2603
688,61.6003,0.684535,-3.26112
688.5,61.6521,0.679599,-3.26101
689,61.7027,0.677276,-3.26012
689.5,61.7533,0.681131,-3.26012
690,61.8047,0.672758,-3.26111
690.5,61.855,0.68193,-3.26111
691,61.9063,0.67719,-3.26074
691.5,61.9561,0.679888,-3.26045
692,62.0071,0.672169,-3.26045
692.5,62.0577,0.669886,-3.26045
693,62.1094,0.671028,-3.26045
693.5,62.1606,0.667024,-3.26045
694,62.2104,0.663616,-3.2608
694.5,62.262,0.671824,-3.26078
695,62.3121,0.662406,-3.2621
695.5,62.3629,0.656993,-3.2621
696,62.4118,0.660467,-3.2621
696.5,62.4648,0.655524,-3.2621
697,62.515,0.651944,-3.2621
697.5,62.5661,0.649086,-3.26349
698,62.6161,0.650944,-3.26342
698.5,62.6675,0.646314,-3.26342
699,62.7177,0.647285,-3.26341
699.5,62.7681,0.651744,-3.2635
700,62.819,0.644486,-3.26415
700.5,62.8704,0.643882,-3.26276
701,62.921,0.640247,-3.26406
701.5,62.9715,0.640069,-3.26375
702,63.0219,0.636916,-3.26374
702.5,63.0725,0.640215,-3.26399
703,63.1234,0.632434,-3.26375
703.5,63.1716,0.633131,-3.26375
704,63.2239,0.628862,-3.26375
704.5,63.2748,0.626868,-3.26374
705,63.3264,0.621743,-3.26507
705.5,63.3769,0.618459,-3.26507
706,63.4268,0.618229,-3.26507
706.5,63.4775,0.613614,-3.26507
707,63.5282,0.618306,-3.26659
707.5,63.5793,0.613689,-3.2665
708,63.6293,0.617157,-3.26548
708.5,63.6794,0.606593,-3.26518
709,63.7299,0.60594,-3.26518
709.5,63.7814,0.60343,-3.26518
710,63.8322,0.597187,-3.26544
710.5,63.8822,0.598824,-3.26748
711,63.9337,0.592582,-3.26748
711.5,63.9845,0.593439,-3.26748
712,64.0348,0.593689,-3.26607
712.5,64.0857,0.590083,-3.26616
713,64.1371,0.589112,-3.26686
713.5,64.1885,0.59217,-3.26749
714,64.2387,0.580793,-3.26749
714.5,64.2898,0.581701,-3.26867
715,64.3409,0.584664,-3.26946
715.5,64.3914,0.593463,-3.26814
716,64.4422,0.587292,-3.26814
716.5,64.4927,0.585323,-3.26817
717,64.5435,0.581356,-3.26748
717.5,64.5944,0.580854,-3.26748
718,64.6447,0.585729,-3.26788
718.5,64.6939,0.584358,-3.2688
719,64.7466,0.585585,-3.26933
719.5,64.7974,0.579635,-3.26948
720,64.8461,0.582753,-3.27078
720.5,64.8978,0.576808,-3.26952
721,64.9489,0.583101,-3.26946
721.5,64.9994,0.579444,-3.27044
722,65.051,0.576556,-3.27045
722.5,65.1011,0.575318,-3.26997
723,65.152,0.577716,-3.26913
723.5,65.2025,0.570056,-3.26936
724,65.2528,0.568064,-3.27044
724.5,65.3042,0.566281,-3.27044
725,65.3548,0.5664,-3.27044
725.5,65.4049,0.558103,-3.27051
726,65.4556,0.564564,-3.27143
726.5,65.5061,0.56601,-3.27179
727,65.5564,0.566602,-3.27177
727.5,65.6082,0.564046,-3.27308
728,65.6587,0.563107,-3.27175
728.5,65.709,0.560252,-3.27177
729,65.7595,0.568581,-3.27177
729.5,65.8103,0.565549,-3.27177
730,65.8606,0.559027,-3.27317
730.5,65.9116,0.559131,-3.27309
731,65.9623,0.563916,-3.27439
731.5,66.0143,0.562632,-3.2744
732,66.0647,0.563716,-3.2744
732.5,66.115,0.560235,-3.2744
733,66.1658,0.564928,-3.2744
733.5,66.2171,0.56344,-3.2744
734,66.2681,0.567876,-3.2744
734.5,66.3192,0.564272,-3.2744
735,66.37,0.557339,-3.2744
735.5,66.4186,0.55885,-3.27544
736,66.4714,0.562167,-3.27572
736.5,66.523,0.556051,-3.27572
737,66.5739,0.558209,-3.27571
737.5,66.6236,0.554161,-3.27572
738,66.6733,0.549621,-3.27572
738.5,66.7258,0.552612,-3.2757
739,66.7769,0.544551,-3.27608
739.5,66.8278,0.544956,-3.27541
740,66.8789,0.550662,-3.27567
740.5,66.93,0.549973,-3.27639
741,66.9805,0.547844,-3.27733
741.5,67.031,0.545881,-3.27737
742,67.0824,0.541549,-3.27769
742.5,67.1328,0.549135,-3.27677
743,67.1842,0.537335,-3.27769
743.5,67.2326,0.54348,-3.27769
744,67.2852,0.540047,-3.27769
744.5,67.3363,0.546146,-3.27882
745,67.387,0.538285,-3.27901
745.5,67.4382,0.532716,-3.27901
746,67.4889,0.53295,-3.27901
746.5,67.5406,0.538613,-3.27901
747,67.5913,0.539728,-3.27899
747.5,67.641,0.538849,-3.27768
748,67.6913,0.530607,-3.27902
748.5,67.743,0.529133,-3.27901
749,67.7931,0.529717,-3.27901
749.5,67.8443,0.532291,-3.27901
750,67.8953,0.533416,-3.27906
750.5,67.9453,0.534645,-3.28032
751,67.9967,0.534258,-3.28032
751.5,68.047,0.530359,-3.28036
752,68.0976,0.53518,-3.28164
752.5,68.1486,0.525497,-3.28164
753,68.1993,0.527561,-3.28164
753.5,68.2494,0.526766,-3.28164
754,68.3008,0.525846,-3.28164
754.5,68.3512,0.53387,-3.28164
755,68.4014,0.527082,-3.28164
755.5,68.4533,0.531084,-3.28068
756,68.5031,0.532647,-3.28032
756.5,68.5552,0.532822,-3.28163
757,68.6057,0.534746,-3.28164
757.5,68.658,0.534797,-3.28165
758,68.7089,0.533955,-3.28231
758.5,68.759,0.537667,-3.2823
759,68.8104,0.53261,-3.2824
759.5,68.8614,0.539837,-3.28361
760,68.9127,0.541962,-3.28493
760.5,68.9635,0.536604,-3.28361
761,69.0143,0.528735,-3.28231
761.5,69.0671,0.525567,-3.28231
762,69.1168,0.534837,-3.28229
762.5,69.1682,0.536814,-3.28493
763,69.2186,0.529842,-3.28479
763.5,69.2706,0.534579,-3.28494
764,69.3215,0.533233,-3.28494
764.5,69.3716,0.529648,-3.28494
765,69.4226,0.526131,-3.28494
765.5,69.4715,0.526324,-3.28494
766,69.5243,0.531919,-3.28425
766.5,69.5755,0.534255,-3.2826
767,69.6268,0.530295,-3.28452
767.5,69.678,0.53141,-3.28552
768,69.7283,0.535403,-3.28593
768.5,69.7787,0.537126,-3.28593
769,69.8289,0.53229,-3.28622
769.5,69.8808,0.532328,-3.28534
770,69.932,0.530871,-3.28661
770.5,69.9808,0.524783,-3.28757
771,70.0344,0.526821,-3.28757
771.5,70.0852,0.532424,-3.2889
772,70.1358,0.532346,-3.28889
772.5,70.1868,0.5278,-3.28813
773,70.2376,0.533057,-3.28823
773.5,70.2888,0.52982,-3.28823
774,70.3395,0.528317,-3.28823
774.5,70.389,0.530555,-3.28823
775,70.4401,0.528572,-3.28815
775.5,70.4914,0.531758,-3.28889
776,70.5426,0.529618,-3.2902
776.5,70.593,0.519663,-3.29121
777,70.644,0.528709,-3.29117
777.5,70.6948,0.533398,-3.28987
778,70.746,0.535553,-3.28987
778.5,70.7966,0.53394,-3.28987
779,70.849,0.531003,-3.28987
779.5,70.8991,0.533798,-3.28987
780,70.9502,0.52472,-3.28987
780.5,71.001,0.527016,-3.29011
781,71.0525,0.523173,-3.2902
781.5,71.1037,0.518034,-3.29153
782,71.1545,0.528947,-3.29152
782.5,71.2054,0.522289,-3.29152
783,71.2568,0.52552,-3.29152
783.5,71.3077,0.521905,-3.29152
784,71.3573,0.521438,-3.29153
784.5,71.4103,0.52339,-3.29153
785,71.4619,0.531243,-3.29153
785.5,71.5133,0.521895,-3.29153
786,71.5639,0.520414,-3.29219
786.5,71.6148,0.52045,-3.29285
787,71.6658,0.52716,-3.29299
787.5,71.7175,0.517009,-3.29492
788,71.7682,0.521109,-3.29547
788.5,71.819,0.517957,-3.29415
789,71.871,0.513026,-3.29416
789.5,71.9212,0.516097,-3.29416
790,71.972,0.518607,-3.29388