File: 01_Data/Turnout_Gear_Reflector/STA/N2/10K_min/Turnout_Gear_Reflector_STA_N2_10KData_240515_R1.csv
Temp./C,Time/min,DSC/(mW/mg),Mass loss/mg
60.0,0.0,0.809256,0.000400059
60.5,0.0538363,0.832406,-0.0015175
61,0.111421,0.841752,-0.00153033
61.5,0.167626,0.854663,-0.000401701
62,0.22343,0.858798,-0.000485761
62.5,0.279096,0.872675,0.000383728
63,0.334238,0.875801,0.000346869
63.5,0.388742,0.88594,0.00110262
64,0.442663,0.892045,-0.00150404
64.5,0.497622,0.898592,-0.00107114
65,0.554317,0.903057,-0.00069943
65.5,0.609149,0.913555,-0.00131111
66,0.661177,0.910819,-0.00135648
66.5,0.715833,0.915347,1.3203e-05
67,0.769191,0.916967,9.20321e-06
67.5,0.822339,0.926699,0.00132685
68,0.875102,0.92523,0.00131075
68.5,0.929116,0.939457,0.00134122
69,0.980954,0.930906,0.000589561
69.5,1.03495,0.936159,1.64965e-05
70,1.08701,0.946344,1.03034e-05
70.5,1.1403,0.942296,-0.00103429
71,1.19239,0.947149,1.19642e-05
71.5,1.24537,0.949508,1.00619e-05
72,1.29785,0.947599,-4.93111e-06
72.5,1.34608,0.951498,1.38035e-05
73,1.4013,0.952577,-0.000422059
73.5,1.45317,0.957477,1.07363e-05
74,1.50651,0.971694,-0.000806865
74.5,1.55744,0.973524,-0.00131276
75,1.60981,0.974329,-0.00129228
75.5,1.66167,0.966804,-0.0013095
76,1.71336,0.968809,-0.000291854
76.5,1.76393,0.976308,-0.000435188
77,1.81563,0.976543,-0.00014175
77.5,1.86757,0.986726,6.04328e-08
78,1.91941,0.984907,-0.000881179
78.5,1.97025,0.983122,1.03146e-05
79,2.02153,0.991931,1.0029e-05
79.5,2.07355,0.994286,-1.67831e-05
80,2.12469,0.997279,3.15029e-05
80.5,2.17521,0.987638,-0.000575405
81,2.22543,0.988595,-0.00130985
81.5,2.27615,0.997759,-0.00141742
82,2.3273,1.0006,-0.00132379
82.5,2.37991,1.0013,-0.00127986
83,2.42917,0.994069,1.36599e-06
83.5,2.47944,1.00408,0.000688191
84,2.53041,1.00429,-0.000672799
84.5,2.58086,1.00825,-0.00131438
85,2.63215,1.01391,-9.00168e-05
85.5,2.68212,1.02024,1.29551e-05
86,2.73259,1.01986,4.54277e-05
86.5,2.78278,1.02371,9.98919e-06
87,2.83441,1.02001,1.71164e-05
87.5,2.88471,1.02194,-0.00131458
88,2.93389,1.02822,4.94172e-05
88.5,2.98055,1.02817,-8.06591e-08
89,3.0335,1.02868,-1.33404e-08
89.5,3.08217,1.03342,8.98969e-06
90,3.13168,1.0363,4.91343e-05
90.5,3.18072,1.0463,-0.000560108
91,3.23018,1.04764,-0.00130996
91.5,3.28025,1.04438,-0.00130996
92,3.33108,1.0488,-0.00134591
92.5,3.3814,1.06037,1.05268e-05
93,3.43094,1.0555,9.99922e-06
93.5,3.48016,1.06598,9.98096e-06
94,3.53063,1.06757,2.88286e-05
94.5,3.58001,1.07248,0.0013288
95,3.62848,1.06971,0.00133365
95.5,3.67953,1.08277,9.59112e-06
96,3.72811,1.06754,-0.00132315
96.5,3.77588,1.06547,-0.000180596
97,3.82598,1.07799,2.18876e-07
97.5,3.87392,1.07164,2.4879e-09
98,3.9222,1.07405,-0.000854388
98.5,3.97305,1.07994,-0.00140265
99,4.02172,1.07682,-0.000132717
99.5,4.07078,1.08104,0.00110316
100,4.11901,1.08397,0.00109997
100.5,4.16837,1.08409,0.00109658
101,4.21655,1.08713,0.00242092
101.5,4.26542,1.09703,0.00242003
102,4.31451,1.09058,0.00227104
102.5,4.36463,1.09017,-0.000193888
103,4.41302,1.09739,-0.000190901
103.5,4.46178,1.10372,-0.000207571
104,4.50953,1.10432,-0.000141082
104.5,4.55795,1.10142,-0.00119697
105,4.60808,1.10903,0.000109115
105.5,4.65642,1.10769,0.000110697
106,4.7057,1.10974,-0.000226945
106.5,4.75473,1.11152,-0.00151893
107,4.80165,1.11151,-0.0014277
107.5,4.85051,1.11128,-0.000487984
108,4.90064,1.11366,-0.000212189
108.5,4.94702,1.11731,0.00110672
109,4.99691,1.11661,0.00111
109.5,5.04471,1.12113,0.00111069
110,5.09373,1.12484,0.00045575
110.5,5.14283,1.11867,0.00127404
111,5.1904,1.12625,0.00110981
111.5,5.23824,1.12625,0.00111005
112,5.28896,1.12565,0.00107431
112.5,5.3364,1.13434,-0.00021006
113,5.38592,1.13412,-0.000210018
113.5,5.43272,1.14934,-0.000198314
114,5.48019,1.13994,0.000765155
114.5,5.53041,1.14499,0.000769869
115,5.5783,1.14851,-0.000533046
115.5,5.62837,1.15512,-0.000549967
116,5.67578,1.15614,-0.000534579
116.5,5.72418,1.15701,-0.00153862
117,5.77294,1.16419,-0.000112458
117.5,5.82061,1.15806,-0.000191512
118,5.86999,1.16364,0.000771561
118.5,5.91905,1.1638,0.0017955
119,5.96726,1.16972,0.000447931
119.5,6.0142,1.16332,0.000450101
120,6.06319,1.17103,-0.00097395
120.5,6.11194,1.17095,-0.000869903
121,6.16046,1.17601,-0.000865859
121.5,6.20813,1.17892,-0.000540678
122,6.25731,1.1767,-0.000539864
122.5,6.30488,1.18533,0.000471069
123,6.35339,1.1888,0.000754727
123.5,6.40247,1.1979,-0.00053779
124,6.44958,1.18921,-0.000540593
124.5,6.49789,1.19244,0.000748009
125,6.54542,1.19695,0.000774198
125.5,6.59609,1.20203,-0.00118476
126,6.64303,1.19785,-0.000883538
126.5,6.68932,1.20664,0.000109364
127,6.73647,1.20652,0.000110003
127.5,6.78787,1.20548,0.000108554
128,6.83564,1.21232,0.000158178
128.5,6.88321,1.21005,0.000214244
129,6.93071,1.21306,-0.00120067
129.5,6.98058,1.22109,-0.00109578
130,7.02753,1.21988,-0.000540062
130.5,7.07572,1.22235,-0.000541086
131,7.12401,1.2197,1.46226e-05
131.5,7.17317,1.21836,0.000119641
132,7.21925,1.22221,-0.000324165
132.5,7.26809,1.2167,-0.0005411
133,7.31259,1.22455,0.000796831
133.5,7.36455,1.22972,0.000779982
134,7.41255,1.21698,0.00078
134.5,7.45906,1.23694,0.00078
135,7.50772,1.2331,0.000780027
135.5,7.55589,1.23557,0.000773943
136,7.60252,1.23599,-0.000538562
136.5,7.65135,1.23847,-0.000540257
137,7.69959,1.23671,-0.000477568
137.5,7.74661,1.24292,-0.000289383
138,7.79488,1.23803,-0.000549932
138.5,7.84304,1.25409,-0.00055
139,7.89077,1.25961,-0.000549999
139.5,7.93809,1.25498,-0.000549948
140,7.98714,1.25621,0.000678675
140.5,8.03471,1.25956,0.000340243
141,8.083,1.25128,-0.000536758
141.5,8.13033,1.27059,-0.0019675
142,8.17877,1.26949,-0.00185781
142.5,8.22707,1.2811,-0.00317653
143,8.27451,1.27463,-0.00151085
143.5,8.3228,1.27563,-0.000541041
144,8.37079,1.2786,-0.000554885
144.5,8.41856,1.28504,-0.00185948
145,8.46595,1.29599,-0.00186
145.5,8.51388,1.28415,-0.00185861
146,8.56217,1.29198,-0.000563165
146.5,8.61005,1.28363,-0.000539976
147,8.65742,1.2876,-0.00054
147.5,8.70565,1.28812,-0.00054
148,8.75382,1.2927,-0.000540038
148.5,8.80163,1.29471,-0.000511938
149,8.84856,1.29229,-0.00186031
149.5,8.8962,1.29318,-0.00183886
150,8.94361,1.29827,-0.000541779
150.5,8.99085,1.30594,-0.000541326
151,9.03943,1.30403,-0.00185016
151.5,9.08695,1.29828,-0.00185999
152,9.13372,1.30081,-0.0018389
152.5,9.18257,1.3007,-0.000622316
153,9.23083,1.30036,-0.00159211
153.5,9.27706,1.30903,-0.00186028
154,9.32537,1.31024,-0.0016244
154.5,9.3732,1.31132,-0.00152969
155,9.42044,1.31105,-0.00153
155.5,9.46883,1.30872,-0.00153
156,9.51697,1.30764,-0.00153
156.5,9.56365,1.31179,-0.00153
157,9.61285,1.31115,-0.00153
157.5,9.66031,1.30812,-0.00152967
158,9.70747,1.31914,-0.000525212
158.5,9.75283,1.3202,-0.00164236
159,9.80182,1.31495,-0.00186051
159.5,9.84906,1.31757,-0.00186
160,9.89765,1.31513,-0.00186
160.5,9.94535,1.32378,-0.00186
161,9.99254,1.32098,-0.00186
161.5,10.0409,1.32355,-0.00186147
162,10.0879,1.32994,-0.00270368
162.5,10.135,1.3216,-0.00180671
163,10.1836,1.32874,-0.00185915
163.5,10.2321,1.33597,-0.000922058
164,10.2795,1.32396,-0.000538463
164.5,10.3262,1.33501,-0.00184846
165,10.372,1.3298,-0.00243999
165.5,10.4225,1.33072,-0.0026271
166,10.4698,1.33474,-0.00404417
166.5,10.5169,1.33169,-0.00335309
167,10.5646,1.33572,-0.00274045
167.5,10.6126,1.33475,-0.00274
168,10.6601,1.33964,-0.00274005
168.5,10.7065,1.35063,-0.00293609
169,10.755,1.34069,-0.00405528
169.5,10.802,1.3425,-0.00545869
170,10.8499,1.34139,-0.00537993
170.5,10.8971,1.33525,-0.00516025
171,10.9462,1.34275,-0.00406082
171.5,10.9932,1.34184,-0.00406
172,11.0412,1.34452,-0.00406
172.5,11.0882,1.34566,-0.00406
173,11.136,1.34237,-0.00406
173.5,11.1842,1.35448,-0.00405864
174,11.2313,1.34693,-0.00284535
174.5,11.278,1.34375,-0.00175032
175,11.3262,1.34755,-0.00296932
175.5,11.3731,1.34392,-0.00289396
176,11.4215,1.34926,-0.00470916
176.5,11.4688,1.35168,-0.00471
177,11.5164,1.35092,-0.00471
177.5,11.5639,1.35167,-0.00471
178,11.6121,1.34065,-0.00471
178.5,11.6583,1.35217,-0.00471
179,11.707,1.34244,-0.00471
179.5,11.7539,1.34583,-0.00470925
180,11.8019,1.35045,-0.00611438
180.5,11.8493,1.34569,-0.00604912
181,11.897,1.3517,-0.00856116
181.5,11.9441,1.35032,-0.00775832
182,11.9918,1.35276,-0.00724023
182.5,12.0406,1.34586,-0.00723994
183,12.0878,1.34626,-0.0068446
183.5,12.1351,1.34675,-0.00592047
184,12.1834,1.34654,-0.00591915
184.5,12.2295,1.34743,-0.00732192
185,12.2776,1.34843,-0.00723993
185.5,12.3251,1.34844,-0.00725051
186,12.3723,1.35309,-0.00790355
186.5,12.4207,1.34919,-0.00789999
187,12.4682,1.34763,-0.0079
187.5,12.5154,1.34712,-0.0079
188,12.5628,1.34701,-0.00790147
188.5,12.6101,1.35444,-0.00865404
189,12.6571,1.33993,-0.00942002
189.5,12.7049,1.34622,-0.00987988
190,12.7528,1.34335,-0.00988
190.5,12.8002,1.34889,-0.00988
191,12.8477,1.34518,-0.00988035
191.5,12.8952,1.34558,-0.0111932
192,12.9427,1.33974,-0.0112
192.5,12.9906,1.3491,-0.0111999
193,13.0385,1.34232,-0.0112
193.5,13.0861,1.33648,-0.0125129
194,13.1321,1.33851,-0.0125087
194.5,13.18,1.3449,-0.0134763
195,13.2279,1.33901,-0.0128401
195.5,13.2746,1.34822,-0.01284
196,13.3233,1.34015,-0.0128564
196.5,13.3713,1.34007,-0.0118579
197,13.418,1.33132,-0.0115273
197.5,13.4655,1.33354,-0.0115295
198,13.5102,1.33045,-0.0129024
198.5,13.5594,1.33539,-0.01417
199,13.608,1.3388,-0.0154645
199.5,13.6549,1.32808,-0.0154657
200,13.7031,1.33049,-0.016797
200.5,13.7499,1.32768,-0.01679
201,13.7979,1.32571,-0.01679
201.5,13.8463,1.3328,-0.01679
202,13.8921,1.33021,-0.0167991
202.5,13.9399,1.32641,-0.0181005
203,13.9863,1.32802,-0.0181088
203.5,14.0352,1.32409,-0.0171763
204,14.0824,1.3203,-0.0181231
204.5,14.1283,1.32248,-0.0184401
205,14.1763,1.3141,-0.0198001
205.5,14.2247,1.3096,-0.019711
206,14.2693,1.31146,-0.0210728
206.5,14.3167,1.30498,-0.022372
207,14.367,1.30421,-0.02239
207.5,14.4129,1.31246,-0.0224416
208,14.4623,1.30241,-0.0210791
208.5,14.5082,1.30157,-0.0223925
209,14.5553,1.31126,-0.0223834
209.5,14.6026,1.29656,-0.0236804
210,14.651,1.29419,-0.0250338
210.5,14.6982,1.28738,-0.0250147
211,14.7456,1.28547,-0.0263402
211.5,14.7936,1.27562,-0.0263212
212,14.8417,1.27174,-0.0256742
212.5,14.8875,1.26324,-0.0256296
213,14.9359,1.26014,-0.0270019
213.5,14.9828,1.25988,-0.0288366
214,15.0287,1.25152,-0.0296573
214.5,15.078,1.24929,-0.0296189
215,15.1255,1.24252,-0.0309718
215.5,15.1729,1.2384,-0.0322557
216,15.2198,1.23009,-0.03227
216.5,15.2673,1.22805,-0.0322698
217,15.3144,1.21992,-0.0328178
217.5,15.3619,1.21506,-0.0335912
218,15.4087,1.20954,-0.0359828
218.5,15.4561,1.20122,-0.0362215
219,15.5041,1.18775,-0.0373207
219.5,15.551,1.18147,-0.0386771
220,15.5965,1.18088,-0.0388494
220.5,15.6464,1.16945,-0.0402138
221,15.6934,1.16983,-0.041422
221.5,15.7407,1.16183,-0.0416562
222,15.7878,1.15191,-0.0428064
222.5,15.8344,1.14761,-0.0441971
223,15.8821,1.1287,-0.0454602
223.5,15.9311,1.1239,-0.0467605
224,15.9764,1.11136,-0.0481289
224.5,16.023,1.10048,-0.0491163
225,16.0732,1.09699,-0.0514233
225.5,16.1189,1.08641,-0.052031
226,16.1658,1.08418,-0.0532855
226.5,16.2148,1.06879,-0.0546668
227,16.26,1.06676,-0.0559814
227.5,16.3064,1.06011,-0.0561534
228,16.3557,1.05529,-0.0579927
228.5,16.4036,1.04079,-0.060127
229,16.451,1.02791,-0.0614066
229.5,16.4973,1.01732,-0.0625262
230,16.5463,1.00387,-0.0650777
230.5,16.5931,0.993395,-0.066696
231,16.6396,0.981336,-0.068154
231.5,16.6875,0.965697,-0.071134
232,16.7349,0.963547,-0.0751518
232.5,16.781,0.953897,-0.0767827
233,16.8287,0.939822,-0.0789486
233.5,16.8763,0.915239,-0.0815165
234,16.9235,0.905557,-0.0849798
234.5,16.971,0.89526,-0.0879147
235,17.019,0.868767,-0.0905182
235.5,17.0651,0.867251,-0.0930128
236,17.112,0.850344,-0.0944649
236.5,17.1601,0.836151,-0.0977385
237,17.2071,0.837214,-0.102834
237.5,17.2547,0.833299,-0.109699
238,17.3018,0.832078,-0.112965
238.5,17.3493,0.823309,-0.112174
239,17.3964,0.828005,-0.114912
239.5,17.445,0.833339,-0.120003
240,17.4922,0.833667,-0.125117
240.5,17.5398,0.84766,-0.128818
241,17.5875,0.859286,-0.133386
241.5,17.6346,0.872418,-0.140425
242,17.681,0.89047,-0.143368
242.5,17.7304,0.901038,-0.147514
243,17.7781,0.925706,-0.152694
243.5,17.8258,0.94226,-0.157491
244,17.8731,0.961868,-0.162613
244.5,17.9207,0.974927,-0.167916
245,17.9694,0.994174,-0.174038
245.5,18.017,1.01429,-0.178357
246,18.064,1.03591,-0.185468
246.5,18.1128,1.05144,-0.191112
247,18.1599,1.07446,-0.195837
247.5,18.2074,1.09387,-0.203451
248,18.2557,1.10648,-0.207643
248.5,18.303,1.11602,-0.212078
249,18.3513,1.13406,-0.218199
249.5,18.3986,1.13909,-0.222983
250,18.4452,1.15328,-0.228766
250.5,18.4945,1.167,-0.235829
251,18.5425,1.17472,-0.240946
251.5,18.5895,1.18889,-0.247509
252,18.637,1.19228,-0.253904
252.5,18.6832,1.20424,-0.258071
253,18.7325,1.20201,-0.264469
253.5,18.7799,1.21006,-0.270784
254,18.8271,1.21296,-0.276487
254.5,18.8764,1.22667,-0.281578
255,18.9229,1.22605,-0.287611
255.5,18.9706,1.23059,-0.294328
256,19.0183,1.2325,-0.300549
256.5,19.0647,1.23275,-0.306256
257,19.1136,1.24151,-0.312073
257.5,19.1615,1.23828,-0.318726
258,19.2091,1.24278,-0.325072
258.5,19.2564,1.24308,-0.331935
259,19.3033,1.23575,-0.337339
259.5,19.3522,1.24118,-0.342796
260,19.398,1.2421,-0.349362
260.5,19.4467,1.2454,-0.355796
261,19.4941,1.24441,-0.361035
261.5,19.5413,1.24187,-0.367531
262,19.5894,1.24719,-0.375025
262.5,19.6343,1.24178,-0.381394
263,19.6847,1.24187,-0.390482
263.5,19.7322,1.22793,-0.397116
264,19.7796,1.23241,-0.403268
264.5,19.8266,1.22585,-0.411166
265,19.8749,1.2392,-0.418852
265.5,19.9205,1.23567,-0.424988
266,19.9693,1.22423,-0.433125
266.5,20.0169,1.22972,-0.440713
267,20.0646,1.23689,-0.450453
267.5,20.1131,1.24862,-0.457773
268,20.1597,1.26045,-0.46542
268.5,20.2074,1.26853,-0.473965
269,20.2543,1.28935,-0.482758
269.5,20.3028,1.31205,-0.49265
270,20.3506,1.33618,-0.501909
270.5,20.3985,1.37061,-0.51224
271,20.4475,1.40682,-0.521762
271.5,20.4947,1.44255,-0.531829
272,20.5427,1.48907,-0.542737
272.5,20.5902,1.53281,-0.553285
273,20.6384,1.56856,-0.564812
273.5,20.6866,1.61185,-0.576686
274,20.7357,1.65537,-0.587225
274.5,20.7832,1.69186,-0.599063
275,20.8316,1.73325,-0.612804
275.5,20.8798,1.764,-0.624157
276,20.9269,1.79055,-0.636825
276.5,20.9748,1.81538,-0.648883
277,21.0232,1.83828,-0.66155
277.5,21.071,1.86342,-0.67429
278,21.1199,1.88533,-0.685908
278.5,21.1662,1.90377,-0.696571
279,21.2158,1.91574,-0.708581
279.5,21.2642,1.94454,-0.722508
280,21.3112,1.95988,-0.734817
280.5,21.3598,1.97994,-0.747033
281,21.4077,1.99585,-0.759807
281.5,21.4534,2.01051,-0.772364
282,21.5045,2.05403,-0.787128
282.5,21.5511,2.07713,-0.801206
283,21.5994,2.10835,-0.812577
283.5,21.6484,2.13744,-0.826083
284,21.6964,2.17704,-0.840044
284.5,21.7437,2.2034,-0.854598
285,21.7929,2.24826,-0.868395
285.5,21.8395,2.27772,-0.882709
286,21.8891,2.30883,-0.897996
286.5,21.9377,2.34268,-0.912783
287,21.9857,2.38459,-0.929309
287.5,22.0337,2.42634,-0.946467
288,22.0798,2.46139,-0.960508
288.5,22.1299,2.50317,-0.975664
289,22.1794,2.53889,-0.993002
289.5,22.2269,2.56955,-1.01028
290,22.2748,2.60376,-1.02769
290.5,22.324,2.63433,-1.04234
291,22.3721,2.64918,-1.05899
291.5,22.4195,2.6759,-1.07632
292,22.4658,2.68868,-1.09252
292.5,22.5163,2.71277,-1.11158
293,22.5638,2.71836,-1.12842
293.5,22.6118,2.72201,-1.14512
294,22.6602,2.71998,-1.16315
294.5,22.7082,2.71833,-1.18299
295,22.7558,2.70897,-1.19926
295.5,22.8036,2.68704,-1.21671
296,22.8517,2.67826,-1.23386
296.5,22.8984,2.66342,-1.25067
297,22.9471,2.62666,-1.2657
297.5,22.9942,2.61028,-1.28498
298,23.0419,2.58363,-1.30181
298.5,23.0895,2.54361,-1.31693
299,23.1364,2.51399,-1.33183
299.5,23.1849,2.47444,-1.34687
300,23.2315,2.43286,-1.36159
300.5,23.2793,2.3973,-1.37534
301,23.3257,2.33738,-1.38963
301.5,23.3729,2.2797,-1.40381
302,23.4206,2.24846,-1.41838
302.5,23.4654,2.19308,-1.43121
303,23.5148,2.13285,-1.44352
303.5,23.5623,2.0898,-1.45517
304,23.6094,2.03639,-1.46706
304.5,23.6578,1.98145,-1.48055
305,23.7053,1.93341,-1.49232
305.5,23.7522,1.87747,-1.50194
306,23.7995,1.82721,-1.51237
306.5,23.8463,1.77438,-1.52196
307,23.8942,1.72793,-1.53145
307.5,23.9417,1.68421,-1.53911
308,23.9876,1.63433,-1.54804
308.5,24.0354,1.59358,-1.55697
309,24.083,1.54626,-1.56535
309.5,24.1305,1.50534,-1.57333
310,24.1759,1.47729,-1.58165
310.5,24.2252,1.43154,-1.58891
311,24.2721,1.39782,-1.59412
311.5,24.3204,1.36265,-1.60008
312,24.3678,1.33466,-1.60778
312.5,24.4153,1.30484,-1.61406
313,24.4628,1.2811,-1.62009
313.5,24.5101,1.24771,-1.62538
314,24.5574,1.22755,-1.63265
314.5,24.6053,1.19315,-1.63895
315,24.6524,1.17494,-1.64334
315.5,24.6982,1.15008,-1.64901
316,24.7477,1.13346,-1.65466
316.5,24.795,1.11996,-1.65979
317,24.8433,1.09447,-1.66363
317.5,24.89,1.08929,-1.66799
318,24.9382,1.06931,-1.67275
318.5,24.9858,1.04195,-1.67751
319,25.0326,1.02199,-1.68277
319.5,25.0807,1.00554,-1.68797
320,25.1285,0.998409,-1.6923
320.5,25.1773,0.980509,-1.69605
321,25.2249,0.965809,-1.69965
321.5,25.2717,0.954978,-1.70326
322,25.3193,0.946061,-1.70663
322.5,25.3672,0.936775,-1.71029
323,25.415,0.918578,-1.714
323.5,25.4622,0.911507,-1.71765
324,25.5104,0.894639,-1.72158
324.5,25.5591,0.88159,-1.72445
325,25.6065,0.874373,-1.72758
325.5,25.6544,0.860014,-1.73171
326,25.7017,0.850224,-1.73615
326.5,25.7495,0.852449,-1.73884
327,25.7973,0.839709,-1.74062
327.5,25.8457,0.832178,-1.74383
328,25.8931,0.824414,-1.74857
328.5,25.9418,0.81925,-1.75158
329,25.9902,0.80172,-1.75522
329.5,26.0373,0.801689,-1.75873
330,26.0851,0.788477,-1.76216
330.5,26.1329,0.790348,-1.76353
331,26.1818,0.782812,-1.76646
331.5,26.2285,0.781408,-1.7697
332,26.2755,0.772188,-1.77263
332.5,26.3247,0.769425,-1.77576
333,26.3726,0.759144,-1.77617
333.5,26.4204,0.749488,-1.77808
334,26.469,0.758205,-1.78134
334.5,26.5166,0.754072,-1.78486
335,26.5647,0.748631,-1.78875
335.5,26.6132,0.735001,-1.79218
336,26.6608,0.729992,-1.79458
336.5,26.7089,0.71909,-1.79882
337,26.7547,0.721682,-1.80143
337.5,26.8056,0.715433,-1.80367
338,26.8537,0.699618,-1.80611
338.5,26.9032,0.712993,-1.8088
339,26.9501,0.691765,-1.81119
339.5,26.9975,0.688312,-1.81245
340,27.046,0.673765,-1.81584
340.5,27.0938,0.669259,-1.81916
341,27.1423,0.66576,-1.82082
341.5,27.1902,0.668519,-1.82389
342,27.2372,0.662363,-1.82686
342.5,27.2863,0.64937,-1.82948
343,27.3348,0.640719,-1.83227
343.5,27.3814,0.642095,-1.83431
344,27.4316,0.63325,-1.83684
344.5,27.4794,0.633487,-1.83959
345,27.5265,0.631213,-1.84095
345.5,27.5753,0.628947,-1.844
346,27.6233,0.610415,-1.84684
346.5,27.6724,0.60634,-1.84997
347,27.7202,0.598327,-1.85133
347.5,27.7684,0.602831,-1.85312
348,27.8172,0.597956,-1.85562
348.5,27.8645,0.602972,-1.85776
349,27.9131,0.591448,-1.85954
349.5,27.9624,0.589516,-1.86213
350,28.0095,0.589579,-1.86501
350.5,28.0582,0.592271,-1.86696
351,28.1067,0.586232,-1.87055
351.5,28.1548,0.582932,-1.87419
352,28.2027,0.586725,-1.87659
352.5,28.251,0.57368,-1.87932
353,28.2993,0.570895,-1.87937
353.5,28.3487,0.576035,-1.88181
354,28.3957,0.56892,-1.88375
354.5,28.4445,0.564783,-1.88702
355,28.4922,0.563917,-1.88865
355.5,28.5416,0.563713,-1.89141
356,28.589,0.568409,-1.89545
356.5,28.6371,0.565072,-1.89748
357,28.6858,0.562744,-1.9003
357.5,28.7325,0.559844,-1.90217
358,28.7827,0.552843,-1.90324
358.5,28.8305,0.555113,-1.90549
359,28.8801,0.560657,-1.908
359.5,28.9278,0.560052,-1.9104
360,28.9756,0.556518,-1.91383
360.5,29.0246,0.561728,-1.91668
361,29.0728,0.562543,-1.91841
361.5,29.1209,0.563127,-1.92179
362,29.1705,0.559333,-1.92429
362.5,29.2182,0.566561,-1.92699
363,29.2671,0.572693,-1.9306
363.5,29.315,0.565057,-1.93317
364,29.3639,0.567817,-1.93575
364.5,29.4121,0.563428,-1.9389
365,29.4609,0.565962,-1.94281
365.5,29.5092,0.566571,-1.94466
366,29.5571,0.571118,-1.94737
366.5,29.6062,0.576198,-1.95064
367,29.6546,0.565981,-1.9539
367.5,29.7019,0.567572,-1.95551
368,29.7512,0.570375,-1.95898
368.5,29.7977,0.569246,-1.96222
369,29.8482,0.577979,-1.96574
369.5,29.8968,0.574192,-1.96927
370,29.9453,0.58097,-1.97225
370.5,29.9935,0.585425,-1.97435
371,30.0408,0.586072,-1.97725
371.5,30.0902,0.593561,-1.98262
372,30.1395,0.597087,-1.98554
372.5,30.1876,0.595362,-1.989
373,30.2356,0.599222,-1.99145
373.5,30.2821,0.600421,-1.99406
374,30.333,0.595954,-1.99736
374.5,30.3819,0.598034,-2.00123
375,30.4309,0.602126,-2.00483
375.5,30.4779,0.604118,-2.00908
376,30.5279,0.608591,-2.0137
376.5,30.5764,0.604709,-2.01706
377,30.6255,0.609064,-2.01926
377.5,30.6721,0.613363,-2.02328
378,30.7218,0.613746,-2.0285
378.5,30.7693,0.612879,-2.0318
379,30.8186,0.613917,-2.03571
379.5,30.8684,0.612903,-2.0403
380,30.9151,0.61626,-2.04421
380.5,30.9632,0.621027,-2.04821
381,31.0139,0.622497,-2.05235
381.5,31.0621,0.623652,-2.0567
382,31.112,0.623189,-2.06169
382.5,31.1592,0.622204,-2.06758
383,31.2079,0.6266,-2.07146
383.5,31.2568,0.616466,-2.07595
384,31.3054,0.622316,-2.0809
384.5,31.3538,0.611389,-2.08742
385,31.4033,0.620098,-2.09151
385.5,31.4516,0.611293,-2.0972
386,31.5011,0.609064,-2.10156
386.5,31.5489,0.623558,-2.10634
387,31.5978,0.618742,-2.11127
387.5,31.6459,0.616683,-2.11711
388,31.695,0.621503,-2.12224
388.5,31.7436,0.613977,-2.12808
389,31.7923,0.609597,-2.13364
389.5,31.8416,0.606199,-2.13846
390,31.8899,0.61336,-2.14486
390.5,31.9398,0.605214,-2.14851
391,31.9875,0.607119,-2.15426
391.5,32.0371,0.603875,-2.1618
392,32.0851,0.602973,-2.16795
392.5,32.1337,0.596546,-2.17292
393,32.1832,0.598997,-2.17957
393.5,32.232,0.604514,-2.18483
394,32.2803,0.6095,-2.19081
394.5,32.3295,0.595245,-2.19817
395,32.3771,0.594709,-2.20298
395.5,32.4263,0.595655,-2.20934
396,32.4751,0.587021,-2.21724
396.5,32.5234,0.58092,-2.22345
397,32.5725,0.583869,-2.22982
397.5,32.6215,0.576862,-2.23745
398,32.6696,0.577128,-2.24392
398.5,32.7191,0.569754,-2.24977
399,32.7666,0.566555,-2.25748
399.5,32.8163,0.560891,-2.26442
400,32.8657,0.550081,-2.27164
400.5,32.9144,0.546197,-2.27889
401,32.9634,0.548199,-2.28562
401.5,33.0123,0.529217,-2.28996
402,33.0602,0.533215,-2.29807
402.5,33.1089,0.52589,-2.30728
403,33.1587,0.516488,-2.3137
403.5,33.2064,0.503081,-2.32117
404,33.2547,0.499607,-2.3283
404.5,33.3043,0.488443,-2.33573
405,33.3529,0.484319,-2.34202
405.5,33.401,0.47216,-2.3489
406,33.4504,0.466633,-2.35695
406.5,33.4982,0.457949,-2.36381
407,33.547,0.444029,-2.37112
407.5,33.5962,0.432681,-2.37743
408,33.6451,0.424627,-2.38385
408.5,33.6935,0.416084,-2.39008
409,33.7425,0.400454,-2.39834
409.5,33.7903,0.389009,-2.4057
410,33.8394,0.38566,-2.4125
410.5,33.8886,0.362598,-2.41897
411,33.9348,0.345806,-2.4243
411.5,33.9864,0.344519,-2.4291
412,34.0345,0.332148,-2.43277
412.5,34.0838,0.321169,-2.44379
413,34.1325,0.310315,-2.44945
413.5,34.1814,0.304671,-2.45637
414,34.23,0.296059,-2.45996
414.5,34.2792,0.292362,-2.46569
415,34.3289,0.28146,-2.47095
415.5,34.3772,0.272705,-2.47672
416,34.4263,0.260821,-2.48282
416.5,34.4747,0.263915,-2.48767
417,34.5237,0.248543,-2.49331
417.5,34.5726,0.25166,-2.4983
418,34.6218,0.250206,-2.50224
418.5,34.671,0.240819,-2.507
419,34.7188,0.234559,-2.51156
419.5,34.768,0.233358,-2.51717
420,34.8163,0.23091,-2.52213
420.5,34.8663,0.212496,-2.52443
421,34.9151,0.217529,-2.52979
421.5,34.9639,0.210174,-2.53408
422,35.0129,0.203684,-2.5387
422.5,35.0613,0.200427,-2.54294
423,35.11,0.2,-2.54578
423.5,35.1594,0.202204,-2.55309
424,35.2064,0.19173,-2.55671
424.5,35.2564,0.179006,-2.55958
425,35.3064,0.180502,-2.56355
425.5,35.3555,0.184968,-2.56602
426,35.4027,0.176756,-2.56966
426.5,35.4533,0.171364,-2.57518
427,35.5016,0.175898,-2.57981
427.5,35.5502,0.170147,-2.58356
428,35.599,0.165803,-2.58704
428.5,35.6488,0.16427,-2.59057
429,35.6977,0.159398,-2.59406
429.5,35.7465,0.156035,-2.59767
430,35.7953,0.156519,-2.60136
430.5,35.8447,0.156038,-2.60475
431,35.893,0.146995,-2.6088
431.5,35.942,0.156763,-2.61275
432,35.9911,0.146271,-2.61659
432.5,36.0411,0.140239,-2.6207
433,36.0901,0.144598,-2.62424
433.5,36.1381,0.145028,-2.62797
434,36.1874,0.141936,-2.63118
434.5,36.2367,0.133759,-2.63494
435,36.2861,0.137275,-2.63877
435.5,36.3349,0.13383,-2.64301
436,36.3839,0.134629,-2.64776
436.5,36.4328,0.132278,-2.65208
437,36.4821,0.132839,-2.65588
437.5,36.5299,0.136368,-2.65896
438,36.5792,0.134965,-2.66288
438.5,36.6284,0.135142,-2.66695
439,36.6777,0.138716,-2.67127
439.5,36.7268,0.137768,-2.67434
440,36.7758,0.134071,-2.67867
440.5,36.8259,0.139663,-2.68165
441,36.8747,0.143785,-2.68491
441.5,36.9215,0.149417,-2.6883
442,36.9726,0.136625,-2.6933
442.5,37.0217,0.146359,-2.6967
443,37.0708,0.141639,-2.70106
443.5,37.1202,0.141622,-2.70517
444,37.17,0.152469,-2.70918
444.5,37.2187,0.155865,-2.71408
445,37.2676,0.160591,-2.7172
445.5,37.3167,0.171242,-2.71972
446,37.3662,0.167559,-2.72484
446.5,37.4153,0.1658,-2.72934
447,37.464,0.17185,-2.73375
447.5,37.5136,0.180336,-2.73705
448,37.5626,0.180475,-2.74174
448.5,37.6122,0.18421,-2.74599
449,37.6618,0.188659,-2.7487
449.5,37.7118,0.191993,-2.75402
450,37.7608,0.203658,-2.75742
450.5,37.8075,0.204564,-2.76158
451,37.8592,0.214128,-2.76711
451.5,37.9095,0.220174,-2.77033
452,37.9582,0.213443,-2.77476
452.5,38.0078,0.227869,-2.77943
453,38.0576,0.234734,-2.78335
453.5,38.1071,0.239353,-2.78737
454,38.1561,0.244221,-2.79128
454.5,38.2057,0.248985,-2.79482
455,38.2559,0.252882,-2.79796
455.5,38.3046,0.256001,-2.80252
456,38.3516,0.258309,-2.80734
456.5,38.4036,0.265504,-2.81042
457,38.4536,0.280687,-2.8148
457.5,38.4998,0.281661,-2.81823
458,38.5517,0.281209,-2.82205
458.5,38.6014,0.2869,-2.82586
459,38.6495,0.292561,-2.82897
459.5,38.6991,0.296205,-2.83197
460,38.7493,0.292991,-2.8324
460.5,38.798,0.298629,-2.83958
461,38.8474,0.291063,-2.84548
461.5,38.8965,0.304814,-2.85063
462,38.9463,0.303869,-2.85478
462.5,38.9949,0.300253,-2.8581
463,39.0442,0.29982,-2.86175
463.5,39.0927,0.298674,-2.86527
464,39.1427,0.296645,-2.86862
464.5,39.1923,0.293822,-2.87344
465,39.2416,0.293266,-2.87765
465.5,39.291,0.287164,-2.8794
466,39.3402,0.289717,-2.88454
466.5,39.3884,0.285709,-2.88827
467,39.4386,0.292837,-2.8906
467.5,39.4865,0.27945,-2.89417
468,39.533,0.27944,-2.89566
468.5,39.585,0.276954,-2.89934
469,39.6345,0.272867,-2.90251
469.5,39.6836,0.260852,-2.90557
470,39.7325,0.265407,-2.90945
470.5,39.7826,0.265537,-2.91247
471,39.832,0.263562,-2.91579
471.5,39.8809,0.247556,-2.91936
472,39.9302,0.236954,-2.92283
472.5,39.9799,0.24225,-2.92586
473,40.0282,0.228313,-2.92755
473.5,40.0755,0.216286,-2.93029
474,40.1272,0.212467,-2.93489
474.5,40.1762,0.214359,-2.93827
475,40.2259,0.20942,-2.94028
475.5,40.2746,0.203671,-2.94287
476,40.3233,0.191136,-2.94445
476.5,40.3733,0.192757,-2.94714
477,40.4231,0.176175,-2.94878
477.5,40.4716,0.18111,-2.95203
478,40.5213,0.167653,-2.95481
478.5,40.5708,0.17464,-2.95741
479,40.62,0.165329,-2.95931
479.5,40.669,0.160782,-2.96076
480,40.7184,0.167679,-2.96281
480.5,40.7677,0.164123,-2.96524
481,40.8173,0.146748,-2.968
481.5,40.8666,0.155039,-2.96957
482,40.9166,0.14851,-2.97083
482.5,40.9655,0.142364,-2.97219
483,41.0148,0.14678,-2.97333
483.5,41.0642,0.148319,-2.9755
484,41.1139,0.140533,-2.97725
484.5,41.1619,0.145785,-2.9803
485,41.2089,0.141267,-2.98172
485.5,41.2607,0.142063,-2.98302
486,41.3102,0.131736,-2.98443
486.5,41.3609,0.128349,-2.98432
487,41.4103,0.129136,-2.98713
487.5,41.4588,0.128368,-2.98873
488,41.5093,0.12418,-2.99005
488.5,41.5581,0.127297,-2.99135
489,41.6082,0.115845,-2.99279
489.5,41.6575,0.120577,-2.99301
490,41.7072,0.120979,-2.99426
490.5,41.7578,0.108942,-2.99724
491,41.8066,0.112559,-2.99921
491.5,41.8565,0.107806,-2.99889
492,41.9049,0.104225,-3.00072
492.5,41.9546,0.103272,-3.00235
493,42.0044,0.102301,-3.00223
493.5,42.0543,0.107651,-3.00368
494,42.1034,0.106739,-3.00487
494.5,42.1517,0.103443,-3.0063
495,42.201,0.098963,-3.00794
495.5,42.2505,0.092137,-3.00928
496,42.302,0.0996524,-3.01058
496.5,42.3517,0.0881651,-3.01061
497,42.4007,0.10086,-3.0117
497.5,42.4506,0.101207,-3.01244
498,42.5001,0.0831992,-3.01322
498.5,42.5497,0.0969247,-3.01324
499,42.5998,0.0931552,-3.01552
499.5,42.6489,0.0848731,-3.01552
500,42.6991,0.091814,-3.01683
500.5,42.7484,0.0900177,-3.01684
501,42.7976,0.0981378,-3.01816
501.5,42.8477,0.096571,-3.01942
502,42.8968,0.0936399,-3.0194
502.5,42.9472,0.0848195,-3.02103
503,42.9969,0.101752,-3.02211
503.5,43.0459,0.0945012,-3.02206
504,43.0945,0.0934208,-3.02345
504.5,43.1455,0.0843896,-3.02473
505,43.1954,0.0892772,-3.02474
505.5,43.2447,0.0886568,-3.02474
506,43.2943,0.0838546,-3.0261
506.5,43.3436,0.0822417,-3.02601
507,43.394,0.0878939,-3.02738
507.5,43.4431,0.0783871,-3.02886
508,43.4924,0.0798807,-3.03001
508.5,43.5421,0.0794975,-3.0287
509,43.5919,0.0875336,-3.02872
509.5,43.6418,0.0868836,-3.03003
510,43.6914,0.0826174,-3.02868
510.5,43.741,0.0790955,-3.03037
511,43.7908,0.094706,-3.03232
511.5,43.8401,0.0798964,-3.03232
512,43.8888,0.0837512,-3.03301
512.5,43.939,0.0842583,-3.03364
513,43.989,0.0777877,-3.03435
513.5,44.0386,0.0821825,-3.03495
514,44.088,0.0797988,-3.03495
514.5,44.1383,0.0810899,-3.03627
515,44.1878,0.0823645,-3.03493
515.5,44.2371,0.0792961,-3.03494
516,44.2868,0.0810495,-3.03759
516.5,44.3345,0.0831674,-3.03886
517,44.3839,0.0778619,-3.03891
517.5,44.4341,0.080468,-3.03946
518,44.4852,0.0846242,-3.04022
518.5,44.5359,0.0866897,-3.04022
519,44.5847,0.084772,-3.04022
519.5,44.6345,0.0874257,-3.0402
520,44.6841,0.0974086,-3.03891
520.5,44.7338,0.0876878,-3.04021
521,44.7845,0.0883159,-3.04022
521.5,44.8344,0.0907068,-3.04148
522,44.8831,0.0864442,-3.04154
522.5,44.9329,0.102142,-3.04155
523,44.982,0.0970211,-3.04284
523.5,45.0324,0.101193,-3.04386
524,45.0827,0.109138,-3.04351
524.5,45.1314,0.105212,-3.04356
525,45.182,0.11191,-3.0445
525.5,45.2309,0.109477,-3.04382
526,45.2806,0.110001,-3.045
526.5,45.3309,0.110479,-3.04549
527,45.3807,0.112504,-3.04549
527.5,45.4305,0.119096,-3.04549
528,45.4791,0.110349,-3.04621
528.5,45.5282,0.121216,-3.04675
529,45.5784,0.110136,-3.0478
529.5,45.6287,0.111288,-3.0478
530,45.6782,0.108902,-3.0478
530.5,45.729,0.117723,-3.04872
531,45.7786,0.107429,-3.04845
531.5,45.8279,0.115376,-3.04977
532,45.8789,0.110471,-3.04977
532.5,45.9269,0.108009,-3.04976
533,45.9756,0.101616,-3.0511
533.5,46.0263,0.110029,-3.05109
534,46.076,0.100483,-3.05109
534.5,46.1239,0.10934,-3.05216
535,46.1778,0.11022,-3.0524
535.5,46.2265,0.105467,-3.0524
536,46.2762,0.10342,-3.05201
536.5,46.3264,0.0991479,-3.05193
537,46.3767,0.101916,-3.05306
537.5,46.4264,0.105197,-3.05306
538,46.4752,0.103484,-3.05305
538.5,46.5258,0.101373,-3.05438
539,46.5753,0.109589,-3.05576
539.5,46.6251,0.106318,-3.0557
540,46.6751,0.111894,-3.05563
540.5,46.7253,0.109735,-3.05439
541,46.7734,0.107416,-3.05576
541.5,46.8251,0.111394,-3.05732
542,46.8748,0.106396,-3.05576
542.5,46.923,0.116189,-3.05493
543,46.9736,0.11763,-3.05581
543.5,47.0251,0.108427,-3.05581
544,47.0748,0.103072,-3.05581
544.5,47.1248,0.104617,-3.05581
545,47.1746,0.107332,-3.0572
545.5,47.2239,0.113639,-3.05785
546,47.2749,0.0960727,-3.05778
546.5,47.3252,0.0937423,-3.05778
547,47.3746,0.0940789,-3.05837
547.5,47.4242,0.103621,-3.0591
548,47.4749,0.0957339,-3.0591
548.5,47.5244,0.0956021,-3.05778
549,47.5744,0.0992301,-3.05912
549.5,47.6246,0.0976308,-3.05911
550,47.6742,0.0929618,-3.05911
550.5,47.724,0.0955041,-3.06025
551,47.7737,0.0834728,-3.06173
551.5,47.8245,0.0872321,-3.06173
552,47.8747,0.0748361,-3.06173
552.5,47.9241,0.0842235,-3.06309
553,47.9757,0.07465,-3.06315
553.5,48.0247,0.0842767,-3.05862
554,48.0741,0.0778347,-3.05901
554.5,48.1245,0.0743772,-3.06291
555,48.1754,0.0671876,-3.06457
555.5,48.2247,0.0674677,-3.0646
556,48.2743,0.0694903,-3.06327
556.5,48.3246,0.0613424,-3.06328
557,48.3743,0.0598263,-3.06328
557.5,48.4244,0.0578189,-3.06311
558,48.4754,0.0567523,-3.06196
558.5,48.5233,0.0726666,-3.06185
559,48.5746,0.0680626,-3.06415
559.5,48.6245,0.0493489,-3.06427
560,48.676,0.0641883,-3.06425
560.5,48.7247,0.0672582,-3.0646
561,48.7733,0.0608406,-3.06306
561.5,48.8259,0.0576989,-3.06459
562,48.8751,0.0577377,-3.06594
562.5,48.9257,0.0493615,-3.06591
563,48.9763,0.0541579,-3.06591
563.5,49.0243,0.0512331,-3.06592
564,49.0754,0.053747,-3.06722
564.5,49.1261,0.0490455,-3.06723
565,49.1758,0.0441357,-3.06713
565.5,49.2265,0.0407125,-3.0669
566,49.2768,0.0440822,-3.0669
566.5,49.3264,0.0487162,-3.0669
567,49.3769,0.0454396,-3.06694
567.5,49.427,0.0428745,-3.06591
568,49.4762,0.0470859,-3.0658
568.5,49.5263,0.0473156,-3.06723
569,49.577,0.042911,-3.06723
569.5,49.6275,0.0436675,-3.06723
570,49.677,0.0413249,-3.06732
570.5,49.7269,0.0438213,-3.06591
571,49.7756,0.0502774,-3.06602
571.5,49.8265,0.0390758,-3.06728
572,49.8775,0.0397294,-3.06854
572.5,49.9265,0.0426381,-3.06854
573,49.9777,0.0290424,-3.06881
573.5,50.0273,0.0399998,-3.0685
574,50.077,0.0421712,-3.06854
574.5,50.1271,0.0396254,-3.06786
575,50.1787,0.0384471,-3.06788
575.5,50.2271,0.041564,-3.06788
576,50.2783,0.0377563,-3.06787
576.5,50.327,0.0349725,-3.0692
577,50.377,0.0392664,-3.0692
577.5,50.4286,0.039515,-3.06854
578,50.4777,0.0371739,-3.06789
578.5,50.5284,0.0449813,-3.06803
579,50.5784,0.0374477,-3.0692
579.5,50.6276,0.0399384,-3.0692
580,50.6782,0.0441168,-3.06983
580.5,50.7284,0.0464025,-3.07052
581,50.7785,0.0432839,-3.07052
581.5,50.8284,0.0423867,-3.07052
582,50.8791,0.0390249,-3.07052
582.5,50.9289,0.0521677,-3.07085
583,50.9801,0.0583961,-3.06987
583.5,51.0296,0.0573479,-3.06987
584,51.0795,0.0584317,-3.07086
584.5,51.1301,0.0740236,-3.07217
585,51.1798,0.0692209,-3.07131
585.5,51.2307,0.0645889,-3.07217
586,51.2796,0.0691074,-3.07217
586.5,51.3307,0.078164,-3.07174
587,51.3802,0.0739626,-3.07085
587.5,51.4306,0.0767954,-3.07198
588,51.4815,0.0761346,-3.07217
588.5,51.5307,0.0770316,-3.07217
589,51.5815,0.0774654,-3.07217
589.5,51.6321,0.078762,-3.07217
590,51.6832,0.0802611,-3.07079
590.5,51.7325,0.0675792,-3.07085
591,51.7825,0.0756471,-3.07085
591.5,51.833,0.0796174,-3.07222
592,51.883,0.0728153,-3.07218
592.5,51.9316,0.0772721,-3.07286
593,51.9845,0.0739655,-3.07381
593.5,52.0347,0.0833434,-3.07382
594,52.0848,0.0677467,-3.07382
594.5,52.1346,0.0756692,-3.07382
595,52.1855,0.0820796,-3.07382
595.5,52.2348,0.0835735,-3.07392
596,52.2858,0.078822,-3.07514
596.5,52.3355,0.0862841,-3.07306
597,52.3865,0.0855149,-3.07317
597.5,52.4359,0.0902138,-3.07447
598,52.4872,0.089495,-3.07448
598.5,52.5373,0.097899,-3.07448
599,52.5874,0.089867,-3.07375
599.5,52.6378,0.0925463,-3.07382
600,52.6881,0.0974308,-3.07382
600.5,52.7387,0.0888722,-3.07382
601,52.788,0.0916862,-3.07352
601.5,52.838,0.0888542,-3.07316
602,52.8892,0.0781934,-3.07316
602.5,52.939,0.0815065,-3.07447
603,52.9887,0.0713969,-3.07447
603.5,53.0395,0.082316,-3.07469
604,53.0895,0.078865,-3.07579
604.5,53.1404,0.0797252,-3.07687
605,53.1901,0.0774193,-3.07548
605.5,53.2407,0.0789281,-3.07477
606,53.2916,0.0816336,-3.0748
606.5,53.3413,0.0719492,-3.0748
607,53.3883,0.0728505,-3.0748
607.5,53.441,0.0707135,-3.0748
608,53.4906,0.0688935,-3.0748
608.5,53.5411,0.0682451,-3.0748
609,53.5905,0.0765501,-3.0761
609.5,53.6415,0.065912,-3.07576
610,53.6912,0.0629321,-3.0765
610.5,53.7407,0.0689385,-3.07645
611,53.7918,0.067905,-3.07566
611.5,53.8421,0.0696166,-3.07645
612,53.893,0.0701125,-3.07645
612.5,53.942,0.0779066,-3.07711
613,53.9929,0.0667222,-3.0771
613.5,54.043,0.0684178,-3.0771
614,54.0935,0.0711122,-3.0771
614.5,54.144,0.0639148,-3.0771
615,54.1932,0.0733479,-3.0771
615.5,54.2442,0.0673802,-3.0771
616,54.2947,0.065651,-3.07593
616.5,54.3441,0.069511,-3.0771
617,54.3943,0.0754037,-3.07711
617.5,54.4442,0.0746142,-3.07711
618,54.4941,0.0757267,-3.07711
618.5,54.5451,0.0665902,-3.07711
619,54.5951,0.0684352,-3.07711
619.5,54.6455,0.0690479,-3.07843
620,54.6954,0.0616518,-3.07977
620.5,54.7463,0.0579143,-3.07974
621,54.7965,0.0572841,-3.07974
621.5,54.8475,0.0598092,-3.07975
622,54.8974,0.0636911,-3.0784
622.5,54.9472,0.0531354,-3.07975
623,54.9976,0.0612208,-3.07975
623.5,55.0479,0.057213,-3.07941
624,55.0971,0.0654014,-3.07711
624.5,55.1487,0.0524866,-3.07849
625,55.1983,0.0562454,-3.07843
625.5,55.2486,0.0579062,-3.07843
626,55.2981,0.0560228,-3.07909
626.5,55.3492,0.0622844,-3.07843
627,55.4016,0.0550752,-3.07843
627.5,55.4497,0.0533777,-3.07843
628,55.5003,0.0628631,-3.07843
628.5,55.5507,0.0527538,-3.07843
629,55.6014,0.0511608,-3.07843
629.5,55.6512,0.0540239,-3.07979
630,55.7023,0.0552739,-3.07974
630.5,55.7518,0.0564393,-3.07974
631,55.8022,0.0534958,-3.07974
631.5,55.8526,0.0476748,-3.07975
632,55.9044,0.0500009,-3.07998
632.5,55.954,0.0542519,-3.07974
633,56.0043,0.056153,-3.07974
633.5,56.0551,0.0450811,-3.07974
634,56.1042,0.059658,-3.07974
634.5,56.1559,0.0489228,-3.07974
635,56.2057,0.0487851,-3.07973
635.5,56.2549,0.049951,-3.08073
636,56.3064,0.0532145,-3.08108
636.5,56.3571,0.0537344,-3.08106
637,56.4077,0.0532519,-3.08104
637.5,56.4575,0.0559359,-3.0807
638,56.509,0.0514227,-3.08073
638.5,56.5579,0.0456405,-3.08073
639,56.609,0.0465761,-3.08073
639.5,56.6592,0.0487367,-3.08204
640,56.7104,0.0486074,-3.08205
640.5,56.7612,0.0485336,-3.08138
641,56.8107,0.0404394,-3.08073
641.5,56.8606,0.0454404,-3.08073
642,56.9119,0.0433069,-3.07942
642.5,56.9602,0.0473092,-3.07943
643,57.0125,0.0419638,-3.08073
643.5,57.0627,0.0389532,-3.08074
644,57.1135,0.0418695,-3.08061
644.5,57.1637,0.0315518,-3.08008
645,57.2147,0.0297399,-3.08137
645.5,57.2654,0.0355342,-3.08271
646,57.3157,0.034599,-3.0827
646.5,57.3663,0.0313881,-3.0827
647,57.4148,0.0278226,-3.08272
647.5,57.4673,0.0291385,-3.08402
648,57.5176,0.0134591,-3.08334
648.5,57.5686,0.0170523,-3.08336
649,57.6187,0.0212532,-3.08336
649.5,57.669,0.0225976,-3.08272
650,57.7169,0.0238108,-3.08272
650.5,57.7701,0.0190806,-3.08139
651,57.8217,0.0167416,-3.08139
651.5,57.8706,0.0173045,-3.08277
652,57.9237,0.00297985,-3.08336
652.5,57.972,0.00997215,-3.08288
653,58.0226,0.0110595,-3.08271
653.5,58.074,0.0172354,-3.08271
654,58.1247,0.00678226,-3.08271
654.5,58.1747,0.0084947,-3.08407
655,58.2257,0.00472411,-3.08446
655.5,58.2765,0.00601838,-3.08535
656,58.3262,-0.000477201,-3.08535
656.5,58.3762,0.000722665,-3.08398
657,58.4274,0.00265871,-3.08276
657.5,58.4777,-0.000740017,-3.08271
658,58.5277,-0.00154888,-3.08273
658.5,58.5781,-0.00696327,-3.08338
659,58.6292,-0.00560322,-3.08468
659.5,58.6799,-0.00992914,-3.08468
660,58.73,-0.0120183,-3.08468
660.5,58.781,-0.0107765,-3.08468
661,58.8309,-0.0115729,-3.08468
661.5,58.882,-0.0158677,-3.08461
662,58.9304,-0.0113612,-3.08567
662.5,58.9833,-0.02239,-3.08634
663,59.0337,-0.0293081,-3.08633
663.5,59.0841,-0.0309848,-3.08633
664,59.1348,-0.0227681,-3.08539
664.5,59.1857,-0.0274189,-3.08501
665,59.2362,-0.0238233,-3.0846
665.5,59.2864,-0.0321627,-3.08402
666,59.3362,-0.0339276,-3.08403
666.5,59.3865,-0.0354026,-3.08435
667,59.4369,-0.0438118,-3.08435
667.5,59.4858,-0.0396403,-3.08566
668,59.5387,-0.0412397,-3.08666
668.5,59.5887,-0.0440978,-3.08665
669,59.6395,-0.0491924,-3.08534
669.5,59.6893,-0.0462204,-3.08534
670,59.7394,-0.0573119,-3.08534
670.5,59.7903,-0.0484699,-3.08558
671,59.8418,-0.0610051,-3.08436
671.5,59.8924,-0.0600008,-3.08436
672,59.9418,-0.0550524,-3.08436
672.5,59.9926,-0.073827,-3.08576
673,60.0429,-0.0802854,-3.08568
673.5,60.0917,-0.0693997,-3.08568
674,60.1443,-0.0745908,-3.08568
674.5,60.1947,-0.0829495,-3.08568
675,60.2458,-0.0800539,-3.08716
675.5,60.2961,-0.0856125,-3.08934
676,60.3464,-0.0775493,-3.08742
676.5,60.3979,-0.0824161,-3.08677
677,60.4488,-0.0911882,-3.08808
677.5,60.4996,-0.102176,-3.08776
678,60.5499,-0.0983141,-3.08951
678.5,60.6005,-0.0924905,-3.08811
679,60.6505,-0.0944933,-3.08663
679.5,60.7011,-0.090681,-3.08681
680,60.7498,-0.0958699,-3.08677
680.5,60.8025,-0.100478,-3.08677
681,60.8528,-0.0984726,-3.08677
681.5,60.9039,-0.101484,-3.08677
682,60.9535,-0.106878,-3.08677
682.5,61.0041,-0.106406,-3.08677
683,61.0546,-0.111246,-3.08677
683.5,61.1049,-0.117917,-3.08546
684,61.1546,-0.11246,-3.08685
684.5,61.2065,-0.118894,-3.08675
685,61.2569,-0.110697,-3.08915
685.5,61.3093,-0.119795,-3.09129
686,61.3584,-0.120312,-3.08892
686.5,61.4076,-0.12144,-3.08798
687,61.4582,-0.125784,-3.08699
687.5,61.5113,-0.137522,-3.08666
688,61.5615,-0.129253,-3.08666
688.5,61.6125,-0.129399,-3.08665
689,61.6625,-0.138505,-3.08668
689.5,61.7127,-0.135797,-3.08666
690,61.7625,-0.140413,-3.08666
690.5,61.8143,-0.156393,-3.08801
691,61.8648,-0.147917,-3.08667
691.5,61.9163,-0.148255,-3.08691
692,61.9665,-0.154246,-3.08694
692.5,62.0175,-0.157431,-3.08863
693,62.0682,-0.1575,-3.08863
693.5,62.1183,-0.167167,-3.08863
694,62.1687,-0.160215,-3.08864
694.5,62.2196,-0.164697,-3.08918
695,62.2696,-0.156542,-3.08798
695.5,62.3205,-0.164682,-3.08937
696,62.3708,-0.171133,-3.08929
696.5,62.4222,-0.176511,-3.08826
697,62.4724,-0.177456,-3.08798
697.5,62.5232,-0.17787,-3.08667
698,62.574,-0.178341,-3.08704
698.5,62.6249,-0.188185,-3.08742
699,62.6737,-0.184082,-3.08865
699.5,62.7238,-0.186853,-3.08996
700,62.7749,-0.190432,-3.08996
700.5,62.826,-0.18465,-3.08996
701,62.8778,-0.190896,-3.08996
701.5,62.9276,-0.185645,-3.08996
702,62.9795,-0.19048,-3.08996
702.5,63.0305,-0.191138,-3.08996
703,63.0807,-0.188168,-3.08996
703.5,63.131,-0.197053,-3.08997
704,63.1816,-0.20441,-3.08867
704.5,63.2325,-0.204312,-3.08995
705,63.2834,-0.204557,-3.09127
705.5,63.3334,-0.209074,-3.08998
706,63.3846,-0.211714,-3.08864
706.5,63.4354,-0.205191,-3.0893
707,63.4856,-0.201969,-3.08995
707.5,63.5371,-0.211001,-3.08995
708,63.5868,-0.199225,-3.09114
708.5,63.6367,-0.203219,-3.09125
709,63.6877,-0.210784,-3.08864
709.5,63.7386,-0.208268,-3.08897
710,63.7903,-0.218976,-3.08995
710.5,63.8401,-0.206916,-3.08995
711,63.8908,-0.214258,-3.08995
711.5,63.9413,-0.218051,-3.08993
712,63.9922,-0.225965,-3.08895
712.5,64.0427,-0.222987,-3.08896
713,64.0929,-0.227951,-3.08896
713.5,64.1438,-0.221633,-3.08896
714,64.1952,-0.227003,-3.08896
714.5,64.2454,-0.222333,-3.08898
715,64.2937,-0.227911,-3.09028
715.5,64.3452,-0.22475,-3.08917
716,64.3973,-0.227306,-3.08995
716.5,64.4477,-0.23293,-3.08995
717,64.4994,-0.231403,-3.0913
717.5,64.5497,-0.231861,-3.08992
718,64.6007,-0.235109,-3.08996
718.5,64.6514,-0.228499,-3.08996
719,64.7015,-0.230603,-3.08996
719.5,64.7526,-0.231011,-3.08996
720,64.8042,-0.223815,-3.08995
720.5,64.8544,-0.23545,-3.08864
721,64.9053,-0.232482,-3.0897
721.5,64.9569,-0.239731,-3.09127
722,65.0071,-0.23228,-3.09127
722.5,65.0582,-0.244575,-3.09127
723,65.1099,-0.249786,-3.09127
723.5,65.1605,-0.24142,-3.09009
724,65.2111,-0.241019,-3.09007
724.5,65.2623,-0.243341,-3.09127
725,65.3131,-0.248856,-3.09128
725.5,65.3644,-0.242402,-3.08995
726,65.4127,-0.247883,-3.08995
726.5,65.4659,-0.245591,-3.09132
727,65.5164,-0.247741,-3.09127
727.5,65.5674,-0.255333,-3.09127
728,65.618,-0.247297,-3.0926
728.5,65.669,-0.254484,-3.09259
729,65.7205,-0.245555,-3.09259
729.5,65.7707,-0.262823,-3.09259
730,65.8218,-0.255835,-3.09258
730.5,65.8724,-0.243566,-3.09391
731,65.9235,-0.246415,-3.09392
731.5,65.9749,-0.250807,-3.09258
732,66.026,-0.247986,-3.09259
732.5,66.0748,-0.252574,-3.09263
733,66.1245,-0.245967,-3.09127
733.5,66.1776,-0.254618,-3.0926
734,66.2271,-0.243631,-3.09261
734.5,66.2786,-0.247542,-3.09127
735,66.3288,-0.245802,-3.09127
735.5,66.3798,-0.24818,-3.09127
736,66.4313,-0.261293,-3.09128
736.5,66.4822,-0.256693,-3.09258
737,66.5345,-0.254799,-3.09148
737.5,66.5849,-0.247603,-3.09127
738,66.636,-0.249124,-3.09263
738.5,66.6865,-0.256014,-3.09258
739,66.7375,-0.250658,-3.09258
739.5,66.789,-0.249724,-3.09252
740,66.8408,-0.25097,-3.09261
740.5,66.8909,-0.250023,-3.09259
741,66.9407,-0.245628,-3.09182
741.5,66.9913,-0.250821,-3.0916
742,67.043,-0.252589,-3.09262
742.5,67.0954,-0.256052,-3.09292
743,67.1461,-0.262905,-3.09292
743.5,67.1973,-0.245639,-3.09292
744,67.2494,-0.257573,-3.09292
744.5,67.3002,-0.256745,-3.09325
745,67.3511,-0.253886,-3.09325
745.5,67.401,-0.255085,-3.09325
746,67.4525,-0.25179,-3.09192
746.5,67.5044,-0.261678,-3.09191
747,67.555,-0.261429,-3.09292
747.5,67.6069,-0.266275,-3.0935
748,67.6579,-0.260744,-3.09358
748.5,67.7089,-0.257948,-3.09358
749,67.7592,-0.258059,-3.09358
749.5,67.8109,-0.257579,-3.09358
750,67.8618,-0.260519,-3.09378
750.5,67.9128,-0.253162,-3.09424
751,67.9637,-0.255733,-3.09424
751.5,68.0149,-0.252511,-3.09424
752,68.0659,-0.261337,-3.09488
752.5,68.1174,-0.25088,-3.09578
753,68.1682,-0.237553,-3.09621
753.5,68.2188,-0.252219,-3.09621
754,68.2702,-0.251549,-3.09621
754.5,68.3212,-0.256324,-3.09456
755,68.3712,-0.256607,-3.09456
755.5,68.4231,-0.256692,-3.09456
756,68.4742,-0.252793,-3.09456
756.5,68.5245,-0.24974,-3.09456
757,68.577,-0.259815,-3.09483
757.5,68.6279,-0.254433,-3.09522
758,68.6785,-0.255205,-3.09524
758.5,68.7298,-0.25079,-3.09623
759,68.7804,-0.254842,-3.09684
759.5,68.8324,-0.255347,-3.09818
760,68.881,-0.253865,-3.09687
760.5,68.9341,-0.250792,-3.09687
761,68.9841,-0.256084,-3.09687
761.5,69.0355,-0.2539,-3.09558
762,69.0866,-0.246759,-3.09555
762.5,69.1368,-0.247654,-3.09555
763,69.1879,-0.250457,-3.09555
763.5,69.2407,-0.2439,-3.09555
764,69.2916,-0.240935,-3.09555
764.5,69.343,-0.242427,-3.09688
765,69.3945,-0.234246,-3.09687
765.5,69.4452,-0.242896,-3.09686
766,69.4962,-0.238457,-3.09807
766.5,69.5471,-0.242922,-3.09687
767,69.5962,-0.237626,-3.09687
767.5,69.6494,-0.235407,-3.09687
768,69.701,-0.24214,-3.09687
768.5,69.7522,-0.239602,-3.09687
769,69.8027,-0.226063,-3.09687
769.5,69.8538,-0.23313,-3.09687
770,69.9048,-0.232267,-3.0964
770.5,69.9555,-0.228734,-3.09555
771,70.0062,-0.231394,-3.09555
771.5,70.0576,-0.233179,-3.09554
772,70.1083,-0.232785,-3.09687
772.5,70.1589,-0.219234,-3.09641
773,70.2103,-0.224158,-3.09619
773.5,70.2618,-0.219134,-3.0972
774,70.3125,-0.219991,-3.09787
774.5,70.3616,-0.218464,-3.09664
775,70.4107,-0.223988,-3.0972
775.5,70.4647,-0.222592,-3.09856
776,70.5162,-0.221313,-3.09852
776.5,70.5666,-0.214925,-3.09959
777,70.6174,-0.213908,-3.10046
777.5,70.6683,-0.217233,-3.10056
778,70.72,-0.214869,-3.09918
778.5,70.7694,-0.221355,-3.09918
779,70.8212,-0.233673,-3.09918
779.5,70.8724,-0.217011,-3.09786
780,70.924,-0.224631,-3.09787
780.5,70.9752,-0.218374,-3.09687
781,71.0256,-0.214484,-3.09687
781.5,71.076,-0.222697,-3.09687
782,71.128,-0.221904,-3.09551
782.5,71.1786,-0.216252,-3.09805
783,71.2292,-0.21064,-3.09818
783.5,71.2806,-0.215692,-3.09818
784,71.3308,-0.221205,-3.09818
784.5,71.3822,-0.20995,-3.09824
785,71.4319,-0.214794,-3.09752
785.5,71.4851,-0.216898,-3.09752
786,71.5357,-0.208103,-3.09752
786.5,71.5873,-0.213954,-3.09885
787,71.638,-0.204199,-3.09884
787.5,71.6897,-0.207083,-3.09884
788,71.7416,-0.209624,-3.10016
788.5,71.7923,-0.207138,-3.10016
789,71.8436,-0.205506,-3.10016
789.5,71.8951,-0.20951,-3.09879
790,71.9461,-0.218404,-3.09885