File: 01_Data/Helmet_Shield/STA/N2/30K_min/Helmet_Shield_STA_N2_30KData_240301_R1.csv
Temp./C,Time/min,DSC/(mW/mg),Mass loss/mg
60.0,0.0,1.55879,-0.0108621
60.5,0.0271275,1.60743,-0.0110229
61,0.05203,1.65838,-0.0103075
61.5,0.0764979,1.70536,-0.0100471
62,0.100471,1.75317,-0.0107402
62.5,0.124912,1.79215,-0.0108409
63,0.147718,1.83998,-0.0106367
63.5,0.171399,1.88402,-0.00966892
64,0.194533,1.92712,-0.00918309
64.5,0.216922,1.96795,-0.00904897
65,0.23887,1.99972,-0.0104244
65.5,0.260256,2.0447,-0.0122998
66,0.282234,2.07892,-0.0128169
66.5,0.304062,2.11076,-0.0121367
67,0.324756,2.15431,-0.0115934
67.5,0.345999,2.18789,-0.0104877
68,0.366612,2.22459,-0.00990907
68.5,0.387164,2.2473,-0.00973111
69,0.407881,2.28829,-0.00922151
69.5,0.427955,2.31915,-0.00910095
70,0.448204,2.34362,-0.00939064
70.5,0.467623,2.37707,-0.00930775
71,0.487796,2.40724,-0.00913466
71.5,0.507472,2.42225,-0.0093771
72,0.527005,2.44821,-0.00886213
72.5,0.546396,2.48091,-0.00871687
73,0.565859,2.49161,-0.00876029
73.5,0.585294,2.5302,-0.00941996
74,0.603248,2.55029,-0.0091492
74.5,0.621856,2.57471,-0.00959083
75,0.640996,2.60079,-0.0108649
75.5,0.660758,2.6301,-0.00984593
76,0.679338,2.64591,-0.0108343
76.5,0.697758,2.66971,-0.0108421
77,0.716841,2.68773,-0.00980709
77.5,0.73539,2.70914,-0.0101166
78,0.753722,2.73009,-0.00941545
78.5,0.772106,2.75255,-0.010498
79,0.790163,2.76842,-0.0102422
79.5,0.808627,2.78705,-0.00915822
80,0.825814,2.80691,-0.00926141
80.5,0.844708,2.81837,-0.00959992
81,0.862715,2.85083,-0.00961182
81.5,0.88033,2.85839,-0.0101723
82,0.898374,2.87607,-0.00956463
82.5,0.916623,2.89588,-0.00923304
83,0.933808,2.91104,-0.009467
83.5,0.951654,2.92576,-0.0091396
84,0.969499,2.93797,-0.00836673
84.5,0.987354,2.95659,-0.00850967
85,1.00502,2.97352,-0.00875667
85.5,1.02213,2.99294,-0.00812225
86,1.0401,3.0052,-0.00902568
86.5,1.0575,3.02174,-0.00740581
87,1.07452,3.04337,-0.00788822
87.5,1.09182,3.04669,-0.00855607
88,1.10975,3.06339,-0.00796669
88.5,1.12686,3.06766,-0.00888817
89,1.14378,3.07993,-0.00953863
89.5,1.16127,3.10152,-0.00983345
90,1.17812,3.10462,-0.00889228
90.5,1.19572,3.11869,-0.0089017
91,1.2127,3.13401,-0.0101239
91.5,1.23001,3.14787,-0.00954861
92,1.24735,3.15678,-0.00911234
92.5,1.26443,3.15781,-0.0103115
93,1.28092,3.1707,-0.010309
93.5,1.29821,3.18764,-0.0102549
94,1.31522,3.19186,-0.0113638
94.5,1.33249,3.19213,-0.0116295
95,1.349,3.21108,-0.0115927
95.5,1.36614,3.20961,-0.0123482
96,1.38281,3.22805,-0.01297
96.5,1.39982,3.23622,-0.0129492
97,1.41669,3.24611,-0.0129321
97.5,1.43357,3.25099,-0.0124146
98,1.4499,3.2594,-0.0130276
98.5,1.46676,3.2631,-0.0129606
99,1.48387,3.27425,-0.0128982
99.5,1.49992,3.27126,-0.0142023
100,1.51737,3.2804,-0.0138876
100.5,1.53391,3.28276,-0.0128357
101,1.55031,3.29224,-0.0141993
101.5,1.56736,3.29635,-0.0142691
102,1.58379,3.30993,-0.0142527
102.5,1.59981,3.31546,-0.0141042
103,1.61696,3.31935,-0.0129181
103.5,1.63391,3.32593,-0.0138065
104,1.65064,3.33963,-0.0143135
104.5,1.66721,3.34831,-0.0135667
105,1.6842,3.34514,-0.0129208
105.5,1.70061,3.34161,-0.0128542
106,1.71706,3.35683,-0.0140598
106.5,1.73339,3.35724,-0.0142714
107,1.7494,3.36245,-0.0142694
107.5,1.76616,3.37364,-0.0142718
108,1.78317,3.3719,-0.0132462
108.5,1.80031,3.3782,-0.0129765
109,1.81659,3.38587,-0.0130238
109.5,1.83306,3.39427,-0.0129401
110,1.84974,3.40073,-0.0129405
110.5,1.86656,3.3967,-0.0129662
111,1.88261,3.41092,-0.0123117
111.5,1.89965,3.41147,-0.0129617
112,1.91589,3.41565,-0.0129497
112.5,1.93255,3.42312,-0.0129499
113,1.94901,3.42803,-0.0129502
113.5,1.96567,3.42607,-0.012949
114,1.98219,3.42963,-0.0129246
114.5,1.99845,3.43648,-0.0128178
115,2.01493,3.4383,-0.0118744
115.5,2.03156,3.43796,-0.013035
116,2.04835,3.44736,-0.0129545
116.5,2.06387,3.44718,-0.0129494
117,2.08089,3.44986,-0.0129498
117.5,2.0971,3.44967,-0.01295
118,2.11404,3.456,-0.0129505
118.5,2.13042,3.46311,-0.0129558
119,2.14711,3.46216,-0.0125832
119.5,2.16349,3.46519,-0.0115995
120,2.17999,3.47155,-0.0118868
120.5,2.19638,3.47586,-0.0129486
121,2.21277,3.48186,-0.0129507
121.5,2.22927,3.47955,-0.0129558
122,2.24537,3.48728,-0.0129287
122.5,2.26196,3.48538,-0.0139988
123,2.27831,3.49078,-0.0142603
123.5,2.29478,3.50182,-0.0142715
124,2.31093,3.50069,-0.0142703
124.5,2.32752,3.49571,-0.01427
125,2.34381,3.50455,-0.0142711
125.5,2.36023,3.50123,-0.01428
126,2.37634,3.4988,-0.0142521
126.5,2.39274,3.50362,-0.0151645
127,2.40934,3.51199,-0.0152465
127.5,2.42536,3.50904,-0.0152504
128,2.44157,3.52605,-0.015251
128.5,2.45788,3.51819,-0.015253
129,2.47425,3.52911,-0.015206
129.5,2.49042,3.53409,-0.0162167
130,2.50724,3.52975,-0.0165656
130.5,2.52296,3.53769,-0.0165728
131,2.53909,3.53321,-0.0165703
131.5,2.55554,3.53633,-0.0165699
132,2.57161,3.54672,-0.016568
132.5,2.58717,3.54889,-0.0165674
133,2.60368,3.54286,-0.0155007
133.5,2.6199,3.54513,-0.015275
134,2.63562,3.55003,-0.0152486
134.5,2.65214,3.55812,-0.0152496
135,2.66829,3.56345,-0.01525
135.5,2.68432,3.56593,-0.01525
136,2.69983,3.56822,-0.01525
136.5,2.71592,3.57012,-0.01525
137,2.73195,3.57671,-0.01525
137.5,2.74905,3.57468,-0.01525
138,2.76495,3.58059,-0.0152498
138.5,2.78055,3.58691,-0.0152479
139,2.79699,3.58548,-0.015251
139.5,2.81305,3.57952,-0.0154499
140,2.8286,3.59436,-0.015581
140.5,2.84424,3.59182,-0.0155105
141,2.86062,3.60255,-0.0169307
141.5,2.87708,3.60393,-0.0172255
142,2.89281,3.5952,-0.0171982
142.5,2.90921,3.60804,-0.0175867
143,2.92506,3.6163,-0.0175562
143.5,2.94077,3.62127,-0.0175593
144,2.95694,3.61435,-0.01756
144.5,2.97253,3.62174,-0.01756
145,2.98868,3.62674,-0.01756
145.5,3.00468,3.62006,-0.0175599
146,3.02037,3.62754,-0.0175582
146.5,3.03614,3.62705,-0.0175626
147,3.05214,3.63185,-0.016645
147.5,3.06828,3.63259,-0.0162582
148,3.084,3.64699,-0.0162376
148.5,3.09982,3.63806,-0.0162482
149,3.11568,3.65087,-0.016204
149.5,3.13131,3.65613,-0.0172727
150,3.14722,3.65103,-0.0175582
150.5,3.16289,3.64995,-0.0175626
151,3.17913,3.66026,-0.0175574
151.5,3.19485,3.662,-0.0175713
152,3.21035,3.66918,-0.0163549
152.5,3.2265,3.65891,-0.0149308
153,3.2423,3.66256,-0.014928
153.5,3.25793,3.66235,-0.0149301
154,3.27374,3.66642,-0.014926
154.5,3.28947,3.66863,-0.014898
155,3.30541,3.67421,-0.0154769
155.5,3.32082,3.68004,-0.016308
156,3.33705,3.67802,-0.0162512
156.5,3.35252,3.68721,-0.016184
157,3.3683,3.69356,-0.0170009
157.5,3.38429,3.69104,-0.0172483
158,3.39975,3.68734,-0.0172412
158.5,3.41574,3.69072,-0.0172399
159,3.43097,3.69317,-0.01724
159.5,3.44726,3.7019,-0.01724
160,3.46262,3.70259,-0.01724
160.5,3.47833,3.70565,-0.01724
161,3.49414,3.71176,-0.0172402
161.5,3.51016,3.70927,-0.0172424
162,3.52559,3.71177,-0.017233
162.5,3.54138,3.71864,-0.0170039
163,3.55676,3.72268,-0.0159181
163.5,3.57262,3.72422,-0.0159306
164,3.58817,3.72723,-0.0159205
164.5,3.60398,3.72576,-0.0159211
165,3.61978,3.74063,-0.0159406
165.5,3.63544,3.742,-0.0171531
166,3.65106,3.7417,-0.0172125
166.5,3.66647,3.74003,-0.0172403
167,3.68238,3.74635,-0.0172405
167.5,3.69799,3.75034,-0.01724
168,3.7137,3.75915,-0.01724
168.5,3.72931,3.75582,-0.01724
169,3.74478,3.76093,-0.01724
169.5,3.76027,3.76576,-0.01724
170,3.77586,3.77427,-0.01724
170.5,3.79181,3.76862,-0.01724
171,3.80729,3.78646,-0.01724
171.5,3.82287,3.77872,-0.01724
172,3.8387,3.78376,-0.01724
172.5,3.85407,3.79192,-0.01724
173,3.8699,3.79505,-0.01724
173.5,3.88534,3.80506,-0.01724
174,3.90017,3.80684,-0.01724
174.5,3.91669,3.81318,-0.0172398
175,3.93203,3.81066,-0.0172379
175.5,3.94788,3.81332,-0.0172355
176,3.96332,3.81798,-0.0175335
176.5,3.97865,3.81793,-0.0193165
177,3.99381,3.82869,-0.0191929
177.5,4.0093,3.83256,-0.0192078
178,4.02487,3.84379,-0.0192102
178.5,4.04035,3.85042,-0.01921
179,4.05563,3.84307,-0.01921
179.5,4.0717,3.8432,-0.01921
180,4.0875,3.84986,-0.01921
180.5,4.10299,3.85638,-0.01921
181,4.11862,3.85655,-0.01921
181.5,4.13384,3.86227,-0.01921
182,4.14959,3.87057,-0.01921
182.5,4.1648,3.87279,-0.01921
183,4.18064,3.87301,-0.01921
183.5,4.19608,3.88083,-0.01921
184,4.21133,3.87965,-0.01921
184.5,4.22669,3.88048,-0.01921
185,4.24227,3.89535,-0.0192101
185.5,4.25794,3.90552,-0.0192103
186,4.27318,3.8999,-0.0192048
186.5,4.28842,3.90307,-0.019185
187,4.30368,3.91848,-0.0196899
187.5,4.31893,3.92021,-0.0198543
188,4.33479,3.93337,-0.019872
188.5,4.34984,3.93569,-0.0198704
189,4.36536,3.93663,-0.01987
189.5,4.38059,3.94401,-0.0198701
190,4.39607,3.95915,-0.0198693
190.5,4.41154,3.95271,-0.0198625
191,4.42682,3.95897,-0.0198992
191.5,4.44179,3.95883,-0.0189313
192,4.45747,3.97116,-0.0199292
192.5,4.47234,3.97355,-0.020204
193,4.48821,3.98193,-0.0202003
193.5,4.50338,3.97494,-0.0202
194,4.5185,3.98554,-0.0202
194.5,4.53454,3.99282,-0.0201996
195,4.54963,4.00679,-0.020196
195.5,4.56486,4.01255,-0.0203993
196,4.58012,4.01299,-0.0216184
196.5,4.59564,4.01361,-0.021515
197,4.61055,4.02161,-0.0215179
197.5,4.6259,4.03696,-0.021521
198,4.64126,4.03494,-0.0215292
198.5,4.65642,4.03713,-0.0214689
199,4.67175,4.03935,-0.0224717
199.5,4.6871,4.04983,-0.0228434
200,4.70266,4.05624,-0.0228336
200.5,4.71757,4.05401,-0.0228298
201,4.73282,4.06582,-0.0228283
201.5,4.74819,4.0718,-0.0228306
202,4.76344,4.0734,-0.0229216
202.5,4.7786,4.07492,-0.0218372
203,4.7939,4.07206,-0.0214263
203.5,4.80907,4.0803,-0.0226696
204,4.82458,4.09031,-0.0228434
204.5,4.83984,4.09164,-0.0228406
205,4.8549,4.09601,-0.0228387
205.5,4.87017,4.10262,-0.0228355
206,4.88555,4.10453,-0.0230087
206.5,4.90045,4.10816,-0.0238438
207,4.91551,4.11235,-0.0243731
207.5,4.93106,4.11749,-0.0251924
208,4.94645,4.11215,-0.0251396
208.5,4.96152,4.11748,-0.025139
209,4.97675,4.12525,-0.02514
209.5,4.99209,4.12319,-0.02514
210,5.00712,4.13377,-0.02514
210.5,5.0226,4.13992,-0.02514
211,5.03755,4.14134,-0.0251399
211.5,5.05285,4.1508,-0.0251417
212,5.06811,4.15102,-0.0251469
212.5,5.08333,4.14799,-0.0250564
213,5.09854,4.1486,-0.0262796
213.5,5.11355,4.1564,-0.0261003
214,5.12888,4.15236,-0.02526
214.5,5.14389,4.15795,-0.0251546
215,5.15897,4.15823,-0.0263896
215.5,5.17384,4.16052,-0.0265747
216,5.18943,4.1598,-0.0265693
216.5,5.20419,4.16733,-0.0265946
217,5.22016,4.17077,-0.0266648
217.5,5.23499,4.16954,-0.0278533
218,5.25016,4.17272,-0.0278816
218.5,5.26564,4.17305,-0.0281427
219,5.2804,4.17454,-0.0292867
219.5,5.29551,4.17716,-0.0291945
220,5.31051,4.18062,-0.0291952
220.5,5.326,4.18572,-0.0292048
221,5.34126,4.17678,-0.0294338
221.5,5.35624,4.18129,-0.030506
222,5.37138,4.18548,-0.0305308
222.5,5.3866,4.1875,-0.0305149
223,5.40175,4.18501,-0.0317803
223.5,5.41688,4.19136,-0.0318399
224,5.43201,4.19652,-0.0318296
224.5,5.4476,4.20015,-0.0322494
225,5.46221,4.2029,-0.0332263
225.5,5.47767,4.19961,-0.0331535
226,5.49269,4.20131,-0.0334977
226.5,5.50772,4.1986,-0.0344974
227,5.52299,4.19733,-0.0344097
227.5,5.53827,4.20373,-0.0352733
228,5.55308,4.21214,-0.0359584
228.5,5.56813,4.21267,-0.0359564
229,5.58337,4.21528,-0.0371424
229.5,5.59834,4.21782,-0.0373169
230,5.61379,4.20821,-0.0373577
230.5,5.62873,4.21948,-0.0374843
231,5.64371,4.2239,-0.0386175
231.5,5.65887,4.22438,-0.0390433
232,5.67352,4.22758,-0.0404096
232.5,5.68887,4.22365,-0.0414334
233,5.70454,4.22618,-0.0413936
233.5,5.7196,4.23527,-0.0416173
234,5.73482,4.23961,-0.0426945
234.5,5.74969,4.24377,-0.042696
235,5.76492,4.2427,-0.0424719
235.5,5.77978,4.24091,-0.0431081
236,5.79508,4.23972,-0.0429856
236.5,5.81,4.24676,-0.0439556
237,5.82526,4.24623,-0.0443801
237.5,5.83955,4.25266,-0.0445859
238,5.85513,4.25184,-0.0457392
238.5,5.87002,4.25926,-0.0457325
239,5.88568,4.26074,-0.0463394
239.5,5.90119,4.26504,-0.0472794
240,5.91606,4.26845,-0.0471825
240.5,5.93122,4.2721,-0.048314
241,5.94625,4.28064,-0.0487493
241.5,5.96134,4.29038,-0.048975
242,5.97628,4.28509,-0.0501468
242.5,5.99144,4.28706,-0.0503615
243,6.00679,4.29352,-0.0517025
243.5,6.02163,4.29509,-0.0522153
244,6.0366,4.302,-0.05346
244.5,6.05202,4.30932,-0.0539333
245,6.06715,4.31746,-0.0548812
245.5,6.08233,4.31965,-0.0551554
246,6.09729,4.31909,-0.0564321
246.5,6.1126,4.33156,-0.0570123
247,6.12726,4.33416,-0.0579532
247.5,6.14254,4.33916,-0.0585198
248,6.15802,4.34417,-0.0592907
248.5,6.17321,4.35436,-0.0591967
249,6.18792,4.36273,-0.0603629
249.5,6.20306,4.36498,-0.0607494
250,6.21801,4.36882,-0.0627766
250.5,6.23306,4.36884,-0.0639654
251,6.24841,4.36757,-0.0649804
251.5,6.26336,4.36872,-0.0665844
252,6.27855,4.36641,-0.0683738
252.5,6.29338,4.36813,-0.0689914
253,6.30892,4.36433,-0.0699228
253.5,6.32354,4.36282,-0.0712879
254,6.33872,4.35878,-0.0725576
254.5,6.35365,4.35928,-0.0734614
255,6.36897,4.36681,-0.0753381
255.5,6.38373,4.3652,-0.0752482
256,6.39895,4.36474,-0.0770564
256.5,6.4141,4.36339,-0.0785546
257,6.4285,4.37014,-0.0796672
257.5,6.44355,4.37394,-0.0815547
258,6.45868,4.37838,-0.08321
258.5,6.47401,4.38517,-0.0846948
259,6.48944,4.39429,-0.0857892
259.5,6.50459,4.39983,-0.0872485
260,6.51973,4.40604,-0.0891939
260.5,6.53499,4.41287,-0.0911736
261,6.55007,4.42068,-0.0922211
261.5,6.56491,4.43757,-0.0940714
262,6.58031,4.45599,-0.0959435
262.5,6.59555,4.46302,-0.0977441
263,6.61036,4.47441,-0.100265
263.5,6.6256,4.49281,-0.10174
264,6.64049,4.49898,-0.103397
264.5,6.65581,4.51172,-0.105169
265,6.67096,4.53107,-0.107144
265.5,6.68611,4.55016,-0.10903
266,6.70093,4.56458,-0.11077
266.5,6.71633,4.59504,-0.113343
267,6.7315,4.6091,-0.114943
267.5,6.74703,4.63255,-0.117836
268,6.7616,4.64807,-0.119997
268.5,6.77695,4.67259,-0.121874
269,6.79227,4.70116,-0.124264
269.5,6.80742,4.7178,-0.126393
270,6.82261,4.75177,-0.12937
270.5,6.83747,4.77888,-0.131793
271,6.85271,4.80035,-0.134364
271.5,6.8679,4.82785,-0.137755
272,6.88306,4.86734,-0.139739
272.5,6.89824,4.89589,-0.142699
273,6.91345,4.93098,-0.146092
273.5,6.92874,4.96377,-0.148793
274,6.94396,5.00554,-0.152774
274.5,6.95937,5.03982,-0.155856
275,6.97452,5.07618,-0.159059
275.5,6.98965,5.12782,-0.161795
276,7.00505,5.16974,-0.164803
276.5,7.02012,5.20207,-0.169506
277,7.03519,5.24239,-0.171247
277.5,7.05053,5.29379,-0.175366
278,7.06517,5.34588,-0.179258
278.5,7.08067,5.40086,-0.183214
279,7.09629,5.45288,-0.188591
279.5,7.11133,5.50605,-0.192487
280,7.12614,5.55924,-0.197188
280.5,7.14175,5.61951,-0.202365
281,7.15688,5.6863,-0.206445
281.5,7.17202,5.74447,-0.211806
282,7.18846,5.81337,-0.216904
282.5,7.20333,5.87669,-0.222064
283,7.21872,5.9434,-0.228531
283.5,7.23366,6.01019,-0.233374
284,7.24898,6.08542,-0.239459
284.5,7.26519,6.16554,-0.245438
285,7.28015,6.23607,-0.251028
285.5,7.29582,6.31109,-0.258687
286,7.31108,6.38913,-0.264387
286.5,7.32694,6.47879,-0.271506
287,7.34198,6.56206,-0.278637
287.5,7.35749,6.64206,-0.285155
288,7.3729,6.72673,-0.29354
288.5,7.38845,6.81352,-0.300695
289,7.40367,6.89966,-0.308251
289.5,7.41903,6.98866,-0.317732
290,7.43467,7.08102,-0.325356
290.5,7.44987,7.17023,-0.334778
291,7.4648,7.26256,-0.343096
291.5,7.48096,7.36176,-0.351838
292,7.49645,7.45059,-0.362887
292.5,7.51211,7.54683,-0.371914
293,7.52753,7.63755,-0.382723
293.5,7.54292,7.73512,-0.393771
294,7.55866,7.83304,-0.40348
294.5,7.57394,7.92384,-0.416017
295,7.58923,8.01571,-0.426466
295.5,7.60468,8.11633,-0.438635
296,7.61998,8.21115,-0.452346
296.5,7.63574,8.30966,-0.463725
297,7.65122,8.40986,-0.477546
297.5,7.66666,8.51613,-0.489719
298,7.68244,8.62153,-0.502667
298.5,7.69776,8.72428,-0.518847
299,7.7132,8.83068,-0.531741
299.5,7.72895,8.93611,-0.548101
300,7.74455,9.03875,-0.563986
300.5,7.7599,9.14386,-0.578353
301,7.77589,9.25547,-0.597415
301.5,7.79104,9.35796,-0.611562
302,7.80657,9.46718,-0.629229
302.5,7.82208,9.56529,-0.647995
303,7.83754,9.66503,-0.663592
303.5,7.85329,9.75745,-0.684305
304,7.86861,9.84825,-0.700946
304.5,7.88409,9.92798,-0.719703
305,7.89939,10.0008,-0.741219
305.5,7.91473,10.0798,-0.757979
306,7.93044,10.1434,-0.778933
306.5,7.94561,10.1987,-0.798603
307,7.96093,10.2623,-0.818055
307.5,7.97627,10.3091,-0.842519
308,7.99168,10.3496,-0.861252
308.5,8.00694,10.3893,-0.883286
309,8.02209,10.4252,-0.907174
309.5,8.03746,10.4443,-0.927474
310,8.05263,10.4624,-0.95319
310.5,8.0683,10.4698,-0.974838
311,8.08309,10.4763,-0.997
311.5,8.09828,10.4682,-1.02403
312,8.11355,10.4504,-1.04463
312.5,8.1286,10.4202,-1.06984
313,8.14356,10.3734,-1.09463
313.5,8.15867,10.3204,-1.11641
314,8.17308,10.2576,-1.14248
314.5,8.18817,10.1747,-1.16439
315,8.20341,10.074,-1.1881
315.5,8.21823,9.97151,-1.21545
316,8.23297,9.83745,-1.23528
316.5,8.24764,9.69857,-1.26039
317,8.2624,9.54218,-1.28595
317.5,8.27699,9.36952,-1.30654
318,8.29158,9.18884,-1.33204
318.5,8.30614,8.99538,-1.35357
319,8.32063,8.78161,-1.37495
319.5,8.33509,8.57129,-1.40076
320,8.34912,8.34765,-1.41899
320.5,8.3634,8.11411,-1.43948
321,8.37799,7.86574,-1.4633
321.5,8.39279,7.61324,-1.48059
322,8.4069,7.36782,-1.50028
322.5,8.42165,7.10929,-1.52118
323,8.43574,6.86602,-1.53698
323.5,8.44909,6.6464,-1.55484
324,8.46392,6.41288,-1.5731
324.5,8.47872,6.1796,-1.58872
325,8.49332,5.96413,-1.60662
325.5,8.5077,5.77559,-1.61958
326,8.52227,5.59888,-1.63312
326.5,8.53707,5.43942,-1.64896
327,8.55156,5.28758,-1.65991
327.5,8.56622,5.15626,-1.67285
328,8.58086,5.03344,-1.68644
328.5,8.59587,4.91926,-1.69737
329,8.61042,4.8202,-1.71042
329.5,8.62562,4.72679,-1.72365
330,8.64033,4.63755,-1.73441
330.5,8.65548,4.56909,-1.74736
331,8.67024,4.49989,-1.75638
331.5,8.68538,4.43756,-1.76699
332,8.70005,4.37427,-1.77855
332.5,8.71515,4.32137,-1.78763
333,8.73,4.26959,-1.79888
333.5,8.74505,4.22226,-1.80905
334,8.75986,4.17044,-1.81929
334.5,8.77498,4.12271,-1.831
335,8.78989,4.07728,-1.83929
335.5,8.80527,4.02177,-1.84895
336,8.81988,3.98199,-1.8589
336.5,8.83483,3.92842,-1.86557
337,8.8503,3.88651,-1.87519
337.5,8.86471,3.84012,-1.88378
338,8.8801,3.7869,-1.89238
338.5,8.89515,3.73764,-1.90249
339,8.90981,3.68305,-1.90937
339.5,8.92512,3.64048,-1.91773
340,8.93986,3.58932,-1.92608
340.5,8.95497,3.54872,-1.93237
341,8.97013,3.48931,-1.94096
341.5,8.98517,3.43235,-1.94838
342,9.00019,3.39183,-1.95517
342.5,9.01532,3.33516,-1.96374
343,9.03031,3.28178,-1.97007
343.5,9.04532,3.22933,-1.97761
344,9.0602,3.17926,-1.98595
344.5,9.0753,3.12125,-1.99366
345,9.09054,3.06678,-2.00174
345.5,9.10521,3.01708,-2.00849
346,9.12037,2.97253,-2.01478
346.5,9.13548,2.91773,-2.02213
347,9.15063,2.86754,-2.02716
347.5,9.16512,2.82058,-2.03259
348,9.18059,2.76297,-2.03851
348.5,9.19546,2.71664,-2.04368
349,9.21091,2.66491,-2.05047
349.5,9.22587,2.61366,-2.05572
350,9.24081,2.57203,-2.06108
350.5,9.25594,2.51338,-2.06768
351,9.27093,2.46002,-2.07261
351.5,9.28588,2.41294,-2.07849
352,9.30098,2.36351,-2.08465
352.5,9.31619,2.31419,-2.08812
353,9.33144,2.26175,-2.09312
353.5,9.34622,2.22091,-2.09771
354,9.36115,2.17375,-2.10262
354.5,9.37627,2.12609,-2.10909
355,9.39109,2.08056,-2.1136
355.5,9.40638,2.02369,-2.11901
356,9.42183,1.97368,-2.12449
356.5,9.43702,1.92982,-2.12858
357,9.45192,1.88782,-2.13484
357.5,9.4675,1.83803,-2.13964
358,9.48236,1.79862,-2.14406
358.5,9.49743,1.7518,-2.14898
359,9.51259,1.70655,-2.15241
359.5,9.5279,1.65888,-2.15639
360,9.54304,1.60658,-2.16053
360.5,9.55791,1.5601,-2.16401
361,9.57317,1.52531,-2.16815
361.5,9.58855,1.48135,-2.17132
362,9.60356,1.43577,-2.17392
362.5,9.61864,1.39032,-2.17827
363,9.63388,1.34463,-2.18185
363.5,9.64876,1.3017,-2.18612
364,9.66408,1.25699,-2.1902
364.5,9.67921,1.21412,-2.1934
365,9.69454,1.16916,-2.19685
365.5,9.70988,1.12547,-2.19961
366,9.72477,1.08649,-2.20235
366.5,9.73954,1.04839,-2.20526
367,9.75491,1.01389,-2.20821
367.5,9.77016,0.974398,-2.21217
368,9.7848,0.937459,-2.21443
368.5,9.80031,0.89673,-2.21744
369,9.81631,0.854204,-2.22084
369.5,9.83121,0.81666,-2.22365
370,9.84648,0.782293,-2.22657
370.5,9.86165,0.753417,-2.22964
371,9.87688,0.718473,-2.23246
371.5,9.89244,0.678697,-2.23577
372,9.90698,0.650154,-2.23798
372.5,9.92234,0.621129,-2.24115
373,9.93806,0.583209,-2.24347
373.5,9.95335,0.55419,-2.246
374,9.96866,0.525328,-2.24791
374.5,9.98376,0.493387,-2.2498
375,9.99924,0.465767,-2.25226
375.5,10.0144,0.438839,-2.25476
376,10.0297,0.414395,-2.25672
376.5,10.0451,0.389955,-2.25957
377,10.0603,0.371697,-2.26176
377.5,10.0756,0.348055,-2.26396
378,10.0911,0.320905,-2.26621
378.5,10.1062,0.296145,-2.26804
379,10.1216,0.280989,-2.27024
379.5,10.1369,0.264437,-2.27211
380,10.1523,0.24566,-2.27458
380.5,10.1675,0.23291,-2.27791
381,10.1828,0.214661,-2.27981
381.5,10.1982,0.196297,-2.28221
382,10.2137,0.174854,-2.28435
382.5,10.2289,0.158306,-2.28593
383,10.2445,0.159743,-2.28836
383.5,10.2598,0.14042,-2.29037
384,10.2752,0.138477,-2.29248
384.5,10.2905,0.131927,-2.29447
385,10.3058,0.129358,-2.29609
385.5,10.3211,0.113705,-2.29826
386,10.3366,0.107286,-2.30029
386.5,10.3522,0.10122,-2.30302
387,10.3675,0.0935116,-2.30521
387.5,10.383,0.0859405,-2.30683
388,10.3983,0.086223,-2.30884
388.5,10.414,0.0847444,-2.31063
389,10.4292,0.0763077,-2.31203
389.5,10.4449,0.08327,-2.31306
390,10.4601,0.0831076,-2.31503
390.5,10.4757,0.0808071,-2.31711
391,10.4913,0.0846975,-2.31946
391.5,10.5068,0.087452,-2.32203
392,10.522,0.0875578,-2.32323
392.5,10.5379,0.0911244,-2.32687
393,10.5531,0.108738,-2.32928
393.5,10.5689,0.105513,-2.3309
394,10.5839,0.110901,-2.33345
394.5,10.5997,0.115973,-2.33566
395,10.615,0.11977,-2.33779
395.5,10.6306,0.128151,-2.33997
396,10.6459,0.134153,-2.34177
396.5,10.6619,0.142625,-2.34425
397,10.6771,0.148517,-2.34635
397.5,10.6927,0.153584,-2.34893
398,10.7082,0.163113,-2.35195
398.5,10.7237,0.168055,-2.35353
399,10.7392,0.170878,-2.35529
399.5,10.7547,0.184457,-2.35716
400,10.7703,0.190424,-2.35955
400.5,10.7857,0.20002,-2.36159
401,10.8014,0.205767,-2.36422
401.5,10.817,0.211563,-2.36621
402,10.8327,0.220166,-2.36843
402.5,10.8482,0.232231,-2.37142
403,10.8637,0.230253,-2.37329
403.5,10.8793,0.243189,-2.37566
404,10.8946,0.256629,-2.37858
404.5,10.9105,0.261823,-2.38063
405,10.9259,0.256734,-2.3837
405.5,10.9416,0.276287,-2.38652
406,10.957,0.27391,-2.38891
406.5,10.9727,0.287521,-2.39201
407,10.9884,0.289108,-2.39449
407.5,11.0038,0.297841,-2.39714
408,11.0192,0.305395,-2.39879
408.5,11.0345,0.316348,-2.40142
409,11.0507,0.320049,-2.40592
409.5,11.0662,0.335824,-2.40852
410,11.0818,0.340229,-2.41122
410.5,11.0976,0.342837,-2.41426
411,11.1134,0.356318,-2.41627
411.5,11.1287,0.369549,-2.41947
412,11.1446,0.372188,-2.42324
412.5,11.1599,0.37889,-2.4257
413,11.1756,0.383865,-2.42952
413.5,11.1916,0.387127,-2.43277
414,11.207,0.407106,-2.43557
414.5,11.2227,0.411568,-2.43945
415,11.2381,0.410425,-2.44266
415.5,11.254,0.422191,-2.44652
416,11.2696,0.423101,-2.44991
416.5,11.2851,0.423972,-2.45322
417,11.3006,0.43009,-2.45809
417.5,11.3163,0.438475,-2.46113
418,11.3322,0.432188,-2.46465
418.5,11.3478,0.447402,-2.46917
419,11.3635,0.450705,-2.47179
419.5,11.379,0.451214,-2.47569
420,11.3949,0.453553,-2.47918
420.5,11.4104,0.452962,-2.48377
421,11.4258,0.456454,-2.48763
421.5,11.4417,0.457796,-2.49279
422,11.4569,0.455466,-2.49602
422.5,11.4729,0.455937,-2.49988
423,11.4886,0.45824,-2.50377
423.5,11.5043,0.459205,-2.50687
424,11.5199,0.460354,-2.51122
424.5,11.5355,0.455704,-2.51532
425,11.5513,0.452202,-2.51919
425.5,11.5672,0.448529,-2.52369
426,11.5828,0.444092,-2.5269
426.5,11.5985,0.444672,-2.53114
427,11.6141,0.44089,-2.53521
427.5,11.6299,0.438909,-2.53902
428,11.6455,0.434662,-2.54407
428.5,11.6612,0.42892,-2.54822
429,11.6767,0.421847,-2.55308
429.5,11.6925,0.417526,-2.55863
430,11.708,0.399696,-2.56223
430.5,11.7238,0.392612,-2.56674
431,11.7396,0.388913,-2.57006
431.5,11.755,0.381439,-2.57378
432,11.7709,0.370838,-2.57858
432.5,11.7865,0.365818,-2.58248
433,11.8023,0.355608,-2.58771
433.5,11.8179,0.347437,-2.59184
434,11.834,0.334738,-2.59644
434.5,11.8493,0.328921,-2.60157
435,11.8652,0.318838,-2.60558
435.5,11.8808,0.303743,-2.61032
436,11.8968,0.294496,-2.61295
436.5,11.9122,0.285349,-2.61665
437,11.9281,0.271339,-2.62215
437.5,11.9439,0.260559,-2.62637
438,11.9593,0.254353,-2.6313
438.5,11.9751,0.24461,-2.63529
439,11.9908,0.234061,-2.63852
439.5,12.0064,0.225276,-2.64382
440,12.0222,0.208377,-2.64783
440.5,12.0379,0.20776,-2.65244
441,12.0537,0.194396,-2.65696
441.5,12.0693,0.187891,-2.66114
442,12.085,0.17717,-2.66651
442.5,12.101,0.160539,-2.67045
443,12.1164,0.157942,-2.67452
443.5,12.1326,0.147956,-2.67918
444,12.1481,0.148131,-2.68278
444.5,12.1641,0.140919,-2.68756
445,12.1797,0.137345,-2.69152
445.5,12.1954,0.130926,-2.69596
446,12.2111,0.124683,-2.7008
446.5,12.227,0.120132,-2.7048
447,12.2428,0.114704,-2.70996
447.5,12.2589,0.111058,-2.71401
448,12.2743,0.10633,-2.7181
448.5,12.2902,0.109304,-2.72249
449,12.3061,0.110471,-2.72741
449.5,12.3218,0.113879,-2.73239
450,12.3375,0.113625,-2.7363
450.5,12.3533,0.120349,-2.74042
451,12.3693,0.118942,-2.74528
451.5,12.3851,0.118133,-2.74865
452,12.401,0.123165,-2.75318
452.5,12.4169,0.126573,-2.75714
453,12.4323,0.125097,-2.76162
453.5,12.4484,0.133154,-2.76809
454,12.4639,0.141999,-2.77126
454.5,12.4803,0.14352,-2.77628
455,12.4959,0.14978,-2.78031
455.5,12.5119,0.159921,-2.78423
456,12.5278,0.170391,-2.78909
456.5,12.5437,0.185179,-2.79264
457,12.5597,0.18703,-2.79743
457.5,12.5752,0.195441,-2.80194
458,12.5912,0.205095,-2.80681
458.5,12.6072,0.213845,-2.81319
459,12.6231,0.21762,-2.81712
459.5,12.6388,0.224622,-2.82187
460,12.6548,0.236645,-2.82675
460.5,12.6707,0.24765,-2.83069
461,12.6869,0.2492,-2.83573
461.5,12.7026,0.26591,-2.83932
462,12.7186,0.274994,-2.84402
462.5,12.7341,0.282282,-2.84866
463,12.7498,0.295895,-2.85311
463.5,12.7655,0.307938,-2.85849
464,12.7813,0.313826,-2.86246
464.5,12.7978,0.31085,-2.8674
465,12.8138,0.323744,-2.87102
465.5,12.8298,0.327113,-2.8749
466,12.8458,0.328211,-2.87967
466.5,12.8615,0.332897,-2.88332
467,12.8776,0.342614,-2.88791
467.5,12.8932,0.338595,-2.89244
468,12.9094,0.345039,-2.8966
468.5,12.9253,0.359667,-2.90188
469,12.9411,0.360757,-2.90597
469.5,12.957,0.363606,-2.91055
470,12.9731,0.36574,-2.91527
470.5,12.9889,0.363897,-2.91916
471,13.0051,0.372838,-2.92395
471.5,13.0205,0.372007,-2.92734
472,13.0368,0.375924,-2.93168
472.5,13.0526,0.378887,-2.93619
473,13.0683,0.376847,-2.93987
473.5,13.0844,0.37633,-2.94498
474,13.1003,0.377381,-2.94899
474.5,13.1163,0.379413,-2.95324
475,13.132,0.372952,-2.95779
475.5,13.148,0.377919,-2.96138
476,13.1638,0.364173,-2.96568
476.5,13.18,0.365067,-2.96893
477,13.1957,0.360984,-2.97265
477.5,13.2113,0.354614,-2.97682
478,13.2275,0.341835,-2.9806
478.5,13.2435,0.341608,-2.98514
479,13.2592,0.337923,-2.98832
479.5,13.2754,0.330502,-2.99192
480,13.2911,0.32385,-2.9958
480.5,13.3069,0.317332,-2.9991
481,13.3229,0.307015,-3.00375
481.5,13.3391,0.298836,-3.00732
482,13.3548,0.293841,-3.01087
482.5,13.3707,0.284932,-3.01457
483,13.3864,0.281118,-3.01743
483.5,13.4025,0.264765,-3.02101
484,13.4184,0.256745,-3.02464
484.5,13.4342,0.255731,-3.02825
485,13.4503,0.246403,-3.03157
485.5,13.4661,0.244088,-3.03548
486,13.4821,0.233379,-3.03817
486.5,13.498,0.2215,-3.04187
487,13.5141,0.21839,-3.04508
487.5,13.5301,0.207073,-3.04701
488,13.5459,0.199058,-3.04956
488.5,13.5618,0.186728,-3.05215
489,13.5778,0.186416,-3.05488
489.5,13.5934,0.174927,-3.05866
490,13.6098,0.167584,-3.06301
490.5,13.6256,0.163116,-3.06578
491,13.6415,0.150239,-3.06866
491.5,13.6572,0.141761,-3.07074
492,13.6734,0.13314,-3.07345
492.5,13.6893,0.130814,-3.07591
493,13.7054,0.120786,-3.07834
493.5,13.7212,0.118938,-3.08052
494,13.7374,0.10642,-3.08282
494.5,13.7526,0.104249,-3.0846
495,13.7693,0.093395,-3.08745
495.5,13.785,0.0913119,-3.08954
496,13.8011,0.0810764,-3.09179
496.5,13.817,0.072603,-3.09449
497,13.8329,0.0666191,-3.09613
497.5,13.8488,0.0626878,-3.09852
498,13.8653,0.0596756,-3.10085
498.5,13.8808,0.0534962,-3.10227
499,13.8969,0.0442405,-3.10403
499.5,13.913,0.0487385,-3.10603
500,13.9288,0.0367706,-3.10807
500.5,13.9448,0.0318718,-3.11002
501,13.9612,0.0236316,-3.1115
501.5,13.9769,0.0190139,-3.11291
502,13.9926,0.012126,-3.11465
502.5,14.0086,0.00664251,-3.11666
503,14.0245,0.00411175,-3.11824
503.5,14.0409,-0.00587092,-3.12016
504,14.0567,-0.00855324,-3.12222
504.5,14.0731,-0.0143217,-3.1236
505,14.0891,-0.0213994,-3.12454
505.5,14.105,-0.0221665,-3.12612
506,14.1211,-0.0297534,-3.12736
506.5,14.1368,-0.0343628,-3.12871
507,14.1533,-0.0295248,-3.13006
507.5,14.1693,-0.038609,-3.13173
508,14.1852,-0.0474857,-3.13279
508.5,14.2014,-0.0525593,-3.13384
509,14.2172,-0.0538421,-3.13554
509.5,14.2332,-0.0595612,-3.13667
510,14.2496,-0.0652564,-3.13712
510.5,14.2655,-0.0645894,-3.13852
511,14.2818,-0.0694082,-3.13955
511.5,14.2979,-0.0735225,-3.14015
512,14.3139,-0.0785341,-3.14169
512.5,14.3297,-0.0797406,-3.14198
513,14.3458,-0.0793971,-3.14336
513.5,14.3619,-0.079932,-3.1433
514,14.3781,-0.078,-3.14452
514.5,14.3942,-0.0890648,-3.14476
515,14.41,-0.0954146,-3.14619
515.5,14.4264,-0.0891669,-3.14667
516,14.4423,-0.0872322,-3.14809
516.5,14.4583,-0.0882225,-3.14886
517,14.4745,-0.0938918,-3.14949
517.5,14.4906,-0.0958076,-3.15107
518,14.5068,-0.0953695,-3.15154
518.5,14.523,-0.0970959,-3.15283
519,14.5386,-0.0944724,-3.15328
519.5,14.555,-0.101934,-3.1542
520,14.5713,-0.105202,-3.15503
520.5,14.5866,-0.105758,-3.1556
521,14.6033,-0.105314,-3.15573
521.5,14.6194,-0.102452,-3.157
522,14.6355,-0.101752,-3.15691
522.5,14.6516,-0.102119,-3.15714
523,14.6674,-0.105844,-3.15848
523.5,14.6838,-0.106534,-3.1598
524,14.7001,-0.110775,-3.1604
524.5,14.7163,-0.112257,-3.16185
525,14.7323,-0.117195,-3.16302
525.5,14.7483,-0.121656,-3.16359
526,14.7643,-0.119623,-3.16492
526.5,14.7801,-0.116517,-3.16511
527,14.797,-0.113905,-3.16551
527.5,14.8132,-0.118094,-3.16655
528,14.8292,-0.120389,-3.16657
528.5,14.8452,-0.122965,-3.16782
529,14.8611,-0.126976,-3.16787
529.5,14.8773,-0.126508,-3.16789
530,14.8936,-0.12376,-3.16896
530.5,14.9099,-0.12942,-3.16908
531,14.9258,-0.131877,-3.17032
531.5,14.9421,-0.133229,-3.17053
532,14.9581,-0.135586,-3.17099
532.5,14.9743,-0.130013,-3.17189
533,14.9907,-0.129557,-3.17178
533.5,15.0066,-0.142955,-3.17283
534,15.023,-0.141361,-3.17316
534.5,15.0393,-0.13881,-3.17313
535,15.0554,-0.138476,-3.1737
535.5,15.0714,-0.134502,-3.17463
536,15.087,-0.138282,-3.17326
536.5,15.1033,-0.139826,-3.1744
537,15.1197,-0.141856,-3.1746
537.5,15.1364,-0.137729,-3.17589
538,15.1528,-0.136797,-3.17589
538.5,15.1688,-0.136568,-3.1759
539,15.1851,-0.141558,-3.17613
539.5,15.2014,-0.141928,-3.17731
540,15.2175,-0.14436,-3.17722
540.5,15.2336,-0.144116,-3.17735
541,15.2499,-0.13918,-3.17865
541.5,15.2657,-0.137692,-3.17851
542,15.2819,-0.139597,-3.17961
542.5,15.2985,-0.141647,-3.17985
543,15.3147,-0.140113,-3.17976
543.5,15.3308,-0.137526,-3.18181
544,15.3472,-0.141783,-3.1825
544.5,15.3634,-0.142576,-3.18315
545,15.3797,-0.142814,-3.18383
545.5,15.3956,-0.14138,-3.18378
546,15.4119,-0.139625,-3.18493
546.5,15.4279,-0.133,-3.18521
547,15.4443,-0.135084,-3.18599
547.5,15.4602,-0.134886,-3.18668
548,15.4765,-0.1335,-3.18667
548.5,15.4924,-0.131262,-3.18723
549,15.5092,-0.134799,-3.188
549.5,15.5252,-0.131801,-3.18799
550,15.5419,-0.12532,-3.18799
550.5,15.5581,-0.123586,-3.188
551,15.5743,-0.119685,-3.18911
551.5,15.5904,-0.118961,-3.18927
552,15.6067,-0.112679,-3.1893
552.5,15.6232,-0.111983,-3.18967
553,15.6391,-0.10616,-3.19066
553.5,15.6555,-0.11048,-3.1906
554,15.6718,-0.110276,-3.18942
554.5,15.6881,-0.11153,-3.18938
555,15.7044,-0.109025,-3.19053
555.5,15.7206,-0.107352,-3.1906
556,15.7368,-0.0935702,-3.19096
556.5,15.7531,-0.103323,-3.19212
557,15.7694,-0.0932114,-3.19206
557.5,15.7856,-0.0958785,-3.19199
558,15.8021,-0.0913081,-3.1933
558.5,15.8182,-0.0895789,-3.19336
559,15.8345,-0.0878433,-3.19336
559.5,15.8506,-0.0886723,-3.19336
560,15.8673,-0.0901688,-3.19336
560.5,15.8833,-0.0843357,-3.19327
561,15.8995,-0.0800867,-3.19454
561.5,15.9157,-0.0803868,-3.19468
562,15.9321,-0.08021,-3.19467
562.5,15.9485,-0.0743954,-3.19516
563,15.9646,-0.073198,-3.19595
563.5,15.9804,-0.0742676,-3.19497
564,15.9964,-0.0764777,-3.195
564.5,16.0129,-0.0640918,-3.19613
565,16.029,-0.0671033,-3.19631
565.5,16.0461,-0.0613041,-3.19633
566,16.0624,-0.0626732,-3.19686
566.5,16.0787,-0.0629911,-3.19765
567,16.0948,-0.0643351,-3.19763
567.5,16.1111,-0.0638343,-3.19756
568,16.1274,-0.0599224,-3.19869
568.5,16.144,-0.0582413,-3.19896
569,16.1599,-0.0607956,-3.19895
569.5,16.1767,-0.0569597,-3.19929
570,16.1928,-0.0563639,-3.20035
570.5,16.2093,-0.053783,-3.20029
571,16.2252,-0.045239,-3.20028
571.5,16.2418,-0.0416457,-3.20028
572,16.2582,-0.0407243,-3.20028
572.5,16.2746,-0.0421877,-3.20029
573,16.2905,-0.0398516,-3.20047
573.5,16.307,-0.039675,-3.20161
574,16.3231,-0.0366558,-3.2016
574.5,16.3395,-0.0346029,-3.20286
575,16.356,-0.0358265,-3.20419
575.5,16.3721,-0.0410192,-3.20422
576,16.3888,-0.0312933,-3.20423
576.5,16.4047,-0.0302136,-3.20423
577,16.421,-0.0283172,-3.20423
577.5,16.4376,-0.0297358,-3.20424
578,16.4538,-0.0263214,-3.20414
578.5,16.4701,-0.0301175,-3.20499
579,16.4863,-0.0281125,-3.20418
579.5,16.5029,-0.0271002,-3.20423
580,16.519,-0.019442,-3.20423
580.5,16.5351,-0.0248169,-3.20422
581,16.5515,-0.0180178,-3.20507
581.5,16.5678,-0.0210642,-3.20554
582,16.5843,-0.0221929,-3.20555
582.5,16.6007,-0.0216649,-3.20555
583,16.6171,-0.0228721,-3.20555
583.5,16.6334,-0.0229316,-3.2055
584,16.6499,-0.0267605,-3.20646
584.5,16.6662,-0.0231389,-3.20682
585,16.6825,-0.0204623,-3.20759
585.5,16.6988,-0.0296819,-3.2083
586,16.7153,-0.0325079,-3.20945
586.5,16.7315,-0.0288499,-3.20949
587,16.7479,-0.0247032,-3.2096
587.5,16.7643,-0.0236438,-3.20826
588,16.7807,-0.0252661,-3.2094
588.5,16.7969,-0.0196954,-3.2095
589,16.8131,-0.0182389,-3.2095
589.5,16.8298,-0.0173916,-3.2095
590,16.8461,-0.0150309,-3.20949
590.5,16.8626,-0.021372,-3.21003
591,16.8783,-0.0148163,-3.21055
591.5,16.8947,-0.00646128,-3.21083
592,16.9111,-0.00763275,-3.21082
592.5,16.9281,-0.00365776,-3.21082
593,16.9446,-0.00635567,-3.2108
593.5,16.9609,-0.00115424,-3.21083
594,16.9771,-0.00230932,-3.20976
594.5,16.9935,0.00351134,-3.20978
595,17.0098,0.00133384,-3.21074
595.5,17.0265,-0.00133216,-3.21115
596,17.0427,0.000291308,-3.21118
596.5,17.0588,0.00956017,-3.21132
597,17.0754,0.00903496,-3.21246
597.5,17.0922,0.0065437,-3.21243
598,17.1082,0.00418303,-3.21327
598.5,17.1248,0.00772971,-3.21392
599,17.1412,0.0122327,-3.21383
599.5,17.1573,0.00992595,-3.21494
600,17.1739,0.0130527,-3.21521
600.5,17.1904,0.0141507,-3.21521
601,17.2066,0.0154874,-3.21521
601.5,17.2233,0.021903,-3.21521
602,17.2395,0.0175755,-3.21518
602.5,17.256,0.0173903,-3.21581
603,17.2722,0.0265694,-3.21657
603.5,17.2889,0.0261209,-3.21653
604,17.3052,0.0314071,-3.21679
604.5,17.3215,0.0331859,-3.21758
605,17.3381,0.0329649,-3.21753
605.5,17.3545,0.0272212,-3.21752
606,17.3708,0.029054,-3.21752
606.5,17.3873,0.0280223,-3.2175
607,17.4039,0.0313786,-3.21712
607.5,17.4199,0.0341855,-3.21647
608,17.4365,0.0374778,-3.21752
608.5,17.4529,0.0377639,-3.21752
609,17.4695,0.0473534,-3.21752
609.5,17.4862,0.0454268,-3.21751
610,17.5024,0.0423003,-3.21823
610.5,17.5189,0.0460147,-3.21884
611,17.5356,0.0490423,-3.21884
611.5,17.5517,0.0506724,-3.21883
612,17.5683,0.056031,-3.21932
612.5,17.5848,0.0580833,-3.22019
613,17.6006,0.0534785,-3.22019
613.5,17.6177,0.0613065,-3.22152
614,17.6342,0.0602428,-3.22146
614.5,17.6508,0.064711,-3.22149
615,17.6668,0.0610843,-3.22091
615.5,17.6834,0.0652549,-3.2201
616,17.7001,0.0700898,-3.22014
616.5,17.7166,0.0678976,-3.22047
617,17.7328,0.0697594,-3.22149
617.5,17.7495,0.0782926,-3.22227
618,17.7659,0.0869842,-3.22281
618.5,17.7824,0.0837293,-3.2228
619,17.799,0.0820878,-3.2228
619.5,17.8152,0.0866497,-3.22272
620,17.8321,0.0860974,-3.22406
620.5,17.8481,0.0895327,-3.22411
621,17.8649,0.0870029,-3.22411
621.5,17.8811,0.0930006,-3.22411
622,17.8977,0.0971191,-3.22411
622.5,17.9144,0.0977731,-3.22411
623,17.931,0.0990559,-3.22412
623.5,17.9472,0.100734,-3.22413
624,17.9638,0.096708,-3.22529
624.5,17.9802,0.0981937,-3.22541
625,17.9965,0.101451,-3.22542
625.5,18.0134,0.108623,-3.22543
626,18.0294,0.115034,-3.22554
626.5,18.046,0.113751,-3.22671
627,18.0625,0.117974,-3.22673
627.5,18.0792,0.117769,-3.22675
628,18.0953,0.116292,-3.22671
628.5,18.112,0.112293,-3.22788
629,18.1286,0.117855,-3.22816
629.5,18.1449,0.120166,-3.22817
630,18.1618,0.116658,-3.22824
630.5,18.1781,0.122097,-3.22955
631,18.1946,0.117973,-3.22948
631.5,18.2113,0.119659,-3.22949
632,18.2279,0.123173,-3.22949
632.5,18.2442,0.125574,-3.22949
633,18.2607,0.124571,-3.22951
633.5,18.2774,0.125955,-3.22953
634,18.2938,0.125351,-3.23078
634.5,18.3105,0.120282,-3.2308
635,18.3268,0.120147,-3.2308
635.5,18.3431,0.123531,-3.2308
636,18.3598,0.119748,-3.23081
636.5,18.3763,0.12127,-3.23079
637,18.3927,0.119014,-3.23192
637.5,18.4089,0.114729,-3.2321
638,18.4258,0.111869,-3.23211
638.5,18.4423,0.114788,-3.23188
639,18.4589,0.115551,-3.23211
639.5,18.4752,0.111783,-3.23212
640,18.492,0.115886,-3.23212
640.5,18.5086,0.116101,-3.23212
641,18.5247,0.119429,-3.23212
641.5,18.5412,0.118929,-3.23212
642,18.558,0.115655,-3.23213
642.5,18.5745,0.12109,-3.23203
643,18.5911,0.116391,-3.23336
643.5,18.6078,0.118206,-3.23344
644,18.6241,0.110925,-3.23336
644.5,18.6405,0.105707,-3.23465
645,18.6572,0.106105,-3.2348
645.5,18.6739,0.105461,-3.23534
646,18.6907,0.104966,-3.23639
646.5,18.7071,0.0996669,-3.23673
647,18.7236,0.0971421,-3.23673
647.5,18.7402,0.090215,-3.23673
648,18.7566,0.0909702,-3.23673
648.5,18.7734,0.0887646,-3.23664
649,18.7897,0.0849335,-3.2379
649.5,18.8063,0.0852571,-3.23805
650,18.8224,0.0849063,-3.23805
650.5,18.839,0.086081,-3.23799
651,18.8558,0.0816333,-3.23665
651.5,18.8725,0.0870525,-3.23785
652,18.8891,0.0888022,-3.23804
652.5,18.9057,0.0832233,-3.23805
653,18.9222,0.0840332,-3.23805
653.5,18.9388,0.0774683,-3.23803
654,18.9556,0.0759579,-3.23861
654.5,18.9718,0.0722179,-3.2394
655,18.9883,0.0726475,-3.23936
655.5,19.0049,0.0679358,-3.23936
656,19.0215,0.0664604,-3.23937
656.5,19.0379,0.0625128,-3.23941
657,19.0548,0.0647064,-3.2406
657.5,19.0711,0.060735,-3.24067
658,19.0877,0.0588622,-3.24068
658.5,19.1042,0.0516046,-3.24068
659,19.1208,0.0510227,-3.24068
659.5,19.1375,0.048543,-3.24068
660,19.154,0.0456257,-3.24068
660.5,19.1705,0.0375056,-3.24068
661,19.1873,0.0404691,-3.24068
661.5,19.2039,0.0392641,-3.2407
662,19.2204,0.0375685,-3.24019
662.5,19.2369,0.0323571,-3.24068
663,19.2534,0.0320316,-3.24067
663.5,19.2701,0.0296186,-3.24067
664,19.287,0.0263739,-3.24103
664.5,19.3032,0.0293649,-3.24206
665,19.3197,0.0272947,-3.24199
665.5,19.3363,0.0263318,-3.24199
666,19.3526,0.0179012,-3.24231
666.5,19.3691,0.0230673,-3.24336
667,19.3862,0.0203989,-3.2433
667.5,19.4026,0.0226318,-3.2445
668,19.4192,0.0220263,-3.24474
668.5,19.4359,0.0142189,-3.24487
669,19.4525,0.0122461,-3.24603
669.5,19.4688,0.00942648,-3.24605
670,19.4856,0.00754485,-3.24606
670.5,19.5023,0.00560466,-3.24606
671,19.5187,-0.00144046,-3.24607
671.5,19.5355,0.000202395,-3.24603
672,19.5521,-0.00866386,-3.24714
672.5,19.5686,-0.00703848,-3.24738
673,19.5854,-0.0051182,-3.24678
673.5,19.6019,-0.00881315,-3.24612
674,19.6184,-0.011703,-3.24744
674.5,19.635,-0.0206781,-3.24741
675,19.6513,-0.0188715,-3.24646
675.5,19.6682,-0.0243233,-3.24604
676,19.685,-0.0281383,-3.24605
676.5,19.7012,-0.0267904,-3.246
677,19.7181,-0.0256484,-3.24682
677.5,19.7345,-0.0324891,-3.24735
678,19.751,-0.0364797,-3.24831
678.5,19.7677,-0.0358858,-3.25007
679,19.7844,-0.0403792,-3.25
679.5,19.8008,-0.0420349,-3.25
680,19.8175,-0.0417288,-3.25041
680.5,19.8339,-0.0431755,-3.25139
681,19.8506,-0.0456347,-3.25136
681.5,19.8672,-0.0470804,-3.25136
682,19.884,-0.0462118,-3.25262
682.5,19.9005,-0.0516165,-3.25266
683,19.9168,-0.0585314,-3.25265
683.5,19.9336,-0.0569353,-3.25393
684,19.95,-0.0599302,-3.25395
684.5,19.9668,-0.0695558,-3.25396
685,19.9832,-0.066509,-3.2546
685.5,19.9999,-0.0659871,-3.25529
686,20.0166,-0.0692764,-3.25528
686.5,20.033,-0.0699136,-3.25527
687,20.0498,-0.0729668,-3.25522
687.5,20.0664,-0.0754269,-3.25624
688,20.0827,-0.0774995,-3.2566
688.5,20.0995,-0.0803458,-3.2566
689,20.1158,-0.0744848,-3.25661
689.5,20.1324,-0.0831491,-3.25714
690,20.1493,-0.0868252,-3.25792
690.5,20.1658,-0.0931254,-3.25791
691,20.1823,-0.0917671,-3.25791
691.5,20.199,-0.0929687,-3.25791
692,20.2156,-0.100019,-3.25705
692.5,20.2322,-0.102174,-3.25651
693,20.2489,-0.102181,-3.25767
693.5,20.2654,-0.102655,-3.25757
694,20.2822,-0.104875,-3.25759
694.5,20.2985,-0.110147,-3.25763
695,20.315,-0.117133,-3.25792
695.5,20.3316,-0.120949,-3.25791
696,20.3485,-0.121222,-3.2579
696.5,20.3648,-0.125807,-3.25765
697,20.3814,-0.128358,-3.25681
697.5,20.3982,-0.129148,-3.25796
698,20.4145,-0.13044,-3.25792
698.5,20.4313,-0.131697,-3.25793
699,20.4479,-0.143768,-3.25958
699.5,20.4643,-0.142242,-3.26058
700,20.4809,-0.142512,-3.26056
700.5,20.4976,-0.147494,-3.26055
701,20.5145,-0.148985,-3.26055
701.5,20.5309,-0.157809,-3.26055
702,20.5475,-0.163073,-3.26055
702.5,20.5643,-0.163605,-3.26057
703,20.5806,-0.171365,-3.26089
703.5,20.5974,-0.172961,-3.26186
704,20.614,-0.172961,-3.26186
704.5,20.6307,-0.181039,-3.26186
705,20.6471,-0.18016,-3.26186
705.5,20.664,-0.184409,-3.26188
706,20.6806,-0.18903,-3.26208
706.5,20.6973,-0.187447,-3.2626
707,20.7139,-0.189428,-3.26182
707.5,20.7303,-0.189611,-3.26187
708,20.7473,-0.195911,-3.26187
708.5,20.7637,-0.199719,-3.26187
709,20.7805,-0.207348,-3.26187
709.5,20.7967,-0.208269,-3.26187
710,20.8136,-0.210381,-3.26293
710.5,20.8302,-0.20984,-3.26316
711,20.8462,-0.21577,-3.26319
711.5,20.8628,-0.219176,-3.26354
712,20.8798,-0.218036,-3.26455
712.5,20.8963,-0.221148,-3.2645
713,20.9133,-0.215307,-3.26449
713.5,20.9301,-0.220789,-3.26451
714,20.9467,-0.223532,-3.2645
714.5,20.9633,-0.226324,-3.2644
715,20.9799,-0.227961,-3.2657
715.5,20.9966,-0.227419,-3.26582
716,21.0133,-0.244451,-3.26581
716.5,21.03,-0.245053,-3.26575
717,21.0469,-0.244214,-3.26682
717.5,21.0636,-0.244918,-3.26714
718,21.0802,-0.250069,-3.26714
718.5,21.0968,-0.250525,-3.26714
719,21.1134,-0.253297,-3.26704
719.5,21.1302,-0.261866,-3.26835
720,21.1468,-0.260929,-3.26845
720.5,21.1635,-0.255236,-3.26845
721,21.1801,-0.262281,-3.26845
721.5,21.197,-0.271183,-3.26845
722,21.2134,-0.270063,-3.26911
722.5,21.2306,-0.273728,-3.26979
723,21.247,-0.278983,-3.26978
723.5,21.2637,-0.28225,-3.27095
724,21.2804,-0.285027,-3.27108
724.5,21.2971,-0.283006,-3.27109
725,21.3139,-0.290735,-3.27109
725.5,21.3305,-0.29336,-3.27113
726,21.3471,-0.301095,-3.27243
726.5,21.3637,-0.300859,-3.27239
727,21.3807,-0.304314,-3.27241
727.5,21.3971,-0.308462,-3.27241
728,21.4134,-0.315321,-3.27233
728.5,21.4303,-0.324696,-3.27417
729,21.4476,-0.324847,-3.27505
729.5,21.4641,-0.321733,-3.27503
730,21.481,-0.331567,-3.27496
730.5,21.4976,-0.335936,-3.2761
731,21.5145,-0.336534,-3.27636
731.5,21.5313,-0.33341,-3.27636
732,21.5477,-0.337167,-3.27636
732.5,21.5646,-0.34031,-3.27636
733,21.5814,-0.347329,-3.27637
733.5,21.5982,-0.349714,-3.27626
734,21.6149,-0.355847,-3.27632
734.5,21.6316,-0.35776,-3.27638
735,21.6481,-0.361111,-3.27641
735.5,21.6643,-0.36755,-3.27758
736,21.6817,-0.372571,-3.27767
736.5,21.6985,-0.375997,-3.27768
737,21.7153,-0.381915,-3.27768
737.5,21.7318,-0.380957,-3.27774
738,21.7489,-0.388967,-3.27908
738.5,21.7654,-0.393146,-3.27898
739,21.7823,-0.395325,-3.27907
739.5,21.7992,-0.397067,-3.2804
740,21.8159,-0.406256,-3.28031