File: 01_Data/EPDM_SCBA_Face_Seal/STA/N2/30K_min/EPDM_SCBA_Face_Seal_STA_N2_30KData_240305_R1.csv
Temp./C,Time/min,DSC/(mW/mg),Mass loss/mg
60.0,0.0,1.26056,0.00280026
60.5,0.024956,1.30355,0.00196449
61,0.0502602,1.34682,0.00210174
61.5,0.0756017,1.38574,0.00252678
62,0.0997894,1.43531,0.00256509
62.5,0.123636,1.4675,0.00202186
63,0.147256,1.50931,0.00103628
63.5,0.170066,1.55402,0.00123523
64,0.193207,1.59224,0.00167869
64.5,0.215777,1.62906,0.00247124
65,0.237651,1.66121,0.0026403
65.5,0.259151,1.6928,0.00266612
66,0.281291,1.72215,0.00221458
66.5,0.302664,1.76198,0.00163749
67,0.323386,1.78552,0.00150007
67.5,0.344607,1.81151,0.00185331
68,0.364291,1.84127,0.00306016
68.5,0.385909,1.86786,0.00372149
69,0.406081,1.90163,0.00326532
69.5,0.426367,1.92666,0.00283029
70,0.446612,1.95677,0.00211074
70.5,0.466532,1.9784,0.00143426
71,0.485795,2.00305,0.00151112
71.5,0.505728,2.02899,0.00232377
72,0.525317,2.03687,0.00259263
72.5,0.544845,2.06737,0.00179179
73,0.564526,2.09896,0.00158172
73.5,0.582597,2.11524,0.00251667
74,0.602504,2.1328,0.00264202
74.5,0.621827,2.15405,0.00181281
75,0.640658,2.17688,0.00109505
75.5,0.6595,2.18548,0.00212254
76,0.678119,2.206,0.00159167
76.5,0.696158,2.22998,0.00268513
77,0.715919,2.247,0.00311191
77.5,0.734388,2.26341,0.00218766
78,0.752534,2.28429,0.00267896
78.5,0.771198,2.30024,0.00307522
79,0.789514,2.30839,0.00204298
79.5,0.80746,2.3293,0.00226318
80,0.825846,2.34608,0.00129599
80.5,0.84415,2.36195,0.00125942
81,0.862019,2.36548,0.00137527
81.5,0.87975,2.38344,0.00196663
82,0.897367,2.4,0.00124237
82.5,0.915833,2.4124,0.0011511
83,0.933744,2.41812,0.000958579
83.5,0.951298,2.4384,0.000965762
84,0.969203,2.45298,0.00115112
84.5,0.986983,2.46429,0.000954911
85,1.00445,2.48115,0.00103199
85.5,1.02182,2.4858,-0.000134958
86,1.0394,2.49221,0.000243539
86.5,1.05677,2.51079,0.000983673
87,1.07462,2.52375,0.000488529
87.5,1.09172,2.51789,0.0011326
88,1.10914,2.53794,0.00108581
88.5,1.1262,2.55159,0.00122723
89,1.14426,2.56023,0.00121231
89.5,1.16162,2.57069,0.00119411
90,1.17876,2.57702,0.00118265
90.5,1.19586,2.5906,0.00119808
91,1.21262,2.59825,0.00118375
91.5,1.2301,2.60319,0.0010036
92,1.24702,2.60899,-9.9097e-05
92.5,1.26429,2.62226,0.000979984
93,1.28079,2.63452,0.00115117
93.5,1.29804,2.64844,0.00197506
94,1.3155,2.64838,0.00192391
94.5,1.33194,2.65086,0.00120589
95,1.34914,2.65958,0.00240931
95.5,1.36579,2.6685,0.0013971
96,1.38233,2.67081,0.00134061
96.5,1.39912,2.66962,0.0013675
97,1.41543,2.67432,0.000412085
97.5,1.43207,2.66931,0.00124854
98,1.44892,2.65748,0.00128206
98.5,1.46678,2.66891,0.00229046
99,1.48337,2.67241,0.00285488
99.5,1.50027,2.68136,0.00159057
100,1.51711,2.67874,0.00142893
100.5,1.53349,2.66974,0.00142404
101,1.55009,2.67547,0.0020793
101.5,1.56692,2.67332,0.00273981
102,1.58346,2.67706,0.00218693
102.5,1.60058,2.66827,0.0014251
103,1.61587,2.67928,0.00143022
103.5,1.634,2.6706,0.00142964
104,1.65037,2.66289,0.00142551
104.5,1.66682,2.66269,0.00174321
105,1.68336,2.66703,0.00276517
105.5,1.69934,2.67315,0.00134092
106,1.71616,2.66629,0.00143547
106.5,1.73363,2.66495,0.00143203
107,1.75006,2.6651,0.00143169
107.5,1.76688,2.65781,0.00141995
108,1.78318,2.6575,0.00113633
108.5,1.79975,2.6621,9.35117e-05
109,1.81652,2.66547,0.000120972
109.5,1.83313,2.66217,8.7582e-06
110,1.84956,2.66161,0.00116445
110.5,1.86618,2.66608,0.000128853
111,1.8829,2.66925,0.000128004
111.5,1.89941,2.66715,0.000208821
112,1.91567,2.6744,0.00136877
112.5,1.93241,2.66054,0.00120649
113,1.94897,2.66619,9.15504e-05
113.5,1.9653,2.67622,0.000118525
114,1.98224,2.67309,0.000110589
114.5,1.99836,2.67612,0.000108266
115,2.0147,2.68249,0.000132443
115.5,2.03203,2.6799,0.000555456
116,2.04794,2.67373,0.00143227
116.5,2.0646,2.68252,0.00142934
117,2.08101,2.69045,0.00142982
117.5,2.09728,2.69169,0.00143023
118,2.11405,2.68561,0.00143802
118.5,2.13,2.68103,0.00147802
119,2.14683,2.69012,0.000534528
119.5,2.1634,2.68896,0.0004957
120,2.17986,2.68943,0.000708014
120.5,2.19646,2.68709,0.00144261
121,2.21251,2.68928,0.00143469
121.5,2.2294,2.69593,0.00142644
122,2.24592,2.69747,0.00153883
122.5,2.26204,2.70341,0.000339634
123,2.27842,2.70089,0.000449851
123.5,2.29465,2.69339,0.000451457
124,2.31076,2.70332,0.000450116
124.5,2.32762,2.70106,0.000449944
125,2.34377,2.69373,0.000451643
125.5,2.36037,2.70399,0.000466073
126,2.37679,2.69706,0.000440399
126.5,2.39291,2.71272,0.00173742
127,2.40934,2.71229,0.00141643
127.5,2.42538,2.70817,0.0014358
128,2.4419,2.70836,0.00142956
128.5,2.45792,2.71543,0.00143213
129,2.47435,2.7087,0.00050257
129.5,2.49049,2.71125,0.000130046
130,2.50695,2.71528,0.000107624
130.5,2.52332,2.71786,0.00010951
131,2.53952,2.71842,0.000109985
131.5,2.55548,2.7196,0.000110006
132,2.57193,2.72583,0.000110001
132.5,2.58798,2.72215,0.00011
133,2.60409,2.72296,0.000109994
133.5,2.62021,2.72923,0.00010998
134,2.63585,2.72962,0.000110239
134.5,2.65229,2.72815,0.000113011
135,2.66789,2.73259,0.000111716
135.5,2.68397,2.73498,-0.000267009
136,2.70034,2.73633,-0.00125692
136.5,2.71602,2.74846,-0.00120712
137,2.73242,2.74526,-0.00121239
137.5,2.74801,2.74942,-0.00121802
138,2.76459,2.74244,-0.000754894
138.5,2.7815,2.73995,0.00017298
139,2.79711,2.75043,0.000110333
139.5,2.81299,2.74728,0.000110677
140,2.82927,2.75384,0.000113814
140.5,2.84512,2.75494,1.04868e-05
141,2.8612,2.75027,0.00130539
141.5,2.87756,2.75508,0.00143098
142,2.89322,2.75506,0.0014303
142.5,2.90942,2.76164,0.00143001
143,2.92524,2.76155,0.00143
143.5,2.94136,2.75349,0.00142999
144,2.95696,2.75439,0.00143002
144.5,2.97287,2.75577,0.00143043
145,2.98906,2.76233,0.00143029
145.5,3.00461,2.767,0.00140455
146,3.02085,2.75494,0.00123994
146.5,3.03642,2.76147,0.000120463
147,3.0525,2.7679,0.000113489
147.5,3.0685,2.76808,0.000118524
148,3.0838,2.76789,-9.27809e-06
148.5,3.10025,2.76424,0.00122326
149,3.11585,2.77024,0.00109345
149.5,3.13165,2.77639,0.00109791
150,3.1477,2.76846,0.00109995
150.5,3.16343,2.7727,0.00110029
151,3.17894,2.77999,0.0011003
151.5,3.19504,2.77838,0.00108649
152,3.21019,2.77939,0.000990949
152.5,3.22603,2.7862,-0.000156618
153,3.24179,2.78421,-0.000204805
153.5,3.25736,2.79289,-0.00022
154,3.27281,2.78794,-0.000220228
154.5,3.28901,2.79117,-0.000220015
155,3.30479,2.79926,-0.000219996
155.5,3.32065,2.80053,-0.00022
156,3.33686,2.80064,-0.000219998
156.5,3.35265,2.81,-0.000219972
157,3.3687,2.805,-0.000219975
157.5,3.38429,2.80679,-0.00022176
158,3.39952,2.81007,-0.000230569
158.5,3.41548,2.81281,-0.000138306
159,3.43128,2.82107,-0.00140791
159.5,3.44726,2.82276,-0.00153107
160,3.46255,2.81979,-0.00153046
160.5,3.47829,2.82265,-0.00153004
161,3.49394,2.82631,-0.00152952
161.5,3.50979,2.83011,-0.00152616
162,3.52546,2.83159,-0.00154802
162.5,3.54023,2.83598,-0.00181512
163,3.55688,2.83452,-0.00284521
163.5,3.57235,2.84196,-0.00273763
164,3.5882,2.84184,-0.00219047
164.5,3.60393,2.83956,-0.00219378
165,3.61976,2.84272,-0.00216784
165.5,3.63514,2.84484,-0.00100589
166,3.65067,2.85285,-0.000895541
166.5,3.66647,2.86205,-0.000869391
167,3.68212,2.85547,-0.000869558
167.5,3.69773,2.85419,-0.000869987
168,3.71318,2.86289,-0.000870004
168.5,3.72894,2.86805,-0.000869995
169,3.74423,2.86971,-0.000870138
169.5,3.76006,2.87207,-0.000870788
170,3.77563,2.88001,-0.000862705
170.5,3.79141,2.88807,-0.00148002
171,3.80677,2.88207,-0.00222043
171.5,3.8222,2.88693,-0.00219689
172,3.83831,2.89154,-0.0021902
172.5,3.85369,2.88685,-0.00218455
173,3.86926,2.89195,-0.00215794
173.5,3.88493,2.89914,-0.00274322
174,3.90056,2.90302,-0.00293867
174.5,3.91592,2.9077,-0.00318834
175,3.93154,2.90847,-0.00318273
175.5,3.94693,2.90009,-0.00318029
176,3.96267,2.91092,-0.00318566
176.5,3.97807,2.91132,-0.00318092
177,3.99356,2.91561,-0.00266964
177.5,4.0094,2.91915,-0.00185975
178,4.02464,2.9238,-0.00186098
178.5,4.04007,2.92159,-0.00186006
179,4.05542,2.92076,-0.00185999
179.5,4.07133,2.92422,-0.00185998
180,4.0869,2.92874,-0.00186008
180.5,4.10239,2.93977,-0.00186158
181,4.11774,2.94024,-0.00185694
181.5,4.13323,2.92827,-0.00177182
182,4.14907,2.94314,-0.00285264
182.5,4.16473,2.93921,-0.00318558
183,4.17904,2.93953,-0.00318013
183.5,4.19455,2.95209,-0.00317991
184,4.21042,2.95568,-0.00317999
184.5,4.2261,2.95565,-0.00318
185,4.24122,2.9602,-0.00318
185.5,4.25673,2.96103,-0.00318
186,4.27214,2.95954,-0.00318
186.5,4.28771,2.96132,-0.00318
187,4.30303,2.96449,-0.00318
187.5,4.31808,2.96816,-0.00318
188,4.33343,2.96915,-0.00318003
188.5,4.34862,2.96797,-0.00318003
189,4.36455,2.96695,-0.0031782
189.5,4.37938,2.96874,-0.00317664
190,4.39526,2.97294,-0.00327857
190.5,4.41016,2.97881,-0.00208022
191,4.42571,2.98067,-0.00185534
191.5,4.44019,2.98009,-0.00185613
192,4.4556,2.98058,-0.00188284
192.5,4.47143,2.98089,-0.00209483
193,4.4869,2.97822,-0.00317016
193.5,4.50226,2.99128,-0.00317888
194,4.51733,2.98775,-0.00318007
194.5,4.53283,2.98333,-0.00317983
195,4.54827,2.98812,-0.00317941
195.5,4.56353,2.9936,-0.00318915
196,4.57885,2.99328,-0.00322907
196.5,4.594,2.99125,-0.00353172
197,4.6092,2.99969,-0.00350931
197.5,4.62445,3.00059,-0.00353236
198,4.63968,3.00676,-0.00371989
198.5,4.65496,3.01021,-0.0048133
199,4.67031,3.00864,-0.00482743
199.5,4.68572,3.00845,-0.00483016
200,4.70104,3.01412,-0.00483005
200.5,4.7163,3.01466,-0.00483
201,4.73136,3.01691,-0.00483
201.5,4.74622,3.01732,-0.00483
202,4.76197,3.01525,-0.00483
202.5,4.77699,3.01555,-0.00483
203,4.79216,3.01908,-0.00483014
203.5,4.8077,3.02469,-0.00483024
204,4.82296,3.0224,-0.00482221
204.5,4.83797,3.02192,-0.00481121
205,4.85287,3.0257,-0.00543286
205.5,4.86862,3.02352,-0.00579205
206,4.88373,3.02513,-0.0057835
206.5,4.89863,3.02642,-0.00616337
207,4.91428,3.03247,-0.00613483
207.5,4.92917,3.02765,-0.00613946
208,4.94465,3.0282,-0.0061401
208.5,4.95976,3.02915,-0.00614006
209,4.97519,3.02556,-0.00613927
209.5,4.99015,3.02937,-0.00613659
210,5.00513,3.03508,-0.0061771
210.5,5.02055,3.03631,-0.00577635
211,5.03581,3.04097,-0.00581365
211.5,5.05087,3.04163,-0.00591648
212,5.06634,3.03234,-0.00675354
212.5,5.08125,3.03731,-0.00668877
213,5.09651,3.04645,-0.00645493
213.5,5.11199,3.04482,-0.00646779
214,5.12705,3.03805,-0.00647022
214.5,5.14204,3.03628,-0.00647002
215,5.15729,3.03846,-0.00646998
215.5,5.17277,3.04199,-0.00647134
216,5.18787,3.04963,-0.00647327
216.5,5.20301,3.04941,-0.00743295
217,5.2179,3.04521,-0.00777827
217.5,5.23328,3.04292,-0.0077954
218,5.24865,3.04893,-0.00779036
218.5,5.26381,3.04738,-0.00778991
219,5.27858,3.04641,-0.00778999
219.5,5.29394,3.046,-0.00778998
220,5.30912,3.04724,-0.0077899
220.5,5.32403,3.04105,-0.007791
221,5.33967,3.04492,-0.00779706
221.5,5.35474,3.05148,-0.00774753
222,5.36988,3.05052,-0.00868269
222.5,5.38496,3.05198,-0.00913399
223,5.39981,3.05043,-0.00911351
223.5,5.41538,3.04901,-0.00910966
224,5.43038,3.04816,-0.00910993
224.5,5.44564,3.05047,-0.00910998
225,5.46089,3.05025,-0.0091096
225.5,5.47611,3.04811,-0.00911085
226,5.49095,3.05022,-0.00913058
226.5,5.50631,3.05375,-0.00907469
227,5.52149,3.05552,-0.0103442
227.5,5.5368,3.05009,-0.0104202
228,5.55163,3.05057,-0.0104204
228.5,5.56702,3.05077,-0.01042
229,5.58178,3.05116,-0.0104201
229.5,5.59693,3.05132,-0.01042
230,5.61228,3.05557,-0.0104127
230.5,5.62746,3.04732,-0.0107885
231,5.64243,3.05528,-0.0118203
231.5,5.65735,3.05478,-0.0117412
232,5.67287,3.05404,-0.0117402
232.5,5.6878,3.05616,-0.0117433
233,5.70303,3.05531,-0.0127106
233.5,5.71823,3.05195,-0.0130441
234,5.73325,3.05258,-0.0130671
234.5,5.74832,3.05739,-0.0130664
235,5.76367,3.06309,-0.0129672
235.5,5.77852,3.06287,-0.0141555
236,5.79379,3.07174,-0.0143752
236.5,5.80887,3.06613,-0.0143704
237,5.82417,3.0612,-0.01437
237.5,5.83908,3.06106,-0.0143708
238,5.85443,3.06244,-0.0143638
238.5,5.86928,3.06746,-0.014323
239,5.88439,3.06165,-0.0150988
239.5,5.89925,3.06511,-0.0156915
240,5.91476,3.0669,-0.0157192
240.5,5.92988,3.07063,-0.0159426
241,5.94457,3.07462,-0.0167334
241.5,5.96006,3.07002,-0.0166872
242,5.97507,3.06704,-0.0166799
242.5,5.99017,3.07121,-0.0166877
243,6.0054,3.06617,-0.0166449
243.5,6.02055,3.06733,-0.0176607
244,6.03568,3.06857,-0.018126
244.5,6.05071,3.06651,-0.0181035
245,6.06577,3.07121,-0.0183726
245.5,6.08084,3.0689,-0.0191441
246,6.09575,3.06932,-0.0190875
246.5,6.11107,3.06644,-0.0190896
247,6.12586,3.06428,-0.019088
247.5,6.14112,3.06286,-0.0190471
248,6.15595,3.06916,-0.0196613
248.5,6.1712,3.06884,-0.020457
249,6.18644,3.06852,-0.0204165
249.5,6.2014,3.06772,-0.020805
250,6.2166,3.06579,-0.0217284
250.5,6.2317,3.06136,-0.0217402
251,6.2469,3.06679,-0.0217264
251.5,6.26182,3.06778,-0.0227773
252,6.27711,3.0655,-0.0230496
252.5,6.29199,3.06454,-0.0229683
253,6.30717,3.06995,-0.0240434
253.5,6.32197,3.0685,-0.0244994
254,6.3372,3.0548,-0.0244757
254.5,6.35232,3.06419,-0.0255981
255,6.36717,3.06489,-0.0251156
255.5,6.3824,3.06714,-0.0247076
256,6.39765,3.06447,-0.0258564
256.5,6.41252,3.05646,-0.0262103
257,6.42754,3.05555,-0.0269509
257.5,6.44283,3.05423,-0.0278481
258,6.45788,3.05481,-0.0278042
258.5,6.47291,3.05514,-0.0298244
259,6.4879,3.05636,-0.0303685
259.5,6.50295,3.05261,-0.0307439
260,6.51822,3.04781,-0.0317521
260.5,6.5332,3.04842,-0.0317028
261,6.54827,3.04038,-0.0316969
261.5,6.56326,3.03877,-0.0323252
262,6.57833,3.04026,-0.0330482
262.5,6.59332,3.03861,-0.0329877
263,6.60827,3.03519,-0.0338049
263.5,6.62337,3.03423,-0.0343884
264,6.6385,3.03428,-0.034879
264.5,6.65345,3.02837,-0.0353142
265,6.66869,3.03153,-0.0347135
265.5,6.68405,3.03225,-0.0360689
266,6.69872,3.02876,-0.0360853
266.5,6.71382,3.02546,-0.036785
267,6.72897,3.01818,-0.0374287
267.5,6.74407,3.01626,-0.0378261
268,6.75859,3.01223,-0.0390061
268.5,6.77367,3.00932,-0.0393276
269,6.78921,3.00195,-0.0405579
269.5,6.80393,3.00532,-0.0408831
270,6.81907,2.99961,-0.0421158
270.5,6.83368,2.99647,-0.0420319
271,6.84889,2.99346,-0.0425545
271.5,6.86442,2.99097,-0.0434224
272,6.87955,2.98528,-0.0433828
272.5,6.89451,2.98368,-0.0445705
273,6.90956,2.98096,-0.0447567
273.5,6.9246,2.98049,-0.0461522
274,6.93978,2.97921,-0.0454692
274.5,6.95487,2.97239,-0.0463188
275,6.9697,2.97055,-0.0464225
275.5,6.98501,2.97234,-0.0466009
276,6.99983,2.97226,-0.0480588
276.5,7.01488,2.96409,-0.0484143
277,7.03008,2.96309,-0.0495122
277.5,7.04506,2.96194,-0.0504759
278,7.06016,2.9563,-0.0511397
278.5,7.0754,2.95273,-0.0516748
279,7.09031,2.95083,-0.0525155
279.5,7.10532,2.9426,-0.0524856
280,7.12029,2.94236,-0.0528763
280.5,7.13542,2.94232,-0.0542318
281,7.15036,2.94088,-0.0545716
281.5,7.16578,2.93406,-0.055874
282,7.18052,2.92916,-0.0567601
282.5,7.19577,2.9266,-0.0577461
283,7.2107,2.92618,-0.0589681
283.5,7.22567,2.92119,-0.0594545
284,7.24092,2.91965,-0.0609019
284.5,7.25634,2.91984,-0.0610106
285,7.27096,2.91148,-0.0623069
285.5,7.28631,2.90968,-0.0624457
286,7.30138,2.90701,-0.0635722
286.5,7.3157,2.90406,-0.0639896
287,7.33091,2.9029,-0.0650799
287.5,7.34569,2.90551,-0.06548
288,7.36138,2.903,-0.0670615
288.5,7.37687,2.89464,-0.0680438
289,7.39151,2.89854,-0.0690948
289.5,7.4064,2.89351,-0.0696475
290,7.42209,2.88535,-0.0706216
290.5,7.43726,2.88332,-0.0712756
291,7.45235,2.88286,-0.0720961
291.5,7.46733,2.87489,-0.0732494
292,7.48279,2.87164,-0.0737428
292.5,7.49708,2.86723,-0.0752038
293,7.51314,2.86342,-0.0752279
293.5,7.528,2.86528,-0.0770193
294,7.54299,2.86489,-0.0772882
294.5,7.55787,2.86478,-0.0787295
295,7.57294,2.85841,-0.0798918
295.5,7.58844,2.85546,-0.0790869
296,7.60331,2.85019,-0.0804166
296.5,7.61836,2.85037,-0.0807187
297,7.63354,2.84457,-0.0820021
297.5,7.64881,2.84163,-0.0822645
298,7.66402,2.83713,-0.0835958
298.5,7.67881,2.83518,-0.0839085
299,7.6939,2.83082,-0.0854006
299.5,7.70899,2.83507,-0.0865016
300,7.72416,2.83594,-0.0874208
300.5,7.73952,2.83533,-0.0889977
301,7.75458,2.83252,-0.089731
301.5,7.7696,2.82995,-0.0907004
302,7.78445,2.83146,-0.0922364
302.5,7.79986,2.8279,-0.0931465
303,7.81514,2.82289,-0.0941483
303.5,7.83008,2.82412,-0.0957779
304,7.84527,2.82783,-0.0966402
304.5,7.86064,2.82366,-0.0979045
305,7.87554,2.81955,-0.0993352
305.5,7.89067,2.81654,-0.0998033
306,7.9058,2.81762,-0.101172
306.5,7.92105,2.81634,-0.102486
307,7.93624,2.8159,-0.103338
307.5,7.95128,2.81534,-0.105065
308,7.96646,2.80959,-0.105653
308.5,7.9817,2.80896,-0.106673
309,7.99674,2.80676,-0.107882
309.5,8.01158,2.81061,-0.108709
310,8.0272,2.80835,-0.110131
310.5,8.04211,2.81143,-0.110661
311,8.05728,2.81282,-0.111774
311.5,8.07238,2.8107,-0.113303
312,8.08767,2.80778,-0.114584
312.5,8.10297,2.80287,-0.115567
313,8.11759,2.8048,-0.116606
313.5,8.13314,2.80261,-0.118106
314,8.14792,2.80128,-0.11889
314.5,8.16336,2.79662,-0.120492
315,8.17836,2.78584,-0.122451
315.5,8.1936,2.78764,-0.12386
316,8.20875,2.79081,-0.125226
316.5,8.22384,2.79106,-0.126752
317,8.2391,2.78609,-0.128433
317.5,8.25427,2.78277,-0.130261
318,8.26938,2.77962,-0.131931
318.5,8.28465,2.78236,-0.132995
319,8.30003,2.7804,-0.134838
319.5,8.31461,2.78112,-0.135194
320,8.33025,2.77986,-0.136789
320.5,8.34526,2.77737,-0.138047
321,8.36028,2.77299,-0.13936
321.5,8.37554,2.76547,-0.140909
322,8.39069,2.76525,-0.142742
322.5,8.40619,2.7645,-0.144702
323,8.42121,2.76059,-0.146056
323.5,8.43654,2.76281,-0.147608
324,8.45177,2.76314,-0.149258
324.5,8.46666,2.75837,-0.152065
325,8.48185,2.76133,-0.1536
325.5,8.49729,2.76167,-0.155265
326,8.51227,2.76008,-0.157169
326.5,8.52757,2.75217,-0.159137
327,8.54275,2.74912,-0.160879
327.5,8.55796,2.73653,-0.162419
328,8.57313,2.73728,-0.163145
328.5,8.58842,2.74128,-0.164937
329,8.60356,2.7343,-0.166532
329.5,8.61886,2.72693,-0.168067
330,8.63428,2.72711,-0.170298
330.5,8.64915,2.72901,-0.172114
331,8.66425,2.73011,-0.174441
331.5,8.67958,2.72225,-0.176496
332,8.69438,2.72221,-0.177806
332.5,8.70935,2.71525,-0.179945
333,8.72465,2.71216,-0.181511
333.5,8.73968,2.70592,-0.182783
334,8.75593,2.70383,-0.184328
334.5,8.77118,2.70423,-0.186384
335,8.78596,2.70277,-0.18857
335.5,8.80145,2.698,-0.190084
336,8.81668,2.69492,-0.19426
336.5,8.8319,2.69134,-0.196608
337,8.84732,2.68797,-0.198593
337.5,8.86236,2.68866,-0.201098
338,8.8778,2.6851,-0.202764
338.5,8.89283,2.67772,-0.204794
339,8.9082,2.68203,-0.206475
339.5,8.92339,2.6802,-0.20842
340,8.93904,2.67128,-0.21067
340.5,8.95374,2.66848,-0.211451
341,8.96935,2.66265,-0.214279
341.5,8.98437,2.66169,-0.217168
342,8.99962,2.66076,-0.218898
342.5,9.0146,2.65346,-0.221459
343,9.03059,2.6471,-0.223573
343.5,9.04558,2.64403,-0.2257
344,9.06104,2.64094,-0.227929
344.5,9.076,2.64198,-0.229713
345,9.09132,2.63846,-0.232623
345.5,9.1068,2.63106,-0.234885
346,9.12191,2.6345,-0.237548
346.5,9.13733,2.63352,-0.240578
347,9.15271,2.62558,-0.242183
347.5,9.16801,2.63228,-0.244582
348,9.18307,2.62872,-0.246933
348.5,9.19848,2.62356,-0.249055
349,9.21374,2.61245,-0.25218
349.5,9.22903,2.61404,-0.255018
350,9.24463,2.61086,-0.258194
350.5,9.25969,2.60504,-0.260857
351,9.2751,2.60421,-0.263142
351.5,9.29034,2.60407,-0.266258
352,9.30566,2.60379,-0.268734
352.5,9.32088,2.60187,-0.271936
353,9.33634,2.5989,-0.275311
353.5,9.35171,2.59151,-0.276948
354,9.3672,2.58834,-0.279856
354.5,9.38243,2.59075,-0.282759
355,9.39735,2.58831,-0.285487
355.5,9.41274,2.57742,-0.289354
356,9.42841,2.57766,-0.292255
356.5,9.44316,2.58303,-0.295391
357,9.45856,2.58565,-0.297938
357.5,9.47386,2.57832,-0.300319
358,9.48918,2.57458,-0.304159
358.5,9.50449,2.57008,-0.306547
359,9.51987,2.56376,-0.30992
359.5,9.53579,2.56505,-0.313885
360,9.55088,2.56202,-0.31604
360.5,9.56649,2.56552,-0.319901
361,9.58196,2.56149,-0.323385
361.5,9.59724,2.55993,-0.326194
362,9.61243,2.55464,-0.329475
362.5,9.62811,2.55254,-0.331856
363,9.64316,2.54548,-0.333913
363.5,9.65865,2.53884,-0.33703
364,9.67402,2.54025,-0.339988
364.5,9.68946,2.5373,-0.344659
365,9.70468,2.5365,-0.347532
365.5,9.72017,2.53378,-0.352244
366,9.73565,2.53107,-0.356918
366.5,9.75097,2.53239,-0.360619
367,9.7667,2.5346,-0.364638
367.5,9.7817,2.52751,-0.366811
368,9.79708,2.52462,-0.369648
368.5,9.81254,2.52509,-0.372675
369,9.82788,2.52481,-0.376175
369.5,9.84327,2.51691,-0.380083
370,9.85866,2.51725,-0.384992
370.5,9.8741,2.5193,-0.388435
371,9.88961,2.51581,-0.392766
371.5,9.90475,2.51424,-0.396847
372,9.92033,2.51719,-0.40041
372.5,9.93558,2.51081,-0.404614
373,9.95131,2.50348,-0.408147
373.5,9.96635,2.49901,-0.411922
374,9.98183,2.49547,-0.416568
374.5,9.99724,2.49027,-0.419974
375,10.0131,2.48707,-0.424489
375.5,10.0281,2.48512,-0.427939
376,10.0436,2.48203,-0.431865
376.5,10.0589,2.477,-0.436688
377,10.0745,2.47556,-0.440668
377.5,10.0898,2.47275,-0.444975
378,10.1053,2.47498,-0.448911
378.5,10.1206,2.47045,-0.452541
379,10.1364,2.46411,-0.457389
379.5,10.1516,2.46479,-0.461213
380,10.1671,2.4604,-0.465621
380.5,10.1828,2.45669,-0.470186
381,10.198,2.45276,-0.47412
381.5,10.2133,2.44301,-0.479242
382,10.2291,2.44645,-0.483569
382.5,10.2443,2.44781,-0.487784
383,10.2599,2.44949,-0.492682
383.5,10.2752,2.44257,-0.496459
384,10.291,2.43362,-0.50165
384.5,10.3063,2.43241,-0.506145
385,10.3213,2.42983,-0.51028
385.5,10.3373,2.42126,-0.515396
386,10.3527,2.41959,-0.518955
386.5,10.3683,2.42187,-0.523561
387,10.3839,2.42189,-0.528603
387.5,10.3987,2.41655,-0.53277
388,10.4138,2.40631,-0.538321
388.5,10.4299,2.39829,-0.542707
389,10.4455,2.39234,-0.547189
389.5,10.4612,2.38922,-0.552372
390,10.4757,2.3828,-0.556104
390.5,10.4914,2.37776,-0.561385
391,10.5075,2.37229,-0.566274
391.5,10.523,2.36975,-0.571073
392,10.5385,2.36785,-0.576687
392.5,10.5537,2.36662,-0.580624
393,10.5694,2.35811,-0.585805
393.5,10.5851,2.3518,-0.590715
394,10.6005,2.34704,-0.595119
394.5,10.6161,2.34521,-0.600871
395,10.6314,2.34665,-0.605092
395.5,10.647,2.34233,-0.610292
396,10.6624,2.34198,-0.615803
396.5,10.6781,2.33619,-0.620267
397,10.6936,2.33585,-0.625257
397.5,10.7092,2.32498,-0.629298
398,10.7247,2.32031,-0.633831
398.5,10.7403,2.31817,-0.638284
399,10.7559,2.31415,-0.6424
399.5,10.7714,2.31574,-0.647998
400,10.7869,2.3126,-0.653071
400.5,10.8024,2.30687,-0.658166
401,10.8182,2.3033,-0.665354
401.5,10.8335,2.30405,-0.669535
402,10.849,2.2985,-0.674866
402.5,10.8645,2.29801,-0.680109
403,10.8804,2.29552,-0.684955
403.5,10.8958,2.29113,-0.690871
404,10.9116,2.29486,-0.695231
404.5,10.9264,2.29646,-0.700066
405,10.942,2.29076,-0.705684
405.5,10.9578,2.2881,-0.709992
406,10.9735,2.2829,-0.715149
406.5,10.9894,2.28443,-0.719407
407,11.0049,2.28443,-0.724414
407.5,11.0204,2.27963,-0.730175
408,11.036,2.28015,-0.734745
408.5,11.0517,2.27918,-0.740638
409,11.0672,2.27429,-0.745584
409.5,11.083,2.27549,-0.750777
410,11.0982,2.28184,-0.756908
410.5,11.1136,2.28017,-0.761118
411,11.1296,2.27471,-0.765944
411.5,11.1451,2.27335,-0.770026
412,11.1606,2.27675,-0.774263
412.5,11.1763,2.27147,-0.779973
413,11.1918,2.26983,-0.784439
413.5,11.2075,2.26159,-0.789639
414,11.2232,2.26116,-0.794683
414.5,11.239,2.24737,-0.798912
415,11.2541,2.25255,-0.804057
415.5,11.2697,2.2455,-0.808418
416,11.2855,2.24165,-0.813374
416.5,11.3011,2.23311,-0.820216
417,11.3169,2.23185,-0.824985
417.5,11.3321,2.22083,-0.830868
418,11.3477,2.20863,-0.835626
418.5,11.3635,2.20216,-0.840292
419,11.3793,2.19572,-0.845291
419.5,11.3949,2.19959,-0.849373
420,11.4103,2.19936,-0.853373
420.5,11.4258,2.18807,-0.857396
421,11.4416,2.18204,-0.861978
421.5,11.4572,2.17474,-0.867461
422,11.4732,2.16877,-0.871821
422.5,11.4888,2.16693,-0.876778
423,11.5044,2.16851,-0.881191
423.5,11.5196,2.1648,-0.8853
424,11.5354,2.15206,-0.890879
424.5,11.5511,2.14501,-0.895162
425,11.567,2.1403,-0.900088
425.5,11.5819,2.13452,-0.904913
426,11.598,2.13079,-0.909288
426.5,11.6136,2.13137,-0.91427
427,11.6294,2.12074,-0.918011
427.5,11.6449,2.11471,-0.922165
428,11.6605,2.10905,-0.927105
428.5,11.6761,2.1085,-0.931356
429,11.692,2.10651,-0.937162
429.5,11.7076,2.09789,-0.942105
430,11.7235,2.09017,-0.947144
430.5,11.7389,2.08864,-0.952561
431,11.7549,2.08749,-0.956384
431.5,11.7705,2.08591,-0.96096
432,11.7858,2.08866,-0.965046
432.5,11.8015,2.08933,-0.969268
433,11.8175,2.08897,-0.974453
433.5,11.8332,2.09612,-0.978189
434,11.8487,2.10245,-0.982807
434.5,11.8646,2.10255,-0.987375
435,11.8804,2.10058,-0.991698
435.5,11.8958,2.10668,-0.99701
436,11.9116,2.11255,-1.00098
436.5,11.9274,2.12386,-1.00574
437,11.9432,2.12753,-1.01038
437.5,11.9586,2.1281,-1.0143
438,11.9748,2.12949,-1.01934
438.5,11.9903,2.12762,-1.02294
439,12.0061,2.12068,-1.02698
439.5,12.022,2.13261,-1.03123
440,12.0374,2.1363,-1.03492
440.5,12.0534,2.1481,-1.04014
441,12.0691,2.15584,-1.0445
441.5,12.0848,2.16805,-1.04843
442,12.1002,2.16575,-1.05371
442.5,12.116,2.16626,-1.05769
443,12.1319,2.17431,-1.06273
443.5,12.1476,2.18022,-1.06668
444,12.1633,2.18739,-1.07091
444.5,12.179,2.20256,-1.07585
445,12.1947,2.20194,-1.07954
445.5,12.211,2.21623,-1.08422
446,12.2266,2.22988,-1.08861
446.5,12.2423,2.2373,-1.09322
447,12.2582,2.24727,-1.09882
447.5,12.274,2.26544,-1.10252
448,12.2896,2.27706,-1.10729
448.5,12.3057,2.29248,-1.11292
449,12.3213,2.30594,-1.11736
449.5,12.337,2.31444,-1.12251
450,12.353,2.33587,-1.12623
450.5,12.3682,2.34996,-1.13083
451,12.3849,2.36402,-1.13573
451.5,12.4003,2.37867,-1.13997
452,12.4159,2.39722,-1.14544
452.5,12.4322,2.41731,-1.14975
453,12.4477,2.43863,-1.15462
453.5,12.4632,2.46022,-1.15955
454,12.4794,2.47643,-1.16386
454.5,12.4957,2.5066,-1.16953
455,12.5114,2.5164,-1.17388
455.5,12.5275,2.55663,-1.17926
456,12.543,2.56921,-1.18479
456.5,12.5592,2.60282,-1.18938
457,12.5751,2.62941,-1.19492
457.5,12.5909,2.65582,-1.19912
458,12.6066,2.69226,-1.20395
458.5,12.6225,2.72172,-1.20992
459,12.6385,2.75578,-1.21509
459.5,12.6548,2.77905,-1.22181
460,12.6703,2.80897,-1.2267
460.5,12.6864,2.8548,-1.23282
461,12.7024,2.87861,-1.23909
461.5,12.7179,2.92333,-1.24429
462,12.7341,2.95558,-1.25126
462.5,12.75,2.99316,-1.25668
463,12.7661,3.02964,-1.26308
463.5,12.7821,3.06911,-1.26968
464,12.7977,3.10453,-1.27508
464.5,12.8142,3.14875,-1.28263
465,12.8299,3.18605,-1.28898
465.5,12.846,3.23089,-1.29631
466,12.8619,3.27199,-1.30436
466.5,12.8779,3.31599,-1.31067
467,12.894,3.36515,-1.3176
467.5,12.9098,3.40927,-1.32399
468,12.926,3.45368,-1.33156
468.5,12.942,3.50038,-1.33996
469,12.9578,3.54858,-1.34674
469.5,12.974,3.59136,-1.35595
470,12.9899,3.64286,-1.36353
470.5,13.006,3.69918,-1.37229
471,13.0219,3.74651,-1.38224
471.5,13.0384,3.79357,-1.3909
472,13.0542,3.85121,-1.40125
472.5,13.0701,3.89633,-1.4089
473,13.0866,3.95414,-1.4183
473.5,13.1024,3.99854,-1.42888
474,13.1185,4.05379,-1.43826
474.5,13.1347,4.11842,-1.45024
475,13.1505,4.15626,-1.45936
475.5,13.167,4.21552,-1.4704
476,13.1827,4.27746,-1.48199
476.5,13.1992,4.32989,-1.49241
477,13.215,4.38415,-1.50554
477.5,13.2311,4.43657,-1.51593
478,13.2473,4.48794,-1.52835
478.5,13.2634,4.54114,-1.54127
479,13.2797,4.58962,-1.55263
479.5,13.2955,4.64138,-1.56699
480,13.3121,4.6941,-1.57875
480.5,13.3283,4.74163,-1.59278
481,13.3441,4.79841,-1.60705
481.5,13.3605,4.84526,-1.62029
482,13.3765,4.8794,-1.63725
482.5,13.3926,4.93245,-1.64928
483,13.4087,4.97189,-1.66537
483.5,13.4249,5.01745,-1.68151
484,13.441,5.05677,-1.69568
484.5,13.4572,5.08814,-1.71331
485,13.4736,5.12312,-1.72743
485.5,13.4894,5.14394,-1.74479
486,13.5056,5.1701,-1.7621
486.5,13.5218,5.18804,-1.77972
487,13.5379,5.21247,-1.79922
487.5,13.5539,5.22335,-1.81396
488,13.5701,5.23883,-1.83268
488.5,13.5861,5.24556,-1.85011
489,13.6021,5.25272,-1.86727
489.5,13.6181,5.25867,-1.88831
490,13.6343,5.2557,-1.90465
490.5,13.6502,5.25281,-1.9251
491,13.6664,5.24436,-1.94447
491.5,13.6826,5.2297,-1.96214
492,13.6981,5.22488,-1.98381
492.5,13.7146,5.217,-2.00092
493,13.7305,5.19622,-2.02159
493.5,13.7467,5.17164,-2.04076
494,13.7627,5.14791,-2.05958
494.5,13.7783,5.11447,-2.08208
495,13.7944,5.07482,-2.09966
495.5,13.8103,5.03067,-2.12132
496,13.826,4.97343,-2.14107
496.5,13.8417,4.92251,-2.16015
497,13.8575,4.85188,-2.18379
497.5,13.874,4.78162,-2.202
498,13.8899,4.69982,-2.22356
498.5,13.9054,4.61682,-2.24272
499,13.9215,4.51975,-2.26112
499.5,13.9371,4.42782,-2.28308
500,13.9528,4.31823,-2.2991
500.5,13.9685,4.20739,-2.31859
501,13.9843,4.08669,-2.33775
501.5,14.0001,3.95404,-2.3545
502,14.0157,3.82081,-2.37467
502.5,14.0314,3.69064,-2.39018
503,14.0468,3.54063,-2.40795
503.5,14.0626,3.38522,-2.42678
504,14.0779,3.23882,-2.44145
504.5,14.0931,3.08206,-2.45889
505,14.1081,2.92026,-2.47231
505.5,14.1236,2.7541,-2.48672
506,14.1392,2.57765,-2.5029
506.5,14.155,2.39506,-2.51513
507,14.1707,2.20956,-2.53011
507.5,14.1859,2.03165,-2.54283
508,14.2016,1.82962,-2.55483
508.5,14.2168,1.63701,-2.56801
509,14.2322,1.44741,-2.57742
509.5,14.2473,1.25227,-2.58811
510,14.2626,1.06047,-2.599
510.5,14.2779,0.87094,-2.60757
511,14.2933,0.688348,-2.61779
511.5,14.3087,0.512033,-2.62571
512,14.324,0.354469,-2.63366
512.5,14.3393,0.207407,-2.64179
513,14.355,0.0661607,-2.64757
513.5,14.3704,-0.0596959,-2.65408
514,14.386,-0.188366,-2.65924
514.5,14.4013,-0.289921,-2.66383
515,14.4167,-0.400753,-2.66907
515.5,14.4327,-0.505951,-2.67245
516,14.4485,-0.601077,-2.67612
516.5,14.4639,-0.687822,-2.67912
517,14.4794,-0.778521,-2.68229
517.5,14.495,-0.858654,-2.68456
518,14.5108,-0.931241,-2.6871
518.5,14.5264,-1.01496,-2.68859
519,14.542,-1.08621,-2.69027
519.5,14.5579,-1.15208,-2.69198
520,14.5736,-1.2146,-2.6925
520.5,14.5891,-1.28183,-2.69439
521,14.6052,-1.33381,-2.69486
521.5,14.6209,-1.39439,-2.696
522,14.6367,-1.43778,-2.69594
522.5,14.6523,-1.48736,-2.69645
523,14.6685,-1.5137,-2.69726
523.5,14.6837,-1.55687,-2.69724
524,14.7,-1.59368,-2.69719
524.5,14.7164,-1.62125,-2.69819
525,14.7322,-1.65253,-2.69859
525.5,14.748,-1.67433,-2.69861
526,14.7641,-1.69203,-2.69976
526.5,14.7803,-1.71401,-2.69988
527,14.796,-1.72809,-2.69989
527.5,14.8122,-1.73834,-2.69989
528,14.8282,-1.76152,-2.69989
528.5,14.8441,-1.76119,-2.69991
529,14.8602,-1.77673,-2.69933
529.5,14.8764,-1.78593,-2.69889
530,14.8923,-1.79441,-2.6989
530.5,14.9083,-1.80402,-2.6989
531,14.9246,-1.81196,-2.6989
531.5,14.9406,-1.81576,-2.6989
532,14.9568,-1.82887,-2.6989
532.5,14.9726,-1.83676,-2.6989
533,14.9889,-1.83604,-2.6989
533.5,15.0047,-1.84688,-2.6989
534,15.0208,-1.84751,-2.6989
534.5,15.0368,-1.85415,-2.6989
535,15.053,-1.85573,-2.69923
535.5,15.0689,-1.8598,-2.70026
536,15.0849,-1.86729,-2.70021
536.5,15.101,-1.86766,-2.70022
537,15.1176,-1.86251,-2.70022
537.5,15.1337,-1.87533,-2.70022
538,15.1499,-1.8777,-2.70022
538.5,15.1659,-1.8823,-2.70022
539,15.1819,-1.88742,-2.70022
539.5,15.1979,-1.88527,-2.70022
540,15.214,-1.88601,-2.70023
540.5,15.2304,-1.89223,-2.70038
541,15.2463,-1.89507,-2.70152
541.5,15.2625,-1.89868,-2.70153
542,15.2788,-1.90521,-2.70154
542.5,15.2948,-1.91126,-2.70154
543,15.3108,-1.91356,-2.70154
543.5,15.3271,-1.91314,-2.70154
544,15.3433,-1.91381,-2.70154
544.5,15.3596,-1.92558,-2.70154
545,15.3755,-1.92615,-2.70154
545.5,15.3921,-1.92929,-2.70154
546,15.408,-1.93264,-2.70154
546.5,15.4241,-1.94145,-2.70153
547,15.4404,-1.95055,-2.7015
547.5,15.4564,-1.95265,-2.70119
548,15.4726,-1.95754,-2.70121
548.5,15.4889,-1.96041,-2.70121
549,15.5052,-1.97317,-2.70121
549.5,15.5209,-1.98057,-2.70121
550,15.5375,-1.98795,-2.70121
550.5,15.5534,-1.98509,-2.70121
551,15.5697,-1.98824,-2.70121
551.5,15.586,-2.00211,-2.70121
552,15.6019,-2.00865,-2.70121
552.5,15.6184,-2.01801,-2.70121
553,15.6342,-2.0169,-2.70121
553.5,15.6506,-2.0341,-2.70121
554,15.6666,-2.0363,-2.70121
554.5,15.6828,-2.04377,-2.70121
555,15.699,-2.0429,-2.70121
555.5,15.7154,-2.04495,-2.70121
556,15.7314,-2.05502,-2.70121
556.5,15.7477,-2.06412,-2.70121
557,15.7637,-2.07552,-2.70121
557.5,15.7801,-2.07315,-2.70121
558,15.7962,-2.08208,-2.70121
558.5,15.8125,-2.08778,-2.70121
559,15.8287,-2.09742,-2.70121
559.5,15.8449,-2.09474,-2.70121
560,15.8611,-2.09842,-2.7012
560.5,15.8775,-2.10482,-2.70122
561,15.8935,-2.11282,-2.70089
561.5,15.9097,-2.11883,-2.70051
562,15.9258,-2.12227,-2.70055
562.5,15.9418,-2.13991,-2.70055
563,15.9583,-2.14326,-2.70055
563.5,15.974,-2.14717,-2.70055
564,15.9906,-2.15387,-2.70055
564.5,16.0073,-2.15766,-2.70055
565,16.0234,-2.16541,-2.70055
565.5,16.0393,-2.17104,-2.70055
566,16.0555,-2.18559,-2.70055
566.5,16.0719,-2.18638,-2.70056
567,16.0882,-2.19838,-2.70059
567.5,16.1044,-2.2034,-2.70174
568,16.1207,-2.20385,-2.70185
568.5,16.1366,-2.21093,-2.70186
569,16.1532,-2.22595,-2.70186
569.5,16.1696,-2.22612,-2.70186
570,16.1857,-2.23178,-2.70186
570.5,16.202,-2.24176,-2.70186
571,16.218,-2.24986,-2.70186
571.5,16.2344,-2.25515,-2.70186
572,16.2507,-2.26298,-2.70184
572.5,16.2671,-2.27028,-2.70182
573,16.2833,-2.27239,-2.70116
573.5,16.2995,-2.28034,-2.70119
574,16.3157,-2.2902,-2.70121
574.5,16.3322,-2.29297,-2.70154
575,16.348,-2.29672,-2.70185
575.5,16.3646,-2.30568,-2.70186
576,16.381,-2.31011,-2.70186
576.5,16.3971,-2.32007,-2.70186
577,16.4136,-2.32331,-2.70208
577.5,16.4298,-2.32585,-2.70218
578,16.446,-2.3256,-2.70219
578.5,16.4623,-2.32579,-2.70219
579,16.4787,-2.33174,-2.70219
579.5,16.495,-2.34434,-2.70219
580,16.5114,-2.34818,-2.70219
580.5,16.5272,-2.34529,-2.70219
581,16.5433,-2.35104,-2.70219
581.5,16.5599,-2.3526,-2.70219
582,16.5767,-2.34924,-2.70219
582.5,16.5929,-2.3529,-2.70219
583,16.6092,-2.35675,-2.70219
583.5,16.6256,-2.35601,-2.70219
584,16.6418,-2.36108,-2.70181
584.5,16.6579,-2.3607,-2.70081
585,16.6748,-2.36258,-2.70087
585.5,16.6908,-2.36244,-2.70087
586,16.7075,-2.36268,-2.70087
586.5,16.7234,-2.36073,-2.70087
587,16.74,-2.36505,-2.70087
587.5,16.7562,-2.37118,-2.70087
588,16.7726,-2.37219,-2.70105
588.5,16.7891,-2.37817,-2.70111
589,16.8056,-2.37366,-2.70222
589.5,16.8217,-2.37689,-2.70252
590,16.8381,-2.3766,-2.70252
590.5,16.8543,-2.3744,-2.70252
591,16.8709,-2.37462,-2.70252
591.5,16.8873,-2.37939,-2.70252
592,16.9036,-2.38353,-2.70252
592.5,16.9201,-2.37792,-2.70249
593,16.9363,-2.37463,-2.70242
593.5,16.9528,-2.38048,-2.70121
594,16.9693,-2.37925,-2.7012
594.5,16.9856,-2.37574,-2.7012
595,17.002,-2.37386,-2.7012
595.5,17.0183,-2.36948,-2.7012
596,17.0349,-2.36993,-2.70119
596.5,17.0511,-2.38042,-2.70195
597,17.0676,-2.38272,-2.70251
597.5,17.0836,-2.37476,-2.70253
598,17.1,-2.36718,-2.70272
598.5,17.1165,-2.37419,-2.70285
599,17.1336,-2.37501,-2.70275
599.5,17.1496,-2.3696,-2.70395
600,17.1663,-2.37116,-2.70384
600.5,17.1827,-2.37051,-2.70384
601,17.1986,-2.37066,-2.70384
601.5,17.2151,-2.37801,-2.70384
602,17.2315,-2.36967,-2.70384
602.5,17.2487,-2.37089,-2.70384
603,17.2644,-2.36785,-2.70384
603.5,17.2809,-2.37472,-2.70384
604,17.2973,-2.37136,-2.70384
604.5,17.3138,-2.37289,-2.70384
605,17.3303,-2.37007,-2.70389
605.5,17.3469,-2.37295,-2.70297
606,17.3634,-2.36656,-2.70251
606.5,17.3804,-2.36322,-2.70252
607,17.397,-2.36903,-2.70252
607.5,17.4132,-2.37181,-2.70252
608,17.4297,-2.38418,-2.70252
608.5,17.4462,-2.37739,-2.70252
609,17.4627,-2.37263,-2.70252
609.5,17.4793,-2.36906,-2.70252
610,17.4956,-2.3708,-2.70252
610.5,17.5123,-2.37158,-2.70252
611,17.5287,-2.36891,-2.70252
611.5,17.5452,-2.37504,-2.70252
612,17.5618,-2.37517,-2.70252
612.5,17.5785,-2.37888,-2.70252
613,17.5949,-2.36958,-2.70252
613.5,17.6115,-2.37127,-2.70252
614,17.6278,-2.37111,-2.70252
614.5,17.6446,-2.37563,-2.70252
615,17.6612,-2.37015,-2.70252
615.5,17.6776,-2.36914,-2.70252
616,17.694,-2.36832,-2.70252
616.5,17.7107,-2.36896,-2.70252
617,17.7273,-2.36302,-2.70252
617.5,17.744,-2.35934,-2.70252
618,17.7602,-2.36042,-2.70253
618.5,17.7769,-2.35609,-2.70252
619,17.7934,-2.35545,-2.70287
619.5,17.81,-2.36202,-2.70285
620,17.8263,-2.35638,-2.70285
620.5,17.8432,-2.356,-2.70286
621,17.8596,-2.36077,-2.70293
621.5,17.8755,-2.36768,-2.70314
622,17.8922,-2.3642,-2.7039
622.5,17.9093,-2.35664,-2.70384
623,17.9258,-2.35268,-2.70384
623.5,17.9425,-2.34676,-2.70384
624,17.959,-2.35252,-2.70384
624.5,17.9757,-2.35489,-2.70384
625,17.9919,-2.35435,-2.70384
625.5,18.0084,-2.3521,-2.70385
626,18.0251,-2.35352,-2.70501
626.5,18.0417,-2.35366,-2.70513
627,18.0583,-2.35276,-2.70515
627.5,18.0743,-2.35657,-2.70515
628,18.0911,-2.36461,-2.70514
628.5,18.1075,-2.36007,-2.70513
629,18.1248,-2.36699,-2.70403
629.5,18.1412,-2.35845,-2.70313
630,18.1577,-2.35881,-2.70318
630.5,18.1744,-2.35582,-2.70318
631,18.1909,-2.35191,-2.70318
631.5,18.2067,-2.35238,-2.70318
632,18.2239,-2.351,-2.70318
632.5,18.241,-2.35469,-2.70318
633,18.2568,-2.35911,-2.70318
633.5,18.2738,-2.36248,-2.70318
634,18.2905,-2.3626,-2.70318
634.5,18.3072,-2.36352,-2.70318
635,18.3236,-2.35949,-2.70318
635.5,18.3405,-2.3569,-2.70318
636,18.3567,-2.36605,-2.70318
636.5,18.3735,-2.37165,-2.70318
637,18.3901,-2.3687,-2.70318
637.5,18.4066,-2.37389,-2.70318
638,18.423,-2.37585,-2.70318
638.5,18.4398,-2.37808,-2.70318
639,18.4564,-2.37241,-2.70318
639.5,18.4729,-2.38034,-2.70318
640,18.4892,-2.3867,-2.70318
640.5,18.5059,-2.39492,-2.70318
641,18.5223,-2.38557,-2.7032
641.5,18.5392,-2.38458,-2.70328
642,18.5559,-2.39314,-2.70401
642.5,18.5723,-2.39724,-2.70274
643,18.5887,-2.40172,-2.70285
643.5,18.6054,-2.4046,-2.70285
644,18.6222,-2.40295,-2.70285
644.5,18.6387,-2.40519,-2.70285
645,18.6552,-2.40789,-2.70285
645.5,18.6717,-2.40963,-2.70285
646,18.6876,-2.41379,-2.70285
646.5,18.7042,-2.40371,-2.70277
647,18.7209,-2.40316,-2.70413
647.5,18.7376,-2.4068,-2.7045
648,18.754,-2.40573,-2.7045
648.5,18.7706,-2.41109,-2.70453
649,18.7879,-2.41658,-2.70587
649.5,18.8044,-2.41336,-2.70581
650,18.8208,-2.41294,-2.70582
650.5,18.8373,-2.41736,-2.70581
651,18.8539,-2.41587,-2.70529
651.5,18.8704,-2.41516,-2.70449
652,18.8875,-2.41558,-2.7045
652.5,18.9039,-2.41542,-2.7045
653,18.9204,-2.41734,-2.7045
653.5,18.937,-2.41998,-2.7045
654,18.9535,-2.419,-2.7045
654.5,18.9703,-2.41963,-2.7045
655,18.9867,-2.42104,-2.7045
655.5,19.0028,-2.42419,-2.7045
656,19.0198,-2.42641,-2.7045
656.5,19.0364,-2.42642,-2.7045
657,19.0529,-2.42868,-2.7045
657.5,19.0694,-2.42766,-2.7045
658,19.0862,-2.4263,-2.7045
658.5,19.1027,-2.42685,-2.7045
659,19.1194,-2.4231,-2.7045
659.5,19.1356,-2.4291,-2.7045
660,19.1527,-2.43277,-2.7045
660.5,19.1691,-2.43016,-2.7045
661,19.1854,-2.43175,-2.7045
661.5,19.2016,-2.42612,-2.7045
662,19.219,-2.43368,-2.7045
662.5,19.2356,-2.42889,-2.7045
663,19.2519,-2.43166,-2.7045
663.5,19.2687,-2.43423,-2.70447
664,19.2852,-2.43405,-2.70557
664.5,19.3019,-2.43613,-2.70581
665,19.3186,-2.43478,-2.70582
665.5,19.3352,-2.44219,-2.70582
666,19.352,-2.44791,-2.70582
666.5,19.3682,-2.44729,-2.70582
667,19.3851,-2.45341,-2.70498
667.5,19.4016,-2.45052,-2.70451
668,19.4183,-2.44915,-2.70454
668.5,19.4348,-2.44625,-2.70347
669,19.4514,-2.44673,-2.70319
669.5,19.468,-2.45253,-2.70318
670,19.4846,-2.45222,-2.70318
670.5,19.5012,-2.44839,-2.70319
671,19.518,-2.45186,-2.70321
671.5,19.5344,-2.4587,-2.70439
672,19.5512,-2.45719,-2.70449
672.5,19.5679,-2.45699,-2.7045
673,19.5844,-2.45631,-2.7045
673.5,19.6012,-2.45616,-2.7045
674,19.6178,-2.45937,-2.7045
674.5,19.6345,-2.46044,-2.7045
675,19.6507,-2.45758,-2.7045
675.5,19.6674,-2.46109,-2.7045
676,19.6841,-2.45474,-2.7045
676.5,19.7008,-2.4537,-2.7045
677,19.7173,-2.45548,-2.7045
677.5,19.7345,-2.46149,-2.70467
678,19.7505,-2.46495,-2.7059
678.5,19.7676,-2.46335,-2.70581
679,19.7843,-2.47013,-2.70581
679.5,19.8007,-2.46638,-2.70581
680,19.8174,-2.46467,-2.70581
680.5,19.8339,-2.47134,-2.70581
681,19.8507,-2.46143,-2.70581
681.5,19.8675,-2.46554,-2.70576
682,19.8841,-2.47121,-2.70443
682.5,19.9009,-2.47207,-2.7045
683,19.9169,-2.47138,-2.70449
683.5,19.9334,-2.47501,-2.70449
684,19.9508,-2.47935,-2.7045
684.5,19.9674,-2.48034,-2.70469
685,19.9842,-2.48349,-2.70597
685.5,20.0007,-2.48375,-2.70722
686,20.0173,-2.48093,-2.70714
686.5,20.034,-2.48491,-2.70713
687,20.0507,-2.48549,-2.70646
687.5,20.0672,-2.49146,-2.7058
688,20.0839,-2.49342,-2.70581
688.5,20.1008,-2.49298,-2.70581
689,20.1172,-2.49458,-2.70581
689.5,20.1339,-2.48837,-2.70594
690,20.1508,-2.49425,-2.70723
690.5,20.1675,-2.49793,-2.70713
691,20.1842,-2.49951,-2.70713
691.5,20.2007,-2.50017,-2.70713
692,20.2174,-2.49967,-2.70713
692.5,20.2341,-2.50654,-2.70713
693,20.2509,-2.51329,-2.70713
693.5,20.2676,-2.51021,-2.70713
694,20.2835,-2.5045,-2.70713
694.5,20.3001,-2.51453,-2.70713
695,20.3177,-2.52315,-2.70713
695.5,20.3342,-2.52197,-2.70713
696,20.351,-2.52291,-2.70713
696.5,20.3676,-2.52512,-2.70713
697,20.3844,-2.52679,-2.70713
697.5,20.4011,-2.53279,-2.70713
698,20.418,-2.53043,-2.70713
698.5,20.4345,-2.52933,-2.70713
699,20.4513,-2.52672,-2.70713
699.5,20.4677,-2.53484,-2.70713
700,20.4845,-2.54062,-2.70713
700.5,20.5012,-2.55109,-2.70706
701,20.518,-2.54542,-2.70574
701.5,20.5347,-2.53994,-2.70583
702,20.5515,-2.5458,-2.70582
702.5,20.5684,-2.55167,-2.70582
703,20.5849,-2.54954,-2.70582
703.5,20.6015,-2.55637,-2.70581
704,20.6185,-2.55636,-2.70579
704.5,20.6347,-2.55355,-2.70658
705,20.6513,-2.55307,-2.70715
705.5,20.668,-2.55578,-2.70714
706,20.6855,-2.55692,-2.70714
706.5,20.7021,-2.56165,-2.70714
707,20.7188,-2.56276,-2.70714
707.5,20.7355,-2.56118,-2.70714
708,20.7521,-2.56541,-2.70714
708.5,20.769,-2.55945,-2.70714
709,20.7858,-2.57201,-2.70714
709.5,20.8024,-2.56856,-2.70714
710,20.8193,-2.57196,-2.70713
710.5,20.8363,-2.56994,-2.70722
711,20.8528,-2.56652,-2.70588
711.5,20.8695,-2.56974,-2.70583
712,20.8864,-2.56812,-2.70579
712.5,20.9033,-2.57343,-2.7071
713,20.9197,-2.57292,-2.70713
713.5,20.9366,-2.57615,-2.70737
714,20.9533,-2.57941,-2.70854
714.5,20.9699,-2.5761,-2.70846
715,20.9869,-2.58052,-2.70845
715.5,21.0034,-2.58264,-2.70845
716,21.0205,-2.58313,-2.70845
716.5,21.0366,-2.5844,-2.70845
717,21.0535,-2.58967,-2.70855
717.5,21.0705,-2.58854,-2.70729
718,21.0874,-2.58758,-2.70713
718.5,21.1042,-2.58856,-2.70713
719,21.1211,-2.59408,-2.70714
719.5,21.1379,-2.59401,-2.70716
720,21.1546,-2.60255,-2.70835
720.5,21.1714,-2.59646,-2.70844
721,21.1881,-2.59661,-2.70845
721.5,21.2051,-2.60162,-2.70845
722,21.222,-2.60994,-2.70845
722.5,21.2386,-2.60744,-2.70845
723,21.2558,-2.61367,-2.70845
723.5,21.2725,-2.61434,-2.70845
724,21.289,-2.61801,-2.70845
724.5,21.306,-2.62416,-2.70846
725,21.3228,-2.62115,-2.70933
725.5,21.3396,-2.62656,-2.71043
726,21.3563,-2.63078,-2.71043
726.5,21.3734,-2.63262,-2.71043
727,21.3899,-2.63115,-2.71042
727.5,21.407,-2.63619,-2.7105
728,21.4237,-2.63693,-2.70921
728.5,21.4405,-2.6347,-2.70932
729,21.4571,-2.64296,-2.70977
729.5,21.4741,-2.64163,-2.70977
730,21.491,-2.63902,-2.70977
730.5,21.5077,-2.64659,-2.70977
731,21.5245,-2.65052,-2.70977
731.5,21.5413,-2.65017,-2.70981
732,21.5582,-2.65279,-2.71114
732.5,21.5753,-2.66084,-2.71108
733,21.592,-2.65397,-2.71109
733.5,21.6088,-2.65335,-2.71109
734,21.6256,-2.65865,-2.71109
734.5,21.6423,-2.65559,-2.71109
735,21.6593,-2.66223,-2.71109
735.5,21.6761,-2.66619,-2.71109
736,21.6928,-2.66422,-2.71109
736.5,21.7099,-2.66451,-2.71109
737,21.7266,-2.66062,-2.71109
737.5,21.7434,-2.66969,-2.71109
738,21.7603,-2.67046,-2.71109
738.5,21.777,-2.66679,-2.7109
739,21.7939,-2.67311,-2.71004
739.5,21.8107,-2.67762,-2.71009
740,21.8275,-2.67448,-2.71046