File: 01_Data/Helmet_Strap/STA/N2/30K_min/Helmet_Strap_STA_N2_30KData_250603_R4.csv
Temp./C,Time/min,DSC/(mW/mg),Mass loss/mg
40.0,0.0,1.09842,-0.0412578
40.6,0.0372586,1.15044,-0.0409166
41.2,0.0742627,1.20445,-0.0405299
41.8,0.110405,1.24696,-0.0409894
42.4,0.144897,1.29448,-0.0424696
43,0.177554,1.33172,-0.0438371
43.6,0.211609,1.38899,-0.044641
44.2,0.244013,1.43121,-0.0442675
44.8,0.276692,1.46712,-0.0460685
45.4,0.306991,1.51298,-0.0450582
46,0.340274,1.55657,-0.0443153
46.6,0.371323,1.59214,-0.0457417
47.2,0.401924,1.63632,-0.0447351
47.8,0.431998,1.68829,-0.0447152
48.4,0.461972,1.72356,-0.0469138
49,0.491117,1.76554,-0.0460162
49.6,0.520213,1.80359,-0.0458362
50.2,0.547549,1.85109,-0.0472197
50.8,0.57754,1.89956,-0.0483434
51.4,0.604774,1.93454,-0.0486107
52,0.632924,1.98477,-0.0483546
52.6,0.660818,2.01429,-0.0494267
53.2,0.688289,2.06048,-0.0500086
53.8,0.715383,2.10855,-0.050502
54.4,0.74235,2.14729,-0.0513001
55,0.769287,2.19281,-0.0524601
55.6,0.794294,2.22816,-0.0524328
56.2,0.822243,2.28329,-0.0526841
56.8,0.848974,2.33403,-0.0535303
57.4,0.875185,2.37499,-0.0544031
58,0.900513,2.42687,-0.0544938
58.6,0.926557,2.46397,-0.0546072
59.2,0.9521,2.5146,-0.0556171
59.8,0.977409,2.57347,-0.0567477
60.4,1.00288,2.60916,-0.0571364
61,1.0275,2.67142,-0.0569847
61.6,1.05277,2.71394,-0.0566473
62.2,1.07755,2.76652,-0.0573575
62.8,1.10181,2.81141,-0.0591705
63.4,1.12747,2.86234,-0.0609602
64,1.152,2.91275,-0.0614453
64.6,1.17666,2.96268,-0.0611359
65.2,1.20117,3.01817,-0.0616415
65.8,1.2257,3.06695,-0.0630875
66.4,1.24922,3.12066,-0.0637869
67,1.27401,3.16622,-0.0644258
67.6,1.2979,3.21335,-0.0651794
68.2,1.32177,3.27174,-0.0658762
68.8,1.34614,3.32324,-0.0668986
69.4,1.36998,3.37182,-0.0668228
70,1.39401,3.42703,-0.0683901
70.6,1.41779,3.47797,-0.068752
71.2,1.44235,3.5286,-0.0702945
71.8,1.46599,3.57998,-0.0713108
72.4,1.48887,3.61541,-0.0715799
73,1.51325,3.66668,-0.0730149
73.6,1.5358,3.72567,-0.0736841
74.2,1.55928,3.75649,-0.0744725
74.8,1.58253,3.8102,-0.0760776
75.4,1.6055,3.86373,-0.0776222
76,1.62914,3.90627,-0.0781797
76.6,1.65203,3.94017,-0.079177
77.2,1.67488,3.98315,-0.0796704
77.8,1.69837,4.01584,-0.0804019
78.4,1.72063,4.06409,-0.0816945
79,1.74397,4.1069,-0.0817923
79.6,1.76659,4.14874,-0.0833178
80.2,1.78922,4.17337,-0.0843098
80.8,1.81243,4.20769,-0.0851563
81.4,1.83415,4.23654,-0.0862855
82,1.85702,4.26659,-0.0862382
82.6,1.8795,4.30002,-0.0878299
83.2,1.90198,4.32205,-0.0889669
83.8,1.92417,4.338,-0.0895373
84.4,1.94684,4.3696,-0.0903233
85,1.96825,4.3873,-0.0912347
85.6,1.99088,4.40506,-0.0929408
86.2,2.01246,4.41786,-0.0941433
86.8,2.0346,4.43998,-0.0943076
87.4,2.05683,4.4546,-0.096761
88,2.07862,4.46849,-0.0968644
88.6,2.10015,4.48112,-0.098263
89.2,2.12179,4.47496,-0.099639
89.8,2.14352,4.48264,-0.0994747
90.4,2.16539,4.48754,-0.102216
91,2.1865,4.49159,-0.102197
91.6,2.20807,4.49618,-0.10371
92.2,2.22939,4.49065,-0.104856
92.8,2.25095,4.47935,-0.105161
93.4,2.27177,4.47795,-0.106647
94,2.29334,4.47019,-0.108042
94.6,2.31409,4.45218,-0.108909
95.2,2.33526,4.4439,-0.1097
95.8,2.3564,4.44175,-0.111499
96.4,2.3769,4.42356,-0.111556
97,2.39821,4.41144,-0.112967
97.6,2.41893,4.39694,-0.113152
98.2,2.44018,4.371,-0.114164
98.8,2.46059,4.35724,-0.11543
99.4,2.4807,4.33101,-0.116945
100,2.50198,4.3199,-0.116855
100.6,2.523,4.2853,-0.119506
101.2,2.54383,4.25754,-0.119561
101.8,2.56435,4.23421,-0.119886
102.4,2.58507,4.20781,-0.120964
103,2.6057,4.17781,-0.12225
103.6,2.62586,4.14438,-0.122293
104.2,2.64643,4.11815,-0.123508
104.8,2.66691,4.08661,-0.123502
105.4,2.68698,4.0532,-0.123595
106,2.70785,4.02313,-0.12488
106.6,2.72757,3.98945,-0.124736
107.2,2.74871,3.9533,-0.126067
107.8,2.76893,3.91797,-0.12635
108.4,2.78917,3.88416,-0.127501
109,2.80943,3.85106,-0.127526
109.6,2.82946,3.80734,-0.128868
110.2,2.84998,3.76977,-0.129801
110.8,2.86992,3.73256,-0.1304
111.4,2.89064,3.69192,-0.131459
112,2.91006,3.65521,-0.131398
112.6,2.93081,3.61762,-0.132544
113.2,2.95045,3.58335,-0.132729
113.8,2.97063,3.54593,-0.13273
114.4,2.99039,3.50672,-0.13273
115,3.01117,3.45245,-0.132732
115.6,3.03104,3.42135,-0.13276
116.2,3.05069,3.38424,-0.1334
116.8,3.07086,3.34286,-0.135407
117.4,3.09075,3.30493,-0.135359
118,3.11079,3.271,-0.136097
118.6,3.13053,3.2267,-0.136653
119.2,3.15043,3.19147,-0.136678
119.8,3.17059,3.15409,-0.13668
120.4,3.19061,3.11951,-0.136688
121,3.20988,3.08347,-0.136835
121.6,3.22998,3.05619,-0.136941
122.2,3.24978,3.01915,-0.137905
122.8,3.26916,2.99039,-0.137996
123.4,3.28907,2.96024,-0.138
124,3.30904,2.92887,-0.138
124.6,3.32847,2.90279,-0.138
125.2,3.34835,2.87424,-0.137994
125.8,3.36792,2.84254,-0.137928
126.4,3.38746,2.81349,-0.139198
127,3.4071,2.78793,-0.139307
127.6,3.42649,2.77307,-0.139297
128.2,3.44599,2.74449,-0.139776
128.8,3.46551,2.73112,-0.139251
129.4,3.4851,2.70255,-0.139718
130,3.50481,2.68368,-0.139965
130.6,3.52373,2.664,-0.13997
131.2,3.54367,2.64824,-0.13997
131.8,3.56272,2.629,-0.139969
132.4,3.58241,2.60786,-0.139949
133,3.60166,2.59265,-0.140569
133.6,3.62092,2.58132,-0.140623
134.2,3.64015,2.5546,-0.140584
134.8,3.65897,2.55253,-0.141836
135.4,3.67889,2.54164,-0.141942
136,3.698,2.52681,-0.141949
136.6,3.7173,2.52245,-0.14195
137.2,3.73569,2.52519,-0.14195
137.8,3.75596,2.50814,-0.141952
138.4,3.77481,2.50254,-0.14159
139,3.79385,2.49905,-0.14063
139.6,3.81337,2.48297,-0.140639
140.2,3.83244,2.4878,-0.14064
140.8,3.85152,2.4861,-0.14064
141.4,3.87048,2.47489,-0.140582
142,3.88983,2.47662,-0.141476
142.6,3.90892,2.47255,-0.141163
143.2,3.9279,2.48006,-0.140903
143.8,3.94646,2.47822,-0.140301
144.4,3.96607,2.47094,-0.140467
145,3.98461,2.46447,-0.14063
145.6,4.00354,2.48273,-0.140639
146.2,4.02221,2.4745,-0.14064
146.8,4.04121,2.48559,-0.14064
147.4,4.06026,2.48457,-0.14064
148,4.07923,2.49499,-0.140641
148.6,4.09814,2.48355,-0.140652
149.2,4.11703,2.48636,-0.141015
149.8,4.13613,2.49291,-0.141996
150.4,4.15458,2.50326,-0.141954
151,4.17366,2.50721,-0.14195
151.6,4.19228,2.50573,-0.14195
152.2,4.21102,2.50972,-0.14195
152.8,4.23012,2.52506,-0.14195
153.4,4.24866,2.52587,-0.14195
154,4.26767,2.53005,-0.141949
154.6,4.2864,2.5326,-0.141934
155.2,4.30533,2.53614,-0.142591
155.8,4.32402,2.53255,-0.142927
156.4,4.34251,2.54288,-0.142939
157,4.36156,2.55402,-0.14294
157.6,4.3803,2.55105,-0.142942
158.2,4.39866,2.55921,-0.142967
158.8,4.41735,2.56499,-0.142578
159.4,4.43626,2.56429,-0.142608
160,4.45457,2.57277,-0.14261
160.6,4.4734,2.57355,-0.14261
161.2,4.49215,2.58535,-0.14261
161.8,4.51078,2.58202,-0.14261
162.4,4.52947,2.59505,-0.14261
163,4.54798,2.59404,-0.14261
163.6,4.56642,2.60675,-0.14261
164.2,4.58524,2.61364,-0.14261
164.8,4.60376,2.61679,-0.14261
165.4,4.62176,2.62841,-0.14261
166,4.64081,2.62663,-0.142612
166.6,4.65934,2.62997,-0.142636
167.2,4.67749,2.64596,-0.14287
167.8,4.69652,2.65621,-0.143935
168.4,4.71495,2.65162,-0.14393
169,4.73343,2.66511,-0.14393
169.6,4.75206,2.66197,-0.143941
170.2,4.77014,2.67287,-0.144241
170.8,4.78885,2.68301,-0.1453
171.4,4.80709,2.69207,-0.145244
172,4.82557,2.70303,-0.14524
172.6,4.84415,2.71583,-0.14524
173.2,4.86263,2.71232,-0.14524
173.8,4.88117,2.7135,-0.14524
174.4,4.89931,2.7324,-0.14524
175,4.9175,2.73693,-0.14524
175.6,4.93613,2.75349,-0.14524
176.2,4.95433,2.7618,-0.145241
176.8,4.97271,2.76235,-0.145244
177.4,4.99109,2.75285,-0.145255
178,5.00944,2.77008,-0.145602
178.6,5.02766,2.7791,-0.145842
179.2,5.04618,2.78327,-0.146894
179.8,5.06448,2.77857,-0.14689
180.4,5.0824,2.79202,-0.14689
181,5.10092,2.78697,-0.14689
181.6,5.11918,2.78993,-0.14689
182.2,5.13771,2.80375,-0.14689
182.8,5.15576,2.80957,-0.14689
183.4,5.17369,2.8181,-0.146891
184,5.19238,2.8214,-0.146912
184.6,5.2102,2.82897,-0.147447
185.2,5.2286,2.82957,-0.148214
185.8,5.24664,2.83359,-0.148185
186.4,5.26439,2.83049,-0.147773
187,5.28299,2.83998,-0.146882
187.6,5.30115,2.8443,-0.146914
188.2,5.31835,2.85571,-0.147243
188.8,5.33672,2.86334,-0.148121
189.4,5.35572,2.86862,-0.149479
190,5.37342,2.86793,-0.149528
190.6,5.39141,2.86633,-0.14953
191.2,5.4097,2.87012,-0.149529
191.8,5.42757,2.88537,-0.149524
192.4,5.44574,2.88768,-0.149975
193,5.46341,2.89085,-0.150859
193.6,5.48093,2.89199,-0.150844
194.2,5.4999,2.88919,-0.15084
194.8,5.51776,2.89838,-0.150838
195.4,5.53572,2.9023,-0.150828
196,5.55361,2.91592,-0.15143
196.6,5.57183,2.91741,-0.152188
197.2,5.58991,2.92414,-0.152156
197.8,5.60774,2.92647,-0.15209
198.4,5.62588,2.92405,-0.153256
199,5.64375,2.92717,-0.153431
199.6,5.66174,2.93402,-0.152084
200.2,5.67954,2.94116,-0.152106
200.8,5.69758,2.94025,-0.153074
201.4,5.71561,2.94537,-0.153472
202,5.7336,2.95324,-0.153482
202.6,5.75152,2.95759,-0.153494
203.2,5.76944,2.96832,-0.154799
203.8,5.78732,2.9624,-0.154796
204.4,5.80543,2.96522,-0.154838
205,5.82337,2.96146,-0.156142
205.6,5.84127,2.97143,-0.154996
206.2,5.85883,2.97316,-0.1548
206.8,5.87697,2.98287,-0.154896
207.4,5.89504,2.9902,-0.156127
208,5.91273,2.99348,-0.156105
208.6,5.93065,2.98452,-0.156108
209.2,5.94836,2.99672,-0.156105
209.8,5.96676,3.00069,-0.156871
210.4,5.98433,3.00722,-0.158116
211,6.00214,3.01108,-0.158091
211.6,6.02011,3.01849,-0.158038
212.2,6.0381,3.02009,-0.159041
212.8,6.05567,3.02912,-0.159391
213.4,6.07399,3.03664,-0.159407
214,6.09171,3.03387,-0.160117
214.6,6.10933,3.03123,-0.160725
215.2,6.12736,3.03901,-0.160721
215.8,6.14506,3.04091,-0.160723
216.4,6.16332,3.04619,-0.160669
217,6.18074,3.04307,-0.162008
217.6,6.19877,3.05041,-0.162035
218.2,6.21649,3.05329,-0.162018
218.8,6.23451,3.0546,-0.162705
219.4,6.25197,3.06621,-0.163388
220,6.27024,3.07152,-0.163386
220.6,6.28791,3.08025,-0.163681
221.2,6.30593,3.09384,-0.163516
221.8,6.32339,3.09855,-0.163375
222.4,6.34146,3.10223,-0.164036
223,6.35926,3.10527,-0.164677
223.6,6.37686,3.11598,-0.164677
224.2,6.39503,3.12157,-0.16469
224.8,6.41258,3.1281,-0.165922
225.4,6.43067,3.14833,-0.16598
226,6.44834,3.15536,-0.165986
226.6,6.46632,3.16437,-0.165969
227.2,6.48416,3.17478,-0.166626
227.8,6.50173,3.18147,-0.167335
228.4,6.51968,3.21157,-0.167388
229,6.53765,3.22755,-0.168713
229.6,6.55543,3.23171,-0.168622
230.2,6.57341,3.24728,-0.168871
230.8,6.59111,3.2573,-0.17001
231.4,6.60899,3.27078,-0.169932
232,6.62672,3.28723,-0.170737
232.6,6.64471,3.30658,-0.171933
233.2,6.66249,3.32214,-0.17191
233.8,6.68011,3.33558,-0.171821
234.4,6.6979,3.34768,-0.173111
235,6.71566,3.35645,-0.172872
235.6,6.73358,3.37704,-0.172233
236.2,6.75123,3.38612,-0.172346
236.8,6.76905,3.3877,-0.173896
237.4,6.78721,3.39944,-0.173805
238,6.80478,3.40972,-0.175118
238.6,6.82237,3.42017,-0.175089
239.2,6.84038,3.42151,-0.175093
239.8,6.85786,3.43252,-0.17581
240.4,6.87605,3.43542,-0.176049
241,6.89348,3.43597,-0.176112
241.6,6.9114,3.43899,-0.176778
242.2,6.92829,3.43958,-0.177426
242.8,6.94642,3.44282,-0.177429
243.4,6.96442,3.4418,-0.177418
244,6.98156,3.44299,-0.178701
244.6,6.99973,3.43782,-0.178644
245.2,7.01791,3.43031,-0.179966
245.8,7.03512,3.43646,-0.180157
246.4,7.05332,3.4396,-0.180405
247,7.07111,3.42997,-0.181538
247.6,7.08834,3.428,-0.181408
248.2,7.10606,3.42287,-0.182589
248.8,7.12388,3.41232,-0.182776
249.4,7.14157,3.40872,-0.18408
250,7.1594,3.40846,-0.184451
250.6,7.17679,3.41006,-0.185701
251.2,7.19445,3.41085,-0.18598
251.8,7.2115,3.40962,-0.187146
252.4,7.23015,3.40364,-0.18737
253,7.24781,3.40211,-0.188532
253.6,7.26559,3.39906,-0.189256
254.2,7.28311,3.39107,-0.189759
254.8,7.30085,3.38819,-0.189874
255.4,7.31835,3.3822,-0.190043
256,7.33632,3.37394,-0.19129
256.6,7.354,3.37289,-0.19156
257.2,7.37158,3.37225,-0.192963
257.8,7.38944,3.36432,-0.19364
258.4,7.40702,3.36796,-0.194878
259,7.42517,3.3563,-0.196564
259.6,7.4424,3.35962,-0.196655
260.2,7.46038,3.35784,-0.19811
260.8,7.47765,3.349,-0.199072
261.4,7.49557,3.34589,-0.199664
262,7.5133,3.34552,-0.201348
262.6,7.53093,3.34089,-0.202044
263.2,7.54871,3.33317,-0.202273
263.8,7.56612,3.33259,-0.202476
264.4,7.58407,3.3322,-0.203495
265,7.60149,3.32824,-0.205172
265.6,7.61919,3.32015,-0.206905
266.2,7.63714,3.31525,-0.207758
266.8,7.65463,3.31134,-0.208818
267.4,7.67242,3.30869,-0.210372
268,7.69031,3.30193,-0.211963
268.6,7.70767,3.30524,-0.212623
269.2,7.72533,3.2953,-0.213967
269.8,7.74326,3.29366,-0.214516
270.4,7.76096,3.28376,-0.215504
271,7.77857,3.27091,-0.216582
271.6,7.79629,3.26726,-0.218092
272.2,7.81413,3.25925,-0.219754
272.8,7.83176,3.25618,-0.221649
273.4,7.84899,3.25047,-0.223426
274,7.86725,3.23598,-0.225276
274.6,7.88463,3.2399,-0.22671
275.2,7.9023,3.2299,-0.228052
275.8,7.91993,3.21618,-0.228777
276.4,7.9375,3.20746,-0.230049
277,7.9551,3.19502,-0.231782
277.6,7.97286,3.19126,-0.233241
278.2,7.99069,3.18283,-0.234655
278.8,8.00819,3.17662,-0.236035
279.4,8.0262,3.16512,-0.237522
280,8.04351,3.14874,-0.238422
280.6,8.06117,3.13008,-0.239062
281.2,8.07913,3.11763,-0.240565
281.8,8.09663,3.115,-0.241687
282.4,8.11427,3.1078,-0.243152
283,8.13198,3.09653,-0.245063
283.6,8.14953,3.08716,-0.24731
284.2,8.1675,3.08336,-0.249153
284.8,8.18523,3.06862,-0.250799
285.4,8.20289,3.06401,-0.252251
286,8.22063,3.0523,-0.253089
286.6,8.23848,3.03878,-0.254374
287.2,8.25621,3.0229,-0.255952
287.8,8.27366,3.01558,-0.257802
288.4,8.29146,3.00301,-0.259471
289,8.30924,2.99706,-0.260008
289.6,8.32709,2.99651,-0.261182
290.2,8.34416,2.98901,-0.262693
290.8,8.36226,2.98124,-0.264184
291.4,8.37997,2.96277,-0.266503
292,8.39768,2.94172,-0.268502
292.6,8.41527,2.93418,-0.269479
293.2,8.43284,2.92358,-0.271016
293.8,8.45067,2.9047,-0.272725
294.4,8.46865,2.89189,-0.274422
295,8.48622,2.87672,-0.275903
295.6,8.50398,2.8641,-0.277379
296.2,8.5217,2.85744,-0.27906
296.8,8.53958,2.86129,-0.280362
297.4,8.5575,2.86515,-0.281765
298,8.57542,2.86613,-0.283242
298.6,8.59301,2.87145,-0.285078
299.2,8.61095,2.87411,-0.286991
299.8,8.6285,2.88365,-0.288451
300.4,8.64644,2.9067,-0.289482
301,8.66423,2.91823,-0.290459
301.6,8.68214,2.93913,-0.291943
302.2,8.70006,2.94862,-0.293174
302.8,8.7178,2.96946,-0.293791
303.4,8.73602,2.98469,-0.295365
304,8.75366,3.00586,-0.296201
304.6,8.77125,3.02473,-0.297334
305.2,8.78916,3.03591,-0.299218
305.8,8.80731,3.05034,-0.300609
306.4,8.82504,3.06299,-0.301746
307,8.84259,3.06683,-0.302858
307.6,8.86058,3.07883,-0.304317
308.2,8.87849,3.08433,-0.305705
308.8,8.89605,3.10305,-0.306824
309.4,8.9138,3.1063,-0.308061
310,8.93188,3.11466,-0.309358
310.6,8.94952,3.12505,-0.309705
311.2,8.9671,3.13131,-0.311022
311.8,8.98511,3.13492,-0.312295
312.4,9.00296,3.14007,-0.313468
313,9.02057,3.14002,-0.315018
313.6,9.0384,3.1458,-0.316567
314.2,9.05632,3.14624,-0.316057
314.8,9.07409,3.13913,-0.316051
315.4,9.09195,3.14016,-0.31763
316,9.11019,3.13766,-0.317328
316.6,9.12799,3.13819,-0.318299
317.2,9.146,3.13649,-0.319856
317.8,9.16358,3.13128,-0.320806
318.4,9.18144,3.12409,-0.32186
319,9.19926,3.12002,-0.323078
319.6,9.21737,3.11681,-0.323217
320.2,9.23487,3.10952,-0.324303
320.8,9.25286,3.10542,-0.324223
321.4,9.27091,3.10622,-0.326048
322,9.28842,3.08583,-0.327412
322.6,9.30631,3.08582,-0.328528
323.2,9.32409,3.08273,-0.328477
323.8,9.34179,3.07653,-0.328385
324.4,9.35987,3.0638,-0.329815
325,9.37778,3.05779,-0.3285
325.6,9.39515,3.05533,-0.328871
326.2,9.41327,3.04397,-0.329931
326.8,9.43127,3.03541,-0.330294
327.4,9.44921,3.0262,-0.331422
328,9.46639,3.01375,-0.331487
328.6,9.48485,3.01378,-0.332641
329.2,9.50265,3.00631,-0.332822
329.8,9.52049,3.0006,-0.334221
330.4,9.53819,2.98908,-0.335002
331,9.55627,2.98763,-0.335362
331.6,9.57408,2.97719,-0.336028
332.2,9.5919,2.96712,-0.336398
332.8,9.60994,2.95495,-0.336561
333.4,9.62782,2.94469,-0.336667
334,9.64569,2.94092,-0.337473
334.6,9.66365,2.9303,-0.33814
335.2,9.68119,2.92977,-0.338259
335.8,9.69947,2.92681,-0.339537
336.4,9.71673,2.91932,-0.339432
337,9.73503,2.9168,-0.340159
337.6,9.75231,2.90406,-0.340784
338.2,9.77106,2.89794,-0.340681
338.8,9.78903,2.90119,-0.342008
339.4,9.80653,2.89623,-0.342075
340,9.82487,2.89484,-0.342446
340.6,9.84268,2.87802,-0.343433
341.2,9.86059,2.87523,-0.343419
341.8,9.87853,2.87821,-0.3436
342.4,9.89639,2.87573,-0.344778
343,9.91445,2.86958,-0.344177
343.6,9.93225,2.86912,-0.34373
344.2,9.95056,2.87022,-0.343642
344.8,9.96796,2.86223,-0.344974
345.4,9.98624,2.86082,-0.345223
346,10.0045,2.85872,-0.346473
346.6,10.0221,2.85943,-0.346462
347.2,10.0398,2.85352,-0.346463
347.8,10.0575,2.8519,-0.347109
348.4,10.076,2.84422,-0.347776
349,10.0941,2.84267,-0.347779
349.6,10.1123,2.84853,-0.34902
350.2,10.1301,2.85037,-0.349099
350.8,10.1483,2.84808,-0.349109
351.4,10.1662,2.84648,-0.349108
352,10.1842,2.84212,-0.349423
352.6,10.2021,2.8358,-0.350479
353.2,10.2202,2.83962,-0.350462
353.8,10.2382,2.84339,-0.350756
354.4,10.2564,2.84797,-0.351743
355,10.2743,2.84194,-0.351742
355.6,10.2923,2.85041,-0.352524
356.2,10.3105,2.85162,-0.353066
356.8,10.3284,2.84259,-0.353062
357.4,10.3464,2.85233,-0.353071
358,10.3647,2.84923,-0.354393
358.6,10.3826,2.85167,-0.354381
359.2,10.4008,2.85112,-0.35474
359.8,10.4188,2.85158,-0.355752
360.4,10.4369,2.84743,-0.355703
361,10.4548,2.84692,-0.3557
361.6,10.4732,2.85727,-0.355695
362.2,10.4909,2.85985,-0.356724
362.8,10.5091,2.86409,-0.356986
363.4,10.5274,2.86485,-0.357006
364,10.5453,2.86521,-0.357003
364.6,10.5633,2.86568,-0.357568
365.2,10.5813,2.87218,-0.358362
365.8,10.5994,2.86939,-0.358333
366.4,10.6176,2.87303,-0.358326
367,10.6358,2.8822,-0.358304
367.6,10.6538,2.88565,-0.359253
368.2,10.6719,2.89523,-0.360005
368.8,10.6898,2.90399,-0.360657
369.4,10.708,2.90976,-0.36064
370,10.7262,2.91343,-0.360624
370.6,10.7443,2.91656,-0.361287
371.2,10.7626,2.92438,-0.361976
371.8,10.7807,2.93155,-0.361911
372.4,10.7994,2.94507,-0.361895
373,10.8173,2.94755,-0.36196
373.6,10.8355,2.95782,-0.361951
374.2,10.8541,2.96301,-0.36195
374.8,10.8722,2.97509,-0.36195
375.4,10.8901,2.98693,-0.361952
376,10.9082,2.99473,-0.361985
376.6,10.9266,3.00031,-0.363353
377.2,10.9453,3.00468,-0.363272
377.8,10.9634,3.01416,-0.363282
378.4,10.9815,3.02182,-0.363966
379,10.9998,3.03036,-0.364597
379.6,11.0177,3.03672,-0.364586
380.2,11.0362,3.04958,-0.364556
380.8,11.0544,3.05876,-0.36558
381.4,11.0727,3.06975,-0.365912
382,11.0908,3.08161,-0.36591
382.6,11.1091,3.10093,-0.365904
383.2,11.1275,3.11519,-0.365853
383.8,11.1455,3.12376,-0.366965
384.4,11.164,3.13593,-0.367221
385,11.1822,3.1481,-0.36722
385.6,11.2004,3.1595,-0.367219
386.2,11.2186,3.17314,-0.367214
386.8,11.2372,3.18223,-0.36782
387.4,11.2551,3.19919,-0.368532
388,11.2737,3.2147,-0.368542
388.6,11.2918,3.2247,-0.368524
389.2,11.3102,3.23803,-0.367814
389.8,11.3283,3.25484,-0.367186
390.4,11.3467,3.27358,-0.368078
391,11.3651,3.29241,-0.368545
391.6,11.3834,3.31128,-0.368558
392.2,11.4018,3.32711,-0.368995
392.8,11.4201,3.3451,-0.369906
393.4,11.4385,3.3675,-0.369893
394,11.457,3.38698,-0.370214
394.6,11.4756,3.4056,-0.372201
395.2,11.4937,3.42541,-0.372158
395.8,11.5113,3.44244,-0.37216
396.4,11.5303,3.465,-0.372169
397,11.5489,3.48122,-0.372302
397.6,11.5669,3.50964,-0.372481
398.2,11.5855,3.53812,-0.37249
398.8,11.6039,3.5591,-0.37249
399.4,11.6221,3.57918,-0.372485
400,11.6409,3.61451,-0.373493
400.6,11.6594,3.64719,-0.373787
401.2,11.6778,3.66889,-0.373827
401.8,11.6961,3.69738,-0.373935
402.4,11.7147,3.73259,-0.37514
403,11.7331,3.76582,-0.374257
403.6,11.7518,3.80568,-0.37384
404.2,11.7701,3.83676,-0.374364
404.8,11.7889,3.87551,-0.375138
405.4,11.8074,3.92933,-0.375131
406,11.825,3.97794,-0.375132
406.6,11.8443,4.02288,-0.375126
407.2,11.863,4.0691,-0.376394
407.8,11.8817,4.11833,-0.376436
408.4,11.9001,4.17298,-0.376357
409,11.9186,4.2391,-0.377677
409.6,11.9371,4.28927,-0.377766
410.2,11.9562,4.3585,-0.377754
410.8,11.9741,4.42033,-0.378401
411.4,11.9928,4.48463,-0.379109
412,12.0116,4.56592,-0.379047
412.6,12.0303,4.63722,-0.380206
413.2,12.0494,4.71643,-0.38039
413.8,12.0679,4.79719,-0.380432
414.4,12.0866,4.88159,-0.381801
415,12.1056,4.97356,-0.381729
415.6,12.1243,5.06478,-0.381713
416.2,12.143,5.15565,-0.383026
416.8,12.1614,5.26157,-0.382942
417.4,12.1807,5.36131,-0.384407
418,12.1993,5.46794,-0.38471
418.6,12.2182,5.58397,-0.385963
419.2,12.2371,5.68808,-0.386009
419.8,12.2562,5.80201,-0.387254
420.4,12.2747,5.9108,-0.38722
421,12.2939,6.02891,-0.388615
421.6,12.3125,6.14261,-0.388642
422.2,12.3315,6.26166,-0.389024
422.8,12.3504,6.37283,-0.390183
423.4,12.3695,6.48909,-0.391288
424,12.3884,6.59247,-0.391576
424.6,12.4071,6.68802,-0.392182
425.2,12.4258,6.78529,-0.392904
425.8,12.4447,6.87294,-0.394477
426.4,12.4634,6.94725,-0.395096
427,12.4824,7.0285,-0.396138
427.6,12.5011,7.07139,-0.397597
428.2,12.5201,7.1331,-0.397837
428.8,12.5387,7.18125,-0.398697
429.4,12.557,7.19899,-0.40031
430,12.5757,7.22617,-0.401188
430.6,12.5942,7.22416,-0.40202
431.2,12.613,7.23158,-0.403524
431.8,12.6316,7.21251,-0.404923
432.4,12.6499,7.19879,-0.406265
433,12.6684,7.1655,-0.407254
433.6,12.6867,7.12213,-0.410005
434.2,12.7053,7.07357,-0.411633
434.8,12.7237,7.00132,-0.412267
435.4,12.7419,6.93588,-0.413495
436,12.7601,6.85548,-0.415087
436.6,12.7788,6.77975,-0.416723
437.2,12.7972,6.67954,-0.418562
437.8,12.8153,6.58473,-0.419422
438.4,12.8334,6.47929,-0.421549
439,12.8515,6.37226,-0.42365
439.6,12.8698,6.25095,-0.425633
440.2,12.888,6.13089,-0.427389
440.8,12.906,6.00449,-0.429108
441.4,12.9241,5.88082,-0.430854
442,12.9425,5.75856,-0.433136
442.6,12.9608,5.63491,-0.435648
443.2,12.9791,5.52596,-0.438138
443.8,12.9973,5.41634,-0.440133
444.4,13.0152,5.31301,-0.44259
445,13.0339,5.2096,-0.44576
445.6,13.052,5.12964,-0.449379
446.2,13.0704,5.04417,-0.452335
446.8,13.0884,4.97478,-0.454506
447.4,13.1064,4.91302,-0.457332
448,13.125,4.85571,-0.460291
448.6,13.1439,4.7995,-0.462429
449.2,13.1624,4.7605,-0.465173
449.8,13.1809,4.72027,-0.469472
450.4,13.1995,4.69497,-0.473327
451,13.2179,4.6722,-0.476904
451.6,13.2365,4.64856,-0.479931
452.2,13.2552,4.63391,-0.483942
452.8,13.2739,4.62704,-0.488293
453.4,13.2922,4.61847,-0.491092
454,13.3108,4.61701,-0.494439
454.6,13.3295,4.61656,-0.499871
455.2,13.3482,4.63077,-0.504467
455.8,13.367,4.62738,-0.509688
456.4,13.3857,4.63332,-0.512952
457,13.4044,4.63969,-0.517616
457.6,13.4231,4.65804,-0.521683
458.2,13.4412,4.66466,-0.52709
458.8,13.4606,4.67864,-0.531821
459.4,13.4796,4.69552,-0.537578
460,13.4982,4.70226,-0.541792
460.6,13.5169,4.71303,-0.546858
461.2,13.5356,4.72865,-0.552303
461.8,13.5542,4.75161,-0.55859
462.4,13.5733,4.75956,-0.565004
463,13.5919,4.7712,-0.570448
463.6,13.6109,4.78051,-0.576239
464.2,13.6297,4.79661,-0.581367
464.8,13.6481,4.8053,-0.587626
465.4,13.6671,4.81247,-0.593417
466,13.6858,4.82914,-0.600861
466.6,13.7046,4.84018,-0.605203
467.2,13.7235,4.85245,-0.611872
467.8,13.7423,4.86238,-0.617216
468.4,13.7608,4.86738,-0.624496
469,13.7799,4.88394,-0.631018
469.6,13.7986,4.88989,-0.638682
470.2,13.8176,4.88625,-0.645463
470.8,13.8363,4.90957,-0.652631
471.4,13.8549,4.91643,-0.660399
472,13.874,4.91338,-0.667383
472.6,13.8931,4.93245,-0.674853
473.2,13.912,4.93191,-0.68197
473.8,13.9304,4.93318,-0.689749
474.4,13.9492,4.93664,-0.696527
475,13.9684,4.94157,-0.705283
475.6,13.9874,4.94286,-0.712138
476.2,14.0059,4.94295,-0.720621
476.8,14.0247,4.94337,-0.72745
477.4,14.0434,4.94598,-0.73475
478,14.0622,4.94224,-0.741388
478.6,14.081,4.94026,-0.749365
479.2,14.0999,4.93923,-0.756103
479.8,14.1187,4.93614,-0.765386
480.4,14.1377,4.93637,-0.773399
481,14.1564,4.92701,-0.78183
481.6,14.1753,4.92056,-0.789887
482.2,14.1942,4.91577,-0.797874
482.8,14.2126,4.90954,-0.80576
483.4,14.2316,4.89148,-0.813212
484,14.2504,4.87947,-0.821994
484.6,14.2693,4.87127,-0.829512
485.2,14.2882,4.85806,-0.838163
485.8,14.3071,4.84483,-0.844912
486.4,14.3257,4.83787,-0.852946
487,14.3449,4.81448,-0.860465
487.6,14.3639,4.80255,-0.870319
488.2,14.3824,4.78011,-0.87768
488.8,14.4015,4.76568,-0.88688
489.4,14.4203,4.74463,-0.893641
490,14.4391,4.72881,-0.901705
490.6,14.4582,4.6953,-0.908878
491.2,14.4768,4.68781,-0.916906
491.8,14.4955,4.67077,-0.925094
492.4,14.5144,4.63929,-0.93365
493,14.5333,4.60939,-0.942202
493.6,14.552,4.57758,-0.949854
494.2,14.5709,4.55929,-0.958235
494.8,14.5899,4.52901,-0.965445
495.4,14.6087,4.51146,-0.973472
496,14.6274,4.48013,-0.980135
496.6,14.6464,4.44439,-0.988933
497.2,14.6654,4.41732,-0.995531
497.8,14.684,4.38952,-1.00384
498.4,14.703,4.36672,-1.00988
499,14.7217,4.34158,-1.01822
499.6,14.7409,4.29258,-1.02487
500.2,14.7595,4.27434,-1.03278
500.8,14.7786,4.2358,-1.03951
501.4,14.7972,4.19532,-1.04686
502,14.8162,4.17004,-1.05356
502.6,14.835,4.12544,-1.06061
503.2,14.8539,4.10156,-1.0678
503.8,14.8728,4.06504,-1.07334
504.4,14.8918,4.03487,-1.08031
505,14.9106,4.00578,-1.08627
505.6,14.9295,3.97176,-1.09365
506.2,14.9484,3.93986,-1.09973
506.8,14.9671,3.90638,-1.10729
507.4,14.9862,3.87475,-1.11353
508,15.0049,3.84603,-1.1207
508.6,15.0239,3.81209,-1.12651
509.2,15.0428,3.77304,-1.1336
509.8,15.0612,3.74887,-1.13893
510.4,15.0806,3.71607,-1.14598
511,15.0999,3.69179,-1.15059
511.6,15.1187,3.66347,-1.15684
512.2,15.1377,3.63667,-1.16238
512.8,15.1566,3.60476,-1.16803
513.4,15.1746,3.57797,-1.17306
514,15.1938,3.55619,-1.17863
514.6,15.2135,3.5293,-1.18484
515.2,15.2323,3.50056,-1.19076
515.8,15.2515,3.4725,-1.19744
516.4,15.2705,3.45756,-1.20284
517,15.2895,3.43553,-1.20845
517.6,15.3083,3.40246,-1.21289
518.2,15.3277,3.38024,-1.21845
518.8,15.3465,3.35385,-1.22238
519.4,15.3655,3.31466,-1.22811
520,15.3846,3.30295,-1.23312
520.6,15.4035,3.28117,-1.23952
521.2,15.4225,3.26348,-1.24397
521.8,15.4415,3.24214,-1.24932
522.4,15.4604,3.21898,-1.25368
523,15.4792,3.20109,-1.25904
523.6,15.4983,3.1858,-1.26346
524.2,15.5174,3.16383,-1.26864
524.8,15.5366,3.14542,-1.27304
525.4,15.5555,3.11947,-1.27761
526,15.5745,3.10312,-1.28227
526.6,15.5939,3.09217,-1.28726
527.2,15.6129,3.07502,-1.29219
527.8,15.6319,3.05846,-1.29623
528.4,15.651,3.04298,-1.30088
529,15.6698,3.02239,-1.30548
529.6,15.6889,3.00283,-1.31217
530.2,15.7081,2.99619,-1.31894
530.8,15.7274,2.99319,-1.32526
531.4,15.7463,2.96901,-1.32949
532,15.7655,2.95913,-1.33218
532.6,15.7847,2.94578,-1.3336
533.2,15.8035,2.9276,-1.33675
533.8,15.8227,2.91603,-1.3404
534.4,15.8417,2.90434,-1.34532
535,15.8609,2.89052,-1.34945
535.6,15.8799,2.88342,-1.3544
536.2,15.8991,2.86677,-1.35791
536.8,15.9184,2.86093,-1.36194
537.4,15.9375,2.84896,-1.36646
538,15.9567,2.83778,-1.37087
538.6,15.9756,2.82297,-1.37452
539.2,15.995,2.81112,-1.37911
539.8,16.0142,2.80074,-1.38409
540.4,16.0331,2.79832,-1.38735
541,16.0525,2.78227,-1.39136
541.6,16.0716,2.77257,-1.3964
542.2,16.0909,2.75187,-1.40072
542.8,16.1099,2.74679,-1.40427
543.4,16.1289,2.74498,-1.40873
544,16.1486,2.72543,-1.41341
544.6,16.1675,2.72094,-1.41687
545.2,16.1861,2.71126,-1.4212
545.8,16.2058,2.70071,-1.42582
546.4,16.2252,2.69374,-1.42968
547,16.2442,2.68098,-1.43391
547.6,16.2639,2.6529,-1.43862
548.2,16.2825,2.65721,-1.44323
548.8,16.3018,2.64777,-1.44795
549.4,16.321,2.63911,-1.45153
550,16.3402,2.6252,-1.45565
550.6,16.3592,2.60405,-1.46002
551.2,16.378,2.5999,-1.46313
551.8,16.3973,2.59463,-1.4655
552.4,16.4166,2.58076,-1.46963
553,16.4365,2.56966,-1.47415
553.6,16.4557,2.55548,-1.47794
554.2,16.4751,2.54651,-1.48232
554.8,16.4941,2.5337,-1.48561
555.4,16.5133,2.53149,-1.48948
556,16.5328,2.52601,-1.49488
556.6,16.5515,2.51603,-1.49926
557.2,16.5712,2.50252,-1.50347
557.8,16.5907,2.48831,-1.50678
558.4,16.6093,2.47946,-1.51066
559,16.6288,2.47408,-1.51528
559.6,16.648,2.46678,-1.51918
560.2,16.6674,2.45148,-1.52205
560.8,16.6866,2.43204,-1.52575
561.4,16.706,2.41923,-1.52985
562,16.7251,2.41474,-1.53437
562.6,16.7444,2.4057,-1.53782
563.2,16.7637,2.39144,-1.54163
563.8,16.7832,2.38256,-1.54589
564.4,16.8022,2.37498,-1.55037
565,16.8217,2.36011,-1.55472
565.6,16.8407,2.34538,-1.55918
566.2,16.8597,2.33928,-1.56306
566.8,16.8793,2.32617,-1.5672
567.4,16.8984,2.31307,-1.571
568,16.9178,2.29928,-1.57456
568.6,16.937,2.29126,-1.57882
569.2,16.9565,2.27419,-1.58354
569.8,16.9759,2.26164,-1.58715
570.4,16.9949,2.25493,-1.59115
571,17.0143,2.2409,-1.59544
571.6,17.0336,2.22804,-1.59857
572.2,17.0527,2.20432,-1.60182
572.8,17.0717,2.19716,-1.60584
573.4,17.0915,2.18385,-1.60909
574,17.1106,2.17012,-1.61301
574.6,17.1301,2.16015,-1.61639
575.2,17.1495,2.14711,-1.62046
575.8,17.1684,2.12951,-1.62528
576.4,17.1876,2.11517,-1.62895
577,17.2072,2.10584,-1.63236
577.6,17.2264,2.09084,-1.63575
578.2,17.2458,2.08233,-1.64007
578.8,17.2651,2.06291,-1.64462
579.4,17.2843,2.04936,-1.64891
580,17.3035,2.041,-1.65142
580.6,17.3229,2.01896,-1.65488
581.2,17.3426,2.00672,-1.65925
581.8,17.3612,1.99718,-1.66311
582.4,17.3807,1.9768,-1.66697
583,17.4004,1.95837,-1.67077
583.6,17.4196,1.9413,-1.67387
584.2,17.4387,1.93526,-1.67723
584.8,17.4582,1.9178,-1.6805
585.4,17.4775,1.90275,-1.68479
586,17.4966,1.88507,-1.68927
586.6,17.5161,1.86953,-1.69259
587.2,17.5355,1.85127,-1.69589
587.8,17.5551,1.84083,-1.69874
588.4,17.5744,1.82746,-1.70206
589,17.5935,1.80706,-1.70615
589.6,17.6129,1.79057,-1.70905
590.2,17.6323,1.77426,-1.71284
590.8,17.6515,1.75709,-1.71683
591.4,17.671,1.73768,-1.72001
592,17.6904,1.71981,-1.72307
592.6,17.7096,1.70239,-1.7259
593.2,17.7292,1.68831,-1.72978
593.8,17.7485,1.68163,-1.73403
594.4,17.7679,1.65219,-1.73716
595,17.7874,1.63883,-1.74045
595.6,17.8067,1.62248,-1.74367
596.2,17.8259,1.60618,-1.74703
596.8,17.8453,1.59993,-1.75041
597.4,17.8649,1.59173,-1.753
598,17.8842,1.57101,-1.75603
598.6,17.9035,1.55799,-1.75942
599.2,17.9227,1.53786,-1.76251
599.8,17.9423,1.52838,-1.76558
600.4,17.9618,1.52104,-1.76808
601,17.9811,1.50669,-1.77128
601.6,18.0005,1.49153,-1.77462
602.2,18.0199,1.48701,-1.7776
602.8,18.0392,1.47473,-1.78055
603.4,18.0588,1.45245,-1.78313
604,18.0782,1.44341,-1.78638
604.6,18.0977,1.43761,-1.78951
605.2,18.1172,1.42585,-1.79228
605.8,18.1366,1.41311,-1.79696
606.4,18.1561,1.39287,-1.80225
607,18.1752,1.38674,-1.80588
607.6,18.195,1.38404,-1.80706
608.2,18.2144,1.37907,-1.8056
608.8,18.2339,1.37009,-1.80566
609.4,18.2534,1.35707,-1.80691
610,18.2729,1.34363,-1.80971
610.6,18.2924,1.34244,-1.81232
611.2,18.3119,1.33947,-1.81423
611.8,18.3312,1.32765,-1.81681
612.4,18.3509,1.31815,-1.81982
613,18.3704,1.31059,-1.8225
613.6,18.3895,1.30838,-1.82507
614.2,18.4094,1.30525,-1.82751
614.8,18.4286,1.30809,-1.8304
615.4,18.448,1.29686,-1.8338
616,18.4676,1.29572,-1.83607
616.6,18.4872,1.29388,-1.83846
617.2,18.5068,1.29004,-1.84047
617.8,18.5262,1.29022,-1.84313
618.4,18.5459,1.28428,-1.8466
619,18.5651,1.28144,-1.85003
619.6,18.5847,1.27949,-1.85195
620.2,18.604,1.27727,-1.85429
620.8,18.623,1.27673,-1.85648
621.4,18.6434,1.27762,-1.85877
622,18.6629,1.27946,-1.86066
622.6,18.6824,1.2785,-1.86274
623.2,18.7021,1.28936,-1.86491
623.8,18.7208,1.28878,-1.86758
624.4,18.7411,1.28544,-1.87005
625,18.7608,1.2915,-1.87201
625.6,18.7803,1.29949,-1.87366
626.2,18.7998,1.30382,-1.87533
626.8,18.8195,1.31885,-1.87798
627.4,18.8389,1.31363,-1.87985
628,18.8584,1.31677,-1.8825
628.6,18.8781,1.31836,-1.88497
629.2,18.8977,1.32785,-1.88698
629.8,18.9175,1.32865,-1.88842
630.4,18.9369,1.33584,-1.88998
631,18.9564,1.34323,-1.8915
631.6,18.9761,1.3511,-1.89358
632.2,18.9958,1.34364,-1.89521
632.8,19.0153,1.36178,-1.89712
633.4,19.0349,1.36247,-1.89868
634,19.0544,1.36812,-1.89931
634.6,19.0735,1.37852,-1.90122
635.2,19.0936,1.38905,-1.90357
635.8,19.1132,1.3936,-1.90547
636.4,19.1329,1.40641,-1.90833
637,19.1524,1.4181,-1.91051
637.6,19.1718,1.41717,-1.91153
638.2,19.1916,1.43146,-1.91291
638.8,19.2112,1.44069,-1.91466
639.4,19.2308,1.44983,-1.91652
640,19.2501,1.45637,-1.91822
640.6,19.2696,1.46686,-1.91994
641.2,19.2893,1.47442,-1.92164
641.8,19.309,1.48208,-1.92338
642.4,19.3286,1.49395,-1.92531
643,19.3483,1.50717,-1.92709
643.6,19.3677,1.5208,-1.92924
644.2,19.3873,1.52795,-1.93038
644.8,19.4066,1.54079,-1.93136
645.4,19.4266,1.54952,-1.93235
646,19.4463,1.55592,-1.93402
646.6,19.466,1.56511,-1.93551
647.2,19.4852,1.5762,-1.93751
647.8,19.5051,1.5861,-1.93926
648.4,19.5247,1.59888,-1.94086
649,19.5445,1.60849,-1.94207
649.6,19.5641,1.61954,-1.94334
650.2,19.5837,1.62972,-1.94519
650.8,19.6034,1.6384,-1.9469
651.4,19.6232,1.64942,-1.94866
652,19.6429,1.65432,-1.94997
652.6,19.6622,1.66384,-1.95152
653.2,19.6821,1.67852,-1.95318
653.8,19.7017,1.69226,-1.95464
654.4,19.7219,1.70302,-1.95531
655,19.7411,1.71262,-1.95638
655.6,19.7609,1.72697,-1.95788
656.2,19.7806,1.73763,-1.95953
656.8,19.8,1.7512,-1.96039
657.4,19.8197,1.76135,-1.96129
658,19.839,1.76776,-1.96273
658.6,19.8582,1.76724,-1.96463
659.2,19.8786,1.7906,-1.96657
659.8,19.8984,1.78962,-1.96709
660.4,19.9183,1.80536,-1.968
661,19.9376,1.81551,-1.96826
661.6,19.9576,1.81699,-1.96918
662.2,19.9771,1.83395,-1.96985
662.8,19.9968,1.84646,-1.9712
663.4,20.0164,1.85062,-1.97246
664,20.0353,1.8589,-1.97421
664.6,20.0553,1.86815,-1.97564
665.2,20.0754,1.87487,-1.97698
665.8,20.0949,1.88862,-1.97852
666.4,20.1147,1.89638,-1.98016
667,20.1344,1.90783,-1.98147
667.6,20.1539,1.91462,-1.98274
668.2,20.1738,1.92924,-1.98368
668.8,20.1935,1.93623,-1.98367
669.4,20.213,1.93594,-1.98508
670,20.2327,1.95242,-1.98568
670.6,20.2523,1.96556,-1.98673
671.2,20.272,1.97646,-1.98804
671.8,20.2919,1.98134,-1.98807
672.4,20.3114,1.99075,-1.98947
673,20.3312,2.00345,-1.98992
673.6,20.3507,2.00027,-1.99037
674.2,20.3704,2.01909,-1.9915
674.8,20.39,2.02573,-1.99276
675.4,20.4098,2.03407,-1.99386
676,20.4294,2.04454,-1.99516
676.6,20.4492,2.04915,-1.9968
677.2,20.4692,2.05173,-1.9986
677.8,20.4884,2.05835,-1.99975
678.4,20.5084,2.07909,-2.00062
679,20.5277,2.07606,-2.00183
679.6,20.5474,2.08855,-2.00308
680.2,20.5674,2.09087,-2.00321
680.8,20.5862,2.10079,-2.00239
681.4,20.6068,2.11109,-2.00339
682,20.6264,2.11432,-2.00527
682.6,20.6459,2.11833,-2.00614
683.2,20.6658,2.13958,-2.00703
683.8,20.6853,2.15344,-2.00868
684.4,20.7051,2.14836,-2.00973
685,20.7247,2.15054,-2.01002
685.6,20.7448,2.15597,-2.01156
686.2,20.7642,2.16341,-2.01261
686.8,20.7838,2.17343,-2.01307
687.4,20.8034,2.17679,-2.01456
688,20.8233,2.1907,-2.01456
688.6,20.8428,2.19232,-2.01615
689.2,20.8626,2.18953,-2.01665
689.8,20.8822,2.1943,-2.01756
690.4,20.9019,2.20176,-2.01862
691,20.9216,2.21167,-2.0186
691.6,20.9412,2.21941,-2.01948
692.2,20.9608,2.23056,-2.02108
692.8,20.9805,2.22714,-2.02173
693.4,21,2.22777,-2.02272
694,21.02,2.23711,-2.02431
694.6,21.0397,2.2389,-2.02468
695.2,21.0591,2.24229,-2.02552
695.8,21.0791,2.25329,-2.02571
696.4,21.099,2.26174,-2.02707
697,21.1183,2.26634,-2.0281
697.6,21.1382,2.25963,-2.02874
698.2,21.158,2.26803,-2.03022
698.8,21.1776,2.27616,-2.03154
699.4,21.1973,2.2797,-2.03271
700,21.2168,2.28243,-2.0335
700.6,21.2365,2.27938,-2.03493
701.2,21.2564,2.292,-2.03582
701.8,21.276,2.29357,-2.03526
702.4,21.2951,2.29994,-2.03662
703,21.3152,2.30876,-2.03664
703.6,21.3351,2.30851,-2.03813
704.2,21.3549,2.30568,-2.0385
704.8,21.3747,2.30706,-2.041
705.4,21.3947,2.31703,-2.04198
706,21.414,2.31317,-2.04229
706.6,21.4336,2.31525,-2.04388
707.2,21.4533,2.32256,-2.04491
707.8,21.4733,2.32675,-2.04562
708.4,21.4931,2.33373,-2.04549
709,21.5126,2.33743,-2.04556
709.6,21.5325,2.33589,-2.04504
710.2,21.5522,2.33973,-2.04543
710.8,21.572,2.34433,-2.04605
711.4,21.5917,2.33813,-2.04753
712,21.6115,2.33376,-2.04795
712.6,21.6311,2.3441,-2.04904
713.2,21.6511,2.34933,-2.05058
713.8,21.6705,2.35184,-2.05211
714.4,21.6907,2.35249,-2.05348
715,21.7102,2.35124,-2.05505
715.6,21.7298,2.35771,-2.05547
716.2,21.7496,2.35594,-2.05641
716.8,21.7693,2.36538,-2.05771
717.4,21.789,2.3737,-2.05771
718,21.8091,2.37345,-2.05827
718.6,21.8288,2.36711,-2.05825
719.2,21.8484,2.36449,-2.05985
719.8,21.8683,2.36434,-2.0606
720.4,21.888,2.36582,-2.06136
721,21.9079,2.36641,-2.06305
721.6,21.9274,2.36015,-2.0629
722.2,21.9474,2.36138,-2.06401
722.8,21.9664,2.3557,-2.06512
723.4,21.9869,2.35495,-2.06619
724,22.0063,2.3511,-2.06779
724.6,22.0265,2.35388,-2.06736
725.2,22.0462,2.35101,-2.06724
725.8,22.0659,2.34729,-2.06774
726.4,22.0854,2.35376,-2.06851
727,22.1052,2.34695,-2.06934
727.6,22.1252,2.33893,-2.07084
728.2,22.1448,2.34255,-2.07239
728.8,22.1644,2.34177,-2.07303
729.4,22.1844,2.3352,-2.0739
730,22.2044,2.3285,-2.07566
730.6,22.2239,2.32338,-2.0766
731.2,22.2435,2.32318,-2.0771
731.8,22.2634,2.32445,-2.07799
732.4,22.2832,2.31502,-2.07838
733,22.3031,2.3114,-2.07843
733.6,22.3228,2.30269,-2.07854
734.2,22.3427,2.29728,-2.08017
734.8,22.3622,2.28961,-2.08102
735.4,22.3821,2.28474,-2.08162
736,22.4012,2.2767,-2.08339
736.6,22.4211,2.27088,-2.08482
737.2,22.4415,2.27196,-2.08567
737.8,22.4613,2.26988,-2.08694
738.4,22.481,2.25612,-2.08751
739,22.5007,2.25318,-2.08822
739.6,22.5204,2.25051,-2.08881
740.2,22.5404,2.24682,-2.08978
740.8,22.56,2.23992,-2.09156
741.4,22.5796,2.24017,-2.09267
742,22.5995,2.22582,-2.09303
742.6,22.6194,2.21894,-2.09466
743.2,22.6392,2.22043,-2.09462
743.8,22.6587,2.20921,-2.09596
744.4,22.6788,2.19635,-2.09584
745,22.6985,2.19328,-2.0969
745.6,22.7183,2.18883,-2.09729
746.2,22.738,2.1741,-2.09896
746.8,22.7576,2.16742,-2.09958
747.4,22.7778,2.1603,-2.09917
748,22.7973,2.15795,-2.10093
748.6,22.8173,2.1406,-2.10225
749.2,22.8369,2.13178,-2.10311
749.8,22.8567,2.12526,-2.10266
750.4,22.8764,2.11683,-2.10442
751,22.8961,2.11466,-2.10434
751.6,22.9158,2.11003,-2.10567
752.2,22.9358,2.10275,-2.10703
752.8,22.9553,2.09296,-2.1086
753.4,22.9754,2.07662,-2.11041
754,22.9953,2.06378,-2.11152
754.6,23.0148,2.06465,-2.11241
755.2,23.0349,2.04806,-2.11325
755.8,23.0546,2.04029,-2.11386
756.4,23.0742,2.02353,-2.11387
757,23.0941,2.02007,-2.11452
757.6,23.1138,2.0106,-2.11503
758.2,23.1335,2.00154,-2.1168
758.8,23.1534,1.98956,-2.11762
759.4,23.1733,1.98514,-2.11677
760,23.1929,1.98279,-2.1182
760.6,23.2128,1.97871,-2.1203
761.2,23.2324,1.96539,-2.12157
761.8,23.2521,1.95171,-2.1226
762.4,23.2721,1.94168,-2.12406
763,23.2919,1.93666,-2.12452
763.6,23.3115,1.92303,-2.12526
764.2,23.3316,1.90335,-2.12393
764.8,23.3513,1.90499,-2.12538
765.4,23.371,1.89813,-2.12608
766,23.391,1.8847,-2.1269
766.6,23.4107,1.87495,-2.12815
767.2,23.4305,1.85882,-2.12866
767.8,23.4504,1.84811,-2.13
768.4,23.4701,1.84946,-2.13167
769,23.4898,1.84373,-2.13312
769.6,23.5095,1.84056,-2.13345
770.2,23.5295,1.82763,-2.13455
770.8,23.5492,1.83032,-2.13455
771.4,23.5691,1.81912,-2.13611
772,23.5886,1.81265,-2.1373
772.6,23.6088,1.7999,-2.13769
773.2,23.6283,1.79397,-2.13901
773.8,23.6483,1.78914,-2.13911
774.4,23.6683,1.78689,-2.13991
775,23.6879,1.78422,-2.14052
775.6,23.7079,1.77356,-2.14095
776.2,23.7275,1.75867,-2.141
776.8,23.7474,1.75204,-2.14241
777.4,23.7672,1.76009,-2.14385
778,23.7871,1.7489,-2.14417
778.6,23.8069,1.74466,-2.1454
779.2,23.8266,1.73894,-2.14624
779.8,23.8463,1.72825,-2.14639
780.4,23.8663,1.71991,-2.14719
781,23.8861,1.71073,-2.14719
781.6,23.9058,1.70998,-2.1487
782.2,23.9258,1.704,-2.14947
782.8,23.9458,1.70003,-2.1502
783.4,23.9655,1.69388,-2.15168
784,23.9853,1.68683,-2.15238
784.6,24.005,1.67937,-2.15318
785.2,24.025,1.67008,-2.15473
785.8,24.0446,1.67176,-2.15505
786.4,24.0646,1.66786,-2.15614
787,24.0844,1.65945,-2.15733
787.6,24.1044,1.64922,-2.1581
788.2,24.124,1.64381,-2.15934
788.8,24.144,1.63751,-2.15873
789.4,24.1635,1.62925,-2.15936
790,24.1834,1.6249,-2.15933
790.6,24.2034,1.61245,-2.16066
791.2,24.2236,1.60638,-2.16462
791.8,24.2432,1.59825,-2.16895
792.4,24.2631,1.59354,-2.16901
793,24.2828,1.59031,-2.16731
793.6,24.3027,1.57689,-2.16414
794.2,24.3227,1.5763,-2.16238
794.8,24.3422,1.56249,-2.16285
795.4,24.3627,1.55319,-2.16166
796,24.3823,1.5441,-2.16275
796.6,24.4021,1.53475,-2.16329
797.2,24.4222,1.53228,-2.1645
797.8,24.4416,1.51628,-2.16699
798.4,24.4619,1.50023,-2.16726
799,24.4815,1.49638,-2.1686
799.6,24.5017,1.48633,-2.16869
800.2,24.5215,1.47192,-2.17003
800.8,24.5416,1.46753,-2.17011
801.4,24.5613,1.45832,-2.17161
802,24.5812,1.46211,-2.17216
802.6,24.6011,1.45414,-2.17294
803.2,24.6213,1.44695,-2.17405
803.8,24.6408,1.4377,-2.17433
804.4,24.6607,1.42188,-2.17535
805,24.6806,1.41035,-2.17561
805.6,24.7006,1.40005,-2.1768
806.2,24.7204,1.39619,-2.1769
806.8,24.7402,1.38287,-2.17826
807.4,24.7601,1.37238,-2.17834
808,24.7801,1.35739,-2.17888
808.6,24.8002,1.34501,-2.1801
809.2,24.8199,1.33161,-2.18296
809.8,24.8399,1.3185,-2.18678
810.4,24.8593,1.3121,-2.18826
811,24.8797,1.3006,-2.18598
811.6,24.8995,1.29557,-2.18376
812.2,24.9194,1.28104,-2.18161
812.8,24.9394,1.26834,-2.18063
813.4,24.9592,1.26254,-2.17887
814,24.9794,1.25533,-2.18028
814.6,24.9991,1.2378,-2.18125
815.2,25.019,1.22147,-2.18311
815.8,25.0391,1.21596,-2.1833
816.4,25.059,1.20551,-2.18466
817,25.0789,1.18284,-2.18465
817.6,25.0988,1.17399,-2.18516
818.2,25.1187,1.1553,-2.18507
818.8,25.138,1.1337,-2.18603
819.4,25.1582,1.10799,-2.18635
820,25.1784,1.1018,-2.18933
820.6,25.1986,1.08756,-2.19246
821.2,25.2185,1.06831,-2.19599
821.8,25.2382,1.05791,-2.1959
822.4,25.2582,1.05033,-2.19353
823,25.2783,1.02494,-2.19163
823.6,25.298,1.01501,-2.19049
824.2,25.3181,0.997382,-2.19214
824.8,25.3381,0.984684,-2.19145
825.4,25.3582,0.974401,-2.19178
826,25.3783,0.962518,-2.19235
826.6,25.3979,0.96025,-2.19239
827.2,25.4182,0.95318,-2.19269
827.8,25.438,0.94173,-2.19369
828.4,25.4577,0.93567,-2.19368
829,25.4772,0.921767,-2.19369
829.6,25.4975,0.917587,-2.19381
830.2,25.5176,0.910837,-2.19493
830.8,25.538,0.907503,-2.19469
831.4,25.558,0.893933,-2.19482
832,25.5777,0.884088,-2.19616
832.6,25.598,0.878486,-2.1961
833.2,25.6179,0.864972,-2.19606
833.8,25.6379,0.854016,-2.19704
834.4,25.6581,0.849981,-2.19739
835,25.678,0.833124,-2.19734
835.6,25.6982,0.81682,-2.19867
836.2,25.7178,0.814408,-2.19881
836.8,25.738,0.805249,-2.2
837.4,25.7578,0.790023,-2.20078
838,25.7778,0.776474,-2.20078
838.6,25.7982,0.770482,-2.20178
839.2,25.818,0.761815,-2.20208
839.8,25.8381,0.747934,-2.20142
840,25.8447,0.742189,-2.20215