File: 01_Data/Helmet_Strap/STA/N2/30K_min/Helmet_Strap_STA_N2_30KData_250331_R2.csv
Temp./C,Time/min,DSC/(mW/mg),Mass loss/mg
60.0,0.0,1.21514,-0.00635132
60.6,0.0369123,1.26261,-0.00755691
61.2,0.072016,1.31471,-0.0069509
61.8,0.107489,1.36063,-0.00614575
62.4,0.141341,1.40275,-0.00729668
63,0.174915,1.44175,-0.00697906
63.6,0.206087,1.48229,-0.00634056
64.2,0.240025,1.52418,-0.00710979
64.8,0.270989,1.57429,-0.00538462
65.4,0.302593,1.61884,-0.00245396
66,0.332904,1.64857,-0.00489409
66.6,0.363319,1.67921,-0.0103087
67.2,0.392139,1.7164,-0.0129658
67.8,0.421693,1.75066,-0.0127288
68.4,0.450355,1.77875,-0.0112144
69,0.479247,1.81026,-0.0104618
69.6,0.507367,1.84131,-0.0117124
70.2,0.534115,1.87738,-0.011594
70.8,0.5634,1.9022,-0.0120586
71.4,0.590961,1.93119,-0.0119309
72,0.617547,1.95563,-0.0110684
72.6,0.644837,1.97864,-0.0117571
73.2,0.672428,2.01473,-0.0118634
73.8,0.698161,2.03713,-0.0122645
74.4,0.724805,2.06647,-0.0119999
75,0.749427,2.08466,-0.0112472
75.6,0.776482,2.11771,-0.0115702
76.2,0.802827,2.14408,-0.0124112
76.8,0.828346,2.17537,-0.0124723
77.4,0.854036,2.19525,-0.0125438
78,0.879404,2.20936,-0.0126121
78.6,0.904646,2.22452,-0.0127837
79.2,0.929596,2.24638,-0.0129419
79.8,0.95448,2.27823,-0.0130364
80.4,0.979042,2.30316,-0.0132266
81,1.00431,2.32527,-0.0128598
81.6,1.02848,2.34878,-0.0128683
82.2,1.05274,2.36575,-0.0135864
82.8,1.07711,2.38237,-0.0144473
83.4,1.10113,2.40395,-0.0147611
84,1.1256,2.41833,-0.014977
84.6,1.14971,2.4504,-0.0146422
85.2,1.17283,2.47462,-0.0140117
85.8,1.19686,2.49191,-0.0137001
86.4,1.22079,2.51275,-0.0131177
87,1.24423,2.53565,-0.0125208
87.6,1.26763,2.55275,-0.0134608
88.2,1.29099,2.57856,-0.0137351
88.8,1.31495,2.60054,-0.0133091
89.4,1.33788,2.60762,-0.0134253
90,1.36072,2.64458,-0.0136675
90.6,1.38404,2.66176,-0.0139591
91.2,1.40649,2.68266,-0.0141431
91.8,1.42959,2.69416,-0.0143854
92.4,1.45215,2.73206,-0.0141394
93,1.47506,2.73859,-0.0137328
93.6,1.49763,2.76614,-0.0126035
94.2,1.52033,2.78288,-0.0125143
94.8,1.54276,2.80271,-0.0139462
95.4,1.56511,2.81969,-0.0139185
96,1.58774,2.82977,-0.0145632
96.6,1.60855,2.85527,-0.0147142
97.2,1.63112,2.86043,-0.0148587
97.8,1.65406,2.88791,-0.0155541
98.4,1.67609,2.91137,-0.014438
99,1.69863,2.92628,-0.0159656
99.6,1.72059,2.93754,-0.0174208
100.2,1.74221,2.96359,-0.0169671
100.8,1.76429,2.96888,-0.0175369
101.4,1.78592,2.97539,-0.0175266
102,1.80794,2.99249,-0.018122
102.6,1.82995,3.00147,-0.017564
103.2,1.85119,3.01238,-0.0179344
103.8,1.87271,3.02008,-0.018855
104.4,1.89506,3.02287,-0.0195872
105,1.91659,3.03301,-0.0187507
105.6,1.93802,3.04479,-0.0190127
106.2,1.95964,3.05681,-0.0204603
106.8,1.98097,3.06651,-0.020134
107.4,2.00271,3.07184,-0.0205281
108,2.02381,3.07612,-0.0205313
108.6,2.04563,3.09111,-0.0206542
109.2,2.06731,3.1013,-0.020644
109.8,2.08825,3.10943,-0.021068
110.4,2.10961,3.11435,-0.0219393
111,2.13059,3.11221,-0.0210514
111.6,2.1522,3.11368,-0.0204237
112.2,2.17203,3.1221,-0.0192705
112.8,2.19434,3.12452,-0.0204229
113.4,2.21511,3.12007,-0.0204197
114,2.23642,3.1243,-0.0204138
114.6,2.25741,3.12549,-0.020317
115.2,2.27852,3.13009,-0.0216984
115.8,2.29978,3.12393,-0.0212917
116.4,2.32071,3.12496,-0.0203927
117,2.34053,3.12469,-0.0204104
117.6,2.3628,3.11813,-0.0204442
118.2,2.38305,3.11332,-0.0213829
118.8,2.40422,3.12294,-0.0204355
119.4,2.42514,3.12437,-0.0204129
120,2.44553,3.11797,-0.0204231
120.6,2.46656,3.1132,-0.020701
121.2,2.4873,3.11634,-0.021887
121.8,2.50781,3.10667,-0.0218444
122.4,2.52841,3.10899,-0.021857
123,2.54903,3.10194,-0.0223819
123.6,2.56975,3.09845,-0.0219876
124.2,2.58966,3.09655,-0.0218643
124.8,2.61061,3.09847,-0.0224878
125.4,2.63092,3.09629,-0.0231566
126,2.65133,3.09756,-0.0231595
126.6,2.67188,3.09547,-0.0228717
127.2,2.69221,3.08449,-0.0218372
127.8,2.71191,3.09374,-0.0218394
128.4,2.73281,3.08807,-0.0218408
129,2.75299,3.09674,-0.0218537
129.6,2.77329,3.09599,-0.022072
130.2,2.79341,3.08832,-0.023165
130.8,2.81353,3.08361,-0.0231605
131.4,2.83403,3.06568,-0.0231614
132,2.85381,3.05483,-0.0231788
132.6,2.87397,3.05896,-0.0234704
133.2,2.89402,3.05054,-0.0245025
133.8,2.91385,3.06413,-0.0236987
134.4,2.93389,3.07398,-0.0232152
135,2.95381,3.08293,-0.0245734
135.6,2.97396,3.08204,-0.0245132
136.2,2.99358,3.08642,-0.0233998
136.8,3.01368,3.08613,-0.0231607
137.4,3.03337,3.09326,-0.0231548
138,3.05305,3.10094,-0.0237974
138.6,3.07338,3.10312,-0.0244452
139.2,3.09265,3.11255,-0.0241253
139.8,3.11258,3.11423,-0.023163
140.4,3.13199,3.1234,-0.0231595
141,3.15205,3.12547,-0.0231598
141.6,3.17155,3.13008,-0.0231581
142.2,3.19082,3.13768,-0.0231461
142.8,3.21053,3.1388,-0.0241605
143.4,3.23028,3.13848,-0.0244798
144,3.24987,3.16073,-0.0244788
144.6,3.26918,3.1677,-0.024463
145.2,3.28889,3.18285,-0.0240333
145.8,3.30806,3.17961,-0.0238365
146.4,3.32783,3.19121,-0.023821
147,3.34715,3.18458,-0.0238167
147.6,3.36606,3.20121,-0.0237754
148.2,3.38594,3.21176,-0.0248949
148.8,3.40538,3.21867,-0.0251254
149.4,3.42421,3.22897,-0.0251362
150,3.44366,3.23067,-0.0251159
150.6,3.46348,3.23004,-0.0244655
151.2,3.48238,3.24709,-0.0244809
151.8,3.50171,3.2676,-0.0244882
152.4,3.5209,3.27308,-0.0258226
153,3.54021,3.28042,-0.0258003
153.6,3.55935,3.28062,-0.0257995
154.2,3.57862,3.28591,-0.0258
154.8,3.5977,3.30516,-0.0258
155.4,3.61693,3.31239,-0.0258
156,3.63601,3.32174,-0.0258
156.6,3.65519,3.32896,-0.0258
157.2,3.67443,3.33816,-0.0258
157.8,3.69331,3.34791,-0.0258
158.4,3.71235,3.35138,-0.0258
159,3.73122,3.3636,-0.0258012
159.6,3.75053,3.37689,-0.0259991
160.2,3.76942,3.38146,-0.0271763
160.8,3.7885,3.39366,-0.0271297
161.4,3.80744,3.406,-0.0271817
162,3.82656,3.41385,-0.0264279
162.6,3.84558,3.42483,-0.0271708
163.2,3.86424,3.42529,-0.0271145
163.8,3.8835,3.44177,-0.0271103
164.4,3.90258,3.44488,-0.02711
165,3.92126,3.45299,-0.02711
165.6,3.94053,3.47559,-0.02711
166.2,3.95903,3.47452,-0.02711
166.8,3.97771,3.47965,-0.02711
167.4,3.99682,3.49235,-0.02711
168,4.01573,3.50205,-0.02711
168.6,4.03457,3.51282,-0.02711
169.2,4.05362,3.51987,-0.02711
169.8,4.0721,3.51192,-0.02711
170.4,4.09087,3.52057,-0.02711
171,4.10976,3.53648,-0.02711
171.6,4.12848,3.54084,-0.0271101
172.2,4.14726,3.54873,-0.0271121
172.8,4.16623,3.55823,-0.0271962
173.4,4.18506,3.57066,-0.0285238
174,4.20384,3.58197,-0.0284324
174.6,4.22248,3.57767,-0.0284004
175.2,4.24083,3.59362,-0.0294533
175.8,4.25977,3.59419,-0.0296584
176.4,4.27862,3.60225,-0.0310305
177,4.29714,3.6125,-0.0310679
177.6,4.31612,3.62739,-0.0310693
178.2,4.33436,3.63156,-0.0310658
178.8,4.353,3.63605,-0.0310475
179.4,4.37154,3.64398,-0.03196
180,4.38997,3.65043,-0.0310666
180.6,4.40874,3.66544,-0.031061
181.2,4.42708,3.67452,-0.0310597
181.8,4.44597,3.68383,-0.0310541
182.4,4.46418,3.69018,-0.0309939
183,4.48291,3.69476,-0.0322086
183.6,4.50129,3.70837,-0.0336588
184.2,4.51969,3.7168,-0.0336932
184.8,4.53823,3.71998,-0.0336992
185.4,4.55675,3.72269,-0.0336999
186,4.57486,3.73213,-0.0337
186.6,4.5932,3.74302,-0.0337
187.2,4.61184,3.74361,-0.0337
187.8,4.63032,3.75079,-0.0337
188.4,4.64878,3.76223,-0.0337002
189,4.66705,3.77538,-0.0337019
189.6,4.68535,3.77819,-0.0337266
190.2,4.70372,3.78011,-0.0350774
190.8,4.72193,3.78591,-0.0350172
191.4,4.74044,3.79884,-0.0349809
192,4.75845,3.79877,-0.0361466
192.6,4.77712,3.81002,-0.0363262
193.2,4.79529,3.81517,-0.0363387
193.8,4.81339,3.82246,-0.036337
194.4,4.83196,3.83529,-0.0367323
195,4.85004,3.84591,-0.0376777
195.6,4.86848,3.8406,-0.0375663
196.2,4.88674,3.84168,-0.0389333
196.8,4.90486,3.84947,-0.0390275
197.4,4.92309,3.85773,-0.0401274
198,4.94152,3.86957,-0.0404009
198.6,4.95943,3.8782,-0.0403844
199.2,4.97794,3.88079,-0.0409127
199.8,4.99621,3.89012,-0.0403267
200.4,5.01431,3.89431,-0.040395
201,5.03229,3.89477,-0.0403999
201.6,5.05064,3.89498,-0.0404001
202.2,5.06854,3.91,-0.0404014
202.8,5.08688,3.92039,-0.0404822
203.4,5.10506,3.92255,-0.0418254
204,5.12303,3.93212,-0.0417246
204.6,5.14132,3.93116,-0.0429619
205.2,5.15864,3.93671,-0.043018
205.8,5.17705,3.94856,-0.0430381
206.4,5.19604,3.95686,-0.0430372
207,5.21395,3.95662,-0.0430249
207.6,5.23181,3.96003,-0.0436526
208.2,5.24994,3.96793,-0.0443758
208.8,5.2683,3.97794,-0.0443554
209.4,5.28634,3.98119,-0.0443794
210,5.30439,3.97768,-0.0438446
210.6,5.32262,3.98566,-0.0443653
211.2,5.34061,3.99654,-0.0443554
211.8,5.35865,4.0056,-0.0444918
212.4,5.3767,4.00874,-0.0436433
213,5.39487,4.01568,-0.0446758
213.6,5.41318,4.02477,-0.0446788
214.2,5.4305,4.03302,-0.0447005
214.8,5.4492,4.0333,-0.0453375
215.4,5.46709,4.03063,-0.0460074
216,5.48524,4.04776,-0.0460019
216.6,5.50313,4.05497,-0.0460086
217.2,5.52121,4.0632,-0.0459918
217.8,5.53913,4.06937,-0.0473004
218.4,5.55716,4.07407,-0.0472715
219,5.57542,4.09491,-0.048214
219.6,5.59291,4.1003,-0.048626
220.2,5.6112,4.11539,-0.0486287
220.8,5.62911,4.11277,-0.0485794
221.4,5.64739,4.12456,-0.0496838
222,5.6654,4.13278,-0.0499347
222.6,5.68344,4.1415,-0.0503844
223.2,5.70141,4.15011,-0.0514008
223.8,5.71933,4.15277,-0.0515193
224.4,5.7373,4.1715,-0.0527903
225,5.75558,4.19295,-0.0527163
225.6,5.77351,4.19718,-0.0527393
226.2,5.79166,4.2147,-0.053985
226.8,5.80967,4.23096,-0.0540267
227.4,5.82757,4.24343,-0.054496
228,5.84525,4.25566,-0.0553309
228.6,5.86307,4.27562,-0.0553172
229.2,5.88157,4.2901,-0.0562457
229.8,5.89959,4.30849,-0.0566577
230.4,5.91744,4.32308,-0.0567461
231,5.93549,4.33837,-0.0554572
231.6,5.95355,4.35442,-0.0557686
232.2,5.97166,4.36915,-0.0566502
232.8,5.98948,4.38248,-0.0578578
233.4,6.00738,4.39669,-0.0595901
234,6.02523,4.41634,-0.0595131
234.6,6.04325,4.4357,-0.0595312
235.2,6.06097,4.44689,-0.0607674
235.8,6.07922,4.45459,-0.0608044
236.4,6.097,4.45838,-0.0607327
237,6.11492,4.47096,-0.0619792
237.6,6.13289,4.47856,-0.0621395
238.2,6.15098,4.49228,-0.0621407
238.8,6.16875,4.49943,-0.0621527
239.4,6.1867,4.48974,-0.0623524
240,6.20443,4.49367,-0.0634839
240.6,6.22235,4.50068,-0.063439
241.2,6.2405,4.49302,-0.0630405
241.8,6.25797,4.49221,-0.0634788
242.4,6.27608,4.49311,-0.0636175
243,6.29362,4.49131,-0.0649202
243.6,6.31159,4.48761,-0.0648393
244.2,6.32945,4.48527,-0.0662844
244.8,6.34735,4.47988,-0.0667946
245.4,6.36516,4.47378,-0.0678251
246,6.38328,4.47641,-0.0685722
246.6,6.40087,4.47334,-0.0692051
247.2,6.41863,4.46155,-0.068134
247.8,6.43672,4.45911,-0.0694602
248.4,6.45437,4.45717,-0.069668
249,6.47223,4.45729,-0.0711229
249.6,6.49011,4.44517,-0.0710727
250.2,6.50792,4.44484,-0.0722327
250.8,6.52592,4.43774,-0.072435
251.4,6.54305,4.43648,-0.0724476
252,6.56138,4.42662,-0.072708
252.6,6.57933,4.41585,-0.0743619
253.2,6.59695,4.42994,-0.0748841
253.8,6.61484,4.43053,-0.0760723
254.4,6.63253,4.41884,-0.0775065
255,6.65057,4.40164,-0.0788777
255.6,6.66856,4.41155,-0.0793401
256.2,6.68526,4.39916,-0.0804452
256.8,6.70401,4.40108,-0.0816949
257.4,6.72157,4.39174,-0.0825793
258,6.73961,4.40554,-0.0838293
258.6,6.75727,4.40512,-0.0853103
259.2,6.77509,4.4051,-0.0858826
259.8,6.79292,4.39851,-0.0855086
260.4,6.81053,4.4016,-0.0857805
261,6.82849,4.38902,-0.0866845
261.6,6.84559,4.39332,-0.0875147
262.2,6.86442,4.39364,-0.0885333
262.8,6.88202,4.3918,-0.0893346
263.4,6.89979,4.38624,-0.0908576
264,6.91756,4.38471,-0.0919059
264.6,6.935,4.39008,-0.092658
265.2,6.95327,4.38779,-0.0942317
265.8,6.97065,4.38207,-0.0958379
266.4,6.9886,4.36967,-0.0972291
267,7.00638,4.36387,-0.0981202
267.6,7.02438,4.36076,-0.0995738
268.2,7.042,4.35071,-0.101176
268.8,7.05952,4.35945,-0.101097
269.4,7.07718,4.37247,-0.10246
270,7.09522,4.36381,-0.103225
270.6,7.11284,4.35061,-0.104551
271.2,7.13054,4.34086,-0.106364
271.8,7.14833,4.33974,-0.108207
272.4,7.16598,4.33139,-0.109918
273,7.1839,4.32445,-0.111611
273.6,7.20155,4.31739,-0.113726
274.2,7.21958,4.31506,-0.115331
274.8,7.23722,4.31556,-0.116196
275.4,7.25474,4.30326,-0.117354
276,7.27262,4.294,-0.118902
276.6,7.29035,4.28711,-0.119949
277.2,7.30842,4.2762,-0.12155
277.8,7.3259,4.27017,-0.123239
278.4,7.34366,4.26527,-0.124979
279,7.36135,4.25126,-0.126401
279.6,7.37836,4.24476,-0.127872
280.2,7.39694,4.22506,-0.129439
280.8,7.4146,4.22146,-0.131449
281.4,7.4325,4.20726,-0.132109
282,7.45011,4.20185,-0.133884
282.6,7.46781,4.19551,-0.135533
283.2,7.48561,4.18871,-0.137153
283.8,7.50358,4.17658,-0.138535
284.4,7.52099,4.16531,-0.138978
285,7.53895,4.17243,-0.140602
285.6,7.5567,4.16891,-0.141833
286.2,7.5746,4.15397,-0.142881
286.8,7.59224,4.1361,-0.144347
287.4,7.61008,4.12511,-0.146099
288,7.62765,4.12197,-0.14787
288.6,7.6454,4.11435,-0.150859
289.2,7.6631,4.09626,-0.152973
289.8,7.68117,4.07841,-0.15495
290.4,7.69875,4.05833,-0.156487
291,7.71663,4.05851,-0.157367
291.6,7.73427,4.05334,-0.158385
292.2,7.75206,4.02672,-0.159039
292.8,7.76982,4.00699,-0.159556
293.4,7.78726,3.98934,-0.16093
294,7.80514,3.97261,-0.163283
294.6,7.82285,3.969,-0.165262
295.2,7.84075,3.95579,-0.167174
295.8,7.85852,3.94943,-0.168787
296.4,7.87653,3.95489,-0.170326
297,7.89465,3.9665,-0.171848
297.6,7.91208,3.97541,-0.173285
298.2,7.93,3.99003,-0.173796
298.8,7.94788,4.00365,-0.176061
299.4,7.96565,4.01718,-0.178011
300,7.98355,4.03411,-0.179664
300.6,8.00148,4.05866,-0.180606
301.2,8.01923,4.08918,-0.181576
301.8,8.03743,4.11512,-0.183042
302.4,8.05522,4.13851,-0.184128
303,8.07291,4.14064,-0.185359
303.6,8.091,4.16243,-0.186478
304.2,8.10902,4.17995,-0.18821
304.8,8.12664,4.19543,-0.18956
305.4,8.14467,4.2119,-0.191428
306,8.16274,4.22171,-0.192474
306.6,8.18049,4.2354,-0.193369
307.2,8.1981,4.23986,-0.194538
307.8,8.21619,4.25395,-0.195999
308.4,8.23394,4.2569,-0.197188
309,8.25185,4.26867,-0.19831
309.6,8.26959,4.28114,-0.199651
310.2,8.28749,4.28576,-0.201128
310.8,8.30572,4.29509,-0.201145
311.4,8.32312,4.30448,-0.202569
312,8.34099,4.30054,-0.202732
312.6,8.35899,4.29945,-0.205617
313.2,8.37673,4.30431,-0.206725
313.8,8.3948,4.30408,-0.207205
314.4,8.41238,4.30602,-0.208355
315,8.43061,4.30863,-0.207444
315.6,8.44827,4.31135,-0.208785
316.2,8.46614,4.31032,-0.208866
316.8,8.48422,4.31121,-0.210175
317.4,8.50187,4.30366,-0.2104
318,8.51951,4.29213,-0.211793
318.6,8.53729,4.28811,-0.212144
319.2,8.55538,4.28102,-0.21208
319.8,8.57306,4.28193,-0.213549
320.4,8.59112,4.27832,-0.214063
321,8.60911,4.27673,-0.215067
321.6,8.62678,4.27279,-0.216172
322.2,8.64476,4.26709,-0.216582
322.8,8.66268,4.26524,-0.218272
323.4,8.68026,4.25523,-0.218391
324,8.69801,4.25104,-0.220005
324.6,8.71586,4.23865,-0.219934
325.2,8.73396,4.22588,-0.221276
325.8,8.75179,4.2279,-0.221212
326.4,8.76967,4.2145,-0.221651
327,8.78714,4.2043,-0.222582
327.6,8.80574,4.19544,-0.222087
328.2,8.8231,4.17864,-0.222541
328.8,8.84122,4.17514,-0.222499
329.4,8.859,4.17474,-0.223679
330,8.87692,4.16949,-0.223853
330.6,8.89494,4.15224,-0.225426
331.2,8.91286,4.15697,-0.226611
331.8,8.93049,4.16387,-0.22772
332.4,8.94849,4.15457,-0.227695
333,8.96644,4.14249,-0.227685
333.6,8.98437,4.13335,-0.227654
334.2,9.00206,4.13128,-0.228636
334.8,9.02017,4.12785,-0.229044
335.4,9.0381,4.11403,-0.22938
336,9.05593,4.10764,-0.229742
336.6,9.07406,4.11589,-0.229775
337.2,9.09184,4.10717,-0.231162
337.8,9.10984,4.10245,-0.231137
338.4,9.12782,4.08974,-0.232285
339,9.14555,4.0847,-0.232502
339.6,9.16331,4.09081,-0.232504
340.2,9.18157,4.09153,-0.233429
340.8,9.19947,4.0805,-0.233859
341.4,9.2176,4.07619,-0.235278
342,9.23543,4.07656,-0.235485
342.6,9.25327,4.07072,-0.236362
343.2,9.27093,4.06887,-0.236054
343.8,9.28901,4.07169,-0.236419
344.4,9.30721,4.06943,-0.237398
345,9.32527,4.06277,-0.237401
345.6,9.34308,4.05723,-0.237034
346.2,9.36117,4.05492,-0.238325
346.8,9.37905,4.05608,-0.238347
347.4,9.39715,4.05482,-0.237676
348,9.41542,4.05947,-0.238051
348.6,9.43314,4.06105,-0.23866
349.2,9.45111,4.05925,-0.238662
349.8,9.46928,4.05284,-0.238654
350.4,9.4873,4.05357,-0.23857
351,9.50506,4.05519,-0.239822
351.6,9.52329,4.05389,-0.239983
352.2,9.54104,4.06135,-0.239916
352.8,9.55923,4.05556,-0.241273
353.4,9.57713,4.05402,-0.241298
354,9.59524,4.05428,-0.2413
354.6,9.61337,4.05759,-0.241302
355.2,9.63137,4.06244,-0.241275
355.8,9.64932,4.06526,-0.242475
356.4,9.66747,4.06477,-0.242611
357,9.68531,4.06088,-0.242743
357.6,9.7034,4.06425,-0.243953
358.2,9.72142,4.06355,-0.243769
358.8,9.73963,4.05884,-0.244582
359.4,9.75761,4.0649,-0.243903
360,9.77568,4.06727,-0.243882
360.6,9.79387,4.07958,-0.245039
361.2,9.81123,4.08249,-0.245262
361.8,9.82929,4.08392,-0.245262
362.4,9.8483,4.08431,-0.245287
363,9.86644,4.08314,-0.245607
363.6,9.88436,4.08503,-0.246575
364.2,9.90238,4.09264,-0.246563
364.8,9.92053,4.09789,-0.247265
365.4,9.9386,4.10491,-0.247861
366,9.95698,4.10107,-0.247877
366.6,9.97507,4.10819,-0.247851
367.2,9.99335,4.11647,-0.248628
367.8,10.0114,4.11988,-0.249331
368.4,10.0294,4.12414,-0.249992
369,10.0474,4.13554,-0.25077
369.6,10.0656,4.13363,-0.250877
370.2,10.0834,4.14198,-0.252306
370.8,10.102,4.15965,-0.252562
371.4,10.1203,4.15912,-0.253878
372,10.1382,4.16245,-0.254434
372.6,10.1565,4.17962,-0.25537
373.2,10.1748,4.17951,-0.255401
373.8,10.1929,4.18689,-0.255616
374.4,10.2111,4.19072,-0.25537
375,10.229,4.19168,-0.25536
375.6,10.2475,4.20324,-0.25536
376.2,10.2657,4.20829,-0.25536
376.8,10.2839,4.21777,-0.255358
377.4,10.3023,4.22898,-0.255361
378,10.3202,4.22846,-0.256136
378.6,10.3388,4.2408,-0.256675
379.2,10.3566,4.25073,-0.256671
379.8,10.3749,4.25755,-0.25667
380.4,10.3936,4.26456,-0.25667
381,10.4116,4.27244,-0.25667
381.6,10.4298,4.28198,-0.25667
382.2,10.4479,4.29178,-0.25667
382.8,10.4663,4.30448,-0.25667
383.4,10.4843,4.31294,-0.25667
384,10.5029,4.32278,-0.256676
384.6,10.5211,4.32979,-0.256729
385.2,10.5393,4.34505,-0.257698
385.8,10.5576,4.35133,-0.258533
386.4,10.576,4.36467,-0.258939
387,10.5941,4.38602,-0.258951
387.6,10.6123,4.39646,-0.259625
388.2,10.6309,4.401,-0.260304
388.8,10.6489,4.42173,-0.260293
389.4,10.6674,4.42898,-0.260292
390,10.6857,4.43438,-0.260105
390.6,10.7038,4.4476,-0.259014
391.2,10.7225,4.46195,-0.260291
391.8,10.7407,4.47078,-0.26037
392.4,10.7588,4.48505,-0.259863
393,10.7774,4.50521,-0.260629
393.6,10.7955,4.52465,-0.260349
394.2,10.8137,4.54404,-0.260297
394.8,10.8324,4.55262,-0.260291
395.4,10.8506,4.5637,-0.26029
396,10.8692,4.58577,-0.260292
396.6,10.8875,4.60177,-0.260358
397.2,10.9059,4.61604,-0.261726
397.8,10.924,4.63442,-0.261736
398.4,10.9424,4.6443,-0.26293
399,10.9609,4.67522,-0.262945
399.6,10.9794,4.69816,-0.26362
400.2,10.998,4.72615,-0.264247
400.8,11.0161,4.75214,-0.264241
401.4,11.035,4.78177,-0.26424
402,11.0532,4.79769,-0.264239
402.6,11.072,4.82862,-0.264541
403.2,11.0905,4.85633,-0.265593
403.8,11.1084,4.89492,-0.265565
404.4,11.127,4.94144,-0.266475
405,11.1456,4.97275,-0.267077
405.6,11.164,5.00726,-0.267162
406.2,11.1824,5.03725,-0.268419
406.8,11.2008,5.06858,-0.268416
407.4,11.2196,5.11097,-0.268373
408,11.2378,5.16519,-0.268686
408.6,11.2567,5.21452,-0.268383
409.2,11.2752,5.26271,-0.26835
409.8,11.2937,5.33441,-0.269498
410.4,11.3124,5.38407,-0.26973
411,11.3308,5.44563,-0.26969
411.6,11.3496,5.51647,-0.270924
412.2,11.3683,5.5882,-0.27099
412.8,11.3869,5.65341,-0.272119
413.4,11.4057,5.7281,-0.272462
414,11.4242,5.80912,-0.272479
414.6,11.4427,5.89077,-0.272479
415.2,11.4616,5.97854,-0.272499
415.8,11.4804,6.07405,-0.271054
416.4,11.4991,6.15356,-0.270959
417,11.5179,6.24559,-0.272122
417.6,11.5367,6.34016,-0.273731
418.2,11.5556,6.43449,-0.274967
418.8,11.5744,6.53733,-0.276625
419.4,11.593,6.64306,-0.27808
420,11.6118,6.74585,-0.2792
420.6,11.6308,6.85467,-0.279415
421.2,11.6496,6.96528,-0.279725
421.8,11.6684,7.07773,-0.279816
422.4,11.6874,7.18012,-0.280688
423,11.7063,7.28909,-0.281047
423.6,11.725,7.39077,-0.28234
424.2,11.7441,7.50521,-0.282704
424.8,11.7629,7.60633,-0.284328
425.4,11.7816,7.69619,-0.285349
426,11.8002,7.78456,-0.285788
426.6,11.819,7.86436,-0.28736
427.2,11.838,7.94551,-0.287691
427.8,11.8567,8.00075,-0.288901
428.4,11.8755,8.05278,-0.288967
429,11.8941,8.11557,-0.29029
429.6,11.9129,8.15318,-0.290964
430.2,11.9312,8.17725,-0.291724
430.8,11.9498,8.19893,-0.292005
431.4,11.9685,8.20957,-0.292333
432,11.9869,8.21116,-0.293588
432.6,12.0057,8.20816,-0.294579
433.2,12.0242,8.18684,-0.295677
433.8,12.0428,8.15738,-0.297431
434.4,12.0608,8.1184,-0.298687
435,12.0793,8.0764,-0.300255
435.6,12.0977,8.01885,-0.301616
436.2,12.1161,7.94915,-0.302879
436.8,12.1343,7.87205,-0.303915
437.4,12.1527,7.79977,-0.305582
438,12.1707,7.7206,-0.306562
438.6,12.189,7.61713,-0.308099
439.2,12.2072,7.50822,-0.30982
439.8,12.2255,7.39869,-0.311873
440.4,12.2437,7.28318,-0.313727
441,12.2618,7.16512,-0.314653
441.6,12.2798,7.04136,-0.316584
442.2,12.2982,6.91602,-0.318884
442.8,12.3163,6.80126,-0.321138
443.4,12.3343,6.68928,-0.323882
444,12.3523,6.57254,-0.326814
444.6,12.3709,6.46051,-0.329821
445.2,12.3888,6.36753,-0.332277
445.8,12.4071,6.27097,-0.334428
446.4,12.4256,6.18765,-0.337222
447,12.4437,6.09949,-0.340394
447.6,12.4622,6.02455,-0.342695
448.2,12.4802,5.95656,-0.345726
448.8,12.4989,5.90396,-0.349492
449.4,12.517,5.86014,-0.351552
450,12.5355,5.81861,-0.354521
450.6,12.5542,5.7856,-0.357319
451.2,12.5726,5.76997,-0.360433
451.8,12.591,5.73891,-0.364057
452.4,12.6094,5.71626,-0.367085
453,12.6281,5.71257,-0.37055
453.6,12.6464,5.70395,-0.375008
454.2,12.6653,5.69545,-0.378487
454.8,12.6839,5.69383,-0.381967
455.4,12.7023,5.69366,-0.385651
456,12.7209,5.69497,-0.390324
456.6,12.7398,5.70882,-0.394749
457.2,12.7581,5.71127,-0.399824
457.8,12.7772,5.72702,-0.404409
458.4,12.7955,5.73525,-0.409908
459,12.8141,5.74577,-0.414068
459.6,12.8328,5.75864,-0.419126
460.2,12.8516,5.77129,-0.422811
460.8,12.8701,5.79033,-0.428103
461.4,12.889,5.80491,-0.432984
462,12.9076,5.8119,-0.438931
462.6,12.9265,5.8266,-0.444175
463.2,12.9449,5.84074,-0.450044
463.8,12.9634,5.85497,-0.455718
464.4,12.9824,5.86996,-0.460659
465,13.001,5.87171,-0.467067
465.6,13.0196,5.88896,-0.472904
466.2,13.0377,5.9013,-0.479122
466.8,13.0572,5.91297,-0.485029
467.4,13.076,5.9253,-0.49233
468,13.095,5.94326,-0.498201
468.6,13.1134,5.9429,-0.505209
469.2,13.1322,5.95414,-0.510755
469.8,13.1509,5.96161,-0.51847
470.4,13.1699,5.9727,-0.524351
471,13.1884,5.97064,-0.531415
471.6,13.2071,5.97602,-0.537367
472.2,13.2257,5.98427,-0.544843
472.8,13.2444,5.99311,-0.552003
473.4,13.2633,5.99471,-0.55919
474,13.2818,6.00279,-0.565749
474.6,13.3007,6.00342,-0.572525
475.2,13.3195,6.00964,-0.580656
475.8,13.3381,6.00868,-0.587872
476.4,13.357,6.00716,-0.596169
477,13.3755,6.00932,-0.604351
477.6,13.3942,6.00639,-0.612874
478.2,13.4131,6.00797,-0.61991
478.8,13.4319,6.00963,-0.629085
479.4,13.4507,6.00401,-0.633899
480,13.4695,6.00553,-0.641955
480.6,13.4885,6.00299,-0.647794
481.2,13.5071,5.99931,-0.656234
481.8,13.5255,5.9904,-0.663694
482.4,13.5446,5.98206,-0.671113
483,13.5631,5.9702,-0.678185
483.6,13.5824,5.96006,-0.685937
484.2,13.6007,5.95466,-0.693874
484.8,13.6195,5.94173,-0.702002
485.4,13.6382,5.93198,-0.711073
486,13.6572,5.91664,-0.718628
486.6,13.6761,5.90472,-0.727553
487.2,13.6947,5.88378,-0.734639
487.8,13.7134,5.87599,-0.744399
488.4,13.7323,5.85983,-0.751486
489,13.751,5.8468,-0.761019
489.6,13.7699,5.82182,-0.767814
490.2,13.7884,5.80181,-0.776221
490.8,13.8075,5.77629,-0.78369
491.4,13.8262,5.76172,-0.792069
492,13.8449,5.7352,-0.799349
492.6,13.8636,5.70706,-0.807033
493.2,13.8816,5.68654,-0.81412
493.8,13.9008,5.66192,-0.821511
494.4,13.9197,5.63386,-0.829617
495,13.9382,5.6126,-0.836684
495.6,13.9571,5.57619,-0.844745
496.2,13.9758,5.55952,-0.852221
496.8,13.9948,5.52318,-0.860583
497.4,14.0136,5.48597,-0.867085
498,14.0321,5.45598,-0.875384
498.6,14.051,5.42756,-0.882002
499.2,14.0699,5.38805,-0.890059
499.8,14.0885,5.36583,-0.89621
500.4,14.1072,5.33966,-0.903875
501,14.1257,5.28971,-0.909592
501.6,14.1449,5.26286,-0.916016
502.2,14.1637,5.22455,-0.92167
502.8,14.1826,5.19032,-0.928955
503.4,14.2012,5.15517,-0.936523
504,14.2198,5.11938,-0.943362
504.6,14.2388,5.0921,-0.950946
505.2,14.2576,5.052,-0.956912
505.8,14.2763,5.01111,-0.963671
506.4,14.295,4.97711,-0.968789
507,14.314,4.93602,-0.975725
507.6,14.3326,4.91516,-0.980971
508.2,14.3516,4.86963,-0.987683
508.8,14.3705,4.84752,-0.992732
509.4,14.3894,4.80334,-0.999027
510,14.4081,4.77066,-1.00412
510.6,14.4269,4.73354,-1.0103
511.2,14.4456,4.71222,-1.01566
511.8,14.4646,4.6801,-1.02146
512.4,14.4835,4.6498,-1.02719
513,14.5021,4.63042,-1.03316
513.6,14.5206,4.5961,-1.03979
514.2,14.5389,4.5732,-1.04534
514.8,14.5582,4.54069,-1.0511
515.4,14.5778,4.50839,-1.05654
516,14.5967,4.48435,-1.0623
516.6,14.6153,4.46412,-1.06662
517.2,14.6343,4.43785,-1.07252
517.8,14.6533,4.41894,-1.07627
518.4,14.672,4.40009,-1.08125
519,14.6909,4.36397,-1.08566
519.6,14.7099,4.34667,-1.09162
520.2,14.729,4.33267,-1.09591
520.8,14.7479,4.31825,-1.10115
521.4,14.7666,4.29581,-1.1057
522,14.7858,4.28278,-1.11104
522.6,14.8047,4.26043,-1.11554
523.2,14.8235,4.23753,-1.12033
523.8,14.8425,4.22792,-1.12497
524.4,14.8613,4.208,-1.12977
525,14.8797,4.1877,-1.13469
525.6,14.8987,4.17332,-1.13933
526.2,14.9184,4.15607,-1.14476
526.8,14.9375,4.14076,-1.14889
527.4,14.9564,4.12998,-1.15389
528,14.9753,4.10248,-1.15802
528.6,14.9942,4.09928,-1.16311
529.2,15.0131,4.07846,-1.16682
529.8,15.0323,4.06591,-1.17211
530.4,15.0514,4.04986,-1.17638
531,15.0703,4.03409,-1.18171
531.6,15.0892,4.01474,-1.18573
532.2,15.1083,4.00986,-1.19034
532.8,15.1273,4.00071,-1.19391
533.4,15.1465,3.98093,-1.19859
534,15.1655,3.96338,-1.20303
534.6,15.1844,3.95477,-1.20797
535.2,15.2034,3.95146,-1.21206
535.8,15.2225,3.93665,-1.21506
536.4,15.2416,3.92804,-1.21975
537,15.2606,3.91813,-1.22442
537.6,15.2798,3.90645,-1.22965
538.2,15.2987,3.89577,-1.23365
538.8,15.318,3.88561,-1.23778
539.4,15.3368,3.88118,-1.242
540,15.3561,3.87097,-1.24606
540.6,15.3752,3.86401,-1.25045
541.2,15.3935,3.85288,-1.25445
541.8,15.4133,3.84054,-1.25917
542.4,15.4326,3.82571,-1.26291
543,15.4515,3.82547,-1.26601
543.6,15.4703,3.81884,-1.2706
544.2,15.4894,3.81614,-1.27525
544.8,15.5087,3.80937,-1.27768
545.4,15.5278,3.80432,-1.28153
546,15.5469,3.79808,-1.28488
546.6,15.566,3.78457,-1.28915
547.2,15.5851,3.78728,-1.29461
547.8,15.6042,3.77303,-1.29923
548.4,15.623,3.76913,-1.30526
549,15.6424,3.75657,-1.30939
549.6,15.6615,3.74581,-1.3134
550.2,15.6806,3.74473,-1.31693
550.8,15.6999,3.73019,-1.31961
551.4,15.7189,3.72007,-1.32406
552,15.7379,3.70807,-1.32869
552.6,15.7569,3.70835,-1.33263
553.2,15.7762,3.69392,-1.33692
553.8,15.7953,3.69196,-1.34036
554.4,15.8144,3.67767,-1.34472
555,15.8335,3.66831,-1.34913
555.6,15.8527,3.66279,-1.35179
556.2,15.8718,3.65212,-1.35501
556.8,15.8908,3.64879,-1.35947
557.4,15.91,3.63742,-1.36359
558,15.9292,3.62373,-1.36737
558.6,15.9482,3.61373,-1.37037
559.2,15.9674,3.60764,-1.37273
559.8,15.9866,3.59243,-1.37725
560.4,16.0058,3.5795,-1.38181
561,16.0249,3.56529,-1.38618
561.6,16.0441,3.55523,-1.39056
562.2,16.0633,3.5507,-1.3954
562.8,16.0823,3.54546,-1.39915
563.4,16.1012,3.53697,-1.40306
564,16.1209,3.52093,-1.40733
564.6,16.14,3.50817,-1.41127
565.2,16.1591,3.49529,-1.41526
565.8,16.1783,3.48857,-1.41893
566.4,16.1975,3.47593,-1.42364
567,16.2166,3.46343,-1.4274
567.6,16.2356,3.45391,-1.4324
568.2,16.255,3.44953,-1.43643
568.8,16.274,3.43257,-1.43906
569.4,16.2933,3.42168,-1.44266
570,16.3124,3.40343,-1.44649
570.6,16.3318,3.40039,-1.45088
571.2,16.3509,3.38837,-1.45513
571.8,16.3698,3.36941,-1.45835
572.4,16.3892,3.36024,-1.46203
573,16.4081,3.34969,-1.46561
573.6,16.4274,3.33893,-1.46983
574.2,16.4466,3.32595,-1.47372
574.8,16.4658,3.31086,-1.47621
575.4,16.485,3.29804,-1.47892
576,16.5042,3.285,-1.48223
576.6,16.5234,3.27147,-1.48537
577.2,16.5425,3.25354,-1.48909
577.8,16.5616,3.23954,-1.49334
578.4,16.5812,3.2277,-1.49725
579,16.6003,3.20664,-1.50108
579.6,16.6196,3.20151,-1.50431
580.2,16.6389,3.18727,-1.50828
580.8,16.6578,3.17494,-1.51167
581.4,16.677,3.16219,-1.51501
582,16.6964,3.15143,-1.51835
582.6,16.7154,3.12936,-1.52127
583.2,16.7347,3.10634,-1.52471
583.8,16.7542,3.09823,-1.52906
584.4,16.7733,3.08941,-1.5321
585,16.792,3.07608,-1.53544
585.6,16.8117,3.06225,-1.53908
586.2,16.831,3.04918,-1.54286
586.8,16.85,3.034,-1.54635
587.4,16.8694,3.02002,-1.54908
588,16.8886,2.99865,-1.55248
588.6,16.9079,2.9916,-1.55594
589.2,16.9271,2.98488,-1.55927
589.8,16.9464,2.96591,-1.56295
590.4,16.9656,2.95001,-1.56655
591,16.985,2.93737,-1.56996
591.6,17.0042,2.92332,-1.5738
592.2,17.0234,2.91215,-1.57681
592.8,17.0428,2.90256,-1.58007
593.4,17.0623,2.88339,-1.58306
594,17.0816,2.86692,-1.58562
594.6,17.1006,2.85289,-1.58865
595.2,17.1202,2.83794,-1.59139
595.8,17.1392,2.83172,-1.59475
596.4,17.1583,2.81694,-1.59773
597,17.1779,2.80271,-1.60023
597.6,17.1971,2.79797,-1.60328
598.2,17.2165,2.78286,-1.60565
598.8,17.2357,2.75856,-1.60957
599.4,17.2553,2.74277,-1.61353
600,17.2745,2.72911,-1.61605
600.6,17.2933,2.72461,-1.61884
601.2,17.3129,2.71276,-1.62245
601.8,17.3321,2.70276,-1.62518
602.4,17.3514,2.6945,-1.6251
603,17.3708,2.68663,-1.62381
603.6,17.3901,2.67131,-1.62299
604.2,17.4099,2.67171,-1.62865
604.8,17.4289,2.65698,-1.63451
605.4,17.4485,2.65185,-1.6407
606,17.4677,2.649,-1.64355
606.6,17.4869,2.64552,-1.64673
607.2,17.5062,2.63848,-1.65012
607.8,17.5257,2.62915,-1.65226
608.4,17.5448,2.62809,-1.65457
609,17.5645,2.62545,-1.65728
609.6,17.5837,2.61531,-1.6595
610.2,17.6026,2.6145,-1.66201
610.8,17.6227,2.61163,-1.66434
611.4,17.6417,2.609,-1.66632
612,17.6611,2.60694,-1.66815
612.6,17.6806,2.59932,-1.66879
613.2,17.6999,2.59907,-1.67083
613.8,17.7195,2.59529,-1.67361
614.4,17.7387,2.587,-1.67412
615,17.7581,2.58677,-1.67672
615.6,17.7774,2.58618,-1.67969
616.2,17.797,2.58099,-1.68167
616.8,17.8163,2.58562,-1.68384
617.4,17.8356,2.58323,-1.68598
618,17.8552,2.57869,-1.68851
618.6,17.8745,2.57479,-1.69028
619.2,17.8939,2.57359,-1.69213
619.8,17.9134,2.5684,-1.69384
620.4,17.9328,2.56325,-1.69574
621,17.952,2.56464,-1.69764
621.6,17.9715,2.56611,-1.69967
622.2,17.9906,2.56099,-1.70247
622.8,18.0103,2.55009,-1.70531
623.4,18.0298,2.54598,-1.70801
624,18.0493,2.55844,-1.70985
624.6,18.0687,2.55583,-1.71178
625.2,18.0879,2.55318,-1.71384
625.8,18.1075,2.54859,-1.71609
626.4,18.1268,2.55989,-1.7183
627,18.1463,2.55846,-1.72024
627.6,18.1656,2.56107,-1.72192
628.2,18.1852,2.56108,-1.72378
628.8,18.2046,2.55598,-1.72456
629.4,18.2239,2.55873,-1.72633
630,18.2435,2.5581,-1.72788
630.6,18.2629,2.56574,-1.72921
631.2,18.2822,2.57463,-1.73217
631.8,18.3017,2.57807,-1.73405
632.4,18.3211,2.5764,-1.73594
633,18.3406,2.57774,-1.73765
633.6,18.3601,2.58566,-1.73921
634.2,18.3797,2.59354,-1.7411
634.8,18.3989,2.6071,-1.74356
635.4,18.4186,2.61301,-1.74569
636,18.438,2.61048,-1.74928
636.6,18.4576,2.61445,-1.7533
637.2,18.477,2.61506,-1.75527
637.8,18.4966,2.6276,-1.75494
638.4,18.516,2.61981,-1.7546
639,18.5355,2.6341,-1.75536
639.6,18.5549,2.64791,-1.75732
640.2,18.5742,2.64659,-1.75856
640.8,18.5935,2.65234,-1.75862
641.4,18.6132,2.65746,-1.76026
642,18.6327,2.66693,-1.76146
642.6,18.6523,2.6747,-1.7629
643.2,18.6715,2.68072,-1.76464
643.8,18.6911,2.67829,-1.76637
644.4,18.7109,2.68527,-1.76812
645,18.7302,2.68557,-1.76928
645.6,18.7495,2.70408,-1.77023
646.2,18.769,2.70274,-1.77197
646.8,18.7888,2.70602,-1.77374
647.4,18.8081,2.71882,-1.77529
648,18.8277,2.72479,-1.77577
648.6,18.8472,2.73863,-1.7785
649.2,18.8669,2.74257,-1.78049
649.8,18.886,2.74273,-1.78249
650.4,18.9049,2.74454,-1.78425
651,18.9253,2.76476,-1.78575
651.6,18.9447,2.76141,-1.78765
652.2,18.9641,2.77248,-1.78983
652.8,18.9832,2.77235,-1.79173
653.4,19.0033,2.76796,-1.79307
654,19.0226,2.78821,-1.79396
654.6,19.0422,2.79565,-1.79549
655.2,19.0615,2.79304,-1.79717
655.8,19.0811,2.80711,-1.79787
656.4,19.1002,2.80933,-1.79813
657,19.1195,2.82246,-1.79902
657.6,19.1396,2.83342,-1.80078
658.2,19.1593,2.83755,-1.80011
658.8,19.1787,2.8355,-1.80105
659.4,19.1983,2.84069,-1.80154
660,19.2176,2.8497,-1.80244
660.6,19.2372,2.85857,-1.80266
661.2,19.2566,2.85118,-1.8038
661.8,19.2763,2.85892,-1.80411
662.4,19.2956,2.85739,-1.80529
663,19.3153,2.86482,-1.80692
663.6,19.3344,2.86711,-1.80737
664.2,19.3541,2.87446,-1.80835
664.8,19.3737,2.87477,-1.81001
665.4,19.3924,2.87501,-1.81174
666,19.4123,2.87597,-1.81339
666.6,19.4321,2.88124,-1.81337
667.2,19.4516,2.87615,-1.81478
667.8,19.4713,2.88414,-1.81626
668.4,19.4908,2.88894,-1.81716
669,19.5101,2.89085,-1.81746
669.6,19.5298,2.89088,-1.8189
670.2,19.5494,2.88947,-1.8205
670.8,19.5687,2.8912,-1.82211
671.4,19.5883,2.89318,-1.82293
672,19.6077,2.89446,-1.82434
672.6,19.6273,2.89128,-1.82572
673.2,19.6469,2.90123,-1.82669
673.8,19.6663,2.90499,-1.82865
674.4,19.6857,2.90448,-1.82981
675,19.7055,2.90649,-1.83102
675.6,19.7246,2.91402,-1.83321
676.2,19.7446,2.91232,-1.83316
676.8,19.764,2.89601,-1.83323
677.4,19.7834,2.90529,-1.83334
678,19.8028,2.90843,-1.83318
678.6,19.8226,2.91336,-1.8335
679.2,19.8418,2.91193,-1.83456
679.8,19.8612,2.91643,-1.83371
680.4,19.881,2.90864,-1.83472
681,19.9004,2.91321,-1.83657
681.6,19.9198,2.92945,-1.83697
682.2,19.939,2.91928,-1.83875
682.8,19.9585,2.92396,-1.8404
683.4,19.978,2.91281,-1.84177
684,19.9977,2.92614,-1.84254
684.6,20.0172,2.923,-1.84393
685.2,20.0366,2.91695,-1.84499
685.8,20.0563,2.92472,-1.84539
686.4,20.0756,2.92749,-1.84643
687,20.0952,2.92224,-1.84698
687.6,20.115,2.93097,-1.8485
688.2,20.1342,2.91201,-1.84846
688.8,20.1537,2.91524,-1.84911
689.4,20.173,2.91712,-1.84845
690,20.1926,2.91368,-1.84984
690.6,20.2124,2.91157,-1.85149
691.2,20.2319,2.90648,-1.85274
691.8,20.2512,2.9035,-1.85412
692.4,20.271,2.91122,-1.85599
693,20.2902,2.9133,-1.85881
693.6,20.3099,2.90796,-1.8608
694.2,20.3293,2.90112,-1.86237
694.8,20.3492,2.89245,-1.86302
695.4,20.3682,2.88123,-1.86302
696,20.388,2.88753,-1.86405
696.6,20.4074,2.87897,-1.864
697.2,20.4268,2.8692,-1.86445
697.8,20.4465,2.86305,-1.86628
698.4,20.4658,2.86788,-1.86655
699,20.4855,2.85981,-1.86786
699.6,20.5049,2.84753,-1.86798
700.2,20.5245,2.85326,-1.8681
700.8,20.5442,2.85151,-1.86821
701.4,20.5635,2.85062,-1.86917
702,20.583,2.8299,-1.86899
702.6,20.6024,2.83411,-1.87014
703.2,20.6221,2.8328,-1.87111
703.8,20.6415,2.82863,-1.87155
704.4,20.6612,2.82719,-1.87297
705,20.6807,2.81764,-1.87443
705.6,20.7004,2.80435,-1.87627
706.2,20.7197,2.80702,-1.87791
706.8,20.7392,2.78271,-1.87905
707.4,20.7587,2.771,-1.87941
708,20.7784,2.7884,-1.88126
708.6,20.7977,2.77921,-1.88169
709.2,20.8178,2.77673,-1.88268
709.8,20.8371,2.76926,-1.88262
710.4,20.8566,2.74928,-1.88374
711,20.8761,2.75631,-1.88411
711.6,20.8954,2.73413,-1.88539
712.2,20.9153,2.72691,-1.88552
712.8,20.9346,2.72826,-1.8856
713.4,20.9542,2.72627,-1.88699
714,20.9739,2.71476,-1.88695
714.6,20.9935,2.70759,-1.88831
715.2,21.0128,2.69454,-1.88826
715.8,21.0324,2.66702,-1.88958
716.4,21.0522,2.66647,-1.88958
717,21.0716,2.6654,-1.88984
717.6,21.0912,2.65095,-1.89139
718.2,21.1104,2.63989,-1.89509
718.8,21.1301,2.63203,-1.89843
719.4,21.1496,2.62021,-1.89898
720,21.1695,2.61136,-1.89803
720.6,21.1891,2.60987,-1.89663
721.2,21.2087,2.59675,-1.89764
721.8,21.2285,2.58741,-1.89687
722.4,21.2472,2.5861,-1.89781
723,21.2672,2.56838,-1.89813
723.6,21.2869,2.56071,-1.89922
724.2,21.3063,2.54707,-1.89944
724.8,21.3262,2.53447,-1.89957
725.4,21.3455,2.5216,-1.90069
726,21.3654,2.51337,-1.90227
726.6,21.3848,2.5158,-1.90351
727.2,21.4044,2.50733,-1.90471
727.8,21.4242,2.49577,-1.9059
728.4,21.4435,2.48497,-1.90695
729,21.4633,2.48089,-1.90849
729.6,21.4829,2.4658,-1.90982
730.2,21.5025,2.45482,-1.91129
730.8,21.5221,2.44041,-1.91194
731.4,21.5416,2.42883,-1.91282
732,21.5614,2.41844,-1.91388
732.6,21.5809,2.3999,-1.91368
733.2,21.6005,2.39601,-1.91474
733.8,21.6203,2.36866,-1.91588
734.4,21.6392,2.35429,-1.91596
735,21.6594,2.34896,-1.91722
735.6,21.679,2.3371,-1.91731
736.2,21.6986,2.32348,-1.91864
736.8,21.7182,2.31556,-1.91917
737.4,21.7379,2.30319,-1.92038
738,21.7577,2.29719,-1.92206
738.6,21.7768,2.28418,-1.92314
739.2,21.7972,2.2551,-1.92375
739.8,21.8165,2.23844,-1.92487
740.4,21.8363,2.2298,-1.92525
741,21.8559,2.2199,-1.92687
741.6,21.8755,2.20461,-1.92784
742.2,21.8953,2.1834,-1.9279
742.8,21.915,2.18221,-1.92896
743.4,21.9342,2.17037,-1.93032
744,21.9544,2.15999,-1.93027
744.6,21.9737,2.13813,-1.9314
745.2,21.9933,2.13191,-1.93163
745.8,22.0133,2.10708,-1.93322
746.4,22.0326,2.09426,-1.9332
747,22.0524,2.08931,-1.93317
747.6,22.0722,2.0604,-1.93315
748.2,22.0915,2.05199,-1.93448
748.8,22.1115,2.04236,-1.93505
749.4,22.1308,2.02884,-1.93541
750,22.1505,2.00734,-1.93657
750.6,22.1703,1.98571,-1.93713
751.2,22.1901,1.97738,-1.9382
751.8,22.2093,1.96346,-1.93959
752.4,22.229,1.94552,-1.94095
753,22.249,1.92415,-1.94242
753.6,22.2684,1.9004,-1.94385
754.2,22.2879,1.89181,-1.94545
754.8,22.308,1.86942,-1.94665
755.4,22.3276,1.8541,-1.94768
756,22.3472,1.83809,-1.94789
756.6,22.3669,1.8206,-1.94891
757.2,22.3866,1.81898,-1.95111
757.8,22.4064,1.8018,-1.95255
758.4,22.4261,1.78003,-1.95317
759,22.4457,1.76651,-1.95445
759.6,22.4654,1.75065,-1.95571
760.2,22.4851,1.73359,-1.95524
760.8,22.5044,1.72019,-1.95623
761.4,22.5241,1.7037,-1.95731
762,22.5441,1.68933,-1.95755
762.6,22.5634,1.66646,-1.95782
763.2,22.5832,1.64946,-1.95725
763.8,22.6028,1.63105,-1.95786
764.4,22.6225,1.6222,-1.95853
765,22.6423,1.59456,-1.95918
765.6,22.6621,1.57196,-1.95918
766.2,22.6818,1.55611,-1.96068
766.8,22.7014,1.53386,-1.96137
767.4,22.7211,1.51963,-1.96243
768,22.7405,1.50691,-1.96431
768.6,22.7599,1.47806,-1.96563
769.2,22.7801,1.46739,-1.9658
769.8,22.8,1.44827,-1.96728
770.4,22.8195,1.43826,-1.96779
771,22.8392,1.42133,-1.96899
771.6,22.8587,1.40855,-1.96996
772.2,22.8786,1.38556,-1.9702
772.8,22.8982,1.36477,-1.97148
773.4,22.9178,1.3487,-1.97225
774,22.9377,1.32564,-1.97328
774.6,22.9573,1.30953,-1.97508
775.2,22.9768,1.29233,-1.97614
775.8,22.9964,1.27875,-1.9769
776.4,23.0162,1.26823,-1.97801
777,23.0359,1.24951,-1.9793
777.6,23.0556,1.23289,-1.97983
778.2,23.0753,1.21427,-1.98004
778.8,23.0949,1.19346,-1.98114
779.4,23.1141,1.16922,-1.9812
780,23.1343,1.14913,-1.98249
780.6,23.1541,1.13382,-1.98232
781.2,23.1738,1.11005,-1.98242
781.8,23.1933,1.08571,-1.98427
782.4,23.2136,1.07335,-1.98468
783,23.2329,1.05806,-1.98586
783.6,23.2527,1.04745,-1.9856
784.2,23.2723,1.02722,-1.98597
784.8,23.2919,1.01147,-1.98658
785.4,23.3117,0.996172,-1.98727
786,23.3314,0.988135,-1.98857
786.6,23.3511,0.97198,-1.98842
787.2,23.3708,0.950225,-1.98904
787.8,23.3905,0.930901,-1.99031
788.4,23.4097,0.913792,-1.99039
789,23.4296,0.895796,-1.99165
789.6,23.4494,0.864546,-1.99176
790.2,23.4693,0.843906,-1.99293
790.8,23.4893,0.82932,-1.99331
791.4,23.5088,0.832592,-1.99484
792,23.5287,0.821186,-1.99476
792.6,23.5484,0.815136,-1.99474
793.2,23.5682,0.798208,-1.99466
793.8,23.5877,0.792295,-1.996
794.4,23.6077,0.780267,-1.99597
795,23.6275,0.761534,-1.99739
795.6,23.6473,0.749435,-1.99799
796.2,23.6672,0.734315,-1.99908
796.8,23.6867,0.71678,-2.00064
797.4,23.7066,0.701429,-2.00167
798,23.7265,0.695243,-2.00217
798.6,23.7461,0.673367,-2.00082
799.2,23.766,0.656747,-2.00049
799.8,23.7856,0.647269,-1.99944
800.4,23.8054,0.633016,-2.00216
801,23.8252,0.627123,-2.00506
801.6,23.845,0.616705,-2.00786
802.2,23.865,0.606792,-2.00973
802.8,23.8846,0.597118,-2.01161
803.4,23.9042,0.586265,-2.01285
804,23.924,0.574239,-2.01389
804.6,23.9442,0.562985,-2.01386
805.2,23.9641,0.551041,-2.01337
805.8,23.9838,0.547438,-2.01254
806.4,24.0039,0.531047,-2.01286
807,24.0233,0.530486,-2.01247
807.6,24.0431,0.515834,-2.01253
808.2,24.0629,0.508893,-2.01255
808.8,24.0829,0.496794,-2.01236
809.4,24.1028,0.490423,-2.01254
810,24.1225,0.476723,-2.01253
810.6,24.1424,0.466628,-2.01253
811.2,24.1623,0.462208,-2.01253
811.8,24.1823,0.44711,-2.01253
812.4,24.202,0.44806,-2.01253
813,24.222,0.452579,-2.01253
813.6,24.2417,0.440585,-2.01253
814.2,24.2616,0.431223,-2.01311
814.8,24.2812,0.428196,-2.01386
815.4,24.3011,0.420105,-2.01319
816,24.321,0.401901,-2.01397
816.6,24.3408,0.384953,-2.01537
817.2,24.3607,0.376858,-2.01607
817.8,24.3809,0.375322,-2.01745
818.4,24.4003,0.364726,-2.01909
819,24.4203,0.342254,-2.02077
819.6,24.4404,0.344826,-2.02156
820.2,24.46,0.343869,-2.02208
820.8,24.48,0.341319,-2.0221
821.4,24.4997,0.335938,-2.02281
822,24.5197,0.325536,-2.0234
822.6,24.5397,0.32459,-2.0234
823.2,24.5597,0.318908,-2.02339
823.8,24.5794,0.312043,-2.02446
824.4,24.5991,0.304357,-2.02461
825,24.6193,0.299532,-2.02601
825.6,24.639,0.294974,-2.02604
826.2,24.6589,0.292175,-2.0264
826.8,24.6788,0.278012,-2.02644
827.4,24.6986,0.267229,-2.02671
828,24.719,0.260943,-2.02785
828.6,24.7389,0.259071,-2.0278
829.2,24.7586,0.255943,-2.02771
829.8,24.7783,0.249163,-2.02908
830.4,24.7984,0.234398,-2.02924
831,24.8183,0.22044,-2.0275
831.6,24.838,0.218838,-2.0252
832.2,24.8581,0.203903,-2.02424
832.8,24.8779,0.207495,-2.02565
833.4,24.8979,0.191001,-2.03016
834,24.9178,0.192432,-2.03367
834.6,24.9375,0.182709,-2.03566
835.2,24.9577,0.176919,-2.03606
835.8,24.9776,0.175701,-2.03632
836.4,24.9974,0.15979,-2.03628
837,25.0176,0.156578,-2.0372
837.6,25.0372,0.154205,-2.03582
838.2,25.057,0.140815,-2.03581
838.8,25.0772,0.135125,-2.03581
839.4,25.0971,0.131885,-2.03581
840,25.117,0.135837,-2.03579