File: 01_Data/Helmet_Strap/STA/N2/30K_min/Helmet_Strap_STA_N2_30KData_250401_R3.csv
Temp./C,Time/min,DSC/(mW/mg),Mass loss/mg
60.0,0.0,1.15767,-0.00840799
60.6,0.037532,1.20664,-0.00891567
61.2,0.073862,1.25614,-0.00739863
61.8,0.107383,1.2909,-0.00518688
62.4,0.142691,1.3283,-0.00592712
63,0.176183,1.37204,-0.00536052
63.6,0.208629,1.4026,-0.00690054
64.2,0.24052,1.44777,-0.0080967
64.8,0.271814,1.48823,-0.00771959
65.4,0.303119,1.51122,-0.00762764
66,0.333566,1.5456,-0.00777507
66.6,0.363385,1.58715,-0.00793027
67.2,0.393041,1.62169,-0.00758243
67.8,0.422646,1.64672,-0.0063437
68.4,0.451362,1.68416,-0.00546682
69,0.479568,1.71658,-0.00555366
69.6,0.508466,1.73341,-0.00530417
70.2,0.534624,1.77112,-0.00627559
70.8,0.56405,1.79042,-0.00798172
71.4,0.590911,1.82434,-0.00913564
72,0.618184,1.85993,-0.0091551
72.6,0.645911,1.87459,-0.00774333
73.2,0.672468,1.90119,-0.00739235
73.8,0.69873,1.92666,-0.0079569
74.4,0.724903,1.95827,-0.00782533
75,0.751471,1.97135,-0.00807618
75.6,0.77733,1.99936,-0.00839864
76.2,0.803,2.01972,-0.00869104
76.8,0.828241,2.03794,-0.00892407
77.4,0.853954,2.06837,-0.00862622
78,0.879417,2.08045,-0.0102026
78.6,0.90511,2.1095,-0.0107588
79.2,0.929917,2.12953,-0.012494
79.8,0.955145,2.13827,-0.0128853
80.4,0.97942,2.16347,-0.0111767
81,1.00402,2.18642,-0.0101848
81.6,1.02756,2.19858,-0.00966336
82.2,1.05284,2.21915,-0.0092601
82.8,1.07724,2.23616,-0.00911345
83.4,1.10143,2.2626,-0.00886856
84,1.12555,2.27839,-0.00959082
84.6,1.1494,2.29719,-0.0102397
85.2,1.173,2.31139,-0.0105644
85.8,1.19692,2.33593,-0.0115552
86.4,1.22074,2.34804,-0.0105421
87,1.24306,2.37125,-0.0103817
87.6,1.26666,2.39597,-0.0101167
88.2,1.291,2.40992,-0.00988461
88.8,1.31449,2.42594,-0.00920412
89.4,1.33736,2.44127,-0.00947289
90,1.36049,2.46247,-0.0101685
90.6,1.38333,2.47825,-0.0105202
91.2,1.40663,2.49597,-0.010799
91.8,1.42929,2.51652,-0.0106899
92.4,1.45151,2.53103,-0.0106355
93,1.47486,2.5461,-0.0107313
93.6,1.49725,2.56578,-0.0110296
94.2,1.51959,2.5819,-0.0122527
94.8,1.54218,2.59682,-0.0128352
95.4,1.56494,2.61221,-0.0143372
96,1.58739,2.6164,-0.0155057
96.6,1.60915,2.63558,-0.0174203
97.2,1.63031,2.64589,-0.0176471
97.8,1.65391,2.66268,-0.0182119
98.4,1.67587,2.68159,-0.0180317
99,1.69822,2.68478,-0.0182209
99.6,1.71993,2.70046,-0.0183133
100.2,1.74181,2.70672,-0.0169358
100.8,1.76366,2.7305,-0.0168951
101.4,1.78609,2.73115,-0.0178424
102,1.80755,2.73826,-0.0168373
102.6,1.8288,2.75852,-0.0163787
103.2,1.85055,2.76803,-0.0168255
103.8,1.87255,2.77512,-0.0152901
104.4,1.89393,2.78288,-0.0143287
105,1.91559,2.79645,-0.0137205
105.6,1.93726,2.79832,-0.013718
106.2,1.95877,2.80393,-0.01368
106.8,1.98023,2.80171,-0.0141308
107.4,2.00138,2.81684,-0.0140641
108,2.02323,2.816,-0.0140659
108.6,2.04436,2.81597,-0.0140111
109.2,2.06566,2.8174,-0.013092
109.8,2.08725,2.82162,-0.0130702
110.4,2.10835,2.82891,-0.0130419
111,2.12972,2.8279,-0.0143361
111.6,2.15081,2.82362,-0.0150103
112.2,2.17168,2.82873,-0.0160662
112.8,2.19312,2.82238,-0.0166387
113.4,2.21403,2.82844,-0.0170578
114,2.23537,2.82581,-0.0170357
114.6,2.25676,2.8251,-0.0159205
115.2,2.27737,2.82296,-0.0169186
115.8,2.29849,2.8292,-0.0160634
116.4,2.31918,2.82117,-0.0163348
117,2.34021,2.80745,-0.0173385
117.6,2.36096,2.80921,-0.0177435
118.2,2.38186,2.80997,-0.0175326
118.8,2.40244,2.81353,-0.0185081
119.4,2.42341,2.79866,-0.0176551
120,2.44445,2.79343,-0.0191925
120.6,2.46489,2.79923,-0.0178767
121.2,2.48544,2.7899,-0.0191464
121.8,2.50639,2.79251,-0.0191046
122.4,2.52658,2.78066,-0.0191176
123,2.54729,2.78057,-0.0179956
123.6,2.56778,2.78279,-0.0177958
124.2,2.58758,2.7787,-0.0172596
124.8,2.60832,2.77412,-0.0164948
125.4,2.62837,2.78211,-0.0164851
126,2.64949,2.76591,-0.0168816
126.6,2.67035,2.75919,-0.0178129
127.2,2.69068,2.76355,-0.0177283
127.8,2.7107,2.76811,-0.0185057
128.4,2.73109,2.76786,-0.018462
129,2.75136,2.75495,-0.0190454
129.6,2.77186,2.74796,-0.0197116
130.2,2.79183,2.75236,-0.020482
130.8,2.81167,2.75607,-0.0204339
131.4,2.83202,2.75664,-0.0204302
132,2.85204,2.75763,-0.02043
132.6,2.87218,2.75396,-0.02043
133.2,2.8923,2.75877,-0.0204303
133.8,2.91235,2.76312,-0.0204339
134.4,2.9319,2.77098,-0.0204852
135,2.95207,2.7628,-0.0192641
135.6,2.97222,2.77555,-0.0191187
136.2,2.99194,2.78196,-0.0191142
136.8,3.0119,2.78064,-0.0204582
137.4,3.03191,2.7886,-0.0192701
138,3.05142,2.77968,-0.0191087
138.6,3.0714,2.78805,-0.0189994
139.2,3.09098,2.79899,-0.017664
139.8,3.1108,2.80409,-0.0190319
140.4,3.13016,2.80429,-0.019094
141,3.14984,2.80573,-0.0190996
141.6,3.16998,2.81501,-0.0191013
142.2,3.18924,2.8175,-0.0191192
142.8,3.2092,2.82206,-0.0196533
143.4,3.2285,2.83766,-0.0216034
144,3.24836,2.83468,-0.0217401
144.6,3.26758,2.83913,-0.0217656
145.2,3.28722,2.85059,-0.022091
145.8,3.3066,2.85706,-0.0230636
146.4,3.32574,2.85671,-0.0230603
147,3.34506,2.86728,-0.0230629
147.6,3.3646,2.8782,-0.0231164
148.2,3.38411,2.87417,-0.021874
148.8,3.40335,2.8874,-0.0230556
149.4,3.42282,2.88861,-0.0230501
150,3.44225,2.89782,-0.02305
150.6,3.46172,2.90412,-0.0230503
151.2,3.48101,2.9135,-0.0230542
151.8,3.50006,2.91565,-0.0231002
152.4,3.51957,2.92154,-0.0221147
153,3.5384,2.92701,-0.0206623
153.6,3.55802,2.9387,-0.0204257
154.2,3.57705,2.94284,-0.0190476
154.8,3.59576,2.95099,-0.0191036
155.4,3.61542,2.95211,-0.0196951
156,3.63485,2.95659,-0.0204029
156.6,3.65374,2.96192,-0.0204194
157.2,3.67299,2.9688,-0.02042
157.8,3.69235,2.97604,-0.02042
158.4,3.71006,2.98198,-0.0204194
159,3.73034,2.98776,-0.0204115
159.6,3.74897,3.0001,-0.0214106
160.2,3.7683,3.01463,-0.0217167
160.8,3.78723,3.02158,-0.021742
161.4,3.80604,3.0292,-0.0199448
162,3.82554,3.03828,-0.0200222
162.6,3.84412,3.03891,-0.0188658
163.2,3.86299,3.04434,-0.020272
163.8,3.88221,3.05222,-0.0210461
164.4,3.90106,3.05834,-0.0218838
165,3.92036,3.0648,-0.0233352
165.6,3.93913,3.0754,-0.0244626
166.2,3.95806,3.07461,-0.0244345
166.8,3.97666,3.08403,-0.0254086
167.4,3.99602,3.09433,-0.0257884
168,4.01384,3.10404,-0.0258055
168.6,4.0332,3.11126,-0.0258891
169.2,4.05227,3.11233,-0.0247484
169.8,4.07108,3.11746,-0.0248147
170.4,4.09011,3.12555,-0.0249293
171,4.10841,3.13067,-0.0262277
171.6,4.12789,3.14166,-0.0261467
172.2,4.14617,3.14666,-0.0261407
172.8,4.16476,3.15354,-0.0261412
173.4,4.18413,3.15325,-0.0261413
174,4.20256,3.1583,-0.0255728
174.6,4.22117,3.16366,-0.0247974
175.2,4.24008,3.1668,-0.0248114
175.8,4.2586,3.17072,-0.0247633
176.4,4.27725,3.1793,-0.0259246
177,4.29604,3.18205,-0.0261294
177.6,4.31495,3.19132,-0.0261301
178.2,4.3329,3.19846,-0.02613
178.8,4.35189,3.20484,-0.02613
179.4,4.37042,3.20641,-0.02613
180,4.38919,3.21388,-0.02613
180.6,4.40788,3.21649,-0.02613
181.2,4.42611,3.22289,-0.02613
181.8,4.44493,3.22083,-0.0261298
182.4,4.46342,3.22393,-0.0261242
183,4.48192,3.2345,-0.0260339
183.6,4.5001,3.24944,-0.0273778
184.2,4.51896,3.24907,-0.0274442
184.8,4.5372,3.25296,-0.0279397
185.4,4.55557,3.27096,-0.0287687
186,4.57332,3.2724,-0.0287738
186.6,4.59235,3.27177,-0.0290158
187.2,4.61055,3.28225,-0.029799
187.8,4.62941,3.28275,-0.0297638
188.4,4.64747,3.28965,-0.0297603
189,4.66587,3.29346,-0.02976
189.6,4.68445,3.30171,-0.0297609
190.2,4.70288,3.30654,-0.0297842
190.8,4.72097,3.31435,-0.0302777
191.4,4.73933,3.31655,-0.0310759
192,4.75798,3.31854,-0.0310702
192.6,4.77633,3.32371,-0.0310691
193.2,4.79439,3.32752,-0.0313148
193.8,4.81266,3.33276,-0.0324429
194.4,4.83126,3.34105,-0.0323961
195,4.84917,3.3486,-0.0323901
195.6,4.86737,3.35054,-0.0323872
196.2,4.88564,3.35026,-0.0327305
196.8,4.90394,3.34664,-0.0337412
197.4,4.92223,3.36327,-0.0337161
198,4.94048,3.37072,-0.0337703
198.6,4.95848,3.37586,-0.0351237
199.2,4.97672,3.38347,-0.035034
199.8,4.99521,3.38542,-0.0350299
200.4,5.01286,3.38741,-0.0350299
201,5.03139,3.39316,-0.03503
201.6,5.04937,3.39656,-0.03503
202.2,5.06785,3.40616,-0.03503
202.8,5.08575,3.40428,-0.0350301
203.4,5.10393,3.4049,-0.0350289
204,5.12185,3.40969,-0.0349981
204.6,5.14031,3.42261,-0.0354165
205.2,5.15826,3.41958,-0.0355829
205.8,5.17634,3.42038,-0.0366709
206.4,5.19465,3.43392,-0.0366812
207,5.2128,3.44219,-0.037386
207.6,5.23075,3.45029,-0.0379955
208.2,5.24854,3.45631,-0.037992
208.8,5.26702,3.44432,-0.0380029
209.4,5.28512,3.44713,-0.0392969
210,5.30315,3.45521,-0.0393058
210.6,5.32121,3.46874,-0.0396474
211.2,5.33948,3.47882,-0.0402791
211.8,5.35727,3.48795,-0.0406469
212.4,5.37524,3.49049,-0.0406199
213,5.39344,3.48102,-0.0406405
213.6,5.41156,3.4943,-0.0411976
214.2,5.42956,3.50373,-0.0419476
214.8,5.44778,3.51278,-0.0419405
215.4,5.46567,3.51266,-0.04194
216,5.48414,3.5162,-0.0419408
216.6,5.5018,3.52182,-0.0420391
217.2,5.51988,3.52739,-0.0434581
217.8,5.53801,3.53935,-0.0433189
218.4,5.55623,3.54761,-0.0444047
219,5.57395,3.54284,-0.0446863
219.6,5.59215,3.55852,-0.0447584
220.2,5.6102,3.55984,-0.0442774
220.8,5.62806,3.56149,-0.0446653
221.4,5.64601,3.57831,-0.0446809
222,5.66414,3.59102,-0.0455444
222.6,5.68182,3.59849,-0.0460118
223.2,5.70007,3.60254,-0.0460119
223.8,5.71794,3.61987,-0.0460286
224.4,5.73618,3.62405,-0.0473538
225,5.75387,3.63345,-0.0473093
225.6,5.77224,3.64404,-0.047264
226.2,5.7902,3.65379,-0.0483475
226.8,5.80805,3.67818,-0.0486037
227.4,5.82614,3.68437,-0.0493524
228,5.84404,3.69599,-0.0499638
228.6,5.86202,3.71097,-0.049764
229.2,5.88019,3.72105,-0.0524584
229.8,5.89807,3.74399,-0.0526693
230.4,5.91627,3.7622,-0.053413
231,5.93436,3.77607,-0.054022
231.6,5.95236,3.79168,-0.0551474
232.2,5.97012,3.80466,-0.0547962
232.8,5.98808,3.82073,-0.0543444
233.4,6.00631,3.85048,-0.0555666
234,6.02415,3.85853,-0.0557704
234.6,6.04216,3.87138,-0.0571752
235.2,6.05991,3.87757,-0.0571299
235.8,6.07792,3.8889,-0.0587502
236.4,6.09575,3.90343,-0.0586453
237,6.11373,3.90745,-0.0600327
237.6,6.13177,3.91473,-0.0600416
238.2,6.14957,3.91999,-0.0599494
238.8,6.16758,3.93078,-0.0590311
239.4,6.18554,3.93717,-0.0600644
240,6.20335,3.93599,-0.0603894
240.6,6.22103,3.93553,-0.0603304
241.2,6.23923,3.93095,-0.0613375
241.8,6.25674,3.91972,-0.0616814
242.4,6.27463,3.92371,-0.0622826
243,6.2928,3.9209,-0.0631927
243.6,6.31019,3.91749,-0.0635582
244.2,6.32836,3.90954,-0.0645764
244.8,6.34627,3.91167,-0.0645481
245.4,6.36404,3.91124,-0.0654127
246,6.38165,3.91021,-0.0658739
246.6,6.39969,3.90422,-0.0658675
247.2,6.4176,3.90542,-0.0658498
247.8,6.43505,3.89554,-0.0664939
248.4,6.45291,3.89025,-0.0672732
249,6.47075,3.89149,-0.0673719
249.6,6.4886,3.87754,-0.0685329
250.2,6.50652,3.87152,-0.0700954
250.8,6.5241,3.86448,-0.0714566
251.4,6.54231,3.86444,-0.0716752
252,6.55973,3.86053,-0.0730713
252.6,6.57728,3.84956,-0.0739895
253.2,6.59501,3.84671,-0.0750552
253.8,6.61257,3.8456,-0.0763741
254.4,6.63036,3.83975,-0.0779763
255,6.64809,3.83199,-0.0792904
255.6,6.66671,3.83548,-0.0806091
256.2,6.68451,3.83871,-0.0818992
256.8,6.70259,3.8381,-0.0833832
257.4,6.72027,3.83014,-0.0837652
258,6.73808,3.83982,-0.085163
258.6,6.75505,3.82264,-0.0853353
259.2,6.77284,3.81843,-0.0866948
259.8,6.79049,3.81867,-0.0866745
260.4,6.80911,3.81687,-0.0877094
261,6.82665,3.80599,-0.0881283
261.6,6.84438,3.81336,-0.0891385
262.2,6.86229,3.80608,-0.0896077
262.8,6.88008,3.80398,-0.0911159
263.4,6.89747,3.80284,-0.0918212
264,6.91481,3.79993,-0.0929921
264.6,6.93344,3.79347,-0.0947177
265.2,6.95143,3.78617,-0.094762
265.8,6.96869,3.79253,-0.095466
266.4,6.98678,3.79029,-0.0969513
267,7.0044,3.7865,-0.0984843
267.6,7.02203,3.77315,-0.0986391
268.2,7.03986,3.76693,-0.100046
268.8,7.05763,3.77353,-0.0994525
269.4,7.0756,3.7695,-0.100675
270,7.09302,3.75715,-0.102454
270.6,7.11091,3.76334,-0.103764
271.2,7.1288,3.74721,-0.104347
271.8,7.14665,3.74003,-0.105611
272.4,7.16409,3.73619,-0.107245
273,7.18177,3.72731,-0.108174
273.6,7.19959,3.72401,-0.10983
274.2,7.21749,3.71903,-0.1117
274.8,7.23506,3.71555,-0.113798
275.4,7.25272,3.69557,-0.115607
276,7.27046,3.6904,-0.117171
276.6,7.28833,3.68303,-0.117174
277.2,7.30608,3.67111,-0.117916
277.8,7.32364,3.6708,-0.119557
278.4,7.34167,3.66538,-0.120926
279,7.35909,3.65088,-0.122314
279.6,7.37711,3.63862,-0.123906
280.2,7.39452,3.62665,-0.125211
280.8,7.41222,3.61988,-0.125723
281.4,7.4295,3.60631,-0.127094
282,7.44748,3.58584,-0.128658
282.6,7.46531,3.58582,-0.129753
283.2,7.48319,3.5775,-0.13093
283.8,7.50113,3.56417,-0.132479
284.4,7.51905,3.55232,-0.134538
285,7.53677,3.53892,-0.137267
285.6,7.55477,3.52369,-0.139221
286.2,7.57239,3.51571,-0.141242
286.8,7.58991,3.51193,-0.141919
287.4,7.60779,3.49891,-0.142999
288,7.62551,3.49861,-0.144365
288.6,7.64279,3.48342,-0.146294
289.2,7.661,3.46982,-0.150709
289.8,7.67872,3.45363,-0.153346
290.4,7.69655,3.43929,-0.156687
291,7.71424,3.42288,-0.159281
291.6,7.73216,3.41549,-0.160833
292.2,7.74988,3.40211,-0.161714
292.8,7.76781,3.37542,-0.162934
293.4,7.78537,3.35641,-0.16445
294,7.80322,3.33632,-0.164609
294.6,7.82095,3.32574,-0.16599
295.2,7.83863,3.32222,-0.166047
295.8,7.85637,3.31783,-0.167678
296.4,7.87441,3.32432,-0.16949
297,7.89201,3.32326,-0.171084
297.6,7.91014,3.33966,-0.172773
298.2,7.92788,3.35589,-0.174452
298.8,7.94579,3.36776,-0.175784
299.4,7.96347,3.39114,-0.177622
300,7.98165,3.40632,-0.17896
300.6,7.99928,3.4365,-0.180389
301.2,8.01764,3.45922,-0.181976
301.8,8.03512,3.47996,-0.183734
302.4,8.05334,3.49576,-0.185861
303,8.07077,3.51492,-0.187762
303.6,8.08899,3.53278,-0.190011
304.2,8.10696,3.55166,-0.191768
304.8,8.12506,3.56758,-0.192847
305.4,8.14273,3.58234,-0.193426
306,8.16052,3.59446,-0.195112
306.6,8.17851,3.6046,-0.19655
307.2,8.19626,3.61495,-0.197711
307.8,8.21423,3.6293,-0.19839
308.4,8.2322,3.6388,-0.199773
309,8.24998,3.64326,-0.201101
309.6,8.26785,3.65056,-0.202971
310.2,8.28579,3.66087,-0.20412
310.8,8.30357,3.66264,-0.2052
311.4,8.32076,3.66725,-0.206656
312,8.33874,3.6681,-0.208063
312.6,8.35727,3.66711,-0.208055
313.2,8.37523,3.67147,-0.209359
313.8,8.39341,3.66815,-0.210882
314.4,8.41079,3.67266,-0.212314
315,8.42904,3.66865,-0.21327
315.6,8.44677,3.6648,-0.214732
316.2,8.46445,3.65972,-0.215724
316.8,8.48241,3.66035,-0.216178
317.4,8.5001,3.6624,-0.217816
318,8.51802,3.6514,-0.218009
318.6,8.53528,3.64586,-0.220083
319.2,8.55359,3.63994,-0.220487
319.8,8.57153,3.63669,-0.221839
320.4,8.58939,3.62463,-0.22187
321,8.60765,3.6306,-0.222411
321.6,8.62551,3.62715,-0.2232
322.2,8.64324,3.61977,-0.223353
322.8,8.66104,3.61949,-0.224831
323.4,8.67897,3.60964,-0.2247
324,8.69698,3.59278,-0.224874
324.6,8.71495,3.58711,-0.224727
325.2,8.73276,3.57989,-0.224731
325.8,8.75049,3.57493,-0.224741
326.4,8.76858,3.56885,-0.224862
327,8.78648,3.55947,-0.224822
327.6,8.80418,3.54969,-0.224745
328.2,8.82207,3.53418,-0.223801
328.8,8.83997,3.51372,-0.224346
329.4,8.85782,3.50452,-0.22462
330,8.87596,3.50582,-0.223788
330.6,8.89351,3.50269,-0.224637
331.2,8.91167,3.50109,-0.225036
331.8,8.92947,3.4938,-0.226356
332.4,8.94748,3.48126,-0.228013
333,8.9653,3.47423,-0.229869
333.6,8.98343,3.47436,-0.231909
334.2,9.00117,3.46038,-0.233037
334.8,9.019,3.45749,-0.235354
335.4,9.03679,3.4479,-0.236584
336,9.05484,3.44112,-0.236893
336.6,9.07287,3.4189,-0.23811
337.2,9.09082,3.42114,-0.238179
337.8,9.10863,3.42742,-0.239013
338.4,9.1267,3.42934,-0.239554
339,9.14477,3.41975,-0.239552
339.6,9.16265,3.41926,-0.239544
340.2,9.18009,3.42325,-0.239475
340.8,9.19841,3.41545,-0.24075
341.4,9.2164,3.41572,-0.240968
342,9.23421,3.41044,-0.24097
342.6,9.25249,3.40445,-0.240967
343.2,9.27051,3.40428,-0.240924
343.8,9.28821,3.40083,-0.241854
344.4,9.30633,3.40123,-0.242284
345,9.32422,3.40211,-0.242289
345.6,9.34204,3.39585,-0.243391
346.2,9.36028,3.39721,-0.243688
346.8,9.37818,3.40355,-0.244319
347.4,9.39637,3.40346,-0.245017
348,9.41425,3.39245,-0.244332
348.6,9.43195,3.3916,-0.244862
349.2,9.45041,3.39079,-0.245009
349.8,9.46851,3.39058,-0.244972
350.4,9.48606,3.39029,-0.246062
351,9.50432,3.39678,-0.246368
351.6,9.52224,3.39392,-0.247076
352.2,9.5403,3.38409,-0.247906
352.8,9.55838,3.39016,-0.247903
353.4,9.57626,3.39669,-0.247926
354,9.59454,3.39907,-0.248561
354.6,9.61217,3.39668,-0.248503
355.2,9.63067,3.39314,-0.249506
355.8,9.64867,3.39293,-0.250048
356.4,9.66665,3.39428,-0.250519
357,9.68456,3.3894,-0.250785
357.6,9.70296,3.38883,-0.251885
358.2,9.72062,3.39492,-0.252553
358.8,9.73894,3.39928,-0.253142
359.4,9.75699,3.39882,-0.253161
360,9.77503,3.39411,-0.253161
360.6,9.79312,3.40385,-0.253317
361.2,9.81124,3.41161,-0.25468
361.8,9.82932,3.40939,-0.254628
362.4,9.84735,3.40141,-0.2561
363,9.86528,3.41282,-0.256327
363.6,9.88379,3.42265,-0.257444
364.2,9.90177,3.42849,-0.258728
364.8,9.91993,3.43335,-0.258978
365.4,9.938,3.43533,-0.260572
366,9.95599,3.42941,-0.259207
366.6,9.97451,3.42733,-0.259201
367.2,9.99245,3.43051,-0.2592
367.8,10.0104,3.4351,-0.2592
368.4,10.0286,3.43513,-0.259196
369,10.0467,3.44588,-0.259179
369.6,10.0648,3.44974,-0.260127
370.2,10.0829,3.44704,-0.260537
370.8,10.1011,3.44992,-0.260818
371.4,10.1194,3.4596,-0.261883
372,10.1372,3.47335,-0.261833
372.6,10.1554,3.47575,-0.26187
373.2,10.1737,3.48259,-0.260605
373.8,10.1915,3.4853,-0.261802
374.4,10.2101,3.49091,-0.261831
375,10.2276,3.49849,-0.26184
375.6,10.2464,3.51397,-0.261888
376.2,10.2647,3.52619,-0.263147
376.8,10.2824,3.5293,-0.263149
377.4,10.301,3.54528,-0.26315
378,10.3192,3.55166,-0.263147
378.6,10.3376,3.56095,-0.263129
379.2,10.3557,3.56637,-0.263825
379.8,10.3738,3.5789,-0.26448
380.4,10.392,3.59561,-0.264387
381,10.4102,3.59624,-0.266448
381.6,10.4284,3.61166,-0.267075
382.2,10.4466,3.62146,-0.267114
382.8,10.4648,3.63294,-0.267829
383.4,10.4829,3.64447,-0.268425
384,10.5012,3.65323,-0.26842
384.6,10.5198,3.66798,-0.26842
385.2,10.5379,3.68451,-0.26842
385.8,10.5561,3.7017,-0.26842
386.4,10.5744,3.71049,-0.268421
387,10.5926,3.73179,-0.268432
387.6,10.6112,3.73863,-0.268727
388.2,10.6294,3.75488,-0.269796
388.8,10.6474,3.76932,-0.269752
389.4,10.6659,3.78404,-0.269594
390,10.684,3.80138,-0.269391
390.6,10.7023,3.81212,-0.269131
391.2,10.7207,3.82901,-0.268355
391.8,10.7391,3.84712,-0.269439
392.4,10.7572,3.86062,-0.268135
393,10.7754,3.87949,-0.268107
393.6,10.7939,3.89281,-0.268101
394.2,10.812,3.90806,-0.2681
394.8,10.8306,3.92616,-0.2681
395.4,10.849,3.94388,-0.2681
396,10.8674,3.966,-0.2681
396.6,10.8858,3.98539,-0.268101
397.2,10.9039,4.003,-0.268065
397.8,10.9221,4.01992,-0.269251
398.4,10.9408,4.02669,-0.269397
399,10.959,4.06138,-0.269409
399.6,10.9774,4.08916,-0.26941
400.2,10.9958,4.11454,-0.269411
400.8,11.0143,4.13992,-0.269383
401.4,11.0324,4.17664,-0.270592
402,11.051,4.20977,-0.270715
402.6,11.0693,4.24128,-0.271489
403.2,11.0879,4.27337,-0.272056
403.8,11.1064,4.31113,-0.274542
404.4,11.1246,4.34152,-0.274995
405,11.1432,4.39315,-0.275726
405.6,11.1618,4.4295,-0.2763
406.2,11.1803,4.4653,-0.276343
406.8,11.1984,4.50568,-0.276566
407.4,11.2171,4.56294,-0.277663
408,11.2359,4.61335,-0.277971
408.6,11.254,4.65779,-0.280368
409.2,11.2728,4.71618,-0.280295
409.8,11.2914,4.77621,-0.281732
410.4,11.3097,4.83549,-0.281549
411,11.3285,4.90545,-0.280332
411.6,11.3471,4.97219,-0.280378
412.2,11.3656,5.04157,-0.280267
412.8,11.3843,5.11868,-0.280424
413.4,11.4029,5.1881,-0.280348
414,11.4215,5.27672,-0.281514
414.6,11.4403,5.35764,-0.281697
415.2,11.4589,5.43779,-0.281711
415.8,11.4776,5.53296,-0.281726
416.4,11.4964,5.62282,-0.281804
417,11.5152,5.72567,-0.283085
417.6,11.5332,5.82247,-0.283368
418.2,11.5522,5.9165,-0.283736
418.8,11.5715,6.02207,-0.284708
419.4,11.5905,6.13681,-0.28459
420,11.609,6.24284,-0.285902
420.6,11.628,6.3546,-0.286717
421.2,11.6469,6.46715,-0.28766
421.8,11.6657,6.58007,-0.289397
422.4,11.6846,6.69404,-0.289935
423,11.7033,6.80352,-0.290605
423.6,11.7221,6.90934,-0.289558
424.2,11.7411,7.02529,-0.290531
424.8,11.76,7.13478,-0.290938
425.4,11.7786,7.22693,-0.292554
426,11.7976,7.32573,-0.293358
426.6,11.8165,7.41108,-0.294022
427.2,11.8355,7.49168,-0.295427
427.8,11.8539,7.56205,-0.296321
428.4,11.8725,7.61317,-0.297455
429,11.8912,7.66612,-0.298902
429.6,11.9098,7.71111,-0.299943
430.2,11.9286,7.74597,-0.301444
430.8,11.9472,7.76597,-0.302663
431.4,11.9657,7.76471,-0.304221
432,11.9841,7.77197,-0.305829
432.6,12.0027,7.77335,-0.306418
433.2,12.0211,7.75644,-0.30769
433.8,12.0397,7.73372,-0.309091
434.4,12.058,7.6893,-0.310323
435,12.0766,7.64688,-0.31238
435.6,12.0949,7.5901,-0.313523
436.2,12.1132,7.52353,-0.314508
436.8,12.1316,7.45124,-0.316085
437.4,12.1499,7.37326,-0.317441
438,12.1679,7.28013,-0.318649
438.6,12.186,7.18573,-0.31974
439.2,12.2044,7.08375,-0.321125
439.8,12.2227,6.96792,-0.322717
440.4,12.2408,6.85063,-0.323541
441,12.2588,6.73099,-0.32514
441.6,12.277,6.60815,-0.326916
442.2,12.2952,6.48524,-0.328814
442.8,12.3135,6.35897,-0.330474
443.4,12.3313,6.24309,-0.333061
444,12.3495,6.12655,-0.335492
444.6,12.3682,6.01402,-0.336191
445.2,12.386,5.91878,-0.338387
445.8,12.4043,5.82635,-0.340465
446.4,12.4224,5.74215,-0.343998
447,12.4409,5.65742,-0.346874
447.6,12.4592,5.58156,-0.350252
448.2,12.4777,5.52343,-0.35392
448.8,12.4962,5.47013,-0.356503
449.4,12.5142,5.41211,-0.359493
450,12.5329,5.37775,-0.363102
450.6,12.5513,5.3358,-0.367243
451.2,12.5698,5.30205,-0.371352
451.8,12.5885,5.28571,-0.374379
452.4,12.6069,5.2603,-0.378069
453,12.6253,5.24879,-0.381891
453.6,12.644,5.23962,-0.385354
454.2,12.6626,5.23243,-0.389955
454.8,12.6813,5.23049,-0.395113
455.4,12.6996,5.23429,-0.401018
456,12.7185,5.2384,-0.40518
456.6,12.737,5.24668,-0.409905
457.2,12.7556,5.25167,-0.413699
457.8,12.7742,5.26358,-0.419008
458.4,12.7932,5.27652,-0.423393
459,12.8116,5.28652,-0.428734
459.6,12.8304,5.29957,-0.433289
460.2,12.849,5.31064,-0.438704
460.8,12.8676,5.31932,-0.443969
461.4,12.8866,5.33189,-0.449836
462,12.9054,5.34182,-0.455458
462.6,12.9239,5.36473,-0.460286
463.2,12.9428,5.38086,-0.466527
463.8,12.9614,5.38908,-0.472062
464.4,12.9801,5.41023,-0.478338
465,12.9989,5.42889,-0.482622
465.6,13.0177,5.43067,-0.488858
466.2,13.0363,5.43623,-0.494173
466.8,13.0551,5.45869,-0.501127
467.4,13.0738,5.45894,-0.50643
468,13.0926,5.47501,-0.513363
468.6,13.1114,5.47577,-0.51973
469.2,13.1302,5.49288,-0.527942
469.8,13.1491,5.50499,-0.535696
470.4,13.1677,5.51218,-0.54303
471,13.1866,5.51156,-0.549451
471.6,13.2053,5.52261,-0.555957
472.2,13.2239,5.52777,-0.563236
472.8,13.2426,5.54104,-0.570101
473.4,13.2613,5.53617,-0.578536
474,13.2804,5.53792,-0.585866
474.6,13.2988,5.53429,-0.593748
475.2,13.3177,5.53924,-0.60001
475.8,13.3367,5.54018,-0.608075
476.4,13.3553,5.54411,-0.614389
477,13.3744,5.54798,-0.622964
477.6,13.3927,5.53566,-0.630012
478.2,13.4116,5.53759,-0.6391
478.8,13.4306,5.539,-0.64653
479.4,13.449,5.53132,-0.654523
480,13.4675,5.52595,-0.662083
480.6,13.4864,5.51875,-0.670495
481.2,13.5056,5.52034,-0.679386
481.8,13.5242,5.51255,-0.687541
482.4,13.5429,5.50624,-0.696637
483,13.5608,5.49436,-0.704269
483.6,13.5804,5.48736,-0.714146
484.2,13.5993,5.47532,-0.721612
484.8,13.6181,5.46792,-0.730507
485.4,13.6368,5.44849,-0.736618
486,13.6554,5.4311,-0.745802
486.6,13.6744,5.4177,-0.753176
487.2,13.6931,5.40169,-0.761858
487.8,13.712,5.3808,-0.768853
488.4,13.7309,5.36131,-0.777824
489,13.7496,5.34304,-0.786014
489.6,13.7684,5.32893,-0.795008
490.2,13.7872,5.30996,-0.803171
490.8,13.8058,5.28609,-0.812937
491.4,13.8247,5.26477,-0.821565
492,13.8435,5.24635,-0.828813
492.6,13.8618,5.22327,-0.836591
493.2,13.8809,5.19967,-0.843521
493.8,13.8994,5.17702,-0.851519
494.4,13.9183,5.14559,-0.858289
495,13.9371,5.12235,-0.867034
495.6,13.9559,5.09373,-0.873813
496.2,13.9747,5.05937,-0.882107
496.8,13.9933,5.02859,-0.888168
497.4,14.0124,4.99322,-0.894756
498,14.0309,4.96181,-0.900905
498.6,14.0498,4.92642,-0.909041
499.2,14.0686,4.89896,-0.916369
499.8,14.0869,4.86831,-0.924214
500.4,14.1059,4.82082,-0.931875
501,14.1248,4.79389,-0.939585
501.6,14.1435,4.75462,-0.949179
502.2,14.1623,4.71702,-0.956114
502.8,14.1812,4.68497,-0.963269
503.4,14.2,4.65285,-0.969287
504,14.2185,4.61418,-0.975525
504.6,14.2373,4.58181,-0.980792
505.2,14.2562,4.5486,-0.987393
505.8,14.275,4.51092,-0.992625
506.4,14.2937,4.4734,-0.999648
507,14.3126,4.43589,-1.00559
507.6,14.3315,4.40093,-1.01293
508.2,14.3503,4.3754,-1.0186
508.8,14.3691,4.34646,-1.02499
509.4,14.3874,4.32138,-1.02998
510,14.4061,4.28633,-1.03536
510.6,14.4254,4.25309,-1.04083
511.2,14.4444,4.22936,-1.04646
511.8,14.4633,4.20207,-1.05283
512.4,14.4823,4.16372,-1.05859
513,14.5008,4.13855,-1.0648
513.6,14.52,4.11062,-1.07021
514.2,14.5389,4.09142,-1.07663
514.8,14.5573,4.04828,-1.08132
515.4,14.5762,4.02342,-1.08739
516,14.5954,3.99153,-1.09219
516.6,14.6142,3.96003,-1.09789
517.2,14.6329,3.94222,-1.10248
517.8,14.6521,3.91758,-1.10873
518.4,14.6711,3.89922,-1.11415
519,14.6899,3.86637,-1.11994
519.6,14.7088,3.84251,-1.12498
520.2,14.7276,3.821,-1.13034
520.8,14.7464,3.79122,-1.1355
521.4,14.7656,3.76604,-1.14143
522,14.7844,3.75309,-1.14635
522.6,14.8034,3.73279,-1.15082
523.2,14.8225,3.72925,-1.15567
523.8,14.8413,3.70639,-1.15981
524.4,14.8605,3.68437,-1.16509
525,14.8795,3.66971,-1.16916
525.6,14.8985,3.6534,-1.17398
526.2,14.9176,3.6382,-1.17778
526.8,14.9362,3.62268,-1.18321
527.4,14.9548,3.60766,-1.18736
528,14.9737,3.59081,-1.19252
528.6,14.9934,3.57619,-1.19651
529.2,15.0123,3.56885,-1.2014
529.8,15.0315,3.54187,-1.20544
530.4,15.0502,3.54309,-1.21021
531,15.0693,3.52955,-1.21417
531.6,15.0885,3.51627,-1.2188
532.2,15.1072,3.49925,-1.2231
532.8,15.1265,3.49252,-1.22752
533.4,15.1455,3.48489,-1.23165
534,15.1646,3.47944,-1.23614
534.6,15.1835,3.47197,-1.23931
535.2,15.2022,3.45748,-1.24244
535.8,15.2215,3.43354,-1.2468
536.4,15.2406,3.43056,-1.25135
537,15.2598,3.42382,-1.25583
537.6,15.2791,3.41396,-1.26066
538.2,15.2979,3.40225,-1.26375
538.8,15.317,3.39073,-1.26763
539.4,15.3359,3.38451,-1.27146
540,15.3549,3.36269,-1.27597
540.6,15.374,3.35959,-1.28028
541.2,15.3935,3.34919,-1.28389
541.8,15.4122,3.34046,-1.28814
542.4,15.4316,3.33422,-1.29326
543,15.4506,3.32994,-1.29744
543.6,15.4697,3.33651,-1.304
544.2,15.4887,3.30316,-1.30857
544.8,15.5079,3.3007,-1.31411
545.4,15.5269,3.2969,-1.31806
546,15.5461,3.28909,-1.32326
546.6,15.565,3.27903,-1.32749
547.2,15.5845,3.26718,-1.33254
547.8,15.6035,3.26036,-1.33553
548.4,15.6225,3.25623,-1.3395
549,15.6417,3.25444,-1.34303
549.6,15.6607,3.24874,-1.34788
550.2,15.68,3.2381,-1.3515
550.8,15.699,3.22987,-1.35555
551.4,15.7183,3.21936,-1.36174
552,15.7372,3.20949,-1.36565
552.6,15.7565,3.2008,-1.37062
553.2,15.7755,3.18636,-1.37392
553.8,15.7945,3.1788,-1.37812
554.4,15.8138,3.17597,-1.38016
555,15.833,3.17105,-1.38502
555.6,15.8523,3.15986,-1.38823
556.2,15.8712,3.15132,-1.39265
556.8,15.8903,3.14019,-1.39706
557.4,15.9094,3.12693,-1.40108
558,15.9288,3.11779,-1.40481
558.6,15.9475,3.11365,-1.40842
559.2,15.9672,3.10418,-1.41286
559.8,15.9862,3.09291,-1.41722
560.4,16.0055,3.07415,-1.42058
561,16.0237,3.05888,-1.4242
561.6,16.0436,3.05079,-1.42894
562.2,16.0628,3.04398,-1.43304
562.8,16.0819,3.03085,-1.43709
563.4,16.1013,3.0159,-1.44066
564,16.1204,3.00415,-1.44554
564.6,16.1395,2.994,-1.45001
565.2,16.1586,2.98608,-1.45357
565.8,16.1778,2.96986,-1.45807
566.4,16.1969,2.95723,-1.45958
567,16.2163,2.94094,-1.46293
567.6,16.235,2.93612,-1.46664
568.2,16.2542,2.92161,-1.47074
568.8,16.2731,2.91317,-1.47516
569.4,16.293,2.89962,-1.47862
570,16.3123,2.8783,-1.48209
570.6,16.3313,2.86308,-1.48555
571.2,16.3506,2.85309,-1.48863
571.8,16.3697,2.84085,-1.4924
572.4,16.3891,2.81287,-1.49613
573,16.4081,2.81127,-1.50114
573.6,16.4275,2.80026,-1.50434
574.2,16.4464,2.78315,-1.50763
574.8,16.4657,2.76757,-1.51075
575.4,16.4841,2.76283,-1.51409
576,16.5042,2.73857,-1.51703
576.6,16.5235,2.72861,-1.52047
577.2,16.5428,2.71141,-1.52514
577.8,16.5619,2.69077,-1.52901
578.4,16.5811,2.68108,-1.53204
579,16.5999,2.6629,-1.53447
579.6,16.6193,2.65206,-1.53851
580.2,16.6386,2.62906,-1.54312
580.8,16.6579,2.61449,-1.54753
581.4,16.6774,2.59883,-1.55024
582,16.6966,2.58423,-1.55465
582.6,16.7157,2.57407,-1.55743
583.2,16.7352,2.54445,-1.56125
583.8,16.7543,2.52743,-1.56578
584.4,16.7738,2.51089,-1.56806
585,16.7926,2.4948,-1.56943
585.6,16.812,2.47845,-1.56982
586.2,16.8313,2.46374,-1.57389
586.8,16.8505,2.43894,-1.57986
587.4,16.8696,2.41518,-1.58669
588,16.8891,2.39611,-1.59098
588.6,16.9083,2.37727,-1.59505
589.2,16.9274,2.3603,-1.59834
589.8,16.947,2.34242,-1.60177
590.4,16.9659,2.31944,-1.60508
591,16.9854,2.31183,-1.60751
591.6,17.0046,2.29569,-1.6111
592.2,17.0239,2.27537,-1.61478
592.8,17.0431,2.25274,-1.61861
593.4,17.0626,2.23056,-1.62249
594,17.0818,2.22428,-1.62631
594.6,17.101,2.20593,-1.62966
595.2,17.1202,2.19074,-1.6334
595.8,17.1398,2.17256,-1.63669
596.4,17.1591,2.15705,-1.63997
597,17.1784,2.1377,-1.64257
597.6,17.1976,2.12999,-1.64364
598.2,17.217,2.10998,-1.64628
598.8,17.2361,2.09069,-1.64857
599.4,17.2556,2.08775,-1.65004
600,17.2746,2.0755,-1.65125
600.6,17.2941,2.04555,-1.65431
601.2,17.3133,2.04033,-1.65842
601.8,17.3325,2.02867,-1.66597
602.4,17.3521,2.01905,-1.66929
603,17.3709,2.00133,-1.67244
603.6,17.3903,1.98465,-1.6752
604.2,17.4094,1.97184,-1.67841
604.8,17.4295,1.95481,-1.68282
605.4,17.4491,1.95011,-1.68562
606,17.4681,1.92673,-1.68777
606.6,17.4875,1.92106,-1.68951
607.2,17.5069,1.90708,-1.69077
607.8,17.5263,1.90162,-1.69397
608.4,17.5455,1.89205,-1.69647
609,17.5651,1.8908,-1.69875
609.6,17.5844,1.87214,-1.70099
610.2,17.6035,1.85938,-1.70339
610.8,17.6229,1.86114,-1.70474
611.4,17.6423,1.86192,-1.70692
612,17.6619,1.85613,-1.70915
612.6,17.681,1.84694,-1.71111
613.2,17.7007,1.84421,-1.71467
613.8,17.7198,1.83263,-1.71741
614.4,17.7393,1.83252,-1.72015
615,17.7589,1.82508,-1.72345
615.6,17.7781,1.82619,-1.72812
616.2,17.7977,1.82097,-1.73177
616.8,17.8171,1.81586,-1.73362
617.4,17.8365,1.80623,-1.73538
618,17.8559,1.81632,-1.73735
618.6,17.875,1.81328,-1.73967
619.2,17.894,1.8142,-1.74153
619.8,17.9137,1.80663,-1.74337
620.4,17.9328,1.79585,-1.74469
621,17.9522,1.79532,-1.74682
621.6,17.9713,1.79428,-1.74869
622.2,17.9916,1.79662,-1.74994
622.8,18.0112,1.80135,-1.75201
623.4,18.0305,1.80518,-1.75399
624,18.0498,1.79368,-1.75615
624.6,18.0694,1.80084,-1.7581
625.2,18.0889,1.80887,-1.75981
625.8,18.1084,1.80908,-1.76169
626.4,18.1276,1.82087,-1.76317
627,18.1474,1.81963,-1.76462
627.6,18.1667,1.82268,-1.7671
628.2,18.1861,1.82919,-1.76943
628.8,18.2056,1.82473,-1.77136
629.4,18.2253,1.83174,-1.77318
630,18.2445,1.83931,-1.77427
630.6,18.264,1.84119,-1.77635
631.2,18.2833,1.84907,-1.77811
631.8,18.3027,1.85192,-1.77976
632.4,18.3222,1.8587,-1.78306
633,18.3418,1.86594,-1.78532
633.6,18.3611,1.87509,-1.78755
634.2,18.3806,1.88524,-1.7908
634.8,18.4001,1.88751,-1.79139
635.4,18.42,1.88887,-1.79274
636,18.439,1.90275,-1.79415
636.6,18.4587,1.91323,-1.79582
637.2,18.4782,1.91765,-1.79583
637.8,18.4976,1.92473,-1.79635
638.4,18.5173,1.93028,-1.79657
639,18.5365,1.94545,-1.79656
639.6,18.5562,1.94661,-1.79842
640.2,18.5754,1.95853,-1.80032
640.8,18.595,1.97326,-1.80215
641.4,18.6145,1.97276,-1.80423
642,18.6339,1.98567,-1.80654
642.6,18.6534,1.99992,-1.80825
643.2,18.6732,2.01021,-1.80989
643.8,18.6928,2.0128,-1.81177
644.4,18.7119,2.01433,-1.81336
645,18.7315,2.03243,-1.81405
645.6,18.751,2.03055,-1.8158
646.2,18.7705,2.0468,-1.81762
646.8,18.7902,2.05854,-1.81951
647.4,18.8096,2.05335,-1.82093
648,18.829,2.06069,-1.82259
648.6,18.8486,2.07443,-1.82425
649.2,18.868,2.08054,-1.82604
649.8,18.8875,2.09134,-1.82792
650.4,18.9069,2.10063,-1.82981
651,18.9265,2.10377,-1.8317
651.6,18.9462,2.11499,-1.83298
652.2,18.9656,2.11042,-1.83491
652.8,18.9852,2.13083,-1.83641
653.4,19.0048,2.13936,-1.83642
654,19.0238,2.1339,-1.8379
654.6,19.0434,2.14518,-1.83885
655.2,19.063,2.15636,-1.83996
655.8,19.0826,2.17279,-1.84122
656.4,19.1021,2.17875,-1.84263
657,19.1217,2.19177,-1.84383
657.6,19.1411,2.19751,-1.8446
658.2,19.161,2.21453,-1.846
658.8,19.1804,2.22509,-1.84763
659.4,19.1997,2.22399,-1.84945
660,19.2192,2.23508,-1.85106
660.6,19.239,2.24033,-1.85202
661.2,19.2585,2.24397,-1.85289
661.8,19.2779,2.25682,-1.85417
662.4,19.2976,2.2665,-1.85496
663,19.3172,2.26714,-1.85543
663.6,19.3366,2.27136,-1.85705
664.2,19.3561,2.27894,-1.85737
664.8,19.3755,2.27631,-1.85851
665.4,19.3955,2.28181,-1.86005
666,19.4146,2.29214,-1.86029
666.6,19.434,2.29884,-1.8617
667.2,19.4535,2.31407,-1.86343
667.8,19.4732,2.32273,-1.86524
668.4,19.4929,2.33494,-1.86714
669,19.5125,2.34086,-1.86903
669.6,19.5317,2.33927,-1.87047
670.2,19.5514,2.34147,-1.87067
670.8,19.5708,2.35146,-1.87185
671.4,19.5904,2.36172,-1.87346
672,19.6101,2.36751,-1.87357
672.6,19.6292,2.36816,-1.87465
673.2,19.6491,2.36513,-1.87533
673.8,19.6689,2.36102,-1.87539
674.4,19.6881,2.37616,-1.87676
675,19.7078,2.37172,-1.87688
675.6,19.7269,2.37685,-1.87748
676.2,19.746,2.38089,-1.87744
676.8,19.7658,2.38766,-1.87818
677.4,19.7852,2.38342,-1.87974
678,19.8054,2.39408,-1.87896
678.6,19.8249,2.40655,-1.87984
679.2,19.8445,2.41261,-1.88148
679.8,19.8641,2.40951,-1.88261
680.4,19.8835,2.41232,-1.8844
681,19.9031,2.41655,-1.88632
681.6,19.9227,2.42632,-1.8876
682.2,19.9424,2.41588,-1.89012
682.8,19.9617,2.42535,-1.89125
683.4,19.9815,2.43375,-1.89161
684,20.001,2.43872,-1.89291
684.6,20.0207,2.4373,-1.89288
685.2,20.04,2.44965,-1.89284
685.8,20.0598,2.45504,-1.89393
686.4,20.0788,2.44857,-1.89334
687,20.099,2.45718,-1.89454
687.6,20.1184,2.45775,-1.89468
688.2,20.138,2.47106,-1.89597
688.8,20.1574,2.4714,-1.89767
689.4,20.1769,2.47258,-1.89922
690,20.1967,2.46888,-1.90016
690.6,20.2163,2.47056,-1.90191
691.2,20.2359,2.47573,-1.90366
691.8,20.2554,2.4731,-1.90494
692.4,20.2751,2.47667,-1.90622
693,20.2938,2.47787,-1.90756
693.6,20.3135,2.48458,-1.90899
694.2,20.3335,2.47876,-1.91078
694.8,20.3531,2.48544,-1.91111
695.4,20.3729,2.48407,-1.911
696,20.392,2.48775,-1.91259
696.6,20.4119,2.48439,-1.91265
697.2,20.4313,2.48873,-1.91216
697.8,20.4509,2.48939,-1.91307
698.4,20.4709,2.47874,-1.913
699,20.4901,2.48114,-1.91256
699.6,20.5098,2.48183,-1.91364
700.2,20.5296,2.48489,-1.91411
700.8,20.5489,2.48791,-1.91552
701.4,20.5687,2.49251,-1.9166
702,20.5882,2.48927,-1.91713
702.6,20.6074,2.48327,-1.91876
703.2,20.6274,2.47758,-1.91919
703.8,20.6472,2.48252,-1.91882
704.4,20.6667,2.47456,-1.91997
705,20.6864,2.48195,-1.92021
705.6,20.7059,2.48022,-1.92021
706.2,20.7256,2.47551,-1.92022
706.8,20.7454,2.4736,-1.92153
707.4,20.765,2.48824,-1.92182
708,20.7845,2.49587,-1.92389
708.6,20.8043,2.49139,-1.92582
709.2,20.8238,2.499,-1.9261
709.8,20.8435,2.5055,-1.92753
710.4,20.8632,2.49536,-1.92829
711,20.8826,2.4859,-1.92888
711.6,20.9024,2.48801,-1.93024
712.2,20.9221,2.4862,-1.92991
712.8,20.9415,2.4905,-1.93056
713.4,20.9614,2.49378,-1.93073
714,20.9811,2.48829,-1.9318
714.6,21.0007,2.48467,-1.93258
715.2,21.0201,2.47486,-1.93353
715.8,21.0401,2.46702,-1.93505
716.4,21.0595,2.45552,-1.93689
717,21.0785,2.44504,-1.93866
717.6,21.0985,2.44954,-1.93955
718.2,21.1185,2.44052,-1.94086
718.8,21.1382,2.43144,-1.94149
719.4,21.1575,2.41549,-1.94226
720,21.1774,2.41943,-1.94455
720.6,21.1971,2.41637,-1.94525
721.2,21.2166,2.40787,-1.94699
721.8,21.2363,2.3958,-1.94852
722.4,21.2553,2.38492,-1.94964
723,21.2757,2.40031,-1.94964
723.6,21.2952,2.39295,-1.95094
724.2,21.315,2.38962,-1.95093
724.8,21.3346,2.38272,-1.95086
725.4,21.3541,2.38442,-1.95095
726,21.374,2.36964,-1.95225
726.6,21.3936,2.37508,-1.95234
727.2,21.4125,2.369,-1.95372
727.8,21.4322,2.36442,-1.95397
728.4,21.4526,2.35196,-1.95567
729,21.4721,2.3607,-1.9571
729.6,21.4921,2.3552,-1.95903
730.2,21.5116,2.3427,-1.96131
730.8,21.5313,2.33468,-1.9623
731.4,21.5512,2.32479,-1.96435
732,21.5708,2.32355,-1.96589
732.6,21.5903,2.31684,-1.96672
733.2,21.61,2.31239,-1.96753
733.8,21.6293,2.3056,-1.96842
734.4,21.6489,2.29759,-1.96852
735,21.6691,2.29432,-1.96852
735.6,21.6885,2.2878,-1.96916
736.2,21.7085,2.28205,-1.96988
736.8,21.7279,2.27107,-1.96913
737.4,21.7476,2.26393,-1.96916
738,21.7673,2.25232,-1.96909
738.6,21.7869,2.2465,-1.97055
739.2,21.8067,2.23917,-1.97191
739.8,21.8263,2.23149,-1.97309
740.4,21.8458,2.22416,-1.97346
741,21.8656,2.21501,-1.97479
741.6,21.8856,2.20553,-1.97478
742.2,21.9049,2.19516,-1.97504
742.8,21.9247,2.17975,-1.97626
743.4,21.944,2.16949,-1.97584
744,21.9638,2.16097,-1.97653
744.6,21.9837,2.1525,-1.97672
745.2,22.0031,2.13705,-1.97801
745.8,22.0229,2.11645,-1.97942
746.4,22.0424,2.11144,-1.98013
747,22.0621,2.10138,-1.98019
747.6,22.0817,2.09014,-1.98105
748.2,22.1016,2.07799,-1.98047
748.8,22.1211,2.06497,-1.98195
749.4,22.1407,2.05607,-1.98263
750,22.1602,2.03262,-1.98403
750.6,22.18,2.02496,-1.98421
751.2,22.1997,2.0108,-1.98487
751.8,22.2193,1.98873,-1.98491
752.4,22.2392,1.97129,-1.98456
753,22.2589,1.9553,-1.98688
753.6,22.2784,1.92489,-1.98928
754.2,22.2975,1.91729,-1.99112
754.8,22.3171,1.89645,-1.99295
755.4,22.3374,1.88198,-1.99454
756,22.3573,1.87104,-1.99503
756.6,22.3768,1.86455,-1.99629
757.2,22.3965,1.84023,-1.99706
757.8,22.4164,1.81518,-1.99814
758.4,22.4358,1.80809,-1.99816
759,22.4555,1.79241,-1.99743
759.6,22.4752,1.77751,-1.99622
760.2,22.4951,1.76561,-1.99553
760.8,22.5149,1.74812,-1.99742
761.4,22.5347,1.72364,-1.99977
762,22.5543,1.70922,-2.00317
762.6,22.5741,1.69634,-2.0062
763.2,22.5937,1.6812,-2.00752
763.8,22.6133,1.65815,-2.00812
764.4,22.6329,1.63742,-2.00876
765,22.6525,1.63761,-2.00991
765.6,22.6725,1.62056,-2.01117
766.2,22.6921,1.60468,-2.01167
766.8,22.7118,1.57958,-2.01282
767.4,22.7315,1.56057,-2.01429
768,22.7513,1.54419,-2.01565
768.6,22.7714,1.52841,-2.01701
769.2,22.7908,1.51186,-2.01778
769.8,22.8105,1.49478,-2.01914
770.4,22.83,1.45611,-2.02037
771,22.8499,1.4515,-2.02077
771.6,22.8698,1.42029,-2.02115
772.2,22.8896,1.39396,-2.02091
772.8,22.9093,1.36693,-2.02044
773.4,22.9291,1.36872,-2.02044
774,22.9488,1.33887,-2.02048
774.6,22.9684,1.32452,-2.0192
775.2,22.9885,1.29756,-2.01951
775.8,23.0082,1.27862,-2.01957
776.4,23.0278,1.26989,-2.02096
777,23.0472,1.24742,-2.02104
777.6,23.0673,1.22269,-2.02242
778.2,23.0871,1.19895,-2.02323
778.8,23.1069,1.184,-2.02384
779.4,23.1268,1.1596,-2.02535
780,23.1464,1.14457,-2.02531
780.6,23.1663,1.11274,-2.02684
781.2,23.1858,1.09953,-2.02805
781.8,23.2059,1.09376,-2.02894
782.4,23.2254,1.05997,-2.03011
783,23.2451,1.04481,-2.03161
783.6,23.2651,1.02799,-2.03156
784.2,23.2848,1.01365,-2.03292
784.8,23.3048,0.993273,-2.03356
785.4,23.3244,0.98461,-2.03421
786,23.3441,0.97427,-2.0356
786.6,23.3641,0.965008,-2.03651
787.2,23.3838,0.942846,-2.03868
787.8,23.4033,0.916097,-2.03973
788.4,23.4234,0.90039,-2.04057
789,23.4434,0.879891,-2.04212
789.6,23.4631,0.861432,-2.04338
790.2,23.4827,0.845508,-2.0435
790.8,23.5024,0.81839,-2.04513
791.4,23.5225,0.80472,-2.04586
792,23.5421,0.791293,-2.04558
792.6,23.5619,0.768535,-2.04691
793.2,23.5819,0.749073,-2.04849
793.8,23.6014,0.732453,-2.04833
794.4,23.6216,0.715241,-2.04869
795,23.6414,0.708052,-2.04989
795.6,23.6614,0.692508,-2.04924
796.2,23.6812,0.672604,-2.04882
796.8,23.701,0.663558,-2.04933
797.4,23.7208,0.647636,-2.05037
798,23.7406,0.638392,-2.0519
798.6,23.7602,0.625375,-2.05315
799.2,23.7801,0.611897,-2.05341
799.8,23.7999,0.601477,-2.05366
800.4,23.8199,0.587405,-2.05381
801,23.8397,0.570991,-2.05509
801.6,23.8598,0.560673,-2.05579
802.2,23.8795,0.548856,-2.05552
802.8,23.8993,0.536094,-2.05601
803.4,23.9191,0.518205,-2.05634
804,23.939,0.48334,-2.05663
804.6,23.9587,0.471136,-2.05779
805.2,23.9789,0.460717,-2.05777
805.8,23.9983,0.444013,-2.05775
806.4,24.0185,0.433608,-2.05637
807,24.038,0.425892,-2.05715
807.6,24.0584,0.420968,-2.05951
808.2,24.0781,0.410261,-2.06216
808.8,24.098,0.397056,-2.06346
809.4,24.1177,0.383381,-2.06391
810,24.1374,0.36834,-2.06392
810.6,24.1574,0.360829,-2.06451
811.2,24.1773,0.359162,-2.06412
811.8,24.1971,0.342162,-2.064
812.4,24.2171,0.331419,-2.06514
813,24.2369,0.318427,-2.06535
813.6,24.2561,0.30008,-2.06535
814.2,24.2761,0.28295,-2.06534
814.8,24.2965,0.275634,-2.0661
815.4,24.3164,0.256374,-2.06666
816,24.3362,0.258443,-2.06666
816.6,24.356,0.247137,-2.0677
817.2,24.376,0.237976,-2.06798
817.8,24.3959,0.232017,-2.06817
818.4,24.4155,0.231061,-2.0682
819,24.4358,0.207495,-2.06952
819.6,24.4554,0.204242,-2.06952
820.2,24.4756,0.193572,-2.07018
820.8,24.4953,0.188259,-2.07061
821.4,24.5153,0.172428,-2.07015
822,24.5351,0.169733,-2.07087
822.6,24.5551,0.165858,-2.07089
823.2,24.575,0.159994,-2.07098
823.8,24.5949,0.147716,-2.07135
824.4,24.6151,0.140742,-2.07095
825,24.6348,0.139078,-2.07083
825.6,24.655,0.128049,-2.06955
826.2,24.6746,0.125144,-2.07094
826.8,24.6948,0.123239,-2.07095
827.4,24.7143,0.112047,-2.07095
828,24.7346,0.098942,-2.07233
828.6,24.7546,0.0800087,-2.074
829.2,24.7744,0.0821358,-2.07516
829.8,24.7944,0.0755394,-2.07569
830.4,24.8145,0.068614,-2.07645
831,24.8348,0.0646456,-2.07672
831.6,24.8545,0.0618226,-2.07777
832.2,24.8745,0.0528662,-2.078
832.8,24.8945,0.0510784,-2.07909
833.4,24.9144,0.0440294,-2.07932
834,24.9343,0.0383882,-2.08041
834.6,24.9543,0.0278421,-2.08063
835.2,24.9744,0.0250485,-2.08173
835.8,24.9943,0.0188484,-2.08172
836.4,25.0143,0.00839288,-2.08227
837,25.0342,0.00721857,-2.08303
837.6,25.0544,0.00331004,-2.08302
838.2,25.0743,0.00404938,-2.08302
838.8,25.0944,-0.0147196,-2.08302
839.4,25.1142,-0.0249221,-2.08303
840,25.1341,-0.023145,-2.08128