File: 01_Data/Helmet_Strap/STA/N2/30K_min/Helmet_Strap_STA_N2_30KData_250228_R1.csv
Temp./C,Time/min,DSC/(mW/mg),Mass loss/mg
60.0,0.0,1.1861,-0.0133959
60.6,0.0382603,1.23162,-0.0163705
61.2,0.0744853,1.26507,-0.0187529
61.8,0.110399,1.32367,-0.0157742
62.4,0.145345,1.3731,-0.0142431
63,0.17943,1.40702,-0.0155047
63.6,0.21215,1.45321,-0.0154752
64.2,0.244777,1.48109,-0.0151214
64.8,0.276684,1.53415,-0.0149144
65.4,0.308142,1.56977,-0.0158066
66,0.339069,1.60148,-0.0171294
66.6,0.368253,1.63651,-0.0165079
67.2,0.399001,1.66619,-0.0163237
67.8,0.429294,1.69906,-0.0166063
68.4,0.458735,1.74039,-0.0152097
69,0.486668,1.76792,-0.0154614
69.6,0.515724,1.79816,-0.0158342
70.2,0.544696,1.8319,-0.015602
70.8,0.57184,1.85742,-0.0152296
71.4,0.599527,1.88414,-0.014272
72,0.626986,1.90806,-0.0151797
72.6,0.6542,1.93871,-0.0161539
73.2,0.681281,1.96519,-0.0174523
73.8,0.707593,1.98728,-0.0171417
74.4,0.734229,2.02298,-0.0153579
75,0.761721,2.03192,-0.0151567
75.6,0.7874,2.06036,-0.0150854
76.2,0.813184,2.09795,-0.0145956
76.8,0.838866,2.11359,-0.0148946
77.4,0.864568,2.12646,-0.0149468
78,0.890495,2.15742,-0.0148886
78.6,0.915547,2.1702,-0.0148755
79.2,0.940807,2.18692,-0.0150861
79.8,0.965941,2.21961,-0.0150961
80.4,0.990891,2.24082,-0.01494
81,1.0157,2.2534,-0.0161849
81.6,1.04049,2.28192,-0.0177415
82.2,1.06394,2.30347,-0.0187465
82.8,1.08815,2.31999,-0.0195183
83.4,1.11238,2.3375,-0.0192346
84,1.1382,2.35648,-0.0182276
84.6,1.16217,2.38439,-0.0177465
85.2,1.1849,2.39249,-0.0179263
85.8,1.2091,2.41196,-0.0181714
86.4,1.23384,2.4247,-0.0191982
87,1.25726,2.44478,-0.0187477
87.6,1.28056,2.46298,-0.0183298
88.2,1.30442,2.48261,-0.0183667
88.8,1.32741,2.49246,-0.0196359
89.4,1.35067,2.51535,-0.0185006
90,1.37392,2.52139,-0.0186187
90.6,1.39741,2.53123,-0.0193899
91.2,1.42031,2.55095,-0.0183255
91.8,1.44328,2.56311,-0.019676
92.4,1.46635,2.58666,-0.019729
93,1.48904,2.59464,-0.019759
93.6,1.5122,2.61329,-0.0189306
94.2,1.5342,2.61973,-0.0183981
94.8,1.55692,2.64639,-0.0183937
95.4,1.57937,2.65523,-0.0195448
96,1.6022,2.66539,-0.0181862
96.6,1.62457,2.67889,-0.0194425
97.2,1.64675,2.69968,-0.0192103
97.8,1.66885,2.71906,-0.0196034
98.4,1.69095,2.73715,-0.0180828
99,1.71328,2.73754,-0.0192564
99.6,1.73585,2.74783,-0.0189102
100.2,1.75712,2.75902,-0.0192918
100.8,1.77925,2.77479,-0.0190969
101.4,1.80117,2.7814,-0.0193093
102,1.82298,2.78877,-0.0192986
102.6,1.845,2.8053,-0.0203607
103.2,1.8667,2.80996,-0.020364
103.8,1.88864,2.81757,-0.0204455
104.4,1.91029,2.83197,-0.0206437
105,1.93141,2.84164,-0.0194742
105.6,1.95368,2.8522,-0.0206568
106.2,1.975,2.85831,-0.0209117
106.8,1.99668,2.85929,-0.0220566
107.4,2.01805,2.86075,-0.0212877
108,2.03995,2.86911,-0.0219589
108.6,2.06139,2.88062,-0.021378
109.2,2.08234,2.88696,-0.0220054
109.8,2.10416,2.88899,-0.0219527
110.4,2.12565,2.89114,-0.0205423
111,2.14672,2.89959,-0.0206331
111.6,2.16747,2.90881,-0.0206417
112.2,2.18966,2.90912,-0.0219944
112.8,2.21057,2.91487,-0.0206492
113.4,2.23153,2.91854,-0.020639
114,2.25286,2.91503,-0.0212423
114.6,2.27462,2.91398,-0.0210555
115.2,2.29516,2.92054,-0.0205747
115.8,2.31616,2.91935,-0.0218959
116.4,2.337,2.91751,-0.0214737
117,2.35782,2.91659,-0.0205963
117.6,2.37864,2.93111,-0.0219538
118.2,2.39925,2.93169,-0.0219623
118.8,2.42018,2.92327,-0.0233305
119.4,2.44228,2.92518,-0.0226049
120,2.46345,2.92381,-0.0223239
120.6,2.48285,2.92477,-0.0236622
121.2,2.50414,2.92773,-0.0232853
121.8,2.52511,2.92698,-0.0232707
122.4,2.54612,2.9315,-0.0232635
123,2.56669,2.92415,-0.0244861
123.6,2.58722,2.92078,-0.024694
124.2,2.6077,2.92717,-0.0247503
124.8,2.62848,2.92423,-0.0235197
125.4,2.64861,2.93298,-0.0247129
126,2.66931,2.91962,-0.0247019
126.6,2.68997,2.92133,-0.0246993
127.2,2.70999,2.92157,-0.0246837
127.8,2.73083,2.92153,-0.0255395
128.4,2.75087,2.91066,-0.0247649
129,2.77088,2.91048,-0.0247136
129.6,2.79164,2.91419,-0.02471
130.2,2.8111,2.91782,-0.0247098
130.8,2.83154,2.92327,-0.0247063
131.4,2.85234,2.92178,-0.0246521
132,2.87256,2.91983,-0.0258867
132.6,2.8929,2.92015,-0.0260182
133.2,2.9125,2.92545,-0.0260421
133.8,2.93305,2.9256,-0.0263977
134.4,2.95298,2.92674,-0.0270232
135,2.97297,2.93301,-0.0270108
135.6,2.99334,2.93508,-0.0270058
136.2,3.01285,2.94309,-0.0269706
136.8,3.03252,2.94953,-0.026015
137.4,3.05247,2.95328,-0.026018
138,3.07207,2.954,-0.0259973
138.6,3.0919,2.96444,-0.0265332
139.2,3.11267,2.96835,-0.0259673
139.8,3.13226,2.97339,-0.0256173
140.4,3.15213,2.98013,-0.026002
141,3.1717,2.98378,-0.0260184
141.6,3.19137,2.99122,-0.0260141
142.2,3.21151,2.99345,-0.026374
142.8,3.23107,2.98979,-0.0259814
143.4,3.25031,2.99582,-0.0260162
144,3.26986,3.00781,-0.0260234
144.6,3.28912,3.01736,-0.0260786
145.2,3.30948,3.02281,-0.0250783
145.8,3.32828,3.02833,-0.0250435
146.4,3.34809,3.03,-0.0250403
147,3.36758,3.04926,-0.0250402
147.6,3.38697,3.04947,-0.0252849
148.2,3.40656,3.0498,-0.0263672
148.8,3.42598,3.05749,-0.0263529
149.4,3.44551,3.06448,-0.0263502
150,3.46465,3.07117,-0.02635
150.6,3.48419,3.07804,-0.0263501
151.2,3.50349,3.08104,-0.0263506
151.8,3.5227,3.08651,-0.0263613
152.4,3.54184,3.09159,-0.0265375
153,3.56156,3.10198,-0.0273798
153.6,3.58063,3.11314,-0.0264729
154.2,3.6001,3.11973,-0.0260178
154.8,3.6193,3.12182,-0.0260197
155.4,3.63862,3.12896,-0.02602
156,3.65762,3.14263,-0.02602
156.6,3.67698,3.14964,-0.02602
157.2,3.69593,3.15423,-0.0260196
157.8,3.71523,3.16312,-0.0260137
158.4,3.73443,3.17368,-0.0259285
159,3.75337,3.18347,-0.027289
159.6,3.77241,3.18809,-0.0273619
160.2,3.79168,3.20056,-0.0277086
160.8,3.81087,3.2096,-0.0286667
161.4,3.82975,3.21343,-0.0286605
162,3.84917,3.21983,-0.02866
162.6,3.86722,3.22743,-0.0286568
163.2,3.88692,3.24007,-0.0285317
163.8,3.90605,3.25421,-0.0288483
164.4,3.92527,3.25389,-0.0289676
165,3.94425,3.262,-0.0289791
165.6,3.96297,3.26893,-0.0289799
166.2,3.9823,3.27303,-0.0289801
166.8,4.0019,3.27661,-0.0289813
167.4,4.02045,3.28258,-0.0289914
168,4.03953,3.29043,-0.0290521
168.6,4.05846,3.29606,-0.0303121
169.2,4.07723,3.30821,-0.0305825
169.8,4.09605,3.31152,-0.031673
170.4,4.11509,3.31742,-0.0316238
171,4.13289,3.32472,-0.0316201
171.6,4.15246,3.32777,-0.03162
172.2,4.17156,3.33592,-0.03162
172.8,4.19042,3.34412,-0.03162
173.4,4.20924,3.35659,-0.03162
174,4.22793,3.36089,-0.03162
174.6,4.24695,3.36792,-0.03162
175.2,4.26548,3.37226,-0.03162
175.8,4.28425,3.38156,-0.0316198
176.4,4.30293,3.38894,-0.0316191
177,4.32142,3.39719,-0.0319074
177.6,4.34044,3.39895,-0.0329669
178.2,4.35886,3.40627,-0.0329444
178.8,4.37757,3.41214,-0.0329404
179.4,4.39624,3.42461,-0.03294
180,4.41513,3.431,-0.03294
180.6,4.43363,3.431,-0.0329395
181.2,4.4524,3.44145,-0.0329343
181.8,4.47118,3.45233,-0.03353
182.4,4.4896,3.45835,-0.0342482
183,4.50797,3.46835,-0.0342604
183.6,4.52642,3.46914,-0.0342602
184.2,4.54515,3.47425,-0.03426
184.8,4.56347,3.47965,-0.03426
185.4,4.58222,3.48179,-0.03426
186,4.6004,3.48989,-0.03426
186.6,4.61873,3.49551,-0.03426
187.2,4.63741,3.50486,-0.03426
187.8,4.65582,3.51052,-0.03426
188.4,4.67452,3.52206,-0.03426
189,4.69276,3.5254,-0.0342571
189.6,4.71115,3.53265,-0.0341863
190.2,4.72957,3.55052,-0.0347959
190.8,4.74784,3.54954,-0.0349135
191.4,4.76657,3.54679,-0.0351455
192,4.78456,3.55579,-0.0362733
192.6,4.80308,3.5651,-0.036254
193.2,4.82143,3.57129,-0.0364331
193.8,4.8399,3.57456,-0.0375527
194.4,4.85801,3.58488,-0.0375497
195,4.87638,3.58457,-0.0375499
195.6,4.89471,3.5935,-0.03755
196.2,4.91263,3.60486,-0.03755
196.8,4.93103,3.61122,-0.0375499
197.4,4.94885,3.61471,-0.0375499
198,4.96768,3.6202,-0.0375538
198.6,4.9858,3.62971,-0.0364716
199.2,5.00428,3.6317,-0.0362531
199.8,5.02243,3.63762,-0.036232
200.4,5.04057,3.64756,-0.0362302
201,5.05829,3.65,-0.036232
201.6,5.0763,3.65972,-0.0362503
202.2,5.09527,3.66271,-0.0364948
202.8,5.11323,3.66759,-0.0375553
203.4,5.13157,3.67473,-0.0375499
204,5.14988,3.68021,-0.037552
204.6,5.16779,3.69014,-0.0375869
205.2,5.18612,3.69468,-0.0371863
205.8,5.204,3.69724,-0.037218
206.4,5.2222,3.71237,-0.03722
207,5.24055,3.70999,-0.03722
207.6,5.25877,3.7252,-0.03722
208.2,5.27682,3.72107,-0.03722
208.8,5.29492,3.72467,-0.0372198
209.4,5.31283,3.7312,-0.0372193
210,5.3308,3.73228,-0.0374614
210.6,5.34901,3.73683,-0.0385993
211.2,5.36737,3.74627,-0.0385394
211.8,5.38546,3.75243,-0.0392269
212.4,5.40366,3.75571,-0.0398282
213,5.42178,3.76725,-0.0398529
213.6,5.4398,3.78149,-0.040638
214.2,5.45784,3.78339,-0.0411479
214.8,5.47619,3.79623,-0.0423461
215.4,5.49421,3.80497,-0.0424759
216,5.512,3.81305,-0.0424889
216.6,5.53038,3.82595,-0.0427092
217.2,5.54825,3.83204,-0.0438824
217.8,5.56637,3.8383,-0.043838
218.4,5.58438,3.83838,-0.0439963
219,5.60226,3.84869,-0.0452408
219.6,5.62033,3.85783,-0.0451909
220.2,5.63854,3.87588,-0.0470107
220.8,5.65631,3.88478,-0.0471394
221.4,5.67439,3.90108,-0.0480711
222,5.69248,3.91127,-0.0485252
222.6,5.71048,3.9218,-0.0485477
223.2,5.7285,3.9284,-0.0491747
223.8,5.74673,3.93705,-0.0498597
224.4,5.76479,3.95414,-0.0498583
225,5.78289,3.96482,-0.0498815
225.6,5.80086,3.97706,-0.0511199
226.2,5.81873,3.98794,-0.0511423
226.8,5.83664,4.00159,-0.0510364
227.4,5.855,4.00239,-0.0526952
228,5.87261,4.02215,-0.0528018
228.6,5.89054,4.04097,-0.0528003
229.2,5.90894,4.05521,-0.0528018
229.8,5.9269,4.06248,-0.0528233
230.4,5.94482,4.07547,-0.0530383
231,5.96265,4.08134,-0.0541507
231.6,5.98071,4.09324,-0.0534176
232.2,5.99873,4.10053,-0.0531908
232.8,6.01663,4.11422,-0.0541764
233.4,6.03438,4.13237,-0.0541035
234,6.05267,4.13976,-0.0548493
234.6,6.07044,4.14484,-0.0554532
235.2,6.08866,4.15188,-0.0542777
235.8,6.10643,4.16163,-0.0545476
236.4,6.12442,4.16818,-0.055447
237,6.14239,4.17437,-0.0554312
237.6,6.15991,4.17822,-0.0559291
238.2,6.17815,4.1786,-0.0555702
238.8,6.19583,4.17601,-0.0554559
239.4,6.21379,4.17888,-0.05545
240,6.23184,4.17735,-0.0567547
240.6,6.24961,4.17716,-0.0567707
241.2,6.26763,4.17698,-0.057291
241.8,6.28541,4.17087,-0.0580741
242.4,6.3031,4.16839,-0.0580586
243,6.32058,4.16915,-0.0586117
243.6,6.33791,4.16695,-0.0595411
244.2,6.35681,4.15651,-0.0604537
244.8,6.37475,4.15124,-0.0610985
245.4,6.39247,4.13551,-0.0635462
246,6.41027,4.14084,-0.0644998
246.6,6.42813,4.13329,-0.0669712
247.2,6.44596,4.12169,-0.067411
247.8,6.46385,4.12373,-0.068405
248.4,6.4816,4.12034,-0.0683914
249,6.49911,4.11623,-0.0681089
249.6,6.51704,4.10607,-0.0682977
250.2,6.53513,4.10107,-0.0680631
250.8,6.55273,4.09222,-0.0679578
251.4,6.57059,4.08434,-0.0681097
252,6.58832,4.08338,-0.0685095
252.6,6.60628,4.07515,-0.069797
253.2,6.62417,4.07711,-0.0703088
253.8,6.64208,4.07452,-0.0712471
254.4,6.65971,4.07266,-0.0725968
255,6.67766,4.07099,-0.073111
255.6,6.69562,4.06692,-0.0746383
256.2,6.71315,4.06171,-0.0762365
256.8,6.73121,4.06852,-0.07742
257.4,6.74893,4.06533,-0.0785417
258,6.76648,4.06686,-0.0797696
258.6,6.78439,4.0634,-0.0802853
259.2,6.80226,4.06734,-0.0810229
259.8,6.81974,4.06702,-0.0814778
260.4,6.83761,4.06261,-0.0825084
261,6.85607,4.06273,-0.0839382
261.6,6.87281,4.06584,-0.0848627
262.2,6.89121,4.06785,-0.0860735
262.8,6.90879,4.0642,-0.0888243
263.4,6.92686,4.06282,-0.0899733
264,6.94472,4.06491,-0.090332
264.6,6.96229,4.07054,-0.0920222
265.2,6.98007,4.07226,-0.0925382
265.8,6.99732,4.07002,-0.0939466
266.4,7.01525,4.06933,-0.0958783
267,7.03364,4.06285,-0.0982752
267.6,7.05132,4.06942,-0.100707
268.2,7.06895,4.07037,-0.101663
268.8,7.08663,4.07253,-0.103044
269.4,7.10459,4.0773,-0.104572
270,7.12296,4.08325,-0.10645
270.6,7.13955,4.07991,-0.107397
271.2,7.15738,4.07448,-0.108933
271.8,7.17535,4.07395,-0.111143
272.4,7.19348,4.0701,-0.112885
273,7.2112,4.07021,-0.114023
273.6,7.22888,4.06965,-0.114798
274.2,7.24682,4.06364,-0.116423
274.8,7.26453,4.07181,-0.118371
275.4,7.28217,4.06408,-0.120345
276,7.29995,4.06102,-0.122113
276.6,7.31761,4.06496,-0.123614
277.2,7.33557,4.05457,-0.125505
277.8,7.35325,4.06037,-0.126288
278.4,7.37052,4.06213,-0.128332
279,7.38895,4.06218,-0.131194
279.6,7.40653,4.05769,-0.133076
280.2,7.42417,4.05194,-0.134886
280.8,7.44223,4.04414,-0.136643
281.4,7.45991,4.0392,-0.138447
282,7.47734,4.04205,-0.140288
282.6,7.49532,4.042,-0.141994
283.2,7.51337,4.02906,-0.143844
283.8,7.53105,4.0299,-0.145128
284.4,7.54884,4.02445,-0.145704
285,7.56654,4.03429,-0.147109
285.6,7.58411,4.02981,-0.148651
286.2,7.60188,4.01081,-0.15027
286.8,7.61993,4.01105,-0.151973
287.4,7.63753,4.01088,-0.151989
288,7.6556,3.9965,-0.154086
288.6,7.67313,3.98227,-0.155747
289.2,7.69088,3.97959,-0.15752
289.8,7.70842,3.97349,-0.15887
290.4,7.72664,3.95733,-0.160326
291,7.744,3.94532,-0.161752
291.6,7.76196,3.92598,-0.163902
292.2,7.77964,3.92141,-0.165852
292.8,7.79754,3.90722,-0.167867
293.4,7.81507,3.90695,-0.169539
294,7.83308,3.89464,-0.171131
294.6,7.85087,3.89097,-0.172837
295.2,7.86864,3.89049,-0.174242
295.8,7.88584,3.8964,-0.175618
296.4,7.90345,3.90399,-0.177171
297,7.92222,3.90809,-0.178971
297.6,7.93954,3.92519,-0.181022
298.2,7.9573,3.93136,-0.183247
298.8,7.97532,3.95373,-0.185517
299.4,7.99293,3.9715,-0.187094
300,8.01107,3.99377,-0.189223
300.6,8.02881,4.01554,-0.190538
301.2,8.04663,4.04015,-0.192086
301.8,8.06483,4.05843,-0.193901
302.4,8.08258,4.07693,-0.195514
303,8.10032,4.08746,-0.196023
303.6,8.11829,4.10581,-0.197631
304.2,8.13627,4.11605,-0.199493
304.8,8.15361,4.1271,-0.200874
305.4,8.17188,4.13986,-0.203927
306,8.18956,4.14715,-0.205552
306.6,8.20721,4.16577,-0.206953
307.2,8.22571,4.17065,-0.207741
307.8,8.24343,4.17705,-0.209507
308.4,8.26147,4.19063,-0.211391
309,8.27913,4.20681,-0.213036
309.6,8.29707,4.20301,-0.213986
310.2,8.31419,4.21088,-0.215297
310.8,8.3327,4.21289,-0.216872
311.4,8.3507,4.21658,-0.216754
312,8.36775,4.21933,-0.218274
312.6,8.3857,4.22104,-0.218352
313.2,8.40416,4.22599,-0.218922
313.8,8.42194,4.21943,-0.21978
314.4,8.43959,4.21906,-0.221134
315,8.4577,4.21398,-0.221887
315.6,8.47544,4.21815,-0.222891
316.2,8.49345,4.20809,-0.224478
316.8,8.5113,4.20916,-0.224345
317.4,8.52914,4.20428,-0.225891
318,8.54702,4.1963,-0.225816
318.6,8.56463,4.20694,-0.226652
319.2,8.58283,4.20044,-0.228275
319.8,8.60049,4.19072,-0.229709
320.4,8.61826,4.18141,-0.230105
321,8.63635,4.17189,-0.230625
321.6,8.65399,4.16711,-0.229955
322.2,8.67184,4.16654,-0.231417
322.8,8.68954,4.15414,-0.232324
323.4,8.70752,4.14229,-0.233259
324,8.72519,4.14053,-0.234846
324.6,8.7429,4.12655,-0.234755
325.2,8.761,4.12308,-0.236225
325.8,8.77881,4.11777,-0.236981
326.4,8.7965,4.10707,-0.237765
327,8.81453,4.09796,-0.240374
327.6,8.83253,4.08587,-0.240933
328.2,8.85033,4.07904,-0.241656
328.8,8.86814,4.0669,-0.242769
329.4,8.8862,4.06019,-0.24318
330,8.90408,4.05351,-0.242732
330.6,8.92173,4.04741,-0.243173
331.2,8.93936,4.03862,-0.243162
331.8,8.95764,4.03006,-0.244104
332.4,8.97521,4.02552,-0.245221
333,8.99305,4.00721,-0.245892
333.6,9.01125,4.00307,-0.247128
334.2,9.02925,4.00223,-0.247151
334.8,9.04696,3.99019,-0.247581
335.4,9.06492,3.97832,-0.248568
336,9.08265,3.97145,-0.24895
336.6,9.1008,3.97221,-0.250003
337.2,9.11843,3.96304,-0.24998
337.8,9.13639,3.95758,-0.24992
338.4,9.15427,3.94328,-0.250718
339,9.17173,3.94113,-0.250631
339.6,9.18988,3.93394,-0.251326
340.2,9.20799,3.93332,-0.251388
340.8,9.2258,3.9199,-0.252823
341.4,9.24374,3.9167,-0.253244
342,9.26156,3.91444,-0.254156
342.6,9.27986,3.89851,-0.254114
343.2,9.29754,3.90112,-0.255255
343.8,9.31571,3.89679,-0.255476
344.4,9.33356,3.89253,-0.255587
345,9.35175,3.88757,-0.256789
345.6,9.36978,3.88531,-0.256965
346.2,9.38733,3.88179,-0.258304
346.8,9.40543,3.88115,-0.258962
347.4,9.42291,3.88199,-0.259727
348,9.4416,3.87957,-0.26043
348.6,9.45938,3.87923,-0.262498
349.2,9.47729,3.87408,-0.262385
349.8,9.49523,3.86639,-0.262376
350.4,9.51333,3.86801,-0.262839
351,9.53144,3.86868,-0.263699
351.6,9.5494,3.87358,-0.263694
352.2,9.56741,3.87232,-0.263691
352.8,9.58533,3.86942,-0.263701
353.4,9.60339,3.87349,-0.264918
354,9.62135,3.86915,-0.263849
354.6,9.6393,3.87534,-0.265203
355.2,9.65754,3.87113,-0.265252
355.8,9.67516,3.87429,-0.26657
356.4,9.69316,3.88268,-0.266774
357,9.71145,3.87982,-0.267069
357.6,9.72854,3.87893,-0.268121
358.2,9.74762,3.87992,-0.26885
358.8,9.76532,3.8825,-0.269406
359.4,9.78363,3.88142,-0.269406
360,9.80151,3.88075,-0.269389
360.6,9.81953,3.88985,-0.270617
361.2,9.8375,3.88709,-0.270699
361.8,9.85583,3.88844,-0.271445
362.4,9.87368,3.89238,-0.272018
363,9.89178,3.89202,-0.272362
363.6,9.91013,3.89827,-0.27346
364.2,9.92795,3.9056,-0.27443
364.8,9.94601,3.91262,-0.274707
365.4,9.96398,3.9163,-0.275664
366,9.98237,3.91991,-0.275659
366.6,10.0005,3.92383,-0.275676
367.2,10.0186,3.92574,-0.276307
367.8,10.0367,3.92932,-0.277128
368.4,10.055,3.93689,-0.277635
369,10.0731,3.94749,-0.278738
369.6,10.0912,3.9458,-0.278745
370.2,10.109,3.94821,-0.279165
370.8,10.1275,3.96067,-0.280107
371.4,10.1453,3.96542,-0.280068
372,10.1634,3.97357,-0.280141
372.6,10.1815,3.97535,-0.278794
373.2,10.1997,3.97507,-0.278741
373.8,10.2179,3.98515,-0.278725
374.4,10.2361,3.9905,-0.277346
375,10.2543,3.99714,-0.278578
375.6,10.2723,3.99983,-0.278741
376.2,10.2906,4.00988,-0.278749
376.8,10.3087,4.01575,-0.279133
377.4,10.327,4.02516,-0.280109
378,10.3453,4.0328,-0.280064
378.6,10.3632,4.05015,-0.28006
379.2,10.3818,4.06105,-0.28006
379.8,10.3999,4.06269,-0.280056
380.4,10.4181,4.08876,-0.281049
381,10.4362,4.08781,-0.281374
381.6,10.4544,4.09744,-0.281568
382.2,10.4728,4.11584,-0.282604
382.8,10.491,4.1296,-0.283936
383.4,10.509,4.13409,-0.284702
384,10.5275,4.15005,-0.285328
384.6,10.5456,4.16405,-0.285321
385.2,10.5638,4.18003,-0.285321
385.8,10.5821,4.19051,-0.285321
386.4,10.6005,4.20745,-0.285258
387,10.6186,4.21413,-0.286604
387.6,10.6367,4.23277,-0.286639
388.2,10.6551,4.24716,-0.286649
388.8,10.6733,4.26139,-0.286693
389.4,10.6917,4.28378,-0.287951
390,10.71,4.29985,-0.287955
390.6,10.7284,4.31473,-0.287962
391.2,10.7465,4.32916,-0.288018
391.8,10.7649,4.34779,-0.28936
392.4,10.7832,4.35987,-0.289272
393,10.8015,4.37402,-0.289563
393.6,10.8198,4.39655,-0.290631
394.2,10.8383,4.41706,-0.290621
394.8,10.8565,4.42608,-0.291001
395.4,10.8746,4.4486,-0.291917
396,10.8931,4.46375,-0.291915
396.6,10.9115,4.48959,-0.291884
397.2,10.9299,4.51559,-0.293199
397.8,10.9482,4.54615,-0.291862
398.4,10.9667,4.56664,-0.291835
399,10.9853,4.59593,-0.293109
399.6,11.0036,4.6244,-0.293229
400.2,11.0218,4.63973,-0.29323
400.8,11.0403,4.67647,-0.293163
401.4,11.0587,4.70842,-0.294517
402,11.0771,4.74178,-0.294561
402.6,11.0956,4.76889,-0.294725
403.2,11.114,4.81087,-0.295922
403.8,11.1323,4.84931,-0.295895
404.4,11.1509,4.88806,-0.297381
405,11.1693,4.93348,-0.298547
405.6,11.1882,4.97479,-0.299754
406.2,11.2058,5.0157,-0.299714
406.8,11.225,5.06154,-0.29971
407.4,11.2435,5.1111,-0.29971
408,11.2619,5.16299,-0.29971
408.6,11.2806,5.21524,-0.299939
409.2,11.2986,5.27193,-0.301085
409.8,11.3176,5.33843,-0.300939
410.4,11.3362,5.39838,-0.3023
411,11.3547,5.46566,-0.302408
411.6,11.3731,5.53561,-0.303586
412.2,11.3921,5.60242,-0.30272
412.8,11.4104,5.67114,-0.302392
413.4,11.4294,5.75436,-0.30375
414,11.448,5.83464,-0.303782
414.6,11.4667,5.91575,-0.304009
415.2,11.4851,5.99255,-0.305291
415.8,11.5038,6.08069,-0.305464
416.4,11.5225,6.17049,-0.308055
417,11.5414,6.27254,-0.309096
417.6,11.5603,6.36422,-0.309517
418.2,11.5786,6.46041,-0.311222
418.8,11.5975,6.5722,-0.311811
419.4,11.6166,6.67668,-0.312702
420,11.6352,6.78382,-0.314127
420.6,11.654,6.89461,-0.314323
421.2,11.6727,7.00351,-0.315714
421.8,11.6916,7.11401,-0.314504
422.4,11.7098,7.22433,-0.31575
423,11.7294,7.33416,-0.31599
423.6,11.7482,7.4318,-0.317383
424.2,11.7669,7.53378,-0.317734
424.8,11.786,7.64488,-0.318737
425.4,11.8045,7.73365,-0.320323
426,11.8231,7.82684,-0.321147
426.6,11.8425,7.92453,-0.321898
427.2,11.861,8.01515,-0.323382
427.8,11.8794,8.08293,-0.324225
428.4,11.8983,8.15181,-0.324879
429,11.9171,8.21869,-0.3263
429.6,11.9357,8.28026,-0.326756
430.2,11.9545,8.33869,-0.328026
430.8,11.9729,8.3705,-0.329478
431.4,11.9916,8.40535,-0.330415
432,12.01,8.42208,-0.331062
432.6,12.0288,8.44454,-0.332391
433.2,12.047,8.4498,-0.334115
433.8,12.0656,8.44708,-0.335367
434.4,12.0839,8.44044,-0.336538
435,12.1026,8.40383,-0.338195
435.6,12.1211,8.36821,-0.339827
436.2,12.1396,8.31212,-0.342159
436.8,12.1577,8.24679,-0.344339
437.4,12.176,8.17236,-0.345921
438,12.194,8.07873,-0.348717
438.6,12.2122,7.98914,-0.35045
439.2,12.2306,7.86653,-0.352212
439.8,12.2483,7.75579,-0.354416
440.4,12.2661,7.62715,-0.357586
441,12.284,7.49244,-0.360049
441.6,12.3021,7.36045,-0.362645
442.2,12.3203,7.20856,-0.365205
442.8,12.3381,7.07043,-0.368105
443.4,12.357,6.92587,-0.371158
444,12.3746,6.7828,-0.373764
444.6,12.3928,6.64204,-0.37735
445.2,12.411,6.52083,-0.380782
445.8,12.4288,6.40251,-0.383012
446.4,12.4471,6.29323,-0.385793
447,12.4649,6.1905,-0.388755
447.6,12.4832,6.10643,-0.390919
448.2,12.5013,6.0265,-0.393246
448.8,12.5198,5.95311,-0.396836
449.4,12.5385,5.88202,-0.400633
450,12.5567,5.83445,-0.404068
450.6,12.5751,5.78945,-0.40844
451.2,12.5939,5.75394,-0.413234
451.8,12.612,5.71303,-0.418056
452.4,12.6304,5.69408,-0.421145
453,12.6488,5.66987,-0.425058
453.6,12.6674,5.65133,-0.429911
454.2,12.6859,5.64632,-0.433172
454.8,12.7043,5.63447,-0.437275
455.4,12.7229,5.63169,-0.442663
456,12.7416,5.62878,-0.448175
456.6,12.7599,5.63359,-0.452941
457.2,12.7784,5.64191,-0.45895
457.8,12.7974,5.63878,-0.464116
458.4,12.8159,5.64659,-0.47019
459,12.8345,5.65759,-0.475285
459.6,12.8533,5.66876,-0.481437
460.2,12.8717,5.68343,-0.485943
460.8,12.8897,5.6936,-0.492035
461.4,12.9091,5.70651,-0.497729
462,12.9278,5.72052,-0.504582
462.6,12.9466,5.72981,-0.510148
463.2,12.9649,5.74636,-0.516303
463.8,12.9836,5.76094,-0.523617
464.4,13.0024,5.77249,-0.530452
465,13.021,5.78464,-0.53712
465.6,13.0398,5.7961,-0.543535
466.2,13.0586,5.81033,-0.551417
466.8,13.0771,5.81422,-0.557885
467.4,13.0957,5.82719,-0.565578
468,13.1146,5.84172,-0.571998
468.6,13.1329,5.8533,-0.579637
469.2,13.1518,5.86972,-0.586089
469.8,13.1705,5.87608,-0.594852
470.4,13.1891,5.88314,-0.601709
471,13.2078,5.89958,-0.610887
471.6,13.2265,5.91251,-0.618351
472.2,13.2452,5.90905,-0.627194
472.8,13.264,5.91574,-0.63497
473.4,13.2828,5.92828,-0.643167
474,13.3014,5.9312,-0.651192
474.6,13.3201,5.93162,-0.658296
475.2,13.3389,5.93767,-0.666639
475.8,13.3578,5.94338,-0.674538
476.4,13.3762,5.94221,-0.684213
477,13.395,5.94172,-0.692326
477.6,13.4137,5.94217,-0.702171
478.2,13.4324,5.93983,-0.709832
478.8,13.4511,5.93628,-0.71956
479.4,13.4697,5.92449,-0.726747
480,13.4887,5.91551,-0.736382
480.6,13.5073,5.90829,-0.744141
481.2,13.5259,5.90272,-0.752917
481.8,13.5443,5.89491,-0.760739
482.4,13.5632,5.88319,-0.76991
483,13.5819,5.86555,-0.779998
483.6,13.6008,5.84883,-0.789524
484.2,13.6194,5.83037,-0.799588
484.8,13.6383,5.81386,-0.808798
485.4,13.6567,5.7993,-0.819188
486,13.6757,5.77729,-0.828098
486.6,13.6942,5.7535,-0.838296
487.2,13.7129,5.72903,-0.845882
487.8,13.7314,5.71912,-0.855486
488.4,13.7501,5.68317,-0.862581
489,13.7691,5.64816,-0.87238
489.6,13.7874,5.62993,-0.879947
490.2,13.8064,5.59847,-0.889349
490.8,13.825,5.5716,-0.897361
491.4,13.8438,5.54178,-0.906484
492,13.8623,5.5159,-0.914839
492.6,13.8812,5.47857,-0.922085
493.2,13.8997,5.45069,-0.929112
493.8,13.9186,5.41532,-0.938019
494.4,13.9369,5.38078,-0.950894
495,13.956,5.3424,-0.961764
495.6,13.9746,5.30632,-0.973755
496.2,13.9933,5.2694,-0.981545
496.8,14.0119,5.23049,-0.990762
497.4,14.0306,5.19793,-0.998328
498,14.0495,5.16961,-1.00828
498.6,14.068,5.13346,-1.01578
499.2,14.0867,5.09148,-1.02581
499.8,14.1054,5.0491,-1.03435
500.4,14.1239,5.01656,-1.04367
501,14.1429,4.9785,-1.05266
501.6,14.1615,4.94156,-1.06124
502.2,14.1798,4.90817,-1.07041
502.8,14.1984,4.86984,-1.07836
503.4,14.2178,4.83889,-1.08708
504,14.2366,4.79841,-1.09437
504.6,14.2551,4.7609,-1.10355
505.2,14.2742,4.7276,-1.11139
505.8,14.2926,4.68772,-1.12107
506.4,14.3113,4.65426,-1.1282
507,14.3302,4.62552,-1.13827
507.6,14.349,4.58805,-1.1454
508.2,14.3677,4.55857,-1.15453
508.8,14.3865,4.53158,-1.16245
509.4,14.4052,4.49109,-1.17111
510,14.4241,4.45451,-1.17861
510.6,14.4428,4.42061,-1.18619
511.2,14.4616,4.39488,-1.19355
511.8,14.4801,4.36375,-1.20054
512.4,14.4991,4.32788,-1.20834
513,14.5178,4.29755,-1.21571
513.6,14.5365,4.26786,-1.22466
514.2,14.5556,4.23574,-1.23061
514.8,14.5741,4.20949,-1.2391
515.4,14.5933,4.17933,-1.24601
516,14.612,4.14595,-1.25462
516.6,14.6311,4.12104,-1.26118
517.2,14.6498,4.09407,-1.26957
517.8,14.6687,4.06697,-1.27618
518.4,14.6874,4.03537,-1.28438
519,14.7065,4.00507,-1.29167
519.6,14.7252,3.97724,-1.29952
520.2,14.7441,3.95713,-1.30617
520.8,14.7628,3.93296,-1.31271
521.4,14.7819,3.90679,-1.31946
522,14.8007,3.88373,-1.32589
522.6,14.8197,3.84544,-1.33264
523.2,14.8383,3.82902,-1.33966
523.8,14.8573,3.80899,-1.34626
524.4,14.8763,3.78142,-1.35156
525,14.895,3.76366,-1.35753
525.6,14.9139,3.73439,-1.3628
526.2,14.9329,3.70969,-1.37127
526.8,14.9517,3.68568,-1.37629
527.4,14.9708,3.66212,-1.38321
528,14.9897,3.64943,-1.38829
528.6,15.0086,3.6211,-1.39495
529.2,15.0276,3.59597,-1.4007
529.8,15.0466,3.57702,-1.40706
530.4,15.0657,3.55672,-1.412
531,15.0842,3.52636,-1.41704
531.6,15.1026,3.5293,-1.42174
532.2,15.1216,3.50189,-1.42703
532.8,15.1409,3.47682,-1.43228
533.4,15.1602,3.44885,-1.43654
534,15.1792,3.42689,-1.4416
534.6,15.1979,3.41367,-1.44595
535.2,15.2172,3.39909,-1.45179
535.8,15.2358,3.38172,-1.45803
536.4,15.2549,3.36068,-1.46461
537,15.2734,3.34319,-1.46876
537.6,15.293,3.32829,-1.47544
538.2,15.3119,3.31432,-1.47943
538.8,15.3311,3.29032,-1.48473
539.4,15.3497,3.28221,-1.48846
540,15.3688,3.26563,-1.4939
540.6,15.388,3.2465,-1.49813
541.2,15.4068,3.22749,-1.50305
541.8,15.4257,3.2129,-1.50722
542.4,15.4449,3.20105,-1.51203
543,15.464,3.18536,-1.51627
543.6,15.483,3.17139,-1.51986
544.2,15.5022,3.15447,-1.52397
544.8,15.521,3.14376,-1.52837
545.4,15.5398,3.12204,-1.53366
546,15.5593,3.11354,-1.5373
546.6,15.578,3.10664,-1.54216
547.2,15.597,3.09528,-1.54669
547.8,15.616,3.07479,-1.55205
548.4,15.6356,3.0597,-1.55657
549,15.6542,3.03997,-1.5608
549.6,15.6733,3.02693,-1.56465
550.2,15.6924,3.01451,-1.56856
550.8,15.7114,3.00182,-1.57266
551.4,15.7304,2.98169,-1.57662
552,15.7495,2.96828,-1.58141
552.6,15.7685,2.9553,-1.58523
553.2,15.7877,2.94343,-1.58834
553.8,15.8068,2.92678,-1.59221
554.4,15.8259,2.90726,-1.59705
555,15.845,2.89486,-1.60094
555.6,15.864,2.8851,-1.60479
556.2,15.8832,2.87491,-1.60816
556.8,15.9022,2.86481,-1.61065
557.4,15.9214,2.8443,-1.61342
558,15.9404,2.83048,-1.61687
558.6,15.9595,2.81668,-1.61985
559.2,15.9785,2.8127,-1.62311
559.8,15.9977,2.80575,-1.6265
560.4,16.0168,2.78454,-1.62833
561,16.036,2.77029,-1.63142
561.6,16.0549,2.76151,-1.63444
562.2,16.0742,2.74961,-1.63814
562.8,16.0932,2.73498,-1.6426
563.4,16.1124,2.72285,-1.64596
564,16.1315,2.71017,-1.64939
564.6,16.1507,2.70005,-1.65286
565.2,16.1698,2.68465,-1.65703
565.8,16.1889,2.6698,-1.66167
566.4,16.208,2.65494,-1.66502
567,16.2272,2.63974,-1.66857
567.6,16.2461,2.62834,-1.67271
568.2,16.2653,2.61584,-1.67625
568.8,16.2847,2.59928,-1.67985
569.4,16.3037,2.58256,-1.68286
570,16.3229,2.56829,-1.6864
570.6,16.3416,2.55352,-1.69015
571.2,16.3611,2.54328,-1.6932
571.8,16.3801,2.52458,-1.69608
572.4,16.3993,2.50864,-1.69894
573,16.4184,2.48974,-1.70144
573.6,16.4379,2.47273,-1.70493
574.2,16.457,2.44885,-1.70808
574.8,16.476,2.43496,-1.71202
575.4,16.4952,2.41977,-1.71627
576,16.5144,2.40905,-1.71934
576.6,16.5335,2.39351,-1.72274
577.2,16.5526,2.37577,-1.72596
577.8,16.5721,2.3593,-1.72909
578.4,16.5908,2.33392,-1.73228
579,16.6104,2.3288,-1.73501
579.6,16.6292,2.31621,-1.73826
580.2,16.6487,2.29676,-1.74181
580.8,16.6677,2.27705,-1.74541
581.4,16.6867,2.25448,-1.74887
582,16.7063,2.23962,-1.75155
582.6,16.7254,2.22528,-1.75381
583.2,16.7447,2.21118,-1.75607
583.8,16.7636,2.19966,-1.75902
584.4,16.7831,2.17866,-1.7632
585,16.802,2.17304,-1.76598
585.6,16.8214,2.15682,-1.76873
586.2,16.8406,2.13568,-1.77154
586.8,16.86,2.11742,-1.77497
587.4,16.879,2.1064,-1.77932
588,16.8982,2.07772,-1.78287
588.6,16.9175,2.07283,-1.78525
589.2,16.9367,2.05399,-1.78774
589.8,16.9559,2.04209,-1.79112
590.4,16.9752,2.02627,-1.79485
591,16.9946,2.00645,-1.79799
591.6,17.0136,2.00087,-1.80044
592.2,17.0329,1.98203,-1.80239
592.8,17.0523,1.9645,-1.80576
593.4,17.0715,1.94631,-1.80803
594,17.0908,1.9305,-1.81058
594.6,17.1094,1.91796,-1.81329
595.2,17.1294,1.89627,-1.81614
595.8,17.1483,1.88018,-1.819
596.4,17.1678,1.86964,-1.82182
597,17.187,1.85378,-1.82553
597.6,17.2063,1.83985,-1.82912
598.2,17.2257,1.81652,-1.83171
598.8,17.2447,1.80819,-1.83423
599.4,17.264,1.80297,-1.83677
600,17.2834,1.79111,-1.83969
600.6,17.3025,1.77645,-1.84315
601.2,17.3216,1.75598,-1.84537
601.8,17.3409,1.7385,-1.84814
602.4,17.3602,1.72041,-1.85149
603,17.3796,1.71466,-1.85337
603.6,17.3988,1.70419,-1.85611
604.2,17.4182,1.69359,-1.85827
604.8,17.4377,1.68297,-1.86049
605.4,17.4568,1.66328,-1.86267
606,17.4762,1.66183,-1.86529
606.6,17.4957,1.65128,-1.86826
607.2,17.5146,1.63923,-1.87063
607.8,17.5339,1.63205,-1.87342
608.4,17.5537,1.62919,-1.87614
609,17.5726,1.62217,-1.87802
609.6,17.5922,1.61177,-1.87929
610.2,17.6115,1.61055,-1.88109
610.8,17.6307,1.60072,-1.88378
611.4,17.65,1.58867,-1.88686
612,17.6695,1.5873,-1.89033
612.6,17.6888,1.57767,-1.89247
613.2,17.7081,1.57278,-1.89467
613.8,17.7269,1.56451,-1.89661
614.4,17.7462,1.56756,-1.89839
615,17.7654,1.55596,-1.9001
615.6,17.7847,1.54913,-1.90194
616.2,17.8043,1.55181,-1.90418
616.8,17.8234,1.5494,-1.90645
617.4,17.8429,1.54782,-1.90927
618,17.8628,1.54579,-1.91233
618.6,17.8822,1.54423,-1.91421
619.2,17.9013,1.55008,-1.91608
619.8,17.9207,1.55179,-1.91858
620.4,17.9405,1.55852,-1.92061
621,17.9597,1.55258,-1.92299
621.6,17.9791,1.55133,-1.92426
622.2,17.9988,1.55509,-1.92593
622.8,18.0179,1.56903,-1.9284
623.4,18.0373,1.57038,-1.93077
624,18.0567,1.577,-1.93282
624.6,18.0763,1.58878,-1.9348
625.2,18.0955,1.58938,-1.93577
625.8,18.115,1.58565,-1.93847
626.4,18.1341,1.59679,-1.94063
627,18.1533,1.59639,-1.94277
627.6,18.1732,1.59746,-1.94481
628.2,18.1926,1.61463,-1.9464
628.8,18.2122,1.62347,-1.94757
629.4,18.2316,1.62926,-1.94939
630,18.2509,1.6406,-1.95106
630.6,18.2703,1.64746,-1.95325
631.2,18.29,1.65301,-1.95522
631.8,18.3091,1.65134,-1.95718
632.4,18.3289,1.66674,-1.9588
633,18.348,1.67362,-1.96005
633.6,18.3674,1.67671,-1.96096
634.2,18.387,1.67911,-1.96291
634.8,18.4064,1.69023,-1.9648
635.4,18.4258,1.70775,-1.96752
636,18.4454,1.71304,-1.96905
636.6,18.4647,1.71227,-1.97006
637.2,18.4844,1.72233,-1.97141
637.8,18.5036,1.72971,-1.97269
638.4,18.5232,1.73824,-1.97416
639,18.5424,1.74645,-1.97589
639.6,18.5623,1.75754,-1.97752
640.2,18.5817,1.76402,-1.97815
640.8,18.601,1.77537,-1.9793
641.4,18.6206,1.77549,-1.98093
642,18.6401,1.77853,-1.98268
642.6,18.6592,1.78492,-1.98446
643.2,18.6791,1.793,-1.985
643.8,18.6983,1.81223,-1.98672
644.4,18.7177,1.81219,-1.98818
645,18.7373,1.81745,-1.98965
645.6,18.7569,1.8192,-1.98963
646.2,18.7761,1.82355,-1.99018
646.8,18.7957,1.83535,-1.99223
647.4,18.8152,1.84549,-1.99423
648,18.8348,1.85649,-1.99558
648.6,18.854,1.86617,-1.9964
649.2,18.8739,1.86784,-1.99723
649.8,18.8933,1.87361,-1.99897
650.4,18.9129,1.87752,-2.00091
651,18.9321,1.88696,-2.00322
651.6,18.9519,1.90277,-2.00475
652.2,18.9712,1.90049,-2.00567
652.8,18.9908,1.90724,-2.00607
653.4,19.0104,1.91969,-2.00749
654,19.0297,1.92475,-2.00855
654.6,19.0492,1.92871,-2.01041
655.2,19.069,1.93736,-2.01261
655.8,19.0884,1.93685,-2.01495
656.4,19.1078,1.94179,-2.01588
657,19.1277,1.94141,-2.01691
657.6,19.147,1.9528,-2.01779
658.2,19.1665,1.96632,-2.0182
658.8,19.1864,1.96987,-2.01899
659.4,19.2057,1.96787,-2.02043
660,19.2252,1.97546,-2.01985
660.6,19.2445,1.97508,-2.02058
661.2,19.2643,1.97732,-2.02203
661.8,19.284,1.98835,-2.02395
662.4,19.3035,1.99288,-2.02654
663,19.323,2.00815,-2.02748
663.6,19.3422,1.99931,-2.02925
664.2,19.3619,2.01397,-2.03032
664.8,19.3814,2.02135,-2.03073
665.4,19.4011,2.01779,-2.03229
666,19.4205,2.03261,-2.03372
666.6,19.4399,2.03525,-2.03385
667.2,19.4598,2.04008,-2.03693
667.8,19.4789,2.03598,-2.03775
668.4,19.4989,2.04851,-2.03913
669,19.5177,2.05943,-2.03985
669.6,19.5379,2.07648,-2.0406
670.2,19.5574,2.08038,-2.04033
670.8,19.5766,2.07724,-2.04073
671.4,19.5963,2.0874,-2.04089
672,19.6156,2.09931,-2.04073
672.6,19.6353,2.1004,-2.04177
673.2,19.6552,2.10654,-2.04254
673.8,19.674,2.11212,-2.04381
674.4,19.6943,2.11168,-2.04601
675,19.7138,2.12619,-2.04656
675.6,19.7331,2.12347,-2.04666
676.2,19.7527,2.12691,-2.04809
676.8,19.7722,2.13357,-2.05089
677.4,19.7915,2.14089,-2.05167
678,19.8117,2.15637,-2.05261
678.6,19.8306,2.16036,-2.05261
679.2,19.8505,2.1587,-2.05261
679.8,19.87,2.17468,-2.05261
680.4,19.8896,2.17018,-2.05265
681,19.9089,2.17558,-2.0537
681.6,19.9285,2.18418,-2.05604
682.2,19.9481,2.19059,-2.05768
682.8,19.9676,2.1914,-2.05934
683.4,19.9873,2.20149,-2.06071
684,20.0066,2.20867,-2.06247
684.6,20.0263,2.20562,-2.06448
685.2,20.046,2.21182,-2.06555
685.8,20.0656,2.217,-2.06591
686.4,20.0853,2.21955,-2.06725
687,20.1047,2.22786,-2.06764
687.6,20.1242,2.24633,-2.06984
688.2,20.1439,2.24662,-2.07103
688.8,20.1632,2.25185,-2.07171
689.4,20.1827,2.26064,-2.07307
690,20.2023,2.26256,-2.07303
690.6,20.2221,2.26546,-2.07447
691.2,20.2415,2.27281,-2.07444
691.8,20.2614,2.2835,-2.07588
692.4,20.2805,2.28333,-2.07682
693,20.3004,2.29066,-2.07726
693.6,20.3199,2.28725,-2.07753
694.2,20.3396,2.29397,-2.07898
694.8,20.359,2.30817,-2.07825
695.4,20.3786,2.31383,-2.07944
696,20.3982,2.32779,-2.07972
696.6,20.4178,2.33013,-2.08099
697.2,20.4374,2.34201,-2.08093
697.8,20.4571,2.34766,-2.0818
698.4,20.4766,2.35459,-2.08211
699,20.4964,2.36815,-2.08378
699.6,20.5158,2.36143,-2.08505
700.2,20.5354,2.37679,-2.08567
700.8,20.5551,2.38368,-2.087
701.4,20.5748,2.37905,-2.08791
702,20.5942,2.38262,-2.08717
702.6,20.6136,2.39539,-2.08857
703.2,20.6333,2.3977,-2.08856
703.8,20.6528,2.40865,-2.08726
704.4,20.6722,2.40585,-2.08851
705,20.6922,2.41511,-2.0885
705.6,20.7114,2.41892,-2.08956
706.2,20.7312,2.43044,-2.09
706.8,20.7508,2.43277,-2.09117
707.4,20.7704,2.44575,-2.09115
708,20.7901,2.45327,-2.0918
708.6,20.8097,2.44121,-2.09303
709.2,20.8286,2.45245,-2.09315
709.8,20.8484,2.45473,-2.09444
710.4,20.8679,2.45143,-2.09473
711,20.8877,2.44385,-2.09617
711.6,20.9077,2.45014,-2.09721
712.2,20.9271,2.45967,-2.09775
712.8,20.947,2.45321,-2.09938
713.4,20.9665,2.46462,-2.09932
714,20.9862,2.46173,-2.1008
714.6,21.0055,2.46141,-2.10147
715.2,21.0253,2.4685,-2.10219
715.8,21.0448,2.47084,-2.10436
716.4,21.0645,2.46524,-2.10424
717,21.0842,2.47137,-2.10561
717.6,21.1036,2.47187,-2.10553
718.2,21.1233,2.47257,-2.106
718.8,21.1429,2.47744,-2.10706
719.4,21.1626,2.47977,-2.10962
720,21.1825,2.47663,-2.1103
720.6,21.2017,2.47973,-2.1109
721.2,21.2214,2.4728,-2.11151
721.8,21.2413,2.47643,-2.1127
722.4,21.2608,2.46931,-2.11468
723,21.2802,2.47539,-2.11511
723.6,21.3001,2.47372,-2.11598
724.2,21.3195,2.46971,-2.11703
724.8,21.3391,2.46603,-2.118
725.4,21.3589,2.46,-2.11854
726,21.3785,2.4565,-2.11887
726.6,21.3979,2.44855,-2.11879
727.2,21.4178,2.4508,-2.1186
727.8,21.4375,2.45094,-2.1199
728.4,21.457,2.45183,-2.12031
729,21.477,2.45416,-2.12129
729.6,21.4963,2.45459,-2.12332
730.2,21.5156,2.45039,-2.12406
730.8,21.536,2.44257,-2.12564
731.4,21.5555,2.44414,-2.12584
732,21.5751,2.4379,-2.12703
732.6,21.5946,2.43849,-2.12747
733.2,21.6143,2.42727,-2.12749
733.8,21.6338,2.43217,-2.12873
734.4,21.6537,2.43629,-2.12875
735,21.6736,2.42738,-2.13026
735.6,21.6934,2.42418,-2.13116
736.2,21.713,2.4278,-2.1313
736.8,21.7328,2.42675,-2.13204
737.4,21.7521,2.41864,-2.13199
738,21.7718,2.41846,-2.13354
738.6,21.7915,2.41596,-2.13349
739.2,21.8113,2.41478,-2.13373
739.8,21.8309,2.42819,-2.13502
740.4,21.8505,2.41939,-2.13506
741,21.8706,2.41404,-2.13425
741.6,21.8898,2.39837,-2.1352
742.2,21.9097,2.40125,-2.13563
742.8,21.9292,2.39485,-2.13676
743.4,21.9491,2.39757,-2.13616
744,21.9689,2.38976,-2.13688
744.6,21.9887,2.38027,-2.13817
745.2,22.0082,2.38146,-2.13842
745.8,22.0278,2.37851,-2.14001
746.4,22.0476,2.37404,-2.14033
747,22.0673,2.36404,-2.14092
747.6,22.087,2.36333,-2.14229
748.2,22.1066,2.35725,-2.14242
748.8,22.1262,2.35268,-2.14381
749.4,22.1462,2.34734,-2.14463
750,22.1657,2.34276,-2.14532
750.6,22.1855,2.33663,-2.14774
751.2,22.2053,2.33628,-2.14769
751.8,22.2248,2.33261,-2.14934
752.4,22.2445,2.32147,-2.14992
753,22.2644,2.29674,-2.15115
753.6,22.2839,2.29342,-2.15258
754.2,22.3037,2.28395,-2.1542
754.8,22.3237,2.28214,-2.15551
755.4,22.343,2.27119,-2.15451
756,22.363,2.2686,-2.15592
756.6,22.3824,2.2541,-2.15628
757.2,22.4025,2.24805,-2.15733
757.8,22.4221,2.22745,-2.15806
758.4,22.442,2.22435,-2.16029
759,22.4615,2.21634,-2.1616
759.6,22.4813,2.20376,-2.16189
760.2,22.5011,2.19723,-2.16316
760.8,22.5207,2.17768,-2.16462
761.4,22.5403,2.16575,-2.16459
762,22.5604,2.15579,-2.16713
762.6,22.5798,2.14097,-2.16732
763.2,22.5993,2.1306,-2.16724
763.8,22.6195,2.12396,-2.16863
764.4,22.639,2.11343,-2.16866
765,22.6586,2.10802,-2.16904
765.6,22.6782,2.08595,-2.17004
766.2,22.6979,2.08513,-2.16993
766.8,22.7178,2.07497,-2.17005
767.4,22.7377,2.06415,-2.17166
768,22.7569,2.04458,-2.17228
768.6,22.777,2.03705,-2.17351
769.2,22.7967,2.02232,-2.17538
769.8,22.8167,2.00847,-2.17689
770.4,22.8362,1.9977,-2.1784
771,22.8561,1.98375,-2.17936
771.6,22.8754,1.96531,-2.18127
772.2,22.8952,1.95535,-2.18277
772.8,22.915,1.9372,-2.18368
773.4,22.9346,1.92789,-2.18357
774,22.9544,1.91276,-2.18467
774.6,22.9744,1.9034,-2.18465
775.2,22.9938,1.88791,-2.18451
775.8,23.0138,1.86968,-2.18468
776.4,23.0334,1.8608,-2.18469
777,23.0535,1.84686,-2.18479
777.6,23.0731,1.83327,-2.18621
778.2,23.0927,1.81451,-2.18739
778.8,23.1127,1.81238,-2.18815
779.4,23.1323,1.78592,-2.18882
780,23.1519,1.78073,-2.18948
780.6,23.1719,1.76822,-2.18951
781.2,23.1914,1.75648,-2.1908
781.8,23.2111,1.73834,-2.19079
782.4,23.2312,1.72626,-2.19224
783,23.2508,1.71649,-2.19369
783.6,23.2706,1.69634,-2.19398
784.2,23.2903,1.66847,-2.19539
784.8,23.3101,1.6586,-2.19692
785.4,23.3298,1.64919,-2.19812
786,23.3497,1.63391,-2.19854
786.6,23.3695,1.61443,-2.19955
787.2,23.389,1.60176,-2.20019
787.8,23.4088,1.60437,-2.20072
788.4,23.4287,1.57968,-2.20231
789,23.4484,1.56118,-2.20344
789.6,23.4682,1.54211,-2.20385
790.2,23.4877,1.53093,-2.2053
790.8,23.508,1.5274,-2.20636
791.4,23.5274,1.51493,-2.20639
792,23.5474,1.51143,-2.20555
792.6,23.5673,1.50168,-2.20602
793.2,23.5871,1.32364,-2.20601
793.8,23.6066,1.27969,-2.2071
794.4,23.6265,1.24284,-2.20741
795,23.6464,1.21265,-2.20857
795.6,23.6659,1.19432,-2.20876
796.2,23.686,1.16698,-2.2112
796.8,23.7059,1.15983,-2.21206
797.4,23.7256,1.14646,-2.21276
798,23.7455,1.13352,-2.21409
798.6,23.7653,1.12055,-2.21285
799.2,23.7846,1.10568,-2.21289
799.8,23.805,1.10379,-2.21295
800.4,23.8247,1.0722,-2.21332
801,23.8445,1.05332,-2.21291
801.6,23.8644,1.03626,-2.21289
802.2,23.8843,1.02756,-2.2129
802.8,23.9043,1.02332,-2.21307
803.4,23.9239,1.00733,-2.21421
804,23.9438,1.00353,-2.2142
804.6,23.9636,0.998735,-2.21368
805.2,23.9835,1.12357,-2.2143
805.8,24.0031,1.14775,-2.21421
806.4,24.0232,1.14864,-2.2142
807,24.043,1.15703,-2.21494
807.6,24.0629,1.16786,-2.21684
808.2,24.0828,1.16176,-2.21709
808.8,24.1023,1.1631,-2.21839
809.4,24.1223,1.16053,-2.2184
810,24.1423,1.15638,-2.21969
810.6,24.1621,1.14592,-2.22003
811.2,24.1815,1.12671,-2.21989
811.8,24.2016,1.11981,-2.22166
812.4,24.2214,1.11947,-2.22293
813,24.2415,1.11404,-2.22426
813.6,24.2611,1.09651,-2.22538
814.2,24.2811,1.09255,-2.22694
814.8,24.3009,1.07894,-2.22842
815.4,24.3206,1.07272,-2.22976
816,24.3407,1.05205,-2.23078
816.6,24.3604,1.04388,-2.23206
817.2,24.3803,1.04232,-2.23211
817.8,24.4004,1.03126,-2.2321
818.4,24.4205,1.02777,-2.23276
819,24.44,1.02406,-2.23393
819.6,24.4599,1.0137,-2.23406
820.2,24.48,1.00414,-2.23406
820.8,24.4996,0.987434,-2.23334
821.4,24.5195,0.98238,-2.23401
822,24.5397,0.970879,-2.23371
822.6,24.5595,0.96614,-2.23339
823.2,24.5794,0.950269,-2.23397
823.8,24.5986,0.932347,-2.23519
824.4,24.6193,0.930643,-2.23545
825,24.6391,0.927111,-2.23669
825.6,24.6588,0.913323,-2.23682
826.2,24.6787,0.908942,-2.23559
826.8,24.6985,0.910258,-2.23655
827.4,24.7187,0.904239,-2.2368
828,24.7388,0.89617,-2.23678
828.6,24.7586,0.89082,-2.23806
829.2,24.7784,0.888464,-2.23824
829.8,24.7981,0.886069,-2.23825
830.4,24.8177,0.884955,-2.23693
831,24.8383,0.879932,-2.23823
831.6,24.8581,0.878214,-2.23825
832.2,24.8781,0.875964,-2.23828
832.8,24.8978,0.870124,-2.23767
833.4,24.9181,0.869377,-2.23816
834,24.9381,0.867785,-2.23895
834.6,24.9579,0.863165,-2.24038
835.2,24.9777,0.856716,-2.24074
835.8,24.9977,0.852944,-2.24208
836.4,25.0177,0.851989,-2.24254
837,25.0377,0.852216,-2.2433
837.6,25.0576,0.84944,-2.24327
838.2,25.0776,0.846735,-2.24365
838.8,25.0978,0.842103,-2.24363
839.4,25.1175,0.839767,-2.24366
840,25.1374,0.84096,-2.24436