File: 01_Data/High_Temp_Nylon_SCBA_Nosecup/STA/N2/10K_min/High_Temp_Nylon_SCBA_Nosecup_STA_N2_10KData_251013_R3.csv
Temp./C,Time/min,DSC/(mW/mg),Mass loss/mg
50.0,0.0,0.785119,-0.00885975
50.5,0.074098,0.802935,-0.00861758
51,0.136346,0.819702,-0.00740616
51.5,0.202632,0.829089,-0.00746767
52,0.267864,0.839214,-0.00745482
52.5,0.331065,0.849228,-0.00710576
53,0.396237,0.866454,-0.00722946
53.5,0.458308,0.87112,-0.00724273
54,0.522286,0.878219,-0.00641273
54.5,0.584125,0.885978,-0.00730255
55,0.646403,0.897517,-0.00735272
55.5,0.707938,0.907658,-0.00666224
56,0.769061,0.912172,-0.00736826
56.5,0.830031,0.923188,-0.00710705
57,0.889684,0.933743,-0.00711662
57.5,0.949333,0.937437,-0.0070208
58,1.00692,0.943359,-0.00702983
58.5,1.06913,0.948984,-0.00712063
59,1.12778,0.958847,-0.00713034
59.5,1.18598,0.964457,-0.00713073
60,1.24461,0.977776,-0.00713984
60.5,1.30152,0.979497,-0.00763569
61,1.35869,0.993207,-0.00713578
61.5,1.41579,0.99902,-0.00859716
62,1.47466,1.00487,-0.00712919
62.5,1.53083,1.00542,-0.00712996
63,1.58691,1.01744,-0.00713312
63.5,1.64476,1.02725,-0.00712989
64,1.69947,1.0332,-0.0072526
64.5,1.75639,1.03998,-0.00848627
65,1.81154,1.04127,-0.00775154
65.5,1.86619,1.04709,-0.00716498
66,1.92312,1.04284,-0.00712988
66.5,1.97762,1.05375,-0.00844989
67,2.03241,1.0572,-0.00843966
67.5,2.08596,1.07237,-0.00744418
68,2.14003,1.07551,-0.00844999
68.5,2.19346,1.07679,-0.00844317
69,2.24804,1.07519,-0.00719359
69.5,2.30333,1.08127,-0.0071222
70,2.35447,1.08887,-0.00846928
70.5,2.40892,1.09908,-0.00712724
71,2.46247,1.09461,-0.00713159
71.5,2.51592,1.09427,-0.00708752
72,2.56884,1.09404,-0.00703369
72.5,2.62167,1.10236,-0.0071708
73,2.67566,1.10741,-0.00844996
73.5,2.72712,1.1079,-0.00981435
74,2.77957,1.11347,-0.00845519
74.5,2.8332,1.11404,-0.00844916
75,2.88521,1.11995,-0.00707586
75.5,2.93786,1.1188,-0.0084502
76,2.98932,1.12072,-0.00710505
76.5,3.03934,1.12581,-0.00710602
77,3.09175,1.13718,-0.00847065
77.5,3.14514,1.14375,-0.00713419
78,3.19575,1.1476,-0.00845017
78.5,3.24636,1.14887,-0.00845158
79,3.29831,1.15207,-0.00713438
79.5,3.35137,1.15262,-0.0084408
80,3.40193,1.16153,-0.00977717
80.5,3.45184,1.16456,-0.00844678
81,3.50498,1.16685,-0.00845045
81.5,3.55211,1.16936,-0.00933632
82,3.60707,1.18373,-0.00845018
82.5,3.6589,1.19017,-0.00713118
83,3.70957,1.20428,-0.00742182
83.5,3.75917,1.19952,-0.00844
84,3.811,1.20308,-0.00826594
84.5,3.8616,1.20978,-0.00844287
85,3.91094,1.2131,-0.00843246
85.5,3.96186,1.22637,-0.00977064
86,4.01294,1.22457,-0.0110896
86.5,4.06306,1.23528,-0.00976643
87,4.11314,1.23664,-0.00844916
87.5,4.16377,1.24183,-0.00844974
88,4.21343,1.25031,-0.00845034
88.5,4.26393,1.25496,-0.00844993
89,4.31171,1.26026,-0.00845
89.5,4.36244,1.26414,-0.00845071
90,4.41438,1.26696,-0.00971877
90.5,4.46294,1.26571,-0.00853909
91,4.51403,1.27501,-0.00977
91.5,4.56317,1.28253,-0.0087274
92,4.61248,1.28871,-0.00975969
92.5,4.66182,1.29375,-0.00845035
93,4.71141,1.30363,-0.00910637
93.5,4.76047,1.30138,-0.00845082
94,4.81477,1.30363,-0.00845
94.5,4.85943,1.31572,-0.00845124
95,4.90829,1.31225,-0.00977003
95.5,4.9583,1.31483,-0.00977018
96,5.0075,1.31618,-0.00845043
96.5,5.05309,1.31754,-0.00844572
97,5.1025,1.3208,-0.00845
97.5,5.1544,1.32189,-0.00845004
98,5.20353,1.33459,-0.0094142
98.5,5.25166,1.3406,-0.00812
99,5.30091,1.33544,-0.00844851
99.5,5.34965,1.3331,-0.0080935
100,5.39819,1.32439,-0.00845
100.5,5.44847,1.33443,-0.00885147
101,5.49552,1.33285,-0.00844999
101.5,5.54448,1.32674,-0.00845067
102,5.59368,1.32539,-0.00975671
102.5,5.64207,1.33264,-0.00844998
103,5.69131,1.33429,-0.00965881
103.5,5.73953,1.33491,-0.0086673
104,5.78748,1.32901,-0.00845
104.5,5.83541,1.32564,-0.00960807
105,5.88407,1.32726,-0.0089996
105.5,5.93302,1.32283,-0.00896996
106,5.98077,1.32748,-0.00811988
106.5,6.02905,1.32548,-0.00812
107,6.07794,1.32746,-0.00812
107.5,6.12632,1.33205,-0.00812002
108,6.17586,1.32739,-0.00844991
108.5,6.22284,1.33316,-0.0097622
109,6.27132,1.33787,-0.0084427
109.5,6.31898,1.339,-0.00975998
110,6.36698,1.33721,-0.00845719
110.5,6.41568,1.33805,-0.00935541
111,6.46519,1.33902,-0.00976998
111.5,6.51329,1.33793,-0.00845097
112,6.56066,1.33479,-0.00845
112.5,6.6083,1.34368,-0.00844966
113,6.65749,1.3474,-0.00976896
113.5,6.706,1.33841,-0.00977161
114,6.75322,1.34336,-0.00844993
114.5,6.80187,1.33994,-0.00975553
115,6.8498,1.34826,-0.00975781
115.5,6.89874,1.35335,-0.00976003
116,6.9478,1.36163,-0.00976
116.5,6.99449,1.35236,-0.00977263
117,7.04263,1.35413,-0.0110886
117.5,7.09099,1.3587,-0.00977
118,7.13913,1.36209,-0.00976998
118.5,7.18768,1.3596,-0.00877731
119,7.23546,1.36644,-0.010103
119.5,7.28208,1.36236,-0.0101
120,7.33239,1.36598,-0.00977203
120.5,7.37838,1.37555,-0.00973505
121,7.42825,1.37779,-0.00975999
121.5,7.4756,1.37676,-0.00976
122,7.52405,1.38164,-0.00976006
122.5,7.57104,1.38635,-0.0084604
123,7.61917,1.38612,-0.00960814
123.5,7.66765,1.39559,-0.00977
124,7.71632,1.39948,-0.00977
124.5,7.76382,1.39546,-0.00980259
125,7.81134,1.40109,-0.00976996
125.5,7.85921,1.40064,-0.00977
126,7.90794,1.4023,-0.00977
126.5,7.95484,1.40146,-0.00877987
127,8.00335,1.40439,-0.00943722
127.5,8.05159,1.40804,-0.00976623
128,8.09936,1.41842,-0.00977
128.5,8.14702,1.42033,-0.0097678
129,8.19528,1.42154,-0.00975334
129.5,8.2421,1.41995,-0.00976001
130,8.28989,1.41847,-0.01108
130.5,8.33848,1.42032,-0.01108
131,8.38608,1.42558,-0.01108
131.5,8.43386,1.43137,-0.00974109
132,8.48126,1.43317,-0.00977
132.5,8.52905,1.43045,-0.0097688
133,8.57722,1.43503,-0.0110897
133.5,8.62413,1.4402,-0.01109
134,8.67153,1.43881,-0.01109
134.5,8.71934,1.44345,-0.0124131
135,8.76664,1.44656,-0.0122189
135.5,8.81406,1.44895,-0.01109
136,8.86088,1.45187,-0.01109
136.5,8.91035,1.45285,-0.0110862
137,8.95745,1.45775,-0.0110698
137.5,9.00495,1.46113,-0.01108
138,9.05343,1.46428,-0.01108
138.5,9.10106,1.46833,-0.0123955
139,9.14504,1.4711,-0.0123871
139.5,9.19578,1.47466,-0.01108
140,9.24331,1.48005,-0.01108
140.5,9.29082,1.47619,-0.0110804
141,9.33803,1.49,-0.00976999
141.5,9.38538,1.4806,-0.00977001
142,9.43143,1.48183,-0.00908725
142.5,9.47777,1.48508,-0.0104284
143,9.52844,1.4915,-0.01043
143.5,9.57557,1.49206,-0.01043
144,9.62324,1.4992,-0.0104294
144.5,9.67064,1.49216,-0.00976273
145,9.71844,1.49189,-0.00940963
145.5,9.76506,1.49457,-0.00977045
146,9.81396,1.49815,-0.0107503
146.5,9.85997,1.49686,-0.01075
147,9.90765,1.49665,-0.01075
147.5,9.95506,1.50219,-0.0111247
148,10.0012,1.50934,-0.01168
148.5,10.049,1.51261,-0.0113365
149,10.0964,1.51687,-0.00984473
149.5,10.1441,1.51429,-0.00976001
150,10.1891,1.51528,-0.00865817
150.5,10.2392,1.51987,-0.00977
151,10.2881,1.52151,-0.00977933
151.5,10.3338,1.52456,-0.0111506
152,10.3816,1.51855,-0.0119514
152.5,10.4287,1.53031,-0.01207
153,10.4764,1.53153,-0.0127702
153.5,10.5215,1.53351,-0.0120693
154,10.5702,1.53506,-0.01207
154.5,10.6176,1.53498,-0.01207
155,10.6648,1.538,-0.01207
155.5,10.7117,1.53339,-0.0112288
156,10.7595,1.53551,-0.0107128
156.5,10.8073,1.54425,-0.0120702
157,10.8533,1.54268,-0.0107492
157.5,10.9015,1.5381,-0.0116533
158,10.9479,1.54519,-0.01174
158.5,10.9949,1.54349,-0.01174
159,11.042,1.55259,-0.0120779
159.5,11.0899,1.54969,-0.01207
160,11.1378,1.55244,-0.0123968
160.5,11.185,1.54886,-0.0131075
161,11.2321,1.56199,-0.0120691
161.5,11.2794,1.56087,-0.01207
162,11.3253,1.5689,-0.0133785
162.5,11.374,1.56929,-0.01338
163,11.4199,1.57266,-0.0120691
163.5,11.4657,1.5683,-0.01081
164,11.5147,1.57153,-0.0107285
164.5,11.562,1.57195,-0.01207
165,11.6086,1.57663,-0.0120706
165.5,11.6574,1.5726,-0.0127283
166,11.7039,1.57719,-0.0127311
166.5,11.752,1.58459,-0.0124
167,11.7986,1.58288,-0.0124102
167.5,11.8454,1.58099,-0.01207
168,11.8928,1.57521,-0.0110862
168.5,11.9407,1.58965,-0.0117392
169,11.9883,1.59339,-0.0123836
169.5,12.0352,1.58878,-0.0124
170,12.0823,1.59525,-0.0120693
170.5,12.129,1.59774,-0.0133892
171,12.1742,1.59601,-0.0133869
171.5,12.2246,1.59805,-0.0120801
172,12.2709,1.59684,-0.0110897
172.5,12.3176,1.5934,-0.01109
173,12.3624,1.5975,-0.0114537
173.5,12.4123,1.59618,-0.01241
174,12.4582,1.59506,-0.01241
174.5,12.5065,1.60333,-0.0110978
175,12.5536,1.59747,-0.0124001
175.5,12.6016,1.60733,-0.0123999
176,12.6487,1.61071,-0.0127339
176.5,12.6951,1.60415,-0.0127301
177,12.7425,1.61122,-0.0124001
177.5,12.7906,1.60479,-0.0123987
178,12.8379,1.60584,-0.01207
178.5,12.8848,1.60694,-0.0120699
179,12.932,1.60319,-0.0127296
179.5,12.9794,1.60242,-0.0127299
180,13.0263,1.59701,-0.0140519
180.5,13.0734,1.60794,-0.01405
181,13.1208,1.61311,-0.01405
181.5,13.1681,1.62192,-0.01306
182,13.2127,1.62629,-0.01306
182.5,13.261,1.62359,-0.01306
183,13.3078,1.62433,-0.0137253
183.5,13.3564,1.62826,-0.0140474
184,13.4035,1.62885,-0.0130017
184.5,13.4507,1.6238,-0.0140402
185,13.4973,1.62632,-0.01404
185.5,13.5452,1.62912,-0.01404
186,13.5917,1.62431,-0.01404
186.5,13.6398,1.62633,-0.01404
187,13.6862,1.63231,-0.01404
187.5,13.7325,1.63847,-0.013075
188,13.7802,1.63838,-0.01306
188.5,13.8271,1.64046,-0.0131424
189,13.874,1.63684,-0.0140051
189.5,13.9207,1.6389,-0.01438
190,13.9682,1.63846,-0.0146946
190.5,14.0151,1.63679,-0.0153698
191,14.0618,1.63792,-0.01537
191.5,14.109,1.64275,-0.0140642
192,14.156,1.64707,-0.01405
192.5,14.2033,1.64676,-0.01405
193,14.2508,1.64315,-0.0140411
193.5,14.2975,1.65323,-0.0132149
194,14.345,1.65428,-0.01405
194.5,14.3918,1.65568,-0.01405
195,14.4402,1.65949,-0.01405
195.5,14.4858,1.66095,-0.01405
196,14.5329,1.66229,-0.01405
196.5,14.5795,1.66883,-0.01405
197,14.6271,1.67372,-0.01405
197.5,14.6738,1.67388,-0.01405
198,14.7213,1.6763,-0.01405
198.5,14.768,1.67635,-0.0127231
199,14.8154,1.68089,-0.01273
199.5,14.8617,1.68791,-0.014084
200,14.9095,1.69292,-0.01404
200.5,14.9557,1.69045,-0.0140399
201,15.0022,1.6912,-0.0137138
201.5,15.051,1.69959,-0.0150398
202,15.0978,1.69436,-0.0140505
202.5,15.145,1.69833,-0.01405
203,15.1914,1.69736,-0.01405
203.5,15.2389,1.70336,-0.01405
204,15.2861,1.70708,-0.0150266
204.5,15.3331,1.71122,-0.01504
205,15.3798,1.70465,-0.0151444
205.5,15.4273,1.71381,-0.0150404
206,15.475,1.71217,-0.01504
206.5,15.5215,1.71337,-0.01504
207,15.5689,1.71789,-0.0150496
207.5,15.615,1.71549,-0.0137201
208,15.6627,1.71669,-0.01372
208.5,15.7083,1.72323,-0.0137203
209,15.7563,1.71882,-0.0124006
209.5,15.8023,1.72507,-0.0126455
210,15.8486,1.7252,-0.0137215
210.5,15.8944,1.72842,-0.0150394
211,15.9435,1.73373,-0.0143037
211.5,15.9914,1.73094,-0.01372
212,16.0373,1.72613,-0.01372
212.5,16.0852,1.72918,-0.01372
213,16.1322,1.73708,-0.01372
213.5,16.179,1.74341,-0.0137202
214,16.2259,1.74053,-0.01503
214.5,16.2731,1.73983,-0.01503
215,16.3201,1.74606,-0.01503
215.5,16.3669,1.75154,-0.0150285
216,16.4138,1.74508,-0.0137206
216.5,16.4615,1.75205,-0.01372
217,16.5079,1.75267,-0.0137048
217.5,16.5556,1.76059,-0.01471
218,16.6,1.7559,-0.01471
218.5,16.6498,1.75237,-0.01471
219,16.6959,1.75757,-0.01471
219.5,16.7436,1.76397,-0.01471
220,16.7907,1.77005,-0.013362
220.5,16.8376,1.76889,-0.0137119
221,16.8851,1.77169,-0.01372
221.5,16.9319,1.77381,-0.0151286
222,16.979,1.77182,-0.0150401
222.5,17.0271,1.78233,-0.0143829
223,17.0738,1.77628,-0.0143932
223.5,17.1205,1.78095,-0.01372
224,17.1688,1.77919,-0.0142403
224.5,17.2161,1.78842,-0.01471
225,17.2627,1.78051,-0.01471
225.5,17.3102,1.79504,-0.01471
226,17.3576,1.80303,-0.014717
226.5,17.403,1.80414,-0.0137101
227,17.452,1.79747,-0.0137084
227.5,17.499,1.80688,-0.0163491
228,17.5471,1.81419,-0.01635
228.5,17.5923,1.81849,-0.0163423
229,17.6413,1.81521,-0.0163525
229.5,17.6893,1.82574,-0.01635
230,17.7353,1.83032,-0.01635
230.5,17.7819,1.84421,-0.01635
231,17.83,1.83633,-0.0150477
231.5,17.877,1.83198,-0.01504
232,17.9235,1.83636,-0.01504
232.5,17.972,1.84563,-0.01504
233,18.0191,1.84451,-0.0164305
233.5,18.0662,1.84985,-0.01635
234,18.1128,1.85087,-0.0163502
234.5,18.1608,1.8593,-0.0150397
235,18.2079,1.86467,-0.0150387
235.5,18.2546,1.85972,-0.0163603
236,18.3024,1.8714,-0.01636
236.5,18.3488,1.86848,-0.0166822
237,18.3966,1.8799,-0.0168431
237.5,18.4438,1.88076,-0.018
238,18.4902,1.88097,-0.018
238.5,18.5378,1.89213,-0.018
239,18.5848,1.89102,-0.018
239.5,18.6313,1.90161,-0.0180003
240,18.6794,1.91093,-0.0166748
240.5,18.7259,1.91699,-0.01668
241,18.7728,1.92896,-0.01668
241.5,18.821,1.94303,-0.01668
242,18.869,1.95033,-0.01668
242.5,18.9161,1.9664,-0.01668
243,18.9628,1.985,-0.0179951
243.5,19.0111,1.99589,-0.0179995
244,19.0578,2.01457,-0.01668
244.5,19.1052,2.03948,-0.01668
245,19.1535,2.06026,-0.0166797
245.5,19.2006,2.08223,-0.0160197
246,19.2478,2.11692,-0.01602
246.5,19.2956,2.15055,-0.01602
247,19.3429,2.18439,-0.0164886
247.5,19.3899,2.22387,-0.01734
248,19.437,2.27403,-0.0168924
248.5,19.486,2.32355,-0.01602
249,19.5348,2.40207,-0.0173527
249.5,19.5833,2.47914,-0.01734
250,19.6308,2.56705,-0.0173607
250.5,19.6795,2.6728,-0.01668
251,19.7284,2.78241,-0.0166802
251.5,19.776,2.87916,-0.0153711
252,19.8257,2.97939,-0.015522
252.5,19.8729,3.07304,-0.0180001
253,19.9214,3.15713,-0.018
253.5,19.9704,3.24598,-0.018
254,20.0179,3.3211,-0.018
254.5,20.0666,3.40103,-0.018
255,20.1144,3.45771,-0.0166586
255.5,20.1626,3.536,-0.01669
256,20.2105,3.60703,-0.01669
256.5,20.2593,3.68615,-0.01669
257,20.3074,3.76752,-0.0177739
257.5,20.3555,3.8441,-0.018
258,20.402,3.91596,-0.018
258.5,20.4522,3.96889,-0.018
259,20.5012,4.04739,-0.0170925
259.5,20.5478,4.07353,-0.01668
260,20.5952,4.09009,-0.01668
260.5,20.643,4.05549,-0.0170206
261,20.6886,3.94857,-0.018
261.5,20.7344,3.75957,-0.018
262,20.7788,3.47359,-0.017612
262.5,20.823,3.15263,-0.01701
263,20.8662,2.8347,-0.01701
263.5,20.9101,2.58408,-0.0181891
264,20.9556,2.38063,-0.01833
264.5,21.0009,2.22825,-0.01833
265,21.0464,2.11497,-0.01833
265.5,21.0926,2.0342,-0.0189896
266,21.1389,1.96968,-0.0190072
266.5,21.1859,1.92023,-0.0186495
267,21.2319,1.8967,-0.01932
267.5,21.2793,1.86259,-0.01932
268,21.3263,1.85142,-0.0193137
268.5,21.3731,1.83391,-0.018
269,21.4201,1.82488,-0.018
269.5,21.4668,1.83194,-0.018
270,21.5115,1.82177,-0.018
270.5,21.5607,1.82588,-0.018
271,21.6079,1.81589,-0.018
271.5,21.6545,1.81017,-0.0179875
272,21.7028,1.81905,-0.0193208
272.5,21.7495,1.82186,-0.0179998
273,21.7948,1.82043,-0.0191329
273.5,21.8442,1.82733,-0.019317
274,21.8905,1.82467,-0.0179997
274.5,21.9379,1.82175,-0.018
275,21.9829,1.8207,-0.018
275.5,22.0322,1.82161,-0.018
276,22.08,1.81932,-0.018
276.5,22.127,1.81004,-0.018
277,22.1742,1.81414,-0.0179998
277.5,22.2212,1.80835,-0.0166779
278,22.2685,1.80886,-0.0166806
278.5,22.3156,1.80386,-0.018001
279,22.3625,1.81457,-0.0189903
279.5,22.4109,1.80769,-0.0202998
280,22.4577,1.81328,-0.0203
280.5,22.5057,1.81769,-0.0203
281,22.5527,1.82292,-0.0203
281.5,22.5997,1.82292,-0.0194976
282,22.6475,1.82206,-0.01898
282.5,22.693,1.82378,-0.0189799
283,22.7437,1.81968,-0.0203001
283.5,22.7903,1.82033,-0.0202994
284,22.8371,1.81495,-0.0196402
284.5,22.8843,1.81717,-0.0196408
285,22.9313,1.8136,-0.0209635
285.5,22.9796,1.80823,-0.0203
286,23.026,1.81739,-0.0203
286.5,23.0737,1.81866,-0.0203
287,23.1218,1.81774,-0.0203011
287.5,23.1692,1.82314,-0.021293
288,23.2167,1.82532,-0.0207746
288.5,23.2619,1.82422,-0.0203
289,23.311,1.82089,-0.0203
289.5,23.3573,1.82023,-0.0203
290,23.4073,1.82561,-0.0203
290.5,23.455,1.81793,-0.0203
291,23.5008,1.81716,-0.0211048
291.5,23.5495,1.81865,-0.0215648
292,23.5971,1.80551,-0.0203101
292.5,23.6444,1.80925,-0.01899
293,23.6902,1.81945,-0.0198168
293.5,23.7396,1.81842,-0.0203
294,23.787,1.8192,-0.0209201
294.5,23.8333,1.81649,-0.02096
295,23.8823,1.81898,-0.0222767
295.5,23.9305,1.8096,-0.02228
296,23.9769,1.81902,-0.0222799
296.5,24.0248,1.81554,-0.0209665
297,24.0723,1.81954,-0.020964
297.5,24.1208,1.82886,-0.02228
298,24.1667,1.83347,-0.0223218
298.5,24.2156,1.83743,-0.02096
299,24.2633,1.83642,-0.02096
299.5,24.3105,1.82491,-0.0210111
300,24.3575,1.81821,-0.01998
300.5,24.4058,1.81178,-0.01998
301,24.4537,1.81943,-0.0199823
301.5,24.5009,1.81886,-0.0212903
302,24.5483,1.8164,-0.0212803
302.5,24.5965,1.8168,-0.02261
303,24.6443,1.81919,-0.0226106
303.5,24.6919,1.82212,-0.0233536
304,24.7394,1.81925,-0.02393
304.5,24.788,1.82922,-0.02393
305,24.8347,1.82245,-0.0233781
305.5,24.8828,1.82331,-0.02261
306,24.9302,1.83267,-0.02261
306.5,24.9786,1.83543,-0.02261
307,25.0244,1.8283,-0.02261
307.5,25.0738,1.84053,-0.02261
308,25.1217,1.83615,-0.02261
308.5,25.1695,1.8343,-0.02261
309,25.2161,1.83057,-0.02261
309.5,25.264,1.83191,-0.0226102
310,25.3125,1.82539,-0.0232327
310.5,25.3598,1.83074,-0.02393
311,25.4075,1.828,-0.02393
311.5,25.4548,1.83782,-0.0242586
312,25.504,1.83351,-0.02459
312.5,25.5511,1.83643,-0.02459
313,25.5978,1.83623,-0.02459
313.5,25.6464,1.8355,-0.0246768
314,25.6942,1.83517,-0.02656
314.5,25.7423,1.82638,-0.0265718
315,25.79,1.83597,-0.02525
315.5,25.8383,1.83959,-0.0252588
316,25.8852,1.8389,-0.025911
316.5,25.9332,1.84177,-0.0259
317,25.9808,1.84276,-0.0259
317.5,26.0285,1.83171,-0.0258996
318,26.0767,1.84034,-0.02656
318.5,26.1236,1.83728,-0.02656
319,26.1723,1.8447,-0.02656
319.5,26.2204,1.84236,-0.02656
320,26.2679,1.84568,-0.02656
320.5,26.3158,1.84468,-0.0269418
321,26.3624,1.84096,-0.0259092
321.5,26.411,1.85292,-0.02591
322,26.4597,1.85153,-0.02591
322.5,26.5071,1.85346,-0.0259102
323,26.5546,1.86016,-0.0268892
323.5,26.6019,1.85713,-0.0281799
324,26.6496,1.86736,-0.0285722
324.5,26.6976,1.86482,-0.02986
325,26.7452,1.87253,-0.02986
325.5,26.7929,1.86778,-0.02986
326,26.8411,1.86587,-0.02986
326.5,26.8889,1.86676,-0.02986
327,26.9374,1.86824,-0.02986
327.5,26.9823,1.87249,-0.0298602
328,27.0316,1.88612,-0.0308402
328.5,27.079,1.87582,-0.03084
329,27.1272,1.87726,-0.03084
329.5,27.1745,1.87845,-0.03084
330,27.2232,1.88533,-0.03084
330.5,27.272,1.88465,-0.03084
331,27.3195,1.88302,-0.0308466
331.5,27.3663,1.88869,-0.0324823
332,27.4144,1.89052,-0.0324957
332.5,27.4615,1.89185,-0.03315
333,27.5102,1.89137,-0.0331537
333.5,27.5586,1.89742,-0.03381
334,27.6058,1.90313,-0.0331557
334.5,27.6548,1.90448,-0.03315
335,27.7012,1.91713,-0.03315
335.5,27.75,1.92167,-0.0331312
336,27.7976,1.92488,-0.03447
336.5,27.8449,1.92869,-0.03447
337,27.8938,1.93933,-0.03447
337.5,27.9415,1.94786,-0.03447
338,27.9875,1.94595,-0.03447
338.5,28.0366,1.94951,-0.0357905
339,28.0846,1.96188,-0.03579
339.5,28.1333,1.96319,-0.0357901
340,28.1788,1.97626,-0.0364502
340.5,28.2285,1.98525,-0.0364496
341,28.2764,1.9857,-0.0371001
341.5,28.325,1.99993,-0.0384257
342,28.3712,2.00578,-0.03842
342.5,28.4208,2.01105,-0.0387429
343,28.4684,2.01888,-0.0393984
343.5,28.5172,2.02522,-0.0410709
344,28.5646,2.03249,-0.04106
344.5,28.6131,2.04238,-0.0423825
345,28.6612,2.04427,-0.04238
345.5,28.7091,2.05361,-0.0423799
346,28.7575,2.05249,-0.0436881
346.5,28.8052,2.06184,-0.04369
347,28.852,2.06425,-0.043687
347.5,28.9012,2.07481,-0.0450101
348,28.9496,2.08479,-0.04501
348.5,28.9981,2.09298,-0.0450099
349,29.0455,2.10286,-0.0463288
349.5,29.0935,2.10979,-0.0476504
350,29.1415,2.1079,-0.0489792
350.5,29.1903,2.11678,-0.0489592
351,29.2374,2.1209,-0.0476517
351.5,29.2871,2.12795,-0.0489597
352,29.3346,2.12779,-0.0502813
352.5,29.3823,2.12274,-0.0502419
353,29.4308,2.12611,-0.0516
353.5,29.4787,2.132,-0.0516001
354,29.5273,2.13873,-0.0540075
354.5,29.5758,2.13711,-0.0542306
355,29.6236,2.13418,-0.0555394
355.5,29.6723,2.14457,-0.0558059
356,29.7198,2.15529,-0.0568603
356.5,29.768,2.15279,-0.0581799
357,29.8171,2.15245,-0.0594216
357.5,29.8653,2.15889,-0.0596322
358,29.9125,2.16585,-0.06081
358.5,29.961,2.1741,-0.06081
359,30.0098,2.17657,-0.0622044
359.5,30.0582,2.17961,-0.0621358
360,30.1061,2.18866,-0.0647549
360.5,30.1549,2.19439,-0.0649688
361,30.2025,2.19945,-0.0662864
361.5,30.2511,2.21316,-0.0678933
362,30.2993,2.22383,-0.0679243
362.5,30.3478,2.23944,-0.0692722
363,30.3944,2.23505,-0.0719397
363.5,30.4449,2.24552,-0.0732388
364,30.4928,2.26046,-0.074536
364.5,30.5412,2.27153,-0.0763353
365,30.5897,2.28816,-0.0785445
365.5,30.6372,2.30237,-0.0792754
366,30.6875,2.31511,-0.0814479
366.5,30.7347,2.32865,-0.082757
367,30.784,2.33861,-0.0828214
367.5,30.8315,2.36184,-0.0842724
368,30.8807,2.37926,-0.0870438
368.5,30.9296,2.39653,-0.0884805
369,30.9768,2.40784,-0.0897987
369.5,31.0257,2.43292,-0.0917093
370,31.0743,2.45905,-0.0941768
370.5,31.1227,2.47281,-0.0946184
371,31.1708,2.49571,-0.096913
371.5,31.2197,2.51761,-0.0991765
372,31.2682,2.54215,-0.102742
372.5,31.317,2.56468,-0.105214
373,31.3653,2.57594,-0.108334
373.5,31.4145,2.60503,-0.111721
374,31.4613,2.6283,-0.114759
374.5,31.5105,2.65058,-0.11643
375,31.559,2.67688,-0.11966
375.5,31.6086,2.6942,-0.1229
376,31.6569,2.71414,-0.125553
376.5,31.7056,2.75196,-0.128041
377,31.7541,2.76558,-0.130731
377.5,31.8026,2.80156,-0.134049
378,31.8511,2.82249,-0.137662
378.5,31.9007,2.85331,-0.14131
379,31.9485,2.87615,-0.144811
379.5,31.9975,2.90599,-0.148612
380,32.046,2.9318,-0.153803
380.5,32.0944,2.9684,-0.157646
381,32.143,2.99122,-0.160492
381.5,32.1912,3.02232,-0.164694
382,32.2411,3.0496,-0.169819
382.5,32.2896,3.07588,-0.175745
383,32.3381,3.11077,-0.179607
383.5,32.3869,3.14557,-0.185123
384,32.4359,3.18183,-0.188946
384.5,32.4842,3.21354,-0.19409
385,32.5332,3.2386,-0.19983
385.5,32.582,3.27974,-0.206324
386,32.6298,3.29763,-0.212258
386.5,32.6787,3.33852,-0.216889
387,32.7279,3.36845,-0.222507
387.5,32.7775,3.40006,-0.229003
388,32.8264,3.44133,-0.233749
388.5,32.8742,3.48242,-0.239861
389,32.9236,3.50923,-0.24728
389.5,32.9732,3.54031,-0.254498
390,33.0215,3.57409,-0.261452
390.5,33.0702,3.61509,-0.268841
391,33.1184,3.6305,-0.276111
391.5,33.1676,3.67609,-0.28371
392,33.2167,3.71315,-0.290928
392.5,33.2663,3.74271,-0.299105
393,33.3142,3.77698,-0.306599
393.5,33.3636,3.81304,-0.315224
394,33.4118,3.8385,-0.326149
394.5,33.4611,3.87511,-0.333471
395,33.5098,3.90413,-0.341519
395.5,33.5586,3.93862,-0.351403
396,33.6078,3.96954,-0.361383
396.5,33.6563,4.00496,-0.369947
397,33.7058,4.02972,-0.377664
397.5,33.7539,4.06786,-0.387437
398,33.8037,4.08987,-0.397575
398.5,33.8519,4.124,-0.408618
399,33.9009,4.14636,-0.41905
399.5,33.9488,4.1745,-0.430134
400,33.9972,4.20312,-0.440764
400.5,34.0465,4.23391,-0.452068
401,34.0949,4.24952,-0.463023
401.5,34.1444,4.27408,-0.473387
402,34.1929,4.29826,-0.485871
402.5,34.2413,4.3143,-0.497964
403,34.2908,4.33899,-0.510164
403.5,34.3393,4.3542,-0.52161
404,34.3885,4.37163,-0.532215
404.5,34.4369,4.38346,-0.545405
405,34.4864,4.39461,-0.55811
405.5,34.5347,4.41329,-0.570597
406,34.5808,4.41636,-0.583136
406.5,34.6324,4.42982,-0.596612
407,34.6796,4.42957,-0.6077
407.5,34.7285,4.43431,-0.621378
408,34.7772,4.44387,-0.634552
408.5,34.8258,4.44256,-0.648271
409,34.8747,4.45674,-0.662483
409.5,34.9237,4.45418,-0.676771
410,34.9718,4.45532,-0.689695
410.5,35.0204,4.46787,-0.703645
411,35.0692,4.45901,-0.716695
411.5,35.1175,4.45571,-0.730257
412,35.1661,4.45759,-0.743074
412.5,35.2147,4.45709,-0.755498
413,35.263,4.4579,-0.770142
413.5,35.3111,4.44552,-0.784314
414,35.3602,4.44637,-0.798967
414.5,35.4077,4.4344,-0.81198
415,35.4565,4.43104,-0.826222
415.5,35.5054,4.42698,-0.840922
416,35.5538,4.4138,-0.856047
416.5,35.6025,4.40828,-0.870733
417,35.6509,4.39813,-0.885999
417.5,35.6996,4.39749,-0.900605
418,35.7485,4.38446,-0.915593
418.5,35.7971,4.36536,-0.931329
419,35.8443,4.35987,-0.943992
419.5,35.8933,4.34518,-0.959139
420,35.9421,4.32221,-0.974533
420.5,35.9906,4.30556,-0.989372
421,36.0384,4.29184,-1.00693
421.5,36.0866,4.27508,-1.02618
422,36.1349,4.25785,-1.04027
422.5,36.1836,4.2343,-1.05398
423,36.233,4.21503,-1.06976
423.5,36.2807,4.1968,-1.08488
424,36.3295,4.17078,-1.10177
424.5,36.3761,4.15509,-1.11522
425,36.4262,4.12166,-1.13091
425.5,36.4743,4.08632,-1.14482
426,36.523,4.05951,-1.15956
426.5,36.5716,4.03293,-1.17481
427,36.62,3.99062,-1.18968
427.5,36.667,3.9606,-1.2034
428,36.7159,3.91296,-1.22018
428.5,36.7625,3.87524,-1.23353
429,36.8128,3.83627,-1.24853
429.5,36.861,3.80091,-1.26481
430,36.9089,3.76309,-1.28163
430.5,36.9579,3.71473,-1.29982
431,37.0061,3.67615,-1.31501
431.5,37.0543,3.62025,-1.32831
432,37.1025,3.57878,-1.34197
432.5,37.1502,3.52568,-1.35822
433,37.1984,3.46456,-1.3742
433.5,37.2472,3.40449,-1.39171
434,37.2939,3.358,-1.40564
434.5,37.3439,3.30031,-1.42178
435,37.3925,3.2378,-1.43328
435.5,37.4396,3.18182,-1.44811
436,37.4881,3.11664,-1.46358
436.5,37.5362,3.06752,-1.47819
437,37.5846,3.00604,-1.49154
437.5,37.6328,2.94121,-1.50352
438,37.6808,2.88231,-1.51783
438.5,37.7281,2.81684,-1.53305
439,37.775,2.76335,-1.54488
439.5,37.8255,2.68584,-1.55976
440,37.8729,2.62242,-1.57296
440.5,37.9218,2.56687,-1.58434
441,37.9703,2.50358,-1.59785
441.5,38.0183,2.445,-1.60951
442,38.0671,2.38988,-1.6221
442.5,38.1144,2.34137,-1.63219
443,38.1625,2.28636,-1.64398
443.5,38.2109,2.23249,-1.6558
444,38.26,2.1873,-1.6677
444.5,38.3076,2.13582,-1.67737
445,38.3554,2.09419,-1.68758
445.5,38.4057,2.04739,-1.69928
446,38.4537,2.01474,-1.70904
446.5,38.5015,1.97489,-1.71865
447,38.5506,1.94456,-1.72861
447.5,38.598,1.90724,-1.73774
448,38.6486,1.88311,-1.74701
448.5,38.6967,1.85999,-1.75613
449,38.7458,1.83117,-1.76625
449.5,38.7938,1.80525,-1.77537
450,38.8427,1.7853,-1.78372
450.5,38.8913,1.76623,-1.79207
451,38.9401,1.74918,-1.80122
451.5,38.9884,1.73811,-1.80977
452,39.0374,1.72032,-1.81818
452.5,39.0872,1.7108,-1.8264
453,39.1341,1.70228,-1.82864
453.5,39.1845,1.68102,-1.83363
454,39.2334,1.68139,-1.84098
454.5,39.2835,1.67695,-1.85019
455,39.3315,1.6731,-1.858
455.5,39.3811,1.6667,-1.86329
456,39.4291,1.65909,-1.87234
456.5,39.4786,1.65082,-1.88058
457,39.5258,1.64126,-1.88584
457.5,39.577,1.63206,-1.88424
458,39.6253,1.63164,-1.90053
458.5,39.6743,1.62929,-1.91495
459,39.7238,1.63337,-1.92667
459.5,39.7733,1.61727,-1.93594
460,39.8219,1.62467,-1.94528
460.5,39.8709,1.6216,-1.95406
461,39.9193,1.62092,-1.96288
461.5,39.969,1.61474,-1.97311
462,40.0167,1.61986,-1.98135
462.5,40.0656,1.61726,-1.99116
463,40.1145,1.61002,-1.9998
463.5,40.1658,1.60375,-2.01046
464,40.2138,1.59922,-2.02041
464.5,40.2618,1.5891,-2.02952
465,40.3131,1.59387,-2.03979
465.5,40.3624,1.58729,-2.04909
466,40.4113,1.58008,-2.06072
466.5,40.458,1.58088,-2.07061
467,40.5102,1.568,-2.07945
467.5,40.5577,1.56635,-2.09023
468,40.6054,1.57014,-2.09954
468.5,40.6574,1.56426,-2.11121
469,40.7063,1.56298,-2.12423
469.5,40.7555,1.56478,-2.12282
470,40.8048,1.55909,-2.12847
470.5,40.8525,1.55377,-2.14732
471,40.9024,1.54727,-2.15745
471.5,40.9513,1.54372,-2.16685
472,41.001,1.53074,-2.18002
472.5,41.0504,1.52966,-2.18964
473,41.0975,1.5251,-2.19623
473.5,41.148,1.52294,-2.20587
474,41.1978,1.5182,-2.2156
474.5,41.2466,1.50801,-2.22179
475,41.2958,1.50859,-2.23058
475.5,41.3447,1.50061,-2.23265
476,41.3933,1.49352,-2.23638
476.5,41.4434,1.48189,-2.23828
477,41.4918,1.47729,-2.27026
477.5,41.5415,1.46525,-2.29082
478,41.5903,1.45599,-2.30359
478.5,41.6409,1.44579,-2.31326
479,41.689,1.43794,-2.31973
479.5,41.7385,1.42767,-2.32165
480,41.7877,1.41214,-2.3047
480.5,41.8366,1.39338,-2.31237
481,41.885,1.37982,-2.33
481.5,41.9335,1.36005,-2.33807
482,41.9824,1.35049,-2.34762
482.5,42.032,1.3235,-2.35518
483,42.081,1.30707,-2.3607
483.5,42.1303,1.27568,-2.36445
484,42.1789,1.24999,-2.36667
484.5,42.2259,1.22672,-2.36273
485,42.2759,1.20241,-2.33946
485.5,42.3248,1.16438,-2.37959
486,42.3732,1.13742,-2.3843
486.5,42.4201,1.11081,-2.38263
487,42.4704,1.08957,-2.38653
487.5,42.519,1.05219,-2.37588
488,42.5665,1.02485,-2.36977
488.5,42.6163,0.995309,-2.36516
489,42.6648,0.96306,-2.35703
489.5,42.7131,0.938984,-2.35804
490,42.7616,0.906349,-2.37273
490.5,42.81,0.868722,-2.36525
491,42.8578,0.857954,-2.37713
491.5,42.9064,0.827117,-2.35773
492,42.9542,0.797204,-2.32914
492.5,43.0036,0.756446,-2.42614
493,43.0526,0.734818,-2.52791
493.5,43.1008,0.7046,-2.52775
494,43.1494,0.675167,-2.52576
494.5,43.1987,0.659694,-2.52193
495,43.247,0.640307,-2.51757
495.5,43.2959,0.60659,-2.516
496,43.3449,0.587907,-2.516
496.5,43.3929,0.561852,-2.51678
497,43.4426,0.552452,-2.52343
497.5,43.4914,0.537765,-2.52737
498,43.5399,0.528351,-2.53046
498.5,43.589,0.511566,-2.53179
499,43.6383,0.508107,-2.53416
499.5,43.6871,0.50149,-2.53656
500,43.7374,0.487641,-2.53982
500.5,43.7857,0.482705,-2.54149
501,43.8353,0.476559,-2.54202
501.5,43.884,0.453583,-2.54333
502,43.9305,0.444564,-2.54531
502.5,43.9804,0.432696,-2.54749
503,44.0308,0.432347,-2.54895
503.5,44.0798,0.430749,-2.55023
504,44.1291,0.440328,-2.55161
504.5,44.178,0.438418,-2.55289
505,44.2272,0.443234,-2.55418
505.5,44.2765,0.44284,-2.55484
506,44.3257,0.451781,-2.55618
506.5,44.3749,0.439642,-2.55744
507,44.424,0.443856,-2.5598
507.5,44.4733,0.4299,-2.56083
508,44.5218,0.43759,-2.5616
508.5,44.5715,0.433047,-2.5623
509,44.621,0.431975,-2.56244
509.5,44.6701,0.432596,-2.56375
510,44.7201,0.425337,-2.56375
510.5,44.7686,0.433511,-2.5645
511,44.8178,0.429415,-2.56507
511.5,44.8673,0.43124,-2.56603
512,44.9163,0.428165,-2.56639
512.5,44.9652,0.429194,-2.56639
513,45.0136,0.42962,-2.56773
513.5,45.0633,0.429406,-2.56771
514,45.1127,0.426485,-2.56769
514.5,45.162,0.423551,-2.56901
515,45.2121,0.419985,-2.56902
515.5,45.2615,0.414832,-2.56902
516,45.3106,0.407704,-2.57132
516.5,45.3595,0.408672,-2.57133
517,45.4084,0.407188,-2.57133
517.5,45.4584,0.407724,-2.57205
518,45.507,0.408585,-2.57264
518.5,45.5577,0.411142,-2.57264
519,45.6067,0.40049,-2.57396
519.5,45.6564,0.407734,-2.57395
520,45.7055,0.402577,-2.57429
520.5,45.7545,0.404596,-2.57429
521,45.8047,0.400187,-2.57429
521.5,45.853,0.395234,-2.57429
522,45.9034,0.407478,-2.57429
522.5,45.9525,0.396118,-2.57396
523,46.0014,0.392858,-2.57396
523.5,46.0512,0.399164,-2.57396
524,46.1009,0.398789,-2.57338
524.5,46.1501,0.403568,-2.57462
525,46.2004,0.416335,-2.57528
525.5,46.2496,0.401225,-2.57528
526,46.2993,0.411026,-2.57527
526.5,46.3481,0.403934,-2.57627
527,46.3981,0.410502,-2.57659
527.5,46.4485,0.409448,-2.57659
528,46.4976,0.407522,-2.57659
528.5,46.5467,0.403976,-2.57659
529,46.5964,0.402901,-2.57659
529.5,46.6457,0.396317,-2.57791
530,46.6956,0.394948,-2.57791
530.5,46.7459,0.394413,-2.57659
531,46.7948,0.389526,-2.57659
531.5,46.8441,0.385974,-2.57659
532,46.8944,0.37903,-2.57659
532.5,46.9439,0.378347,-2.57798
533,46.994,0.382194,-2.57791
533.5,47.0437,0.379924,-2.57791
534,47.0928,0.366219,-2.57791
534.5,47.1428,0.371965,-2.57791
535,47.1927,0.36694,-2.57693
535.5,47.2421,0.362865,-2.57693
536,47.2891,0.365424,-2.57693
536.5,47.3403,0.361668,-2.57707
537,47.391,0.356002,-2.57956
537.5,47.4403,0.353276,-2.57956
538,47.4902,0.350937,-2.57879
538.5,47.5384,0.356994,-2.57825
539,47.589,0.356177,-2.57692
539.5,47.6388,0.353106,-2.57693
540,47.6881,0.353825,-2.57693
540.5,47.7379,0.343493,-2.57923
541,47.7869,0.338161,-2.57923
541.5,47.8371,0.337206,-2.57922
542,47.8873,0.344408,-2.57792
542.5,47.9367,0.33893,-2.57792
543,47.9864,0.330238,-2.57807
543.5,48.0358,0.325222,-2.57956
544,48.0857,0.328442,-2.57956
544.5,48.135,0.327203,-2.57956
545,48.1847,0.318361,-2.57956
545.5,48.2347,0.324036,-2.57956
546,48.2836,0.324106,-2.57824
546.5,48.3342,0.324913,-2.57824
547,48.3827,0.315914,-2.57884
547.5,48.4315,0.315163,-2.57956
548,48.4822,0.308982,-2.5808
548.5,48.5317,0.304028,-2.57956
549,48.5813,0.30308,-2.57956
549.5,48.6305,0.304126,-2.57956
550,48.6798,0.30105,-2.57956
550.5,48.7295,0.297483,-2.57956
551,48.7797,0.303027,-2.58115
551.5,48.8271,0.296755,-2.5822
552,48.8761,0.300268,-2.5822
552.5,48.9277,0.299442,-2.58152
553,48.9774,0.293492,-2.58088
553.5,49.0268,0.291613,-2.58088
554,49.0772,0.290648,-2.58088
554.5,49.1268,0.293528,-2.58088
555,49.1744,0.290845,-2.58088
555.5,49.224,0.285781,-2.58088
556,49.275,0.28218,-2.5822
556.5,49.3223,0.287361,-2.5822
557,49.3757,0.283633,-2.5822
557.5,49.4242,0.28301,-2.58197
558,49.4746,0.285188,-2.58088
558.5,49.524,0.285974,-2.57956
559,49.5723,0.282181,-2.58088
559.5,49.623,0.273863,-2.58088
560,49.6731,0.277731,-2.58088
560.5,49.723,0.274033,-2.58154
561,49.7726,0.278725,-2.58149
561.5,49.8232,0.274371,-2.58088
562,49.8722,0.272597,-2.58088
562.5,49.9222,0.278265,-2.58088
563,49.972,0.281474,-2.58118
563.5,50.0215,0.271282,-2.58287
564,50.0724,0.266221,-2.58225
564.5,50.1218,0.279311,-2.58154
565,50.171,0.273685,-2.58154
565.5,50.221,0.275076,-2.58154
566,50.2694,0.271537,-2.58219
566.5,50.3211,0.276324,-2.58219
567,50.3702,0.27201,-2.58087
567.5,50.4203,0.27003,-2.58173
568,50.47,0.262573,-2.58219
568.5,50.5195,0.269734,-2.58219
569,50.5698,0.256721,-2.58088
569.5,50.6194,0.264577,-2.58088
570,50.6686,0.255649,-2.58127
570.5,50.7176,0.259202,-2.58154
571,50.7675,0.252029,-2.58154
571.5,50.8184,0.250853,-2.58154
572,50.8687,0.252745,-2.58055
572.5,50.9186,0.25359,-2.58055
573,50.9679,0.253559,-2.58055
573.5,51.0187,0.264151,-2.58055
574,51.0678,0.246731,-2.58055
574.5,51.1186,0.248787,-2.58055
575,51.1681,0.257803,-2.5812
575.5,51.218,0.246351,-2.5812
576,51.2679,0.242628,-2.5812
576.5,51.318,0.238341,-2.58119
577,51.3672,0.242396,-2.58085
577.5,51.4175,0.239187,-2.57955
578,51.4682,0.234166,-2.57955
578.5,51.5174,0.233778,-2.57955
579,51.5667,0.237799,-2.57955
579.5,51.6177,0.230569,-2.57955
580,51.6677,0.232056,-2.57955
580.5,51.7171,0.229343,-2.57955
581,51.7674,0.235589,-2.57955
581.5,51.8168,0.238859,-2.57955
582,51.8668,0.245631,-2.57982
582.5,51.9175,0.236743,-2.58087
583,51.967,0.241673,-2.58087
583.5,52.017,0.241214,-2.58087
584,52.0668,0.23737,-2.57957
584.5,52.1165,0.23956,-2.57955
585,52.1674,0.2426,-2.57955
585.5,52.2174,0.246864,-2.57955
586,52.2665,0.246588,-2.57955
586.5,52.3172,0.242104,-2.57955
587,52.3667,0.243692,-2.57824
587.5,52.4174,0.243457,-2.57824
588,52.4666,0.246328,-2.5789
588.5,52.5169,0.241687,-2.5789
589,52.5675,0.245828,-2.5789
589.5,52.6165,0.244003,-2.5789
590,52.6675,0.23679,-2.5789
590.5,52.7167,0.231708,-2.5789
591,52.7678,0.231117,-2.5789
591.5,52.8182,0.236669,-2.5789
592,52.8684,0.232388,-2.58021
592.5,52.9175,0.233682,-2.57889
593,52.9679,0.229114,-2.57956
593.5,53.0178,0.23327,-2.57956
594,53.0659,0.230863,-2.57958
594.5,53.118,0.230418,-2.58057
595,53.1683,0.234666,-2.58186
595.5,53.2189,0.23557,-2.58055
596,53.2682,0.229603,-2.58055
596.5,53.318,0.227396,-2.58055
597,53.3684,0.227662,-2.58055
597.5,53.4181,0.225498,-2.58055
598,53.4692,0.225563,-2.57923
598.5,53.5194,0.230278,-2.57923
599,53.5692,0.227327,-2.58055
599.5,53.6191,0.230886,-2.58017
600,53.6704,0.226006,-2.57937
600.5,53.7206,0.235792,-2.57956
601,53.77,0.225313,-2.58186
601.5,53.8202,0.228466,-2.58187
602,53.87,0.230786,-2.58187
602.5,53.9205,0.237561,-2.58305
603,53.971,0.238904,-2.58186
603.5,54.0191,0.234601,-2.58112
604,54.0712,0.233046,-2.58088
604.5,54.1209,0.233653,-2.58088
605,54.1714,0.236906,-2.58087
605.5,54.2219,0.238661,-2.58055
606,54.2722,0.244249,-2.58055
606.5,54.3225,0.230111,-2.58186
607,54.3717,0.231315,-2.58186
607.5,54.422,0.227501,-2.58186
608,54.4713,0.229478,-2.58252
608.5,54.522,0.222476,-2.58153
609,54.572,0.222558,-2.58154
609.5,54.6218,0.219665,-2.58052
610,54.6706,0.226143,-2.58022
610.5,54.7215,0.222403,-2.58022
611,54.7717,0.225163,-2.58022
611.5,54.822,0.222101,-2.58022
612,54.8725,0.220962,-2.58022
612.5,54.9229,0.217027,-2.58022
613,54.972,0.210301,-2.58022
613.5,55.0229,0.21754,-2.58022
614,55.0733,0.205914,-2.58121
614.5,55.1231,0.209682,-2.57988
615,55.1726,0.210174,-2.57988
615.5,55.2229,0.21005,-2.57988
616,55.274,0.208597,-2.58021
616.5,55.3236,0.213083,-2.58021
617,55.373,0.208009,-2.58021
617.5,55.4242,0.205182,-2.58021
618,55.474,0.204626,-2.58021
618.5,55.5245,0.200877,-2.58101
619,55.5749,0.204737,-2.58219
619.5,55.6238,0.205674,-2.58252
620,55.6743,0.210492,-2.58252
620.5,55.7249,0.211567,-2.58252
621,55.7748,0.20084,-2.58252
621.5,55.8254,0.196147,-2.58121
622,55.875,0.208105,-2.58121
622.5,55.9254,0.206764,-2.58121
623,55.9757,0.207458,-2.58121
623.5,56.027,0.213111,-2.58121
624,56.0765,0.199174,-2.58121
624.5,56.1265,0.196192,-2.58121
625,56.1768,0.202228,-2.58154
625.5,56.2267,0.213518,-2.58155
626,56.2779,0.213623,-2.58253
626.5,56.3274,0.213618,-2.58253
627,56.3782,0.209,-2.58121
627.5,56.4283,0.204475,-2.58121
628,56.4796,0.204244,-2.58121
628.5,56.5298,0.205032,-2.58121
629,56.5799,0.196631,-2.58121
629.5,56.6302,0.193239,-2.58205
630,56.6791,0.184171,-2.58121
630.5,56.7314,0.185898,-2.58121
631,56.7811,0.184757,-2.58121
631.5,56.8314,0.177937,-2.58154
632,56.8813,0.175133,-2.58154
632.5,56.9325,0.179362,-2.58154
633,56.9829,0.172042,-2.58154
633.5,57.0329,0.177361,-2.58285
634,57.0839,0.172652,-2.58279
634.5,57.1334,0.170153,-2.58253
635,57.184,0.172302,-2.58329
635.5,57.2338,0.174033,-2.58384
636,57.285,0.168951,-2.58285
636.5,57.3353,0.170319,-2.58285
637,57.3856,0.170437,-2.58412
637.5,57.435,0.170178,-2.58417
638,57.4864,0.163833,-2.58418
638.5,57.5368,0.165367,-2.58285
639,57.5871,0.147959,-2.58285
639.5,57.6376,0.154079,-2.58347
640,57.6885,0.158754,-2.58417
640.5,57.7388,0.159972,-2.58384
641,57.7895,0.159955,-2.58313
641.5,57.8394,0.153943,-2.58252
642,57.8895,0.164674,-2.58252
642.5,57.9397,0.159517,-2.58318
643,57.9901,0.152438,-2.58318
643.5,58.0409,0.148678,-2.58318
644,58.0913,0.138307,-2.58319
644.5,58.1403,0.136118,-2.5845
645,58.1897,0.142769,-2.58318
645.5,58.2414,0.139845,-2.58318
646,58.2928,0.134588,-2.58318
646.5,58.3441,0.136691,-2.58318
647,58.394,0.135008,-2.58318
647.5,58.444,0.134169,-2.58318
648,58.4952,0.124405,-2.5822
648.5,58.5451,0.120169,-2.5822
649,58.5953,0.129873,-2.5822
649.5,58.6448,0.124202,-2.5822
650,58.6958,0.122809,-2.5822
650.5,58.7474,0.129738,-2.5822
651,58.7962,0.123684,-2.5822
651.5,58.8463,0.122204,-2.5822
652,58.8986,0.124369,-2.5822
652.5,58.9487,0.120322,-2.5822
653,58.9995,0.119372,-2.58352
653.5,59.0497,0.123752,-2.58352
654,59.0996,0.118091,-2.58352
654.5,59.1496,0.115422,-2.58352
655,59.2001,0.103599,-2.58352
655.5,59.2517,0.0992222,-2.58352
656,59.3015,0.105196,-2.58352
656.5,59.3516,0.10547,-2.58319
657,59.4003,0.0983535,-2.58296
657.5,59.4523,0.100403,-2.5822
658,59.5028,0.0999286,-2.5822
658.5,59.5534,0.100951,-2.58252
659,59.6043,0.097942,-2.58253
659.5,59.6536,0.0926542,-2.58253
660,59.7038,0.0815833,-2.58253
660.5,59.7549,0.084355,-2.58121
661,59.8049,0.0855203,-2.58121
661.5,59.8544,0.0878079,-2.58252
662,59.9055,0.0935764,-2.58252
662.5,59.9549,0.0934934,-2.58252
663,60.0054,0.0920576,-2.58351
663.5,60.0544,0.0891579,-2.58351
664,60.1071,0.0859177,-2.58351
664.5,60.1579,0.085368,-2.58219
665,60.208,0.0855024,-2.58351
665.5,60.2587,0.0735866,-2.58351
666,60.3079,0.0777849,-2.58351
666.5,60.3591,0.0789898,-2.58351
667,60.4085,0.0748592,-2.58351
667.5,60.4595,0.0760625,-2.58451
668,60.5105,0.0716903,-2.58483
668.5,60.5611,0.0610842,-2.58483
669,60.6113,0.0603065,-2.58459
669.5,60.6624,0.0627711,-2.5845
670,60.7128,0.0659133,-2.5845
670.5,60.7642,0.0602774,-2.5845
671,60.8146,0.0673982,-2.58582
671.5,60.8643,0.0612331,-2.58582
672,60.9145,0.0618492,-2.5845
672.5,60.9651,0.0649197,-2.5845
673,61.0155,0.0585358,-2.5845
673.5,61.0651,0.0596107,-2.58452
674,61.1164,0.0658671,-2.58318
674.5,61.1673,0.0555873,-2.58413
675,61.2184,0.0480274,-2.5845
675.5,61.268,0.0523194,-2.5845
676,61.3161,0.0424862,-2.58444
676.5,61.3684,0.0423712,-2.58581
677,61.4187,0.0405208,-2.5845
677.5,61.4692,0.0405068,-2.58319
678,61.5195,0.0341856,-2.58319
678.5,61.5702,0.0360369,-2.58319
679,61.621,0.0358336,-2.58319
679.5,61.6689,0.0390556,-2.58452
680,61.7209,0.0411113,-2.5845
680.5,61.7719,0.0334099,-2.5845
681,61.8217,0.0285333,-2.58453
681.5,61.8718,0.0197032,-2.58319
682,61.9234,0.0166803,-2.58319
682.5,61.9736,0.015702,-2.58219
683,62.0239,0.0244232,-2.58351
683.5,62.0739,0.0206999,-2.58351
684,62.124,0.0273678,-2.58351
684.5,62.1751,0.0264147,-2.58351
685,62.2254,0.0260513,-2.58351
685.5,62.2748,0.0285129,-2.5835
686,62.3256,0.0303557,-2.58379
686.5,62.3758,0.0256072,-2.58516
687,62.4257,0.0183967,-2.58516
687.5,62.4764,0.018579,-2.58384
688,62.5271,0.0115736,-2.58384
688.5,62.577,0.0142563,-2.58417
689,62.6273,0.0160355,-2.58417
689.5,62.6779,0.00615171,-2.58516
690,62.7277,0.00986669,-2.58516
690.5,62.7783,0.0121235,-2.58384
691,62.8289,0.0157985,-2.58384
691.5,62.8792,0.0140713,-2.58384
692,62.9282,0.00503921,-2.58384
692.5,62.98,0.0111233,-2.58384
693,63.0302,0.0156915,-2.58518
693.5,63.081,0.00931568,-2.58516
694,63.1315,0.00348678,-2.58515
694.5,63.1812,0.00630083,-2.58647
695,63.2294,0.0119217,-2.58647
695.5,63.2824,0.0146408,-2.58647
696,63.3325,0.018141,-2.58519
696.5,63.3824,0.0151772,-2.58516
697,63.4342,0.0179982,-2.58385
697.5,63.4839,0.01023,-2.58385
698,63.5343,0.00494145,-2.58385
698.5,63.5842,0.00910121,-2.58517
699,63.6351,0.00902997,-2.58516
699.5,63.6855,0.0097841,-2.58519
700,63.7365,0.0115109,-2.58549
700.5,63.7869,0.0176653,-2.58548
701,63.8375,0.0123401,-2.58544
701.5,63.8876,0.0119946,-2.58549
702,63.9379,0.0150219,-2.58549
702.5,63.989,0.0191699,-2.58681
703,64.0402,0.0178445,-2.58746
703.5,64.0901,0.01979,-2.58746
704,64.1407,0.0163421,-2.58748
704.5,64.1914,0.0222034,-2.58614
705,64.2411,0.0150784,-2.58748
705.5,64.292,0.0210578,-2.58746
706,64.3429,0.0158145,-2.58648
706.5,64.3936,0.0203762,-2.58648
707,64.4438,0.016555,-2.58648
707.5,64.4938,0.0111956,-2.58615
708,64.5448,0.00974836,-2.58539
708.5,64.5957,0.00166322,-2.58483
709,64.6463,0.0129267,-2.58582
709.5,64.6971,0.00925874,-2.58582
710,64.7475,-0.00167993,-2.58582
710.5,64.7973,0.00400228,-2.58582
711,64.8482,-0.000711541,-2.58582
711.5,64.8995,0.00134991,-2.58681
712,64.9497,-0.011324,-2.58549
712.5,65.0007,-0.00205402,-2.58549
713,65.0506,-0.00336187,-2.58417
713.5,65.1028,-0.00789104,-2.58417
714,65.1522,-0.014733,-2.58417
714.5,65.2025,-0.0112033,-2.58417
715,65.2534,-0.00815771,-2.58623
715.5,65.3048,-0.00623506,-2.58648
716,65.3539,-0.0152346,-2.58539
716.5,65.4055,-0.00722343,-2.58516
717,65.4543,-0.00338842,-2.58516
717.5,65.5062,-0.00954529,-2.58499
718,65.5563,-0.00944609,-2.58384
718.5,65.6078,-0.011984,-2.58252
719,65.6586,-0.00902585,-2.58384
719.5,65.7076,-5.44221e-05,-2.58252
720,65.7588,-0.00448656,-2.58186
720.5,65.8076,-0.0112373,-2.58186
721,65.8603,-0.0141921,-2.58186
721.5,65.9112,-0.0117769,-2.58285
722,65.9611,-0.0116385,-2.58282
722.5,66.0113,-0.0164676,-2.58318
723,66.062,-0.0136009,-2.58449
723.5,66.1129,-0.020059,-2.58385
724,66.1635,-0.0183634,-2.58385
724.5,66.2137,-0.00967869,-2.58385
725,66.2647,-0.00452474,-2.58385
725.5,66.3158,-0.00966057,-2.58385
726,66.3667,-0.00631647,-2.58516
726.5,66.4162,-0.00105954,-2.58516
727,66.4671,-0.0121132,-2.58518
727.5,66.5186,-0.0149927,-2.58482
728,66.5688,-0.019521,-2.58582
728.5,66.6206,-0.0123856,-2.58582
729,66.6702,-0.0134198,-2.58583
729.5,66.7206,-0.0175926,-2.58615
730,66.7724,-0.0125794,-2.58615
730.5,66.8227,-0.0198323,-2.58615
731,66.8732,-0.0240195,-2.58615
731.5,66.9244,-0.0144463,-2.58747
732,66.9743,-0.00970234,-2.58747
732.5,67.0257,-0.0069958,-2.58747
733,67.0772,-0.0120717,-2.58747
733.5,67.1283,-0.00455828,-2.58714
734,67.1784,-0.00376587,-2.58778
734.5,67.2294,-0.00494788,-2.58784
735,67.2801,-0.000276314,-2.58647
735.5,67.3307,-0.00255252,-2.58713
736,67.382,-0.00246673,-2.58713
736.5,67.4319,0.000327935,-2.58713
737,67.4827,-0.00280495,-2.58713
737.5,67.5335,-0.00610766,-2.58834
738,67.5833,-0.00686928,-2.58944
738.5,67.6342,-0.0162082,-2.58944
739,67.6852,-0.00897502,-2.58944
739.5,67.7356,-0.00519493,-2.58848
740,67.7864,-0.010116,-2.58845
740.5,67.837,-0.00718346,-2.58977
741,67.887,-0.00615625,-2.58977
741.5,67.9381,0.00376678,-2.59044
742,67.9886,-0.00416641,-2.5908
742.5,68.0388,-0.00432815,-2.59043
743,68.0889,-0.00524883,-2.59043
743.5,68.1392,-0.00291106,-2.59092
744,68.1879,0.000350068,-2.59174
744.5,68.2402,-0.00749624,-2.59108
745,68.291,-0.00406604,-2.59043
745.5,68.3415,-0.00304319,-2.59043
746,68.3916,-0.00755006,-2.59042
746.5,68.4416,-0.0203386,-2.59174
747,68.4929,-0.00991623,-2.59174
747.5,68.5435,-0.0122446,-2.59175
748,68.5928,-0.00861564,-2.59175
748.5,68.6436,-0.00622063,-2.59044
749,68.6928,-0.0177949,-2.59043
749.5,68.7437,-0.0173918,-2.59175
750,68.7928,-0.0252051,-2.59175
750.5,68.8444,-0.0135761,-2.59175
751,68.8953,-0.016276,-2.59175
751.5,68.9459,-0.0154834,-2.59307
752,68.9954,-0.0125749,-2.59307
752.5,69.0461,-0.015087,-2.59405
753,69.0969,-0.0199648,-2.59405
753.5,69.1474,-0.0181861,-2.59306
754,69.1971,-0.0229651,-2.59304
754.5,69.2476,-0.0230925,-2.59405
755,69.2986,-0.0147098,-2.59406
755.5,69.35,-0.0167643,-2.59273
756,69.4006,-0.0207992,-2.59273
756.5,69.4512,-0.0179448,-2.59405
757,69.5012,-0.0175123,-2.59405
757.5,69.5521,-0.0147659,-2.59405
758,69.6025,-0.0324415,-2.59867
758.5,69.6536,-0.0366699,-2.63608
759,69.7052,-0.0295064,-2.65066
759.5,69.7551,-0.0317684,-2.649
760,69.8062,-0.0301096,-2.6449
760.5,69.8565,-0.031225,-2.64315
761,69.9087,-0.0325478,-2.63983
761.5,69.9589,-0.0327429,-2.63646
762,70.01,-0.0402014,-2.63391
762.5,70.0607,-0.03664,-2.6317
763,70.1114,-0.031021,-2.63037
763.5,70.1626,-0.0319801,-2.62896
764,70.2135,-0.0373225,-2.62764
764.5,70.2648,-0.0349298,-2.62532
765,70.316,-0.0311551,-2.62323
765.5,70.3661,-0.0379123,-2.62096
766,70.4164,-0.0418624,-2.61963
766.5,70.4677,-0.0464413,-2.61963
767,70.5182,-0.0520651,-2.61963
767.5,70.569,-0.0485228,-2.61824
768,70.62,-0.0463723,-2.61801
768.5,70.67,-0.0432818,-2.61666
769,70.7214,-0.0436597,-2.61666
769.5,70.7719,-0.044936,-2.61403
770,70.823,-0.0472957,-2.61403
770.5,70.8734,-0.0465526,-2.61272
771,70.9244,-0.0453679,-2.61403
771.5,70.9755,-0.0500895,-2.61403
772,71.0251,-0.0514814,-2.613
772.5,71.0752,-0.0406072,-2.61225
773,71.1268,-0.0396416,-2.61067
773.5,71.1773,-0.0427314,-2.60997
774,71.228,-0.0449788,-2.60897
774.5,71.2782,-0.0493314,-2.60865
775,71.3292,-0.0501995,-2.60865
775.5,71.3788,-0.0513723,-2.60865
776,71.4289,-0.0428857,-2.60865
776.5,71.4812,-0.0507676,-2.60865
777,71.5308,-0.0525981,-2.60865
777.5,71.5813,-0.0528216,-2.60865
778,71.6317,-0.0520623,-2.60852
778.5,71.6822,-0.0463057,-2.60799
779,71.7341,-0.0494724,-2.60799
779.5,71.7839,-0.0553195,-2.60733
780,71.8346,-0.0515249,-2.6068
780.5,71.8861,-0.052855,-2.60603
781,71.9363,-0.0517749,-2.6047
781.5,71.9865,-0.0434324,-2.6047
782,72.0371,-0.0498306,-2.60595
782.5,72.0877,-0.0473035,-2.60602
783,72.1386,-0.0501785,-2.60565
783.5,72.1897,-0.0537528,-2.60371
784,72.2404,-0.0521515,-2.6037
784.5,72.2894,-0.0531101,-2.60503
785,72.3428,-0.039883,-2.60471
785.5,72.3936,-0.0389393,-2.60371
786,72.4432,-0.0349531,-2.60371
786.5,72.4932,-0.0434606,-2.60371
787,72.5444,-0.0386455,-2.60371
787.5,72.5957,-0.048264,-2.60371
788,72.6459,-0.0487192,-2.6036
788.5,72.6962,-0.0432699,-2.6024
789,72.7481,-0.0450532,-2.60206
789.5,72.799,-0.0460067,-2.60207
790,72.8487,-0.0425438,-2.60207