File: 01_Data/High_Temp_Nylon_SCBA_Nosecup/STA/N2/10K_min/High_Temp_Nylon_SCBA_Nosecup_STA_N2_10KData_251009_R1.csv
Temp./C,Time/min,DSC/(mW/mg),Mass loss/mg
50.0,0.0,0.662488,-0.0104949
50.5,0.0677366,0.664953,-0.0102877
51,0.135451,0.689037,-0.00989244
51.5,0.198518,0.691706,-0.0100882
52,0.264264,0.707268,-0.01034
52.5,0.328969,0.704443,-0.00986098
53,0.393986,0.718268,-0.00898588
53.5,0.456153,0.731961,-0.0107681
54,0.518681,0.739177,-0.0111127
54.5,0.581732,0.746004,-0.0111998
55,0.642821,0.752975,-0.0111923
55.5,0.702757,0.760168,-0.00991955
56,0.765556,0.77398,-0.0112029
56.5,0.825463,0.779046,-0.0114197
57,0.882748,0.788231,-0.0116315
57.5,0.945845,0.80102,-0.0102761
58,1.00467,0.809315,-0.0112055
58.5,1.06341,0.818503,-0.0108158
59,1.12192,0.820228,-0.0110895
59.5,1.18194,0.832177,-0.0110801
60,1.23873,0.831294,-0.011091
60.5,1.29607,0.843144,-0.0110981
61,1.35216,0.848361,-0.0111785
61.5,1.41013,0.85365,-0.0111705
62,1.46727,0.85925,-0.0111991
62.5,1.52426,0.862601,-0.0115215
63,1.58203,0.868455,-0.0112056
63.5,1.63662,0.877672,-0.0120679
64,1.6933,0.884531,-0.0120161
64.5,1.74546,0.885639,-0.0120466
65,1.80448,0.886762,-0.0112592
65.5,1.85789,0.88691,-0.0110809
66,1.9155,0.897224,-0.01109
66.5,1.96902,0.909016,-0.0124162
67,2.0252,0.901782,-0.0111497
67.5,2.07926,0.899994,-0.01109
68,2.13314,0.910963,-0.0102303
68.5,2.18604,0.918682,-0.0119325
69,2.24012,0.914441,-0.0110906
69.5,2.29426,0.920501,-0.0110896
70,2.34794,0.918295,-0.0119361
70.5,2.40005,0.919473,-0.0110919
71,2.45426,0.931902,-0.0110897
71.5,2.50662,0.927647,-0.00972081
72,2.55979,0.933596,-0.0097698
72.5,2.61252,0.940537,-0.0111998
73,2.66426,0.930769,-0.0111994
73.5,2.71873,0.938758,-0.0111004
74,2.77047,0.950314,-0.01043
74.5,2.82292,0.951168,-0.00977043
75,2.87404,0.951417,-0.0104547
75.5,2.92377,0.957388,-0.00977005
76,2.97726,0.964015,-0.00978607
76.5,3.02906,0.972998,-0.0111448
77,3.07958,0.972159,-0.0103091
77.5,3.13363,0.982883,-0.00978521
78,3.18465,0.97805,-0.0107598
78.5,3.23672,0.981471,-0.01109
79,3.28784,0.98366,-0.0115686
79.5,3.33986,0.980451,-0.0114855
80,3.39013,0.993536,-0.01109
80.5,3.44297,0.992785,-0.0110417
81,3.49335,0.991817,-0.0121791
81.5,3.54472,1.00638,-0.0122093
82,3.59563,1.00299,-0.0115623
82.5,3.64777,1.01323,-0.0119429
83,3.69798,1.00795,-0.0110886
83.5,3.74926,1.01659,-0.0124101
84,3.7986,1.01685,-0.0110898
84.5,3.84975,1.02213,-0.0124138
85,3.89963,1.02416,-0.0110901
85.5,3.95037,1.0284,-0.0124153
86,4.00037,1.0342,-0.01241
86.5,4.05105,1.04289,-0.0123489
87,4.10069,1.03719,-0.0124285
87.5,4.15065,1.04138,-0.0124079
88,4.2007,1.05064,-0.0110878
88.5,4.25237,1.05624,-0.0125199
89,4.30134,1.06419,-0.0138446
89.5,4.35162,1.05994,-0.0124572
90,4.40114,1.06612,-0.0125201
90.5,4.44995,1.07552,-0.012512
91,4.5007,1.07553,-0.01251
91.5,4.5503,1.08273,-0.0125076
92,4.5991,1.08809,-0.01252
92.5,4.64918,1.09008,-0.0125198
93,4.69881,1.09032,-0.0111646
93.5,4.7474,1.09532,-0.012504
94,4.79724,1.09869,-0.0115673
94.5,4.84693,1.10125,-0.012888
95,4.89453,1.10219,-0.0121675
95.5,4.94453,1.10817,-0.0125099
96,4.99367,1.10971,-0.0130237
96.5,5.04252,1.1184,-0.0138335
97,5.09061,1.11522,-0.0125197
97.5,5.13997,1.11459,-0.0138399
98,5.18926,1.11903,-0.01252
98.5,5.23893,1.10956,-0.01252
99,5.28647,1.1156,-0.0125095
99.5,5.336,1.12025,-0.0124776
100,5.38418,1.12148,-0.0130745
100.5,5.43274,1.11387,-0.0136516
101,5.48071,1.10941,-0.0125086
101.5,5.52883,1.11476,-0.01383
102,5.57766,1.11737,-0.0131507
102.5,5.6256,1.11298,-0.01317
103,5.67448,1.10958,-0.0134668
103.5,5.72227,1.11227,-0.0134
104,5.76969,1.11025,-0.0126901
104.5,5.81855,1.11636,-0.0134
105,5.86958,1.11817,-0.012094
105.5,5.91567,1.11317,-0.012987
106,5.96435,1.10902,-0.01339
106.5,6.01129,1.10532,-0.0129626
107,6.06029,1.10881,-0.0127645
107.5,6.10839,1.11134,-0.012075
108,6.15699,1.11298,-0.0134001
108.5,6.20477,1.10775,-0.0134
109,6.25322,1.10955,-0.0134
109.5,6.3005,1.11197,-0.0134
110,6.34926,1.1127,-0.01274
110.5,6.39714,1.10656,-0.0120778
111,6.44595,1.10666,-0.0133893
111.5,6.49284,1.11289,-0.0120684
112,6.54224,1.12253,-0.0129723
112.5,6.58918,1.11551,-0.0133894
113,6.63788,1.11682,-0.0147084
113.5,6.68753,1.11497,-0.0134008
114,6.73388,1.11872,-0.0134
114.5,6.78248,1.11392,-0.0119075
115,6.83043,1.11683,-0.0134
115.5,6.8796,1.12668,-0.0133992
116,6.92677,1.11776,-0.0137043
116.5,6.97269,1.126,-0.0137272
117,7.02294,1.12114,-0.0147108
117.5,7.07107,1.13447,-0.0147052
118,7.11916,1.12836,-0.0147092
118.5,7.16607,1.12948,-0.01372
119,7.21628,1.13147,-0.0130749
119.5,7.26332,1.13771,-0.0130604
120,7.31097,1.1381,-0.0124096
120.5,7.36028,1.13312,-0.0117585
121,7.40612,1.13663,-0.01241
121.5,7.45684,1.13987,-0.01241
122,7.50355,1.13765,-0.0124102
122.5,7.54926,1.13983,-0.0114891
123,7.60067,1.14599,-0.01241
123.5,7.64763,1.14145,-0.0130864
124,7.6964,1.14978,-0.0124006
124.5,7.74335,1.15102,-0.0124
125,7.79205,1.14757,-0.0124
125.5,7.83979,1.15523,-0.0123676
126,7.88733,1.15649,-0.0124177
126.5,7.93473,1.15867,-0.01241
127,7.98332,1.15525,-0.01241
127.5,8.03141,1.15948,-0.0111998
128,8.07877,1.15671,-0.0120802
128.5,8.12663,1.15391,-0.01208
129,8.17344,1.1615,-0.01208
129.5,8.22144,1.16282,-0.0120745
130,8.26954,1.16349,-0.01241
130.5,8.3181,1.17335,-0.0124096
131,8.36455,1.1756,-0.0120032
131.5,8.41225,1.1764,-0.0125108
132,8.45916,1.17059,-0.012402
132.5,8.50889,1.17742,-0.0133898
133,8.55582,1.17931,-0.01274
133.5,8.60339,1.17645,-0.0114195
134,8.65202,1.18628,-0.01142
134.5,8.69829,1.18056,-0.01142
135,8.74615,1.18827,-0.01142
135.5,8.79357,1.19303,-0.0107449
136,8.84207,1.19137,-0.00987739
136.5,8.88949,1.2009,-0.0100417
137,8.93599,1.19976,-0.0107605
137.5,8.98233,1.20646,-0.0120751
138,9.03031,1.20947,-0.0124013
138.5,9.07794,1.21005,-0.012411
139,9.12595,1.209,-0.0110882
139.5,9.17345,1.21281,-0.0120562
140,9.22038,1.21561,-0.0124101
140.5,9.2686,1.21467,-0.013722
141,9.31554,1.22174,-0.0124001
141.5,9.36391,1.21854,-0.0124
142,9.41029,1.22022,-0.0125936
142.5,9.45765,1.21741,-0.01241
143,9.50619,1.22296,-0.01241
143.5,9.55332,1.21923,-0.01241
144,9.60022,1.22419,-0.01241
144.5,9.64681,1.22115,-0.01241
145,9.69491,1.22885,-0.0124099
145.5,9.74233,1.23058,-0.0124059
146,9.78877,1.22928,-0.01241
146.5,9.83724,1.23329,-0.0124255
147,9.88552,1.2342,-0.0120738
147.5,9.93252,1.23583,-0.01208
148,9.97906,1.23518,-0.01208
148.5,10.0259,1.24161,-0.0120795
149,10.0731,1.24021,-0.0107571
149.5,10.1213,1.24335,-0.01076
150,10.168,1.24651,-0.0110902
150.5,10.2128,1.24519,-0.0114956
151,10.2625,1.24675,-0.0124
151.5,10.3106,1.2514,-0.0112744
152,10.3571,1.25909,-0.011047
152.5,10.4046,1.25522,-0.01241
153,10.4518,1.25017,-0.0124102
153.5,10.4993,1.26079,-0.0110894
154,10.5462,1.25586,-0.01109
154.5,10.5938,1.2571,-0.01109
155,10.6402,1.26179,-0.01239
155.5,10.6878,1.25951,-0.0124099
156,10.7318,1.26562,-0.0110766
156.5,10.7819,1.26673,-0.01109
157,10.8284,1.26094,-0.01109
157.5,10.8756,1.26837,-0.0124634
158,10.9231,1.26229,-0.0123967
158.5,10.9708,1.26203,-0.01108
159,11.0179,1.27281,-0.01108
159.5,11.0657,1.28012,-0.01108
160,11.1122,1.2735,-0.0111205
160.5,11.1595,1.27404,-0.00974851
161,11.2061,1.27695,-0.01043
161.5,11.2538,1.27456,-0.0104568
162,11.2986,1.27658,-0.00949955
162.5,11.347,1.28224,-0.0090492
163,11.3946,1.29675,-0.00878
163.5,11.4427,1.29028,-0.00902106
164,11.4893,1.28319,-0.0101004
164.5,11.532,1.27911,-0.0114226
165,11.5837,1.28139,-0.0113955
165.5,11.6304,1.29543,-0.0107599
166,11.6778,1.29335,-0.01142
166.5,11.7251,1.29474,-0.0116557
167,11.7704,1.29907,-0.01076
167.5,11.82,1.30006,-0.0120608
168,11.8668,1.30259,-0.01207
168.5,11.914,1.31288,-0.0114366
169,11.9599,1.30446,-0.01076
169.5,12.0077,1.30127,-0.00972114
170,12.0538,1.3038,-0.00944999
170.5,12.1014,1.30435,-0.0107224
171,12.1497,1.31012,-0.0100581
171.5,12.197,1.30983,-0.00943999
172,12.2444,1.30671,-0.0107918
172.5,12.292,1.30856,-0.01076
173,12.3393,1.31062,-0.0120807
173.5,12.386,1.30529,-0.0119971
174,12.4337,1.30852,-0.01109
174.5,12.4795,1.3051,-0.01109
175,12.5272,1.31035,-0.0110902
175.5,12.5749,1.3096,-0.0120812
176,12.6221,1.31401,-0.01208
176.5,12.6697,1.31741,-0.01208
177,12.7162,1.316,-0.01208
177.5,12.7628,1.31672,-0.0120729
178,12.8113,1.31636,-0.0120679
178.5,12.8592,1.31937,-0.01207
179,12.907,1.3286,-0.01207
179.5,12.9518,1.32724,-0.0120702
180,13.0004,1.32242,-0.0113853
180.5,13.0464,1.3231,-0.0111052
181,13.0946,1.331,-0.01076
181.5,13.1413,1.33674,-0.010757
182,13.1886,1.33078,-0.0101007
182.5,13.2361,1.33585,-0.0104385
183,13.2824,1.33467,-0.01076
183.5,13.3294,1.33135,-0.01076
184,13.3769,1.33679,-0.01076
184.5,13.4219,1.33287,-0.01076
185,13.4709,1.33784,-0.0113038
185.5,13.5175,1.344,-0.0107609
186,13.5659,1.33196,-0.0107698
186.5,13.6121,1.33947,-0.0091107
187,13.6595,1.34603,-0.00976816
187.5,13.7052,1.34525,-0.00977
188,13.7542,1.33896,-0.00977
188.5,13.7981,1.3456,-0.00977
189,13.8474,1.34687,-0.00950191
189.5,13.8958,1.3511,-0.0101
190,13.942,1.3499,-0.0101
190.5,13.9887,1.34782,-0.0107702
191,14.0359,1.35665,-0.00945
191.5,14.0833,1.35476,-0.0107769
192,14.1305,1.35411,-0.01076
192.5,14.1754,1.35098,-0.01076
193,14.225,1.35943,-0.0107607
193.5,14.2721,1.35782,-0.00978504
194,14.3195,1.35807,-0.00944
194.5,14.3662,1.36059,-0.00944
195,14.4134,1.36131,-0.00944
195.5,14.4609,1.36604,-0.00830453
196,14.5076,1.3688,-0.00811998
196.5,14.5549,1.35974,-0.00935444
197,14.602,1.36074,-0.00944
197.5,14.6492,1.36626,-0.00939318
198,14.697,1.37048,-0.0107599
198.5,14.7439,1.37436,-0.00943619
199,14.7907,1.37524,-0.00812051
199.5,14.8385,1.38065,-0.0084497
200,14.8853,1.37592,-0.00846411
200.5,14.9328,1.38172,-0.00911
201,14.9803,1.37859,-0.00867488
201.5,15.0275,1.38714,-0.00846
202,15.0749,1.38614,-0.00846
202.5,15.1217,1.38707,-0.00846
203,15.1691,1.39234,-0.00845917
203.5,15.2164,1.38431,-0.00977989
204,15.2648,1.39594,-0.00878914
204.5,15.3106,1.38835,-0.00879
205,15.3583,1.3917,-0.00879
205.5,15.4058,1.39733,-0.00879
206,15.4521,1.3978,-0.0100439
206.5,15.4995,1.40309,-0.0101
207,15.5475,1.40189,-0.0101
207.5,15.5949,1.41081,-0.0101002
208,15.6421,1.41187,-0.0110894
208.5,15.6888,1.40342,-0.0111186
209,15.7369,1.40644,-0.0102712
209.5,15.784,1.41176,-0.00911
210,15.8313,1.41738,-0.00911
210.5,15.8789,1.41569,-0.00910973
211,15.9262,1.42061,-0.00917179
211.5,15.973,1.42378,-0.00911021
212,16.0201,1.4326,-0.00911
212.5,16.0667,1.42742,-0.00911
213,16.1152,1.42589,-0.00911
213.5,16.1625,1.43203,-0.00911
214,16.2095,1.43261,-0.00910999
214.5,16.2575,1.43887,-0.00933064
215,16.3042,1.43936,-0.00912
215.5,16.3524,1.43831,-0.00912
216,16.3997,1.43679,-0.00912
216.5,16.4467,1.44433,-0.00911997
217,16.4931,1.45052,-0.00812463
217.5,16.5409,1.45178,-0.00813
218,16.5883,1.45339,-0.00785202
218.5,16.6362,1.45592,-0.00911999
219,16.6808,1.45794,-0.00912
219.5,16.7314,1.4588,-0.00915777
220,16.7787,1.46288,-0.00944244
220.5,16.8252,1.46613,-0.00944
221,16.8725,1.4657,-0.00944
221.5,16.9207,1.47598,-0.00944
222,16.9676,1.47747,-0.00943999
222.5,17.0138,1.47494,-0.00845302
223,17.0624,1.47193,-0.00844127
223.5,17.1094,1.47547,-0.00976999
224,17.1576,1.47929,-0.00977
224.5,17.2049,1.4866,-0.00977
225,17.2516,1.48613,-0.00945001
225.5,17.2998,1.49141,-0.00944
226,17.3466,1.49082,-0.00944
226.5,17.3907,1.48994,-0.00944
227,17.442,1.49839,-0.00944018
227.5,17.4877,1.50142,-0.00909527
228,17.5353,1.50133,-0.00946482
228.5,17.5824,1.5099,-0.00944
229,17.6298,1.50781,-0.00944
229.5,17.6767,1.50622,-0.00943999
230,17.7207,1.51656,-0.00843956
230.5,17.7689,1.51958,-0.00846
231,17.8195,1.52209,-0.00812975
231.5,17.8658,1.52979,-0.00813
232,17.9125,1.5337,-0.00813
232.5,17.9608,1.53357,-0.00889198
233,18.0063,1.53629,-0.00945
233.5,18.0544,1.54335,-0.00944997
234,18.1018,1.54347,-0.00846032
234.5,18.1491,1.55423,-0.00846
235,18.196,1.54943,-0.00846
235.5,18.2432,1.53812,-0.00846
236,18.2906,1.54796,-0.00846
236.5,18.3375,1.55453,-0.00846
237,18.3848,1.55878,-0.00846
237.5,18.4319,1.56112,-0.00846
238,18.4786,1.56853,-0.00846
238.5,18.5272,1.56625,-0.00846
239,18.5741,1.577,-0.00844951
239.5,18.6218,1.57898,-0.00877989
240,18.6694,1.59175,-0.00976717
240.5,18.7162,1.59583,-0.00944004
241,18.7627,1.60989,-0.0085395
241.5,18.8107,1.61729,-0.00812
242,18.8582,1.62666,-0.00812
242.5,18.9054,1.63257,-0.00812
243,18.9538,1.65395,-0.00812
243.5,19.0004,1.66289,-0.00812001
244,19.0477,1.68773,-0.00919462
244.5,19.0956,1.70968,-0.00944057
245,19.1432,1.72578,-0.00813009
245.5,19.1907,1.75511,-0.00813
246,19.2386,1.78835,-0.00880184
246.5,19.2862,1.81974,-0.00879
247,19.3343,1.86085,-0.00879
247.5,19.3822,1.89168,-0.00879
248,19.4294,1.94162,-0.00879
248.5,19.4764,2.0101,-0.00868177
249,19.5233,2.06996,-0.00813
249.5,19.5716,2.1473,-0.0081344
250,19.623,2.25029,-0.0081892
250.5,19.6712,2.36224,-0.00813
251,19.7196,2.47313,-0.00813
251.5,19.7678,2.56579,-0.00813
252,19.8171,2.66136,-0.00813
252.5,19.8652,2.74877,-0.00813
253,19.9133,2.84137,-0.00813
253.5,19.9619,2.91809,-0.00813
254,20.0096,2.99079,-0.00813
254.5,20.058,3.05958,-0.00813016
255,20.1066,3.13199,-0.00680895
255.5,20.1551,3.20614,-0.00681
256,20.2026,3.27739,-0.00681
256.5,20.2508,3.34329,-0.00681
257,20.2989,3.42917,-0.00681044
257.5,20.3477,3.49785,-0.00812267
258,20.3954,3.57495,-0.00812
258.5,20.4435,3.62841,-0.00812
259,20.4917,3.69541,-0.00812481
259.5,20.5403,3.72757,-0.00545467
260,20.5872,3.73846,-0.00545128
260.5,20.6343,3.7023,-0.00582
261,20.6813,3.57287,-0.00674247
261.5,20.7235,3.38878,-0.00779
262,20.77,3.07676,-0.00779
262.5,20.8139,2.73244,-0.00779
263,20.8575,2.42314,-0.00758513
263.5,20.9027,2.16723,-0.00646998
264,20.9471,1.99431,-0.00647
264.5,20.9925,1.85799,-0.00647
265,21.0383,1.74724,-0.00647
265.5,21.0851,1.6587,-0.00647
266,21.1309,1.60935,-0.00647
266.5,21.1778,1.57685,-0.00647
267,21.2246,1.53992,-0.00646994
267.5,21.2711,1.51261,-0.00712977
268,21.3174,1.49399,-0.00713
268.5,21.3652,1.47636,-0.00712703
269,21.4132,1.48036,-0.0058198
269.5,21.4601,1.46999,-0.00648
270,21.5052,1.4645,-0.00648
270.5,21.5544,1.45954,-0.00648
271,21.6016,1.46344,-0.00601253
271.5,21.6487,1.45359,-0.00549
272,21.6962,1.45529,-0.00549032
272.5,21.7434,1.45345,-0.00648032
273,21.7909,1.45881,-0.00648
273.5,21.8386,1.45561,-0.00648
274,21.8856,1.44895,-0.00648
274.5,21.932,1.45574,-0.00648
275,21.9781,1.45931,-0.00648
275.5,22.0266,1.45293,-0.00648
276,22.0737,1.4549,-0.00648008
276.5,22.122,1.45639,-0.00515807
277,22.1684,1.46379,-0.00548982
277.5,22.2162,1.45547,-0.00648082
278,22.2641,1.45168,-0.00648
278.5,22.3104,1.45347,-0.00648
279,22.3583,1.45351,-0.00648
279.5,22.4053,1.44819,-0.00648
280,22.4534,1.45454,-0.00648
280.5,22.4976,1.4558,-0.00647997
281,22.5476,1.45878,-0.00549376
281.5,22.5943,1.44913,-0.00549
282,22.6426,1.44988,-0.00549
282.5,22.6899,1.45883,-0.00549
283,22.737,1.46044,-0.00567008
283.5,22.7831,1.45242,-0.00582
284,22.8321,1.45452,-0.00614537
284.5,22.8801,1.46455,-0.00751771
285,22.9265,1.4688,-0.00747
285.5,22.9747,1.46513,-0.00747
286,23.0219,1.46252,-0.00746998
286.5,23.0694,1.46986,-0.00647914
287,23.1167,1.46733,-0.00647997
287.5,23.1645,1.47266,-0.0054914
288,23.2115,1.47195,-0.00549
288.5,23.2597,1.4692,-0.00549
289,23.307,1.47092,-0.00548732
289.5,23.3543,1.47095,-0.00680975
290,23.4012,1.46501,-0.00681
290.5,23.4484,1.47014,-0.00681
291,23.4968,1.47064,-0.00732789
291.5,23.5443,1.46981,-0.00747
292,23.5909,1.47332,-0.0061322
292.5,23.6396,1.47547,-0.00614064
293,23.6862,1.4685,-0.00482999
293.5,23.7351,1.4709,-0.0048302
294,23.7826,1.47048,-0.00745899
294.5,23.8309,1.46794,-0.00747
295,23.8785,1.47212,-0.00691606
295.5,23.9254,1.47265,-0.00648
296,23.9739,1.47363,-0.00648
296.5,24.0205,1.47564,-0.00648
297,24.0685,1.4717,-0.00648
297.5,24.116,1.47004,-0.00704766
298,24.1636,1.46708,-0.00876235
298.5,24.2115,1.47063,-0.00778959
299,24.2598,1.47356,-0.00779
299.5,24.3066,1.47146,-0.00779
300,24.3547,1.46919,-0.0076356
300.5,24.4021,1.47576,-0.00713999
301,24.4501,1.46892,-0.00852507
301.5,24.4958,1.479,-0.00846105
302,24.5446,1.47716,-0.00713997
302.5,24.5928,1.47998,-0.00714
303,24.6399,1.47575,-0.00714
303.5,24.6857,1.47917,-0.00714
304,24.7349,1.4892,-0.00714
304.5,24.7833,1.48641,-0.00713842
305,24.8313,1.47889,-0.00813015
305.5,24.8788,1.47772,-0.00943717
306,24.926,1.48024,-0.00944
306.5,24.9743,1.48347,-0.00944
307,25.0223,1.48446,-0.00754761
307.5,25.0689,1.48181,-0.00713
308,25.1182,1.48805,-0.00713001
308.5,25.1646,1.4945,-0.00817926
309,25.2125,1.48866,-0.0084506
309.5,25.2594,1.49932,-0.00911001
310,25.3075,1.49558,-0.00911
310.5,25.3553,1.49455,-0.00911056
311,25.4028,1.49659,-0.0100999
311.5,25.4508,1.49789,-0.0101
312,25.4991,1.49531,-0.0101014
312.5,25.546,1.49787,-0.00878006
313,25.5934,1.50021,-0.00943881
313.5,25.6404,1.50078,-0.00944
314,25.6895,1.50459,-0.00977
314.5,25.7379,1.51158,-0.01076
315,25.7849,1.50325,-0.0107647
315.5,25.833,1.50897,-0.00943999
316,25.8806,1.50621,-0.00944
316.5,25.9287,1.51151,-0.0105516
317,25.9774,1.50865,-0.01076
317.5,26.0257,1.51356,-0.0114814
318,26.0722,1.52094,-0.01142
318.5,26.1212,1.52382,-0.01142
319,26.168,1.52248,-0.01142
319.5,26.216,1.53008,-0.0104412
320,26.2639,1.52711,-0.0101
320.5,26.311,1.52545,-0.0112113
321,26.3576,1.5268,-0.0101659
321.5,26.405,1.52303,-0.00916084
322,26.4517,1.522,-0.0087818
322.5,26.5041,1.52158,-0.0112732
323,26.5509,1.52767,-0.01142
323.5,26.5991,1.5325,-0.01142
324,26.6472,1.53081,-0.01142
324.5,26.6947,1.53234,-0.01142
325,26.7422,1.52512,-0.01142
325.5,26.7891,1.53365,-0.01142
326,26.8382,1.53784,-0.0114191
326.5,26.8856,1.54394,-0.0101
327,26.933,1.5348,-0.0114084
327.5,26.9815,1.52939,-0.01274
328,27.0299,1.53399,-0.01274
328.5,27.0782,1.53443,-0.01274
329,27.1246,1.53824,-0.01274
329.5,27.1732,1.5483,-0.0127317
330,27.2194,1.54198,-0.01208
330.5,27.2696,1.54824,-0.0120813
331,27.3151,1.55099,-0.0147202
331.5,27.3654,1.54727,-0.0134014
332,27.4133,1.56553,-0.0134
332.5,27.4613,1.56341,-0.0134002
333,27.5093,1.57018,-0.01471
333.5,27.5572,1.56793,-0.0154069
334,27.6045,1.57775,-0.01603
334.5,27.6533,1.58345,-0.015047
335,27.7004,1.59264,-0.01504
335.5,27.7471,1.59442,-0.01504
336,27.7966,1.60019,-0.0153341
336.5,27.8453,1.60404,-0.0163604
337,27.8918,1.6068,-0.0170201
337.5,27.9408,1.60544,-0.01702
338,27.9896,1.60913,-0.01702
338.5,28.0368,1.61026,-0.01702
339,28.0847,1.61891,-0.01702
339.5,28.1328,1.62214,-0.0169143
340,28.1805,1.62825,-0.01834
340.5,28.2286,1.64124,-0.01834
341,28.2768,1.64536,-0.0193481
341.5,28.322,1.65026,-0.01933
342,28.3723,1.64965,-0.0193269
342.5,28.4194,1.65566,-0.01965
343,28.4687,1.66859,-0.0199423
343.5,28.5161,1.66768,-0.0215503
344,28.5637,1.67262,-0.02163
344.5,28.6123,1.67956,-0.02163
345,28.6598,1.67792,-0.0216289
345.5,28.7077,1.68303,-0.0229498
346,28.7562,1.68747,-0.0244796
346.5,28.8041,1.69006,-0.0254154
347,28.8516,1.69659,-0.0244886
347.5,28.8995,1.70065,-0.0258001
348,28.9478,1.69763,-0.0270304
348.5,28.996,1.70205,-0.0271625
349,29.0438,1.71129,-0.0271302
349.5,29.0904,1.7076,-0.02712
350,29.1396,1.71619,-0.0271193
350.5,29.1878,1.72435,-0.0284397
351,29.2363,1.72813,-0.0284411
351.5,29.2851,1.73805,-0.0297595
352,29.332,1.74001,-0.02976
352.5,29.3795,1.73328,-0.0307608
353,29.4281,1.74077,-0.0323601
353.5,29.4762,1.74778,-0.0337
354,29.5247,1.75323,-0.0347179
354.5,29.5736,1.7544,-0.0350175
355,29.62,1.75667,-0.0356801
355.5,29.6689,1.76307,-0.0363446
356,29.7162,1.76506,-0.0376499
356.5,29.7643,1.76401,-0.03864
357,29.8137,1.7722,-0.0389351
357.5,29.8621,1.77605,-0.0402926
358,29.9096,1.78132,-0.0403231
358.5,29.9576,1.78608,-0.0409215
359,30.0063,1.79776,-0.04226
359.5,30.0535,1.80717,-0.0422635
360,30.1026,1.81882,-0.043794
360.5,30.1502,1.82296,-0.0449036
361,30.1997,1.8398,-0.0462221
361.5,30.2476,1.84903,-0.0478578
362,30.2963,1.86138,-0.0501668
362.5,30.3439,1.86892,-0.0508211
363,30.3927,1.87996,-0.0508135
363.5,30.4406,1.90251,-0.052128
364,30.4889,1.91084,-0.0534637
364.5,30.5379,1.92269,-0.0553187
365,30.586,1.94107,-0.0561708
365.5,30.6346,1.95611,-0.057869
366,30.6825,1.96999,-0.0588525
366.5,30.7309,1.98989,-0.0611775
367,30.7791,2.0039,-0.0644455
367.5,30.8278,2.02051,-0.0657622
368,30.875,2.04321,-0.0670779
368.5,30.9239,2.05791,-0.0684995
369,30.9727,2.08637,-0.0708007
369.5,31.0208,2.09478,-0.0726879
370,31.0697,2.11963,-0.0739507
370.5,31.1184,2.13377,-0.0760926
371,31.166,2.15053,-0.0777731
371.5,31.215,2.17628,-0.0807968
372,31.262,2.19601,-0.0821163
372.5,31.3121,2.22362,-0.0837146
373,31.3609,2.24598,-0.0866081
373.5,31.4098,2.26115,-0.089822
374,31.4582,2.28884,-0.0924492
374.5,31.5067,2.30528,-0.0955036
375,31.5548,2.32885,-0.0991958
375.5,31.604,2.3444,-0.102285
376,31.6522,2.37708,-0.104273
376.5,31.7016,2.40602,-0.107707
377,31.7498,2.43244,-0.110679
377.5,31.7991,2.46249,-0.114054
378,31.8468,2.48291,-0.117471
378.5,31.8959,2.52843,-0.120419
379,31.9447,2.55083,-0.123824
379.5,31.991,2.57647,-0.128114
380,32.0417,2.60551,-0.132858
380.5,32.0914,2.64124,-0.137091
381,32.1394,2.67205,-0.140749
381.5,32.188,2.70088,-0.145057
382,32.2364,2.73465,-0.151204
382.5,32.286,2.76531,-0.154933
383,32.3346,2.79718,-0.158979
383.5,32.3836,2.82297,-0.164647
384,32.4324,2.86125,-0.169339
384.5,32.4811,2.89032,-0.17458
385,32.5305,2.91133,-0.180421
385.5,32.5787,2.95082,-0.185713
386,32.6276,2.9833,-0.190971
386.5,32.6768,3.02579,-0.198863
387,32.7261,3.04197,-0.20565
387.5,32.7735,3.07944,-0.210203
388,32.8236,3.11654,-0.216465
388.5,32.8719,3.14905,-0.223175
389,32.9214,3.18316,-0.229626
389.5,32.9703,3.2215,-0.237344
390,33.0198,3.25883,-0.244096
390.5,33.0677,3.28714,-0.25058
391,33.1168,3.33288,-0.258601
391.5,33.1658,3.36848,-0.267225
392,33.2142,3.4068,-0.275305
392.5,33.2627,3.43612,-0.281528
393,33.3111,3.46452,-0.289792
393.5,33.3601,3.51022,-0.298238
394,33.41,3.53589,-0.306777
394.5,33.4585,3.56859,-0.316716
395,33.5077,3.60289,-0.324791
395.5,33.5562,3.6239,-0.334091
396,33.606,3.65636,-0.344124
396.5,33.6535,3.68857,-0.35405
397,33.7033,3.72247,-0.363988
397.5,33.7519,3.75716,-0.373913
398,33.8014,3.77949,-0.382647
398.5,33.8508,3.81738,-0.392857
399,33.8995,3.84218,-0.404729
399.5,33.9472,3.87185,-0.415894
400,33.9982,3.88933,-0.427833
400.5,34.0463,3.91077,-0.438619
401,34.095,3.94274,-0.449872
401.5,34.1444,3.96623,-0.462867
402,34.1928,3.98375,-0.473615
402.5,34.242,4.00096,-0.48545
403,34.2895,4.02104,-0.496175
403.5,34.3394,4.03818,-0.510199
404,34.3885,4.06004,-0.521929
404.5,34.4365,4.07288,-0.535564
405,34.4859,4.08858,-0.547846
405.5,34.5345,4.10046,-0.559823
406,34.5836,4.10526,-0.57328
406.5,34.6325,4.12271,-0.587529
407,34.6812,4.12715,-0.600595
407.5,34.7301,4.13214,-0.611219
408,34.7782,4.13484,-0.62483
408.5,34.8272,4.14358,-0.640843
409,34.8757,4.14281,-0.653566
409.5,34.9245,4.14742,-0.665796
410,34.9727,4.14374,-0.679943
410.5,35.021,4.15228,-0.693882
411,35.0696,4.14964,-0.707311
411.5,35.1186,4.14452,-0.722644
412,35.1669,4.14775,-0.737049
412.5,35.2158,4.13415,-0.751366
413,35.2632,4.13338,-0.765662
413.5,35.3121,4.12024,-0.780338
414,35.3603,4.10949,-0.794594
414.5,35.4096,4.10611,-0.809894
415,35.4566,4.09457,-0.823583
415.5,35.5069,4.08836,-0.84011
416,35.5552,4.0821,-0.854175
416.5,35.6037,4.0726,-0.869123
417,35.6493,4.06875,-0.88211
417.5,35.7001,4.05285,-0.89847
418,35.7486,4.03466,-0.914281
418.5,35.7966,4.01829,-0.930707
419,35.8448,4.00485,-0.94511
419.5,35.8933,3.98502,-0.96097
420,35.9419,3.97471,-0.977844
420.5,35.9883,3.95871,-0.991987
421,36.0389,3.9438,-1.00968
421.5,36.0868,3.91832,-1.02508
422,36.1356,3.89527,-1.04
422.5,36.1844,3.87945,-1.05782
423,36.2327,3.85696,-1.07174
423.5,36.2817,3.83512,-1.08801
424,36.33,3.81021,-1.10408
424.5,36.3775,3.77655,-1.11944
425,36.4256,3.74521,-1.13645
425.5,36.4751,3.71861,-1.15167
426,36.5232,3.6974,-1.16801
426.5,36.5704,3.65635,-1.18414
427,36.6188,3.61566,-1.20065
427.5,36.669,3.58643,-1.21658
428,36.7167,3.55386,-1.23374
428.5,36.7648,3.51141,-1.24902
429,36.8141,3.46959,-1.26544
429.5,36.8614,3.42712,-1.27911
430,36.9105,3.38625,-1.29454
430.5,36.958,3.34272,-1.31241
431,37.007,3.29559,-1.32725
431.5,37.0551,3.25044,-1.34117
432,37.1036,3.19838,-1.35819
432.5,37.1512,3.15317,-1.37286
433,37.1986,3.10613,-1.38777
433.5,37.2471,3.04808,-1.40169
434,37.296,2.98966,-1.41643
434.5,37.3435,2.93608,-1.43083
435,37.3924,2.87112,-1.44413
435.5,37.4403,2.81842,-1.45929
436,37.4885,2.75525,-1.47249
436.5,37.5369,2.69079,-1.48549
437,37.5843,2.62656,-1.5004
437.5,37.6325,2.56784,-1.51284
438,37.6812,2.50621,-1.52667
438.5,37.7287,2.43912,-1.53787
439,37.7769,2.39562,-1.54982
439.5,37.8257,2.32166,-1.56353
440,37.8735,2.27055,-1.57457
440.5,37.9224,2.19776,-1.58689
441,37.9703,2.14634,-1.5982
441.5,38.0184,2.08089,-1.60864
442,38.067,2.02929,-1.62226
442.5,38.1153,1.98338,-1.63203
443,38.1625,1.93072,-1.64279
443.5,38.2117,1.87917,-1.65258
444,38.26,1.82734,-1.66321
444.5,38.3085,1.78372,-1.67442
445,38.3565,1.74129,-1.68241
445.5,38.4044,1.70831,-1.69187
446,38.4536,1.65347,-1.7018
446.5,38.5015,1.62076,-1.71198
447,38.5514,1.58263,-1.7207
447.5,38.5991,1.5505,-1.73015
448,38.6481,1.53564,-1.7378
448.5,38.6967,1.49985,-1.74663
449,38.7448,1.48159,-1.75637
449.5,38.7938,1.45371,-1.76497
450,38.8419,1.43314,-1.77142
450.5,38.8916,1.40825,-1.78048
451,38.9394,1.38642,-1.78707
451.5,38.9888,1.37707,-1.79598
452,39.0374,1.35721,-1.80478
452.5,39.086,1.35054,-1.81277
453,39.1353,1.3352,-1.82284
453.5,39.1833,1.33288,-1.83041
454,39.2327,1.32346,-1.83891
454.5,39.2815,1.31961,-1.84768
455,39.3293,1.3123,-1.85579
455.5,39.3792,1.30797,-1.86387
456,39.4281,1.29985,-1.87186
456.5,39.4774,1.29636,-1.88015
457,39.5262,1.2918,-1.88918
457.5,39.5772,1.27315,-1.89727
458,39.625,1.27867,-1.90567
458.5,39.6729,1.27446,-1.91402
459,39.7221,1.26804,-1.92126
459.5,39.7708,1.26905,-1.9292
460,39.8196,1.26672,-1.93803
460.5,39.8694,1.25555,-1.94611
461,39.9177,1.2519,-1.95462
461.5,39.9676,1.2561,-1.9652
462,40.0169,1.2462,-1.97316
462.5,40.0651,1.2386,-1.98222
463,40.1124,1.23739,-1.98999
463.5,40.1631,1.2317,-1.99951
464,40.2126,1.22803,-2.00929
464.5,40.2621,1.23298,-2.01857
465,40.3101,1.22437,-2.02707
465.5,40.3583,1.21922,-2.03505
466,40.4087,1.22148,-2.04577
466.5,40.4556,1.218,-2.05438
467,40.5063,1.20464,-2.06301
467.5,40.5548,1.20366,-2.07205
468,40.6044,1.20072,-2.08225
468.5,40.6533,1.19181,-2.09184
469,40.7025,1.19073,-2.10131
469.5,40.7512,1.18761,-2.11055
470,40.8006,1.17773,-2.12162
470.5,40.8513,1.18023,-2.13207
471,40.8987,1.15358,-2.14112
471.5,40.9489,1.14833,-2.1509
472,40.9966,1.13496,-2.16025
472.5,41.0466,1.13033,-2.16927
473,41.0953,1.12475,-2.17885
473.5,41.145,1.12043,-2.18945
474,41.1934,1.12983,-2.19866
474.5,41.2436,1.122,-2.20943
475,41.2923,1.12209,-2.21916
475.5,41.3415,1.11481,-2.2313
476,41.3905,1.10535,-2.241
476.5,41.4393,1.09811,-2.25109
477,41.4877,1.09532,-2.26107
477.5,41.536,1.08394,-2.27006
478,41.5864,1.07907,-2.28158
478.5,41.6356,1.0613,-2.29226
479,41.684,1.05128,-2.30217
479.5,41.7333,1.04396,-2.31302
480,41.7833,1.02105,-2.32351
480.5,41.8315,1.00653,-2.33277
481,41.8804,0.98547,-2.34314
481.5,41.9271,0.968694,-2.35219
482,41.9786,0.92936,-2.36261
482.5,42.0272,0.911763,-2.37177
483,42.0763,0.883001,-2.38296
483.5,42.1251,0.858042,-2.39294
484,42.1734,0.836924,-2.40035
484.5,42.2244,0.818726,-2.41032
485,42.2718,0.801044,-2.41912
485.5,42.3214,0.772498,-2.42758
486,42.3701,0.748918,-2.43548
486.5,42.419,0.722427,-2.44393
487,42.4673,0.690847,-2.45107
487.5,42.5163,0.658024,-2.46103
488,42.5666,0.629228,-2.46827
488.5,42.6146,0.605644,-2.4754
489,42.6637,0.568443,-2.48282
489.5,42.7106,0.540135,-2.48795
490,42.7596,0.5137,-2.49233
490.5,42.8085,0.476853,-2.49775
491,42.8586,0.451025,-2.50258
491.5,42.9085,0.422492,-2.50798
492,42.9569,0.38702,-2.51308
492.5,43.0067,0.359679,-2.51696
493,43.0546,0.328991,-2.51931
493.5,43.1041,0.310167,-2.52304
494,43.1528,0.27189,-2.52601
494.5,43.2025,0.238362,-2.52834
495,43.2514,0.215819,-2.5306
495.5,43.3005,0.193015,-2.53343
496,43.3491,0.174872,-2.53522
496.5,43.3995,0.149101,-2.53675
497,43.4478,0.145066,-2.53804
497.5,43.4969,0.136909,-2.53945
498,43.5462,0.128596,-2.54081
498.5,43.5947,0.122465,-2.54081
499,43.6427,0.123654,-2.54213
499.5,43.6942,0.119611,-2.54213
500,43.7432,0.11446,-2.54345
500.5,43.7917,0.117611,-2.54477
501,43.8419,0.102366,-2.54477
501.5,43.8905,0.0904834,-2.54477
502,43.9405,0.0854059,-2.54609
502.5,43.9893,0.0832654,-2.54608
503,44.0387,0.0792422,-2.54476
503.5,44.0891,0.0802479,-2.54608
504,44.1381,0.0910674,-2.54608
504.5,44.1884,0.0924783,-2.54608
505,44.2372,0.0962187,-2.54608
505.5,44.2864,0.100398,-2.54608
506,44.3365,0.0996123,-2.54653
506.5,44.3857,0.107737,-2.54872
507,44.4347,0.105255,-2.54872
507.5,44.4835,0.104574,-2.5474
508,44.5328,0.0995818,-2.5474
508.5,44.5826,0.0978904,-2.5474
509,44.6319,0.101152,-2.54739
509.5,44.6811,0.0981185,-2.54872
510,44.7309,0.0870224,-2.54739
510.5,44.7804,0.090048,-2.5474
511,44.8297,0.0885585,-2.54773
511.5,44.8795,0.0868907,-2.54872
512,44.9284,0.095007,-2.54872
512.5,44.9782,0.0932705,-2.54872
513,45.0274,0.0885882,-2.55003
513.5,45.0767,0.0856067,-2.55003
514,45.1246,0.0838609,-2.55003
514.5,45.1756,0.0729954,-2.55003
515,45.2236,0.0601103,-2.55036
515.5,45.2743,0.0601218,-2.55036
516,45.3236,0.0535761,-2.55036
516.5,45.3729,0.0495549,-2.55036
517,45.4226,0.0441052,-2.55034
517.5,45.4717,0.0459158,-2.5497
518,45.5222,0.0450804,-2.5497
518.5,45.5714,0.0450525,-2.54972
519,45.6203,0.0502781,-2.55201
519.5,45.6708,0.0528365,-2.55201
520,45.7196,0.0490072,-2.55201
520.5,45.7694,0.0490144,-2.55201
521,45.8191,0.0447379,-2.55168
521.5,45.8675,0.0401037,-2.5497
522,45.9169,0.0449986,-2.5497
522.5,45.967,0.0437903,-2.5497
523,46.017,0.0439796,-2.5497
523.5,46.0663,0.0423921,-2.5497
524,46.1159,0.0455302,-2.55102
524.5,46.1651,0.0464478,-2.55102
525,46.2142,0.0437729,-2.55102
525.5,46.2646,0.0395826,-2.55102
526,46.314,0.0402968,-2.55102
526.5,46.3626,0.0414002,-2.5507
527,46.4126,0.0478677,-2.55069
527.5,46.4627,0.0358437,-2.55037
528,46.5117,0.0460645,-2.55036
528.5,46.5617,0.0431822,-2.55069
529,46.6113,0.0410224,-2.55069
529.5,46.6595,0.0365727,-2.55067
530,46.7102,0.0525593,-2.55201
530.5,46.7593,0.0594571,-2.55201
531,46.8084,0.0528761,-2.55201
531.5,46.8571,0.057434,-2.55201
532,46.9072,0.0450592,-2.55168
532.5,46.9568,0.0433906,-2.55139
533,47.0058,0.0424239,-2.55135
533.5,47.0561,0.0398337,-2.55102
534,47.1055,0.0384784,-2.55233
534.5,47.1545,0.042091,-2.55233
535,47.2033,0.0360744,-2.55233
535.5,47.2524,0.0369195,-2.55233
536,47.3019,0.0363204,-2.54999
536.5,47.3519,0.037536,-2.5497
537,47.4017,0.0362367,-2.5507
537.5,47.4514,0.030806,-2.5507
538,47.4992,0.0367779,-2.55136
538.5,47.5485,0.0288201,-2.55201
539,47.5987,0.026404,-2.55201
539.5,47.6481,0.0268236,-2.55201
540,47.6983,0.0317232,-2.55133
540.5,47.7485,0.0322296,-2.55135
541,47.7976,0.0246427,-2.55069
541.5,47.8476,0.0290533,-2.55069
542,47.8973,0.0294094,-2.55069
542.5,47.9472,0.0257044,-2.55069
543,47.9965,0.0281159,-2.55069
543.5,48.0459,0.0315505,-2.55069
544,48.0959,0.0228517,-2.55069
544.5,48.1457,0.0195922,-2.55069
545,48.1937,0.0203497,-2.55069
545.5,48.2435,0.0235144,-2.55069
546,48.2942,0.0193153,-2.55069
546.5,48.3432,0.0141714,-2.55135
547,48.3925,0.0147223,-2.55135
547.5,48.4416,0.0108821,-2.55135
548,48.4916,0.0110384,-2.55135
548.5,48.5408,0.0161776,-2.55135
549,48.5902,0.0220604,-2.55135
549.5,48.6389,0.0291663,-2.55004
550,48.6897,0.0242445,-2.55003
550.5,48.7397,0.0215125,-2.55069
551,48.789,0.0221771,-2.55066
551.5,48.8372,0.0082561,-2.55168
552,48.8871,0.00274054,-2.55168
552.5,48.9363,0.00611949,-2.55168
553,48.9856,-0.00191649,-2.55168
553.5,49.0357,-0.00250287,-2.55168
554,49.0841,-0.00763931,-2.553
554.5,49.1353,-0.00604668,-2.553
555,49.1831,-0.000307296,-2.553
555.5,49.2336,-0.0166419,-2.55267
556,49.2831,-0.0172483,-2.55234
556.5,49.3324,-0.0111844,-2.55234
557,49.3807,-0.00824504,-2.55234
557.5,49.4319,-0.00509749,-2.55234
558,49.4816,-0.00313861,-2.55234
558.5,49.531,-0.00652252,-2.55158
559,49.58,-0.00946523,-2.55102
559.5,49.629,-0.0101843,-2.55102
560,49.679,-0.0108483,-2.55234
560.5,49.7296,-0.00778824,-2.55234
561,49.7785,-0.0131587,-2.55234
561.5,49.8287,-0.0185116,-2.55234
562,49.8781,-0.0195025,-2.55234
562.5,49.9254,-0.0159946,-2.55102
563,49.9773,-0.022163,-2.55102
563.5,50.0268,-0.0182979,-2.55102
564,50.0765,-0.0207529,-2.55102
564.5,50.1266,-0.027963,-2.55102
565,50.176,-0.0221804,-2.55232
565.5,50.2263,-0.0225453,-2.55234
566,50.2752,-0.0199152,-2.55234
566.5,50.3254,-0.0279945,-2.55232
567,50.3754,-0.0270982,-2.55234
567.5,50.4246,-0.0283849,-2.55168
568,50.475,-0.0252589,-2.55168
568.5,50.5245,-0.0315424,-2.55168
569,50.5739,-0.039794,-2.55168
569.5,50.6241,-0.0532558,-2.55168
570,50.6727,-0.059302,-2.55168
570.5,50.724,-0.0632544,-2.55265
571,50.773,-0.0555944,-2.55267
571.5,50.8226,-0.0608564,-2.55136
572,50.8734,-0.0615833,-2.55136
572.5,50.9222,-0.0577144,-2.55136
573,50.9723,-0.0636801,-2.55136
573.5,51.0219,-0.0689229,-2.55136
574,51.0725,-0.0702659,-2.55234
574.5,51.1198,-0.0709912,-2.55234
575,51.1724,-0.0728188,-2.55234
575.5,51.2222,-0.0661928,-2.55234
576,51.2714,-0.0701893,-2.55234
576.5,51.3213,-0.0693506,-2.55234
577,51.3718,-0.0679652,-2.5525
577.5,51.4207,-0.0677708,-2.55168
578,51.4714,-0.0730488,-2.55168
578.5,51.5191,-0.061058,-2.55168
579,51.5704,-0.0543553,-2.55234
579.5,51.6201,-0.0559183,-2.55234
580,51.6692,-0.0586693,-2.55234
580.5,51.7186,-0.0672017,-2.55234
581,51.7699,-0.0625995,-2.55234
581.5,51.8198,-0.0651231,-2.55267
582,51.8693,-0.0702862,-2.55267
582.5,51.9192,-0.0636787,-2.55197
583,51.9692,-0.0598028,-2.55201
583.5,52.0186,-0.0732285,-2.55201
584,52.0692,-0.070645,-2.55201
584.5,52.119,-0.0703951,-2.55201
585,52.1679,-0.0675091,-2.55201
585.5,52.2185,-0.0729866,-2.55201
586,52.2683,-0.0718288,-2.55134
586.5,52.3172,-0.0721225,-2.55135
587,52.3682,-0.0701795,-2.55102
587.5,52.4189,-0.0669111,-2.55254
588,52.4672,-0.0684641,-2.55386
588.5,52.516,-0.068093,-2.55256
589,52.5664,-0.0732892,-2.55339
589.5,52.6162,-0.0677627,-2.5525
590,52.6675,-0.0693614,-2.55256
590.5,52.7158,-0.0699735,-2.55256
591,52.7656,-0.0772555,-2.55124
591.5,52.8158,-0.077253,-2.55174
592,52.8654,-0.0889077,-2.55256
592.5,52.9157,-0.092754,-2.55256
593,52.9647,-0.0953297,-2.55256
593.5,53.0149,-0.0978343,-2.55256
594,53.0643,-0.105386,-2.55224
594.5,53.1137,-0.107543,-2.55223
595,53.1645,-0.0945892,-2.55221
595.5,53.2139,-0.0869722,-2.55289
596,53.2638,-0.0814109,-2.55289
596.5,53.3135,-0.0810879,-2.55289
597,53.3639,-0.0765959,-2.55289
597.5,53.4143,-0.0810937,-2.5529
598,53.463,-0.0907758,-2.55355
598.5,53.5137,-0.0906862,-2.55388
599,53.5646,-0.0884761,-2.55519
599.5,53.6143,-0.0895855,-2.55519
600,53.6636,-0.0888298,-2.55519
600.5,53.7136,-0.094537,-2.55453
601,53.7641,-0.0905317,-2.55453
601.5,53.8139,-0.092999,-2.55387
602,53.864,-0.0959585,-2.55387
602.5,53.914,-0.0953734,-2.55387
603,53.9623,-0.0935578,-2.55521
603.5,54.0118,-0.0979141,-2.55519
604,54.0639,-0.0976078,-2.55519
604.5,54.1135,-0.0997496,-2.55519
605,54.1625,-0.104311,-2.55519
605.5,54.2127,-0.103336,-2.55519
606,54.2625,-0.0975904,-2.55524
606.5,54.3129,-0.102521,-2.55388
607,54.3625,-0.100577,-2.55519
607.5,54.4127,-0.103266,-2.55519
608,54.4629,-0.109252,-2.55519
608.5,54.5122,-0.109352,-2.55501
609,54.5628,-0.104539,-2.55387
609.5,54.6123,-0.109529,-2.55406
610,54.6628,-0.109301,-2.55486
610.5,54.7125,-0.107617,-2.55354
611,54.7623,-0.11252,-2.55386
611.5,54.8133,-0.110744,-2.55387
612,54.8626,-0.116573,-2.55453
612.5,54.9128,-0.108349,-2.55519
613,54.9627,-0.105631,-2.55519
613.5,55.0128,-0.107052,-2.55519
614,55.0634,-0.107948,-2.55519
614.5,55.1136,-0.10527,-2.55519
615,55.1635,-0.112768,-2.55519
615.5,55.2138,-0.109866,-2.55519
616,55.2638,-0.112943,-2.55517
616.5,55.3135,-0.111277,-2.55388
617,55.3625,-0.120441,-2.55388
617.5,55.4137,-0.121253,-2.55388
618,55.4651,-0.122893,-2.55455
618.5,55.5147,-0.117476,-2.55454
619,55.5635,-0.119376,-2.55585
619.5,55.6136,-0.113559,-2.55585
620,55.6645,-0.117152,-2.55454
620.5,55.7138,-0.11554,-2.55454
621,55.7645,-0.118279,-2.55454
621.5,55.8156,-0.116925,-2.55454
622,55.8642,-0.126773,-2.55454
622.5,55.9136,-0.128054,-2.55454
623,55.9651,-0.134319,-2.55557
623.5,56.0151,-0.133908,-2.55585
624,56.0656,-0.136641,-2.55585
624.5,56.1153,-0.13803,-2.55585
625,56.1653,-0.139244,-2.55718
625.5,56.2162,-0.143022,-2.55696
626,56.2653,-0.143709,-2.55585
626.5,56.3151,-0.137377,-2.55519
627,56.3657,-0.14116,-2.55519
627.5,56.4162,-0.149331,-2.55519
628,56.4666,-0.143726,-2.55486
628.5,56.516,-0.151532,-2.55486
629,56.5664,-0.145714,-2.55486
629.5,56.6169,-0.152161,-2.55465
630,56.6671,-0.153927,-2.55585
630.5,56.717,-0.158771,-2.55585
631,56.7656,-0.15616,-2.55585
631.5,56.8168,-0.166397,-2.55453
632,56.8669,-0.162964,-2.55453
632.5,56.918,-0.161694,-2.55453
633,56.9666,-0.161214,-2.55453
633.5,57.0182,-0.172405,-2.55509
634,57.0674,-0.175736,-2.5565
634.5,57.1185,-0.178256,-2.55848
635,57.1687,-0.178604,-2.55717
635.5,57.2188,-0.180719,-2.55703
636,57.2677,-0.180971,-2.55585
636.5,57.3185,-0.184332,-2.55585
637,57.3689,-0.187496,-2.55683
637.5,57.4182,-0.190522,-2.55717
638,57.4687,-0.194698,-2.55741
638.5,57.5181,-0.198381,-2.55849
639,57.5695,-0.198612,-2.55717
639.5,57.6187,-0.195563,-2.55622
640,57.6684,-0.196926,-2.55586
640.5,57.7181,-0.205868,-2.55586
641,57.7689,-0.20743,-2.55586
641.5,57.8192,-0.21631,-2.55586
642,57.8695,-0.209439,-2.55586
642.5,57.9187,-0.213404,-2.55586
643,57.9691,-0.213279,-2.55586
643.5,58.0192,-0.212751,-2.55489
644,58.0692,-0.215797,-2.55487
644.5,58.1192,-0.213057,-2.55586
645,58.1691,-0.218213,-2.55586
645.5,58.2194,-0.217199,-2.55586
646,58.2699,-0.222321,-2.55586
646.5,58.3192,-0.225229,-2.55586
647,58.3699,-0.226399,-2.55586
647.5,58.4202,-0.230181,-2.55586
648,58.4702,-0.227827,-2.55618
648.5,58.5186,-0.229043,-2.55618
649,58.5703,-0.229889,-2.55615
649.5,58.6209,-0.235321,-2.55717
650,58.6707,-0.22838,-2.55717
650.5,58.7213,-0.229133,-2.55717
651,58.7715,-0.23422,-2.55684
651.5,58.8207,-0.234335,-2.55684
652,58.8722,-0.233172,-2.55684
652.5,58.9217,-0.23327,-2.55684
653,58.971,-0.242129,-2.55686
653.5,59.0231,-0.241285,-2.55585
654,59.0737,-0.244157,-2.55585
654.5,59.1241,-0.244233,-2.55683
655,59.1737,-0.239419,-2.55717
655.5,59.2227,-0.243016,-2.55717
656,59.2749,-0.241619,-2.5577
656.5,59.3241,-0.241906,-2.55816
657,59.3759,-0.252362,-2.55751
657.5,59.4253,-0.250093,-2.55756
658,59.4761,-0.246691,-2.55618
658.5,59.5258,-0.24765,-2.55878
659,59.5766,-0.247256,-2.55882
659.5,59.6273,-0.245905,-2.55783
660,59.6783,-0.256537,-2.55783
660.5,59.7289,-0.260129,-2.55783
661,59.7785,-0.264259,-2.55783
661.5,59.8295,-0.265366,-2.55882
662,59.8789,-0.268689,-2.55882
662.5,59.9298,-0.264872,-2.56058
663,59.9795,-0.258007,-2.55957
663.5,60.0296,-0.263894,-2.55926
664,60.0802,-0.258428,-2.55794
664.5,60.1314,-0.265628,-2.55794
665,60.1809,-0.26327,-2.55794
665.5,60.2315,-0.266057,-2.55794
666,60.282,-0.268147,-2.55794
666.5,60.3323,-0.276866,-2.55794
667,60.3823,-0.282092,-2.5579
667.5,60.4324,-0.27768,-2.55892
668,60.4827,-0.283011,-2.55892
668.5,60.5329,-0.279989,-2.55925
669,60.5836,-0.284451,-2.5602
669.5,60.6336,-0.288604,-2.55927
670,60.6843,-0.282897,-2.55794
670.5,60.7339,-0.286959,-2.55924
671,60.7842,-0.28382,-2.56057
671.5,60.8342,-0.284557,-2.55925
672,60.8853,-0.290565,-2.55926
672.5,60.9357,-0.292567,-2.55926
673,60.9856,-0.308508,-2.55926
673.5,61.0355,-0.293184,-2.55926
674,61.0854,-0.295132,-2.55926
674.5,61.1369,-0.297441,-2.56038
675,61.1866,-0.298421,-2.56068
675.5,61.2371,-0.305597,-2.55937
676,61.2866,-0.30407,-2.56067
676.5,61.3376,-0.300102,-2.55937
677,61.387,-0.2929,-2.55937
677.5,61.4375,-0.307349,-2.55937
678,61.488,-0.300615,-2.55937
678.5,61.5377,-0.304304,-2.55937
679,61.5872,-0.302726,-2.56068
679.5,61.6373,-0.303781,-2.56069
680,61.6884,-0.309863,-2.56004
680.5,61.7391,-0.312109,-2.56068
681,61.7889,-0.311704,-2.56068
681.5,61.839,-0.321234,-2.56069
682,61.889,-0.316003,-2.562
682.5,61.9393,-0.317867,-2.562
683,61.9902,-0.317758,-2.56199
683.5,62.0392,-0.322279,-2.55969
684,62.0897,-0.332383,-2.55969
684.5,62.1398,-0.325044,-2.55969
685,62.1903,-0.335459,-2.56101
685.5,62.2405,-0.322426,-2.56101
686,62.2911,-0.328729,-2.56101
686.5,62.3408,-0.328157,-2.56101
687,62.3909,-0.320062,-2.56101
687.5,62.4414,-0.323337,-2.56101
688,62.4914,-0.317474,-2.56101
688.5,62.5431,-0.323764,-2.56105
689,62.5932,-0.318113,-2.56002
689.5,62.6421,-0.316086,-2.56002
690,62.6935,-0.312041,-2.56027
690.5,62.7418,-0.307779,-2.56134
691,62.7943,-0.310615,-2.56134
691.5,62.8451,-0.313714,-2.56134
692,62.8941,-0.30937,-2.56134
692.5,62.9458,-0.317182,-2.56134
693,62.9958,-0.312684,-2.56134
693.5,63.0454,-0.315905,-2.56134
694,63.0955,-0.311208,-2.56101
694.5,63.1449,-0.313986,-2.561
695,63.1964,-0.328291,-2.56068
695.5,63.2464,-0.322591,-2.56132
696,63.2968,-0.318059,-2.56136
696.5,63.3472,-0.318665,-2.562
697,63.3983,-0.314599,-2.562
697.5,63.448,-0.319412,-2.56102
698,63.4984,-0.319221,-2.56102
698.5,63.549,-0.325424,-2.56102
699,63.5989,-0.321717,-2.56095
699.5,63.6503,-0.305886,-2.56331
700,63.7,-0.315212,-2.56331
700.5,63.7503,-0.303893,-2.562
701,63.8018,-0.306058,-2.562
701.5,63.8519,-0.298977,-2.56233
702,63.9027,-0.30293,-2.56233
702.5,63.9523,-0.297986,-2.56233
703,64.0044,-0.303038,-2.56233
703.5,64.0531,-0.294947,-2.56233
704,64.105,-0.300669,-2.56234
704.5,64.1556,-0.289666,-2.56364
705,64.2052,-0.288357,-2.56364
705.5,64.2566,-0.280332,-2.56235
706,64.3071,-0.283613,-2.56354
706.5,64.3584,-0.289902,-2.56222
707,64.4076,-0.280916,-2.56222
707.5,64.4566,-0.281071,-2.56222
708,64.5094,-0.283822,-2.56222
708.5,64.5579,-0.280788,-2.56222
709,64.6106,-0.285433,-2.56222
709.5,64.6608,-0.284733,-2.56354
710,64.7108,-0.283574,-2.56354
710.5,64.7613,-0.294401,-2.56328
711,64.8118,-0.287751,-2.56222
711.5,64.8628,-0.291127,-2.56222
712,64.9123,-0.292909,-2.56222
712.5,64.9637,-0.292315,-2.56222
713,65.0147,-0.287036,-2.56222
713.5,65.0648,-0.289614,-2.56354
714,65.1157,-0.288928,-2.56354
714.5,65.1662,-0.295475,-2.56354
715,65.2157,-0.298297,-2.56354
715.5,65.2668,-0.296689,-2.5642
716,65.3174,-0.291959,-2.56485
716.5,65.3681,-0.29384,-2.56485
717,65.4182,-0.280577,-2.56419
717.5,65.4696,-0.282953,-2.56419
718,65.5198,-0.286077,-2.56419
718.5,65.5703,-0.284142,-2.56419
719,65.6216,-0.285426,-2.56287
719.5,65.6719,-0.291548,-2.56287
720,65.723,-0.288163,-2.56287
720.5,65.7736,-0.282264,-2.5642
721,65.8236,-0.284007,-2.56419
721.5,65.875,-0.28454,-2.56419
722,65.9253,-0.281271,-2.56419
722.5,65.9753,-0.280021,-2.56551
723,66.0267,-0.279226,-2.56551
723.5,66.0769,-0.273907,-2.56524
724,66.1277,-0.276988,-2.56551
724.5,66.1781,-0.277141,-2.56551
725,66.2284,-0.269142,-2.56551
725.5,66.2786,-0.272099,-2.56453
726,66.3284,-0.283738,-2.56453
726.5,66.3799,-0.266527,-2.5642
727,66.4312,-0.275329,-2.5642
727.5,66.4812,-0.26971,-2.56412
728,66.5322,-0.265574,-2.56552
728.5,66.5834,-0.259229,-2.56593
729,66.6339,-0.264128,-2.56551
729.5,66.6847,-0.259938,-2.56552
730,66.7345,-0.258622,-2.56552
730.5,66.785,-0.263549,-2.56552
731,66.8355,-0.265086,-2.56552
731.5,66.8861,-0.264985,-2.56552
732,66.9369,-0.264838,-2.56696
732.5,66.9875,-0.261762,-2.56837
733,67.0388,-0.26369,-2.56721
733.5,67.0889,-0.254032,-2.56661
734,67.139,-0.25239,-2.56623
734.5,67.1894,-0.250358,-2.56529
735,67.2397,-0.25424,-2.56529
735.5,67.2904,-0.255971,-2.56529
736,67.341,-0.249541,-2.5661
736.5,67.392,-0.244611,-2.56661
737,67.4421,-0.245924,-2.56609
737.5,67.4926,-0.241911,-2.56562
738,67.5431,-0.241704,-2.56562
738.5,67.5936,-0.236304,-2.56562
739,67.6439,-0.239347,-2.56693
739.5,67.6955,-0.236053,-2.56699
740,67.746,-0.234735,-2.56543
740.5,67.7965,-0.236423,-2.5643
741,67.8467,-0.232999,-2.56431
741.5,67.8969,-0.23248,-2.56562
742,67.9486,-0.229722,-2.56562
742.5,67.9989,-0.22816,-2.56562
743,68.0492,-0.228089,-2.56562
743.5,68.1005,-0.225277,-2.56562
744,68.1517,-0.227159,-2.56562
744.5,68.2017,-0.218151,-2.56529
745,68.2521,-0.214551,-2.56529
745.5,68.3036,-0.207818,-2.56529
746,68.3538,-0.209839,-2.56529
746.5,68.4049,-0.205241,-2.56529
747,68.4557,-0.195273,-2.56529
747.5,68.5038,-0.194124,-2.56595
748,68.5571,-0.194704,-2.56729
748.5,68.6082,-0.192177,-2.56727
749,68.6588,-0.194738,-2.56727
749.5,68.7072,-0.18797,-2.56727
750,68.7576,-0.19439,-2.56695
750.5,68.8109,-0.185248,-2.56694
751,68.8612,-0.184586,-2.56694
751.5,68.912,-0.176667,-2.56694
752,68.9632,-0.178394,-2.56694
752.5,69.0121,-0.171068,-2.56563
753,69.0645,-0.168621,-2.56563
753.5,69.1146,-0.168407,-2.56694
754,69.1655,-0.171736,-2.56825
754.5,69.2162,-0.179584,-2.56957
755,69.2667,-0.167872,-2.56814
755.5,69.3174,-0.179169,-2.56685
756,69.3685,-0.177007,-2.56683
756.5,69.4193,-0.171937,-2.56683
757,69.4686,-0.165378,-2.56683
757.5,69.5216,-0.165298,-2.56803
758,69.5709,-0.154026,-2.56815
758.5,69.6216,-0.160162,-2.56815
759,69.6725,-0.166735,-2.56785
759.5,69.7233,-0.166775,-2.56683
760,69.7739,-0.161235,-2.56551
760.5,69.8241,-0.165096,-2.56683
761,69.8761,-0.158645,-2.56692
761.5,69.9238,-0.158829,-2.56815
762,69.9776,-0.151709,-2.56815
762.5,70.0277,-0.143832,-2.56793
763,70.0789,-0.151689,-2.56683
763.5,70.1297,-0.147008,-2.56815
764,70.1793,-0.13352,-2.56815
764.5,70.2307,-0.135126,-2.56815
765,70.2814,-0.138387,-2.56814
765.5,70.3317,-0.134186,-2.56683
766,70.3826,-0.128286,-2.56683
766.5,70.4337,-0.136443,-2.56683
767,70.4836,-0.128386,-2.56683
767.5,70.5345,-0.13358,-2.56683
768,70.5845,-0.135891,-2.56752
768.5,70.6354,-0.125753,-2.56815
769,70.6865,-0.126455,-2.56815
769.5,70.738,-0.123153,-2.56815
770,70.7874,-0.126672,-2.56816
770.5,70.8387,-0.123508,-2.56782
771,70.8897,-0.13295,-2.56815
771.5,70.9404,-0.132157,-2.56815
772,70.9917,-0.134715,-2.56815
772.5,71.0419,-0.134592,-2.56749
773,71.0922,-0.116095,-2.56749
773.5,71.1446,-0.130553,-2.56743
774,71.1955,-0.125574,-2.5665
774.5,71.2468,-0.126671,-2.56856
775,71.2975,-0.126581,-2.5681
775.5,71.3477,-0.123363,-2.56793
776,71.3988,-0.122577,-2.56793
776.5,71.4495,-0.119351,-2.56793
777,71.5011,-0.127742,-2.56793
777.5,71.5514,-0.119428,-2.57009
778,71.602,-0.119073,-2.56926
778.5,71.653,-0.113055,-2.56925
779,71.7028,-0.114607,-2.56924
779.5,71.7549,-0.116815,-2.56793
780,71.806,-0.118245,-2.56793
780.5,71.8572,-0.112135,-2.56793
781,71.9084,-0.124688,-2.56793
781.5,71.9588,-0.117163,-2.56793
782,72.0095,-0.118882,-2.56793
782.5,72.0606,-0.110472,-2.56793
783,72.1112,-0.120245,-2.56793
783.5,72.1627,-0.119,-2.56793
784,72.2127,-0.126092,-2.56859
784.5,72.2634,-0.122118,-2.56922
785,72.3153,-0.123258,-2.56925
785.5,72.3658,-0.123309,-2.56927
786,72.4173,-0.119961,-2.56793
786.5,72.4679,-0.125941,-2.56816
787,72.5191,-0.115405,-2.56826
787.5,72.5698,-0.108299,-2.56826
788,72.6215,-0.113312,-2.56858
788.5,72.6721,-0.114388,-2.56859
789,72.7222,-0.117105,-2.56995
789.5,72.7733,-0.117236,-2.56853
790,72.8244,-0.124229,-2.56858