File: 01_Data/High_Temp_Nylon_SCBA_Nosecup/STA/N2/10K_min/High_Temp_Nylon_SCBA_Nosecup_STA_N2_10KData_251010_R2.csv
Temp./C,Time/min,DSC/(mW/mg),Mass loss/mg
50.0,0.0,0.745025,-0.00714149
50.5,0.0662257,0.753153,-0.00564243
51,0.12992,0.774148,-0.00570734
51.5,0.199349,0.7884,-0.00645761
52,0.262277,0.786101,-0.00552105
52.5,0.328906,0.797127,-0.00581491
53,0.392294,0.804975,-0.00669646
53.5,0.453644,0.816363,-0.00825769
54,0.516759,0.82623,-0.00748886
54.5,0.58013,0.836719,-0.00692635
55,0.641985,0.842725,-0.00764923
55.5,0.703307,0.85508,-0.00695782
56,0.763396,0.85923,-0.00679627
56.5,0.826209,0.874188,-0.00680935
57,0.886178,0.875904,-0.00683463
57.5,0.943043,0.884476,-0.00830378
58,1.00521,0.892071,-0.0076587
58.5,1.06259,0.901198,-0.00551435
59,1.12224,0.907927,-0.00548643
59.5,1.18103,0.921649,-0.00801019
60,1.23796,0.922509,-0.0070307
60.5,1.29834,0.934007,-0.00611225
61,1.35581,0.939032,-0.00571846
61.5,1.41247,0.951066,-0.0070535
62,1.4682,0.954816,-0.00837335
62.5,1.52159,0.956605,-0.00751343
63,1.58208,0.95843,-0.00680669
63.5,1.63863,0.965427,-0.00680376
64,1.69484,0.970367,-0.00680005
64.5,1.75125,0.981173,-0.00777907
65,1.80317,0.984203,-0.00729858
65.5,1.86049,0.982931,-0.00697501
66,1.91677,0.994128,-0.00680997
66.5,1.97103,0.999423,-0.00680432
67,2.02515,1.00212,-0.00808274
67.5,2.07905,1.00334,-0.00813006
68,2.13309,1.01063,-0.0081343
68.5,2.18534,1.00649,-0.00681001
69,2.24007,1.01236,-0.00680635
69.5,2.29533,1.01678,-0.0081308
70,2.3497,1.01651,-0.00945087
70.5,2.40209,1.02115,-0.00814418
71,2.4542,1.02503,-0.0079925
71.5,2.50865,1.03632,-0.0080101
72,2.562,1.03435,-0.00806924
72.5,2.61572,1.0359,-0.00801986
73,2.66318,1.05226,-0.00691087
73.5,2.72074,1.05004,-0.0080204
74,2.77407,1.05353,-0.00800718
74.5,2.82487,1.04834,-0.00801037
75,2.87708,1.06532,-0.00801105
75.5,2.92959,1.06882,-0.00895936
76,2.98201,1.0688,-0.00851337
76.5,3.03348,1.06421,-0.00802
77,3.0859,1.07016,-0.00917158
77.5,3.13767,1.07402,-0.0106599
78,3.18837,1.07226,-0.00923214
78.5,3.23974,1.08501,-0.00922107
79,3.29365,1.08101,-0.00788434
79.5,3.34357,1.08699,-0.00922999
80,3.39619,1.09379,-0.00923
80.5,3.44537,1.08749,-0.0092205
81,3.49795,1.10099,-0.00922019
81.5,3.54981,1.10228,-0.00883182
82,3.59968,1.11657,-0.00925259
82.5,3.65124,1.1084,-0.00922201
83,3.70201,1.11595,-0.00921991
83.5,3.75223,1.12387,-0.0105429
84,3.80317,1.13466,-0.00922993
84.5,3.85462,1.13066,-0.0092487
85,3.9049,1.14007,-0.00922
85.5,3.95483,1.14628,-0.00922114
86,4.00588,1.15091,-0.00922136
86.5,4.05517,1.15837,-0.00922
87,4.10534,1.16113,-0.00812566
87.5,4.1571,1.16207,-0.00922997
88,4.20147,1.16502,-0.00887524
88.5,4.25541,1.17353,-0.00924033
89,4.30493,1.1747,-0.00924867
89.5,4.35567,1.17984,-0.00922033
90,4.406,1.18281,-0.00922162
90.5,4.45593,1.19516,-0.0104192
91,4.50497,1.19465,-0.00936423
91.5,4.55515,1.20429,-0.0105394
92,4.60573,1.21199,-0.00919639
92.5,4.65443,1.21623,-0.01054
93,4.70407,1.21458,-0.00988568
93.5,4.75197,1.21931,-0.00952955
94,4.80279,1.21395,-0.00954747
94.5,4.85169,1.22145,-0.0105467
95,4.90132,1.22511,-0.00909234
95.5,4.94984,1.22398,-0.00907464
96,4.99918,1.22813,-0.00910997
96.5,5.04815,1.23201,-0.011049
97,5.09636,1.23259,-0.0105224
97.5,5.14267,1.23378,-0.0100204
98,5.19526,1.23739,-0.01032
98.5,5.24442,1.2403,-0.0102928
99,5.29308,1.23671,-0.0103211
99.5,5.34198,1.23182,-0.00999002
100,5.39014,1.23617,-0.00992406
100.5,5.43795,1.23957,-0.0089978
101,5.48865,1.23725,-0.0103194
101.5,5.53619,1.2437,-0.0103183
102,5.58484,1.24059,-0.00905019
102.5,5.63303,1.23876,-0.01032
103,5.68107,1.24518,-0.0116722
103.5,5.73024,1.2391,-0.0103164
104,5.77659,1.24143,-0.01032
104.5,5.82671,1.24087,-0.0106786
105,5.87501,1.24295,-0.0103198
105.5,5.9237,1.24233,-0.0103282
106,5.97246,1.2414,-0.0103209
106.5,6.02072,1.24251,-0.01032
107,6.06888,1.23832,-0.01032
107.5,6.11741,1.23747,-0.0111792
108,6.16489,1.23572,-0.01032
108.5,6.21398,1.23978,-0.0112944
109,6.26125,1.23435,-0.0116299
109.5,6.30988,1.23875,-0.0116666
110,6.35878,1.2401,-0.0116432
110.5,6.40586,1.23639,-0.011588
111,6.45443,1.2391,-0.01164
111.5,6.50328,1.23968,-0.01164
112,6.55186,1.24624,-0.01164
112.5,6.59961,1.24742,-0.01164
113,6.649,1.24725,-0.0102946
113.5,6.69536,1.24566,-0.0110983
114,6.74422,1.25156,-0.01065
114.5,6.79202,1.25269,-0.01065
115,6.84037,1.26159,-0.00995597
115.5,6.88835,1.25586,-0.00905124
116,6.93807,1.25499,-0.01032
116.5,6.98554,1.26238,-0.0114225
117,7.03389,1.26568,-0.01164
117.5,7.08183,1.26763,-0.0106462
118,7.13013,1.26803,-0.0105893
118.5,7.17798,1.26816,-0.0116405
119,7.22681,1.27277,-0.01164
119.5,7.27355,1.27244,-0.0116415
120,7.32145,1.28344,-0.0119693
120.5,7.36836,1.27607,-0.01164
121,7.41804,1.27568,-0.01164
121.5,7.46677,1.28871,-0.0103493
122,7.51378,1.28872,-0.0116399
122.5,7.56347,1.29017,-0.0116378
123,7.60955,1.29099,-0.0129603
123.5,7.65827,1.29318,-0.0129554
124,7.70593,1.29826,-0.01131
124.5,7.75492,1.30087,-0.00998921
125,7.80222,1.303,-0.00999004
125.5,7.85083,1.30246,-0.0117505
126,7.89837,1.30692,-0.0123247
126.5,7.9466,1.30855,-0.0126295
127,7.99358,1.31083,-0.01263
127.5,8.04104,1.31646,-0.0126648
128,8.08975,1.32017,-0.01131
128.5,8.13643,1.32158,-0.0113095
129,8.18181,1.32149,-0.01262
129.5,8.23313,1.32507,-0.0113283
130,8.28026,1.32783,-0.0126486
130.5,8.32686,1.33469,-0.01263
131,8.37547,1.33669,-0.01263
131.5,8.42296,1.33502,-0.0124032
132,8.47053,1.34022,-0.01164
132.5,8.51878,1.33586,-0.0116388
133,8.56658,1.3386,-0.0126299
133.5,8.61431,1.33471,-0.01263
134,8.66254,1.34128,-0.01263
134.5,8.70956,1.34984,-0.011269
135,8.75608,1.35027,-0.0113094
135.5,8.80424,1.35242,-0.0103005
136,8.8525,1.3587,-0.01131
136.5,8.89969,1.3516,-0.0110838
137,8.94665,1.35803,-0.01065
137.5,8.99555,1.36055,-0.0109774
138,9.04129,1.35931,-0.01131
138.5,9.09002,1.36247,-0.01131
139,9.13728,1.36704,-0.011309
139.5,9.18579,1.36206,-0.0126299
140,9.23188,1.36808,-0.01263
140.5,9.28017,1.37466,-0.01263
141,9.32663,1.37926,-0.0126295
141.5,9.37495,1.3748,-0.0126266
142,9.42264,1.3782,-0.0126295
142.5,9.46907,1.37918,-0.0113101
143,9.5164,1.38251,-0.0113106
143.5,9.56313,1.3771,-0.0132823
144,9.61068,1.37984,-0.01328
144.5,9.65627,1.37969,-0.0132537
145,9.70624,1.3768,-0.0119601
145.5,9.75464,1.38737,-0.0133295
146,9.80043,1.38695,-0.0132801
146.5,9.84917,1.37798,-0.0126203
147,9.8954,1.38362,-0.0126245
147.5,9.94269,1.38157,-0.0136014
148,9.98961,1.39263,-0.0132884
148.5,10.0368,1.39404,-0.01329
149,10.0838,1.40299,-0.01329
149.5,10.1321,1.3959,-0.0132873
150,10.1789,1.40316,-0.014611
150.5,10.2261,1.40265,-0.01329
151,10.2737,1.40614,-0.01329
151.5,10.3189,1.40368,-0.01329
152,10.3684,1.40692,-0.0132963
152.5,10.4156,1.41363,-0.0119711
153,10.4617,1.40766,-0.0127969
153.5,10.5089,1.41845,-0.01196
154,10.5545,1.41895,-0.0121343
154.5,10.6053,1.42016,-0.0145871
155,10.651,1.42573,-0.0145951
155.5,10.6978,1.41626,-0.0129537
156,10.746,1.42483,-0.01295
156.5,10.793,1.42195,-0.0129514
157,10.8382,1.42027,-0.0142703
157.5,10.886,1.42381,-0.01427
158,10.9339,1.42359,-0.0139987
158.5,10.9813,1.4308,-0.01428
159,11.0278,1.42323,-0.0129445
159.5,11.0752,1.43353,-0.0129596
160,11.1221,1.43078,-0.0155926
160.5,11.17,1.43868,-0.0151302
161,11.2172,1.43601,-0.01296
161.5,11.2639,1.43659,-0.012631
162,11.3102,1.43668,-0.0123
162.5,11.3582,1.4305,-0.0123012
163,11.4055,1.43851,-0.01361
163.5,11.4529,1.44257,-0.01361
164,11.4999,1.45061,-0.0129434
164.5,11.5463,1.44234,-0.0141667
165,11.5932,1.44569,-0.01427
165.5,11.6408,1.44495,-0.0142741
166,11.6874,1.44512,-0.0129502
166.5,11.7341,1.45016,-0.0131818
167,11.7797,1.44487,-0.0151899
167.5,11.8291,1.45101,-0.0142356
168,11.8737,1.45885,-0.0134
168.5,11.9239,1.45679,-0.0134
169,11.9708,1.45668,-0.0134
169.5,12.0177,1.45951,-0.0134
170,12.0653,1.45733,-0.0133996
170.5,12.1122,1.46402,-0.0130732
171,12.1589,1.46684,-0.0140497
171.5,12.2069,1.47343,-0.01307
172,12.2533,1.469,-0.01307
172.5,12.301,1.47858,-0.0123287
173,12.3475,1.47483,-0.01241
173.5,12.3949,1.47866,-0.01241
174,12.4429,1.47816,-0.012414
174.5,12.4897,1.48564,-0.0130642
175,12.5363,1.48152,-0.01306
175.5,12.5838,1.48273,-0.01174
176,12.6305,1.48183,-0.0117392
176.5,12.6779,1.48985,-0.0133948
177,12.7258,1.49146,-0.01438
177.5,12.772,1.48978,-0.0143826
178,12.8199,1.4864,-0.0130597
178.5,12.8664,1.49083,-0.01306
179,12.9131,1.49516,-0.0130595
179.5,12.9579,1.49663,-0.0141154
180,13.0075,1.49998,-0.01307
180.5,13.0544,1.49725,-0.01307
181,13.1025,1.49636,-0.01307
181.5,13.1491,1.50141,-0.0130671
182,13.196,1.50014,-0.0140599
182.5,13.2433,1.50126,-0.0130474
183,13.2902,1.49586,-0.01307
183.5,13.3345,1.50313,-0.01307
184,13.3837,1.49871,-0.01307
184.5,13.4305,1.50034,-0.0130925
185,13.4762,1.49342,-0.0143789
185.5,13.523,1.50677,-0.0130592
186,13.5713,1.49665,-0.01306
186.5,13.6189,1.49794,-0.0120703
187,13.6667,1.50585,-0.01207
187.5,13.7136,1.49719,-0.01207
188,13.76,1.50478,-0.0120677
188.5,13.8062,1.50498,-0.0133903
189,13.8516,1.50787,-0.01339
189.5,13.901,1.51221,-0.0134176
190,13.9469,1.51534,-0.01306
190.5,13.992,1.51477,-0.01306
191,14.0415,1.51697,-0.0141962
191.5,14.0894,1.51169,-0.01438
192,14.1348,1.51381,-0.0137287
192.5,14.1827,1.51598,-0.01373
193,14.23,1.51838,-0.0137286
193.5,14.2764,1.52037,-0.0143891
194,14.3246,1.51932,-0.0149853
194.5,14.3706,1.53189,-0.01438
195,14.4174,1.53288,-0.0146016
195.5,14.4646,1.53172,-0.0144417
196,14.5123,1.52813,-0.01406
196.5,14.5592,1.53591,-0.01406
197,14.6063,1.53168,-0.0140601
197.5,14.6539,1.53756,-0.0130701
198,14.7007,1.53884,-0.01307
198.5,14.7471,1.54305,-0.0143801
199,14.7949,1.54818,-0.01438
199.5,14.8411,1.54429,-0.01443
200,14.889,1.54161,-0.01405
200.5,14.9349,1.53903,-0.01405
201,14.9817,1.54343,-0.0140741
201.5,15.0298,1.54181,-0.0153709
202,15.0764,1.55042,-0.0140512
202.5,15.1225,1.54812,-0.0140519
203,15.1702,1.54246,-0.01372
203.5,15.2169,1.55417,-0.01372
204,15.2635,1.54947,-0.01372
204.5,15.3114,1.55917,-0.0138966
205,15.3579,1.5645,-0.01504
205.5,15.4062,1.55968,-0.0150612
206,15.4525,1.55514,-0.014911
206.5,15.5004,1.55435,-0.015074
207,15.5456,1.56274,-0.01406
207.5,15.5935,1.56425,-0.01406
208,15.6406,1.5651,-0.0142596
208.5,15.6872,1.5615,-0.01538
209,15.7338,1.56714,-0.01439
209.5,15.7812,1.56557,-0.01439
210,15.8276,1.56982,-0.01439
210.5,15.8753,1.57125,-0.0143847
211,15.9218,1.57262,-0.01406
211.5,15.9692,1.56729,-0.0130253
212,16.0166,1.57599,-0.0126855
212.5,16.0623,1.58463,-0.01405
213,16.1092,1.58162,-0.01405
213.5,16.1572,1.5822,-0.01405
214,16.2045,1.59011,-0.01405
214.5,16.2512,1.59263,-0.01405
215,16.2986,1.59075,-0.01405
215.5,16.3446,1.59467,-0.0136148
216,16.3922,1.60043,-0.01273
216.5,16.4383,1.60485,-0.01273
217,16.4866,1.6022,-0.0126791
217.5,16.5322,1.60819,-0.01405
218,16.5792,1.6114,-0.01405
218.5,16.6272,1.6084,-0.01405
219,16.6735,1.61477,-0.0148284
219.5,16.7219,1.61399,-0.01537
220,16.7694,1.61668,-0.0153729
220.5,16.8158,1.61418,-0.0127366
221,16.8625,1.61855,-0.01406
221.5,16.9097,1.62087,-0.01406
222,16.9559,1.62398,-0.01406
222.5,17.0036,1.62564,-0.01406
223,17.0517,1.63082,-0.0140597
223.5,17.098,1.63409,-0.0127397
224,17.1457,1.63451,-0.0140728
224.5,17.1922,1.63902,-0.0153702
225,17.2369,1.64055,-0.01537
225.5,17.2869,1.64703,-0.0140141
226,17.3333,1.64772,-0.01405
226.5,17.3811,1.65062,-0.01405
227,17.4282,1.66042,-0.0140478
227.5,17.4755,1.66365,-0.0153704
228,17.5221,1.65876,-0.01537
228.5,17.57,1.6736,-0.01537
229,17.6169,1.67397,-0.01537
229.5,17.6636,1.67734,-0.01537
230,17.7097,1.68084,-0.0153736
230.5,17.7584,1.68211,-0.0140501
231,17.806,1.68322,-0.01405
231.5,17.853,1.69001,-0.0141967
232,17.8997,1.69098,-0.01537
232.5,17.9476,1.70613,-0.01537
233,17.9943,1.69297,-0.01537
233.5,18.042,1.70352,-0.0154161
234,18.0893,1.70485,-0.01405
234.5,18.1362,1.70689,-0.01405
235,18.1832,1.71478,-0.0144831
235.5,18.2298,1.71802,-0.0157001
236,18.2753,1.72493,-0.0157
236.5,18.325,1.72527,-0.0156997
237,18.3724,1.73826,-0.0143866
237.5,18.4199,1.73768,-0.01439
238,18.4678,1.74547,-0.01439
238.5,18.5146,1.74932,-0.01439
239,18.5612,1.75617,-0.01439
239.5,18.6091,1.76683,-0.0143906
240,18.6554,1.77498,-0.01472
240.5,18.7025,1.77617,-0.0147206
241,18.7503,1.77954,-0.0156166
241.5,18.7974,1.78953,-0.0147156
242,18.8451,1.80206,-0.01471
242.5,18.8922,1.81481,-0.01471
243,18.9396,1.82278,-0.014662
243.5,18.9871,1.8431,-0.0143801
244,19.0344,1.8647,-0.0147101
244.5,19.0825,1.88497,-0.01471
245,19.1279,1.90077,-0.01471
245.5,19.1778,1.93879,-0.0158696
246,19.2242,1.96019,-0.01603
246.5,19.2722,1.99021,-0.01603
247,19.3179,2.02732,-0.01603
247.5,19.3678,2.07389,-0.0160295
248,19.4151,2.11357,-0.013382
248.5,19.463,2.17207,-0.01339
249,19.5114,2.24762,-0.0133913
249.5,19.5598,2.32851,-0.0147096
250,19.608,2.41755,-0.0147023
250.5,19.6559,2.52359,-0.0137201
251,19.7044,2.6146,-0.01372
251.5,19.7535,2.73447,-0.01372
252,19.8017,2.82503,-0.0137198
252.5,19.8499,2.91248,-0.0147133
253,19.8981,2.99372,-0.01504
253.5,19.9463,3.08475,-0.01504
254,19.9954,3.14702,-0.0150398
254.5,20.0429,3.22554,-0.01471
255,20.0908,3.29399,-0.0143799
255.5,20.1392,3.35977,-0.0130703
256,20.188,3.44156,-0.01307
256.5,20.2354,3.51024,-0.01307
257,20.2844,3.58607,-0.01307
257.5,20.332,3.66144,-0.01307
258,20.3813,3.73769,-0.01307
258.5,20.4302,3.80664,-0.01307
259,20.4772,3.86141,-0.01307
259.5,20.5246,3.9067,-0.0130313
260,20.573,3.90969,-0.01439
260.5,20.6203,3.86242,-0.01439
261,20.6657,3.75335,-0.01439
261.5,20.7118,3.55869,-0.0144122
262,20.7532,3.29038,-0.0147171
262.5,20.7982,2.93841,-0.01472
263,20.8427,2.62398,-0.0141036
263.5,20.8877,2.36989,-0.01406
264,20.9325,2.17213,-0.01406
264.5,20.978,2.02808,-0.01406
265,21.0228,1.92673,-0.0140653
265.5,21.0704,1.83897,-0.01438
266,21.1165,1.77915,-0.01438
266.5,21.1625,1.74052,-0.01438
267,21.2095,1.70887,-0.0143786
267.5,21.2573,1.68795,-0.0153699
268,21.3037,1.66556,-0.0143801
268.5,21.3513,1.65333,-0.0143943
269,21.3977,1.6372,-0.01471
269.5,21.4451,1.62645,-0.01471
270,21.4923,1.62077,-0.01471
270.5,21.5382,1.6161,-0.01471
271,21.586,1.60509,-0.01471
271.5,21.633,1.60857,-0.01471
272,21.6811,1.61513,-0.01471
272.5,21.7283,1.61756,-0.01471
273,21.7741,1.6145,-0.01471
273.5,21.8224,1.60737,-0.01471
274,21.869,1.61238,-0.0146977
274.5,21.9163,1.60031,-0.0153718
275,21.9627,1.60677,-0.0153735
275.5,22.0093,1.60359,-0.0154066
276,22.0594,1.60513,-0.01537
276.5,22.1063,1.6047,-0.014009
277,22.1528,1.60231,-0.01438
277.5,22.2001,1.60224,-0.01438
278,22.2489,1.60548,-0.01438
278.5,22.2962,1.60576,-0.0151887
279,22.3428,1.60862,-0.01702
279.5,22.3899,1.61225,-0.0170456
280,22.4384,1.61138,-0.0157
280.5,22.4856,1.61778,-0.0157
281,22.531,1.60936,-0.0156939
281.5,22.5809,1.61547,-0.0170169
282,22.6287,1.61983,-0.0156999
282.5,22.6754,1.6186,-0.0156978
283,22.7229,1.61826,-0.0157
283.5,22.7702,1.61293,-0.0157
284,22.8181,1.61301,-0.0157
284.5,22.8635,1.62336,-0.0157
285,22.9129,1.62495,-0.016361
285.5,22.9602,1.62711,-0.0164559
286,23.0081,1.62417,-0.01767
286.5,23.0551,1.61755,-0.0176661
287,23.103,1.62599,-0.0156979
287.5,23.1497,1.61884,-0.0157
288,23.1983,1.62793,-0.0167422
288.5,23.2435,1.62547,-0.0163696
289,23.2921,1.62624,-0.01504
289.5,23.3406,1.62543,-0.0163948
290,23.3886,1.62965,-0.01636
290.5,23.4363,1.63467,-0.01636
291,23.4834,1.63267,-0.01636
291.5,23.5303,1.63913,-0.01636
292,23.5797,1.64418,-0.01636
292.5,23.6264,1.64097,-0.0152767
293,23.6737,1.64492,-0.01636
293.5,23.7219,1.64993,-0.0163596
294,23.7694,1.64862,-0.0176815
294.5,23.8168,1.64968,-0.01768
295,23.8642,1.65336,-0.0176799
295.5,23.9122,1.6542,-0.0166904
296,23.9601,1.64729,-0.01669
296.5,24.0085,1.65574,-0.01669
297,24.0552,1.65106,-0.0167006
297.5,24.1037,1.65855,-0.018
298,24.1514,1.64433,-0.0179998
298.5,24.1987,1.64866,-0.0173407
299,24.2467,1.64677,-0.01735
299.5,24.2942,1.65562,-0.01735
300,24.342,1.65331,-0.01735
300.5,24.3898,1.65217,-0.01735
301,24.4369,1.65125,-0.01735
301.5,24.4848,1.64898,-0.0175849
302,24.5335,1.64828,-0.01932
302.5,24.5804,1.65054,-0.01932
303,24.6271,1.65446,-0.0193486
303.5,24.676,1.6534,-0.01801
304,24.7239,1.65897,-0.01801
304.5,24.7706,1.65795,-0.01801
305,24.8189,1.6555,-0.0180082
305.5,24.8668,1.65335,-0.01867
306,24.912,1.65182,-0.01867
306.5,24.9601,1.65344,-0.01867
307,25.009,1.6513,-0.01867
307.5,25.0571,1.65146,-0.01867
308,25.103,1.65189,-0.01867
308.5,25.1524,1.64514,-0.0186631
309,25.2005,1.65975,-0.01801
309.5,25.2482,1.65708,-0.01801
310,25.2955,1.65431,-0.0180102
310.5,25.3429,1.65618,-0.0193293
311,25.3904,1.65839,-0.0193299
311.5,25.4382,1.66237,-0.0206357
312,25.4851,1.66397,-0.02064
312.5,25.5329,1.65854,-0.02064
313,25.5822,1.66031,-0.02064
313.5,25.6291,1.66311,-0.02064
314,25.6745,1.65793,-0.0196605
314.5,25.7247,1.65997,-0.0196705
315,25.772,1.65956,-0.01933
315.5,25.8195,1.66663,-0.01933
316,25.8652,1.66714,-0.0206254
316.5,25.9158,1.66171,-0.02064
317,25.9639,1.65388,-0.02064
317.5,26.0111,1.65633,-0.02064
318,26.0584,1.66849,-0.0206328
318.5,26.1069,1.66246,-0.02195
319,26.1545,1.66622,-0.02195
319.5,26.2021,1.6671,-0.0212901
320,26.2491,1.67315,-0.02129
320.5,26.2981,1.67996,-0.02129
321,26.3467,1.67912,-0.0212887
321.5,26.394,1.68726,-0.0226093
322,26.4414,1.68885,-0.0226094
322.5,26.4901,1.68466,-0.0213007
323,26.5367,1.68205,-0.0223439
323.5,26.5852,1.6871,-0.0212901
324,26.6331,1.68147,-0.0239242
324.5,26.6803,1.691,-0.02393
325,26.7292,1.68771,-0.0239151
325.5,26.7767,1.68642,-0.02261
326,26.8247,1.69144,-0.02261
326.5,26.8717,1.6805,-0.02261
327,26.9196,1.68051,-0.02261
327.5,26.9676,1.6849,-0.0238856
328,27.0157,1.68435,-0.02393
328.5,27.0637,1.68462,-0.0242053
329,27.1111,1.67975,-0.0251454
329.5,27.1601,1.67271,-0.02393
330,27.2077,1.68374,-0.0239282
330.5,27.2558,1.69159,-0.0252503
331,27.3033,1.68983,-0.0265694
331.5,27.352,1.69493,-0.02657
332,27.3969,1.69796,-0.02657
332.5,27.4476,1.69611,-0.0266078
333,27.4947,1.70243,-0.02624
333.5,27.5429,1.70284,-0.02624
334,27.5907,1.70625,-0.0273681
334.5,27.6382,1.70759,-0.02756
335,27.6866,1.72108,-0.0270768
335.5,27.7342,1.71969,-0.02624
336,27.783,1.71848,-0.0252514
336.5,27.8315,1.72993,-0.02657
337,27.8791,1.72737,-0.02657
337.5,27.9272,1.73085,-0.0277078
338,27.9747,1.73891,-0.027889
338.5,28.0231,1.73872,-0.0291997
339,28.0706,1.75109,-0.0291961
339.5,28.1186,1.75851,-0.02821
340,28.1663,1.76686,-0.0286604
340.5,28.2148,1.76935,-0.0295301
341,28.2633,1.76997,-0.0308506
341.5,28.3106,1.77585,-0.03085
342,28.3592,1.78852,-0.0304704
342.5,28.4072,1.78805,-0.0309879
343,28.4553,1.79689,-0.0325022
343.5,28.5041,1.80781,-0.0324963
344,28.5513,1.80818,-0.0338199
344.5,28.5993,1.81726,-0.03382
345,28.6469,1.83012,-0.0338244
345.5,28.6954,1.83764,-0.0361512
346,28.7442,1.84622,-0.03612
346.5,28.7911,1.8569,-0.0362602
347,28.8398,1.8588,-0.03744
347.5,28.8871,1.8625,-0.03744
348,28.935,1.86707,-0.0387581
348.5,28.9836,1.8711,-0.0374459
349,29.0324,1.86811,-0.0387835
349.5,29.0793,1.86773,-0.0400801
350,29.128,1.88373,-0.0413914
350.5,29.176,1.88275,-0.0414394
351,29.2244,1.89086,-0.0400699
351.5,29.2723,1.89608,-0.0413913
352,29.3207,1.88853,-0.0427141
352.5,29.368,1.89408,-0.0440307
353,29.4164,1.89541,-0.0436998
353.5,29.4653,1.90327,-0.0450255
354,29.5123,1.89951,-0.0450392
354.5,29.5616,1.90026,-0.04633
355,29.6092,1.90261,-0.0463302
355.5,29.6574,1.90572,-0.047654
356,29.7055,1.9115,-0.0489698
356.5,29.7541,1.91879,-0.0502811
357,29.8023,1.92639,-0.0507176
357.5,29.8484,1.92523,-0.052915
358,29.898,1.93141,-0.0529103
358.5,29.9456,1.94035,-0.0529194
359,29.9941,1.94649,-0.0542635
359.5,30.0409,1.95338,-0.0544579
360,30.0908,1.96512,-0.0557858
360.5,30.1391,1.96543,-0.0572277
361,30.1879,1.98029,-0.0587432
361.5,30.2351,1.98307,-0.0608464
362,30.2843,1.97996,-0.0609049
362.5,30.3324,1.99364,-0.061645
363,30.3817,1.99886,-0.0621546
363.5,30.43,2.01045,-0.0647782
364,30.4773,2.02371,-0.0660211
364.5,30.5262,2.03944,-0.0674047
365,30.5741,2.05816,-0.0687147
365.5,30.6239,2.06677,-0.0703808
366,30.6722,2.07327,-0.0717851
366.5,30.72,2.09274,-0.0726686
367,30.769,2.10707,-0.0741211
367.5,30.8173,2.12077,-0.0770959
368,30.8657,2.15371,-0.0785765
368.5,30.9132,2.16837,-0.0802167
369,30.963,2.18425,-0.0826202
369.5,31.0116,2.20126,-0.0840738
370,31.0597,2.22142,-0.085604
370.5,31.1078,2.24548,-0.0885158
371,31.1563,2.257,-0.090257
371.5,31.2044,2.28103,-0.0923822
372,31.2534,2.29795,-0.0944066
372.5,31.3015,2.31953,-0.0960054
373,31.3495,2.34154,-0.0991679
373.5,31.3987,2.36349,-0.10231
374,31.4475,2.38803,-0.104976
374.5,31.4959,2.40846,-0.107648
375,31.5445,2.43982,-0.110679
375.5,31.5938,2.46466,-0.11362
376,31.642,2.49173,-0.117227
376.5,31.6894,2.52253,-0.119743
377,31.7384,2.54006,-0.121714
377.5,31.7865,2.56034,-0.125332
378,31.835,2.58532,-0.128301
378.5,31.8836,2.61229,-0.132593
379,31.933,2.64441,-0.136516
379.5,31.9817,2.66713,-0.139881
380,32.0292,2.70483,-0.143934
380.5,32.0767,2.72981,-0.147609
381,32.1271,2.75643,-0.15072
381.5,32.1765,2.79334,-0.15581
382,32.2247,2.81268,-0.160159
382.5,32.2736,2.85171,-0.166729
383,32.3227,2.88833,-0.170726
383.5,32.37,2.91542,-0.17381
384,32.42,2.94913,-0.178776
384.5,32.468,2.97709,-0.18565
385,32.5167,3.01884,-0.192232
385.5,32.5658,3.04448,-0.196723
386,32.614,3.08864,-0.202475
386.5,32.6637,3.12749,-0.207706
387,32.712,3.15912,-0.212445
387.5,32.7608,3.19317,-0.218222
388,32.81,3.2265,-0.225821
388.5,32.8594,3.25615,-0.23382
389,32.908,3.29579,-0.239899
389.5,32.957,3.33092,-0.246316
390,33.0028,3.36604,-0.252946
390.5,33.0534,3.38964,-0.260128
391,33.1026,3.42952,-0.26775
391.5,33.1521,3.45889,-0.275083
392,33.2009,3.50074,-0.281222
392.5,33.249,3.53341,-0.288542
393,33.298,3.56938,-0.296643
393.5,33.3473,3.60307,-0.306368
394,33.3954,3.63221,-0.314845
394.5,33.4446,3.66646,-0.323103
395,33.4935,3.68807,-0.331247
395.5,33.5425,3.73003,-0.341574
396,33.5916,3.75974,-0.350199
396.5,33.6401,3.78821,-0.360954
397,33.6897,3.82267,-0.372025
397.5,33.7381,3.84085,-0.381142
398,33.7867,3.87341,-0.391279
398.5,33.8366,3.90654,-0.401353
399,33.8848,3.93358,-0.412012
399.5,33.9337,3.96545,-0.422532
400,33.9822,3.99192,-0.433559
400.5,34.0313,4.01506,-0.444649
401,34.0804,4.03302,-0.455528
401.5,34.1285,4.06101,-0.465911
402,34.1776,4.07717,-0.478538
402.5,34.2247,4.09468,-0.488704
403,34.2756,4.12901,-0.501246
403.5,34.3247,4.14099,-0.513869
404,34.3735,4.15426,-0.526513
404.5,34.422,4.16322,-0.537187
405,34.4704,4.17353,-0.549011
405.5,34.5192,4.17925,-0.561831
406,34.5685,4.18591,-0.574468
406.5,34.6169,4.19612,-0.587491
407,34.6646,4.21188,-0.601563
407.5,34.7147,4.21145,-0.614744
408,34.7616,4.21323,-0.628692
408.5,34.8095,4.22057,-0.641875
409,34.8599,4.22041,-0.654107
409.5,34.9075,4.21806,-0.666961
410,34.957,4.21116,-0.681365
410.5,35.006,4.20654,-0.696894
411,35.0538,4.19926,-0.71095
411.5,35.1024,4.20209,-0.725204
412,35.1514,4.20141,-0.738938
412.5,35.198,4.20228,-0.75151
413,35.2496,4.1893,-0.767169
413.5,35.2967,4.18562,-0.781007
414,35.3449,4.17719,-0.795512
414.5,35.3935,4.17623,-0.810907
415,35.4417,4.1586,-0.825754
415.5,35.4901,4.15261,-0.839645
416,35.5391,4.14963,-0.856061
416.5,35.5885,4.1359,-0.870385
417,35.6357,4.12809,-0.884992
417.5,35.6844,4.11468,-0.900586
418,35.7328,4.1008,-0.915195
418.5,35.7814,4.08945,-0.931129
419,35.8299,4.08152,-0.946152
419.5,35.8784,4.06415,-0.961299
420,35.927,4.04605,-0.977086
420.5,35.9765,4.03163,-0.993265
421,36.0235,4.01427,-1.00917
421.5,36.0726,3.9952,-1.02497
422,36.1211,3.97367,-1.04053
422.5,36.1695,3.96038,-1.05511
423,36.2188,3.9391,-1.07291
423.5,36.2662,3.92263,-1.08809
424,36.3144,3.89139,-1.10363
424.5,36.3635,3.87123,-1.12062
425,36.4119,3.84059,-1.13501
425.5,36.46,3.81868,-1.15108
426,36.508,3.78396,-1.16775
426.5,36.557,3.75369,-1.18481
427,36.6053,3.7243,-1.20213
427.5,36.6537,3.68279,-1.21778
428,36.7022,3.6545,-1.23136
428.5,36.7511,3.61314,-1.24743
429,36.7992,3.57636,-1.26364
429.5,36.8456,3.53484,-1.28034
430,36.8962,3.50087,-1.29663
430.5,36.9441,3.45405,-1.31178
431,36.9921,3.41266,-1.32668
431.5,37.0404,3.37581,-1.34165
432,37.0882,3.3288,-1.35691
432.5,37.1354,3.27388,-1.37317
433,37.1849,3.22885,-1.38787
433.5,37.2326,3.17824,-1.40215
434,37.2808,3.11996,-1.41774
434.5,37.331,3.06283,-1.43257
435,37.3783,3.0163,-1.4477
435.5,37.4263,2.96,-1.46043
436,37.4753,2.89863,-1.47664
436.5,37.5228,2.83485,-1.48993
437,37.5719,2.77527,-1.50325
437.5,37.6189,2.7155,-1.51656
438,37.6673,2.65667,-1.52896
438.5,37.7169,2.59101,-1.54283
439,37.7616,2.53094,-1.55618
439.5,37.8121,2.48262,-1.56814
440,37.8608,2.41039,-1.58068
440.5,37.9093,2.35687,-1.5929
441,37.957,2.3,-1.60368
441.5,38.0067,2.24474,-1.61542
442,38.0542,2.19044,-1.62611
442.5,38.1023,2.13714,-1.63735
443,38.1502,2.0862,-1.64878
443.5,38.1992,2.0342,-1.65884
444,38.2474,1.98641,-1.6686
444.5,38.2965,1.94046,-1.67951
445,38.3443,1.9006,-1.69038
445.5,38.3908,1.84992,-1.69937
446,38.4411,1.82051,-1.70897
446.5,38.4894,1.76619,-1.71834
447,38.5375,1.73184,-1.72742
447.5,38.5865,1.69814,-1.73833
448,38.6359,1.68337,-1.74804
448.5,38.6834,1.64638,-1.75743
449,38.7321,1.62496,-1.76563
449.5,38.7815,1.5992,-1.77382
450,38.8294,1.5762,-1.78238
450.5,38.8786,1.5588,-1.79137
451,38.9273,1.53948,-1.79995
451.5,38.9762,1.51763,-1.80777
452,39.025,1.50636,-1.81653
452.5,39.0741,1.49459,-1.82548
453,39.1225,1.48259,-1.83502
453.5,39.1717,1.47283,-1.84384
454,39.2204,1.46258,-1.85143
454.5,39.2693,1.44745,-1.85967
455,39.318,1.44616,-1.86916
455.5,39.3675,1.44074,-1.8772
456,39.4164,1.43067,-1.88658
456.5,39.4658,1.41984,-1.8942
457,39.5142,1.41787,-1.90197
457.5,39.5613,1.41063,-1.91027
458,39.6121,1.40998,-1.91819
458.5,39.6606,1.40354,-1.92814
459,39.7102,1.40589,-1.93635
459.5,39.7592,1.40304,-1.94445
460,39.8086,1.40012,-1.95288
460.5,39.8567,1.39988,-1.96252
461,39.9062,1.39695,-1.97211
461.5,39.9556,1.39263,-1.98027
462,40.0043,1.3863,-1.9891
462.5,40.0542,1.38666,-1.9981
463,40.1024,1.37367,-2.00745
463.5,40.1513,1.37562,-2.01584
464,40.2011,1.36347,-2.02366
464.5,40.2482,1.36508,-2.03241
465,40.2988,1.36265,-2.04294
465.5,40.3482,1.35445,-2.05281
466,40.3971,1.34548,-2.06198
466.5,40.4464,1.34375,-2.07214
467,40.4952,1.34655,-2.08121
467.5,40.5446,1.32849,-2.09052
468,40.5942,1.33087,-2.10081
468.5,40.6431,1.32317,-2.11049
469,40.6912,1.31583,-2.11934
469.5,40.7405,1.31156,-2.12811
470,40.7901,1.31091,-2.13747
470.5,40.8389,1.30473,-2.14813
471,40.888,1.30052,-2.15743
471.5,40.9369,1.29146,-2.1663
472,40.9862,1.29131,-2.17688
472.5,41.0336,1.28774,-2.18686
473,41.0841,1.28098,-2.19827
473.5,41.1332,1.27582,-2.20819
474,41.1819,1.27199,-2.21804
474.5,41.2313,1.26689,-2.22729
475,41.2791,1.26153,-2.23622
475.5,41.3298,1.24877,-2.24598
476,41.3791,1.2465,-2.25753
476.5,41.4268,1.23452,-2.26713
477,41.4756,1.22773,-2.27681
477.5,41.5247,1.21939,-2.28673
478,41.5731,1.2099,-2.2968
478.5,41.6229,1.19884,-2.30944
479,41.6699,1.18598,-2.31983
479.5,41.7201,1.17035,-2.33009
480,41.7696,1.15966,-2.33928
480.5,41.8178,1.13788,-2.34988
481,41.867,1.1252,-2.36052
481.5,41.9156,1.11269,-2.36959
482,41.9651,1.08356,-2.379
482.5,42.0144,1.07065,-2.39005
483,42.063,1.04441,-2.40073
483.5,42.1117,1.02433,-2.41003
484,42.1602,1.00464,-2.41813
484.5,42.2094,0.977882,-2.42716
485,42.2565,0.94826,-2.43646
485.5,42.3075,0.920006,-2.44563
486,42.3568,0.900872,-2.45415
486.5,42.405,0.860757,-2.4626
487,42.4549,0.83727,-2.47109
487.5,42.5034,0.802949,-2.47957
488,42.5523,0.783136,-2.48786
488.5,42.6014,0.749046,-2.49411
489,42.6509,0.72071,-2.50056
489.5,42.6992,0.680871,-2.508
490,42.7486,0.654275,-2.51435
490.5,42.7965,0.620843,-2.52055
491,42.846,0.599673,-2.52507
491.5,42.8947,0.554379,-2.53056
492,42.9444,0.534378,-2.5346
492.5,42.9924,0.499112,-2.53907
493,43.042,0.476549,-2.54284
493.5,43.0895,0.451235,-2.54677
494,43.1412,0.420932,-2.55004
494.5,43.1896,0.387507,-2.55287
495,43.2381,0.369955,-2.55553
495.5,43.2871,0.346173,-2.55811
496,43.3374,0.331723,-2.56145
496.5,43.3862,0.308493,-2.56231
497,43.4356,0.283939,-2.56359
497.5,43.4841,0.276635,-2.56573
498,43.5341,0.269358,-2.56775
498.5,43.583,0.254439,-2.56914
499,43.6321,0.250695,-2.56925
499.5,43.6815,0.249552,-2.56925
500,43.7304,0.237374,-2.57036
500.5,43.7797,0.237982,-2.57057
501,43.8294,0.225596,-2.57057
501.5,43.8785,0.217023,-2.57056
502,43.928,0.202083,-2.57188
502.5,43.9772,0.203429,-2.57188
503,44.0273,0.201389,-2.57321
503.5,44.076,0.201601,-2.57458
504,44.1249,0.198389,-2.5732
504.5,44.1744,0.209685,-2.57455
505,44.2237,0.207113,-2.57452
505.5,44.2745,0.206732,-2.57452
506,44.3228,0.212075,-2.57452
506.5,44.3723,0.213128,-2.57583
507,44.4226,0.222218,-2.57583
507.5,44.4716,0.216928,-2.57583
508,44.5223,0.215275,-2.57583
508.5,44.5698,0.217462,-2.57583
509,44.6203,0.216063,-2.57583
509.5,44.6691,0.216733,-2.57583
510,44.7193,0.218964,-2.57715
510.5,44.7675,0.227209,-2.57715
511,44.8172,0.228647,-2.57715
511.5,44.8666,0.223239,-2.57715
512,44.9148,0.228052,-2.57715
512.5,44.9635,0.225582,-2.57715
513,45.0143,0.222126,-2.57715
513.5,45.0639,0.221032,-2.57715
514,45.1136,0.221259,-2.57814
514.5,45.1625,0.224964,-2.57814
515,45.2128,0.22119,-2.57814
515.5,45.2611,0.22726,-2.57846
516,45.3095,0.219693,-2.57748
516.5,45.3597,0.227429,-2.57748
517,45.4087,0.220626,-2.57748
517.5,45.4591,0.222303,-2.57749
518,45.5077,0.223471,-2.5788
518.5,45.5575,0.222112,-2.5788
519,45.6072,0.220881,-2.5788
519.5,45.6561,0.219654,-2.5788
520,45.7061,0.217287,-2.5788
520.5,45.7551,0.213229,-2.5788
521,45.805,0.210402,-2.57882
521.5,45.854,0.211143,-2.57847
522,45.9035,0.215355,-2.57847
522.5,45.9526,0.203451,-2.57847
523,46.0027,0.201447,-2.57872
523.5,46.0519,0.196466,-2.57978
524,46.1013,0.193368,-2.57978
524.5,46.1504,0.18904,-2.57978
525,46.1999,0.189998,-2.57978
525.5,46.2505,0.188687,-2.57978
526,46.2993,0.188391,-2.57978
526.5,46.35,0.192704,-2.57945
527,46.3988,0.183395,-2.57945
527.5,46.4488,0.175823,-2.58011
528,46.4987,0.171729,-2.58077
528.5,46.5477,0.17127,-2.58077
529,46.5966,0.172136,-2.57978
529.5,46.6464,0.168055,-2.57903
530,46.696,0.170086,-2.57846
530.5,46.7451,0.160601,-2.57846
531,46.7947,0.157877,-2.57978
531.5,46.8448,0.148189,-2.57978
532,46.8931,0.1533,-2.57978
532.5,46.9427,0.151636,-2.57978
533,46.9925,0.15338,-2.57912
533.5,47.0428,0.148686,-2.57912
534,47.091,0.148558,-2.57912
534.5,47.1413,0.150472,-2.57795
535,47.1911,0.144373,-2.5778
535.5,47.2407,0.140956,-2.57912
536,47.2895,0.143205,-2.57912
536.5,47.3384,0.144114,-2.57912
537,47.3898,0.147354,-2.57912
537.5,47.4388,0.136696,-2.57913
538,47.4885,0.139448,-2.57978
538.5,47.5375,0.141693,-2.57978
539,47.588,0.131198,-2.5811
539.5,47.6381,0.134397,-2.58014
540,47.6869,0.1357,-2.57979
540.5,47.737,0.134109,-2.57979
541,47.7863,0.140623,-2.58028
541.5,47.8365,0.134036,-2.58078
542,47.8854,0.127385,-2.58078
542.5,47.9355,0.126592,-2.58078
543,47.9846,0.127148,-2.58078
543.5,48.0343,0.122054,-2.58078
544,48.0843,0.124836,-2.57946
544.5,48.1329,0.122052,-2.57973
545,48.183,0.122515,-2.57979
545.5,48.2322,0.119899,-2.57979
546,48.2811,0.117212,-2.57979
546.5,48.331,0.114476,-2.58112
547,48.3801,0.111617,-2.58002
547.5,48.4301,0.105318,-2.57978
548,48.4799,0.100445,-2.5811
548.5,48.5292,0.0974346,-2.5811
549,48.5785,0.102036,-2.5811
549.5,48.6285,0.106518,-2.5811
550,48.679,0.0965048,-2.57979
550.5,48.7275,0.101138,-2.57979
551,48.778,0.103171,-2.57913
551.5,48.8264,0.102127,-2.57913
552,48.8771,0.0974658,-2.57913
552.5,48.9264,0.0965188,-2.57946
553,48.975,0.10223,-2.57945
553.5,49.0251,0.105924,-2.58078
554,49.0761,0.0976011,-2.57959
554.5,49.1248,0.0976423,-2.57979
555,49.1748,0.0918111,-2.57979
555.5,49.2246,0.0926533,-2.57979
556,49.2742,0.0892323,-2.57979
556.5,49.3239,0.0995819,-2.57979
557,49.3731,0.0934332,-2.58044
557.5,49.4224,0.0937623,-2.58044
558,49.4738,0.0923101,-2.58044
558.5,49.5224,0.101833,-2.58044
559,49.5724,0.08723,-2.58044
559.5,49.622,0.0840578,-2.57949
560,49.6715,0.0859397,-2.57912
560.5,49.7216,0.0849372,-2.57977
561,49.7717,0.0923708,-2.57978
561.5,49.8216,0.0802622,-2.58033
562,49.8709,0.0887372,-2.58077
562.5,49.9217,0.0825618,-2.58077
563,49.9698,0.0829076,-2.57953
563.5,50.0176,0.0827169,-2.57945
564,50.0699,0.0806939,-2.57943
564.5,50.1201,0.0782116,-2.58011
565,50.1698,0.0777279,-2.57925
565.5,50.2196,0.0774546,-2.57879
566,50.2697,0.0718644,-2.57879
566.5,50.3187,0.0595046,-2.57945
567,50.3681,0.0732693,-2.57945
567.5,50.4188,0.0652814,-2.57945
568,50.4679,0.0558003,-2.57945
568.5,50.5182,0.054308,-2.58077
569,50.5653,0.0605351,-2.58077
569.5,50.6174,0.0609398,-2.58077
570,50.6673,0.0570692,-2.58077
570.5,50.7168,0.0520642,-2.58077
571,50.7667,0.0552505,-2.58077
571.5,50.816,0.0591316,-2.58077
572,50.8643,0.0509803,-2.5811
572.5,50.9161,0.0535612,-2.58015
573,50.965,0.0498096,-2.58012
573.5,51.0154,0.0437339,-2.58012
574,51.0651,0.0484387,-2.58012
574.5,51.1155,0.0433154,-2.58012
575,51.1647,0.0459651,-2.58012
575.5,51.2139,0.048036,-2.58012
576,51.2651,0.045212,-2.58012
576.5,51.3137,0.0399204,-2.58012
577,51.3646,0.0391994,-2.58012
577.5,51.4133,0.0323797,-2.58012
578,51.4632,0.0447003,-2.58012
578.5,51.5107,0.0348033,-2.58011
579,51.5622,0.0344055,-2.58078
579.5,51.612,0.035577,-2.58078
580,51.6617,0.039413,-2.58078
580.5,51.7115,0.0435339,-2.58078
581,51.7611,0.0345927,-2.58078
581.5,51.8111,0.0355924,-2.58078
582,51.8618,0.0329561,-2.57946
582.5,51.9104,0.0325476,-2.57946
583,51.9611,0.0354443,-2.57946
583.5,52.0106,0.0275167,-2.57946
584,52.0598,0.0210724,-2.58077
584.5,52.1092,0.0247539,-2.58189
585,52.1602,0.0208447,-2.58209
585.5,52.209,0.0183501,-2.58177
586,52.2594,0.0167813,-2.58077
586.5,52.3092,0.0167344,-2.58077
587,52.3578,0.0107544,-2.58077
587.5,52.4081,0.00831282,-2.58077
588,52.4586,0.00511759,-2.58077
588.5,52.5072,0.00202738,-2.58077
589,52.558,0.00145737,-2.58077
589.5,52.6086,7.45348e-05,-2.58077
590,52.6581,0.00180207,-2.58077
590.5,52.7078,-0.00116033,-2.58176
591,52.7569,0.000592023,-2.58176
591.5,52.8082,-0.00601467,-2.58176
592,52.8569,-0.00932249,-2.58176
592.5,52.907,-0.0128833,-2.58175
593,52.9567,-0.0110849,-2.58044
593.5,53.0065,-0.0131352,-2.58077
594,53.0572,-0.0145421,-2.58096
594.5,53.1047,-0.0172805,-2.58143
595,53.1577,-0.0150153,-2.58143
595.5,53.2075,-0.0163763,-2.58242
596,53.2551,-0.0134326,-2.58242
596.5,53.3046,-0.0202896,-2.58142
597,53.3568,-0.00838149,-2.5811
597.5,53.4067,-0.0222144,-2.5811
598,53.4564,-0.0143598,-2.58106
598.5,53.5073,-0.025,-2.58143
599,53.5569,-0.0125472,-2.58143
599.5,53.6065,-0.0199014,-2.58143
600,53.6574,-0.0249491,-2.58143
600.5,53.7071,-0.0230598,-2.58143
601,53.7552,-0.0193088,-2.58143
601.5,53.8047,-0.0241401,-2.58209
602,53.8568,-0.0120829,-2.58205
602.5,53.9089,-0.0227044,-2.58177
603,53.9579,-0.025772,-2.58176
603.5,54.0072,-0.0241428,-2.58176
604,54.0572,-0.0339084,-2.58176
604.5,54.1085,-0.028236,-2.58176
605,54.1586,-0.0324044,-2.58177
605.5,54.2093,-0.0367069,-2.58209
606,54.2581,-0.0353049,-2.58209
606.5,54.3088,-0.0406223,-2.58209
607,54.3591,-0.0385453,-2.58279
607.5,54.4088,-0.0427613,-2.58307
608,54.4582,-0.04301,-2.58307
608.5,54.5091,-0.0435283,-2.58176
609,54.5602,-0.0471649,-2.58176
609.5,54.6098,-0.0506291,-2.58176
610,54.6606,-0.0421731,-2.58176
610.5,54.7096,-0.0471537,-2.58309
611,54.7603,-0.0434876,-2.58343
611.5,54.8095,-0.0508604,-2.5823
612,54.8603,-0.0588198,-2.58209
612.5,54.9105,-0.0551777,-2.58209
613,54.9601,-0.0521673,-2.5821
613.5,55.0109,-0.0569419,-2.58432
614,55.0607,-0.0613684,-2.58439
614.5,55.1104,-0.0562223,-2.58439
615,55.1606,-0.0529537,-2.58446
615.5,55.2098,-0.0635131,-2.58571
616,55.2615,-0.0602266,-2.58439
616.5,55.3118,-0.0636877,-2.58373
617,55.361,-0.0684958,-2.58378
617.5,55.4122,-0.0669413,-2.5844
618,55.4632,-0.076327,-2.5844
618.5,55.5094,-0.0770853,-2.58275
619,55.5634,-0.0785247,-2.58275
619.5,55.6105,-0.0795402,-2.58275
620,55.6635,-0.0884892,-2.58275
620.5,55.7137,-0.0889037,-2.58375
621,55.763,-0.100085,-2.58508
621.5,55.8136,-0.103886,-2.58506
622,55.864,-0.0977155,-2.58506
622.5,55.9133,-0.103614,-2.58506
623,55.9653,-0.113516,-2.58372
623.5,56.014,-0.11671,-2.58374
624,56.0643,-0.114422,-2.58374
624.5,56.1137,-0.114409,-2.58374
625,56.1645,-0.116043,-2.58374
625.5,56.2146,-0.116866,-2.58374
626,56.2646,-0.119506,-2.58374
626.5,56.313,-0.120963,-2.58374
627,56.3652,-0.128367,-2.58508
627.5,56.4153,-0.124243,-2.58505
628,56.4663,-0.131237,-2.58505
628.5,56.5162,-0.130692,-2.58505
629,56.5649,-0.131598,-2.58505
629.5,56.6166,-0.13036,-2.58505
630,56.6664,-0.132603,-2.58506
630.5,56.7163,-0.13992,-2.58538
631,56.7668,-0.144017,-2.58538
631.5,56.817,-0.145052,-2.58538
632,56.8664,-0.145944,-2.58538
632.5,56.9167,-0.144452,-2.58538
633,56.9673,-0.153475,-2.58538
633.5,57.0172,-0.150203,-2.58538
634,57.0675,-0.153924,-2.58539
634.5,57.1156,-0.154403,-2.5867
635,57.1681,-0.158563,-2.5867
635.5,57.2179,-0.158695,-2.5867
636,57.2691,-0.157633,-2.58637
636.5,57.3188,-0.172453,-2.58473
637,57.3699,-0.169657,-2.58374
637.5,57.4201,-0.169113,-2.58506
638,57.4696,-0.168668,-2.58641
638.5,57.5208,-0.18124,-2.58638
639,57.5709,-0.180948,-2.58768
639.5,57.622,-0.181777,-2.58769
640,57.6719,-0.182433,-2.58668
640.5,57.7227,-0.185316,-2.58638
641,57.7731,-0.197115,-2.58638
641.5,57.8231,-0.203331,-2.5877
642,57.8731,-0.202612,-2.58772
642.5,57.9232,-0.210662,-2.58507
643,57.9742,-0.217999,-2.58544
643.5,58.0245,-0.214483,-2.58635
644,58.0746,-0.213592,-2.58638
644.5,58.1254,-0.217505,-2.58657
645,58.1753,-0.217408,-2.58637
645.5,58.2256,-0.216661,-2.58637
646,58.2763,-0.220821,-2.58637
646.5,58.3258,-0.219436,-2.58739
647,58.3764,-0.224743,-2.58772
647.5,58.427,-0.228191,-2.58747
648,58.4745,-0.224156,-2.58769
648.5,58.5269,-0.232083,-2.58769
649,58.5767,-0.234037,-2.58767
649.5,58.6276,-0.233807,-2.58637
650,58.6774,-0.239485,-2.58638
650.5,58.7281,-0.239333,-2.58868
651,58.7781,-0.237411,-2.58868
651.5,58.829,-0.252535,-2.58868
652,58.8782,-0.24998,-2.58769
652.5,58.9279,-0.252112,-2.5864
653,58.9788,-0.250614,-2.58736
653.5,59.0288,-0.252324,-2.58747
654,59.0797,-0.257068,-2.58848
654.5,59.1297,-0.260327,-2.58879
655,59.1794,-0.257064,-2.58879
655.5,59.2297,-0.266529,-2.58879
656,59.28,-0.262883,-2.58747
656.5,59.3298,-0.268378,-2.58747
657,59.3801,-0.267652,-2.58747
657.5,59.4305,-0.26971,-2.58844
658,59.4796,-0.271372,-2.58978
658.5,59.5302,-0.277887,-2.58978
659,59.5808,-0.272428,-2.58978
659.5,59.6304,-0.266719,-2.58912
660,59.6803,-0.260256,-2.58747
660.5,59.7308,-0.270117,-2.58747
661,59.781,-0.277556,-2.58878
661.5,59.8301,-0.272213,-2.58878
662,59.881,-0.269874,-2.58878
662.5,59.93,-0.270224,-2.58878
663,59.9807,-0.278302,-2.58878
663.5,60.0316,-0.283224,-2.58877
664,60.0801,-0.282767,-2.5901
664.5,60.1316,-0.280332,-2.58875
665,60.1814,-0.282199,-2.58885
665.5,60.2316,-0.286173,-2.58977
666,60.2819,-0.287153,-2.58977
666.5,60.3317,-0.28393,-2.58977
667,60.3829,-0.292055,-2.58977
667.5,60.4331,-0.285298,-2.58978
668,60.483,-0.28174,-2.58845
668.5,60.5326,-0.285172,-2.58845
669,60.5841,-0.293703,-2.58845
669.5,60.6338,-0.299779,-2.58845
670,60.6843,-0.297793,-2.58845
670.5,60.7337,-0.299766,-2.58845
671,60.7844,-0.293602,-2.58845
671.5,60.835,-0.29802,-2.58878
672,60.8852,-0.306337,-2.58878
672.5,60.9347,-0.301743,-2.58878
673,60.9861,-0.301347,-2.58878
673.5,61.0358,-0.29983,-2.58879
674,61.0866,-0.29859,-2.5901
674.5,61.137,-0.298632,-2.5901
675,61.1876,-0.308414,-2.5901
675.5,61.2377,-0.299257,-2.59076
676,61.2876,-0.299171,-2.59076
676.5,61.3382,-0.296645,-2.58978
677,61.3898,-0.290111,-2.58978
677.5,61.4402,-0.288666,-2.58978
678,61.4903,-0.290546,-2.58978
678.5,61.5405,-0.279864,-2.58978
679,61.5913,-0.298397,-2.5902
679.5,61.6412,-0.28859,-2.59008
680,61.6916,-0.294568,-2.59142
680.5,61.7426,-0.292719,-2.59051
681,61.7924,-0.285152,-2.59011
681.5,61.8425,-0.290667,-2.59011
682,61.8939,-0.300594,-2.59011
682.5,61.9427,-0.297015,-2.59104
683,61.9921,-0.304402,-2.59142
683.5,62.0442,-0.300071,-2.59109
684,62.095,-0.299573,-2.59109
684.5,62.1452,-0.298141,-2.59109
685,62.1957,-0.298454,-2.59109
685.5,62.2453,-0.294088,-2.59109
686,62.2965,-0.295359,-2.5916
686.5,62.3468,-0.304775,-2.59241
687,62.3985,-0.294212,-2.59241
687.5,62.4487,-0.298439,-2.59143
688,62.4985,-0.29838,-2.5901
688.5,62.549,-0.305199,-2.59076
689,62.5992,-0.297503,-2.59076
689.5,62.6501,-0.303556,-2.59109
690,62.7002,-0.299922,-2.59113
690.5,62.7508,-0.304498,-2.59076
691,62.8012,-0.300557,-2.59076
691.5,62.852,-0.306293,-2.5901
692,62.9004,-0.298353,-2.5901
692.5,62.953,-0.298063,-2.59043
693,63.0031,-0.297402,-2.59043
693.5,63.0547,-0.304323,-2.59043
694,63.1056,-0.300329,-2.59051
694.5,63.1557,-0.304804,-2.59142
695,63.2066,-0.310593,-2.59142
695.5,63.2564,-0.317372,-2.59142
696,63.3075,-0.316839,-2.59142
696.5,63.3572,-0.310514,-2.59142
697,63.4081,-0.314048,-2.59142
697.5,63.4587,-0.30292,-2.59142
698,63.5098,-0.30537,-2.59142
698.5,63.5606,-0.308069,-2.59142
699,63.6105,-0.310479,-2.59142
699.5,63.6617,-0.304236,-2.59009
700,63.7121,-0.30302,-2.59011
700.5,63.7622,-0.303233,-2.59011
701,63.8111,-0.30639,-2.59077
701.5,63.8639,-0.307628,-2.59077
702,63.9148,-0.310389,-2.59077
702.5,63.9641,-0.318864,-2.59077
703,64.0151,-0.316272,-2.59011
703.5,64.0657,-0.307069,-2.59011
704,64.1157,-0.307759,-2.59011
704.5,64.1674,-0.30968,-2.59143
705,64.2177,-0.305954,-2.5914
705.5,64.2669,-0.306026,-2.59176
706,64.318,-0.30256,-2.59176
706.5,64.3682,-0.306644,-2.59176
707,64.42,-0.307299,-2.59307
707.5,64.4711,-0.304949,-2.59175
708,64.5212,-0.313264,-2.59175
708.5,64.5715,-0.311389,-2.59175
709,64.6218,-0.319252,-2.59175
709.5,64.6727,-0.318492,-2.59175
710,64.7225,-0.32546,-2.59175
710.5,64.7741,-0.325813,-2.59177
711,64.824,-0.325721,-2.59307
711.5,64.8748,-0.315199,-2.59307
712,64.9246,-0.320076,-2.59307
712.5,64.9752,-0.325964,-2.59307
713,65.0255,-0.322683,-2.59288
713.5,65.0755,-0.32308,-2.59043
714,65.1263,-0.319692,-2.59175
714.5,65.1778,-0.320258,-2.59176
715,65.228,-0.313312,-2.59326
715.5,65.2792,-0.313687,-2.5934
716,65.329,-0.317833,-2.5934
716.5,65.3796,-0.312835,-2.5934
717,65.43,-0.315726,-2.5934
717.5,65.4807,-0.302184,-2.59439
718,65.531,-0.302579,-2.59439
718.5,65.5817,-0.302304,-2.59307
719,65.6317,-0.300432,-2.59339
719.5,65.6838,-0.296678,-2.5934
720,65.7343,-0.293294,-2.5934
720.5,65.7846,-0.293714,-2.5934
721,65.8347,-0.291529,-2.5934
721.5,65.8861,-0.296743,-2.5934
722,65.9367,-0.291771,-2.59341
722.5,65.9864,-0.291413,-2.59372
723,66.0374,-0.293397,-2.59239
723.5,66.0881,-0.303235,-2.5924
724,66.1395,-0.298721,-2.5924
724.5,66.1878,-0.308435,-2.59372
725,66.2404,-0.298689,-2.59372
725.5,66.2913,-0.300888,-2.59241
726,66.3412,-0.29643,-2.59242
726.5,66.3923,-0.292935,-2.59372
727,66.4432,-0.289035,-2.5937
727.5,66.4941,-0.286996,-2.59373
728,66.5439,-0.289215,-2.59373
728.5,66.595,-0.286153,-2.59509
729,66.6461,-0.288932,-2.59504
729.5,66.6969,-0.284048,-2.59373
730,66.7459,-0.279062,-2.59373
730.5,66.7987,-0.276149,-2.59373
731,66.8487,-0.283017,-2.59373
731.5,66.8993,-0.286155,-2.59439
732,66.9496,-0.284686,-2.59439
732.5,66.9999,-0.2836,-2.59511
733,67.0503,-0.288866,-2.59385
733.5,67.1013,-0.285134,-2.59373
734,67.1521,-0.28739,-2.59373
734.5,67.2029,-0.287674,-2.59373
735,67.2525,-0.27994,-2.59367
735.5,67.3031,-0.291932,-2.59504
736,67.3545,-0.286672,-2.59434
736.5,67.4042,-0.296598,-2.5934
737,67.4548,-0.293319,-2.5934
737.5,67.505,-0.29166,-2.5934
738,67.5538,-0.289525,-2.59472
738.5,67.6054,-0.287856,-2.5934
739,67.6565,-0.276735,-2.59341
739.5,67.7069,-0.281159,-2.59471
740,67.7573,-0.283419,-2.59347
740.5,67.807,-0.279039,-2.59415
741,67.8573,-0.281366,-2.59471
741.5,67.9089,-0.28357,-2.59471
742,67.9596,-0.279897,-2.59471
742.5,68.0085,-0.280219,-2.59471
743,68.0615,-0.283956,-2.59471
743.5,68.1109,-0.275683,-2.59441
744,68.1612,-0.278854,-2.5934
744.5,68.2118,-0.272341,-2.5934
745,68.2636,-0.270329,-2.59439
745.5,68.3128,-0.270791,-2.59439
746,68.3642,-0.277548,-2.59473
746.5,68.4144,-0.287479,-2.59472
747,68.4646,-0.285201,-2.59472
747.5,68.5157,-0.287196,-2.59472
748,68.5662,-0.281548,-2.59469
748.5,68.6177,-0.271969,-2.59604
749,68.6682,-0.276132,-2.59606
749.5,68.7187,-0.274532,-2.59472
750,68.769,-0.286296,-2.59472
750.5,68.8207,-0.276763,-2.59472
751,68.8708,-0.267133,-2.59472
751.5,68.9215,-0.27707,-2.59472
752,68.9717,-0.278068,-2.59472
752.5,69.0223,-0.279727,-2.59613
753,69.0737,-0.283013,-2.59702
753.5,69.1244,-0.28183,-2.5968
754,69.1749,-0.277546,-2.5957
754.5,69.2252,-0.283916,-2.59504
755,69.2765,-0.276282,-2.59504
755.5,69.3264,-0.274493,-2.59504
756,69.377,-0.274176,-2.59504
756.5,69.4274,-0.275843,-2.59504
757,69.4776,-0.274978,-2.59539
757.5,69.5295,-0.276004,-2.59537
758,69.5791,-0.281501,-2.59537
758.5,69.6308,-0.279678,-2.59537
759,69.6807,-0.274124,-2.5957
759.5,69.7316,-0.266017,-2.5955
760,69.7825,-0.283193,-2.5944
760.5,69.8325,-0.277371,-2.59471
761,69.8834,-0.288968,-2.59603
761.5,69.9345,-0.28728,-2.59603
762,69.9851,-0.290306,-2.59471
762.5,70.0355,-0.292358,-2.59471
763,70.0856,-0.284752,-2.59471
763.5,70.1363,-0.281731,-2.59472
764,70.1879,-0.287664,-2.5957
764.5,70.2372,-0.282512,-2.5957
765,70.2887,-0.288075,-2.5957
765.5,70.3386,-0.283835,-2.5957
766,70.3889,-0.284127,-2.59557
766.5,70.4399,-0.288942,-2.59505
767,70.4914,-0.285608,-2.59505
767.5,70.5412,-0.293169,-2.59625
768,70.5921,-0.28628,-2.59637
768.5,70.6425,-0.288256,-2.59637
769,70.6908,-0.284035,-2.59637
769.5,70.7419,-0.277592,-2.59637
770,70.7948,-0.271534,-2.59637
770.5,70.8435,-0.274056,-2.59637
771,70.8965,-0.27653,-2.59637
771.5,70.9461,-0.285836,-2.59637
772,70.9971,-0.286077,-2.59604
772.5,71.0481,-0.290847,-2.59604
773,71.0982,-0.293454,-2.59735
773.5,71.1489,-0.287881,-2.59735
774,71.1999,-0.280716,-2.59601
774.5,71.2502,-0.281255,-2.59603
775,71.3011,-0.280579,-2.59603
775.5,71.3517,-0.289698,-2.59603
776,71.4029,-0.278609,-2.59603
776.5,71.4534,-0.288772,-2.59602
777,71.5037,-0.293774,-2.59735
777.5,71.5544,-0.285961,-2.59735
778,71.6046,-0.289497,-2.59598
778.5,71.6553,-0.284953,-2.59603
779,71.7064,-0.279544,-2.59603
779.5,71.7568,-0.290689,-2.59603
780,71.8068,-0.280319,-2.59603
780.5,71.8584,-0.271105,-2.59603
781,71.9098,-0.272924,-2.59599
781.5,71.9588,-0.275404,-2.59702
782,72.0114,-0.266678,-2.59702
782.5,72.0623,-0.273248,-2.59568
783,72.113,-0.267053,-2.59603
783.5,72.164,-0.263978,-2.59603
784,72.2139,-0.270665,-2.59603
784.5,72.265,-0.270454,-2.59735
785,72.3164,-0.264642,-2.59735
785.5,72.3678,-0.259376,-2.59735
786,72.4183,-0.262484,-2.59735
786.5,72.4689,-0.2645,-2.59735
787,72.519,-0.263199,-2.59735
787.5,72.5706,-0.272593,-2.59735
788,72.6213,-0.271191,-2.59735
788.5,72.6701,-0.266767,-2.59637
789,72.7224,-0.264777,-2.59637
789.5,72.7734,-0.27429,-2.59637
790,72.824,-0.269278,-2.59637