File: 01_Data/Roof_Felt/FTIR/IS/Roof_Felt_IS_T_220829_R2.dpt
7497.03,0.03646
7491.25,0.02786
7485.46,0.02295
7479.67,0.02406
7473.89,0.03062
7468.1,0.03208
7462.32,0.03162
7456.53,0.02121
7450.74,0.03260
7444.96,0.02974
7439.17,0.03137
7433.38,0.03375
7427.6,0.03113
7421.81,0.02853
7416.03,0.03155
7410.24,0.02088
7404.45,0.02576
7398.67,0.02588
7392.88,0.02496
7387.09,0.02986
7381.31,0.01874
7375.52,0.02809
7369.74,0.02419
7363.95,0.02508
7358.16,0.02259
7352.38,0.02245
7346.59,0.02763
7340.8,0.02481
7335.02,0.02615
7329.23,0.03065
7323.45,0.02529
7317.66,0.02150
7311.87,0.02642
7306.09,0.02181
7300.3,0.02710
7294.51,0.02385
7288.73,0.01890
7282.94,0.02495
7277.16,0.02046
7271.37,0.02706
7265.58,0.02236
7259.8,0.02517
7254.01,0.02401
7248.22,0.02456
7242.44,0.03330
7236.65,0.03010
7230.87,0.02208
7225.08,0.02177
7219.29,0.02626
7213.51,0.02126
7207.72,0.02636
7201.93,0.02908
7196.15,0.02917
7190.36,0.02698
7184.58,0.02695
7178.79,0.02521
7173,0.02745
7167.22,0.01964
7161.43,0.02998
7155.65,0.02523
7149.86,0.01766
7144.07,0.02945
7138.29,0.02814
7132.5,0.02880
7126.71,0.02183
7120.93,0.02405
7115.14,0.02451
7109.36,0.02513
7103.57,0.01701
7097.78,0.01683
7092,0.01955
7086.21,0.02722
7080.42,0.03162
7074.64,0.02276
7068.85,0.02156
7063.07,0.02304
7057.28,0.02248
7051.49,0.02192
7045.71,0.02357
7039.92,0.02994
7034.13,0.02536
7028.35,0.02923
7022.56,0.02280
7016.78,0.02059
7010.99,0.02085
7005.2,0.02270
6999.42,0.02651
6993.63,0.02507
6987.84,0.02692
6982.06,0.02616
6976.27,0.02329
6970.49,0.02812
6964.7,0.02376
6958.91,0.02381
6953.13,0.02589
6947.34,0.02933
6941.55,0.02306
6935.77,0.02882
6929.98,0.02052
6924.2,0.02434
6918.41,0.02590
6912.62,0.01646
6906.84,0.01928
6901.05,0.02208
6895.26,0.02187
6889.48,0.02369
6883.69,0.02829
6877.91,0.01901
6872.12,0.01986
6866.33,0.02501
6860.55,0.01834
6854.76,0.02264
6848.97,0.01937
6843.19,0.02270
6837.4,0.02279
6831.62,0.03069
6825.83,0.02625
6820.04,0.01719
6814.26,0.02393
6808.47,0.02409
6802.68,0.02982
6796.9,0.02528
6791.11,0.02233
6785.33,0.02759
6779.54,0.02452
6773.75,0.02335
6767.97,0.02402
6762.18,0.02084
6756.39,0.02479
6750.61,0.02723
6744.82,0.02619
6739.04,0.02380
6733.25,0.02425
6727.46,0.02622
6721.68,0.02664
6715.89,0.02324
6710.1,0.02800
6704.32,0.02606
6698.53,0.02370
6692.75,0.02263
6686.96,0.02362
6681.17,0.01893
6675.39,0.02146
6669.6,0.02264
6663.82,0.02226
6658.03,0.02483
6652.24,0.02655
6646.46,0.02486
6640.67,0.02432
6634.88,0.02245
6629.1,0.02477
6623.31,0.02199
6617.53,0.02084
6611.74,0.02241
6605.95,0.02297
6600.17,0.02005
6594.38,0.02292
6588.59,0.02354
6582.81,0.02478
6577.02,0.02219
6571.24,0.02026
6565.45,0.02284
6559.66,0.01973
6553.88,0.02522
6548.09,0.02445
6542.3,0.01953
6536.52,0.02091
6530.73,0.02323
6524.95,0.02413
6519.16,0.02257
6513.37,0.02150
6507.59,0.02256
6501.8,0.02330
6496.01,0.02092
6490.23,0.01818
6484.44,0.01912
6478.66,0.01970
6472.87,0.01969
6467.08,0.02242
6461.3,0.02120
6455.51,0.02297
6449.72,0.01881
6443.94,0.02184
6438.15,0.02153
6432.37,0.02389
6426.58,0.02373
6420.79,0.02091
6415.01,0.02384
6409.22,0.02273
6403.43,0.02153
6397.65,0.02431
6391.86,0.02393
6386.08,0.02254
6380.29,0.02544
6374.5,0.02049
6368.72,0.02220
6362.93,0.02521
6357.14,0.02354
6351.36,0.02228
6345.57,0.02051
6339.79,0.02220
6334,0.02219
6328.21,0.02313
6322.43,0.02434
6316.64,0.02002
6310.85,0.02102
6305.07,0.01998
6299.28,0.02223
6293.5,0.02450
6287.71,0.02312
6281.92,0.02380
6276.14,0.02530
6270.35,0.02343
6264.56,0.02096
6258.78,0.02036
6252.99,0.02162
6247.21,0.02371
6241.42,0.01948
6235.63,0.02247
6229.85,0.02368
6224.06,0.02184
6218.27,0.02200
6212.49,0.01989
6206.7,0.02266
6200.92,0.02229
6195.13,0.02275
6189.34,0.02037
6183.56,0.02484
6177.77,0.02344
6171.98,0.02191
6166.2,0.02175
6160.41,0.02550
6154.63,0.02013
6148.84,0.02188
6143.05,0.01966
6137.27,0.02192
6131.48,0.02272
6125.7,0.01944
6119.91,0.02092
6114.12,0.02316
6108.34,0.02060
6102.55,0.02115
6096.76,0.02285
6090.98,0.02120
6085.19,0.02119
6079.41,0.02406
6073.62,0.02125
6067.83,0.02137
6062.05,0.02305
6056.26,0.02413
6050.47,0.02147
6044.69,0.02043
6038.9,0.02116
6033.12,0.02022
6027.33,0.02377
6021.54,0.01882
6015.76,0.02269
6009.97,0.02192
6004.18,0.02157
5998.4,0.02400
5992.61,0.02299
5986.83,0.02298
5981.04,0.02265
5975.25,0.02205
5969.47,0.02151
5963.68,0.02067
5957.89,0.02106
5952.11,0.02335
5946.32,0.01986
5940.54,0.02519
5934.75,0.02230
5928.96,0.02233
5923.18,0.02418
5917.39,0.02118
5911.6,0.02188
5905.82,0.02240
5900.03,0.02367
5894.25,0.02243
5888.46,0.02295
5882.67,0.02197
5876.89,0.02362
5871.1,0.01908
5865.31,0.02107
5859.53,0.02238
5853.74,0.02109
5847.96,0.02225
5842.17,0.02007
5836.38,0.02186
5830.6,0.02085
5824.81,0.02174
5819.02,0.02016
5813.24,0.02191
5807.45,0.02266
5801.67,0.02062
5795.88,0.02065
5790.09,0.02162
5784.31,0.02183
5778.52,0.02127
5772.73,0.02437
5766.95,0.02090
5761.16,0.02026
5755.38,0.02232
5749.59,0.02153
5743.8,0.02276
5738.02,0.02151
5732.23,0.02182
5726.44,0.02145
5720.66,0.02157
5714.87,0.02248
5709.09,0.02198
5703.3,0.02269
5697.51,0.02171
5691.73,0.02172
5685.94,0.02274
5680.15,0.02311
5674.37,0.02005
5668.58,0.02249
5662.8,0.02051
5657.01,0.02173
5651.22,0.02239
5645.44,0.02077
5639.65,0.02110
5633.87,0.02197
5628.08,0.02201
5622.29,0.02181
5616.51,0.02267
5610.72,0.02153
5604.93,0.02184
5599.15,0.02138
5593.36,0.02276
5587.58,0.02231
5581.79,0.02430
5576,0.02283
5570.22,0.02180
5564.43,0.02169
5558.64,0.02217
5552.86,0.02306
5547.07,0.02322
5541.29,0.02073
5535.5,0.01990
5529.71,0.02203
5523.93,0.02339
5518.14,0.02027
5512.35,0.02065
5506.57,0.02123
5500.78,0.02085
5495,0.02286
5489.21,0.02300
5483.42,0.02281
5477.64,0.02119
5471.85,0.02171
5466.06,0.02115
5460.28,0.02160
5454.49,0.02165
5448.71,0.02189
5442.92,0.02054
5437.13,0.02489
5431.35,0.02241
5425.56,0.02045
5419.77,0.02046
5413.99,0.02280
5408.2,0.02170
5402.42,0.02251
5396.63,0.02214
5390.84,0.02158
5385.06,0.02206
5379.27,0.02221
5373.48,0.02296
5367.7,0.02158
5361.91,0.02202
5356.13,0.02221
5350.34,0.02412
5344.55,0.02309
5338.77,0.02322
5332.98,0.02211
5327.19,0.02193
5321.41,0.02322
5315.62,0.02132
5309.84,0.02170
5304.05,0.02190
5298.26,0.02151
5292.48,0.02169
5286.69,0.02140
5280.9,0.02230
5275.12,0.02110
5269.33,0.02187
5263.55,0.02448
5257.76,0.02117
5251.97,0.02227
5246.19,0.02189
5240.4,0.02185
5234.61,0.02187
5228.83,0.02127
5223.04,0.02274
5217.26,0.02170
5211.47,0.02267
5205.68,0.02095
5199.9,0.02174
5194.11,0.02326
5188.32,0.02255
5182.54,0.02283
5176.75,0.02251
5170.97,0.02348
5165.18,0.02238
5159.39,0.02212
5153.61,0.02245
5147.82,0.02194
5142.03,0.02267
5136.25,0.02320
5130.46,0.02177
5124.68,0.02244
5118.89,0.02162
5113.1,0.02108
5107.32,0.02216
5101.53,0.02303
5095.75,0.02253
5089.96,0.02296
5084.17,0.02246
5078.39,0.02265
5072.6,0.02156
5066.81,0.02113
5061.03,0.02139
5055.24,0.02221
5049.46,0.02236
5043.67,0.02292
5037.88,0.02192
5032.1,0.02171
5026.31,0.02131
5020.52,0.02209
5014.74,0.02294
5008.95,0.02356
5003.17,0.02259
4997.38,0.02221
4991.59,0.02084
4985.81,0.02230
4980.02,0.02214
4974.23,0.02318
4968.45,0.02302
4962.66,0.02252
4956.88,0.02246
4951.09,0.02114
4945.3,0.02176
4939.52,0.02376
4933.73,0.02173
4927.94,0.02149
4922.16,0.02248
4916.37,0.02182
4910.59,0.02359
4904.8,0.02273
4899.01,0.02229
4893.23,0.02175
4887.44,0.02304
4881.65,0.02204
4875.87,0.02232
4870.08,0.02261
4864.3,0.02216
4858.51,0.02155
4852.72,0.02247
4846.94,0.02269
4841.15,0.02400
4835.36,0.02218
4829.58,0.02148
4823.79,0.02208
4818.01,0.02215
4812.22,0.02320
4806.43,0.02190
4800.65,0.02197
4794.86,0.02291
4789.07,0.02232
4783.29,0.02221
4777.5,0.02264
4771.72,0.02227
4765.93,0.02207
4760.14,0.02274
4754.36,0.02286
4748.57,0.02263
4742.78,0.02258
4737,0.02218
4731.21,0.02178
4725.43,0.02192
4719.64,0.02270
4713.85,0.02196
4708.07,0.02226
4702.28,0.02237
4696.49,0.02244
4690.71,0.02199
4684.92,0.02194
4679.14,0.02245
4673.35,0.02283
4667.56,0.02240
4661.78,0.02193
4655.99,0.02155
4650.2,0.02239
4644.42,0.02202
4638.63,0.02206
4632.85,0.02187
4627.06,0.02248
4621.27,0.02291
4615.49,0.02143
4609.7,0.02208
4603.92,0.02198
4598.13,0.02246
4592.34,0.02193
4586.56,0.02285
4580.77,0.02254
4574.98,0.02222
4569.2,0.02322
4563.41,0.02175
4557.63,0.02072
4551.84,0.02265
4546.05,0.02232
4540.27,0.02159
4534.48,0.02241
4528.69,0.02235
4522.91,0.02322
4517.12,0.02217
4511.34,0.02264
4505.55,0.02276
4499.76,0.02274
4493.98,0.02217
4488.19,0.02281
4482.4,0.02211
4476.62,0.02311
4470.83,0.02259
4465.05,0.02298
4459.26,0.02231
4453.47,0.02296
4447.69,0.02212
4441.9,0.02244
4436.11,0.02258
4430.33,0.02187
4424.54,0.02267
4418.76,0.02277
4412.97,0.02204
4407.18,0.02279
4401.4,0.02299
4395.61,0.02242
4389.82,0.02296
4384.04,0.02308
4378.25,0.02196
4372.47,0.02230
4366.68,0.02192
4360.89,0.02244
4355.11,0.02246
4349.32,0.02223
4343.53,0.02177
4337.75,0.02172
4331.96,0.02236
4326.18,0.02211
4320.39,0.02289
4314.6,0.02228
4308.82,0.02243
4303.03,0.02242
4297.24,0.02165
4291.46,0.02248
4285.67,0.02278
4279.89,0.02215
4274.1,0.02193
4268.31,0.02216
4262.53,0.02190
4256.74,0.02277
4250.95,0.02245
4245.17,0.02326
4239.38,0.02247
4233.6,0.02280
4227.81,0.02218
4222.02,0.02254
4216.24,0.02246
4210.45,0.02307
4204.66,0.02256
4198.88,0.02299
4193.09,0.02265
4187.31,0.02296
4181.52,0.02206
4175.73,0.02156
4169.95,0.02250
4164.16,0.02318
4158.37,0.02357
4152.59,0.02271
4146.8,0.02216
4141.02,0.02272
4135.23,0.02268
4129.44,0.02279
4123.66,0.02305
4117.87,0.02259
4112.09,0.02236
4106.3,0.02314
4100.51,0.02255
4094.73,0.02264
4088.94,0.02272
4083.15,0.02288
4077.37,0.02255
4071.58,0.02307
4065.8,0.02229
4060.01,0.02276
4054.22,0.02253
4048.44,0.02316
4042.65,0.02246
4036.86,0.02218
4031.08,0.02261
4025.29,0.02236
4019.51,0.02266
4013.72,0.02212
4007.93,0.02300
4002.15,0.02282
3996.36,0.02234
3990.57,0.02339
3984.79,0.02303
3979,0.02296
3973.22,0.02346
3967.43,0.02294
3961.64,0.02265
3955.86,0.02298
3950.07,0.02320
3944.28,0.02308
3938.5,0.02298
3932.71,0.02281
3926.93,0.02224
3921.14,0.02266
3915.35,0.02220
3909.57,0.02270
3903.78,0.02294
3897.99,0.02234
3892.21,0.02210
3886.42,0.02291
3880.64,0.02226
3874.85,0.02234
3869.06,0.02335
3863.28,0.02218
3857.49,0.02231
3851.7,0.02246
3845.92,0.02332
3840.13,0.02282
3834.35,0.02274
3828.56,0.02284
3822.77,0.02240
3816.99,0.02250
3811.2,0.02254
3805.41,0.02315
3799.63,0.02236
3793.84,0.02252
3788.06,0.02254
3782.27,0.02248
3776.48,0.02255
3770.7,0.02256
3764.91,0.02269
3759.12,0.02282
3753.34,0.02247
3747.55,0.02317
3741.77,0.02272
3735.98,0.02322
3730.19,0.02327
3724.41,0.02275
3718.62,0.02298
3712.83,0.02285
3707.05,0.02242
3701.26,0.02245
3695.48,0.02213
3689.69,0.02255
3683.9,0.02284
3678.12,0.02279
3672.33,0.02225
3666.54,0.02210
3660.76,0.02259
3654.97,0.02308
3649.19,0.02200
3643.4,0.02203
3637.61,0.02214
3631.83,0.02290
3626.04,0.02178
3620.25,0.02221
3614.47,0.02180
3608.68,0.02217
3602.9,0.02167
3597.11,0.02201
3591.32,0.02184
3585.54,0.02174
3579.75,0.02177
3573.97,0.02121
3568.18,0.02218
3562.39,0.02124
3556.61,0.02190
3550.82,0.02135
3545.03,0.02115
3539.25,0.02144
3533.46,0.02198
3527.68,0.02154
3521.89,0.02090
3516.1,0.02098
3510.32,0.02140
3504.53,0.02123
3498.74,0.02158
3492.96,0.02078
3487.17,0.02137
3481.39,0.02094
3475.6,0.02082
3469.81,0.02107
3464.03,0.02157
3458.24,0.02135
3452.45,0.02093
3446.67,0.02055
3440.88,0.02097
3435.1,0.02052
3429.31,0.02045
3423.52,0.02022
3417.74,0.02044
3411.95,0.02059
3406.16,0.02112
3400.38,0.02019
3394.59,0.02012
3388.81,0.02005
3383.02,0.02108
3377.23,0.02064
3371.45,0.02013
3365.66,0.02031
3359.87,0.02044
3354.09,0.02097
3348.3,0.02071
3342.52,0.02020
3336.73,0.02051
3330.94,0.02041
3325.16,0.02082
3319.37,0.02093
3313.58,0.02038
3307.8,0.01994
3302.01,0.02062
3296.23,0.02053
3290.44,0.02031
3284.65,0.02040
3278.87,0.02066
3273.08,0.02079
3267.29,0.02105
3261.51,0.02040
3255.72,0.02020
3249.94,0.02020
3244.15,0.02108
3238.36,0.02065
3232.58,0.02149
3226.79,0.02150
3221,0.02081
3215.22,0.02116
3209.43,0.02015
3203.65,0.02089
3197.86,0.02173
3192.07,0.02138
3186.29,0.02148
3180.5,0.02060
3174.71,0.02105
3168.93,0.02099
3163.14,0.02128
3157.36,0.02127
3151.57,0.02089
3145.78,0.02066
3140,0.02076
3134.21,0.02051
3128.42,0.02058
3122.64,0.02052
3116.85,0.02069
3111.07,0.02140
3105.28,0.02056
3099.49,0.02084
3093.71,0.02088
3087.92,0.02057
3082.14,0.02082
3076.35,0.02048
3070.56,0.02126
3064.78,0.02087
3058.99,0.02047
3053.2,0.02099
3047.42,0.02084
3041.63,0.02089
3035.85,0.02017
3030.06,0.02036
3024.27,0.02101
3018.49,0.02077
3012.7,0.02020
3006.91,0.01989
3001.13,0.02033
2995.34,0.02021
2989.56,0.02036
2983.77,0.01969
2977.98,0.01960
2972.2,0.01984
2966.41,0.01955
2960.62,0.01954
2954.84,0.01965
2949.05,0.01966
2943.27,0.02005
2937.48,0.01999
2931.69,0.02009
2925.91,0.02007
2920.12,0.01970
2914.33,0.02058
2908.55,0.02048
2902.76,0.02016
2896.98,0.02026
2891.19,0.02052
2885.4,0.02054
2879.62,0.02071
2873.83,0.02050
2868.04,0.02011
2862.26,0.02001
2856.47,0.02067
2850.69,0.02092
2844.9,0.02120
2839.11,0.02127
2833.33,0.02128
2827.54,0.02151
2821.75,0.02145
2815.97,0.02159
2810.18,0.02155
2804.4,0.02133
2798.61,0.02208
2792.82,0.02130
2787.04,0.02104
2781.25,0.02128
2775.46,0.02145
2769.68,0.02135
2763.89,0.02111
2758.11,0.02165
2752.32,0.02146
2746.53,0.02145
2740.75,0.02126
2734.96,0.02106
2729.17,0.02094
2723.39,0.02140
2717.6,0.02119
2711.82,0.02145
2706.03,0.02136
2700.24,0.02147
2694.46,0.02117
2688.67,0.02156
2682.88,0.02157
2677.1,0.02151
2671.31,0.02114
2665.53,0.02111
2659.74,0.02118
2653.95,0.02123
2648.17,0.02118
2642.38,0.02157
2636.59,0.02142
2630.81,0.02143
2625.02,0.02153
2619.24,0.02154
2613.45,0.02075
2607.66,0.02099
2601.88,0.02163
2596.09,0.02119
2590.3,0.02130
2584.52,0.02101
2578.73,0.02141
2572.95,0.02138
2567.16,0.02122
2561.37,0.02136
2555.59,0.02126
2549.8,0.02124
2544.02,0.02157
2538.23,0.02098
2532.44,0.02146
2526.66,0.02081
2520.87,0.02135
2515.08,0.02080
2509.3,0.02104
2503.51,0.02107
2497.73,0.02097
2491.94,0.02123
2486.15,0.02138
2480.37,0.02137
2474.58,0.02109
2468.79,0.02120
2463.01,0.02149
2457.22,0.02109
2451.44,0.02124
2445.65,0.02142
2439.86,0.02153
2434.08,0.02179
2428.29,0.02097
2422.5,0.02123
2416.72,0.02120
2410.93,0.02129
2405.15,0.02134
2399.36,0.02110
2393.57,0.02143
2387.79,0.02105
2382,0.02106
2376.21,0.02146
2370.43,0.02117
2364.64,0.02111
2358.86,0.02123
2353.07,0.02120
2347.28,0.02102
2341.5,0.02105
2335.71,0.02098
2329.92,0.02119
2324.14,0.02162
2318.35,0.02141
2312.57,0.02115
2306.78,0.02133
2300.99,0.02120
2295.21,0.02114
2289.42,0.02130
2283.63,0.02096
2277.85,0.02110
2272.06,0.02143
2266.28,0.02117
2260.49,0.02096
2254.7,0.02114
2248.92,0.02115
2243.13,0.02162
2237.34,0.02134
2231.56,0.02092
2225.77,0.02087
2219.99,0.02099
2214.2,0.02122
2208.41,0.02101
2202.63,0.02108
2196.84,0.02109
2191.05,0.02097
2185.27,0.02118
2179.48,0.02123
2173.7,0.02134
2167.91,0.02096
2162.12,0.02076
2156.34,0.02101
2150.55,0.02097
2144.76,0.02096
2138.98,0.02088
2133.19,0.02075
2127.41,0.02082
2121.62,0.02123
2115.83,0.02071
2110.05,0.02095
2104.26,0.02099
2098.47,0.02126
2092.69,0.02095
2086.9,0.02113
2081.12,0.02127
2075.33,0.02105
2069.54,0.02107
2063.76,0.02087
2057.97,0.02097
2052.19,0.02100
2046.4,0.02106
2040.61,0.02102
2034.83,0.02113
2029.04,0.02092
2023.25,0.02071
2017.47,0.02096
2011.68,0.02072
2005.9,0.02083
2000.11,0.02129
1994.32,0.02054
1988.54,0.02089
1982.75,0.02076
1976.96,0.02041
1971.18,0.02079
1965.39,0.02109
1959.61,0.02092
1953.82,0.02108
1948.03,0.02096
1942.25,0.02082
1936.46,0.02081
1930.67,0.02065
1924.89,0.02024
1919.1,0.02085
1913.32,0.02083
1907.53,0.02062
1901.74,0.02034
1895.96,0.02051
1890.17,0.02025
1884.38,0.02064
1878.6,0.02065
1872.81,0.02058
1867.03,0.02048
1861.24,0.02059
1855.45,0.02031
1849.67,0.02034
1843.88,0.02049
1838.09,0.02020
1832.31,0.02005
1826.52,0.01998
1820.74,0.01991
1814.95,0.01986
1809.16,0.02007
1803.38,0.01986
1797.59,0.01959
1791.8,0.01962
1786.02,0.01949
1780.23,0.01918
1774.45,0.01921
1768.66,0.01849
1762.87,0.01831
1757.09,0.01723
1751.3,0.01719
1745.51,0.01757
1739.73,0.01841
1733.94,0.01984
1728.16,0.02063
1722.37,0.02074
1716.58,0.02089
1710.8,0.02067
1705.01,0.02009
1699.22,0.02005
1693.44,0.01947
1687.65,0.01956
1681.87,0.01929
1676.08,0.01892
1670.29,0.01904
1664.51,0.01886
1658.72,0.01829
1652.93,0.01875
1647.15,0.01939
1641.36,0.01830
1635.58,0.01872
1629.79,0.01873
1624,0.01897
1618.22,0.01892
1612.43,0.01909
1606.64,0.01895
1600.86,0.01903
1595.07,0.01915
1589.29,0.01837
1583.5,0.01824
1577.71,0.01819
1571.93,0.01824
1566.14,0.01858
1560.35,0.01866
1554.57,0.01843
1548.78,0.01856
1543,0.01880
1537.21,0.01877
1531.42,0.01810
1525.64,0.01865
1519.85,0.01880
1514.07,0.01873
1508.28,0.01903
1502.49,0.01849
1496.71,0.01882
1490.92,0.01851
1485.13,0.01912
1479.35,0.01860
1473.56,0.01830
1467.78,0.01853
1461.99,0.01881
1456.2,0.01813
1450.42,0.01861
1444.63,0.01855
1438.84,0.01939
1433.06,0.01911
1427.27,0.01894
1421.49,0.01816
1415.7,0.01843
1409.91,0.01860
1404.13,0.01857
1398.34,0.01841
1392.55,0.01818
1386.77,0.01824
1380.98,0.01800
1375.2,0.01843
1369.41,0.01821
1363.62,0.01821
1357.84,0.01799
1352.05,0.01807
1346.26,0.01802
1340.48,0.01763
1334.69,0.01803
1328.91,0.01737
1323.12,0.01753
1317.33,0.01698
1311.55,0.01697
1305.76,0.01717
1299.97,0.01719
1294.19,0.01771
1288.4,0.01807
1282.62,0.01879
1276.83,0.01929
1271.04,0.01969
1265.26,0.01950
1259.47,0.02012
1253.68,0.02083
1247.9,0.02031
1242.11,0.01964
1236.33,0.01997
1230.54,0.01986
1224.75,0.01961
1218.97,0.01886
1213.18,0.01912
1207.39,0.01899
1201.61,0.01867
1195.82,0.01864
1190.04,0.01882
1184.25,0.01804
1178.46,0.01858
1172.68,0.01870
1166.89,0.01778
1161.1,0.01799
1155.32,0.01784
1149.53,0.01750
1143.75,0.01743
1137.96,0.01768
1132.17,0.01803
1126.39,0.01846
1120.6,0.01912
1114.81,0.01913
1109.03,0.01850
1103.24,0.01808
1097.46,0.01861
1091.67,0.01841
1085.88,0.01793
1080.1,0.01826
1074.31,0.01943
1068.52,0.02063
1062.74,0.02026
1056.95,0.01958
1051.17,0.01924
1045.38,0.01997
1039.59,0.02002
1033.81,0.02004
1028.02,0.01895
1022.24,0.01916
1016.45,0.01942
1010.66,0.02018
1004.88,0.02086
999.09,0.02094
993.304,0.02138
987.518,0.02044
981.731,0.02074
975.945,0.01979
970.159,0.02004
964.373,0.02023
958.586,0.02060
952.8,0.02041
947.014,0.02030
941.228,0.02044
935.441,0.01931
929.655,0.01985
923.869,0.01898
918.083,0.01895
912.297,0.01883
906.51,0.01916
900.724,0.01933
894.938,0.01968
889.152,0.01931
883.365,0.01874
877.579,0.01958
871.793,0.01902
866.007,0.01955
860.22,0.01941
854.434,0.01911
848.648,0.01866
842.862,0.01900
837.075,0.01866
831.289,0.01948
825.503,0.01867
819.717,0.01874
813.931,0.01931
808.144,0.01947
802.358,0.01808
796.572,0.01871
790.786,0.01798
784.999,0.01809
779.213,0.01821
773.427,0.01800
767.641,0.01872
761.854,0.01844
756.068,0.01824
750.282,0.01806
744.496,0.01885
738.709,0.01827
732.923,0.01879
727.137,0.01818
721.351,0.01859
715.565,0.01814
709.778,0.01749
703.992,0.01794
698.206,0.01799
692.42,0.01862
686.633,0.01720
680.847,0.01803
675.061,0.01632
669.275,0.01735
663.488,0.01742
657.702,0.01573
651.916,0.01616
646.13,0.01662
640.343,0.01748
634.557,0.01537
628.771,0.01606
622.985,0.01727
617.198,0.01450
611.412,0.01560
605.626,0.01260
599.84,0.01611