File: 01_Data/Concrete_Block/FTIR/IS/Concrete_Block_IS_T_221214_R4.dpt
7497.03,0.02787
7491.25,0.03122
7485.46,0.02288
7479.67,0.02176
7473.89,0.01862
7468.1,0.02157
7462.32,0.02306
7456.53,0.02319
7450.74,0.02214
7444.96,0.02312
7439.17,0.01968
7433.38,0.02322
7427.6,0.02995
7421.81,0.02770
7416.03,0.01694
7410.24,0.02858
7404.45,0.02201
7398.67,0.02190
7392.88,0.02963
7387.09,0.02400
7381.31,0.02818
7375.52,0.01904
7369.74,0.01968
7363.95,0.03100
7358.16,0.01653
7352.38,0.02043
7346.59,0.02738
7340.8,0.01796
7335.02,0.01982
7329.23,0.02399
7323.45,0.02285
7317.66,0.02426
7311.87,0.02251
7306.09,0.02758
7300.3,0.02604
7294.51,0.02854
7288.73,0.01827
7282.94,0.02443
7277.16,0.02195
7271.37,0.02928
7265.58,0.01990
7259.8,0.02447
7254.01,0.03492
7248.22,0.02796
7242.44,0.02356
7236.65,0.02699
7230.87,0.03794
7225.08,0.02824
7219.29,0.02417
7213.51,0.01722
7207.72,0.01859
7201.93,0.02435
7196.15,0.02118
7190.36,0.02242
7184.58,0.02805
7178.79,0.02444
7173,0.02980
7167.22,0.02548
7161.43,0.02425
7155.65,0.02763
7149.86,0.02602
7144.07,0.02730
7138.29,0.02559
7132.5,0.02055
7126.71,0.02816
7120.93,0.03194
7115.14,0.03301
7109.36,0.02548
7103.57,0.03069
7097.78,0.02518
7092,0.02221
7086.21,0.02568
7080.42,0.01318
7074.64,0.01937
7068.85,0.02438
7063.07,0.02168
7057.28,0.02376
7051.49,0.02335
7045.71,0.02662
7039.92,0.02173
7034.13,0.02477
7028.35,0.02654
7022.56,0.02707
7016.78,0.02853
7010.99,0.02286
7005.2,0.02302
6999.42,0.02726
6993.63,0.02851
6987.84,0.02220
6982.06,0.02385
6976.27,0.02136
6970.49,0.02383
6964.7,0.02015
6958.91,0.02359
6953.13,0.02278
6947.34,0.01707
6941.55,0.01542
6935.77,0.02051
6929.98,0.01878
6924.2,0.01996
6918.41,0.02451
6912.62,0.02804
6906.84,0.02321
6901.05,0.02178
6895.26,0.02082
6889.48,0.02158
6883.69,0.02175
6877.91,0.02635
6872.12,0.02490
6866.33,0.02938
6860.55,0.02272
6854.76,0.02309
6848.97,0.02876
6843.19,0.02727
6837.4,0.02408
6831.62,0.01770
6825.83,0.02450
6820.04,0.02285
6814.26,0.02140
6808.47,0.02665
6802.68,0.02532
6796.9,0.02580
6791.11,0.02193
6785.33,0.02403
6779.54,0.02489
6773.75,0.02020
6767.97,0.01919
6762.18,0.02618
6756.39,0.02096
6750.61,0.02599
6744.82,0.02772
6739.04,0.02046
6733.25,0.02361
6727.46,0.02395
6721.68,0.02300
6715.89,0.02278
6710.1,0.02324
6704.32,0.02373
6698.53,0.02319
6692.75,0.02330
6686.96,0.02436
6681.17,0.02550
6675.39,0.02373
6669.6,0.02204
6663.82,0.02163
6658.03,0.02051
6652.24,0.02252
6646.46,0.02554
6640.67,0.02063
6634.88,0.01848
6629.1,0.02210
6623.31,0.01871
6617.53,0.02140
6611.74,0.02303
6605.95,0.02017
6600.17,0.02145
6594.38,0.02226
6588.59,0.02160
6582.81,0.02217
6577.02,0.02232
6571.24,0.02161
6565.45,0.02425
6559.66,0.02220
6553.88,0.02583
6548.09,0.02896
6542.3,0.02662
6536.52,0.02398
6530.73,0.02552
6524.95,0.02298
6519.16,0.02549
6513.37,0.02424
6507.59,0.02377
6501.8,0.02038
6496.01,0.02521
6490.23,0.02623
6484.44,0.02614
6478.66,0.02381
6472.87,0.02314
6467.08,0.02375
6461.3,0.02365
6455.51,0.02259
6449.72,0.02006
6443.94,0.02593
6438.15,0.02152
6432.37,0.02497
6426.58,0.02398
6420.79,0.02314
6415.01,0.02385
6409.22,0.02209
6403.43,0.02224
6397.65,0.02365
6391.86,0.02180
6386.08,0.02062
6380.29,0.02063
6374.5,0.02169
6368.72,0.02596
6362.93,0.02382
6357.14,0.02448
6351.36,0.02342
6345.57,0.02138
6339.79,0.01990
6334,0.01879
6328.21,0.02091
6322.43,0.02289
6316.64,0.02156
6310.85,0.02414
6305.07,0.02389
6299.28,0.01941
6293.5,0.02546
6287.71,0.02344
6281.92,0.01984
6276.14,0.02463
6270.35,0.02355
6264.56,0.02260
6258.78,0.02231
6252.99,0.02204
6247.21,0.02173
6241.42,0.02456
6235.63,0.02439
6229.85,0.02415
6224.06,0.02444
6218.27,0.02366
6212.49,0.02448
6206.7,0.02543
6200.92,0.02513
6195.13,0.02149
6189.34,0.02631
6183.56,0.02160
6177.77,0.02075
6171.98,0.02416
6166.2,0.02474
6160.41,0.02260
6154.63,0.02565
6148.84,0.01953
6143.05,0.02299
6137.27,0.02187
6131.48,0.02423
6125.7,0.02385
6119.91,0.02248
6114.12,0.02502
6108.34,0.02404
6102.55,0.02159
6096.76,0.02153
6090.98,0.02016
6085.19,0.02419
6079.41,0.02392
6073.62,0.02311
6067.83,0.02496
6062.05,0.02572
6056.26,0.02596
6050.47,0.02041
6044.69,0.02199
6038.9,0.02305
6033.12,0.02192
6027.33,0.02244
6021.54,0.02397
6015.76,0.02193
6009.97,0.02318
6004.18,0.02151
5998.4,0.02173
5992.61,0.02306
5986.83,0.02010
5981.04,0.02286
5975.25,0.02226
5969.47,0.02354
5963.68,0.02382
5957.89,0.02515
5952.11,0.02322
5946.32,0.02121
5940.54,0.02386
5934.75,0.02257
5928.96,0.02074
5923.18,0.02501
5917.39,0.02139
5911.6,0.02243
5905.82,0.02323
5900.03,0.02221
5894.25,0.02074
5888.46,0.02252
5882.67,0.02135
5876.89,0.02371
5871.1,0.02394
5865.31,0.02338
5859.53,0.02456
5853.74,0.02122
5847.96,0.01953
5842.17,0.02221
5836.38,0.02008
5830.6,0.02201
5824.81,0.02087
5819.02,0.02069
5813.24,0.02110
5807.45,0.02060
5801.67,0.02180
5795.88,0.02227
5790.09,0.02139
5784.31,0.02573
5778.52,0.02376
5772.73,0.02208
5766.95,0.02240
5761.16,0.02249
5755.38,0.02079
5749.59,0.02208
5743.8,0.02422
5738.02,0.02484
5732.23,0.02236
5726.44,0.02264
5720.66,0.02372
5714.87,0.02157
5709.09,0.02217
5703.3,0.02166
5697.51,0.02215
5691.73,0.02281
5685.94,0.02295
5680.15,0.02171
5674.37,0.02445
5668.58,0.02289
5662.8,0.02258
5657.01,0.02217
5651.22,0.02268
5645.44,0.02395
5639.65,0.02234
5633.87,0.02296
5628.08,0.02405
5622.29,0.02416
5616.51,0.02216
5610.72,0.02229
5604.93,0.02242
5599.15,0.02154
5593.36,0.02215
5587.58,0.02135
5581.79,0.02192
5576,0.02308
5570.22,0.02218
5564.43,0.02242
5558.64,0.02227
5552.86,0.02374
5547.07,0.02299
5541.29,0.02197
5535.5,0.02269
5529.71,0.02297
5523.93,0.02483
5518.14,0.02257
5512.35,0.02267
5506.57,0.02137
5500.78,0.02226
5495,0.02340
5489.21,0.02380
5483.42,0.02195
5477.64,0.02458
5471.85,0.02252
5466.06,0.02245
5460.28,0.02226
5454.49,0.02305
5448.71,0.02444
5442.92,0.02386
5437.13,0.02469
5431.35,0.02608
5425.56,0.02479
5419.77,0.02345
5413.99,0.02379
5408.2,0.02313
5402.42,0.02285
5396.63,0.02312
5390.84,0.02250
5385.06,0.02108
5379.27,0.02290
5373.48,0.02430
5367.7,0.02397
5361.91,0.02485
5356.13,0.02407
5350.34,0.02369
5344.55,0.02238
5338.77,0.02266
5332.98,0.02232
5327.19,0.02295
5321.41,0.02591
5315.62,0.02255
5309.84,0.02392
5304.05,0.02305
5298.26,0.02415
5292.48,0.02243
5286.69,0.02259
5280.9,0.02306
5275.12,0.02253
5269.33,0.02292
5263.55,0.02217
5257.76,0.02196
5251.97,0.01992
5246.19,0.02270
5240.4,0.02339
5234.61,0.02275
5228.83,0.02332
5223.04,0.02256
5217.26,0.02265
5211.47,0.02339
5205.68,0.02350
5199.9,0.02252
5194.11,0.02502
5188.32,0.02361
5182.54,0.02408
5176.75,0.02323
5170.97,0.02292
5165.18,0.02294
5159.39,0.02228
5153.61,0.02260
5147.82,0.02194
5142.03,0.02316
5136.25,0.02218
5130.46,0.02367
5124.68,0.02298
5118.89,0.02238
5113.1,0.02314
5107.32,0.02314
5101.53,0.02445
5095.75,0.02419
5089.96,0.02381
5084.17,0.02400
5078.39,0.02360
5072.6,0.02362
5066.81,0.02355
5061.03,0.02327
5055.24,0.02309
5049.46,0.02420
5043.67,0.02360
5037.88,0.02308
5032.1,0.02404
5026.31,0.02216
5020.52,0.02351
5014.74,0.02316
5008.95,0.02371
5003.17,0.02382
4997.38,0.02367
4991.59,0.02291
4985.81,0.02336
4980.02,0.02345
4974.23,0.02275
4968.45,0.02155
4962.66,0.02306
4956.88,0.02407
4951.09,0.02289
4945.3,0.02396
4939.52,0.02274
4933.73,0.02275
4927.94,0.02277
4922.16,0.02289
4916.37,0.02345
4910.59,0.02337
4904.8,0.02287
4899.01,0.02358
4893.23,0.02395
4887.44,0.02370
4881.65,0.02347
4875.87,0.02309
4870.08,0.02275
4864.3,0.02317
4858.51,0.02355
4852.72,0.02326
4846.94,0.02206
4841.15,0.02367
4835.36,0.02301
4829.58,0.02337
4823.79,0.02341
4818.01,0.02418
4812.22,0.02406
4806.43,0.02356
4800.65,0.02364
4794.86,0.02364
4789.07,0.02362
4783.29,0.02326
4777.5,0.02317
4771.72,0.02415
4765.93,0.02298
4760.14,0.02356
4754.36,0.02246
4748.57,0.02373
4742.78,0.02321
4737,0.02304
4731.21,0.02339
4725.43,0.02380
4719.64,0.02341
4713.85,0.02357
4708.07,0.02304
4702.28,0.02294
4696.49,0.02345
4690.71,0.02381
4684.92,0.02302
4679.14,0.02430
4673.35,0.02405
4667.56,0.02346
4661.78,0.02353
4655.99,0.02311
4650.2,0.02367
4644.42,0.02366
4638.63,0.02279
4632.85,0.02292
4627.06,0.02338
4621.27,0.02336
4615.49,0.02286
4609.7,0.02406
4603.92,0.02320
4598.13,0.02314
4592.34,0.02289
4586.56,0.02257
4580.77,0.02267
4574.98,0.02388
4569.2,0.02387
4563.41,0.02332
4557.63,0.02291
4551.84,0.02342
4546.05,0.02267
4540.27,0.02291
4534.48,0.02259
4528.69,0.02318
4522.91,0.02342
4517.12,0.02361
4511.34,0.02445
4505.55,0.02458
4499.76,0.02379
4493.98,0.02358
4488.19,0.02299
4482.4,0.02443
4476.62,0.02366
4470.83,0.02331
4465.05,0.02379
4459.26,0.02363
4453.47,0.02354
4447.69,0.02326
4441.9,0.02414
4436.11,0.02358
4430.33,0.02370
4424.54,0.02300
4418.76,0.02267
4412.97,0.02345
4407.18,0.02289
4401.4,0.02284
4395.61,0.02322
4389.82,0.02300
4384.04,0.02377
4378.25,0.02323
4372.47,0.02392
4366.68,0.02262
4360.89,0.02381
4355.11,0.02427
4349.32,0.02371
4343.53,0.02369
4337.75,0.02375
4331.96,0.02370
4326.18,0.02315
4320.39,0.02304
4314.6,0.02304
4308.82,0.02325
4303.03,0.02343
4297.24,0.02278
4291.46,0.02302
4285.67,0.02393
4279.89,0.02305
4274.1,0.02357
4268.31,0.02352
4262.53,0.02297
4256.74,0.02365
4250.95,0.02295
4245.17,0.02405
4239.38,0.02390
4233.6,0.02351
4227.81,0.02327
4222.02,0.02350
4216.24,0.02425
4210.45,0.02410
4204.66,0.02387
4198.88,0.02457
4193.09,0.02368
4187.31,0.02318
4181.52,0.02340
4175.73,0.02331
4169.95,0.02308
4164.16,0.02366
4158.37,0.02378
4152.59,0.02409
4146.8,0.02417
4141.02,0.02416
4135.23,0.02368
4129.44,0.02305
4123.66,0.02360
4117.87,0.02444
4112.09,0.02417
4106.3,0.02444
4100.51,0.02363
4094.73,0.02352
4088.94,0.02408
4083.15,0.02341
4077.37,0.02340
4071.58,0.02407
4065.8,0.02327
4060.01,0.02319
4054.22,0.02355
4048.44,0.02398
4042.65,0.02367
4036.86,0.02326
4031.08,0.02408
4025.29,0.02417
4019.51,0.02401
4013.72,0.02385
4007.93,0.02362
4002.15,0.02365
3996.36,0.02326
3990.57,0.02390
3984.79,0.02405
3979,0.02355
3973.22,0.02398
3967.43,0.02448
3961.64,0.02445
3955.86,0.02411
3950.07,0.02365
3944.28,0.02390
3938.5,0.02413
3932.71,0.02390
3926.93,0.02359
3921.14,0.02376
3915.35,0.02338
3909.57,0.02418
3903.78,0.02378
3897.99,0.02352
3892.21,0.02354
3886.42,0.02368
3880.64,0.02373
3874.85,0.02401
3869.06,0.02365
3863.28,0.02370
3857.49,0.02461
3851.7,0.02418
3845.92,0.02391
3840.13,0.02400
3834.35,0.02408
3828.56,0.02398
3822.77,0.02418
3816.99,0.02431
3811.2,0.02392
3805.41,0.02397
3799.63,0.02466
3793.84,0.02416
3788.06,0.02422
3782.27,0.02368
3776.48,0.02347
3770.7,0.02336
3764.91,0.02317
3759.12,0.02343
3753.34,0.02364
3747.55,0.02402
3741.77,0.02422
3735.98,0.02501
3730.19,0.02386
3724.41,0.02376
3718.62,0.02366
3712.83,0.02451
3707.05,0.02362
3701.26,0.02386
3695.48,0.02379
3689.69,0.02362
3683.9,0.02348
3678.12,0.02392
3672.33,0.02314
3666.54,0.02354
3660.76,0.02393
3654.97,0.02405
3649.19,0.02366
3643.4,0.02316
3637.61,0.02359
3631.83,0.02330
3626.04,0.02342
3620.25,0.02306
3614.47,0.02294
3608.68,0.02359
3602.9,0.02317
3597.11,0.02354
3591.32,0.02337
3585.54,0.02306
3579.75,0.02252
3573.97,0.02340
3568.18,0.02279
3562.39,0.02258
3556.61,0.02295
3550.82,0.02355
3545.03,0.02254
3539.25,0.02247
3533.46,0.02244
3527.68,0.02282
3521.89,0.02189
3516.1,0.02186
3510.32,0.02198
3504.53,0.02193
3498.74,0.02183
3492.96,0.02229
3487.17,0.02263
3481.39,0.02182
3475.6,0.02201
3469.81,0.02242
3464.03,0.02237
3458.24,0.02237
3452.45,0.02138
3446.67,0.02199
3440.88,0.02235
3435.1,0.02221
3429.31,0.02193
3423.52,0.02233
3417.74,0.02180
3411.95,0.02146
3406.16,0.02126
3400.38,0.02113
3394.59,0.02105
3388.81,0.02108
3383.02,0.02132
3377.23,0.02142
3371.45,0.02172
3365.66,0.02161
3359.87,0.02147
3354.09,0.02088
3348.3,0.02150
3342.52,0.02189
3336.73,0.02143
3330.94,0.02119
3325.16,0.02178
3319.37,0.02222
3313.58,0.02160
3307.8,0.02149
3302.01,0.02145
3296.23,0.02081
3290.44,0.02141
3284.65,0.02180
3278.87,0.02145
3273.08,0.02080
3267.29,0.02175
3261.51,0.02179
3255.72,0.02150
3249.94,0.02197
3244.15,0.02230
3238.36,0.02218
3232.58,0.02132
3226.79,0.02212
3221,0.02231
3215.22,0.02183
3209.43,0.02204
3203.65,0.02220
3197.86,0.02225
3192.07,0.02192
3186.29,0.02195
3180.5,0.02213
3174.71,0.02269
3168.93,0.02221
3163.14,0.02197
3157.36,0.02289
3151.57,0.02171
3145.78,0.02216
3140,0.02253
3134.21,0.02225
3128.42,0.02255
3122.64,0.02266
3116.85,0.02248
3111.07,0.02212
3105.28,0.02236
3099.49,0.02243
3093.71,0.02228
3087.92,0.02195
3082.14,0.02170
3076.35,0.02222
3070.56,0.02200
3064.78,0.02182
3058.99,0.02211
3053.2,0.02186
3047.42,0.02198
3041.63,0.02185
3035.85,0.02210
3030.06,0.02170
3024.27,0.02227
3018.49,0.02229
3012.7,0.02153
3006.91,0.02237
3001.13,0.02204
2995.34,0.02171
2989.56,0.02162
2983.77,0.02124
2977.98,0.02091
2972.2,0.02097
2966.41,0.02086
2960.62,0.02085
2954.84,0.02104
2949.05,0.02092
2943.27,0.02108
2937.48,0.02068
2931.69,0.02111
2925.91,0.02149
2920.12,0.02145
2914.33,0.02172
2908.55,0.02205
2902.76,0.02169
2896.98,0.02153
2891.19,0.02235
2885.4,0.02199
2879.62,0.02183
2873.83,0.02181
2868.04,0.02166
2862.26,0.02204
2856.47,0.02222
2850.69,0.02237
2844.9,0.02224
2839.11,0.02259
2833.33,0.02253
2827.54,0.02290
2821.75,0.02260
2815.97,0.02267
2810.18,0.02298
2804.4,0.02265
2798.61,0.02306
2792.82,0.02270
2787.04,0.02279
2781.25,0.02258
2775.46,0.02270
2769.68,0.02289
2763.89,0.02283
2758.11,0.02290
2752.32,0.02303
2746.53,0.02293
2740.75,0.02231
2734.96,0.02269
2729.17,0.02310
2723.39,0.02276
2717.6,0.02259
2711.82,0.02262
2706.03,0.02290
2700.24,0.02278
2694.46,0.02256
2688.67,0.02302
2682.88,0.02285
2677.1,0.02311
2671.31,0.02267
2665.53,0.02287
2659.74,0.02288
2653.95,0.02337
2648.17,0.02280
2642.38,0.02328
2636.59,0.02326
2630.81,0.02277
2625.02,0.02333
2619.24,0.02256
2613.45,0.02316
2607.66,0.02265
2601.88,0.02266
2596.09,0.02239
2590.3,0.02286
2584.52,0.02301
2578.73,0.02291
2572.95,0.02311
2567.16,0.02270
2561.37,0.02292
2555.59,0.02336
2549.8,0.02287
2544.02,0.02312
2538.23,0.02312
2532.44,0.02312
2526.66,0.02279
2520.87,0.02271
2515.08,0.02270
2509.3,0.02244
2503.51,0.02290
2497.73,0.02317
2491.94,0.02264
2486.15,0.02241
2480.37,0.02261
2474.58,0.02260
2468.79,0.02271
2463.01,0.02320
2457.22,0.02260
2451.44,0.02268
2445.65,0.02294
2439.86,0.02343
2434.08,0.02317
2428.29,0.02299
2422.5,0.02298
2416.72,0.02304
2410.93,0.02313
2405.15,0.02297
2399.36,0.02320
2393.57,0.02315
2387.79,0.02275
2382,0.02256
2376.21,0.02298
2370.43,0.02277
2364.64,0.02349
2358.86,0.02295
2353.07,0.02300
2347.28,0.02322
2341.5,0.02307
2335.71,0.02331
2329.92,0.02346
2324.14,0.02267
2318.35,0.02298
2312.57,0.02328
2306.78,0.02307
2300.99,0.02306
2295.21,0.02292
2289.42,0.02319
2283.63,0.02281
2277.85,0.02261
2272.06,0.02262
2266.28,0.02237
2260.49,0.02294
2254.7,0.02271
2248.92,0.02317
2243.13,0.02284
2237.34,0.02297
2231.56,0.02272
2225.77,0.02291
2219.99,0.02272
2214.2,0.02276
2208.41,0.02312
2202.63,0.02310
2196.84,0.02306
2191.05,0.02314
2185.27,0.02326
2179.48,0.02296
2173.7,0.02280
2167.91,0.02315
2162.12,0.02312
2156.34,0.02279
2150.55,0.02308
2144.76,0.02284
2138.98,0.02277
2133.19,0.02259
2127.41,0.02273
2121.62,0.02295
2115.83,0.02279
2110.05,0.02284
2104.26,0.02269
2098.47,0.02289
2092.69,0.02310
2086.9,0.02285
2081.12,0.02259
2075.33,0.02272
2069.54,0.02289
2063.76,0.02267
2057.97,0.02239
2052.19,0.02277
2046.4,0.02274
2040.61,0.02297
2034.83,0.02282
2029.04,0.02278
2023.25,0.02253
2017.47,0.02265
2011.68,0.02257
2005.9,0.02307
2000.11,0.02256
1994.32,0.02271
1988.54,0.02276
1982.75,0.02255
1976.96,0.02277
1971.18,0.02295
1965.39,0.02271
1959.61,0.02262
1953.82,0.02256
1948.03,0.02275
1942.25,0.02284
1936.46,0.02262
1930.67,0.02289
1924.89,0.02259
1919.1,0.02256
1913.32,0.02264
1907.53,0.02269
1901.74,0.02258
1895.96,0.02227
1890.17,0.02234
1884.38,0.02238
1878.6,0.02251
1872.81,0.02258
1867.03,0.02244
1861.24,0.02234
1855.45,0.02237
1849.67,0.02205
1843.88,0.02219
1838.09,0.02202
1832.31,0.02205
1826.52,0.02181
1820.74,0.02178
1814.95,0.02172
1809.16,0.02207
1803.38,0.02157
1797.59,0.02168
1791.8,0.02141
1786.02,0.02146
1780.23,0.02114
1774.45,0.02050
1768.66,0.02040
1762.87,0.02016
1757.09,0.01930
1751.3,0.01908
1745.51,0.01935
1739.73,0.02015
1733.94,0.02129
1728.16,0.02214
1722.37,0.02235
1716.58,0.02233
1710.8,0.02234
1705.01,0.02232
1699.22,0.02213
1693.44,0.02101
1687.65,0.02072
1681.87,0.02081
1676.08,0.02079
1670.29,0.02062
1664.51,0.02019
1658.72,0.02051
1652.93,0.02054
1647.15,0.02019
1641.36,0.02043
1635.58,0.02041
1629.79,0.02056
1624,0.02042
1618.22,0.02072
1612.43,0.02047
1606.64,0.02051
1600.86,0.02058
1595.07,0.02054
1589.29,0.02004
1583.5,0.02011
1577.71,0.02026
1571.93,0.02032
1566.14,0.01982
1560.35,0.01994
1554.57,0.01987
1548.78,0.02048
1543,0.02021
1537.21,0.02040
1531.42,0.02033
1525.64,0.02046
1519.85,0.02027
1514.07,0.02052
1508.28,0.02001
1502.49,0.01991
1496.71,0.02074
1490.92,0.02071
1485.13,0.02047
1479.35,0.02022
1473.56,0.01991
1467.78,0.02002
1461.99,0.02041
1456.2,0.02008
1450.42,0.02024
1444.63,0.02050
1438.84,0.02060
1433.06,0.02007
1427.27,0.02012
1421.49,0.02019
1415.7,0.01986
1409.91,0.01995
1404.13,0.01971
1398.34,0.01974
1392.55,0.01974
1386.77,0.01970
1380.98,0.01970
1375.2,0.01990
1369.41,0.02003
1363.62,0.01965
1357.84,0.01982
1352.05,0.01946
1346.26,0.01931
1340.48,0.01946
1334.69,0.01928
1328.91,0.01906
1323.12,0.01880
1317.33,0.01849
1311.55,0.01817
1305.76,0.01841
1299.97,0.01864
1294.19,0.01900
1288.4,0.01966
1282.62,0.02035
1276.83,0.02053
1271.04,0.02079
1265.26,0.02088
1259.47,0.02113
1253.68,0.02148
1247.9,0.02178
1242.11,0.02154
1236.33,0.02156
1230.54,0.02140
1224.75,0.02089
1218.97,0.02045
1213.18,0.02048
1207.39,0.02065
1201.61,0.02023
1195.82,0.02012
1190.04,0.01974
1184.25,0.02000
1178.46,0.01954
1172.68,0.01986
1166.89,0.01972
1161.1,0.01939
1155.32,0.01917
1149.53,0.01862
1143.75,0.01920
1137.96,0.01938
1132.17,0.01955
1126.39,0.01996
1120.6,0.01993
1114.81,0.02039
1109.03,0.02026
1103.24,0.02004
1097.46,0.02000
1091.67,0.01940
1085.88,0.01929
1080.1,0.01984
1074.31,0.02087
1068.52,0.02161
1062.74,0.02183
1056.95,0.02124
1051.17,0.02053
1045.38,0.02088
1039.59,0.02137
1033.81,0.02178
1028.02,0.02119
1022.24,0.02073
1016.45,0.02023
1010.66,0.02219
1004.88,0.02245
999.09,0.02271
993.304,0.02307
987.518,0.02255
981.731,0.02242
975.945,0.02209
970.159,0.02225
964.373,0.02242
958.586,0.02196
952.8,0.02176
947.014,0.02170
941.228,0.02171
935.441,0.02211
929.655,0.02168
923.869,0.02190
918.083,0.02122
912.297,0.02101
906.51,0.02133
900.724,0.02140
894.938,0.02110
889.152,0.02080
883.365,0.02119
877.579,0.02134
871.793,0.02119
866.007,0.02103
860.22,0.02074
854.434,0.02104
848.648,0.02112
842.862,0.02177
837.075,0.02086
831.289,0.02129
825.503,0.02092
819.717,0.02011
813.931,0.02000
808.144,0.02075
802.358,0.02072
796.572,0.02027
790.786,0.02005
784.999,0.01967
779.213,0.02017
773.427,0.01958
767.641,0.01939
761.854,0.02029
756.068,0.01922
750.282,0.01994
744.496,0.02009
738.709,0.02036
732.923,0.01914
727.137,0.01955
721.351,0.01914
715.565,0.01993
709.778,0.01951
703.992,0.01994
698.206,0.02054
692.42,0.02002
686.633,0.01975
680.847,0.01956
675.061,0.02005
669.275,0.01910
663.488,0.01977
657.702,0.02023
651.916,0.01909
646.13,0.01842
640.343,0.01816
634.557,0.01795
628.771,0.01741
622.985,0.01695
617.198,0.01690
611.412,0.01622
605.626,0.01763
599.84,0.01738