File: 01_Data/Fiber_Reinforced_Helmet_Shell/STA/N2/30K_min/Fiber_Reinforced_Helmet_Shell_STA_N2_30KData_250429_R2.csv
Temp./C,Time/min,DSC/(mW/mg),Mass loss/mg
60.0,0.0,0.882901,0.0124105
60.5,0.0302586,0.918053,0.00894742
61,0.0594344,0.954153,0.00819447
61.5,0.0863818,0.975946,0.00776393
62,0.116678,1.00565,0.00740865
62.5,0.144609,1.02532,0.00470032
63,0.172431,1.05222,0.0043649
63.5,0.197303,1.08851,0.00808616
64,0.225542,1.10631,0.0113926
64.5,0.252024,1.12962,0.0120742
65,0.277341,1.15391,0.0128263
65.5,0.303003,1.17094,0.0124486
66,0.32827,1.20299,0.0113082
66.5,0.353337,1.20877,0.0107443
67,0.377388,1.24908,0.0102693
67.5,0.40179,1.25598,0.0109392
68,0.425418,1.28106,0.0112868
68.5,0.449764,1.29821,0.0111993
69,0.473308,1.31578,0.0111323
69.5,0.496853,1.34816,0.0113257
70,0.52014,1.36049,0.0108006
70.5,0.543336,1.38182,0.010794
71,0.564948,1.39998,0.0105194
71.5,0.588655,1.41525,0.0105509
72,0.610465,1.42438,0.0103232
72.5,0.633254,1.449,0.0105552
73,0.655431,1.46031,0.0114006
73.5,0.677194,1.4759,0.0115452
74,0.699436,1.4862,0.0103216
74.5,0.720638,1.50918,0.00984678
75,0.743226,1.51632,0.0107114
75.5,0.764835,1.53674,0.0102949
76,0.785679,1.53848,0.00961185
76.5,0.807046,1.55179,0.00956078
77,0.828551,1.57534,0.0103193
77.5,0.849571,1.57635,0.0106866
78,0.871288,1.59325,0.00953563
78.5,0.891186,1.60064,0.00874144
79,0.912439,1.60496,0.00875147
79.5,0.932641,1.61951,0.00958328
80,0.953758,1.63987,0.0103795
80.5,0.974422,1.64318,0.0115835
81,0.994138,1.66013,0.0100194
81.5,1.01515,1.67974,0.0101156
82,1.03484,1.68857,0.0104992
82.5,1.0549,1.68517,0.0102144
83,1.07505,1.69064,0.0106405
83.5,1.09496,1.69374,0.0106817
84,1.11477,1.70051,0.0101043
84.5,1.13516,1.71528,0.0104732
85,1.15469,1.73429,0.0106238
85.5,1.17441,1.7396,0.0104594
86,1.19422,1.74809,0.0121618
86.5,1.21329,1.75402,0.0112293
87,1.23299,1.76027,0.0120617
87.5,1.25242,1.76816,0.0109943
88,1.27162,1.78029,0.0102887
88.5,1.29104,1.7824,0.0106702
89,1.30944,1.78999,0.0110457
89.5,1.32932,1.80227,0.0101455
90,1.3489,1.80943,0.0101917
90.5,1.36823,1.81507,0.0101287
91,1.38673,1.83187,0.0099653
91.5,1.40587,1.84181,0.00830937
92,1.42448,1.83961,0.00929702
92.5,1.44336,1.84559,0.00912304
93,1.46242,1.85731,0.00922379
93.5,1.48091,1.86627,0.00866314
94,1.49978,1.8789,0.00943057
94.5,1.51856,1.87934,0.00934573
95,1.53705,1.88519,0.00849417
95.5,1.55548,1.89887,0.0087823
96,1.57417,1.90888,0.00818386
96.5,1.59271,1.91437,0.00862935
97,1.61112,1.91865,0.00772244
97.5,1.6299,1.92371,0.0083141
98,1.64805,1.92539,0.00764629
98.5,1.66629,1.9222,0.00841405
99,1.68491,1.93162,0.00745443
99.5,1.70296,1.94002,0.00758446
100,1.72115,1.9564,0.00729909
100.5,1.73948,1.95791,0.00736011
101,1.75752,1.96157,0.00771632
101.5,1.77539,1.97233,0.00773904
102,1.79397,1.97711,0.00809669
102.5,1.81206,1.98484,0.00911328
103,1.83006,1.99098,0.00927065
103.5,1.84763,1.9932,0.0100134
104,1.86576,1.99834,0.00907602
104.5,1.88374,2.00684,0.00987925
105,1.90188,2.012,0.0104239
105.5,1.91988,2.03032,0.010424
106,1.93802,2.02861,0.00961254
106.5,1.95579,2.03956,0.00909721
107,1.97344,2.04393,0.00985064
107.5,1.99159,2.05019,0.0092025
108,2.0095,2.0539,0.00912212
108.5,2.02728,2.05578,0.00910028
109,2.04507,2.06816,0.00905313
109.5,2.06281,2.08083,0.00781849
110,2.08049,2.08448,0.00779957
110.5,2.09813,2.08947,0.00800325
111,2.11576,2.09575,0.00777334
111.5,2.13331,2.0947,0.00779512
112,2.15099,2.10045,0.00749719
112.5,2.16867,2.10998,0.00782363
113,2.18656,2.12253,0.00781628
113.5,2.20396,2.12178,0.00718406
114,2.22154,2.12894,0.0067089
114.5,2.23871,2.133,0.00785001
115,2.25657,2.14158,0.00780042
115.5,2.27419,2.14504,0.00750256
116,2.29148,2.15118,0.00637572
116.5,2.30901,2.16006,0.00774643
117,2.32657,2.16284,0.0076891
117.5,2.34392,2.16224,0.00648376
118,2.36118,2.17338,0.0064781
118.5,2.37861,2.17643,0.0064663
119,2.39514,2.18104,0.00642866
119.5,2.41287,2.19843,0.00594936
120,2.43044,2.1902,0.00652687
120.5,2.44789,2.20232,0.00678425
121,2.46515,2.20787,0.00796947
121.5,2.48268,2.21796,0.00792529
122,2.49933,2.22009,0.00920169
122.5,2.51643,2.2274,0.00926158
123,2.53409,2.23233,0.00828339
123.5,2.55085,2.22905,0.00789296
124,2.56815,2.23518,0.00785538
124.5,2.58537,2.23849,0.00654933
125,2.60281,2.23761,0.00658905
125.5,2.61966,2.24882,0.00658485
126,2.63639,2.26081,0.00660144
126.5,2.65375,2.2533,0.00601203
127,2.67055,2.26729,0.00522623
127.5,2.68726,2.26955,0.00527298
128,2.70462,2.27139,0.00531609
128.5,2.72141,2.27883,0.00589303
129,2.73821,2.2843,0.00564561
129.5,2.75501,2.28934,0.00528177
130,2.77176,2.28687,0.00526543
130.5,2.78798,2.29202,0.0051732
131,2.80488,2.30411,0.00591581
131.5,2.82095,2.30204,0.0052408
132,2.83882,2.30358,0.00526275
132.5,2.85582,2.31889,0.00524146
133,2.87244,2.32011,0.00393973
133.5,2.88878,2.31915,0.00395486
134,2.90536,2.31746,0.00389559
134.5,2.92267,2.32726,0.00270063
135,2.93888,2.33322,0.00264451
135.5,2.95551,2.33332,0.00265495
136,2.97247,2.33867,0.00396182
136.5,2.98849,2.33998,0.00392776
137,3.00504,2.34035,0.00394493
137.5,3.02152,2.34098,0.00285459
138,3.03843,2.34553,0.00265547
138.5,3.05484,2.35438,0.00262861
139,3.07126,2.3607,0.00263659
139.5,3.08752,2.36297,0.00290956
140,3.10315,2.36653,0.00396908
140.5,3.11991,2.37514,0.00394932
141,3.1365,2.38801,0.00397898
141.5,3.1522,2.38781,0.00335616
142,3.1694,2.38196,0.00317333
142.5,3.18559,2.3908,0.00262702
143,3.20175,2.39197,0.00264319
143.5,3.21804,2.40306,0.00264044
144,3.23468,2.398,0.00263999
144.5,3.25092,2.39931,0.00263999
145,3.26728,2.40124,0.00264
145.5,3.28316,2.40536,0.00264
146,3.29949,2.40597,0.00264
146.5,3.31561,2.40742,0.00264
147,3.3318,2.42231,0.00264
147.5,3.34775,2.41718,0.00264
148,3.3637,2.41937,0.00264
148.5,3.38002,2.42345,0.00264
149,3.39601,2.4279,0.00264001
149.5,3.41204,2.42742,0.00263985
150,3.42793,2.41913,0.00263835
150.5,3.44428,2.42595,0.00264308
151,3.46048,2.41831,0.00173458
151.5,3.47631,2.42191,0.0013366
152,3.4916,2.43394,0.0013169
152.5,3.50777,2.43781,0.00131951
153,3.5238,2.44563,0.00132001
153.5,3.54043,2.44231,0.00132001
154,3.55632,2.4431,0.00132
154.5,3.57227,2.44472,0.00132
155,3.58816,2.44708,0.00131995
155.5,3.60446,2.44209,0.00131948
156,3.62007,2.44708,0.00132178
156.5,3.63572,2.4517,0.00135354
157,3.65198,2.45366,0.00077543
157.5,3.6679,2.4567,-0.00120482
158,3.68393,2.46145,-0.00132476
158.5,3.69957,2.45672,-0.00132001
159,3.71536,2.45524,-0.00131993
159.5,3.73138,2.45532,-0.00131999
160,3.74707,2.45397,-0.00132
160.5,3.76265,2.46034,-0.00132001
161,3.77856,2.46125,-0.00132012
161.5,3.79432,2.4605,-0.00131964
162,3.80992,2.47224,-0.00131011
162.5,3.82563,2.46343,-0.00174462
163,3.84167,2.46292,-0.00270352
163.5,3.85713,2.47053,-0.00264535
164,3.87295,2.47978,-0.00263932
164.5,3.88886,2.47056,-0.00263998
165,3.90468,2.46147,-0.00264065
165.5,3.92033,2.47087,-0.00263573
166,3.93638,2.47491,-0.00257923
166.5,3.95192,2.47827,-0.00328643
167,3.96727,2.47583,-0.00345797
167.5,3.98311,2.4805,-0.00364485
168,3.99876,2.48314,-0.0039861
168.5,4.01474,2.48569,-0.00396349
169,4.02957,2.4854,-0.00398302
169.5,4.04572,2.49434,-0.00362339
170,4.06151,2.49887,-0.00327972
170.5,4.07725,2.50361,-0.0032987
171,4.09288,2.50189,-0.00330025
171.5,4.10822,2.51118,-0.00330005
172,4.12421,2.52118,-0.00330005
172.5,4.13964,2.5243,-0.00329947
173,4.1553,2.51886,-0.00329524
173.5,4.17111,2.5206,-0.00354359
174,4.18652,2.52588,-0.00472259
174.5,4.20103,2.53025,-0.00461389
175,4.21713,2.53144,-0.00461689
175.5,4.2325,2.53366,-0.00463267
176,4.24819,2.54182,-0.00474448
176.5,4.26359,2.54369,-0.00588369
177,4.27965,2.55246,-0.00592601
177.5,4.29525,2.55644,-0.00594023
178,4.31084,2.56352,-0.00594033
178.5,4.32624,2.56655,-0.00594125
179,4.34194,2.56905,-0.00593883
179.5,4.35728,2.57356,-0.00678756
180,4.37261,2.58021,-0.00724517
180.5,4.38797,2.5859,-0.00725591
181,4.40391,2.58831,-0.0072515
181.5,4.41901,2.59378,-0.00723608
182,4.43422,2.60124,-0.00717448
182.5,4.44999,2.61282,-0.00585877
183,4.46512,2.60115,-0.0057451
183.5,4.48054,2.60753,-0.00568438
184,4.49614,2.61472,-0.00677079
184.5,4.51142,2.62521,-0.00724292
185,4.52656,2.63788,-0.00835657
185.5,4.54246,2.6462,-0.00878779
186,4.55758,2.64821,-0.00879479
186.5,4.57275,2.65469,-0.00879011
187,4.5879,2.65811,-0.00878989
187.5,4.60349,2.65831,-0.00878994
188,4.61896,2.66376,-0.00879096
188.5,4.63392,2.67172,-0.00879449
189,4.64927,2.6761,-0.0087406
189.5,4.66454,2.68004,-0.00963839
190,4.68005,2.69541,-0.0101332
190.5,4.69513,2.69897,-0.0101113
191,4.71027,2.7073,-0.0101223
191.5,4.72567,2.71027,-0.0102714
192,4.74127,2.71257,-0.0113845
192.5,4.75631,2.72133,-0.0114059
193,4.77129,2.73263,-0.0114206
193.5,4.78668,2.7294,-0.0114203
194,4.80191,2.74449,-0.01142
194.5,4.81678,2.74989,-0.01142
195,4.83237,2.75321,-0.01142
195.5,4.84731,2.75921,-0.01142
196,4.86264,2.76469,-0.01142
196.5,4.87777,2.77258,-0.01142
197,4.89309,2.78298,-0.01142
197.5,4.90798,2.79077,-0.0114195
198,4.92336,2.79633,-0.0114186
198.5,4.93817,2.80239,-0.0114461
199,4.95359,2.80623,-0.0115094
199.5,4.96883,2.81163,-0.0127071
200,4.98401,2.82263,-0.0127385
200.5,4.99923,2.8265,-0.0127403
201,5.01406,2.8267,-0.01274
201.5,5.02938,2.8326,-0.01274
202,5.04433,2.84328,-0.01274
202.5,5.05938,2.86022,-0.01274
203,5.07463,2.8635,-0.01274
203.5,5.08956,2.8712,-0.01274
204,5.10459,2.87882,-0.0127399
204.5,5.1199,2.88181,-0.0127409
205,5.13484,2.8893,-0.0127467
205.5,5.15022,2.89976,-0.012699
206,5.16515,2.9085,-0.0136347
206.5,5.18035,2.91636,-0.0140779
207,5.19501,2.9148,-0.0140745
207.5,5.21051,2.92401,-0.0134952
208,5.22513,2.92774,-0.0127535
208.5,5.24039,2.93951,-0.0127451
209,5.25559,2.94916,-0.0127398
209.5,5.27063,2.96043,-0.0127399
210,5.28602,2.9687,-0.0127395
210.5,5.3009,2.96942,-0.0127415
211,5.31583,2.97086,-0.0127778
211.5,5.33108,2.97647,-0.013975
212,5.34564,2.98106,-0.0140354
212.5,5.36107,2.98918,-0.0140612
213,5.37593,3.00344,-0.0140549
213.5,5.39089,3.00972,-0.0142886
214,5.4059,3.01519,-0.0154628
214.5,5.4211,3.03098,-0.0153642
215,5.43614,3.03527,-0.0153627
215.5,5.4511,3.04159,-0.0153846
216,5.4661,3.0452,-0.0157019
216.5,5.48106,3.05403,-0.0166838
217,5.49594,3.0648,-0.0166857
217.5,5.51097,3.07133,-0.0166977
218,5.52633,3.07951,-0.0168832
218.5,5.54144,3.07974,-0.0179796
219,5.5563,3.0871,-0.0179946
219.5,5.57073,3.09054,-0.0180111
220,5.58625,3.09851,-0.0180103
220.5,5.60109,3.10654,-0.0180101
221,5.61633,3.11255,-0.0180115
221.5,5.63125,3.11923,-0.0180066
222,5.64622,3.11931,-0.0179336
222.5,5.66099,3.12294,-0.0188853
223,5.67617,3.13568,-0.0193392
223.5,5.69107,3.14311,-0.0193295
224,5.70593,3.14836,-0.0193299
224.5,5.7206,3.15295,-0.0193297
225,5.73591,3.16889,-0.0193252
225.5,5.75085,3.17463,-0.0193459
226,5.76576,3.17069,-0.0196227
226.5,5.78079,3.16827,-0.0206298
227,5.79546,3.17124,-0.0206373
227.5,5.81043,3.17855,-0.0206416
228,5.82561,3.18445,-0.0206563
228.5,5.84012,3.19094,-0.0205545
229,5.85474,3.19301,-0.0217886
229.5,5.86901,3.19938,-0.0219621
230,5.88393,3.20088,-0.021944
230.5,5.899,3.20803,-0.0223545
231,5.9144,3.21146,-0.0233252
231.5,5.92922,3.22046,-0.0232703
232,5.94392,3.22511,-0.0232775
232.5,5.95912,3.23431,-0.0234065
233,5.97443,3.24309,-0.0246807
233.5,5.98956,3.25202,-0.0245902
234,6.0043,3.25151,-0.0245861
234.5,6.01922,3.25476,-0.0254879
235,6.03421,3.2564,-0.0248271
235.5,6.04902,3.26119,-0.0249315
236,6.06408,3.26698,-0.0249917
236.5,6.07876,3.27316,-0.0260677
237,6.09399,3.27049,-0.0262359
237.5,6.10859,3.27489,-0.0264972
238,6.12386,3.27742,-0.0273636
238.5,6.13843,3.2831,-0.0273289
239,6.15328,3.2952,-0.0277612
239.5,6.16825,3.2992,-0.0287372
240,6.18289,3.31017,-0.0286623
240.5,6.19793,3.30831,-0.0286585
241,6.21274,3.31574,-0.0286601
241.5,6.22759,3.31597,-0.0286554
242,6.24227,3.31627,-0.02898
242.5,6.25725,3.32439,-0.0300598
243,6.27236,3.32157,-0.0299703
243.5,6.2865,3.33033,-0.0299792
244,6.30218,3.32584,-0.0299675
244.5,6.31677,3.32351,-0.0309842
245,6.33161,3.32992,-0.0313043
245.5,6.34658,3.33823,-0.0316711
246,6.36116,3.34845,-0.0326104
246.5,6.37621,3.36055,-0.0323853
247,6.39113,3.36506,-0.0325244
247.5,6.4055,3.36124,-0.0326205
248,6.42071,3.3639,-0.0335549
248.5,6.43549,3.36997,-0.0340354
249,6.45021,3.37771,-0.0340293
249.5,6.46497,3.38131,-0.0340297
250,6.48018,3.3802,-0.0340309
250.5,6.49447,3.39409,-0.0340415
251,6.5095,3.39613,-0.0351272
251.5,6.52444,3.3954,-0.0353382
252,6.53906,3.3968,-0.0352535
252.5,6.55438,3.40087,-0.0364881
253,6.56901,3.40874,-0.0366671
253.5,6.58371,3.42032,-0.0366455
254,6.59833,3.42106,-0.0372486
254.5,6.61326,3.42052,-0.0379868
255,6.62806,3.4246,-0.0379287
255.5,6.64305,3.43595,-0.0387111
256,6.658,3.4422,-0.0394653
256.5,6.67263,3.43961,-0.0397772
257,6.68766,3.44525,-0.0410879
257.5,6.70216,3.45495,-0.0409465
258,6.71684,3.45815,-0.042241
258.5,6.73182,3.46695,-0.0421469
259,6.7465,3.47252,-0.0410153
259.5,6.7614,3.48244,-0.042082
260,6.77608,3.48898,-0.0426127
260.5,6.79108,3.49854,-0.0442027
261,6.80592,3.50791,-0.0448547
261.5,6.82078,3.51481,-0.047041
262,6.83557,3.51018,-0.0470878
262.5,6.85031,3.50973,-0.0470083
263,6.8653,3.5136,-0.048552
263.5,6.88001,3.51901,-0.0493061
264,6.89446,3.52184,-0.0503997
264.5,6.90938,3.53231,-0.05123
265,6.92445,3.5382,-0.0520064
265.5,6.93891,3.54162,-0.0527414
266,6.95389,3.54426,-0.0535496
266.5,6.96852,3.55803,-0.0542331
267,6.9833,3.56436,-0.055122
267.5,6.99848,3.56845,-0.0550028
268,7.01318,3.57415,-0.0563029
268.5,7.02784,3.57606,-0.0563535
269,7.04233,3.58166,-0.0567856
269.5,7.05761,3.58866,-0.0571462
270,7.07218,3.59051,-0.0586276
270.5,7.08707,3.60689,-0.0596077
271,7.10197,3.60313,-0.0605842
271.5,7.11686,3.60646,-0.0621886
272,7.13146,3.6058,-0.0637207
272.5,7.14615,3.60748,-0.0642061
273,7.16133,3.61371,-0.0656293
273.5,7.17571,3.61444,-0.0667115
274,7.19055,3.62035,-0.0674778
274.5,7.20539,3.62206,-0.0693768
275,7.22018,3.61964,-0.0702094
275.5,7.23482,3.62464,-0.0710613
276,7.24975,3.62357,-0.0723271
276.5,7.26426,3.6235,-0.0726143
277,7.27894,3.62182,-0.0738982
277.5,7.29383,3.62244,-0.0736231
278,7.30864,3.61502,-0.0748446
278.5,7.32339,3.61993,-0.0765993
279,7.33835,3.62164,-0.0777022
279.5,7.35308,3.61749,-0.0782272
280,7.36794,3.61181,-0.079805
280.5,7.38267,3.60433,-0.0813862
281,7.39723,3.60274,-0.0825433
281.5,7.41224,3.6007,-0.0838774
282,7.42696,3.59975,-0.0854119
282.5,7.44143,3.58995,-0.0862109
283,7.45639,3.57616,-0.087235
283.5,7.47136,3.5704,-0.0889432
284,7.48571,3.56524,-0.0898961
284.5,7.50073,3.56582,-0.0911993
285,7.51522,3.55959,-0.0932706
285.5,7.53042,3.55175,-0.0952229
286,7.54486,3.54073,-0.0961027
286.5,7.55977,3.54156,-0.0977124
287,7.57434,3.52864,-0.0994822
287.5,7.58906,3.51916,-0.100848
288,7.60338,3.50571,-0.101942
288.5,7.61871,3.4991,-0.103994
289,7.63336,3.4881,-0.106258
289.5,7.64852,3.4752,-0.107542
290,7.66318,3.47173,-0.108604
290.5,7.67793,3.4624,-0.109771
291,7.69258,3.45842,-0.110782
291.5,7.70732,3.45061,-0.112067
292,7.72233,3.44087,-0.113754
292.5,7.73672,3.44323,-0.115793
293,7.75201,3.43109,-0.11739
293.5,7.76661,3.42407,-0.118269
294,7.78133,3.40229,-0.120445
294.5,7.79593,3.39054,-0.121627
295,7.81079,3.38714,-0.123712
295.5,7.82563,3.37001,-0.126051
296,7.84021,3.36084,-0.128136
296.5,7.85538,3.33907,-0.130886
297,7.86977,3.32836,-0.133371
297.5,7.88471,3.3109,-0.135951
298,7.89949,3.29608,-0.138343
298.5,7.91412,3.27791,-0.14022
299,7.92822,3.2656,-0.142791
299.5,7.94322,3.24987,-0.144884
300,7.95795,3.23416,-0.147559
300.5,7.97255,3.22178,-0.148576
301,7.98821,3.22546,-0.151094
301.5,8.00248,3.20365,-0.15416
302,8.01741,3.19108,-0.155871
302.5,8.03216,3.17906,-0.158297
303,8.04688,3.15508,-0.160327
303.5,8.0619,3.13506,-0.162227
304,8.07659,3.10906,-0.164692
304.5,8.09114,3.10015,-0.167137
305,8.1062,3.0785,-0.171297
305.5,8.12083,3.05477,-0.174072
306,8.13542,3.03097,-0.17686
306.5,8.15012,3.0054,-0.180038
307,8.16483,2.98446,-0.18222
307.5,8.17975,2.95588,-0.185439
308,8.19439,2.92875,-0.188089
308.5,8.20931,2.8987,-0.191326
309,8.22376,2.86798,-0.194267
309.5,8.23821,2.83147,-0.197211
310,8.25329,2.77523,-0.200335
310.5,8.26788,2.71582,-0.201542
311,8.2826,2.66045,-0.20278
311.5,8.29694,2.59831,-0.206054
312,8.31188,2.54046,-0.210981
312.5,8.32653,2.48203,-0.217111
313,8.34078,2.42508,-0.224642
313.5,8.35585,2.368,-0.228419
314,8.37049,2.32259,-0.232113
314.5,8.38515,2.28411,-0.233216
315,8.39963,2.23718,-0.234681
315.5,8.41458,2.19745,-0.238613
316,8.42928,2.16758,-0.245746
316.5,8.44391,2.14018,-0.253031
317,8.45891,2.12349,-0.261162
317.5,8.47331,2.11675,-0.265961
318,8.48859,2.0952,-0.270663
318.5,8.50312,2.09486,-0.275679
319,8.51814,2.0912,-0.279021
319.5,8.53295,2.09478,-0.282898
320,8.54753,2.10525,-0.287193
320.5,8.56267,2.12774,-0.291155
321,8.57773,2.14869,-0.296273
321.5,8.59224,2.16212,-0.300143
322,8.60743,2.17988,-0.304274
322.5,8.62224,2.20575,-0.30947
323,8.6373,2.23087,-0.313295
323.5,8.65224,2.25832,-0.317611
324,8.66695,2.28324,-0.322944
324.5,8.68233,2.32795,-0.326734
325,8.69665,2.35097,-0.330911
325.5,8.71139,2.37051,-0.334558
326,8.72669,2.41177,-0.337987
326.5,8.74176,2.43315,-0.342079
327,8.75665,2.46015,-0.344969
327.5,8.77092,2.4907,-0.348422
328,8.78644,2.51562,-0.351971
328.5,8.80132,2.53015,-0.353709
329,8.8164,2.55451,-0.357325
329.5,8.83139,2.57591,-0.359142
330,8.8462,2.59483,-0.361853
330.5,8.86137,2.60658,-0.365689
331,8.87616,2.62736,-0.367839
331.5,8.89123,2.6429,-0.370904
332,8.90601,2.66583,-0.373375
332.5,8.92143,2.68442,-0.375711
333,8.93592,2.69744,-0.378214
333.5,8.95101,2.71485,-0.380753
334,8.9657,2.73287,-0.384811
334.5,8.9808,2.74703,-0.387669
335,8.99579,2.75128,-0.390872
335.5,9.01077,2.75873,-0.393464
336,9.02592,2.77303,-0.395385
336.5,9.04077,2.78179,-0.397017
337,9.05569,2.7973,-0.39838
337.5,9.07063,2.81124,-0.400606
338,9.08559,2.82331,-0.402753
338.5,9.10052,2.82517,-0.404949
339,9.11554,2.838,-0.407417
339.5,9.12976,2.85035,-0.409446
340,9.14534,2.85071,-0.412185
340.5,9.1604,2.86309,-0.414063
341,9.17528,2.87695,-0.416668
341.5,9.19024,2.88028,-0.419989
342,9.20518,2.88487,-0.422008
342.5,9.22014,2.89839,-0.424809
343,9.23504,2.90584,-0.426678
343.5,9.25006,2.92374,-0.428737
344,9.2654,2.92646,-0.430914
344.5,9.28012,2.93486,-0.432768
345,9.29509,2.93788,-0.435688
345.5,9.31006,2.94519,-0.437741
346,9.32475,2.95262,-0.440951
346.5,9.33985,2.96174,-0.444458
347,9.35517,2.97004,-0.446703
347.5,9.37007,2.9786,-0.449576
348,9.385,2.98704,-0.451827
348.5,9.40006,2.99304,-0.454221
349,9.41547,2.99592,-0.45636
349.5,9.43053,3.00408,-0.457187
350,9.4455,3.00816,-0.458992
350.5,9.46064,3.01442,-0.459888
351,9.47551,3.0223,-0.460571
351.5,9.49005,3.02026,-0.460418
352,9.50499,3.02485,-0.462436
352.5,9.51995,3.02959,-0.467744
353,9.53558,3.03832,-0.471727
353.5,9.55054,3.04158,-0.475982
354,9.56563,3.04338,-0.479212
354.5,9.58059,3.04375,-0.481549
355,9.59557,3.04831,-0.48476
355.5,9.61058,3.04938,-0.488822
356,9.6251,3.05298,-0.491271
356.5,9.63971,3.05475,-0.494003
357,9.6555,3.05651,-0.494831
357.5,9.67052,3.05189,-0.494778
358,9.68555,3.0559,-0.494684
358.5,9.70077,3.06018,-0.496171
359,9.7156,3.06512,-0.499018
359.5,9.73058,3.06677,-0.502374
360,9.74568,3.06196,-0.506258
360.5,9.76076,3.06414,-0.5104
361,9.776,3.06423,-0.512712
361.5,9.79111,3.06798,-0.515616
362,9.8055,3.07269,-0.517672
362.5,9.82092,3.07021,-0.520088
363,9.83584,3.06188,-0.522676
363.5,9.85092,3.05862,-0.523974
364,9.86615,3.06141,-0.527209
364.5,9.88092,3.05637,-0.529016
365,9.89634,3.05644,-0.531209
365.5,9.91134,3.05752,-0.533628
366,9.92631,3.05841,-0.535193
366.5,9.9412,3.05764,-0.538006
367,9.95646,3.05425,-0.540473
367.5,9.97167,3.05453,-0.543679
368,9.98633,3.04805,-0.546357
368.5,10.0014,3.04159,-0.54833
369,10.0167,3.03589,-0.551137
369.5,10.032,3.0306,-0.553132
370,10.0469,3.02849,-0.555341
370.5,10.0619,3.02567,-0.558073
371,10.0772,3.02513,-0.559602
371.5,10.0921,3.02455,-0.562064
372,10.1071,3.02206,-0.564366
372.5,10.1222,3.01179,-0.566587
373,10.1375,3.01219,-0.569428
373.5,10.1525,3.01443,-0.571907
374,10.1675,3.01542,-0.574956
374.5,10.1827,3.00835,-0.576766
375,10.1979,3.00609,-0.57862
375.5,10.2133,3.00706,-0.581574
376,10.2283,3.00962,-0.583532
376.5,10.2431,3.00303,-0.586353
377,10.2585,3.00902,-0.589089
377.5,10.2734,3.01358,-0.590919
378,10.2886,3.00824,-0.592297
378.5,10.3035,3.00367,-0.594165
379,10.3189,3.00549,-0.596502
379.5,10.3338,3.00252,-0.598722
380,10.349,2.99847,-0.600876
380.5,10.3641,2.99971,-0.603864
381,10.3794,2.99589,-0.605997
381.5,10.3946,3.00578,-0.609328
382,10.4097,3.0077,-0.612462
382.5,10.4249,3.00029,-0.614186
383,10.4399,3.00339,-0.616571
383.5,10.4552,3.00924,-0.618717
384,10.4705,3.00606,-0.621015
384.5,10.4853,3.00351,-0.623256
385,10.5007,3.00137,-0.625293
385.5,10.5159,2.99946,-0.628209
386,10.5308,2.99907,-0.629418
386.5,10.5456,3.00351,-0.631804
387,10.561,3.00828,-0.634945
387.5,10.576,3.00464,-0.636826
388,10.5918,3.00633,-0.639534
388.5,10.6072,3.0044,-0.641824
389,10.6222,3.00551,-0.643976
389.5,10.6375,3.00658,-0.64687
390,10.6528,3.0119,-0.649332
390.5,10.6679,3.01124,-0.653718
391,10.6833,3.01405,-0.656636
391.5,10.6983,3.0108,-0.659053
392,10.7135,3.01687,-0.662076
392.5,10.7289,3.02786,-0.664155
393,10.7438,3.03014,-0.667515
393.5,10.7592,3.02718,-0.671396
394,10.7747,3.02493,-0.674029
394.5,10.7899,3.03182,-0.677221
395,10.8051,3.04103,-0.679711
395.5,10.8204,3.04122,-0.682597
396,10.8354,3.04056,-0.686032
396.5,10.8508,3.048,-0.689188
397,10.8661,3.0471,-0.693087
397.5,10.8812,3.04952,-0.695249
398,10.8966,3.05154,-0.697863
398.5,10.9118,3.07556,-0.700891
399,10.9271,3.07225,-0.702792
399.5,10.942,3.07537,-0.705761
400,10.9576,3.08698,-0.70881
400.5,10.9727,3.09511,-0.711698
401,10.988,3.09358,-0.715525
401.5,11.0035,3.09997,-0.719132
402,11.0188,3.10098,-0.723088
402.5,11.034,3.10869,-0.726089
403,11.049,3.11667,-0.729039
403.5,11.0644,3.12194,-0.73228
404,11.0799,3.1263,-0.735031
404.5,11.0952,3.13362,-0.738284
405,11.1101,3.13829,-0.741773
405.5,11.1258,3.14437,-0.745716
406,11.1412,3.1469,-0.748698
406.5,11.1565,3.15507,-0.752465
407,11.1718,3.1534,-0.755995
407.5,11.1871,3.15833,-0.759353
408,11.2024,3.17321,-0.763237
408.5,11.2177,3.17666,-0.766151
409,11.2333,3.17699,-0.770115
409.5,11.2483,3.17693,-0.774411
410,11.2637,3.18269,-0.778193
410.5,11.2791,3.19068,-0.782658
411,11.2943,3.19483,-0.785922
411.5,11.3098,3.20265,-0.789825
412,11.3249,3.21198,-0.794143
412.5,11.3402,3.21294,-0.797673
413,11.3557,3.21461,-0.80236
413.5,11.371,3.21782,-0.806437
414,11.3863,3.21762,-0.80995
414.5,11.4017,3.22401,-0.813948
415,11.4171,3.22957,-0.816355
415.5,11.4321,3.24012,-0.820798
416,11.448,3.23869,-0.82547
416.5,11.4633,3.23469,-0.828885
417,11.4787,3.24158,-0.833132
417.5,11.4939,3.23897,-0.836734
418,11.5092,3.23315,-0.841213
418.5,11.5245,3.22885,-0.84647
419,11.5392,3.23239,-0.851268
419.5,11.5555,3.22186,-0.857146
420,11.5707,3.21024,-0.861949
420.5,11.5861,3.21599,-0.866514
421,11.6014,3.21758,-0.87205
421.5,11.6164,3.21548,-0.87595
422,11.6317,3.21209,-0.88089
422.5,11.6476,3.21622,-0.886499
423,11.6629,3.20649,-0.890772
423.5,11.6784,3.194,-0.895075
424,11.6936,3.19001,-0.899227
424.5,11.709,3.17759,-0.903728
425,11.7245,3.17342,-0.908981
425.5,11.7398,3.16295,-0.912974
426,11.755,3.15369,-0.917986
426.5,11.7708,3.14887,-0.921725
427,11.7859,3.14531,-0.926126
427.5,11.8012,3.13851,-0.931483
428,11.8167,3.13141,-0.935517
428.5,11.832,3.11484,-0.940201
429,11.8473,3.09829,-0.945537
429.5,11.8626,3.10305,-0.949723
430,11.8772,3.08165,-0.955174
430.5,11.8933,3.07245,-0.960156
431,11.9088,3.06314,-0.964153
431.5,11.9241,3.05088,-0.969858
432,11.9395,3.04144,-0.9742
432.5,11.9549,3.02683,-0.979728
433,11.9705,3.0135,-0.985074
433.5,11.9859,2.99,-0.989613
434,12.0012,2.96569,-0.995249
434.5,12.0168,2.96353,-0.999677
435,12.0317,2.9355,-1.00473
435.5,12.0472,2.91927,-1.0103
436,12.0629,2.91231,-1.0146
436.5,12.0779,2.89304,-1.01973
437,12.0929,2.86905,-1.02411
437.5,12.1089,2.84329,-1.02912
438,12.1244,2.82878,-1.03456
438.5,12.1398,2.809,-1.038
439,12.1554,2.78149,-1.04291
439.5,12.1706,2.755,-1.04767
440,12.1857,2.73297,-1.05215
440.5,12.2012,2.71242,-1.05752
441,12.2167,2.68469,-1.06156
441.5,12.2318,2.66825,-1.06615
442,12.2475,2.65023,-1.07148
442.5,12.2629,2.63176,-1.0753
443,12.2784,2.60418,-1.07876
443.5,12.2936,2.5795,-1.08253
444,12.309,2.55209,-1.08675
444.5,12.3245,2.52494,-1.09211
445,12.3399,2.50602,-1.09597
445.5,12.3553,2.48401,-1.10045
446,12.3708,2.46876,-1.10425
446.5,12.3862,2.44301,-1.10765
447,12.4017,2.41298,-1.11206
447.5,12.4169,2.38402,-1.11523
448,12.4322,2.35416,-1.11932
448.5,12.4478,2.32958,-1.12383
449,12.4632,2.30333,-1.12738
449.5,12.4789,2.27299,-1.13185
450,12.4943,2.25676,-1.13502
450.5,12.5098,2.22463,-1.13851
451,12.5251,2.19538,-1.14218
451.5,12.5406,2.17453,-1.1451
452,12.5557,2.15512,-1.14873
452.5,12.5715,2.11746,-1.15204
453,12.5871,2.10184,-1.15495
453.5,12.6023,2.08431,-1.15844
454,12.6179,2.05495,-1.16195
454.5,12.6331,2.02491,-1.16471
455,12.649,2.00249,-1.16831
455.5,12.6644,1.98134,-1.17118
456,12.6797,1.96233,-1.17448
456.5,12.6952,1.93927,-1.17753
457,12.7109,1.9134,-1.17994
457.5,12.7264,1.88892,-1.18268
458,12.7419,1.87013,-1.18471
458.5,12.7573,1.85473,-1.18699
459,12.7726,1.83973,-1.19078
459.5,12.7886,1.82269,-1.1931
460,12.8035,1.80364,-1.19592
460.5,12.8191,1.77839,-1.19828
461,12.8351,1.75968,-1.19994
461.5,12.8504,1.74091,-1.20221
462,12.8661,1.7218,-1.20449
462.5,12.8815,1.70444,-1.20686
463,12.8971,1.68298,-1.20945
463.5,12.9117,1.66496,-1.21185
464,12.9282,1.65012,-1.21497
464.5,12.9433,1.62214,-1.21651
465,12.9592,1.61147,-1.21823
465.5,12.9745,1.59334,-1.21986
466,12.9902,1.56818,-1.22227
466.5,13.0055,1.5658,-1.22452
467,13.0212,1.54491,-1.2262
467.5,13.037,1.52664,-1.22797
468,13.0526,1.51866,-1.22939
468.5,13.0682,1.50256,-1.23069
469,13.0838,1.48527,-1.23208
469.5,13.0994,1.47006,-1.23398
470,13.1146,1.45429,-1.23578
470.5,13.1306,1.43894,-1.23767
471,13.146,1.42407,-1.23858
471.5,13.1614,1.41027,-1.24029
472,13.1773,1.39416,-1.24266
472.5,13.1929,1.38803,-1.24468
473,13.2083,1.37315,-1.24647
473.5,13.2241,1.36074,-1.24747
474,13.2396,1.34736,-1.24883
474.5,13.255,1.3304,-1.2505
475,13.2707,1.30783,-1.25226
475.5,13.2865,1.28794,-1.25422
476,13.3018,1.27033,-1.25598
476.5,13.3179,1.26222,-1.25731
477,13.3333,1.25334,-1.25807
477.5,13.349,1.24405,-1.25984
478,13.3647,1.23641,-1.26007
478.5,13.3801,1.23073,-1.26145
479,13.396,1.21364,-1.26156
479.5,13.411,1.20751,-1.26293
480,13.427,1.20203,-1.26463
480.5,13.4427,1.19454,-1.26603
481,13.4584,1.18563,-1.26736
481.5,13.4741,1.17844,-1.26803
482,13.49,1.17728,-1.26967
482.5,13.5056,1.1696,-1.27094
483,13.5211,1.16482,-1.27183
483.5,13.5368,1.15429,-1.27352
484,13.5525,1.15087,-1.27483
484.5,13.568,1.13868,-1.2757
485,13.584,1.13096,-1.27717
485.5,13.5994,1.13286,-1.27723
486,13.6153,1.13531,-1.27865
486.5,13.6311,1.12465,-1.27847
487,13.6467,1.1147,-1.27996
487.5,13.6625,1.12035,-1.28009
488,13.6781,1.11692,-1.2817
488.5,13.6937,1.10944,-1.28195
489,13.7094,1.10432,-1.28275
489.5,13.7245,1.10556,-1.2836
490,13.7409,1.10107,-1.2842
490.5,13.7564,1.09342,-1.28565
491,13.7723,1.0895,-1.28577
491.5,13.788,1.08819,-1.28721
492,13.8035,1.07868,-1.28729
492.5,13.8194,1.0716,-1.288
493,13.8349,1.06502,-1.28876
493.5,13.8507,1.06078,-1.29015
494,13.8664,1.05522,-1.29073
494.5,13.8822,1.0552,-1.29214
495,13.8978,1.0554,-1.29339
495.5,13.9138,1.05317,-1.29378
496,13.9294,1.04943,-1.29517
496.5,13.9452,1.05309,-1.29585
497,13.9608,1.04587,-1.29667
497.5,13.9768,1.04336,-1.29685
498,13.9926,1.03481,-1.29819
498.5,14.0083,1.02644,-1.29855
499,14.0238,1.0162,-1.29986
499.5,14.0397,1.01182,-1.30024
500,14.0553,0.999923,-1.30131
500.5,14.0711,1.00185,-1.30147
501,14.0871,0.993824,-1.30281
501.5,14.1028,0.987965,-1.30216
502,14.1183,0.984033,-1.30308
502.5,14.1341,0.981764,-1.3035
503,14.15,0.978227,-1.30517
503.5,14.1658,0.972729,-1.30559
504,14.1813,0.970674,-1.30663
504.5,14.1973,0.964737,-1.30666
505,14.213,0.953905,-1.30668
505.5,14.2288,0.949984,-1.30811
506,14.2447,0.949617,-1.30879
506.5,14.2605,0.940883,-1.30972
507,14.2761,0.934644,-1.31076
507.5,14.292,0.937513,-1.31125
508,14.3077,0.936133,-1.31181
508.5,14.3235,0.926789,-1.31279
509,14.3394,0.92693,-1.31295
509.5,14.3547,0.928615,-1.31368
510,14.3706,0.92616,-1.31328
510.5,14.387,0.923004,-1.31473
511,14.4026,0.918366,-1.31535
511.5,14.4185,0.915058,-1.31624
512,14.4344,0.912073,-1.31621
512.5,14.4499,0.898829,-1.31733
513,14.4658,0.898894,-1.31745
513.5,14.4816,0.89632,-1.31811
514,14.4973,0.894026,-1.31911
514.5,14.5132,0.882465,-1.31949
515,14.529,0.88336,-1.32006
515.5,14.5448,0.887445,-1.32001
516,14.561,0.884878,-1.32058
516.5,14.5765,0.886292,-1.3214
517,14.5926,0.888769,-1.32135
517.5,14.6084,0.8809,-1.32136
518,14.6241,0.877051,-1.32141
518.5,14.6399,0.872114,-1.32274
519,14.6559,0.871391,-1.3228
519.5,14.6716,0.873757,-1.32391
520,14.6872,0.868624,-1.32439
520.5,14.7035,0.864649,-1.3252
521,14.7194,0.858214,-1.326
521.5,14.7347,0.85195,-1.32659
522,14.7507,0.855463,-1.32753
522.5,14.7667,0.852121,-1.32746
523,14.7824,0.84329,-1.32817
523.5,14.7984,0.842397,-1.32885
524,14.8143,0.841688,-1.32879
524.5,14.83,0.84003,-1.32928
525,14.8455,0.835937,-1.33018
525.5,14.862,0.829672,-1.33012
526,14.8778,0.827028,-1.33128
526.5,14.8938,0.822228,-1.33155
527,14.9099,0.814453,-1.33173
527.5,14.9256,0.816843,-1.33298
528,14.9413,0.812996,-1.33288
528.5,14.957,0.807229,-1.33313
529,14.9733,0.808019,-1.33422
529.5,14.9891,0.804073,-1.33421
530,15.0048,0.791822,-1.33439
530.5,15.0209,0.791719,-1.3355
531,15.0366,0.786569,-1.33546
531.5,15.0523,0.786315,-1.33618
532,15.0683,0.786034,-1.33687
532.5,15.0842,0.78465,-1.33681
533,15.1002,0.785427,-1.33732
533.5,15.1161,0.786,-1.33821
534,15.132,0.772612,-1.33814
534.5,15.1479,0.772968,-1.33937
535,15.1641,0.766018,-1.33965
535.5,15.1798,0.762503,-1.3401
536,15.1957,0.749541,-1.33989
536.5,15.2115,0.745476,-1.33982
537,15.2275,0.746381,-1.34008
537.5,15.2433,0.74138,-1.34104
538,15.2595,0.728753,-1.34227
538.5,15.2747,0.727778,-1.34239
539,15.2911,0.723796,-1.34332
539.5,15.3071,0.722823,-1.34375
540,15.3229,0.715914,-1.34413
540.5,15.3389,0.709681,-1.34512
541,15.3548,0.705298,-1.34507
541.5,15.3706,0.700336,-1.34506
542,15.3866,0.70075,-1.34506
542.5,15.4027,0.689453,-1.34506
543,15.4186,0.693821,-1.34507
543.5,15.4344,0.68954,-1.34514
544,15.4505,0.684136,-1.34644
544.5,15.4662,0.681602,-1.34527
545,15.482,0.678365,-1.34682
545.5,15.4981,0.668838,-1.34679
546,15.5142,0.663252,-1.34733
546.5,15.5302,0.651701,-1.34817
547,15.546,0.645621,-1.34813
547.5,15.5619,0.651961,-1.34843
548,15.5779,0.648219,-1.34954
548.5,15.5939,0.645275,-1.34946
549,15.61,0.634394,-1.34944
549.5,15.6259,0.6175,-1.34938
550,15.6419,0.609827,-1.35041
550.5,15.6578,0.605003,-1.3503
551,15.6738,0.597561,-1.3499
551.5,15.6898,0.587757,-1.35105
552,15.7059,0.582809,-1.35117
552.5,15.7216,0.577472,-1.35257
553,15.7377,0.574451,-1.35363
553.5,15.7538,0.567292,-1.35358
554,15.7697,0.567093,-1.35436
554.5,15.7856,0.559612,-1.35495
555,15.8016,0.557418,-1.35494
555.5,15.8177,0.549425,-1.35494
556,15.8337,0.547831,-1.35492
556.5,15.8497,0.544396,-1.35575
557,15.8658,0.533232,-1.35525
557.5,15.8816,0.52664,-1.35524
558,15.8976,0.526669,-1.35636
558.5,15.9138,0.527621,-1.35659
559,15.9296,0.520649,-1.35654
559.5,15.9456,0.521603,-1.35751
560,15.9615,0.520112,-1.35791
560.5,15.9779,0.51741,-1.35793
561,15.9937,0.514614,-1.358
561.5,16.0099,0.51201,-1.35921
562,16.0258,0.518779,-1.35922
562.5,16.0422,0.519214,-1.35921
563,16.058,0.512126,-1.35928
563.5,16.0739,0.512984,-1.36026
564,16.0902,0.512018,-1.3602
564.5,16.106,0.514337,-1.36021
565,16.1221,0.508263,-1.36021
565.5,16.1382,0.517089,-1.36021
566,16.1542,0.51194,-1.36028
566.5,16.1703,0.499985,-1.35923
567,16.1861,0.496493,-1.36014
567.5,16.2023,0.49714,-1.36032
568,16.2184,0.494383,-1.36028
568.5,16.2342,0.48297,-1.36116
569,16.2506,0.479229,-1.36177
569.5,16.2664,0.479294,-1.3626
570,16.2826,0.480612,-1.36328
570.5,16.2984,0.481908,-1.36363
571,16.3146,0.483923,-1.36479
571.5,16.3308,0.483264,-1.36466
572,16.3466,0.474021,-1.36598
572.5,16.3621,0.468097,-1.36614
573,16.3789,0.465251,-1.36605
573.5,16.3949,0.463981,-1.36731
574,16.4106,0.464276,-1.36746
574.5,16.4266,0.466469,-1.36751
575,16.4425,0.467271,-1.3691
575.5,16.4588,0.463816,-1.37011
576,16.4751,0.462952,-1.37008
576.5,16.4909,0.456758,-1.37009
577,16.507,0.448483,-1.37009
577.5,16.5232,0.450508,-1.37009
578,16.5394,0.447571,-1.37023
578.5,16.5556,0.447881,-1.3715
579,16.5714,0.450339,-1.37141
579.5,16.5882,0.458922,-1.37172
580,16.6043,0.449126,-1.37286
580.5,16.6203,0.435889,-1.37259
581,16.6365,0.442123,-1.37253
581.5,16.6525,0.444215,-1.37284
582,16.6686,0.450902,-1.37284
582.5,16.6848,0.458096,-1.37285
583,16.7012,0.446389,-1.37279
583.5,16.7172,0.438838,-1.37409
584,16.7333,0.441648,-1.37416
584.5,16.7495,0.446217,-1.37416
585,16.7652,0.439864,-1.37413
585.5,16.7814,0.427464,-1.37475
586,16.7979,0.426479,-1.37551
586.5,16.8138,0.438795,-1.37546
587,16.83,0.438743,-1.37594
587.5,16.8463,0.429707,-1.37683
588,16.8625,0.430441,-1.37679
588.5,16.8784,0.423038,-1.37739
589,16.8946,0.425969,-1.37713
589.5,16.9106,0.435775,-1.37681
590,16.9271,0.437342,-1.37678
590.5,16.9426,0.425854,-1.3768
591,16.9592,0.42641,-1.37749
591.5,16.9754,0.425125,-1.37882
592,16.9916,0.418164,-1.37878
592.5,17.0076,0.415888,-1.37906
593,17.0239,0.414174,-1.38012
593.5,17.0399,0.402113,-1.38008
594,17.056,0.410383,-1.38011
594.5,17.0721,0.395985,-1.38139
595,17.0881,0.396645,-1.38138
595.5,17.1046,0.389373,-1.38141
596,17.121,0.389548,-1.38135
596.5,17.1367,0.385729,-1.38264
597,17.1528,0.385244,-1.38272
597.5,17.1692,0.381885,-1.38272
598,17.1852,0.37609,-1.38273
598.5,17.2014,0.372442,-1.38268
599,17.2175,0.371454,-1.38397
599.5,17.2338,0.367992,-1.38404
600,17.2498,0.366115,-1.3842
600.5,17.2662,0.353268,-1.3855
601,17.2824,0.345344,-1.38462
601.5,17.2986,0.348347,-1.38468
602,17.3146,0.344465,-1.38464
602.5,17.331,0.344158,-1.38556
603,17.3468,0.342628,-1.38601
603.5,17.3632,0.345601,-1.38601
604,17.3795,0.329774,-1.38601
604.5,17.3954,0.324076,-1.38601
605,17.4118,0.321003,-1.38601
605.5,17.4281,0.31715,-1.38609
606,17.4442,0.317193,-1.38753
606.5,17.4604,0.318093,-1.38743
607,17.4764,0.326057,-1.38743
607.5,17.4927,0.322055,-1.3878
608,17.5087,0.319912,-1.38883
608.5,17.5251,0.322683,-1.38874
609,17.5415,0.312412,-1.38934
609.5,17.5576,0.312973,-1.39026
610,17.5734,0.304686,-1.39026
610.5,17.5898,0.302817,-1.39156
611,17.6059,0.289778,-1.39161
611.5,17.622,0.280698,-1.39161
612,17.6384,0.27352,-1.39152
612.5,17.6546,0.278245,-1.39275
613,17.6708,0.278136,-1.39295
613.5,17.6868,0.28159,-1.39333
614,17.7032,0.280274,-1.39416
614.5,17.719,0.272367,-1.39366
615,17.7355,0.270548,-1.39388
615.5,17.7515,0.267184,-1.39373
616,17.7677,0.264202,-1.39368
616.5,17.784,0.26023,-1.39369
617,17.8003,0.253539,-1.39369
617.5,17.8162,0.252531,-1.39369
618,17.8326,0.243937,-1.39369
618.5,17.8488,0.24089,-1.39369
619,17.8649,0.243775,-1.39369
619.5,17.881,0.244529,-1.39356
620,17.8974,0.2422,-1.39301
620.5,17.9135,0.238867,-1.39303
621,17.9292,0.244178,-1.39303
621.5,17.9456,0.241122,-1.39307
622,17.962,0.241262,-1.39433
622.5,17.9781,0.239559,-1.39433
623,17.9943,0.239422,-1.39435
623.5,18.0108,0.244225,-1.39435
624,18.027,0.247654,-1.39425
624.5,18.0431,0.243844,-1.39538
625,18.0591,0.238459,-1.39532
625.5,18.0756,0.240051,-1.39534
626,18.0919,0.239603,-1.39533
626.5,18.1079,0.240898,-1.3957
627,18.1242,0.237432,-1.39567
627.5,18.1406,0.234228,-1.39567
628,18.1566,0.233889,-1.39645
628.5,18.1728,0.235196,-1.39697
629,18.1892,0.226533,-1.39782
629.5,18.2052,0.220561,-1.39829
630,18.2214,0.222615,-1.3983
630.5,18.2377,0.227385,-1.39921
631,18.2541,0.225301,-1.3996
631.5,18.2702,0.224028,-1.39963
632,18.2864,0.221711,-1.39905
632.5,18.3028,0.217338,-1.39963
633,18.3189,0.218034,-1.3996
633.5,18.335,0.217336,-1.39962
634,18.3507,0.216948,-1.39962
634.5,18.3672,0.21128,-1.39962
635,18.3832,0.199332,-1.39962
635.5,18.3994,0.195277,-1.39962
636,18.4166,0.193581,-1.39962
636.5,18.4327,0.19629,-1.39962
637,18.4487,0.195573,-1.39957
637.5,18.465,0.196175,-1.4005
638,18.4812,0.195891,-1.40095
638.5,18.4975,0.195504,-1.40095
639,18.5139,0.194844,-1.40095
639.5,18.53,0.186041,-1.40207
640,18.5458,0.177153,-1.40222
640.5,18.5621,0.163144,-1.40225
641,18.5786,0.166926,-1.40123
641.5,18.5951,0.157484,-1.40096
642,18.6109,0.162342,-1.40094
642.5,18.6272,0.159488,-1.40082
643,18.6435,0.153728,-1.40035
643.5,18.6595,0.151508,-1.40133
644,18.6761,0.143047,-1.40128
644.5,18.6918,0.141628,-1.40127
645,18.7083,0.141082,-1.40127
645.5,18.7247,0.132954,-1.40127
646,18.7407,0.136326,-1.40127
646.5,18.7569,0.131781,-1.40122
647,18.7734,0.133183,-1.40202
647.5,18.7894,0.139258,-1.40262
648,18.8058,0.133819,-1.40259
648.5,18.8221,0.151582,-1.40259
649,18.8382,0.148137,-1.40259
649.5,18.8545,0.137415,-1.40259
650,18.8708,0.133237,-1.40259
650.5,18.8865,0.129778,-1.40259
651,18.9031,0.124273,-1.40259
651.5,18.9197,0.119157,-1.40258
652,18.9359,0.115973,-1.40252
652.5,18.9519,0.112556,-1.40355
653,18.9686,0.100487,-1.40392
653.5,18.9841,0.107423,-1.40391
654,19.0003,0.10759,-1.40391
654.5,19.0166,0.0922191,-1.40391
655,19.0331,0.0913425,-1.40391
655.5,19.0494,0.0869264,-1.40391
656,19.0659,0.0868659,-1.40394
656.5,19.0819,0.0864416,-1.40355
657,19.0983,0.0804855,-1.40358
657.5,19.1145,0.0764603,-1.40369
658,19.1308,0.0766795,-1.40244
658.5,19.1471,0.0813956,-1.4031
659,19.1634,0.0677209,-1.40356
659.5,19.1796,0.0668572,-1.40357
660,19.1958,0.059533,-1.40358
660.5,19.2122,0.0543364,-1.40407
661,19.2284,0.0474019,-1.40628
661.5,19.2446,0.0498321,-1.40621
662,19.2608,0.0476547,-1.40621
662.5,19.2772,0.0509391,-1.40621
663,19.2935,0.0461631,-1.40621
663.5,19.3095,0.0405305,-1.4062
664,19.3257,0.0323704,-1.40689
664.5,19.342,0.033116,-1.40753
665,19.3584,0.0323763,-1.40754
665.5,19.3747,0.0260682,-1.40753
666,19.3908,0.0247333,-1.40753
666.5,19.4071,0.0239024,-1.40758
667,19.4234,0.018738,-1.40902
667.5,19.4397,0.0148761,-1.40894
668,19.456,0.00747755,-1.40889
668.5,19.472,0.0065888,-1.40991
669,19.4885,0.00798996,-1.4102
669.5,19.5043,0.00321819,-1.40903
670,19.5209,-0.00143563,-1.40896
670.5,19.5372,-0.00679803,-1.40895
671,19.5533,-0.00705401,-1.40895
671.5,19.5698,-0.0144914,-1.40895
672,19.586,-0.00818526,-1.40895
672.5,19.6022,-0.0144095,-1.40895
673,19.6186,-0.0184551,-1.40895
673.5,19.6348,-0.0220322,-1.40895
674,19.6506,-0.027692,-1.40895
674.5,19.6673,-0.0331812,-1.40895
675,19.6837,-0.0408758,-1.40895
675.5,19.6997,-0.0430615,-1.40895
676,19.716,-0.047008,-1.40936
676.5,19.7322,-0.0536896,-1.41067
677,19.7484,-0.0542022,-1.4106
677.5,19.7651,-0.0651557,-1.41062
678,19.781,-0.0645946,-1.40897
678.5,19.7974,-0.0635233,-1.40895
679,19.814,-0.0727804,-1.40805
679.5,19.8299,-0.0722553,-1.40664
680,19.8461,-0.0772821,-1.40675
680.5,19.8623,-0.0913281,-1.40676
681,19.8789,-0.0972135,-1.40641
681.5,19.895,-0.0988523,-1.40643
682,19.9113,-0.104156,-1.40644
682.5,19.9276,-0.104314,-1.4065
683,19.944,-0.105874,-1.40543
683.5,19.9602,-0.104662,-1.40511
684,19.9767,-0.107931,-1.40511
684.5,19.9928,-0.111776,-1.40511
685,20.0091,-0.114169,-1.40514
685.5,20.0256,-0.123052,-1.40527
686,20.0418,-0.131865,-1.40641
686.5,20.058,-0.136513,-1.40753
687,20.0745,-0.140395,-1.40774
687.5,20.0907,-0.147498,-1.40775
688,20.1068,-0.154301,-1.40775
688.5,20.1237,-0.152434,-1.40775
689,20.1399,-0.159239,-1.40775
689.5,20.1556,-0.161061,-1.40775
690,20.1721,-0.163269,-1.40775
690.5,20.1883,-0.165508,-1.40775
691,20.2049,-0.167308,-1.40772
691.5,20.221,-0.172838,-1.4083
692,20.2375,-0.179565,-1.40912
692.5,20.2536,-0.189968,-1.40907
693,20.2699,-0.19248,-1.4091
693.5,20.2862,-0.196657,-1.40952
694,20.3027,-0.197256,-1.41081
694.5,20.319,-0.201144,-1.41295
695,20.3353,-0.204503,-1.41396
695.5,20.351,-0.209565,-1.41545
696,20.3675,-0.21298,-1.41363
696.5,20.3844,-0.227009,-1.41319
697,20.4009,-0.227494,-1.41249
697.5,20.4173,-0.228853,-1.41113
698,20.4334,-0.233308,-1.41104
698.5,20.4499,-0.23737,-1.41103
699,20.4658,-0.247838,-1.41174
699.5,20.4824,-0.249316,-1.41236
700,20.4986,-0.251464,-1.41236
700.5,20.515,-0.253938,-1.41236
701,20.5311,-0.25975,-1.41236
701.5,20.548,-0.266368,-1.41236
702,20.564,-0.273982,-1.41236
702.5,20.5806,-0.273926,-1.41236
703,20.597,-0.275474,-1.41236
703.5,20.6132,-0.279549,-1.41236
704,20.6291,-0.279281,-1.41236
704.5,20.6462,-0.289194,-1.41236
705,20.6622,-0.295588,-1.41236
705.5,20.6786,-0.301172,-1.41235
706,20.6951,-0.302413,-1.41203
706.5,20.7114,-0.296966,-1.41171
707,20.7279,-0.292289,-1.4117
707.5,20.7442,-0.297854,-1.4117
708,20.7608,-0.305822,-1.4117
708.5,20.7768,-0.318854,-1.4117
709,20.7928,-0.31686,-1.4117
709.5,20.8097,-0.319644,-1.41186
710,20.8262,-0.324854,-1.41314
710.5,20.8424,-0.330888,-1.41254
711,20.8587,-0.33159,-1.41235
711.5,20.8753,-0.330096,-1.41236
712,20.8915,-0.334917,-1.41233
712.5,20.9079,-0.33486,-1.41345
713,20.9241,-0.337208,-1.41366
713.5,20.9405,-0.336361,-1.41367
714,20.9573,-0.339188,-1.41367
714.5,20.9733,-0.345589,-1.41367
715,20.9899,-0.347012,-1.41367
715.5,21.0063,-0.353357,-1.41367
716,21.0226,-0.356875,-1.41367
716.5,21.0392,-0.354225,-1.41367
717,21.0554,-0.358709,-1.41367
717.5,21.0719,-0.354488,-1.41367
718,21.0884,-0.356803,-1.41367
718.5,21.1048,-0.368377,-1.41367
719,21.1212,-0.374187,-1.41367
719.5,21.1376,-0.377094,-1.41367
720,21.154,-0.373675,-1.41359
720.5,21.1704,-0.375898,-1.41315
721,21.1867,-0.376524,-1.41333
721.5,21.2031,-0.377291,-1.41334
722,21.2196,-0.378811,-1.41334
722.5,21.2358,-0.37847,-1.41331
723,21.2524,-0.381929,-1.41367
723.5,21.2687,-0.391694,-1.41366
724,21.2853,-0.393044,-1.41361
724.5,21.3018,-0.399313,-1.41462
725,21.3181,-0.401266,-1.415
725.5,21.3347,-0.40251,-1.41499
726,21.3511,-0.403975,-1.41499
726.5,21.3667,-0.406789,-1.41579
727,21.3836,-0.405762,-1.41628
727.5,21.4005,-0.411758,-1.4163
728,21.417,-0.413353,-1.4163
728.5,21.4333,-0.41823,-1.4163
729,21.4497,-0.414938,-1.4163
729.5,21.4659,-0.408206,-1.4163
730,21.483,-0.410177,-1.4163
730.5,21.4989,-0.405793,-1.4163
731,21.5158,-0.415654,-1.4163
731.5,21.5322,-0.414244,-1.4163
732,21.548,-0.41162,-1.41633
732.5,21.5649,-0.403968,-1.41571
733,21.5814,-0.401044,-1.41574
733.5,21.5978,-0.408388,-1.41493
734,21.6143,-0.411388,-1.415
734.5,21.6309,-0.41637,-1.41499
735,21.6472,-0.419428,-1.41505
735.5,21.6638,-0.418261,-1.41638
736,21.6802,-0.415267,-1.4163
736.5,21.6966,-0.414428,-1.41631
737,21.7133,-0.41529,-1.41631
737.5,21.7296,-0.41472,-1.41632
738,21.7462,-0.417343,-1.4165
738.5,21.7627,-0.417215,-1.41764
739,21.7792,-0.420835,-1.41762
739.5,21.7955,-0.424729,-1.41763
740,21.812,-0.427109,-1.41764