File: 01_Data/Fiber_Reinforced_Helmet_Shell/STA/N2/30K_min/Fiber_Reinforced_Helmet_Shell_STA_N2_30KData_250430_R3.csv
Temp./C,Time/min,DSC/(mW/mg),Mass loss/mg
60.0,0.0,0.813811,0.00472514
60.5,0.0283691,0.839889,0.00498727
61,0.0593796,0.863655,0.00464444
61.5,0.088595,0.894464,0.00359907
62,0.117111,0.915596,0.00452795
62.5,0.144013,0.938619,0.00380749
63,0.171988,0.958451,0.0038719
63.5,0.19957,0.985949,0.00366908
64,0.224922,1.0062,0.00325439
64.5,0.251082,1.02702,0.00403576
65,0.277453,1.03723,0.00419226
65.5,0.302476,1.06329,0.00447511
66,0.327686,1.07706,0.00441268
66.5,0.351845,1.08782,0.00439691
67,0.37636,1.10737,0.0049654
67.5,0.400591,1.12526,0.00513883
68,0.424442,1.15094,0.00543923
68.5,0.448436,1.1689,0.0053039
69,0.472508,1.17816,0.00476214
69.5,0.49596,1.19743,0.0046456
70,0.518953,1.22048,0.00425584
70.5,0.541881,1.2265,0.00310558
71,0.564375,1.24523,0.00306934
71.5,0.587329,1.26512,0.00465895
72,0.609448,1.26569,0.00453774
72.5,0.63187,1.27402,0.00321218
73,0.65432,1.29523,0.00244225
73.5,0.676017,1.3139,0.00258831
74,0.69806,1.32399,0.0028011
74.5,0.719221,1.33106,0.00262306
75,0.741023,1.34484,0.00212426
75.5,0.762628,1.35638,0.00192243
76,0.784037,1.36182,0.00213403
76.5,0.805127,1.36883,0.00207555
77,0.826597,1.37404,0.00223896
77.5,0.847701,1.38706,0.00200506
78,0.868677,1.40156,0.00196381
78.5,0.889373,1.41135,0.00199876
79,0.909761,1.4127,0.00160032
79.5,0.930389,1.42625,0.00202619
80,0.951164,1.42816,0.00274135
80.5,0.971844,1.43139,0.00248733
81,0.992473,1.44122,0.00047216
81.5,1.01223,1.44481,0.000111605
82,1.03269,1.45497,0.000547994
82.5,1.05264,1.45488,0.00155873
83,1.07286,1.46094,0.000582201
83.5,1.09312,1.46487,0.000310656
84,1.11161,1.47904,1.31702e-05
84.5,1.13264,1.47939,9.02754e-05
85,1.15276,1.48106,0.000363356
85.5,1.17219,1.49041,0.00101123
86,1.19172,1.4947,0.00170766
86.5,1.2112,1.50076,0.00229311
87,1.23082,1.509,0.00238234
87.5,1.24984,1.5161,0.00204176
88,1.2693,1.5213,0.00229045
88.5,1.28827,1.52884,0.00159644
89,1.30821,1.53354,0.00255352
89.5,1.32596,1.53474,0.0022239
90,1.34587,1.55067,0.00226349
90.5,1.36532,1.5547,0.000750358
91,1.38422,1.5588,-0.000893867
91.5,1.403,1.55354,-0.00155841
92,1.42223,1.56494,-0.00254384
92.5,1.44061,1.56423,-0.00189032
93,1.45967,1.57219,-0.00178476
93.5,1.47862,1.577,-0.00188678
94,1.49715,1.58372,-0.00105334
94.5,1.51578,1.58791,-0.00161201
95,1.53437,1.60056,-0.000355093
95.5,1.55256,1.61117,-0.00159218
96,1.57141,1.62186,-0.000459903
96.5,1.58972,1.61453,-0.00169702
97,1.60854,1.6273,-0.000450388
97.5,1.62658,1.64281,-0.000236155
98,1.64502,1.64958,-0.000221703
98.5,1.66296,1.64997,0.000807198
99,1.68162,1.6622,0.000468663
99.5,1.70001,1.66481,0.00122555
100,1.71832,1.67173,0.00114897
100.5,1.73599,1.67562,0.00367223
101,1.7544,1.68257,0.00588578
101.5,1.77277,1.69191,0.00813425
102,1.79097,1.70048,0.00814439
102.5,1.8084,1.69848,0.00657195
103,1.82675,1.70692,0.00484286
103.5,1.8446,1.70874,0.00434671
104,1.86298,1.71475,0.00323416
104.5,1.88081,1.72394,0.00276763
105,1.89896,1.7304,0.00121667
105.5,1.91662,1.72836,0.00208289
106,1.93436,1.73174,0.00104272
106.5,1.95179,1.74084,0.000969052
107,1.96971,1.74628,0.000839367
107.5,1.9876,1.75727,-0.000581214
108,2.00585,1.75785,0.000750249
108.5,2.02341,1.75621,-0.000590399
109,2.04161,1.76691,0.000764021
109.5,2.05883,1.76872,6.56552e-05
110,2.07644,1.77553,-0.000578713
110.5,2.09432,1.78108,-0.000542933
111,2.11202,1.78332,-0.000515555
111.5,2.12981,1.78136,-0.000541601
112,2.14704,1.79121,-0.000557042
112.5,2.16485,1.78778,-0.000603665
113,2.18269,1.78984,0.000474959
113.5,2.19982,1.79734,0.000771329
114,2.21749,1.79425,0.000764203
114.5,2.23507,1.79925,0.00137441
115,2.25261,1.80334,0.00215759
115.5,2.26987,1.80164,0.00102541
116,2.287,1.80671,0.000768466
116.5,2.30485,1.8012,0.000773119
117,2.32244,1.81655,0.000806144
117.5,2.33958,1.81082,7.22468e-06
118,2.35666,1.81389,-0.000510385
118.5,2.37439,1.81578,0.000767937
119,2.39174,1.82224,-0.000658519
119.5,2.40889,1.82097,-0.000522366
120,2.42602,1.82391,-0.000389121
120.5,2.44352,1.82441,-0.000633143
121,2.46009,1.8233,-0.0005646
121.5,2.47791,1.82996,-0.000529069
122,2.49479,1.83542,-0.0017026
122.5,2.51207,1.84465,-0.00184128
123,2.52901,1.84667,-0.00184851
123.5,2.54639,1.84777,-0.00262957
124,2.56335,1.84692,-0.00318775
124.5,2.58055,1.85438,-0.00318554
125,2.59754,1.86197,-0.00327063
125.5,2.61455,1.86097,-0.00203133
126,2.6318,1.85905,-0.00248504
126.5,2.64859,1.86696,-0.0031743
127,2.66569,1.87135,-0.00314771
127.5,2.68234,1.87679,-0.00385298
128,2.6992,1.87514,-0.00455317
128.5,2.7159,1.88151,-0.00485049
129,2.73337,1.88084,-0.00483245
129.5,2.74952,1.88642,-0.00482994
130,2.76656,1.88866,-0.00482851
130.5,2.78293,1.88483,-0.00482704
131,2.79891,1.89015,-0.00493733
131.5,2.81526,1.89246,-0.00362998
132,2.83193,1.89671,-0.0035131
132.5,2.84932,1.89963,-0.00253851
133,2.86649,1.89695,-0.000947814
133.5,2.88247,1.89954,0.000673699
134,2.89956,1.89824,0.00122973
134.5,2.91618,1.89939,-0.000496082
135,2.93276,1.90413,-0.00219695
135.5,2.94949,1.89742,-0.00407903
136,2.96552,1.90584,-0.00567848
136.5,2.98247,1.90889,-0.00560172
137,2.99875,1.91136,-0.00603982
137.5,3.01555,1.90409,-0.00623146
138,3.03179,1.90895,-0.00624419
138.5,3.04826,1.90278,-0.00661404
139,3.06478,1.9158,-0.00763084
139.5,3.08071,1.91216,-0.00757871
140,3.09755,1.90278,-0.00760954
140.5,3.11295,1.90531,-0.00686151
141,3.12976,1.91083,-0.00623406
141.5,3.14636,1.915,-0.00625591
142,3.16272,1.92671,-0.00625972
142.5,3.17907,1.92952,-0.00627567
143,3.19512,1.92995,-0.00571925
143.5,3.21152,1.92249,-0.00518664
144,3.22746,1.92548,-0.00625339
144.5,3.24397,1.92669,-0.00659586
145,3.25999,1.93035,-0.00658742
145.5,3.27618,1.92866,-0.00660901
146,3.2922,1.93276,-0.00701287
146.5,3.30843,1.92595,-0.00790318
147,3.32457,1.92874,-0.00789841
147.5,3.34045,1.93129,-0.00789525
148,3.35658,1.93853,-0.00791544
148.5,3.37287,1.93572,-0.00844416
149,3.389,1.94042,-0.00886934
149.5,3.40522,1.93982,-0.00890273
150,3.42166,1.94647,-0.00899557
150.5,3.43735,1.95117,-0.00922382
151,3.45363,1.95649,-0.00922201
151.5,3.46933,1.95546,-0.00921977
152,3.48566,1.95048,-0.00921974
152.5,3.5012,1.94831,-0.00948067
153,3.51756,1.95557,-0.010334
153.5,3.53326,1.95307,-0.00986063
154,3.54914,1.95904,-0.00987609
154.5,3.56499,1.95559,-0.00985788
155,3.58096,1.95552,-0.00987541
155.5,3.59608,1.95605,-0.00814083
156,3.61253,1.9471,-0.0082362
156.5,3.62799,1.96304,-0.00823209
157,3.6449,1.94906,-0.00821974
157.5,3.66002,1.94849,-0.00881998
158,3.67638,1.94843,-0.00957943
158.5,3.6918,1.94631,-0.00955628
159,3.70806,1.95145,-0.00955013
159.5,3.72381,1.94469,-0.00955043
160,3.73962,1.95395,-0.00954382
160.5,3.75551,1.94886,-0.00948908
161,3.77113,1.93664,-0.0104352
161.5,3.78678,1.93489,-0.0108767
162,3.80268,1.94543,-0.0108701
162.5,3.81847,1.94561,-0.0108709
163,3.83332,1.9381,-0.0108727
163.5,3.84962,1.93697,-0.0108221
164,3.8654,1.93772,-0.0117759
164.5,3.88108,1.93615,-0.0121909
165,3.89695,1.93856,-0.0121836
165.5,3.91261,1.9366,-0.0121802
166,3.92813,1.93994,-0.0121803
166.5,3.94385,1.94896,-0.0121719
167,3.95943,1.94777,-0.0121323
167.5,3.97529,1.94151,-0.0129704
168,3.99092,1.95144,-0.0135032
168.5,4.00624,1.94655,-0.0134999
169,4.02224,1.94498,-0.0134999
169.5,4.03793,1.94927,-0.0135
170,4.05349,1.95385,-0.0135
170.5,4.06902,1.96007,-0.0135
171,4.08482,1.95637,-0.0135001
171.5,4.10046,1.94879,-0.0135007
172,4.11587,1.95266,-0.0134968
172.5,4.13109,1.95961,-0.0134247
173,4.14692,1.96178,-0.0124709
173.5,4.16255,1.96233,-0.013209
174,4.17827,1.96784,-0.0138723
174.5,4.19388,1.96362,-0.0138326
175,4.20903,1.96237,-0.0138298
175.5,4.22485,1.97105,-0.0138246
176,4.24029,1.97872,-0.0144198
176.5,4.25598,1.97633,-0.0151923
177,4.27116,1.97998,-0.0151538
177.5,4.28676,1.98719,-0.015075
178,4.30187,1.99961,-0.0161064
178.5,4.31781,1.99417,-0.01648
179,4.33315,1.98866,-0.0164765
179.5,4.34843,1.99735,-0.0164814
180,4.36388,2.00252,-0.0159108
180.5,4.37917,2.01094,-0.0151448
181,4.39486,2.02367,-0.0151518
181.5,4.41015,2.02504,-0.0151502
182,4.42563,2.02496,-0.01515
182.5,4.44107,2.02734,-0.0151496
183,4.45622,2.03198,-0.0151512
183.5,4.47154,2.03749,-0.0151723
184,4.48707,2.03843,-0.0151168
184.5,4.50258,2.04376,-0.0163983
185,4.51746,2.04817,-0.0164614
185.5,4.53301,2.06038,-0.0168666
186,4.54838,2.06279,-0.0178485
186.5,4.56346,2.05712,-0.017784
187,4.57888,2.06398,-0.0177802
187.5,4.5944,2.0807,-0.0177566
188,4.6093,2.08126,-0.0176398
188.5,4.62504,2.07927,-0.0165111
189,4.64002,2.0948,-0.0176144
189.5,4.65532,2.09573,-0.0177539
190,4.67045,2.10639,-0.0177791
190.5,4.68589,2.11249,-0.0177982
191,4.70102,2.11331,-0.0180491
191.5,4.71622,2.10969,-0.0190884
192,4.7316,2.11949,-0.0190976
192.5,4.74658,2.12637,-0.0191001
193,4.76153,2.12645,-0.0191
193.5,4.77705,2.13587,-0.0191
194,4.79182,2.14326,-0.0191
194.5,4.80747,2.14339,-0.0191
195,4.82277,2.15089,-0.0191
195.5,4.83772,2.15611,-0.0191
196,4.85221,2.16039,-0.0191008
196.5,4.86789,2.16974,-0.0190997
197,4.88301,2.17324,-0.0190547
197.5,4.89839,2.17162,-0.0197497
198,4.91312,2.17919,-0.0204695
198.5,4.92814,2.18369,-0.020502
199,4.94279,2.18329,-0.0217626
199.5,4.9585,2.19371,-0.0217199
200,4.97394,2.19924,-0.0217377
200.5,4.98857,2.20736,-0.0217385
201,5.00403,2.20515,-0.0217912
201.5,5.01913,2.21347,-0.0209964
202,5.03423,2.22199,-0.0203793
202.5,5.0492,2.22131,-0.0204169
203,5.0646,2.21829,-0.0204192
203.5,5.07939,2.22323,-0.0205706
204,5.09458,2.24049,-0.0217212
204.5,5.10936,2.24257,-0.0227613
205,5.1248,2.24913,-0.0230624
205.5,5.13979,2.25976,-0.0232235
206,5.15469,2.27518,-0.024454
206.5,5.17007,2.28082,-0.0243589
207,5.18455,2.28592,-0.0243684
207.5,5.20005,2.29104,-0.0243702
208,5.21484,2.29517,-0.0243699
208.5,5.23004,2.3013,-0.0243708
209,5.2451,2.30657,-0.0243772
209.5,5.26033,2.31829,-0.024333
210,5.27499,2.32441,-0.0252514
210.5,5.29013,2.33828,-0.0257141
211,5.30549,2.33368,-0.0256932
211.5,5.32034,2.33639,-0.0256853
212,5.33522,2.34451,-0.0257408
212.5,5.35031,2.35571,-0.0249284
213,5.3652,2.36427,-0.0245663
213.5,5.3802,2.36635,-0.0256761
214,5.39537,2.37534,-0.0256872
214.5,5.41024,2.38371,-0.0257012
215,5.42523,2.39386,-0.0258193
215.5,5.44039,2.39172,-0.0269329
216,5.45539,2.40104,-0.0269957
216.5,5.47053,2.4125,-0.0270058
217,5.48506,2.41304,-0.0269755
217.5,5.50007,2.41584,-0.0278023
218,5.51509,2.42335,-0.0290496
218.5,5.53014,2.42919,-0.0289747
219,5.54504,2.43578,-0.0289244
219.5,5.56024,2.44605,-0.0297724
220,5.57514,2.45699,-0.0303058
220.5,5.59021,2.46086,-0.0302994
221,5.60453,2.47371,-0.0303004
221.5,5.61903,2.47849,-0.0302958
222,5.63437,2.48281,-0.030278
222.5,5.64979,2.48322,-0.0307569
223,5.66479,2.49157,-0.0316675
223.5,5.67983,2.49816,-0.0316135
224,5.69459,2.49961,-0.0316196
224.5,5.70981,2.50867,-0.0316171
225,5.72453,2.51699,-0.0315966
225.5,5.73943,2.51502,-0.0320456
226,5.75433,2.52228,-0.0329822
226.5,5.76954,2.53175,-0.0329324
227,5.78396,2.53852,-0.0329448
227.5,5.79915,2.53394,-0.032931
228,5.81422,2.53717,-0.032627
228.5,5.82884,2.54744,-0.0325432
229,5.84383,2.54874,-0.032622
229.5,5.85808,2.5542,-0.0315559
230,5.87375,2.55717,-0.0315486
230.5,5.88858,2.5579,-0.0309958
231,5.90356,2.56757,-0.0301284
231.5,5.91845,2.56949,-0.0305448
232,5.93335,2.56865,-0.0308985
232.5,5.94809,2.57573,-0.0301376
233,5.9631,2.59022,-0.0301849
233.5,5.97833,2.5954,-0.0301438
234,5.99253,2.59362,-0.0308724
234.5,6.00771,2.59762,-0.0315576
235,6.0226,2.60269,-0.0315077
235.5,6.03749,2.60705,-0.0316463
236,6.0523,2.61078,-0.0329098
236.5,6.067,2.62045,-0.0336416
237,6.08191,2.62398,-0.0341545
237.5,6.09696,2.61363,-0.0341579
238,6.11176,2.61687,-0.0341502
238.5,6.12646,2.62386,-0.0341379
239,6.14151,2.62634,-0.0345905
239.5,6.15616,2.63065,-0.0358849
240,6.17123,2.63757,-0.0367665
240.5,6.18585,2.6282,-0.0367318
241,6.20074,2.63861,-0.0373028
241.5,6.216,2.63573,-0.0381471
242,6.23074,2.6397,-0.0380874
242.5,6.24546,2.64355,-0.0381225
243,6.26017,2.6417,-0.0392562
243.5,6.27518,2.6546,-0.0393869
244,6.28986,2.65163,-0.0394097
244.5,6.30455,2.65037,-0.0393859
245,6.31946,2.65083,-0.0398398
245.5,6.33445,2.65364,-0.0407737
246,6.34914,2.66389,-0.0407349
246.5,6.36389,2.66675,-0.0407922
247,6.3789,2.6676,-0.0418828
247.5,6.3934,2.67367,-0.0420376
248,6.40849,2.6792,-0.0419566
248.5,6.42317,2.68267,-0.0431076
249,6.43811,2.68391,-0.0434824
249.5,6.45296,2.68179,-0.0434645
250,6.46785,2.68627,-0.0437722
250.5,6.48279,2.69435,-0.0448046
251,6.49757,2.69195,-0.0447665
251.5,6.51242,2.70756,-0.045132
252,6.5271,2.7024,-0.0461932
252.5,6.54187,2.70848,-0.0460868
253,6.55689,2.70915,-0.0471705
253.5,6.57122,2.71412,-0.0475411
254,6.58649,2.71383,-0.0483835
254.5,6.60117,2.71946,-0.0490943
255,6.61602,2.72579,-0.0491031
255.5,6.63083,2.73206,-0.0503851
256,6.64554,2.73193,-0.050469
256.5,6.66036,2.73692,-0.050682
257,6.67521,2.74277,-0.0521501
257.5,6.69012,2.73835,-0.0519782
258,6.70486,2.74185,-0.0529302
258.5,6.71979,2.75171,-0.0536295
259,6.7345,2.75831,-0.0529473
259.5,6.74923,2.75626,-0.0538666
260,6.76403,2.76607,-0.0543155
260.5,6.77898,2.76799,-0.055316
261,6.79349,2.77232,-0.0553184
261.5,6.80844,2.77611,-0.0566871
262,6.82296,2.78136,-0.0571621
262.5,6.83805,2.78635,-0.0584236
263,6.85256,2.78803,-0.0583218
263.5,6.86747,2.79348,-0.059514
264,6.88239,2.79176,-0.0583504
264.5,6.89748,2.8036,-0.0598219
265,6.9112,2.80788,-0.0604972
265.5,6.92681,2.81521,-0.0615222
266,6.94188,2.81872,-0.0621021
266.5,6.9566,2.81931,-0.0628909
267,6.97047,2.82139,-0.063817
267.5,6.98555,2.82644,-0.0645974
268,7.00106,2.8334,-0.0662353
268.5,7.01562,2.84102,-0.0666167
269,7.03063,2.84747,-0.0683272
269.5,7.04507,2.85252,-0.0701569
270,7.06017,2.86238,-0.0709345
270.5,7.07454,2.85639,-0.0718299
271,7.08966,2.8636,-0.0724019
271.5,7.10431,2.86295,-0.0737143
272,7.11921,2.86849,-0.0744542
272.5,7.1338,2.86798,-0.0759205
273,7.14855,2.87408,-0.077119
273.5,7.1635,2.86902,-0.0774693
274,7.17812,2.86624,-0.0777665
274.5,7.19268,2.86344,-0.0784317
275,7.20757,2.86826,-0.0798603
275.5,7.22242,2.87355,-0.0813609
276,7.23715,2.87086,-0.0824865
276.5,7.25186,2.8696,-0.0836263
277,7.26681,2.86599,-0.0851426
277.5,7.28095,2.86504,-0.0861328
278,7.29601,2.86271,-0.0870494
278.5,7.31099,2.85624,-0.0886748
279,7.32573,2.85778,-0.0901437
279.5,7.34053,2.85354,-0.0916253
280,7.3553,2.84597,-0.0929757
280.5,7.36997,2.84511,-0.0943934
281,7.38491,2.83315,-0.0948708
281.5,7.39983,2.83607,-0.096407
282,7.41444,2.82887,-0.0974978
282.5,7.42926,2.82221,-0.0986956
283,7.44414,2.81724,-0.100046
283.5,7.45876,2.81569,-0.101535
284,7.47342,2.80671,-0.102969
284.5,7.4881,2.79997,-0.103374
285,7.50298,2.79306,-0.10471
285.5,7.51802,2.78223,-0.105958
286,7.53249,2.76829,-0.107171
286.5,7.54676,2.75881,-0.108576
287,7.56165,2.74525,-0.110155
287.5,7.57647,2.74777,-0.111396
288,7.59125,2.73982,-0.112654
288.5,7.60607,2.72392,-0.114035
289,7.62068,2.71196,-0.115824
289.5,7.63548,2.70852,-0.117701
290,7.65008,2.69622,-0.119043
290.5,7.66509,2.69106,-0.120665
291,7.67979,2.68204,-0.122333
291.5,7.69452,2.67739,-0.124382
292,7.70907,2.66689,-0.124993
292.5,7.72399,2.65334,-0.126098
293,7.739,2.6431,-0.127844
293.5,7.7538,2.63392,-0.13016
294,7.76872,2.62316,-0.131842
294.5,7.78327,2.6152,-0.134144
295,7.79791,2.60121,-0.136289
295.5,7.81301,2.58644,-0.138063
296,7.82774,2.58455,-0.140332
296.5,7.84256,2.56828,-0.142201
297,7.85736,2.55198,-0.144985
297.5,7.87195,2.53906,-0.145465
298,7.88665,2.52944,-0.147337
298.5,7.90167,2.52319,-0.15019
299,7.91616,2.5055,-0.152207
299.5,7.93113,2.49046,-0.155388
300,7.94594,2.48608,-0.157909
300.5,7.9604,2.46899,-0.160423
301,7.97537,2.45099,-0.163008
301.5,7.99031,2.4338,-0.165288
302,8.00493,2.42366,-0.168552
302.5,8.0195,2.4047,-0.169818
303,8.03455,2.39649,-0.171074
303.5,8.04925,2.36948,-0.17345
304,8.064,2.35678,-0.175343
304.5,8.07855,2.33688,-0.178371
305,8.09333,2.31638,-0.180835
305.5,8.10817,2.30012,-0.183831
306,8.12312,2.27516,-0.186262
306.5,8.13764,2.25075,-0.188643
307,8.15213,2.22477,-0.192419
307.5,8.16673,2.19722,-0.194443
308,8.18178,2.16418,-0.197963
308.5,8.19631,2.12708,-0.200896
309,8.21112,2.09178,-0.203903
309.5,8.22566,2.05298,-0.207838
310,8.24048,2.00846,-0.211381
310.5,8.25465,1.96429,-0.214805
311,8.26975,1.90468,-0.219303
311.5,8.28439,1.84819,-0.22241
312,8.29918,1.79318,-0.225833
312.5,8.31347,1.73321,-0.230208
313,8.32851,1.682,-0.233791
313.5,8.34304,1.62175,-0.237924
314,8.3569,1.5732,-0.241946
314.5,8.3723,1.52559,-0.245478
315,8.38695,1.48681,-0.250173
315.5,8.40155,1.44939,-0.254514
316,8.41629,1.4187,-0.259149
316.5,8.43091,1.38977,-0.264885
317,8.446,1.3797,-0.268985
317.5,8.46058,1.36139,-0.273434
318,8.47547,1.35416,-0.278589
318.5,8.49012,1.35515,-0.28275
319,8.50502,1.34853,-0.288181
319.5,8.51992,1.35876,-0.292742
320,8.53505,1.36281,-0.296243
320.5,8.54962,1.37719,-0.301648
321,8.56464,1.39988,-0.30585
321.5,8.57968,1.42426,-0.310322
322,8.5946,1.44719,-0.314905
322.5,8.60933,1.46958,-0.318439
323,8.62448,1.50057,-0.323013
323.5,8.63938,1.52939,-0.327536
324,8.65424,1.55238,-0.331206
324.5,8.6693,1.58795,-0.336017
325,8.68399,1.62288,-0.339487
325.5,8.69923,1.64966,-0.343149
326,8.71401,1.66808,-0.346948
326.5,8.72907,1.69948,-0.349842
327,8.74411,1.72251,-0.353361
327.5,8.75901,1.74468,-0.357068
328,8.77396,1.76396,-0.360089
328.5,8.78885,1.78846,-0.36333
329,8.80406,1.81127,-0.365992
329.5,8.81894,1.83489,-0.369176
330,8.83361,1.8521,-0.372378
330.5,8.84896,1.86726,-0.37421
331,8.86394,1.88831,-0.377587
331.5,8.87874,1.89791,-0.379281
332,8.89349,1.92397,-0.380598
332.5,8.90841,1.93449,-0.383198
333,8.92331,1.94319,-0.385233
333.5,8.93858,1.96076,-0.387582
334,8.95323,1.97294,-0.389941
334.5,8.96843,1.98726,-0.392536
335,8.98338,2.00326,-0.394437
335.5,8.99835,2.01559,-0.39846
336,9.01278,2.02724,-0.402729
336.5,9.02824,2.03978,-0.405092
337,9.04295,2.04856,-0.407038
337.5,9.05785,2.0614,-0.408426
338,9.07315,2.07649,-0.409284
338.5,9.08786,2.08158,-0.412296
339,9.10279,2.08062,-0.414766
339.5,9.11801,2.08831,-0.417876
340,9.13272,2.1003,-0.420242
340.5,9.14816,2.10783,-0.422903
341,9.16278,2.12003,-0.425728
341.5,9.17774,2.12813,-0.428639
342,9.19271,2.13383,-0.43175
342.5,9.20775,2.14454,-0.434243
343,9.22267,2.14981,-0.437163
343.5,9.23757,2.16818,-0.439679
344,9.25269,2.16804,-0.441626
344.5,9.26792,2.17391,-0.444588
345,9.28247,2.18359,-0.44708
345.5,9.29742,2.19122,-0.450086
346,9.31227,2.18883,-0.453174
346.5,9.32777,2.1905,-0.455078
347,9.34227,2.19529,-0.458212
347.5,9.35745,2.2107,-0.459981
348,9.37224,2.21724,-0.461516
348.5,9.38727,2.21747,-0.46394
349,9.40227,2.22299,-0.46624
349.5,9.41736,2.23238,-0.469373
350,9.43245,2.22981,-0.471433
350.5,9.44741,2.23267,-0.473449
351,9.46236,2.2352,-0.476688
351.5,9.4774,2.24139,-0.479133
352,9.49242,2.24135,-0.482292
352.5,9.50732,2.24855,-0.48463
353,9.52233,2.24967,-0.486446
353.5,9.53756,2.2551,-0.489215
354,9.55245,2.2578,-0.491527
354.5,9.56757,2.25764,-0.494593
355,9.58256,2.2613,-0.495533
355.5,9.59757,2.25807,-0.496912
356,9.61277,2.2627,-0.499807
356.5,9.62747,2.26418,-0.501569
357,9.64275,2.26391,-0.50356
357.5,9.65763,2.27041,-0.505424
358,9.67273,2.26687,-0.507579
358.5,9.68787,2.26156,-0.510472
359,9.70263,2.26377,-0.51277
359.5,9.71751,2.26162,-0.515784
360,9.73263,2.26016,-0.517514
360.5,9.74767,2.25868,-0.518079
361,9.76282,2.25733,-0.520698
361.5,9.77803,2.25738,-0.522553
362,9.79302,2.26271,-0.525069
362.5,9.80798,2.25876,-0.527773
363,9.82303,2.25651,-0.530131
363.5,9.83797,2.25384,-0.533116
364,9.85306,2.24844,-0.53548
364.5,9.86813,2.24775,-0.538372
365,9.88326,2.24508,-0.540193
365.5,9.89822,2.24716,-0.542139
366,9.91327,2.24609,-0.545474
366.5,9.92822,2.24887,-0.54751
367,9.94339,2.24548,-0.550385
367.5,9.95851,2.22285,-0.552492
368,9.97349,2.22607,-0.553236
368.5,9.9887,2.228,-0.556185
369,10.0037,2.2197,-0.558581
369.5,10.0187,2.21863,-0.56154
370,10.0339,2.22004,-0.563825
370.5,10.0488,2.21905,-0.565998
371,10.064,2.2155,-0.568558
371.5,10.0791,2.21294,-0.569081
372,10.0942,2.2128,-0.571899
372.5,10.1092,2.21103,-0.574547
373,10.1243,2.21184,-0.576236
373.5,10.1393,2.20969,-0.578592
374,10.1544,2.20552,-0.58063
374.5,10.1694,2.20395,-0.583213
375,10.1845,2.20499,-0.58561
375.5,10.2,2.20302,-0.588152
376,10.2149,2.19531,-0.591198
376.5,10.2299,2.19518,-0.593155
377,10.2451,2.18835,-0.596789
377.5,10.2603,2.19313,-0.599555
378,10.2755,2.19368,-0.601698
378.5,10.2898,2.19349,-0.604639
379,10.3059,2.19366,-0.607092
379.5,10.3207,2.19554,-0.609447
380,10.3359,2.18972,-0.611916
380.5,10.351,2.19017,-0.614036
381,10.3661,2.18862,-0.616613
381.5,10.3807,2.19133,-0.619278
382,10.3966,2.19059,-0.621805
382.5,10.4117,2.18653,-0.624359
383,10.4265,2.18709,-0.62581
383.5,10.4422,2.18908,-0.628472
384,10.4572,2.19353,-0.632644
384.5,10.4723,2.19155,-0.636077
385,10.4875,2.19621,-0.640939
385.5,10.5028,2.19312,-0.643422
386,10.5177,2.19213,-0.645013
386.5,10.5328,2.19564,-0.645644
387,10.5483,2.19831,-0.646617
387.5,10.5635,2.19966,-0.648605
388,10.5785,2.20365,-0.650059
388.5,10.5939,2.20917,-0.651821
389,10.6091,2.21723,-0.653055
389.5,10.6244,2.21855,-0.654781
390,10.6393,2.22296,-0.657977
390.5,10.6547,2.22067,-0.660841
391,10.6699,2.22565,-0.663772
391.5,10.685,2.22166,-0.667375
392,10.7004,2.22678,-0.669964
392.5,10.7155,2.228,-0.673407
393,10.7306,2.22844,-0.676154
393.5,10.7463,2.2372,-0.679497
394,10.7616,2.24269,-0.682582
394.5,10.7765,2.24455,-0.68512
395,10.7919,2.25068,-0.68751
395.5,10.807,2.25978,-0.690361
396,10.8222,2.2612,-0.693255
396.5,10.8375,2.27368,-0.697136
397,10.8529,2.27248,-0.700269
397.5,10.8676,2.27638,-0.704069
398,10.8833,2.27994,-0.706904
398.5,10.8988,2.28434,-0.709665
399,10.914,2.28372,-0.713104
399.5,10.9292,2.29264,-0.715245
400,10.9446,2.30252,-0.719385
400.5,10.9599,2.31086,-0.723609
401,10.9751,2.31459,-0.726411
401.5,10.9904,2.32301,-0.730728
402,11.0056,2.32948,-0.733643
402.5,11.021,2.33424,-0.736986
403,11.0361,2.33936,-0.74029
403.5,11.0514,2.35336,-0.743225
404,11.0668,2.35771,-0.746561
404.5,11.0821,2.36368,-0.75088
405,11.0972,2.36916,-0.753543
405.5,11.1128,2.37491,-0.757727
406,11.128,2.37534,-0.760569
406.5,11.1434,2.38445,-0.763935
407,11.1585,2.38917,-0.767244
407.5,11.174,2.39665,-0.770396
408,11.1895,2.39808,-0.774256
408.5,11.2048,2.41451,-0.777446
409,11.2199,2.41802,-0.780988
409.5,11.2353,2.42627,-0.785423
410,11.2507,2.43346,-0.787642
410.5,11.2658,2.4337,-0.791623
411,11.2809,2.43803,-0.795393
411.5,11.296,2.44363,-0.799222
412,11.3118,2.45368,-0.804219
412.5,11.3268,2.45461,-0.80763
413,11.3424,2.46994,-0.810735
413.5,11.3583,2.48437,-0.815036
414,11.3734,2.48236,-0.818876
414.5,11.3889,2.48065,-0.823971
415,11.4042,2.48677,-0.82773
415.5,11.4193,2.48686,-0.832702
416,11.435,2.49284,-0.838127
416.5,11.4504,2.49328,-0.841651
417,11.4653,2.49853,-0.845879
417.5,11.4808,2.50206,-0.850037
418,11.4962,2.5031,-0.854273
418.5,11.5119,2.5048,-0.859487
419,11.527,2.51057,-0.863424
419.5,11.5428,2.51568,-0.868407
420,11.558,2.52059,-0.872812
420.5,11.5733,2.51752,-0.876454
421,11.589,2.51238,-0.882111
421.5,11.604,2.51124,-0.886532
422,11.6195,2.5107,-0.891264
422.5,11.6351,2.5099,-0.89672
423,11.6503,2.51022,-0.899406
423.5,11.6656,2.50789,-0.903938
424,11.681,2.50724,-0.908472
424.5,11.6965,2.50272,-0.912739
425,11.7118,2.4964,-0.918064
425.5,11.7273,2.4929,-0.922121
426,11.7427,2.49485,-0.926965
426.5,11.758,2.48423,-0.933598
427,11.7731,2.4755,-0.938248
427.5,11.7889,2.46675,-0.94415
428,11.8042,2.45858,-0.948377
428.5,11.8197,2.45003,-0.953014
429,11.835,2.44484,-0.958346
429.5,11.8502,2.43306,-0.962827
430,11.8658,2.42287,-0.967669
430.5,11.8803,2.41345,-0.972422
431,11.8959,2.39941,-0.977012
431.5,11.9113,2.38455,-0.982475
432,11.9273,2.37673,-0.986449
432.5,11.9426,2.36621,-0.991034
433,11.958,2.35077,-0.996093
433.5,11.9736,2.32641,-1.00069
434,11.9889,2.31715,-1.00682
434.5,12.0043,2.29855,-1.01159
435,12.0197,2.28372,-1.01664
435.5,12.0352,2.26664,-1.02231
436,12.0507,2.24864,-1.02663
436.5,12.066,2.2371,-1.03207
437,12.0814,2.22066,-1.0369
437.5,12.0967,2.19773,-1.04149
438,12.1121,2.17262,-1.047
438.5,12.1276,2.15382,-1.05031
439,12.1428,2.13865,-1.05487
439.5,12.1584,2.11499,-1.06027
440,12.1736,2.09327,-1.06427
440.5,12.1891,2.06892,-1.06899
441,12.2046,2.04576,-1.07266
441.5,12.2198,2.02194,-1.07684
442,12.2353,2.00714,-1.08155
442.5,12.2509,1.98437,-1.08515
443,12.2664,1.95153,-1.08973
443.5,12.2815,1.93123,-1.0937
444,12.2971,1.90825,-1.09784
444.5,12.3126,1.88241,-1.10263
445,12.3279,1.87207,-1.10627
445.5,12.3435,1.83943,-1.11082
446,12.3586,1.8142,-1.11407
446.5,12.3744,1.79162,-1.11803
447,12.3898,1.7598,-1.12288
447.5,12.4052,1.73393,-1.12651
448,12.4206,1.7139,-1.13059
448.5,12.4355,1.70117,-1.13476
449,12.4508,1.68008,-1.13789
449.5,12.4663,1.65645,-1.14208
450,12.4823,1.62747,-1.14602
450.5,12.498,1.61191,-1.14971
451,12.5136,1.57658,-1.15401
451.5,12.5289,1.55466,-1.15638
452,12.5442,1.53458,-1.16044
452.5,12.5595,1.50581,-1.16279
453,12.5753,1.48648,-1.16623
453.5,12.5905,1.46467,-1.17014
454,12.606,1.44569,-1.17256
454.5,12.6211,1.42235,-1.17621
455,12.6365,1.395,-1.17933
455.5,12.6522,1.37436,-1.18246
456,12.6682,1.34578,-1.18613
456.5,12.6837,1.32121,-1.18899
457,12.6992,1.29804,-1.19233
457.5,12.7149,1.27937,-1.19535
458,12.7306,1.2618,-1.19785
458.5,12.7457,1.24647,-1.20087
459,12.7617,1.23282,-1.20267
459.5,12.7771,1.20668,-1.20449
460,12.7925,1.18698,-1.20697
460.5,12.8083,1.16349,-1.20855
461,12.8239,1.14423,-1.21119
461.5,12.8392,1.12169,-1.21239
462,12.8547,1.10352,-1.21404
462.5,12.8701,1.08533,-1.21636
463,12.8861,1.07505,-1.21849
463.5,12.9016,1.05724,-1.22071
464,12.9171,1.0408,-1.22326
464.5,12.9328,1.0314,-1.22516
465,12.9485,1.00933,-1.22763
465.5,12.9641,0.99757,-1.22966
466,12.9795,0.981353,-1.2314
466.5,12.9951,0.96186,-1.23334
467,13.0106,0.944237,-1.23372
467.5,13.0264,0.930543,-1.23208
468,13.0412,0.921731,-1.23188
468.5,13.0575,0.904472,-1.23374
469,13.0733,0.892226,-1.2377
469.5,13.0886,0.87875,-1.2435
470,13.1046,0.865132,-1.24965
470.5,13.12,0.852015,-1.25175
471,13.1357,0.838785,-1.25443
471.5,13.1514,0.830399,-1.25605
472,13.1671,0.825999,-1.25661
472.5,13.1828,0.809014,-1.25776
473,13.1985,0.794261,-1.25849
473.5,13.2139,0.786745,-1.2596
474,13.2293,0.774938,-1.26159
474.5,13.2452,0.768779,-1.26412
475,13.2608,0.762325,-1.26565
475.5,13.2764,0.748977,-1.26712
476,13.2922,0.742425,-1.26875
476.5,13.3078,0.733681,-1.26983
477,13.3236,0.724258,-1.27088
477.5,13.3394,0.716138,-1.27134
478,13.355,0.700112,-1.27286
478.5,13.3708,0.696433,-1.27446
479,13.3864,0.690405,-1.27433
479.5,13.4018,0.677954,-1.27511
480,13.4177,0.671637,-1.27688
480.5,13.4336,0.66893,-1.27745
481,13.4491,0.663622,-1.2785
481.5,13.4649,0.658736,-1.27912
482,13.4805,0.653488,-1.28019
482.5,13.4964,0.646518,-1.28144
483,13.5121,0.638861,-1.28224
483.5,13.5278,0.634201,-1.2836
484,13.5435,0.631439,-1.28481
484.5,13.5588,0.621469,-1.28494
485,13.575,0.611628,-1.2855
485.5,13.5905,0.601775,-1.28712
486,13.6063,0.603418,-1.28763
486.5,13.622,0.598364,-1.28889
487,13.6374,0.593762,-1.28811
487.5,13.6533,0.583393,-1.28905
488,13.669,0.584506,-1.28978
488.5,13.685,0.573144,-1.29056
489,13.7005,0.575569,-1.29142
489.5,13.7162,0.571848,-1.29206
490,13.732,0.568353,-1.29355
490.5,13.7478,0.564618,-1.29383
491,13.7637,0.557942,-1.29514
491.5,13.7793,0.551397,-1.29524
492,13.7953,0.5491,-1.29695
492.5,13.8108,0.543227,-1.29788
493,13.8264,0.533814,-1.29936
493.5,13.8422,0.534807,-1.2995
494,13.8579,0.530386,-1.30075
494.5,13.8737,0.528377,-1.30114
495,13.8894,0.521244,-1.30269
495.5,13.9053,0.520759,-1.30378
496,13.921,0.518925,-1.30558
496.5,13.9367,0.515689,-1.30654
497,13.9525,0.50811,-1.30719
497.5,13.9683,0.509159,-1.30861
498,13.9841,0.506365,-1.30957
498.5,13.9998,0.505887,-1.31029
499,14.0156,0.493452,-1.31097
499.5,14.0314,0.493702,-1.31171
500,14.0471,0.493925,-1.31213
500.5,14.0627,0.488266,-1.31313
501,14.0786,0.491771,-1.31356
501.5,14.0945,0.474934,-1.31369
502,14.1104,0.475436,-1.31498
502.5,14.1261,0.471319,-1.31543
503,14.1417,0.471155,-1.31634
503.5,14.1576,0.463733,-1.31569
504,14.1737,0.461696,-1.31674
504.5,14.1893,0.461407,-1.31672
505,14.2051,0.454689,-1.31734
505.5,14.2207,0.452347,-1.31808
506,14.2367,0.449618,-1.31802
506.5,14.2528,0.45246,-1.31877
507,14.2681,0.447562,-1.31958
507.5,14.2841,0.435021,-1.32037
508,14.2999,0.433467,-1.32181
508.5,14.3157,0.426546,-1.32312
509,14.3314,0.421847,-1.324
509.5,14.3473,0.42368,-1.32424
510,14.3631,0.417072,-1.32543
510.5,14.3787,0.412164,-1.32534
511,14.3946,0.409853,-1.32627
511.5,14.4104,0.406581,-1.32686
512,14.4265,0.40289,-1.32704
512.5,14.442,0.404156,-1.32814
513,14.4579,0.399052,-1.32816
513.5,14.474,0.392854,-1.32827
514,14.4896,0.386012,-1.32945
514.5,14.5052,0.381056,-1.32942
515,14.5211,0.379833,-1.33004
515.5,14.5372,0.379816,-1.32987
516,14.5527,0.380691,-1.33027
516.5,14.5686,0.38043,-1.33129
517,14.5846,0.382526,-1.3312
517.5,14.6004,0.374586,-1.33172
518,14.6163,0.368804,-1.33264
518.5,14.6321,0.367671,-1.33219
519,14.648,0.368125,-1.33355
519.5,14.664,0.363381,-1.33362
520,14.6795,0.364549,-1.33404
520.5,14.6956,0.356927,-1.33526
521,14.7116,0.361401,-1.33515
521.5,14.7272,0.359545,-1.33583
522,14.7432,0.357621,-1.33583
522.5,14.7588,0.354568,-1.33621
523,14.775,0.350551,-1.3372
523.5,14.7908,0.348863,-1.33714
524,14.8067,0.347681,-1.33793
524.5,14.8224,0.344775,-1.33846
525,14.8384,0.336321,-1.3388
525.5,14.8544,0.337562,-1.33996
526,14.8701,0.344906,-1.3398
526.5,14.8858,0.34395,-1.34109
527,14.9019,0.339811,-1.34121
527.5,14.9177,0.336578,-1.34123
528,14.9337,0.336776,-1.34131
528.5,14.9495,0.334925,-1.34259
529,14.9653,0.330662,-1.34265
529.5,14.9813,0.330862,-1.34409
530,14.9975,0.33079,-1.34414
530.5,15.0133,0.325563,-1.34459
531,15.0289,0.321429,-1.34555
531.5,15.045,0.322838,-1.34544
532,15.0611,0.320208,-1.34636
532.5,15.0766,0.318327,-1.34695
533,15.0927,0.318416,-1.34693
533.5,15.1086,0.313329,-1.34805
534,15.1246,0.315298,-1.34802
534.5,15.1405,0.31793,-1.34758
535,15.1562,0.317365,-1.34754
535.5,15.1724,0.314311,-1.34825
536,15.1881,0.304136,-1.34894
536.5,15.2045,0.308193,-1.3489
537,15.2202,0.310707,-1.3489
537.5,15.2359,0.306357,-1.3489
538,15.2521,0.300961,-1.3489
538.5,15.268,0.298562,-1.34899
539,15.2838,0.294339,-1.35029
539.5,15.2997,0.296471,-1.35021
540,15.3157,0.290603,-1.35021
540.5,15.3318,0.285999,-1.35051
541,15.3477,0.287116,-1.35162
541.5,15.3637,0.282023,-1.35152
542,15.3797,0.285018,-1.35227
542.5,15.3957,0.284415,-1.35293
543,15.4116,0.283579,-1.3519
543.5,15.4276,0.27141,-1.35318
544,15.4435,0.271487,-1.35353
544.5,15.4597,0.269701,-1.35455
545,15.4755,0.264562,-1.35521
545.5,15.4913,0.271138,-1.35593
546,15.5077,0.264846,-1.35718
546.5,15.5232,0.264723,-1.35766
547,15.5394,0.262635,-1.36015
547.5,15.5554,0.256307,-1.36022
548,15.5715,0.253223,-1.36018
548.5,15.5873,0.252298,-1.36144
549,15.6033,0.246065,-1.36138
549.5,15.6193,0.24826,-1.36022
550,15.6352,0.244198,-1.36022
550.5,15.6513,0.237753,-1.36019
551,15.6671,0.242825,-1.36131
551.5,15.6833,0.241804,-1.36162
552,15.6994,0.235698,-1.36206
552.5,15.7153,0.239108,-1.363
553,15.7313,0.234733,-1.36295
553.5,15.7473,0.234311,-1.36306
554,15.7631,0.232836,-1.36187
554.5,15.7793,0.225743,-1.36196
555,15.7953,0.22557,-1.36181
555.5,15.8114,0.225056,-1.36221
556,15.8273,0.231263,-1.363
556.5,15.8432,0.231161,-1.36295
557,15.8593,0.22626,-1.36295
557.5,15.8753,0.22758,-1.36297
558,15.8914,0.22622,-1.3629
558.5,15.9074,0.230263,-1.36438
559,15.9236,0.224469,-1.36449
559.5,15.9395,0.226253,-1.36464
560,15.9557,0.22726,-1.36589
560.5,15.9717,0.225727,-1.36581
561,15.9879,0.230317,-1.36632
561.5,16.0035,0.228302,-1.36712
562,16.0197,0.227065,-1.36712
562.5,16.0359,0.222807,-1.36712
563,16.0517,0.226383,-1.36713
563.5,16.0679,0.224261,-1.36765
564,16.0839,0.21716,-1.36844
564.5,16.1001,0.211725,-1.36845
565,16.116,0.217473,-1.36862
565.5,16.1322,0.213634,-1.36976
566,16.1484,0.217265,-1.36965
566.5,16.1643,0.213714,-1.37088
567,16.1803,0.217719,-1.37107
567.5,16.1963,0.211685,-1.37111
568,16.2125,0.22218,-1.37241
568.5,16.2285,0.217841,-1.37226
569,16.2446,0.21332,-1.37369
569.5,16.2608,0.216137,-1.37387
570,16.2765,0.219865,-1.37516
570.5,16.2929,0.222459,-1.37525
571,16.3092,0.218951,-1.37516
571.5,16.3251,0.21023,-1.37641
572,16.3411,0.21654,-1.37659
572.5,16.357,0.212447,-1.37548
573,16.3736,0.216726,-1.37525
573.5,16.3892,0.218335,-1.37525
574,16.4056,0.210551,-1.37539
574.5,16.4216,0.21491,-1.37654
575,16.4376,0.219293,-1.37655
575.5,16.4538,0.222368,-1.37656
576,16.4698,0.22243,-1.37656
576.5,16.4862,0.222997,-1.37656
577,16.5021,0.215875,-1.37656
577.5,16.5183,0.220624,-1.37753
578,16.5344,0.222954,-1.37786
578.5,16.5507,0.219218,-1.3779
579,16.5665,0.221865,-1.37826
579.5,16.5827,0.219462,-1.3792
580,16.5987,0.21665,-1.37925
580.5,16.6149,0.212775,-1.37896
581,16.631,0.211961,-1.37955
581.5,16.6469,0.212645,-1.37944
582,16.6633,0.211395,-1.38072
582.5,16.6787,0.204043,-1.38107
583,16.6956,0.207124,-1.38172
583.5,16.7115,0.211149,-1.3824
584,16.7278,0.206542,-1.38242
584.5,16.7439,0.199785,-1.38257
585,16.7599,0.202008,-1.3836
585.5,16.7759,0.199547,-1.38489
586,16.7921,0.196692,-1.38501
586.5,16.8084,0.197065,-1.38535
587,16.8246,0.20009,-1.38638
587.5,16.8406,0.202699,-1.38633
588,16.8568,0.203268,-1.38632
588.5,16.8729,0.205808,-1.38671
589,16.8889,0.202502,-1.38771
589.5,16.905,0.207951,-1.38766
590,16.9216,0.20741,-1.38763
590.5,16.9375,0.204588,-1.38873
591,16.9538,0.203916,-1.38896
591.5,16.9697,0.203268,-1.38896
592,16.9861,0.191479,-1.38968
592.5,17.0021,0.196023,-1.39028
593,17.0183,0.197589,-1.39031
593.5,17.0346,0.194213,-1.39046
594,17.0506,0.194851,-1.39159
594.5,17.0667,0.199809,-1.39161
595,17.083,0.19673,-1.39164
595.5,17.0989,0.195346,-1.39279
596,17.1152,0.191112,-1.39291
596.5,17.1314,0.18797,-1.39292
597,17.1475,0.19744,-1.39283
597.5,17.164,0.198351,-1.39152
598,17.1802,0.202298,-1.39163
598.5,17.1958,0.192407,-1.39191
599,17.212,0.19218,-1.39292
599.5,17.2281,0.191372,-1.39292
600,17.2445,0.188858,-1.39349
600.5,17.2604,0.191371,-1.39368
601,17.2769,0.184638,-1.39285
601.5,17.2928,0.180263,-1.39362
602,17.3092,0.183635,-1.39439
602.5,17.3254,0.187489,-1.395
603,17.3415,0.180795,-1.39568
603.5,17.3576,0.177518,-1.3957
604,17.3737,0.17684,-1.39576
604.5,17.39,0.180981,-1.39703
605,17.4061,0.176261,-1.39573
605.5,17.4223,0.179673,-1.39567
606,17.4386,0.179855,-1.39628
606.5,17.4549,0.176729,-1.397
607,17.4712,0.17919,-1.39699
607.5,17.4871,0.174798,-1.39699
608,17.5034,0.174508,-1.39699
608.5,17.5193,0.170223,-1.39699
609,17.5358,0.174315,-1.397
609.5,17.5514,0.175995,-1.39697
610,17.5675,0.172365,-1.39805
610.5,17.5838,0.176807,-1.39829
611,17.6004,0.175416,-1.39826
611.5,17.6168,0.172322,-1.39932
612,17.633,0.174718,-1.39961
612.5,17.6491,0.180251,-1.39962
613,17.6652,0.169533,-1.39962
613.5,17.6813,0.167394,-1.39962
614,17.6976,0.171412,-1.3997
614.5,17.714,0.166218,-1.40101
615,17.73,0.159479,-1.40093
615.5,17.7462,0.163925,-1.40096
616,17.7624,0.161093,-1.40095
616.5,17.7785,0.164715,-1.40222
617,17.7948,0.166155,-1.40225
617.5,17.8111,0.168665,-1.40225
618,17.8274,0.178191,-1.40225
618.5,17.8438,0.169054,-1.40225
619,17.8597,0.161227,-1.40225
619.5,17.8755,0.164572,-1.40227
620,17.8914,0.161744,-1.40362
620.5,17.9082,0.161362,-1.40366
621,17.9245,0.161373,-1.40368
621.5,17.9407,0.160588,-1.40364
622,17.957,0.15534,-1.40472
622.5,17.9735,0.155584,-1.40499
623,17.9896,0.152929,-1.40503
623.5,18.0059,0.149674,-1.40532
624,18.022,0.147751,-1.40632
624.5,18.0376,0.147488,-1.40621
625,18.0548,0.148145,-1.40748
625.5,18.0708,0.146093,-1.40763
626,18.0868,0.146081,-1.40763
626.5,18.1031,0.147381,-1.40763
627,18.1189,0.144883,-1.40763
627.5,18.1355,0.146115,-1.40763
628,18.1518,0.149826,-1.40763
628.5,18.1679,0.149867,-1.40763
629,18.1845,0.137604,-1.40763
629.5,18.2005,0.140616,-1.40763
630,18.2166,0.148628,-1.40763
630.5,18.233,0.144277,-1.40763
631,18.2492,0.141545,-1.40763
631.5,18.2654,0.143452,-1.40769
632,18.2818,0.145501,-1.40672
632.5,18.2978,0.146373,-1.4074
633,18.3142,0.143012,-1.40762
633.5,18.3304,0.13871,-1.40763
634,18.3467,0.139759,-1.40763
634.5,18.3628,0.143721,-1.40763
635,18.379,0.140204,-1.40764
635.5,18.3952,0.137985,-1.40776
636,18.4116,0.135515,-1.40893
636.5,18.4276,0.132349,-1.40894
637,18.4444,0.136966,-1.40894
637.5,18.4601,0.134868,-1.40888
638,18.4764,0.129911,-1.4077
638.5,18.4928,0.122342,-1.40764
639,18.5089,0.128492,-1.40764
639.5,18.5251,0.129825,-1.40775
640,18.5413,0.129018,-1.4096
640.5,18.5577,0.12101,-1.41026
641,18.5742,0.120145,-1.41027
641.5,18.5904,0.123304,-1.41027
642,18.6067,0.127721,-1.41027
642.5,18.6228,0.12966,-1.41034
643,18.6393,0.131859,-1.40972
643.5,18.6552,0.128381,-1.4108
644,18.6712,0.127387,-1.41023
644.5,18.6877,0.123904,-1.41017
645,18.7038,0.12652,-1.41136
645.5,18.7203,0.114867,-1.41158
646,18.7364,0.112655,-1.41159
646.5,18.7521,0.115286,-1.41157
647,18.7691,0.115689,-1.41275
647.5,18.785,0.110817,-1.41289
648,18.8017,0.111462,-1.4129
648.5,18.8181,0.115264,-1.4129
649,18.834,0.11903,-1.4129
649.5,18.8504,0.121424,-1.4129
650,18.8665,0.119059,-1.4129
650.5,18.8831,0.122882,-1.4129
651,18.8992,0.124335,-1.4129
651.5,18.9157,0.122465,-1.4129
652,18.9316,0.116239,-1.4129
652.5,18.9478,0.109486,-1.41298
653,18.9643,0.110027,-1.4143
653.5,18.9805,0.113634,-1.41421
654,18.9969,0.110011,-1.41422
654.5,19.013,0.115443,-1.41422
655,19.0295,0.110385,-1.41422
655.5,19.045,0.106519,-1.41422
656,19.062,0.113312,-1.41422
656.5,19.0783,0.105039,-1.41432
657,19.0943,0.103019,-1.4156
657.5,19.1107,0.102304,-1.41552
658,19.1271,0.104612,-1.41553
658.5,19.1434,0.102771,-1.41553
659,19.1594,0.0937859,-1.41553
659.5,19.1762,0.0874398,-1.41553
660,19.1924,0.0893709,-1.41542
660.5,19.2086,0.0943067,-1.4145
661,19.2248,0.0925971,-1.41455
661.5,19.241,0.082762,-1.41453
662,19.2573,0.0735136,-1.41525
662.5,19.2735,0.0746316,-1.41533
663,19.2899,0.0760434,-1.41557
663.5,19.3061,0.0736722,-1.41554
664,19.3227,0.073343,-1.41555
664.5,19.3387,0.0726941,-1.41559
665,19.3554,0.0726355,-1.41467
665.5,19.3716,0.0669519,-1.41421
666,19.3878,0.0598959,-1.41425
666.5,19.404,0.0627148,-1.41434
667,19.4202,0.060512,-1.41553
667.5,19.4369,0.0597324,-1.41554
668,19.4529,0.057423,-1.41567
668.5,19.4691,0.0504707,-1.41695
669,19.4857,0.0458106,-1.41686
669.5,19.5017,0.0415751,-1.41686
670,19.518,0.0413922,-1.41686
670.5,19.5345,0.0271119,-1.41686
671,19.5501,0.0303814,-1.41687
671.5,19.5662,0.0304461,-1.41705
672,19.5834,0.0255243,-1.41821
672.5,19.5995,0.023756,-1.41817
673,19.6158,0.0184922,-1.41833
673.5,19.6322,0.0110639,-1.41831
674,19.6486,0.00621786,-1.41817
674.5,19.665,0.00443384,-1.41817
675,19.681,0.000165361,-1.41817
675.5,19.6973,-0.00285486,-1.41817
676,19.7138,-0.00345493,-1.41817
676.5,19.7297,-0.0094763,-1.41817
677,19.7462,-0.0139045,-1.41817
677.5,19.7625,-0.0193242,-1.41817
678,19.7789,-0.0208412,-1.41816
678.5,19.7951,-0.0268568,-1.41811
679,19.8115,-0.028048,-1.41909
679.5,19.8277,-0.0244215,-1.41949
680,19.8441,-0.0291776,-1.41949
680.5,19.8605,-0.0281774,-1.41956
681,19.8767,-0.0313959,-1.41876
681.5,19.893,-0.0378083,-1.41883
682,19.9093,-0.0427225,-1.41883
682.5,19.9257,-0.0474796,-1.41883
683,19.9418,-0.0515288,-1.41883
683.5,19.958,-0.0552626,-1.41883
684,19.9744,-0.0557056,-1.41884
684.5,19.9906,-0.0600859,-1.42003
685,20.0071,-0.057774,-1.42013
685.5,20.0235,-0.0665421,-1.42015
686,20.0397,-0.0727935,-1.42015
686.5,20.0563,-0.073492,-1.42015
687,20.0722,-0.0762132,-1.42015
687.5,20.0886,-0.0836252,-1.42015
688,20.1049,-0.087099,-1.42018
688.5,20.1213,-0.0886259,-1.42137
689,20.1376,-0.0863297,-1.42217
689.5,20.1538,-0.0924226,-1.42213
690,20.1703,-0.0953155,-1.42213
690.5,20.1868,-0.095679,-1.42213
691,20.2032,-0.101946,-1.42213
691.5,20.2189,-0.105278,-1.42213
692,20.2354,-0.104589,-1.42213
692.5,20.2518,-0.113717,-1.42213
693,20.2682,-0.124896,-1.42213
693.5,20.2843,-0.12279,-1.42213
694,20.3009,-0.128677,-1.42213
694.5,20.317,-0.133292,-1.42212
695,20.3337,-0.137086,-1.42256
695.5,20.35,-0.144159,-1.42228
696,20.3661,-0.145863,-1.42215
696.5,20.3825,-0.154338,-1.42212
697,20.399,-0.158276,-1.42212
697.5,20.4152,-0.15969,-1.42212
698,20.4317,-0.16468,-1.42212
698.5,20.448,-0.170114,-1.42212
699,20.4644,-0.173654,-1.42211
699.5,20.4807,-0.177695,-1.42214
700,20.4971,-0.184209,-1.42141
700.5,20.5134,-0.191265,-1.42146
701,20.5299,-0.187199,-1.42145
701.5,20.5461,-0.199954,-1.4222
702,20.5628,-0.204486,-1.42281
702.5,20.5789,-0.210304,-1.42218
703,20.5952,-0.216101,-1.42214
703.5,20.6113,-0.212114,-1.42212
704,20.6279,-0.219959,-1.42304
704.5,20.6444,-0.223442,-1.42295
705,20.6605,-0.227419,-1.42213
705.5,20.6773,-0.230216,-1.42213
706,20.6937,-0.23817,-1.42211
706.5,20.7102,-0.245762,-1.42206
707,20.7263,-0.248342,-1.42083
707.5,20.7428,-0.25186,-1.42081
708,20.7591,-0.253833,-1.42081
708.5,20.7754,-0.254279,-1.42081
709,20.7916,-0.259791,-1.42081
709.5,20.8082,-0.262415,-1.42076
710,20.8248,-0.265646,-1.42174
710.5,20.8413,-0.266335,-1.42123
711,20.8576,-0.263175,-1.4208
711.5,20.8739,-0.26905,-1.4208
712,20.8898,-0.2776,-1.4208
712.5,20.9066,-0.279762,-1.4208
713,20.923,-0.282247,-1.4208
713.5,20.9392,-0.287625,-1.4208
714,20.9558,-0.294253,-1.4208
714.5,20.9723,-0.29393,-1.42082
715,20.9885,-0.302152,-1.42087
715.5,21.0051,-0.30622,-1.4221
716,21.0215,-0.311872,-1.42214
716.5,21.0381,-0.312783,-1.42268
717,21.0543,-0.318646,-1.42463
717.5,21.0707,-0.323835,-1.42474
718,21.0871,-0.322606,-1.42476
718.5,21.1035,-0.324029,-1.42374
719,21.1201,-0.334254,-1.42347
719.5,21.1363,-0.335445,-1.42352
720,21.1528,-0.345239,-1.42241
720.5,21.1693,-0.335869,-1.42212
721,21.1858,-0.337877,-1.42212
721.5,21.2021,-0.34533,-1.42212
722,21.2187,-0.348128,-1.42212
722.5,21.2345,-0.346642,-1.42212
723,21.2512,-0.350621,-1.42297
723.5,21.2677,-0.355845,-1.42342
724,21.2844,-0.355396,-1.42345
724.5,21.3005,-0.358318,-1.42464
725,21.3172,-0.354198,-1.42474
725.5,21.3335,-0.358548,-1.42365
726,21.3499,-0.361397,-1.42467
726.5,21.3666,-0.363793,-1.4247
727,21.383,-0.369315,-1.42345
727.5,21.3992,-0.381134,-1.42412
728,21.4156,-0.377904,-1.42477
728.5,21.432,-0.378326,-1.42476
729,21.4485,-0.38951,-1.42476
729.5,21.4651,-0.385527,-1.42476
730,21.4813,-0.387051,-1.42476
730.5,21.4976,-0.39123,-1.42476
731,21.5144,-0.390341,-1.42476
731.5,21.531,-0.388667,-1.42476
732,21.5474,-0.395125,-1.42476
732.5,21.5638,-0.401923,-1.42476
733,21.5802,-0.400226,-1.42476
733.5,21.5967,-0.400065,-1.42478
734,21.6135,-0.402507,-1.42484
734.5,21.6296,-0.408004,-1.42605
735,21.6462,-0.414014,-1.42607
735.5,21.6624,-0.416724,-1.42607
736,21.6791,-0.411117,-1.42607
736.5,21.6954,-0.410937,-1.4261
737,21.7121,-0.410238,-1.42738
737.5,21.7284,-0.414428,-1.42737
738,21.7448,-0.419952,-1.4274
738.5,21.7616,-0.418779,-1.42689
739,21.7778,-0.419301,-1.42675
739.5,21.7944,-0.418414,-1.42673
740,21.8108,-0.418976,-1.42673