File: 01_Data/Fiber_Reinforced_Helmet_Shell/STA/N2/30K_min/Fiber_Reinforced_Helmet_Shell_STA_N2_30KData_250501_R4.csv
Temp./C,Time/min,DSC/(mW/mg),Mass loss/mg
60.0,0.0,0.923715,-0.00217245
60.5,0.0302117,0.959801,0.00144933
61,0.0599404,0.985427,0.00481296
61.5,0.089381,1.01598,0.00386008
62,0.117239,1.04608,0.00430802
62.5,0.145054,1.06835,0.00424656
63,0.17306,1.10035,0.00348698
63.5,0.199978,1.12179,0.00329502
64,0.226149,1.15405,0.00336587
64.5,0.2526,1.17766,0.00308605
65,0.279035,1.19799,0.00299561
65.5,0.303807,1.23097,0.00321549
66,0.328868,1.25128,0.00327039
66.5,0.353736,1.26331,0.000611925
67,0.378422,1.28658,-0.00297434
67.5,0.40246,1.31259,0.000134131
68,0.426697,1.32399,0.002741
68.5,0.449814,1.35761,0.00351173
69,0.474007,1.37189,0.00415878
69.5,0.49774,1.39262,0.00468619
70,0.520786,1.40851,0.00538519
70.5,0.543617,1.42555,0.00493632
71,0.566494,1.44176,0.00416453
71.5,0.589297,1.45755,0.00307117
72,0.610928,1.46265,0.00262109
72.5,0.634095,1.49439,0.00280271
73,0.655731,1.51255,0.00280573
73.5,0.678322,1.53065,0.00307561
74,0.699836,1.54811,0.00301359
74.5,0.722158,1.55392,0.00325816
75,0.743472,1.57978,0.00331175
75.5,0.764954,1.59293,0.00323406
76,0.786148,1.60224,0.00283263
76.5,0.808026,1.62505,0.00217946
77,0.82902,1.63232,0.0021985
77.5,0.84998,1.64077,0.00293908
78,0.871266,1.6511,0.0036783
78.5,0.891867,1.66508,0.00372804
79,0.912841,1.67892,0.00368144
79.5,0.93324,1.69931,0.00423635
80,0.954002,1.70353,0.00427332
80.5,0.974741,1.71342,0.00328373
81,0.994799,1.71004,0.00361506
81.5,1.01512,1.7347,0.00383043
82,1.03532,1.74134,0.00345907
82.5,1.05535,1.75481,0.00333563
83,1.07587,1.75515,0.00290298
83.5,1.09577,1.76451,0.00310673
84,1.11545,1.77471,0.00331625
84.5,1.13533,1.78226,0.001744
85,1.15518,1.78751,0.00271596
85.5,1.17524,1.79755,0.00168848
86,1.19424,1.80561,0.00119438
86.5,1.21397,1.81999,0.00125152
87,1.2329,1.82553,0.00169522
87.5,1.2522,1.83583,0.00197821
88,1.27251,1.83838,0.00167334
88.5,1.2917,1.84906,0.00108779
89,1.31076,1.8589,0.00101578
89.5,1.33014,1.8581,3.6098e-05
90,1.34958,1.87251,-0.000522549
90.5,1.36811,1.88246,-0.00118837
91,1.3872,1.87766,-0.000625156
91.5,1.40602,1.88673,-0.000734968
92,1.42476,1.90382,-0.00047736
92.5,1.4438,1.90558,-0.000918802
93,1.46286,1.91698,0.00087096
93.5,1.48171,1.9315,0.00389994
94,1.50015,1.94471,0.00564098
94.5,1.51895,1.95081,0.00433084
95,1.53769,1.95474,0.00231741
95.5,1.55614,1.9623,-0.00112974
96,1.57463,1.97427,-0.00112026
96.5,1.59337,1.98358,-0.00275238
97,1.61153,1.9877,-0.00201531
97.5,1.62994,1.99626,-0.00185092
98,1.6487,2.00109,-0.00142309
98.5,1.66721,2.00888,-0.00241139
99,1.68504,2.00772,-0.00177682
99.5,1.70318,2.00867,-0.00193527
100,1.72204,2.02218,-0.00118531
100.5,1.73983,2.03398,-0.00129809
101,1.75828,2.03713,0.000122003
101.5,1.77653,2.04294,-0.000137964
102,1.79424,2.05373,-0.000317802
102.5,1.81166,2.06205,0.000223001
103,1.82989,2.0758,0.000223057
103.5,1.8485,2.07263,-0.000523017
104,1.86677,2.08583,-0.00110017
104.5,1.88496,2.09849,0.000278076
105,1.90263,2.09888,-0.000858488
105.5,1.92073,2.10735,0.000413386
106,1.9387,2.11831,-0.000735675
106.5,1.95636,2.13289,-0.000437644
107,1.97434,2.12985,0.00089003
107.5,1.99229,2.13623,0.001981
108,2.00963,2.14189,0.00359631
108.5,2.02774,2.14925,0.0021875
109,2.04516,2.16172,0.0015045
109.5,2.06347,2.15731,-0.00116175
110,2.08083,2.17127,-0.00132361
110.5,2.09882,2.18443,-0.00247178
111,2.11674,2.19002,-0.0023734
111.5,2.13405,2.19683,-0.00326949
112,2.15162,2.2048,-0.00372461
112.5,2.16963,2.20531,-0.00371436
113,2.18687,2.21328,-0.00339439
113.5,2.20465,2.22005,-0.00352246
114,2.22207,2.23225,-0.0037289
114.5,2.23952,2.23546,-0.00381949
115,2.25727,2.23666,-0.00247358
115.5,2.27429,2.24232,-0.00240728
116,2.29207,2.24739,-0.00241553
116.5,2.30968,2.25505,-0.0015947
117,2.32667,2.2643,-0.00246248
117.5,2.34452,2.27611,-0.00239313
118,2.36123,2.28062,-0.00113788
118.5,2.37911,2.28307,-0.0011044
119,2.39662,2.2851,-0.00109131
119.5,2.41384,2.2942,-0.00108793
120,2.43098,2.29422,-0.00135402
120.5,2.44841,2.30184,-0.0025147
121,2.46516,2.29863,-0.00206966
121.5,2.4825,2.30897,-0.00214652
122,2.49983,2.31373,-0.00338742
122.5,2.51742,2.32233,-0.00345643
123,2.53431,2.32915,-0.0026184
123.5,2.55111,2.33109,-0.00240757
124,2.56856,2.34139,-0.00242378
124.5,2.5856,2.3456,-0.00257485
125,2.60249,2.34919,-0.00374361
125.5,2.61975,2.34534,-0.00325716
126,2.63678,2.35532,-0.00236973
126.5,2.65333,2.36835,-0.0024009
127,2.67073,2.36666,-0.00293843
127.5,2.68713,2.37588,-0.00383195
128,2.70428,2.3769,-0.00289176
128.5,2.72126,2.39051,-0.0024023
129,2.73834,2.39615,-0.00240715
129.5,2.75514,2.39107,-0.00240994
130,2.77194,2.40642,-0.00240989
130.5,2.7885,2.41829,-0.00239071
131,2.80543,2.41876,-0.00297207
131.5,2.82194,2.41472,-0.00340282
132,2.83881,2.41918,-0.00405947
132.5,2.85516,2.42924,-0.0047214
133,2.87254,2.42595,-0.00472207
133.5,2.88827,2.42654,-0.00530853
134,2.90552,2.42813,-0.00548515
134.5,2.92194,2.4402,-0.00505697
135,2.93887,2.44464,-0.0061976
135.5,2.95506,2.44491,-0.00635604
136,2.97178,2.45045,-0.00637058
136.5,2.98821,2.46188,-0.00640519
137,3.00494,2.46462,-0.00600597
137.5,3.02124,2.46325,-0.00604143
138,3.03773,2.47438,-0.00603901
138.5,3.05418,2.47534,-0.00602717
139,3.0707,2.47832,-0.00481542
139.5,3.08702,2.48107,-0.00474593
140,3.10369,2.48352,-0.00472133
140.5,3.11959,2.48441,-0.00471987
141,3.13621,2.50137,-0.00472154
141.5,3.1525,2.49738,-0.00471729
142,3.16876,2.50545,-0.0056841
142.5,3.18526,2.51235,-0.00600517
143,3.20135,2.5116,-0.00603108
143.5,3.21735,2.51458,-0.00603045
144,3.23389,2.51987,-0.00603002
144.5,3.25005,2.52645,-0.00603
145,3.26601,2.52737,-0.00603005
145.5,3.28281,2.53374,-0.00603012
146,3.29845,2.53065,-0.0060266
146.5,3.31473,2.5341,-0.00600739
147,3.33098,2.53694,-0.00655494
147.5,3.34684,2.53672,-0.00740755
148,3.36285,2.54872,-0.00735182
148.5,3.37926,2.551,-0.00735553
149,3.39537,2.55079,-0.00812794
149.5,3.41118,2.55252,-0.00910857
150,3.42712,2.55389,-0.0102001
150.5,3.44318,2.5532,-0.0104296
151,3.45921,2.56052,-0.00889479
151.5,3.47532,2.55629,-0.00833893
152,3.49156,2.55858,-0.00714002
152.5,3.50698,2.56255,-0.00713372
153,3.52324,2.56841,-0.00713013
153.5,3.53913,2.5736,-0.00712995
154,3.55531,2.57778,-0.00712999
154.5,3.57075,2.58607,-0.00713
155,3.58703,2.58449,-0.00712998
155.5,3.60316,2.58272,-0.00712995
156,3.61888,2.58601,-0.00713111
156.5,3.63471,2.58697,-0.00713802
157,3.65083,2.59061,-0.00708883
157.5,3.66566,2.59275,-0.00815652
158,3.68227,2.59731,-0.00844705
158.5,3.69826,2.59896,-0.00845254
159,3.71387,2.60239,-0.00845022
159.5,3.72975,2.59969,-0.00844998
160,3.74567,2.59587,-0.00845008
160.5,3.76153,2.59639,-0.00844987
161,3.77749,2.60506,-0.00844393
161.5,3.79281,2.6057,-0.00884805
162,3.80869,2.60381,-0.00982962
162.5,3.82445,2.60497,-0.00979838
163,3.84012,2.60325,-0.0109848
163.5,3.85607,2.61674,-0.0110653
164,3.87188,2.60923,-0.0110902
164.5,3.88749,2.61829,-0.0110904
165,3.90309,2.61459,-0.01109
165.5,3.91893,2.61495,-0.01109
166,3.9346,2.62155,-0.01109
166.5,3.94976,2.62587,-0.01109
167,3.96547,2.62556,-0.01109
167.5,3.98143,2.62471,-0.0110899
168,3.99694,2.63,-0.0110867
168.5,4.01238,2.64205,-0.0110873
169,4.0282,2.64579,-0.011434
169.5,4.0438,2.64358,-0.0124483
170,4.05924,2.65217,-0.0124018
170.5,4.07495,2.6472,-0.012409
171,4.09065,2.65448,-0.01241
171.5,4.10586,2.66814,-0.0124143
172,4.12204,2.66988,-0.0120207
172.5,4.13766,2.66579,-0.0113245
173,4.15308,2.66982,-0.0124203
173.5,4.16877,2.67499,-0.0123921
174,4.18445,2.67575,-0.0124002
174.5,4.1997,2.68207,-0.0123937
175,4.21532,2.68627,-0.0130558
175.5,4.23104,2.68625,-0.0140378
176,4.24622,2.69938,-0.0151427
176.5,4.26237,2.69799,-0.0150422
177,4.27783,2.70664,-0.0150278
177.5,4.29349,2.7105,-0.0155407
178,4.30897,2.71805,-0.0163991
178.5,4.32428,2.72192,-0.0163566
179,4.33973,2.73352,-0.0163494
179.5,4.35528,2.73668,-0.0163508
180,4.37069,2.7468,-0.0163475
180.5,4.38615,2.74756,-0.0171991
181,4.40158,2.74067,-0.0177833
181.5,4.41708,2.75054,-0.017788
182,4.43235,2.75198,-0.0177807
182.5,4.44765,2.75575,-0.0177535
183,4.46314,2.76265,-0.0181707
183.5,4.47824,2.77438,-0.0183916
184,4.49387,2.77841,-0.0192483
184.5,4.5091,2.78563,-0.0197882
185,4.52478,2.78433,-0.0197632
185.5,4.54025,2.79643,-0.0197597
186,4.55508,2.81175,-0.0197599
186.5,4.57066,2.82369,-0.01976
187,4.58573,2.82812,-0.01976
187.5,4.60121,2.83795,-0.01976
188,4.61648,2.83624,-0.0197597
188.5,4.63144,2.84394,-0.0197605
189,4.64663,2.85479,-0.0198087
189.5,4.66233,2.8648,-0.0210943
190,4.67749,2.86932,-0.0209765
190.5,4.6928,2.87895,-0.0197258
191,4.70773,2.8846,-0.0197964
191.5,4.72304,2.89015,-0.0197961
192,4.73837,2.90094,-0.0208944
192.5,4.75323,2.90799,-0.0210632
193,4.76893,2.91582,-0.0210723
193.5,4.78391,2.91961,-0.0210702
194,4.79887,2.92713,-0.02107
194.5,4.81468,2.94749,-0.02107
195,4.82943,2.94412,-0.02107
195.5,4.84479,2.95309,-0.02107
196,4.85967,2.96529,-0.02107
196.5,4.87493,2.96519,-0.02107
197,4.88991,2.96839,-0.02107
197.5,4.90549,2.97234,-0.0210696
198,4.9201,2.98659,-0.0210717
198.5,4.93524,2.9928,-0.021099
199,4.9509,3.00385,-0.0223056
199.5,4.96555,3.01239,-0.0223628
200,4.98095,3.01381,-0.0223915
200.5,4.99588,3.01702,-0.0223905
201,5.01067,3.02822,-0.02239
201.5,5.02585,3.0323,-0.0223903
202,5.04117,3.0339,-0.0223893
202.5,5.05635,3.03835,-0.0223704
203,5.07141,3.04222,-0.0226979
203.5,5.08666,3.05012,-0.0230766
204,5.10178,3.0578,-0.0230509
204.5,5.11673,3.06825,-0.0230495
205,5.13171,3.07681,-0.02305
205.5,5.14686,3.08013,-0.02305
206,5.16217,3.08511,-0.02305
206.5,5.17692,3.10428,-0.02305
207,5.19223,3.12016,-0.02305
207.5,5.20709,3.1318,-0.02305
208,5.22216,3.13492,-0.02305
208.5,5.23714,3.14684,-0.0230509
209,5.25241,3.15516,-0.0230507
209.5,5.26732,3.15939,-0.0230036
210,5.28252,3.16456,-0.0237542
210.5,5.29736,3.17813,-0.0246566
211,5.31253,3.1836,-0.0245932
211.5,5.32746,3.19677,-0.0254841
212,5.34261,3.19961,-0.0258926
212.5,5.35746,3.2029,-0.0259058
213,5.3725,3.21993,-0.0259003
213.5,5.38762,3.23227,-0.0259057
214,5.40253,3.24847,-0.0258972
214.5,5.41767,3.25077,-0.0255041
215,5.43276,3.26058,-0.0262794
215.5,5.44791,3.27272,-0.026562
216,5.46291,3.27834,-0.0265604
216.5,5.47758,3.28696,-0.0265601
217,5.49266,3.29312,-0.0265602
217.5,5.50773,3.29771,-0.0265513
218,5.52276,3.30387,-0.0269494
218.5,5.53747,3.30646,-0.0279623
219,5.55231,3.31287,-0.0278809
219.5,5.56752,3.3126,-0.0278746
220,5.58255,3.31666,-0.0278755
220.5,5.59758,3.33182,-0.0281825
221,5.61231,3.34394,-0.0292066
221.5,5.6273,3.36324,-0.0291844
222,5.6422,3.36176,-0.029199
222.5,5.65731,3.36987,-0.0294713
223,5.67186,3.37925,-0.0305038
223.5,5.68747,3.38725,-0.0304976
224,5.70186,3.3942,-0.0305101
224.5,5.71707,3.40386,-0.0305103
225,5.73219,3.41342,-0.03051
225.5,5.74691,3.42147,-0.0305096
226,5.7613,3.42044,-0.0305107
226.5,5.77664,3.42601,-0.0305605
227,5.79189,3.43375,-0.0318188
227.5,5.80673,3.44126,-0.0318041
228,5.82136,3.44444,-0.031831
228.5,5.83623,3.45395,-0.0318306
229,5.85134,3.46219,-0.0318298
229.5,5.86638,3.46085,-0.0318245
230,5.88114,3.4724,-0.032088
230.5,5.89615,3.48215,-0.0332512
231,5.91117,3.4832,-0.0331427
231.5,5.92589,3.48949,-0.0330733
232,5.94067,3.50123,-0.0340106
232.5,5.95556,3.50662,-0.0344828
233,5.97041,3.50786,-0.0343854
233.5,5.98539,3.51701,-0.0356533
234,6.00033,3.51946,-0.0357825
234.5,6.01522,3.52187,-0.0357805
235,6.02992,3.52903,-0.03578
235.5,6.04521,3.53511,-0.0357806
236,6.05972,3.53709,-0.0357767
236.5,6.07473,3.5438,-0.035752
237,6.08947,3.54744,-0.036227
237.5,6.10451,3.54821,-0.0371455
238,6.11914,3.55223,-0.0371174
238.5,6.13438,3.55696,-0.0372741
239,6.14925,3.56389,-0.0383353
239.5,6.16383,3.56746,-0.0371226
240,6.17872,3.57043,-0.0371347
240.5,6.19395,3.57651,-0.0371082
241,6.20865,3.58204,-0.0372179
241.5,6.22328,3.58826,-0.0385916
242,6.2383,3.59754,-0.0384537
242.5,6.25339,3.60176,-0.0392957
243,6.26771,3.60461,-0.0398984
243.5,6.28245,3.60789,-0.0398516
244,6.29793,3.60724,-0.0398671
244.5,6.31268,3.60884,-0.0397854
245,6.32727,3.6201,-0.0419809
245.5,6.34216,3.62856,-0.0425908
246,6.35685,3.63142,-0.0426567
246.5,6.37183,3.64001,-0.0438956
247,6.38689,3.6416,-0.0438841
247.5,6.40157,3.64625,-0.0441935
248,6.41659,3.65508,-0.0455573
248.5,6.4313,3.6506,-0.0456952
249,6.44591,3.65885,-0.047111
249.5,6.46088,3.6771,-0.0469207
250,6.47588,3.67814,-0.0482572
250.5,6.49054,3.68124,-0.0483372
251,6.5053,3.67828,-0.0499007
251.5,6.52017,3.68069,-0.0503569
252,6.53533,3.68782,-0.0517227
252.5,6.54986,3.69273,-0.0514921
253,6.56471,3.69419,-0.0527551
253.5,6.57943,3.70114,-0.0528346
254,6.59442,3.70911,-0.051606
254.5,6.60931,3.706,-0.0516173
255,6.62407,3.71265,-0.0515637
255.5,6.63869,3.71262,-0.0522448
256,6.65354,3.71991,-0.0529263
256.5,6.66863,3.73555,-0.0530586
257,6.68324,3.73425,-0.0539332
257.5,6.69825,3.73785,-0.052951
258,6.71295,3.74227,-0.0541907
258.5,6.72769,3.74861,-0.0544705
259,6.74243,3.76175,-0.0544618
259.5,6.75725,3.76266,-0.0555197
260,6.7721,3.76917,-0.0557697
260.5,6.78676,3.77642,-0.0558316
261,6.80177,3.77505,-0.0570614
261.5,6.81655,3.79188,-0.0570111
262,6.83149,3.79476,-0.0576851
262.5,6.84627,3.79737,-0.0586631
263,6.86079,3.80678,-0.0591499
263.5,6.87574,3.82065,-0.0601573
264,6.89058,3.82248,-0.0610955
264.5,6.9052,3.83243,-0.0619825
265,6.92013,3.83934,-0.0634309
265.5,6.93497,3.84595,-0.064236
266,6.94967,3.85259,-0.0652997
266.5,6.96476,3.85637,-0.0654353
267,6.97857,3.86352,-0.066725
267.5,6.99409,3.88029,-0.0668984
268,7.00871,3.87905,-0.068232
268.5,7.02365,3.88311,-0.0687578
269,7.03849,3.89198,-0.0708267
269.5,7.05323,3.89937,-0.0719412
270,7.06795,3.90396,-0.072624
270.5,7.08271,3.91332,-0.0739427
271,7.09762,3.91743,-0.0747642
271.5,7.11246,3.92796,-0.0763189
272,7.12722,3.92825,-0.0774549
272.5,7.14219,3.92869,-0.0781707
273,7.15679,3.93161,-0.0794429
273.5,7.17193,3.9364,-0.0798075
274,7.18638,3.94308,-0.0810817
274.5,7.20119,3.94137,-0.0818346
275,7.21572,3.93912,-0.0829307
275.5,7.23074,3.94218,-0.0833406
276,7.24554,3.9457,-0.0838535
276.5,7.26016,3.94976,-0.0852226
277,7.27498,3.94099,-0.0863703
277.5,7.28963,3.93509,-0.0875963
278,7.3045,3.93643,-0.0892362
278.5,7.31927,3.93559,-0.0906941
279,7.33399,3.93452,-0.0920125
279.5,7.34903,3.93428,-0.093127
280,7.36353,3.92885,-0.094923
280.5,7.37854,3.93616,-0.0955219
281,7.39336,3.93777,-0.0964424
281.5,7.40785,3.92687,-0.0975859
282,7.42303,3.92397,-0.0986199
282.5,7.43735,3.91369,-0.10084
283,7.45222,3.90963,-0.103023
283.5,7.46685,3.91086,-0.104661
284,7.48174,3.90592,-0.106131
284.5,7.4966,3.90083,-0.107581
285,7.51132,3.88965,-0.108802
285.5,7.52572,3.88437,-0.109979
286,7.54087,3.87734,-0.110565
286.5,7.55535,3.8663,-0.112354
287,7.57028,3.86329,-0.113816
287.5,7.58508,3.85688,-0.11473
288,7.59989,3.84948,-0.115754
288.5,7.6148,3.84416,-0.117814
289,7.6295,3.8316,-0.119912
289.5,7.64425,3.82075,-0.121484
290,7.65893,3.81802,-0.12371
290.5,7.67357,3.81374,-0.124701
291,7.68847,3.79801,-0.126613
291.5,7.70316,3.78578,-0.128694
292,7.718,3.78401,-0.130658
292.5,7.73286,3.76127,-0.132136
293,7.7476,3.75954,-0.134051
293.5,7.76245,3.75549,-0.135633
294,7.77696,3.74823,-0.137628
294.5,7.79187,3.73451,-0.139431
295,7.80643,3.72207,-0.140551
295.5,7.82155,3.71128,-0.142914
296,7.83513,3.69785,-0.144449
296.5,7.85037,3.69633,-0.147027
297,7.86527,3.68387,-0.148457
297.5,7.88057,3.67795,-0.150064
298,7.89522,3.66835,-0.151803
298.5,7.91008,3.66208,-0.153924
299,7.9248,3.6487,-0.155603
299.5,7.93944,3.6345,-0.159106
300,7.95435,3.62676,-0.161624
300.5,7.96902,3.61115,-0.16414
301,7.98396,3.60084,-0.166773
301.5,7.99872,3.5888,-0.169672
302,8.01356,3.57359,-0.17361
302.5,8.0284,3.55908,-0.175547
303,8.04313,3.54829,-0.177952
303.5,8.05782,3.53895,-0.180229
304,8.07232,3.52602,-0.182273
304.5,8.08746,3.50978,-0.185375
305,8.10178,3.48858,-0.187661
305.5,8.11687,3.47961,-0.191153
306,8.13148,3.4643,-0.193598
306.5,8.14632,3.43332,-0.196206
307,8.1606,3.41292,-0.198798
307.5,8.17582,3.38384,-0.20148
308,8.19021,3.37184,-0.205551
308.5,8.20528,3.34875,-0.208621
309,8.22002,3.30573,-0.212188
309.5,8.23454,3.26993,-0.216145
310,8.2492,3.23073,-0.218922
310.5,8.26384,3.18448,-0.222477
311,8.27884,3.1328,-0.226017
311.5,8.29343,3.0831,-0.229103
312,8.30794,3.02973,-0.233035
312.5,8.3227,2.97505,-0.236382
313,8.3372,2.92261,-0.239812
313.5,8.35193,2.86394,-0.244436
314,8.36652,2.80844,-0.248226
314.5,8.38109,2.76058,-0.252685
315,8.39585,2.7106,-0.257836
315.5,8.41074,2.66301,-0.261667
316,8.42514,2.62186,-0.266248
316.5,8.43983,2.59029,-0.27081
317,8.45474,2.56227,-0.27519
317.5,8.46927,2.53615,-0.28061
318,8.48426,2.53756,-0.284823
318.5,8.49915,2.52194,-0.289825
319,8.51396,2.51666,-0.296211
319.5,8.52881,2.51917,-0.300713
320,8.54345,2.52474,-0.305704
320.5,8.55868,2.53469,-0.310527
321,8.57333,2.54981,-0.314567
321.5,8.58804,2.56514,-0.319635
322,8.6032,2.58655,-0.323563
322.5,8.61798,2.61101,-0.326704
323,8.63304,2.64078,-0.328556
323.5,8.64785,2.66704,-0.329027
324,8.66283,2.68739,-0.331075
324.5,8.67791,2.71515,-0.336196
325,8.69258,2.739,-0.342468
325.5,8.70789,2.76183,-0.351236
326,8.72282,2.78917,-0.358084
326.5,8.7377,2.81315,-0.363794
327,8.75274,2.83738,-0.369233
327.5,8.76775,2.87643,-0.37162
328,8.78267,2.88944,-0.375603
328.5,8.79766,2.91746,-0.376131
329,8.81219,2.93633,-0.378704
329.5,8.82762,2.95913,-0.380729
330,8.84267,2.97996,-0.383326
330.5,8.85762,2.99318,-0.386633
331,8.8724,3.01417,-0.388565
331.5,8.88722,3.03124,-0.392069
332,8.90226,3.04371,-0.394107
332.5,8.91742,3.06667,-0.396394
333,8.93255,3.08271,-0.400251
333.5,8.94725,3.0951,-0.40207
334,8.96238,3.11439,-0.405372
334.5,8.97722,3.12253,-0.408086
335,8.9922,3.13314,-0.410275
335.5,9.0072,3.14761,-0.413165
336,9.02207,3.16402,-0.41542
336.5,9.03698,3.18134,-0.418311
337,9.05213,3.18882,-0.420702
337.5,9.06715,3.19233,-0.422918
338,9.08193,3.2008,-0.425826
338.5,9.09669,3.21362,-0.427508
339,9.11201,3.23148,-0.430012
339.5,9.12685,3.2351,-0.432423
340,9.14183,3.24107,-0.434389
340.5,9.1567,3.25523,-0.436761
341,9.17172,3.26414,-0.438953
341.5,9.18668,3.27466,-0.441811
342,9.20158,3.28716,-0.443744
342.5,9.21695,3.29494,-0.446413
343,9.23178,3.29899,-0.450793
343.5,9.24671,3.30551,-0.454482
344,9.26165,3.3102,-0.45836
344.5,9.27647,3.32848,-0.4619
345,9.29133,3.33243,-0.463009
345.5,9.30686,3.3296,-0.46368
346,9.32156,3.33869,-0.464541
346.5,9.33679,3.34826,-0.465961
347,9.3516,3.35151,-0.467596
347.5,9.36681,3.35918,-0.469371
348,9.38144,3.36045,-0.471968
348.5,9.39676,3.3696,-0.4735
349,9.41155,3.38193,-0.475847
349.5,9.42672,3.37946,-0.478152
350,9.44141,3.38239,-0.480119
350.5,9.45651,3.39136,-0.483103
351,9.47189,3.39576,-0.486441
351.5,9.48684,3.40167,-0.489133
352,9.50177,3.40812,-0.491002
352.5,9.51691,3.409,-0.493365
353,9.53186,3.41365,-0.496616
353.5,9.54705,3.41849,-0.498879
354,9.56186,3.42018,-0.502226
354.5,9.57687,3.41651,-0.504605
355,9.59201,3.42312,-0.506535
355.5,9.6064,3.42932,-0.508651
356,9.62105,3.43145,-0.510403
356.5,9.63643,3.42891,-0.513603
357,9.65204,3.42929,-0.515753
357.5,9.66708,3.43393,-0.518376
358,9.68225,3.43559,-0.52173
358.5,9.69719,3.43724,-0.523264
359,9.71222,3.43839,-0.526871
359.5,9.72726,3.43694,-0.529218
360,9.74216,3.43267,-0.53102
360.5,9.75755,3.43768,-0.533645
361,9.77252,3.43608,-0.535588
361.5,9.78746,3.43507,-0.538066
362,9.80265,3.43404,-0.540238
362.5,9.81748,3.4344,-0.542744
363,9.83283,3.43088,-0.545073
363.5,9.84761,3.43353,-0.546495
364,9.86247,3.43147,-0.549406
364.5,9.87784,3.42562,-0.552271
365,9.89274,3.42544,-0.554489
365.5,9.90806,3.42346,-0.557287
366,9.92298,3.4203,-0.559058
366.5,9.93767,3.4223,-0.561414
367,9.95318,3.41966,-0.563509
367.5,9.96832,3.42632,-0.566181
368,9.98329,3.42538,-0.569875
368.5,9.99852,3.41867,-0.571748
369,10.0135,3.41178,-0.573968
369.5,10.0286,3.41627,-0.576318
370,10.0439,3.41309,-0.578361
370.5,10.0585,3.41032,-0.581418
371,10.074,3.41133,-0.583948
371.5,10.0889,3.40489,-0.586678
372,10.1039,3.40322,-0.588641
372.5,10.1194,3.40391,-0.590587
373,10.1343,3.40626,-0.593088
373.5,10.1495,3.40669,-0.594749
374,10.1646,3.40634,-0.59729
374.5,10.18,3.40798,-0.599812
375,10.1948,3.40766,-0.601347
375.5,10.2095,3.40299,-0.603855
376,10.2245,3.40663,-0.606135
376.5,10.2396,3.39808,-0.609093
377,10.2554,3.39403,-0.612119
377.5,10.2708,3.39732,-0.614626
378,10.2855,3.39742,-0.617952
378.5,10.3007,3.40184,-0.619082
379,10.3161,3.40252,-0.621623
379.5,10.331,3.39809,-0.624068
380,10.3463,3.39627,-0.625448
380.5,10.3615,3.39605,-0.627785
381,10.3769,3.39039,-0.629799
381.5,10.3918,3.40401,-0.630995
382,10.4068,3.39902,-0.633504
382.5,10.4222,3.39887,-0.635562
383,10.4374,3.39756,-0.638008
383.5,10.4523,3.39973,-0.641291
384,10.4677,3.39845,-0.643195
384.5,10.483,3.39809,-0.6462
385,10.498,3.39898,-0.64905
385.5,10.5131,3.40128,-0.651254
386,10.5283,3.40655,-0.653684
386.5,10.5438,3.40519,-0.655365
387,10.5586,3.40333,-0.657609
387.5,10.5741,3.41184,-0.660006
388,10.5893,3.41523,-0.662889
388.5,10.6045,3.40623,-0.665967
389,10.6195,3.40915,-0.668427
389.5,10.6351,3.41595,-0.671242
390,10.6499,3.41536,-0.673701
390.5,10.6654,3.41997,-0.675355
391,10.6802,3.41961,-0.678254
391.5,10.6957,3.42449,-0.681356
392,10.7113,3.42611,-0.684617
392.5,10.7262,3.42967,-0.687602
393,10.7418,3.43749,-0.690031
393.5,10.7569,3.43674,-0.693042
394,10.7721,3.43208,-0.695586
394.5,10.7872,3.43805,-0.698616
395,10.8024,3.44176,-0.702337
395.5,10.8178,3.4487,-0.705777
396,10.8332,3.45241,-0.709139
396.5,10.8483,3.45279,-0.712107
397,10.8638,3.46402,-0.714118
397.5,10.8787,3.46502,-0.716966
398,10.894,3.46778,-0.719462
398.5,10.9095,3.47278,-0.722904
399,10.9249,3.48062,-0.726285
399.5,10.9399,3.48664,-0.729417
400,10.9554,3.49076,-0.734536
400.5,10.9705,3.4911,-0.736708
401,10.9859,3.49516,-0.739814
401.5,11.0014,3.503,-0.7433
402,11.0164,3.50942,-0.74556
402.5,11.0321,3.51393,-0.751071
403,11.0471,3.51727,-0.755286
403.5,11.0624,3.5219,-0.759624
404,11.0777,3.53598,-0.764543
404.5,11.093,3.53666,-0.767571
405,11.1082,3.53773,-0.772607
405.5,11.1235,3.54575,-0.776326
406,11.139,3.54857,-0.780738
406.5,11.1543,3.55923,-0.783189
407,11.1695,3.56604,-0.785273
407.5,11.1849,3.57402,-0.786608
408,11.2,3.57617,-0.78669
408.5,11.2157,3.58554,-0.787496
409,11.2308,3.59134,-0.789306
409.5,11.2464,3.59077,-0.793066
410,11.2615,3.59457,-0.79805
410.5,11.2771,3.60712,-0.801564
411,11.2923,3.61149,-0.805638
411.5,11.3082,3.61633,-0.809754
412,11.3229,3.62781,-0.812684
412.5,11.3387,3.63094,-0.816959
413,11.354,3.63917,-0.82026
413.5,11.3691,3.63445,-0.823947
414,11.3848,3.64756,-0.828407
414.5,11.4,3.65624,-0.831836
415,11.4154,3.65789,-0.836372
415.5,11.4308,3.64993,-0.840652
416,11.446,3.66434,-0.844649
416.5,11.4617,3.65971,-0.849492
417,11.4767,3.664,-0.853247
417.5,11.4923,3.66636,-0.858066
418,11.5069,3.66854,-0.86384
418.5,11.5223,3.67139,-0.867886
419,11.538,3.67132,-0.872541
419.5,11.5532,3.67189,-0.876689
420,11.569,3.67591,-0.881377
420.5,11.5845,3.67848,-0.887039
421,11.6,3.68029,-0.89156
421.5,11.6152,3.67521,-0.896703
422,11.6309,3.67567,-0.901373
422.5,11.6457,3.67253,-0.90512
423,11.6615,3.67117,-0.910036
423.5,11.6769,3.66925,-0.914165
424,11.692,3.65948,-0.919066
424.5,11.7077,3.65866,-0.924215
425,11.7228,3.65418,-0.92809
425.5,11.7385,3.6509,-0.933509
426,11.7539,3.64768,-0.939092
426.5,11.769,3.63731,-0.943498
427,11.7847,3.62804,-0.94894
427.5,11.7999,3.61848,-0.95301
428,11.8154,3.61323,-0.958513
428.5,11.8308,3.59648,-0.965221
429,11.846,3.59304,-0.970454
429.5,11.8613,3.58295,-0.977591
430,11.8768,3.57539,-0.982163
430.5,11.8921,3.56579,-0.987863
431,11.9076,3.55216,-0.992026
431.5,11.9233,3.52881,-0.996136
432,11.9384,3.52007,-1.00034
432.5,11.9539,3.51959,-1.00478
433,11.9689,3.48789,-1.00948
433.5,11.9841,3.48323,-1.0153
434,12.0002,3.46238,-1.01907
434.5,12.0153,3.44487,-1.0237
435,12.0307,3.43027,-1.02884
435.5,12.0462,3.41663,-1.03361
436,12.0617,3.39793,-1.03952
436.5,12.077,3.37698,-1.04367
437,12.0927,3.35787,-1.04863
437.5,12.1079,3.33348,-1.05357
438,12.1232,3.31057,-1.05763
438.5,12.1386,3.28437,-1.06263
439,12.1544,3.26127,-1.06706
439.5,12.1696,3.25387,-1.07189
440,12.1846,3.22313,-1.07822
440.5,12.2003,3.20454,-1.08229
441,12.2156,3.17536,-1.08699
441.5,12.2313,3.14411,-1.09159
442,12.2466,3.13526,-1.09601
442.5,12.262,3.10742,-1.10132
443,12.2773,3.08585,-1.10519
443.5,12.2929,3.06144,-1.10972
444,12.3081,3.03156,-1.11432
444.5,12.3237,3.01441,-1.1185
445,12.3392,2.99051,-1.12367
445.5,12.3546,2.96285,-1.12774
446,12.3698,2.94451,-1.13176
446.5,12.3854,2.9066,-1.13598
447,12.4011,2.88152,-1.1394
447.5,12.4163,2.86036,-1.14398
448,12.432,2.83392,-1.14821
448.5,12.4473,2.80794,-1.1518
449,12.4627,2.78428,-1.15583
449.5,12.4783,2.75761,-1.15838
450,12.4938,2.7452,-1.16287
450.5,12.5093,2.71305,-1.16546
451,12.5244,2.68188,-1.16915
451.5,12.54,2.65686,-1.17322
452,12.5552,2.63366,-1.17565
452.5,12.5711,2.60207,-1.17943
453,12.5864,2.57925,-1.18269
453.5,12.602,2.56118,-1.18558
454,12.6176,2.53452,-1.19005
454.5,12.633,2.51091,-1.19375
455,12.6487,2.49902,-1.19758
455.5,12.664,2.47338,-1.20066
456,12.6795,2.45003,-1.20357
456.5,12.6951,2.42629,-1.20595
457,12.7105,2.40351,-1.20728
457.5,12.7261,2.38574,-1.21009
458,12.7417,2.3601,-1.21346
458.5,12.7571,2.33804,-1.21582
459,12.7725,2.31823,-1.21887
459.5,12.788,2.29588,-1.22158
460,12.8037,2.27681,-1.22374
460.5,12.8191,2.25705,-1.22656
461,12.8348,2.24622,-1.22908
461.5,12.8503,2.22828,-1.23151
462,12.8659,2.21319,-1.23372
462.5,12.8813,2.18465,-1.23559
463,12.8968,2.16191,-1.238
463.5,12.9126,2.15897,-1.23984
464,12.928,2.14096,-1.24148
464.5,12.9434,2.1105,-1.24301
465,12.959,2.09813,-1.2449
465.5,12.9749,2.0771,-1.24769
466,12.9904,2.06999,-1.25025
466.5,13.0058,2.04948,-1.25167
467,13.0213,2.03339,-1.25364
467.5,13.0373,2.01867,-1.2571
468,13.0527,2.00998,-1.26081
468.5,13.0684,1.99256,-1.26416
469,13.0841,1.97921,-1.26598
469.5,13.0997,1.96661,-1.26749
470,13.1154,1.95414,-1.26713
470.5,13.1306,1.94763,-1.26771
471,13.1465,1.93415,-1.26869
471.5,13.1621,1.91885,-1.2709
472,13.1778,1.90754,-1.27122
472.5,13.1932,1.89267,-1.27157
473,13.2089,1.87508,-1.27325
473.5,13.2244,1.86689,-1.27441
474,13.2403,1.85655,-1.27605
474.5,13.256,1.84907,-1.27773
475,13.2716,1.84026,-1.27927
475.5,13.2873,1.83067,-1.27985
476,13.3028,1.8211,-1.28109
476.5,13.3188,1.80658,-1.28266
477,13.3341,1.79582,-1.28401
477.5,13.3499,1.78275,-1.28566
478,13.3657,1.78381,-1.2875
478.5,13.3813,1.77884,-1.28892
479,13.3971,1.76357,-1.28948
479.5,13.4128,1.7514,-1.29059
480,13.4284,1.74873,-1.29128
480.5,13.4441,1.74247,-1.29224
481,13.4595,1.73619,-1.29374
481.5,13.4749,1.72156,-1.29415
482,13.4908,1.71078,-1.29552
482.5,13.5067,1.70325,-1.29641
483,13.5223,1.69847,-1.29765
483.5,13.538,1.69818,-1.29933
484,13.5539,1.68994,-1.30104
484.5,13.5694,1.68198,-1.30219
485,13.5855,1.67989,-1.30281
485.5,13.6009,1.67264,-1.30347
486,13.6167,1.66787,-1.30437
486.5,13.6323,1.66247,-1.30498
487,13.6483,1.6563,-1.30648
487.5,13.6637,1.64588,-1.30687
488,13.6798,1.64632,-1.30837
488.5,13.6952,1.63809,-1.31043
489,13.7112,1.63451,-1.31143
489.5,13.7267,1.63552,-1.31314
490,13.7425,1.62501,-1.31458
490.5,13.7581,1.6188,-1.31516
491,13.7743,1.61613,-1.31679
491.5,13.7898,1.60119,-1.31821
492,13.8056,1.60066,-1.32032
492.5,13.8214,1.59482,-1.32194
493,13.8374,1.59269,-1.32244
493.5,13.8528,1.5875,-1.32301
494,13.8687,1.5801,-1.32182
494.5,13.8847,1.57589,-1.32197
495,13.9001,1.57197,-1.32204
495.5,13.9159,1.56896,-1.32289
496,13.9318,1.56945,-1.32364
496.5,13.9476,1.56188,-1.32532
497,13.9635,1.56495,-1.3246
497.5,13.9792,1.55751,-1.32572
498,13.9951,1.55054,-1.32587
498.5,14.0108,1.54629,-1.32703
499,14.0268,1.54113,-1.32696
499.5,14.0424,1.5371,-1.32806
500,14.0581,1.52974,-1.3284
500.5,14.0741,1.52529,-1.32851
501,14.0898,1.5208,-1.32975
501.5,14.1056,1.52028,-1.32982
502,14.1212,1.51616,-1.33133
502.5,14.1372,1.51218,-1.3325
503,14.1529,1.50707,-1.33284
503.5,14.1681,1.50201,-1.33396
504,14.1839,1.4992,-1.33393
504.5,14.2001,1.49504,-1.33528
505,14.2162,1.49524,-1.33557
505.5,14.2318,1.49301,-1.33681
506,14.2482,1.48015,-1.33688
506.5,14.2637,1.47048,-1.33844
507,14.2798,1.47722,-1.33852
507.5,14.2954,1.47384,-1.3399
508,14.3113,1.46638,-1.33977
508.5,14.3271,1.46369,-1.34084
509,14.343,1.46035,-1.3411
509.5,14.3588,1.46033,-1.34101
510,14.3746,1.45051,-1.34226
510.5,14.3905,1.44668,-1.34243
511,14.4063,1.43757,-1.34262
511.5,14.4221,1.43949,-1.34385
512,14.4382,1.43602,-1.34392
512.5,14.4538,1.43179,-1.34547
513,14.4695,1.42776,-1.3453
513.5,14.4854,1.42195,-1.34559
514,14.5016,1.41373,-1.34621
514.5,14.5174,1.41032,-1.34716
515,14.5333,1.40618,-1.34793
515.5,14.5489,1.40737,-1.34877
516,14.5643,1.40037,-1.34888
516.5,14.5808,1.39216,-1.3502
517,14.5967,1.39468,-1.35113
517.5,14.6126,1.39179,-1.35174
518,14.6286,1.38663,-1.35166
518.5,14.6444,1.38257,-1.3529
519,14.6602,1.37704,-1.35304
519.5,14.6761,1.37723,-1.35415
520,14.6923,1.37161,-1.3546
520.5,14.708,1.37077,-1.35587
521,14.7242,1.36457,-1.35613
521.5,14.7397,1.3636,-1.3561
522,14.7557,1.35707,-1.35713
522.5,14.7712,1.35539,-1.35758
523,14.7873,1.35112,-1.35862
523.5,14.8032,1.34551,-1.35917
524,14.8192,1.34111,-1.35992
524.5,14.835,1.3347,-1.36054
525,14.851,1.3253,-1.36053
525.5,14.867,1.31716,-1.36045
526,14.8827,1.31554,-1.36157
526.5,14.8988,1.30992,-1.36199
527,14.9147,1.30766,-1.36208
527.5,14.9309,1.30768,-1.36323
528,14.9464,1.301,-1.36326
528.5,14.9626,1.2991,-1.36327
529,14.9783,1.29761,-1.36364
529.5,14.9942,1.29472,-1.36463
530,15.01,1.2845,-1.3646
530.5,15.0262,1.28721,-1.36495
531,15.042,1.28422,-1.36593
531.5,15.058,1.28547,-1.3653
532,15.0733,1.27947,-1.36619
532.5,15.0895,1.2722,-1.36614
533,15.1056,1.26963,-1.36643
533.5,15.1216,1.26621,-1.36745
534,15.1376,1.26104,-1.36745
534.5,15.1531,1.25753,-1.36745
535,15.1693,1.24847,-1.36745
535.5,15.1854,1.24624,-1.36753
536,15.2012,1.24493,-1.37006
536.5,15.2172,1.24034,-1.37003
537,15.2332,1.23875,-1.37007
537.5,15.2491,1.22921,-1.3705
538,15.2651,1.23566,-1.37145
538.5,15.2809,1.22905,-1.37141
539,15.2971,1.2207,-1.37186
539.5,15.313,1.2181,-1.37272
540,15.3288,1.21103,-1.37283
540.5,15.3449,1.20789,-1.37427
541,15.3607,1.20909,-1.37408
541.5,15.3769,1.20874,-1.37544
542,15.3929,1.20327,-1.37557
542.5,15.4087,1.19492,-1.37556
543,15.4248,1.1886,-1.37617
543.5,15.4406,1.18539,-1.37692
544,15.4569,1.18151,-1.37691
544.5,15.4726,1.18418,-1.37691
545,15.4886,1.17843,-1.37805
545.5,15.5045,1.17699,-1.37821
546,15.5203,1.17355,-1.37817
546.5,15.5365,1.1691,-1.37922
547,15.5525,1.15181,-1.37952
547.5,15.5687,1.155,-1.37952
548,15.5846,1.15401,-1.3801
548.5,15.6,1.15403,-1.38088
549,15.616,1.14751,-1.38085
549.5,15.6317,1.14332,-1.38084
550,15.648,1.13746,-1.38073
550.5,15.6638,1.13168,-1.38208
551,15.6801,1.12605,-1.38272
551.5,15.6965,1.12968,-1.38456
552,15.7124,1.12686,-1.38502
552.5,15.7286,1.1248,-1.38502
553,15.7448,1.11573,-1.38499
553.5,15.7608,1.11359,-1.38524
554,15.7767,1.11433,-1.38513
554.5,15.7928,1.10837,-1.385
555,15.8084,1.1064,-1.38564
555.5,15.8247,1.09998,-1.3864
556,15.8407,1.09518,-1.38565
556.5,15.8565,1.08847,-1.38568
557,15.8726,1.08041,-1.38567
557.5,15.8884,1.0803,-1.38567
558,15.9044,1.08047,-1.38568
558.5,15.9206,1.07765,-1.38688
559,15.9368,1.07591,-1.38696
559.5,15.9528,1.06602,-1.38699
560,15.9683,1.06347,-1.3871
560.5,15.9841,1.06911,-1.38838
561,16.0007,1.06479,-1.38827
561.5,16.0169,1.06723,-1.38936
562,16.0327,1.06302,-1.38985
562.5,16.0484,1.06133,-1.39153
563,16.0643,1.06025,-1.39239
563.5,16.0802,1.05762,-1.39236
564,16.0965,1.05749,-1.39315
564.5,16.1126,1.05875,-1.39368
565,16.1291,1.05299,-1.39382
565.5,16.1452,1.05116,-1.39523
566,16.1612,1.05249,-1.39512
566.5,16.1774,1.05268,-1.39511
567,16.1933,1.05247,-1.39511
567.5,16.2094,1.04598,-1.39556
568,16.2256,1.05083,-1.39561
568.5,16.2416,1.05274,-1.3951
569,16.2574,1.06268,-1.39642
569.5,16.2736,1.05603,-1.39653
570,16.2899,1.05758,-1.39655
570.5,16.3057,1.05507,-1.39672
571,16.3218,1.05726,-1.39785
571.5,16.338,1.04609,-1.39785
572,16.3543,1.04911,-1.39786
572.5,16.3703,1.05267,-1.39785
573,16.3862,1.0505,-1.39778
573.5,16.4023,1.05372,-1.39887
574,16.4183,1.05905,-1.39918
574.5,16.4345,1.05297,-1.39918
575,16.4505,1.05062,-1.39911
575.5,16.4666,1.04911,-1.40045
576,16.4826,1.0563,-1.40059
576.5,16.4988,1.05176,-1.401
577,16.5147,1.05298,-1.40197
577.5,16.5309,1.04699,-1.40192
578,16.547,1.04761,-1.40191
578.5,16.563,1.0474,-1.40234
579,16.5792,1.04643,-1.40329
579.5,16.5952,1.04775,-1.40263
580,16.6112,1.04533,-1.40228
580.5,16.6276,1.03086,-1.40217
581,16.6436,1.03192,-1.40335
581.5,16.6596,1.02525,-1.40357
582,16.6758,1.02503,-1.40358
582.5,16.692,1.02402,-1.40357
583,16.7079,1.01529,-1.40468
583.5,16.724,1.00813,-1.40488
584,16.7401,1.0157,-1.4049
584.5,16.7563,1.00089,-1.40509
585,16.7726,1.00288,-1.40613
585.5,16.7885,1.00366,-1.40587
586,16.8048,0.996697,-1.40587
586.5,16.8211,0.989118,-1.40589
587,16.8371,0.982849,-1.40633
587.5,16.853,0.985298,-1.40732
588,16.8692,0.982867,-1.40731
588.5,16.8854,0.974717,-1.4073
589,16.9017,0.962767,-1.40761
589.5,16.9179,0.961149,-1.4087
590,16.9341,0.963039,-1.40862
590.5,16.9499,0.955557,-1.40879
591,16.9663,0.950131,-1.41003
591.5,16.9826,0.949793,-1.40994
592,16.9986,0.945595,-1.40994
592.5,17.0148,0.938045,-1.40995
593,17.0302,0.935543,-1.40986
593.5,17.0467,0.932556,-1.411
594,17.0633,0.928675,-1.40985
594.5,17.0795,0.921167,-1.40994
595,17.0954,0.920351,-1.40995
595.5,17.1118,0.923922,-1.40993
596,17.128,0.924829,-1.41106
596.5,17.144,0.918114,-1.41125
597,17.1603,0.923878,-1.41122
597.5,17.1765,0.905584,-1.41226
598,17.1928,0.904658,-1.41255
598.5,17.2089,0.899907,-1.41323
599,17.2247,0.900081,-1.41401
599.5,17.2411,0.900399,-1.41426
600,17.2577,0.903025,-1.4154
600.5,17.2733,0.88874,-1.41533
601,17.2896,0.891681,-1.41527
601.5,17.3059,0.880735,-1.41629
602,17.3219,0.881334,-1.41663
602.5,17.3381,0.87931,-1.41665
603,17.3544,0.878776,-1.41673
603.5,17.3705,0.87621,-1.41789
604,17.3865,0.876122,-1.41781
604.5,17.4031,0.868949,-1.41656
605,17.4193,0.869044,-1.41783
605.5,17.4353,0.865901,-1.41794
606,17.4516,0.857301,-1.41795
606.5,17.4679,0.859712,-1.41795
607,17.4843,0.857406,-1.41794
607.5,17.5003,0.856301,-1.41814
608,17.5163,0.851281,-1.4198
608.5,17.5328,0.85408,-1.42065
609,17.5488,0.848003,-1.42059
609.5,17.5648,0.840994,-1.42061
610,17.581,0.829841,-1.421
610.5,17.5972,0.822338,-1.4233
611,17.6131,0.829436,-1.42322
611.5,17.6297,0.827158,-1.42321
612,17.6459,0.811063,-1.42314
612.5,17.6619,0.813184,-1.42403
613,17.6782,0.807607,-1.42324
613.5,17.6946,0.806411,-1.42323
614,17.7109,0.806975,-1.42321
614.5,17.7269,0.810916,-1.42319
615,17.7432,0.818221,-1.42307
615.5,17.7596,0.800621,-1.42322
616,17.7758,0.79324,-1.42322
616.5,17.7919,0.797164,-1.42322
617,17.8079,0.798473,-1.42325
617.5,17.8244,0.786513,-1.42339
618,17.8403,0.789216,-1.42453
618.5,17.8566,0.783503,-1.42454
619,17.8729,0.777479,-1.42454
619.5,17.8892,0.77488,-1.42454
620,17.9053,0.764664,-1.42454
620.5,17.9213,0.76701,-1.42455
621,17.9381,0.757577,-1.42509
621.5,17.9538,0.753956,-1.42585
622,17.9702,0.753816,-1.42585
622.5,17.9866,0.754418,-1.42584
623,18.0026,0.7504,-1.42622
623.5,18.0185,0.741117,-1.42724
624,18.0352,0.735241,-1.42718
624.5,18.0511,0.7392,-1.42717
625,18.0676,0.740571,-1.42725
625.5,18.0839,0.739455,-1.42856
626,18.0998,0.740838,-1.42848
626.5,18.1164,0.736755,-1.42849
627,18.1325,0.727025,-1.42849
627.5,18.1486,0.720668,-1.42849
628,18.1646,0.723619,-1.42849
628.5,18.1809,0.714825,-1.42848
629,18.1972,0.714459,-1.42935
629.5,18.2133,0.713761,-1.42873
630,18.2295,0.707784,-1.42852
630.5,18.2458,0.70139,-1.42849
631,18.2619,0.692831,-1.42849
631.5,18.2782,0.696625,-1.42849
632,18.2945,0.689503,-1.42849
632.5,18.3105,0.681131,-1.4285
633,18.3268,0.671112,-1.42873
633.5,18.3433,0.668836,-1.42983
634,18.3594,0.66964,-1.42982
634.5,18.3761,0.67473,-1.43014
635,18.3918,0.674215,-1.43112
635.5,18.4081,0.670334,-1.43112
636,18.4243,0.661878,-1.43113
636.5,18.4405,0.667592,-1.43106
637,18.4568,0.661695,-1.43237
637.5,18.4731,0.663631,-1.43242
638,18.4895,0.660748,-1.4321
638.5,18.5055,0.656248,-1.43114
639,18.5218,0.655054,-1.43112
639.5,18.5381,0.646017,-1.43226
640,18.5544,0.641784,-1.43244
640.5,18.5704,0.642628,-1.43247
641,18.5866,0.641132,-1.43262
641.5,18.603,0.641629,-1.43448
642,18.6193,0.637756,-1.43441
642.5,18.6356,0.626266,-1.43442
643,18.6517,0.631326,-1.43442
643.5,18.668,0.622909,-1.43452
644,18.6843,0.624614,-1.43582
644.5,18.7005,0.616596,-1.43573
645,18.7168,0.616007,-1.43574
645.5,18.7324,0.614466,-1.43574
646,18.7487,0.612339,-1.43574
646.5,18.7651,0.611478,-1.43574
647,18.7815,0.606677,-1.43574
647.5,18.7976,0.600803,-1.43575
648,18.8138,0.606892,-1.43584
648.5,18.8305,0.607172,-1.43555
649,18.8469,0.60234,-1.43543
649.5,18.8631,0.600275,-1.43541
650,18.8793,0.597466,-1.43541
650.5,18.8958,0.590733,-1.43541
651,18.912,0.588398,-1.43541
651.5,18.9283,0.584693,-1.43541
652,18.9443,0.575963,-1.43541
652.5,18.9607,0.57605,-1.43541
653,18.9768,0.573808,-1.43539
653.5,18.9926,0.571387,-1.43536
654,19.0094,0.56894,-1.43411
654.5,19.0257,0.564562,-1.43409
655,19.0421,0.561556,-1.43409
655.5,19.0585,0.558271,-1.4341
656,19.0745,0.557251,-1.43418
656.5,19.0911,0.5585,-1.43568
657,19.1072,0.557499,-1.43572
657.5,19.1236,0.557441,-1.43574
658,19.1395,0.552899,-1.43574
658.5,19.156,0.556315,-1.43648
659,19.1724,0.5562,-1.43706
659.5,19.1888,0.555238,-1.43706
660,19.2051,0.556182,-1.43706
660.5,19.2214,0.556104,-1.43706
661,19.2376,0.553938,-1.43705
661.5,19.2539,0.543097,-1.43703
662,19.27,0.532021,-1.43784
662.5,19.2865,0.541319,-1.43838
663,19.3027,0.543345,-1.43837
663.5,19.3188,0.541313,-1.43837
664,19.3352,0.537608,-1.43837
664.5,19.3515,0.534617,-1.43837
665,19.3676,0.531332,-1.43837
665.5,19.3843,0.523036,-1.43837
666,19.4003,0.519626,-1.43837
666.5,19.4168,0.515358,-1.43837
667,19.433,0.512412,-1.43837
667.5,19.4494,0.511741,-1.43837
668,19.4657,0.509821,-1.43837
668.5,19.4817,0.507374,-1.43867
669,19.4983,0.50688,-1.43978
669.5,19.5148,0.506368,-1.43934
670,19.5309,0.509506,-1.43934
670.5,19.5471,0.510887,-1.43937
671,19.5635,0.506846,-1.43905
671.5,19.5793,0.502444,-1.43971
672,19.5962,0.504143,-1.43965
672.5,19.6124,0.508862,-1.44038
673,19.6288,0.511222,-1.44103
673.5,19.645,0.507558,-1.441
674,19.6612,0.506877,-1.441
674.5,19.6771,0.510206,-1.441
675,19.6933,0.516254,-1.441
675.5,19.7104,0.51483,-1.441
676,19.7266,0.508539,-1.44099
676.5,19.7429,0.510121,-1.4414
677,19.7595,0.507205,-1.44237
677.5,19.7756,0.49483,-1.44233
678,19.7919,0.493676,-1.44232
678.5,19.8083,0.498203,-1.44232
679,19.8243,0.498709,-1.44232
679.5,19.8408,0.49736,-1.44232
680,19.857,0.499968,-1.44232
680.5,19.8735,0.49577,-1.44238
681,19.8897,0.49213,-1.44408
681.5,19.9061,0.491343,-1.44611
682,19.9223,0.494264,-1.44728
682.5,19.939,0.493572,-1.44765
683,19.9551,0.494083,-1.44587
683.5,19.9718,0.492641,-1.44341
684,19.9879,0.488931,-1.44029
684.5,20.0042,0.490444,-1.43898
685,20.0204,0.496689,-1.43887
685.5,20.037,0.493806,-1.43926
686,20.0531,0.489415,-1.44013
686.5,20.0696,0.485097,-1.44013
687,20.0859,0.48198,-1.44013
687.5,20.1023,0.481467,-1.44013
688,20.1186,0.482424,-1.44013
688.5,20.1349,0.474829,-1.44013
689,20.1514,0.476639,-1.44013
689.5,20.1673,0.473718,-1.44012
690,20.1834,0.470926,-1.44017
690.5,20.2004,0.471382,-1.43905
691,20.2165,0.470074,-1.43913
691.5,20.2331,0.46851,-1.43914
692,20.249,0.458184,-1.43914
692.5,20.2655,0.456997,-1.43913
693,20.2823,0.452372,-1.43916
693.5,20.2983,0.445465,-1.4401
694,20.3144,0.442979,-1.44179
694.5,20.3309,0.44423,-1.44178
695,20.3476,0.4418,-1.44178
695.5,20.3637,0.442991,-1.44178
696,20.3799,0.444594,-1.44173
696.5,20.3964,0.441043,-1.44279
697,20.4129,0.434626,-1.44308
697.5,20.4293,0.434679,-1.44309
698,20.4458,0.436754,-1.44309
698.5,20.4621,0.434804,-1.44309
699,20.4782,0.432939,-1.44308
699.5,20.4947,0.432823,-1.44304
700,20.5111,0.427342,-1.44377
700.5,20.5276,0.425733,-1.44337
701,20.5439,0.421188,-1.44342
701.5,20.5601,0.418417,-1.44342
702,20.5768,0.412493,-1.44342
702.5,20.5932,0.405291,-1.44342
703,20.6097,0.40302,-1.44342
703.5,20.6256,0.394895,-1.44342
704,20.6421,0.398288,-1.44342
704.5,20.6586,0.393664,-1.44342
705,20.6751,0.392995,-1.44342
705.5,20.6913,0.38661,-1.44342
706,20.7078,0.382682,-1.44342
706.5,20.7243,0.385281,-1.44342
707,20.7408,0.377826,-1.44342
707.5,20.7571,0.382786,-1.44342
708,20.7737,0.38083,-1.44342
708.5,20.79,0.375029,-1.44342
709,20.8063,0.365799,-1.44342
709.5,20.8228,0.362513,-1.44342
710,20.8391,0.360811,-1.44342
710.5,20.8557,0.360335,-1.4434
711,20.872,0.357782,-1.44342
711.5,20.8887,0.358939,-1.44164
712,20.905,0.358486,-1.44157
712.5,20.9216,0.355088,-1.44156
713,20.9378,0.34843,-1.4416
713.5,20.9545,0.341394,-1.44325
714,20.9709,0.340843,-1.44349
714.5,20.9874,0.345707,-1.44476
715,21.0037,0.342796,-1.44577
715.5,21.0203,0.331953,-1.445
716,21.0364,0.328578,-1.44624
716.5,21.053,0.328455,-1.44616
717,21.0696,0.334673,-1.44616
717.5,21.086,0.330725,-1.44616
718,21.1023,0.326231,-1.44616
718.5,21.1191,0.318799,-1.44616
719,21.1351,0.314154,-1.44618
719.5,21.1518,0.316616,-1.44615
720,21.1681,0.315127,-1.44683
720.5,21.1847,0.319589,-1.44719
721,21.2012,0.314519,-1.44715
721.5,21.2177,0.309115,-1.44734
722,21.2339,0.303671,-1.44747
722.5,21.2506,0.294093,-1.44748
723,21.2668,0.29983,-1.44748
723.5,21.2835,0.296934,-1.44748
724,21.2999,0.295732,-1.44769
724.5,21.3165,0.295619,-1.44853
725,21.3333,0.292056,-1.44847
725.5,21.3495,0.284268,-1.44847
726,21.3657,0.282506,-1.44847
726.5,21.3825,0.282466,-1.44809
727,21.3987,0.281396,-1.44649
727.5,21.4153,0.277734,-1.44649
728,21.4317,0.279551,-1.44649
728.5,21.4484,0.276985,-1.44648
729,21.4647,0.274677,-1.44644
729.5,21.4811,0.270781,-1.4474
730,21.4976,0.261703,-1.44782
730.5,21.5142,0.259968,-1.44781
731,21.5307,0.256382,-1.44781
731.5,21.5471,0.257962,-1.4478
732,21.5636,0.264279,-1.44826
732.5,21.58,0.258096,-1.44948
733,21.5963,0.258655,-1.44946
733.5,21.6133,0.256941,-1.44946
734,21.6296,0.253318,-1.44946
734.5,21.6461,0.251652,-1.44946
735,21.6624,0.2513,-1.44946
735.5,21.6791,0.249847,-1.44946
736,21.6957,0.247608,-1.44946
736.5,21.7119,0.242314,-1.44946
737,21.7284,0.239191,-1.44945
737.5,21.7449,0.23216,-1.4492
738,21.7615,0.231128,-1.44808
738.5,21.7782,0.228743,-1.44942
739,21.7948,0.229998,-1.44945
739.5,21.8109,0.231491,-1.44899
740,21.8276,0.224819,-1.4481