File: 01_Data/Fiber_Reinforced_Helmet_Shell/STA/N2/30K_min/Fiber_Reinforced_Helmet_Shell_STA_N2_30KData_240228_R1.csv
Temp./C,Time/min,DSC/(mW/mg),Mass loss/mg
60.0,0.0,1.39179,-0.00530999
60.5,0.0258605,1.43296,-0.00619303
61,0.0516037,1.49468,-0.00715118
61.5,0.0763453,1.52481,-0.00670786
62,0.100515,1.58255,-0.00638175
62.5,0.124045,1.61552,-0.00627534
63,0.147384,1.65168,-0.00592468
63.5,0.171191,1.68812,-0.00572325
64,0.194055,1.73674,-0.00551024
64.5,0.216527,1.77706,-0.00450187
65,0.238377,1.81263,-0.00387322
65.5,0.260152,1.84526,-0.00461448
66,0.282183,1.88873,-0.00599198
66.5,0.301846,1.91942,-0.0062289
67,0.323771,1.95418,-0.00645977
67.5,0.345543,1.98117,-0.00675209
68,0.366013,2.01132,-0.00693995
68.5,0.386834,2.03039,-0.00662953
69,0.407305,2.06009,-0.00595928
69.5,0.427379,2.08197,-0.00596568
70,0.447893,2.10133,-0.00655938
70.5,0.467305,2.12571,-0.00794945
71,0.486986,2.13664,-0.00885716
71.5,0.506748,2.15501,-0.00866227
72,0.526633,2.17357,-0.00809662
72.5,0.546097,2.18941,-0.00708966
73,0.56523,2.22139,-0.00813713
73.5,0.584408,2.22249,-0.00891028
74,0.603581,2.23448,-0.00911388
74.5,0.622318,2.26184,-0.00901572
75,0.641653,2.28028,-0.00873809
75.5,0.660383,2.29038,-0.00722591
76,0.678917,2.31123,-0.00630494
76.5,0.697448,2.32265,-0.00643053
77,0.715591,2.34137,-0.00604795
77.5,0.734199,2.36145,-0.00635088
78,0.751825,2.37941,-0.00683808
78.5,0.771598,2.4,-0.00860222
79,0.789997,2.41511,-0.00776299
79.5,0.808198,2.43415,-0.00848073
80,0.82621,2.45761,-0.00771528
80.5,0.844357,2.47202,-0.00852229
81,0.862818,2.48204,-0.00763312
81.5,0.880426,2.49598,-0.00872349
82,0.898338,2.51972,-0.00897873
82.5,0.916528,2.53596,-0.00922714
83,0.934243,2.56169,-0.0106404
83.5,0.952145,2.58207,-0.00940793
84,0.969653,2.59373,-0.0104145
84.5,0.9874,2.60819,-0.0105319
85,1.00531,2.62187,-0.0103912
85.5,1.02291,2.64312,-0.0107658
86,1.03992,2.65808,-0.00978426
86.5,1.05748,2.67395,-0.00947218
87,1.07507,2.69857,-0.00946432
87.5,1.09297,2.71693,-0.00852564
88,1.10989,2.7356,-0.00811176
88.5,1.12782,2.74971,-0.00810303
89,1.14447,2.76577,-0.00870209
89.5,1.16192,2.77525,-0.00948204
90,1.17936,2.79479,-0.00850358
90.5,1.19625,2.81279,-0.00889368
91,1.21325,2.83185,-0.00908581
91.5,1.23056,2.84294,-0.00908474
92,1.24791,2.85451,-0.00950621
92.5,1.26495,2.88166,-0.00928244
93,1.28187,2.87546,-0.00991462
93.5,1.29914,2.89455,-0.0100099
94,1.31625,2.91336,-0.0106231
94.5,1.33298,2.93409,-0.00985654
95,1.34997,2.94768,-0.00987407
95.5,1.36669,2.96844,-0.00987954
96,1.38429,2.96312,-0.00988001
96.5,1.40061,2.98463,-0.00988014
97,1.41794,2.99904,-0.0098803
97.5,1.43365,3.01047,-0.0100113
98,1.45043,3.02253,-0.011541
98.5,1.46793,3.04043,-0.011887
99,1.4846,3.05032,-0.0129904
99.5,1.50165,3.06252,-0.0126561
100,1.51828,3.06539,-0.0129694
100.5,1.5349,3.07932,-0.0129632
101,1.55183,3.08973,-0.0129568
101.5,1.56847,3.1001,-0.0129545
102,1.58531,3.11378,-0.0130086
102.5,1.60162,3.11513,-0.0129589
103,1.61854,3.12367,-0.0129456
103.5,1.63576,3.14151,-0.0129492
104,1.65205,3.14847,-0.0129501
104.5,1.66888,3.1647,-0.0129503
105,1.68524,3.16714,-0.012944
105.5,1.7022,3.1723,-0.0128573
106,1.71862,3.18841,-0.0140244
106.5,1.73503,3.19538,-0.0142727
107,1.75155,3.20984,-0.0142721
107.5,1.76849,3.21519,-0.0142729
108,1.78498,3.21525,-0.0153765
108.5,1.80177,3.23132,-0.015619
109,1.81821,3.23975,-0.0152381
109.5,1.83471,3.24773,-0.0164229
110,1.85137,3.24965,-0.0163683
110.5,1.86794,3.25218,-0.0163603
111,1.88417,3.25544,-0.0164901
111.5,1.90124,3.27278,-0.0177707
112,1.91736,3.28093,-0.0176687
112.5,1.9342,3.27848,-0.0176686
113,1.9509,3.28716,-0.0176696
113.5,1.96675,3.29119,-0.0176649
114,1.98332,3.29742,-0.0176617
114.5,2.00019,3.29537,-0.0170403
115,2.01648,3.30679,-0.0157596
115.5,2.03321,3.32384,-0.0157113
116,2.04994,3.32265,-0.0157006
116.5,2.06615,3.32117,-0.0156999
117,2.08261,3.32033,-0.0157
117.5,2.09915,3.33174,-0.0157
118,2.11575,3.34656,-0.0157
118.5,2.1322,3.34511,-0.0157
119,2.14862,3.34501,-0.0157
119.5,2.16521,3.3517,-0.0156995
120,2.18133,3.36385,-0.015696
120.5,2.19794,3.3674,-0.0157074
121,2.21434,3.37636,-0.0162742
121.5,2.23044,3.37159,-0.0170189
122,2.24698,3.37695,-0.0170094
122.5,2.26362,3.38109,-0.0170098
123,2.27973,3.39283,-0.01701
123.5,2.29616,3.39958,-0.01701
124,2.31257,3.3929,-0.01701
124.5,2.32881,3.3972,-0.01701
125,2.34506,3.40642,-0.01701
125.5,2.36111,3.39502,-0.01701
126,2.37746,3.41704,-0.01701
126.5,2.39315,3.41796,-0.0170113
127,2.40971,3.4237,-0.0170213
127.5,2.4266,3.4188,-0.0181906
128,2.44254,3.42469,-0.0182103
128.5,2.45923,3.43187,-0.0202872
129,2.47518,3.43105,-0.0211129
129.5,2.49122,3.43776,-0.021052
130,2.50764,3.44588,-0.0223165
130.5,2.52388,3.44147,-0.0237283
131,2.54032,3.44829,-0.0237194
131.5,2.55643,3.44216,-0.0237198
132,2.57277,3.45522,-0.02372
132.5,2.58883,3.44796,-0.02372
133,2.60474,3.46063,-0.02372
133.5,2.62116,3.46449,-0.02372
134,2.63702,3.4635,-0.02372
134.5,2.6533,3.46057,-0.02372
135,2.66923,3.47149,-0.0237201
135.5,2.68545,3.4759,-0.0237203
136,2.70138,3.48225,-0.0237169
136.5,2.71775,3.4895,-0.0236829
137,2.73356,3.49285,-0.0243441
137.5,2.75004,3.50109,-0.0250341
138,2.76565,3.50134,-0.023836
138.5,2.78189,3.50596,-0.023723
139,2.79782,3.51902,-0.0237097
139.5,2.81372,3.50871,-0.0237098
140,2.82952,3.5086,-0.02371
140.5,2.84586,3.51311,-0.02371
141,2.86151,3.52006,-0.02371
141.5,2.87792,3.52566,-0.02371
142,2.89349,3.52585,-0.02371
142.5,2.90974,3.5315,-0.0237099
143,2.92582,3.53776,-0.023712
143.5,2.94155,3.54261,-0.0237346
144,2.95783,3.54911,-0.0249728
144.5,2.97329,3.54286,-0.025006
145,2.98907,3.55421,-0.0250295
145.5,3.00538,3.55935,-0.0250301
146,3.02071,3.55186,-0.0250339
146.5,3.03669,3.55729,-0.0250586
147,3.05298,3.57428,-0.0244279
147.5,3.06878,3.57799,-0.0236645
148,3.08345,3.57613,-0.0224428
148.5,3.10029,3.59309,-0.0224021
149,3.11597,3.59415,-0.0223939
149.5,3.13187,3.59948,-0.022339
150,3.14749,3.60251,-0.0232887
150.5,3.16359,3.60348,-0.0237298
151,3.17913,3.60595,-0.0237203
151.5,3.19526,3.61482,-0.0237199
152,3.21027,3.60903,-0.02372
152.5,3.22604,3.61825,-0.0237199
153,3.24249,3.62184,-0.0237205
153.5,3.2583,3.62344,-0.0237315
154,3.27409,3.63133,-0.0237285
154.5,3.28968,3.64369,-0.0248265
155,3.30545,3.64819,-0.0250189
155.5,3.32052,3.65414,-0.0250327
156,3.33645,3.65319,-0.0250302
156.5,3.35251,3.66058,-0.0250301
157,3.36796,3.66284,-0.0250314
157.5,3.38372,3.66918,-0.0250291
158,3.39924,3.67308,-0.0259525
158.5,3.41599,3.67312,-0.0263567
159,3.43143,3.68534,-0.0265938
159.5,3.44747,3.68817,-0.0273677
160,3.46239,3.69087,-0.0273374
160.5,3.47805,3.70019,-0.02733
161,3.49365,3.70251,-0.0273299
161.5,3.50978,3.70891,-0.02733
162,3.52551,3.71588,-0.02733
162.5,3.54117,3.71763,-0.02733
163,3.55709,3.7227,-0.0273298
163.5,3.57251,3.72473,-0.0273306
164,3.5886,3.72095,-0.0273427
164.5,3.60413,3.72626,-0.0273399
165,3.61972,3.7354,-0.0284474
165.5,3.63522,3.73651,-0.0286509
166,3.65121,3.74425,-0.0287082
166.5,3.66651,3.74871,-0.0289961
167,3.68194,3.75597,-0.0289823
167.5,3.69789,3.76032,-0.02898
168,3.71369,3.75695,-0.0289832
168.5,3.72903,3.76532,-0.0289826
169,3.7448,3.76986,-0.0286598
169.5,3.76037,3.77929,-0.0276431
170,3.77588,3.78512,-0.0276932
170.5,3.79142,3.78976,-0.0288111
171,3.80731,3.79584,-0.0289657
171.5,3.82299,3.79838,-0.0289894
172,3.83842,3.80124,-0.028898
172.5,3.85424,3.80482,-0.0299263
173,3.86934,3.81564,-0.0312942
173.5,3.88505,3.81955,-0.0316172
174,3.90071,3.82363,-0.0316103
174.5,3.91609,3.83188,-0.03161
175,3.93212,3.83315,-0.031611
175.5,3.94669,3.83561,-0.0316044
176,3.96295,3.8429,-0.0315365
176.5,3.97829,3.84955,-0.0325074
177,3.99419,3.86198,-0.0325743
177.5,4.0098,3.86582,-0.0326002
178,4.02496,3.87565,-0.0326005
178.5,4.04073,3.88687,-0.0326
179,4.0559,3.89313,-0.0326
179.5,4.07062,3.89435,-0.0326
180,4.08647,3.88971,-0.0326
180.5,4.10183,3.90505,-0.0326
181,4.11736,3.91276,-0.0326
181.5,4.13294,3.91619,-0.0326
182,4.14914,3.92345,-0.0326
182.5,4.16429,3.92999,-0.0326006
183,4.17965,3.93509,-0.0326003
183.5,4.19563,3.94721,-0.0325641
184,4.21051,3.95265,-0.0329449
184.5,4.22592,3.94746,-0.0329154
185,4.24149,3.95342,-0.0333858
185.5,4.25696,3.95823,-0.0343094
186,4.27215,3.97394,-0.0342555
186.5,4.28761,3.98347,-0.0342491
187,4.3031,3.98888,-0.0342495
187.5,4.31866,3.99561,-0.0342516
188,4.33405,4.0023,-0.0342856
188.5,4.34908,4.01005,-0.0355168
189,4.36461,4.01571,-0.0355437
189.5,4.37994,4.02805,-0.0355705
190,4.39563,4.04037,-0.0355705
190.5,4.41091,4.04649,-0.03557
191,4.42617,4.05428,-0.03557
191.5,4.44166,4.06527,-0.0355701
192,4.45681,4.07455,-0.0355686
192.5,4.47208,4.08062,-0.0355649
193,4.48733,4.08835,-0.0356375
193.5,4.50269,4.09611,-0.0348566
194,4.51773,4.10413,-0.0349247
194.5,4.53309,4.11733,-0.0349484
195,4.54845,4.12531,-0.0343611
195.5,4.5643,4.13387,-0.0342681
196,4.57909,4.1382,-0.0342486
196.5,4.59454,4.1495,-0.0342496
197,4.60979,4.15525,-0.03425
197.5,4.62522,4.16534,-0.0342496
198,4.64028,4.17489,-0.0342504
198.5,4.65564,4.18197,-0.0342717
199,4.67122,4.18623,-0.0342514
199.5,4.68597,4.19629,-0.0355015
200,4.70159,4.20485,-0.0365458
200.5,4.71679,4.21641,-0.0365567
201,4.73212,4.22728,-0.0365609
201.5,4.74683,4.23799,-0.036569
202,4.7623,4.24457,-0.0365255
202.5,4.7777,4.2506,-0.0374362
203,4.79291,4.25667,-0.0362994
203.5,4.80837,4.27036,-0.0363847
204,4.82321,4.28,-0.0361169
204.5,4.83889,4.28515,-0.0362469
205,4.85434,4.29105,-0.0362074
205.5,4.86943,4.30731,-0.0350729
206,4.88463,4.31231,-0.0353363
206.5,4.89926,4.32104,-0.0362947
207,4.91498,4.33539,-0.0362277
207.5,4.93061,4.34195,-0.0361992
208,4.94554,4.35673,-0.0358966
208.5,4.96078,4.36398,-0.0349148
209,4.97595,4.36975,-0.0349153
209.5,4.99121,4.38342,-0.0348749
210,5.00635,4.39715,-0.0352532
210.5,5.02181,4.40433,-0.0355116
211,5.03691,4.40482,-0.0355594
211.5,5.05206,4.41886,-0.0355695
212,5.06749,4.42743,-0.0355467
212.5,5.08274,4.43434,-0.0358541
213,5.098,4.45019,-0.0365657
213.5,5.11324,4.4675,-0.0376635
214,5.12838,4.47512,-0.0384377
214.5,5.14342,4.48878,-0.038961
215,5.15865,4.48763,-0.0395684
215.5,5.17372,4.49961,-0.0402962
216,5.18911,4.51031,-0.0407822
216.5,5.20426,4.52012,-0.0416111
217,5.2197,4.52799,-0.041627
217.5,5.23483,4.54105,-0.0416373
218,5.24982,4.55739,-0.0435877
218.5,5.26467,4.56305,-0.0442438
219,5.28023,4.57676,-0.0442644
219.5,5.29546,4.58948,-0.0443614
220,5.31084,4.60491,-0.0455372
220.5,5.3263,4.61648,-0.0455588
221,5.34124,4.6273,-0.0455576
221.5,5.35651,4.64174,-0.0455392
222,5.37134,4.65816,-0.0458038
222.5,5.3866,4.67713,-0.0455119
223,5.40201,4.68445,-0.0455616
223.5,5.41712,4.70761,-0.045556
224,5.43251,4.71616,-0.0455764
224.5,5.44737,4.73191,-0.0458658
225,5.46234,4.74852,-0.0468793
225.5,5.47712,4.77017,-0.0469809
226,5.49315,4.78253,-0.0458853
226.5,5.5084,4.80042,-0.0467885
227,5.52338,4.82329,-0.0468685
227.5,5.539,4.84724,-0.0467069
228,5.55396,4.86772,-0.0465607
228.5,5.56876,4.88779,-0.0469187
229,5.58404,4.90852,-0.0468902
229.5,5.59966,4.93274,-0.0473048
230,5.61501,4.95886,-0.046862
230.5,5.6301,4.9802,-0.0469741
231,5.64501,5.00535,-0.0482
231.5,5.66017,5.03219,-0.0469252
232,5.67544,5.05349,-0.0469883
232.5,5.6908,5.06527,-0.0482402
233,5.70599,5.09235,-0.0483019
233.5,5.72087,5.12861,-0.0493514
234,5.73651,5.15531,-0.04826
234.5,5.75172,5.18104,-0.0492106
235,5.76677,5.20847,-0.0498749
235.5,5.78193,5.24023,-0.0497623
236,5.7974,5.27105,-0.0510436
236.5,5.81245,5.29877,-0.0511134
237,5.82772,5.31395,-0.0523503
237.5,5.84297,5.34516,-0.0527871
238,5.85849,5.38894,-0.0538414
238.5,5.87337,5.41662,-0.0541219
239,5.88868,5.44717,-0.0540373
239.5,5.90387,5.47992,-0.0552261
240,5.91935,5.50411,-0.0555794
240.5,5.93438,5.53925,-0.0568046
241,5.94942,5.57654,-0.0571514
241.5,5.96482,5.6121,-0.0579414
242,5.98013,5.64232,-0.0586952
242.5,5.99503,5.6803,-0.0587185
243,6.01045,5.71277,-0.0601165
243.5,6.02593,5.75518,-0.0607593
244,6.04046,5.78415,-0.061952
244.5,6.05631,5.81357,-0.0628473
245,6.0714,5.86076,-0.0634043
245.5,6.08662,5.88493,-0.0661012
246,6.10187,5.92133,-0.0671499
246.5,6.11705,5.96063,-0.0688676
247,6.13247,5.99452,-0.0704457
247.5,6.14757,6.02924,-0.0717933
248,6.16257,6.05869,-0.0732288
248.5,6.17807,6.0945,-0.0746101
249,6.19304,6.12388,-0.0759004
249.5,6.20833,6.15725,-0.0772313
250,6.22354,6.19176,-0.0785744
250.5,6.23872,6.22458,-0.0797178
251,6.2539,6.24858,-0.0811345
251.5,6.26829,6.27089,-0.0812968
252,6.2839,6.29694,-0.0828634
252.5,6.29937,6.32007,-0.0831721
253,6.31471,6.34401,-0.08395
253.5,6.32986,6.36566,-0.085174
254,6.34493,6.37422,-0.0866135
254.5,6.36005,6.38451,-0.0875924
255,6.37528,6.39362,-0.0893794
255.5,6.3904,6.40274,-0.090754
256,6.40573,6.41711,-0.0927242
256.5,6.42065,6.41705,-0.0950618
257,6.43601,6.41223,-0.0967368
257.5,6.45089,6.40482,-0.0991289
258,6.46592,6.39361,-0.100522
258.5,6.48091,6.38345,-0.102211
259,6.49586,6.37566,-0.103239
259.5,6.51052,6.36649,-0.104821
260,6.52595,6.34918,-0.107203
260.5,6.54111,6.3324,-0.108619
261,6.55606,6.31745,-0.109545
261.5,6.57103,6.30143,-0.109971
262,6.58635,6.27914,-0.112279
262.5,6.6012,6.25963,-0.113695
263,6.61613,6.25009,-0.114699
263.5,6.63143,6.22248,-0.116194
264,6.64618,6.20772,-0.118647
264.5,6.66126,6.18886,-0.119955
265,6.67632,6.1661,-0.121799
265.5,6.69127,6.14629,-0.123564
266,6.70607,6.13506,-0.124998
266.5,6.72146,6.11376,-0.12642
267,6.73632,6.09215,-0.12809
267.5,6.75143,6.06988,-0.129745
268,6.76615,6.04712,-0.131449
268.5,6.78143,6.02242,-0.133394
269,6.79626,6.002,-0.13576
269.5,6.81111,5.98817,-0.137993
270,6.82594,5.96764,-0.141018
270.5,6.8412,5.93963,-0.142846
271,6.85611,5.9141,-0.144566
271.5,6.87112,5.89811,-0.146271
272,6.88616,5.86193,-0.148041
272.5,6.90064,5.84544,-0.149846
273,6.91585,5.82186,-0.152769
273.5,6.93104,5.79436,-0.154336
274,6.94592,5.77666,-0.156568
274.5,6.96085,5.74908,-0.158638
275,6.976,5.72531,-0.160053
275.5,6.99048,5.70154,-0.162007
276,7.00613,5.67864,-0.163788
276.5,7.02079,5.65482,-0.166229
277,7.03581,5.64858,-0.168667
277.5,7.05056,5.61891,-0.170532
278,7.06606,5.58354,-0.172819
278.5,7.08102,5.5745,-0.174215
279,7.09599,5.56714,-0.176689
279.5,7.11112,5.53999,-0.179363
280,7.12597,5.51883,-0.180291
280.5,7.14119,5.50159,-0.183122
281,7.15615,5.48504,-0.185151
281.5,7.1712,5.47674,-0.187518
282,7.18601,5.47678,-0.189766
282.5,7.20119,5.44982,-0.191797
283,7.21602,5.43805,-0.194746
283.5,7.23134,5.42193,-0.197642
284,7.24602,5.41183,-0.200898
284.5,7.26136,5.40455,-0.204472
285,7.27619,5.38779,-0.206522
285.5,7.29129,5.37111,-0.209882
286,7.30631,5.3568,-0.21251
286.5,7.32136,5.35211,-0.215602
287,7.33632,5.3435,-0.218903
287.5,7.35163,5.33052,-0.221809
288,7.36633,5.31651,-0.226081
288.5,7.38149,5.30661,-0.228589
289,7.39657,5.29332,-0.232225
289.5,7.4117,5.26633,-0.235839
290,7.4266,5.24375,-0.238165
290.5,7.44159,5.22792,-0.241765
291,7.45664,5.20217,-0.244789
291.5,7.47168,5.17411,-0.248072
292,7.4863,5.14426,-0.251317
292.5,7.50172,5.11063,-0.254318
293,7.51665,5.08166,-0.258623
293.5,7.53179,5.04401,-0.261179
294,7.5464,5.01408,-0.264554
294.5,7.56128,4.97514,-0.268378
295,7.57656,4.93433,-0.271936
295.5,7.59128,4.89005,-0.275828
296,7.60636,4.84765,-0.280609
296.5,7.62118,4.80697,-0.283939
297,7.63562,4.76311,-0.287676
297.5,7.65106,4.71148,-0.291476
298,7.66632,4.67073,-0.294325
298.5,7.68127,4.62008,-0.29946
299,7.69599,4.5728,-0.302899
299.5,7.7109,4.51984,-0.305632
300,7.72597,4.47236,-0.310148
300.5,7.74065,4.42969,-0.31359
301,7.75577,4.3815,-0.318431
301.5,7.77048,4.3279,-0.323065
302,7.78584,4.27911,-0.326716
302.5,7.80053,4.23669,-0.330693
303,7.81567,4.19086,-0.334633
303.5,7.83058,4.14298,-0.338691
304,7.84571,4.11348,-0.343329
304.5,7.86058,4.07556,-0.3467
305,7.87556,4.04126,-0.351144
305.5,7.89056,4.01935,-0.355788
306,7.90569,3.99075,-0.360002
306.5,7.92057,3.9688,-0.364986
307,7.93575,3.95265,-0.368898
307.5,7.95072,3.93306,-0.373135
308,7.96561,3.92222,-0.377935
308.5,7.9808,3.91477,-0.381777
309,7.99579,3.91309,-0.386093
309.5,8.01125,3.90318,-0.390303
310,8.02607,3.90329,-0.393663
310.5,8.04144,3.90791,-0.39795
311,8.0565,3.91449,-0.401772
311.5,8.07156,3.91464,-0.406776
312,8.08669,3.91578,-0.41102
312.5,8.10194,3.92082,-0.414307
313,8.11719,3.9453,-0.418259
313.5,8.13259,3.95435,-0.421933
314,8.14775,3.96735,-0.425156
314.5,8.16267,3.97615,-0.428083
315,8.17771,3.9807,-0.430069
315.5,8.19318,3.99992,-0.431755
316,8.20832,4.00593,-0.434883
316.5,8.22322,4.02313,-0.437131
317,8.23842,4.03214,-0.439632
317.5,8.2536,4.04119,-0.442495
318,8.26874,4.05465,-0.444044
318.5,8.28403,4.06771,-0.446728
319,8.29911,4.0802,-0.44938
319.5,8.31437,4.09466,-0.45196
320,8.32972,4.09772,-0.454881
320.5,8.34483,4.10905,-0.456139
321,8.36044,4.11816,-0.457885
321.5,8.37525,4.12674,-0.460216
322,8.39049,4.13848,-0.461716
322.5,8.40563,4.15185,-0.463469
323,8.42104,4.16045,-0.465881
323.5,8.43628,4.16694,-0.467779
324,8.45091,4.17268,-0.469797
324.5,8.46668,4.18334,-0.471641
325,8.48157,4.1874,-0.473502
325.5,8.4968,4.18976,-0.476133
326,8.51147,4.19821,-0.477898
326.5,8.52737,4.21077,-0.480086
327,8.54245,4.21409,-0.482604
327.5,8.55783,4.21274,-0.48403
328,8.57282,4.2193,-0.48566
328.5,8.58804,4.21993,-0.487689
329,8.60345,4.21789,-0.489112
329.5,8.61865,4.22343,-0.491092
330,8.63339,4.22763,-0.493642
330.5,8.64867,4.23341,-0.495272
331,8.66418,4.23702,-0.497483
331.5,8.6796,4.23804,-0.498894
332,8.69489,4.24238,-0.500608
332.5,8.70992,4.24793,-0.502809
333,8.72538,4.24956,-0.504478
333.5,8.74047,4.25154,-0.506422
334,8.7555,4.25406,-0.508108
334.5,8.77037,4.26068,-0.509718
335,8.78581,4.25893,-0.512394
335.5,8.80118,4.26795,-0.51402
336,8.81667,4.27443,-0.516168
336.5,8.83178,4.27129,-0.518334
337,8.84723,4.27284,-0.519698
337.5,8.8622,4.27407,-0.522012
338,8.87763,4.28032,-0.5242
338.5,8.89273,4.28299,-0.526291
339,8.90793,4.28662,-0.528691
339.5,8.92315,4.28595,-0.530269
340,8.9383,4.28498,-0.532421
340.5,8.95366,4.28092,-0.533968
341,8.96887,4.28449,-0.535869
341.5,8.98427,4.28392,-0.538695
342,8.99954,4.28484,-0.541187
342.5,9.01496,4.28983,-0.543353
343,9.02989,4.28829,-0.544702
343.5,9.04545,4.28685,-0.54672
344,9.06049,4.2878,-0.548016
344.5,9.07589,4.2891,-0.54952
345,9.09032,4.28417,-0.55169
345.5,9.10663,4.28457,-0.553965
346,9.1215,4.28325,-0.556193
346.5,9.13687,4.28856,-0.558282
347,9.15207,4.28694,-0.559622
347.5,9.16742,4.27807,-0.561327
348,9.1827,4.27572,-0.563256
348.5,9.19802,4.27421,-0.564725
349,9.21315,4.26901,-0.566408
349.5,9.22868,4.26785,-0.568462
350,9.24402,4.26745,-0.569814
350.5,9.25916,4.26681,-0.570922
351,9.27458,4.26805,-0.572828
351.5,9.28977,4.26457,-0.575394
352,9.30495,4.2677,-0.577209
352.5,9.32036,4.26687,-0.578858
353,9.33574,4.26087,-0.581226
353.5,9.35132,4.26432,-0.58278
354,9.36628,4.26216,-0.583816
354.5,9.38142,4.25666,-0.585251
355,9.39708,4.25283,-0.58683
355.5,9.41243,4.25282,-0.588191
356,9.42751,4.25323,-0.58917
356.5,9.44304,4.25913,-0.590433
357,9.45841,4.25826,-0.592702
357.5,9.4736,4.25103,-0.595212
358,9.48922,4.25134,-0.596616
358.5,9.50426,4.24596,-0.598268
359,9.51967,4.24254,-0.600159
359.5,9.53523,4.23439,-0.602158
360,9.55028,4.24409,-0.603797
360.5,9.566,4.24573,-0.606498
361,9.58092,4.23862,-0.608062
361.5,9.59629,4.23462,-0.610053
362,9.61174,4.23324,-0.612416
362.5,9.62694,4.23332,-0.613711
363,9.64257,4.22927,-0.615414
363.5,9.65775,4.22576,-0.616868
364,9.6734,4.22345,-0.618921
364.5,9.68842,4.21673,-0.620301
365,9.70384,4.21354,-0.621813
365.5,9.7193,4.2116,-0.624024
366,9.73479,4.20676,-0.62618
366.5,9.75022,4.20747,-0.627512
367,9.76553,4.20928,-0.628622
367.5,9.7809,4.21129,-0.630262
368,9.79629,4.20497,-0.632638
368.5,9.81173,4.20319,-0.634547
369,9.82724,4.20693,-0.63566
369.5,9.84261,4.21004,-0.63689
370,9.85762,4.20954,-0.638554
370.5,9.87326,4.20896,-0.640706
371,9.88894,4.21035,-0.642191
371.5,9.90402,4.21057,-0.644563
372,9.91951,4.20787,-0.646795
372.5,9.93495,4.21359,-0.648625
373,9.95063,4.20952,-0.651274
373.5,9.96621,4.20705,-0.653268
374,9.98134,4.20523,-0.65511
374.5,9.99662,4.20834,-0.656624
375,10.0124,4.20254,-0.658676
375.5,10.0277,4.21113,-0.660825
376,10.0431,4.20726,-0.663004
376.5,10.0588,4.20929,-0.664329
377,10.0739,4.20884,-0.665734
377.5,10.0896,4.21363,-0.668062
378,10.1053,4.21649,-0.671195
378.5,10.1205,4.21871,-0.673162
379,10.1361,4.21984,-0.674952
379.5,10.1513,4.21985,-0.677681
380,10.1667,4.21925,-0.680228
380.5,10.1823,4.22756,-0.682623
381,10.198,4.23201,-0.684876
381.5,10.2129,4.23425,-0.686742
382,10.2284,4.23591,-0.6898
382.5,10.2441,4.24096,-0.692234
383,10.2596,4.24331,-0.694962
383.5,10.275,4.25376,-0.698415
384,10.2906,4.25398,-0.700523
384.5,10.3059,4.25592,-0.703071
385,10.3218,4.26132,-0.706033
385.5,10.3371,4.26674,-0.708057
386,10.3527,4.26896,-0.71122
386.5,10.3682,4.2753,-0.713822
387,10.3838,4.29168,-0.715782
387.5,10.3993,4.29383,-0.718136
388,10.4149,4.30042,-0.72004
388.5,10.4301,4.30743,-0.722409
389,10.4459,4.30899,-0.724631
389.5,10.4613,4.31822,-0.72693
390,10.4766,4.3272,-0.73075
390.5,10.4928,4.33659,-0.733526
391,10.5079,4.34319,-0.736674
391.5,10.5235,4.35437,-0.7401
392,10.539,4.35503,-0.742115
392.5,10.5547,4.35545,-0.745743
393,10.5704,4.36996,-0.74866
393.5,10.5855,4.38056,-0.750853
394,10.6016,4.38446,-0.75505
394.5,10.6168,4.38354,-0.758357
395,10.6325,4.39851,-0.761921
395.5,10.648,4.408,-0.765459
396,10.6638,4.40702,-0.768205
396.5,10.6791,4.41056,-0.772587
397,10.6945,4.42232,-0.775827
397.5,10.7098,4.43548,-0.779113
398,10.7251,4.43965,-0.783587
398.5,10.7413,4.43899,-0.786435
399,10.7571,4.45579,-0.790194
399.5,10.7728,4.45922,-0.79435
400,10.7879,4.46612,-0.797204
400.5,10.804,4.46991,-0.80214
401,10.8194,4.47759,-0.805641
401.5,10.835,4.48281,-0.810164
402,10.8506,4.48634,-0.814836
402.5,10.8658,4.48995,-0.818918
403,10.8816,4.49785,-0.824166
403.5,10.8969,4.49311,-0.829111
404,10.9129,4.49653,-0.833847
404.5,10.9281,4.49694,-0.838488
405,10.9438,4.50412,-0.84226
405.5,10.9594,4.50629,-0.846858
406,10.975,4.50118,-0.850654
406.5,10.9906,4.50365,-0.854793
407,11.0062,4.49844,-0.860517
407.5,11.0219,4.49627,-0.864267
408,11.0373,4.4922,-0.869773
408.5,11.0527,4.48576,-0.874905
409,11.0686,4.48355,-0.879631
409.5,11.0842,4.48206,-0.884852
410,11.0997,4.47035,-0.888591
410.5,11.1154,4.46271,-0.893566
411,11.1307,4.44679,-0.89875
411.5,11.1467,4.44752,-0.903606
412,11.1622,4.43874,-0.909545
412.5,11.1777,4.42548,-0.913863
413,11.1933,4.41692,-0.919023
413.5,11.2089,4.40633,-0.924464
414,11.2245,4.38957,-0.928992
414.5,11.24,4.37557,-0.93466
415,11.2554,4.35821,-0.940179
415.5,11.2712,4.33651,-0.945601
416,11.2867,4.32215,-0.951299
416.5,11.3023,4.31325,-0.956219
417,11.3182,4.29502,-0.962951
417.5,11.3333,4.27911,-0.968586
418,11.3492,4.25469,-0.974018
418.5,11.3647,4.23853,-0.979899
419,11.3803,4.21687,-0.984204
419.5,11.3957,4.19786,-0.989477
420,11.4115,4.18099,-0.994873
420.5,11.427,4.16288,-0.99995
421,11.4425,4.1437,-1.00663
421.5,11.458,4.1125,-1.01141
422,11.4739,4.08488,-1.01706
422.5,11.4895,4.07273,-1.02274
423,11.5049,4.04647,-1.02739
423.5,11.5204,4.01972,-1.03367
424,11.5361,3.98503,-1.03856
424.5,11.5518,3.96823,-1.04398
425,11.5672,3.93445,-1.04893
425.5,11.5829,3.9138,-1.05288
426,11.5983,3.88612,-1.0581
426.5,11.6143,3.86155,-1.06296
427,11.6295,3.82654,-1.06802
427.5,11.645,3.80313,-1.07468
428,11.6608,3.77726,-1.07979
428.5,11.6765,3.74018,-1.08603
429,11.6919,3.72238,-1.09138
429.5,11.7077,3.68951,-1.09609
430,11.7233,3.66851,-1.10203
430.5,11.7388,3.63891,-1.1064
431,11.754,3.61827,-1.1113
431.5,11.77,3.59391,-1.11677
432,11.7858,3.57833,-1.12136
432.5,11.8014,3.55346,-1.12763
433,11.8172,3.52281,-1.13285
433.5,11.8326,3.49588,-1.13831
434,11.848,3.46649,-1.14366
434.5,11.8632,3.44603,-1.14762
435,11.8799,3.422,-1.15429
435.5,11.8953,3.40343,-1.15867
436,11.9109,3.38162,-1.16301
436.5,11.9264,3.36527,-1.16792
437,11.9423,3.34995,-1.17213
437.5,11.9578,3.32918,-1.17729
438,11.9735,3.31583,-1.18175
438.5,11.9893,3.2958,-1.18589
439,12.0049,3.27393,-1.19065
439.5,12.0206,3.25566,-1.19394
440,12.0365,3.23623,-1.19849
440.5,12.0519,3.22218,-1.20338
441,12.0674,3.20881,-1.20731
441.5,12.083,3.19359,-1.21261
442,12.0987,3.18856,-1.2166
442.5,12.1143,3.17613,-1.22081
443,12.1305,3.15848,-1.22457
443.5,12.1461,3.14252,-1.22775
444,12.1619,3.13248,-1.23193
444.5,12.1779,3.12345,-1.23528
445,12.1933,3.1128,-1.23845
445.5,12.2092,3.10095,-1.242
446,12.2249,3.09137,-1.24521
446.5,12.2409,3.08304,-1.24783
447,12.2564,3.06926,-1.25128
447.5,12.2724,3.06026,-1.25542
448,12.2879,3.04829,-1.25788
448.5,12.3037,3.03843,-1.26139
449,12.3194,3.03358,-1.2647
449.5,12.3353,3.0274,-1.26734
450,12.3509,3.00666,-1.27066
450.5,12.367,3.00854,-1.27346
451,12.383,2.99904,-1.27583
451.5,12.3985,2.98899,-1.2777
452,12.4144,2.975,-1.27972
452.5,12.4302,2.97337,-1.28146
453,12.4461,2.9654,-1.2845
453.5,12.4617,2.96116,-1.28676
454,12.4775,2.95038,-1.28952
454.5,12.4933,2.94226,-1.29187
455,12.5092,2.93088,-1.29327
455.5,12.5246,2.92441,-1.29542
456,12.5404,2.92329,-1.29807
456.5,12.5565,2.92095,-1.29972
457,12.5723,2.91374,-1.30208
457.5,12.5882,2.91061,-1.30396
458,12.6041,2.90332,-1.30674
458.5,12.6199,2.89723,-1.3087
459,12.6357,2.88933,-1.31041
459.5,12.6516,2.8828,-1.31197
460,12.6672,2.87277,-1.31332
460.5,12.6834,2.87413,-1.31472
461,12.6991,2.87007,-1.31616
461.5,12.7152,2.86791,-1.31807
462,12.7304,2.86582,-1.3197
462.5,12.7468,2.86228,-1.32155
463,12.7628,2.86335,-1.32263
463.5,12.7783,2.84928,-1.32335
464,12.7945,2.85114,-1.32501
464.5,12.81,2.85042,-1.32533
465,12.826,2.84628,-1.32679
465.5,12.8419,2.8404,-1.32829
466,12.8578,2.83769,-1.32885
466.5,12.8737,2.83482,-1.33024
467,12.8896,2.83217,-1.33132
467.5,12.9054,2.82507,-1.33182
468,12.9213,2.82277,-1.33351
468.5,12.9373,2.82287,-1.33372
469,12.9528,2.82003,-1.33401
469.5,12.969,2.81265,-1.33566
470,12.9847,2.81115,-1.33671
470.5,13.0008,2.81457,-1.33753
471,13.0166,2.80944,-1.33905
471.5,13.0326,2.80126,-1.33918
472,13.0486,2.79663,-1.3409
472.5,13.0644,2.79024,-1.34045
473,13.0804,2.78814,-1.34185
473.5,13.0964,2.78873,-1.34197
474,13.1125,2.78183,-1.34335
474.5,13.1278,2.77546,-1.34377
475,13.1437,2.77098,-1.34495
475.5,13.1594,2.76352,-1.34621
476,13.1755,2.76321,-1.34691
476.5,13.1915,2.75811,-1.34832
477,13.2078,2.74955,-1.34917
477.5,13.224,2.74082,-1.34988
478,13.2398,2.734,-1.35053
478.5,13.2557,2.72961,-1.35144
479,13.2717,2.73091,-1.35276
479.5,13.2879,2.7235,-1.35285
480,13.3038,2.71892,-1.35395
480.5,13.3196,2.71693,-1.3543
481,13.3356,2.71392,-1.35565
481.5,13.3514,2.70443,-1.35607
482,13.3671,2.69996,-1.3577
482.5,13.3833,2.69542,-1.35755
483,13.3994,2.6896,-1.35868
483.5,13.4154,2.68462,-1.36008
484,13.4311,2.67974,-1.36198
484.5,13.4475,2.67602,-1.3633
485,13.4635,2.67008,-1.36424
485.5,13.4791,2.66632,-1.36578
486,13.4952,2.65435,-1.36649
486.5,13.5113,2.65696,-1.36716
487,13.5272,2.64954,-1.36716
487.5,13.5432,2.64026,-1.3684
488,13.5591,2.64044,-1.36841
488.5,13.575,2.6329,-1.36888
489,13.5912,2.62711,-1.36981
489.5,13.6071,2.62013,-1.36976
490,13.6233,2.61866,-1.37005
490.5,13.639,2.61381,-1.37116
491,13.6553,2.61244,-1.37158
491.5,13.6713,2.61216,-1.37251
492,13.6872,2.6034,-1.37223
492.5,13.7031,2.60112,-1.37281
493,13.7194,2.59973,-1.37418
493.5,13.7354,2.59143,-1.37426
494,13.7513,2.58479,-1.37557
494.5,13.7674,2.57878,-1.37592
495,13.7833,2.57183,-1.3773
495.5,13.7987,2.57538,-1.37743
496,13.8153,2.5717,-1.37764
496.5,13.8314,2.56986,-1.37849
497,13.8473,2.56578,-1.37915
497.5,13.8638,2.55397,-1.3803
498,13.8797,2.55251,-1.38071
498.5,13.8954,2.55182,-1.38156
499,13.9118,2.53583,-1.38228
499.5,13.9279,2.53443,-1.38336
500,13.9438,2.53775,-1.38382
500.5,13.9597,2.53386,-1.3851
501,13.9759,2.5318,-1.3855
501.5,13.9917,2.52475,-1.38687
502,14.008,2.51459,-1.38773
502.5,14.0241,2.51267,-1.38842
503,14.0403,2.50871,-1.38907
503.5,14.0564,2.50891,-1.38976
504,14.0723,2.5053,-1.38971
504.5,14.0884,2.49881,-1.39076
505,14.1045,2.49101,-1.39104
505.5,14.1203,2.48865,-1.3917
506,14.1365,2.49023,-1.39198
506.5,14.1525,2.48071,-1.3911
507,14.1686,2.4781,-1.39221
507.5,14.1848,2.47273,-1.39251
508,14.2009,2.46697,-1.39353
508.5,14.2164,2.45422,-1.39266
509,14.2329,2.4553,-1.39396
509.5,14.2492,2.44333,-1.39399
510,14.2651,2.44773,-1.39401
510.5,14.2814,2.44665,-1.39448
511,14.2975,2.43246,-1.39541
511.5,14.3135,2.43214,-1.39532
512,14.3295,2.42602,-1.39662
512.5,14.3457,2.41847,-1.39667
513,14.3619,2.41156,-1.39792
513.5,14.378,2.41016,-1.39942
514,14.3938,2.40495,-1.40094
514.5,14.4096,2.39101,-1.40082
515,14.4255,2.38867,-1.40254
515.5,14.4423,2.38675,-1.40363
516,14.4585,2.38236,-1.40382
516.5,14.4745,2.37794,-1.40503
517,14.4908,2.37489,-1.40511
517.5,14.5069,2.36406,-1.40665
518,14.5233,2.35753,-1.40652
518.5,14.5394,2.34545,-1.40769
519,14.5552,2.34331,-1.40794
519.5,14.5713,2.33972,-1.4081
520,14.5875,2.33503,-1.40797
520.5,14.6037,2.3281,-1.40797
521,14.62,2.32266,-1.40808
521.5,14.6359,2.31806,-1.40935
522,14.6519,2.31033,-1.40929
522.5,14.6683,2.30838,-1.40968
523,14.6845,2.30158,-1.41061
523.5,14.7005,2.29528,-1.41051
524,14.7166,2.294,-1.41179
524.5,14.7325,2.28303,-1.41212
525,14.7492,2.27458,-1.41189
525.5,14.765,2.27578,-1.41245
526,14.7813,2.26615,-1.41265
526.5,14.7975,2.25378,-1.41377
527,14.8137,2.25082,-1.41367
527.5,14.8297,2.24632,-1.41492
528,14.8461,2.23739,-1.41515
528.5,14.8618,2.22881,-1.416
529,14.8782,2.22743,-1.41658
529.5,14.8944,2.2246,-1.41779
530,14.9103,2.21565,-1.41808
530.5,14.9265,2.2079,-1.41934
531,14.9426,2.20766,-1.41949
531.5,14.9591,2.20441,-1.41949
532,14.975,2.20046,-1.4195
532.5,14.9914,2.18527,-1.4206
533,15.0076,2.18128,-1.42067
533.5,15.0236,2.18287,-1.42023
534,15.0399,2.17557,-1.42114
534.5,15.0561,2.1641,-1.42122
535,15.0721,2.15563,-1.42254
535.5,15.0885,2.1554,-1.42348
536,15.1048,2.14739,-1.42411
536.5,15.1208,2.14382,-1.42546
537,15.1373,2.12963,-1.42576
537.5,15.1536,2.12982,-1.42716
538,15.1695,2.12923,-1.42751
538.5,15.1859,2.12699,-1.42925
539,15.2021,2.11413,-1.43013
539.5,15.2183,2.1035,-1.43139
540,15.2346,2.09531,-1.43144
540.5,15.2506,2.09483,-1.43102
541,15.2667,2.08781,-1.43014
541.5,15.283,2.08466,-1.43014
542,15.2992,2.07668,-1.43104
542.5,15.3156,2.07131,-1.43143
543,15.3317,2.06166,-1.43164
543.5,15.348,2.06274,-1.43287
544,15.3643,2.05721,-1.43277
544.5,15.3806,2.04565,-1.43279
545,15.3965,2.03987,-1.43278
545.5,15.4126,2.04086,-1.43462
546,15.429,2.04114,-1.43546
546.5,15.4454,2.03341,-1.43542
547,15.4616,2.0245,-1.43537
547.5,15.4778,2.01992,-1.43638
548,15.4936,2.01526,-1.43673
548.5,15.5098,2.004,-1.43674
549,15.5268,1.99584,-1.43676
549.5,15.5431,2.00147,-1.43799
550,15.559,1.99478,-1.43801
550.5,15.5755,1.98887,-1.43801
551,15.5917,1.98087,-1.43883
551.5,15.608,1.971,-1.43938
552,15.6243,1.96972,-1.43938
552.5,15.6407,1.9642,-1.44053
553,15.6568,1.96021,-1.44064
553.5,15.673,1.95501,-1.44127
554,15.6894,1.95017,-1.44205
554.5,15.7057,1.94263,-1.44201
555,15.7216,1.93692,-1.44281
555.5,15.7381,1.93368,-1.44453
556,15.7538,1.92836,-1.44463
556.5,15.7706,1.92253,-1.44453
557,15.7869,1.91373,-1.44582
557.5,15.8031,1.91479,-1.44593
558,15.8194,1.90133,-1.44718
558.5,15.8354,1.89602,-1.44754
559,15.852,1.89731,-1.44882
559.5,15.8683,1.88643,-1.44887
560,15.8844,1.87853,-1.44924
560.5,15.9009,1.86972,-1.44915
561,15.9171,1.86643,-1.4494
561.5,15.9335,1.85935,-1.45045
562,15.9495,1.8487,-1.45051
562.5,15.9658,1.84794,-1.45205
563,15.9823,1.84287,-1.45291
563.5,15.9983,1.83924,-1.45355
564,16.015,1.83579,-1.45524
564.5,16.0312,1.83024,-1.45502
565,16.0477,1.81864,-1.45719
565.5,16.0641,1.81468,-1.45781
566,16.0797,1.81472,-1.45781
566.5,16.0958,1.80907,-1.45833
567,16.113,1.79394,-1.45925
567.5,16.129,1.79204,-1.45796
568,16.145,1.79008,-1.4578
568.5,16.1618,1.78793,-1.4583
569,16.178,1.78344,-1.45917
569.5,16.1943,1.77422,-1.45912
570,16.2105,1.77327,-1.45907
570.5,16.2268,1.76435,-1.46003
571,16.2434,1.76503,-1.46044
571.5,16.2597,1.7669,-1.46035
572,16.2761,1.75371,-1.46158
572.5,16.2923,1.75447,-1.46177
573,16.3085,1.75402,-1.46197
573.5,16.3252,1.75361,-1.46332
574,16.3411,1.74831,-1.46418
574.5,16.3577,1.73984,-1.46368
575,16.3741,1.73798,-1.46474
575.5,16.3903,1.72956,-1.46393
576,16.4065,1.7266,-1.46389
576.5,16.4228,1.71961,-1.46463
577,16.4389,1.71846,-1.46461
577.5,16.4549,1.71807,-1.46463
578,16.4716,1.70965,-1.46429
578.5,16.4883,1.70601,-1.46476
579,16.5042,1.70145,-1.46473
579.5,16.5205,1.69295,-1.46588
580,16.5372,1.68722,-1.46596
580.5,16.5537,1.68609,-1.46724
581,16.5701,1.68465,-1.46808
581.5,16.5861,1.6718,-1.4682
582,16.6025,1.67205,-1.46933
582.5,16.6189,1.67008,-1.46936
583,16.6356,1.66116,-1.46946
583.5,16.6519,1.65773,-1.47065
584,16.6683,1.65623,-1.47071
584.5,16.6845,1.65023,-1.47206
585,16.701,1.64937,-1.4728
585.5,16.7174,1.64413,-1.47305
586,16.7339,1.6466,-1.47407
586.5,16.7498,1.64213,-1.47426
587,16.7664,1.63468,-1.47538
587.5,16.7829,1.6311,-1.47661
588,16.7989,1.62613,-1.47666
588.5,16.8156,1.62023,-1.47669
589,16.8318,1.616,-1.47788
589.5,16.848,1.61082,-1.47815
590,16.8647,1.60205,-1.4793
590.5,16.881,1.60001,-1.47975
591,16.8974,1.59391,-1.4807
591.5,16.9135,1.58715,-1.48064
592,16.9303,1.58448,-1.48064
592.5,16.9464,1.58083,-1.48064
593,16.9631,1.56833,-1.48092
593.5,16.9794,1.56448,-1.48208
594,16.9958,1.56267,-1.4813
594.5,17.0121,1.56089,-1.48056
595,17.0286,1.55222,-1.48168
595.5,17.0449,1.5517,-1.48193
596,17.0613,1.54625,-1.48141
596.5,17.0777,1.54228,-1.48082
597,17.0941,1.54456,-1.48197
597.5,17.1104,1.5407,-1.48193
598,17.1269,1.53519,-1.48185
598.5,17.1434,1.52852,-1.48066
599,17.1597,1.52747,-1.48055
599.5,17.176,1.52944,-1.4818
600,17.1925,1.53031,-1.48208
600.5,17.209,1.5251,-1.48214
601,17.2252,1.5183,-1.48345
601.5,17.2417,1.51097,-1.48338
602,17.2582,1.51484,-1.48338
602.5,17.2748,1.50398,-1.48381
603,17.2911,1.5023,-1.48488
603.5,17.3074,1.49975,-1.48503
604,17.3238,1.49588,-1.48501
604.5,17.3403,1.49072,-1.48655
605,17.3569,1.49162,-1.48701
605.5,17.3731,1.48639,-1.4882
606,17.3896,1.4834,-1.48829
606.5,17.4063,1.48048,-1.48963
607,17.4227,1.47893,-1.49069
607.5,17.439,1.47049,-1.49082
608,17.4556,1.4662,-1.49083
608.5,17.4719,1.45945,-1.49131
609,17.4882,1.45797,-1.49318
609.5,17.5045,1.45371,-1.49349
610,17.5213,1.44322,-1.49341
610.5,17.5375,1.44043,-1.49469
611,17.554,1.42906,-1.49481
611.5,17.5703,1.41984,-1.49481
612,17.5866,1.41154,-1.4948
612.5,17.6034,1.40349,-1.49483
613,17.6197,1.39547,-1.49371
613.5,17.636,1.3819,-1.49351
614,17.6527,1.37315,-1.49475
614.5,17.6692,1.36884,-1.49365
615,17.6855,1.36438,-1.49341
615.5,17.7022,1.34723,-1.49281
616,17.7183,1.34011,-1.49303
616.5,17.7351,1.32893,-1.49335
617,17.7515,1.32535,-1.49386
617.5,17.7677,1.32148,-1.49475
618,17.784,1.31401,-1.49471
618.5,17.8003,1.30136,-1.49462
619,17.8172,1.29948,-1.49595
619.5,17.8337,1.28228,-1.49733
620,17.8498,1.27786,-1.49731
620.5,17.8666,1.27363,-1.49733
621,17.8829,1.26207,-1.49734
621.5,17.8993,1.26102,-1.49763
622,17.9156,1.25646,-1.49868
622.5,17.9321,1.24841,-1.49864
623,17.9487,1.24923,-1.49864
623.5,17.9649,1.24447,-1.49864
624,17.9815,1.23574,-1.49864
624.5,17.9982,1.23305,-1.49864
625,18.014,1.22851,-1.49864
625.5,18.0309,1.2248,-1.49878
626,18.0475,1.22122,-1.50006
626.5,18.0638,1.21893,-1.49996
627,18.0804,1.21734,-1.50008
627.5,18.097,1.21436,-1.50138
628,18.1133,1.20909,-1.50128
628.5,18.1297,1.20234,-1.50128
629,18.1462,1.19732,-1.50133
629.5,18.1627,1.18461,-1.50044
630,18.1792,1.17464,-1.49995
630.5,18.1954,1.16638,-1.49997
631,18.2118,1.16218,-1.49996
631.5,18.2283,1.1542,-1.49988
632,18.2449,1.14098,-1.50104
632.5,18.2613,1.13796,-1.50129
633,18.2781,1.12754,-1.50129
633.5,18.2943,1.127,-1.5013
634,18.311,1.12177,-1.50136
634.5,18.3275,1.11038,-1.50269
635,18.344,1.09682,-1.5039
635.5,18.3601,1.0878,-1.50391
636,18.3768,1.08702,-1.50404
636.5,18.3933,1.07084,-1.50521
637,18.41,1.07444,-1.50522
637.5,18.4264,1.0704,-1.50522
638,18.4429,1.05483,-1.50549
638.5,18.4591,1.05268,-1.50663
639,18.4756,1.04839,-1.50655
639.5,18.4923,1.04199,-1.50655
640,18.5085,1.03395,-1.50655
640.5,18.5257,1.02804,-1.50655
641,18.5419,1.02898,-1.50654
641.5,18.5582,1.02639,-1.50734
642,18.5749,1.0179,-1.50786
642.5,18.5916,1.00915,-1.50787
643,18.6078,1.00385,-1.50787
643.5,18.6246,0.994702,-1.50683
644,18.6409,0.992929,-1.50659
644.5,18.6575,0.992979,-1.50657
645,18.6738,0.98481,-1.50656
645.5,18.6905,0.980929,-1.50772
646,18.7069,0.969679,-1.50785
646.5,18.7233,0.960544,-1.50787
647,18.74,0.953659,-1.50822
647.5,18.7567,0.947446,-1.50924
648,18.7729,0.942347,-1.50919
648.5,18.7896,0.936685,-1.50919
649,18.8063,0.919382,-1.50919
649.5,18.8227,0.920527,-1.50919
650,18.8393,0.916723,-1.5091
650.5,18.8557,0.909829,-1.51031
651,18.8722,0.902693,-1.51051
651.5,18.8888,0.896003,-1.51051
652,18.9056,0.883574,-1.51052
652.5,18.9218,0.876264,-1.51042
653,18.9384,0.875688,-1.51161
653.5,18.9551,0.874249,-1.51041
654,18.9715,0.860387,-1.51046
654.5,18.9881,0.857555,-1.50949
655,19.0046,0.843178,-1.50909
655.5,19.0211,0.838375,-1.51035
656,19.0377,0.833478,-1.51048
656.5,19.0543,0.827946,-1.51087
657,19.0708,0.821394,-1.51188
657.5,19.0874,0.813417,-1.51183
658,19.1038,0.809087,-1.51182
658.5,19.1205,0.803903,-1.51177
659,19.1372,0.796361,-1.5127
659.5,19.1535,0.789502,-1.51315
660,19.1699,0.780046,-1.51316
660.5,19.1867,0.777279,-1.51326
661,19.2031,0.774679,-1.51443
661.5,19.2199,0.766116,-1.51445
662,19.2362,0.755909,-1.51446
662.5,19.253,0.754931,-1.51446
663,19.2692,0.745009,-1.51446
663.5,19.2857,0.731702,-1.51446
664,19.3022,0.727188,-1.51446
664.5,19.3193,0.721393,-1.51445
665,19.3357,0.715144,-1.51492
665.5,19.3524,0.711183,-1.51547
666,19.3688,0.698952,-1.51545
666.5,19.3854,0.697223,-1.51545
667,19.4022,0.678575,-1.51545
667.5,19.4187,0.673928,-1.51546
668,19.4353,0.670668,-1.51486
668.5,19.452,0.661018,-1.51439
669,19.4685,0.654444,-1.51445
669.5,19.4851,0.654048,-1.51447
670,19.5016,0.639544,-1.51561
670.5,19.5183,0.632557,-1.51574
671,19.5353,0.62871,-1.51577
671.5,19.5517,0.618174,-1.51577
672,19.5679,0.6123,-1.51577
672.5,19.5845,0.59953,-1.51577
673,19.601,0.595395,-1.51577
673.5,19.6179,0.589187,-1.51569
674,19.6343,0.584952,-1.51436
674.5,19.651,0.576228,-1.51445
675,19.6676,0.566752,-1.51445
675.5,19.6841,0.556722,-1.51445
676,19.7008,0.553751,-1.51445
676.5,19.7174,0.546929,-1.51444
677,19.734,0.537209,-1.51445
677.5,19.7506,0.522171,-1.51515
678,19.7671,0.523956,-1.51541
678.5,19.7839,0.510618,-1.51544
679,19.8003,0.493679,-1.51544
679.5,19.817,0.491621,-1.51544
680,19.8339,0.482323,-1.51544
680.5,19.8505,0.476923,-1.51544
681,19.8667,0.47707,-1.51542
681.5,19.8836,0.466044,-1.51578
682,19.8998,0.456902,-1.51518
682.5,19.9162,0.452214,-1.5144
683,19.9335,0.444433,-1.51445
683.5,19.9502,0.4331,-1.51445
684,19.9667,0.427394,-1.51446
684.5,19.9833,0.417122,-1.51444
685,19.9998,0.409902,-1.51558
685.5,20.0164,0.402947,-1.51576
686,20.0327,0.394065,-1.51577
686.5,20.0501,0.387397,-1.51577
687,20.0664,0.3826,-1.51576
687.5,20.0832,0.376474,-1.51649
688,20.0999,0.373894,-1.51842
688.5,20.1164,0.364847,-1.5184
689,20.1327,0.360445,-1.51841
689.5,20.1498,0.35451,-1.51841
690,20.1661,0.349985,-1.5183
690.5,20.183,0.338868,-1.51701
691,20.1993,0.330371,-1.51709
691.5,20.2161,0.322276,-1.51709
692,20.2327,0.317271,-1.51709
692.5,20.2493,0.308134,-1.51709
693,20.2662,0.302241,-1.51709
693.5,20.2827,0.29631,-1.51709
694,20.2994,0.294456,-1.51709
694.5,20.3159,0.285164,-1.51709
695,20.3327,0.277442,-1.51709
695.5,20.3496,0.269595,-1.517
696,20.366,0.266793,-1.51822
696.5,20.3826,0.264374,-1.5184
697,20.3992,0.260991,-1.5184
697.5,20.4162,0.255287,-1.5184
698,20.4327,0.244033,-1.51844
698.5,20.4492,0.239575,-1.51772
699,20.466,0.232196,-1.51706
699.5,20.4827,0.229536,-1.51708
700,20.4993,0.220297,-1.51707
700.5,20.5159,0.213673,-1.51588
701,20.5322,0.209708,-1.51636
701.5,20.5495,0.202021,-1.51642
702,20.5658,0.200756,-1.51649
702.5,20.5829,0.194607,-1.51675
703,20.5996,0.187384,-1.51712
703.5,20.616,0.176171,-1.5171
704,20.6328,0.173213,-1.51717
704.5,20.6495,0.166862,-1.5181
705,20.6664,0.160887,-1.51803
705.5,20.6829,0.149125,-1.51898
706,20.6993,0.152068,-1.51941
706.5,20.7164,0.143964,-1.51941
707,20.7333,0.134992,-1.51939
707.5,20.7498,0.131633,-1.52053
708,20.7665,0.121095,-1.5205
708.5,20.7834,0.116539,-1.51931
709,20.7999,0.115037,-1.5194
709.5,20.8165,0.115257,-1.5194
710,20.8333,0.103075,-1.5194
710.5,20.85,0.101693,-1.5194
711,20.8669,0.0951536,-1.5194
711.5,20.8834,0.0902424,-1.5194
712,20.9002,0.0835587,-1.5194
712.5,20.9163,0.0814969,-1.51941
713,20.9333,0.0805877,-1.51944
713.5,20.9504,0.0786106,-1.51914
714,20.9672,0.0626215,-1.51872
714.5,20.9837,0.0543974,-1.51873
715,21.0005,0.0487685,-1.51875
715.5,21.0172,0.0567984,-1.51893
716,21.0338,0.0535426,-1.51939
716.5,21.0507,0.0427025,-1.51939
717,21.0672,0.0377424,-1.51939
717.5,21.0844,0.034135,-1.51939
718,21.1006,0.0300174,-1.51939
718.5,21.1175,0.0300885,-1.51939
719,21.1336,0.024125,-1.51871
719.5,21.1505,0.0201596,-1.51801
720,21.1674,0.0126163,-1.51902
720.5,21.1847,0.00980248,-1.51938
721,21.2008,-0.00274527,-1.51939
721.5,21.2174,-0.0015443,-1.51939
722,21.2346,-0.00872052,-1.51939
722.5,21.2516,-0.01154,-1.51939
723,21.2683,-0.0152713,-1.51939
723.5,21.2851,-0.0194473,-1.51939
724,21.3017,-0.0198488,-1.51939
724.5,21.3185,-0.02424,-1.51939
725,21.3353,-0.0276443,-1.51939
725.5,21.3522,-0.0322226,-1.51935
726,21.3688,-0.0360968,-1.52044
726.5,21.3854,-0.0381398,-1.52072
727,21.4024,-0.037333,-1.52127
727.5,21.4191,-0.0390601,-1.52222
728,21.4359,-0.047732,-1.52317
728.5,21.4528,-0.049825,-1.5237
729,21.4694,-0.0516939,-1.52368
729.5,21.4863,-0.0614572,-1.524
730,21.503,-0.056801,-1.52506
730.5,21.5195,-0.058044,-1.52501
731,21.5367,-0.0586807,-1.525
731.5,21.5535,-0.0667465,-1.52531
732,21.5703,-0.0690252,-1.52639
732.5,21.5863,-0.0745839,-1.52633
733,21.6036,-0.0724941,-1.52633
733.5,21.6203,-0.0798553,-1.52639
734,21.6366,-0.0806759,-1.52527
734.5,21.6539,-0.0867392,-1.525
735,21.6708,-0.0853275,-1.52501
735.5,21.6876,-0.0856662,-1.52517
736,21.7042,-0.0856321,-1.52636
736.5,21.721,-0.0884072,-1.52522
737,21.7378,-0.0924687,-1.525
737.5,21.7548,-0.0884703,-1.52499
738,21.7716,-0.095453,-1.52499
738.5,21.7883,-0.0988191,-1.52497
739,21.8049,-0.104471,-1.5237
739.5,21.8218,-0.10131,-1.52366
740,21.8385,-0.103659,-1.52341