File: 01_Data/Helmet_Brim_Edging/STA/N2/30K_min/Helmet_Brim_Edging_STA_N2_30KData_250626_R3.csv
Temp./C,Time/min,DSC/(mW/mg),Mass loss/mg
60.0,0.0,1.48747,-0.00542262
60.5,0.0311691,1.54073,-0.00544649
61,0.0629098,1.58176,-0.00538308
61.5,0.0915836,1.62655,-0.00559289
62,0.122077,1.68433,-0.00519553
62.5,0.149041,1.72301,-0.00595749
63,0.177088,1.76208,-0.00624218
63.5,0.204195,1.8043,-0.00565078
64,0.232283,1.83872,-0.00424071
64.5,0.259029,1.87679,-0.00258972
65,0.284763,1.91913,-0.00483767
65.5,0.310764,1.95094,-0.00607608
66,0.335653,1.99084,-0.0066465
66.5,0.361496,2.03363,-0.00629583
67,0.386294,2.06322,-0.00617877
67.5,0.411017,2.10007,-0.00570922
68,0.435115,2.12244,-0.00559626
68.5,0.458543,2.1518,-0.00565642
69,0.483072,2.19895,-0.00568213
69.5,0.506493,2.21612,-0.00592205
70,0.530299,2.24511,-0.00671644
70.5,0.55316,2.28106,-0.00691467
71,0.576706,2.30929,-0.00654153
71.5,0.599325,2.33626,-0.0065755
72,0.622141,2.35831,-0.00641056
72.5,0.6449,2.38929,-0.00667385
73,0.667025,2.41127,-0.00770987
73.5,0.689457,2.43023,-0.0102037
74,0.711481,2.45421,-0.00862968
74.5,0.733992,2.47747,-0.00653417
75,0.754965,2.49692,-0.0044215
75.5,0.777287,2.52324,-0.00288539
76,0.798241,2.54216,-0.00317457
76.5,0.820186,2.55908,-0.00327931
77,0.840936,2.58187,-0.0030648
77.5,0.862668,2.58752,-0.00371394
78,0.884029,2.61073,-0.00517865
78.5,0.903582,2.62025,-0.00585125
79,0.924469,2.63979,-0.00567899
79.5,0.946058,2.65913,-0.00543441
80,0.966647,2.67117,-0.00558891
80.5,0.988423,2.68168,-0.00472833
81,1.00845,2.69704,-0.00404868
81.5,1.02862,2.71547,-0.00508577
82,1.04928,2.73012,-0.00553784
82.5,1.06939,2.7512,-0.00629457
83,1.08973,2.76583,-0.00619643
83.5,1.10946,2.77052,-0.00674991
84,1.1295,2.78652,-0.00737685
84.5,1.15028,2.80474,-0.00635673
85,1.16991,2.81955,-0.00602795
85.5,1.18991,2.83876,-0.00581136
86,1.2093,2.84234,-0.0058689
86.5,1.22854,2.85931,-0.00596591
87,1.24912,2.87321,-0.00621311
87.5,1.26852,2.88887,-0.0064048
88,1.28758,2.8986,-0.00667312
88.5,1.30614,2.91335,-0.00666572
89,1.32653,2.92617,-0.00697134
89.5,1.34548,2.93732,-0.00679394
90,1.36484,2.95377,-0.00765283
90.5,1.38414,2.97334,-0.0064023
91,1.40317,2.98889,-0.00689861
91.5,1.4226,3.00067,-0.00629353
92,1.4414,3.01062,-0.00619678
92.5,1.46054,3.03183,-0.00620898
93,1.47986,3.04129,-0.00647692
93.5,1.49795,3.04858,-0.00770508
94,1.51729,3.06412,-0.0067057
94.5,1.53531,3.07128,-0.0066737
95,1.55448,3.0798,-0.00670063
95.5,1.57318,3.09268,-0.00676917
96,1.5915,3.10986,-0.00807137
96.5,1.6108,3.11432,-0.00701566
97,1.62876,3.12752,-0.0084873
97.5,1.64756,3.1374,-0.00695716
98,1.66581,3.15109,-0.00831652
98.5,1.68424,3.16339,-0.00711292
99,1.7026,3.18078,-0.00695338
99.5,1.72099,3.18893,-0.00649933
100,1.73938,3.19365,-0.00694612
100.5,1.75758,3.20386,-0.00691529
101,1.77585,3.22279,-0.00678147
101.5,1.79419,3.23356,-0.00680309
102,1.81239,3.24958,-0.00712716
102.5,1.83052,3.25701,-0.00684233
103,1.84846,3.27656,-0.00789842
103.5,1.8671,3.28193,-0.0082662
104,1.88477,3.29359,-0.00746698
104.5,1.90267,3.30514,-0.00825801
105,1.92076,3.32617,-0.00824646
105.5,1.93852,3.32884,-0.00784345
106,1.95669,3.33637,-0.00828875
106.5,1.97482,3.3574,-0.00833711
107,1.99319,3.36205,-0.00709857
107.5,2.01061,3.37423,-0.0082158
108,2.02831,3.39524,-0.00823021
108.5,2.04658,3.40594,-0.00825021
109,2.06428,3.41755,-0.00833382
109.5,2.08223,3.43372,-0.00816108
110,2.09987,3.45103,-0.00823494
110.5,2.11781,3.46906,-0.00827163
111,2.13572,3.47608,-0.00714041
111.5,2.15308,3.49518,-0.00796597
112,2.17112,3.50093,-0.00824065
112.5,2.18855,3.52316,-0.00757308
113,2.20683,3.5376,-0.0083131
113.5,2.22378,3.55965,-0.00823967
114,2.24159,3.57276,-0.0081725
114.5,2.25954,3.58745,-0.00950427
115,2.27609,3.61202,-0.00903492
115.5,2.29359,3.6336,-0.00820778
116,2.31091,3.64955,-0.00879799
116.5,2.32883,3.66511,-0.00958829
117,2.3474,3.68195,-0.0095258
117.5,2.36482,3.70723,-0.00919021
118,2.38249,3.71395,-0.00824553
118.5,2.39999,3.72973,-0.00858775
119,2.41714,3.7476,-0.00960863
119.5,2.43443,3.75071,-0.00883975
120,2.45171,3.75746,-0.00825952
120.5,2.46912,3.75456,-0.00877697
121,2.48624,3.75833,-0.00955448
121.5,2.50347,3.76132,-0.0095366
122,2.52131,3.76794,-0.00951927
122.5,2.53809,3.77457,-0.00825718
123,2.55512,3.77321,-0.00824727
123.5,2.57254,3.79352,-0.00947278
124,2.58957,3.79157,-0.00958866
124.5,2.60677,3.80341,-0.00830385
125,2.62401,3.82541,-0.00958467
125.5,2.64094,3.84264,-0.00953791
126,2.65813,3.85327,-0.0095341
126.5,2.67525,3.86585,-0.0093168
127,2.6923,3.88569,-0.00820434
127.5,2.70911,3.88979,-0.00823503
128,2.72623,3.9029,-0.00883737
128.5,2.74337,3.91592,-0.00956196
129,2.76036,3.91892,-0.00935779
129.5,2.77713,3.92676,-0.00956106
130,2.79421,3.94284,-0.00953979
130.5,2.81106,3.96761,-0.00954896
131,2.8278,3.97581,-0.0095528
131.5,2.84429,3.9893,-0.00957789
132,2.86138,4.01546,-0.0092136
132.5,2.87819,4.03044,-0.00872834
133,2.89489,4.05091,-0.00854923
133.5,2.91198,4.06786,-0.00888122
134,2.92899,4.08938,-0.00939806
134.5,2.94534,4.11581,-0.00954505
135,2.96212,4.14695,-0.00954888
135.5,2.97799,4.18,-0.00957466
136,2.99497,4.20601,-0.00904845
136.5,3.01265,4.23441,-0.00891678
137,3.02895,4.26701,-0.00831566
137.5,3.04588,4.30327,-0.0082299
138,3.06222,4.33015,-0.00896961
138.5,3.07899,4.36373,-0.00919266
139,3.09561,4.40836,-0.00916679
139.5,3.11217,4.44416,-0.00784742
140,3.12893,4.49515,-0.00791896
140.5,3.14565,4.54427,-0.00791187
141,3.16237,4.59347,-0.00791017
141.5,3.17875,4.64882,-0.00790901
142,3.19531,4.70044,-0.00786534
142.5,3.21178,4.76169,-0.0065531
143,3.22889,4.81924,-0.00662986
143.5,3.245,4.87529,-0.00693724
144,3.262,4.93432,-0.00692324
144.5,3.27821,5.00463,-0.00692025
145,3.2948,5.07114,-0.00687553
145.5,3.31112,5.13103,-0.00775836
146,3.32764,5.19589,-0.00824064
146.5,3.3442,5.26016,-0.00824603
147,3.35979,5.32991,-0.00827949
147.5,3.37582,5.38658,-0.0095516
148,3.39353,5.45402,-0.00995622
148.5,3.40985,5.51609,-0.0113024
149,3.42609,5.57635,-0.0120514
149.5,3.44277,5.62948,-0.0122792
150,3.45873,5.6689,-0.0123484
150.5,3.47493,5.70844,-0.0112725
151,3.4912,5.72641,-0.0108724
151.5,3.50735,5.74687,-0.0109253
152,3.52341,5.7575,-0.0100037
152.5,3.53925,5.73995,-0.00953409
153,3.55526,5.69254,-0.00954632
153.5,3.57123,5.64579,-0.00955004
154,3.58684,5.56655,-0.00955005
154.5,3.60259,5.49556,-0.00954999
155,3.61819,5.41381,-0.00955009
155.5,3.63382,5.33707,-0.00955131
156,3.6497,5.24137,-0.00955067
156.5,3.66492,5.15656,-0.0105686
157,3.68041,5.08303,-0.0105454
157.5,3.6965,5.00593,-0.00946569
158,3.71211,4.95291,-0.00954527
158.5,3.72741,4.88619,-0.00955843
159,3.74351,4.83535,-0.00960191
159.5,3.75895,4.78185,-0.00870541
160,3.7747,4.73887,-0.00858527
160.5,3.79027,4.70322,-0.00855937
161,3.80599,4.66627,-0.00855955
161.5,3.82186,4.63535,-0.00856096
162,3.83751,4.60651,-0.00856239
162.5,3.85292,4.58577,-0.00850228
163,3.8689,4.57217,-0.0094302
163.5,3.88451,4.54604,-0.0106141
164,3.90012,4.52834,-0.0112136
164.5,3.91579,4.51254,-0.0112062
165,3.9318,4.49391,-0.0112009
165.5,3.94708,4.48527,-0.0111864
166,3.96306,4.48065,-0.0111045
166.5,3.97854,4.4744,-0.00996682
167,3.99448,4.46087,-0.0100842
167.5,4.01001,4.445,-0.0112756
168,4.02538,4.44746,-0.0111897
168.5,4.04056,4.44026,-0.0111885
169,4.05718,4.43446,-0.0111899
169.5,4.0723,4.43902,-0.01119
170,4.08854,4.44081,-0.01119
170.5,4.10398,4.43539,-0.01119
171,4.11972,4.44745,-0.01119
171.5,4.13526,4.44826,-0.01119
172,4.15112,4.43764,-0.01119
172.5,4.16682,4.43772,-0.01119
173,4.18127,4.43592,-0.01119
173.5,4.19724,4.43796,-0.01119
174,4.21297,4.4385,-0.01119
174.5,4.22803,4.43638,-0.01119
175,4.24476,4.44538,-0.0111899
175.5,4.25951,4.44888,-0.0111899
176,4.27569,4.44984,-0.0111937
176.5,4.29143,4.45333,-0.0112125
177,4.30629,4.45513,-0.0108739
177.5,4.32204,4.45712,-0.011123
178,4.33752,4.46093,-0.0111978
178.5,4.35307,4.46585,-0.0112012
179,4.36876,4.4737,-0.0112001
179.5,4.38416,4.48032,-0.0112001
180,4.39972,4.48058,-0.0111997
180.5,4.41522,4.49037,-0.011192
181,4.43098,4.49509,-0.0111956
181.5,4.44586,4.50469,-0.0108369
182,4.46143,4.50482,-0.0108692
182.5,4.47702,4.51761,-0.0108705
183,4.49237,4.52716,-0.01087
183.5,4.50781,4.53097,-0.01087
184,4.52288,4.5362,-0.01087
184.5,4.53848,4.53598,-0.01087
185,4.55401,4.54556,-0.0108697
185.5,4.56884,4.55115,-0.0108714
186,4.58446,4.55297,-0.0108878
186.5,4.60015,4.56077,-0.0108416
187,4.61506,4.56426,-0.0120859
187.5,4.63028,4.57217,-0.0121808
188,4.64585,4.57493,-0.0121806
188.5,4.66104,4.58474,-0.01218
189,4.67612,4.58369,-0.01218
189.5,4.69138,4.59512,-0.01218
190,4.70676,4.59276,-0.01218
190.5,4.72207,4.59975,-0.01218
191,4.73713,4.60693,-0.01218
191.5,4.75238,4.61124,-0.01218
192,4.76784,4.62115,-0.0121805
192.5,4.78325,4.62996,-0.0121832
193,4.79845,4.62955,-0.0121584
193.5,4.81358,4.63243,-0.0119566
194,4.82875,4.63671,-0.0108855
194.5,4.84403,4.64293,-0.0108724
195,4.85919,4.64136,-0.0108698
195.5,4.8741,4.6436,-0.0108699
196,4.88973,4.64981,-0.0108701
196.5,4.90463,4.67118,-0.0108715
197,4.91982,4.66637,-0.0108667
197.5,4.93522,4.66698,-0.0116542
198,4.95008,4.67346,-0.0121921
198.5,4.96508,4.6738,-0.0121877
199,4.97981,4.6817,-0.0121795
199.5,4.99582,4.68776,-0.0121803
200,5.01052,4.69202,-0.0121888
200.5,5.02601,4.69842,-0.0121787
201,5.04082,4.70237,-0.0125437
201.5,5.0563,4.70582,-0.0125105
202,5.07112,4.70979,-0.0125092
202.5,5.08651,4.72473,-0.0125097
203,5.10132,4.71617,-0.0125191
203.5,5.11625,4.71753,-0.0125251
204,5.13135,4.72604,-0.0128686
204.5,5.14593,4.74072,-0.0128409
205,5.16193,4.75247,-0.0128395
205.5,5.17706,4.75255,-0.01284
206,5.19195,4.74939,-0.0128399
206.5,5.20694,4.74827,-0.0128411
207,5.22221,4.74946,-0.012844
207.5,5.23716,4.75062,-0.0127853
208,5.25266,4.7536,-0.0136564
208.5,5.2675,4.76033,-0.0141947
209,5.28242,4.76301,-0.0141626
209.5,5.29747,4.76225,-0.0141593
210,5.31264,4.76686,-0.0141599
210.5,5.32765,4.77283,-0.01416
211,5.34254,4.77946,-0.01416
211.5,5.35789,4.78055,-0.01416
212,5.37264,4.7859,-0.01416
212.5,5.38767,4.79073,-0.01416
213,5.40285,4.80208,-0.01416
213.5,5.41804,4.80315,-0.01416
214,5.43288,4.80041,-0.01416
214.5,5.44807,4.80245,-0.01416
215,5.46299,4.80273,-0.01416
215.5,5.47805,4.80801,-0.01416
216,5.49302,4.81237,-0.01416
216.5,5.50793,4.81689,-0.01416
217,5.52298,4.81972,-0.01416
217.5,5.53814,4.82183,-0.01416
218,5.55292,4.82487,-0.0141599
218.5,5.56809,4.8313,-0.0141609
219,5.58306,4.83672,-0.0141665
219.5,5.59797,4.8407,-0.0141096
220,5.61305,4.84312,-0.0150015
220.5,5.62791,4.84856,-0.0154878
221,5.64304,4.85343,-0.0149109
221.5,5.65831,4.86072,-0.0148251
222,5.67299,4.86633,-0.0148184
222.5,5.68795,4.86422,-0.0148199
223,5.70292,4.86296,-0.0148201
223.5,5.71794,4.86935,-0.0148202
224,5.73291,4.87907,-0.014818
224.5,5.74806,4.88519,-0.014815
225,5.76274,4.88087,-0.0161936
225.5,5.77799,4.87662,-0.0166604
226,5.79273,4.88444,-0.0172199
226.5,5.80762,4.89337,-0.0180678
227,5.82269,4.90138,-0.0180175
227.5,5.83771,4.90378,-0.0175688
228,5.8525,4.90894,-0.0163763
228.5,5.86738,4.91395,-0.0164658
229,5.88258,4.91861,-0.0164763
229.5,5.89745,4.91483,-0.016475
230,5.91254,4.92112,-0.0161263
230.5,5.92731,4.92431,-0.0154744
231,5.94231,4.92847,-0.0154839
231.5,5.95732,4.92994,-0.0154801
232,5.97208,4.93409,-0.0154799
232.5,5.9872,4.93564,-0.01548
233,6.00088,4.93728,-0.01548
233.5,6.01688,4.93821,-0.0154809
234,6.03168,4.94506,-0.0154824
234.5,6.04668,4.95291,-0.0154269
235,6.06179,4.95148,-0.0162138
235.5,6.07623,4.95028,-0.0168374
236,6.09161,4.95463,-0.0167953
236.5,6.10644,4.95363,-0.0166868
237,6.12161,4.96335,-0.0178464
237.5,6.13619,4.97024,-0.0181148
238,6.15127,4.97165,-0.0181101
238.5,6.16597,4.96559,-0.0181099
239,6.18082,4.96677,-0.01811
239.5,6.19595,4.97011,-0.01811
240,6.21068,4.97654,-0.01811
240.5,6.22487,4.97888,-0.01811
241,6.24023,4.98903,-0.01811
241.5,6.25479,4.98973,-0.0181116
242,6.26964,4.9956,-0.0181063
242.5,6.28531,4.99494,-0.018025
243,6.30038,4.99727,-0.0190659
243.5,6.31513,5.00282,-0.0194349
244,6.33013,5.00495,-0.0194298
244.5,6.34481,5.00835,-0.0194299
245,6.35951,5.00763,-0.01943
245.5,6.37459,5.00859,-0.01943
246,6.38928,5.01598,-0.01943
246.5,6.40454,5.02495,-0.0194296
247,6.41924,5.02845,-0.0194313
247.5,6.4343,5.02781,-0.0194624
248,6.44886,5.03463,-0.020607
248.5,6.46421,5.03327,-0.0207325
249,6.47895,5.03743,-0.0206667
249.5,6.49363,5.0464,-0.0219111
250,6.50868,5.04596,-0.022075
250.5,6.52339,5.04362,-0.0218456
251,6.53775,5.05175,-0.0217345
251.5,6.55314,5.05586,-0.02173
252,6.56796,5.05963,-0.0217339
252.5,6.58294,5.05988,-0.0215725
253,6.5979,5.06056,-0.0210653
253.5,6.61252,5.0715,-0.0210759
254,6.62739,5.07417,-0.02107
254.5,6.64215,5.08245,-0.0210716
255,6.65743,5.0831,-0.0210735
255.5,6.67189,5.08807,-0.0209412
256,6.68703,5.08449,-0.0214155
256.5,6.70196,5.0865,-0.0217317
257,6.71664,5.08914,-0.0217447
257.5,6.73168,5.08697,-0.0217384
258,6.7466,5.09027,-0.0218415
258.5,6.76057,5.09351,-0.023049
259,6.77597,5.09361,-0.0230419
259.5,6.79085,5.09692,-0.023087
260,6.8056,5.10135,-0.0242777
260.5,6.82052,5.10964,-0.0243432
261,6.83526,5.11964,-0.024372
261.5,6.8504,5.11434,-0.0243709
262,6.86515,5.11366,-0.0244207
262.5,6.87994,5.12676,-0.0256269
263,6.89482,5.13177,-0.0256557
263.5,6.90961,5.13609,-0.0256748
264,6.92436,5.14201,-0.0264021
264.5,6.9393,5.14679,-0.0266057
265,6.95447,5.15021,-0.0263521
265.5,6.96922,5.15053,-0.0262735
266,6.98371,5.1639,-0.0275175
266.5,6.99879,5.16928,-0.0276603
267,7.01306,5.1686,-0.0276362
267.5,7.02857,5.17353,-0.0281357
268,7.04332,5.1761,-0.0290267
268.5,7.05795,5.1773,-0.0289732
269,7.07325,5.17982,-0.0289596
269.5,7.08777,5.18339,-0.0289516
270,7.10255,5.18368,-0.0282803
270.5,7.11771,5.18704,-0.0293797
271,7.1319,5.18536,-0.0296267
271.5,7.14706,5.19084,-0.0296415
272,7.16204,5.19649,-0.0296276
272.5,7.17695,5.20009,-0.0299922
273,7.19164,5.20577,-0.0309825
273.5,7.2064,5.21146,-0.0309486
274,7.22139,5.21383,-0.0309596
274.5,7.2364,5.22236,-0.0309624
275,7.25109,5.22119,-0.0309617
275.5,7.26602,5.22227,-0.0318469
276,7.28068,5.23332,-0.032281
276.5,7.29542,5.23571,-0.0322005
277,7.3102,5.24351,-0.0332207
277.5,7.32516,5.24094,-0.0336086
278,7.34005,5.24535,-0.0335973
278.5,7.35499,5.24988,-0.0335215
279,7.36948,5.24758,-0.0344671
279.5,7.38456,5.25661,-0.0349388
280,7.3996,5.26829,-0.0348595
280.5,7.41432,5.26876,-0.0361539
281,7.42905,5.28056,-0.0363615
281.5,7.44397,5.27987,-0.0366035
282,7.4587,5.28879,-0.037771
282.5,7.47354,5.28715,-0.0371003
283,7.48858,5.2888,-0.0366305
283.5,7.50362,5.29327,-0.0378711
284,7.51837,5.29248,-0.0377513
284.5,7.53294,5.29191,-0.0377261
285,7.54797,5.30849,-0.0384728
285.5,7.5627,5.31311,-0.039086
286,7.57733,5.31684,-0.0390711
286.5,7.59233,5.32463,-0.0395543
287,7.60706,5.32257,-0.0404752
287.5,7.62207,5.32879,-0.0404117
288,7.63689,5.33501,-0.0413887
288.5,7.65213,5.33744,-0.0417014
289,7.66684,5.33918,-0.041831
289.5,7.68147,5.34743,-0.0430744
290,7.6965,5.3506,-0.0430114
290.5,7.71132,5.35664,-0.0434066
291,7.72567,5.36695,-0.044438
291.5,7.74058,5.37384,-0.0443502
292,7.75564,5.37566,-0.0452333
292.5,7.77003,5.37823,-0.0464962
293,7.78611,5.39015,-0.0470507
293.5,7.80062,5.39045,-0.0480647
294,7.81526,5.39276,-0.0485194
294.5,7.83035,5.39575,-0.0483792
295,7.84514,5.39729,-0.0487141
295.5,7.85996,5.40561,-0.0493204
296,7.87484,5.41391,-0.0503079
296.5,7.88988,5.41456,-0.0509536
297,7.90441,5.41705,-0.0519637
297.5,7.91923,5.4237,-0.0524404
298,7.93422,5.43479,-0.0535321
298.5,7.94929,5.44952,-0.0536675
299,7.96403,5.45458,-0.0549422
299.5,7.97896,5.46378,-0.0541336
300,7.99393,5.46337,-0.0556805
300.5,8.00832,5.46471,-0.0556662
301,8.02373,5.4714,-0.0571928
301.5,8.03827,5.47958,-0.0574863
302,8.05341,5.48204,-0.0588024
302.5,8.06851,5.48909,-0.0602387
303,8.08308,5.50113,-0.0606253
303.5,8.09779,5.51464,-0.0618821
304,8.11289,5.51668,-0.061987
304.5,8.12747,5.5109,-0.0632386
305,8.1427,5.52429,-0.0640089
305.5,8.15749,5.54662,-0.0650733
306,8.17254,5.56441,-0.0665023
306.5,8.18737,5.57349,-0.0669591
307,8.20199,5.57805,-0.0686764
307.5,8.21698,5.58488,-0.0689443
308,8.23201,5.59685,-0.0705291
308.5,8.24689,5.60605,-0.0718213
309,8.26175,5.61195,-0.0723785
309.5,8.27668,5.62126,-0.0741029
310,8.2918,5.63716,-0.0750102
310.5,8.3065,5.65332,-0.0760615
311,8.32135,5.6645,-0.0773482
311.5,8.3366,5.67453,-0.0782027
312,8.3513,5.68866,-0.0796109
312.5,8.36624,5.70301,-0.0808206
313,8.38104,5.70999,-0.0814764
313.5,8.39632,5.72281,-0.0832368
314,8.41091,5.72392,-0.0842101
314.5,8.42575,5.72976,-0.0858127
315,8.44082,5.74598,-0.0870326
315.5,8.45557,5.75202,-0.0887489
316,8.47023,5.73205,-0.0896386
316.5,8.48526,5.70276,-0.0913013
317,8.50002,5.66595,-0.0922567
317.5,8.51471,5.62076,-0.0933863
318,8.52948,5.55586,-0.0946185
318.5,8.54436,5.52804,-0.0967097
319,8.55893,5.47184,-0.0979538
319.5,8.57363,5.41869,-0.0988547
320,8.58797,5.39774,-0.100282
320.5,8.60241,5.36254,-0.101508
321,8.618,5.32741,-0.103237
321.5,8.63282,5.30103,-0.105276
322,8.64757,5.28268,-0.107049
322.5,8.6626,5.25287,-0.109585
323,8.67707,5.24393,-0.110393
323.5,8.6922,5.23064,-0.112095
324,8.7069,5.21444,-0.114144
324.5,8.72182,5.19859,-0.115829
325,8.7368,5.20551,-0.118549
325.5,8.75172,5.1936,-0.120845
326,8.76643,5.19637,-0.123404
326.5,8.78123,5.19022,-0.125227
327,8.79643,5.18928,-0.127123
327.5,8.8113,5.18646,-0.129726
328,8.82597,5.18202,-0.131269
328.5,8.84068,5.17049,-0.134028
329,8.85566,5.17089,-0.136464
329.5,8.8707,5.15541,-0.138534
330,8.88559,5.15219,-0.141162
330.5,8.9005,5.15529,-0.143426
331,8.91553,5.14605,-0.1465
331.5,8.93047,5.14547,-0.148898
332,8.94542,5.1437,-0.151809
332.5,8.96016,5.14527,-0.15542
333,8.97476,5.14876,-0.157615
333.5,8.99002,5.14347,-0.161248
334,9.00496,5.1447,-0.164308
334.5,9.01998,5.14005,-0.167422
335,9.03449,5.14133,-0.170871
335.5,9.04966,5.14127,-0.173843
336,9.06438,5.13416,-0.177919
336.5,9.07938,5.13795,-0.180438
337,9.09419,5.14242,-0.183864
337.5,9.10909,5.14091,-0.18792
338,9.12388,5.14061,-0.190395
338.5,9.13918,5.14338,-0.194614
339,9.15417,5.14607,-0.19795
339.5,9.16931,5.14274,-0.201865
340,9.18396,5.14461,-0.20543
340.5,9.19923,5.14608,-0.210621
341,9.21386,5.15017,-0.214264
341.5,9.22875,5.14779,-0.218202
342,9.24377,5.14705,-0.222429
342.5,9.25879,5.15371,-0.225525
343,9.27379,5.15029,-0.230539
343.5,9.2889,5.15384,-0.235464
344,9.30372,5.15567,-0.239636
344.5,9.31857,5.15412,-0.244743
345,9.33357,5.16403,-0.248721
345.5,9.34875,5.1693,-0.253571
346,9.36365,5.1709,-0.259456
346.5,9.37865,5.16786,-0.263882
347,9.39342,5.16325,-0.269087
347.5,9.40859,5.15946,-0.274411
348,9.42358,5.15902,-0.279276
348.5,9.4386,5.15604,-0.285624
349,9.45343,5.14196,-0.290539
349.5,9.46847,5.13262,-0.295808
350,9.48348,5.12505,-0.301986
350.5,9.49829,5.12217,-0.307079
351,9.5132,5.12362,-0.313588
351.5,9.52818,5.11453,-0.320374
352,9.54336,5.10303,-0.326785
352.5,9.55823,5.08794,-0.334675
353,9.57348,5.08243,-0.340565
353.5,9.5883,5.06726,-0.346933
354,9.60328,5.06146,-0.355334
354.5,9.6184,5.04532,-0.3617
355,9.63317,5.04586,-0.369192
355.5,9.64823,5.03826,-0.376927
356,9.66313,5.02647,-0.382877
356.5,9.67812,5.01885,-0.391514
357,9.69292,5.00358,-0.398251
357.5,9.70807,4.99519,-0.406046
358,9.72309,4.99781,-0.414776
358.5,9.73798,4.99333,-0.421408
359,9.75305,4.98855,-0.430426
359.5,9.76825,4.97145,-0.43976
360,9.78295,4.96729,-0.448061
360.5,9.79791,4.95811,-0.459081
361,9.813,4.94505,-0.467466
361.5,9.82819,4.93752,-0.477254
362,9.84312,4.93084,-0.488834
362.5,9.85806,4.91806,-0.497637
363,9.87326,4.90374,-0.50933
363.5,9.88836,4.89099,-0.520858
364,9.90334,4.87822,-0.531785
364.5,9.91818,4.86838,-0.546481
365,9.93319,4.85102,-0.558679
365.5,9.94814,4.85268,-0.572828
366,9.96351,4.84731,-0.589718
366.5,9.97861,4.84381,-0.602384
367,9.99354,4.8448,-0.61834
367.5,10.0085,4.83855,-0.634203
368,10.0237,4.83894,-0.649633
368.5,10.0389,4.8341,-0.66959
369,10.0534,4.83453,-0.684662
369.5,10.0688,4.82888,-0.703397
370,10.0838,4.81876,-0.724949
370.5,10.099,4.80452,-0.742265
371,10.1142,4.79356,-0.764037
371.5,10.1289,4.76968,-0.783303
372,10.1441,4.74303,-0.802545
372.5,10.1591,4.70747,-0.826691
373,10.1739,4.66854,-0.844652
373.5,10.1889,4.6407,-0.865556
374,10.2034,4.6078,-0.888035
374.5,10.2183,4.5767,-0.905204
375,10.2337,4.53546,-0.927463
375.5,10.2489,4.49541,-0.947814
376,10.2638,4.46541,-0.966373
376.5,10.2793,4.44368,-0.989497
377,10.294,4.41828,-1.00579
377.5,10.3089,4.39324,-1.02404
378,10.3238,4.38573,-1.04388
378.5,10.3389,4.38424,-1.05868
379,10.3538,4.36053,-1.07632
379.5,10.3692,4.35488,-1.09283
380,10.3843,4.34632,-1.10791
380.5,10.3994,4.34745,-1.12603
381,10.4145,4.35193,-1.13922
381.5,10.4298,4.36153,-1.15416
382,10.4449,4.36386,-1.16957
382.5,10.4602,4.37768,-1.18116
383,10.4751,4.39195,-1.19476
383.5,10.4903,4.40027,-1.20655
384,10.5057,4.4184,-1.21857
384.5,10.5207,4.43586,-1.23267
385,10.5359,4.44765,-1.24269
385.5,10.5512,4.44909,-1.25449
386,10.5664,4.45561,-1.26641
386.5,10.5817,4.45409,-1.27647
387,10.5967,4.46408,-1.2885
387.5,10.6117,4.47333,-1.29794
388,10.6272,4.48086,-1.30751
388.5,10.6422,4.47942,-1.3184
389,10.6575,4.48525,-1.32688
389.5,10.6729,4.48407,-1.33741
390,10.6879,4.49213,-1.34766
390.5,10.703,4.49546,-1.3564
391,10.7185,4.49733,-1.36738
391.5,10.7335,4.49943,-1.37523
392,10.7485,4.4987,-1.38404
392.5,10.7641,4.49186,-1.39454
393,10.7788,4.49357,-1.40216
393.5,10.7944,4.48684,-1.41218
394,10.8097,4.48543,-1.42047
394.5,10.8249,4.47583,-1.42846
395,10.8401,4.46671,-1.4385
395.5,10.8553,4.46033,-1.44621
396,10.8705,4.45651,-1.45528
396.5,10.8856,4.4534,-1.46463
397,10.901,4.44923,-1.47196
397.5,10.9162,4.44105,-1.48113
398,10.9313,4.43084,-1.48854
398.5,10.9466,4.4243,-1.49614
399,10.9619,4.40915,-1.50547
399.5,10.9771,4.40068,-1.51253
400,10.9922,4.39235,-1.51988
400.5,11.0077,4.38278,-1.52825
401,11.0231,4.37804,-1.53543
401.5,11.0382,4.37537,-1.54455
402,11.0534,4.36826,-1.55162
402.5,11.0685,4.35938,-1.55947
403,11.084,4.3536,-1.56828
403.5,11.0991,4.34584,-1.57469
404,11.1142,4.34161,-1.58304
404.5,11.1299,4.34043,-1.59083
405,11.145,4.32635,-1.59802
405.5,11.1604,4.32253,-1.60669
406,11.1757,4.31632,-1.61292
406.5,11.1909,4.29976,-1.62132
407,11.2063,4.29624,-1.63047
407.5,11.2215,4.29128,-1.63733
408,11.2367,4.28922,-1.6458
408.5,11.2521,4.2842,-1.65264
409,11.2676,4.27636,-1.65995
409.5,11.2826,4.27119,-1.66847
410,11.2981,4.26608,-1.6749
410.5,11.3134,4.2592,-1.68268
411,11.3284,4.25535,-1.68967
411.5,11.3439,4.24748,-1.69606
412,11.3591,4.23869,-1.70398
412.5,11.3748,4.23661,-1.71027
413,11.39,4.23357,-1.71732
413.5,11.4056,4.22889,-1.72523
414,11.4208,4.22461,-1.7315
414.5,11.4357,4.22311,-1.73954
415,11.4518,4.22128,-1.74684
415.5,11.4668,4.21779,-1.75399
416,11.4822,4.21487,-1.76191
416.5,11.4975,4.21061,-1.76686
417,11.513,4.20758,-1.77406
417.5,11.5284,4.20476,-1.78083
418,11.5437,4.20069,-1.78718
418.5,11.5592,4.20718,-1.79576
419,11.5741,4.21179,-1.80224
419.5,11.5899,4.20881,-1.80998
420,11.6053,4.20507,-1.81748
420.5,11.6204,4.20777,-1.82301
421,11.6358,4.20007,-1.83032
421.5,11.6513,4.20197,-1.83685
422,11.6668,4.20106,-1.84432
422.5,11.6818,4.20498,-1.85346
423,11.6974,4.20769,-1.86095
423.5,11.7128,4.20076,-1.86812
424,11.7281,4.20439,-1.87491
424.5,11.7437,4.20479,-1.87965
425,11.7593,4.2111,-1.88652
425.5,11.7742,4.21389,-1.89147
426,11.7897,4.21912,-1.89845
426.5,11.8053,4.22945,-1.90639
427,11.8206,4.22734,-1.91258
427.5,11.8361,4.22875,-1.92038
428,11.8514,4.23196,-1.92659
428.5,11.867,4.23983,-1.93209
429,11.8826,4.24722,-1.93989
429.5,11.8979,4.24827,-1.94596
430,11.9131,4.25642,-1.9531
430.5,11.9289,4.25802,-1.96008
431,11.9434,4.26335,-1.96636
431.5,11.9591,4.26803,-1.97513
432,11.9745,4.2793,-1.98118
432.5,11.9901,4.28192,-1.98865
433,12.0059,4.28622,-1.99659
433.5,12.0216,4.28974,-2.00301
434,12.0371,4.29169,-2.01069
434.5,12.0525,4.29808,-2.01704
435,12.068,4.30868,-2.02377
435.5,12.0832,4.31834,-2.03171
436,12.0991,4.31929,-2.03811
436.5,12.1147,4.33291,-2.04627
437,12.13,4.34123,-2.05319
437.5,12.1454,4.34187,-2.05989
438,12.161,4.34733,-2.06797
438.5,12.1765,4.3559,-2.07403
439,12.1918,4.36865,-2.08105
439.5,12.2073,4.3796,-2.08843
440,12.2228,4.39203,-2.09467
440.5,12.2385,4.39895,-2.10252
441,12.254,4.40705,-2.1088
441.5,12.2693,4.41503,-2.11577
442,12.2851,4.42981,-2.1245
442.5,12.3005,4.43802,-2.13107
443,12.3161,4.44528,-2.1395
443.5,12.3317,4.45819,-2.1463
444,12.3472,4.46863,-2.1536
444.5,12.363,4.4779,-2.1627
445,12.3784,4.4894,-2.16945
445.5,12.3939,4.50132,-2.17778
446,12.4092,4.51591,-2.18508
446.5,12.4249,4.52672,-2.19193
447,12.4406,4.53395,-2.2005
447.5,12.4563,4.54155,-2.20711
448,12.4714,4.55435,-2.21503
448.5,12.4871,4.56929,-2.22366
449,12.5031,4.58835,-2.23118
449.5,12.5184,4.60558,-2.24009
450,12.5339,4.60522,-2.2471
450.5,12.5498,4.61556,-2.25526
451,12.5651,4.63098,-2.2639
451.5,12.5806,4.64923,-2.27123
452,12.596,4.65302,-2.2805
452.5,12.6119,4.66748,-2.28874
453,12.6276,4.68111,-2.29696
453.5,12.6429,4.69543,-2.30626
454,12.6583,4.70545,-2.31327
454.5,12.6739,4.72436,-2.32209
455,12.69,4.72928,-2.33056
455.5,12.7056,4.74145,-2.33878
456,12.7209,4.75962,-2.34884
456.5,12.7367,4.76358,-2.35661
457,12.7521,4.77808,-2.36608
457.5,12.7673,4.79714,-2.37564
458,12.7829,4.80195,-2.3838
458.5,12.7986,4.81693,-2.39362
459,12.8147,4.83709,-2.40132
459.5,12.8302,4.84751,-2.4105
460,12.8458,4.85707,-2.42142
460.5,12.8617,4.87673,-2.43072
461,12.8773,4.88585,-2.44164
461.5,12.8927,4.90418,-2.44987
462,12.9085,4.91916,-2.45906
462.5,12.9244,4.93687,-2.47071
463,12.9395,4.94134,-2.4796
463.5,12.9555,4.95963,-2.49139
464,12.9712,4.97487,-2.50085
464.5,12.9867,4.98573,-2.51024
465,13.0024,4.99683,-2.52221
465.5,13.0183,5.01081,-2.53167
466,13.0339,5.02249,-2.54319
466.5,13.0493,5.02677,-2.55344
467,13.065,5.03927,-2.56322
467.5,13.0807,5.05188,-2.5758
468,13.0961,5.05946,-2.58552
468.5,13.1118,5.06442,-2.59775
469,13.1276,5.07058,-2.60965
469.5,13.1435,5.07711,-2.6199
470,13.1588,5.08041,-2.63237
470.5,13.1744,5.08679,-2.6411
471,13.1904,5.09271,-2.65288
471.5,13.2057,5.09879,-2.66555
472,13.2217,5.0903,-2.67648
472.5,13.2372,5.09717,-2.6899
473,13.2525,5.07825,-2.70059
473.5,13.2685,5.0614,-2.71305
474,13.2842,5.05345,-2.72767
474.5,13.2997,5.05733,-2.73867
475,13.3155,5.05698,-2.75234
475.5,13.331,5.04907,-2.76414
476,13.3467,5.04211,-2.77672
476.5,13.3621,5.03091,-2.79151
477,13.3779,4.99916,-2.80293
477.5,13.3928,4.98362,-2.81613
478,13.4093,4.96679,-2.82987
478.5,13.4247,4.94079,-2.84181
479,13.4402,4.91615,-2.85685
479.5,13.4559,4.896,-2.86799
480,13.4708,4.8799,-2.87967
480.5,13.4872,4.84658,-2.89465
481,13.5028,4.82433,-2.90693
481.5,13.5184,4.77995,-2.92209
482,13.5333,4.7527,-2.93319
482.5,13.5492,4.70206,-2.94661
483,13.5646,4.66011,-2.96107
483.5,13.5805,4.62007,-2.97458
484,13.5961,4.58197,-2.98996
484.5,13.6118,4.53894,-3.00275
485,13.6273,4.49095,-3.01575
485.5,13.6432,4.43226,-3.03069
486,13.6583,4.3855,-3.04162
486.5,13.6741,4.32611,-3.05594
487,13.6893,4.26984,-3.06866
487.5,13.7053,4.20323,-3.08115
488,13.7205,4.14197,-3.09545
488.5,13.736,4.06075,-3.1062
489,13.7514,3.98535,-3.11789
489.5,13.767,3.91441,-3.13134
490,13.7824,3.8435,-3.14261
490.5,13.7977,3.77013,-3.1563
491,13.8133,3.70032,-3.16689
491.5,13.8287,3.61656,-3.1795
492,13.8443,3.53177,-3.1923
492.5,13.8598,3.43863,-3.20245
493,13.8751,3.35706,-3.21505
493.5,13.891,3.26216,-3.22619
494,13.9061,3.17471,-3.23688
494.5,13.9217,3.08775,-3.24968
495,13.9372,2.99428,-3.25864
495.5,13.9527,2.89065,-3.26958
496,13.9679,2.791,-3.28004
496.5,13.9833,2.70499,-3.28931
497,13.9988,2.60732,-3.30045
497.5,14.0144,2.51583,-3.30834
498,14.0301,2.41882,-3.31732
498.5,14.0452,2.3192,-3.32653
499,14.0609,2.22501,-3.33441
499.5,14.0763,2.13141,-3.34373
500,14.0915,2.03656,-3.35066
500.5,14.1072,1.93764,-3.35775
501,14.1225,1.84137,-3.3662
501.5,14.138,1.74138,-3.37138
502,14.1534,1.65868,-3.37867
502.5,14.1691,1.54374,-3.38497
503,14.1844,1.4553,-3.39033
503.5,14.1995,1.37241,-3.39672
504,14.2151,1.28333,-3.40186
504.5,14.2312,1.20338,-3.40786
505,14.2468,1.12902,-3.41342
505.5,14.2622,1.05006,-3.41845
506,14.2774,0.973652,-3.42282
506.5,14.2934,0.902033,-3.4262
507,14.3088,0.843842,-3.43015
507.5,14.3246,0.791933,-3.43431
508,14.3404,0.741335,-3.43723
508.5,14.356,0.690328,-3.4403
509,14.3711,0.646016,-3.44286
509.5,14.3868,0.593615,-3.44455
510,14.403,0.546735,-3.44599
510.5,14.4188,0.511025,-3.44789
511,14.4344,0.476693,-3.44946
511.5,14.45,0.442556,-3.45115
512,14.4659,0.411672,-3.45308
512.5,14.4816,0.384513,-3.4546
513,14.497,0.361138,-3.45599
513.5,14.5131,0.352512,-3.45694
514,14.5288,0.326706,-3.45817
514.5,14.5448,0.298632,-3.45943
515,14.5604,0.270005,-3.46032
515.5,14.5765,0.248382,-3.4617
516,14.5919,0.252059,-3.46161
516.5,14.6076,0.234127,-3.46273
517,14.6236,0.215679,-3.46281
517.5,14.6394,0.191862,-3.46373
518,14.6554,0.167115,-3.46432
518.5,14.671,0.160676,-3.4643
519,14.6869,0.155507,-3.46528
519.5,14.7026,0.14942,-3.46561
520,14.7189,0.135859,-3.46555
520.5,14.7344,0.135193,-3.46683
521,14.7505,0.12989,-3.46694
521.5,14.7662,0.122602,-3.46694
522,14.7821,0.116948,-3.46694
522.5,14.7979,0.123521,-3.46693
523,14.8139,0.115389,-3.46755
523.5,14.8298,0.104546,-3.46905
524,14.8454,0.0984847,-3.46959
524.5,14.8614,0.0982657,-3.46957
525,14.8767,0.0972815,-3.47055
525.5,14.8929,0.093849,-3.47087
526,14.9086,0.0908064,-3.47089
526.5,14.9249,0.0933316,-3.47086
527,14.9409,0.100473,-3.46965
527.5,14.9571,0.104543,-3.4702
528,14.9726,0.096936,-3.47089
528.5,14.9888,0.0922123,-3.47089
529,15.0044,0.0983088,-3.47089
529.5,15.0204,0.0896761,-3.47089
530,15.0365,0.0980166,-3.47089
530.5,15.0523,0.095945,-3.47089
531,15.0683,0.0991726,-3.47089
531.5,15.0842,0.0846505,-3.47089
532,15.1003,0.0676723,-3.47089
532.5,15.1161,0.070808,-3.47089
533,15.1321,0.0781844,-3.47089
533.5,15.1481,0.0776757,-3.47084
534,15.1639,0.0615404,-3.4717
534.5,15.1798,0.0680311,-3.47223
535,15.1957,0.0688789,-3.47222
535.5,15.2117,0.0664138,-3.47221
536,15.2272,0.0687281,-3.47209
536.5,15.2433,0.0673749,-3.47328
537,15.2594,0.0640615,-3.47348
537.5,15.2755,0.0603028,-3.4734
538,15.2913,0.0576394,-3.47226
538.5,15.3075,0.0624938,-3.47222
539,15.3234,0.0553944,-3.47221
539.5,15.3391,0.0527705,-3.47221
540,15.3553,0.053868,-3.47221
540.5,15.3714,0.0493421,-3.47221
541,15.3872,0.0597349,-3.47227
541.5,15.4034,0.067381,-3.47358
542,15.4192,0.0668444,-3.47351
542.5,15.4351,0.0728,-3.47353
543,15.4512,0.0694452,-3.47353
543.5,15.4669,0.0756888,-3.47362
544,15.4829,0.075771,-3.47246
544.5,15.4992,0.0817976,-3.47221
545,15.5149,0.0898792,-3.47221
545.5,15.5311,0.0887932,-3.47221
546,15.5469,0.0873319,-3.47221
546.5,15.5629,0.0906599,-3.47221
547,15.5789,0.0860459,-3.47221
547.5,15.5949,0.0767041,-3.47221
548,15.6108,0.0791416,-3.47221
548.5,15.6269,0.0841179,-3.47221
549,15.6429,0.0901976,-3.47222
549.5,15.6588,0.097304,-3.47215
550,15.6747,0.102499,-3.47309
550.5,15.6909,0.107035,-3.47225
551,15.7066,0.113427,-3.47222
551.5,15.7224,0.11831,-3.4722
552,15.7387,0.111984,-3.4722
552.5,15.7546,0.116206,-3.4722
553,15.7705,0.119356,-3.4722
553.5,15.7866,0.116777,-3.4722
554,15.8028,0.114805,-3.47221
554.5,15.8186,0.126075,-3.47216
555,15.8345,0.124005,-3.47316
555.5,15.8505,0.134682,-3.47352
556,15.8668,0.129709,-3.47352
556.5,15.8829,0.13395,-3.47352
557,15.8989,0.141161,-3.47352
557.5,15.9147,0.140338,-3.47352
558,15.9309,0.137338,-3.47352
558.5,15.9469,0.153641,-3.47352
559,15.9626,0.16126,-3.47352
559.5,15.9786,0.158177,-3.47349
560,15.9949,0.158529,-3.47398
560.5,16.0109,0.169801,-3.47418
561,16.0267,0.169064,-3.47408
561.5,16.0429,0.169329,-3.47532
562,16.0589,0.174613,-3.4755
562.5,16.0748,0.181483,-3.4755
563,16.0908,0.185949,-3.4755
563.5,16.1071,0.169461,-3.4755
564,16.1231,0.187984,-3.4755
564.5,16.139,0.199499,-3.4755
565,16.1553,0.209194,-3.4755
565.5,16.171,0.21691,-3.4755
566,16.1871,0.225558,-3.47553
566.5,16.2033,0.23018,-3.47569
567,16.2188,0.235028,-3.47681
567.5,16.2351,0.244189,-3.47682
568,16.2516,0.247429,-3.47682
568.5,16.2672,0.2425,-3.47682
569,16.2837,0.250774,-3.47682
569.5,16.2993,0.262376,-3.4768
570,16.3156,0.253355,-3.47651
570.5,16.3315,0.26908,-3.47651
571,16.3478,0.28173,-3.47683
571.5,16.3639,0.288549,-3.47681
572,16.38,0.273938,-3.47681
572.5,16.3959,0.289202,-3.47686
573,16.412,0.297482,-3.47818
573.5,16.4278,0.307504,-3.47825
574,16.4441,0.312076,-3.47955
574.5,16.46,0.312852,-3.47945
575,16.4761,0.318164,-3.47945
575.5,16.4923,0.328074,-3.47945
576,16.5084,0.309504,-3.4794
576.5,16.5246,0.310436,-3.48042
577,16.5406,0.32006,-3.48077
577.5,16.5565,0.337932,-3.48046
578,16.5727,0.336113,-3.47941
578.5,16.5889,0.333608,-3.47947
579,16.6047,0.351428,-3.47965
579.5,16.6211,0.37576,-3.48078
580,16.6372,0.391765,-3.48076
580.5,16.6532,0.401174,-3.48077
581,16.6697,0.421823,-3.48078
581.5,16.6854,0.434245,-3.48119
582,16.7017,0.450138,-3.48208
582.5,16.7178,0.455634,-3.48208
583,16.7341,0.472247,-3.48208
583.5,16.7501,0.489707,-3.48208
584,16.766,0.508128,-3.48209
584.5,16.782,0.52304,-3.48212
585,16.7983,0.528507,-3.48339
585.5,16.8146,0.541101,-3.48349
586,16.8309,0.561123,-3.48385
586.5,16.8469,0.574957,-3.4849
587,16.8627,0.586327,-3.48483
587.5,16.8792,0.59283,-3.48505
588,16.8951,0.604222,-3.48624
588.5,16.9115,0.614273,-3.48615
589,16.9274,0.610973,-3.48615
589.5,16.9436,0.614487,-3.48615
590,16.96,0.622073,-3.48615
590.5,16.976,0.616705,-3.48702
591,16.992,0.610096,-3.48745
591.5,17.0081,0.59972,-3.48744
592,17.0243,0.576478,-3.48797
592.5,17.0401,0.554791,-3.48824
593,17.0561,0.541434,-3.4883
593.5,17.0722,0.512064,-3.48961
594,17.088,0.484036,-3.48954
594.5,17.1045,0.461091,-3.48958
595,17.1202,0.433123,-3.49083
595.5,17.1368,0.402647,-3.49084
596,17.1525,0.378339,-3.49086
596.5,17.1687,0.371429,-3.49086
597,17.1849,0.346077,-3.49082
597.5,17.2011,0.328166,-3.49155
598,17.2172,0.308379,-3.49222
598.5,17.2332,0.28696,-3.49218
599,17.2493,0.270125,-3.4924
599.5,17.2655,0.258655,-3.49359
600,17.2815,0.247433,-3.4935
600.5,17.2974,0.237705,-3.4935
601,17.3138,0.224313,-3.4935
601.5,17.3302,0.203004,-3.4935
602,17.3461,0.18426,-3.49351
602.5,17.3621,0.182994,-3.49355
603,17.3787,0.180312,-3.49473
603.5,17.3943,0.168458,-3.49481
604,17.4107,0.150462,-3.49482
604.5,17.4268,0.140567,-3.4946
605,17.443,0.135137,-3.49411
605.5,17.459,0.124625,-3.49468
606,17.4751,0.108246,-3.49552
606.5,17.4915,0.0940866,-3.49547
607,17.5075,0.0911538,-3.49547
607.5,17.5241,0.07238,-3.49547
608,17.5398,0.05859,-3.49547
608.5,17.5564,0.0534957,-3.49547
609,17.5725,0.0493476,-3.49547
609.5,17.5888,0.0438063,-3.49547
610,17.6048,0.0410739,-3.49529
610.5,17.621,0.0437141,-3.49482
611,17.6371,0.0473164,-3.49463
611.5,17.6533,0.0416454,-3.49591
612,17.6697,0.0356347,-3.49581
612.5,17.6857,0.0293995,-3.49581
613,17.7023,0.0257388,-3.49581
613.5,17.7183,0.0158655,-3.49581
614,17.7343,0.0105975,-3.49581
614.5,17.7504,0.006726,-3.49581
615,17.7671,0.00925343,-3.49581
615.5,17.7832,0.00515524,-3.49581
616,17.7992,0.00826945,-3.49581
616.5,17.8158,0.0013654,-3.4958
617,17.8318,-0.00587936,-3.49579
617.5,17.8482,-0.00821899,-3.49655
618,17.8643,-0.0172272,-3.49714
618.5,17.8805,-0.021349,-3.49713
619,17.897,-0.0269027,-3.49713
619.5,17.9128,-0.0292358,-3.49766
620,17.9293,-0.0333319,-3.49848
620.5,17.9456,-0.0346906,-3.49846
621,17.9615,-0.0401052,-3.49848
621.5,17.9778,-0.0460745,-3.49811
622,17.9943,-0.0590761,-3.49813
622.5,18.0103,-0.0627682,-3.49812
623,18.0267,-0.067369,-3.49812
623.5,18.0432,-0.0717183,-3.49718
624,18.0593,-0.0785828,-3.49682
624.5,18.0753,-0.0818471,-3.49675
625,18.0918,-0.0781763,-3.49755
625.5,18.1076,-0.0874739,-3.49814
626,18.1242,-0.0923929,-3.49811
626.5,18.1405,-0.101012,-3.49811
627,18.1569,-0.0995256,-3.49846
627.5,18.1729,-0.109846,-3.50044
628,18.1894,-0.118143,-3.50072
628.5,18.2054,-0.126729,-3.50075
629,18.2214,-0.128449,-3.50075
629.5,18.2379,-0.126689,-3.50075
630,18.2541,-0.131839,-3.50075
630.5,18.2706,-0.130028,-3.50073
631,18.287,-0.133492,-3.50073
631.5,18.303,-0.144287,-3.49947
632,18.3193,-0.149257,-3.4994
632.5,18.3358,-0.155323,-3.50048
633,18.3517,-0.157057,-3.50074
633.5,18.3684,-0.16253,-3.50075
634,18.3845,-0.172809,-3.50075
634.5,18.4007,-0.168591,-3.50075
635,18.4168,-0.176487,-3.50075
635.5,18.4336,-0.178186,-3.50075
636,18.4497,-0.185058,-3.50075
636.5,18.466,-0.215577,-3.50075
637,18.482,-0.210915,-3.50134
637.5,18.4983,-0.202902,-3.50207
638,18.5147,-0.20459,-3.50203
638.5,18.5313,-0.201233,-3.50277
639,18.5474,-0.199866,-3.50343
639.5,18.5636,-0.197498,-3.50337
640,18.5798,-0.199473,-3.50303
640.5,18.5963,-0.199955,-3.50207
641,18.6124,-0.205346,-3.50207
641.5,18.6284,-0.213797,-3.50207
642,18.6446,-0.215172,-3.50207
642.5,18.6609,-0.208309,-3.50207
643,18.6775,-0.218904,-3.50207
643.5,18.6941,-0.221891,-3.50207
644,18.7104,-0.227037,-3.50207
644.5,18.7264,-0.228926,-3.50207
645,18.743,-0.231096,-3.50207
645.5,18.7593,-0.235419,-3.50207
646,18.7755,-0.239618,-3.50209
646.5,18.792,-0.23579,-3.50215
647,18.8085,-0.236762,-3.50336
647.5,18.8245,-0.242711,-3.50338
648,18.8408,-0.25003,-3.50338
648.5,18.8566,-0.250548,-3.50348
649,18.8729,-0.249915,-3.50478
649.5,18.8897,-0.258047,-3.5047
650,18.9061,-0.263684,-3.5047
650.5,18.9224,-0.263715,-3.5047
651,18.9386,-0.269455,-3.50466
651.5,18.9552,-0.271045,-3.50329
652,18.9717,-0.277129,-3.50447
652.5,18.9878,-0.280015,-3.5047
653,19.0043,-0.278938,-3.5047
653.5,19.0207,-0.283397,-3.5047
654,19.0365,-0.287538,-3.5047
654.5,19.0528,-0.286989,-3.5047
655,19.0694,-0.292485,-3.5047
655.5,19.0855,-0.299363,-3.5047
656,19.1024,-0.303007,-3.50468
656.5,19.1186,-0.306431,-3.50519
657,19.1349,-0.316612,-3.50607
657.5,19.1511,-0.324256,-3.50602
658,19.1677,-0.326291,-3.50605
658.5,19.1842,-0.334789,-3.50544
659,19.2001,-0.338552,-3.50467
659.5,19.2167,-0.344458,-3.50471
660,19.2329,-0.357906,-3.50469
660.5,19.2493,-0.364547,-3.505
661,19.2657,-0.362047,-3.50518
661.5,19.2817,-0.365609,-3.50536
662,19.2981,-0.368803,-3.50536
662.5,19.3146,-0.369091,-3.50537
663,19.3309,-0.375416,-3.50536
663.5,19.3472,-0.380171,-3.50594
664,19.364,-0.390543,-3.50601
664.5,19.3799,-0.393187,-3.50605
665,19.3965,-0.393109,-3.50612
665.5,19.4126,-0.396555,-3.50701
666,19.4294,-0.398559,-3.50787
666.5,19.4459,-0.402854,-3.50833
667,19.4615,-0.419824,-3.50832
667.5,19.4785,-0.43028,-3.50832
668,19.4946,-0.428575,-3.50832
668.5,19.511,-0.424856,-3.50797
669,19.5276,-0.425065,-3.50697
669.5,19.5438,-0.427157,-3.50701
670,19.5601,-0.427548,-3.50701
670.5,19.5764,-0.439006,-3.50701
671,19.593,-0.436486,-3.50701
671.5,19.6094,-0.441993,-3.50701
672,19.6256,-0.449363,-3.50696
672.5,19.642,-0.457689,-3.50777
673,19.6582,-0.45939,-3.50836
673.5,19.6749,-0.478044,-3.50833
674,19.6911,-0.495248,-3.50833
674.5,19.7077,-0.496707,-3.50833
675,19.7239,-0.498542,-3.50833
675.5,19.7404,-0.508598,-3.50842
676,19.7569,-0.516927,-3.50721
676.5,19.7732,-0.518711,-3.50701
677,19.7896,-0.529522,-3.50701
677.5,19.8058,-0.5377,-3.50701
678,19.8223,-0.535391,-3.50701
678.5,19.839,-0.529193,-3.50701
679,19.855,-0.537113,-3.507
679.5,19.8717,-0.547745,-3.50742
680,19.8881,-0.549565,-3.50838
680.5,19.9045,-0.552342,-3.50834
681,19.9208,-0.55667,-3.50833
681.5,19.9372,-0.558802,-3.50833
682,19.9537,-0.56093,-3.50833
682.5,19.9699,-0.555547,-3.50833
683,19.9865,-0.564411,-3.50833
683.5,20.0028,-0.577422,-3.50833
684,20.0192,-0.582672,-3.50833
684.5,20.0349,-0.580054,-3.5083
685,20.0513,-0.581134,-3.50863
685.5,20.0683,-0.580268,-3.5084
686,20.0849,-0.581422,-3.50733
686.5,20.1012,-0.577649,-3.50733
687,20.1174,-0.578748,-3.50733
687.5,20.1343,-0.559886,-3.50733
688,20.1505,-0.571119,-3.50733
688.5,20.1669,-0.578686,-3.50733
689,20.1835,-0.585637,-3.50733
689.5,20.1997,-0.588116,-3.50733
690,20.2162,-0.598592,-3.50733