File: 01_Data/Helmet_Brim_Edging/STA/N2/30K_min/Helmet_Brim_Edging_STA_N2_30KData_240228_R1.csv
Temp./C,Time/min,DSC/(mW/mg),Mass loss/mg
60.0,0.0,1.8425,-0.00249983
60.4,0.0207989,1.90008,-0.00199652
60.8,0.0413026,1.94129,-0.00172748
61.2,0.0617172,1.9817,-0.0020954
61.6,0.081388,2.02971,-0.00280774
62,0.100105,2.06735,-0.00396091
62.4,0.119459,2.11182,-0.00550991
62.8,0.138993,2.1506,-0.00598094
63.2,0.157955,2.19575,-0.00576168
63.6,0.176933,2.23751,-0.00545479
64,0.194668,2.27327,-0.00490008
64.4,0.21347,2.3072,-0.00423104
64.8,0.23064,2.34378,-0.00434844
65.2,0.248305,2.37849,-0.00476601
65.6,0.266552,2.41278,-0.00491636
66,0.283854,2.45135,-0.00525834
66.4,0.300838,2.48807,-0.0050305
66.8,0.318288,2.52195,-0.00396657
67.2,0.334978,2.54859,-0.00346331
67.6,0.35262,2.57909,-0.00377401
68,0.368077,2.61126,-0.00427361
68.4,0.384924,2.63934,-0.0050934
68.8,0.401501,2.66667,-0.00568851
69.2,0.417924,2.69617,-0.00467431
69.6,0.433668,2.72066,-0.00514989
70,0.450003,2.75648,-0.0037212
70.4,0.466359,2.7698,-0.00453979
70.8,0.481914,2.79299,-0.00385875
71.2,0.497739,2.81717,-0.00376457
71.6,0.513529,2.85202,-0.00436065
72,0.528788,2.87357,-0.00359315
72.4,0.544038,2.89234,-0.0043691
72.8,0.560247,2.91215,-0.00502423
73.2,0.575617,2.93619,-0.00604381
73.6,0.59018,2.95714,-0.0053365
74,0.60634,2.97426,-0.00602221
74.4,0.621699,2.99175,-0.00603358
74.8,0.637033,3.01561,-0.00568085
75.2,0.65215,3.03917,-0.00552676
75.6,0.667304,3.05631,-0.00515469
76,0.682535,3.07108,-0.00480718
76.4,0.696936,3.087,-0.00454499
76.8,0.711858,3.10344,-0.00400422
77.2,0.726991,3.11777,-0.00406222
77.6,0.741707,3.14823,-0.00362929
78,0.756657,3.16252,-0.00329881
78.4,0.771848,3.16323,-0.00456225
78.8,0.786362,3.19008,-0.00348852
79.2,0.800975,3.213,-0.00442347
79.6,0.81553,3.22615,-0.00301187
80,0.830116,3.23635,-0.00392773
80.4,0.844081,3.25301,-0.00292863
80.8,0.858828,3.26284,-0.00419466
81.2,0.87341,3.27995,-0.00349323
81.6,0.887409,3.29913,-0.00369069
82,0.902463,3.31727,-0.0038581
82.4,0.915312,3.33198,-0.00292019
82.8,0.930575,3.34911,-0.002768
83.2,0.945097,3.35738,-0.00281149
83.6,0.958495,3.37458,-0.00148076
84,0.9734,3.38339,-0.00211209
84.4,0.987496,3.39453,-0.00226872
84.8,1.00139,3.40982,-0.00168783
85.2,1.01593,3.42179,-0.00275626
85.6,1.0297,3.43087,-0.00257506
86,1.04405,3.44102,-0.00342508
86.4,1.05782,3.46041,-0.00272693
86.8,1.07184,3.47507,-0.00263313
87.2,1.0859,3.48532,-0.00332055
87.6,1.09951,3.50144,-0.00260289
88,1.11385,3.50777,-0.0024431
88.4,1.12747,3.51896,-0.0014168
88.8,1.14038,3.52144,-0.00117368
89.2,1.15535,3.52911,-0.00232004
89.6,1.16885,3.54923,-0.00178971
90,1.18279,3.55185,-0.000851181
90.4,1.19635,3.56502,-0.00090498
90.8,1.21024,3.56928,-0.000829746
91.2,1.22377,3.59186,-0.00160911
91.6,1.23723,3.59601,-0.000986134
92,1.25102,3.61468,-0.000875186
92.4,1.2647,3.61907,-0.000954688
92.8,1.27862,3.62908,-0.000946151
93.2,1.29169,3.63908,-0.000872871
93.6,1.30553,3.64661,-8.77927e-05
94,1.3194,3.65196,-0.000523085
94.4,1.33276,3.65261,-0.000258042
94.8,1.3464,3.66448,0.000995245
95.2,1.35901,3.67808,0.000840625
95.6,1.37326,3.68652,0.000762522
96,1.3866,3.69,-1.01176e-05
96.4,1.39975,3.69225,0.000752564
96.8,1.41331,3.70218,0.000742668
97.2,1.42661,3.70745,-0.00025903
97.6,1.44061,3.71837,-0.00043499
98,1.45444,3.72882,-0.000975455
98.4,1.46761,3.74263,-0.000737621
98.8,1.48161,3.75527,-0.000437135
99.2,1.49459,3.75673,-0.000695982
99.6,1.50825,3.76766,-0.00182404
100,1.52139,3.7651,-0.00084004
100.4,1.53476,3.77871,-0.000431891
100.8,1.54769,3.78552,-0.000450523
101.2,1.56135,3.78439,-0.0001729
101.6,1.57492,3.79861,0.000963494
102,1.58798,3.8062,0.000849218
102.4,1.60125,3.81734,0.000867896
102.8,1.61469,3.81868,0.00144868
103.2,1.62788,3.82236,0.00215613
103.6,1.64161,3.83059,0.000885138
104,1.65476,3.84037,0.00090769
104.4,1.668,3.83394,0.000859073
104.8,1.68158,3.84138,0.000909881
105.2,1.69485,3.85224,0.000155621
105.6,1.70798,3.86446,0.000637772
106,1.72136,3.87075,0.000888929
106.4,1.73455,3.87757,0.000895607
106.8,1.74789,3.88519,0.000788166
107.2,1.7606,3.8985,0.00172967
107.6,1.77462,3.9051,0.00220981
108,1.78749,3.90552,0.00220982
108.4,1.80122,3.90937,0.0021764
108.8,1.81416,3.90843,0.00302822
109.2,1.82747,3.9206,0.00354439
109.6,1.84099,3.92762,0.00351869
110,1.8541,3.93054,0.00302587
110.4,1.86733,3.94258,0.0023713
110.8,1.88063,3.94976,0.00336743
111.2,1.89364,3.95273,0.00384488
111.6,1.90688,3.95737,0.00383991
112,1.92017,3.95857,0.00383415
112.4,1.93358,3.97039,0.0038116
112.8,1.94582,3.97724,0.00416797
113.2,1.96002,3.97758,0.00516429
113.6,1.97298,3.98636,0.004796
114,1.986,3.99377,0.00506301
114.4,1.99956,3.99834,0.00566105
114.8,2.01283,4.01268,0.00490978
115.2,2.02568,4.01534,0.00499116
115.6,2.03893,4.02575,0.00598553
116,2.05209,4.03188,0.00594767
116.4,2.06547,4.03207,0.00486453
116.8,2.07861,4.03227,0.00496683
117.2,2.09195,4.04734,0.00493314
117.6,2.10497,4.04777,0.00583163
118,2.11801,4.06611,0.0063003
118.4,2.13135,4.06429,0.00625805
118.8,2.14447,4.07369,0.00625912
119.2,2.15757,4.08829,0.00626031
119.6,2.17065,4.0955,0.00625972
120,2.18425,4.11149,0.00625798
120.4,2.19713,4.11071,0.00631934
120.8,2.21019,4.11248,0.00743165
121.2,2.22337,4.11304,0.0075654
121.6,2.2368,4.131,0.00758674
122,2.24947,4.13979,0.0075791
122.4,2.26324,4.14111,0.0075803
122.8,2.27601,4.15407,0.00757393
123.2,2.28902,4.1656,0.00771186
123.6,2.30179,4.172,0.00887749
124,2.31541,4.17051,0.00887565
124.4,2.32858,4.17843,0.00890478
124.8,2.34148,4.189,0.00889976
125.2,2.35472,4.20146,0.00889959
125.6,2.36802,4.20904,0.00890228
126,2.38104,4.21485,0.00889492
126.4,2.39385,4.22315,0.00886251
126.8,2.40698,4.23055,0.00940922
127.2,2.42002,4.24536,0.00951872
127.6,2.43284,4.25315,0.00889035
128,2.44629,4.25994,0.00889203
128.4,2.45918,4.27028,0.00889007
128.8,2.47219,4.288,0.00888925
129.2,2.48521,4.29414,0.00887754
129.6,2.4983,4.30652,0.00898972
130,2.51146,4.31617,0.00808888
130.4,2.5246,4.32423,0.00756597
130.8,2.53751,4.33294,0.00757182
131.2,2.55042,4.34757,0.00757072
131.6,2.56377,4.36983,0.00757108
132,2.57643,4.38359,0.00753439
132.4,2.58965,4.38977,0.00804285
132.8,2.60228,4.41043,0.0101686
133.2,2.61549,4.41868,0.0101761
133.6,2.62841,4.43642,0.0102191
134,2.64119,4.45106,0.0102092
134.4,2.6546,4.47056,0.0102099
134.8,2.66726,4.50199,0.0102101
135.2,2.67979,4.52356,0.01021
135.6,2.69318,4.53277,0.01021
136,2.70608,4.56125,0.01021
136.4,2.71898,4.58398,0.01021
136.8,2.73196,4.61185,0.01021
137.2,2.74506,4.62727,0.01021
137.6,2.75828,4.65476,0.01021
138,2.77099,4.68187,0.01021
138.4,2.78386,4.70804,0.01021
138.8,2.79659,4.73444,0.01021
139.2,2.80911,4.76783,0.01021
139.6,2.82215,4.80665,0.01021
140,2.83488,4.82929,0.01021
140.4,2.84778,4.86002,0.01021
140.8,2.86093,4.8938,0.01021
141.2,2.87405,4.92566,0.01021
141.6,2.88733,4.96937,0.01021
142,2.90028,5.01332,0.01021
142.4,2.9131,5.05098,0.01021
142.8,2.92639,5.08805,0.01021
143.2,2.93901,5.1359,0.01021
143.6,2.95196,5.18177,0.0102099
144,2.96491,5.22563,0.0102102
144.4,2.97785,5.26516,0.0102106
144.8,2.9909,5.31512,0.0101862
145.2,3.00407,5.37265,0.0091476
145.6,3.01674,5.4137,0.00875938
146,3.02979,5.46122,0.00871741
146.4,3.04266,5.51855,0.00776426
146.8,3.05527,5.56687,0.00743004
147.2,3.06844,5.61988,0.00746088
147.6,3.08137,5.67079,0.00746258
148,3.09408,5.72513,0.00744874
148.4,3.10717,5.77901,0.00750237
148.8,3.1202,5.82812,0.00677298
149.2,3.1328,5.87642,0.00609601
149.6,3.14615,5.91821,0.00616344
150,3.15865,5.96592,0.00613873
150.4,3.17168,6.00687,0.00615929
150.8,3.1848,6.04392,0.00578441
151.2,3.19728,6.0686,0.00582926
151.6,3.21004,6.10104,0.00581885
152,3.2227,6.10915,0.00581994
152.4,3.23529,6.11896,0.00582014
152.8,3.24812,6.12531,0.00581953
153.2,3.26068,6.11121,0.00582131
153.6,3.27309,6.10201,0.00582425
154,3.28556,6.06625,0.00575381
154.4,3.29806,6.02644,0.00638389
154.8,3.31069,5.98161,0.00713128
155.2,3.32292,5.93134,0.00713648
155.6,3.33544,5.87205,0.00720506
156,3.34752,5.81418,0.00837229
156.4,3.36,5.74544,0.00796638
156.8,3.37255,5.67672,0.00701591
157.2,3.38474,5.60399,0.00701103
157.6,3.39693,5.54145,0.00634896
158,3.4093,5.4846,0.00689877
158.4,3.42179,5.42481,0.00688633
158.8,3.43399,5.36859,0.00692243
159.2,3.44615,5.31639,0.00668584
159.6,3.45871,5.26251,0.00553353
160,3.47016,5.22026,0.00561543
160.4,3.48276,5.17126,0.00558463
160.8,3.49496,5.13588,0.00559232
161.2,3.50799,5.10312,0.0055785
161.6,3.52061,5.06545,0.00562522
162,3.53273,5.03476,0.00489413
162.4,3.54515,5.0003,0.00423201
162.8,3.55754,4.97243,0.00429088
163.2,3.57018,4.95691,0.00428333
163.6,3.58264,4.93618,0.00429085
164,3.59492,4.90637,0.00405357
164.4,3.6075,4.88425,0.00295054
164.8,3.61971,4.86556,0.00198325
165.2,3.63209,4.8577,0.00161031
165.6,3.64487,4.83757,0.00153902
166,3.65706,4.83151,0.000603139
166.4,3.6694,4.83109,0.000300888
166.8,3.68215,4.81554,0.000330134
167.2,3.69457,4.80769,0.000335208
167.6,3.70729,4.7945,0.000255483
168,3.71926,4.78501,-0.000752882
168.4,3.73144,4.78677,-0.00100558
168.8,3.74376,4.77912,-0.00104515
169.2,3.75626,4.77211,-0.0020865
169.6,3.76874,4.77411,-0.00234213
170,3.78146,4.76968,-0.00306878
170.4,3.79439,4.76297,-0.00371281
170.8,3.80645,4.76353,-0.00470983
171.2,3.81897,4.75418,-0.00520651
171.6,3.83126,4.75299,-0.00541531
172,3.84406,4.74566,-0.00654986
172.4,3.85619,4.74437,-0.00644522
172.8,3.86857,4.74235,-0.00646768
173.2,3.88131,4.74346,-0.00648154
173.6,3.89345,4.74689,-0.00656118
174,3.90618,4.75193,-0.00770071
174.4,3.91823,4.75941,-0.00779303
174.8,3.93066,4.7615,-0.0077897
175.2,3.94322,4.75748,-0.00778997
175.6,3.95571,4.76046,-0.00778993
176,3.96839,4.76405,-0.00779048
176.4,3.98046,4.7713,-0.00778861
176.8,3.99334,4.77628,-0.00778488
177.2,4.00543,4.77718,-0.00785798
177.6,4.01729,4.77967,-0.00731169
178,4.02948,4.78548,-0.0064923
178.4,4.043,4.78472,-0.00645424
178.8,4.055,4.78097,-0.0064939
179.2,4.06736,4.78369,-0.00525215
179.6,4.07945,4.7943,-0.00480082
180,4.09209,4.80736,-0.00483791
180.4,4.10421,4.81083,-0.00484164
180.8,4.11651,4.80646,-0.00483956
181.2,4.12904,4.80127,-0.00484001
181.6,4.14152,4.80265,-0.00484008
182,4.15381,4.81381,-0.00484232
182.4,4.16616,4.81261,-0.00565258
182.8,4.17835,4.81103,-0.00645614
183.2,4.19065,4.8166,-0.00657009
183.6,4.20309,4.82764,-0.00784643
184,4.21531,4.83309,-0.00775732
184.4,4.22751,4.83555,-0.0079691
184.8,4.23939,4.84077,-0.00889309
185.2,4.25176,4.84038,-0.00912993
185.6,4.264,4.84764,-0.00911053
186,4.27716,4.85112,-0.00910908
186.4,4.2892,4.85694,-0.00911023
186.8,4.30152,4.86225,-0.00910999
187.2,4.31396,4.86878,-0.00910995
187.6,4.3258,4.87215,-0.00910941
188,4.33843,4.87993,-0.00911508
188.4,4.35053,4.88953,-0.0090833
188.8,4.36304,4.88916,-0.00916213
189.2,4.37512,4.89246,-0.00804296
189.6,4.38718,4.89452,-0.00779792
190,4.39943,4.8992,-0.00778671
190.4,4.41164,4.90343,-0.00781549
190.8,4.42427,4.90495,-0.00696448
191.2,4.43624,4.90819,-0.00644061
191.6,4.44887,4.91595,-0.00636044
192,4.46069,4.92268,-0.00526019
192.4,4.47315,4.92687,-0.00517132
192.8,4.48544,4.92695,-0.00515379
193.2,4.49787,4.92526,-0.00516148
193.6,4.50981,4.93078,-0.00515975
194,4.52231,4.93017,-0.00516055
194.4,4.53431,4.93981,-0.00515735
194.8,4.54635,4.94589,-0.00519083
195.2,4.55883,4.94358,-0.00627533
195.6,4.57095,4.95631,-0.00581068
196,4.58301,4.96543,-0.00516712
196.4,4.59565,4.97397,-0.005159
196.8,4.60763,4.97543,-0.00515994
197.2,4.61982,4.98016,-0.00516042
197.6,4.63209,4.9825,-0.00516
198,4.6441,4.9862,-0.00515024
198.4,4.65628,4.99267,-0.00523342
198.8,4.66839,4.99773,-0.00457834
199.2,4.68095,5.00039,-0.00375489
199.6,4.69278,5.0001,-0.00472888
200,4.705,5.00563,-0.00516487
200.4,4.71734,5.01237,-0.00515801
200.8,4.7297,5.0094,-0.00516044
201.2,4.74185,5.0146,-0.00515998
201.6,4.75395,5.0242,-0.00570015
202,4.76601,5.02751,-0.00673264
202.4,4.77819,5.03047,-0.00732775
202.8,4.7905,5.0345,-0.00822254
203.2,4.80265,5.03417,-0.0097142
203.6,4.81516,5.03281,-0.0106649
204,4.8272,5.03055,-0.0120499
204.4,4.83948,5.04467,-0.0127351
204.8,4.85165,5.04904,-0.0138118
205.2,4.86361,5.05846,-0.013827
205.6,4.87597,5.06488,-0.0138555
206,4.88797,5.064,-0.0137402
206.4,4.90028,5.06444,-0.0132777
206.8,4.91249,5.07453,-0.013178
207.2,4.92451,5.0782,-0.0130014
207.6,4.9365,5.08073,-0.0119493
208,4.94907,5.08194,-0.011855
208.4,4.96119,5.09103,-0.0118602
208.8,4.97334,5.08797,-0.0118586
209.2,4.98513,5.09083,-0.0118756
209.6,4.99752,5.09872,-0.0117673
210,5.0098,5.10494,-0.0126134
210.4,5.02171,5.10647,-0.0131782
210.8,5.03394,5.10135,-0.0131789
211.2,5.04615,5.11847,-0.0131804
211.6,5.05813,5.11956,-0.0131799
212,5.07057,5.11899,-0.0131799
212.4,5.08257,5.12706,-0.0131802
212.8,5.09476,5.1276,-0.0131809
213.2,5.10686,5.13166,-0.0131687
213.6,5.11878,5.13734,-0.0132453
214,5.13098,5.13734,-0.0126941
214.4,5.14352,5.14914,-0.0125098
214.8,5.1555,5.15584,-0.0125171
215.2,5.1677,5.15469,-0.0125213
215.6,5.1802,5.1583,-0.0125197
216,5.19237,5.16477,-0.01252
216.4,5.20437,5.16607,-0.0125198
216.8,5.21632,5.16788,-0.0125216
217.2,5.2285,5.17283,-0.0125128
217.6,5.24089,5.17517,-0.0125363
218,5.25287,5.17863,-0.0125648
218.4,5.2652,5.18665,-0.0137093
218.8,5.27706,5.18785,-0.0138323
219.2,5.28936,5.19093,-0.0138298
219.6,5.30127,5.19638,-0.0138298
220,5.31357,5.20071,-0.0138244
220.4,5.32551,5.20482,-0.0131644
220.8,5.33783,5.20106,-0.0124836
221.2,5.35003,5.20099,-0.0121551
221.6,5.36219,5.20655,-0.0118267
222,5.37427,5.21242,-0.0118495
222.4,5.38619,5.21913,-0.0111116
222.8,5.39857,5.22591,-0.0104689
223.2,5.41049,5.22621,-0.0105389
223.6,5.4227,5.22823,-0.0105239
224,5.43473,5.23406,-0.00967078
224.4,5.44692,5.23982,-0.00916724
224.8,5.45896,5.24072,-0.00923082
225.2,5.47109,5.24422,-0.00921262
225.6,5.48317,5.24693,-0.0092366
226,5.49507,5.25361,-0.0092956
226.4,5.50769,5.25777,-0.0104116
226.8,5.51927,5.26204,-0.010497
227.2,5.53172,5.26249,-0.0111549
227.6,5.54387,5.26563,-0.0121448
228,5.55583,5.2661,-0.0119779
228.4,5.56804,5.27108,-0.0126929
228.8,5.57991,5.26873,-0.0136018
229.2,5.59194,5.27065,-0.0139217
229.6,5.60437,5.27199,-0.0156014
230,5.61678,5.27776,-0.0164962
230.4,5.62863,5.27548,-0.017516
230.8,5.6409,5.28102,-0.019069
231.2,5.65258,5.28467,-0.0192286
231.6,5.66497,5.29052,-0.0202926
232,5.67677,5.29307,-0.0208017
232.4,5.68896,5.29636,-0.0198002
232.8,5.70095,5.29966,-0.0197434
233.2,5.71333,5.29819,-0.0209186
233.6,5.72526,5.29922,-0.0208351
234,5.73756,5.30252,-0.0208663
234.4,5.74951,5.3149,-0.020859
234.8,5.76188,5.31992,-0.02086
235.2,5.77373,5.31572,-0.02086
235.6,5.78555,5.32196,-0.02086
236,5.79759,5.32395,-0.02086
236.4,5.81,5.32789,-0.02086
236.8,5.82186,5.3293,-0.02086
237.2,5.83392,5.32911,-0.0208594
237.6,5.84604,5.33235,-0.0208654
238,5.85818,5.33503,-0.0208342
238.4,5.87016,5.33499,-0.0209406
238.8,5.88225,5.33296,-0.019865
239.2,5.8943,5.34082,-0.0195341
239.6,5.90624,5.34895,-0.0195418
240,5.91853,5.3504,-0.0195399
240.4,5.93042,5.35457,-0.0195388
240.8,5.94264,5.35536,-0.019542
241.2,5.95454,5.35784,-0.0195543
241.6,5.96684,5.35351,-0.0193712
242,5.97877,5.3608,-0.0188705
242.4,5.99108,5.36889,-0.0194721
242.8,6.00316,5.3701,-0.019273
243.2,6.01537,5.37546,-0.01796
243.6,6.02721,5.3773,-0.0180122
244,6.03953,5.38005,-0.0180824
244.4,6.05161,5.38176,-0.0172787
244.8,6.06323,5.38329,-0.0166911
245.2,6.07549,5.38277,-0.016691
245.6,6.08768,5.38671,-0.0166911
246,6.09939,5.39125,-0.0166844
246.4,6.11194,5.40099,-0.0166906
246.8,6.12378,5.39748,-0.0168034
247.2,6.13575,5.39472,-0.0180153
247.6,6.14762,5.39469,-0.0190713
248,6.16009,5.39763,-0.0194889
248.4,6.17177,5.40632,-0.0194037
248.8,6.18393,5.40672,-0.0205472
249.2,6.19604,5.406,-0.020876
249.6,6.20813,5.4067,-0.0208523
250,6.22033,5.41203,-0.0224046
250.4,6.23246,5.41475,-0.0235209
250.8,6.24421,5.40937,-0.0234804
251.2,6.25627,5.41181,-0.0235028
251.6,6.26871,5.41798,-0.0234266
252,6.28062,5.41922,-0.02395
252.4,6.2926,5.41865,-0.024077
252.8,6.30448,5.42471,-0.0234436
253.2,6.31688,5.42436,-0.0235064
253.6,6.3287,5.42766,-0.0234866
254,6.34103,5.42919,-0.0234903
254.4,6.35277,5.43438,-0.02349
254.8,6.36479,5.43643,-0.0234911
255.2,6.37686,5.43328,-0.0234829
255.6,6.38884,5.43618,-0.0236169
256,6.40062,5.43745,-0.0246896
256.4,6.41283,5.4406,-0.0248041
256.8,6.42555,5.44798,-0.024006
257.2,6.43729,5.44812,-0.0234356
257.6,6.44949,5.44437,-0.0235007
258,6.46126,5.44375,-0.0234885
258.4,6.47364,5.45219,-0.0234882
258.8,6.48562,5.44854,-0.023508
259.2,6.49773,5.44409,-0.0234008
259.6,6.50968,5.44716,-0.0242359
260,6.52195,5.4519,-0.0248087
260.4,6.53352,5.45344,-0.0248085
260.8,6.54585,5.45462,-0.0248105
261.2,6.55786,5.45986,-0.0248112
261.6,6.57009,5.46112,-0.0248041
262,6.58216,5.45757,-0.0250475
262.4,6.59417,5.45631,-0.0261639
262.8,6.60608,5.4591,-0.0261245
263.2,6.61835,5.45889,-0.0260417
263.6,6.63036,5.45739,-0.0269451
264,6.64233,5.46097,-0.0274507
264.4,6.65419,5.45946,-0.0274484
264.8,6.66644,5.45982,-0.0274513
265.2,6.67839,5.46218,-0.027446
265.6,6.69075,5.46328,-0.0274588
266,6.70236,5.46845,-0.0274558
266.4,6.71453,5.4686,-0.0282922
266.8,6.72653,5.47627,-0.028814
267.2,6.73875,5.47717,-0.0287267
267.6,6.75072,5.47502,-0.0288405
268,6.76276,5.47406,-0.0277895
268.4,6.77475,5.47633,-0.027406
268.8,6.78693,5.47679,-0.0276926
269.2,6.79906,5.47749,-0.0285488
269.6,6.81113,5.47918,-0.0276524
270,6.82313,5.48164,-0.0274284
270.4,6.8352,5.4812,-0.0275602
270.8,6.84717,5.48102,-0.0285474
271.2,6.85897,5.48201,-0.0289151
271.6,6.87063,5.47949,-0.028865
272,6.88305,5.48024,-0.0288694
272.4,6.8954,5.48335,-0.0288711
272.8,6.90765,5.48443,-0.0288652
273.2,6.91943,5.48707,-0.0288865
273.6,6.93166,5.48632,-0.0288522
274,6.94376,5.48818,-0.0296115
274.4,6.95552,5.49158,-0.0299777
274.8,6.96776,5.4978,-0.0302156
275.2,6.98002,5.49625,-0.0301937
275.6,6.99201,5.49336,-0.030177
276,7.00412,5.49432,-0.0306215
276.4,7.01598,5.49834,-0.0305442
276.8,7.02824,5.50145,-0.0302667
277.2,7.04035,5.49859,-0.0303162
277.6,7.05188,5.5023,-0.0302901
278,7.06427,5.49625,-0.0311324
278.4,7.07624,5.50041,-0.0316993
278.8,7.0885,5.50398,-0.0325308
279.2,7.10017,5.50249,-0.0331509
279.6,7.11285,5.50084,-0.0344031
280,7.1243,5.50098,-0.0343169
280.4,7.13692,5.50564,-0.0345464
280.8,7.14844,5.51272,-0.0359717
281.2,7.16032,5.51758,-0.0364979
281.6,7.17243,5.5207,-0.036457
282,7.1846,5.51304,-0.0378809
282.4,7.19673,5.51184,-0.0386278
282.8,7.20898,5.51288,-0.0393534
283.2,7.22113,5.51732,-0.0401775
283.6,7.23317,5.52096,-0.0402125
284,7.24488,5.5235,-0.0410659
284.4,7.25677,5.52244,-0.0415476
284.8,7.26918,5.5219,-0.0414876
285.2,7.28154,5.5208,-0.0417765
285.6,7.29365,5.51859,-0.042993
286,7.30568,5.52138,-0.0428874
286.4,7.3178,5.52356,-0.0430078
286.8,7.32988,5.52419,-0.0440622
287.2,7.34186,5.5222,-0.0442441
287.6,7.35396,5.52328,-0.0442103
288,7.3661,5.52621,-0.044609
288.4,7.37819,5.53112,-0.0457024
288.8,7.39048,5.53539,-0.0457922
289.2,7.40225,5.53661,-0.0457687
289.6,7.41434,5.53,-0.0457508
290,7.42647,5.53267,-0.0460326
290.4,7.43862,5.53892,-0.0466365
290.8,7.45123,5.54156,-0.0459661
291.2,7.46297,5.54585,-0.0463202
291.6,7.47506,5.54443,-0.0476298
292,7.48737,5.54908,-0.0477639
292.4,7.49947,5.54949,-0.048909
292.8,7.51136,5.55012,-0.049095
293.2,7.52372,5.55305,-0.0491304
293.6,7.53543,5.55671,-0.0500717
294,7.54767,5.56055,-0.0506336
294.4,7.55984,5.56307,-0.0510358
294.8,7.57179,5.56486,-0.0521387
295.2,7.58422,5.56607,-0.0523058
295.6,7.59613,5.56343,-0.0537336
296,7.60811,5.5633,-0.0538183
296.4,7.62071,5.56541,-0.0548365
296.8,7.6326,5.56649,-0.0554396
297.2,7.6447,5.56741,-0.0555354
297.6,7.65663,5.57255,-0.056516
298,7.66882,5.57354,-0.0568745
298.4,7.6809,5.57295,-0.05739
298.8,7.69331,5.58207,-0.0588464
299.2,7.70518,5.58446,-0.060125
299.6,7.71737,5.59267,-0.0613842
300,7.72964,5.59146,-0.0620962
300.4,7.74197,5.59435,-0.06355
300.8,7.75397,5.59997,-0.0644058
301.2,7.76588,5.60399,-0.0653107
301.6,7.77798,5.6074,-0.0664173
302,7.79025,5.61582,-0.0669904
302.4,7.80249,5.61669,-0.067662
302.8,7.81452,5.61648,-0.068562
303.2,7.82666,5.61553,-0.0695175
303.6,7.8388,5.62014,-0.0702205
304,7.85081,5.62961,-0.071608
304.4,7.86318,5.63134,-0.0725617
304.8,7.87514,5.63821,-0.0739853
305.2,7.88741,5.65234,-0.0749245
305.6,7.89955,5.64876,-0.0760424
306,7.91167,5.64924,-0.0760554
306.4,7.92394,5.6591,-0.0772091
306.8,7.93591,5.66305,-0.0773193
307.2,7.94817,5.66885,-0.0780509
307.6,7.96024,5.6736,-0.0789033
308,7.97234,5.67861,-0.0803855
308.4,7.98426,5.68288,-0.0812296
308.8,7.99604,5.6874,-0.0825541
309.2,8.00833,5.69477,-0.0828522
309.6,8.02007,5.70585,-0.0843416
310,8.03306,5.70905,-0.0845822
310.4,8.04527,5.71715,-0.0858914
310.8,8.05738,5.72511,-0.0864518
311.2,8.06954,5.73029,-0.087561
311.6,8.08167,5.73808,-0.0877164
312,8.09404,5.74593,-0.0885682
312.4,8.10622,5.74774,-0.0890116
312.8,8.11845,5.75844,-0.0887597
313.2,8.13047,5.7687,-0.0893711
313.6,8.14276,5.78129,-0.0903104
314,8.15465,5.79224,-0.0908375
314.4,8.16701,5.79777,-0.0902818
314.8,8.17916,5.80362,-0.0913902
315.2,8.19136,5.80175,-0.0920324
315.6,8.20333,5.80865,-0.0931976
316,8.21547,5.80901,-0.0943839
316.4,8.22771,5.81432,-0.0962215
316.8,8.23996,5.81508,-0.0973337
317.2,8.25198,5.80937,-0.0999631
317.6,8.26385,5.78192,-0.101208
318,8.27619,5.74684,-0.10322
318.4,8.28802,5.70478,-0.103873
318.8,8.30004,5.66017,-0.105385
319.2,8.31216,5.61513,-0.106266
319.6,8.32403,5.57046,-0.108099
320,8.33595,5.53106,-0.109224
320.4,8.34802,5.50585,-0.11069
320.8,8.36001,5.47232,-0.11142
321.2,8.37234,5.4432,-0.112748
321.6,8.38426,5.41427,-0.113371
322,8.39654,5.39553,-0.114905
322.4,8.40853,5.37481,-0.116474
322.8,8.42069,5.35255,-0.117382
323.2,8.4326,5.3394,-0.119036
323.6,8.44465,5.3268,-0.119049
324,8.45685,5.31067,-0.120574
324.4,8.46871,5.29463,-0.122529
324.8,8.48122,5.28293,-0.124224
325.2,8.49322,5.26561,-0.126157
325.6,8.50541,5.2527,-0.12814
326,8.51739,5.25148,-0.130517
326.4,8.52957,5.24008,-0.132231
326.8,8.54182,5.22875,-0.133967
327.2,8.55386,5.2158,-0.135002
327.6,8.56615,5.20691,-0.137361
328,8.57829,5.20357,-0.138604
328.4,8.59038,5.19813,-0.140063
328.8,8.60216,5.19896,-0.140555
329.2,8.61477,5.19458,-0.141598
329.6,8.62705,5.19057,-0.143481
330,8.63886,5.18371,-0.144769
330.4,8.6512,5.18059,-0.147247
330.8,8.66307,5.17649,-0.148652
331.2,8.67549,5.17528,-0.151087
331.6,8.68758,5.17474,-0.152895
332,8.69976,5.17767,-0.154676
332.4,8.71188,5.17198,-0.155197
332.8,8.72409,5.16869,-0.156995
333.2,8.73612,5.16325,-0.15862
333.6,8.74818,5.16015,-0.161046
334,8.76076,5.16563,-0.16285
334.4,8.77296,5.16727,-0.165941
334.8,8.78487,5.16438,-0.168174
335.2,8.79706,5.16074,-0.170411
335.6,8.80914,5.16553,-0.172563
336,8.82111,5.15892,-0.174719
336.4,8.83297,5.16005,-0.17742
336.8,8.84619,5.16305,-0.180335
337.2,8.8581,5.16439,-0.183231
337.6,8.87012,5.16522,-0.185233
338,8.88255,5.16515,-0.188112
338.4,8.89459,5.16483,-0.190165
338.8,8.90708,5.16606,-0.192924
339.2,8.91918,5.16234,-0.196008
339.6,8.93115,5.16352,-0.199269
340,8.94361,5.16474,-0.201655
340.4,8.95564,5.16421,-0.205128
340.8,8.96769,5.1603,-0.207361
341.2,8.97977,5.15866,-0.211019
341.6,8.99222,5.15741,-0.214299
342,9.00454,5.15325,-0.218296
342.4,9.01675,5.15439,-0.223238
342.8,9.02866,5.1534,-0.227408
343.2,9.04128,5.14795,-0.23122
343.6,9.05285,5.15032,-0.235343
344,9.0653,5.14521,-0.239194
344.4,9.07799,5.14161,-0.242863
344.8,9.08999,5.13637,-0.246963
345.2,9.10195,5.12934,-0.251436
345.6,9.11407,5.12796,-0.254508
346,9.12656,5.12206,-0.258088
346.4,9.13857,5.11634,-0.262338
346.8,9.15102,5.10189,-0.265924
347.2,9.16325,5.10022,-0.269394
347.6,9.17535,5.09593,-0.273609
348,9.18756,5.08376,-0.278069
348.4,9.20004,5.08173,-0.280896
348.8,9.21243,5.07279,-0.2851
349.2,9.22433,5.06668,-0.29027
349.6,9.23645,5.05414,-0.294168
350,9.24862,5.04221,-0.299124
350.4,9.26114,5.03863,-0.305479
350.8,9.27319,5.02753,-0.310196
351.2,9.28542,5.02776,-0.3154
351.6,9.29759,5.01304,-0.321422
352,9.30965,5.01277,-0.326244
352.4,9.32238,5.00614,-0.330858
352.8,9.33439,4.99561,-0.336435
353.2,9.34666,4.98731,-0.342271
353.6,9.35872,4.98168,-0.347018
354,9.37123,4.96904,-0.354223
354.4,9.38345,4.95868,-0.361335
354.8,9.3955,4.95234,-0.36626
355.2,9.4078,4.94128,-0.372369
355.6,9.42006,4.93016,-0.379662
356,9.43231,4.92523,-0.385171
356.4,9.4445,4.91493,-0.391013
356.8,9.45678,4.90207,-0.398111
357.2,9.46905,4.89455,-0.404647
357.6,9.48143,4.8855,-0.411038
358,9.49336,4.87701,-0.418589
358.4,9.5056,4.86771,-0.427088
358.8,9.51809,4.85539,-0.434143
359.2,9.52973,4.84572,-0.442066
359.6,9.54206,4.83485,-0.452
360,9.55428,4.82538,-0.459567
360.4,9.56686,4.81743,-0.468426
360.8,9.5793,4.81273,-0.479365
361.2,9.5916,4.80929,-0.488046
361.6,9.60382,4.81204,-0.497336
362,9.6159,4.81179,-0.509059
362.4,9.62819,4.80043,-0.520715
362.8,9.64066,4.79564,-0.531424
363.2,9.65298,4.79326,-0.54427
363.6,9.66527,4.7914,-0.558369
364,9.67749,4.79249,-0.569196
364.4,9.68984,4.79001,-0.582555
364.8,9.70222,4.78792,-0.598795
365.2,9.71433,4.78572,-0.610712
365.6,9.72665,4.78549,-0.624719
366,9.73922,4.78461,-0.642
366.4,9.75144,4.78264,-0.655703
366.8,9.76354,4.78147,-0.670179
367.2,9.77576,4.78092,-0.687611
367.6,9.78825,4.77051,-0.704581
368,9.80043,4.75328,-0.718878
368.4,9.813,4.73771,-0.736023
368.8,9.82505,4.71547,-0.753726
369.2,9.83711,4.69229,-0.766823
369.6,9.8492,4.65897,-0.782567
370,9.86172,4.628,-0.802119
370.4,9.87369,4.58468,-0.814822
370.8,9.88612,4.55089,-0.83096
371.2,9.89822,4.51635,-0.849393
371.6,9.91034,4.48203,-0.864169
372,9.92262,4.4489,-0.878465
372.4,9.93505,4.41364,-0.895589
372.8,9.94693,4.38833,-0.910387
373.2,9.95951,4.36397,-0.922674
373.6,9.97175,4.35229,-0.93699
374,9.98367,4.34405,-0.952017
374.4,9.99636,4.32282,-0.963259
374.8,10.0086,4.31115,-0.975814
375.2,10.0211,4.31347,-0.990588
375.6,10.0332,4.31388,-1.00083
376,10.0456,4.31676,-1.01224
376.4,10.0579,4.31316,-1.02572
376.8,10.0704,4.31667,-1.03662
377.2,10.0828,4.31931,-1.04671
377.6,10.0952,4.33195,-1.05942
378,10.1076,4.35073,-1.07063
378.4,10.1199,4.35435,-1.07933
378.8,10.1321,4.36419,-1.08932
379.2,10.1446,4.38306,-1.10022
379.6,10.1572,4.39364,-1.10786
380,10.1694,4.4052,-1.11727
380.4,10.1821,4.42404,-1.12737
380.8,10.1941,4.43807,-1.13387
381.2,10.2068,4.45251,-1.14148
381.6,10.2189,4.46233,-1.14995
382,10.2315,4.46725,-1.1567
382.4,10.2439,4.47953,-1.16363
382.8,10.2563,4.49251,-1.17196
383.2,10.2686,4.50201,-1.17957
383.6,10.2811,4.51556,-1.18611
384,10.2934,4.52654,-1.19387
384.4,10.3059,4.53723,-1.20148
384.8,10.3184,4.54394,-1.2063
385.2,10.3301,4.55663,-1.21297
385.6,10.3427,4.56135,-1.22142
386,10.355,4.57439,-1.22724
386.4,10.3676,4.58515,-1.23438
386.8,10.3805,4.58838,-1.24267
387.2,10.3928,4.58946,-1.24835
387.6,10.405,4.59796,-1.25521
388,10.4173,4.60441,-1.26324
388.4,10.4298,4.60664,-1.27012
388.8,10.4422,4.61172,-1.27625
389.2,10.4545,4.61473,-1.28333
389.6,10.467,4.6205,-1.29047
390,10.4794,4.62293,-1.296
390.4,10.4919,4.62654,-1.30272
390.8,10.5044,4.62843,-1.31028
391.2,10.5167,4.62407,-1.3158
391.6,10.529,4.63439,-1.32113
392,10.5413,4.62996,-1.32852
392.4,10.554,4.63003,-1.33409
392.8,10.5662,4.6277,-1.34008
393.2,10.5786,4.6271,-1.34749
393.6,10.5907,4.62586,-1.35328
394,10.6036,4.63252,-1.36001
394.4,10.6158,4.62976,-1.36799
394.8,10.6284,4.62839,-1.37465
395.2,10.6408,4.62981,-1.38007
395.6,10.6532,4.63075,-1.38639
396,10.6658,4.62731,-1.3932
396.4,10.6781,4.62671,-1.39829
396.8,10.6904,4.62849,-1.4046
397.2,10.7028,4.62701,-1.41191
397.6,10.7153,4.6247,-1.41694
398,10.7276,4.61532,-1.42264
398.4,10.7396,4.60884,-1.42954
398.8,10.7521,4.60863,-1.43481
399.2,10.7644,4.61025,-1.44032
399.6,10.7775,4.60149,-1.44749
400,10.7898,4.59774,-1.45319
400.4,10.8019,4.59736,-1.45834
400.8,10.8149,4.59433,-1.46483
401.2,10.8274,4.58753,-1.47092
401.6,10.8391,4.58157,-1.4755
402,10.8521,4.58574,-1.48167
402.4,10.8645,4.58209,-1.48823
402.8,10.8769,4.57691,-1.49299
403.2,10.8892,4.57384,-1.49868
403.6,10.9014,4.57437,-1.505
404,10.9143,4.57797,-1.50974
404.4,10.9263,4.57449,-1.51448
404.8,10.9392,4.56788,-1.52054
405.2,10.9514,4.56517,-1.52514
405.6,10.9639,4.55767,-1.53015
406,10.9758,4.55427,-1.536
406.4,10.989,4.54839,-1.54324
406.8,11.0013,4.54089,-1.54821
407.2,11.014,4.53462,-1.55402
407.6,11.0263,4.53589,-1.55969
408,11.0388,4.53338,-1.56396
408.4,11.0512,4.5353,-1.56902
408.8,11.0637,4.53457,-1.57514
409.2,11.076,4.53052,-1.57962
409.6,11.0885,4.52336,-1.58519
410,11.1004,4.51546,-1.59136
410.4,11.1131,4.51747,-1.59589
410.8,11.1257,4.51028,-1.60093
411.2,11.1385,4.51008,-1.60725
411.6,11.1505,4.5103,-1.61238
412,11.1631,4.50779,-1.61702
412.4,11.1759,4.50583,-1.6233
412.8,11.1885,4.5046,-1.62937
413.2,11.2008,4.49933,-1.63406
413.6,11.2133,4.49244,-1.63989
414,11.2257,4.49024,-1.64621
414.4,11.2384,4.49141,-1.65097
414.8,11.2507,4.48898,-1.6564
415.2,11.2635,4.47381,-1.66313
415.6,11.2759,4.47314,-1.66754
416,11.2886,4.47806,-1.67299
416.4,11.3009,4.47492,-1.67918
416.8,11.3133,4.47186,-1.68407
417.2,11.3258,4.46858,-1.68944
417.6,11.3381,4.46177,-1.69558
418,11.351,4.46086,-1.70089
418.4,11.3635,4.45962,-1.70606
418.8,11.3759,4.46289,-1.71191
419.2,11.3884,4.46202,-1.71721
419.6,11.4011,4.46043,-1.72184
420,11.4134,4.45285,-1.72719
420.4,11.4259,4.45296,-1.73283
420.8,11.4387,4.44889,-1.73716
421.2,11.4511,4.45293,-1.74214
421.6,11.4636,4.45321,-1.74827
422,11.476,4.45066,-1.75137
422.4,11.4886,4.45327,-1.75626
422.8,11.5008,4.45726,-1.76238
423.2,11.5135,4.45509,-1.76711
423.6,11.5259,4.45167,-1.772
424,11.5385,4.44764,-1.77822
424.4,11.5512,4.44852,-1.7833
424.8,11.5636,4.45063,-1.78818
425.2,11.5761,4.45088,-1.79441
425.6,11.5882,4.45249,-1.79977
426,11.6015,4.4464,-1.80415
426.4,11.6139,4.44506,-1.80963
426.8,11.6265,4.4442,-1.81514
427.2,11.6391,4.44649,-1.81937
427.6,11.6514,4.4508,-1.82434
428,11.6645,4.45782,-1.83057
428.4,11.6769,4.44905,-1.83516
428.8,11.6895,4.45097,-1.84142
429.2,11.7022,4.45467,-1.848
429.6,11.7145,4.45612,-1.85219
430,11.7271,4.45633,-1.85705
430.4,11.7393,4.45624,-1.86267
430.8,11.7522,4.47012,-1.8671
431.2,11.7648,4.4711,-1.87144
431.6,11.7776,4.47154,-1.87679
432,11.7901,4.47066,-1.88041
432.4,11.8024,4.47217,-1.88412
432.8,11.8152,4.47281,-1.88943
433.2,11.8276,4.47844,-1.89436
433.6,11.8403,4.48392,-1.89864
434,11.8529,4.48088,-1.90383
434.4,11.8656,4.48235,-1.90948
434.8,11.8782,4.484,-1.91394
435.2,11.8908,4.48599,-1.92023
435.6,11.9033,4.49416,-1.92634
436,11.916,4.49249,-1.93051
436.4,11.9289,4.49797,-1.93571
436.8,11.9414,4.5015,-1.94216
437.2,11.9539,4.50563,-1.94638
437.6,11.9665,4.51503,-1.95137
438,11.9791,4.51718,-1.95803
438.4,11.9916,4.51814,-1.96324
438.8,12.0043,4.5231,-1.96871
439.2,12.0168,4.52299,-1.97495
439.6,12.0296,4.52415,-1.98018
440,12.0423,4.53261,-1.98585
440.4,12.0546,4.5337,-1.99231
440.8,12.0676,4.53809,-1.99834
441.2,12.0803,4.54313,-2.00339
441.6,12.0925,4.55171,-2.00896
442,12.1055,4.54913,-2.01544
442.4,12.1179,4.55563,-2.02011
442.8,12.1305,4.56398,-2.02591
443.2,12.1432,4.57202,-2.03262
443.6,12.1557,4.57711,-2.03614
444,12.1682,4.58302,-2.04149
444.4,12.181,4.587,-2.0481
444.8,12.1935,4.59648,-2.05274
445.2,12.2063,4.60261,-2.05794
445.6,12.219,4.60928,-2.06417
446,12.2319,4.61337,-2.06919
446.4,12.2441,4.62403,-2.07409
446.8,12.2569,4.63387,-2.08039
447.2,12.2696,4.63604,-2.08576
447.6,12.2823,4.6387,-2.09066
448,12.2952,4.64275,-2.09623
448.4,12.3076,4.6463,-2.10188
448.8,12.3205,4.65173,-2.10679
449.2,12.3331,4.66586,-2.11258
449.6,12.3459,4.67392,-2.11893
450,12.3586,4.68066,-2.1239
450.4,12.371,4.69486,-2.12971
450.8,12.3836,4.70262,-2.13609
451.2,12.3964,4.70471,-2.14076
451.6,12.4092,4.71752,-2.14633
452,12.422,4.72621,-2.15285
452.4,12.4344,4.7394,-2.15769
452.8,12.4473,4.74906,-2.16343
453.2,12.4599,4.75965,-2.17022
453.6,12.4729,4.77166,-2.17577
454,12.4855,4.78336,-2.18177
454.4,12.4982,4.79304,-2.1892
454.8,12.5107,4.80628,-2.19506
455.2,12.5238,4.81582,-2.20106
455.6,12.5362,4.83058,-2.20764
456,12.5491,4.84688,-2.21369
456.4,12.5617,4.85355,-2.21916
456.8,12.5744,4.86379,-2.22572
457.2,12.5873,4.8784,-2.23261
457.6,12.6002,4.88651,-2.23828
458,12.6129,4.897,-2.24493
458.4,12.6256,4.90922,-2.25224
458.8,12.638,4.92315,-2.25785
459.2,12.6511,4.93764,-2.26497
459.6,12.6637,4.95209,-2.27331
460,12.6766,4.96195,-2.27921
460.4,12.6892,4.97244,-2.28605
460.8,12.7022,4.98416,-2.29359
461.2,12.7149,5.00213,-2.29897
461.6,12.727,5.0121,-2.30507
462,12.7398,5.02915,-2.31304
462.4,12.7526,5.04743,-2.31988
462.8,12.7656,5.05701,-2.32741
463.2,12.7787,5.07022,-2.33581
463.6,12.7912,5.07958,-2.34232
464,12.804,5.08442,-2.3492
464.4,12.8168,5.10301,-2.35792
464.8,12.8295,5.12018,-2.36545
465.2,12.8423,5.12992,-2.37223
465.6,12.8549,5.15013,-2.38051
466,12.8679,5.15899,-2.38886
466.4,12.8809,5.16819,-2.39613
466.8,12.8934,5.17898,-2.40514
467.2,12.9063,5.18492,-2.41464
467.6,12.9189,5.2053,-2.42162
468,12.9312,5.2192,-2.42989
468.4,12.9446,5.22136,-2.441
468.8,12.9574,5.2326,-2.44826
469.2,12.97,5.2503,-2.45664
469.6,12.983,5.26171,-2.46646
470,12.9958,5.27286,-2.47284
470.4,13.0084,5.2783,-2.48022
470.8,13.0212,5.28551,-2.48922
471.2,13.0337,5.28709,-2.49587
471.6,13.0464,5.29608,-2.50272
472,13.0593,5.30315,-2.51176
472.4,13.0723,5.31298,-2.51955
472.8,13.0848,5.31528,-2.5276
473.2,13.0976,5.31921,-2.53698
473.6,13.1105,5.32727,-2.54508
474,13.1233,5.33256,-2.55346
474.4,13.1362,5.3346,-2.56348
474.8,13.149,5.33616,-2.57176
475.2,13.1617,5.33926,-2.57892
475.6,13.1748,5.3423,-2.58922
476,13.1874,5.34481,-2.59896
476.4,13.2002,5.34623,-2.6071
476.8,13.2132,5.34402,-2.61686
477.2,13.2257,5.33181,-2.62658
477.6,13.2384,5.33104,-2.63416
478,13.2511,5.32736,-2.64334
478.4,13.2637,5.32083,-2.65373
478.8,13.2767,5.31817,-2.66153
479.2,13.2896,5.31223,-2.67128
479.6,13.3024,5.30315,-2.68334
480,13.315,5.29404,-2.6913
480.4,13.3279,5.27955,-2.70078
480.8,13.3404,5.2707,-2.71203
481.2,13.3534,5.25399,-2.72092
481.6,13.366,5.23802,-2.73047
482,13.379,5.22801,-2.7425
482.4,13.3916,5.21047,-2.75174
482.8,13.4046,5.19557,-2.76151
483.2,13.4171,5.17406,-2.77312
483.6,13.4298,5.15356,-2.7825
484,13.4427,5.13265,-2.79235
484.4,13.4554,5.10997,-2.80405
484.8,13.468,5.08524,-2.81489
485.2,13.4808,5.0569,-2.82386
485.6,13.4935,5.0258,-2.83456
486,13.5065,4.99586,-2.8458
486.4,13.5189,4.9665,-2.85427
486.8,13.5319,4.93825,-2.86644
487.2,13.5445,4.90859,-2.87844
487.6,13.5573,4.87937,-2.88746
488,13.5699,4.84099,-2.89821
488.4,13.5826,4.80483,-2.91078
488.8,13.5954,4.76039,-2.91981
489.2,13.6081,4.72238,-2.93025
489.6,13.6206,4.6825,-2.94232
490,13.6335,4.63482,-2.95166
490.4,13.6459,4.59179,-2.96165
490.8,13.6588,4.54858,-2.9741
491.2,13.6714,4.50498,-2.9839
491.6,13.684,4.45342,-2.99384
492,13.6968,4.39321,-3.00575
492.4,13.7092,4.35097,-3.01568
492.8,13.7218,4.29064,-3.02467
493.2,13.7346,4.23257,-3.03523
493.6,13.7475,4.17512,-3.04523
494,13.7597,4.1196,-3.05269
494.4,13.7724,4.05853,-3.06304
494.8,13.7852,3.99539,-3.0735
495.2,13.7976,3.93408,-3.0807
495.6,13.8104,3.85455,-3.08974
496,13.823,3.79255,-3.09992
496.4,13.8355,3.72003,-3.1071
496.8,13.8474,3.65321,-3.11499
497.2,13.8605,3.57905,-3.12597
497.6,13.8727,3.51663,-3.13378
498,13.8857,3.44455,-3.14183
498.4,13.8982,3.36817,-3.15132
498.8,13.9108,3.285,-3.15853
499.2,13.9234,3.21054,-3.16565
499.6,13.936,3.13148,-3.17423
500,13.9481,3.0511,-3.18177
500.4,13.9608,2.96576,-3.18789
500.8,13.9728,2.89291,-3.19459
501.2,13.9853,2.81282,-3.20269
501.6,13.9978,2.73068,-3.20857
502,14.0107,2.64003,-3.21565
502.4,14.0231,2.55412,-3.22275
502.8,14.0355,2.47216,-3.22751
503.2,14.0481,2.38713,-3.23325
503.6,14.0607,2.29379,-3.23979
504,14.0732,2.20875,-3.24447
504.4,14.086,2.12726,-3.24961
504.8,14.0981,2.0452,-3.25545
505.2,14.1109,1.9657,-3.26046
505.6,14.1233,1.88431,-3.26512
506,14.1359,1.79457,-3.27012
506.4,14.1487,1.72179,-3.27546
506.8,14.1606,1.64945,-3.27945
507.2,14.1734,1.57639,-3.28322
507.6,14.1857,1.5153,-3.28775
508,14.1984,1.44809,-3.2915
508.4,14.211,1.38653,-3.2959
508.8,14.2235,1.32914,-3.30019
509.2,14.2359,1.27097,-3.30291
509.6,14.2485,1.22615,-3.30556
510,14.2613,1.17326,-3.30868
510.4,14.2742,1.1223,-3.31127
510.8,14.2867,1.0825,-3.31439
511.2,14.2993,1.03587,-3.3163
511.6,14.3118,0.999641,-3.31925
512,14.3246,0.959163,-3.32225
512.4,14.337,0.915069,-3.32485
512.8,14.3499,0.884108,-3.32661
513.2,14.3627,0.8519,-3.32908
513.6,14.3753,0.823216,-3.33151
514,14.3879,0.797221,-3.33424
514.4,14.4008,0.76808,-3.33569
514.8,14.4133,0.751607,-3.33676
515.2,14.4258,0.718824,-3.33815
515.6,14.4388,0.687442,-3.33926
516,14.4514,0.670595,-3.33948
516.4,14.464,0.652619,-3.3403
516.8,14.477,0.628716,-3.34086
517.2,14.4899,0.611712,-3.3408
517.6,14.5025,0.59141,-3.34081
518,14.5148,0.574695,-3.34081
518.4,14.5282,0.559643,-3.34081
518.8,14.5407,0.549445,-3.34081
519.2,14.5536,0.535349,-3.34081
519.6,14.5663,0.520148,-3.34082
520,14.579,0.509008,-3.3416
520.4,14.592,0.496598,-3.34217
520.8,14.6048,0.490429,-3.34212
521.2,14.6172,0.477975,-3.34212
521.6,14.6299,0.469969,-3.34211
522,14.6426,0.457703,-3.34211
522.4,14.6559,0.457441,-3.34243
522.8,14.6687,0.452613,-3.34348
523.2,14.6814,0.451328,-3.34354
523.6,14.6944,0.446915,-3.34413
524,14.7066,0.441172,-3.34515
524.4,14.7198,0.437599,-3.3455
524.8,14.733,0.431559,-3.34664
525.2,14.7458,0.429467,-3.34694
525.6,14.7586,0.427678,-3.3481
526,14.7715,0.427214,-3.34816
526.4,14.7845,0.423683,-3.34816
526.8,14.7972,0.42456,-3.3482
527.2,14.8103,0.42644,-3.34777
527.6,14.8228,0.431064,-3.34687
528,14.8356,0.425231,-3.34732
528.4,14.8483,0.426175,-3.34753
528.8,14.8614,0.427788,-3.34747
529.2,14.8741,0.435016,-3.34822
529.6,14.8866,0.433331,-3.34814
530,14.9,0.426034,-3.34816
530.4,14.9124,0.428038,-3.34816
530.8,14.9252,0.425067,-3.34816
531.2,14.9383,0.423585,-3.34816
531.6,14.9518,0.42736,-3.34816
532,14.9646,0.427408,-3.34827
532.4,14.9776,0.425744,-3.34925
532.8,14.9903,0.42755,-3.3495
533.2,15.0029,0.427259,-3.34948
533.6,15.016,0.429388,-3.34948
534,15.0288,0.434469,-3.34948
534.4,15.0417,0.434918,-3.34948
534.8,15.0548,0.437534,-3.34945
535.2,15.0676,0.436692,-3.34978
535.6,15.0809,0.441101,-3.35075
536,15.0935,0.445125,-3.35079
536.4,15.1064,0.448475,-3.3508
536.8,15.1192,0.450921,-3.3508
537.2,15.1323,0.456249,-3.3508
537.6,15.1453,0.452696,-3.35077
538,15.1579,0.456815,-3.35113
538.4,15.1708,0.458788,-3.35207
538.8,15.1838,0.456102,-3.3521
539.2,15.1968,0.457884,-3.35211
539.6,15.2097,0.462241,-3.35211
540,15.2224,0.465538,-3.35211
540.4,15.2353,0.467164,-3.35211
540.8,15.2483,0.468273,-3.35211
541.2,15.2613,0.480918,-3.35211
541.6,15.2741,0.479431,-3.35211
542,15.2871,0.481926,-3.35211
542.4,15.3003,0.483878,-3.35211
542.8,15.3131,0.485101,-3.35211
543.2,15.3261,0.48165,-3.35211
543.6,15.3389,0.485918,-3.35211
544,15.3519,0.492097,-3.35211
544.4,15.3644,0.49477,-3.3521
544.8,15.3774,0.492181,-3.35217
545.2,15.3908,0.492495,-3.35152
545.6,15.404,0.499331,-3.35076
546,15.4168,0.504314,-3.35081
546.4,15.4297,0.504073,-3.3508
546.8,15.4425,0.505866,-3.3508
547.2,15.4554,0.503399,-3.3508
547.6,15.4681,0.514572,-3.3508
548,15.4809,0.511912,-3.35081
548.4,15.4944,0.512566,-3.35089
548.8,15.5075,0.5075,-3.35188
549.2,15.5205,0.506931,-3.35213
549.6,15.5335,0.5122,-3.35208
550,15.5465,0.513752,-3.35182
550.4,15.5591,0.514428,-3.35262
550.8,15.5723,0.515027,-3.35277
551.2,15.5849,0.519542,-3.35278
551.6,15.5983,0.524358,-3.35274
552,15.6112,0.525321,-3.35308
552.4,15.6243,0.528121,-3.35309
552.8,15.6372,0.529444,-3.35313
553.2,15.6501,0.531418,-3.35302
553.6,15.6633,0.53435,-3.35418
554,15.6758,0.535163,-3.35442
554.4,15.6891,0.533626,-3.35442
554.8,15.7025,0.537962,-3.35442
555.2,15.7151,0.542873,-3.35443
555.6,15.7282,0.541759,-3.35434
556,15.741,0.543017,-3.35528
556.4,15.7541,0.546536,-3.35559
556.8,15.7672,0.552672,-3.35465
557.2,15.7802,0.551261,-3.35476
557.6,15.7928,0.549459,-3.35475
558,15.806,0.551951,-3.35475
558.4,15.8189,0.548594,-3.35475
558.8,15.8318,0.550633,-3.35475
559.2,15.8451,0.55658,-3.35481
559.6,15.8581,0.559412,-3.35419
560,15.8711,0.561908,-3.35344
560.4,15.8841,0.566686,-3.35343
560.8,15.8972,0.564864,-3.35343
561.2,15.9102,0.565384,-3.35343
561.6,15.9232,0.574888,-3.35343
562,15.9361,0.577455,-3.35342
562.4,15.9491,0.582632,-3.35346
562.8,15.9619,0.583527,-3.35311
563.2,15.9752,0.592738,-3.35311
563.6,15.9881,0.593354,-3.3531
564,16.0018,0.597837,-3.3531
564.4,16.0143,0.597416,-3.35258
564.8,16.0275,0.5978,-3.35169
565.2,16.0406,0.607723,-3.35179
565.6,16.0536,0.614891,-3.35178
566,16.0667,0.61346,-3.35178
566.4,16.0796,0.615457,-3.35178
566.8,16.0927,0.610731,-3.35178
567.2,16.1056,0.614372,-3.3525
567.6,16.1189,0.614341,-3.35327
568,16.1321,0.629349,-3.35353
568.4,16.145,0.630629,-3.35473
568.8,16.1579,0.631501,-3.35467
569.2,16.171,0.632456,-3.35607
569.6,16.184,0.635403,-3.35615
570,16.1969,0.642666,-3.35712
570.4,16.2102,0.646736,-3.35775
570.8,16.2232,0.649712,-3.35815
571.2,16.2364,0.654934,-3.35939
571.6,16.2496,0.662096,-3.35914
572,16.2623,0.663121,-3.36035
572.4,16.2756,0.664807,-3.36079
572.8,16.2887,0.670513,-3.361
573.2,16.3016,0.671882,-3.36299
573.6,16.3148,0.678835,-3.36342
574,16.3277,0.684197,-3.36341
574.4,16.3407,0.689122,-3.36344
574.8,16.3537,0.697554,-3.36352
575.2,16.367,0.702622,-3.36473
575.6,16.3803,0.708056,-3.36482
576,16.3931,0.713809,-3.36572
576.4,16.4063,0.721583,-3.36669
576.8,16.4194,0.720134,-3.36798
577.2,16.4326,0.72511,-3.36802
577.6,16.4455,0.733349,-3.36847
578,16.4588,0.740738,-3.36897
578.4,16.4719,0.746553,-3.37008
578.8,16.4853,0.75613,-3.37005
579.2,16.4979,0.76719,-3.36911
579.6,16.5112,0.775232,-3.36876
580,16.5244,0.780769,-3.36879
580.4,16.5375,0.782191,-3.36879
580.8,16.5504,0.788654,-3.36878
581.2,16.5636,0.79455,-3.36874
581.6,16.5768,0.802238,-3.36778
582,16.5897,0.814874,-3.36745
582.4,16.6029,0.81339,-3.36748
582.8,16.616,0.816851,-3.36748
583.2,16.6292,0.817319,-3.36747
583.6,16.6424,0.815924,-3.36751
584,16.6555,0.815076,-3.3667
584.4,16.6683,0.813362,-3.36612
584.8,16.6818,0.811732,-3.36618
585.2,16.6949,0.807158,-3.36618
585.6,16.7078,0.798558,-3.36583
586,16.721,0.782096,-3.36487
586.4,16.7341,0.775782,-3.36485
586.8,16.7471,0.759553,-3.36491
587.2,16.7599,0.743184,-3.36599
587.6,16.773,0.72198,-3.36615
588,16.7861,0.698834,-3.36609
588.4,16.7992,0.684046,-3.36683
588.8,16.8122,0.661639,-3.36759
589.2,16.825,0.643664,-3.36759
589.6,16.8384,0.629932,-3.36759
590,16.8515,0.606733,-3.36759
590.4,16.8645,0.58467,-3.36759
590.8,16.8775,0.558841,-3.36759
591.2,16.8906,0.544888,-3.36759
591.6,16.9037,0.526886,-3.36759
592,16.9167,0.504323,-3.36759
592.4,16.9298,0.484955,-3.36759
592.8,16.9428,0.473382,-3.36759
593.2,16.9561,0.462458,-3.36822
593.6,16.9689,0.445426,-3.36898
594,16.9823,0.427999,-3.36891
594.4,16.995,0.419014,-3.3689
594.8,17.0086,0.395572,-3.36901
595.2,17.0214,0.390456,-3.37005
595.6,17.0341,0.366826,-3.37133
596,17.0473,0.354874,-3.37155
596.4,17.0608,0.343758,-3.37175
596.8,17.0741,0.332521,-3.37318
597.2,17.0865,0.32017,-3.37305
597.6,17.0993,0.301848,-3.37309
598,17.1131,0.288353,-3.37308
598.4,17.1262,0.276444,-3.37308
598.8,17.1392,0.261791,-3.37308
599.2,17.1528,0.240615,-3.37308
599.6,17.1656,0.238496,-3.37305
600,17.1787,0.231862,-3.37206
600.4,17.1919,0.213261,-3.37176
600.8,17.2049,0.200085,-3.37175
601.2,17.2181,0.196207,-3.37179
601.6,17.2312,0.18416,-3.37171
602,17.2443,0.177144,-3.3729
602.4,17.2576,0.161948,-3.37309
602.8,17.2704,0.149202,-3.37308
603.2,17.2838,0.144432,-3.37308
603.6,17.2968,0.139333,-3.37303
604,17.3102,0.126282,-3.37356
604.4,17.3225,0.116031,-3.37451
604.8,17.3361,0.104973,-3.37441
605.2,17.3494,0.0877408,-3.37528
605.6,17.3627,0.07647,-3.37604
606,17.3756,0.0734079,-3.37691
606.4,17.3888,0.0688352,-3.37746
606.8,17.4019,0.0654809,-3.3768
607.2,17.4152,0.0535914,-3.378
607.6,17.428,0.0502634,-3.37814
608,17.4409,0.0398601,-3.37813
608.4,17.4541,0.026129,-3.37807
608.8,17.4678,0.0181939,-3.37878
609.2,17.4808,0.016465,-3.37944
609.6,17.4936,0.0097476,-3.37944
610,17.5072,0.00363381,-3.37944
610.4,17.5202,-0.00233345,-3.37944
610.8,17.5336,-0.0105808,-3.37944
611.2,17.5466,-0.00847525,-3.37944
611.6,17.5598,-0.0168906,-3.37944
612,17.5731,-0.0312494,-3.37944
612.4,17.586,-0.0264685,-3.37944
612.8,17.5996,-0.0283934,-3.37944
613.2,17.6123,-0.0348784,-3.37944
613.6,17.6255,-0.039163,-3.37936
614,17.6383,-0.0456611,-3.37826
614.4,17.6521,-0.0487604,-3.37815
614.8,17.6653,-0.0513846,-3.37813
615.2,17.6781,-0.0529202,-3.37811
615.6,17.6914,-0.0586035,-3.37805
616,17.7047,-0.0577126,-3.37703
616.4,17.7176,-0.0630487,-3.37723
616.8,17.7311,-0.0661105,-3.37838
617.2,17.7441,-0.0724538,-3.37844
617.6,17.7575,-0.0737474,-3.37847
618,17.7706,-0.0769998,-3.37845
618.4,17.784,-0.0765728,-3.37895
618.8,17.7969,-0.0841776,-3.37987
619.2,17.8099,-0.0870954,-3.37977
619.6,17.8231,-0.0898217,-3.37978
620,17.8366,-0.093339,-3.37978
620.4,17.8497,-0.0997202,-3.37978
620.8,17.863,-0.104349,-3.37978
621.2,17.8761,-0.102507,-3.37978
621.6,17.8892,-0.101884,-3.37978
622,17.9026,-0.104204,-3.3798
622.4,17.9157,-0.10765,-3.37957
622.8,17.9291,-0.112249,-3.37944
623.2,17.9422,-0.112431,-3.37945
623.6,17.9554,-0.115147,-3.37951
624,17.9688,-0.120084,-3.37883
624.4,17.9816,-0.121354,-3.37802
624.8,17.9951,-0.126639,-3.3779
625.2,18.0084,-0.129246,-3.37681
625.6,18.0216,-0.128312,-3.37658
626,18.0348,-0.130882,-3.37595
626.4,18.0479,-0.130059,-3.37497
626.8,18.0609,-0.132607,-3.37506
627.2,18.0743,-0.137749,-3.37498
627.6,18.0875,-0.139715,-3.37399
628,18.1005,-0.138707,-3.37372
628.4,18.1141,-0.14231,-3.37374
628.8,18.1271,-0.143653,-3.37374
629.2,18.1405,-0.145117,-3.37374
629.6,18.1537,-0.141362,-3.37375
630,18.1668,-0.144757,-3.37456
630.4,18.1804,-0.15174,-3.3751
630.8,18.1935,-0.149566,-3.37506
631.2,18.2064,-0.153853,-3.37506
631.6,18.2197,-0.153525,-3.37506
632,18.2331,-0.158686,-3.37506
632.4,18.2457,-0.15982,-3.37506
632.8,18.2591,-0.158501,-3.37506
633.2,18.2722,-0.160848,-3.37506
633.6,18.286,-0.16644,-3.37511
634,18.2992,-0.170585,-3.37613
634.4,18.3122,-0.168044,-3.37606
634.8,18.3257,-0.169777,-3.37508
635.2,18.339,-0.167419,-3.37505
635.6,18.3521,-0.170362,-3.37505
636,18.3655,-0.178249,-3.37499
636.4,18.3783,-0.180574,-3.37565
636.8,18.3919,-0.178723,-3.37637
637.2,18.405,-0.17948,-3.37637
637.6,18.4184,-0.182301,-3.37637
638,18.4317,-0.185549,-3.37637
638.4,18.4446,-0.187736,-3.37637
638.8,18.4579,-0.193285,-3.37637
639.2,18.4714,-0.199663,-3.37637
639.6,18.4847,-0.197454,-3.37695
640,18.4977,-0.196621,-3.37778