File: 01_Data/Helmet_Brim_Edging/STA/N2/30K_min/Helmet_Brim_Edging_STA_N2_30KData_250522_R2.csv
Temp./C,Time/min,DSC/(mW/mg),Mass loss/mg
40.0,0.0,1.41307,-0.0104102
40.6,0.0390091,1.4824,-0.0116856
41.2,0.076594,1.54072,-0.0115324
41.8,0.112967,1.59673,-0.0109615
42.4,0.147745,1.65261,-0.0112465
43,0.182675,1.70561,-0.0122265
43.6,0.215288,1.76397,-0.0109482
44.2,0.250093,1.82581,-0.0106582
44.8,0.282967,1.86795,-0.0112218
45.4,0.315179,1.92081,-0.0102978
46,0.346451,1.97034,-0.0110356
46.6,0.377757,2.01033,-0.0125781
47.2,0.407873,2.05788,-0.0135932
47.8,0.438027,2.09009,-0.0141963
48.4,0.468012,2.14281,-0.0137485
49,0.497038,2.18302,-0.0135937
49.6,0.525817,2.21133,-0.0121483
50.2,0.555025,2.26318,-0.00807748
50.8,0.583452,2.30466,-0.00876097
51.4,0.611482,2.32677,-0.0124089
52,0.638431,2.37459,-0.0156633
52.6,0.667316,2.40201,-0.0180916
53.2,0.695186,2.4466,-0.0179489
53.8,0.722197,2.476,-0.0165034
54.4,0.749365,2.50291,-0.0148048
55,0.776165,2.53309,-0.0139316
55.6,0.802513,2.56248,-0.0144182
56.2,0.828503,2.59432,-0.0153404
56.8,0.854624,2.62854,-0.0147871
57.4,0.880382,2.65956,-0.013634
58,0.906977,2.67856,-0.0138312
58.6,0.933125,2.7049,-0.0140976
59.2,0.958521,2.7424,-0.0145117
59.8,0.983173,2.7662,-0.0145002
60.4,1.00931,2.78961,-0.0147453
61,1.03435,2.81353,-0.0144244
61.6,1.05907,2.83763,-0.0144094
62.2,1.08325,2.86749,-0.0147664
62.8,1.10908,2.89418,-0.0156087
63.4,1.13253,2.9218,-0.0166813
64,1.15715,2.94557,-0.0161368
64.6,1.1825,2.97214,-0.0155153
65.2,1.20691,2.99763,-0.0161975
65.8,1.23113,3.02337,-0.0160992
66.4,1.25512,3.0542,-0.0164128
67,1.27903,3.07654,-0.0158168
67.6,1.30323,3.10041,-0.0162019
68.2,1.3274,3.11643,-0.0159299
68.8,1.3514,3.13566,-0.0157509
69.4,1.3751,3.16452,-0.0166716
70,1.39827,3.18551,-0.0174731
70.6,1.42206,3.20434,-0.0158765
71.2,1.4454,3.22793,-0.0155867
71.8,1.46929,3.24375,-0.015424
72.4,1.49252,3.2635,-0.0154393
73,1.51603,3.27801,-0.0157646
73.6,1.53853,3.29671,-0.0168273
74.2,1.5626,3.31382,-0.0175751
74.8,1.58564,3.33191,-0.0169599
75.4,1.60914,3.33743,-0.0174089
76,1.63203,3.35125,-0.0175074
76.6,1.65492,3.36543,-0.0174255
77.2,1.67776,3.38442,-0.0171203
77.8,1.70061,3.3971,-0.0174725
78.4,1.72362,3.41457,-0.0161238
79,1.74619,3.43232,-0.0162946
79.6,1.76894,3.44642,-0.0163486
80.2,1.79137,3.45461,-0.0175673
80.8,1.8142,3.47255,-0.0162446
81.4,1.8367,3.49359,-0.0152333
82,1.85925,3.51098,-0.0161812
82.6,1.88084,3.52818,-0.0154961
83.2,1.90308,3.54788,-0.0164553
83.8,1.92547,3.56555,-0.016738
84.4,1.94813,3.57819,-0.0156211
85,1.96973,3.60259,-0.0142378
85.6,1.99189,3.62184,-0.0135542
86.2,2.01414,3.62559,-0.0143992
86.8,2.03601,3.65156,-0.0161465
87.4,2.05807,3.66764,-0.017439
88,2.08003,3.67911,-0.0174607
88.6,2.10206,3.69564,-0.0174484
89.2,2.12337,3.7096,-0.018608
89.8,2.14514,3.72456,-0.0187782
90.4,2.16704,3.7347,-0.0189642
91,2.18839,3.75515,-0.0187784
91.6,2.21025,3.77,-0.0186145
92.2,2.23148,3.78862,-0.0187426
92.8,2.2529,3.8097,-0.017803
93.4,2.27446,3.82303,-0.0179974
94,2.29592,3.83772,-0.0174693
94.6,2.31673,3.8526,-0.0174267
95.2,2.33852,3.86418,-0.0170513
95.8,2.35949,3.88687,-0.0173318
96.4,2.38065,3.90476,-0.0159081
97,2.40209,3.92434,-0.0172551
97.6,2.42297,3.93785,-0.0172402
98.2,2.44398,3.95169,-0.0161851
98.8,2.46474,3.97542,-0.015887
99.4,2.48585,3.98598,-0.0167107
100,2.507,4.0009,-0.0159133
100.6,2.52767,4.01734,-0.016011
101.2,2.54863,4.03283,-0.0147545
101.8,2.56942,4.04202,-0.0159704
102.4,2.59036,4.05151,-0.0158298
103,2.61127,4.07537,-0.0173342
103.6,2.63181,4.09271,-0.018019
104.2,2.65273,4.10985,-0.018667
104.8,2.67308,4.11981,-0.0186696
105.4,2.6941,4.14082,-0.0173459
106,2.71485,4.16782,-0.0173406
106.6,2.73509,4.17061,-0.0171942
107.2,2.75589,4.19046,-0.0160306
107.8,2.77661,4.2122,-0.0159682
108.4,2.79723,4.24229,-0.0172804
109,2.818,4.24983,-0.0173421
109.6,2.83842,4.26584,-0.0172512
110.2,2.85881,4.28756,-0.0186217
110.8,2.8796,4.31313,-0.0185553
111.4,2.90035,4.32313,-0.0174131
112,2.92045,4.34142,-0.0187188
112.6,2.94056,4.36603,-0.0186787
113.2,2.9613,4.38151,-0.0187344
113.8,2.9816,4.40413,-0.0173636
114.4,3.00166,4.42218,-0.0173523
115,3.02171,4.44801,-0.0173662
115.6,3.04255,4.4642,-0.0183128
116.2,3.06305,4.47297,-0.018671
116.8,3.08259,4.48674,-0.0173656
117.4,3.10348,4.50409,-0.0173492
118,3.12338,4.51428,-0.01735
118.6,3.14342,4.52688,-0.0173502
119.2,3.16368,4.53556,-0.0173578
119.8,3.18377,4.54456,-0.0179919
120.4,3.2042,4.55145,-0.0176309
121,3.22298,4.55889,-0.0173502
121.6,3.24401,4.58175,-0.017356
122.2,3.26421,4.59809,-0.0180082
122.8,3.28405,4.61344,-0.0180124
123.4,3.30421,4.62723,-0.0180263
124,3.32423,4.64247,-0.0172584
124.6,3.34418,4.66159,-0.0173466
125.2,3.36375,4.67894,-0.0173494
125.8,3.38367,4.70043,-0.01735
126.4,3.40354,4.71995,-0.0173506
127,3.42318,4.73885,-0.0173516
127.6,3.44338,4.77126,-0.0163353
128.2,3.46291,4.78928,-0.0160309
128.8,3.48255,4.80142,-0.0162232
129.4,3.50248,4.82542,-0.0173932
130,3.52232,4.8468,-0.0173556
130.6,3.54193,4.86475,-0.0174962
131.2,3.56172,4.88878,-0.0187403
131.8,3.58131,4.91054,-0.0186753
132.4,3.60075,4.93957,-0.0186704
133,3.61998,4.96199,-0.0186705
133.6,3.63985,4.99235,-0.0186771
134.2,3.65883,5.02813,-0.0177171
134.8,3.67882,5.06731,-0.0173699
135.4,3.69799,5.10548,-0.0173516
136,3.71795,5.14796,-0.0173484
136.6,3.73704,5.17895,-0.0173308
137.2,3.75638,5.21998,-0.0170679
137.8,3.77638,5.27256,-0.0160318
138.4,3.79519,5.32409,-0.0162597
139,3.81508,5.3732,-0.0173908
139.6,3.83423,5.4377,-0.0173544
140.2,3.85279,5.49267,-0.0173504
140.8,3.87232,5.5493,-0.01735
141.4,3.89186,5.61046,-0.01735
142,3.91107,5.67755,-0.01735
142.6,3.93111,5.75383,-0.01735
143.2,3.95037,5.82331,-0.01735
143.8,3.96983,5.88837,-0.01735
144.4,3.98925,5.97754,-0.01735
145,4.00873,6.0507,-0.017347
145.6,4.02779,6.13161,-0.0184913
146.2,4.04737,6.22519,-0.0186537
146.8,4.06654,6.2977,-0.0186683
147.4,4.0856,6.39021,-0.0186694
148,4.10509,6.46705,-0.0186643
148.6,4.12445,6.54826,-0.0186188
149.2,4.14349,6.61304,-0.0173385
149.8,4.16223,6.68552,-0.017352
150.4,4.18157,6.74043,-0.0173503
151,4.2006,6.79068,-0.0173503
151.6,4.2194,6.81534,-0.0173541
152.2,4.23846,6.83337,-0.0174059
152.8,4.25701,6.82302,-0.0164787
153.4,4.27557,6.79095,-0.0163645
154,4.29427,6.73527,-0.0163603
154.6,4.31314,6.65266,-0.01636
155.2,4.33139,6.56632,-0.0163655
155.8,4.34932,6.46766,-0.0164795
156.4,4.36772,6.37438,-0.0152598
157,4.38648,6.28084,-0.0153624
157.6,4.40485,6.19868,-0.0153721
158.2,4.42296,6.1267,-0.0153936
158.8,4.44049,6.05528,-0.0167443
159.4,4.45917,5.99617,-0.0166898
160,4.47829,5.93187,-0.0166896
160.6,4.49645,5.88725,-0.0166899
161.2,4.51498,5.84216,-0.01669
161.8,4.53311,5.80068,-0.01669
162.4,4.55075,5.76768,-0.01669
163,4.5694,5.74623,-0.01669
163.6,4.58838,5.71541,-0.01669
164.2,4.60688,5.70149,-0.01669
164.8,4.62572,5.68048,-0.0166901
165.4,4.64393,5.66392,-0.0166902
166,4.66239,5.64744,-0.016688
166.6,4.68059,5.63588,-0.0178163
167.2,4.69909,5.63495,-0.0179896
167.8,4.71793,5.63437,-0.0180082
168.4,4.73629,5.6283,-0.0180099
169,4.75463,5.62698,-0.01801
169.6,4.77317,5.61644,-0.01801
170.2,4.7916,5.63258,-0.0180092
170.8,4.80973,5.63142,-0.0179937
171.4,4.82851,5.62967,-0.0176853
172,4.84679,5.64075,-0.0170029
172.6,4.86544,5.64542,-0.0170189
173.2,4.8836,5.64541,-0.01702
173.8,4.90216,5.64883,-0.01702
174.4,4.92071,5.66099,-0.01702
175,4.93913,5.66512,-0.01702
175.6,4.95719,5.66993,-0.01702
176.2,4.97555,5.67821,-0.01702
176.8,4.9933,5.68614,-0.0170199
177.4,5.01213,5.69634,-0.0170182
178,5.03057,5.69445,-0.0170025
178.6,5.04903,5.70151,-0.0168795
179.2,5.06746,5.71459,-0.0156997
179.8,5.08535,5.73107,-0.015702
180.4,5.10388,5.73051,-0.0158255
181,5.12205,5.74274,-0.0171103
181.6,5.14054,5.75598,-0.0170244
182.2,5.15887,5.75539,-0.0169837
182.8,5.17717,5.77586,-0.0173865
183.4,5.19522,5.78819,-0.0173522
184,5.21355,5.78625,-0.0173501
184.6,5.23169,5.80451,-0.0173491
185.2,5.24965,5.81042,-0.0173325
185.8,5.26796,5.81909,-0.0180303
186.4,5.28593,5.83134,-0.0184264
187,5.30402,5.83649,-0.0170356
187.6,5.32241,5.85171,-0.0170206
188.2,5.34046,5.85499,-0.0170201
188.8,5.35864,5.86463,-0.01702
189.4,5.37663,5.8767,-0.01702
190,5.39483,5.8904,-0.01702
190.6,5.41279,5.90103,-0.01702
191.2,5.43102,5.89706,-0.01702
191.8,5.44899,5.90797,-0.01702
192.4,5.46707,5.92363,-0.01702
193,5.48525,5.93673,-0.01702
193.6,5.50345,5.94119,-0.01702
194.2,5.52105,5.95513,-0.01702
194.8,5.53923,5.95625,-0.01702
195.4,5.55741,5.97315,-0.01702
196,5.57536,5.97918,-0.01702
196.6,5.59347,5.98894,-0.01702
197.2,5.61129,5.99077,-0.01702
197.8,5.62921,6.00705,-0.01702
198.4,5.64737,6.01724,-0.0170199
199,5.66557,6.02741,-0.0170168
199.6,5.68332,6.02861,-0.0169101
200.2,5.70151,6.0484,-0.0159706
200.8,5.71917,6.0538,-0.0160267
201.4,5.7373,6.0652,-0.0160245
202,5.7555,6.0756,-0.0159865
202.6,5.77326,6.07561,-0.0170369
203.2,5.79134,6.08674,-0.017375
203.8,5.80906,6.09129,-0.0170102
204.4,5.82719,6.09935,-0.0170313
205,5.84506,6.10937,-0.0170339
205.6,5.86269,6.12367,-0.0170797
206.2,5.88091,6.13396,-0.0161051
206.8,5.8989,6.14445,-0.0157161
207.4,5.91622,6.15259,-0.0157077
208,5.93458,6.16079,-0.0156601
208.6,5.95275,6.1703,-0.016734
209.2,5.97063,6.17177,-0.0170169
209.8,5.98844,6.18879,-0.0170298
210.4,6.00603,6.1938,-0.0170301
211,6.02432,6.20737,-0.01703
211.6,6.0419,6.21446,-0.01703
212.2,6.06034,6.22241,-0.01703
212.8,6.07774,6.22585,-0.01703
213.4,6.09561,6.22579,-0.01703
214,6.11377,6.24165,-0.01703
214.6,6.13142,6.2511,-0.0170301
215.2,6.14949,6.25583,-0.017031
215.8,6.16738,6.26912,-0.0170415
216.4,6.18507,6.26935,-0.0171096
217,6.20322,6.28832,-0.0183448
217.6,6.22112,6.2905,-0.0183347
218.2,6.23868,6.29608,-0.0183391
218.8,6.25638,6.31132,-0.0183399
219.4,6.2742,6.31482,-0.01834
220,6.29242,6.32346,-0.01834
220.6,6.30993,6.3372,-0.01834
221.2,6.32788,6.33702,-0.01834
221.8,6.34569,6.3512,-0.0183379
222.4,6.36342,6.36271,-0.0193293
223,6.38168,6.37201,-0.019841
223.6,6.39928,6.38268,-0.0198674
224.2,6.41678,6.39046,-0.018458
224.8,6.43514,6.38813,-0.0182515
225.4,6.4519,6.39891,-0.0168075
226,6.47037,6.41265,-0.0170401
226.6,6.48846,6.42335,-0.0183514
227.2,6.50637,6.42843,-0.0171965
227.8,6.52332,6.43536,-0.0172332
228.4,6.54206,6.4427,-0.0172394
229,6.5595,6.45591,-0.0172401
229.6,6.57741,6.46316,-0.0172415
230.2,6.59517,6.47056,-0.0172509
230.8,6.61311,6.47788,-0.0172416
231.4,6.63053,6.48365,-0.0185417
232,6.64869,6.48013,-0.0185584
232.6,6.66647,6.49702,-0.0185599
233.2,6.68429,6.51003,-0.01856
233.8,6.70198,6.51488,-0.0185597
234.4,6.71969,6.51938,-0.0185588
235,6.7375,6.53052,-0.0185779
235.6,6.75544,6.53962,-0.0191289
236.2,6.77326,6.55133,-0.0198026
236.8,6.79082,6.55253,-0.0211579
237.4,6.80857,6.56069,-0.021928
238,6.82642,6.56941,-0.0227475
238.6,6.84417,6.57315,-0.0228274
239.2,6.86179,6.57972,-0.0214057
239.8,6.87951,6.58823,-0.0211762
240.4,6.89764,6.59915,-0.019785
241,6.91502,6.59614,-0.0194792
241.6,6.93288,6.60469,-0.0183981
242.2,6.95077,6.6152,-0.0184485
242.8,6.96854,6.62271,-0.0184492
243.4,6.98621,6.62631,-0.0184254
244,7.00417,6.63923,-0.0180297
244.6,7.02173,6.63953,-0.0183541
245.2,7.03957,6.64893,-0.0184336
245.8,7.05741,6.64963,-0.0184602
246.4,7.07541,6.65759,-0.0185461
247,7.09293,6.66657,-0.0197826
247.6,7.11055,6.67035,-0.0198233
248.2,7.12846,6.67942,-0.0210734
248.8,7.14541,6.69313,-0.0210791
249.4,7.16387,6.70029,-0.02108
250,7.18149,6.70583,-0.0210775
250.6,7.19921,6.70728,-0.0210323
251.2,7.21665,6.71756,-0.0220372
251.8,7.23499,6.72128,-0.0223924
252.4,7.25228,6.72666,-0.0224287
253,7.27019,6.72457,-0.0216939
253.6,7.28809,6.73287,-0.0210679
254.2,7.30584,6.74084,-0.0210871
254.8,7.32362,6.73774,-0.0210898
255.4,7.34112,6.74653,-0.0210901
256,7.35908,6.75402,-0.0210919
256.6,7.3765,6.75964,-0.0211222
257.2,7.39441,6.76543,-0.0224723
257.8,7.41212,6.77401,-0.0224055
258.4,7.42984,6.77264,-0.0224089
259,7.44724,6.77477,-0.0224114
259.6,7.46498,6.79101,-0.0224226
260.2,7.48276,6.79918,-0.0237009
260.8,7.50044,6.79951,-0.0237063
261.4,7.51825,6.80527,-0.0237188
262,7.53597,6.80609,-0.0237263
262.6,7.55358,6.81314,-0.0237866
263.2,7.57141,6.81462,-0.0226302
263.8,7.58886,6.8174,-0.0223987
264.4,7.60689,6.82859,-0.0224007
265,7.62477,6.83705,-0.0224078
265.6,7.6422,6.84384,-0.0236641
266.2,7.66,6.85007,-0.0237033
266.8,7.67788,6.85403,-0.0237183
267.4,7.69549,6.86236,-0.0237196
268,7.71323,6.86894,-0.0237198
268.6,7.73079,6.87294,-0.0238956
269.2,7.74862,6.87686,-0.0251343
269.8,7.76628,6.88151,-0.0250627
270.4,7.78395,6.88468,-0.0250977
271,7.80144,6.89162,-0.0263417
271.6,7.81958,6.90326,-0.0263451
272.2,7.83709,6.90818,-0.0263075
272.8,7.85479,6.91383,-0.0271302
273.4,7.87264,6.91443,-0.0275362
274,7.89037,6.92518,-0.0263561
274.6,7.9079,6.93182,-0.026414
275.2,7.92566,6.93428,-0.0277597
275.8,7.94332,6.93892,-0.0276709
276.4,7.96132,6.94712,-0.0276692
277,7.97892,6.95471,-0.0276665
277.6,7.99667,6.96564,-0.0276368
278.2,8.01423,6.97045,-0.0284277
278.8,8.03213,6.97598,-0.028999
279.4,8.04988,6.98453,-0.0289926
280,8.06753,6.98981,-0.0289924
280.6,8.08503,6.99464,-0.0290065
281.2,8.10284,7.00635,-0.0284651
281.8,8.12091,7.00867,-0.0289554
282.4,8.13837,7.01192,-0.0289694
283,8.15583,7.02479,-0.029587
283.6,8.17395,7.03598,-0.0302899
284.2,8.1914,7.04731,-0.0302662
284.8,8.20947,7.05673,-0.0315173
285.4,8.227,7.0634,-0.0317088
286,8.24478,7.07009,-0.0322197
286.6,8.2625,7.07872,-0.0330604
287.2,8.28043,7.08493,-0.0332075
287.8,8.29729,7.09078,-0.0346615
288.4,8.31589,7.10387,-0.0331993
289,8.33342,7.11079,-0.0341797
289.6,8.35123,7.1178,-0.0344839
290.2,8.36881,7.12145,-0.0345085
290.8,8.3867,7.12747,-0.0347886
291.4,8.40445,7.13221,-0.0358069
292,8.4222,7.14053,-0.0353969
292.6,8.43993,7.15488,-0.0344774
293.2,8.45774,7.16496,-0.0348962
293.8,8.47533,7.17652,-0.0358014
294.4,8.4932,7.19327,-0.0357983
295,8.51084,7.19549,-0.0365622
295.6,8.52873,7.20347,-0.0370745
296.2,8.54634,7.21495,-0.0381029
296.8,8.5642,7.22523,-0.0386446
297.4,8.58164,7.23474,-0.0399718
298,8.59988,7.24335,-0.0399683
298.6,8.61765,7.25432,-0.0413799
299.2,8.63537,7.26218,-0.0415914
299.8,8.65311,7.27925,-0.042821
300.4,8.67099,7.29542,-0.0427757
301,8.68853,7.30301,-0.0439606
301.6,8.7066,7.31315,-0.0440131
302.2,8.72441,7.3242,-0.0428912
302.8,8.74225,7.33975,-0.0441952
303.4,8.75986,7.35041,-0.044209
304,8.77765,7.36792,-0.0446446
304.6,8.79537,7.38058,-0.0445309
305.2,8.81334,7.38741,-0.0462317
305.8,8.83109,7.41303,-0.047579
306.4,8.84898,7.42511,-0.0480852
307,8.86614,7.4355,-0.0495165
307.6,8.8845,7.45221,-0.0506075
308.2,8.90225,7.47126,-0.04967
308.8,8.92008,7.49633,-0.0503323
309.4,8.9381,7.51049,-0.0509188
310,8.95597,7.52927,-0.0519263
310.6,8.97311,7.53957,-0.0538379
311.2,8.99135,7.56003,-0.0552463
311.8,9.00929,7.57746,-0.0560434
312.4,9.02711,7.59478,-0.0573051
313,9.0449,7.61847,-0.0591342
313.6,9.06287,7.62863,-0.0608023
314.2,9.0807,7.64248,-0.0612848
314.8,9.09831,7.65395,-0.061253
315.4,9.11616,7.66381,-0.062408
316,9.13381,7.65915,-0.0629914
316.6,9.15165,7.64492,-0.0642776
317.2,9.16937,7.60529,-0.0645603
317.8,9.18669,7.5507,-0.0657469
318.4,9.20493,7.49197,-0.067125
319,9.2222,7.44343,-0.0687484
319.6,9.23979,7.39347,-0.0704523
320.2,9.25778,7.34613,-0.0711153
320.8,9.27533,7.30598,-0.0727928
321.4,9.29297,7.26809,-0.0742089
322,9.31055,7.24063,-0.0763281
322.6,9.3286,7.21412,-0.0784705
323.2,9.34609,7.19624,-0.0807513
323.8,9.3642,7.19069,-0.0826368
324.4,9.38189,7.16624,-0.0837235
325,9.39934,7.16069,-0.0848302
325.6,9.4174,7.15067,-0.0867858
326.2,9.43485,7.14299,-0.0889784
326.8,9.45271,7.13451,-0.090963
327.4,9.47076,7.12692,-0.0934885
328,9.48844,7.1237,-0.0957367
328.6,9.50649,7.11323,-0.0980095
329.2,9.52403,7.10465,-0.100225
329.8,9.54219,7.11245,-0.103081
330.4,9.55956,7.10694,-0.10617
331,9.57775,7.11246,-0.108445
331.6,9.59576,7.12485,-0.111761
332.2,9.61363,7.1247,-0.11404
332.8,9.63142,7.12646,-0.116355
333.4,9.64896,7.13561,-0.119193
334,9.66663,7.13093,-0.121347
334.6,9.68505,7.13187,-0.123943
335.2,9.70222,7.13271,-0.126728
335.8,9.7205,7.13929,-0.13038
336.4,9.73863,7.14285,-0.133704
337,9.75636,7.14718,-0.136724
337.6,9.7744,7.14446,-0.139641
338.2,9.79247,7.14446,-0.144323
338.8,9.81038,7.14799,-0.148135
339.4,9.82829,7.14707,-0.151592
340,9.84589,7.14524,-0.156141
340.6,9.86379,7.14241,-0.159905
341.2,9.88191,7.14061,-0.16483
341.8,9.89951,7.14244,-0.168341
342.4,9.91788,7.14091,-0.173115
343,9.93528,7.14375,-0.176353
343.6,9.95368,7.14216,-0.180702
344.2,9.97166,7.14415,-0.185485
344.8,9.9894,7.13671,-0.189716
345.4,10.0072,7.13315,-0.195322
346,10.0252,7.13206,-0.200173
346.6,10.043,7.12747,-0.204807
347.2,10.061,7.12137,-0.208724
347.8,10.0787,7.11099,-0.213921
348.4,10.0966,7.11057,-0.218473
349,10.1145,7.09966,-0.224064
349.6,10.1327,7.09862,-0.229668
350.2,10.1504,7.09169,-0.235762
350.8,10.1685,7.08517,-0.243383
351.4,10.1863,7.07683,-0.250734
352,10.2042,7.07587,-0.257595
352.6,10.2221,7.0582,-0.262811
353.2,10.2404,7.05324,-0.270403
353.8,10.2581,7.04291,-0.277194
354.4,10.2763,7.03831,-0.284405
355,10.2942,7.02779,-0.291068
355.6,10.3121,7.01822,-0.297872
356.2,10.3303,7.01077,-0.30513
356.8,10.3478,6.99826,-0.31229
357.4,10.3661,6.99662,-0.32204
358,10.3839,6.98866,-0.329511
358.6,10.4019,6.98604,-0.339371
359.2,10.4197,6.97839,-0.346973
359.8,10.4379,6.97211,-0.356576
360.4,10.456,6.96789,-0.365213
361,10.4738,6.95666,-0.373779
361.6,10.492,6.95376,-0.385194
362.2,10.5096,6.94851,-0.396465
362.8,10.5278,6.9368,-0.410502
363.4,10.5458,6.92887,-0.421977
364,10.5641,6.92353,-0.436998
364.6,10.5819,6.92515,-0.448883
365.2,10.5999,6.92042,-0.464926
365.8,10.6182,6.90488,-0.47898
366.4,10.6359,6.90387,-0.495901
367,10.6539,6.89998,-0.513023
367.6,10.672,6.89348,-0.531227
368.2,10.6902,6.87789,-0.551571
368.8,10.7079,6.87142,-0.569353
369.4,10.726,6.85859,-0.590977
370,10.7442,6.83261,-0.609761
370.6,10.7621,6.79956,-0.634296
371.2,10.7802,6.7728,-0.654048
371.8,10.7976,6.74455,-0.677757
372.4,10.8154,6.70889,-0.698942
373,10.8338,6.6521,-0.722652
373.6,10.8517,6.59651,-0.746257
374.2,10.8698,6.53675,-0.7695
374.8,10.8878,6.4723,-0.794702
375.4,10.9056,6.42171,-0.814451
376,10.9237,6.36973,-0.839446
376.6,10.9414,6.31823,-0.857683
377.2,10.9591,6.27788,-0.880501
377.8,10.9775,6.24549,-0.900003
378.4,10.9951,6.22053,-0.920933
379,11.0134,6.20526,-0.941259
379.6,11.0316,6.20034,-0.959892
380.2,11.0496,6.19335,-0.978868
380.8,11.068,6.19226,-0.994998
381.4,11.086,6.19557,-1.01424
382,11.1041,6.20248,-1.02899
382.6,11.1222,6.21209,-1.04621
383.2,11.1404,6.22301,-1.05947
383.8,11.1587,6.23431,-1.07547
384.4,11.1768,6.2514,-1.08824
385,11.1951,6.25578,-1.10263
385.6,11.2134,6.27082,-1.11591
386.2,11.2316,6.28497,-1.12761
386.8,11.2496,6.30043,-1.14046
387.4,11.2678,6.29538,-1.15187
388,11.2861,6.3023,-1.16582
388.6,11.3043,6.30156,-1.17649
389.2,11.3227,6.31069,-1.18967
389.8,11.3408,6.30791,-1.19941
390.4,11.3592,6.31745,-1.21187
391,11.3774,6.31857,-1.22184
391.6,11.3955,6.31911,-1.23252
392.2,11.4135,6.31123,-1.2432
392.8,11.4323,6.30638,-1.25345
393.4,11.4501,6.30405,-1.26425
394,11.4684,6.29859,-1.27419
394.6,11.4867,6.2925,-1.28578
395.2,11.5047,6.29031,-1.2948
395.8,11.523,6.2786,-1.30625
396.4,11.5414,6.28212,-1.31525
397,11.5593,6.27578,-1.32573
397.6,11.5779,6.27005,-1.33373
398.2,11.5962,6.25989,-1.34389
398.8,11.6145,6.25054,-1.35304
399.4,11.6326,6.24398,-1.36223
400,11.6503,6.22953,-1.37168
400.6,11.6687,6.2284,-1.38057
401.2,11.6879,6.22086,-1.39178
401.8,11.7058,6.21391,-1.40054
402.4,11.724,6.2101,-1.41116
403,11.7425,6.20045,-1.4189
403.6,11.761,6.1955,-1.4294
404.2,11.779,6.18605,-1.43661
404.8,11.7977,6.17448,-1.44686
405.4,11.8158,6.1698,-1.45552
406,11.834,6.16459,-1.46555
406.6,11.8524,6.16109,-1.4751
407.2,11.8708,6.15342,-1.4834
407.8,11.8891,6.14632,-1.49282
408.4,11.9076,6.1376,-1.50128
409,11.9258,6.12276,-1.51217
409.6,11.9442,6.12961,-1.51929
410.2,11.9624,6.1229,-1.52971
410.8,11.981,6.11152,-1.53761
411.4,11.9991,6.10021,-1.54708
412,12.0174,6.10122,-1.55508
412.6,12.0361,6.09538,-1.56469
413.2,12.0537,6.09807,-1.57346
413.8,12.0727,6.0925,-1.58265
414.4,12.0912,6.08848,-1.59159
415,12.1096,6.0816,-1.59973
415.6,12.1279,6.07992,-1.60959
416.2,12.1463,6.07948,-1.61823
416.8,12.1649,6.07222,-1.62896
417.4,12.1831,6.06546,-1.637
418,12.2016,6.06193,-1.64708
418.6,12.2201,6.06409,-1.65454
419.2,12.2388,6.06143,-1.66313
419.8,12.257,6.06196,-1.67083
420.4,12.2756,6.06026,-1.6801
421,12.2939,6.05512,-1.68882
421.6,12.3124,6.05459,-1.69796
422.2,12.3307,6.06026,-1.70719
422.8,12.3495,6.05963,-1.71663
423.4,12.3678,6.06504,-1.72661
424,12.3862,6.068,-1.73451
424.6,12.4048,6.06561,-1.74446
425.2,12.4234,6.07048,-1.7523
425.8,12.442,6.06618,-1.76097
426.4,12.4603,6.0764,-1.76822
427,12.4788,6.08153,-1.7781
427.6,12.4971,6.07991,-1.78699
428.2,12.5156,6.08532,-1.79692
428.8,12.5337,6.08843,-1.80525
429.4,12.5522,6.09745,-1.81269
430,12.5706,6.10504,-1.82158
430.6,12.5889,6.10803,-1.82937
431.2,12.6089,6.1053,-1.83947
431.8,12.6271,6.10406,-1.84745
432.4,12.6457,6.1197,-1.85777
433,12.6643,6.13012,-1.86568
433.6,12.6827,6.13511,-1.87578
434.2,12.7013,6.14391,-1.8838
434.8,12.72,6.15087,-1.89401
435.4,12.7383,6.15867,-1.902
436,12.7569,6.16785,-1.91127
436.6,12.7758,6.1757,-1.92007
437.2,12.7941,6.19024,-1.92895
437.8,12.813,6.19412,-1.93738
438.4,12.8315,6.20584,-1.94615
439,12.85,6.21722,-1.95555
439.6,12.8686,6.22849,-1.96256
440.2,12.8873,6.23656,-1.97297
440.8,12.9059,6.24084,-1.98144
441.4,12.9248,6.25226,-1.99194
442,12.9433,6.27162,-1.99966
442.6,12.962,6.28517,-2.01099
443.2,12.9806,6.29594,-2.0198
443.8,12.9993,6.31034,-2.03062
444.4,13.0179,6.3361,-2.03951
445,13.0366,6.34037,-2.04999
445.6,13.0552,6.36101,-2.05778
446.2,13.0741,6.37687,-2.06694
446.8,13.0925,6.37946,-2.0762
447.4,13.1109,6.40865,-2.08545
448,13.1301,6.41871,-2.09627
448.6,13.1487,6.4362,-2.10544
449.2,13.1672,6.45196,-2.11657
449.8,13.1859,6.46431,-2.12533
450.4,13.2048,6.48763,-2.13625
451,13.2235,6.50525,-2.14459
451.6,13.2421,6.51338,-2.15609
452.2,13.2608,6.54063,-2.16542
452.8,13.2796,6.56377,-2.17689
453.4,13.2981,6.56704,-2.1863
454,13.3173,6.59654,-2.19807
454.6,13.3359,6.60577,-2.20815
455.2,13.3548,6.6303,-2.21934
455.8,13.3732,6.65425,-2.22977
456.4,13.3922,6.66652,-2.2405
457,13.411,6.69146,-2.25134
457.6,13.4296,6.71042,-2.26138
458.2,13.4482,6.72898,-2.27353
458.8,13.4672,6.75317,-2.28388
459.4,13.4858,6.77054,-2.29636
460,13.5045,6.80316,-2.30628
460.6,13.5235,6.81271,-2.3198
461.2,13.5423,6.83507,-2.33039
461.8,13.561,6.8578,-2.34432
462.4,13.5799,6.87301,-2.35538
463,13.5989,6.89808,-2.3692
463.6,13.6175,6.91371,-2.38036
464.2,13.6365,6.93338,-2.3937
464.8,13.6551,6.95297,-2.40567
465.4,13.6739,6.96648,-2.41899
466,13.6924,6.98611,-2.43252
466.6,13.7116,7.00138,-2.44497
467.2,13.7302,7.01732,-2.4553
467.8,13.7493,7.03339,-2.46465
468.4,13.768,7.0476,-2.47926
469,13.7866,7.05511,-2.49439
469.6,13.8054,7.0577,-2.51513
470.2,13.8245,7.07319,-2.52954
470.8,13.843,7.07153,-2.54546
471.4,13.8621,7.07282,-2.55816
472,13.8809,7.08237,-2.57578
472.6,13.8995,7.07917,-2.59093
473.2,13.9182,7.07834,-2.60908
473.8,13.9372,7.06669,-2.6235
474.4,13.9559,7.06938,-2.63605
475,13.9746,7.06006,-2.64807
475.6,13.9933,7.05253,-2.6614
476.2,14.0122,7.03958,-2.67793
476.8,14.0304,7.01883,-2.69312
477.4,14.0491,6.99665,-2.70947
478,14.0677,6.97938,-2.723
478.6,14.0864,6.95581,-2.74033
479.2,14.1056,6.92727,-2.75515
479.8,14.1247,6.9036,-2.77368
480.4,14.1433,6.86293,-2.78812
481,14.1621,6.82453,-2.80804
481.6,14.181,6.76987,-2.82288
482.2,14.1995,6.73549,-2.84059
482.8,14.2181,6.68341,-2.85506
483.4,14.2369,6.63865,-2.8724
484,14.2556,6.58215,-2.88815
484.6,14.2742,6.52699,-2.90526
485.2,14.2923,6.46741,-2.92141
485.8,14.3108,6.39193,-2.93649
486.4,14.3302,6.31937,-2.95427
487,14.3485,6.23832,-2.96894
487.6,14.3674,6.15634,-2.9865
488.2,14.3861,6.07514,-3.00053
488.8,14.4048,5.98539,-3.01848
489.4,14.423,5.90149,-3.03206
490,14.4417,5.80682,-3.04934
490.6,14.4596,5.70399,-3.06187
491.2,14.4782,5.61649,-3.07796
491.8,14.4971,5.51284,-3.09197
492.4,14.5157,5.40052,-3.10728
493,14.5343,5.29748,-3.12076
493.6,14.5528,5.18034,-3.13416
494.2,14.5715,5.07139,-3.14778
494.8,14.5898,4.95709,-3.16019
495.4,14.6085,4.84614,-3.17438
496,14.6272,4.72688,-3.18588
496.6,14.6455,4.60589,-3.19882
497.2,14.664,4.48737,-3.20886
497.8,14.6824,4.37537,-3.22148
498.4,14.7011,4.24687,-3.23149
499,14.7191,4.13333,-3.24319
499.6,14.738,4.02187,-3.25301
500.2,14.7568,3.90568,-3.2637
500.8,14.775,3.786,-3.27251
501.4,14.7936,3.67172,-3.2809
502,14.8121,3.55682,-3.28929
502.6,14.8308,3.44005,-3.29729
503.2,14.8494,3.32409,-3.30583
503.8,14.8678,3.2277,-3.31198
504.4,14.8863,3.11993,-3.31831
505,14.9051,3.02101,-3.32328
505.6,14.9238,2.9259,-3.33005
506.2,14.9423,2.83874,-3.3355
506.8,14.9609,2.75167,-3.34153
507.4,14.9797,2.67265,-3.34542
508,14.9982,2.60903,-3.34904
508.6,15.0169,2.54312,-3.35297
509.2,15.036,2.48583,-3.35653
509.8,15.0545,2.42998,-3.35993
510.4,15.0734,2.37915,-3.36235
511,15.0925,2.34002,-3.36465
511.6,15.1111,2.29606,-3.36747
512.2,15.1301,2.25035,-3.36942
512.8,15.149,2.21496,-3.37119
513.4,15.1679,2.18608,-3.3716
514,15.1866,2.15985,-3.37328
514.6,15.2058,2.12642,-3.3739
515.2,15.2246,2.10879,-3.37473
515.8,15.2437,2.07187,-3.37527
516.4,15.2619,2.05756,-3.37549
517,15.281,2.03423,-3.37697
517.6,15.3003,2.01729,-3.37809
518.2,15.3196,1.9998,-3.37822
518.8,15.3386,1.97488,-3.3798
519.4,15.3575,1.97138,-3.3801
520,15.3766,1.9601,-3.38126
520.6,15.3956,1.95194,-3.3812
521.2,15.4148,1.94106,-3.38121
521.8,15.4337,1.93556,-3.38255
522.4,15.4529,1.92553,-3.38252
523,15.4718,1.92035,-3.38254
523.6,15.4908,1.91454,-3.38275
524.2,15.51,1.9079,-3.38316
524.8,15.5291,1.90296,-3.38313
525.4,15.5483,1.89746,-3.38424
526,15.5674,1.89411,-3.38448
526.6,15.5863,1.89913,-3.38452
527.2,15.6054,1.89847,-3.38565
527.8,15.6246,1.8872,-3.38446
528.4,15.644,1.88561,-3.38449
529,15.663,1.88506,-3.38449
529.6,15.6819,1.88048,-3.38449
530.2,15.7012,1.87593,-3.38449
530.8,15.72,1.87785,-3.38445
531.4,15.7394,1.88459,-3.38555
532,15.7586,1.87859,-3.38738
532.6,15.7777,1.87992,-3.38832
533.2,15.7974,1.87959,-3.38794
533.8,15.8163,1.88052,-3.38608
534.4,15.8354,1.8825,-3.38437
535,15.8547,1.87718,-3.38307
535.6,15.8736,1.87673,-3.38302
536.2,15.8929,1.87975,-3.38183
536.8,15.9123,1.89321,-3.38165
537.4,15.9308,1.89017,-3.38164
538,15.9506,1.89151,-3.38164
538.6,15.9696,1.88932,-3.38175
539.2,15.9889,1.89054,-3.38304
539.8,16.0079,1.89206,-3.38297
540.4,16.0271,1.8942,-3.38296
541,16.0461,1.89983,-3.38296
541.6,16.0655,1.88712,-3.38296
542.2,16.0847,1.9008,-3.38296
542.8,16.1038,1.90724,-3.38296
543.4,16.123,1.89523,-3.38296
544,16.1423,1.89827,-3.38295
544.6,16.1615,1.90456,-3.3833
545.2,16.1807,1.89944,-3.38349
545.8,16.1998,1.90579,-3.38432
546.4,16.2189,1.90874,-3.38428
547,16.238,1.9091,-3.38428
547.6,16.2576,1.89964,-3.38428
548.2,16.2768,1.90032,-3.38428
548.8,16.2959,1.90577,-3.38428
549.4,16.3151,1.92099,-3.38428
550,16.3341,1.91322,-3.38428
550.6,16.3536,1.91153,-3.38431
551.2,16.373,1.91324,-3.38559
551.8,16.3922,1.91934,-3.38559
552.4,16.4112,1.9239,-3.38559
553,16.4306,1.91865,-3.38559
553.6,16.45,1.91771,-3.38559
554.2,16.4688,1.93252,-3.38559
554.8,16.4881,1.9468,-3.38559
555.4,16.5077,1.9402,-3.38559
556,16.5267,1.93949,-3.38559
556.6,16.5462,1.94239,-3.38559
557.2,16.5652,1.94612,-3.38559
557.8,16.5847,1.95921,-3.3856
558.4,16.6037,1.97099,-3.38569
559,16.623,1.96845,-3.3843
559.6,16.6423,1.97335,-3.38454
560.2,16.6617,1.9772,-3.38561
560.8,16.681,1.99285,-3.38553
561.4,16.7,1.99296,-3.38632
562,16.7195,2.00321,-3.38626
562.6,16.7388,2.01107,-3.38626
563.2,16.7581,2.02442,-3.38636
563.8,16.7774,2.0269,-3.38496
564.4,16.797,2.03205,-3.38291
565,16.8164,2.03566,-3.38253
565.6,16.8357,2.04745,-3.38441
566.2,16.8547,2.06486,-3.38676
566.8,16.8743,2.06879,-3.38867
567.4,16.8937,2.0674,-3.38982
568,16.9127,2.07978,-3.39064
568.6,16.932,2.08767,-3.39064
569.2,16.9515,2.0933,-3.39064
569.8,16.9707,2.10413,-3.39064
570.4,16.9902,2.12038,-3.39064
571,17.0093,2.12161,-3.39064
571.6,17.0288,2.12989,-3.39064
572.2,17.0484,2.12827,-3.39064
572.8,17.0673,2.14149,-3.39064
573.4,17.087,2.15381,-3.39003
574,17.1062,2.1561,-3.38931
574.6,17.1256,2.16206,-3.38933
575.2,17.1453,2.17052,-3.38941
575.8,17.1644,2.17642,-3.39067
576.4,17.1837,2.18138,-3.39064
577,17.2032,2.18743,-3.39064
577.6,17.2226,2.20629,-3.39064
578.2,17.2418,2.21993,-3.39044
578.8,17.2615,2.23286,-3.38883
579.4,17.2808,2.23342,-3.38887
580,17.3003,2.242,-3.38897
580.6,17.3195,2.24695,-3.39102
581.2,17.3388,2.25818,-3.39287
581.8,17.3584,2.2758,-3.39446
582.4,17.3777,2.27935,-3.39454
583,17.3973,2.29486,-3.39562
583.6,17.4166,2.30925,-3.39462
584.2,17.436,2.3248,-3.3946
584.8,17.4545,2.34415,-3.3946
585.4,17.475,2.35351,-3.3946
586,17.4943,2.37441,-3.3946
586.6,17.5138,2.38762,-3.3946
587.2,17.5332,2.40985,-3.3946
587.8,17.5528,2.42514,-3.39602
588.4,17.5721,2.43705,-3.396
589,17.5913,2.43369,-3.39737
589.6,17.6111,2.45705,-3.39745
590.2,17.6305,2.46987,-3.39789
590.8,17.6502,2.47915,-3.3988
591.4,17.6692,2.48076,-3.39839
592,17.6887,2.48095,-3.39748
592.6,17.7083,2.47027,-3.39793
593.2,17.7275,2.46827,-3.39877
593.8,17.7471,2.45024,-3.3987
594.4,17.7663,2.4317,-3.40116
595,17.7857,2.39626,-3.4015
595.6,17.805,2.3661,-3.40148
596.2,17.8244,2.34974,-3.40257
596.8,17.8435,2.3121,-3.40229
597.4,17.863,2.28018,-3.4015
598,17.8824,2.26802,-3.40151
598.6,17.9019,2.24224,-3.40175
599.2,17.9214,2.2255,-3.40286
599.8,17.9403,2.20299,-3.40283
600.4,17.9601,2.1843,-3.40282
601,17.9795,2.17113,-3.40274
601.6,17.9989,2.14601,-3.4041
602.2,18.018,2.13515,-3.40415
602.8,18.0377,2.11704,-3.40415
603.4,18.0571,2.10239,-3.40415
604,18.0763,2.08669,-3.40418
604.6,18.0959,2.07227,-3.40557
605.2,18.1152,2.05808,-3.40548
605.8,18.1347,2.03769,-3.40548
606.4,18.154,2.03075,-3.4059
607,18.1738,2.01515,-3.40772
607.6,18.1928,2.00507,-3.41128
608.2,18.2125,1.99625,-3.41222
608.8,18.2318,1.97936,-3.40932
609.4,18.2513,1.96279,-3.4078
610,18.2707,1.94729,-3.40665
610.6,18.2905,1.94001,-3.40574
611.2,18.3096,1.92753,-3.40536
611.8,18.3296,1.92186,-3.40598
612.4,18.3488,1.91599,-3.40664
613,18.3682,1.91973,-3.40661
613.6,18.3879,1.91292,-3.40756
614.2,18.4074,1.90205,-3.40766
614.8,18.4269,1.89966,-3.40766
615.4,18.4465,1.89604,-3.40766
616,18.466,1.89206,-3.40667
616.6,18.4851,1.89479,-3.40666
617.2,18.5043,1.88576,-3.40702
617.8,18.5245,1.88235,-3.407
618.4,18.5442,1.87411,-3.40743
619,18.5635,1.8648,-3.4083
619.6,18.5831,1.86213,-3.40831
620.2,18.6024,1.85328,-3.40829
620.8,18.6222,1.85322,-3.40946
621.4,18.6416,1.85024,-3.4103
622,18.6612,1.84764,-3.41029
622.6,18.6805,1.84434,-3.41029
623.2,18.7001,1.8393,-3.41032
623.8,18.7198,1.84346,-3.41094
624.4,18.7391,1.83346,-3.41162
625,18.7588,1.82032,-3.41161
625.6,18.7784,1.81447,-3.41161
626.2,18.7981,1.8101,-3.4116
626.8,18.8175,1.79784,-3.41145
627.4,18.8373,1.80702,-3.41106
628,18.8567,1.80267,-3.41159
628.6,18.8764,1.79013,-3.41162
629.2,18.8958,1.77624,-3.41162
629.8,18.9155,1.77493,-3.41162
630.4,18.9351,1.76732,-3.41162
631,18.9545,1.75999,-3.41161
631.6,18.9742,1.75621,-3.41237
632.2,18.9938,1.74322,-3.41293
632.8,19.0135,1.72847,-3.41293
633.4,19.0326,1.72946,-3.41293
634,19.0525,1.7266,-3.41293
634.6,19.0722,1.7137,-3.41293
635.2,19.0915,1.71202,-3.41293
635.8,19.1115,1.70223,-3.41293
636.4,19.1309,1.69437,-3.41295
637,19.1502,1.68747,-3.41342
637.6,19.1701,1.68773,-3.41358
638.2,19.1897,1.67725,-3.41356
638.8,19.2094,1.66536,-3.41359
639.4,19.2289,1.66033,-3.41359
640,19.2483,1.66005,-3.41359
640.6,19.2681,1.65007,-3.41359
641.2,19.2873,1.64634,-3.41362
641.8,19.3067,1.63457,-3.41282
642.4,19.3261,1.63153,-3.41365
643,19.3458,1.62347,-3.41356
643.6,19.3657,1.62119,-3.41431
644.2,19.3857,1.61323,-3.41425
644.8,19.4053,1.60728,-3.41425
645.4,19.425,1.60382,-3.41425
646,19.4448,1.58632,-3.41424
646.6,19.4642,1.58096,-3.41462
647.2,19.4842,1.57976,-3.41528
647.8,19.5039,1.58025,-3.41557
648.4,19.5234,1.56641,-3.41558
649,19.5429,1.56089,-3.41565
649.6,19.5625,1.55489,-3.41582
650.2,19.5824,1.55195,-3.41588
650.8,19.6018,1.54778,-3.41589
651.4,19.6216,1.5347,-3.41589
652,19.6412,1.52819,-3.41589
652.6,19.6609,1.52497,-3.41589
653.2,19.6806,1.52065,-3.41589
653.8,19.7004,1.51379,-3.41584
654.4,19.7199,1.50484,-3.41683
655,19.7398,1.50093,-3.41688
655.6,19.7593,1.49232,-3.41688
656.2,19.7789,1.47738,-3.41688
656.8,19.7987,1.47721,-3.41689
657.4,19.8178,1.47087,-3.41706
658,19.8378,1.47015,-3.41684
658.6,19.8575,1.4582,-3.41688
659.2,19.8773,1.44517,-3.41688
659.8,19.8971,1.45458,-3.41688
660.4,19.9165,1.43636,-3.4169
661,19.9363,1.43896,-3.41715
661.6,19.956,1.42766,-3.41821
662.2,19.9756,1.42586,-3.4182
662.8,19.9953,1.41366,-3.41818
663.4,20.015,1.40641,-3.41721
664,20.0346,1.40484,-3.41721
664.6,20.0546,1.38828,-3.41721
665.2,20.0739,1.37607,-3.4169
665.8,20.0936,1.37574,-3.41688
666.4,20.1135,1.37151,-3.41822
667,20.1332,1.36111,-3.4182
667.6,20.153,1.35374,-3.4182
668.2,20.1727,1.35145,-3.41821
668.8,20.1924,1.34618,-3.41913
669.4,20.2119,1.32538,-3.41917
670,20.2318,1.32657,-3.41918
670.6,20.2514,1.31709,-3.41918
671.2,20.2712,1.30998,-3.41917
671.8,20.2909,1.30024,-3.41909
672.4,20.3106,1.28418,-3.41815
673,20.3302,1.27236,-3.4182
673.6,20.3499,1.26623,-3.4182
674.2,20.3696,1.26295,-3.41817
674.8,20.3893,1.25166,-3.41856
675.4,20.4091,1.24695,-3.41854
676,20.4289,1.23966,-3.41866
676.6,20.4484,1.23037,-3.41957
677.2,20.4685,1.21515,-3.41952
677.8,20.4879,1.21085,-3.41953
678.4,20.5076,1.19814,-3.41886
679,20.5272,1.18848,-3.41822
679.6,20.5471,1.18609,-3.41815
680.2,20.567,1.17401,-3.41893
680.8,20.5866,1.16365,-3.41886
681.4,20.6057,1.14668,-3.41875
682,20.6254,1.14468,-3.41792
682.6,20.6455,1.13798,-3.41819
683.2,20.6655,1.12537,-3.41818
683.8,20.6851,1.11128,-3.41896
684.4,20.7045,1.09734,-3.41952
685,20.7246,1.08767,-3.41952
685.6,20.744,1.07727,-3.41994
686.2,20.7641,1.06291,-3.42083
686.8,20.7836,1.05983,-3.42084
687.4,20.8033,1.04611,-3.42084
688,20.823,1.04097,-3.42084
688.6,20.843,1.03104,-3.42181
689.2,20.8627,1.02317,-3.42215
689.8,20.8825,1.0183,-3.42215
690.4,20.9025,1.00227,-3.42215
691,20.922,0.9906,-3.42215
691.6,20.9419,0.98048,-3.42215
692.2,20.9615,0.967154,-3.42216
692.8,20.9811,0.96408,-3.42223
693.4,21.0009,0.954443,-3.42111
694,21.0209,0.950659,-3.42115
694.6,21.0403,0.948799,-3.42092
695.2,21.0602,0.938201,-3.42084
695.8,21.0799,0.928241,-3.42083
696.4,21.0996,0.919645,-3.42083
697,21.1195,0.920468,-3.42083
697.6,21.1391,0.910179,-3.42082
698.2,21.1589,0.895219,-3.42074
698.8,21.1788,0.885427,-3.42219
699.4,21.1986,0.887641,-3.42088
700,21.2185,0.884017,-3.42083
700.6,21.2381,0.872725,-3.42083
701.2,21.2576,0.864285,-3.42083
701.8,21.2776,0.860059,-3.42083
702.4,21.2974,0.869635,-3.42083
703,21.3172,0.859534,-3.42083
703.6,21.3372,0.856243,-3.42083
704.2,21.3562,0.851385,-3.42083
704.8,21.3766,0.85429,-3.42082
705.4,21.3964,0.84209,-3.4213
706,21.4163,0.837537,-3.42148
706.6,21.4358,0.835648,-3.42149
707.2,21.456,0.825573,-3.42155
707.8,21.4755,0.82076,-3.42041
708.4,21.4954,0.82121,-3.42049
709,21.5154,0.818521,-3.4205
709.6,21.5349,0.809266,-3.4205
710.2,21.5546,0.806961,-3.42097
710.8,21.5746,0.802592,-3.42223
711.4,21.5945,0.799929,-3.42247
712,21.6143,0.789604,-3.42248
712.6,21.6339,0.791102,-3.42248
713.2,21.6537,0.785785,-3.42248
713.8,21.6737,0.778226,-3.42382
714.4,21.6937,0.775574,-3.42382
715,21.7135,0.762557,-3.42274
715.6,21.733,0.764543,-3.42248
716.2,21.753,0.765771,-3.42248
716.8,21.7727,0.761338,-3.42248
717.4,21.7927,0.761678,-3.42248
718,21.8125,0.751634,-3.42248
718.6,21.8321,0.752803,-3.42248
719.2,21.8519,0.74683,-3.42248
719.8,21.8718,0.749246,-3.42248
720.4,21.8917,0.751742,-3.4225
721,21.9116,0.743862,-3.42334
721.6,21.9313,0.740159,-3.4238
722.2,21.9513,0.734842,-3.4238
722.8,21.9712,0.730813,-3.4238
723.4,21.9906,0.731104,-3.4238
724,22.0107,0.726177,-3.4238
724.6,22.0307,0.727513,-3.42252
725.2,22.0502,0.722469,-3.42248
725.8,22.0704,0.722634,-3.42248
726.4,22.0903,0.711044,-3.42248
727,22.1103,0.719933,-3.42248
727.6,22.13,0.718287,-3.42248
728.2,22.1498,0.714048,-3.42223
728.8,22.1696,0.708091,-3.42181
729.4,22.1896,0.70721,-3.42182
730,22.2089,0.710229,-3.42191
730.6,22.2291,0.703243,-3.4232
731.2,22.249,0.702732,-3.42288
731.8,22.2691,0.703454,-3.42247
732.4,22.2889,0.700989,-3.42248
733,22.3087,0.693683,-3.42248
733.6,22.3286,0.684295,-3.42248
734.2,22.3486,0.680695,-3.42248
734.8,22.3685,0.677852,-3.42248
735.4,22.388,0.684358,-3.42248
736,22.4081,0.688387,-3.42248
736.6,22.4281,0.685259,-3.42248
737.2,22.448,0.680754,-3.42248
737.8,22.4679,0.683478,-3.4223
738.4,22.4876,0.684484,-3.4225
739,22.5078,0.675466,-3.42248
739.6,22.5276,0.680774,-3.42248
740.2,22.5472,0.679383,-3.42248
740.8,22.5674,0.679719,-3.42248
741.4,22.5872,0.679306,-3.42248
742,22.6071,0.673638,-3.42248
742.6,22.6271,0.678719,-3.42248
743.2,22.6472,0.676678,-3.42248
743.8,22.667,0.666652,-3.42248
744.4,22.6868,0.663339,-3.42249
745,22.7069,0.662956,-3.42356
745.6,22.7265,0.654828,-3.42244
746.2,22.7465,0.651274,-3.42248
746.8,22.7666,0.647707,-3.42247
747.4,22.7865,0.645676,-3.42241
748,22.8064,0.639956,-3.4232
748.6,22.8266,0.63787,-3.42314
749.2,22.8464,0.642767,-3.42381
749.8,22.8664,0.644364,-3.42443
750.4,22.8864,0.639452,-3.42446
751,22.906,0.636259,-3.42446
751.6,22.9263,0.64352,-3.4245
752.2,22.9459,0.653343,-3.42336
752.8,22.9662,0.652812,-3.42434
753.4,22.9861,0.669302,-3.42444
754,23.0061,0.669738,-3.42403
754.6,23.0261,0.670275,-3.42313
755.2,23.0459,0.677655,-3.42315
755.8,23.0659,0.685386,-3.42327
756.4,23.0857,0.695472,-3.42451
757,23.106,0.703827,-3.42446
757.6,23.1257,0.712607,-3.42446
758.2,23.1459,0.71056,-3.42446
758.8,23.166,0.728056,-3.42447
759.4,23.1861,0.74503,-3.42459
760,23.2058,0.746326,-3.42582
760.6,23.2253,0.750592,-3.42577
761.2,23.2452,0.758982,-3.42578
761.8,23.2662,0.77623,-3.42597
762.4,23.2851,0.786862,-3.42568
763,23.3056,0.794515,-3.42576
763.6,23.3256,0.800514,-3.42577
764.2,23.3455,0.803803,-3.42579
764.8,23.3655,0.810476,-3.42718
765.4,23.3855,0.811029,-3.4271
766,23.4056,0.813426,-3.42709
766.6,23.4257,0.828392,-3.42709
767.2,23.4457,0.835259,-3.42709
767.8,23.4655,0.836048,-3.42709
768.4,23.4856,0.836,-3.42769
769,23.5056,0.837393,-3.42849
769.6,23.5256,0.836639,-3.42913
770.2,23.5457,0.834815,-3.42992
770.8,23.5657,0.83496,-3.42871
771.4,23.5856,0.838709,-3.42885
772,23.6053,0.836849,-3.4301
772.6,23.6254,0.834179,-3.43007
773.2,23.6456,0.840431,-3.43017
773.8,23.6654,0.848686,-3.43142
774.4,23.6853,0.855869,-3.43138
775,23.7051,0.856951,-3.43138
775.6,23.7253,0.854971,-3.43138
776.2,23.7453,0.862311,-3.4314
776.8,23.7655,0.867146,-3.43278
777.4,23.7855,0.868704,-3.43271
778,23.8053,0.867794,-3.43286
778.6,23.8255,0.872637,-3.43403
779.2,23.8453,0.867102,-3.43411
779.8,23.8652,0.866223,-3.43493
780.4,23.8852,0.862878,-3.43437
781,23.9052,0.862158,-3.4345
781.6,23.9252,0.867926,-3.43567
782.2,23.9453,0.870457,-3.43566
782.8,23.9649,0.869754,-3.43566
783.4,23.9853,0.872352,-3.43575
784,24.0054,0.870625,-3.43702
784.6,24.0252,0.872803,-3.43697
785.2,24.0451,0.874692,-3.43695
785.8,24.0654,0.88008,-3.43666
786.4,24.0854,0.882186,-3.43805
787,24.105,0.883918,-3.43794
787.6,24.1254,0.883326,-3.43881
788.2,24.1454,0.883307,-3.43926
788.8,24.1655,0.882649,-3.43791
789.4,24.1853,0.880741,-3.43793
790,24.2053,0.885828,-3.43881