File: 01_Data/Corrugated_Cardboard/MCC/Corrugated_Cardboard_MCC_30K_min_231110_R1.txt
Sample ID:	C:\Users\MCC\Documents\MCC Data\ULINE_CB\ULINE_CB_MCC_N2_30K_231110_R1.txt
Sample Weight (mg):	3.94
Heating Rate (C/s):	0.5
Combustor Temp (C):	900
N2 Flow Rate (cc/min):	80
O2 Flow Rate (cc/min):	20
Calibration File:	C:\Users\MCC\Desktop\UMD MCC\MCC\Calibration Files\Coefficients\Coeff_231026_30K.txt
T Correction Coefficients:	0	1.0291	0
Time Shift (s):	8.5
*
Time (s)	Temperature (C)	N2 Flow (cc/min)	O2 Flow (cc/min)	End Flow (cc/min)	Oxygen (%)	HRR (W/g)
0.000	74.557	80.009	19.989	100.341	20.216	-0.071
1.501	74.652	80.013	19.992	100.344	20.214	0.024
3.000	74.761	80.009	19.989	100.343	20.214	0.028
4.500	74.850	80.009	19.990	100.341	20.216	-0.115
6.000	74.955	80.006	19.988	100.343	20.216	-0.095
7.500	75.071	80.010	19.989	100.341	20.218	-0.259
9.000	75.178	80.008	19.988	100.335	20.217	-0.207
10.500	75.272	80.009	19.990	100.339	20.218	-0.244
12.000	75.364	80.011	19.990	100.345	20.218	-0.291
13.500	75.490	80.007	19.988	100.345	20.218	-0.262
15.000	75.629	80.012	19.991	100.339	20.218	-0.242
16.500	75.724	80.007	19.988	100.341	20.218	-0.222
18.000	75.859	80.011	19.989	100.345	20.219	-0.351
19.500	75.977	80.004	19.986	100.345	20.218	-0.257
21.000	76.095	80.007	19.988	100.342	20.219	-0.331
22.500	76.240	80.014	19.993	100.346	20.220	-0.416
24.000	76.361	80.010	19.990	100.351	20.220	-0.394
25.500	76.493	80.015	19.992	100.348	20.219	-0.312
27.000	76.624	80.010	19.990	100.349	20.220	-0.384
28.500	76.771	80.010	19.989	100.347	20.218	-0.272
30.000	76.911	80.006	19.987	100.351	20.218	-0.296
31.500	77.044	80.013	19.992	100.354	20.218	-0.241
33.000	77.182	80.010	19.991	100.366	20.217	-0.189
34.500	77.354	80.008	19.989	100.380	20.216	-0.093
36.000	77.491	80.006	19.988	100.385	20.213	0.175
37.501	77.663	80.008	19.989	100.380	20.214	0.087
39.000	77.847	80.012	19.991	100.396	20.212	0.245
40.500	78.031	80.016	19.992	100.413	20.210	0.377
42.000	78.216	80.007	19.988	100.421	20.207	0.604
43.500	78.415	80.012	19.991	100.425	20.203	0.909
45.000	78.635	80.014	19.991	100.434	20.201	1.097
46.500	78.864	80.010	19.989	100.439	20.199	1.274
48.000	79.115	80.016	19.992	100.457	20.196	1.522
49.500	79.363	80.012	19.991	100.483	20.191	1.853
51.000	79.640	80.010	19.990	100.504	20.190	1.976
52.500	79.945	80.015	19.992	100.537	20.185	2.406
54.001	80.280	80.002	19.986	100.576	20.180	2.762
55.501	80.653	80.006	19.989	100.590	20.174	3.223
57.000	81.026	80.010	19.989	100.610	20.171	3.517
58.500	81.416	80.007	19.988	100.614	20.167	3.828
60.000	81.878	80.001	19.986	100.618	20.165	3.941
61.500	82.338	80.008	19.991	100.631	20.163	4.132
63.000	82.819	80.011	19.991	100.647	20.159	4.419
64.501	83.344	80.009	19.991	100.643	20.157	4.572
66.000	83.901	80.012	19.993	100.618	20.155	4.721
67.500	84.435	80.009	19.991	100.603	20.156	4.684
69.000	85.010	79.998	19.985	100.604	20.157	4.614
70.500	85.627	80.011	19.992	100.610	20.155	4.778
72.000	86.253	80.007	19.989	100.623	20.155	4.731
73.500	86.876	80.005	19.988	100.628	20.155	4.747
75.000	87.538	80.006	19.989	100.621	20.154	4.807
76.500	88.216	80.014	19.993	100.623	20.154	4.839
78.000	88.885	80.005	19.988	100.632	20.155	4.785
79.500	89.601	80.013	19.992	100.625	20.155	4.755
81.000	90.318	80.009	19.990	100.629	20.153	4.885
82.500	91.074	80.005	19.988	100.628	20.153	4.899
84.000	91.792	80.010	19.990	100.635	20.152	4.967
85.500	92.577	79.989	19.981	100.627	20.153	4.936
87.000	93.356	80.001	19.985	100.608	20.154	4.832
88.500	94.140	80.003	19.987	100.640	20.153	4.891
90.001	94.906	80.009	19.989	100.650	20.153	4.906
91.500	95.739	80.005	19.987	100.656	20.153	4.960
93.000	96.582	80.008	19.989	100.643	20.154	4.826
94.500	97.382	80.006	19.987	100.626	20.154	4.854
96.000	98.229	80.018	19.993	100.625	20.155	4.761
97.500	99.096	80.004	19.988	100.626	20.154	4.867
99.000	99.946	80.003	19.988	100.620	20.154	4.805
100.500	100.795	80.013	19.991	100.625	20.155	4.737
102.000	101.704	80.002	19.986	100.620	20.156	4.716
103.501	102.577	80.004	19.987	100.620	20.157	4.567
105.001	103.457	80.006	19.988	100.626	20.158	4.533
106.500	104.360	80.016	19.993	100.619	20.155	4.729
108.000	105.276	80.002	19.986	100.615	20.158	4.482
109.500	106.174	80.011	19.990	100.607	20.156	4.689
111.000	107.082	79.995	19.983	100.604	20.159	4.465
112.500	108.014	80.020	19.995	100.597	20.159	4.411
114.000	108.925	80.013	19.990	100.602	20.160	4.365
115.500	109.826	80.011	19.990	100.596	20.162	4.230
117.000	110.756	80.005	19.987	100.591	20.162	4.232
118.500	111.700	80.009	19.989	100.586	20.163	4.154
120.001	112.592	80.009	19.989	100.598	20.164	4.050
121.500	113.471	80.010	19.990	100.574	20.164	4.051
123.000	114.443	80.004	19.986	100.555	20.164	4.004
124.500	115.353	80.016	19.992	100.561	20.166	3.905
126.001	116.245	80.017	19.993	100.569	20.166	3.867
127.501	117.176	80.006	19.989	100.560	20.167	3.839
129.000	118.109	79.998	19.985	100.547	20.166	3.863
130.500	118.994	80.008	19.988	100.536	20.167	3.811
132.000	119.877	80.011	19.991	100.536	20.169	3.652
133.500	120.805	80.013	19.990	100.536	20.170	3.532
135.000	121.717	80.017	19.994	100.536	20.171	3.464
136.500	122.577	80.012	19.991	100.544	20.172	3.421
138.000	123.497	79.999	19.984	100.543	20.171	3.471
139.500	124.393	80.000	19.986	100.537	20.172	3.370
141.001	125.268	80.005	19.988	100.543	20.174	3.252
142.500	126.146	80.006	19.988	100.547	20.173	3.302
144.000	127.044	80.006	19.987	100.545	20.175	3.201
145.500	127.915	80.008	19.989	100.545	20.175	3.168
147.000	128.769	80.005	19.987	100.536	20.176	3.095
148.500	129.651	80.003	19.987	100.535	20.176	3.062
150.000	130.545	80.011	19.990	100.510	20.177	3.023
151.500	131.377	80.011	19.989	100.525	20.178	2.933
153.000	132.198	80.006	19.987	100.531	20.177	3.020
154.500	133.092	80.014	19.991	100.499	20.178	2.889
156.000	133.934	80.008	19.987	100.498	20.178	2.945
157.500	134.738	80.023	19.996	100.490	20.179	2.819
159.000	135.576	80.011	19.990	100.495	20.179	2.878
160.500	136.440	80.009	19.989	100.490	20.180	2.776
162.000	137.256	80.008	19.988	100.473	20.179	2.808
163.500	138.058	80.013	19.991	100.479	20.180	2.752
165.000	138.897	80.017	19.991	100.484	20.180	2.751
166.500	139.690	80.013	19.989	100.474	20.181	2.659
168.000	140.481	80.008	19.990	100.480	20.180	2.746
169.500	141.310	80.013	19.991	100.485	20.181	2.690
171.000	142.130	80.005	19.989	100.487	20.181	2.673
172.500	142.913	80.005	19.990	100.480	20.180	2.739
174.000	143.682	80.017	19.991	100.475	20.183	2.562
175.500	144.494	80.009	19.989	100.482	20.182	2.568
177.000	145.272	80.001	19.985	100.476	20.182	2.586
178.500	146.033	80.015	19.987	100.468	20.183	2.506
180.000	146.825	80.026	19.994	100.470	20.183	2.493
181.500	147.623	80.004	19.986	100.479	20.184	2.483
183.000	148.370	80.008	19.989	100.457	20.183	2.490
184.500	149.146	80.011	19.991	100.468	20.183	2.514
186.000	149.936	80.017	19.992	100.478	20.184	2.482
187.500	150.698	80.012	19.991	100.480	20.183	2.524
189.000	151.439	80.022	19.998	100.478	20.184	2.460
190.500	152.207	80.000	19.985	100.468	20.184	2.422
192.000	152.966	80.007	19.986	100.439	20.184	2.427
193.500	153.712	80.011	19.991	100.469	20.184	2.464
195.000	154.456	80.005	19.988	100.470	20.184	2.429
196.500	155.209	80.015	19.990	100.459	20.185	2.361
198.000	155.966	79.996	19.984	100.474	20.183	2.517
199.500	156.677	80.019	19.993	100.457	20.185	2.371
201.000	157.430	80.032	19.997	100.461	20.185	2.375
202.500	158.206	80.001	19.984	100.466	20.185	2.365
204.000	158.944	80.016	19.994	100.454	20.185	2.370
205.500	159.658	80.014	19.989	100.465	20.185	2.394
207.000	160.415	80.016	19.991	100.470	20.185	2.401
208.500	161.167	80.014	19.993	100.469	20.185	2.353
210.000	161.890	80.009	19.986	100.466	20.185	2.355
211.500	162.622	80.012	19.992	100.461	20.186	2.291
213.000	163.396	80.011	19.989	100.472	20.187	2.225
214.500	164.115	80.013	19.990	100.469	20.185	2.346
216.000	164.852	80.010	19.989	100.468	20.186	2.317
217.500	165.623	80.010	19.992	100.468	20.186	2.260
219.000	166.334	80.001	19.983	100.477	20.185	2.358
220.500	167.074	80.017	19.994	100.472	20.184	2.433
222.000	167.834	80.008	19.986	100.475	20.183	2.542
223.500	168.578	80.020	19.994	100.463	20.184	2.450
225.000	169.295	80.012	19.988	100.466	20.183	2.519
226.500	170.041	80.005	19.988	100.460	20.183	2.495
228.000	170.820	80.005	19.990	100.465	20.183	2.539
229.500	171.541	80.010	19.984	100.470	20.184	2.472
231.000	172.279	79.997	19.984	100.463	20.183	2.524
232.500	173.030	80.003	19.991	100.463	20.182	2.584
234.000	173.805	80.011	19.991	100.466	20.184	2.454
235.500	174.530	80.000	19.984	100.467	20.183	2.565
237.000	175.268	80.010	19.989	100.458	20.181	2.676
238.500	176.057	80.005	19.988	100.462	20.183	2.564
240.000	176.812	80.011	19.989	100.465	20.184	2.482
241.500	177.554	80.020	19.995	100.453	20.182	2.615
243.000	178.319	80.005	19.988	100.451	20.181	2.656
244.500	179.096	80.007	19.989	100.460	20.184	2.456
246.000	179.836	80.004	19.989	100.470	20.183	2.487
247.500	180.570	80.010	19.991	100.470	20.182	2.579
249.000	181.371	80.010	19.991	100.468	20.184	2.466
250.500	182.141	80.002	19.987	100.465	20.184	2.449
252.000	182.889	80.005	19.990	100.462	20.185	2.370
253.500	183.678	80.004	19.987	100.464	20.184	2.420
255.000	184.456	80.007	19.989	100.462	20.185	2.401
256.500	185.206	80.013	19.992	100.462	20.184	2.447
258.000	185.952	80.011	19.987	100.460	20.184	2.469
259.500	186.745	80.007	19.988	100.455	20.182	2.569
261.000	187.511	80.006	19.988	100.461	20.181	2.690
262.500	188.279	80.008	19.986	100.465	20.183	2.514
264.000	189.060	80.011	19.985	100.472	20.183	2.545
265.500	189.856	80.000	19.990	100.467	20.183	2.553
267.000	190.613	80.002	19.988	100.471	20.183	2.515
268.500	191.380	80.005	19.990	100.467	20.183	2.503
270.000	192.183	80.003	19.984	100.461	20.183	2.488
271.500	192.955	80.013	19.989	100.457	20.182	2.581
273.000	193.707	80.013	19.993	100.459	20.184	2.451
274.500	194.490	80.012	19.993	100.465	20.182	2.639
276.000	195.311	80.013	19.990	100.460	20.183	2.555
277.500	196.053	80.008	19.986	100.455	20.182	2.589
279.000	196.832	80.013	19.988	100.456	20.184	2.458
280.500	197.627	80.013	19.989	100.460	20.182	2.567
282.000	198.418	80.012	19.991	100.456	20.183	2.528
283.500	199.186	80.004	19.988	100.451	20.182	2.617
285.000	199.963	80.013	19.992	100.442	20.181	2.647
286.500	200.762	80.007	19.988	100.443	20.182	2.626
288.000	201.518	80.007	19.988	100.436	20.180	2.765
289.500	202.284	80.011	19.990	100.428	20.182	2.637
291.000	203.108	79.999	19.984	100.422	20.180	2.761
292.500	203.891	80.019	19.997	100.417	20.180	2.764
294.000	204.655	80.004	19.986	100.449	20.182	2.621
295.500	205.433	80.014	19.993	100.445	20.181	2.697
297.000	206.255	80.009	19.988	100.435	20.180	2.758
298.500	206.999	80.002	19.989	100.426	20.181	2.659
300.000	207.767	80.008	19.991	100.433	20.179	2.872
301.500	208.557	80.054	20.003	100.419	20.180	2.797
303.000	209.353	80.030	20.001	100.431	20.181	2.657
304.500	210.124	80.005	19.989	100.436	20.180	2.792
306.000	210.880	79.998	19.987	100.417	20.180	2.748
307.500	211.719	80.015	19.993	100.423	20.181	2.706
309.000	212.459	79.982	19.977	100.440	20.180	2.766
310.500	213.234	80.023	19.995	100.407	20.179	2.864
312.000	214.033	79.998	19.985	100.427	20.180	2.761
313.500	214.825	80.010	19.990	100.431	20.181	2.717
315.000	215.557	80.011	19.992	100.425	20.179	2.810
316.500	216.326	80.008	19.988	100.417	20.179	2.847
318.000	217.134	80.014	19.992	100.420	20.179	2.875
319.500	217.904	80.019	19.995	100.421	20.179	2.848
321.000	218.675	80.004	19.986	100.417	20.179	2.822
322.500	219.444	80.007	19.989	100.414	20.179	2.810
324.000	220.232	80.008	19.990	100.418	20.179	2.842
325.500	220.978	80.017	19.992	100.421	20.179	2.816
327.000	221.775	80.008	19.992	100.425	20.179	2.877
328.500	222.548	80.009	19.989	100.420	20.177	2.968
330.000	223.300	79.995	19.982	100.413	20.177	3.014
331.500	224.060	80.013	19.991	100.410	20.178	2.921
333.000	224.845	80.014	19.991	100.419	20.177	3.025
334.500	225.627	80.005	19.989	100.415	20.178	2.891
336.000	226.373	80.006	19.990	100.415	20.178	2.937
337.500	227.164	80.011	19.991	100.416	20.176	3.088
339.000	227.923	80.009	19.990	100.412	20.177	3.013
340.500	228.690	80.008	19.989	100.408	20.175	3.142
342.000	229.434	80.004	19.987	100.417	20.176	3.077
343.500	230.215	80.002	19.987	100.417	20.175	3.124
345.000	230.974	80.002	19.988	100.405	20.175	3.180
346.500	231.733	80.016	19.991	100.408	20.175	3.154
348.000	232.491	80.017	19.992	100.428	20.176	3.116
349.500	233.281	79.992	19.983	100.422	20.175	3.172
351.000	234.014	80.004	19.987	100.408	20.173	3.307
352.500	234.765	80.006	19.988	100.423	20.174	3.261
354.000	235.556	80.004	19.988	100.427	20.173	3.311
355.500	236.282	80.010	19.991	100.419	20.172	3.364
357.000	237.043	80.006	19.989	100.420	20.173	3.311
358.500	237.795	80.001	19.989	100.418	20.171	3.459
360.000	238.567	80.006	19.990	100.420	20.171	3.481
361.500	239.311	80.013	19.992	100.427	20.171	3.442
363.000	240.051	80.006	19.987	100.435	20.171	3.493
364.500	240.807	80.006	19.988	100.428	20.170	3.536
366.000	241.574	80.000	19.984	100.425	20.170	3.558
367.500	242.304	80.011	19.992	100.423	20.168	3.722
369.000	243.061	80.018	19.994	100.425	20.167	3.785
370.500	243.841	80.016	19.995	100.412	20.165	3.973
372.000	244.557	80.011	19.990	100.409	20.165	3.936
373.500	245.299	80.023	19.989	100.411	20.165	3.920
375.000	246.072	80.010	19.987	100.415	20.164	4.010
376.500	246.821	80.008	19.988	100.410	20.162	4.180
378.000	247.542	80.014	19.992	100.403	20.162	4.189
379.500	248.295	80.007	19.988	100.416	20.160	4.357
381.000	249.060	80.007	19.988	100.418	20.159	4.399
382.500	249.801	80.009	19.983	100.416	20.159	4.435
384.000	250.534	80.001	19.986	100.410	20.158	4.545
385.500	251.306	80.007	19.987	100.423	20.156	4.702
387.000	252.051	80.011	19.989	100.418	20.155	4.766
388.500	252.794	80.018	19.991	100.416	20.154	4.805
390.000	253.543	80.010	19.989	100.416	20.152	4.989
391.500	254.301	80.017	19.989	100.418	20.151	5.104
393.000	255.028	80.018	19.992	100.416	20.151	5.083
394.500	255.784	80.013	19.992	100.411	20.148	5.284
396.000	256.556	80.002	19.988	100.406	20.145	5.517
397.500	257.285	80.008	19.990	100.407	20.144	5.630
399.000	258.023	80.011	19.991	100.415	20.144	5.660
400.500	258.781	80.008	19.984	100.416	20.141	5.838
402.000	259.558	80.004	19.990	100.423	20.140	5.959
403.500	260.278	80.012	19.993	100.428	20.139	6.032
405.000	261.014	80.009	19.995	100.425	20.137	6.205
406.500	261.778	80.009	19.990	100.425	20.136	6.271
408.000	262.522	80.007	19.983	100.415	20.134	6.424
409.500	263.265	80.002	19.987	100.397	20.132	6.554
411.000	264.023	80.013	19.992	100.402	20.130	6.731
412.500	264.784	80.004	19.988	100.414	20.128	6.920
414.000	265.516	80.014	19.991	100.416	20.124	7.178
415.500	266.245	80.011	19.988	100.415	20.124	7.204
417.001	267.009	80.001	19.983	100.417	20.120	7.550
418.500	267.765	80.003	19.987	100.426	20.119	7.651
420.000	268.516	80.013	19.992	100.430	20.116	7.842
421.500	269.252	80.011	19.992	100.435	20.113	8.055
423.000	270.024	80.016	19.994	100.425	20.112	8.132
424.500	270.766	80.014	19.992	100.430	20.109	8.418
426.000	271.486	80.031	20.001	100.427	20.108	8.463
427.500	272.269	80.003	19.984	100.415	20.104	8.824
429.000	273.025	80.013	19.989	100.403	20.101	9.042
430.500	273.760	79.996	19.984	100.416	20.099	9.201
432.000	274.537	80.019	19.992	100.393	20.096	9.453
433.500	275.300	80.006	19.986	100.423	20.093	9.665
435.000	276.037	79.988	19.978	100.471	20.090	9.894
436.500	276.775	79.992	19.988	100.461	20.086	10.213
438.000	277.554	80.000	19.986	100.447	20.085	10.347
439.500	278.313	79.996	19.986	100.418	20.080	10.715
441.000	279.043	80.015	19.993	100.409	20.077	10.927
442.500	279.813	80.016	19.992	100.429	20.073	11.285
444.000	280.587	80.007	19.987	100.439	20.069	11.572
445.500	281.330	80.015	19.992	100.446	20.065	11.944
447.000	282.068	80.028	19.996	100.447	20.060	12.340
448.500	282.853	79.992	19.986	100.457	20.058	12.503
450.000	283.625	79.983	19.979	100.456	20.052	12.920
451.500	284.357	80.007	19.986	100.429	20.049	13.194
453.000	285.130	80.001	19.984	100.433	20.042	13.709
454.500	285.926	79.986	19.979	100.448	20.039	13.975
456.000	286.646	80.013	19.992	100.447	20.037	14.116
457.500	287.390	80.021	19.997	100.463	20.032	14.554
459.000	288.163	80.008	19.987	100.469	20.026	15.030
460.500	288.949	79.979	19.977	100.449	20.022	15.367
462.000	289.660	79.998	19.985	100.428	20.016	15.775
463.500	290.420	79.986	19.980	100.468	20.011	16.183
465.000	291.208	80.008	19.994	100.467	20.006	16.570
466.500	291.934	79.976	19.977	100.454	20.001	16.982
468.000	292.689	80.024	19.995	100.432	19.996	17.412
469.500	293.440	80.026	20.002	100.438	19.990	17.896
471.000	294.222	79.992	19.983	100.462	19.982	18.500
472.500	294.956	79.993	19.982	100.466	19.975	19.099
474.000	295.696	80.011	19.990	100.453	19.971	19.418
475.500	296.488	80.030	19.998	100.475	19.964	19.922
477.000	297.227	80.023	19.991	100.521	19.960	20.272
478.500	297.972	80.000	19.985	100.482	19.953	20.844
480.000	298.757	80.022	19.993	100.448	19.947	21.262
481.500	299.509	80.011	19.988	100.457	19.940	21.843
483.000	300.268	80.005	19.989	100.462	19.934	22.341
484.500	301.025	79.998	19.987	100.466	19.927	22.866
486.000	301.819	80.007	19.986	100.473	19.920	23.418
487.500	302.555	80.002	19.988	100.470	19.916	23.734
489.000	303.319	80.006	19.991	100.473	19.909	24.340
490.500	304.067	80.007	19.992	100.487	19.901	25.009
492.000	304.838	80.017	19.990	100.478	19.894	25.500
493.500	305.577	80.017	19.994	100.495	19.887	26.111
495.000	306.364	80.005	19.985	100.508	19.880	26.680
496.500	307.135	80.017	19.991	100.499	19.873	27.229
498.000	307.875	80.010	19.993	100.495	19.866	27.772
499.500	308.612	80.011	19.988	100.503	19.858	28.403
501.000	309.405	80.008	19.988	100.500	19.850	29.011
502.500	310.166	80.014	19.989	100.498	19.843	29.606
504.000	310.909	80.010	19.991	100.498	19.835	30.233
505.500	311.686	80.006	19.991	100.503	19.825	31.022
507.000	312.466	79.994	19.986	100.511	19.819	31.473
508.500	313.223	80.021	19.987	100.499	19.811	32.133
510.000	313.946	80.013	19.993	100.502	19.802	32.837
511.500	314.743	80.020	19.994	100.513	19.793	33.554
513.000	315.499	80.012	19.994	100.510	19.787	34.044
514.500	316.241	80.008	19.993	100.516	19.778	34.738
516.000	316.999	80.015	19.990	100.528	19.768	35.594
517.500	317.789	80.006	19.987	100.542	19.760	36.179
519.000	318.527	80.014	19.991	100.536	19.751	36.922
520.500	319.262	80.011	19.987	100.540	19.742	37.658
522.000	320.028	79.993	19.981	100.536	19.733	38.339
523.500	320.772	80.001	19.990	100.536	19.723	39.162
525.000	321.525	80.010	19.992	100.551	19.714	39.896
526.500	322.270	80.018	19.992	100.561	19.705	40.625
528.000	323.052	80.008	19.990	100.569	19.696	41.332
529.500	323.781	80.009	19.990	100.573	19.685	42.203
531.000	324.518	80.010	19.989	100.571	19.673	43.119
532.500	325.289	80.015	19.988	100.569	19.663	43.922
534.000	326.040	80.012	19.987	100.569	19.654	44.666
535.500	326.756	80.017	19.994	100.582	19.643	45.580
537.000	327.519	80.012	19.991	100.601	19.632	46.408
538.500	328.286	80.008	19.988	100.597	19.622	47.256
540.000	329.021	80.001	19.984	100.598	19.611	48.115
541.500	329.745	80.011	19.984	100.607	19.599	49.047
543.000	330.510	80.005	19.987	100.605	19.588	49.966
544.500	331.260	80.026	19.998	100.605	19.577	50.801
546.000	331.993	80.028	19.993	100.629	19.565	51.773
547.500	332.753	79.995	19.986	100.627	19.551	52.886
549.000	333.498	80.009	19.990	100.623	19.538	53.884
550.500	334.245	80.020	19.994	100.621	19.523	55.108
552.000	334.963	80.014	19.991	100.629	19.512	55.970
553.500	335.722	80.010	19.989	100.625	19.498	57.085
555.000	336.470	80.012	19.990	100.618	19.485	58.190
556.500	337.199	80.014	19.989	100.618	19.471	59.314
558.001	337.941	80.007	19.987	100.631	19.455	60.545
559.500	338.716	80.010	19.986	100.643	19.441	61.642
561.000	339.448	79.998	19.988	100.641	19.426	62.882
562.500	340.166	80.011	19.991	100.651	19.412	63.999
564.000	340.928	80.029	19.997	100.662	19.395	65.314
565.500	341.680	80.017	19.988	100.661	19.381	66.458
567.000	342.417	79.994	19.985	100.649	19.365	67.728
568.500	343.146	80.020	19.994	100.653	19.349	69.023
570.000	343.916	80.019	19.995	100.658	19.333	70.326
571.500	344.658	79.993	19.987	100.660	19.317	71.588
573.000	345.375	80.032	20.000	100.671	19.301	72.834
574.500	346.150	80.003	19.987	100.691	19.285	74.163
576.000	346.872	80.000	19.988	100.691	19.271	75.286
577.500	347.626	80.005	19.991	100.701	19.254	76.626
579.000	348.365	80.011	19.992	100.707	19.238	77.868
580.500	349.126	80.002	19.989	100.702	19.221	79.259
582.000	349.851	80.009	19.991	100.687	19.208	80.298
583.500	350.602	80.024	19.996	100.697	19.191	81.643
585.000	351.342	80.005	19.992	100.715	19.178	82.706
586.500	352.101	80.010	19.988	100.708	19.163	83.861
588.000	352.834	80.006	19.991	100.706	19.150	84.863
589.500	353.570	80.005	19.997	100.705	19.136	85.993
591.000	354.346	80.000	19.988	100.708	19.124	86.970
592.500	355.081	80.004	19.988	100.700	19.115	87.662
594.000	355.802	80.014	19.991	100.691	19.105	88.528
595.500	356.553	80.005	19.992	100.688	19.099	88.995
597.000	357.299	80.020	19.995	100.692	19.091	89.605
598.500	358.043	80.011	19.989	100.701	19.086	89.934
600.000	358.795	80.001	19.992	100.698	19.082	90.318
601.500	359.562	80.011	19.985	100.695	19.081	90.399
603.000	360.291	80.008	19.985	100.670	19.081	90.360
604.500	361.021	79.999	19.988	100.656	19.084	90.105
606.000	361.783	79.999	19.985	100.660	19.088	89.799
607.500	362.543	80.001	19.986	100.660	19.094	89.269
609.000	363.282	79.992	19.986	100.628	19.103	88.538
610.500	364.013	79.995	19.987	100.611	19.114	87.675
612.000	364.775	80.020	19.996	100.619	19.128	86.550
613.500	365.522	80.002	19.984	100.621	19.144	85.321
615.000	366.242	80.027	20.000	100.578	19.164	83.689
616.500	367.023	79.984	19.980	100.584	19.186	81.912
618.000	367.778	80.018	19.995	100.597	19.209	80.089
619.500	368.499	80.005	19.987	100.591	19.235	77.971
621.000	369.253	79.999	19.988	100.544	19.262	75.867
622.500	370.025	80.007	19.989	100.548	19.291	73.475
624.000	370.773	80.004	19.986	100.546	19.324	70.859
625.500	371.529	80.001	19.989	100.520	19.357	68.239
627.000	372.282	80.005	19.992	100.504	19.391	65.567
628.500	373.034	80.013	19.990	100.482	19.425	62.821
630.000	373.783	80.021	19.994	100.470	19.460	60.037
631.500	374.543	80.014	19.991	100.477	19.497	57.118
633.000	375.307	80.023	19.994	100.463	19.532	54.321
634.500	376.051	80.026	19.997	100.455	19.566	51.612
636.000	376.801	80.003	19.986	100.453	19.603	48.607
637.500	377.555	79.990	19.982	100.435	19.639	45.820
639.000	378.320	80.017	19.992	100.430	19.671	43.220
640.500	379.051	79.968	19.972	100.431	19.705	40.500
642.000	379.815	80.034	20.001	100.415	19.736	38.095
643.500	380.601	80.000	19.987	100.440	19.768	35.545
645.000	381.316	80.003	19.989	100.415	19.793	33.510
646.500	382.048	80.010	19.992	100.399	19.821	31.270
648.000	382.825	80.011	19.994	100.397	19.846	29.312
649.500	383.571	80.001	19.985	100.388	19.869	27.508
651.000	384.308	80.010	19.991	100.370	19.891	25.716
652.500	385.064	80.009	19.987	100.377	19.914	23.930
654.000	385.812	80.014	19.992	100.368	19.932	22.436
655.500	386.537	80.010	19.989	100.383	19.950	21.048
657.000	387.286	80.010	19.990	100.379	19.967	19.693
658.500	388.056	79.996	19.985	100.372	19.984	18.370
660.000	388.821	80.003	19.986	100.365	19.999	17.143
661.500	389.545	80.010	19.990	100.365	20.012	16.134
663.000	390.287	80.002	19.986	100.366	20.024	15.160
664.500	391.057	80.005	19.988	100.362	20.034	14.350
666.000	391.786	80.017	19.993	100.357	20.045	13.495
667.500	392.523	80.008	19.988	100.354	20.052	12.915
669.000	393.260	80.014	19.991	100.339	20.061	12.240
670.500	394.022	79.995	19.983	100.344	20.067	11.769
672.000	394.747	80.011	19.989	100.335	20.073	11.246
673.501	395.500	80.007	19.988	100.336	20.079	10.806
675.000	396.264	80.007	19.989	100.341	20.082	10.543
676.500	396.977	80.034	20.000	100.344	20.089	10.005
678.000	397.704	79.998	19.985	100.358	20.091	9.822
679.500	398.480	79.986	19.978	100.339	20.095	9.488
681.000	399.202	80.026	19.997	100.333	20.095	9.521
682.500	399.932	80.003	19.988	100.343	20.099	9.222
684.000	400.674	80.000	19.985	100.351	20.102	8.944
685.500	401.431	80.000	19.985	100.352	20.102	8.949
687.000	402.167	80.010	19.989	100.331	20.104	8.787
688.500	402.884	80.013	19.991	100.346	20.105	8.722
690.000	403.634	80.003	19.986	100.358	20.106	8.624
691.500	404.372	80.009	19.990	100.348	20.107	8.567
693.000	405.102	80.005	19.987	100.347	20.109	8.431
694.500	405.833	80.014	19.991	100.349	20.109	8.431
696.000	406.588	80.011	19.991	100.346	20.110	8.321
697.500	407.309	80.011	19.990	100.342	20.111	8.216
699.000	408.035	80.009	19.989	100.347	20.111	8.273
700.501	408.776	80.011	19.989	100.334	20.112	8.192
702.000	409.544	80.025	19.996	100.333	20.111	8.246
703.500	410.254	80.049	20.006	100.341	20.111	8.210
705.000	410.986	80.015	19.991	100.362	20.111	8.280
706.500	411.735	80.014	19.990	100.357	20.112	8.145
708.000	412.464	79.993	19.983	100.353	20.111	8.248
709.500	413.171	80.003	19.985	100.344	20.112	8.144
711.000	413.952	80.036	20.000	100.339	20.111	8.254
712.500	414.678	79.996	19.981	100.366	20.113	8.078
714.000	415.392	80.018	19.993	100.359	20.114	8.016
715.500	416.137	80.018	19.993	100.368	20.114	7.970
717.000	416.898	80.020	19.994	100.354	20.116	7.851
718.500	417.627	80.002	19.985	100.339	20.116	7.842
720.000	418.359	80.009	19.991	100.323	20.116	7.812
721.500	419.096	79.998	19.985	100.338	20.117	7.795
723.000	419.830	79.984	19.977	100.348	20.119	7.640
724.500	420.560	80.034	20.000	100.342	20.117	7.756
726.000	421.308	80.004	19.987	100.346	20.118	7.660
727.500	422.070	80.003	19.985	100.318	20.119	7.596
729.000	422.783	80.005	19.988	100.313	20.122	7.372
730.500	423.516	80.023	19.995	100.348	20.122	7.397
732.000	424.269	80.008	19.988	100.349	20.122	7.359
733.500	424.997	80.007	19.989	100.323	20.124	7.223
735.000	425.722	79.994	19.984	100.342	20.123	7.266
736.500	426.474	80.011	19.990	100.333	20.124	7.171
738.000	427.230	80.027	19.998	100.337	20.126	7.084
739.500	427.962	80.007	19.988	100.343	20.127	6.949
741.000	428.684	80.015	19.991	100.326	20.128	6.882
742.500	429.451	79.978	19.976	100.330	20.127	6.984
744.000	430.188	80.008	19.988	100.322	20.128	6.873
745.500	430.908	80.014	19.990	100.347	20.130	6.725
747.000	431.652	80.010	19.992	100.348	20.129	6.777
748.500	432.417	80.014	19.993	100.330	20.129	6.780
750.000	433.138	80.018	19.993	100.334	20.130	6.712
751.500	433.863	80.000	19.985	100.344	20.132	6.591
753.000	434.627	80.004	19.986	100.329	20.133	6.502
754.500	435.370	80.003	19.990	100.327	20.134	6.381
756.000	436.090	80.019	19.995	100.320	20.135	6.370
757.500	436.830	80.013	19.990	100.314	20.134	6.413
759.000	437.596	80.008	19.989	100.310	20.135	6.307
760.500	438.319	80.015	19.992	100.319	20.138	6.126
762.000	439.061	80.013	19.991	100.333	20.138	6.133
763.500	439.807	80.005	19.989	100.331	20.139	6.043
765.000	440.555	80.008	19.990	100.331	20.140	5.968
766.500	441.269	80.004	19.988	100.336	20.141	5.880
768.000	442.018	80.012	19.993	100.332	20.142	5.763
769.500	442.770	80.014	19.993	100.321	20.142	5.789
771.000	443.503	80.009	19.990	100.312	20.145	5.559
772.500	444.224	80.010	19.991	100.312	20.144	5.657
774.000	444.976	80.003	19.987	100.325	20.144	5.644
775.500	445.729	80.005	19.990	100.323	20.145	5.525
777.000	446.441	80.015	19.992	100.316	20.147	5.419
778.500	447.192	80.012	19.992	100.317	20.149	5.259
780.000	447.961	80.004	19.987	100.323	20.148	5.331
781.500	448.668	80.007	19.988	100.320	20.148	5.326
783.000	449.395	80.012	19.991	100.307	20.149	5.205
784.500	450.143	80.010	19.990	100.316	20.149	5.203
786.000	450.881	80.019	19.994	100.331	20.151	5.079
787.500	451.625	80.009	19.991	100.334	20.151	5.101
789.000	452.336	80.008	19.991	100.329	20.152	4.948
790.500	453.111	80.005	19.988	100.337	20.154	4.843
792.000	453.835	80.011	19.990	100.328	20.155	4.732
793.500	454.545	80.008	19.991	100.328	20.156	4.673
795.000	455.306	80.009	19.988	100.331	20.157	4.611
796.500	456.043	80.011	19.991	100.320	20.157	4.589
798.000	456.770	80.021	19.995	100.311	20.157	4.571
799.500	457.506	80.010	19.989	100.311	20.158	4.517
801.000	458.274	80.014	19.990	100.303	20.157	4.555
802.500	458.986	80.008	19.990	100.300	20.160	4.388
804.000	459.696	80.007	19.989	100.304	20.159	4.420
805.500	460.468	80.010	19.989	100.309	20.159	4.439
807.000	461.214	80.015	19.992	100.310	20.159	4.402
808.500	461.920	80.004	19.989	100.312	20.161	4.279
810.000	462.661	80.014	19.991	100.309	20.161	4.296
811.500	463.412	80.009	19.991	100.310	20.162	4.157
813.000	464.138	80.015	19.991	100.306	20.163	4.102
814.500	464.859	80.008	19.988	100.304	20.163	4.114
816.000	465.610	80.006	19.989	100.310	20.165	3.955
817.500	466.348	80.009	19.990	100.313	20.164	4.036
819.000	467.080	80.009	19.990	100.307	20.165	3.979
820.500	467.808	80.008	19.986	100.308	20.165	3.977
822.000	468.555	80.012	19.992	100.309	20.168	3.722
823.500	469.283	80.012	19.991	100.315	20.167	3.810
825.000	470.013	80.008	19.992	100.311	20.167	3.808
826.500	470.757	80.007	19.992	100.309	20.168	3.727
828.000	471.512	80.002	19.991	100.310	20.168	3.680
829.500	472.213	80.005	19.990	100.310	20.169	3.658
831.000	472.959	80.007	19.987	100.305	20.169	3.626
832.500	473.704	80.003	19.985	100.302	20.173	3.351
834.000	474.442	80.008	19.989	100.303	20.171	3.452
835.500	475.158	80.012	19.990	100.301	20.171	3.492
837.000	475.916	80.008	19.990	100.295	20.171	3.450
838.500	476.676	80.008	19.989	100.303	20.171	3.483
840.000	477.396	80.016	19.992	100.303	20.171	3.468
841.500	478.123	80.007	19.989	100.308	20.173	3.312
843.000	478.894	80.019	19.994	100.311	20.175	3.171
844.500	479.610	80.011	19.990	100.320	20.174	3.230
846.000	480.327	80.007	19.989	100.311	20.176	3.111
847.500	481.096	80.007	19.989	100.313	20.176	3.100
849.000	481.840	80.004	19.988	100.316	20.178	2.928
850.500	482.544	80.008	19.993	100.313	20.178	2.930
852.000	483.296	80.012	19.990	100.317	20.178	2.880
853.500	484.062	80.004	19.990	100.310	20.179	2.861
855.000	484.772	80.018	19.992	100.305	20.178	2.914
856.500	485.516	80.007	19.989	100.307	20.179	2.820
858.000	486.273	80.014	19.996	100.305	20.181	2.661
859.500	487.020	80.012	19.990	100.312	20.179	2.842
861.000	487.748	80.012	19.991	100.308	20.180	2.731
862.500	488.468	80.007	19.989	100.307	20.181	2.681
864.000	489.230	80.016	19.994	100.303	20.181	2.689
865.500	489.953	80.008	19.989	100.307	20.182	2.563
867.000	490.669	80.011	19.990	100.304	20.183	2.486
868.500	491.424	80.013	19.992	100.308	20.183	2.525
870.000	492.160	80.008	19.988	100.310	20.184	2.457
871.500	492.895	80.014	19.990	100.304	20.184	2.440
873.000	493.637	80.015	19.992	100.308	20.185	2.350
874.500	494.390	80.020	19.994	100.314	20.184	2.471
876.000	495.110	80.012	19.990	100.307	20.185	2.395
877.500	495.853	80.005	19.986	100.298	20.184	2.447
879.000	496.611	80.013	19.989	100.297	20.182	2.592
880.500	497.358	80.007	19.991	100.303	20.184	2.410
882.000	498.070	80.010	19.990	100.302	20.183	2.513
883.500	498.824	80.017	19.992	100.298	20.183	2.551
885.000	499.575	80.017	19.992	100.298	20.185	2.376
886.500	500.301	80.009	19.988	100.299	20.184	2.427
888.000	501.009	80.011	19.989	100.301	20.186	2.293
889.500	501.793	80.003	19.985	100.305	20.185	2.351
891.000	502.535	80.013	19.991	100.301	20.187	2.175
892.500	503.249	80.014	19.990	100.304	20.185	2.325
894.000	504.002	80.016	19.991	100.301	20.187	2.230
895.500	504.782	80.011	19.990	100.303	20.187	2.220
897.000	505.477	80.014	19.990	100.299	20.187	2.176
898.500	506.213	80.010	19.991	100.302	20.189	2.084
900.000	506.981	80.018	19.993	100.307	20.190	1.950
901.500	507.729	80.011	19.990	100.310	20.188	2.137
903.000	508.445	80.020	19.994	100.301	20.190	1.951
904.500	509.203	80.015	19.993	100.306	20.189	2.054
906.000	509.936	80.005	19.989	100.304	20.190	2.004
907.500	510.697	80.001	19.985	100.296	20.189	2.022
909.000	511.410	80.013	19.991	100.305	20.189	2.017
910.500	512.178	80.005	19.987	100.310	20.190	2.001
912.000	512.919	80.012	19.991	100.290	20.190	1.956
913.500	513.641	80.015	19.993	100.288	20.190	1.936
915.000	514.388	80.012	19.992	100.295	20.190	1.972
916.500	515.136	80.011	19.990	100.298	20.190	1.958
918.000	515.843	80.011	19.991	100.294	20.190	2.001
919.500	516.566	80.012	19.992	100.294	20.190	1.966
921.000	517.349	80.011	19.990	100.292	20.191	1.878
922.500	518.096	80.010	19.991	100.284	20.192	1.795
924.000	518.825	80.009	19.990	100.285	20.191	1.886
925.500	519.582	80.008	19.989	100.283	20.192	1.820
927.000	520.336	80.007	19.988	100.282	20.192	1.835
928.500	521.063	80.012	19.992	100.291	20.192	1.795
930.000	521.794	80.010	19.991	100.293	20.193	1.694
931.500	522.574	80.017	19.994	100.290	20.193	1.735
933.000	523.307	80.010	19.990	100.308	20.193	1.749
934.500	524.021	80.004	19.987	100.310	20.194	1.629
936.000	524.803	80.010	19.991	100.303	20.193	1.699
937.500	525.551	80.010	19.991	100.308	20.195	1.595
939.000	526.276	80.007	19.988	100.309	20.195	1.532
940.500	527.007	80.007	19.989	100.307	20.196	1.476
942.000	527.781	80.008	19.990	100.304	20.195	1.547
943.500	528.528	80.009	19.991	100.306	20.196	1.470
945.000	529.245	80.002	19.987	100.308	20.196	1.498
946.500	530.014	80.013	19.991	100.298	20.197	1.415
948.000	530.751	80.005	19.988	100.304	20.197	1.417
949.500	531.498	80.006	19.990	100.303	20.197	1.380
951.000	532.243	80.009	19.990	100.306	20.198	1.316
952.500	532.987	80.012	19.992	100.302	20.199	1.227
954.000	533.748	80.006	19.988	100.303	20.201	1.114
955.500	534.469	80.010	19.991	100.306	20.200	1.136
957.000	535.221	80.004	19.988	100.311	20.202	0.982
958.500	535.977	80.007	19.989	100.312	20.200	1.184
960.000	536.716	80.010	19.990	100.306	20.202	1.042
961.500	537.442	80.014	19.992	100.302	20.201	1.056
963.000	538.208	80.006	19.989	100.308	20.200	1.133
964.500	538.932	80.009	19.989	100.308	20.200	1.148
966.000	539.674	80.008	19.990	100.301	20.201	1.073
967.500	540.421	80.009	19.989	100.302	20.199	1.262
969.000	541.193	80.008	19.990	100.300	20.201	1.116
970.500	541.903	80.006	19.988	100.299	20.201	1.115
972.000	542.648	80.009	19.990	100.306	20.202	1.039
973.500	543.397	80.007	19.990	100.307	20.200	1.163
975.000	544.130	80.006	19.989	100.300	20.201	1.129
976.500	544.876	80.008	19.989	100.295	20.201	1.095
978.000	545.600	80.010	19.990	100.308	20.199	1.255
979.500	546.366	80.010	19.990	100.293	20.200	1.182
981.000	547.084	80.006	19.989	100.292	20.201	1.126
982.500	547.807	80.015	19.993	100.300	20.201	1.056
984.000	548.573	80.018	19.994	100.302	20.201	1.056
985.500	549.310	80.006	19.988	100.304	20.201	1.054
987.000	550.010	80.001	19.985	100.298	20.200	1.146
988.500	550.776	80.009	19.989	100.299	20.199	1.286
990.000	551.531	80.012	19.991	100.308	20.202	1.045
991.500	552.261	80.007	19.989	100.306	20.202	1.007
993.000	552.983	80.009	19.988	100.296	20.203	0.918
994.500	553.722	80.009	19.989	100.295	20.203	0.946
996.000	554.466	80.009	19.989	100.303	20.202	1.051
997.500	555.169	80.009	19.989	100.299	20.201	1.123
999.000	555.935	80.004	19.987	100.303	20.201	1.114
1000.500	556.683	80.012	19.990	100.288	20.203	0.951
1002.000	557.403	80.005	19.987	100.287	20.200	1.163
1003.500	558.123	80.004	19.988	100.310	20.201	1.118
1005.000	558.884	80.015	19.991	100.303	20.200	1.170
1006.500	559.622	80.010	19.990	100.297	20.202	1.026
1008.000	560.343	80.006	19.988	100.301	20.202	0.977
1009.500	561.072	80.015	19.992	100.290	20.202	0.981
1011.000	561.836	80.018	19.993	100.287	20.202	0.993
1012.500	562.557	80.010	19.990	100.299	20.202	1.035
1014.001	563.268	80.009	19.990	100.297	20.202	1.019
1015.500	564.025	80.006	19.988	100.298	20.202	1.010
1017.000	564.765	80.009	19.989	100.299	20.202	1.023
1018.500	565.486	80.003	19.987	100.295	20.202	1.036
1020.000	566.233	80.008	19.989	100.287	20.202	1.029
1021.500	566.980	80.007	19.990	100.290	20.202	1.023
1023.000	567.701	80.015	19.993	100.294	20.203	0.908
1024.500	568.443	80.013	19.992	100.293	20.203	0.948
1026.000	569.197	80.007	19.987	100.299	20.202	1.012
1027.500	569.935	80.008	19.989	100.305	20.202	0.982
1029.000	570.662	80.008	19.989	100.303	20.205	0.807
1030.501	571.387	80.012	19.991	100.295	20.204	0.880
1032.001	572.158	80.012	19.990	100.298	20.203	0.956
1033.500	572.880	80.012	19.991	100.296	20.204	0.853
1035.000	573.613	80.012	19.991	100.304	20.204	0.863
1036.500	574.365	80.012	19.991	100.307	20.204	0.886
1038.000	575.115	80.010	19.990	100.292	20.204	0.817
1039.500	575.831	80.003	19.987	100.280	20.203	0.947
1041.000	576.583	80.012	19.990	100.286	20.203	0.929
1042.500	577.333	80.017	19.994	100.298	20.204	0.857
1044.000	578.079	80.017	19.992	100.307	20.205	0.798
1045.501	578.804	80.004	19.986	100.302	20.203	0.939
1047.000	579.556	80.010	19.989	100.300	20.204	0.865
1048.500	580.302	80.020	19.994	100.294	20.204	0.836
1050.001	581.052	80.008	19.989	100.295	20.204	0.814
1051.500	581.755	80.010	19.988	100.298	20.204	0.846
1053.000	582.545	80.012	19.990	100.292	20.206	0.669
1054.500	583.269	80.010	19.989	100.279	20.204	0.834
1056.000	583.984	80.009	19.987	100.276	20.205	0.772
1057.500	584.765	80.006	19.986	100.293	20.205	0.741
1059.001	585.490	80.014	19.990	100.295	20.205	0.737
1060.501	586.254	80.008	19.988	100.296	20.205	0.811
1062.000	586.978	80.007	19.988	100.298	20.205	0.760
1063.500	587.747	80.006	19.987	100.296	20.205	0.764
1065.001	588.487	80.004	19.987	100.297	20.205	0.794
1066.501	589.201	80.016	19.992	100.288	20.204	0.873
1068.000	589.973	80.009	19.989	100.293	20.204	0.856
1069.500	590.708	80.004	19.987	100.288	20.204	0.845
1071.000	591.469	80.014	19.992	100.286	20.203	0.944
1072.500	592.199	80.008	19.989	100.304	20.204	0.863
1074.000	592.975	80.008	19.990	100.300	20.204	0.865
1075.500	593.720	80.010	19.990	100.285	20.205	0.768
1077.000	594.437	80.008	19.989	100.292	20.205	0.805
1078.501	595.209	80.012	19.991	100.295	20.206	0.676
1080.000	595.964	80.009	19.989	100.305	20.205	0.805
1081.500	596.687	80.019	19.995	100.304	20.206	0.655
1083.000	597.442	80.008	19.990	100.307	20.204	0.819
1084.500	598.215	80.001	19.987	100.301	20.206	0.692
1086.000	598.940	80.020	19.995	100.291	20.205	0.755
1087.500	599.665	80.011	19.992	100.291	20.204	0.820
1089.000	600.421	80.015	19.994	100.290	20.206	0.731
1090.500	601.192	80.009	19.990	100.301	20.206	0.684
1092.000	601.918	80.005	19.988	100.295	20.207	0.615
1093.500	602.651	80.006	19.989	100.295	20.206	0.655
1095.001	603.422	80.015	19.993	100.300	20.207	0.601
1096.500	604.160	80.005	19.988	100.306	20.208	0.549
1098.000	604.891	80.015	19.993	100.297	20.209	0.444
1099.501	605.643	80.016	19.993	100.301	20.208	0.518
1101.000	606.398	80.007	19.987	100.306	20.208	0.510
1102.500	607.110	80.007	19.989	100.301	20.209	0.451
1104.000	607.859	80.015	19.993	100.299	20.210	0.348
1105.500	608.636	80.013	19.993	100.309	20.209	0.492
1107.001	609.352	80.008	19.991	100.302	20.208	0.532
1108.500	610.097	80.010	19.992	100.292	20.208	0.544
1110.000	610.853	80.013	19.993	100.296	20.208	0.507
1111.500	611.588	80.012	19.991	100.288	20.208	0.505
1113.000	612.318	80.010	19.991	100.282	20.208	0.557
1114.501	613.068	80.002	19.987	100.301	20.206	0.659
1116.000	613.839	80.008	19.990	100.303	20.207	0.648
1117.501	614.537	80.009	19.991	100.291	20.207	0.619
1119.000	615.290	80.009	19.990	100.284	20.206	0.672
1120.500	616.072	80.002	19.987	100.294	20.207	0.650
1122.000	616.795	80.007	19.989	100.296	20.208	0.505
1123.500	617.525	80.004	19.988	100.295	20.207	0.587
1125.001	618.273	80.007	19.989	100.292	20.206	0.662
1126.500	619.040	80.010	19.991	100.295	20.208	0.501
1128.001	619.761	80.005	19.988	100.292	20.207	0.586
1129.500	620.488	80.010	19.991	100.285	20.208	0.555
1131.001	621.264	80.008	19.990	100.300	20.205	0.745
1132.500	622.016	80.007	19.989	100.299	20.207	0.582
1134.000	622.730	80.008	19.989	100.285	20.208	0.543
1135.500	623.480	80.016	19.994	100.296	20.208	0.547
1137.000	624.241	80.014	19.993	100.312	20.207	0.603
1138.501	624.968	80.010	19.990	100.305	20.207	0.615
1140.000	625.689	80.006	19.989	100.300	20.208	0.524
1141.500	626.461	80.007	19.990	100.296	20.207	0.620
1143.000	627.206	80.005	19.988	100.291	20.207	0.596
1144.500	627.927	80.003	19.988	100.287	20.209	0.450
1146.000	628.660	80.019	19.995	100.294	20.208	0.545
1147.501	629.413	80.011	19.991	100.303	20.209	0.464
1149.000	630.133	80.002	19.987	100.290	20.208	0.541
1150.500	630.861	80.010	19.990	100.281	20.210	0.415
1152.000	631.618	80.001	19.986	100.281	20.207	0.623
1153.500	632.353	80.004	19.987	100.271	20.210	0.411
1155.000	633.082	80.009	19.990	100.283	20.207	0.577
1156.500	633.821	80.009	19.989	100.292	20.208	0.529
1158.000	634.589	80.000	19.986	100.288	20.209	0.489
1159.501	635.307	80.015	19.993	100.280	20.209	0.476
1161.000	636.026	80.004	19.986	100.266	20.210	0.352
1162.500	636.778	80.012	19.990	100.260	20.208	0.521
1164.000	637.524	80.010	19.989	100.262	20.208	0.532
1165.501	638.244	80.007	19.987	100.261	20.208	0.531
1167.000	638.981	80.011	19.989	100.265	20.206	0.680
1168.500	639.756	80.009	19.990	100.265	20.205	0.766
1170.000	640.456	80.012	19.991	100.272	20.207	0.606
1171.500	641.172	80.011	19.990	100.288	20.208	0.574
1173.000	641.921	80.005	19.987	100.296	20.208	0.527
1174.500	642.677	80.001	19.985	100.296	20.209	0.475
1176.000	643.392	80.006	19.988	100.274	20.210	0.348
1177.500	644.134	80.000	19.985	100.268	20.213	0.153
1179.000	644.901	80.010	19.989	100.280	20.212	0.179
1180.501	645.618	80.010	19.990	100.294	20.215	0.006
1182.001	646.356	80.009	19.990	100.299	20.215	-0.045
1183.500	647.098	80.009	19.989	100.285	20.216	-0.078
1185.000	647.848	80.012	19.991	100.288	20.214	0.079
1186.500	648.563	80.010	19.990	100.288	20.212	0.230
1188.000	649.305	80.016	19.993	100.283	20.211	0.318
1189.501	650.045	80.019	19.994	100.277	20.211	0.276
1191.000	650.789	80.007	19.988	100.276	20.211	0.317
1192.501	651.494	80.014	19.992	100.266	20.213	0.106
1194.000	652.264	80.010	19.989	100.281	20.213	0.123
1195.500	653.007	80.008	19.988	100.295	20.213	0.156
1197.000	653.735	80.009	19.989	100.293	20.212	0.229
1198.500	654.474	80.018	19.993	100.298	20.210	0.361
1200.000	655.233	80.007	19.988	100.295	20.210	0.354
1201.500	655.962	80.009	19.990	100.285	20.213	0.162
1203.000	656.703	80.006	19.988	100.288	20.209	0.466
1204.500	657.453	80.018	19.993	100.292	20.210	0.410
1206.001	658.207	80.015	19.992	100.298	20.209	0.459
1207.501	658.957	80.010	19.989	100.292	20.209	0.496
1209.000	659.684	80.005	19.990	100.290	20.211	0.334
1210.500	660.463	80.016	19.991	100.300	20.209	0.434
1212.000	661.179	80.016	19.992	100.296	20.209	0.470
1213.500	661.914	80.007	19.988	100.299	20.208	0.524
1215.001	662.681	80.009	19.989	100.296	20.209	0.440
1216.500	663.441	80.007	19.987	100.300	20.210	0.405
1218.000	664.167	80.003	19.987	100.286	20.210	0.359
1219.500	664.900	80.016	19.991	100.285	20.210	0.400
1221.000	665.671	79.999	19.983	100.293	20.209	0.447
1222.500	666.399	80.008	19.988	100.277	20.210	0.410
1224.000	667.127	80.007	19.988	100.282	20.210	0.396
1225.500	667.860	80.010	19.988	100.278	20.210	0.358
1227.001	668.597	80.006	19.988	100.275	20.209	0.466
1228.500	669.334	80.019	19.992	100.291	20.210	0.404
1230.001	670.053	80.013	19.990	100.287	20.210	0.372
1231.500	670.810	80.004	19.986	100.271	20.209	0.453
1233.000	671.542	80.012	19.990	100.277	20.208	0.499
1234.501	672.263	80.011	19.989	100.285	20.211	0.309
1236.000	673.021	80.005	19.987	100.283	20.211	0.311
1237.500	673.729	80.013	19.991	100.282	20.211	0.311
1239.001	674.481	80.002	19.987	100.282	20.211	0.306
1240.500	675.205	80.004	19.987	100.282	20.211	0.309
1242.000	675.976	80.014	19.992	100.290	20.212	0.244
1243.500	676.681	80.012	19.991	100.292	20.211	0.322
1245.000	677.416	80.019	19.994	100.279	20.212	0.206
1246.500	678.152	80.005	19.987	100.273	20.213	0.165
1248.001	678.890	80.010	19.990	100.272	20.216	-0.069
1249.500	679.609	80.020	19.994	100.275	20.216	-0.075
1251.000	680.365	80.008	19.988	100.276	20.216	-0.136
1252.500	681.132	80.008	19.989	100.275	20.215	-0.051
1254.000	681.842	80.010	19.989	100.273	20.215	-0.021
1255.500	682.623	80.007	19.989	100.269	20.212	0.210
1257.000	683.388	80.015	19.993	100.265	20.212	0.200
1258.500	684.139	80.011	19.989	100.277	20.213	0.169
1260.000	684.923	80.016	19.992	100.283	20.212	0.240
1261.501	685.683	80.009	19.989	100.281	20.211	0.265
1263.000	686.478	80.009	19.990	100.285	20.211	0.334
1264.500	687.235	80.008	19.989	100.286	20.211	0.321
1266.001	688.007	80.006	19.989	100.281	20.211	0.284
1267.500	688.835	80.005	19.988	100.274	20.210	0.339
1269.000	689.630	80.005	19.988	100.267	20.211	0.308
1270.500	690.411	80.012	19.991	100.268	20.212	0.215
1272.000	691.212	80.006	19.988	100.273	20.213	0.144
1273.500	692.018	80.013	19.991	100.269	20.212	0.193
1275.000	692.789	80.012	19.991	100.278	20.211	0.258
1276.500	693.568	80.004	19.988	100.278	20.212	0.209
1278.000	694.377	80.010	19.990	100.268	20.214	0.097
1279.500	695.195	80.019	19.995	100.275	20.213	0.122
1281.000	695.955	80.005	19.989	100.278	20.214	0.027
1282.500	696.760	80.008	19.989	100.273	20.213	0.176
1284.000	697.577	80.003	19.987	100.274	20.213	0.123
1285.501	698.358	80.004	19.987	100.272	20.214	0.099
1287.000	699.131	80.016	19.993	100.272	20.213	0.148
1288.500	699.929	80.006	19.988	100.278	20.213	0.132
1290.000	700.715	80.007	19.990	100.267	20.214	0.030
1291.500	701.476	80.010	19.990	100.258	20.214	0.089
1293.001	702.248	80.011	19.990	100.259	20.215	0.014
1294.500	703.053	80.019	19.994	100.271	20.215	0.005
1296.001	703.801	80.004	19.989	100.272	20.215	0.018
1297.500	704.538	80.016	19.993	100.264	20.214	0.086
1299.000	705.344	80.011	19.992	100.274	20.213	0.126
1300.500	706.093	80.010	19.990	100.271	20.214	0.020
1302.000	706.853	80.006	19.989	100.270	20.214	0.076
1303.500	707.595	80.015	19.992	100.272	20.213	0.107
1305.001	708.367	80.009	19.989	100.274	20.214	0.022
1306.501	709.124	80.010	19.990	100.265	20.215	-0.019
1308.000	709.835	80.008	19.990	100.263	20.217	-0.203
1309.500	710.602	80.008	19.989	100.263	20.217	-0.180
1311.000	711.333	80.008	19.989	100.265	20.217	-0.208
1312.501	712.053	80.004	19.989	100.261	20.219	-0.368
1314.001	712.804	80.012	19.992	100.260	20.218	-0.259
1315.500	713.565	80.012	19.992	100.261	20.219	-0.320
1317.000	714.261	80.008	19.989	100.264	20.219	-0.345
1318.500	714.960	80.001	19.985	100.262	20.220	-0.419
1320.000	715.740	80.011	19.990	100.257	20.221	-0.479
1321.500	716.464	80.014	19.992	100.265	20.220	-0.428
1323.000	717.173	80.019	19.994	100.269	20.220	-0.386
1324.500	717.911	80.009	19.990	100.273	20.221	-0.462
1326.000	718.664	80.012	19.991	100.271	20.217	-0.210
1327.501	719.364	80.013	19.991	100.270	20.219	-0.349
1329.000	720.089	80.009	19.990	100.267	20.219	-0.341
1330.501	720.813	80.010	19.990	100.261	20.218	-0.294
1332.000	721.552	80.010	19.989	100.258	20.217	-0.143
1333.500	722.260	80.009	19.991	100.263	20.218	-0.282
1335.000	722.988	80.006	19.988	100.266	20.218	-0.227
1336.501	723.745	80.005	19.987	100.265	20.217	-0.147
1338.000	724.448	80.008	19.988	100.261	20.218	-0.291
1339.500	725.169	80.009	19.989	100.255	20.218	-0.264
1341.000	725.893	80.008	19.989	100.246	20.219	-0.313
1342.500	726.639	80.008	19.989	100.239	20.217	-0.166
1344.000	727.332	80.001	19.985	100.235	20.217	-0.172
1345.501	728.062	80.013	19.992	100.229	20.215	-0.055
1347.000	728.817	80.018	19.993	100.237	20.217	-0.206
1348.500	729.540	80.008	19.989	100.241	20.217	-0.200
1350.000	730.258	80.006	19.988	100.244	20.217	-0.173
1351.500	731.000	80.008	19.989	100.257	20.218	-0.271
1353.000	731.738	80.012	19.991	100.252	20.218	-0.259
1354.501	732.443	80.010	19.992	100.250	20.221	-0.465
1356.001	733.190	80.012	19.991	100.262	20.219	-0.319
1357.500	733.947	80.014	19.993	100.259	20.220	-0.418
1359.000	734.660	80.010	19.990	100.258	20.220	-0.429
1360.500	735.388	80.019	19.995	100.261	20.220	-0.428
1362.000	736.143	80.013	19.988	100.262	20.220	-0.422
1363.500	736.864	80.009	19.990	100.256	20.220	-0.380
1365.001	737.600	80.006	19.990	100.258	20.221	-0.465
1366.500	738.340	80.009	19.990	100.257	20.220	-0.418
1368.000	739.105	80.014	19.993	100.259	20.220	-0.456
1369.500	739.819	80.005	19.989	100.258	20.222	-0.572
1371.000	740.527	80.009	19.990	100.260	20.222	-0.556
1372.500	741.288	80.013	19.993	100.269	20.221	-0.530
1374.001	742.027	80.007	19.989	100.276	20.224	-0.717
1375.500	742.756	80.009	19.990	100.267	20.222	-0.591
1377.000	743.509	80.018	19.995	100.258	20.223	-0.678
1378.500	744.272	80.008	19.990	100.263	20.223	-0.624
1380.000	744.961	80.008	19.989	100.265	20.223	-0.643
1381.501	745.712	80.010	19.991	100.260	20.223	-0.640
1383.001	746.475	80.011	19.990	100.252	20.223	-0.632