File: 01_Data/Corrugated_Cardboard/MCC/Corrugated_Cardboard_MCC_30K_min_231110_R2.txt
Sample ID:	C:\Users\MCC\Documents\MCC Data\ULINE_CB\ULINE_CB_MCC_N2_30K_231110_R2.txt
Sample Weight (mg):	4.01
Heating Rate (C/s):	0.5
Combustor Temp (C):	900
N2 Flow Rate (cc/min):	80
O2 Flow Rate (cc/min):	20
Calibration File:	C:\Users\MCC\Desktop\UMD MCC\MCC\Calibration Files\Coefficients\Coeff_231026_30K.txt
T Correction Coefficients:	0	1.0291	0
Time Shift (s):	8.5
*
Time (s)	Temperature (C)	N2 Flow (cc/min)	O2 Flow (cc/min)	End Flow (cc/min)	Oxygen (%)	HRR (W/g)
0.000	75.189	80.011	19.990	100.340	20.269	-0.269
1.500	75.297	80.005	19.987	100.338	20.268	-0.180
3.000	75.422	80.012	19.989	100.336	20.268	-0.182
4.500	75.548	80.006	19.988	100.341	20.268	-0.226
6.000	75.661	80.016	19.992	100.337	20.270	-0.329
7.500	75.790	80.016	19.991	100.332	20.270	-0.348
9.000	75.900	80.010	19.990	100.319	20.268	-0.182
10.500	76.016	80.010	19.989	100.271	20.272	-0.505
12.000	76.144	80.012	19.990	100.208	20.275	-0.775
13.500	76.265	80.007	19.989	100.216	20.281	-1.191
15.000	76.354	80.007	19.990	100.241	20.283	-1.382
16.500	76.474	80.010	19.990	100.263	20.281	-1.199
18.000	76.578	80.011	19.990	100.281	20.280	-1.149
19.500	76.680	80.018	19.994	100.306	20.279	-1.071
21.000	76.770	80.005	19.989	100.313	20.276	-0.860
22.500	76.907	80.007	19.989	100.309	20.275	-0.735
24.000	77.000	80.016	19.993	100.307	20.272	-0.515
25.500	77.114	80.017	19.992	100.320	20.271	-0.438
27.000	77.237	80.003	19.988	100.339	20.270	-0.351
28.500	77.368	80.006	19.991	100.346	20.268	-0.201
30.000	77.472	80.008	19.990	100.361	20.266	-0.070
31.500	77.637	80.008	19.988	100.361	20.265	0.004
33.001	77.769	80.011	19.994	100.355	20.264	0.105
34.500	77.915	80.015	19.994	100.370	20.263	0.173
36.001	78.073	80.005	19.987	100.383	20.261	0.336
37.500	78.238	80.008	19.989	100.396	20.260	0.433
39.000	78.421	80.015	19.994	100.419	20.255	0.792
40.500	78.605	80.009	19.990	100.430	20.254	0.851
42.000	78.827	80.007	19.990	100.440	20.250	1.209
43.500	79.040	80.008	19.990	100.462	20.248	1.354
45.000	79.266	80.018	19.995	100.490	20.244	1.669
46.500	79.516	80.012	19.991	100.505	20.241	1.883
48.001	79.810	80.012	19.989	100.501	20.238	2.158
49.501	80.117	80.007	19.988	100.504	20.235	2.372
51.000	80.437	80.014	19.991	100.515	20.235	2.415
52.500	80.768	80.008	19.987	100.532	20.233	2.572
54.000	81.143	79.998	19.983	100.541	20.229	2.868
55.501	81.505	80.007	19.988	100.563	20.226	3.085
57.000	81.913	80.011	19.990	100.587	20.223	3.341
58.500	82.351	80.009	19.990	100.603	20.220	3.589
60.001	82.826	80.016	19.992	100.601	20.216	3.855
61.500	83.281	80.015	19.993	100.592	20.215	3.965
63.000	83.771	79.999	19.982	100.608	20.213	4.085
64.500	84.318	80.005	19.988	100.611	20.213	4.131
66.000	84.827	80.011	19.990	100.602	20.213	4.094
67.500	85.377	80.007	19.990	100.593	20.211	4.243
69.000	85.980	80.009	19.988	100.580	20.211	4.224
70.500	86.566	80.006	19.989	100.588	20.211	4.259
72.000	87.155	80.012	19.990	100.592	20.210	4.350
73.500	87.788	80.005	19.987	100.593	20.211	4.226
75.000	88.445	80.008	19.990	100.596	20.209	4.420
76.500	89.082	80.012	19.991	100.595	20.209	4.393
78.000	89.743	80.005	19.987	100.595	20.210	4.345
79.500	90.410	80.005	19.986	100.594	20.210	4.373
81.001	91.119	80.016	19.992	100.594	20.210	4.363
82.500	91.806	79.999	19.985	100.600	20.208	4.458
84.000	92.514	80.007	19.987	100.606	20.210	4.328
85.500	93.285	80.002	19.988	100.609	20.208	4.468
87.001	94.004	79.997	19.984	100.604	20.210	4.311
88.500	94.736	80.005	19.986	100.603	20.209	4.433
90.000	95.532	80.010	19.990	100.609	20.209	4.419
91.500	96.295	80.016	19.990	100.618	20.208	4.490
93.000	97.082	80.011	19.990	100.616	20.209	4.424
94.500	97.878	80.011	19.990	100.620	20.209	4.451
96.000	98.682	80.012	19.991	100.622	20.209	4.393
97.500	99.520	80.008	19.989	100.620	20.208	4.486
99.000	100.314	80.019	19.994	100.610	20.209	4.401
100.500	101.195	80.024	19.996	100.605	20.207	4.536
102.000	102.032	79.998	19.988	100.602	20.209	4.407
103.500	102.865	79.996	19.983	100.605	20.207	4.583
105.000	103.754	80.016	19.992	100.619	20.209	4.401
106.500	104.640	80.012	19.990	100.630	20.208	4.485
108.000	105.502	80.004	19.986	100.613	20.210	4.350
109.500	106.363	80.010	19.990	100.599	20.210	4.298
111.000	107.284	80.016	19.992	100.604	20.211	4.249
112.500	108.176	80.020	19.994	100.595	20.213	4.061
114.001	109.053	80.008	19.988	100.583	20.216	3.894
115.500	109.971	80.002	19.984	100.583	20.214	4.013
117.000	110.896	80.002	19.985	100.598	20.215	3.962
118.500	111.802	80.006	19.986	100.596	20.216	3.898
120.000	112.696	80.019	19.993	100.582	20.215	3.909
121.500	113.618	80.003	19.986	100.598	20.216	3.832
123.000	114.546	80.008	19.987	100.587	20.216	3.828
124.500	115.456	80.006	19.990	100.559	20.217	3.749
126.000	116.375	79.999	19.986	100.557	20.220	3.512
127.501	117.308	80.010	19.991	100.562	20.220	3.571
129.000	118.208	80.009	19.990	100.557	20.221	3.505
130.500	119.117	80.008	19.988	100.547	20.220	3.545
132.000	120.039	80.024	19.994	100.547	20.219	3.593
133.500	120.971	80.015	19.994	100.558	20.221	3.482
135.000	121.844	80.005	19.988	100.554	20.222	3.394
136.500	122.765	80.002	19.979	100.539	20.223	3.311
138.000	123.692	79.998	19.981	100.536	20.223	3.277
139.500	124.578	80.005	19.988	100.537	20.223	3.320
141.000	125.458	80.006	19.989	100.541	20.223	3.352
142.500	126.371	80.006	19.994	100.537	20.223	3.279
144.000	127.303	80.023	19.995	100.529	20.226	3.113
145.500	128.143	80.011	19.985	100.534	20.226	3.107
147.000	129.053	80.010	19.989	100.526	20.226	3.057
148.500	129.926	80.015	19.994	100.508	20.226	3.071
150.000	130.801	80.009	19.988	100.510	20.226	3.050
151.500	131.663	79.990	19.978	100.517	20.226	3.042
153.000	132.562	80.017	19.989	100.515	20.227	3.033
154.500	133.426	80.018	19.993	100.519	20.226	3.083
156.000	134.279	80.015	19.992	100.509	20.227	3.034
157.500	135.128	80.017	19.992	100.506	20.228	2.915
159.000	136.004	80.007	19.987	100.518	20.230	2.777
160.500	136.845	80.006	19.990	100.510	20.228	2.897
162.000	137.670	79.995	19.981	100.502	20.229	2.832
163.500	138.539	80.017	19.987	100.481	20.230	2.804
165.000	139.396	80.010	19.990	100.479	20.231	2.679
166.500	140.199	80.024	19.998	100.487	20.233	2.566
168.000	141.024	80.025	19.992	100.501	20.235	2.396
169.500	141.890	80.008	19.990	100.491	20.236	2.297
171.000	142.688	80.016	19.994	100.473	20.236	2.297
172.500	143.502	80.010	19.984	100.469	20.236	2.258
174.000	144.298	80.002	19.991	100.466	20.237	2.207
175.500	145.114	80.022	19.995	100.471	20.237	2.199
177.000	145.909	80.012	19.990	100.474	20.238	2.157
178.500	146.720	80.003	19.987	100.479	20.237	2.195
180.000	147.524	80.018	19.990	100.476	20.239	2.069
181.500	148.291	80.009	19.990	100.474	20.239	2.071
183.000	149.073	80.008	19.990	100.476	20.237	2.239
184.500	149.880	80.011	19.991	100.467	20.238	2.179
186.000	150.653	80.017	19.991	100.463	20.237	2.245
187.500	151.436	80.008	19.990	100.462	20.236	2.305
189.000	152.211	80.008	19.989	100.458	20.236	2.297
190.500	152.991	80.011	19.992	100.459	20.235	2.356
192.000	153.734	80.009	19.983	100.460	20.237	2.229
193.500	154.498	80.006	19.990	100.454	20.237	2.218
195.001	155.252	80.014	19.989	100.460	20.238	2.140
196.501	156.040	80.003	19.990	100.461	20.236	2.311
198.000	156.778	80.004	19.990	100.461	20.238	2.129
199.500	157.544	80.009	19.987	100.457	20.238	2.138
201.000	158.300	79.999	19.983	100.467	20.238	2.163
202.500	159.047	80.003	19.988	100.468	20.238	2.126
204.000	159.779	80.015	19.991	100.462	20.239	2.048
205.500	160.535	80.012	19.993	100.458	20.237	2.190
207.000	161.322	80.007	19.986	100.450	20.239	2.065
208.500	162.047	80.009	19.988	100.448	20.237	2.188
210.000	162.789	80.012	19.989	100.454	20.239	2.063
211.500	163.543	80.010	19.987	100.460	20.238	2.119
213.000	164.293	80.019	19.991	100.466	20.238	2.170
214.500	165.031	80.011	19.990	100.468	20.236	2.318
216.000	165.795	80.006	19.988	100.451	20.237	2.211
217.500	166.558	80.003	19.990	100.446	20.237	2.184
219.000	167.278	80.008	19.991	100.457	20.238	2.162
220.500	168.019	80.010	19.992	100.456	20.237	2.200
222.000	168.814	80.011	19.993	100.457	20.238	2.109
223.500	169.521	80.009	19.989	100.467	20.238	2.166
225.000	170.266	80.008	19.997	100.459	20.238	2.164
226.500	171.038	80.000	19.988	100.460	20.238	2.147
228.000	171.795	80.003	19.988	100.456	20.238	2.112
229.500	172.529	80.002	19.994	100.457	20.239	2.064
231.000	173.285	80.008	19.988	100.461	20.237	2.219
232.500	174.073	80.010	19.988	100.451	20.241	1.911
234.000	174.803	80.009	19.995	100.454	20.240	1.987
235.500	175.539	80.010	19.992	100.467	20.240	1.977
237.000	176.327	80.015	19.987	100.472	20.241	1.909
238.500	177.100	80.019	19.991	100.464	20.240	1.972
240.000	177.838	80.009	19.985	100.455	20.239	2.098
241.500	178.598	80.007	19.988	100.449	20.240	1.996
243.000	179.386	80.005	19.989	100.439	20.238	2.127
244.500	180.132	80.010	19.989	100.437	20.240	1.982
246.000	180.874	79.998	19.984	100.446	20.240	2.013
247.500	181.669	80.003	19.979	100.456	20.241	1.882
249.000	182.431	79.999	19.986	100.443	20.240	1.966
250.500	183.171	80.016	19.994	100.448	20.240	1.949
252.000	183.968	80.008	19.994	100.450	20.242	1.861
253.500	184.764	80.008	19.985	100.445	20.241	1.924
255.001	185.504	80.007	19.991	100.419	20.241	1.874
256.500	186.279	80.018	19.995	100.436	20.242	1.859
258.000	187.057	80.014	19.990	100.451	20.242	1.820
259.500	187.833	80.008	19.991	100.430	20.241	1.921
261.000	188.599	79.998	19.988	100.434	20.242	1.803
262.500	189.379	80.011	19.994	100.436	20.242	1.848
264.000	190.176	80.019	19.995	100.442	20.241	1.929
265.500	190.948	80.013	19.987	100.435	20.241	1.892
267.000	191.712	80.002	19.991	100.426	20.240	1.953
268.500	192.511	80.024	19.998	100.431	20.239	2.056
270.000	193.303	80.008	19.992	100.427	20.241	1.938
271.500	194.067	80.009	19.996	100.412	20.239	2.095
273.000	194.853	80.007	19.991	100.422	20.238	2.103
274.500	195.632	80.005	19.992	100.427	20.239	2.051
276.000	196.396	80.014	19.993	100.425	20.240	1.971
277.500	197.167	80.009	19.986	100.427	20.240	2.002
279.000	197.951	80.008	19.991	100.429	20.241	1.919
280.500	198.750	80.022	19.990	100.422	20.239	2.030
282.000	199.502	80.000	19.991	100.421	20.241	1.924
283.500	200.293	80.006	19.990	100.430	20.240	1.964
285.000	201.075	80.012	19.990	100.423	20.241	1.882
286.500	201.858	80.012	19.990	100.418	20.242	1.819
288.000	202.612	80.015	19.991	100.421	20.242	1.852
289.500	203.416	80.004	19.993	100.427	20.240	1.978
291.000	204.195	80.018	19.991	100.423	20.241	1.872
292.500	204.955	80.005	19.986	100.424	20.242	1.850
294.000	205.735	80.011	19.990	100.423	20.240	1.993
295.500	206.550	80.013	19.990	100.419	20.241	1.888
297.000	207.316	80.015	19.989	100.417	20.241	1.930
298.500	208.056	80.014	19.990	100.413	20.239	2.094
300.000	208.868	80.010	19.989	100.418	20.241	1.907
301.500	209.634	80.007	19.989	100.426	20.241	1.866
303.000	210.400	80.014	19.991	100.427	20.239	2.053
304.500	211.153	80.017	19.992	100.421	20.242	1.814
306.000	211.949	80.019	19.994	100.418	20.239	2.030
307.501	212.725	80.013	19.990	100.414	20.240	1.977
309.000	213.475	80.010	19.989	100.412	20.242	1.864
310.500	214.272	80.015	19.989	100.413	20.242	1.788
312.000	215.050	80.019	19.996	100.414	20.241	1.886
313.500	215.799	80.007	19.988	100.420	20.240	1.962
315.000	216.550	79.998	19.983	100.414	20.239	2.031
316.500	217.346	80.006	19.989	100.414	20.240	2.003
318.000	218.102	80.004	19.992	100.415	20.239	2.038
319.500	218.862	80.014	19.989	100.420	20.242	1.862
321.000	219.631	80.019	19.993	100.414	20.240	1.975
322.500	220.410	80.009	19.991	100.412	20.241	1.914
324.000	221.168	80.005	19.989	100.407	20.240	2.020
325.500	221.923	80.000	19.987	100.405	20.240	2.001
327.000	222.702	80.019	19.995	100.406	20.240	2.006
328.500	223.458	80.010	19.987	100.418	20.239	2.076
330.000	224.191	80.014	19.988	100.416	20.238	2.106
331.500	224.984	80.008	19.987	100.410	20.238	2.142
333.000	225.761	80.005	19.986	100.407	20.238	2.169
334.500	226.497	80.016	19.991	100.411	20.237	2.184
336.000	227.282	80.001	19.985	100.420	20.236	2.300
337.500	228.061	80.022	19.994	100.401	20.237	2.207
339.000	228.818	80.006	19.986	100.394	20.236	2.286
340.500	229.549	80.002	19.985	100.395	20.238	2.163
342.000	230.336	80.006	19.988	100.400	20.238	2.126
343.500	231.090	80.012	19.985	100.408	20.236	2.310
345.000	231.838	80.013	19.990	100.411	20.239	2.098
346.500	232.613	80.002	19.988	100.408	20.236	2.313
348.000	233.380	80.006	19.988	100.406	20.236	2.325
349.500	234.139	80.008	19.988	100.400	20.236	2.329
351.000	234.893	80.005	19.988	100.397	20.235	2.339
352.500	235.665	80.011	19.991	100.408	20.234	2.441
354.000	236.409	80.011	19.990	100.405	20.235	2.361
355.500	237.201	80.006	19.989	100.401	20.235	2.358
357.000	237.938	80.002	19.992	100.397	20.232	2.572
358.500	238.711	80.002	19.990	100.411	20.234	2.490
360.000	239.468	80.018	19.991	100.401	20.233	2.514
361.500	240.199	80.008	19.993	100.398	20.232	2.644
363.000	240.976	80.010	19.991	100.406	20.229	2.838
364.500	241.746	80.008	19.988	100.402	20.229	2.819
366.000	242.483	80.005	19.989	100.390	20.229	2.863
367.500	243.244	80.011	19.984	100.395	20.228	2.887
369.000	244.034	80.008	19.989	100.402	20.227	2.973
370.500	244.765	80.004	19.991	100.402	20.227	3.014
372.000	245.514	80.018	19.992	100.400	20.225	3.135
373.500	246.295	80.012	19.993	100.393	20.224	3.205
375.000	247.039	80.005	19.987	100.403	20.223	3.275
376.500	247.785	80.000	19.985	100.407	20.223	3.288
378.000	248.552	80.012	19.989	100.401	20.222	3.420
379.500	249.319	80.006	19.987	100.394	20.221	3.443
381.000	250.041	80.011	19.992	100.387	20.220	3.582
382.500	250.775	80.009	19.988	100.382	20.217	3.811
384.000	251.579	80.005	19.988	100.383	20.218	3.708
385.500	252.304	80.014	19.992	100.384	20.216	3.878
387.000	253.054	80.020	19.994	100.382	20.215	3.966
388.500	253.814	80.002	19.987	100.380	20.212	4.141
390.000	254.598	80.010	19.990	100.375	20.212	4.159
391.500	255.332	80.008	19.987	100.378	20.210	4.334
393.000	256.071	80.002	19.987	100.385	20.211	4.247
394.500	256.820	80.013	19.991	100.399	20.210	4.354
396.000	257.577	80.008	19.990	100.413	20.211	4.262
397.500	258.341	80.013	19.992	100.417	20.208	4.501
399.000	259.086	80.005	19.987	100.417	20.206	4.606
400.500	259.865	80.007	19.989	100.407	20.205	4.733
402.000	260.592	80.017	19.993	100.400	20.204	4.822
403.500	261.331	80.010	19.988	100.393	20.201	5.058
405.000	262.088	80.009	19.988	100.389	20.200	5.114
406.500	262.864	80.013	19.992	100.394	20.198	5.284
408.000	263.601	79.998	19.984	100.402	20.196	5.399
409.500	264.349	80.012	19.992	100.414	20.192	5.716
411.000	265.103	80.009	19.989	100.424	20.192	5.760
412.500	265.868	80.014	19.993	100.406	20.188	6.081
414.000	266.607	80.017	19.990	100.411	20.186	6.236
415.500	267.381	80.006	19.989	100.403	20.184	6.353
417.000	268.145	80.014	19.996	100.412	20.183	6.430
418.500	268.901	80.023	19.992	100.423	20.180	6.645
420.000	269.648	79.998	19.985	100.408	20.178	6.854
421.500	270.430	80.015	19.993	100.397	20.175	7.037
423.000	271.154	80.006	19.987	100.399	20.173	7.248
424.500	271.899	80.011	19.990	100.400	20.170	7.474
426.000	272.674	80.008	19.989	100.414	20.167	7.699
427.500	273.441	80.014	19.993	100.416	20.162	8.095
429.000	274.184	80.013	19.990	100.418	20.161	8.142
430.500	274.938	80.009	19.989	100.406	20.157	8.456
432.000	275.720	80.010	19.990	100.412	20.154	8.708
433.500	276.443	80.003	19.987	100.419	20.152	8.856
435.000	277.186	80.013	19.992	100.413	20.148	9.153
436.500	277.967	80.008	19.989	100.424	20.145	9.375
438.000	278.729	80.014	19.994	100.417	20.143	9.597
439.500	279.471	80.004	19.987	100.416	20.140	9.763
441.000	280.226	80.011	19.990	100.413	20.136	10.135
442.500	281.014	80.003	19.987	100.420	20.131	10.500
444.000	281.749	80.012	19.991	100.404	20.127	10.834
445.500	282.499	80.006	19.988	100.418	20.123	11.097
447.000	283.289	80.003	19.987	100.428	20.120	11.321
448.500	284.032	80.006	19.990	100.417	20.116	11.657
450.000	284.776	79.998	19.983	100.424	20.112	11.958
451.500	285.525	80.001	19.986	100.422	20.108	12.271
453.000	286.305	80.018	19.993	100.415	20.106	12.461
454.500	287.032	80.014	19.992	100.426	20.098	13.041
456.000	287.777	80.009	19.991	100.422	20.095	13.335
457.500	288.567	80.001	19.985	100.416	20.090	13.717
459.000	289.292	80.019	19.993	100.422	20.085	14.125
460.500	290.043	80.020	19.996	100.432	20.079	14.535
462.000	290.799	80.004	19.987	100.437	20.075	14.899
463.500	291.583	80.001	19.986	100.430	20.069	15.333
465.000	292.305	80.010	19.990	100.422	20.065	15.645
466.500	293.024	80.007	19.989	100.428	20.060	16.078
468.000	293.818	80.014	19.992	100.436	20.055	16.456
469.500	294.566	80.016	19.993	100.433	20.051	16.735
471.000	295.294	80.016	19.993	100.441	20.044	17.319
472.500	296.053	80.021	19.994	100.454	20.038	17.762
474.000	296.812	80.009	19.990	100.445	20.033	18.124
475.500	297.565	80.012	19.991	100.448	20.029	18.483
477.000	298.290	80.012	19.991	100.457	20.022	19.042
478.500	299.063	80.008	19.991	100.455	20.017	19.436
480.000	299.807	80.013	19.992	100.456	20.010	19.973
481.500	300.556	80.012	19.993	100.461	20.005	20.389
483.000	301.281	80.002	19.987	100.462	19.999	20.789
484.500	302.080	80.007	19.989	100.458	19.993	21.289
486.000	302.816	80.006	19.989	100.458	19.987	21.792
487.500	303.542	80.005	19.988	100.462	19.979	22.350
489.000	304.292	80.013	19.991	100.461	19.972	22.935
490.500	305.061	80.011	19.990	100.458	19.966	23.394
492.000	305.783	80.008	19.989	100.466	19.958	24.010
493.500	306.546	80.012	19.990	100.468	19.950	24.621
495.000	307.330	80.010	19.990	100.462	19.942	25.314
496.500	308.060	80.009	19.988	100.457	19.935	25.843
498.000	308.770	80.014	19.990	100.463	19.928	26.374
499.500	309.576	80.011	19.990	100.472	19.921	26.957
501.000	310.306	80.009	19.989	100.475	19.914	27.460
502.500	311.042	80.007	19.987	100.483	19.906	28.097
504.000	311.812	80.017	19.992	100.489	19.897	28.774
505.500	312.574	80.016	19.991	100.491	19.889	29.420
507.000	313.299	80.007	19.987	100.488	19.880	30.118
508.500	314.035	80.010	19.989	100.495	19.872	30.793
510.000	314.811	80.015	19.993	100.504	19.862	31.509
511.500	315.559	80.006	19.987	100.504	19.854	32.149
513.000	316.294	80.016	19.993	100.493	19.848	32.634
514.500	317.055	80.007	19.990	100.503	19.838	33.388
516.000	317.807	80.006	19.989	100.505	19.828	34.190
517.500	318.557	80.016	19.994	100.501	19.821	34.737
519.000	319.291	80.011	19.993	100.493	19.812	35.422
520.500	320.043	80.007	19.991	100.495	19.802	36.193
522.000	320.796	80.013	19.991	100.494	19.795	36.770
523.500	321.530	80.014	19.989	100.493	19.785	37.550
525.000	322.287	80.002	19.987	100.494	19.774	38.464
526.500	323.031	80.010	19.992	100.497	19.767	39.001
528.000	323.781	80.014	19.990	100.508	19.757	39.802
529.500	324.505	80.004	19.989	100.519	19.747	40.561
531.000	325.276	80.007	19.990	100.533	19.736	41.396
532.500	326.011	80.009	19.991	100.545	19.726	42.193
534.000	326.760	80.012	19.993	100.545	19.716	42.987
535.500	327.501	80.002	19.986	100.538	19.706	43.794
537.000	328.280	80.000	19.989	100.537	19.696	44.584
538.500	329.005	80.009	19.991	100.539	19.684	45.473
540.000	329.712	80.005	19.990	100.549	19.672	46.431
541.500	330.498	80.011	19.991	100.562	19.661	47.275
543.000	331.223	80.005	19.990	100.557	19.648	48.301
544.500	331.980	80.014	19.993	100.572	19.637	49.201
546.000	332.717	79.996	19.987	100.596	19.625	50.136
547.500	333.494	80.001	19.990	100.571	19.612	51.106
549.000	334.211	80.003	19.991	100.578	19.600	52.080
550.500	334.948	80.012	19.991	100.587	19.588	53.023
552.000	335.731	79.998	19.987	100.587	19.574	54.107
553.500	336.482	80.002	19.989	100.583	19.561	55.152
555.000	337.196	80.013	19.994	100.600	19.546	56.289
556.500	337.955	80.016	19.993	100.618	19.535	57.178
558.000	338.716	79.997	19.986	100.614	19.521	58.272
559.500	339.442	80.005	19.989	100.605	19.506	59.470
561.000	340.178	80.000	19.988	100.610	19.490	60.735
562.500	340.931	80.007	19.990	100.616	19.474	61.934
564.000	341.690	80.013	19.990	100.625	19.461	62.992
565.500	342.424	80.009	19.990	100.639	19.446	64.173
567.000	343.195	79.998	19.986	100.657	19.428	65.549
568.500	343.942	80.007	19.990	100.642	19.412	66.846
570.000	344.662	80.000	19.987	100.650	19.395	68.128
571.500	345.399	80.011	19.991	100.646	19.380	69.338
573.000	346.175	80.005	19.987	100.651	19.363	70.648
574.500	346.908	80.010	19.990	100.656	19.348	71.878
576.000	347.655	80.004	19.988	100.658	19.330	73.228
577.500	348.390	80.009	19.990	100.654	19.314	74.530
579.000	349.170	80.014	19.992	100.658	19.297	75.894
580.500	349.903	80.017	19.993	100.666	19.280	77.174
582.000	350.629	80.015	19.993	100.671	19.262	78.603
583.500	351.402	80.011	19.992	100.669	19.247	79.752
585.000	352.169	80.008	19.990	100.685	19.234	80.819
586.500	352.895	80.003	19.986	100.695	19.216	82.208
588.000	353.640	80.009	19.992	100.697	19.201	83.385
589.500	354.392	80.018	19.994	100.698	19.188	84.387
591.000	355.137	80.009	19.990	100.696	19.173	85.555
592.500	355.868	80.008	19.990	100.696	19.159	86.677
594.000	356.614	80.008	19.992	100.697	19.148	87.541
595.500	357.376	80.004	19.989	100.689	19.135	88.552
597.000	358.108	80.010	19.991	100.682	19.128	89.130
598.500	358.872	80.012	19.991	100.695	19.119	89.835
600.000	359.622	80.011	19.991	100.689	19.113	90.257
601.500	360.358	80.017	19.993	100.683	19.109	90.541
603.001	361.094	80.010	19.989	100.691	19.107	90.736
604.501	361.836	80.016	19.993	100.673	19.106	90.810
606.000	362.607	80.009	19.988	100.661	19.107	90.705
607.500	363.343	80.009	19.989	100.655	19.110	90.409
609.000	364.089	80.008	19.988	100.643	19.118	89.800
610.500	364.850	80.011	19.989	100.624	19.126	89.144
612.000	365.575	80.011	19.991	100.614	19.140	88.099
613.500	366.322	80.011	19.990	100.612	19.156	86.803
615.000	367.089	80.004	19.987	100.593	19.173	85.430
616.500	367.843	80.011	19.991	100.574	19.193	83.889
618.000	368.568	80.005	19.987	100.566	19.215	82.146
619.500	369.327	80.009	19.988	100.547	19.241	80.073
621.000	370.098	80.011	19.990	100.532	19.269	77.862
622.500	370.816	80.011	19.991	100.525	19.300	75.505
624.000	371.566	80.009	19.989	100.513	19.333	72.924
625.500	372.339	80.015	19.992	100.496	19.368	70.180
627.000	373.090	80.010	19.988	100.485	19.403	67.384
628.500	373.847	80.000	19.990	100.474	19.438	64.670
630.000	374.609	80.008	19.990	100.467	19.477	61.593
631.500	375.352	80.002	19.988	100.463	19.514	58.723
633.000	376.106	79.998	19.987	100.458	19.553	55.696
634.500	376.840	80.013	19.991	100.436	19.589	52.831
636.000	377.627	80.006	19.988	100.417	19.629	49.729
637.500	378.368	80.012	19.990	100.418	19.663	47.063
639.000	379.104	80.010	19.987	100.423	19.699	44.235
640.500	379.859	80.007	19.990	100.415	19.734	41.486
642.000	380.624	80.004	19.991	100.404	19.766	38.970
643.500	381.364	80.010	19.983	100.387	19.796	36.635
645.000	382.093	80.006	19.986	100.371	19.827	34.227
646.500	382.863	80.018	19.994	100.374	19.857	31.892
648.000	383.642	80.004	19.990	100.380	19.884	29.772
649.500	384.365	80.011	19.994	100.372	19.909	27.798
651.000	385.129	80.011	19.989	100.368	19.937	25.630
652.500	385.888	79.998	19.990	100.355	19.960	23.864
654.000	386.623	80.007	19.987	100.342	19.982	22.096
655.500	387.365	80.008	19.989	100.337	20.004	20.391
657.000	388.145	80.007	19.987	100.346	20.023	18.920
658.500	388.888	80.012	19.989	100.339	20.042	17.445
660.000	389.628	80.009	19.988	100.337	20.058	16.190
661.500	390.379	80.008	19.987	100.342	20.072	15.068
663.000	391.145	80.013	19.986	100.338	20.086	14.003
664.500	391.873	80.014	19.990	100.328	20.100	12.900
666.000	392.619	80.009	19.987	100.332	20.112	11.967
667.500	393.365	80.006	19.984	100.332	20.121	11.293
669.000	394.116	80.016	19.988	100.322	20.129	10.635
670.500	394.853	80.012	19.990	100.329	20.136	10.093
672.000	395.605	80.009	19.988	100.327	20.145	9.395
673.500	396.372	80.013	19.988	100.314	20.150	8.968
675.000	397.093	80.001	19.981	100.311	20.154	8.713
676.500	397.833	80.007	19.987	100.308	20.160	8.250
678.000	398.572	80.007	19.987	100.316	20.163	7.989
679.500	399.329	80.014	19.989	100.320	20.165	7.828
681.000	400.060	80.009	19.987	100.318	20.169	7.530
682.500	400.799	80.014	19.992	100.323	20.170	7.467
684.000	401.577	80.008	19.989	100.336	20.172	7.269
685.500	402.289	80.011	19.991	100.338	20.174	7.137
687.000	402.999	80.010	19.991	100.334	20.175	7.050
688.500	403.761	80.007	19.988	100.321	20.176	6.957
690.000	404.532	80.011	19.990	100.317	20.176	6.948
691.500	405.244	80.012	19.990	100.315	20.178	6.842
693.000	405.980	80.004	19.986	100.317	20.179	6.714
694.500	406.739	80.012	19.992	100.312	20.178	6.826
696.000	407.473	80.001	19.987	100.319	20.180	6.671
697.500	408.197	80.009	19.991	100.314	20.181	6.611
699.000	408.966	80.005	19.988	100.319	20.181	6.624
700.500	409.696	80.018	19.991	100.315	20.182	6.535
702.000	410.435	80.007	19.986	100.313	20.183	6.426
703.500	411.169	80.007	19.989	100.312	20.184	6.390
705.000	411.931	80.010	19.994	100.322	20.186	6.218
706.500	412.657	80.011	19.994	100.325	20.184	6.316
708.000	413.383	80.015	19.994	100.316	20.186	6.224
709.500	414.149	80.000	19.986	100.321	20.187	6.131
711.000	414.890	80.001	19.989	100.304	20.187	6.114
712.500	415.615	80.011	19.991	100.296	20.189	5.997
714.000	416.359	80.014	19.991	100.307	20.189	5.957
715.500	417.117	80.016	19.991	100.313	20.191	5.779
717.000	417.837	80.004	19.987	100.318	20.191	5.835
718.500	418.588	80.010	19.989	100.314	20.193	5.682
720.000	419.335	80.013	19.993	100.306	20.193	5.616
721.500	420.084	80.006	19.988	100.311	20.194	5.602
723.000	420.808	80.008	19.990	100.310	20.196	5.381
724.500	421.545	80.007	19.989	100.309	20.196	5.411
726.000	422.304	80.013	19.993	100.309	20.196	5.438
727.500	423.038	80.005	19.989	100.302	20.195	5.492
729.000	423.762	80.011	19.992	100.299	20.197	5.357
730.500	424.513	80.014	19.992	100.304	20.197	5.336
732.000	425.261	80.013	19.992	100.306	20.198	5.280
733.500	426.001	80.012	19.991	100.305	20.198	5.269
735.000	426.745	80.005	19.991	100.304	20.197	5.334
736.500	427.489	80.011	19.991	100.309	20.199	5.143
738.000	428.233	80.014	19.993	100.309	20.201	5.061
739.500	428.945	80.016	19.994	100.307	20.199	5.167
741.000	429.707	80.009	19.991	100.309	20.203	4.902
742.500	430.466	80.009	19.990	100.302	20.204	4.827
744.000	431.168	80.010	19.991	100.300	20.205	4.716
745.500	431.918	80.004	19.990	100.302	20.207	4.591
747.000	432.686	80.009	19.991	100.307	20.207	4.549
748.500	433.394	80.008	19.988	100.311	20.208	4.501
750.000	434.134	80.005	19.988	100.304	20.208	4.469
751.500	434.887	79.999	19.986	100.305	20.208	4.443
753.000	435.629	80.014	19.993	100.303	20.210	4.327
754.500	436.343	80.012	19.992	100.305	20.209	4.418
756.000	437.095	80.012	19.992	100.302	20.210	4.301
757.500	437.856	80.012	19.991	100.303	20.212	4.171
759.000	438.571	80.002	19.988	100.301	20.213	4.126
760.500	439.315	80.009	19.990	100.299	20.214	3.984
762.000	440.065	80.006	19.989	100.304	20.216	3.864
763.500	440.803	80.012	19.993	100.304	20.218	3.723
765.000	441.526	80.007	19.990	100.300	20.217	3.740
766.500	442.277	80.009	19.992	100.301	20.219	3.587
768.000	443.036	80.010	19.990	100.307	20.220	3.550
769.500	443.748	80.009	19.990	100.303	20.222	3.364
771.000	444.479	80.009	19.988	100.303	20.222	3.423
772.500	445.247	80.006	19.989	100.302	20.222	3.377
774.000	445.985	80.014	19.992	100.297	20.223	3.285
775.500	446.687	80.005	19.987	100.295	20.224	3.201
777.000	447.444	80.007	19.989	100.295	20.226	3.107
778.500	448.195	80.012	19.991	100.301	20.228	2.930
780.000	448.943	80.013	19.991	100.304	20.229	2.862
781.500	449.649	80.012	19.992	100.302	20.228	2.944
783.000	450.402	80.011	19.988	100.305	20.231	2.710
784.500	451.151	80.009	19.991	100.302	20.229	2.842
786.000	451.850	80.007	19.989	100.299	20.229	2.834
787.500	452.617	80.007	19.989	100.294	20.231	2.646
789.000	453.357	80.009	19.988	100.299	20.233	2.537
790.500	454.095	80.008	19.987	100.297	20.232	2.630
792.000	454.819	80.009	19.990	100.302	20.233	2.530
793.500	455.576	80.009	19.989	100.305	20.234	2.415
795.000	456.305	80.007	19.990	100.300	20.232	2.635
796.500	457.035	80.007	19.989	100.299	20.232	2.590
798.000	457.768	80.012	19.992	100.299	20.233	2.504
799.501	458.532	80.010	19.990	100.304	20.235	2.405
801.000	459.250	80.014	19.992	100.306	20.234	2.410
802.500	459.980	80.011	19.988	100.309	20.235	2.372
804.000	460.725	80.002	19.989	100.304	20.237	2.188
805.500	461.479	80.008	19.989	100.295	20.237	2.191
807.000	462.201	80.010	19.992	100.287	20.238	2.151
808.500	462.941	80.012	19.992	100.279	20.237	2.239
810.000	463.701	80.006	19.989	100.282	20.237	2.251
811.500	464.426	80.011	19.992	100.284	20.239	2.068
813.000	465.140	80.005	19.991	100.283	20.238	2.101
814.500	465.905	80.011	19.990	100.283	20.239	2.089
816.000	466.648	80.015	19.992	100.290	20.239	2.048
817.500	467.374	80.005	19.988	100.300	20.241	1.899
819.000	468.112	80.009	19.989	100.296	20.242	1.827
820.500	468.853	80.006	19.990	100.301	20.242	1.811
822.000	469.590	80.010	19.990	100.295	20.243	1.753
823.500	470.307	80.011	19.988	100.290	20.242	1.786
825.000	471.062	80.019	19.988	100.287	20.244	1.652
826.500	471.799	80.014	19.988	100.273	20.244	1.690
828.001	472.543	80.005	19.986	100.268	20.245	1.559
829.500	473.259	80.019	19.993	100.261	20.245	1.570
831.000	474.025	80.010	19.987	100.270	20.246	1.504
832.500	474.749	80.010	19.989	100.264	20.247	1.463
834.000	475.465	80.013	19.991	100.265	20.245	1.557
835.500	476.234	80.019	19.992	100.286	20.248	1.341
837.000	476.971	80.012	19.988	100.288	20.247	1.438
838.500	477.690	80.011	19.991	100.276	20.247	1.454
840.000	478.431	80.015	19.991	100.273	20.248	1.348
841.500	479.190	80.012	19.990	100.263	20.248	1.394
843.000	479.928	80.009	19.992	100.257	20.248	1.373
844.500	480.637	80.002	19.987	100.264	20.249	1.297
846.000	481.393	80.017	19.991	100.273	20.250	1.190
847.500	482.137	80.009	19.989	100.282	20.250	1.222
849.000	482.868	80.011	19.987	100.266	20.250	1.210
850.500	483.612	80.008	19.990	100.266	20.253	0.992
852.000	484.362	80.013	19.991	100.274	20.251	1.094
853.500	485.096	80.010	19.991	100.267	20.253	0.946
855.000	485.834	80.014	19.992	100.269	20.254	0.887
856.500	486.557	80.011	19.991	100.279	20.254	0.921
858.000	487.342	80.009	19.992	100.286	20.254	0.917
859.500	488.071	80.003	19.989	100.282	20.253	0.929
861.000	488.785	80.014	19.989	100.269	20.254	0.849
862.500	489.539	80.005	19.988	100.274	20.255	0.815
864.000	490.271	80.006	19.990	100.272	20.255	0.798
865.500	491.008	80.008	19.991	100.280	20.255	0.774
867.000	491.758	80.013	19.992	100.276	20.258	0.574
868.500	492.511	80.013	19.991	100.273	20.257	0.654
870.000	493.236	80.010	19.991	100.277	20.257	0.654
871.500	493.959	80.010	19.990	100.286	20.258	0.563
873.000	494.743	80.009	19.990	100.285	20.259	0.534
874.500	495.467	80.015	19.992	100.278	20.258	0.603
876.000	496.191	80.012	19.989	100.271	20.258	0.578
877.500	496.959	80.010	19.988	100.270	20.258	0.602
879.000	497.698	80.006	19.991	100.265	20.257	0.616
880.500	498.414	80.007	19.989	100.271	20.259	0.501
882.000	499.171	80.009	19.989	100.269	20.258	0.568
883.500	499.945	80.013	19.991	100.275	20.260	0.393
885.000	500.672	80.013	19.991	100.283	20.259	0.525
886.500	501.410	80.015	19.991	100.285	20.261	0.361
888.000	502.168	80.011	19.990	100.281	20.263	0.208
889.500	502.916	80.011	19.990	100.283	20.264	0.134
891.000	503.664	80.003	19.989	100.274	20.263	0.168
892.500	504.384	80.013	19.990	100.271	20.263	0.194
894.000	505.165	80.011	19.991	100.273	20.262	0.266
895.500	505.868	80.011	19.991	100.274	20.263	0.177
897.000	506.606	80.013	19.993	100.271	20.263	0.189
898.500	507.380	80.008	19.992	100.260	20.264	0.142
900.000	508.109	80.009	19.990	100.261	20.264	0.104
901.500	508.841	80.009	19.983	100.266	20.265	0.034
903.000	509.592	80.011	19.989	100.265	20.263	0.158
904.500	510.348	80.005	19.987	100.262	20.265	-0.009
906.001	511.077	80.007	19.989	100.261	20.265	-0.004
907.500	511.827	80.005	19.988	100.265	20.265	0.053
909.000	512.579	80.008	19.989	100.276	20.265	0.028
910.500	513.319	80.008	19.988	100.280	20.265	-0.009
912.000	514.045	80.010	19.988	100.266	20.264	0.083
913.500	514.755	80.014	19.991	100.269	20.266	-0.058
915.000	515.512	80.001	19.990	100.271	20.265	0.050
916.500	516.229	80.015	19.988	100.266	20.266	-0.068
918.000	516.962	80.011	19.989	100.268	20.266	-0.026
919.500	517.727	80.009	19.993	100.272	20.265	-0.003
921.000	518.477	80.011	19.988	100.277	20.267	-0.151
922.500	519.208	80.013	19.991	100.269	20.266	-0.013
924.000	519.951	80.008	19.992	100.266	20.267	-0.125
925.500	520.707	80.007	19.993	100.269	20.268	-0.210
927.000	521.464	80.015	19.990	100.280	20.269	-0.299
928.500	522.175	80.010	19.990	100.269	20.267	-0.099
930.000	522.947	80.006	19.991	100.269	20.267	-0.150
931.500	523.680	80.005	19.990	100.272	20.269	-0.267
933.000	524.412	80.014	19.985	100.266	20.268	-0.183
934.500	525.169	80.004	19.988	100.250	20.267	-0.145
936.000	525.919	80.013	19.990	100.261	20.269	-0.273
937.500	526.663	80.002	19.989	100.270	20.267	-0.147
939.000	527.384	80.011	19.993	100.269	20.269	-0.317
940.500	528.167	80.006	19.989	100.272	20.268	-0.238
942.000	528.890	80.013	19.987	100.268	20.270	-0.373
943.500	529.626	80.004	19.988	100.265	20.270	-0.372
945.000	530.352	80.008	19.990	100.262	20.270	-0.324
946.500	531.122	80.010	19.989	100.265	20.272	-0.479
948.000	531.851	80.008	19.992	100.265	20.270	-0.365
949.500	532.593	80.011	19.988	100.266	20.271	-0.442
951.000	533.347	80.007	19.990	100.268	20.272	-0.524
952.500	534.106	80.010	19.987	100.261	20.273	-0.567
954.000	534.836	80.007	19.990	100.251	20.272	-0.529
955.500	535.578	80.018	19.993	100.257	20.273	-0.630
957.000	536.341	80.013	19.988	100.265	20.275	-0.714
958.500	537.062	80.013	19.991	100.266	20.274	-0.669
960.000	537.798	80.008	19.993	100.266	20.273	-0.611
961.500	538.557	80.008	19.991	100.266	20.275	-0.761
963.000	539.298	80.012	19.993	100.262	20.272	-0.543
964.500	540.013	80.018	19.991	100.257	20.272	-0.539
966.000	540.770	80.012	19.993	100.257	20.271	-0.435
967.500	541.529	80.010	19.988	100.249	20.272	-0.510
969.000	542.241	80.018	19.995	100.243	20.269	-0.262
970.500	542.988	80.004	19.988	100.241	20.267	-0.131
972.000	543.734	80.008	19.987	100.226	20.269	-0.267
973.500	544.491	80.007	19.986	100.233	20.268	-0.238
975.000	545.208	80.012	19.990	100.236	20.268	-0.185
976.500	545.943	80.004	19.987	100.244	20.269	-0.280
978.000	546.706	80.006	19.993	100.250	20.270	-0.334
979.500	547.423	80.009	19.992	100.256	20.269	-0.311
981.000	548.139	80.003	19.994	100.262	20.270	-0.351
982.500	548.921	80.015	19.991	100.261	20.271	-0.446
984.000	549.655	80.009	19.993	100.254	20.272	-0.502
985.500	550.370	80.009	19.990	100.262	20.272	-0.541
987.000	551.128	80.010	19.989	100.254	20.274	-0.645
988.500	551.876	80.011	19.992	100.251	20.273	-0.574
990.000	552.592	80.008	19.991	100.259	20.273	-0.614
991.500	553.330	80.017	19.989	100.262	20.275	-0.719
993.000	554.084	80.016	19.987	100.263	20.273	-0.586
994.500	554.823	80.013	19.992	100.260	20.274	-0.658
996.000	555.554	80.018	19.994	100.267	20.276	-0.792
997.500	556.294	80.011	19.987	100.272	20.276	-0.813
999.000	557.089	80.005	19.986	100.261	20.277	-0.889
1000.500	557.809	80.009	19.992	100.258	20.276	-0.839
1002.000	558.515	80.010	19.988	100.261	20.277	-0.884
1003.500	559.290	80.009	19.989	100.260	20.277	-0.910
1005.000	560.039	80.000	19.987	100.257	20.276	-0.818
1006.500	560.755	80.010	19.986	100.255	20.277	-0.935
1008.000	561.499	80.005	19.990	100.257	20.277	-0.934
1009.500	562.280	80.011	19.990	100.262	20.279	-1.061
1011.000	562.985	80.011	19.995	100.258	20.279	-1.056
1012.500	563.734	80.006	19.988	100.260	20.279	-1.029
1014.000	564.487	80.005	19.989	100.267	20.279	-1.026
1015.500	565.222	80.002	19.987	100.260	20.279	-1.075
1017.000	565.956	80.009	19.989	100.245	20.279	-1.073
1018.500	566.698	80.006	19.988	100.243	20.281	-1.254
1020.000	567.456	80.010	19.992	100.254	20.280	-1.117
1021.500	568.191	80.003	19.991	100.266	20.279	-1.059
1023.000	568.928	80.006	19.984	100.258	20.280	-1.147
1024.500	569.667	80.007	19.989	100.251	20.279	-1.048
1026.000	570.402	80.007	19.991	100.260	20.281	-1.192
1027.500	571.152	80.010	19.991	100.255	20.280	-1.137
1029.000	571.885	80.008	19.989	100.259	20.282	-1.286
1030.500	572.646	79.999	19.989	100.263	20.282	-1.280
1032.000	573.381	79.998	19.991	100.257	20.281	-1.196
1033.500	574.108	80.011	19.988	100.262	20.281	-1.210
1035.000	574.875	80.011	19.992	100.252	20.281	-1.222
1036.500	575.611	80.004	19.990	100.254	20.282	-1.280
1038.000	576.332	80.015	19.990	100.263	20.282	-1.321
1039.500	577.079	80.010	19.989	100.259	20.282	-1.303
1041.000	577.855	80.012	19.993	100.260	20.282	-1.308
1042.500	578.573	80.011	19.991	100.262	20.280	-1.167
1044.000	579.295	80.006	19.989	100.263	20.279	-1.042
1045.500	580.046	80.008	19.991	100.268	20.279	-1.036
1047.000	580.818	80.009	19.989	100.262	20.276	-0.864
1048.500	581.536	80.007	19.992	100.249	20.277	-0.898
1050.000	582.279	80.008	19.993	100.252	20.276	-0.791
1051.500	583.041	80.006	19.993	100.257	20.275	-0.759
1053.000	583.773	80.013	19.991	100.266	20.273	-0.634
1054.501	584.502	80.010	19.990	100.262	20.275	-0.773
1056.001	585.265	80.007	19.991	100.262	20.275	-0.732
1057.500	586.007	80.017	19.993	100.258	20.274	-0.679
1059.000	586.723	80.014	19.991	100.260	20.276	-0.815
1060.500	587.467	80.011	19.993	100.260	20.276	-0.796
1062.000	588.219	80.008	19.988	100.263	20.276	-0.837
1063.500	588.952	80.006	19.992	100.260	20.277	-0.924
1065.000	589.666	80.009	19.982	100.256	20.279	-1.030
1066.501	590.449	80.017	19.994	100.251	20.278	-0.987
1068.001	591.188	80.009	19.993	100.264	20.277	-0.883
1069.500	591.905	80.013	19.991	100.262	20.278	-0.952
1071.000	592.664	80.007	19.991	100.259	20.278	-0.957
1072.501	593.397	80.016	19.987	100.261	20.277	-0.935
1074.001	594.131	80.008	19.990	100.258	20.276	-0.860
1075.500	594.863	80.008	19.987	100.258	20.277	-0.913
1077.000	595.629	80.008	19.991	100.256	20.279	-1.086
1078.500	596.363	80.008	19.986	100.263	20.280	-1.106
1080.000	597.085	80.010	19.991	100.260	20.280	-1.109
1081.500	597.830	80.005	19.991	100.266	20.281	-1.237
1083.000	598.599	80.007	19.988	100.269	20.280	-1.175
1084.500	599.317	80.008	19.989	100.265	20.282	-1.270
1086.000	600.040	80.008	19.987	100.266	20.279	-1.064
1087.500	600.812	80.003	19.989	100.259	20.278	-1.014
1089.000	601.556	80.012	19.989	100.256	20.279	-1.048
1090.500	602.286	80.015	19.994	100.258	20.278	-0.969
1092.000	603.033	80.011	19.988	100.264	20.278	-1.014
1093.500	603.811	80.010	19.990	100.261	20.278	-0.992
1095.000	604.518	79.999	19.995	100.261	20.280	-1.163
1096.500	605.267	80.003	19.992	100.258	20.278	-1.018
1098.001	606.018	80.004	19.987	100.257	20.280	-1.131
1099.500	606.771	80.007	19.990	100.259	20.278	-0.974
1101.000	607.502	79.999	19.984	100.256	20.280	-1.109
1102.500	608.239	80.011	19.988	100.242	20.280	-1.135
1104.000	609.016	80.012	19.990	100.239	20.278	-1.003
1105.500	609.749	80.010	19.990	100.249	20.280	-1.113
1107.001	610.475	80.014	19.990	100.261	20.278	-1.009
1108.500	611.234	80.007	19.985	100.272	20.279	-1.029
1110.001	611.980	80.013	19.986	100.268	20.281	-1.182
1111.500	612.723	80.010	19.987	100.264	20.280	-1.138
1113.000	613.471	80.000	19.990	100.264	20.282	-1.266
1114.501	614.229	80.011	19.991	100.264	20.281	-1.193
1116.001	614.960	80.008	19.989	100.267	20.282	-1.320
1117.500	615.681	80.004	19.990	100.266	20.281	-1.256
1119.000	616.441	80.010	19.991	100.272	20.282	-1.293
1120.501	617.198	80.007	19.990	100.270	20.282	-1.297
1122.000	617.915	80.009	19.990	100.268	20.283	-1.360
1123.500	618.670	80.011	19.990	100.271	20.284	-1.458
1125.000	619.431	80.012	19.990	100.266	20.284	-1.433
1126.501	620.160	80.004	19.987	100.264	20.283	-1.347
1128.001	620.883	80.003	19.988	100.261	20.281	-1.258
1129.500	621.644	80.007	19.986	100.266	20.283	-1.350
1131.000	622.406	80.008	19.991	100.267	20.281	-1.227
1132.500	623.124	80.009	19.990	100.269	20.282	-1.321
1134.000	623.873	80.006	19.988	100.269	20.282	-1.287
1135.500	624.627	80.013	19.988	100.265	20.282	-1.321
1137.000	625.371	80.004	19.990	100.262	20.281	-1.226
1138.500	626.088	80.008	19.990	100.260	20.282	-1.297
1140.001	626.861	80.012	19.994	100.265	20.280	-1.130
1141.500	627.608	80.009	19.988	100.262	20.281	-1.222
1143.000	628.327	80.010	19.990	100.268	20.281	-1.217
1144.500	629.075	80.012	19.991	100.276	20.281	-1.194
1146.000	629.863	80.013	19.990	100.270	20.282	-1.266
1147.501	630.593	80.007	19.991	100.268	20.282	-1.273
1149.001	631.301	80.008	19.991	100.269	20.281	-1.250
1150.500	632.062	80.008	19.991	100.259	20.282	-1.284
1152.001	632.845	80.009	19.987	100.262	20.281	-1.219
1153.500	633.550	80.008	19.992	100.269	20.282	-1.308
1155.000	634.316	80.014	19.989	100.267	20.282	-1.322
1156.500	635.043	80.010	19.986	100.263	20.282	-1.293
1158.001	635.783	80.012	19.990	100.255	20.283	-1.339
1159.500	636.523	80.008	19.984	100.264	20.282	-1.263
1161.000	637.268	80.016	19.986	100.257	20.284	-1.448
1162.500	638.020	80.009	19.984	100.262	20.284	-1.449
1164.001	638.754	80.009	19.988	100.265	20.284	-1.447
1165.500	639.504	80.010	19.990	100.265	20.284	-1.421
1167.000	640.254	80.004	19.988	100.265	20.284	-1.442
1168.500	640.985	80.012	19.989	100.261	20.282	-1.304
1170.001	641.730	80.006	19.989	100.264	20.283	-1.350
1171.500	642.464	80.013	19.987	100.262	20.282	-1.300
1173.000	643.222	80.011	19.988	100.257	20.283	-1.363
1174.501	643.955	80.013	19.991	100.261	20.283	-1.370
1176.000	644.711	80.004	19.988	100.260	20.283	-1.391
1177.500	645.471	80.013	19.990	100.262	20.282	-1.329
1179.001	646.192	80.008	19.997	100.263	20.283	-1.374
1179.500	646.437	80.002	19.986	100.267	20.283	-1.389