File: 01_Data/Basswood_Panel/FTIR/IS/Basswood_Panel_IS_T_220928_R3.dpt
7497.03,0.02764
7491.25,0.02953
7485.46,0.02459
7479.67,0.02618
7473.89,0.03392
7468.1,0.02151
7462.32,0.02325
7456.53,0.02374
7450.74,0.01549
7444.96,0.02607
7439.17,0.03061
7433.38,0.02397
7427.6,0.02182
7421.81,0.02485
7416.03,0.02211
7410.24,0.02139
7404.45,0.02315
7398.67,0.03221
7392.88,0.02876
7387.09,0.02394
7381.31,0.02259
7375.52,0.02220
7369.74,0.02519
7363.95,0.02115
7358.16,0.02584
7352.38,0.01489
7346.59,0.02760
7340.8,0.02020
7335.02,0.02591
7329.23,0.02471
7323.45,0.02751
7317.66,0.02147
7311.87,0.02434
7306.09,0.02531
7300.3,0.03255
7294.51,0.03386
7288.73,0.03162
7282.94,0.02628
7277.16,0.02598
7271.37,0.02463
7265.58,0.02496
7259.8,0.02891
7254.01,0.02749
7248.22,0.02829
7242.44,0.02724
7236.65,0.02205
7230.87,0.02118
7225.08,0.02290
7219.29,0.02231
7213.51,0.02149
7207.72,0.02184
7201.93,0.02611
7196.15,0.01986
7190.36,0.01748
7184.58,0.02006
7178.79,0.02774
7173,0.02258
7167.22,0.02213
7161.43,0.02708
7155.65,0.02390
7149.86,0.02752
7144.07,0.02560
7138.29,0.02307
7132.5,0.02447
7126.71,0.02279
7120.93,0.02250
7115.14,0.02100
7109.36,0.02353
7103.57,0.02532
7097.78,0.02418
7092,0.02269
7086.21,0.02611
7080.42,0.02777
7074.64,0.02780
7068.85,0.02900
7063.07,0.02204
7057.28,0.02457
7051.49,0.02651
7045.71,0.02297
7039.92,0.01846
7034.13,0.02764
7028.35,0.02740
7022.56,0.02526
7016.78,0.02707
7010.99,0.02444
7005.2,0.02395
6999.42,0.02472
6993.63,0.02557
6987.84,0.02679
6982.06,0.02441
6976.27,0.02605
6970.49,0.02548
6964.7,0.02614
6958.91,0.02219
6953.13,0.02713
6947.34,0.02287
6941.55,0.02375
6935.77,0.02332
6929.98,0.01992
6924.2,0.02386
6918.41,0.02299
6912.62,0.02685
6906.84,0.02570
6901.05,0.02433
6895.26,0.02938
6889.48,0.02975
6883.69,0.02708
6877.91,0.02242
6872.12,0.02057
6866.33,0.02639
6860.55,0.02524
6854.76,0.02605
6848.97,0.02642
6843.19,0.02718
6837.4,0.02108
6831.62,0.01940
6825.83,0.02049
6820.04,0.02175
6814.26,0.02388
6808.47,0.02331
6802.68,0.02726
6796.9,0.02350
6791.11,0.02313
6785.33,0.02680
6779.54,0.02267
6773.75,0.02675
6767.97,0.02203
6762.18,0.02288
6756.39,0.02375
6750.61,0.01973
6744.82,0.02430
6739.04,0.02170
6733.25,0.02656
6727.46,0.01854
6721.68,0.02347
6715.89,0.01947
6710.1,0.02390
6704.32,0.02267
6698.53,0.01855
6692.75,0.02197
6686.96,0.02015
6681.17,0.02091
6675.39,0.02189
6669.6,0.02848
6663.82,0.02352
6658.03,0.02465
6652.24,0.02027
6646.46,0.02408
6640.67,0.02833
6634.88,0.02181
6629.1,0.02263
6623.31,0.02346
6617.53,0.02301
6611.74,0.01820
6605.95,0.02496
6600.17,0.01968
6594.38,0.02077
6588.59,0.02164
6582.81,0.02545
6577.02,0.02279
6571.24,0.02211
6565.45,0.02113
6559.66,0.02307
6553.88,0.02453
6548.09,0.02205
6542.3,0.02071
6536.52,0.02298
6530.73,0.02254
6524.95,0.02044
6519.16,0.02012
6513.37,0.02192
6507.59,0.01964
6501.8,0.02075
6496.01,0.02461
6490.23,0.02051
6484.44,0.02186
6478.66,0.02725
6472.87,0.02457
6467.08,0.02426
6461.3,0.02397
6455.51,0.02239
6449.72,0.02076
6443.94,0.02169
6438.15,0.01971
6432.37,0.02184
6426.58,0.02153
6420.79,0.02340
6415.01,0.01934
6409.22,0.02038
6403.43,0.02382
6397.65,0.01943
6391.86,0.02293
6386.08,0.02266
6380.29,0.02515
6374.5,0.02089
6368.72,0.02161
6362.93,0.02201
6357.14,0.02174
6351.36,0.02486
6345.57,0.02406
6339.79,0.02096
6334,0.02342
6328.21,0.02180
6322.43,0.02185
6316.64,0.02578
6310.85,0.02108
6305.07,0.02223
6299.28,0.02336
6293.5,0.02314
6287.71,0.02496
6281.92,0.02254
6276.14,0.02044
6270.35,0.02127
6264.56,0.02099
6258.78,0.02235
6252.99,0.02156
6247.21,0.02013
6241.42,0.01903
6235.63,0.02408
6229.85,0.02156
6224.06,0.02241
6218.27,0.01991
6212.49,0.02212
6206.7,0.02075
6200.92,0.02346
6195.13,0.02189
6189.34,0.02332
6183.56,0.01914
6177.77,0.02106
6171.98,0.02089
6166.2,0.01957
6160.41,0.01914
6154.63,0.02114
6148.84,0.01931
6143.05,0.02193
6137.27,0.01791
6131.48,0.02119
6125.7,0.02225
6119.91,0.02263
6114.12,0.02250
6108.34,0.02170
6102.55,0.02297
6096.76,0.02267
6090.98,0.01784
6085.19,0.02095
6079.41,0.02300
6073.62,0.02255
6067.83,0.02174
6062.05,0.02203
6056.26,0.02449
6050.47,0.02407
6044.69,0.02271
6038.9,0.02418
6033.12,0.02423
6027.33,0.01932
6021.54,0.02027
6015.76,0.02285
6009.97,0.02279
6004.18,0.02243
5998.4,0.02120
5992.61,0.02273
5986.83,0.02032
5981.04,0.02001
5975.25,0.02075
5969.47,0.01909
5963.68,0.02236
5957.89,0.02042
5952.11,0.02164
5946.32,0.02078
5940.54,0.02259
5934.75,0.02040
5928.96,0.02192
5923.18,0.02087
5917.39,0.02016
5911.6,0.02011
5905.82,0.02216
5900.03,0.02055
5894.25,0.02194
5888.46,0.02118
5882.67,0.02056
5876.89,0.01938
5871.1,0.02083
5865.31,0.02380
5859.53,0.02210
5853.74,0.02395
5847.96,0.02261
5842.17,0.02221
5836.38,0.02130
5830.6,0.02278
5824.81,0.02412
5819.02,0.01987
5813.24,0.01987
5807.45,0.02207
5801.67,0.02031
5795.88,0.02243
5790.09,0.02322
5784.31,0.02259
5778.52,0.02307
5772.73,0.02135
5766.95,0.02480
5761.16,0.02114
5755.38,0.02147
5749.59,0.02110
5743.8,0.02167
5738.02,0.02248
5732.23,0.02203
5726.44,0.01997
5720.66,0.02385
5714.87,0.02228
5709.09,0.02194
5703.3,0.02322
5697.51,0.02076
5691.73,0.02121
5685.94,0.02080
5680.15,0.02298
5674.37,0.02212
5668.58,0.02150
5662.8,0.02066
5657.01,0.02182
5651.22,0.02100
5645.44,0.02275
5639.65,0.01859
5633.87,0.01923
5628.08,0.02398
5622.29,0.02178
5616.51,0.01993
5610.72,0.02105
5604.93,0.02242
5599.15,0.01832
5593.36,0.02268
5587.58,0.02243
5581.79,0.02381
5576,0.02145
5570.22,0.02270
5564.43,0.02310
5558.64,0.02225
5552.86,0.02099
5547.07,0.02248
5541.29,0.02135
5535.5,0.02170
5529.71,0.02151
5523.93,0.02303
5518.14,0.02265
5512.35,0.02218
5506.57,0.02258
5500.78,0.02165
5495,0.02171
5489.21,0.02094
5483.42,0.02251
5477.64,0.02136
5471.85,0.02242
5466.06,0.02185
5460.28,0.02103
5454.49,0.02403
5448.71,0.02188
5442.92,0.02157
5437.13,0.02372
5431.35,0.02210
5425.56,0.02078
5419.77,0.01996
5413.99,0.02154
5408.2,0.02224
5402.42,0.02312
5396.63,0.02235
5390.84,0.02013
5385.06,0.02142
5379.27,0.02227
5373.48,0.02078
5367.7,0.02109
5361.91,0.02241
5356.13,0.02304
5350.34,0.02351
5344.55,0.02159
5338.77,0.02151
5332.98,0.02143
5327.19,0.02177
5321.41,0.02204
5315.62,0.02226
5309.84,0.02159
5304.05,0.02168
5298.26,0.02004
5292.48,0.02241
5286.69,0.02237
5280.9,0.02346
5275.12,0.02231
5269.33,0.02256
5263.55,0.02184
5257.76,0.02178
5251.97,0.02206
5246.19,0.02296
5240.4,0.02351
5234.61,0.02248
5228.83,0.02178
5223.04,0.02151
5217.26,0.02253
5211.47,0.02086
5205.68,0.02293
5199.9,0.02275
5194.11,0.02305
5188.32,0.02132
5182.54,0.02194
5176.75,0.02227
5170.97,0.02181
5165.18,0.02234
5159.39,0.02253
5153.61,0.02198
5147.82,0.02170
5142.03,0.02190
5136.25,0.02268
5130.46,0.02229
5124.68,0.02228
5118.89,0.02094
5113.1,0.02125
5107.32,0.02192
5101.53,0.02272
5095.75,0.02236
5089.96,0.02254
5084.17,0.02290
5078.39,0.02189
5072.6,0.02041
5066.81,0.02132
5061.03,0.02204
5055.24,0.02181
5049.46,0.02172
5043.67,0.02201
5037.88,0.02210
5032.1,0.02171
5026.31,0.02202
5020.52,0.02323
5014.74,0.02202
5008.95,0.02092
5003.17,0.02263
4997.38,0.02122
4991.59,0.02348
4985.81,0.02203
4980.02,0.02200
4974.23,0.02138
4968.45,0.02231
4962.66,0.02284
4956.88,0.02328
4951.09,0.02294
4945.3,0.02110
4939.52,0.02199
4933.73,0.02205
4927.94,0.02149
4922.16,0.02271
4916.37,0.02308
4910.59,0.02208
4904.8,0.02352
4899.01,0.02327
4893.23,0.02236
4887.44,0.02112
4881.65,0.02362
4875.87,0.02225
4870.08,0.02032
4864.3,0.02161
4858.51,0.02242
4852.72,0.02179
4846.94,0.02187
4841.15,0.02205
4835.36,0.02270
4829.58,0.02178
4823.79,0.02352
4818.01,0.02172
4812.22,0.02249
4806.43,0.02286
4800.65,0.02225
4794.86,0.02250
4789.07,0.02377
4783.29,0.02224
4777.5,0.02237
4771.72,0.02190
4765.93,0.02342
4760.14,0.02152
4754.36,0.02157
4748.57,0.02179
4742.78,0.02153
4737,0.02251
4731.21,0.02222
4725.43,0.02247
4719.64,0.02185
4713.85,0.02174
4708.07,0.02208
4702.28,0.02236
4696.49,0.02312
4690.71,0.02224
4684.92,0.02178
4679.14,0.02233
4673.35,0.02180
4667.56,0.02164
4661.78,0.02197
4655.99,0.02270
4650.2,0.02209
4644.42,0.02204
4638.63,0.02189
4632.85,0.02278
4627.06,0.02219
4621.27,0.02256
4615.49,0.02255
4609.7,0.02203
4603.92,0.02268
4598.13,0.02185
4592.34,0.02103
4586.56,0.02210
4580.77,0.02238
4574.98,0.02228
4569.2,0.02213
4563.41,0.02130
4557.63,0.02213
4551.84,0.02207
4546.05,0.02203
4540.27,0.02289
4534.48,0.02179
4528.69,0.02227
4522.91,0.02230
4517.12,0.02183
4511.34,0.02188
4505.55,0.02168
4499.76,0.02149
4493.98,0.02210
4488.19,0.02212
4482.4,0.02169
4476.62,0.02275
4470.83,0.02282
4465.05,0.02206
4459.26,0.02284
4453.47,0.02251
4447.69,0.02225
4441.9,0.02215
4436.11,0.02284
4430.33,0.02192
4424.54,0.02180
4418.76,0.02239
4412.97,0.02213
4407.18,0.02273
4401.4,0.02238
4395.61,0.02189
4389.82,0.02281
4384.04,0.02191
4378.25,0.02215
4372.47,0.02273
4366.68,0.02282
4360.89,0.02212
4355.11,0.02271
4349.32,0.02181
4343.53,0.02253
4337.75,0.02244
4331.96,0.02272
4326.18,0.02279
4320.39,0.02269
4314.6,0.02185
4308.82,0.02301
4303.03,0.02194
4297.24,0.02244
4291.46,0.02235
4285.67,0.02270
4279.89,0.02255
4274.1,0.02227
4268.31,0.02196
4262.53,0.02251
4256.74,0.02261
4250.95,0.02279
4245.17,0.02260
4239.38,0.02228
4233.6,0.02175
4227.81,0.02283
4222.02,0.02266
4216.24,0.02326
4210.45,0.02340
4204.66,0.02230
4198.88,0.02222
4193.09,0.02262
4187.31,0.02282
4181.52,0.02338
4175.73,0.02213
4169.95,0.02305
4164.16,0.02192
4158.37,0.02275
4152.59,0.02243
4146.8,0.02229
4141.02,0.02240
4135.23,0.02234
4129.44,0.02226
4123.66,0.02266
4117.87,0.02252
4112.09,0.02230
4106.3,0.02243
4100.51,0.02317
4094.73,0.02268
4088.94,0.02293
4083.15,0.02271
4077.37,0.02271
4071.58,0.02277
4065.8,0.02275
4060.01,0.02207
4054.22,0.02194
4048.44,0.02202
4042.65,0.02216
4036.86,0.02300
4031.08,0.02198
4025.29,0.02224
4019.51,0.02295
4013.72,0.02244
4007.93,0.02282
4002.15,0.02229
3996.36,0.02185
3990.57,0.02231
3984.79,0.02201
3979,0.02241
3973.22,0.02177
3967.43,0.02276
3961.64,0.02348
3955.86,0.02250
3950.07,0.02201
3944.28,0.02247
3938.5,0.02244
3932.71,0.02233
3926.93,0.02263
3921.14,0.02288
3915.35,0.02305
3909.57,0.02230
3903.78,0.02256
3897.99,0.02295
3892.21,0.02312
3886.42,0.02282
3880.64,0.02259
3874.85,0.02330
3869.06,0.02297
3863.28,0.02257
3857.49,0.02320
3851.7,0.02212
3845.92,0.02260
3840.13,0.02296
3834.35,0.02285
3828.56,0.02211
3822.77,0.02285
3816.99,0.02268
3811.2,0.02287
3805.41,0.02230
3799.63,0.02222
3793.84,0.02257
3788.06,0.02310
3782.27,0.02200
3776.48,0.02235
3770.7,0.02189
3764.91,0.02302
3759.12,0.02242
3753.34,0.02267
3747.55,0.02230
3741.77,0.02205
3735.98,0.02267
3730.19,0.02222
3724.41,0.02275
3718.62,0.02259
3712.83,0.02287
3707.05,0.02224
3701.26,0.02221
3695.48,0.02262
3689.69,0.02221
3683.9,0.02249
3678.12,0.02328
3672.33,0.02236
3666.54,0.02218
3660.76,0.02213
3654.97,0.02191
3649.19,0.02204
3643.4,0.02267
3637.61,0.02198
3631.83,0.02160
3626.04,0.02112
3620.25,0.02202
3614.47,0.02191
3608.68,0.02137
3602.9,0.02151
3597.11,0.02120
3591.32,0.02125
3585.54,0.02185
3579.75,0.02177
3573.97,0.02189
3568.18,0.02131
3562.39,0.02092
3556.61,0.02114
3550.82,0.02099
3545.03,0.02155
3539.25,0.02128
3533.46,0.02154
3527.68,0.02145
3521.89,0.02140
3516.1,0.02086
3510.32,0.02140
3504.53,0.02070
3498.74,0.02109
3492.96,0.02080
3487.17,0.02110
3481.39,0.02103
3475.6,0.02051
3469.81,0.02028
3464.03,0.02142
3458.24,0.02109
3452.45,0.02035
3446.67,0.02052
3440.88,0.02022
3435.1,0.02040
3429.31,0.02024
3423.52,0.02028
3417.74,0.02045
3411.95,0.02034
3406.16,0.02067
3400.38,0.02036
3394.59,0.02075
3388.81,0.02001
3383.02,0.02068
3377.23,0.02001
3371.45,0.02069
3365.66,0.02052
3359.87,0.02047
3354.09,0.02015
3348.3,0.02021
3342.52,0.02083
3336.73,0.02006
3330.94,0.02016
3325.16,0.02003
3319.37,0.01982
3313.58,0.02074
3307.8,0.01998
3302.01,0.02019
3296.23,0.02020
3290.44,0.02029
3284.65,0.02039
3278.87,0.01957
3273.08,0.02048
3267.29,0.02018
3261.51,0.02033
3255.72,0.02025
3249.94,0.02053
3244.15,0.02059
3238.36,0.02002
3232.58,0.02065
3226.79,0.02080
3221,0.02031
3215.22,0.02099
3209.43,0.02044
3203.65,0.02056
3197.86,0.02004
3192.07,0.01986
3186.29,0.02015
3180.5,0.02014
3174.71,0.02014
3168.93,0.02162
3163.14,0.02047
3157.36,0.02041
3151.57,0.02090
3145.78,0.02099
3140,0.02096
3134.21,0.02074
3128.42,0.02056
3122.64,0.02126
3116.85,0.02034
3111.07,0.02118
3105.28,0.02065
3099.49,0.02082
3093.71,0.02095
3087.92,0.02015
3082.14,0.02032
3076.35,0.02082
3070.56,0.01991
3064.78,0.02038
3058.99,0.02006
3053.2,0.02106
3047.42,0.01997
3041.63,0.02012
3035.85,0.02058
3030.06,0.01984
3024.27,0.02012
3018.49,0.02047
3012.7,0.02036
3006.91,0.02039
3001.13,0.02096
2995.34,0.02046
2989.56,0.02009
2983.77,0.01969
2977.98,0.01979
2972.2,0.01961
2966.41,0.01996
2960.62,0.01954
2954.84,0.01938
2949.05,0.01927
2943.27,0.01956
2937.48,0.01927
2931.69,0.02001
2925.91,0.01987
2920.12,0.01958
2914.33,0.02031
2908.55,0.02033
2902.76,0.02061
2896.98,0.02050
2891.19,0.02073
2885.4,0.02066
2879.62,0.02032
2873.83,0.01990
2868.04,0.01977
2862.26,0.02010
2856.47,0.02031
2850.69,0.02053
2844.9,0.02059
2839.11,0.02109
2833.33,0.02136
2827.54,0.02141
2821.75,0.02106
2815.97,0.02134
2810.18,0.02100
2804.4,0.02078
2798.61,0.02114
2792.82,0.02104
2787.04,0.02090
2781.25,0.02082
2775.46,0.02107
2769.68,0.02104
2763.89,0.02094
2758.11,0.02094
2752.32,0.02113
2746.53,0.02127
2740.75,0.02107
2734.96,0.02092
2729.17,0.02134
2723.39,0.02156
2717.6,0.02164
2711.82,0.02131
2706.03,0.02145
2700.24,0.02128
2694.46,0.02072
2688.67,0.02117
2682.88,0.02147
2677.1,0.02109
2671.31,0.02102
2665.53,0.02103
2659.74,0.02095
2653.95,0.02105
2648.17,0.02097
2642.38,0.02126
2636.59,0.02113
2630.81,0.02120
2625.02,0.02120
2619.24,0.02147
2613.45,0.02110
2607.66,0.02126
2601.88,0.02089
2596.09,0.02121
2590.3,0.02126
2584.52,0.02128
2578.73,0.02117
2572.95,0.02094
2567.16,0.02106
2561.37,0.02110
2555.59,0.02115
2549.8,0.02118
2544.02,0.02092
2538.23,0.02093
2532.44,0.02067
2526.66,0.02109
2520.87,0.02150
2515.08,0.02124
2509.3,0.02119
2503.51,0.02127
2497.73,0.02125
2491.94,0.02125
2486.15,0.02109
2480.37,0.02110
2474.58,0.02125
2468.79,0.02106
2463.01,0.02137
2457.22,0.02138
2451.44,0.02139
2445.65,0.02095
2439.86,0.02079
2434.08,0.02095
2428.29,0.02140
2422.5,0.02076
2416.72,0.02105
2410.93,0.02112
2405.15,0.02094
2399.36,0.02117
2393.57,0.02104
2387.79,0.02137
2382,0.02112
2376.21,0.02092
2370.43,0.02132
2364.64,0.02098
2358.86,0.02181
2353.07,0.02099
2347.28,0.02069
2341.5,0.02135
2335.71,0.02160
2329.92,0.02118
2324.14,0.02142
2318.35,0.02162
2312.57,0.02105
2306.78,0.02110
2300.99,0.02117
2295.21,0.02138
2289.42,0.02103
2283.63,0.02095
2277.85,0.02072
2272.06,0.02111
2266.28,0.02101
2260.49,0.02117
2254.7,0.02077
2248.92,0.02093
2243.13,0.02091
2237.34,0.02125
2231.56,0.02139
2225.77,0.02108
2219.99,0.02088
2214.2,0.02065
2208.41,0.02099
2202.63,0.02090
2196.84,0.02113
2191.05,0.02107
2185.27,0.02085
2179.48,0.02114
2173.7,0.02094
2167.91,0.02089
2162.12,0.02083
2156.34,0.02100
2150.55,0.02089
2144.76,0.02119
2138.98,0.02079
2133.19,0.02075
2127.41,0.02065
2121.62,0.02072
2115.83,0.02086
2110.05,0.02111
2104.26,0.02063
2098.47,0.02054
2092.69,0.02064
2086.9,0.02077
2081.12,0.02095
2075.33,0.02097
2069.54,0.02060
2063.76,0.02070
2057.97,0.02056
2052.19,0.02058
2046.4,0.02074
2040.61,0.02105
2034.83,0.02096
2029.04,0.02061
2023.25,0.02091
2017.47,0.02077
2011.68,0.02081
2005.9,0.02076
2000.11,0.02109
1994.32,0.02073
1988.54,0.02063
1982.75,0.02082
1976.96,0.02025
1971.18,0.02064
1965.39,0.02065
1959.61,0.02054
1953.82,0.02070
1948.03,0.02077
1942.25,0.02082
1936.46,0.02026
1930.67,0.02019
1924.89,0.02066
1919.1,0.02103
1913.32,0.02079
1907.53,0.02026
1901.74,0.02081
1895.96,0.02075
1890.17,0.02043
1884.38,0.02030
1878.6,0.02030
1872.81,0.02037
1867.03,0.02056
1861.24,0.02006
1855.45,0.02005
1849.67,0.02032
1843.88,0.02048
1838.09,0.02012
1832.31,0.02033
1826.52,0.02019
1820.74,0.02010
1814.95,0.02011
1809.16,0.01954
1803.38,0.01944
1797.59,0.01942
1791.8,0.01938
1786.02,0.01915
1780.23,0.01914
1774.45,0.01881
1768.66,0.01855
1762.87,0.01793
1757.09,0.01755
1751.3,0.01705
1745.51,0.01762
1739.73,0.01861
1733.94,0.01940
1728.16,0.02025
1722.37,0.02068
1716.58,0.02073
1710.8,0.02049
1705.01,0.02041
1699.22,0.01949
1693.44,0.01901
1687.65,0.01914
1681.87,0.01888
1676.08,0.01884
1670.29,0.01867
1664.51,0.01849
1658.72,0.01829
1652.93,0.01913
1647.15,0.01850
1641.36,0.01811
1635.58,0.01845
1629.79,0.01849
1624,0.01878
1618.22,0.01898
1612.43,0.01878
1606.64,0.01896
1600.86,0.01877
1595.07,0.01880
1589.29,0.01867
1583.5,0.01844
1577.71,0.01850
1571.93,0.01845
1566.14,0.01800
1560.35,0.01784
1554.57,0.01843
1548.78,0.01840
1543,0.01859
1537.21,0.01848
1531.42,0.01849
1525.64,0.01841
1519.85,0.01849
1514.07,0.01869
1508.28,0.01871
1502.49,0.01839
1496.71,0.01862
1490.92,0.01874
1485.13,0.01896
1479.35,0.01806
1473.56,0.01826
1467.78,0.01838
1461.99,0.01844
1456.2,0.01838
1450.42,0.01858
1444.63,0.01862
1438.84,0.01883
1433.06,0.01879
1427.27,0.01873
1421.49,0.01876
1415.7,0.01849
1409.91,0.01816
1404.13,0.01842
1398.34,0.01814
1392.55,0.01787
1386.77,0.01810
1380.98,0.01813
1375.2,0.01821
1369.41,0.01789
1363.62,0.01839
1357.84,0.01830
1352.05,0.01791
1346.26,0.01807
1340.48,0.01778
1334.69,0.01748
1328.91,0.01760
1323.12,0.01725
1317.33,0.01706
1311.55,0.01712
1305.76,0.01706
1299.97,0.01751
1294.19,0.01771
1288.4,0.01799
1282.62,0.01879
1276.83,0.01891
1271.04,0.01937
1265.26,0.01989
1259.47,0.01981
1253.68,0.02009
1247.9,0.01997
1242.11,0.01998
1236.33,0.01987
1230.54,0.01925
1224.75,0.01909
1218.97,0.01867
1213.18,0.01929
1207.39,0.01919
1201.61,0.01860
1195.82,0.01859
1190.04,0.01809
1184.25,0.01853
1178.46,0.01768
1172.68,0.01755
1166.89,0.01789
1161.1,0.01787
1155.32,0.01727
1149.53,0.01714
1143.75,0.01775
1137.96,0.01767
1132.17,0.01755
1126.39,0.01853
1120.6,0.01865
1114.81,0.01879
1109.03,0.01885
1103.24,0.01911
1097.46,0.01835
1091.67,0.01736
1085.88,0.01802
1080.1,0.01824
1074.31,0.01909
1068.52,0.01931
1062.74,0.01966
1056.95,0.02030
1051.17,0.01992
1045.38,0.01960
1039.59,0.01912
1033.81,0.01955
1028.02,0.01968
1022.24,0.01911
1016.45,0.01919
1010.66,0.01993
1004.88,0.02073
999.09,0.02096
993.304,0.02087
987.518,0.02074
981.731,0.02092
975.945,0.02045
970.159,0.02065
964.373,0.02037
958.586,0.01986
952.8,0.02034
947.014,0.01969
941.228,0.01924
935.441,0.01948
929.655,0.01901
923.869,0.01930
918.083,0.01955
912.297,0.01953
906.51,0.01919
900.724,0.01890
894.938,0.01870
889.152,0.01894
883.365,0.01982
877.579,0.02016
871.793,0.01860
866.007,0.01860
860.22,0.01911
854.434,0.01868
848.648,0.01861
842.862,0.01863
837.075,0.01924
831.289,0.01878
825.503,0.01903
819.717,0.01963
813.931,0.01881
808.144,0.01852
802.358,0.01877
796.572,0.01855
790.786,0.01861
784.999,0.01927
779.213,0.01812
773.427,0.01774
767.641,0.01764
761.854,0.01817
756.068,0.01794
750.282,0.01795
744.496,0.01808
738.709,0.01855
732.923,0.01722
727.137,0.01825
721.351,0.01950
715.565,0.01786
709.778,0.01785
703.992,0.01818
698.206,0.01768
692.42,0.01821
686.633,0.01805
680.847,0.01782
675.061,0.01744
669.275,0.01857
663.488,0.01724
657.702,0.01644
651.916,0.01686
646.13,0.01728
640.343,0.01459
634.557,0.01684
628.771,0.01636
622.985,0.01528
617.198,0.01516
611.412,0.01659
605.626,0.01400
599.84,0.01470