File: 01_Data/Protective_Hood/STA/N2/10K_min/Protective_Hood_STA_N2_10KData_250610_R3.csv
Temp./C,Time/min,DSC/(mW/mg),Mass loss/mg
60.0,0.0,0.753827,-0.0332035
60.5,0.0664239,0.77445,-0.0338319
61,0.131293,0.777948,-0.0331593
61.5,0.196703,0.799658,-0.0330412
62,0.259961,0.814021,-0.0344686
62.5,0.322764,0.83527,-0.0339223
63,0.384636,0.836855,-0.0344981
63.5,0.446244,0.855052,-0.0345192
64,0.508019,0.869275,-0.0345617
64.5,0.569005,0.88112,-0.0343237
65,0.6295,0.895815,-0.0346334
65.5,0.688132,0.905423,-0.0344983
66,0.749955,0.916127,-0.034926
66.5,0.809595,0.924663,-0.0359403
67,0.868053,0.93915,-0.0373521
67.5,0.926846,0.957538,-0.037278
68,0.987196,0.963602,-0.0372475
68.5,1.04381,0.97819,-0.0395825
69,1.09923,0.98942,-0.0370158
69.5,1.15885,1.00011,-0.0361029
70,1.21639,1.00498,-0.0375086
70.5,1.27392,1.01768,-0.0397526
71,1.33063,1.03005,-0.0380837
71.5,1.38613,1.04825,-0.038211
72,1.44477,1.05272,-0.0394126
72.5,1.49909,1.0655,-0.0407808
73,1.55493,1.07769,-0.0399569
73.5,1.61096,1.09353,-0.0411393
74,1.66753,1.10082,-0.0411877
74.5,1.72297,1.11617,-0.0412876
75,1.77822,1.12458,-0.0401637
75.5,1.83083,1.13666,-0.0412829
76,1.8869,1.14907,-0.0436353
76.5,1.94097,1.15458,-0.0439793
77,1.99566,1.17486,-0.0425478
77.5,2.04961,1.18656,-0.038759
78,2.1042,1.1928,-0.0407291
78.5,2.15926,1.19681,-0.0447029
79,2.21262,1.20601,-0.0460101
79.5,2.26652,1.219,-0.0459918
80,2.31929,1.22911,-0.046012
80.5,2.37242,1.23542,-0.0459791
81,2.42706,1.23896,-0.0447713
81.5,2.479,1.25352,-0.0459998
82,2.53336,1.26362,-0.047304
82.5,2.58455,1.27265,-0.0473106
83,2.63717,1.2773,-0.0487651
83.5,2.6902,1.28955,-0.0475349
84,2.74217,1.29402,-0.04863
84.5,2.79427,1.2974,-0.0500007
85,2.84317,1.29986,-0.0499522
85.5,2.89947,1.3205,-0.0505656
86,2.95104,1.32094,-0.0511446
86.5,2.99978,1.32825,-0.0512659
87,3.05452,1.33535,-0.0525895
87.5,3.10561,1.34025,-0.053004
88,3.15606,1.35126,-0.0538903
88.5,3.20767,1.36115,-0.0525912
89,3.26004,1.35551,-0.0529925
89.5,3.30981,1.35878,-0.0537206
90,3.361,1.37174,-0.0529125
90.5,3.41029,1.36971,-0.0538924
91,3.46202,1.3751,-0.0539009
91.5,3.51328,1.37515,-0.0551542
92,3.56329,1.38125,-0.0538683
92.5,3.61124,1.39126,-0.0538649
93,3.66271,1.39014,-0.05522
93.5,3.71282,1.38829,-0.0552162
94,3.76322,1.38546,-0.05653
94.5,3.81446,1.38306,-0.0565722
95,3.86315,1.38974,-0.0578495
95.5,3.91383,1.38537,-0.05785
96,3.96336,1.39213,-0.0578678
96.5,4.01282,1.39462,-0.0591668
97,4.06163,1.39454,-0.0591694
97.5,4.11119,1.39861,-0.05917
98,4.16055,1.40103,-0.0591718
98.5,4.21033,1.38094,-0.0604777
99,4.25931,1.39057,-0.0616837
99.5,4.30916,1.3933,-0.0613992
100,4.35724,1.39132,-0.0621492
100.5,4.40824,1.38763,-0.0619544
101,4.45775,1.392,-0.0618107
101.5,4.50626,1.38635,-0.0611109
102,4.55372,1.39227,-0.0611383
102.5,4.60262,1.38246,-0.0624604
103,4.65279,1.38714,-0.0624601
103.5,4.70141,1.38014,-0.0637902
104,4.74992,1.37748,-0.0632264
104.5,4.79651,1.3889,-0.0644396
105,4.84705,1.38368,-0.06444
105.5,4.89588,1.37761,-0.0644402
106,4.94492,1.38094,-0.0651266
106.5,4.99345,1.37072,-0.0644653
107,5.04183,1.36833,-0.0644501
107.5,5.08962,1.37209,-0.0651274
108,5.13939,1.36567,-0.0670747
108.5,5.18764,1.3648,-0.0670232
109,5.23645,1.35655,-0.0670761
109.5,5.28411,1.35901,-0.06708
110,5.33234,1.34687,-0.0670799
110.5,5.38132,1.34383,-0.0670732
111,5.42858,1.34419,-0.0683991
111.5,5.47827,1.33976,-0.0686098
112,5.52675,1.33333,-0.0697052
112.5,5.57367,1.32944,-0.0684066
113,5.6223,1.32517,-0.0684
113.5,5.6702,1.32792,-0.0683973
114,5.71885,1.3208,-0.0697117
114.5,5.76731,1.31784,-0.0709849
115,5.81639,1.31432,-0.0710302
115.5,5.86473,1.31746,-0.07103
116,5.91185,1.31478,-0.07103
116.5,5.95948,1.31434,-0.0710279
117,6.00904,1.31305,-0.0724397
117.5,6.05751,1.30764,-0.0710304
118,6.10536,1.30356,-0.0723407
118.5,6.15476,1.30484,-0.07235
119,6.20186,1.30878,-0.07235
119.5,6.24976,1.30268,-0.07235
120,6.29853,1.2995,-0.0723498
120.5,6.34599,1.30252,-0.0730628
121,6.39376,1.29739,-0.0723473
121.5,6.44322,1.29091,-0.0731973
122,6.49041,1.28248,-0.073661
122.5,6.53876,1.2849,-0.0743275
123,6.58732,1.28303,-0.0743241
123.5,6.63454,1.2787,-0.0749719
124,6.68206,1.28152,-0.0743834
124.5,6.72988,1.2798,-0.0749878
125,6.77688,1.27105,-0.076301
125.5,6.82622,1.27085,-0.0763
126,6.87442,1.27155,-0.0762999
126.5,6.92362,1.26927,-0.0759149
127,6.96944,1.27183,-0.0762991
127.5,7.01847,1.26314,-0.0763
128,7.06656,1.25542,-0.0762945
128.5,7.11366,1.26354,-0.0772669
129,7.16282,1.26528,-0.0759693
129.5,7.20975,1.26552,-0.0759678
130,7.25787,1.26033,-0.076301
130.5,7.30408,1.26031,-0.0762263
131,7.35215,1.25039,-0.0776106
131.5,7.40001,1.2488,-0.07761
132,7.44832,1.25283,-0.0776099
132.5,7.49485,1.24873,-0.0763181
133,7.54336,1.24211,-0.0762901
133.5,7.59142,1.24986,-0.0769769
134,7.63922,1.24693,-0.0776102
134.5,7.68558,1.24532,-0.07761
135,7.73183,1.24484,-0.07761
135.5,7.78149,1.24746,-0.07761
136,7.8296,1.24529,-0.0776608
136.5,7.87571,1.2411,-0.0762957
137,7.92422,1.24645,-0.0763022
137.5,7.97181,1.24905,-0.077293
138,8.01882,1.24934,-0.07637
138.5,8.06766,1.25198,-0.0776202
139,8.11351,1.23894,-0.07762
139.5,8.16192,1.24269,-0.0776199
140,8.20947,1.24098,-0.0768108
140.5,8.25667,1.24009,-0.0763148
141,8.30448,1.2403,-0.0744703
141.5,8.35115,1.24302,-0.0758517
142,8.39719,1.24354,-0.0770839
142.5,8.44301,1.2396,-0.0771142
143,8.49183,1.24737,-0.0774978
143.5,8.54108,1.24125,-0.0781908
144,8.58883,1.2412,-0.0785151
144.5,8.63595,1.24676,-0.0784529
145,8.68371,1.24839,-0.0785159
145.5,8.73083,1.2455,-0.0784901
146,8.77889,1.24304,-0.0784898
146.5,8.8251,1.24723,-0.0790048
147,8.87086,1.24641,-0.0798083
147.5,8.91967,1.25284,-0.0810642
148,8.96656,1.25113,-0.0797347
148.5,9.01327,1.25172,-0.07981
149,9.06176,1.25655,-0.0798099
149.5,9.1085,1.25247,-0.0798061
150,9.15587,1.24798,-0.0811347
150.5,9.20374,1.25193,-0.08113
151,9.24999,1.25455,-0.08113
151.5,9.2989,1.25056,-0.0810406
152,9.34465,1.25989,-0.0798112
152.5,9.39165,1.25669,-0.0798097
153,9.43937,1.26318,-0.0799207
153.5,9.48608,1.26155,-0.08111
154,9.53343,1.2595,-0.0798108
154.5,9.58041,1.26095,-0.0806421
155,9.6283,1.27146,-0.0811299
155.5,9.67508,1.27199,-0.08113
156,9.72235,1.26808,-0.08113
156.5,9.76929,1.26246,-0.0811171
157,9.81678,1.26532,-0.0798384
157.5,9.86393,1.269,-0.0798221
158,9.9086,1.2714,-0.0809927
158.5,9.95796,1.27364,-0.0811538
159,10.0047,1.27372,-0.0801455
159.5,10.0528,1.28056,-0.08014
160,10.0994,1.27944,-0.0801398
160.5,10.1474,1.28925,-0.0815392
161,10.1948,1.29211,-0.0814599
161.5,10.2424,1.29403,-0.0814599
162,10.2881,1.29897,-0.0810917
162.5,10.3364,1.29501,-0.0811296
163,10.3824,1.29915,-0.0813352
163.5,10.4301,1.30475,-0.0811257
164,10.477,1.30656,-0.0811315
164.5,10.5239,1.30368,-0.0823454
165,10.5718,1.31152,-0.0824497
165.5,10.619,1.31475,-0.0820958
166,10.6654,1.32062,-0.0811194
166.5,10.7138,1.32686,-0.08113
167,10.7607,1.31792,-0.0811302
167.5,10.8069,1.32509,-0.0821248
168,10.8549,1.32604,-0.0820894
168.5,10.9022,1.32787,-0.0824397
169,10.9492,1.33141,-0.08244
169.5,10.9961,1.33647,-0.0824024
170,11.0427,1.34332,-0.0831045
170.5,11.0912,1.34039,-0.0827694
171,11.1378,1.34402,-0.08277
171.5,11.1847,1.35095,-0.08277
172,11.232,1.3513,-0.08277
172.5,11.2789,1.35258,-0.0827562
173,11.3268,1.35978,-0.0840971
173.5,11.3741,1.35846,-0.08409
174,11.4214,1.36393,-0.0840896
174.5,11.4679,1.35957,-0.0837393
175,11.515,1.36383,-0.0837672
175.5,11.5616,1.37347,-0.0830598
176,11.6097,1.3637,-0.0831759
176.5,11.6559,1.36345,-0.08383
177,11.702,1.36489,-0.0837701
177.5,11.7508,1.36984,-0.0845613
178,11.798,1.37216,-0.085081
178.5,11.8452,1.38056,-0.0840169
179,11.8919,1.37953,-0.0840899
179.5,11.9393,1.39154,-0.0840911
180,11.9858,1.39222,-0.0848128
180.5,12.0325,1.38777,-0.0847499
181,12.0804,1.38964,-0.08475
181.5,12.1272,1.39445,-0.0847496
182,12.1734,1.39669,-0.0848686
182.5,12.2188,1.39309,-0.0867347
183,12.2682,1.39639,-0.0880848
183.5,12.3152,1.40224,-0.0880499
184,12.3634,1.40431,-0.08805
184.5,12.4104,1.40907,-0.08805
185,12.4574,1.41164,-0.08805
185.5,12.5043,1.4121,-0.0880506
186,12.5511,1.4174,-0.0886708
186.5,12.5978,1.41739,-0.0893593
187,12.6457,1.42543,-0.08936
187.5,12.6923,1.4328,-0.08936
188,12.7391,1.42785,-0.08936
188.5,12.7867,1.43234,-0.08936
189,12.8342,1.43249,-0.08936
189.5,12.8806,1.43385,-0.08936
190,12.9273,1.43954,-0.08936
190.5,12.9745,1.44392,-0.08936
191,13.0218,1.45129,-0.0893634
191.5,13.0685,1.44998,-0.0896918
192,13.1157,1.4536,-0.0902102
192.5,13.1626,1.45759,-0.0906795
193,13.2081,1.46253,-0.0909331
193.5,13.2532,1.4656,-0.0927603
194,13.3029,1.46408,-0.0940754
194.5,13.3502,1.4615,-0.0940647
195,13.3972,1.46081,-0.0927714
195.5,13.4419,1.47028,-0.0927596
196,13.4906,1.47211,-0.0940832
196.5,13.5379,1.47511,-0.09408
197,13.5839,1.48393,-0.0940799
197.5,13.6331,1.48845,-0.0940815
198,13.6802,1.49495,-0.0947409
198.5,13.7263,1.5007,-0.0947071
199,13.7733,1.49817,-0.0965092
199.5,13.8203,1.50754,-0.097296
200,13.8673,1.50407,-0.0987
200.5,13.914,1.50551,-0.0987
201,13.9615,1.51212,-0.0987
201.5,14.0087,1.52131,-0.0996881
202,14.0555,1.53178,-0.0999897
202.5,14.1022,1.52672,-0.101319
203,14.1483,1.53301,-0.10132
203.5,14.1961,1.53905,-0.101321
204,14.2433,1.53118,-0.102368
204.5,14.2909,1.54197,-0.102647
205,14.3372,1.54458,-0.105314
205.5,14.3851,1.54487,-0.105281
206,14.4316,1.55771,-0.104942
206.5,14.4788,1.55547,-0.104952
207,14.5256,1.55639,-0.106248
207.5,14.5733,1.56664,-0.106286
208,14.618,1.57482,-0.108889
208.5,14.6668,1.57997,-0.110226
209,14.7145,1.58076,-0.110217
209.5,14.7605,1.58618,-0.111543
210,14.8083,1.59678,-0.111441
210.5,14.8558,1.59745,-0.112786
211,14.903,1.61135,-0.11418
211.5,14.9507,1.61624,-0.115396
212,14.997,1.6257,-0.115487
212.5,15.0447,1.63133,-0.116849
213,15.0912,1.64073,-0.117354
213.5,15.1386,1.65263,-0.119159
214,15.1855,1.66024,-0.120947
214.5,15.2338,1.67379,-0.120938
215,15.2803,1.68072,-0.12218
215.5,15.3264,1.69244,-0.124202
216,15.3748,1.70074,-0.125929
216.5,15.4223,1.71749,-0.126265
217,15.4697,1.72904,-0.128754
217.5,15.5157,1.74514,-0.130085
218,15.5649,1.76495,-0.131406
218.5,15.6109,1.78973,-0.131412
219,15.658,1.81561,-0.135496
219.5,15.7063,1.83939,-0.137576
220,15.7528,1.86536,-0.139548
220.5,15.8005,1.90491,-0.141634
221,15.846,1.9433,-0.143288
221.5,15.8959,1.97667,-0.144583
222,15.944,2.04159,-0.145068
222.5,15.9919,2.11123,-0.148454
223,16.0402,2.20441,-0.150415
223.5,16.089,2.32815,-0.153117
224,16.1375,2.48693,-0.156315
224.5,16.1874,2.70222,-0.158213
225,16.2372,2.96402,-0.160857
225.5,16.2878,3.25431,-0.163735
226,16.3388,3.58308,-0.167045
226.5,16.4,4.68649,-0.170161
227,16.4422,4.34302,-0.173335
227.5,16.4828,3.6701,-0.175346
228,16.525,3.19567,-0.178162
228.5,16.5687,2.83041,-0.180822
229,16.6119,2.54986,-0.183246
229.5,16.6565,2.34324,-0.185587
230,16.7016,2.17658,-0.188602
230.5,16.7479,2.04249,-0.192276
231,16.7936,1.94552,-0.195892
231.5,16.8403,1.87408,-0.19727
232,16.8857,1.8271,-0.200763
232.5,16.9318,1.78474,-0.205284
233,16.9785,1.76092,-0.208717
233.5,17.0266,1.73655,-0.213193
234,17.0731,1.71765,-0.21676
234.5,17.1183,1.71552,-0.220984
235,17.1662,1.70635,-0.22662
235.5,17.2138,1.69773,-0.232017
236,17.2614,1.6953,-0.235642
236.5,17.3079,1.70021,-0.241535
237,17.3552,1.69397,-0.244548
237.5,17.4004,1.70239,-0.248624
238,17.4496,1.70812,-0.253247
238.5,17.4961,1.70829,-0.257516
239,17.5442,1.71113,-0.262558
239.5,17.5914,1.71595,-0.266052
240,17.6387,1.72109,-0.272452
240.5,17.6861,1.72638,-0.2774
241,17.7311,1.74202,-0.283994
241.5,17.7799,1.74949,-0.290701
242,17.8281,1.76951,-0.296439
242.5,17.8752,1.79349,-0.302062
243,17.9218,1.82061,-0.308893
243.5,17.9695,1.84458,-0.314527
244,18.0176,1.87923,-0.32248
244.5,18.0647,1.92514,-0.328804
245,18.1132,1.97368,-0.335591
245.5,18.1606,2.03499,-0.343233
246,18.2089,2.11175,-0.350691
246.5,18.2575,2.2099,-0.360408
247,18.306,2.31885,-0.369812
247.5,18.3543,2.4447,-0.379419
248,18.4048,2.60745,-0.387814
248.5,18.4525,2.77904,-0.400131
249,18.5019,2.97188,-0.411619
249.5,18.5519,3.20385,-0.425658
250,18.6023,3.45863,-0.440095
250.5,18.6522,3.70709,-0.454281
251,18.704,3.9842,-0.4689
251.5,18.7535,4.23778,-0.483977
252,18.804,4.5076,-0.500925
252.5,18.855,4.77306,-0.518681
253,18.9054,5.023,-0.536739
253.5,18.9547,5.25533,-0.555537
254,19.0054,5.47243,-0.576688
254.5,19.0555,5.6708,-0.597687
255,19.1047,5.84758,-0.619295
255.5,19.1552,6.00063,-0.642612
256,19.2039,6.14655,-0.667909
256.5,19.2529,6.2532,-0.69123
257,19.2994,6.34059,-0.715134
257.5,19.35,6.41514,-0.741363
258,19.3981,6.47331,-0.76541
258.5,19.4462,6.52499,-0.79195
259,19.4948,6.55973,-0.820196
259.5,19.5416,6.57589,-0.846426
260,19.5899,6.58373,-0.872642
260.5,19.6369,6.57499,-0.898761
261,19.6846,6.55645,-0.924624
261.5,19.7312,6.51717,-0.951925
262,19.7782,6.4671,-0.977162
262.5,19.8256,6.4114,-1.00246
263,19.8715,6.35401,-1.02796
263.5,19.9187,6.27076,-1.05415
264,19.965,6.19696,-1.08019
264.5,20.0119,6.10527,-1.10719
265,20.0578,5.99107,-1.13178
265.5,20.1035,5.89123,-1.15575
266,20.1505,5.76618,-1.18096
266.5,20.1968,5.63874,-1.20366
267,20.2421,5.50391,-1.22715
267.5,20.2876,5.37363,-1.25116
268,20.333,5.24161,-1.27497
268.5,20.3792,5.08897,-1.29671
269,20.4253,4.94587,-1.31843
269.5,20.4692,4.80481,-1.33948
270,20.5168,4.62601,-1.36287
270.5,20.5606,4.47768,-1.38322
271,20.6044,4.32582,-1.40175
271.5,20.6524,4.15744,-1.42356
272,20.6983,4.00035,-1.4416
272.5,20.7434,3.84362,-1.45913
273,20.7884,3.68159,-1.47721
273.5,20.8338,3.53055,-1.49476
274,20.8808,3.38104,-1.51098
274.5,20.9254,3.23989,-1.52875
275,20.9713,3.08545,-1.54495
275.5,21.0177,2.94025,-1.55961
276,21.0629,2.80051,-1.57469
276.5,21.1083,2.66981,-1.58902
277,21.1538,2.54505,-1.60121
277.5,21.2001,2.42075,-1.61277
278,21.2469,2.29501,-1.62464
278.5,21.2932,2.18055,-1.63836
279,21.3383,2.07666,-1.6504
279.5,21.3821,1.97869,-1.65759
280,21.4307,1.87891,-1.66709
280.5,21.4747,1.77925,-1.67689
281,21.5222,1.69854,-1.68741
281.5,21.5664,1.62579,-1.69673
282,21.6151,1.54306,-1.7054
282.5,21.662,1.4586,-1.71272
283,21.7088,1.38829,-1.71959
283.5,21.7551,1.33828,-1.72779
284,21.8017,1.28817,-1.73348
284.5,21.8481,1.239,-1.73852
285,21.8958,1.19649,-1.74514
285.5,21.9415,1.1521,-1.75107
286,21.9891,1.12605,-1.75736
286.5,22.0365,1.08715,-1.76308
287,22.0832,1.05587,-1.76721
287.5,22.1312,1.02796,-1.77094
288,22.1772,1.00586,-1.77586
288.5,22.2238,0.982265,-1.77892
289,22.272,0.956823,-1.7827
289.5,22.3188,0.937481,-1.78735
290,22.366,0.914708,-1.79114
290.5,22.4128,0.896239,-1.79518
291,22.4595,0.888723,-1.80024
291.5,22.5052,0.865147,-1.80246
292,22.5541,0.856281,-1.80592
292.5,22.6016,0.849971,-1.80934
293,22.6495,0.839418,-1.81229
293.5,22.6966,0.832333,-1.81566
294,22.7445,0.818612,-1.81888
294.5,22.7914,0.798326,-1.82219
295,22.8379,0.794352,-1.82627
295.5,22.885,0.783973,-1.83024
296,22.9324,0.771966,-1.8334
296.5,22.9806,0.767501,-1.83724
297,23.0282,0.749117,-1.83844
297.5,23.0746,0.733992,-1.84224
298,23.1225,0.731994,-1.84523
298.5,23.1702,0.726489,-1.84769
299,23.2179,0.718356,-1.85009
299.5,23.2647,0.709643,-1.85249
300,23.3123,0.707072,-1.85508
300.5,23.3595,0.694983,-1.8579
301,23.4069,0.688017,-1.86161
301.5,23.4539,0.682437,-1.86346
302,23.5032,0.671409,-1.8649
302.5,23.5499,0.670931,-1.86804
303,23.5977,0.661187,-1.87037
303.5,23.6435,0.65848,-1.8738
304,23.6921,0.65937,-1.87739
304.5,23.7396,0.645543,-1.87933
305,23.7866,0.63811,-1.88199
305.5,23.8335,0.628981,-1.88512
306,23.8819,0.622618,-1.8882
306.5,23.9301,0.614762,-1.89051
307,23.9753,0.61044,-1.89312
307.5,24.0241,0.59946,-1.8949
308,24.0711,0.598132,-1.89611
308.5,24.119,0.585141,-1.89959
309,24.1666,0.583718,-1.90329
309.5,24.2139,0.579705,-1.90589
310,24.2618,0.573924,-1.90867
310.5,24.3094,0.564373,-1.91133
311,24.3562,0.564489,-1.91304
311.5,24.4039,0.561075,-1.91522
312,24.4536,0.561768,-1.91909
312.5,24.5001,0.55078,-1.92247
313,24.5479,0.544146,-1.9248
313.5,24.593,0.534377,-1.92736
314,24.6417,0.528929,-1.92945
314.5,24.6896,0.530843,-1.93199
315,24.7372,0.523382,-1.93509
315.5,24.7853,0.516437,-1.93841
316,24.8331,0.51698,-1.94076
316.5,24.88,0.501952,-1.94349
317,24.9272,0.504731,-1.9462
317.5,24.9758,0.499703,-1.94913
318,25.0236,0.485117,-1.95064
318.5,25.0708,0.492768,-1.95361
319,25.1183,0.48541,-1.95583
319.5,25.1654,0.482172,-1.95878
320,25.2132,0.478732,-1.96153
320.5,25.2619,0.474058,-1.96479
321,25.309,0.473346,-1.96728
321.5,25.3546,0.459277,-1.97021
322,25.4054,0.455916,-1.97335
322.5,25.4517,0.450861,-1.97558
323,25.5001,0.450006,-1.97697
323.5,25.5477,0.449125,-1.98031
324,25.5959,0.452533,-1.98445
324.5,25.6435,0.44498,-1.98646
325,25.6911,0.438271,-1.98945
325.5,25.7383,0.434445,-1.99354
326,25.7866,0.436146,-1.9956
326.5,25.8344,0.429243,-1.99843
327,25.8826,0.422327,-2.00024
327.5,25.9299,0.419344,-2.00319
328,25.9777,0.422717,-2.00811
328.5,26.0258,0.419474,-2.00957
329,26.0736,0.413663,-2.01278
329.5,26.1219,0.412553,-2.01588
330,26.1693,0.415941,-2.01794
330.5,26.217,0.407289,-2.02092
331,26.2618,0.407574,-2.02397
331.5,26.3113,0.40494,-2.02532
332,26.3609,0.395199,-2.02836
332.5,26.4094,0.395641,-2.0299
333,26.4564,0.394481,-2.03121
333.5,26.5044,0.393903,-2.03478
334,26.5524,0.393856,-2.03715
334.5,26.6011,0.399512,-2.04125
335,26.649,0.392132,-2.0449
335.5,26.6968,0.393326,-2.04711
336,26.7445,0.393839,-2.04923
336.5,26.7919,0.388299,-2.0526
337,26.8405,0.38554,-2.05478
337.5,26.8887,0.390975,-2.05757
338,26.9362,0.384494,-2.0603
338.5,26.9856,0.388137,-2.06255
339,27.0333,0.394971,-2.06491
339.5,27.0802,0.389412,-2.0673
340,27.1284,0.39103,-2.07025
340.5,27.1766,0.393727,-2.0729
341,27.2258,0.391193,-2.0758
341.5,27.272,0.392805,-2.07902
342,27.3201,0.397434,-2.08018
342.5,27.3682,0.401958,-2.08294
343,27.4158,0.393449,-2.08461
343.5,27.4648,0.398021,-2.08764
344,27.5127,0.39757,-2.09104
344.5,27.5602,0.404116,-2.09414
345,27.6084,0.404961,-2.09711
345.5,27.6573,0.409372,-2.09926
346,27.7058,0.40761,-2.10265
346.5,27.7533,0.417123,-2.10408
347,27.8016,0.411557,-2.10729
347.5,27.8497,0.411186,-2.11009
348,27.8952,0.418929,-2.11247
348.5,27.9456,0.417892,-2.11384
349,27.9946,0.423169,-2.11533
349.5,28.0428,0.423519,-2.11825
350,28.09,0.426841,-2.12002
350.5,28.1385,0.42608,-2.12258
351,28.1875,0.432197,-2.12494
351.5,28.2355,0.437918,-2.12656
352,28.2827,0.441229,-2.12859
352.5,28.332,0.450901,-2.13116
353,28.3798,0.459615,-2.13531
353.5,28.4283,0.453613,-2.13844
354,28.4736,0.457612,-2.14029
354.5,28.5252,0.463624,-2.14164
355,28.5728,0.468281,-2.14317
355.5,28.6213,0.47106,-2.14466
356,28.6687,0.486517,-2.14748
356.5,28.717,0.48755,-2.15016
357,28.7652,0.487322,-2.15376
357.5,28.8144,0.493536,-2.15664
358,28.8621,0.491984,-2.15844
358.5,28.91,0.503491,-2.15974
359,28.9583,0.50855,-2.16162
359.5,29.0073,0.514517,-2.16423
360,29.0551,0.518828,-2.16676
360.5,29.1022,0.520286,-2.16844
361,29.1516,0.522279,-2.16974
361.5,29.2,0.532123,-2.17148
362,29.2484,0.537511,-2.17395
362.5,29.2961,0.542682,-2.17491
363,29.3457,0.549881,-2.17536
363.5,29.3933,0.557062,-2.17729
364,29.441,0.555678,-2.18037
364.5,29.4895,0.561051,-2.18263
365,29.5382,0.562264,-2.18475
365.5,29.5842,0.562744,-2.18715
366,29.6331,0.573149,-2.18866
366.5,29.6837,0.580153,-2.19
367,29.7315,0.584887,-2.19285
367.5,29.7792,0.591336,-2.19196
368,29.828,0.597381,-2.19293
368.5,29.876,0.600683,-2.19416
369,29.9236,0.606035,-2.19754
369.5,29.9729,0.611564,-2.19982
370,30.0212,0.614501,-2.20116
370.5,30.069,0.616594,-2.20242
371,30.118,0.626592,-2.20658
371.5,30.1661,0.62038,-2.20835
372,30.214,0.627465,-2.20971
372.5,30.2621,0.626755,-2.21114
373,30.3111,0.631603,-2.21268
373.5,30.3595,0.638543,-2.21399
374,30.4078,0.636261,-2.21518
374.5,30.456,0.643234,-2.21713
375,30.5053,0.647877,-2.21828
375.5,30.5539,0.650227,-2.22058
376,30.6016,0.651773,-2.22245
376.5,30.6493,0.64911,-2.22375
377,30.6983,0.663414,-2.22516
377.5,30.7465,0.655402,-2.22506
378,30.7946,0.666804,-2.22648
378.5,30.8431,0.667747,-2.22835
379,30.8914,0.671988,-2.23068
379.5,30.9403,0.68108,-2.23176
380,30.9887,0.678715,-2.23309
380.5,31.0358,0.685805,-2.23439
381,31.0855,0.692449,-2.23567
381.5,31.1336,0.691427,-2.23725
382,31.1822,0.698261,-2.23766
382.5,31.2299,0.69503,-2.23897
383,31.2796,0.693512,-2.24099
383.5,31.3275,0.701467,-2.24319
384,31.3766,0.701548,-2.24582
384.5,31.4245,0.705108,-2.24712
385,31.4737,0.710175,-2.25042
385.5,31.5223,0.716055,-2.25238
386,31.5702,0.710985,-2.25265
386.5,31.6194,0.719836,-2.25411
387,31.6674,0.718354,-2.25464
387.5,31.7161,0.724429,-2.25571
388,31.7636,0.723694,-2.25705
388.5,31.8116,0.720003,-2.25759
389,31.8615,0.722574,-2.25958
389.5,31.9091,0.734528,-2.25969
390,31.9591,0.730694,-2.26099
390.5,32.0062,0.729948,-2.26222
391,32.056,0.7371,-2.26332
391.5,32.1048,0.741372,-2.26358
392,32.1529,0.744667,-2.26493
392.5,32.2009,0.75079,-2.26626
393,32.2496,0.753045,-2.26751
393.5,32.2987,0.757033,-2.26899
394,32.3465,0.751359,-2.26996
394.5,32.3955,0.761423,-2.27126
395,32.4436,0.752068,-2.27274
395.5,32.4925,0.755841,-2.27536
396,32.5391,0.753391,-2.27641
396.5,32.5894,0.759571,-2.2779
397,32.6377,0.758402,-2.27952
397.5,32.6861,0.766847,-2.28151
398,32.7344,0.767267,-2.2811
398.5,32.783,0.771677,-2.28384
399,32.8316,0.775348,-2.28428
399.5,32.8802,0.777211,-2.28536
400,32.9288,0.777055,-2.28696
400.5,32.9772,0.775296,-2.28934
401,33.0252,0.77764,-2.28846
401.5,33.0751,0.784684,-2.28926
402,33.1227,0.778617,-2.29129
402.5,33.172,0.78114,-2.29136
403,33.2209,0.789555,-2.29345
403.5,33.2703,0.783609,-2.29609
404,33.3182,0.785158,-2.29751
404.5,33.3664,0.789085,-2.29776
405,33.4155,0.786234,-2.29874
405.5,33.4644,0.790361,-2.30007
406,33.5122,0.791069,-2.30069
406.5,33.5607,0.794977,-2.30125
407,33.6096,0.797957,-2.3038
407.5,33.6584,0.798795,-2.30541
408,33.7077,0.80484,-2.30579
408.5,33.7562,0.797353,-2.30668
409,33.8044,0.804666,-2.30797
409.5,33.8531,0.799655,-2.30928
410,33.902,0.80199,-2.31021
410.5,33.9509,0.802585,-2.31143
411,33.9993,0.796774,-2.31325
411.5,34.048,0.807319,-2.31352
412,34.0963,0.804223,-2.31499
412.5,34.1458,0.81234,-2.31517
413,34.1927,0.806324,-2.31621
413.5,34.2432,0.812162,-2.31718
414,34.2918,0.81728,-2.31851
414.5,34.3408,0.820088,-2.32113
415,34.3887,0.816587,-2.32125
415.5,34.4377,0.823705,-2.32247
416,34.4863,0.816521,-2.32504
416.5,34.5337,0.814704,-2.32639
417,34.584,0.826755,-2.32648
417.5,34.6329,0.829592,-2.32672
418,34.6818,0.823745,-2.3278
418.5,34.7304,0.830545,-2.328
419,34.7788,0.830882,-2.3305
419.5,34.8273,0.835687,-2.3319
420,34.8762,0.829508,-2.33319
420.5,34.9246,0.837473,-2.33425
421,34.9735,0.84021,-2.33382
421.5,35.0228,0.839658,-2.33729
422,35.0712,0.842586,-2.33861
422.5,35.1196,0.834084,-2.33901
423,35.169,0.839922,-2.33993
423.5,35.218,0.843416,-2.33967
424,35.2665,0.840481,-2.34014
424.5,35.3151,0.841347,-2.34313
425,35.3639,0.845265,-2.34252
425.5,35.4123,0.839543,-2.34384
426,35.462,0.839614,-2.34515
426.5,35.5111,0.831463,-2.34703
427,35.5593,0.838701,-2.3478
427.5,35.6083,0.832302,-2.34913
428,35.6559,0.850199,-2.35091
428.5,35.7058,0.851876,-2.35176
429,35.7551,0.850951,-2.35311
429.5,35.8028,0.857492,-2.3544
430,35.8524,0.847132,-2.35572
430.5,35.8998,0.854694,-2.35571
431,35.9493,0.867197,-2.35716
431.5,35.9981,0.853087,-2.35854
432,36.0461,0.856262,-2.35989
432.5,36.0947,0.860185,-2.36121
433,36.144,0.864358,-2.36383
433.5,36.1931,0.869745,-2.36384
434,36.2428,0.859113,-2.36386
434.5,36.2909,0.868244,-2.3651
435,36.3399,0.873108,-2.36648
435.5,36.388,0.875941,-2.36794
436,36.4368,0.880486,-2.37008
436.5,36.4859,0.889094,-2.37063
437,36.5353,0.885174,-2.37196
437.5,36.5841,0.881405,-2.37194
438,36.6336,0.890979,-2.37334
438.5,36.6805,0.889623,-2.3747
439,36.731,0.890707,-2.37602
439.5,36.7806,0.889637,-2.37734
440,36.8292,0.886,-2.37719
440.5,36.8787,0.896935,-2.37886
441,36.9275,0.893714,-2.37936
441.5,36.9743,0.899302,-2.37922
442,37.0251,0.90118,-2.38054
442.5,37.0743,0.897366,-2.38185
443,37.1227,0.899709,-2.38418
443.5,37.1709,0.899521,-2.3855
444,37.2214,0.910035,-2.38544
444.5,37.27,0.902672,-2.38672
445,37.3189,0.902702,-2.38843
445.5,37.3671,0.910394,-2.38944
446,37.4169,0.898971,-2.39073
446.5,37.4668,0.902588,-2.3905
447,37.5145,0.901374,-2.39221
447.5,37.5645,0.912722,-2.39389
448,37.6135,0.898956,-2.39454
448.5,37.6616,0.90638,-2.39513
449,37.7098,0.914432,-2.39651
449.5,37.7602,0.912642,-2.39779
450,37.8094,0.919376,-2.39848
450.5,37.8579,0.91846,-2.3998
451,37.9078,0.918075,-2.401
451.5,37.9546,0.919174,-2.40107
452,38.004,0.926222,-2.40236
452.5,38.054,0.924357,-2.40369
453,38.1028,0.922115,-2.40642
453.5,38.1525,0.936344,-2.40776
454,38.2016,0.931864,-2.40783
454.5,38.2509,0.936525,-2.40907
455,38.2988,0.947421,-2.40918
455.5,38.3484,0.942352,-2.41039
456,38.3973,0.950744,-2.41237
456.5,38.447,0.946273,-2.41369
457,38.4954,0.94598,-2.41501
457.5,38.5449,0.93774,-2.41632
458,38.5948,0.944483,-2.41762
458.5,38.6432,0.942866,-2.41763
459,38.6906,0.944973,-2.41884
459.5,38.7419,0.940624,-2.42249
460,38.7906,0.945564,-2.42327
460.5,38.8406,0.942514,-2.42379
461,38.8856,0.942721,-2.42511
461.5,38.937,0.943169,-2.42639
462,38.9864,0.947482,-2.42774
462.5,39.0351,0.94206,-2.42909
463,39.0849,0.949141,-2.42963
463.5,39.134,0.949228,-2.43125
464,39.1829,0.955363,-2.43281
464.5,39.2327,0.957637,-2.43379
465,39.2809,0.96053,-2.43324
465.5,39.3298,0.968248,-2.43455
466,39.3793,0.964955,-2.43574
466.5,39.4284,0.967757,-2.43718
467,39.4776,0.961967,-2.43847
467.5,39.527,0.967089,-2.43872
468,39.5756,0.961393,-2.43983
468.5,39.6232,0.969808,-2.44183
469,39.6745,0.971669,-2.44324
469.5,39.7234,0.97207,-2.44447
470,39.7723,0.97122,-2.44558
470.5,39.8219,0.968878,-2.44602
471,39.872,0.979294,-2.44734
471.5,39.9205,0.973654,-2.44837
472,39.97,0.973496,-2.44881
472.5,40.0174,0.975968,-2.45002
473,40.068,0.976428,-2.45184
473.5,40.1177,0.97651,-2.45269
474,40.1676,0.975508,-2.45399
474.5,40.2159,0.980384,-2.45542
475,40.2651,0.978217,-2.45799
475.5,40.3142,0.976632,-2.45811
476,40.3627,0.974331,-2.45978
476.5,40.4119,0.976375,-2.45975
477,40.459,0.973298,-2.46097
477.5,40.5114,0.974053,-2.46243
478,40.56,0.97339,-2.46316
478.5,40.6089,0.981153,-2.4649
479,40.6583,0.972978,-2.46601
479.5,40.7063,0.972751,-2.467
480,40.7565,0.975449,-2.46672
480.5,40.8068,0.970404,-2.46803
481,40.8536,0.970466,-2.4691
481.5,40.9045,0.967172,-2.47042
482,40.9543,0.968795,-2.47176
482.5,41.0027,0.954559,-2.47308
483,41.0524,0.956942,-2.47306
483.5,41.1008,0.955071,-2.47439
484,41.1506,0.951013,-2.47569
484.5,41.2007,0.947181,-2.47716
485,41.2493,0.944668,-2.47842
485.5,41.2987,0.936197,-2.47838
486,41.3474,0.939943,-2.47845
486.5,41.3976,0.938965,-2.47983
487,41.4471,0.938519,-2.48106
487.5,41.4957,0.93075,-2.48323
488,41.5456,0.931701,-2.48462
488.5,41.5941,0.922014,-2.48508
489,41.6429,0.918449,-2.48504
489.5,41.6927,0.918381,-2.48778
490,41.7427,0.917634,-2.48834
490.5,41.7913,0.913714,-2.48922
491,41.8401,0.9096,-2.4903
491.5,41.8907,0.901069,-2.49164
492,41.9395,0.901717,-2.49152
492.5,41.9896,0.892148,-2.4916
493,42.0373,0.88285,-2.49267
493.5,42.0877,0.888722,-2.49294
494,42.137,0.879358,-2.49423
494.5,42.1855,0.878944,-2.49558
495,42.2331,0.869366,-2.49689
495.5,42.2843,0.860667,-2.49828
496,42.3338,0.856899,-2.49821
496.5,42.3832,0.858999,-2.49859
497,42.4321,0.85173,-2.49953
497.5,42.4823,0.844408,-2.50084
498,42.5318,0.84187,-2.50086
498.5,42.5805,0.838692,-2.50215
499,42.6301,0.837239,-2.5029
499.5,42.6794,0.831524,-2.50414
500,42.7288,0.827613,-2.50612
500.5,42.7783,0.820793,-2.50739
501,42.8264,0.822718,-2.50828
501.5,42.8773,0.808616,-2.50842
502,42.9262,0.817401,-2.50731
502.5,42.9752,0.806308,-2.5074
503,43.0252,0.800975,-2.50974
503.5,43.0746,0.789222,-2.51106
504,43.1233,0.788581,-2.5111
504.5,43.1716,0.787348,-2.51105
505,43.2224,0.776295,-2.51202
505.5,43.2703,0.768132,-2.51237
506,43.3212,0.770608,-2.5124
506.5,43.371,0.763811,-2.5124
507,43.4198,0.764433,-2.5137
507.5,43.4697,0.756494,-2.51372
508,43.5186,0.754125,-2.51502
508.5,43.5681,0.756459,-2.51799
509,43.6179,0.759373,-2.51962
509.5,43.6676,0.759115,-2.51901
510,43.7177,0.747677,-2.51962
510.5,43.7664,0.750598,-2.51962
511,43.8159,0.748373,-2.52103
511.5,43.8651,0.751204,-2.51964
512,43.9146,0.744449,-2.52075
512.5,43.9629,0.742711,-2.52094
513,44.0137,0.752487,-2.52094
513.5,44.0629,0.743859,-2.52226
514,44.1115,0.746604,-2.52226
514.5,44.1622,0.739499,-2.52226
515,44.2106,0.734339,-2.52358
515.5,44.2605,0.735024,-2.52349
516,44.3107,0.736139,-2.52436
516.5,44.3596,0.734029,-2.52359
517,44.4086,0.727258,-2.52455
517.5,44.4582,0.725237,-2.52497
518,44.5072,0.724493,-2.5262
518.5,44.5557,0.724227,-2.52754
519,44.6052,0.716867,-2.52753
519.5,44.6563,0.716079,-2.52753
520,44.7042,0.710552,-2.52862
520.5,44.7539,0.712351,-2.52889
521,44.8038,0.705781,-2.53092
521.5,44.8531,0.704661,-2.53115
522,44.9033,0.706109,-2.53154
522.5,44.9523,0.719627,-2.53254
523,45.0019,0.70961,-2.53115
523.5,45.0511,0.710078,-2.53244
524,45.1011,0.705703,-2.53313
524.5,45.1503,0.708358,-2.53315
525,45.1993,0.70386,-2.53466
525.5,45.2486,0.704968,-2.53662
526,45.2987,0.706989,-2.53401
526.5,45.3483,0.706593,-2.53349
527,45.3981,0.703855,-2.53439
527.5,45.4483,0.700673,-2.53509
528,45.4971,0.697908,-2.53643
528.5,45.5466,0.692696,-2.53642
529,45.5968,0.694835,-2.53634
529.5,45.646,0.702122,-2.53774
530,45.6954,0.697936,-2.53835
530.5,45.7452,0.697971,-2.54004
531,45.7942,0.700237,-2.54137
531.5,45.8452,0.692574,-2.54169
532,45.8941,0.695213,-2.54169
532.5,45.9439,0.692722,-2.54038
533,45.9927,0.699579,-2.54037
533.5,46.0433,0.691352,-2.54078
534,46.0936,0.690396,-2.54301
534.5,46.1415,0.685015,-2.54302
535,46.1897,0.687816,-2.54432
535.5,46.2416,0.681456,-2.54433
536,46.2904,0.679904,-2.54432
536.5,46.3404,0.686293,-2.54427
537,46.3902,0.681518,-2.54546
537.5,46.4391,0.681992,-2.54558
538,46.4887,0.669062,-2.54712
538.5,46.539,0.676157,-2.54856
539,46.5888,0.666501,-2.54715
539.5,46.6383,0.678102,-2.54575
540,46.6879,0.670128,-2.54578
540.5,46.7377,0.673295,-2.54828
541,46.7869,0.67314,-2.54829
541.5,46.8371,0.677185,-2.54904
542,46.887,0.678123,-2.54893
542.5,46.9365,0.675078,-2.54839
543,46.9858,0.679344,-2.5497
543.5,47.0355,0.666485,-2.54966
544,47.0849,0.671578,-2.54838
544.5,47.1348,0.668893,-2.54968
545,47.1845,0.675548,-2.5526
545.5,47.2349,0.662419,-2.55245
546,47.2837,0.664956,-2.55124
546.5,47.3337,0.667583,-2.55058
547,47.3818,0.668933,-2.55058
547.5,47.4338,0.668133,-2.55065
548,47.4834,0.670185,-2.55189
548.5,47.533,0.663177,-2.55191
549,47.5821,0.672703,-2.55374
549.5,47.6325,0.664074,-2.55453
550,47.6816,0.663076,-2.55448
550.5,47.7318,0.659183,-2.55585
551,47.7813,0.657844,-2.55607
551.5,47.831,0.662397,-2.55717
552,47.8811,0.657073,-2.55717
552.5,47.9307,0.656849,-2.55716
553,47.9796,0.647615,-2.55831
553.5,48.0297,0.64689,-2.55848
554,48.0793,0.64847,-2.55848
554.5,48.1288,0.651617,-2.55988
555,48.1794,0.64449,-2.5598
555.5,48.2293,0.649598,-2.5598
556,48.2781,0.651984,-2.5598
556.5,48.3271,0.64831,-2.5598
557,48.377,0.647576,-2.56062
557.5,48.428,0.644957,-2.56244
558,48.4767,0.652177,-2.56245
558.5,48.5263,0.651406,-2.56111
559,48.5759,0.652062,-2.56111
559.5,48.6253,0.654147,-2.56208
560,48.6756,0.650117,-2.56112
560.5,48.7247,0.649777,-2.56244
561,48.7737,0.64912,-2.56244
561.5,48.8241,0.649514,-2.56244
562,48.8744,0.650497,-2.56241
562.5,48.9245,0.641611,-2.56376
563,48.9741,0.651229,-2.56376
563.5,49.023,0.644008,-2.56376
564,49.0733,0.641176,-2.56507
564.5,49.1228,0.641555,-2.56499
565,49.1725,0.640597,-2.56638
565.5,49.2238,0.634846,-2.56638
566,49.2731,0.637558,-2.56765
566.5,49.3221,0.636953,-2.56869
567,49.372,0.63381,-2.56764
567.5,49.4225,0.630054,-2.56836
568,49.4722,0.636756,-2.56835
568.5,49.5222,0.635204,-2.56738
569,49.571,0.637376,-2.56759
569.5,49.6209,0.637048,-2.5687
570,49.6711,0.639684,-2.57
570.5,49.7212,0.638698,-2.57001
571,49.771,0.635809,-2.57001
571.5,49.8197,0.636168,-2.57044
572,49.8697,0.637988,-2.57204
572.5,49.9201,0.635637,-2.57265
573,49.9701,0.636611,-2.57265
573.5,50.02,0.63617,-2.57265
574,50.0691,0.638602,-2.57265
574.5,50.1187,0.637777,-2.57265
575,50.1687,0.63193,-2.57269
575.5,50.2173,0.632313,-2.57264
576,50.2683,0.630586,-2.57389
576.5,50.3177,0.631928,-2.57501
577,50.3674,0.631146,-2.57411
577.5,50.4181,0.634948,-2.57387
578,50.4677,0.631141,-2.57528
578.5,50.5174,0.633516,-2.57528
579,50.5667,0.633788,-2.57549
579.5,50.6157,0.630269,-2.57628
580,50.6664,0.637512,-2.57627
580.5,50.7163,0.625437,-2.57627
581,50.7658,0.638796,-2.57627
581.5,50.8157,0.63885,-2.57627
582,50.866,0.629336,-2.57629
582.5,50.9159,0.644369,-2.57759
583,50.9658,0.631831,-2.57755
583.5,51.0157,0.634049,-2.57824
584,51.065,0.633264,-2.57861
584.5,51.1157,0.621408,-2.57791
585,51.1652,0.630591,-2.57791
585.5,51.2155,0.625042,-2.57924
586,51.2659,0.624972,-2.57923
586.5,51.3158,0.63009,-2.57923
587,51.3654,0.616085,-2.57924
587.5,51.4143,0.614666,-2.58054
588,51.4655,0.617938,-2.58052
588.5,51.5148,0.616939,-2.58133
589,51.5659,0.616156,-2.58187
589.5,51.6142,0.617405,-2.58347
590,51.6649,0.631067,-2.5845
590.5,51.7147,0.624908,-2.5845
591,51.7643,0.629834,-2.5845
591.5,51.815,0.626574,-2.58451
592,51.8655,0.633583,-2.58461
592.5,51.9152,0.633605,-2.5845
593,51.9648,0.624494,-2.58586
593.5,52.0146,0.628215,-2.58582
594,52.0652,0.625776,-2.58582
594.5,52.1144,0.633106,-2.58582
595,52.1654,0.628636,-2.58456
595.5,52.2155,0.630374,-2.58582
596,52.266,0.629304,-2.58582
596.5,52.3155,0.633093,-2.58579
597,52.3657,0.623933,-2.58547
597.5,52.4152,0.633646,-2.58686
598,52.4652,0.632757,-2.58718
598.5,52.5151,0.63055,-2.58712
599,52.5651,0.630339,-2.58847
599.5,52.6151,0.631048,-2.58963
600,52.6657,0.630244,-2.58978
600.5,52.7149,0.636277,-2.58978
601,52.7639,0.637959,-2.58978
601.5,52.8146,0.640077,-2.58848
602,52.8646,0.650076,-2.58845
602.5,52.9146,0.640347,-2.58978
603,52.9647,0.64241,-2.58977
603.5,53.015,0.63999,-2.58977
604,53.0637,0.643028,-2.58977
604.5,53.1151,0.634383,-2.58972
605,53.1654,0.64076,-2.5898
605.5,53.2148,0.645353,-2.59091
606,53.2646,0.644237,-2.59109
606.5,53.3148,0.647112,-2.59129
607,53.3652,0.654998,-2.59338
607.5,53.4147,0.652063,-2.59471
608,53.4658,0.651066,-2.59471
608.5,53.5156,0.64692,-2.59471
609,53.5642,0.644705,-2.59471
609.5,53.6144,0.652524,-2.59561
610,53.6651,0.649728,-2.59504
610.5,53.7151,0.638919,-2.59467
611,53.7644,0.643025,-2.59471
611.5,53.8152,0.646415,-2.59399
612,53.8645,0.642166,-2.59339
612.5,53.9149,0.640042,-2.5934
613,53.9648,0.63498,-2.59471
613.5,54.0153,0.645381,-2.59741
614,54.0661,0.6496,-2.60043
614.5,54.1158,0.646787,-2.59892
615,54.1648,0.644227,-2.59888
615.5,54.2157,0.65109,-2.59888
616,54.2633,0.641784,-2.59888
616.5,54.3153,0.6434,-2.59784
617,54.3645,0.641102,-2.59921
617.5,54.4158,0.63929,-2.5992
618,54.4664,0.636944,-2.60054
618.5,54.5152,0.638082,-2.60053
619,54.5653,0.640558,-2.60051
619.5,54.6154,0.641652,-2.6012
620,54.666,0.643682,-2.6025
620.5,54.7159,0.648233,-2.60251
621,54.766,0.653196,-2.60338
621.5,54.8155,0.647526,-2.60251
622,54.8653,0.64904,-2.60118
622.5,54.9158,0.640241,-2.60119
623,54.9659,0.642786,-2.60185
623.5,55.0158,0.63572,-2.60144
624,55.066,0.648023,-2.60275
624.5,55.1165,0.646603,-2.60381
625,55.1662,0.645467,-2.60546
625.5,55.2161,0.651187,-2.60642
626,55.2662,0.650572,-2.60749
626.5,55.3168,0.654712,-2.60678
627,55.3673,0.64706,-2.60679
627.5,55.4169,0.649723,-2.60679
628,55.4671,0.652657,-2.60679
628.5,55.5166,0.652945,-2.60702
629,55.5665,0.654126,-2.60777
629.5,55.6163,0.65924,-2.60777
630,55.6671,0.657365,-2.60777
630.5,55.7167,0.658388,-2.60809
631,55.7674,0.659892,-2.60944
631.5,55.8164,0.655498,-2.61072
632,55.8676,0.666479,-2.61074
632.5,55.9173,0.65777,-2.61075
633,55.9673,0.669062,-2.61075
633.5,56.0177,0.667253,-2.61074
634,56.0672,0.672271,-2.61074
634.5,56.1188,0.670799,-2.61074
635,56.168,0.674615,-2.61164
635.5,56.2177,0.673477,-2.61206
636,56.2681,0.676214,-2.61279
636.5,56.3183,0.671827,-2.61305
637,56.368,0.670771,-2.61301
637.5,56.4173,0.670833,-2.61338
638,56.4689,0.669029,-2.61477
638.5,56.5198,0.67699,-2.61469
639,56.5688,0.681979,-2.61371
639.5,56.6202,0.672538,-2.61371
640,56.6689,0.672396,-2.61371
640.5,56.7196,0.673505,-2.61506
641,56.77,0.676016,-2.61634
641.5,56.8194,0.671323,-2.61629
642,56.869,0.668981,-2.61502
642.5,56.92,0.667965,-2.61504
643,56.9709,0.669127,-2.61645
643.5,57.0217,0.672275,-2.61704
644,57.0716,0.675363,-2.61777
644.5,57.1217,0.669267,-2.61778
645,57.172,0.677845,-2.61909
645.5,57.2223,0.684247,-2.61991
646,57.2726,0.675799,-2.62074
646.5,57.321,0.678099,-2.62191
647,57.3726,0.678957,-2.62161
647.5,57.4236,0.684251,-2.62172
648,57.4736,0.67775,-2.6231
648.5,57.5235,0.680171,-2.62003
649,57.5738,0.668536,-2.61999
649.5,57.6242,0.674944,-2.61964
650,57.6743,0.670929,-2.61964
650.5,57.7248,0.681395,-2.62024
651,57.775,0.683255,-2.62227
651.5,57.8244,0.68181,-2.62227
652,57.8749,0.677186,-2.62228
652.5,57.9259,0.678769,-2.62358
653,57.9759,0.686806,-2.62447
653.5,58.0262,0.685823,-2.62461
654,58.0758,0.690619,-2.62589
654.5,58.1264,0.6893,-2.62607
655,58.1769,0.686336,-2.62589
655.5,58.2271,0.687347,-2.6259
656,58.2773,0.692026,-2.6272
656.5,58.3277,0.687134,-2.62721
657,58.3772,0.685291,-2.62721
657.5,58.4269,0.694928,-2.62721
658,58.4774,0.702759,-2.62983
658.5,58.5272,0.707084,-2.62853
659,58.5781,0.71,-2.62983
659.5,58.6274,0.709307,-2.62984
660,58.6781,0.71122,-2.62984
660.5,58.7283,0.712352,-2.62987
661,58.7776,0.70995,-2.63116
661.5,58.8286,0.714774,-2.63109
662,58.8772,0.713789,-2.63251
662.5,58.9287,0.720441,-2.63248
663,58.9799,0.711786,-2.63248
663.5,59.029,0.722795,-2.63382
664,59.0796,0.721431,-2.63379
664.5,59.1303,0.727357,-2.63247
665,59.1794,0.727993,-2.63248
665.5,59.2306,0.725967,-2.63248
666,59.2806,0.721332,-2.63266
666.5,59.3297,0.72311,-2.6338
667,59.3811,0.733446,-2.6338
667.5,59.4314,0.722577,-2.63246
668,59.4813,0.72403,-2.63297
668.5,59.532,0.714262,-2.63248
669,59.5804,0.717479,-2.63265
669.5,59.632,0.720592,-2.63379
670,59.681,0.725795,-2.63345
670.5,59.7313,0.722337,-2.63412
671,59.782,0.719481,-2.63412
671.5,59.8332,0.721823,-2.63412
672,59.8827,0.717135,-2.63544
672.5,59.933,0.725593,-2.63544
673,59.9831,0.726241,-2.63642
673.5,60.0334,0.723659,-2.63684
674,60.0832,0.729213,-2.63809
674.5,60.1339,0.73017,-2.63852
675,60.1832,0.729426,-2.63937
675.5,60.2324,0.727841,-2.63839
676,60.2846,0.72653,-2.63808
676.5,60.3345,0.73344,-2.63939
677,60.3855,0.728449,-2.63949
677.5,60.4346,0.745786,-2.6394
678,60.4855,0.74006,-2.63887
678.5,60.5359,0.740785,-2.63841
679,60.5838,0.740843,-2.63917
679.5,60.6358,0.740942,-2.63973
680,60.6872,0.738032,-2.63973
680.5,60.7354,0.745334,-2.64109
681,60.7874,0.750421,-2.64227
681.5,60.8368,0.75013,-2.64235
682,60.8856,0.751476,-2.64235
682.5,60.9373,0.745625,-2.64371
683,60.9875,0.751946,-2.64629
683.5,61.0376,0.752577,-2.64631
684,61.0884,0.756884,-2.64757
684.5,61.1389,0.759771,-2.64763
685,61.1892,0.751765,-2.64763
685.5,61.2395,0.758225,-2.64803
686,61.2894,0.747001,-2.6485
686.5,61.3397,0.75373,-2.64762
687,61.3897,0.75624,-2.64805
687.5,61.4408,0.744931,-2.65026
688,61.4904,0.747951,-2.65028
688.5,61.5407,0.742988,-2.65161
689,61.5913,0.740663,-2.65159
689.5,61.6413,0.741689,-2.65288
690,61.6918,0.745986,-2.65422
690.5,61.7423,0.745865,-2.65422
691,61.7918,0.750167,-2.6552
691.5,61.8415,0.751636,-2.65476
692,61.8921,0.752326,-2.65487
692.5,61.9422,0.752611,-2.65552
693,61.9927,0.748735,-2.65553
693.5,62.0427,0.746603,-2.65553
694,62.093,0.743489,-2.65519
694.5,62.1424,0.7482,-2.65651
695,62.1926,0.756348,-2.65586
695.5,62.2433,0.745456,-2.65718
696,62.2919,0.753773,-2.65718
696.5,62.3434,0.76027,-2.65718
697,62.3921,0.752292,-2.65847
697.5,62.4443,0.748791,-2.65817
698,62.4937,0.766482,-2.65811
698.5,62.5436,0.769536,-2.65817
699,62.5938,0.769905,-2.65815
699.5,62.6428,0.762002,-2.65948
700,62.6952,0.767194,-2.6582
700.5,62.7418,0.762776,-2.65841
701,62.7952,0.757635,-2.66125
701.5,62.8449,0.759251,-2.66124
702,62.895,0.757321,-2.66151
702.5,62.9452,0.763361,-2.66223
703,62.9953,0.763692,-2.66341
703.5,63.0445,0.76537,-2.66356
704,63.096,0.77396,-2.6641
704.5,63.1458,0.773493,-2.66421
705,63.1956,0.767934,-2.66351
705.5,63.2459,0.771324,-2.66492
706,63.2968,0.771054,-2.66689
706.5,63.3472,0.777998,-2.66695
707,63.3975,0.781162,-2.66563
707.5,63.4481,0.778694,-2.66564
708,63.4987,0.771375,-2.66694
708.5,63.5479,0.76995,-2.66562
709,63.5992,0.759749,-2.66603
709.5,63.6501,0.772848,-2.66709
710,63.7003,0.777925,-2.66695
710.5,63.7502,0.775792,-2.66695
711,63.8007,0.769149,-2.66697
711.5,63.8513,0.768492,-2.66694
712,63.901,0.771878,-2.66564
712.5,63.9526,0.771881,-2.6653
713,64.0037,0.768127,-2.66283
713.5,64.0527,0.769225,-2.65486
714,64.1032,0.762004,-2.64178
714.5,64.1537,0.763459,-2.63883
715,64.2054,0.766784,-2.6364
715.5,64.2549,0.766901,-2.63587
716,64.3056,0.766857,-2.63461
716.5,64.3552,0.763183,-2.63266
717,64.4065,0.766028,-2.63402
717.5,64.4572,0.755573,-2.63845
718,64.5077,0.757924,-2.64111
718.5,64.5581,0.752016,-2.64371
719,64.6086,0.749472,-2.64698
719.5,64.6592,0.751125,-2.64876
720,64.7101,0.742416,-2.653
720.5,64.7607,0.748756,-2.65415
721,64.8109,0.748839,-2.65659
721.5,64.8612,0.750018,-2.65878
722,64.9125,0.753896,-2.66058
722.5,64.9639,0.762416,-2.6643
723,65.0136,0.750257,-2.66598
723.5,65.0644,0.744776,-2.66973
724,65.1147,0.745778,-2.67203
724.5,65.1652,0.751804,-2.67244
725,65.2164,0.748553,-2.67346
725.5,65.2662,0.740484,-2.67376
726,65.3169,0.736871,-2.67368
726.5,65.3678,0.73388,-2.67625
727,65.4193,0.72713,-2.67754
727.5,65.4694,0.726434,-2.67805
728,65.5204,0.727561,-2.68034
728.5,65.5709,0.722263,-2.68034
729,65.6225,0.716307,-2.68166
729.5,65.6724,0.713002,-2.68166
730,65.7229,0.709756,-2.68166
730.5,65.7736,0.705226,-2.68172
731,65.8231,0.707218,-2.6843
731.5,65.8745,0.691927,-2.68562
732,65.9244,0.694484,-2.68562
732.5,65.9751,0.688332,-2.68563
733,66.0261,0.686698,-2.68692
733.5,66.077,0.687448,-2.68826
734,66.1274,0.682735,-2.68915
734.5,66.1783,0.677611,-2.68924
735,66.2277,0.677629,-2.68923
735.5,66.2786,0.67094,-2.68826
736,66.328,0.669881,-2.68955
736.5,66.3783,0.671817,-2.68957
737,66.4313,0.664985,-2.68979
737.5,66.4815,0.66298,-2.6922
738,66.5315,0.658893,-2.6922
738.5,66.583,0.652689,-2.6922
739,66.6332,0.654457,-2.69352
739.5,66.683,0.645509,-2.69352
740,66.7336,0.646591,-2.6935
740.5,66.7851,0.637724,-2.69484
741,66.8356,0.633439,-2.69616
741.5,66.8862,0.624466,-2.69746
742,66.9375,0.61825,-2.69882
742.5,66.9865,0.618569,-2.69876
743,67.0383,0.605057,-2.69887
743.5,67.0872,0.594489,-2.69881
744,67.1393,0.594837,-2.70011
744.5,67.1908,0.591409,-2.70014
745,67.2404,0.587197,-2.70142
745.5,67.2908,0.573578,-2.70267
746,67.3421,0.562319,-2.70274
746.5,67.3931,0.560921,-2.70274
747,67.4435,0.55994,-2.70274
747.5,67.4941,0.551376,-2.70406
748,67.5449,0.545345,-2.70406
748.5,67.5956,0.532305,-2.70408
749,67.6462,0.539349,-2.70538
749.5,67.697,0.530497,-2.70538
750,67.7475,0.531228,-2.70501
750.5,67.799,0.53125,-2.70505
751,67.8489,0.526882,-2.70505
751.5,67.8997,0.519811,-2.70501
752,67.9503,0.508934,-2.70636
752.5,68.0017,0.501506,-2.70635
753,68.0515,0.50828,-2.70775
753.5,68.1024,0.505189,-2.70733
754,68.1536,0.502178,-2.70801
754.5,68.2032,0.501789,-2.70801
755,68.2544,0.488745,-2.70934
755.5,68.3055,0.486609,-2.70947
756,68.3561,0.47659,-2.71064
756.5,68.4059,0.465266,-2.71064
757,68.4571,0.458725,-2.71063
757.5,68.5076,0.459616,-2.71197
758,68.5584,0.449486,-2.71196
758.5,68.6096,0.440215,-2.71211
759,68.6595,0.444072,-2.71196
759.5,68.7107,0.438788,-2.71251
760,68.7612,0.433472,-2.71361
760.5,68.8099,0.425495,-2.7139
761,68.863,0.419067,-2.7146
761.5,68.913,0.420354,-2.71592
762,68.9621,0.423327,-2.71492
762.5,69.0147,0.414598,-2.71622
763,69.0651,0.410053,-2.71624
763.5,69.1159,0.401589,-2.71623
764,69.1673,0.40415,-2.71688
764.5,69.2174,0.402284,-2.7169
765,69.2684,0.392435,-2.7169
765.5,69.3191,0.390127,-2.71686
766,69.3699,0.380831,-2.71849
766.5,69.42,0.371203,-2.71954
767,69.4719,0.35959,-2.72049
767.5,69.522,0.357889,-2.72075
768,69.5726,0.341335,-2.71953
768.5,69.6243,0.337626,-2.72083
769,69.6748,0.327547,-2.72085
769.5,69.7257,0.318017,-2.72085
770,69.7759,0.315151,-2.72181
770.5,69.8267,0.302631,-2.72179
771,69.878,0.296428,-2.72316
771.5,69.9281,0.292764,-2.72266
772,69.9791,0.281316,-2.72183
772.5,70.0295,0.269653,-2.72315
773,70.0806,0.269304,-2.72315
773.5,70.1307,0.257903,-2.72315
774,70.1827,0.24858,-2.72315
774.5,70.233,0.243289,-2.72447
775,70.284,0.240662,-2.72446
775.5,70.3345,0.218431,-2.72316
776,70.3861,0.22048,-2.72574
776.5,70.4357,0.208182,-2.72577
777,70.4872,0.210446,-2.72448
777.5,70.5373,0.205267,-2.72448
778,70.5881,0.197147,-2.72582
778.5,70.6386,0.19541,-2.72707
779,70.69,0.194041,-2.72612
779.5,70.7404,0.18397,-2.72575
780,70.7917,0.183964,-2.72711
780.5,70.8425,0.182851,-2.7267
781,70.8927,0.17629,-2.72578
781.5,70.9445,0.159109,-2.72691
782,70.9955,0.157593,-2.72711
782.5,71.0459,0.149851,-2.72711
783,71.0965,0.142409,-2.72715
783.5,71.1468,0.140297,-2.72843
784,71.1989,0.126776,-2.72843
784.5,71.249,0.12794,-2.72843
785,71.2995,0.127277,-2.72843
785.5,71.3505,0.113786,-2.72712
786,71.4001,0.101718,-2.72711
786.5,71.4531,0.104276,-2.72711
787,71.5041,0.0932195,-2.72849
787.5,71.5544,0.0928939,-2.7271
788,71.6047,0.0895551,-2.72713
788.5,71.6556,0.0854321,-2.72842
789,71.7066,0.0769232,-2.72984
789.5,71.7576,0.0683222,-2.73106
790,71.8087,0.0609531,-2.73106