File: 01_Data/Protective_Hood/STA/N2/10K_min/Protective_Hood_STA_N2_10KData_240319_R1.csv
Temp./C,Time/min,DSC/(mW/mg),Mass loss/mg
60.0,0.0,0.838657,-0.0264072
60.5,0.0572707,0.853192,-0.0267693
61,0.11039,0.867325,-0.0260003
61.5,0.169515,0.881549,-0.0260534
62,0.225504,0.895841,-0.0261257
62.5,0.280183,0.905269,-0.0261077
63,0.336463,0.924201,-0.0260931
63.5,0.388897,0.930202,-0.0275265
64,0.444024,0.936072,-0.0261321
64.5,0.49621,0.948734,-0.0263682
65,0.552852,0.955705,-0.0274419
65.5,0.605886,0.971638,-0.0260931
66,0.656921,0.971702,-0.0277468
66.5,0.713212,0.986804,-0.0285694
67,0.765998,0.997135,-0.0289013
67.5,0.820097,1.00074,-0.0274132
68,0.872387,1.00783,-0.0287491
68.5,0.926342,1.01574,-0.0281525
69,0.979926,1.01762,-0.0274392
69.5,1.03194,1.02884,-0.026121
70,1.08292,1.04345,-0.0266154
70.5,1.13717,1.0508,-0.0260827
71,1.18821,1.05295,-0.0274427
71.5,1.2437,1.06491,-0.0287588
72,1.29535,1.06001,-0.0285391
72.5,1.34625,1.07411,-0.0274341
73,1.40068,1.07495,-0.0287493
73.5,1.45286,1.07955,-0.02736
74,1.50365,1.08778,-0.0288455
74.5,1.5541,1.1015,-0.0284549
75,1.60907,1.1041,-0.0287717
75.5,1.66081,1.10536,-0.0300789
76,1.71152,1.10925,-0.0301577
76.5,1.7641,1.11867,-0.03139
77,1.81693,1.11878,-0.0313899
77.5,1.86807,1.12965,-0.0303455
78,1.91883,1.13638,-0.0299425
78.5,1.97101,1.13425,-0.0313897
79,2.02349,1.13227,-0.0323714
79.5,2.07477,1.13583,-0.0327095
80,2.12133,1.14249,-0.0320326
80.5,2.17415,1.15695,-0.0307953
81,2.22499,1.15531,-0.0300697
81.5,2.27539,1.1563,-0.0313595
82,2.32698,1.16015,-0.0313901
82.5,2.37699,1.1641,-0.0313608
83,2.42813,1.17201,-0.0327122
83.5,2.47908,1.16517,-0.0339825
84,2.52994,1.1728,-0.0337752
84.5,2.57996,1.17606,-0.0327104
85,2.63083,1.17954,-0.0317508
85.5,2.68072,1.18487,-0.0304097
86,2.73111,1.18081,-0.03041
86.5,2.78089,1.18322,-0.03041
87,2.83388,1.19159,-0.0308857
87.5,2.88363,1.19359,-0.0330553
88,2.92992,1.19424,-0.0343725
88.5,2.98286,1.19696,-0.0330396
89,3.02911,1.18396,-0.0343609
89.5,3.08178,1.19383,-0.03436
90,3.12822,1.18427,-0.0344253
90.5,3.18052,1.18593,-0.0346863
91,3.2272,1.19134,-0.0346577
91.5,3.28032,1.18979,-0.0359945
92,3.32975,1.18646,-0.0373176
92.5,3.37962,1.18626,-0.03732
93,3.42827,1.17827,-0.0373226
93.5,3.48066,1.18094,-0.0369909
94,3.52791,1.17666,-0.0369887
94.5,3.57805,1.16973,-0.0359469
95,3.62707,1.17557,-0.0369887
95.5,3.67743,1.16975,-0.03699
96,3.72553,1.16426,-0.0369838
96.5,3.77514,1.16996,-0.0383046
97,3.82345,1.16386,-0.0383
97.5,3.87229,1.15531,-0.0383
98,3.92213,1.15762,-0.03962
98.5,3.97122,1.16259,-0.0396281
99,4.01982,1.15533,-0.0406146
99.5,4.06829,1.15644,-0.0406126
100,4.11774,1.14756,-0.0392741
100.5,4.16454,1.14406,-0.0393001
101,4.21633,1.14181,-0.0393
101.5,4.26427,1.15273,-0.0393031
102,4.31146,1.13942,-0.0379701
102.5,4.36083,1.14064,-0.03798
103,4.40939,1.13268,-0.03798
103.5,4.45836,1.13524,-0.0383028
104,4.50656,1.13411,-0.0383629
104.5,4.55488,1.13194,-0.0382132
105,4.60341,1.12919,-0.0404741
105.5,4.6509,1.12359,-0.041206
106,4.69931,1.12025,-0.0422599
106.5,4.74919,1.1209,-0.04226
107,4.79758,1.12019,-0.0422416
107.5,4.84658,1.11914,-0.0399254
108,4.89606,1.11476,-0.0399516
108.5,4.94144,1.113,-0.0389495
109,4.99328,1.11435,-0.0389767
109.5,5.04015,1.1132,-0.0393189
110,5.08793,1.1099,-0.0399579
110.5,5.13656,1.10713,-0.0400372
111,5.18591,1.11021,-0.0399594
111.5,5.23415,1.10907,-0.0386722
112,5.28305,1.10797,-0.0372541
112.5,5.3316,1.10305,-0.0386446
113,5.37785,1.11226,-0.0386638
113.5,5.42763,1.10405,-0.0399487
114,5.47502,1.10737,-0.03995
114.5,5.52273,1.10939,-0.0399465
115,5.57341,1.10639,-0.0412678
115.5,5.6201,1.09603,-0.0412585
116,5.66819,1.09855,-0.0419319
116.5,5.71694,1.09836,-0.04193
117,5.7655,1.09739,-0.0419311
117.5,5.81391,1.1033,-0.042653
118,5.86019,1.10827,-0.0425902
118.5,5.91101,1.10324,-0.0439432
119,5.95933,1.10333,-0.0439099
119.5,6.00744,1.1067,-0.043922
120,6.05553,1.10605,-0.0439969
120.5,6.10449,1.11027,-0.0439009
121,6.15285,1.10617,-0.0439004
121.5,6.20089,1.11537,-0.0426052
122,6.25074,1.11011,-0.0425993
122.5,6.29813,1.10972,-0.0439187
123,6.3467,1.11179,-0.0453514
123.5,6.39294,1.11158,-0.0466595
124,6.44257,1.11591,-0.0465506
124.5,6.48974,1.11452,-0.0440071
125,6.53838,1.10566,-0.0426849
125.5,6.58659,1.11715,-0.0440381
126,6.63497,1.11594,-0.0427991
126.5,6.6832,1.11404,-0.0413798
127,6.73152,1.11436,-0.0413903
127.5,6.77954,1.11763,-0.0426919
128,6.82857,1.11822,-0.0426999
128.5,6.87593,1.12343,-0.0427563
129,6.9219,1.12223,-0.0413791
129.5,6.97153,1.12357,-0.0413882
130,7.02048,1.13307,-0.042076
130.5,7.06766,1.13197,-0.0413806
131,7.1162,1.13469,-0.04138
131.5,7.16438,1.13999,-0.04138
132,7.21258,1.14055,-0.0413503
132.5,7.26134,1.13478,-0.0407131
133,7.30753,1.14257,-0.0413886
133.5,7.35673,1.14016,-0.04139
134,7.40418,1.14638,-0.04139
134.5,7.45373,1.14337,-0.04139
135,7.50062,1.14672,-0.0413858
135.5,7.54789,1.14925,-0.0407269
136,7.5982,1.15243,-0.0407253
136.5,7.64269,1.15409,-0.0410482
137,7.69366,1.15054,-0.041028
137.5,7.74035,1.14843,-0.0418232
138,7.78809,1.14992,-0.0414306
138.5,7.83679,1.15059,-0.0426787
139,7.88478,1.15897,-0.0427001
139.5,7.93325,1.15528,-0.0426749
140,7.98082,1.16012,-0.0433602
140.5,8.02847,1.16048,-0.0433554
141,8.07624,1.16373,-0.0440039
141.5,8.12426,1.16017,-0.04402
142,8.17153,1.17425,-0.04402
142.5,8.22005,1.16273,-0.0440192
143,8.26812,1.16945,-0.0427902
143.5,8.31636,1.17949,-0.0413729
144,8.3635,1.18315,-0.0413835
144.5,8.41371,1.18503,-0.0400379
145,8.46035,1.18373,-0.0400518
145.5,8.50839,1.19091,-0.0413844
146,8.55485,1.1914,-0.04138
146.5,8.60297,1.1952,-0.04138
147,8.65071,1.19471,-0.0413801
147.5,8.69853,1.19605,-0.0413551
148,8.74611,1.19345,-0.0426989
148.5,8.79369,1.18735,-0.0427092
149,8.84132,1.19299,-0.0426999
149.5,8.88942,1.19401,-0.0427115
150,8.93601,1.20242,-0.041392
150.5,8.98551,1.20525,-0.04139
151,9.03302,1.20115,-0.0413901
151.5,9.08053,1.20808,-0.0421793
152,9.1279,1.20708,-0.0413879
152.5,9.17562,1.21,-0.0427246
153,9.22335,1.20628,-0.0413394
153.5,9.2715,1.21138,-0.0405073
154,9.31852,1.20858,-0.0400766
154.5,9.36669,1.21794,-0.0413266
155,9.41318,1.21476,-0.0427037
155.5,9.46152,1.21861,-0.044009
156,9.51021,1.20929,-0.044606
156.5,9.55632,1.21005,-0.0453398
157,9.60485,1.22098,-0.043925
157.5,9.65129,1.22072,-0.0438989
158,9.70042,1.22126,-0.0433604
158.5,9.74723,1.2248,-0.0433599
159,9.79402,1.23234,-0.0433877
159.5,9.84181,1.23213,-0.0420387
160,9.89003,1.2286,-0.0420391
160.5,9.93456,1.23086,-0.0423619
161,9.98185,1.22752,-0.0423753
161.5,10.0311,1.23377,-0.0448072
162,10.0794,1.24116,-0.0461162
162.5,10.125,1.23336,-0.044775
163,10.1743,1.24312,-0.0447794
163.5,10.2215,1.24278,-0.0461172
164,10.2699,1.24005,-0.0461001
164.5,10.3163,1.24402,-0.0461
165,10.3643,1.23961,-0.0460994
165.5,10.4119,1.24153,-0.0453712
166,10.4608,1.24922,-0.04478
166.5,10.5072,1.2537,-0.0438115
167,10.5519,1.25837,-0.0434698
167.5,10.6019,1.2463,-0.04347
168,10.6503,1.26465,-0.04347
168.5,10.6972,1.26455,-0.0435242
169,10.7452,1.26741,-0.0432269
169.5,10.7904,1.2664,-0.0434704
170,10.8406,1.27271,-0.0447731
170.5,10.8872,1.2817,-0.0453897
171,10.9347,1.27559,-0.0461065
171.5,10.9811,1.27869,-0.04479
172,11.0295,1.28157,-0.04479
172.5,11.0759,1.28303,-0.04479
173,11.1245,1.28681,-0.0447906
173.5,11.174,1.28217,-0.0454075
174,11.2205,1.28488,-0.0461486
174.5,11.267,1.29493,-0.0461351
175,11.3155,1.30102,-0.0445632
175.5,11.3632,1.29807,-0.0437987
176,11.4116,1.30772,-0.0424862
176.5,11.4599,1.3058,-0.04248
177,11.5066,1.30481,-0.04248
177.5,11.5553,1.29936,-0.04248
178,11.6022,1.29882,-0.0424799
178.5,11.6498,1.30429,-0.0421678
179,11.6976,1.30813,-0.0434755
179.5,11.7451,1.30299,-0.0434708
180,11.7925,1.31076,-0.0427791
180.5,11.84,1.30673,-0.04281
181,11.8884,1.31499,-0.0428317
181.5,11.9337,1.30833,-0.0441231
182,11.983,1.31462,-0.0440749
182.5,12.0305,1.31043,-0.045443
183,12.0761,1.3186,-0.04544
183.5,12.1259,1.31818,-0.0454433
184,12.1723,1.32686,-0.0478224
184.5,12.22,1.32824,-0.04808
185,12.267,1.32302,-0.04808
185.5,12.315,1.32319,-0.0477412
186,12.362,1.32586,-0.0467608
186.5,12.4105,1.32725,-0.0468626
187,12.4582,1.32703,-0.0490576
187.5,12.5058,1.32268,-0.04907
188,12.551,1.32192,-0.0503815
188.5,12.6011,1.3283,-0.05072
189,12.6472,1.33023,-0.0507201
189.5,12.6943,1.32531,-0.0506875
190,12.7409,1.32872,-0.0493998
190.5,12.7897,1.33161,-0.0494001
191,12.8371,1.33594,-0.0493289
191.5,12.884,1.33828,-0.0507103
192,12.9328,1.3392,-0.0507092
192.5,12.979,1.34228,-0.0510566
193,13.0279,1.34473,-0.0510382
193.5,13.0741,1.35055,-0.0517245
194,13.1208,1.34558,-0.0520324
194.5,13.1684,1.35051,-0.0520293
195,13.2167,1.35329,-0.0535976
195.5,13.2631,1.3553,-0.0536861
196,13.3115,1.34923,-0.0546406
196.5,13.3591,1.36222,-0.0533494
197,13.4048,1.35656,-0.0520224
197.5,13.4533,1.36698,-0.0533982
198,13.5016,1.36976,-0.05335
198.5,13.5484,1.37462,-0.0533683
199,13.5955,1.38001,-0.055336
199.5,13.6426,1.38132,-0.0566506
200,13.6909,1.38352,-0.0566499
200.5,13.7386,1.38747,-0.055442
201,13.7852,1.39151,-0.0553297
201.5,13.8333,1.39398,-0.0553417
202,13.88,1.39929,-0.0566514
202.5,13.9287,1.40392,-0.0566485
203,13.9759,1.40085,-0.057328
203.5,14.024,1.4139,-0.057255
204,14.0722,1.42097,-0.0599405
204.5,14.1177,1.42227,-0.0612427
205,14.164,1.42388,-0.0625686
205.5,14.2126,1.43238,-0.0625588
206,14.2587,1.43569,-0.0632154
206.5,14.3061,1.43224,-0.0624747
207,14.3546,1.43653,-0.0652158
207.5,14.4016,1.43878,-0.06521
208,14.4496,1.45308,-0.0652106
208.5,14.4969,1.45603,-0.0663097
209,14.5434,1.45952,-0.0679104
209.5,14.5919,1.461,-0.0690934
210,14.6401,1.46884,-0.0704876
210.5,14.6873,1.46927,-0.0718344
211,14.7344,1.47795,-0.0730447
211.5,14.7833,1.4763,-0.0740895
212,14.8301,1.47923,-0.0746664
212.5,14.8776,1.48836,-0.0754007
213,14.9241,1.49259,-0.0767357
213.5,14.9717,1.4987,-0.0780367
214,15.0202,1.50656,-0.0800462
214.5,15.0668,1.51189,-0.080077
215,15.1128,1.51621,-0.0809112
215.5,15.1623,1.52596,-0.0822075
216,15.2106,1.53619,-0.0848385
216.5,15.2579,1.54482,-0.0862155
217,15.3061,1.55132,-0.0876582
217.5,15.3538,1.56076,-0.0891258
218,15.4031,1.57667,-0.090453
218.5,15.4503,1.5978,-0.0917409
219,15.498,1.60407,-0.0932558
219.5,15.5455,1.6254,-0.0931822
220,15.5939,1.64586,-0.094687
220.5,15.6414,1.67078,-0.096056
221,15.6896,1.70677,-0.0974063
221.5,15.7364,1.73643,-0.0998676
222,15.7866,1.77034,-0.102038
222.5,15.8342,1.8234,-0.104876
223,15.8836,1.87553,-0.107927
223.5,15.9302,1.95234,-0.109556
224,15.9795,2.03839,-0.110894
224.5,16.0293,2.1395,-0.113531
225,16.0767,2.2532,-0.116433
225.5,16.1252,2.37446,-0.119808
226,16.1753,2.47862,-0.12254
226.5,16.2245,2.54548,-0.125878
227,16.2699,2.36736,-0.129182
227.5,16.3162,2.1824,-0.133554
228,16.3619,2.05639,-0.135981
228.5,16.4081,1.95843,-0.139038
229,16.4536,1.89321,-0.141015
229.5,16.5001,1.82438,-0.143582
230,16.5472,1.7679,-0.14685
230.5,16.5949,1.72242,-0.149806
231,16.6399,1.68276,-0.153167
231.5,16.6863,1.64616,-0.155807
232,16.7336,1.60842,-0.160135
232.5,16.7807,1.5741,-0.163415
233,16.8284,1.55288,-0.166028
233.5,16.8748,1.51803,-0.169233
234,16.9222,1.49356,-0.172622
234.5,16.9693,1.47767,-0.176535
235,17.0164,1.46562,-0.181276
235.5,17.0651,1.44516,-0.185347
236,17.1122,1.44662,-0.186418
236.5,17.1589,1.42972,-0.191495
237,17.207,1.42576,-0.195507
237.5,17.2544,1.4235,-0.198259
238,17.3016,1.42648,-0.201706
238.5,17.3495,1.40919,-0.206644
239,17.3961,1.41591,-0.210432
239.5,17.4438,1.40838,-0.214548
240,17.4916,1.40607,-0.218734
240.5,17.5391,1.39659,-0.221556
241,17.586,1.38928,-0.226054
241.5,17.6335,1.39017,-0.23091
242,17.6808,1.38363,-0.235462
242.5,17.7282,1.37222,-0.238404
243,17.7735,1.36414,-0.243456
243.5,17.8209,1.35731,-0.246431
244,17.8677,1.35373,-0.249986
244.5,17.9172,1.34879,-0.253217
245,17.9648,1.33501,-0.256867
245.5,18.0124,1.3344,-0.260651
246,18.0585,1.33406,-0.263152
246.5,18.1056,1.33005,-0.264817
247,18.1537,1.33035,-0.267408
247.5,18.2007,1.33837,-0.269627
248,18.249,1.346,-0.27183
248.5,18.2968,1.36839,-0.274462
249,18.3443,1.38593,-0.276563
249.5,18.3893,1.39843,-0.279509
250,18.4396,1.4255,-0.281667
250.5,18.4881,1.45452,-0.285266
251,18.535,1.49195,-0.288483
251.5,18.5828,1.52872,-0.291139
252,18.631,1.58296,-0.293757
252.5,18.6786,1.62995,-0.296299
253,18.7265,1.68729,-0.300206
253.5,18.7761,1.76104,-0.305184
254,18.8218,1.83419,-0.310298
254.5,18.8726,1.91647,-0.316959
255,18.92,2.00528,-0.321976
255.5,18.9691,2.10713,-0.326167
256,19.0186,2.21788,-0.332096
256.5,19.0664,2.32799,-0.338894
257,19.1163,2.44646,-0.346243
257.5,19.1654,2.58725,-0.354031
258,19.2145,2.71522,-0.36027
258.5,19.2628,2.84307,-0.368366
259,19.3108,2.98297,-0.378116
259.5,19.3609,3.11189,-0.388241
260,19.4099,3.25024,-0.398587
260.5,19.4589,3.38827,-0.410096
261,19.5084,3.50874,-0.422119
261.5,19.5587,3.6405,-0.434989
262,19.6088,3.74731,-0.448524
262.5,19.6574,3.85627,-0.462665
263,19.7064,3.96231,-0.475795
263.5,19.7551,4.05413,-0.488853
264,19.8044,4.13675,-0.503073
264.5,19.8535,4.21766,-0.518657
265,19.9013,4.28614,-0.535366
265.5,19.9501,4.34038,-0.551271
266,19.9981,4.38466,-0.566167
266.5,20.0458,4.42888,-0.582597
267,20.0945,4.46972,-0.602078
267.5,20.1429,4.49814,-0.618389
268,20.1912,4.51892,-0.635341
268.5,20.2395,4.539,-0.652745
269,20.2871,4.55105,-0.669593
269.5,20.3351,4.55837,-0.687904
270,20.3834,4.54352,-0.705791
270.5,20.4313,4.54285,-0.722423
271,20.4784,4.51702,-0.741051
271.5,20.5258,4.49203,-0.759705
272,20.573,4.45826,-0.778014
272.5,20.6209,4.42103,-0.797246
273,20.6673,4.37013,-0.814751
273.5,20.715,4.31334,-0.832329
274,20.7621,4.24693,-0.847855
274.5,20.8096,4.17346,-0.865077
275,20.856,4.09969,-0.883134
275.5,20.9018,4.01728,-0.899579
276,20.9495,3.93223,-0.91586
276.5,20.996,3.84507,-0.930911
277,21.0424,3.76119,-0.947179
277.5,21.0893,3.66406,-0.96278
278,21.1359,3.56631,-0.976637
278.5,21.1834,3.4548,-0.991991
279,21.2293,3.36671,-1.0054
279.5,21.2756,3.25597,-1.01765
280,21.3219,3.15274,-1.03033
280.5,21.3681,3.04872,-1.04059
281,21.4151,2.93973,-1.05326
281.5,21.4611,2.83293,-1.06446
282,21.5072,2.71738,-1.07635
282.5,21.5534,2.61327,-1.08913
283,21.6,2.49686,-1.10027
283.5,21.6458,2.38118,-1.11173
284,21.692,2.26866,-1.12087
284.5,21.7382,2.15464,-1.12923
285,21.7852,2.04859,-1.13815
285.5,21.8307,1.94951,-1.14555
286,21.8766,1.84796,-1.15188
286.5,21.9231,1.74464,-1.15865
287,21.9685,1.65014,-1.16532
287.5,22.0178,1.54597,-1.17284
288,22.0633,1.47495,-1.17943
288.5,22.1103,1.39838,-1.18482
289,22.1568,1.3297,-1.18638
289.5,22.2036,1.27043,-1.18772
290,22.2504,1.21697,-1.19096
290.5,22.2979,1.16369,-1.19456
291,22.3445,1.12505,-1.19954
291.5,22.3916,1.09343,-1.20272
292,22.4391,1.06073,-1.20544
292.5,22.4853,1.03377,-1.20819
293,22.5339,1.00824,-1.21083
293.5,22.5803,0.989886,-1.21322
294,22.6271,0.969749,-1.21617
294.5,22.6749,0.950059,-1.21777
295,22.7236,0.946874,-1.21989
295.5,22.771,0.939768,-1.22243
296,22.8164,0.937062,-1.22375
296.5,22.865,0.926671,-1.22503
297,22.9127,0.91724,-1.22685
297.5,22.9604,0.910471,-1.22964
298,23.0076,0.906015,-1.23259
298.5,23.0559,0.895552,-1.23472
299,23.1029,0.888102,-1.23667
299.5,23.1506,0.889379,-1.23791
300,23.1981,0.888366,-1.23916
300.5,23.2458,0.878843,-1.24038
301,23.2944,0.877878,-1.24236
301.5,23.3412,0.877751,-1.24373
302,23.3893,0.876444,-1.24524
302.5,23.4375,0.87585,-1.24771
303,23.4854,0.870217,-1.24935
303.5,23.5318,0.874206,-1.24927
304,23.5797,0.860014,-1.25094
304.5,23.6278,0.861845,-1.2529
305,23.6749,0.859387,-1.25404
305.5,23.7234,0.854147,-1.256
306,23.771,0.855012,-1.25821
306.5,23.8182,0.850396,-1.25827
307,23.8664,0.839554,-1.26125
307.5,23.9144,0.838826,-1.26374
308,23.9626,0.840189,-1.26533
308.5,24.0099,0.837367,-1.26794
309,24.0576,0.836409,-1.26971
309.5,24.1057,0.828494,-1.27192
310,24.153,0.825927,-1.27333
310.5,24.2013,0.827214,-1.2748
311,24.2497,0.826296,-1.27612
311.5,24.2972,0.81365,-1.27736
312,24.3447,0.815872,-1.27798
312.5,24.3922,0.816732,-1.27825
313,24.4407,0.810159,-1.27873
313.5,24.4875,0.800409,-1.28056
314,24.5361,0.799439,-1.28303
314.5,24.584,0.796489,-1.28508
315,24.6314,0.794965,-1.28719
315.5,24.6797,0.791591,-1.28872
316,24.7288,0.787695,-1.29132
316.5,24.7765,0.792635,-1.29264
317,24.8232,0.785185,-1.29418
317.5,24.8715,0.789698,-1.29689
318,24.9201,0.779787,-1.29841
318.5,24.9671,0.765671,-1.29985
319,25.015,0.767767,-1.30256
319.5,25.0633,0.766841,-1.30185
320,25.1102,0.764183,-1.30257
320.5,25.1575,0.75664,-1.30388
321,25.2074,0.762009,-1.30531
321.5,25.2553,0.753241,-1.30732
322,25.3037,0.752688,-1.30802
322.5,25.3524,0.753882,-1.30927
323,25.3984,0.755814,-1.31072
323.5,25.4463,0.740173,-1.31184
324,25.4936,0.749519,-1.31185
324.5,25.542,0.745447,-1.31322
325,25.5901,0.74487,-1.31455
325.5,25.6389,0.743767,-1.31591
326,25.6873,0.737162,-1.31827
326.5,25.7349,0.744407,-1.32172
327,25.7836,0.743119,-1.32299
327.5,25.83,0.742109,-1.3243
328,25.8813,0.745767,-1.32574
328.5,25.9283,0.738693,-1.32709
329,25.9763,0.740142,-1.32604
329.5,26.0246,0.74511,-1.32778
330,26.0735,0.740036,-1.32904
330.5,26.1206,0.739994,-1.3313
331,26.169,0.735711,-1.33287
331.5,26.2172,0.731792,-1.33423
332,26.2651,0.734548,-1.33559
332.5,26.3139,0.729769,-1.33689
333,26.3616,0.72698,-1.33835
333.5,26.4085,0.73023,-1.34036
334,26.458,0.732456,-1.34358
334.5,26.507,0.725706,-1.34378
335,26.5535,0.721722,-1.34519
335.5,26.6016,0.72201,-1.34648
336,26.65,0.724174,-1.34845
336.5,26.6968,0.724504,-1.35107
337,26.7466,0.725283,-1.35195
337.5,26.7959,0.729658,-1.35274
338,26.8443,0.733433,-1.35381
338.5,26.892,0.723217,-1.3538
339,26.94,0.725772,-1.35548
339.5,26.9881,0.726135,-1.35609
340,27.0369,0.721077,-1.35729
340.5,27.0852,0.724233,-1.35856
341,27.1329,0.72847,-1.35857
341.5,27.182,0.737627,-1.3617
342,27.2291,0.732092,-1.3626
342.5,27.2787,0.722498,-1.365
343,27.3262,0.7229,-1.36678
343.5,27.3748,0.721082,-1.36844
344,27.423,0.720809,-1.36972
344.5,27.4712,0.721756,-1.37207
345,27.5184,0.718007,-1.3724
345.5,27.5679,0.718337,-1.3737
346,27.6157,0.72298,-1.37374
346.5,27.6642,0.721621,-1.37505
347,27.7136,0.722105,-1.37635
347.5,27.7605,0.717058,-1.37766
348,27.81,0.720262,-1.37779
348.5,27.8569,0.719103,-1.37892
349,27.9058,0.722917,-1.38029
349.5,27.9535,0.728644,-1.38159
350,28.0024,0.728432,-1.38285
350.5,28.0503,0.730813,-1.38331
351,28.099,0.723835,-1.38306
351.5,28.1471,0.726668,-1.38371
352,28.1963,0.731891,-1.38326
352.5,28.2438,0.729884,-1.38483
353,28.2924,0.738643,-1.38705
353.5,28.3415,0.736683,-1.38831
354,28.3892,0.73348,-1.38956
354.5,28.4372,0.735519,-1.3911
355,28.4869,0.735128,-1.3926
355.5,28.5352,0.737216,-1.39462
356,28.583,0.736205,-1.39662
356.5,28.6327,0.740106,-1.39783
357,28.6802,0.742085,-1.40086
357.5,28.7284,0.746601,-1.40192
358,28.7776,0.751572,-1.40436
358.5,28.826,0.749159,-1.40586
359,28.8747,0.744762,-1.4072
359.5,28.9219,0.754743,-1.40711
360,28.9702,0.76339,-1.40719
360.5,29.0201,0.761285,-1.4085
361,29.0688,0.759499,-1.40983
361.5,29.1177,0.759137,-1.41115
362,29.1661,0.76492,-1.41231
362.5,29.2147,0.765656,-1.41254
363,29.2634,0.7667,-1.41104
363.5,29.3109,0.776608,-1.41104
364,29.3598,0.775102,-1.41104
364.5,29.4086,0.776214,-1.41234
365,29.4574,0.778084,-1.41487
365.5,29.505,0.779924,-1.41494
366,29.5544,0.785627,-1.41631
366.5,29.6033,0.78233,-1.41638
367,29.65,0.790432,-1.41937
367.5,29.6998,0.791362,-1.42047
368,29.7469,0.793711,-1.42137
368.5,29.7972,0.795239,-1.42418
369,29.8451,0.789085,-1.42619
369.5,29.8915,0.793087,-1.42608
370,29.9433,0.792716,-1.42764
370.5,29.9909,0.795928,-1.42751
371,30.04,0.796835,-1.42878
371.5,30.0869,0.792674,-1.42745
372,30.1365,0.795248,-1.42776
372.5,30.1847,0.801964,-1.42914
373,30.2334,0.803566,-1.42936
373.5,30.283,0.807187,-1.42883
374,30.3309,0.807656,-1.42882
374.5,30.3801,0.809244,-1.43037
375,30.4275,0.813453,-1.43289
375.5,30.4763,0.811979,-1.43402
376,30.5251,0.807979,-1.43574
376.5,30.5743,0.809837,-1.43565
377,30.6226,0.814456,-1.43695
377.5,30.6706,0.813921,-1.43828
378,30.719,0.820358,-1.4383
378.5,30.7685,0.820978,-1.44064
379,30.8175,0.818447,-1.44056
379.5,30.8656,0.823675,-1.44096
380,30.914,0.820802,-1.44144
380.5,30.9626,0.825722,-1.4419
381,31.0115,0.819414,-1.44332
381.5,31.0605,0.82171,-1.44397
382,31.1091,0.834639,-1.44318
382.5,31.1561,0.83031,-1.44463
383,31.2053,0.832302,-1.44463
383.5,31.2533,0.832879,-1.44598
384,31.3041,0.835315,-1.44595
384.5,31.352,0.833156,-1.44729
385,31.4009,0.841807,-1.44727
385.5,31.45,0.837661,-1.44851
386,31.4966,0.844629,-1.44858
386.5,31.547,0.84535,-1.44986
387,31.5961,0.843173,-1.44991
387.5,31.6427,0.84566,-1.45169
388,31.6942,0.852027,-1.45213
388.5,31.7434,0.845038,-1.45319
389,31.7915,0.849211,-1.4551
389.5,31.8398,0.85085,-1.45519
390,31.8894,0.849971,-1.45711
390.5,31.9374,0.851255,-1.45905
391,31.9865,0.855798,-1.46065
391.5,32.0356,0.857175,-1.46317
392,32.0856,0.857928,-1.46329
392.5,32.1332,0.862594,-1.46198
393,32.1812,0.861687,-1.46253
393.5,32.2293,0.867757,-1.4633
394,32.2793,0.863342,-1.46197
394.5,32.3288,0.876286,-1.46196
395,32.3764,0.86628,-1.462
395.5,32.4261,0.870355,-1.4606
396,32.4741,0.871027,-1.46197
396.5,32.5238,0.875135,-1.46256
397,32.571,0.875161,-1.46461
397.5,32.6204,0.879167,-1.46521
398,32.6701,0.88658,-1.46593
398.5,32.7181,0.887991,-1.46725
399,32.7674,0.887366,-1.46862
399.5,32.8164,0.885743,-1.46856
400,32.8652,0.882206,-1.46989
400.5,32.9139,0.893054,-1.47051
401,32.962,0.885891,-1.4712
401.5,33.0127,0.891745,-1.47121
402,33.0592,0.891381,-1.47252
402.5,33.1094,0.893465,-1.47252
403,33.1591,0.891583,-1.47252
403.5,33.2073,0.887107,-1.47266
404,33.2562,0.894178,-1.4735
404.5,33.3042,0.901821,-1.4748
405,33.3548,0.904851,-1.4755
405.5,33.4027,0.898523,-1.47614
406,33.4526,0.900477,-1.47777
406.5,33.5013,0.908535,-1.47911
407,33.5503,0.908561,-1.47906
407.5,33.5981,0.910853,-1.48042
408,33.6483,0.911031,-1.48163
408.5,33.6968,0.90639,-1.48174
409,33.7457,0.914091,-1.48173
409.5,33.795,0.92099,-1.48306
410,33.8429,0.932387,-1.48305
410.5,33.8921,0.933758,-1.48439
411,33.9413,0.937767,-1.48437
411.5,33.9906,0.939877,-1.48437
412,34.0391,0.941389,-1.48534
412.5,34.0891,0.942654,-1.48667
413,34.1369,0.943699,-1.48537
413.5,34.1865,0.945099,-1.48538
414,34.2353,0.949674,-1.48667
414.5,34.2844,0.946481,-1.48798
415,34.3339,0.95028,-1.48877
415.5,34.3827,0.949473,-1.48758
416,34.4324,0.956601,-1.48731
416.5,34.4807,0.960969,-1.48668
417,34.5296,0.95639,-1.4872
417.5,34.5788,0.958173,-1.48733
418,34.6278,0.961146,-1.48742
418.5,34.6764,0.959938,-1.48865
419,34.7256,0.962911,-1.49144
419.5,34.775,0.965388,-1.49117
420,34.8231,0.977236,-1.49277
420.5,34.872,0.977862,-1.49522
421,34.9211,0.976948,-1.49667
421.5,34.9706,0.975991,-1.49784
422,35.0192,0.979462,-1.5
422.5,35.0673,0.979155,-1.50055
423,35.1175,0.982733,-1.50199
423.5,35.1643,0.986809,-1.50249
424,35.2156,0.979717,-1.50173
424.5,35.2648,0.987814,-1.50182
425,35.3125,0.989535,-1.50299
425.5,35.3622,0.994534,-1.50238
426,35.4119,0.993399,-1.50183
426.5,35.4605,0.999411,-1.50183
427,35.5091,1.00331,-1.50458
427.5,35.5579,1.00438,-1.50465
428,35.6078,1.00254,-1.506
428.5,35.6579,1.0108,-1.50728
429,35.7062,1.01398,-1.50731
429.5,35.7559,1.01573,-1.50865
430,35.8051,1.0112,-1.50996
430.5,35.8547,1.0117,-1.51126
431,35.9038,1.00984,-1.514
431.5,35.9527,1.02016,-1.5139
432,36.0021,1.01922,-1.51472
432.5,36.0511,1.02219,-1.51752
433,36.0999,1.01396,-1.51785
433.5,36.1499,1.01696,-1.51809
434,36.1988,1.01522,-1.51917
434.5,36.2483,1.01403,-1.52047
435,36.298,1.01788,-1.52062
435.5,36.346,1.02029,-1.52177
436,36.3958,1.01402,-1.5202
436.5,36.4452,1.02042,-1.52034
437,36.4935,1.02187,-1.51969
437.5,36.5427,1.02183,-1.51996
438,36.5899,1.02161,-1.52126
438.5,36.6408,1.02741,-1.52353
439,36.6914,1.02041,-1.52391
439.5,36.7401,1.02516,-1.52517
440,36.789,1.01176,-1.52653
440.5,36.8379,1.01718,-1.52792
441,36.8872,1.00915,-1.52898
441.5,36.9361,1.00956,-1.53012
442,36.9849,1.00924,-1.53051
442.5,37.0349,1.00694,-1.53179
443,37.0843,1.00623,-1.53314
443.5,37.1339,1.00441,-1.53439
444,37.183,1.00433,-1.5331
444.5,37.2316,1.008,-1.53181
445,37.2805,1.00126,-1.53241
445.5,37.3301,0.999842,-1.53311
446,37.3774,1.00001,-1.53443
446.5,37.4276,1.00351,-1.53578
447,37.477,0.993009,-1.53833
447.5,37.5269,0.997726,-1.53948
448,37.5759,0.99499,-1.54041
448.5,37.6256,0.99098,-1.54238
449,37.6749,0.992642,-1.54365
449.5,37.7241,0.996513,-1.54365
450,37.771,0.985703,-1.54364
450.5,37.8224,0.982558,-1.54234
451,37.8724,0.983957,-1.54366
451.5,37.9187,0.983762,-1.54365
452,37.9686,0.987562,-1.54478
452.5,38.02,0.982779,-1.54585
453,38.0695,0.982725,-1.54729
453.5,38.1179,0.978207,-1.54766
454,38.1677,0.970778,-1.54896
454.5,38.2173,0.981103,-1.55117
455,38.2654,0.972856,-1.55271
455.5,38.316,0.966427,-1.55402
456,38.3639,0.97041,-1.55551
456.5,38.4142,0.963541,-1.55693
457,38.4641,0.963075,-1.55827
457.5,38.5131,0.962665,-1.55684
458,38.561,0.968264,-1.55815
458.5,38.6115,0.967541,-1.55806
459,38.6611,0.968283,-1.55814
459.5,38.7105,0.966438,-1.55874
460,38.7589,0.965122,-1.55894
460.5,38.8084,0.955273,-1.56002
461,38.8579,0.959669,-1.56222
461.5,38.9066,0.958369,-1.56484
462,38.9564,0.961294,-1.56548
462.5,39.0061,0.960179,-1.56525
463,39.0553,0.961336,-1.56486
463.5,39.1041,0.960064,-1.56614
464,39.1538,0.959205,-1.56886
464.5,39.2029,0.9679,-1.57019
465,39.2531,0.968474,-1.57033
465.5,39.3022,0.961101,-1.57285
466,39.3517,0.965206,-1.57419
466.5,39.4003,0.966985,-1.57549
467,39.4506,0.968782,-1.57547
467.5,39.4997,0.966415,-1.57899
468,39.5497,0.968963,-1.57967
468.5,39.5977,0.959081,-1.58075
469,39.6483,0.970619,-1.5822
469.5,39.6976,0.964757,-1.58116
470,39.7465,0.963819,-1.58219
470.5,39.797,0.96779,-1.58211
471,39.8462,0.960657,-1.58259
471.5,39.8956,0.964626,-1.58429
472,39.945,0.964388,-1.58605
472.5,39.9938,0.967058,-1.58753
473,40.0438,0.96832,-1.58884
473.5,40.0938,0.964732,-1.58765
474,40.1431,0.963903,-1.59025
474.5,40.1916,0.973656,-1.59204
475,40.2412,0.97568,-1.59382
475.5,40.2909,0.973153,-1.59545
476,40.3407,0.981116,-1.598
476.5,40.3892,0.97859,-1.59795
477,40.4398,0.97011,-1.598
477.5,40.4896,0.979195,-1.59943
478,40.5391,0.981301,-1.60008
478.5,40.5885,0.988334,-1.6008
479,40.6376,0.990661,-1.60127
479.5,40.6875,0.988979,-1.60365
480,40.7373,0.985225,-1.60542
480.5,40.786,0.991094,-1.60604
481,40.8366,0.987076,-1.60706
481.5,40.8855,0.99534,-1.60861
482,40.9349,0.995845,-1.61
482.5,40.9841,0.993421,-1.61128
483,41.0339,0.99643,-1.61391
483.5,41.0826,1.00135,-1.61614
484,41.1336,0.998502,-1.61949
484.5,41.1832,0.998945,-1.62087
485,41.2333,0.995335,-1.62211
485.5,41.2837,0.994757,-1.62637
486,41.3331,0.991647,-1.62941
486.5,41.3813,0.991591,-1.63215
487,41.4317,0.992682,-1.63284
487.5,41.4815,0.985679,-1.63366
488,41.5317,0.983201,-1.63496
488.5,41.5805,0.986688,-1.63378
489,41.6291,0.982026,-1.63321
489.5,41.68,0.980472,-1.63321
490,41.7292,0.980767,-1.63271
490.5,41.779,0.978007,-1.63484
491,41.8263,0.973211,-1.63737
491.5,41.8774,0.964947,-1.64168
492,41.9266,0.961532,-1.64454
492.5,41.9771,0.958178,-1.64857
493,42.0267,0.957739,-1.65133
493.5,42.077,0.948544,-1.65459
494,42.1258,0.948618,-1.65767
494.5,42.1755,0.94629,-1.65908
495,42.2248,0.941697,-1.66078
495.5,42.2744,0.935682,-1.66205
496,42.3235,0.937625,-1.6654
496.5,42.3735,0.938924,-1.66693
497,42.4235,0.937961,-1.67
497.5,42.4704,0.9337,-1.67174
498,42.5217,0.933972,-1.67329
498.5,42.5714,0.938084,-1.67509
499,42.6213,0.935888,-1.67772
499.5,42.6704,0.928028,-1.67975
500,42.7194,0.925601,-1.68291
500.5,42.7705,0.916578,-1.68516
501,42.819,0.915714,-1.68608
501.5,42.8689,0.922562,-1.68901
502,42.919,0.920765,-1.6908
502.5,42.9685,0.922586,-1.69244
503,43.0182,0.919342,-1.69527
503.5,43.0686,0.918782,-1.69765
504,43.1179,0.914911,-1.70004
504.5,43.1679,0.91734,-1.70239
505,43.2179,0.92459,-1.70539
505.5,43.2675,0.920884,-1.7085
506,43.3175,0.921046,-1.71075
506.5,43.3668,0.920827,-1.71351
507,43.4161,0.919219,-1.71601
507.5,43.4669,0.920376,-1.71926
508,43.5174,0.920976,-1.72129
508.5,43.5666,0.917036,-1.72445
509,43.6158,0.919132,-1.72804
509.5,43.6665,0.919122,-1.73077
510,43.7161,0.922115,-1.73372
510.5,43.7666,0.912721,-1.7371
511,43.8177,0.912977,-1.74001
511.5,43.8662,0.922678,-1.74204
512,43.9164,0.918026,-1.74528
512.5,43.9657,0.917543,-1.7489
513,44.0155,0.908506,-1.75194
513.5,44.0658,0.922225,-1.75356
514,44.1154,0.912878,-1.7562
514.5,44.165,0.916571,-1.75695
515,44.2156,0.914606,-1.76079
515.5,44.2646,0.919431,-1.76414
516,44.3152,0.911143,-1.76777
516.5,44.364,0.917724,-1.77207
517,44.4141,0.921041,-1.77535
517.5,44.4646,0.9242,-1.77995
518,44.5123,0.92697,-1.78246
518.5,44.5641,0.931623,-1.78544
519,44.6135,0.933222,-1.78756
519.5,44.6642,0.930486,-1.79003
520,44.7136,0.927299,-1.79138
520.5,44.7631,0.922478,-1.79469
521,44.8135,0.927578,-1.79771
521.5,44.8626,0.924779,-1.80115
522,44.9133,0.927742,-1.80392
522.5,44.9624,0.923454,-1.80748
523,45.0121,0.927378,-1.81069
523.5,45.0626,0.936166,-1.81147
524,45.1121,0.923002,-1.81634
524.5,45.1619,0.922534,-1.82003
525,45.2118,0.918264,-1.8263
525.5,45.2613,0.916816,-1.82976
526,45.3115,0.919635,-1.83263
526.5,45.3599,0.912554,-1.83475
527,45.4108,0.916972,-1.83719
527.5,45.4615,0.916089,-1.83935
528,45.5105,0.914899,-1.84008
528.5,45.5607,0.915477,-1.84136
529,45.6114,0.9197,-1.84207
529.5,45.6607,0.918569,-1.84683
530,45.7103,0.911682,-1.85012
530.5,45.7608,0.914709,-1.85376
531,45.8108,0.915234,-1.85892
531.5,45.8606,0.916414,-1.86384
532,45.911,0.907135,-1.86624
532.5,45.9607,0.907632,-1.8689
533,46.0109,0.907712,-1.87256
533.5,46.0608,0.898506,-1.87628
534,46.1117,0.900603,-1.87961
534.5,46.1608,0.897294,-1.88256
535,46.2109,0.901082,-1.88562
535.5,46.2611,0.899428,-1.88717
536,46.3115,0.888019,-1.89046
536.5,46.3608,0.89488,-1.89489
537,46.4102,0.89501,-1.89842
537.5,46.4613,0.893312,-1.9032
538,46.511,0.891658,-1.90669
538.5,46.5608,0.893091,-1.9101
539,46.6094,0.886654,-1.91162
539.5,46.6592,0.87935,-1.91304
540,46.7117,0.881792,-1.91826
540.5,46.7612,0.885238,-1.92355
541,46.8101,0.870665,-1.92578
541.5,46.8591,0.877305,-1.92453
542,46.9099,0.87952,-1.92588
542.5,46.9621,0.87708,-1.9278
543,47.0108,0.8716,-1.93396
543.5,47.061,0.868157,-1.93911
544,47.1105,0.860083,-1.94322
544.5,47.1598,0.86162,-1.94496
545,47.2101,0.85512,-1.9472
545.5,47.2609,0.85639,-1.95051
546,47.3104,0.859828,-1.95131
546.5,47.3599,0.861684,-1.95142
547,47.4104,0.858762,-1.95501
547.5,47.461,0.860731,-1.95919
548,47.5109,0.850836,-1.96073
548.5,47.5611,0.859817,-1.9651
549,47.6101,0.856953,-1.96907
549.5,47.6608,0.859107,-1.97146
550,47.7111,0.857521,-1.97406
550.5,47.7618,0.854021,-1.97456
551,47.8105,0.850035,-1.9779
551.5,47.8608,0.846436,-1.98237
552,47.9108,0.840262,-1.98618
552.5,47.9604,0.840762,-1.99055
553,48.0114,0.844626,-1.99393
553.5,48.061,0.833941,-1.9975
554,48.1104,0.835222,-1.99996
554.5,48.1611,0.833918,-2.00376
555,48.2112,0.833769,-2.00542
555.5,48.2614,0.828557,-2.00816
556,48.3085,0.82441,-2.01109
556.5,48.3599,0.819301,-2.01611
557,48.4101,0.821877,-2.01971
557.5,48.46,0.82169,-2.02209
558,48.5098,0.817015,-2.02491
558.5,48.5602,0.817297,-2.0281
559,48.6104,0.820542,-2.03027
559.5,48.6607,0.823246,-2.03194
560,48.7106,0.816367,-2.03374
560.5,48.7611,0.811095,-2.03658
561,48.8101,0.814197,-2.0399
561.5,48.8609,0.81673,-2.04327
562,48.9113,0.817498,-2.04759
562.5,48.9593,0.812166,-2.05238
563,49.0113,0.8087,-2.05549
563.5,49.061,0.815047,-2.05657
564,49.1127,0.810266,-2.05964
564.5,49.1623,0.809787,-2.06249
565,49.2119,0.810476,-2.06599
565.5,49.2603,0.800437,-2.06776
566,49.3124,0.803628,-2.06967
566.5,49.3623,0.798456,-2.07412
567,49.4121,0.801139,-2.0784
567.5,49.4629,0.792502,-2.08071
568,49.513,0.802015,-2.08389
568.5,49.5627,0.80098,-2.08507
569,49.6134,0.806329,-2.08671
569.5,49.6628,0.797216,-2.08964
570,49.7129,0.798266,-2.09269
570.5,49.7641,0.798091,-2.0951
571,49.814,0.797637,-2.09906
571.5,49.8637,0.788407,-2.10223
572,49.9138,0.79163,-2.10411
572.5,49.9641,0.799446,-2.10782
573,50.0131,0.790416,-2.11179
573.5,50.0642,0.785282,-2.11393
574,50.1141,0.7834,-2.11531
574.5,50.1649,0.780494,-2.11841
575,50.2148,0.781843,-2.12251
575.5,50.2648,0.787465,-2.12282
576,50.3133,0.785506,-2.12523
576.5,50.3642,0.783039,-2.12989
577,50.4144,0.776607,-2.13334
577.5,50.4645,0.780803,-2.13599
578,50.5147,0.778895,-2.13848
578.5,50.5648,0.782777,-2.1414
579,50.6158,0.787142,-2.14282
579.5,50.6652,0.780054,-2.14661
580,50.7155,0.778391,-2.14819
580.5,50.7648,0.775372,-2.15155
581,50.8156,0.777707,-2.15373
581.5,50.8664,0.771612,-2.15707
582,50.9155,0.770518,-2.1598
582.5,50.9668,0.768598,-2.16339
583,51.0171,0.773459,-2.16528
583.5,51.0671,0.771084,-2.16789
584,51.1172,0.770824,-2.16923
584.5,51.1684,0.775987,-2.17206
585,51.2174,0.776857,-2.17457
585.5,51.268,0.76954,-2.17696
586,51.3183,0.773707,-2.17928
586.5,51.3684,0.765774,-2.18176
587,51.4175,0.769513,-2.18339
587.5,51.4681,0.763413,-2.18564
588,51.5179,0.768287,-2.18866
588.5,51.5689,0.767529,-2.19224
589,51.6169,0.762854,-2.19398
589.5,51.6686,0.765198,-2.19544
590,51.718,0.755017,-2.1975
590.5,51.7692,0.76299,-2.20088
591,51.8208,0.760676,-2.20475
591.5,51.8697,0.759825,-2.20786
592,51.9204,0.768081,-2.20792
592.5,51.9701,0.760691,-2.21027
593,52.0201,0.759222,-2.21219
593.5,52.0711,0.756016,-2.21675
594,52.1205,0.758253,-2.21877
594.5,52.1709,0.762268,-2.22088
595,52.2207,0.759158,-2.22437
595.5,52.2707,0.755135,-2.22681
596,52.3217,0.765461,-2.22755
596.5,52.371,0.767233,-2.23013
597,52.4221,0.764663,-2.23221
597.5,52.4733,0.761065,-2.2337
598,52.5235,0.766843,-2.2354
598.5,52.5742,0.768191,-2.23738
599,52.6244,0.767241,-2.24017
599.5,52.675,0.774051,-2.24164
600,52.725,0.766483,-2.24168
600.5,52.7756,0.775543,-2.24335
601,52.8237,0.764524,-2.24601
601.5,52.8755,0.767518,-2.24896
602,52.9262,0.76128,-2.25008
602.5,52.9772,0.763824,-2.2534
603,53.0257,0.766111,-2.25451
603.5,53.0782,0.768754,-2.25852
604,53.1271,0.769709,-2.25938
604.5,53.1787,0.7694,-2.26173
605,53.2287,0.770162,-2.26448
605.5,53.2786,0.774749,-2.26626
606,53.3296,0.774301,-2.26808
606.5,53.3808,0.770851,-2.27194
607,53.4287,0.768213,-2.27462
607.5,53.4816,0.765289,-2.27485
608,53.5305,0.766784,-2.27674
608.5,53.5816,0.760476,-2.27919
609,53.6314,0.763655,-2.2792
609.5,53.6818,0.760897,-2.28186
610,53.7318,0.76741,-2.2841
610.5,53.7822,0.763726,-2.28585
611,53.8329,0.757868,-2.28644
611.5,53.884,0.76147,-2.28905
612,53.9343,0.758009,-2.29067
612.5,53.9843,0.757433,-2.29347
613,54.0357,0.765833,-2.29482
613.5,54.0861,0.761429,-2.29633
614,54.1358,0.758874,-2.29766
614.5,54.1875,0.760057,-2.29826
615,54.2369,0.75954,-2.30075
615.5,54.2871,0.756376,-2.30081
616,54.3373,0.756433,-2.30366
616.5,54.3877,0.753528,-2.30523
617,54.4398,0.75224,-2.3075
617.5,54.4893,0.752354,-2.30953
618,54.5394,0.752753,-2.31143
618.5,54.5903,0.74992,-2.3125
619,54.6389,0.749449,-2.31445
619.5,54.6912,0.744429,-2.31588
620,54.7409,0.747312,-2.31719
620.5,54.7922,0.743309,-2.31859
621,54.8399,0.74815,-2.31866
621.5,54.8915,0.747967,-2.3203
622,54.9418,0.747331,-2.3227
622.5,54.9919,0.741409,-2.32267
623,55.0425,0.744909,-2.324
623.5,55.0932,0.752035,-2.32531
624,55.143,0.748901,-2.32669
624.5,55.193,0.746488,-2.32613
625,55.2444,0.74408,-2.32677
625.5,55.2932,0.746813,-2.32796
626,55.3447,0.73891,-2.32855
626.5,55.3949,0.740666,-2.3304
627,55.4448,0.738411,-2.33133
627.5,55.495,0.742139,-2.33234
628,55.5453,0.739855,-2.33362
628.5,55.5951,0.737566,-2.33493
629,55.6455,0.732755,-2.33667
629.5,55.6956,0.741659,-2.33766
630,55.7454,0.73396,-2.33895
630.5,55.796,0.735239,-2.34002
631,55.8464,0.730892,-2.34172
631.5,55.8967,0.733335,-2.34275
632,55.9468,0.727917,-2.34329
632.5,55.9954,0.728188,-2.34562
633,56.0459,0.730562,-2.34812
633.5,56.0968,0.727847,-2.34953
634,56.1477,0.726643,-2.35088
634.5,56.1977,0.719551,-2.35221
635,56.2466,0.720293,-2.35221
635.5,56.2983,0.719804,-2.35357
636,56.3479,0.717636,-2.35352
636.5,56.3992,0.71627,-2.35484
637,56.4498,0.717255,-2.35485
637.5,56.5002,0.712647,-2.35584
638,56.5478,0.715059,-2.35714
638.5,56.6001,0.706287,-2.35773
639,56.6507,0.704551,-2.35846
639.5,56.6999,0.71448,-2.35975
640,56.7514,0.711027,-2.3611
640.5,56.8011,0.715828,-2.36242
641,56.8512,0.712791,-2.36242
641.5,56.9014,0.711017,-2.36373
642,56.9526,0.71178,-2.36552
642.5,57.0016,0.717607,-2.3678
643,57.0534,0.717962,-2.36909
643.5,57.1032,0.713881,-2.37044
644,57.1531,0.721438,-2.37277
644.5,57.2033,0.721895,-2.37406
645,57.2544,0.722162,-2.37523
645.5,57.3051,0.728851,-2.37405
646,57.356,0.724438,-2.37526
646.5,57.406,0.725132,-2.37413
647,57.4559,0.727015,-2.37537
647.5,57.5068,0.727964,-2.37551
648,57.5571,0.72862,-2.37528
648.5,57.6085,0.733738,-2.37661
649,57.6583,0.73531,-2.37796
649.5,57.709,0.723453,-2.37933
650,57.7591,0.729094,-2.37811
650.5,57.8106,0.725924,-2.37801
651,57.8612,0.730163,-2.37944
651.5,57.9117,0.725028,-2.38207
652,57.9621,0.722582,-2.38203
652.5,58.0114,0.725292,-2.3834
653,58.0628,0.725679,-2.38338
653.5,58.1117,0.72658,-2.38469
654,58.1643,0.724781,-2.38603
654.5,58.2143,0.72676,-2.38744
655,58.2645,0.719962,-2.38826
655.5,58.3155,0.717216,-2.38905
656,58.3656,0.711239,-2.38868
656.5,58.4165,0.716822,-2.38998
657,58.4669,0.717337,-2.39108
657.5,58.5179,0.714716,-2.39129
658,58.5685,0.716318,-2.39265
658.5,58.618,0.71647,-2.39261
659,58.6681,0.713742,-2.39396
659.5,58.718,0.706971,-2.39529
660,58.7688,0.70998,-2.39655
660.5,58.8197,0.706462,-2.39783
661,58.8697,0.702111,-2.39788
661.5,58.9207,0.702493,-2.39788
662,58.9702,0.697491,-2.39917
662.5,59.0211,0.690256,-2.3992
663,59.0718,0.694589,-2.40057
663.5,59.12,0.695053,-2.40142
664,59.173,0.692869,-2.40248
664.5,59.2231,0.691233,-2.403
665,59.2727,0.689072,-2.40248
665.5,59.3244,0.688053,-2.40118
666,59.3747,0.690184,-2.40122
666.5,59.4255,0.684465,-2.4024
667,59.4747,0.688464,-2.40368
667.5,59.5257,0.682125,-2.40379
668,59.5737,0.696138,-2.40512
668.5,59.6273,0.691734,-2.40608
669,59.6763,0.678367,-2.40644
669.5,59.7276,0.678778,-2.40644
670,59.7775,0.679722,-2.40644
670.5,59.8282,0.677366,-2.40554
671,59.8781,0.669948,-2.40642
671.5,59.9293,0.671946,-2.40775
672,59.9792,0.6716,-2.40907
672.5,60.0304,0.668968,-2.40932
673,60.0794,0.667065,-2.4107
673.5,60.1301,0.671015,-2.41304
674,60.182,0.66485,-2.41301
674.5,60.2323,0.666428,-2.41434
675,60.2825,0.651744,-2.41363
675.5,60.3333,0.648745,-2.41434
676,60.3843,0.638651,-2.41434
676.5,60.4349,0.648822,-2.41572
677,60.4853,0.64716,-2.41707
677.5,60.5356,0.632506,-2.41697
678,60.5857,0.633502,-2.41703
678.5,60.6375,0.638593,-2.41962
679,60.6879,0.634411,-2.41957
679.5,60.7369,0.625941,-2.41958
680,60.7883,0.631446,-2.42096
680.5,60.8378,0.632918,-2.41964
681,60.8883,0.627609,-2.42086
681.5,60.9401,0.627582,-2.42224
682,60.9906,0.615697,-2.42224
682.5,61.0424,0.611713,-2.42487
683,61.0926,0.607933,-2.4262
683.5,61.1429,0.600602,-2.4262
684,61.1937,0.612767,-2.42758
684.5,61.2456,0.600663,-2.42655
685,61.295,0.602054,-2.42755
685.5,61.3453,0.599867,-2.42751
686,61.3959,0.596261,-2.42751
686.5,61.4467,0.595958,-2.42781
687,61.4973,0.588614,-2.42985
687.5,61.5481,0.584599,-2.42982
688,61.5986,0.585608,-2.43118
688.5,61.6489,0.582152,-2.42979
689,61.6993,0.567804,-2.43115
689.5,61.7494,0.570307,-2.43245
690,61.8008,0.56042,-2.43247
690.5,61.8508,0.554299,-2.43376
691,61.9005,0.552949,-2.43471
691.5,61.9519,0.548011,-2.43508
692,62.003,0.553116,-2.43511
692.5,62.0527,0.542976,-2.4339
693,62.1031,0.548462,-2.4351
693.5,62.1544,0.536601,-2.4351
694,62.2046,0.530613,-2.43371
694.5,62.2548,0.535599,-2.43509
695,62.3054,0.533207,-2.43496
695.5,62.3558,0.531614,-2.43773
696,62.4068,0.523435,-2.43773
696.5,62.4581,0.522601,-2.43815
697,62.5082,0.52009,-2.43905
697.5,62.5583,0.513342,-2.43904
698,62.609,0.508733,-2.44037
698.5,62.6599,0.511514,-2.44168
699,62.7086,0.510148,-2.44168
699.5,62.7613,0.504273,-2.443
700,62.8114,0.502694,-2.443
700.5,62.8621,0.498345,-2.44298
701,62.9123,0.495776,-2.44302
701.5,62.9632,0.488226,-2.44168
702,63.0139,0.482288,-2.44288
702.5,63.0641,0.483479,-2.44431
703,63.1152,0.48029,-2.44562
703.5,63.1656,0.478146,-2.44585
704,63.2134,0.478927,-2.44694
704.5,63.2664,0.473275,-2.44694
705,63.3171,0.462864,-2.44695
705.5,63.3675,0.466248,-2.44823
706,63.4184,0.459388,-2.44694
706.5,63.4683,0.453088,-2.44699
707,63.5194,0.45394,-2.44647
707.5,63.5685,0.443924,-2.44767
708,63.6203,0.438387,-2.4499
708.5,63.6691,0.435859,-2.45073
709,63.7218,0.43499,-2.45075
709.5,63.7712,0.434679,-2.44992
710,63.823,0.425184,-2.44992
710.5,63.8741,0.420963,-2.45075
711,63.9245,0.419939,-2.45255
711.5,63.9756,0.415517,-2.45256
712,64.026,0.408996,-2.45386
712.5,64.0757,0.407169,-2.45428
713,64.1274,0.40468,-2.45518
713.5,64.1776,0.398898,-2.45518
714,64.2295,0.392157,-2.45601
714.5,64.28,0.395983,-2.4565
715,64.33,0.386537,-2.45654
715.5,64.3808,0.38478,-2.4564
716,64.4295,0.378818,-2.4564
716.5,64.4821,0.372389,-2.45771
717,64.5311,0.365806,-2.4575
717.5,64.5838,0.360198,-2.45804
718,64.6344,0.354194,-2.45804
718.5,64.6832,0.354945,-2.45839
719,64.7344,0.343007,-2.45771
719.5,64.7873,0.343896,-2.45781
720,64.838,0.335108,-2.45903
720.5,64.8896,0.330929,-2.459
721,64.9408,0.327489,-2.46035
721.5,64.9914,0.322739,-2.45923
722,65.0426,0.322498,-2.4595
722.5,65.093,0.312886,-2.46034
723,65.143,0.312633,-2.46034
723.5,65.1942,0.312227,-2.46035
724,65.2451,0.310803,-2.46165
724.5,65.2969,0.308889,-2.46259
725,65.3475,0.300383,-2.46298
725.5,65.3983,0.296514,-2.46407
726,65.4488,0.294698,-2.4643
726.5,65.5002,0.282207,-2.46557
727,65.5501,0.286439,-2.46698
727.5,65.6032,0.278753,-2.46704
728,65.6531,0.272587,-2.46704
728.5,65.7038,0.271218,-2.46704
729,65.7554,0.262466,-2.46832
729.5,65.8055,0.268872,-2.46836
730,65.8573,0.260638,-2.46835
730.5,65.9072,0.259623,-2.46835
731,65.959,0.2604,-2.46961
731.5,66.0089,0.243805,-2.46851
732,66.06,0.244851,-2.46836
732.5,66.111,0.244372,-2.46965
733,66.1625,0.235681,-2.47012
733.5,66.2125,0.231369,-2.47099
734,66.2634,0.232571,-2.47099
734.5,66.3144,0.230285,-2.46971
735,66.3652,0.221457,-2.471
735.5,66.416,0.218072,-2.471
736,66.4672,0.215658,-2.471
736.5,66.5181,0.210398,-2.47098
737,66.5688,0.213004,-2.47231
737.5,66.62,0.212523,-2.47226
738,66.6703,0.208115,-2.47362
738.5,66.7216,0.195938,-2.4725
739,66.7729,0.1879,-2.47363
739.5,66.8234,0.186544,-2.47235
740,66.8735,0.187451,-2.47362
740.5,66.9252,0.176287,-2.47576
741,66.9762,0.168035,-2.47732
741.5,67.0265,0.165763,-2.47758
742,67.0781,0.155285,-2.47758
742.5,67.1286,0.161336,-2.47758
743,67.1799,0.155774,-2.47756
743.5,67.2303,0.147797,-2.47758
744,67.2816,0.139793,-2.47758
744.5,67.3323,0.143424,-2.47763
745,67.3837,0.145487,-2.4789
745.5,67.4331,0.1395,-2.47933
746,67.4837,0.135042,-2.48162
746.5,67.5357,0.130801,-2.48297
747,67.5871,0.122117,-2.48164
747.5,67.6385,0.120722,-2.48052
748,67.6887,0.11589,-2.48165
748.5,67.7398,0.117094,-2.48164
749,67.7915,0.11734,-2.48201
749.5,67.8421,0.110926,-2.48294
750,67.8933,0.112049,-2.48149
750.5,67.9441,0.111166,-2.48011
751,67.9949,0.112419,-2.48011
751.5,68.046,0.099679,-2.48283
752,68.0964,0.09428,-2.48273
752.5,68.1463,0.0946477,-2.48408
753,68.197,0.0886724,-2.48535
753.5,68.2488,0.0854417,-2.48669
754,68.3004,0.0890635,-2.48801
754.5,68.3519,0.080965,-2.48801
755,68.4022,0.0849799,-2.48672
755.5,68.4528,0.0790138,-2.48536
756,68.5041,0.0774181,-2.48409
756.5,68.5553,0.0701412,-2.48406
757,68.6063,0.0716804,-2.48437
757.5,68.657,0.0681152,-2.48672
758,68.708,0.0702149,-2.48801
758.5,68.759,0.0657912,-2.48802
759,68.8103,0.0680848,-2.48846
759.5,68.8614,0.0629271,-2.48803
760,68.9127,0.0750213,-2.48932
760.5,68.9638,0.0657372,-2.48935
761,69.0152,0.0573821,-2.49072
761.5,69.0656,0.0602682,-2.49196
762,69.117,0.0576892,-2.4912
762.5,69.169,0.0602973,-2.49196
763,69.22,0.0611436,-2.49198
763.5,69.2714,0.0512695,-2.49327
764,69.322,0.0560337,-2.49327
764.5,69.3732,0.0548477,-2.49329
765,69.4249,0.0604499,-2.49459
765.5,69.4762,0.0539208,-2.49459
766,69.5274,0.051815,-2.49459
766.5,69.5791,0.0563283,-2.49375
767,69.6301,0.0534057,-2.4946
767.5,69.6812,0.0548723,-2.4946
768,69.7308,0.0491597,-2.49361
768.5,69.7835,0.0571655,-2.4946
769,69.8353,0.0561066,-2.4956
769.5,69.8863,0.0508385,-2.49592
770,69.9374,0.0550084,-2.49592
770.5,69.9894,0.0550057,-2.49673
771,70.0406,0.0577374,-2.49722
771.5,70.0909,0.0575669,-2.49593
772,70.1418,0.05921,-2.49723
772.5,70.1939,0.0609053,-2.49723
773,70.2447,0.0648102,-2.49643
773.5,70.296,0.0605412,-2.49591
774,70.3473,0.0593213,-2.49591
774.5,70.3993,0.0638213,-2.49725
775,70.4493,0.0632248,-2.49722
775.5,70.501,0.0658921,-2.49657
776,70.5514,0.069718,-2.49657
776.5,70.6032,0.0622636,-2.49657
777,70.6547,0.0660821,-2.49775
777.5,70.7053,0.0680364,-2.49921
778,70.7561,0.0765749,-2.49921
778.5,70.8075,0.0729032,-2.49915
779,70.8573,0.0748234,-2.50052
779.5,70.9101,0.0845808,-2.5018
780,70.9609,0.080855,-2.50184
780.5,71.0117,0.0862791,-2.50113
781,71.0632,0.0893644,-2.50052
781.5,71.1146,0.0899495,-2.50147
782,71.1647,0.0936849,-2.50184
782.5,71.2168,0.103513,-2.50184
783,71.2686,0.105599,-2.50257
783.5,71.3183,0.104128,-2.50316
784,71.3695,0.109921,-2.5022
784.5,71.4219,0.115019,-2.50185
785,71.472,0.113973,-2.50315
785.5,71.524,0.117123,-2.50184
786,71.5754,0.127268,-2.50316
786.5,71.6263,0.127903,-2.50316
787,71.6785,0.125414,-2.5018
787.5,71.7298,0.136926,-2.50184
788,71.7814,0.134644,-2.50044
788.5,71.833,0.140395,-2.50052
789,71.8837,0.144794,-2.50086
789.5,71.9354,0.145704,-2.50119
790,71.9868,0.152342,-2.50184