File: 01_Data/Protective_Hood/STA/N2/10K_min/Protective_Hood_STA_N2_10KData_240320_R2.csv
Temp./C,Time/min,DSC/(mW/mg),Mass loss/mg
60.0,0.0,0.782027,-0.0310835
60.5,0.0545789,0.799719,-0.0322152
61,0.115743,0.813778,-0.0310608
61.5,0.17158,0.812198,-0.031061
62,0.227548,0.83466,-0.031031
62.5,0.281663,0.848015,-0.0326065
63,0.338307,0.865724,-0.0322736
63.5,0.39277,0.866299,-0.0324875
64,0.447418,0.877723,-0.0324809
64.5,0.500312,0.882449,-0.0326074
65,0.555747,0.893084,-0.0320733
65.5,0.608229,0.898303,-0.0312058
66,0.661326,0.9004,-0.0311588
66.5,0.717629,0.911386,-0.0324827
67,0.769942,0.916961,-0.0317215
67.5,0.824363,0.9356,-0.0324822
68,0.875685,0.941522,-0.0318285
68.5,0.929517,0.948734,-0.0331341
69,0.98349,0.949171,-0.035792
69.5,1.03496,0.961055,-0.0357891
70,1.08857,0.966562,-0.0367543
70.5,1.14133,0.967595,-0.0371013
71,1.19411,0.971348,-0.0371
71.5,1.24851,0.97719,-0.0371
72,1.30136,0.986982,-0.0371
72.5,1.35241,0.99066,-0.0376432
73,1.40524,0.991239,-0.0373933
73.5,1.45665,1.00106,-0.0377726
74,1.50871,1.008,-0.0371033
74.5,1.5605,1.01229,-0.0357985
75,1.61325,1.02407,-0.0344841
75.5,1.66216,1.02185,-0.0344769
76,1.71768,1.0292,-0.034334
76.5,1.76913,1.03111,-0.0331694
77,1.82008,1.03907,-0.0344779
77.5,1.87002,1.03608,-0.03644
78,1.92384,1.04355,-0.0386329
78.5,1.97646,1.04993,-0.0394344
79,2.02694,1.05089,-0.0386821
79.5,2.07628,1.05468,-0.0373195
80,2.12767,1.06957,-0.03732
80.5,2.1786,1.06237,-0.03732
81,2.23146,1.0631,-0.0373196
81.5,2.28034,1.07495,-0.0378585
82,2.3293,1.07281,-0.0386298
82.5,2.38618,1.08198,-0.03863
83,2.43649,1.07684,-0.03863
83.5,2.48515,1.07816,-0.0386494
84,2.53767,1.07496,-0.0387363
84.5,2.58801,1.08646,-0.0399592
85,2.63834,1.07671,-0.0421788
85.5,2.688,1.08319,-0.0411487
86,2.73945,1.07955,-0.0425903
86.5,2.78965,1.08208,-0.04127
87,2.83837,1.08369,-0.0399575
87.5,2.88865,1.09192,-0.0386312
88,2.93972,1.09075,-0.0386298
88.5,2.98972,1.08602,-0.0389134
89,3.03849,1.08605,-0.0402833
89.5,3.08989,1.08728,-0.0413917
90,3.13992,1.08595,-0.0423692
90.5,3.18783,1.08276,-0.0410436
91,3.24012,1.09067,-0.0419095
91.5,3.28944,1.08409,-0.0423705
92,3.33766,1.08639,-0.0424066
92.5,3.38641,1.08317,-0.0410347
93,3.43696,1.07936,-0.0417431
93.5,3.48547,1.08221,-0.0426901
94,3.53601,1.07738,-0.0426882
94.5,3.58446,1.07025,-0.0426422
95,3.6328,1.07231,-0.0427193
95.5,3.6832,1.0756,-0.0440202
96,3.73107,1.0749,-0.0434268
96.5,3.78038,1.07387,-0.0417799
97,3.82995,1.06584,-0.0405193
97.5,3.8788,1.07592,-0.0400595
98,3.92687,1.0767,-0.0400619
98.5,3.97568,1.07013,-0.0426752
99,4.02474,1.07072,-0.0427002
99.5,4.07209,1.05592,-0.0422216
100,4.12299,1.05641,-0.0431512
100.5,4.17146,1.05347,-0.0440081
101,4.22032,1.05458,-0.0447956
101.5,4.26947,1.05628,-0.0466489
102,4.31701,1.05476,-0.046543
102.5,4.36522,1.04503,-0.0464899
103,4.41232,1.04258,-0.046648
103.5,4.46272,1.04789,-0.0453385
104,4.51111,1.04,-0.0441456
104.5,4.55954,1.04027,-0.0440088
105,4.60859,1.04577,-0.0430547
105.5,4.65685,1.03785,-0.0440769
106,4.70563,1.03374,-0.044011
106.5,4.75436,1.03814,-0.0427103
107,4.80262,1.04092,-0.0427059
107.5,4.85198,1.0327,-0.0440219
108,4.89891,1.02757,-0.0438319
108.5,4.94793,1.03774,-0.0446787
109,4.99662,1.03584,-0.0439655
109.5,5.04526,1.03694,-0.0439551
110,5.09273,1.03192,-0.0446576
110.5,5.14032,1.03617,-0.0436864
111,5.18983,1.02158,-0.04368
111.5,5.23763,1.02786,-0.04368
112,5.28693,1.02561,-0.0428757
112.5,5.33537,1.03348,-0.042379
113,5.37919,1.02732,-0.0436689
113.5,5.43166,1.0367,-0.0436808
114,5.48001,1.03679,-0.0446962
114.5,5.52682,1.03548,-0.0460265
115,5.57701,1.03055,-0.0473047
115.5,5.62562,1.03523,-0.0485911
116,5.67402,1.03911,-0.0473094
116.5,5.72307,1.0457,-0.0460068
117,5.77107,1.04609,-0.046
117.5,5.81614,1.03851,-0.046
118,5.86827,1.03716,-0.0460001
118.5,5.91506,1.04202,-0.045996
119,5.96325,1.03934,-0.0473096
119.5,6.01105,1.04353,-0.0484744
120,6.06087,1.04522,-0.0489776
120.5,6.10849,1.04544,-0.0486343
121,6.15591,1.04993,-0.0496054
121.5,6.20509,1.04591,-0.0482828
122,6.25309,1.05045,-0.0470281
122.5,6.30184,1.05826,-0.0469799
123,6.34985,1.05676,-0.0469795
123.5,6.39919,1.05921,-0.0463311
124,6.44593,1.05985,-0.0459899
124.5,6.49265,1.06819,-0.04599
125,6.54125,1.07183,-0.045991
125.5,6.58948,1.0658,-0.0445266
126,6.63847,1.07674,-0.04428
126.5,6.68896,1.07161,-0.0443672
127,6.73542,1.07142,-0.0457513
127.5,6.78464,1.07954,-0.0457754
128,6.83231,1.07083,-0.0470907
128.5,6.88156,1.07799,-0.04709
129,6.92698,1.07582,-0.047075
129.5,6.97623,1.07659,-0.0457804
130,7.02483,1.08487,-0.0444545
130.5,7.07258,1.08689,-0.0444714
131,7.12179,1.08712,-0.0454515
131.5,7.16909,1.09078,-0.0467584
132,7.21841,1.09144,-0.0467992
132.5,7.26654,1.10341,-0.0454474
133,7.31277,1.09497,-0.0455497
133.5,7.36174,1.10367,-0.0442109
134,7.40958,1.10458,-0.0454381
134.5,7.45796,1.11253,-0.0454427
135,7.50584,1.11473,-0.0440856
135.5,7.55279,1.11316,-0.0443285
136,7.60136,1.11596,-0.0447794
136.5,7.64937,1.1095,-0.04478
137,7.69761,1.12674,-0.04478
137.5,7.74493,1.1133,-0.0447924
138,7.7922,1.11292,-0.0454359
138.5,7.84135,1.12052,-0.0467669
139,7.88948,1.12384,-0.0467802
139.5,7.93766,1.11306,-0.0480768
140,7.98464,1.12899,-0.0467585
140.5,8.03196,1.11467,-0.046753
141,8.07988,1.12095,-0.047969
141.5,8.12862,1.12765,-0.0494203
142,8.17593,1.1217,-0.0493996
142.5,8.22312,1.13589,-0.0484013
143,8.27166,1.13146,-0.0484
143.5,8.31904,1.13465,-0.0484002
144,8.36622,1.13971,-0.0483625
144.5,8.41308,1.14063,-0.0480702
145,8.46108,1.1418,-0.0480726
145.5,8.50888,1.1449,-0.0474257
146,8.55714,1.1471,-0.0459903
146.5,8.60151,1.13891,-0.0475359
147,8.65357,1.14807,-0.0474189
147.5,8.70183,1.15573,-0.04609
148,8.74924,1.15819,-0.0475045
148.5,8.797,1.15871,-0.0474198
149,8.84483,1.15915,-0.04742
149.5,8.89211,1.16054,-0.04742
150,8.94142,1.16369,-0.0474213
150.5,8.9889,1.17214,-0.0486959
151,9.03566,1.16288,-0.0487399
151.5,9.08321,1.17604,-0.0487061
152,9.13187,1.16576,-0.0510411
152.5,9.17951,1.17619,-0.051092
153,9.22726,1.18442,-0.0496456
153.5,9.27361,1.17987,-0.0468857
154,9.32209,1.18867,-0.0469798
154.5,9.37019,1.18119,-0.04698
155,9.41893,1.18612,-0.0470161
155.5,9.46595,1.18886,-0.0482978
156,9.51314,1.19458,-0.0483
156.5,9.56009,1.19312,-0.0480438
157,9.60955,1.20393,-0.0469467
157.5,9.6567,1.19455,-0.0476627
158,9.70395,1.20137,-0.04764
158.5,9.75127,1.20675,-0.04764
159,9.79923,1.21154,-0.0476388
159.5,9.84757,1.20833,-0.0469038
160,9.8945,1.20172,-0.0482741
160.5,9.94214,1.20431,-0.04829
161,9.98975,1.2073,-0.04829
161.5,10.0377,1.20286,-0.0483047
162,10.085,1.21243,-0.0489494
162.5,10.1327,1.20879,-0.04895
163,10.1807,1.20871,-0.0489491
163.5,10.226,1.20742,-0.0479673
164,10.2766,1.2135,-0.0476401
164.5,10.3234,1.21265,-0.04764
165,10.3717,1.21623,-0.047684
165.5,10.4183,1.22144,-0.0473049
166,10.4656,1.21706,-0.0476396
166.5,10.512,1.22189,-0.0462944
167,10.5613,1.21388,-0.0463184
167.5,10.6093,1.22625,-0.046714
168,10.6565,1.22208,-0.0463197
168.5,10.7048,1.22088,-0.0463166
169,10.7524,1.22385,-0.0489566
169.5,10.7994,1.22738,-0.04896
170,10.8468,1.22678,-0.04896
170.5,10.8932,1.21749,-0.04896
171,10.9419,1.23483,-0.04896
171.5,10.9898,1.22743,-0.04896
172,11.0365,1.23507,-0.0489658
172.5,11.0847,1.23302,-0.0476398
173,11.1316,1.23135,-0.048845
173.5,11.1793,1.24645,-0.0489502
174,11.2279,1.2426,-0.04895
174.5,11.275,1.23689,-0.0489498
175,11.3216,1.24203,-0.0502586
175.5,11.3707,1.24745,-0.0497303
176,11.4163,1.24622,-0.0509396
176.5,11.4646,1.24509,-0.0522435
177,11.5125,1.25603,-0.0522502
177.5,11.5603,1.25032,-0.0523672
178,11.6088,1.26039,-0.0535485
178.5,11.656,1.25135,-0.0522545
179,11.7028,1.25746,-0.0517913
179.5,11.7501,1.26103,-0.0522501
180,11.7981,1.26015,-0.0522425
180.5,11.8448,1.26821,-0.0535727
181,11.8921,1.2593,-0.0535688
181.5,11.9396,1.2725,-0.0525281
182,11.9881,1.27927,-0.0522487
182.5,12.0357,1.27031,-0.0512685
183,12.0836,1.27505,-0.0512598
183.5,12.1316,1.29245,-0.0516649
184,12.1788,1.28005,-0.0525793
184.5,12.2253,1.28484,-0.0525911
185,12.2735,1.29886,-0.0512762
185.5,12.3182,1.28239,-0.0525793
186,12.3683,1.29579,-0.05258
186.5,12.4157,1.29911,-0.0525705
187,12.4627,1.30343,-0.0552228
187.5,12.5102,1.304,-0.0561927
188,12.5581,1.31244,-0.0565197
188.5,12.6061,1.30759,-0.05653
189,12.6531,1.31218,-0.0565291
189.5,12.7002,1.31198,-0.0579203
190,12.7484,1.31526,-0.0578685
190.5,12.794,1.32033,-0.0571812
191,12.8411,1.32155,-0.0571901
191.5,12.8886,1.32935,-0.0571899
192,12.9362,1.33031,-0.0572019
192.5,12.984,1.34109,-0.0571815
193,13.0316,1.33458,-0.05719
193.5,13.0799,1.3395,-0.0571909
194,13.1266,1.34244,-0.0579121
194.5,13.1739,1.34498,-0.0586482
195,13.2209,1.35122,-0.0611286
195.5,13.2696,1.34896,-0.06114
196,13.3176,1.34584,-0.0611395
196.5,13.3646,1.35518,-0.0621265
197,13.4126,1.3622,-0.0621302
197.5,13.4594,1.36234,-0.0620933
198,13.5078,1.36786,-0.0624593
198.5,13.5557,1.37069,-0.0624594
199,13.6009,1.3736,-0.0636035
199.5,13.6508,1.38204,-0.063779
200,13.6979,1.39274,-0.0651647
200.5,13.7456,1.38802,-0.0650899
201,13.7937,1.406,-0.0650868
201.5,13.8419,1.4031,-0.066426
202,13.8889,1.40903,-0.0664597
202.5,13.9368,1.42083,-0.0690422
203,13.9841,1.42943,-0.06905
203.5,14.0318,1.43569,-0.06905
204,14.0784,1.44164,-0.06905
204.5,14.1274,1.45042,-0.06905
205,14.1758,1.46186,-0.0690501
205.5,14.2233,1.45918,-0.0705229
206,14.2706,1.46465,-0.0719354
206.5,14.3177,1.46665,-0.0732182
207,14.3654,1.47866,-0.07322
207.5,14.4135,1.48135,-0.0732198
208,14.4599,1.48641,-0.0745219
208.5,14.5094,1.49525,-0.0745369
209,14.5561,1.50307,-0.0759212
209.5,14.6057,1.50811,-0.0758506
210,14.6515,1.51707,-0.0771572
210.5,14.7004,1.52121,-0.0771295
211,14.7482,1.53417,-0.0774893
211.5,14.7957,1.5388,-0.07749
212,14.8416,1.54434,-0.0774913
212.5,14.8886,1.55658,-0.0787784
213,14.9383,1.57434,-0.0801424
213.5,14.9864,1.57385,-0.0815087
214,15.0337,1.59631,-0.0838714
214.5,15.0813,1.62,-0.0852519
215,15.1284,1.62964,-0.0866216
215.5,15.1762,1.64055,-0.0879147
216,15.2245,1.6595,-0.0892292
216.5,15.2728,1.66814,-0.0904241
217,15.3206,1.67703,-0.0915086
217.5,15.3684,1.68571,-0.0932744
218,15.4153,1.69166,-0.0945367
218.5,15.4625,1.69315,-0.0955966
219,15.51,1.67678,-0.0971103
219.5,15.5576,1.66184,-0.0984257
220,15.6043,1.62447,-0.0997765
220.5,15.6517,1.587,-0.101115
221,15.6985,1.56562,-0.102365
221.5,15.7455,1.52621,-0.104697
222,15.7932,1.50432,-0.106746
222.5,15.84,1.49166,-0.108155
223,15.8884,1.48498,-0.109456
223.5,15.9335,1.48673,-0.109468
224,15.9836,1.48426,-0.11112
224.5,16.0277,1.50018,-0.111734
225,16.0783,1.50137,-0.114012
225.5,16.1257,1.50923,-0.116306
226,16.1728,1.51891,-0.120689
226.5,16.2205,1.52639,-0.123405
227,16.268,1.52193,-0.126809
227.5,16.3147,1.51655,-0.129194
228,16.3625,1.49546,-0.130809
228.5,16.4084,1.48237,-0.133289
229,16.4572,1.45689,-0.134052
229.5,16.5041,1.45227,-0.136125
230,16.55,1.43216,-0.136143
230.5,16.5984,1.4071,-0.138431
231,16.6452,1.38417,-0.141848
231.5,16.6929,1.37287,-0.143947
232,16.7391,1.36293,-0.146999
232.5,16.7865,1.35423,-0.150052
233,16.8346,1.33571,-0.151494
233.5,16.8828,1.32349,-0.154348
234,16.9294,1.31222,-0.158488
234.5,16.976,1.30671,-0.162512
235,17.0239,1.3064,-0.167954
235.5,17.0716,1.29792,-0.171376
236,17.118,1.29255,-0.174349
236.5,17.1646,1.28815,-0.17476
237,17.2126,1.2835,-0.175525
237.5,17.2601,1.27793,-0.177043
238,17.3078,1.28076,-0.177546
238.5,17.355,1.25453,-0.179808
239,17.4012,1.26563,-0.181261
239.5,17.4492,1.26054,-0.184383
240,17.4978,1.25282,-0.186921
240.5,17.5437,1.25305,-0.188884
241,17.5917,1.25072,-0.190565
241.5,17.64,1.23335,-0.193671
242,17.6867,1.23592,-0.195709
242.5,17.7326,1.22003,-0.198611
243,17.7809,1.21768,-0.203363
243.5,17.8289,1.21228,-0.208292
244,17.8765,1.20846,-0.208984
244.5,17.9215,1.21083,-0.210013
245,17.9701,1.20481,-0.210281
245.5,18.0154,1.19685,-0.21304
246,18.0664,1.19127,-0.216127
246.5,18.1138,1.19719,-0.219878
247,18.1611,1.19473,-0.223746
247.5,18.2078,1.1898,-0.226696
248,18.2554,1.18812,-0.23046
248.5,18.3031,1.19187,-0.232938
249,18.3496,1.19465,-0.236096
249.5,18.3981,1.20107,-0.23731
250,18.4451,1.20252,-0.239753
250.5,18.4923,1.19482,-0.241911
251,18.5414,1.2023,-0.244504
251.5,18.5893,1.21256,-0.248363
252,18.636,1.22996,-0.249856
252.5,18.6835,1.23997,-0.252494
253,18.7314,1.24783,-0.255154
253.5,18.7795,1.26445,-0.259654
254,18.8266,1.27201,-0.263979
254.5,18.8751,1.30437,-0.2682
255,18.9237,1.31523,-0.270027
255.5,18.9707,1.33576,-0.273306
256,19.019,1.36705,-0.27687
256.5,19.0655,1.38776,-0.279687
257,19.1116,1.42812,-0.281933
257.5,19.1618,1.44992,-0.286727
258,19.2085,1.4884,-0.290001
258.5,19.258,1.51504,-0.293719
259,19.3063,1.55438,-0.298559
259.5,19.3528,1.59716,-0.305681
260,19.3997,1.62799,-0.311241
260.5,19.4458,1.6811,-0.316624
261,19.4968,1.72938,-0.321294
261.5,19.545,1.78633,-0.326871
262,19.5933,1.83531,-0.33362
262.5,19.6425,1.89914,-0.339478
263,19.6881,1.96728,-0.346043
263.5,19.7393,2.03845,-0.352041
264,19.7882,2.1203,-0.360578
264.5,19.8353,2.19839,-0.368783
265,19.884,2.29372,-0.376846
265.5,19.9337,2.38056,-0.384753
266,19.9836,2.48012,-0.394445
266.5,20.0315,2.57385,-0.403814
267,20.0808,2.69604,-0.414145
267.5,20.1299,2.79968,-0.423732
268,20.1786,2.89457,-0.437134
268.5,20.2269,2.99581,-0.451995
269,20.2769,3.08966,-0.465717
269.5,20.3253,3.18009,-0.477259
270,20.3744,3.26729,-0.492267
270.5,20.423,3.33807,-0.505633
271,20.4719,3.41252,-0.520231
271.5,20.5208,3.47785,-0.534756
272,20.5696,3.52583,-0.55173
272.5,20.6182,3.56597,-0.570615
273,20.666,3.59543,-0.587536
273.5,20.7141,3.6308,-0.605551
274,20.7622,3.6607,-0.623969
274.5,20.8111,3.66585,-0.641168
275,20.8593,3.67479,-0.660326
275.5,20.9072,3.67286,-0.68028
276,20.955,3.66809,-0.697295
276.5,21.0014,3.66348,-0.71584
277,21.0492,3.6383,-0.736615
277.5,21.0972,3.61664,-0.756875
278,21.1449,3.59677,-0.777117
278.5,21.193,3.56053,-0.797623
279,21.2396,3.53205,-0.817655
279.5,21.2881,3.48939,-0.837285
280,21.3346,3.43534,-0.859015
280.5,21.382,3.38417,-0.879451
281,21.4284,3.32075,-0.897201
281.5,21.476,3.25069,-0.916265
282,21.5238,3.17655,-0.93573
282.5,21.5691,3.07801,-0.952925
283,21.6155,2.97937,-0.969782
283.5,21.6606,2.87293,-0.986491
284,21.7073,2.73553,-1.00442
284.5,21.7536,2.60044,-1.01854
285,21.7995,2.45237,-1.03188
285.5,21.8457,2.30413,-1.04728
286,21.8911,2.15781,-1.06211
286.5,21.9384,2.01165,-1.0764
287,21.9838,1.87081,-1.08738
287.5,22.0301,1.73772,-1.09658
288,22.0774,1.61174,-1.10641
288.5,22.1239,1.51574,-1.11449
289,22.1706,1.42828,-1.12175
289.5,22.2166,1.35559,-1.12657
290,22.2637,1.29307,-1.1311
290.5,22.311,1.23947,-1.13525
291,22.3575,1.19878,-1.14108
291.5,22.4061,1.16556,-1.14639
292,22.4521,1.12646,-1.14871
292.5,22.4996,1.11577,-1.15031
293,22.5448,1.09373,-1.15294
293.5,22.594,1.07954,-1.15487
294,22.6414,1.06845,-1.15675
294.5,22.6898,1.06302,-1.15972
295,22.7374,1.05646,-1.16191
295.5,22.7851,1.03938,-1.16555
296,22.8331,1.03428,-1.16893
296.5,22.8798,1.03598,-1.17132
297,22.9275,1.03249,-1.17437
297.5,22.9737,1.0258,-1.17715
298,23.0231,1.0118,-1.17851
298.5,23.0699,1.01399,-1.17852
299,23.1187,1.00925,-1.18084
299.5,23.1657,1.00759,-1.18294
300,23.2137,1.00877,-1.18424
300.5,23.2589,0.999898,-1.18564
301,23.3063,0.996671,-1.18702
301.5,23.3562,0.995735,-1.18929
302,23.4045,0.987374,-1.19013
302.5,23.4523,0.987018,-1.19284
303,23.4997,0.984651,-1.19294
303.5,23.5481,0.981872,-1.19432
304,23.596,0.982881,-1.19641
304.5,23.6434,0.975693,-1.19826
305,23.6917,0.972767,-1.19959
305.5,23.7395,0.964185,-1.20112
306,23.7845,0.967454,-1.20355
306.5,23.8356,0.956758,-1.20495
307,23.8827,0.954481,-1.20629
307.5,23.9307,0.952025,-1.20761
308,23.9786,0.94916,-1.20882
308.5,24.0267,0.950584,-1.21158
309,24.0742,0.943912,-1.21289
309.5,24.1235,0.939436,-1.21421
310,24.1706,0.944669,-1.2155
310.5,24.2181,0.926498,-1.21566
311,24.2664,0.935462,-1.21675
311.5,24.3138,0.920281,-1.21726
312,24.3601,0.915981,-1.2183
312.5,24.4098,0.914045,-1.21958
313,24.4579,0.906349,-1.22087
313.5,24.5068,0.910836,-1.22218
314,24.5545,0.902224,-1.22205
314.5,24.6016,0.902311,-1.22357
315,24.6499,0.911924,-1.22383
315.5,24.6981,0.901994,-1.2242
316,24.7457,0.903455,-1.22484
316.5,24.7942,0.897193,-1.22638
317,24.8424,0.898327,-1.22815
317.5,24.8909,0.887978,-1.23068
318,24.9384,0.883481,-1.23313
318.5,24.9863,0.891416,-1.23472
319,25.0344,0.882396,-1.23623
319.5,25.0826,0.886005,-1.23878
320,25.1308,0.882703,-1.24102
320.5,25.1781,0.881203,-1.24113
321,25.2259,0.876195,-1.24252
321.5,25.2748,0.869569,-1.24384
322,25.3218,0.879036,-1.24517
322.5,25.3709,0.867031,-1.24658
323,25.4181,0.86868,-1.24812
323.5,25.4667,0.867975,-1.24957
324,25.514,0.869268,-1.24943
324.5,25.5622,0.869505,-1.25079
325,25.6101,0.879013,-1.25218
325.5,25.6558,0.882777,-1.25348
326,25.704,0.893566,-1.25221
326.5,25.7556,0.89547,-1.25218
327,25.801,0.908615,-1.25314
327.5,25.8502,0.920266,-1.25509
328,25.8991,0.926624,-1.25887
328.5,25.9465,0.930228,-1.26255
329,25.9954,0.928895,-1.26507
329.5,26.0432,0.938353,-1.26632
330,26.0913,0.934807,-1.26634
330.5,26.1396,0.938401,-1.26634
331,26.1877,0.937152,-1.26783
331.5,26.2362,0.931695,-1.26915
332,26.2838,0.929261,-1.27051
332.5,26.331,0.921881,-1.27183
333,26.379,0.915192,-1.27184
333.5,26.4274,0.91328,-1.27321
334,26.4751,0.911033,-1.27457
334.5,26.5241,0.911475,-1.27455
335,26.5724,0.900331,-1.27591
335.5,26.6194,0.896082,-1.2772
336,26.6675,0.88783,-1.27721
336.5,26.7159,0.884191,-1.27852
337,26.7648,0.8781,-1.27984
337.5,26.8127,0.87079,-1.28134
338,26.8608,0.870138,-1.28281
338.5,26.9092,0.862901,-1.28536
339,26.9564,0.857524,-1.28653
339.5,27.006,0.860229,-1.28663
340,27.0534,0.860285,-1.28798
340.5,27.102,0.85744,-1.28929
341,27.1482,0.846282,-1.29056
341.5,27.1968,0.84608,-1.29204
342,27.2467,0.8452,-1.29342
342.5,27.2945,0.840024,-1.29462
343,27.3428,0.841024,-1.29715
343.5,27.3913,0.833374,-1.29726
344,27.4398,0.828798,-1.29862
344.5,27.4875,0.830435,-1.30002
345,27.5361,0.828945,-1.30129
345.5,27.5839,0.825618,-1.30125
346,27.6325,0.825994,-1.30252
346.5,27.68,0.826391,-1.3046
347,27.7281,0.824613,-1.30542
347.5,27.7771,0.826046,-1.30672
348,27.8255,0.824624,-1.30674
348.5,27.874,0.824011,-1.30545
349,27.9218,0.82949,-1.3068
349.5,27.9698,0.823805,-1.30801
350,28.0171,0.827817,-1.30959
350.5,28.0657,0.822885,-1.31249
351,28.1148,0.828548,-1.31245
351.5,28.1631,0.819817,-1.31428
352,28.2114,0.819841,-1.31531
352.5,28.2588,0.82697,-1.31658
353,28.307,0.826031,-1.31932
353.5,28.3558,0.82245,-1.31924
354,28.4034,0.8329,-1.32057
354.5,28.4489,0.830836,-1.32196
355,28.5001,0.83105,-1.32218
355.5,28.5483,0.830018,-1.32416
356,28.5954,0.825056,-1.32492
356.5,28.6447,0.827336,-1.32664
357,28.6915,0.83438,-1.32852
357.5,28.7416,0.829328,-1.32884
358,28.7925,0.824484,-1.33005
358.5,28.8403,0.834935,-1.33077
359,28.889,0.837128,-1.33127
359.5,28.9373,0.835128,-1.33259
360,28.9863,0.832779,-1.33385
360.5,29.0345,0.829768,-1.33483
361,29.0827,0.8318,-1.33465
361.5,29.1315,0.837378,-1.33517
362,29.1795,0.836124,-1.33646
362.5,29.2281,0.826824,-1.33911
363,29.2768,0.83738,-1.33927
363.5,29.3255,0.845966,-1.34074
364,29.3733,0.837461,-1.34176
364.5,29.4229,0.846533,-1.34194
365,29.4697,0.83695,-1.34322
365.5,29.5194,0.836137,-1.34343
366,29.5686,0.832714,-1.34472
366.5,29.6158,0.843699,-1.34603
367,29.6637,0.840635,-1.34738
367.5,29.7135,0.83472,-1.34759
368,29.7621,0.846329,-1.3478
368.5,29.8101,0.843958,-1.34823
369,29.8579,0.84081,-1.34989
369.5,29.9067,0.844299,-1.35151
370,29.956,0.853451,-1.35307
370.5,30.0039,0.850759,-1.35438
371,30.0526,0.856312,-1.35416
371.5,30.1002,0.847257,-1.35464
372,30.1483,0.852959,-1.35597
372.5,30.1984,0.851318,-1.35735
373,30.2466,0.853294,-1.35973
373.5,30.2958,0.853369,-1.36129
374,30.3451,0.843733,-1.36397
374.5,30.3932,0.848314,-1.36599
375,30.4423,0.848884,-1.36949
375.5,30.4908,0.853541,-1.36975
376,30.5378,0.855758,-1.37097
376.5,30.5851,0.8536,-1.37092
377,30.6347,0.858963,-1.37228
377.5,30.6847,0.865101,-1.37174
378,30.7334,0.862323,-1.37318
378.5,30.7795,0.859855,-1.37465
379,30.8302,0.85168,-1.37643
379.5,30.8798,0.865237,-1.37651
380,30.9289,0.856823,-1.37755
380.5,30.9766,0.86784,-1.37811
381,31.0258,0.860436,-1.38034
381.5,31.0749,0.859998,-1.38271
382,31.1226,0.856719,-1.3849
382.5,31.1728,0.861259,-1.38736
383,31.2211,0.851035,-1.38971
383.5,31.27,0.864785,-1.39117
384,31.3188,0.868753,-1.39116
384.5,31.3678,0.874748,-1.391
385,31.4157,0.864701,-1.39414
385.5,31.4653,0.867044,-1.39676
386,31.5143,0.867479,-1.39807
386.5,31.5632,0.862791,-1.39809
387,31.6124,0.877567,-1.39956
387.5,31.6602,0.875366,-1.40226
388,31.7088,0.88524,-1.40247
388.5,31.7585,0.871199,-1.40296
389,31.8069,0.876408,-1.40226
389.5,31.8561,0.884885,-1.40356
390,31.9047,0.882007,-1.40423
390.5,31.9536,0.88676,-1.40487
391,32.0015,0.886585,-1.40662
391.5,32.0505,0.886002,-1.40985
392,32.0997,0.886244,-1.41103
392.5,32.1482,0.882858,-1.41332
393,32.1943,0.891941,-1.41466
393.5,32.2458,0.885645,-1.41703
394,32.2945,0.887533,-1.41619
394.5,32.3433,0.892228,-1.41751
395,32.3929,0.887451,-1.41883
395.5,32.4417,0.886813,-1.41987
396,32.4896,0.892717,-1.41973
396.5,32.5382,0.893844,-1.42096
397,32.5874,0.89415,-1.42275
397.5,32.6356,0.896339,-1.42303
398,32.6843,0.892928,-1.42442
398.5,32.7334,0.89084,-1.42572
399,32.7821,0.892911,-1.42722
399.5,32.829,0.894298,-1.42927
400,32.8793,0.897965,-1.43023
400.5,32.9281,0.901907,-1.4324
401,32.9778,0.898451,-1.4339
401.5,33.0267,0.905975,-1.43421
402,33.0751,0.905631,-1.43544
402.5,33.1239,0.898829,-1.43731
403,33.1724,0.900256,-1.43932
403.5,33.2219,0.905959,-1.44058
404,33.2704,0.908182,-1.44181
404.5,33.3196,0.905459,-1.44474
405,33.3681,0.90199,-1.44779
405.5,33.4172,0.904829,-1.44984
406,33.4659,0.902624,-1.45196
406.5,33.5139,0.906391,-1.45198
407,33.5638,0.912001,-1.45198
407.5,33.6127,0.910827,-1.45347
408,33.6618,0.90484,-1.45533
408.5,33.7099,0.915884,-1.45678
409,33.7591,0.910548,-1.45864
409.5,33.8085,0.908336,-1.46171
410,33.8565,0.904605,-1.46372
410.5,33.907,0.905916,-1.46247
411,33.9558,0.912911,-1.46373
411.5,34.0046,0.909267,-1.46505
412,34.0526,0.914158,-1.46627
412.5,34.1026,0.908394,-1.46635
413,34.1508,0.899825,-1.4677
413.5,34.1982,0.902668,-1.46944
414,34.247,0.914496,-1.47068
414.5,34.2986,0.91019,-1.47196
415,34.3481,0.90774,-1.47325
415.5,34.3963,0.90716,-1.47466
416,34.4452,0.905028,-1.47602
416.5,34.4936,0.91206,-1.47735
417,34.5432,0.913567,-1.47868
417.5,34.5925,0.916507,-1.48035
418,34.6388,0.915597,-1.48341
418.5,34.6898,0.913014,-1.48491
419,34.7388,0.908873,-1.48491
419.5,34.787,0.92576,-1.48491
420,34.8374,0.916953,-1.48456
420.5,34.8856,0.920357,-1.48589
421,34.9356,0.935046,-1.48725
421.5,34.985,0.937267,-1.48854
422,35.0336,0.935729,-1.48982
422.5,35.0828,0.931838,-1.49127
423,35.1314,0.92973,-1.4915
423.5,35.182,0.936592,-1.49288
424,35.2308,0.936031,-1.49415
424.5,35.2795,0.930732,-1.4963
425,35.3281,0.93481,-1.49729
425.5,35.3773,0.939867,-1.49678
426,35.4271,0.942493,-1.49637
426.5,35.4767,0.949894,-1.4977
427,35.5253,0.94336,-1.49811
427.5,35.5746,0.949049,-1.5009
428,35.6235,0.947799,-1.50293
428.5,35.6718,0.948136,-1.50584
429,35.7212,0.956896,-1.50712
429.5,35.7702,0.95372,-1.50841
430,35.8205,0.96364,-1.50841
430.5,35.869,0.951841,-1.50764
431,35.9176,0.965038,-1.50709
431.5,35.9677,0.964639,-1.50846
432,36.017,0.970403,-1.51062
432.5,36.0661,0.962591,-1.51291
433,36.1164,0.973335,-1.51624
433.5,36.1618,0.978593,-1.51712
434,36.2137,0.982024,-1.51763
434.5,36.2623,0.97627,-1.51667
435,36.3115,0.986956,-1.51665
435.5,36.3601,0.991984,-1.51801
436,36.4105,0.989575,-1.52066
436.5,36.4595,0.982261,-1.52145
437,36.5086,0.982929,-1.52253
437.5,36.558,0.981514,-1.52376
438,36.6072,0.991989,-1.52366
438.5,36.6556,0.992437,-1.52627
439,36.7048,0.986672,-1.52762
439.5,36.7546,0.986608,-1.52762
440,36.8015,0.981644,-1.5289
440.5,36.8523,0.995204,-1.53025
441,36.9023,0.98925,-1.53155
441.5,36.9511,0.986038,-1.53292
442,36.9995,0.979342,-1.5345
442.5,37.0485,0.980131,-1.53619
443,37.0987,0.982955,-1.53662
443.5,37.1474,0.980995,-1.53728
444,37.1966,0.976343,-1.5381
444.5,37.2449,0.973405,-1.53861
445,37.2948,0.977085,-1.53862
445.5,37.3435,0.97681,-1.54167
446,37.3921,0.967644,-1.543
446.5,37.4416,0.966198,-1.54441
447,37.4907,0.962111,-1.54582
447.5,37.5398,0.966586,-1.54815
448,37.5873,0.963433,-1.55066
448.5,37.6366,0.957388,-1.55093
449,37.6867,0.957164,-1.55112
449.5,37.7355,0.960816,-1.55112
450,37.7854,0.953322,-1.55244
450.5,37.8331,0.954472,-1.55365
451,37.8828,0.954934,-1.55499
451.5,37.9316,0.946134,-1.55655
452,37.9801,0.943152,-1.55781
452.5,38.0296,0.951049,-1.55765
453,38.0813,0.944187,-1.55786
453.5,38.131,0.945446,-1.55916
454,38.1799,0.946266,-1.55903
454.5,38.2286,0.943053,-1.56086
455,38.2785,0.945738,-1.56286
455.5,38.3283,0.945984,-1.56336
456,38.3772,0.946454,-1.56454
456.5,38.4263,0.935948,-1.56583
457,38.4753,0.940852,-1.56481
457.5,38.5253,0.93682,-1.56549
458,38.5738,0.933466,-1.56641
458.5,38.6242,0.934864,-1.56714
459,38.6723,0.935892,-1.56756
459.5,38.7222,0.934432,-1.5682
460,38.7709,0.93357,-1.56857
460.5,38.8205,0.933664,-1.56986
461,38.8698,0.924629,-1.5714
461.5,38.9201,0.929518,-1.57398
462,38.9689,0.925633,-1.57526
462.5,39.0182,0.934523,-1.57524
463,39.0674,0.927163,-1.57659
463.5,39.1167,0.928942,-1.57791
464,39.1666,0.9246,-1.57921
464.5,39.2155,0.93659,-1.58207
465,39.2657,0.923343,-1.58498
465.5,39.3145,0.922641,-1.5881
466,39.362,0.919253,-1.59081
466.5,39.4126,0.914331,-1.59118
467,39.4629,0.909236,-1.5924
467.5,39.5127,0.907727,-1.59232
468,39.5612,0.923067,-1.59349
468.5,39.6114,0.915116,-1.5924
469,39.6601,0.917489,-1.5938
469.5,39.7076,0.927058,-1.59498
470,39.7596,0.915099,-1.59405
470.5,39.8087,0.920185,-1.59514
471,39.8585,0.923382,-1.5949
471.5,39.9072,0.917006,-1.59525
472,39.9577,0.906808,-1.59678
472.5,40.0068,0.913255,-1.60035
473,40.0561,0.916747,-1.60197
473.5,40.1053,0.914952,-1.60297
474,40.1543,0.921772,-1.60356
474.5,40.2044,0.913208,-1.60458
475,40.2538,0.914564,-1.60578
475.5,40.3035,0.911324,-1.60722
476,40.3528,0.917427,-1.60718
476.5,40.4021,0.920732,-1.6101
477,40.4522,0.921395,-1.61258
477.5,40.5013,0.92507,-1.61121
478,40.5496,0.911657,-1.61259
478.5,40.5996,0.916727,-1.61228
479,40.6467,0.918556,-1.61257
479.5,40.7002,0.92048,-1.61259
480,40.7478,0.924445,-1.61261
480.5,40.7977,0.923557,-1.61364
481,40.8454,0.919954,-1.61657
481.5,40.8952,0.915118,-1.62021
482,40.9458,0.91667,-1.62347
482.5,40.9942,0.917944,-1.62479
483,41.0449,0.917048,-1.62611
483.5,41.0941,0.923293,-1.62639
484,41.1444,0.915896,-1.62805
484.5,41.1947,0.918126,-1.63019
485,41.2451,0.913994,-1.63293
485.5,41.2939,0.913023,-1.63624
486,41.3433,0.917942,-1.63728
486.5,41.3936,0.912335,-1.63763
487,41.4432,0.910821,-1.63896
487.5,41.4924,0.91388,-1.64026
488,41.5419,0.909652,-1.64163
488.5,41.5905,0.912951,-1.64153
489,41.6409,0.908119,-1.6429
489.5,41.6911,0.907186,-1.64508
490,41.7404,0.90602,-1.6469
490.5,41.7904,0.904948,-1.64968
491,41.8397,0.901327,-1.64987
491.5,41.8894,0.897792,-1.64992
492,41.9388,0.907087,-1.65124
492.5,41.9884,0.898334,-1.65279
493,42.0382,0.901759,-1.65425
493.5,42.0868,0.90652,-1.65569
494,42.1373,0.900194,-1.65816
494.5,42.1869,0.892837,-1.65869
495,42.2364,0.890642,-1.66027
495.5,42.2862,0.896674,-1.66238
496,42.3357,0.89035,-1.66574
496.5,42.3855,0.893113,-1.66906
497,42.4355,0.889775,-1.67255
497.5,42.4852,0.877597,-1.67407
498,42.535,0.884519,-1.67608
498.5,42.584,0.881782,-1.67811
499,42.6337,0.873466,-1.6783
499.5,42.684,0.877185,-1.67968
500,42.7346,0.876178,-1.68109
500.5,42.7834,0.874267,-1.68317
501,42.8333,0.8717,-1.68437
501.5,42.8826,0.878269,-1.68713
502,42.9332,0.873436,-1.69006
502.5,42.9827,0.870659,-1.69134
503,43.0317,0.866419,-1.69417
503.5,43.0821,0.869792,-1.69602
504,43.1313,0.864163,-1.69909
504.5,43.1804,0.844935,-1.70221
505,43.231,0.856429,-1.70372
505.5,43.2795,0.85641,-1.70302
506,43.3294,0.857911,-1.70454
506.5,43.3801,0.855061,-1.70608
507,43.4294,0.870095,-1.708
507.5,43.4786,0.861226,-1.71003
508,43.5293,0.863056,-1.71279
508.5,43.5792,0.859835,-1.71665
509,43.6288,0.853138,-1.72
509.5,43.6785,0.850973,-1.72273
510,43.7282,0.853803,-1.72435
510.5,43.7784,0.856365,-1.72479
511,43.8283,0.85236,-1.72878
511.5,43.8783,0.851769,-1.73047
512,43.9277,0.856039,-1.73136
512.5,43.9785,0.863632,-1.73334
513,44.0262,0.853959,-1.73627
513.5,44.0774,0.859581,-1.74015
514,44.1286,0.860481,-1.74393
514.5,44.1772,0.861322,-1.74502
515,44.2278,0.865699,-1.74814
515.5,44.2776,0.873069,-1.75092
516,44.3275,0.868233,-1.755
516.5,44.3768,0.864966,-1.75638
517,44.4272,0.861432,-1.7583
517.5,44.4762,0.865398,-1.76051
518,44.527,0.860191,-1.76222
518.5,44.5776,0.864395,-1.76521
519,44.6266,0.862282,-1.76832
519.5,44.6767,0.863534,-1.7721
520,44.727,0.854103,-1.77601
520.5,44.7767,0.855964,-1.77999
521,44.8271,0.849407,-1.78399
521.5,44.8766,0.846052,-1.78557
522,44.9265,0.859356,-1.78728
522.5,44.9765,0.857075,-1.78884
523,45.0267,0.860487,-1.78902
523.5,45.0753,0.84555,-1.79159
524,45.1263,0.853564,-1.79446
524.5,45.1766,0.841022,-1.79773
525,45.2264,0.848738,-1.79962
525.5,45.2763,0.847438,-1.80224
526,45.325,0.83395,-1.8043
526.5,45.3751,0.845934,-1.80657
527,45.4241,0.837653,-1.80926
527.5,45.4757,0.843975,-1.81135
528,45.5241,0.843041,-1.81327
528.5,45.5744,0.840121,-1.81656
529,45.6242,0.835902,-1.8209
529.5,45.6744,0.846003,-1.82346
530,45.7229,0.830698,-1.82604
530.5,45.7736,0.83363,-1.82986
531,45.8228,0.833852,-1.83304
531.5,45.8741,0.82981,-1.83685
532,45.9226,0.81914,-1.8405
532.5,45.9723,0.819001,-1.84279
533,46.0233,0.813965,-1.84603
533.5,46.0724,0.816559,-1.84849
534,46.1228,0.81552,-1.85245
534.5,46.1715,0.810944,-1.85701
535,46.2226,0.810273,-1.85896
535.5,46.2722,0.805131,-1.86339
536,46.3194,0.797846,-1.86767
536.5,46.3677,0.790151,-1.86989
537,46.4208,0.792048,-1.8744
537.5,46.4687,0.781847,-1.87618
538,46.5206,0.786117,-1.88134
538.5,46.5698,0.778947,-1.88557
539,46.6202,0.773386,-1.8894
539.5,46.67,0.760248,-1.89146
540,46.7195,0.759922,-1.89478
540.5,46.7706,0.752155,-1.8976
541,46.819,0.741016,-1.90107
541.5,46.8689,0.734912,-1.90473
542,46.9188,0.733486,-1.91002
542.5,46.9661,0.715057,-1.91514
543,47.0184,0.701608,-1.92168
543.5,47.0683,0.694666,-1.92351
544,47.1181,0.680364,-1.92351
544.5,47.1674,0.668843,-1.92757
545,47.2181,0.656122,-1.93294
545.5,47.267,0.643179,-1.93616
546,47.3159,0.631365,-1.9395
546.5,47.3654,0.6145,-1.94289
547,47.4155,0.598489,-1.94592
547.5,47.466,0.573397,-1.95043
548,47.5153,0.561118,-1.95461
548.5,47.5656,0.545402,-1.95928
549,47.6158,0.53254,-1.96535
549.5,47.6659,0.513568,-1.96889
550,47.7136,0.496398,-1.97541
550.5,47.7632,0.47745,-1.9783
551,47.8149,0.461935,-1.98138
551.5,47.8613,0.449127,-1.98443
552,47.9138,0.430516,-1.98757
552.5,47.9631,0.414769,-1.99205
553,48.0122,0.398589,-1.99554
553.5,48.0633,0.389598,-2.00061
554,48.1106,0.36855,-2.00402
554.5,48.1601,0.344934,-2.00912
555,48.2117,0.339117,-2.01315
555.5,48.2613,0.323124,-2.01302
556,48.3108,0.322406,-2.01593
556.5,48.3603,0.307556,-2.01777
557,48.4101,0.305393,-2.02038
557.5,48.4598,0.302101,-2.02325
558,48.5101,0.284875,-2.02712
558.5,48.5595,0.282667,-2.02899
559,48.6091,0.28129,-2.03193
559.5,48.6588,0.293469,-2.03475
560,48.7089,0.294272,-2.03877
560.5,48.7591,0.290294,-2.0425
561,48.8096,0.301415,-2.04431
561.5,48.8592,0.300431,-2.04809
562,48.9081,0.309207,-2.05512
562.5,48.9585,0.319462,-2.06214
563,49.0092,0.33317,-2.06529
563.5,49.0602,0.343983,-2.06357
564,49.1094,0.363219,-2.0636
564.5,49.1601,0.383369,-2.0654
565,49.2113,0.398276,-2.06795
565.5,49.2612,0.418944,-2.06805
566,49.3112,0.43468,-2.06945
566.5,49.3611,0.451477,-2.0713
567,49.412,0.464365,-2.07391
567.5,49.4619,0.476373,-2.077
568,49.5133,0.493551,-2.07875
568.5,49.5628,0.503712,-2.08011
569,49.6124,0.511765,-2.08152
569.5,49.6627,0.528433,-2.08351
570,49.7139,0.544986,-2.08524
570.5,49.7634,0.54515,-2.08744
571,49.8155,0.547112,-2.08933
571.5,49.8652,0.567186,-2.09029
572,49.9151,0.572017,-2.0906
572.5,49.9653,0.580004,-2.09274
573,50.0157,0.577727,-2.09475
573.5,50.0651,0.597158,-2.09741
574,50.1152,0.587555,-2.09832
574.5,50.1659,0.58918,-2.10068
575,50.2158,0.588465,-2.10223
575.5,50.2667,0.582643,-2.10321
576,50.3163,0.591841,-2.10474
576.5,50.3665,0.592408,-2.10608
577,50.4162,0.588644,-2.10607
577.5,50.4654,0.589726,-2.10751
578,50.5154,0.595537,-2.10862
578.5,50.5662,0.6005,-2.10931
579,50.6174,0.601791,-2.11223
579.5,50.6663,0.606487,-2.11379
580,50.7171,0.599726,-2.11526
580.5,50.7668,0.603928,-2.11871
581,50.8176,0.604741,-2.12273
581.5,50.8669,0.60365,-2.12711
582,50.918,0.596666,-2.13047
582.5,50.9679,0.607175,-2.12909
583,51.0179,0.607542,-2.12914
583.5,51.069,0.618684,-2.12913
584,51.119,0.610768,-2.13045
584.5,51.1689,0.621036,-2.13204
585,51.22,0.616786,-2.13325
585.5,51.2695,0.61771,-2.13536
586,51.3205,0.621826,-2.13657
586.5,51.371,0.622138,-2.13816
587,51.4205,0.620465,-2.14072
587.5,51.4706,0.621439,-2.14413
588,51.5221,0.6216,-2.14677
588.5,51.5718,0.617488,-2.14881
589,51.6219,0.628004,-2.14812
589.5,51.6722,0.627599,-2.14811
590,51.7227,0.626474,-2.14961
590.5,51.7729,0.62797,-2.15246
591,51.8212,0.628871,-2.15559
591.5,51.8715,0.621535,-2.15701
592,51.9229,0.621204,-2.15763
592.5,51.9732,0.622841,-2.15986
593,52.0234,0.628657,-2.16303
593.5,52.0737,0.62818,-2.1659
594,52.1244,0.624135,-2.16948
594.5,52.175,0.629451,-2.17372
595,52.2255,0.623956,-2.175
595.5,52.2755,0.636115,-2.17223
596,52.3262,0.637477,-2.17305
596.5,52.3765,0.635296,-2.17359
597,52.4263,0.639138,-2.17652
597.5,52.478,0.636562,-2.17916
598,52.5283,0.63846,-2.18313
598.5,52.5781,0.63327,-2.18519
599,52.6296,0.629752,-2.18601
599.5,52.6781,0.631568,-2.18632
600,52.7296,0.639268,-2.18631
600.5,52.7797,0.641459,-2.18759
601,52.8275,0.632813,-2.18627
601.5,52.8795,0.644728,-2.18753
602,52.93,0.647144,-2.18997
602.5,52.9818,0.636667,-2.1919
603,53.0318,0.6446,-2.19461
603.5,53.0812,0.645063,-2.19735
604,53.1309,0.64755,-2.1992
604.5,53.1821,0.64926,-2.20162
605,53.2328,0.65237,-2.20362
605.5,53.2828,0.659028,-2.20444
606,53.3316,0.655638,-2.20347
606.5,53.3843,0.662938,-2.20443
607,53.4344,0.659123,-2.20444
607.5,53.485,0.67185,-2.20608
608,53.5358,0.672826,-2.20783
608.5,53.586,0.673975,-2.2089
609,53.6361,0.680135,-2.21002
609.5,53.6863,0.679618,-2.21273
610,53.7366,0.688738,-2.21474
610.5,53.7877,0.683073,-2.2161
611,53.8377,0.689363,-2.21491
611.5,53.8879,0.682689,-2.21612
612,53.9384,0.696292,-2.22044
612.5,53.9888,0.689533,-2.22289
613,54.0379,0.693284,-2.22484
613.5,54.0899,0.704986,-2.22485
614,54.1408,0.697956,-2.22636
614.5,54.1911,0.70525,-2.22953
615,54.2418,0.705528,-2.23167
615.5,54.2927,0.705252,-2.23182
616,54.3445,0.710072,-2.23048
616.5,54.3943,0.715957,-2.23311
617,54.4442,0.708796,-2.23616
617.5,54.4942,0.706924,-2.2386
618,54.5458,0.713762,-2.2399
618.5,54.5953,0.704234,-2.2399
619,54.6466,0.717416,-2.23925
619.5,54.6949,0.707903,-2.23923
620,54.7468,0.71687,-2.23847
620.5,54.7977,0.717603,-2.24074
621,54.8489,0.705067,-2.24189
621.5,54.8989,0.708018,-2.24325
622,54.9493,0.705516,-2.2452
622.5,55.0001,0.705598,-2.24656
623,55.0511,0.71494,-2.24758
623.5,55.1007,0.711201,-2.24757
624,55.1526,0.712427,-2.24891
624.5,55.2027,0.712975,-2.24892
625,55.2516,0.711127,-2.25024
625.5,55.3023,0.713585,-2.25273
626,55.3537,0.713851,-2.25417
626.5,55.4029,0.715505,-2.25621
627,55.4537,0.724226,-2.25702
627.5,55.5049,0.707622,-2.25702
628,55.5541,0.722783,-2.2577
628.5,55.6045,0.710271,-2.259
629,55.6549,0.721794,-2.26032
629.5,55.7057,0.717894,-2.26163
630,55.7558,0.710428,-2.26163
630.5,55.8054,0.714839,-2.26298
631,55.8566,0.718186,-2.26294
631.5,55.9076,0.717443,-2.26427
632,55.9583,0.719022,-2.26559
632.5,56.0084,0.714048,-2.26587
633,56.0589,0.720228,-2.26741
633.5,56.1095,0.718641,-2.268
634,56.1593,0.71865,-2.26838
634.5,56.2096,0.7093,-2.26965
635,56.2605,0.714623,-2.27059
635.5,56.3116,0.718625,-2.27153
636,56.3616,0.712637,-2.27303
636.5,56.4128,0.715131,-2.27324
637,56.4619,0.71259,-2.27445
637.5,56.5128,0.711559,-2.2754
638,56.5652,0.712735,-2.27627
638.5,56.6133,0.714202,-2.27723
639,56.6632,0.719529,-2.27713
639.5,56.715,0.712323,-2.27757
640,56.7659,0.713452,-2.27894
640.5,56.817,0.716306,-2.28028
641,56.8656,0.717552,-2.28151
641.5,56.9172,0.713868,-2.28147
642,56.9679,0.718202,-2.28378
642.5,57.0186,0.72322,-2.28578
643,57.0689,0.719607,-2.2867
643.5,57.1194,0.722926,-2.28756
644,57.1697,0.712534,-2.28998
644.5,57.2213,0.715504,-2.29001
645,57.2707,0.714197,-2.28898
645.5,57.3222,0.718681,-2.28768
646,57.3727,0.719941,-2.28898
646.5,57.4233,0.71906,-2.29029
647,57.4731,0.718258,-2.29005
647.5,57.5241,0.718574,-2.28892
648,57.576,0.718163,-2.2893
648.5,57.6268,0.711589,-2.28933
649,57.6765,0.713364,-2.29141
649.5,57.7274,0.713473,-2.29321
650,57.7779,0.708135,-2.29479
650.5,57.829,0.713922,-2.29479
651,57.8795,0.710812,-2.29479
651.5,57.9296,0.702996,-2.29479
652,57.9799,0.709514,-2.29617
652.5,58.0313,0.710651,-2.29765
653,58.0817,0.699166,-2.29885
653.5,58.1318,0.700516,-2.30016
654,58.1829,0.700512,-2.30149
654.5,58.2331,0.69516,-2.302
655,58.2843,0.694523,-2.3028
655.5,58.3339,0.702154,-2.30412
656,58.3855,0.69531,-2.30544
656.5,58.4358,0.686896,-2.30675
657,58.4865,0.690144,-2.30679
657.5,58.5373,0.694514,-2.30705
658,58.5884,0.688772,-2.30675
658.5,58.6388,0.686609,-2.30675
659,58.6892,0.686308,-2.30816
659.5,58.7404,0.689303,-2.30807
660,58.791,0.684098,-2.30807
660.5,58.841,0.686344,-2.30807
661,58.8917,0.681632,-2.30925
661.5,58.9437,0.68231,-2.30939
662,58.9934,0.681468,-2.30858
662.5,59.0447,0.674833,-2.30939
663,59.0949,0.670903,-2.3104
663.5,59.1456,0.675411,-2.31117
664,59.1971,0.671841,-2.31133
664.5,59.2472,0.660578,-2.31334
665,59.2973,0.654259,-2.31488
665.5,59.3474,0.652489,-2.31694
666,59.3978,0.649727,-2.3171
666.5,59.4489,0.644799,-2.3179
667,59.4991,0.644431,-2.3189
667.5,59.5503,0.63801,-2.31751
668,59.6002,0.639982,-2.31752
668.5,59.6527,0.637489,-2.319
669,59.7028,0.638593,-2.32016
669.5,59.7553,0.638372,-2.32015
670,59.8054,0.630941,-2.31942
670.5,59.8551,0.619615,-2.31949
671,59.9064,0.636912,-2.31982
671.5,59.9576,0.631127,-2.31982
672,60.0081,0.624052,-2.32039
672.5,60.0588,0.633326,-2.32236
673,60.1092,0.621866,-2.32301
673.5,60.1597,0.624944,-2.32433
674,60.2118,0.616513,-2.32559
674.5,60.2614,0.612689,-2.32687
675,60.3108,0.605448,-2.32585
675.5,60.3651,0.602799,-2.32564
676,60.4156,0.604322,-2.32632
676.5,60.4652,0.59569,-2.32499
677,60.5165,0.590472,-2.32498
677.5,60.567,0.593373,-2.32569
678,60.6176,0.593206,-2.3256
678.5,60.6682,0.58593,-2.32695
679,60.7196,0.577942,-2.32799
679.5,60.7695,0.584135,-2.32959
680,60.8214,0.572406,-2.32948
680.5,60.872,0.572821,-2.33082
681,60.9214,0.569295,-2.33234
681.5,60.9734,0.572283,-2.33255
682,61.0246,0.5528,-2.33255
682.5,61.0744,0.559606,-2.33387
683,61.1249,0.555219,-2.33404
683.5,61.1763,0.549378,-2.33519
684,61.2269,0.553868,-2.33651
684.5,61.2769,0.542346,-2.3378
685,61.328,0.546982,-2.33762
685.5,61.3782,0.545525,-2.33782
686,61.4297,0.534452,-2.33782
686.5,61.48,0.53514,-2.33782
687,61.5312,0.52524,-2.3379
687.5,61.5818,0.521855,-2.34013
688,61.6332,0.519417,-2.34062
688.5,61.6831,0.522606,-2.34068
689,61.7352,0.516822,-2.34068
689.5,61.7864,0.521452,-2.34078
690,61.8362,0.508692,-2.34291
690.5,61.8861,0.508632,-2.34376
691,61.9389,0.500534,-2.34364
691.5,61.9893,0.499838,-2.34125
692,62.0402,0.492805,-2.34009
692.5,62.0905,0.4931,-2.34054
693,62.1416,0.482921,-2.34275
693.5,62.1917,0.487953,-2.34438
694,62.2432,0.495453,-2.34566
694.5,62.2943,0.478569,-2.34845
695,62.3443,0.476621,-2.3503
695.5,62.3952,0.480405,-2.35144
696,62.4465,0.467085,-2.35007
696.5,62.4964,0.463134,-2.34979
697,62.5483,0.457266,-2.34964
697.5,62.5986,0.459137,-2.34847
698,62.649,0.457745,-2.34924
698.5,62.7,0.452987,-2.34981
699,62.7508,0.452541,-2.35103
699.5,62.8017,0.445316,-2.3512
700,62.8524,0.441935,-2.35251
700.5,62.9024,0.43507,-2.35385
701,62.9531,0.433859,-2.35385
701.5,63.0031,0.431278,-2.35385
702,63.0541,0.43576,-2.35385
702.5,63.1054,0.420956,-2.35121
703,63.1561,0.424683,-2.35121
703.5,63.2064,0.42101,-2.35252
704,63.2575,0.423676,-2.35372
704.5,63.307,0.418752,-2.35544
705,63.3586,0.407486,-2.356
705.5,63.4091,0.408179,-2.35754
706,63.4586,0.410315,-2.35846
706.5,63.5097,0.402806,-2.35839
707,63.5608,0.399084,-2.35714
707.5,63.6118,0.398759,-2.35714
708,63.6628,0.398482,-2.35714
708.5,63.7137,0.381499,-2.35679
709,63.7646,0.380965,-2.35681
709.5,63.8155,0.376739,-2.35599
710,63.8661,0.364931,-2.35583
710.5,63.916,0.372558,-2.35715
711,63.9673,0.35898,-2.35715
711.5,64.0187,0.357317,-2.35737
712,64.0694,0.357234,-2.35844
712.5,64.1197,0.353319,-2.35986
713,64.1707,0.350795,-2.36139
713.5,64.2218,0.340464,-2.3641
714,64.2723,0.338245,-2.36402
714.5,64.3239,0.331918,-2.36699
715,64.3747,0.32318,-2.36835
715.5,64.4258,0.321086,-2.36737
716,64.4741,0.315086,-2.36538
716.5,64.5246,0.317867,-2.36538
717,64.5784,0.311763,-2.36669
717.5,64.6271,0.30119,-2.36667
718,64.6797,0.295238,-2.36803
718.5,64.7311,0.296644,-2.36944
719,64.7808,0.290732,-2.36944
719.5,64.833,0.297584,-2.36944
720,64.8828,0.280502,-2.36943
720.5,64.933,0.276896,-2.37076
721,64.9843,0.280471,-2.37076
721.5,65.0352,0.268117,-2.37076
722,65.0862,0.269236,-2.37077
722.5,65.1379,0.264574,-2.37208
723,65.1877,0.266193,-2.37214
723.5,65.2386,0.263262,-2.3723
724,65.2896,0.253004,-2.3735
724.5,65.3411,0.249413,-2.37597
725,65.3921,0.247603,-2.37614
725.5,65.4426,0.242328,-2.37614
726,65.4938,0.236755,-2.37614
726.5,65.5438,0.239593,-2.37614
727,65.5951,0.236165,-2.37745
727.5,65.6462,0.22854,-2.37744
728,65.6979,0.22789,-2.37746
728.5,65.748,0.219731,-2.37746
729,65.7992,0.220792,-2.37746
729.5,65.8495,0.212633,-2.37746
730,65.9013,0.201881,-2.37746
730.5,65.9518,0.198669,-2.3788
731,66.0021,0.197302,-2.38014
731.5,66.0528,0.196012,-2.38137
732,66.1037,0.19124,-2.38009
732.5,66.1527,0.190332,-2.37911
733,66.206,0.189896,-2.3791
733.5,66.2566,0.189126,-2.3791
734,66.308,0.17553,-2.3791
734.5,66.3588,0.182206,-2.3791
735,66.4092,0.180565,-2.3791
735.5,66.461,0.175454,-2.3791
736,66.5121,0.170921,-2.3791
736.5,66.5622,0.171233,-2.37924
737,66.6143,0.177451,-2.38005
737.5,66.6646,0.163377,-2.3801
738,66.7165,0.162527,-2.37995
738.5,66.7676,0.16322,-2.38227
739,66.8181,0.159392,-2.38442
739.5,66.8697,0.161569,-2.38619
740,66.9207,0.148275,-2.38772
740.5,66.9725,0.153848,-2.38778
741,67.0226,0.14455,-2.38778
741.5,67.0736,0.144708,-2.38778
742,67.125,0.152694,-2.38777
742.5,67.1757,0.151352,-2.38581
743,67.227,0.142912,-2.38872
743.5,67.2775,0.136205,-2.38878
744,67.3282,0.135062,-2.39129
744.5,67.38,0.123891,-2.39129
745,67.4308,0.135449,-2.39256
745.5,67.4817,0.127724,-2.39261
746,67.5322,0.124659,-2.39233
746.5,67.5833,0.132661,-2.38998
747,67.6351,0.117567,-2.38997
747.5,67.6838,0.121668,-2.38997
748,67.7355,0.104343,-2.3922
748.5,67.7866,0.102013,-2.39261
749,67.8374,0.108878,-2.3925
749.5,67.8891,0.104765,-2.39118
750,67.9397,0.111858,-2.39118
750.5,67.9908,0.0992997,-2.39119
751,68.0422,0.098715,-2.3925
751.5,68.0928,0.0889324,-2.39274
752,68.1445,0.0883321,-2.39216
752.5,68.1935,0.0895475,-2.39216
753,68.2438,0.0930688,-2.39216
753.5,68.2957,0.0850466,-2.39083
754,68.3467,0.0834057,-2.38955
754.5,68.3976,0.0803302,-2.39062
755,68.4496,0.0835181,-2.39049
755.5,68.4998,0.0787115,-2.39081
756,68.5512,0.068981,-2.39347
756.5,68.6024,0.0646719,-2.39562
757,68.6537,0.0627175,-2.3981
757.5,68.7027,0.067055,-2.39941
758,68.7546,0.0644085,-2.40007
758.5,68.8066,0.0626902,-2.4017
759,68.8568,0.0566661,-2.40031
759.5,68.9084,0.0520047,-2.40029
760,68.9589,0.0499233,-2.40029
760.5,69.0095,0.0536902,-2.40029
761,69.0613,0.0506772,-2.3995
761.5,69.1119,0.0604675,-2.39931
762,69.1632,0.0554979,-2.40004
762.5,69.2123,0.0461256,-2.40075
763,69.2659,0.0535451,-2.40127
763.5,69.3175,0.0488012,-2.4026
764,69.3678,0.0550319,-2.40404
764.5,69.4181,0.043547,-2.40388
765,69.47,0.044112,-2.40491
765.5,69.5206,0.0490361,-2.40491
766,69.5701,0.0518425,-2.40451
766.5,69.6221,0.0372377,-2.40435
767,69.6722,0.0362414,-2.40293
767.5,69.7257,0.0367798,-2.40328
768,69.776,0.0346142,-2.40373
768.5,69.8274,0.0372085,-2.40458
769,69.879,0.0391364,-2.40458
769.5,69.9301,0.0355647,-2.40598
770,69.9812,0.0341677,-2.40589
770.5,70.0327,0.0320542,-2.40717
771,70.0842,0.0388158,-2.40589
771.5,70.1325,0.0407932,-2.407
772,70.1857,0.0438829,-2.40622
772.5,70.2375,0.04455,-2.4049
773,70.2886,0.0392003,-2.40696
773.5,70.3393,0.0405444,-2.409
774,70.3907,0.0512219,-2.40896
774.5,70.4414,0.0478582,-2.40896
775,70.4927,0.0487891,-2.40896
775.5,70.5435,0.0466722,-2.40896
776,70.5949,0.0478861,-2.40897
776.5,70.6463,0.0435128,-2.40896
777,70.697,0.0432482,-2.40896
777.5,70.7488,0.0469495,-2.40898
778,70.7997,0.0462121,-2.40927
778.5,70.851,0.0514481,-2.41063
779,70.9022,0.0511582,-2.41193
779.5,70.9539,0.0483168,-2.41153
780,71.0044,0.0464073,-2.41062
780.5,71.0559,0.0479978,-2.40986
781,71.107,0.0613486,-2.4093
781.5,71.1577,0.0444608,-2.40798
782,71.2094,0.0475571,-2.40798
782.5,71.261,0.0510426,-2.40798
783,71.3116,0.052327,-2.40866
783.5,71.3632,0.0494315,-2.40929
784,71.4138,0.048259,-2.41061
784.5,71.4646,0.0542182,-2.41159
785,71.5158,0.0507698,-2.41028
785.5,71.5672,0.0561438,-2.41028
786,71.618,0.0603017,-2.40896
786.5,71.6699,0.0599348,-2.41074
787,71.7205,0.0596695,-2.41166
787.5,71.7725,0.0653109,-2.41064
788,71.8231,0.0599215,-2.41028
788.5,71.8748,0.0695577,-2.41061
789,71.9257,0.0654941,-2.41201
789.5,71.9768,0.0664142,-2.41519
790,72.0279,0.066952,-2.41655