File: 01_Data/Protective_Hood/STA/N2/10K_min/Protective_Hood_STA_N2_10KData_250623_R4.csv
Temp./C,Time/min,DSC/(mW/mg),Mass loss/mg
60.0,0.0,0.647903,-0.0407889
60.5,0.0670479,0.664288,-0.0401703
61,0.130512,0.675473,-0.0407577
61.5,0.195885,0.683695,-0.0408757
62,0.260587,0.695744,-0.0416051
62.5,0.324756,0.713858,-0.0412517
63,0.38575,0.713509,-0.0413164
63.5,0.44738,0.727953,-0.0414886
64,0.50939,0.749232,-0.0427495
64.5,0.570125,0.754718,-0.0429239
65,0.631299,0.765499,-0.0428013
65.5,0.691622,0.777569,-0.0432436
66,0.75188,0.791498,-0.0425622
66.5,0.812175,0.80499,-0.0429144
67,0.871382,0.817599,-0.0441823
67.5,0.927867,0.828344,-0.0437075
68,0.988751,0.836789,-0.0441297
68.5,1.04635,0.853791,-0.0441328
69,1.10269,0.861239,-0.0446679
69.5,1.16264,0.872875,-0.0444128
70,1.22041,0.886945,-0.0449409
70.5,1.2765,0.899317,-0.0467637
71,1.33304,0.912529,-0.0464689
71.5,1.39054,0.916041,-0.0466473
72,1.44649,0.927292,-0.0467473
72.5,1.50371,0.939689,-0.0468666
73,1.5603,0.96022,-0.0480809
73.5,1.61529,0.958205,-0.0493824
74,1.67139,0.973617,-0.0480875
74.5,1.72727,0.982498,-0.049429
75,1.78262,0.995815,-0.0497449
75.5,1.8344,0.996215,-0.0510428
76,1.89299,1.01039,-0.0520272
76.5,1.94772,1.02553,-0.052102
77,2.00139,1.04136,-0.0520264
77.5,2.0563,1.04946,-0.0506511
78,2.1095,1.0571,-0.0520317
78.5,2.16358,1.06422,-0.0533288
79,2.21827,1.06967,-0.0533504
79.5,2.27211,1.08646,-0.0533659
80,2.32584,1.08576,-0.0533567
80.5,2.37824,1.09518,-0.0546819
81,2.43264,1.11038,-0.0546784
81.5,2.48672,1.11676,-0.0546172
82,2.53899,1.1233,-0.0550574
82.5,2.59252,1.12471,-0.055993
83,2.64412,1.14162,-0.0563654
83.5,2.69652,1.14388,-0.0566853
84,2.75091,1.15164,-0.0573006
84.5,2.80149,1.16086,-0.0573
85,2.8529,1.159,-0.0577282
85.5,2.9058,1.18348,-0.0589027
86,2.95781,1.18996,-0.0600515
86.5,3.00912,1.1905,-0.0613587
87,3.06119,1.19634,-0.0612678
87.5,3.11416,1.20482,-0.0626994
88,3.16447,1.20439,-0.06137
88.5,3.21535,1.2111,-0.0613698
89,3.26602,1.21642,-0.0616365
89.5,3.31746,1.2244,-0.0626877
90,3.36692,1.22627,-0.0634758
90.5,3.41869,1.22782,-0.0639134
91,3.46838,1.23538,-0.0640009
91.5,3.5192,1.24025,-0.0651382
92,3.57059,1.23881,-0.0653201
92.5,3.61769,1.24067,-0.0654791
93,3.67031,1.2472,-0.0666387
93.5,3.72029,1.2541,-0.0666558
94,3.77053,1.24945,-0.0679596
94.5,3.82173,1.25264,-0.06796
95,3.87095,1.25304,-0.0679361
95.5,3.92037,1.256,-0.0665995
96,3.96944,1.25656,-0.0679481
96.5,4.02065,1.25474,-0.0707321
97,4.07023,1.25144,-0.0693446
97.5,4.11855,1.25107,-0.0692627
98,4.16837,1.24916,-0.070596
98.5,4.21816,1.24569,-0.0705007
99,4.26671,1.25086,-0.0719104
99.5,4.31686,1.24017,-0.07191
100,4.3662,1.24632,-0.0719099
100.5,4.41551,1.239,-0.0719188
101,4.46334,1.22983,-0.0732175
101.5,4.51409,1.2329,-0.0745406
102,4.56056,1.23401,-0.0750298
102.5,4.60941,1.22816,-0.0758588
103,4.65884,1.22341,-0.07586
103.5,4.70874,1.22445,-0.0758529
104,4.75719,1.22185,-0.0771892
104.5,4.80483,1.21383,-0.0771823
105,4.85571,1.20928,-0.0758611
105.5,4.90327,1.20644,-0.077218
106,4.95213,1.20352,-0.0784848
106.5,5.00092,1.20015,-0.078484
107,5.04879,1.19125,-0.0798101
107.5,5.09821,1.18465,-0.0798137
108,5.14633,1.18227,-0.0811082
108.5,5.19566,1.17855,-0.0811273
109,5.2433,1.17214,-0.0824783
109.5,5.29271,1.16176,-0.0824535
110,5.33999,1.16406,-0.0810925
110.5,5.38813,1.15106,-0.0811301
111,5.43735,1.1498,-0.0810362
111.5,5.48486,1.14403,-0.0824747
112,5.53333,1.14349,-0.0824413
112.5,5.58266,1.13669,-0.0835202
113,5.63005,1.13457,-0.0837599
113.5,5.67835,1.12325,-0.0838364
114,5.72676,1.12587,-0.082451
114.5,5.77512,1.12146,-0.0834671
115,5.82465,1.11229,-0.0834307
115.5,5.87231,1.10508,-0.0837508
116,5.92033,1.09653,-0.0837695
116.5,5.96771,1.09561,-0.0850703
117,6.01772,1.08996,-0.0850796
117.5,6.06543,1.07727,-0.0855737
118,6.11381,1.08325,-0.0864004
118.5,6.16055,1.07168,-0.0851077
119,6.20959,1.06322,-0.08508
119.5,6.2584,1.05919,-0.0850706
120,6.30446,1.05054,-0.0864087
120.5,6.35455,1.04568,-0.0864004
121,6.40236,1.03964,-0.0870571
121.5,6.44967,1.0358,-0.0870592
122,6.49833,1.03016,-0.0883733
122.5,6.54564,1.02738,-0.0883801
123,6.59456,1.02016,-0.0883787
123.5,6.64166,1.01562,-0.087063
124,6.69049,1.00858,-0.0881532
124.5,6.73771,1.00254,-0.08837
125,6.78602,0.998554,-0.0883692
125.5,6.83434,1.0027,-0.0897618
126,6.88234,0.991351,-0.0892085
126.5,6.92966,0.986212,-0.0897655
127,6.97673,0.974796,-0.08969
127.5,7.02414,0.971201,-0.0896866
128,7.07174,0.973916,-0.0883795
128.5,7.1199,0.970303,-0.0883654
129,7.16766,0.963555,-0.0896987
129.5,7.2165,0.956533,-0.08969
130,7.26081,0.955834,-0.08969
130.5,7.31221,0.952174,-0.08969
131,7.35691,0.952572,-0.08969
131.5,7.40736,0.943175,-0.0896903
132,7.4543,0.942896,-0.0899606
132.5,7.50174,0.940522,-0.0896898
133,7.54979,0.933388,-0.090988
133.5,7.59714,0.937022,-0.0910102
134,7.64541,0.93451,-0.0909828
134.5,7.69241,0.935319,-0.0896886
135,7.73978,0.92928,-0.091129
135.5,7.78646,0.929133,-0.0910099
136,7.83568,0.923754,-0.0910101
136.5,7.88239,0.922276,-0.0922243
137,7.92948,0.929158,-0.0923931
137.5,7.97809,0.924552,-0.0910061
138,8.02586,0.913991,-0.09101
138.5,8.07368,0.91924,-0.0910076
139,8.12028,0.918402,-0.09237
139.5,8.1679,0.909531,-0.0923199
140,8.2163,0.914648,-0.0923211
140.5,8.26253,0.906682,-0.0911072
141,8.31005,0.906793,-0.0910097
141.5,8.35772,0.908695,-0.09101
142,8.40498,0.900885,-0.0910102
142.5,8.45241,0.89807,-0.0921531
143,8.50017,0.905581,-0.0923303
143.5,8.54677,0.895745,-0.0918021
144,8.59419,0.893314,-0.0910102
144.5,8.64202,0.89679,-0.09101
145,8.68935,0.892204,-0.0910104
145.5,8.73637,0.887028,-0.0913747
146,8.78354,0.893028,-0.0923292
146.5,8.83101,0.889948,-0.0926535
147,8.87836,0.894098,-0.0926809
147.5,8.9229,0.891413,-0.0923302
148,8.97325,0.888075,-0.0923642
148.5,9.02014,0.897227,-0.0913391
149,9.06727,0.881963,-0.09134
149.5,9.11447,0.888178,-0.0913401
150,9.15955,0.893181,-0.0923491
150.5,9.20675,0.898338,-0.0926511
151,9.25633,0.886258,-0.0933512
151.5,9.30412,0.892128,-0.0936408
152,9.3503,0.890058,-0.0922748
152.5,9.39715,0.901812,-0.0923301
153,9.44264,0.894536,-0.09233
153.5,9.49094,0.889338,-0.09233
154,9.53847,0.897394,-0.0923372
154.5,9.58511,0.894791,-0.091026
155,9.6336,0.891316,-0.0923303
155.5,9.67986,0.891174,-0.09233
156,9.72745,0.887568,-0.0923258
156.5,9.77371,0.89562,-0.0936465
157,9.82184,0.897541,-0.0936499
157.5,9.86818,0.899105,-0.0937239
158,9.91512,0.895682,-0.0923298
158.5,9.96249,0.901852,-0.09233
159,10.0102,0.899108,-0.0923122
159.5,10.0559,0.906381,-0.0936446
160,10.1035,0.905681,-0.0936388
160.5,10.1511,0.905952,-0.0925818
161,10.198,0.911436,-0.0926503
161.5,10.2452,0.908744,-0.0930135
162,10.2927,0.909738,-0.0936418
162.5,10.3401,0.912415,-0.0922833
163,10.3863,0.909504,-0.0923301
163.5,10.4337,0.907421,-0.09233
164,10.4808,0.905499,-0.092323
164.5,10.528,0.905639,-0.0936612
165,10.5757,0.912998,-0.09365
165.5,10.6215,0.913963,-0.0936681
166,10.6692,0.914649,-0.0949571
166.5,10.7169,0.912737,-0.0949601
167,10.7629,0.91728,-0.0950044
167.5,10.8091,0.914972,-0.0939685
168,10.8574,0.919548,-0.09397
168.5,10.9042,0.914793,-0.0939699
169,10.9524,0.914971,-0.0938722
169.5,10.9991,0.92032,-0.0952905
170,11.0463,0.921164,-0.0952898
170.5,11.0935,0.918739,-0.0949906
171,11.1394,0.93188,-0.0949598
171.5,11.1878,0.932669,-0.0949997
172,11.2343,0.936274,-0.0949555
172.5,11.2822,0.943829,-0.0943462
173,11.3293,0.940747,-0.0942999
173.5,11.3772,0.941163,-0.0943003
174,11.4234,0.939515,-0.0949279
174.5,11.4708,0.93974,-0.0956193
175,11.5175,0.948631,-0.095619
175.5,11.5646,0.946077,-0.0946374
176,11.6121,0.941586,-0.0951859
176.5,11.6588,0.94281,-0.0960198
177,11.7065,0.939844,-0.0959499
177.5,11.7535,0.939902,-0.0959545
178,11.8003,0.947332,-0.0946398
178.5,11.8476,0.947447,-0.09464
179,11.895,0.949225,-0.0946406
179.5,11.9431,0.948114,-0.0949663
180,11.9899,0.949937,-0.0949712
180.5,12.0357,0.954941,-0.0958501
181,12.0838,0.952829,-0.0962799
181.5,12.1299,0.959056,-0.09628
182,12.1779,0.960647,-0.09628
182.5,12.2248,0.964583,-0.0962796
183,12.2722,0.957559,-0.0973802
183.5,12.3191,0.962641,-0.0966209
184,12.3657,0.970538,-0.0975952
184.5,12.4134,0.970157,-0.0976
185,12.4606,0.970889,-0.0976
185.5,12.5072,0.977678,-0.0976
186,12.551,0.976514,-0.0975978
186.5,12.6011,0.982011,-0.0962781
187,12.6459,0.976892,-0.0962808
187.5,12.6961,0.979702,-0.0970547
188,12.7419,0.988472,-0.0975997
188.5,12.7876,0.991071,-0.0975997
189,12.8334,0.994306,-0.0977463
189.5,12.8834,0.993337,-0.0982193
190,12.9297,0.996335,-0.0989188
190.5,12.9766,1.00378,-0.0989261
191,13.0245,1.00381,-0.100571
191.5,13.0714,1.0068,-0.0999453
192,13.1182,1.00138,-0.100234
192.5,13.1649,1.00427,-0.10023
193,13.2128,1.00828,-0.101387
193.5,13.2589,1.00528,-0.101541
194,13.3065,1.01919,-0.101541
194.5,13.3536,1.01383,-0.100235
195,13.4013,1.01448,-0.10023
195.5,13.448,1.018,-0.10023
196,13.4949,1.01473,-0.101559
196.5,13.5412,1.01863,-0.101542
197,13.5887,1.02118,-0.102815
197.5,13.6354,1.02361,-0.10286
198,13.6808,1.02627,-0.10288
198.5,13.7291,1.0343,-0.104177
199,13.7761,1.03073,-0.10418
199.5,13.8232,1.03366,-0.10418
200,13.8704,1.04189,-0.1039
200.5,13.9176,1.04184,-0.101641
201,13.9652,1.04226,-0.10343
201.5,14.0124,1.04298,-0.104693
202,14.0575,1.04825,-0.106053
202.5,14.1059,1.05413,-0.10605
203,14.1523,1.06165,-0.10605
203.5,14.1991,1.06432,-0.106266
204,14.2473,1.06184,-0.107377
204.5,14.2934,1.06237,-0.108679
205,14.3404,1.0658,-0.106027
205.5,14.3873,1.0708,-0.105592
206,14.4347,1.07879,-0.10869
206.5,14.482,1.07826,-0.109136
207,14.5299,1.07568,-0.110009
207.5,14.5751,1.07942,-0.110639
208,14.6223,1.09132,-0.111335
208.5,14.6699,1.08427,-0.112618
209,14.7191,1.10138,-0.11263
209.5,14.7639,1.10779,-0.11263
210,14.812,1.11411,-0.11263
210.5,14.8588,1.12078,-0.113034
211,14.905,1.11608,-0.115268
211.5,14.9531,1.12812,-0.116104
212,15.0001,1.12763,-0.11659
212.5,15.0469,1.13512,-0.116681
213,15.0929,1.14592,-0.11791
213.5,15.1412,1.15575,-0.119239
214,15.188,1.16088,-0.120144
214.5,15.2359,1.16452,-0.12054
215,15.282,1.18228,-0.120684
215.5,15.329,1.18695,-0.12185
216,15.376,1.19998,-0.123186
216.5,15.4243,1.21496,-0.124494
217,15.4705,1.22959,-0.12448
217.5,15.5161,1.23634,-0.125814
218,15.5663,1.25537,-0.126574
218.5,15.6131,1.27381,-0.129291
219,15.66,1.29188,-0.129718
219.5,15.706,1.31626,-0.131054
220,15.7562,1.34805,-0.132399
220.5,15.8017,1.3591,-0.133751
221,15.8501,1.40307,-0.134994
221.5,15.898,1.44594,-0.136355
222,15.9454,1.49586,-0.137397
222.5,15.9935,1.56237,-0.138987
223,16.0414,1.6503,-0.140479
223.5,16.0904,1.76243,-0.141732
224,16.1388,1.91087,-0.143
224.5,16.1872,2.11973,-0.145516
225,16.2396,2.41547,-0.147637
225.5,16.2911,2.7914,-0.148984
226,16.3432,3.2344,-0.149853
226.5,16.3972,3.7445,-0.153253
227,16.4456,3.83359,-0.154991
227.5,16.4886,3.4408,-0.157905
228,16.5301,2.8862,-0.159069
228.5,16.5722,2.49408,-0.161167
229,16.6154,2.17401,-0.165033
229.5,16.6602,1.92579,-0.166346
230,16.7052,1.74037,-0.169761
230.5,16.7507,1.59451,-0.171008
231,16.7964,1.47697,-0.174636
231.5,16.8429,1.38968,-0.176585
232,16.889,1.32322,-0.179185
232.5,16.9347,1.26898,-0.18037
233,16.9803,1.24343,-0.182524
233.5,17.0288,1.21102,-0.185186
234,17.0756,1.19432,-0.188209
234.5,17.1226,1.17537,-0.191739
235,17.168,1.1695,-0.195414
235.5,17.2158,1.15956,-0.197297
236,17.2627,1.15557,-0.201127
236.5,17.3117,1.14921,-0.206365
237,17.3574,1.15496,-0.208985
237.5,17.4035,1.15285,-0.2124
238,17.4519,1.14762,-0.215936
238.5,17.4984,1.14806,-0.219654
239,17.5457,1.14754,-0.223745
239.5,17.593,1.15301,-0.228351
240,17.6398,1.16417,-0.230944
240.5,17.6872,1.17635,-0.234679
241,17.7342,1.18263,-0.240769
241.5,17.7816,1.18672,-0.244557
242,17.8286,1.19565,-0.249944
242.5,17.8769,1.21622,-0.255121
243,17.9236,1.24106,-0.260273
243.5,17.9708,1.27106,-0.266188
244,18.0191,1.30136,-0.271821
244.5,18.0663,1.34953,-0.275388
245,18.114,1.40691,-0.281929
245.5,18.1625,1.47411,-0.288052
246,18.2111,1.55283,-0.295445
246.5,18.2587,1.64294,-0.302323
247,18.3074,1.75023,-0.31105
247.5,18.356,1.88189,-0.317637
248,18.4052,2.04404,-0.326453
248.5,18.4545,2.22192,-0.336232
249,18.5033,2.41791,-0.347155
249.5,18.5535,2.64268,-0.358704
250,18.604,2.88656,-0.370201
250.5,18.6539,3.13847,-0.380703
251,18.7047,3.39092,-0.395662
251.5,18.7555,3.64584,-0.411693
252,18.8052,3.89279,-0.42512
252.5,18.8554,4.16351,-0.441433
253,18.9063,4.39628,-0.459153
253.5,18.9561,4.61009,-0.475931
254,19.0041,4.81103,-0.492951
254.5,19.0557,5.00399,-0.512873
255,19.1058,5.18172,-0.534535
255.5,19.1537,5.33622,-0.555411
256,19.204,5.47456,-0.577617
256.5,19.2537,5.60414,-0.602449
257,19.3018,5.70997,-0.627651
257.5,19.3509,5.80245,-0.653264
258,19.3987,5.876,-0.679555
258.5,19.4472,5.9516,-0.706021
259,19.4955,6.0067,-0.733154
259.5,19.5427,6.03877,-0.761659
260,19.5918,6.06305,-0.792992
260.5,19.6387,6.06461,-0.822333
261,19.6873,6.05681,-0.851983
261.5,19.7333,6.02237,-0.881662
262,19.7805,5.96721,-0.913169
262.5,19.8272,5.90246,-0.946933
263,19.8739,5.81959,-0.978267
263.5,19.9201,5.73357,-1.00821
264,19.967,5.63197,-1.03715
264.5,20.0124,5.51768,-1.06805
265,20.0583,5.39194,-1.09689
265.5,20.1046,5.24616,-1.12663
266,20.151,5.1045,-1.15615
266.5,20.1955,4.94158,-1.18306
267,20.2395,4.78704,-1.2082
267.5,20.286,4.60694,-1.23428
268,20.3323,4.42206,-1.26016
268.5,20.3766,4.24377,-1.28504
269,20.4224,4.04919,-1.30948
269.5,20.467,3.86151,-1.3328
270,20.5122,3.66331,-1.35595
270.5,20.5575,3.46743,-1.37749
271,20.6027,3.27587,-1.39728
271.5,20.6479,3.07348,-1.41717
272,20.6925,2.90203,-1.43617
272.5,20.7379,2.71416,-1.45478
273,20.7828,2.53061,-1.47249
273.5,20.8286,2.35002,-1.49058
274,20.8732,2.18979,-1.50459
274.5,20.9192,2.02752,-1.51936
275,20.9641,1.87798,-1.53379
275.5,21.0081,1.72926,-1.54755
276,21.0551,1.58886,-1.56245
276.5,21.1011,1.45348,-1.5739
277,21.1468,1.33677,-1.58555
277.5,21.1927,1.21684,-1.59689
278,21.2387,1.11052,-1.60747
278.5,21.2845,1.01888,-1.61828
279,21.3301,0.930861,-1.62231
279.5,21.3772,0.846358,-1.6357
280,21.4232,0.771651,-1.64659
280.5,21.4697,0.707138,-1.64928
281,21.5164,0.649471,-1.65769
281.5,21.5612,0.590595,-1.668
282,21.6096,0.56068,-1.67337
282.5,21.6559,0.513326,-1.67861
283,21.7034,0.486882,-1.6843
283.5,21.7503,0.455311,-1.69022
284,21.795,0.43921,-1.69444
284.5,21.8447,0.416444,-1.70043
285,21.8914,0.394668,-1.7043
285.5,21.9381,0.374172,-1.70776
286,21.9848,0.360924,-1.71351
286.5,22.0324,0.351472,-1.71822
287,22.0805,0.333302,-1.72432
287.5,22.127,0.314525,-1.72637
288,22.1744,0.299448,-1.72605
288.5,22.2223,0.305426,-1.73083
289,22.2688,0.285243,-1.73383
289.5,22.3159,0.28809,-1.73843
290,22.3632,0.279863,-1.74104
290.5,22.4111,0.266176,-1.74416
291,22.4577,0.253132,-1.74648
291.5,22.5052,0.2558,-1.75077
292,22.5525,0.246521,-1.75361
292.5,22.6008,0.23851,-1.75793
293,22.6476,0.229625,-1.76174
293.5,22.6954,0.222662,-1.76369
294,22.7421,0.215971,-1.7668
294.5,22.79,0.207786,-1.76937
295,22.8382,0.197524,-1.77154
295.5,22.8843,0.196042,-1.77462
296,22.9326,0.193732,-1.7775
296.5,22.979,0.183551,-1.77952
297,23.0266,0.182441,-1.78441
297.5,23.0738,0.183287,-1.78739
298,23.121,0.186182,-1.789
298.5,23.1681,0.175314,-1.79193
299,23.216,0.166519,-1.79508
299.5,23.2634,0.147228,-1.79578
300,23.3112,0.15438,-1.79905
300.5,23.3596,0.145185,-1.80181
301,23.4042,0.136425,-1.80516
301.5,23.4534,0.128943,-1.8085
302,23.5018,0.124901,-1.81134
302.5,23.5479,0.117778,-1.81184
303,23.5959,0.106951,-1.81619
303.5,23.6441,0.0970062,-1.81945
304,23.6914,0.0988128,-1.8212
304.5,23.7395,0.0886243,-1.82402
305,23.7866,0.0834367,-1.8263
305.5,23.8356,0.0818975,-1.82855
306,23.8816,0.0757463,-1.83152
306.5,23.9288,0.0682393,-1.83361
307,23.9771,0.0645271,-1.83663
307.5,24.0246,0.0578629,-1.83853
308,24.072,0.0605929,-1.84098
308.5,24.12,0.0621634,-1.84321
309,24.1675,0.0522687,-1.84672
309.5,24.2149,0.0456903,-1.85007
310,24.2617,0.0455282,-1.85415
310.5,24.3101,0.0412699,-1.856
311,24.356,0.0421949,-1.85717
311.5,24.404,0.0363606,-1.85949
312,24.4524,0.0219521,-1.86277
312.5,24.5012,0.0265581,-1.86423
313,24.5472,0.0199828,-1.86553
313.5,24.5961,0.0180082,-1.86887
314,24.6425,0.0224287,-1.87081
314.5,24.6905,0.0134029,-1.87402
315,24.7386,0.00946754,-1.88077
315.5,24.7865,0.0120171,-1.88173
316,24.8335,0.00914686,-1.88185
316.5,24.8825,0.00106698,-1.88355
317,24.9289,-0.00647771,-1.88609
317.5,24.9767,-0.0107671,-1.89029
318,25.024,-0.01905,-1.89266
318.5,25.0722,-0.0220525,-1.89569
319,25.1199,-0.0220044,-1.89727
319.5,25.1666,-0.0254471,-1.89955
320,25.2149,-0.0339888,-1.9031
320.5,25.2628,-0.0316017,-1.90535
321,25.3108,-0.0306631,-1.90706
321.5,25.3596,-0.0428258,-1.91054
322,25.4065,-0.0436543,-1.91425
322.5,25.4541,-0.0464245,-1.91632
323,25.5022,-0.0479621,-1.91829
323.5,25.549,-0.0525403,-1.92061
324,25.5974,-0.0465651,-1.92362
324.5,25.6445,-0.0611445,-1.92645
325,25.6929,-0.0705168,-1.9294
325.5,25.7414,-0.0680317,-1.93238
326,25.7886,-0.0703313,-1.93418
326.5,25.836,-0.0759256,-1.9374
327,25.8842,-0.0762096,-1.93916
327.5,25.9318,-0.0785677,-1.94149
328,25.9802,-0.0756558,-1.94443
328.5,26.0265,-0.0789109,-1.94649
329,26.0757,-0.0758687,-1.94923
329.5,26.1232,-0.075843,-1.95308
330,26.1705,-0.088719,-1.95577
330.5,26.2182,-0.0867978,-1.95878
331,26.2663,-0.0848627,-1.9607
331.5,26.3142,-0.0941592,-1.96256
332,26.3616,-0.0912305,-1.96718
332.5,26.4095,-0.0896298,-1.97056
333,26.4576,-0.102535,-1.97265
333.5,26.5062,-0.0906562,-1.97495
334,26.5535,-0.0932621,-1.97798
334.5,26.6009,-0.0969005,-1.97961
335,26.6499,-0.0877788,-1.98242
335.5,26.6979,-0.0916785,-1.98354
336,26.7461,-0.0913541,-1.98575
336.5,26.7934,-0.0872586,-1.98967
337,26.8407,-0.0831764,-1.9927
337.5,26.8889,-0.0834789,-1.99448
338,26.9378,-0.0853854,-1.99737
338.5,26.9854,-0.0844636,-1.99874
339,27.0333,-0.0749617,-2.00153
339.5,27.0803,-0.0786504,-2.00424
340,27.1294,-0.079211,-2.00645
340.5,27.1775,-0.0778179,-2.00939
341,27.2252,-0.0713541,-2.01159
341.5,27.2731,-0.0754542,-2.01385
342,27.3208,-0.068103,-2.01697
342.5,27.3694,-0.0642205,-2.01934
343,27.4175,-0.0641407,-2.02149
343.5,27.4662,-0.0620689,-2.02214
344,27.513,-0.0566566,-2.02549
344.5,27.5614,-0.053373,-2.02704
345,27.6103,-0.0521633,-2.02953
345.5,27.6581,-0.0434898,-2.03441
346,27.7059,-0.034338,-2.03635
346.5,27.7549,-0.0424112,-2.03825
347,27.8026,-0.0440918,-2.04098
347.5,27.8503,-0.0399156,-2.04308
348,27.898,-0.0329726,-2.0438
348.5,27.9461,-0.0338201,-2.04547
349,27.9953,-0.0247543,-2.04743
349.5,28.0437,-0.025306,-2.05135
350,28.0917,-0.0140219,-2.05438
350.5,28.1403,-0.0162914,-2.05608
351,28.1876,-0.00663591,-2.05818
351.5,28.2354,-0.00116965,-2.0618
352,28.2841,0.00248828,-2.06365
352.5,28.3316,0.00597452,-2.06494
353,28.3802,0.0114511,-2.06666
353.5,28.4295,0.0143379,-2.06862
354,28.477,0.0176004,-2.07117
354.5,28.525,0.0242332,-2.07248
355,28.5721,0.0320879,-2.07316
355.5,28.6211,0.0419395,-2.0753
356,28.6701,0.0412346,-2.07803
356.5,28.7185,0.0491669,-2.08052
357,28.7672,0.057804,-2.08151
357.5,28.8151,0.0614394,-2.08228
358,28.8632,0.0634116,-2.0839
358.5,28.9116,0.0642555,-2.0853
359,28.9599,0.0730876,-2.08864
359.5,29.0074,0.080209,-2.09032
360,29.0562,0.0871768,-2.09123
360.5,29.1055,0.0927021,-2.0932
361,29.1535,0.0930306,-2.09498
361.5,29.2013,0.106449,-2.09785
362,29.2499,0.107813,-2.10072
362.5,29.2984,0.10856,-2.10221
363,29.3469,0.119217,-2.10355
363.5,29.3935,0.118419,-2.10487
364,29.4417,0.12641,-2.10679
364.5,29.4917,0.139994,-2.10929
365,29.5402,0.135604,-2.11075
365.5,29.5891,0.138254,-2.11198
366,29.6377,0.148006,-2.1134
366.5,29.6844,0.151667,-2.11464
367,29.7344,0.144167,-2.1175
367.5,29.7826,0.151979,-2.11931
368,29.8305,0.15772,-2.12056
368.5,29.8796,0.169678,-2.12319
369,29.9287,0.16692,-2.12446
369.5,29.976,0.171563,-2.12715
370,30.0246,0.17664,-2.12846
370.5,30.0731,0.175732,-2.12865
371,30.1209,0.177707,-2.13061
371.5,30.1697,0.174576,-2.13187
372,30.2183,0.188187,-2.13318
372.5,30.2658,0.185539,-2.13449
373,30.3158,0.190646,-2.13593
373.5,30.3645,0.201007,-2.13688
374,30.4123,0.196702,-2.13717
374.5,30.4604,0.198483,-2.13815
375,30.5091,0.18994,-2.13988
375.5,30.558,0.199966,-2.14097
376,30.6065,0.200309,-2.14329
376.5,30.6548,0.208355,-2.14472
377,30.7026,0.202369,-2.14694
377.5,30.7517,0.202903,-2.14743
378,30.8002,0.203427,-2.14757
378.5,30.8489,0.214867,-2.14888
379,30.8969,0.218582,-2.15028
379.5,30.9458,0.211289,-2.15162
380,30.9939,0.219321,-2.15306
380.5,31.0429,0.214789,-2.15431
381,31.091,0.216924,-2.15565
381.5,31.1391,0.223749,-2.15713
382,31.1864,0.222993,-2.15873
382.5,31.2362,0.223915,-2.16009
383,31.2848,0.22298,-2.16129
383.5,31.3326,0.223303,-2.16209
384,31.3821,0.228734,-2.16334
384.5,31.4288,0.222284,-2.16496
385,31.4791,0.22753,-2.16825
385.5,31.528,0.23136,-2.16821
386,31.5764,0.234923,-2.16953
386.5,31.6244,0.2347,-2.17084
387,31.6732,0.235097,-2.17216
387.5,31.722,0.242581,-2.17279
388,31.769,0.232129,-2.17216
388.5,31.8189,0.23218,-2.1744
389,31.8677,0.235424,-2.17783
389.5,31.9159,0.237362,-2.17903
390,31.9653,0.241042,-2.17899
390.5,32.0134,0.239831,-2.1803
391,32.0611,0.23776,-2.18161
391.5,32.1107,0.234298,-2.18292
392,32.1592,0.231205,-2.18422
392.5,32.2076,0.237364,-2.18455
393,32.256,0.228722,-2.185
393.5,32.3048,0.242211,-2.18555
394,32.3529,0.235393,-2.18749
394.5,32.4012,0.228749,-2.18868
395,32.4503,0.230381,-2.1896
395.5,32.4991,0.22843,-2.19093
396,32.5471,0.231374,-2.19225
396.5,32.5953,0.232744,-2.19357
397,32.6452,0.23894,-2.19357
397.5,32.6944,0.227694,-2.19499
398,32.742,0.222597,-2.19632
398.5,32.7899,0.229321,-2.19655
399,32.8393,0.226134,-2.19783
399.5,32.8878,0.22565,-2.19798
400,32.9364,0.215997,-2.20007
400.5,32.9852,0.220915,-2.20059
401,33.0325,0.218717,-2.20183
401.5,33.0822,0.21506,-2.20237
402,33.1314,0.223032,-2.20568
402.5,33.1796,0.216166,-2.20725
403,33.2282,0.220389,-2.20846
403.5,33.2758,0.217283,-2.20983
404,33.3254,0.219283,-2.21091
404.5,33.3729,0.215767,-2.21117
405,33.4225,0.227972,-2.21113
405.5,33.4719,0.215252,-2.21237
406,33.5204,0.220891,-2.21481
406.5,33.5688,0.222532,-2.21519
407,33.6172,0.218681,-2.21649
407.5,33.6637,0.214961,-2.21777
408,33.7144,0.221998,-2.21782
408.5,33.764,0.223211,-2.21914
409,33.8125,0.225143,-2.21903
409.5,33.8593,0.230813,-2.21906
410,33.9106,0.228132,-2.22057
410.5,33.9595,0.228608,-2.22265
411,34.0072,0.228657,-2.2232
411.5,34.0539,0.222757,-2.22582
412,34.1019,0.232595,-2.22582
412.5,34.1542,0.232079,-2.22585
413,34.2023,0.229209,-2.22763
413.5,34.2514,0.235041,-2.22848
414,34.2998,0.235951,-2.22985
414.5,34.3489,0.244175,-2.23167
415,34.3976,0.241305,-2.23179
415.5,34.447,0.241193,-2.23306
416,34.4953,0.245051,-2.2344
416.5,34.5447,0.244779,-2.23572
417,34.591,0.250735,-2.23707
417.5,34.6406,0.247583,-2.23736
418,34.6898,0.254064,-2.23836
418.5,34.7388,0.253392,-2.23968
419,34.7876,0.26046,-2.24104
419.5,34.8363,0.257092,-2.24231
420,34.8853,0.259571,-2.24303
420.5,34.934,0.257667,-2.24363
421,34.9831,0.263392,-2.24363
421.5,35.0321,0.265757,-2.24493
422,35.0805,0.273394,-2.24567
422.5,35.1286,0.26896,-2.24568
423,35.1782,0.269693,-2.24654
423.5,35.2266,0.27427,-2.24885
424,35.2754,0.271202,-2.25033
424.5,35.3244,0.273775,-2.25164
425,35.3733,0.273739,-2.25298
425.5,35.4224,0.28252,-2.25427
426,35.471,0.279095,-2.25477
426.5,35.52,0.286451,-2.25475
427,35.5684,0.285493,-2.25722
427.5,35.6156,0.286595,-2.25823
428,35.6661,0.285469,-2.25815
428.5,35.7156,0.289272,-2.25826
429,35.7653,0.290051,-2.25955
429.5,35.813,0.290642,-2.2609
430,35.8615,0.285243,-2.26204
430.5,35.912,0.286898,-2.26327
431,35.9598,0.295181,-2.26475
431.5,36.0092,0.303922,-2.26479
432,36.0579,0.297331,-2.26614
432.5,36.1062,0.299371,-2.26723
433,36.1532,0.301206,-2.26799
433.5,36.2042,0.314252,-2.26876
434,36.2529,0.31088,-2.27108
434.5,36.3015,0.315182,-2.27242
435,36.3502,0.320911,-2.27237
435.5,36.3998,0.317001,-2.2724
436,36.4475,0.320681,-2.2736
436.5,36.497,0.325867,-2.27511
437,36.5447,0.336631,-2.27568
437.5,36.5945,0.337944,-2.27731
438,36.6442,0.334312,-2.2791
438.5,36.6936,0.346797,-2.28033
439,36.7421,0.340051,-2.28032
439.5,36.7912,0.34723,-2.28172
440,36.8397,0.349422,-2.28297
440.5,36.8892,0.353796,-2.28455
441,36.9377,0.364781,-2.28563
441.5,36.9873,0.358587,-2.28579
442,37.0335,0.36109,-2.28578
442.5,37.0843,0.362743,-2.2871
443,37.133,0.36299,-2.28793
443.5,37.182,0.366991,-2.2898
444,37.2306,0.371285,-2.28983
444.5,37.28,0.371644,-2.29117
445,37.3286,0.371164,-2.29249
445.5,37.3777,0.373095,-2.2938
446,37.4268,0.37792,-2.29525
446.5,37.4756,0.376655,-2.29665
447,37.5247,0.375054,-2.29797
447.5,37.5744,0.38563,-2.29801
448,37.6228,0.388379,-2.29796
448.5,37.6715,0.38339,-2.29931
449,37.7218,0.39178,-2.3006
449.5,37.7695,0.385931,-2.3019
450,37.8193,0.392624,-2.30216
450.5,37.8679,0.3984,-2.3055
451,37.9173,0.404137,-2.30667
451.5,37.9659,0.401417,-2.30748
452,38.0149,0.398164,-2.30744
452.5,38.0645,0.397005,-2.30838
453,38.113,0.397546,-2.30938
453.5,38.1622,0.402492,-2.3105
454,38.2107,0.399025,-2.31209
454.5,38.2603,0.399719,-2.31429
455,38.3086,0.40183,-2.31761
455.5,38.3589,0.405387,-2.31575
456,38.4069,0.400749,-2.31574
456.5,38.4559,0.404538,-2.31576
457,38.5052,0.406398,-2.31857
457.5,38.5534,0.407223,-2.31982
458,38.603,0.409869,-2.32116
458.5,38.6518,0.413294,-2.32248
459,38.7016,0.411412,-2.32382
459.5,38.7504,0.402871,-2.32512
460,38.7998,0.412065,-2.32619
460.5,38.8479,0.419953,-2.32653
461,38.897,0.422457,-2.32782
461.5,38.9459,0.418845,-2.32847
462,38.9959,0.419974,-2.32986
462.5,39.0447,0.41225,-2.33113
463,39.0933,0.414515,-2.33244
463.5,39.1426,0.418426,-2.33376
464,39.192,0.424286,-2.3342
464.5,39.2412,0.425104,-2.33499
465,39.2901,0.420986,-2.33643
465.5,39.3373,0.414815,-2.33772
466,39.3882,0.41307,-2.33837
466.5,39.4374,0.425314,-2.33969
467,39.4864,0.42218,-2.34163
467.5,39.5352,0.427728,-2.34271
468,39.5843,0.424294,-2.34374
468.5,39.6336,0.427407,-2.34507
469,39.6831,0.422681,-2.34591
469.5,39.7321,0.42525,-2.34749
470,39.7813,0.424974,-2.34872
470.5,39.8297,0.426833,-2.34897
471,39.8784,0.43015,-2.35034
471.5,39.9278,0.422005,-2.35163
472,39.9766,0.428675,-2.35298
472.5,40.0261,0.426916,-2.35331
473,40.0753,0.425803,-2.35461
473.5,40.1241,0.41654,-2.35594
474,40.1733,0.417287,-2.35725
474.5,40.2226,0.419551,-2.35858
475,40.2713,0.422659,-2.3599
475.5,40.3206,0.418796,-2.36241
476,40.3702,0.418419,-2.36368
476.5,40.4186,0.41434,-2.3637
477,40.4677,0.414581,-2.36421
477.5,40.517,0.408685,-2.36503
478,40.5654,0.412178,-2.36504
478.5,40.6142,0.410543,-2.36636
479,40.6643,0.412658,-2.36768
479.5,40.7144,0.405199,-2.369
480,40.7624,0.412702,-2.37026
480.5,40.8111,0.408046,-2.37327
481,40.8608,0.400091,-2.37184
481.5,40.9095,0.395685,-2.3732
482,40.9587,0.396297,-2.37563
482.5,41.0079,0.392586,-2.37562
483,41.0569,0.391418,-2.37627
483.5,41.1063,0.378316,-2.37559
484,41.1551,0.386834,-2.37824
484.5,41.2051,0.375493,-2.37953
485,41.2517,0.379797,-2.38085
485.5,41.3022,0.371515,-2.38077
486,41.3519,0.364327,-2.38232
486.5,41.3995,0.366682,-2.38351
487,41.4503,0.36713,-2.38481
487.5,41.4996,0.3629,-2.38487
488,41.5489,0.363923,-2.38702
488.5,41.5983,0.348718,-2.38733
489,41.6475,0.350043,-2.38788
489.5,41.6963,0.348082,-2.38923
490,41.7445,0.354042,-2.39051
490.5,41.7959,0.3449,-2.39059
491,41.8446,0.341826,-2.39313
491.5,41.8937,0.336489,-2.39447
492,41.9432,0.334553,-2.39449
492.5,41.9926,0.323006,-2.39581
493,42.0417,0.322927,-2.39719
493.5,42.0904,0.31585,-2.3971
494,42.1406,0.317218,-2.39705
494.5,42.1891,0.308533,-2.39844
495,42.239,0.305273,-2.40077
495.5,42.2882,0.305919,-2.40064
496,42.3378,0.296235,-2.40204
496.5,42.3867,0.287067,-2.40257
497,42.4365,0.280662,-2.40387
497.5,42.4851,0.279689,-2.40468
498,42.5342,0.275802,-2.40599
498.5,42.5826,0.279406,-2.40599
499,42.6325,0.265391,-2.40601
499.5,42.6824,0.263504,-2.40603
500,42.7334,0.270149,-2.40732
500.5,42.7814,0.260641,-2.40864
501,42.8317,0.257056,-2.40864
501.5,42.8794,0.258271,-2.40996
502,42.9288,0.25781,-2.41058
502.5,42.9793,0.255398,-2.41193
503,43.0288,0.254159,-2.41192
503.5,43.0784,0.244592,-2.41336
504,43.1277,0.241709,-2.41467
504.5,43.1774,0.236451,-2.41466
505,43.2267,0.239781,-2.4154
505.5,43.275,0.233985,-2.41675
506,43.3254,0.236144,-2.41829
506.5,43.3744,0.229132,-2.41875
507,43.4223,0.215972,-2.41829
507.5,43.4737,0.213148,-2.4183
508,43.5215,0.200289,-2.41886
508.5,43.5713,0.206521,-2.41967
509,43.6214,0.202493,-2.42091
509.5,43.669,0.203781,-2.42093
510,43.7187,0.204644,-2.42093
510.5,43.7701,0.197516,-2.42235
511,43.8186,0.193487,-2.42085
511.5,43.8676,0.196651,-2.4234
512,43.9169,0.193945,-2.42366
512.5,43.9669,0.186433,-2.42489
513,44.0159,0.18139,-2.42619
513.5,44.0664,0.181086,-2.42616
514,44.1152,0.177525,-2.42653
514.5,44.1649,0.161939,-2.42753
515,44.2145,0.166602,-2.42653
515.5,44.2635,0.168745,-2.42654
516,44.3132,0.165839,-2.42784
516.5,44.3627,0.177194,-2.42784
517,44.4112,0.169978,-2.42795
517.5,44.4607,0.166287,-2.42904
518,44.5096,0.162867,-2.43048
518.5,44.5599,0.161312,-2.43048
519,44.61,0.164419,-2.43177
519.5,44.6593,0.161316,-2.43181
520,44.7087,0.156928,-2.43048
520.5,44.7582,0.15906,-2.43177
521,44.8076,0.154909,-2.4318
521.5,44.8582,0.15833,-2.43212
522,44.9065,0.147266,-2.43214
522.5,44.9556,0.153836,-2.43344
523,45.0054,0.153044,-2.43478
523.5,45.0542,0.147254,-2.43475
524,45.103,0.144673,-2.43546
524.5,45.1533,0.145736,-2.43542
525,45.2026,0.147504,-2.43665
525.5,45.2525,0.140976,-2.43673
526,45.3023,0.141925,-2.43673
526.5,45.3504,0.139387,-2.43785
527,45.4003,0.139554,-2.43805
527.5,45.4495,0.139329,-2.43805
528,45.4992,0.13637,-2.43847
528.5,45.549,0.134613,-2.44036
529,45.5981,0.128919,-2.44157
529.5,45.6475,0.131953,-2.44168
530,45.6961,0.13186,-2.44172
530.5,45.7456,0.124552,-2.44167
531,45.7935,0.129981,-2.44299
531.5,45.8444,0.133282,-2.44298
532,45.8942,0.130274,-2.44169
532.5,45.9432,0.132605,-2.44168
533,45.9926,0.128934,-2.44185
533.5,46.0416,0.126569,-2.443
534,46.092,0.124784,-2.44294
534.5,46.1409,0.129285,-2.44531
535,46.1909,0.130279,-2.44562
535.5,46.2395,0.134262,-2.44699
536,46.2894,0.130006,-2.44557
536.5,46.3381,0.135621,-2.44696
537,46.3885,0.13783,-2.44687
537.5,46.438,0.135811,-2.44827
538,46.488,0.139224,-2.44827
538.5,46.537,0.141775,-2.44963
539,46.5869,0.136754,-2.44958
539.5,46.6364,0.141439,-2.44958
540,46.6858,0.138467,-2.44956
540.5,46.736,0.140159,-2.4509
541,46.7865,0.139717,-2.45315
541.5,46.835,0.143345,-2.45553
542,46.8846,0.144311,-2.45368
542.5,46.9337,0.145765,-2.45171
543,46.9839,0.148726,-2.45139
543.5,47.0322,0.143586,-2.45111
544,47.0835,0.145859,-2.45107
544.5,47.1319,0.147004,-2.45375
545,47.1817,0.142391,-2.45375
545.5,47.23,0.142459,-2.45375
546,47.2821,0.152663,-2.45366
546.5,47.3312,0.144505,-2.45574
547,47.3803,0.141625,-2.45668
547.5,47.4303,0.142828,-2.45705
548,47.4799,0.139984,-2.45712
548.5,47.5294,0.147922,-2.45682
549,47.5795,0.143217,-2.45705
549.5,47.6294,0.142039,-2.45706
550,47.6791,0.141919,-2.45836
550.5,47.7298,0.14345,-2.4597
551,47.7787,0.14125,-2.45968
551.5,47.8292,0.139898,-2.45968
552,47.8782,0.139422,-2.45968
552.5,47.9288,0.143555,-2.45968
553,47.9778,0.136735,-2.45968
553.5,48.0283,0.142369,-2.45965
554,48.0773,0.143955,-2.461
554.5,48.1271,0.139276,-2.46101
555,48.1769,0.143018,-2.46231
555.5,48.2264,0.145312,-2.46232
556,48.2763,0.143329,-2.46229
556.5,48.3247,0.137421,-2.46363
557,48.374,0.144774,-2.46227
557.5,48.4243,0.144571,-2.46231
558,48.4751,0.140445,-2.46363
558.5,48.5259,0.134981,-2.46363
559,48.5743,0.129671,-2.46463
559.5,48.6254,0.1351,-2.46594
560,48.6754,0.13264,-2.46594
560.5,48.7249,0.12979,-2.46726
561,48.774,0.135289,-2.46725
561.5,48.8232,0.128715,-2.46725
562,48.8744,0.130638,-2.46725
562.5,48.9235,0.133635,-2.46631
563,48.9734,0.12887,-2.46716
563.5,49.0232,0.13197,-2.46759
564,49.073,0.128722,-2.46857
564.5,49.1226,0.121163,-2.46862
565,49.1727,0.125173,-2.46857
565.5,49.2232,0.130717,-2.46857
566,49.2721,0.125557,-2.46979
566.5,49.3223,0.13049,-2.46989
567,49.3724,0.122944,-2.46988
567.5,49.4223,0.118852,-2.46991
568,49.4722,0.125392,-2.46985
568.5,49.5213,0.124658,-2.47066
569,49.5709,0.115934,-2.47186
569.5,49.6211,0.119539,-2.47185
570,49.6707,0.113309,-2.47318
570.5,49.721,0.121077,-2.47318
571,49.7711,0.114608,-2.4742
571.5,49.8205,0.114698,-2.4745
572,49.871,0.116279,-2.4739
572.5,49.9208,0.109455,-2.47352
573,49.9704,0.106243,-2.47351
573.5,50.0207,0.110272,-2.47484
574,50.0704,0.110423,-2.47483
574.5,50.1198,0.109212,-2.47612
575,50.1699,0.110593,-2.47615
575.5,50.2204,0.120056,-2.47615
576,50.2702,0.109363,-2.47615
576.5,50.3203,0.114533,-2.47615
577,50.3677,0.113242,-2.47607
577.5,50.4202,0.107349,-2.47714
578,50.4696,0.108412,-2.47741
578.5,50.5201,0.106209,-2.47796
579,50.5695,0.11134,-2.47714
579.5,50.6196,0.108018,-2.47713
580,50.6695,0.113042,-2.47996
580.5,50.7193,0.106934,-2.47988
581,50.769,0.107309,-2.47988
581.5,50.8189,0.10487,-2.48001
582,50.8678,0.10807,-2.48
582.5,50.9176,0.110156,-2.47989
583,50.9688,0.102005,-2.48118
583.5,51.0167,0.113378,-2.4812
584,51.0672,0.0999301,-2.4812
584.5,51.1173,0.100658,-2.4812
585,51.1672,0.100878,-2.48121
585.5,51.2163,0.0993091,-2.48253
586,51.2676,0.0973715,-2.48512
586.5,51.3166,0.0943239,-2.48515
587,51.3668,0.098283,-2.48599
587.5,51.4167,0.101324,-2.48646
588,51.4659,0.100392,-2.48516
588.5,51.5154,0.099554,-2.48515
589,51.5657,0.0993236,-2.48589
589.5,51.6161,0.0965552,-2.48647
590,51.6658,0.103789,-2.48647
590.5,51.7159,0.103672,-2.48647
591,51.7664,0.103143,-2.48649
591.5,51.8152,0.104967,-2.48779
592,51.8659,0.114213,-2.48779
592.5,51.9152,0.113533,-2.48779
593,51.965,0.107034,-2.4891
593.5,52.0135,0.106049,-2.4891
594,52.0638,0.106574,-2.48969
594.5,52.1152,0.109759,-2.49042
595,52.1654,0.114698,-2.4904
595.5,52.2156,0.111636,-2.48909
596,52.2646,0.107255,-2.49042
596.5,52.3158,0.114543,-2.49042
597,52.3653,0.115402,-2.49042
597.5,52.4144,0.114294,-2.49073
598,52.4653,0.119719,-2.49141
598.5,52.5153,0.112271,-2.49141
599,52.5655,0.12287,-2.49173
599.5,52.6151,0.129214,-2.49211
600,52.6659,0.130878,-2.49467
600.5,52.7163,0.138141,-2.49237
601,52.7663,0.136651,-2.49184
601.5,52.8158,0.135599,-2.49184
602,52.8664,0.131231,-2.49184
602.5,52.9164,0.135326,-2.49214
603,52.9668,0.131787,-2.49218
603.5,53.017,0.139568,-2.49359
604,53.0677,0.143744,-2.49486
604.5,53.1174,0.139724,-2.49489
605,53.1679,0.141602,-2.49481
605.5,53.2178,0.140225,-2.49481
606,53.2687,0.144078,-2.49481
606.5,53.3181,0.148194,-2.49496
607,53.3682,0.141122,-2.49613
607.5,53.418,0.145089,-2.49613
608,53.4687,0.145961,-2.49606
608.5,53.5182,0.147271,-2.49818
609,53.5688,0.147051,-2.49839
609.5,53.6192,0.146672,-2.49975
610,53.6669,0.150016,-2.49972
610.5,53.7183,0.163175,-2.50106
611,53.769,0.15688,-2.50106
611.5,53.8192,0.15616,-2.50106
612,53.8688,0.161097,-2.50106
612.5,53.9188,0.155677,-2.50107
613,53.9687,0.155662,-2.49977
613.5,54.019,0.1637,-2.50107
614,54.0688,0.164906,-2.50107
614.5,54.1195,0.174449,-2.50211
615,54.1693,0.171769,-2.50239
615.5,54.2173,0.173644,-2.50239
616,54.2693,0.17516,-2.50104
616.5,54.3192,0.169473,-2.50238
617,54.3697,0.176227,-2.50106
617.5,54.4196,0.181819,-2.50107
618,54.4697,0.17734,-2.50239
618.5,54.5199,0.183971,-2.50238
619,54.5689,0.186933,-2.50394
619.5,54.6189,0.188098,-2.50469
620,54.6699,0.194094,-2.50495
620.5,54.7192,0.188528,-2.50601
621,54.7681,0.189117,-2.50603
621.5,54.8196,0.192266,-2.50568
622,54.8702,0.19402,-2.50678
622.5,54.92,0.199404,-2.507
623,54.9697,0.203687,-2.507
623.5,55.0203,0.201443,-2.507
624,55.0691,0.203934,-2.507
624.5,55.1202,0.207852,-2.50601
625,55.1693,0.210826,-2.50702
625.5,55.2203,0.21084,-2.50864
626,55.2693,0.211554,-2.50873
626.5,55.3202,0.204062,-2.50995
627,55.3694,0.212956,-2.50996
627.5,55.4201,0.209881,-2.50996
628,55.4705,0.213212,-2.51007
628.5,55.5188,0.211688,-2.51029
629,55.5706,0.223063,-2.51029
629.5,55.6203,0.215993,-2.51156
630,55.671,0.222223,-2.51163
630.5,55.7205,0.225257,-2.51288
631,55.7704,0.227288,-2.5126
631.5,55.8213,0.225563,-2.51127
632,55.8706,0.227226,-2.51239
632.5,55.921,0.238599,-2.51259
633,55.9706,0.237805,-2.51302
633.5,56.0207,0.235818,-2.5126
634,56.0702,0.233337,-2.51388
634.5,56.1201,0.23527,-2.51392
635,56.1706,0.238135,-2.51392
635.5,56.2208,0.241761,-2.51391
636,56.2702,0.241886,-2.51621
636.5,56.3203,0.243284,-2.51621
637,56.3705,0.241267,-2.5175
637.5,56.4203,0.244613,-2.5172
638,56.4704,0.244193,-2.51696
638.5,56.5201,0.245356,-2.51622
639,56.5711,0.245263,-2.51622
639.5,56.6207,0.247718,-2.51728
640,56.6703,0.249053,-2.51852
640.5,56.7211,0.248287,-2.51852
641,56.7712,0.24876,-2.51952
641.5,56.8208,0.246438,-2.51978
642,56.8702,0.247453,-2.52115
642.5,56.9201,0.248527,-2.52115
643,56.9706,0.254629,-2.52156
643.5,57.0211,0.256707,-2.52149
644,57.0713,0.263507,-2.5213
644.5,57.1182,0.270604,-2.52116
645,57.1689,0.259435,-2.52116
645.5,57.2209,0.268286,-2.52255
646,57.2686,0.259106,-2.52368
646.5,57.3207,0.274516,-2.52266
647,57.3713,0.282869,-2.52248
647.5,57.4213,0.280286,-2.5224
648,57.4687,0.278738,-2.5238
648.5,57.5202,0.271925,-2.52381
649,57.5713,0.276125,-2.52405
649.5,57.6214,0.273731,-2.52379
650,57.6701,0.285045,-2.52379
650.5,57.7208,0.281316,-2.52509
651,57.7711,0.272337,-2.52649
651.5,57.8217,0.274612,-2.52643
652,57.8723,0.278482,-2.52643
652.5,57.921,0.274945,-2.5251
653,57.9721,0.282324,-2.52642
653.5,58.0224,0.279966,-2.52772
654,58.0723,0.275934,-2.52906
654.5,58.1224,0.274526,-2.52774
655,58.1709,0.277965,-2.52905
655.5,58.2226,0.276232,-2.52906
656,58.2725,0.281643,-2.52906
656.5,58.3222,0.282875,-2.52906
657,58.3734,0.283932,-2.52906
657.5,58.423,0.280046,-2.53049
658,58.473,0.289653,-2.53049
658.5,58.5229,0.290226,-2.53041
659,58.5734,0.280526,-2.53181
659.5,58.6231,0.291005,-2.53201
660,58.6734,0.293464,-2.53174
660.5,58.7238,0.298907,-2.5318
661,58.7738,0.297974,-2.5318
661.5,58.8242,0.29862,-2.5318
662,58.874,0.305871,-2.53312
662.5,58.9239,0.301854,-2.53312
663,58.9741,0.302782,-2.53312
663.5,59.0254,0.310311,-2.53443
664,59.0748,0.30487,-2.53314
664.5,59.125,0.306478,-2.53444
665,59.1747,0.308689,-2.53444
665.5,59.2259,0.308595,-2.53444
666,59.277,0.318712,-2.53576
666.5,59.3252,0.317518,-2.53576
667,59.3762,0.318144,-2.53576
667.5,59.4257,0.321005,-2.53609
668,59.476,0.317297,-2.53644
668.5,59.5268,0.320345,-2.53708
669,59.5768,0.328183,-2.53704
669.5,59.6268,0.329846,-2.5384
670,59.6772,0.32843,-2.53805
670.5,59.7277,0.325841,-2.53802
671,59.7775,0.328488,-2.53839
671.5,59.828,0.327281,-2.53839
672,59.8781,0.333728,-2.53855
672.5,59.9286,0.334942,-2.53971
673,59.9788,0.340345,-2.54083
673.5,60.0288,0.336897,-2.54169
674,60.0779,0.345147,-2.54169
674.5,60.1267,0.346367,-2.54301
675,60.1794,0.346179,-2.54299
675.5,60.2295,0.351316,-2.54169
676,60.2781,0.357057,-2.54171
676.5,60.3295,0.350685,-2.54324
677,60.3794,0.353409,-2.54405
677.5,60.4304,0.355188,-2.54373
678,60.4807,0.355198,-2.54366
678.5,60.531,0.354345,-2.54434
679,60.5815,0.368226,-2.54536
679.5,60.6311,0.362039,-2.54564
680,60.6822,0.358178,-2.54743
680.5,60.7317,0.359598,-2.54757
681,60.7823,0.366164,-2.54899
681.5,60.8321,0.361652,-2.54761
682,60.8826,0.366293,-2.54761
682.5,60.9326,0.365635,-2.54761
683,60.9824,0.368017,-2.54763
683.5,61.0322,0.36442,-2.54893
684,61.0832,0.366348,-2.54893
684.5,61.134,0.37376,-2.54893
685,61.1816,0.363798,-2.54891
685.5,61.2341,0.364556,-2.55027
686,61.2849,0.366903,-2.55025
686.5,61.3339,0.368551,-2.55025
687,61.3828,0.362403,-2.55073
687.5,61.4354,0.354534,-2.5526
688,61.4857,0.358362,-2.55156
688.5,61.5364,0.355562,-2.55236
689,61.5864,0.356141,-2.55288
689.5,61.6357,0.355267,-2.55286
690,61.6864,0.346948,-2.55555
690.5,61.737,0.345906,-2.55561
691,61.7878,0.345558,-2.5542
691.5,61.8381,0.335138,-2.55331
692,61.8881,0.335516,-2.55384
692.5,61.9392,0.323919,-2.55421
693,61.9882,0.321068,-2.55556
693.5,62.038,0.317427,-2.55552
694,62.0899,0.315529,-2.55551
694.5,62.1398,0.306813,-2.55684
695,62.1909,0.31018,-2.55684
695.5,62.2413,0.297698,-2.55801
696,62.2922,0.294442,-2.55816
696.5,62.3408,0.299232,-2.55816
697,62.3922,0.289531,-2.55817
697.5,62.4425,0.287307,-2.55906
698,62.4913,0.290933,-2.55942
698.5,62.5437,0.285532,-2.55971
699,62.5936,0.28071,-2.5598
699.5,62.6444,0.275963,-2.55979
700,62.6945,0.275346,-2.56112
700.5,62.7446,0.27229,-2.56211
701,62.7964,0.273143,-2.56247
701.5,62.8467,0.276971,-2.56245
702,62.8967,0.279215,-2.56375
702.5,62.9479,0.275688,-2.56338
703,62.9974,0.27711,-2.56407
703.5,63.0478,0.271394,-2.56427
704,63.0986,0.270413,-2.56341
704.5,63.1474,0.267331,-2.5639
705,63.2001,0.268757,-2.5659
705.5,63.2501,0.263365,-2.56606
706,63.3007,0.270302,-2.56607
706.5,63.351,0.269065,-2.56464
707,63.4021,0.274565,-2.56606
707.5,63.4517,0.27008,-2.56725
708,63.5031,0.268707,-2.56737
708.5,63.5528,0.265443,-2.56735
709,63.6042,0.26147,-2.57002
709.5,63.6542,0.256437,-2.56868
710,63.7055,0.255682,-2.57001
710.5,63.7557,0.243146,-2.5687
711,63.8069,0.234594,-2.57002
711.5,63.8568,0.241699,-2.57002
712,63.9072,0.241433,-2.57002
712.5,63.958,0.24104,-2.57129
713,64.0084,0.238251,-2.57264
713.5,64.0588,0.244165,-2.57288
714,64.1091,0.244914,-2.57265
714.5,64.1607,0.236719,-2.57261
715,64.2108,0.231956,-2.57397
715.5,64.2621,0.233058,-2.57532
716,64.3116,0.233187,-2.57529
716.5,64.363,0.234384,-2.57529
717,64.4131,0.229695,-2.5755
717.5,64.4634,0.219843,-2.5766
718,64.5144,0.222755,-2.57724
718.5,64.5649,0.22282,-2.57792
719,64.6153,0.21876,-2.57792
719.5,64.6651,0.22065,-2.57923
720,64.7162,0.223792,-2.57924
720.5,64.7672,0.231712,-2.57924
721,64.8173,0.214608,-2.57982
721.5,64.8672,0.217151,-2.58018
722,64.917,0.208333,-2.58093
722.5,64.9694,0.214077,-2.58088
723,65.0193,0.210455,-2.58088
723.5,65.0697,0.206496,-2.58217
724,65.1201,0.211888,-2.58343
724.5,65.169,0.210592,-2.58385
725,65.2209,0.217125,-2.58512
725.5,65.2714,0.207868,-2.58528
726,65.3216,0.193804,-2.58551
726.5,65.3723,0.194047,-2.58637
727,65.4228,0.193957,-2.58648
727.5,65.473,0.188587,-2.587
728,65.5232,0.188212,-2.58717
728.5,65.5735,0.178208,-2.58648
729,65.6239,0.169963,-2.58724
729.5,65.6743,0.168397,-2.58911
730,65.7253,0.162948,-2.58921
730.5,65.7755,0.163568,-2.59142
731,65.8266,0.158377,-2.59142
731.5,65.8759,0.162019,-2.59218
732,65.9262,0.148882,-2.59257
732.5,65.9753,0.148254,-2.59142
733,66.0272,0.142407,-2.59274
733.5,66.078,0.142234,-2.59406
734,66.1284,0.13753,-2.59405
734.5,66.1784,0.132328,-2.59405
735,66.2285,0.124865,-2.59397
735.5,66.2785,0.123515,-2.59537
736,66.329,0.123608,-2.59405
736.5,66.3801,0.123659,-2.59541
737,66.4287,0.118158,-2.59538
737.5,66.48,0.117706,-2.59667
738,66.5311,0.116146,-2.59632
738.5,66.5816,0.117166,-2.59667
739,66.632,0.117112,-2.59966
739.5,66.6828,0.10421,-2.60155
740,66.7327,0.105039,-2.59871
740.5,66.7823,0.106589,-2.59871
741,66.8347,0.09711,-2.59878
741.5,66.885,0.100116,-2.59983
742,66.9353,0.0886877,-2.60009
742.5,66.9853,0.0839302,-2.60142
743,67.0362,0.085934,-2.60146
743.5,67.0871,0.078372,-2.60141
744,67.1376,0.0700769,-2.60142
744.5,67.1886,0.0752392,-2.60271
745,67.2385,0.0660325,-2.60273
745.5,67.2894,0.0560129,-2.60382
746,67.3388,0.0540219,-2.60373
746.5,67.3911,0.054736,-2.60404
747,67.4412,0.0530774,-2.60533
747.5,67.4923,0.0493078,-2.60668
748,67.5425,0.0449478,-2.60668
748.5,67.5929,0.0378037,-2.6067
749,67.644,0.0345172,-2.60767
749.5,67.6949,0.029831,-2.608
750,67.7456,0.0274189,-2.60665
750.5,67.7952,0.0222993,-2.60668
751,67.8455,0.0155642,-2.60668
751.5,67.8972,0.0129127,-2.6093
752,67.9475,0.0113904,-2.60931
752.5,67.9974,0.00969394,-2.60931
753,68.0482,0.000389245,-2.60931
753.5,68.0995,0.00165286,-2.60927
754,68.1495,-0.00291449,-2.60961
754.5,68.2002,-0.00438929,-2.61028
755,68.2511,-0.00966928,-2.61165
755.5,68.3018,-0.01443,-2.61176
756,68.3523,-0.026517,-2.61162
756.5,68.4028,-0.0273188,-2.61162
757,68.454,-0.032971,-2.61289
757.5,68.5041,-0.0447942,-2.61293
758,68.5548,-0.0474218,-2.61293
758.5,68.6034,-0.0454443,-2.61425
759,68.6561,-0.0550777,-2.61424
759.5,68.7065,-0.0576842,-2.61308
760,68.7573,-0.0553854,-2.61425
760.5,68.8086,-0.0627341,-2.61425
761,68.8597,-0.0604423,-2.61426
761.5,68.9093,-0.0712538,-2.61732
762,68.9607,-0.0682712,-2.61568
762.5,69.0109,-0.0723231,-2.61534
763,69.0628,-0.0813512,-2.61535
763.5,69.1115,-0.0801808,-2.61664
764,69.1627,-0.0842233,-2.61666
764.5,69.2138,-0.0833488,-2.61798
765,69.2642,-0.0947844,-2.61796
765.5,69.3157,-0.0974304,-2.6193
766,69.3657,-0.0986458,-2.6193
766.5,69.4167,-0.108522,-2.6193
767,69.4675,-0.106771,-2.61966
767.5,69.5181,-0.110583,-2.61974
768,69.5693,-0.111065,-2.62011
768.5,69.6196,-0.113672,-2.6203
769,69.6696,-0.125236,-2.62062
769.5,69.7211,-0.125916,-2.62194
770,69.7713,-0.130925,-2.62201
770.5,69.8209,-0.131157,-2.6226
771,69.8729,-0.131836,-2.6226
771.5,69.9241,-0.141984,-2.6226
772,69.9753,-0.138004,-2.6226
772.5,70.0261,-0.141842,-2.6226
773,70.0766,-0.13974,-2.62339
773.5,70.1266,-0.146348,-2.62295
774,70.178,-0.150896,-2.62293
774.5,70.2285,-0.149961,-2.62331
775,70.2793,-0.161169,-2.62196
775.5,70.3297,-0.159549,-2.62279
776,70.3806,-0.166055,-2.62326
776.5,70.4309,-0.171816,-2.6244
777,70.4813,-0.167658,-2.62457
777.5,70.5321,-0.15996,-2.62456
778,70.5814,-0.169209,-2.6259
778.5,70.635,-0.165478,-2.62622
779,70.6847,-0.177103,-2.62622
779.5,70.7347,-0.172339,-2.62557
780,70.7854,-0.17492,-2.6256
780.5,70.8361,-0.181554,-2.62622
781,70.887,-0.186593,-2.62702
781.5,70.9378,-0.191251,-2.62819
782,70.9882,-0.185999,-2.62816
782.5,71.0385,-0.184952,-2.62886
783,71.0893,-0.191572,-2.62886
783.5,71.1396,-0.195495,-2.62797
784,71.1905,-0.201465,-2.63012
784.5,71.2414,-0.196298,-2.63017
785,71.2921,-0.197429,-2.62917
785.5,71.3422,-0.201406,-2.62875
786,71.3934,-0.213363,-2.63017
786.5,71.4434,-0.210749,-2.63017
787,71.4953,-0.213709,-2.63017
787.5,71.5451,-0.212199,-2.6302
788,71.5959,-0.215174,-2.63149
788.5,71.6458,-0.218133,-2.63281
789,71.6968,-0.215768,-2.63151
789.5,71.7481,-0.222487,-2.63147
790,71.7988,-0.216343,-2.63156