File: 01_Data/Protective_Hood/STA/N2/10K_min/Protective_Hood_STA_N2_10KData_250625_R5.csv
Temp./C,Time/min,DSC/(mW/mg),Mass loss/mg
60.0,0.0,0.832615,-0.0400113
60.5,0.065751,0.851174,-0.0410437
61,0.129061,0.866809,-0.0420831
61.5,0.19611,0.881278,-0.0409555
62,0.259247,0.892648,-0.0414402
62.5,0.32277,0.907189,-0.0409151
63,0.385208,0.920418,-0.0425993
63.5,0.448495,0.944247,-0.0425736
64,0.509465,0.949957,-0.0426533
64.5,0.56979,0.972792,-0.0432232
65,0.629994,0.9786,-0.0437189
65.5,0.691305,0.99144,-0.0440485
66,0.750362,0.998364,-0.0443399
66.5,0.811506,1.01021,-0.0444092
67,0.870572,1.02758,-0.0453116
67.5,0.931118,1.04059,-0.0440367
68,0.984327,1.05088,-0.0439779
68.5,1.04678,1.05757,-0.0442797
69,1.10378,1.07984,-0.0443417
69.5,1.16195,1.08648,-0.0448987
70,1.22045,1.10257,-0.0440203
70.5,1.27806,1.10769,-0.0440533
71,1.33402,1.12393,-0.0443228
71.5,1.39223,1.14167,-0.0440169
72,1.44879,1.14774,-0.0440217
72.5,1.50362,1.15918,-0.0454795
73,1.56039,1.17804,-0.0473199
73.5,1.61654,1.18714,-0.046173
74,1.67177,1.20194,-0.0459985
74.5,1.72622,1.21024,-0.0459996
75,1.78376,1.22382,-0.04696
75.5,1.83745,1.23821,-0.0460023
76,1.89321,1.24387,-0.0473159
76.5,1.94875,1.25761,-0.0479178
77,2.00285,1.26528,-0.0489605
77.5,2.05745,1.27349,-0.0492281
78,2.11097,1.29148,-0.0492989
78.5,2.16354,1.30449,-0.0490355
79,2.21805,1.31568,-0.0489085
79.5,2.27134,1.32478,-0.0495662
80,2.32373,1.34703,-0.0506867
80.5,2.38074,1.35073,-0.0534654
81,2.43406,1.35737,-0.0533455
81.5,2.48682,1.37142,-0.0546672
82,2.53624,1.38625,-0.0533798
82.5,2.59187,1.39393,-0.0533595
83,2.64448,1.40295,-0.0544085
83.5,2.69701,1.41009,-0.0546884
84,2.7485,1.42396,-0.0546378
84.5,2.80188,1.43609,-0.054671
85,2.85446,1.43969,-0.0559216
85.5,2.90645,1.44732,-0.0569223
86,2.95655,1.45392,-0.0573101
86.5,3.00896,1.46873,-0.0587224
87,3.05993,1.47823,-0.0573129
87.5,3.11164,1.47542,-0.0586259
88,3.16443,1.48921,-0.0586216
88.5,3.2162,1.48947,-0.0599304
89,3.2666,1.50232,-0.05994
89.5,3.3174,1.49399,-0.05994
90,3.36713,1.5064,-0.0599387
90.5,3.41946,1.51587,-0.0613882
91,3.46962,1.51953,-0.0613795
91.5,3.51763,1.52456,-0.06137
92,3.57106,1.52367,-0.0620913
92.5,3.6213,1.5399,-0.0626804
93,3.67238,1.53971,-0.062753
93.5,3.72311,1.54289,-0.0637996
94,3.77024,1.55011,-0.0639996
94.5,3.8225,1.54725,-0.0626911
95,3.87169,1.54358,-0.0640798
95.5,3.92246,1.54897,-0.0642008
96,3.9715,1.55346,-0.0666041
96.5,4.02097,1.55394,-0.0680888
97,4.07119,1.55904,-0.0679595
97.5,4.12024,1.56399,-0.0679793
98,4.17024,1.56712,-0.0689489
98.5,4.22015,1.5655,-0.06895
99,4.26957,1.57017,-0.0689524
99.5,4.31779,1.56764,-0.0695952
100,4.36729,1.55629,-0.0699226
100.5,4.41688,1.55839,-0.0711451
101,4.4671,1.56276,-0.0725662
101.5,4.51505,1.55717,-0.0721069
102,4.56465,1.55414,-0.0728998
102.5,4.61081,1.55415,-0.0716029
103,4.66206,1.5513,-0.07158
103.5,4.7104,1.54817,-0.07158
104,4.76057,1.54265,-0.07158
104.5,4.8088,1.54095,-0.0715732
105,4.85709,1.53278,-0.0731585
105.5,4.90512,1.53829,-0.0741106
106,4.95462,1.53383,-0.0741107
106.5,5.0039,1.52877,-0.075278
107,5.05127,1.53128,-0.0768097
107.5,5.10015,1.52301,-0.0767399
108,5.14775,1.52327,-0.07674
108.5,5.19679,1.51437,-0.0767408
109,5.24525,1.51458,-0.0780365
109.5,5.29398,1.51048,-0.0767625
110,5.34322,1.51133,-0.0780649
110.5,5.392,1.50279,-0.0780527
111,5.43987,1.49815,-0.0793708
111.5,5.48396,1.50029,-0.0793694
112,5.53618,1.48895,-0.0786653
112.5,5.58383,1.48227,-0.0796996
113,5.63307,1.47434,-0.0797
113.5,5.68146,1.47466,-0.0797088
114,5.72931,1.47015,-0.0806719
114.5,5.77749,1.46735,-0.08069
115,5.82563,1.45772,-0.08069
115.5,5.87533,1.45853,-0.08069
116,5.92291,1.45146,-0.0806896
116.5,5.97085,1.44546,-0.0820614
117,6.01878,1.43932,-0.0820159
117.5,6.06678,1.42911,-0.0819696
118,6.11456,1.43028,-0.082
118.5,6.16312,1.42216,-0.0819999
119,6.21056,1.42325,-0.0833603
119.5,6.26056,1.41307,-0.0833199
120,6.30774,1.41847,-0.08332
120.5,6.35265,1.41268,-0.0833198
121,6.40316,1.40362,-0.0828712
121.5,6.45061,1.39224,-0.0833214
122,6.49882,1.39984,-0.0833447
122.5,6.54681,1.39168,-0.0846352
123,6.59466,1.3842,-0.08465
123.5,6.64259,1.38377,-0.0859608
124,6.69084,1.37979,-0.0868187
124.5,6.73683,1.37433,-0.0871471
125,6.78799,1.37384,-0.0859608
125.5,6.83475,1.36533,-0.08596
126,6.88359,1.3622,-0.0859621
126.5,6.93164,1.35164,-0.0856615
127,6.97888,1.3503,-0.0856302
127.5,7.02604,1.34424,-0.0856299
128,7.07337,1.34214,-0.0856784
128.5,7.12192,1.33823,-0.084345
129,7.16914,1.33612,-0.0855919
129.5,7.21726,1.33916,-0.0869446
130,7.26675,1.33376,-0.0879107
130.5,7.31392,1.32423,-0.0870709
131,7.36127,1.3204,-0.08694
131.5,7.40868,1.32321,-0.08694
132,7.45687,1.32296,-0.0869414
132.5,7.50391,1.32879,-0.0881357
133,7.5512,1.316,-0.0891059
133.5,7.59875,1.31384,-0.0885886
134,7.64758,1.31023,-0.0870559
134.5,7.69579,1.30662,-0.0870599
135,7.74245,1.30996,-0.0870831
135.5,7.79024,1.31104,-0.0896906
136,7.83848,1.30713,-0.088833
136.5,7.88531,1.30568,-0.0896983
137,7.9299,1.30847,-0.0897
137.5,7.97959,1.30313,-0.0896994
138,8.02834,1.29797,-0.0883848
138.5,8.07547,1.29813,-0.08838
139,8.1228,1.29408,-0.08838
139.5,8.17058,1.29065,-0.0883825
140,8.21828,1.29575,-0.0870663
140.5,8.26483,1.29424,-0.0872296
141,8.31281,1.29791,-0.0883693
141.5,8.36024,1.29105,-0.0883586
142,8.40807,1.28947,-0.0896951
142.5,8.45421,1.29301,-0.0903773
143,8.50249,1.2931,-0.0910542
143.5,8.54842,1.29406,-0.0910127
144,8.59691,1.28304,-0.0909872
144.5,8.64362,1.28901,-0.0886943
145,8.69143,1.29138,-0.0887102
145.5,8.73945,1.29123,-0.087688
146,8.78593,1.29001,-0.0875178
146.5,8.83167,1.29022,-0.0873899
147,8.88145,1.29351,-0.0873875
147.5,8.9293,1.29082,-0.0887288
148,8.97503,1.29608,-0.0900138
148.5,9.02371,1.29435,-0.091438
149,9.07048,1.2966,-0.0914271
149.5,9.11664,1.29689,-0.0914328
150,9.16392,1.29679,-0.088723
150.5,9.21123,1.29555,-0.0888101
151,9.25883,1.29513,-0.0888135
151.5,9.30635,1.29447,-0.0897893
152,9.35264,1.30005,-0.0898
152.5,9.40005,1.29763,-0.0898002
153,9.44804,1.29892,-0.0884285
153.5,9.4948,1.30282,-0.0871744
154,9.54115,1.29467,-0.0884798
154.5,9.58934,1.29946,-0.089521
155,9.63562,1.30251,-0.0897923
155.5,9.68348,1.30136,-0.0911189
156,9.73129,1.30226,-0.09112
156.5,9.77761,1.30343,-0.09112
157,9.8258,1.30915,-0.0911188
157.5,9.87168,1.30669,-0.0898177
158,9.91935,1.3099,-0.0898087
158.5,9.96659,1.31603,-0.0910974
159,10.0125,1.32206,-0.0911219
159.5,10.0609,1.32022,-0.0904701
160,10.1075,1.31745,-0.0904525
160.5,10.155,1.32494,-0.0921332
161,10.2016,1.31753,-0.09211
161.5,10.2481,1.32284,-0.0907865
162,10.2963,1.34047,-0.0907905
162.5,10.3441,1.33072,-0.0905909
163,10.3908,1.33169,-0.0891392
163.5,10.4372,1.33725,-0.0891864
164,10.4844,1.33905,-0.0906915
164.5,10.5314,1.34837,-0.0905697
165,10.5788,1.34502,-0.0905653
165.5,10.6265,1.34599,-0.0919138
166,10.6722,1.34966,-0.09189
166.5,10.7197,1.34558,-0.09189
167,10.7676,1.35537,-0.0919002
167.5,10.8133,1.36218,-0.0909225
168,10.8618,1.36161,-0.0911976
168.5,10.9092,1.36108,-0.0918891
169,10.9554,1.35819,-0.0918898
169.5,11.0024,1.36713,-0.0919468
170,11.0498,1.36783,-0.0908995
170.5,11.0969,1.37221,-0.0909
171,11.1432,1.36939,-0.0909
171.5,11.1903,1.3819,-0.0909062
172,11.2379,1.3726,-0.0922061
172.5,11.2853,1.37608,-0.0921447
173,11.3295,1.38478,-0.0938941
173.5,11.3798,1.3806,-0.0960698
174,11.4268,1.38214,-0.093762
174.5,11.4714,1.37955,-0.0930997
175,11.5212,1.38746,-0.0930933
175.5,11.5685,1.39206,-0.0917779
176,11.6149,1.39111,-0.0917796
176.5,11.6629,1.3955,-0.090468
177,11.71,1.40009,-0.0904601
177.5,11.757,1.40491,-0.0904641
178,11.8034,1.40622,-0.0894514
178.5,11.8505,1.40187,-0.090839
179,11.8983,1.40862,-0.0912362
179.5,11.9458,1.40498,-0.0933971
180,11.992,1.40774,-0.0947429
180.5,12.0397,1.41369,-0.0947656
181,12.0876,1.41763,-0.0946042
181.5,12.1345,1.41218,-0.09474
182,12.1814,1.42497,-0.09474
182.5,12.2256,1.43206,-0.0947561
183,12.2754,1.4298,-0.0937741
183.5,12.3223,1.42976,-0.0950822
184,12.3698,1.43847,-0.09508
184.5,12.4161,1.43589,-0.096037
185,12.4634,1.43781,-0.0949571
185.5,12.5116,1.44207,-0.0925206
186,12.5582,1.44228,-0.09233
186.5,12.6053,1.44022,-0.092333
187,12.652,1.43883,-0.0950148
187.5,12.6979,1.44678,-0.0949592
188,12.7464,1.44643,-0.0941084
188.5,12.7921,1.44636,-0.0936396
189,12.837,1.45228,-0.0948036
189.5,12.8869,1.45554,-0.09496
190,12.9336,1.45436,-0.0962794
190.5,12.981,1.45958,-0.0976766
191,13.0273,1.45677,-0.097678
191.5,13.0752,1.46459,-0.09771
192,13.1213,1.46114,-0.0977308
192.5,13.1693,1.47041,-0.100346
193,13.2166,1.46328,-0.100148
193.5,13.2632,1.47715,-0.09774
194,13.3106,1.48349,-0.0976986
194.5,13.357,1.4834,-0.0991577
195,13.4037,1.4841,-0.09902
195.5,13.4508,1.49057,-0.09902
196,13.4982,1.49493,-0.0990005
196.5,13.5449,1.49187,-0.0977014
197,13.5914,1.49977,-0.0977
197.5,13.6379,1.50305,-0.0977123
198,13.6861,1.50172,-0.0990096
198.5,13.7328,1.49947,-0.0990184
199,13.78,1.51145,-0.100463
199.5,13.8269,1.51124,-0.101781
200,13.8735,1.51581,-0.101651
200.5,13.9209,1.51543,-0.100334
201,13.9678,1.5222,-0.100364
201.5,14.0143,1.52412,-0.101658
202,14.0628,1.54084,-0.103038
202.5,14.1095,1.5333,-0.104304
203,14.1569,1.53821,-0.1043
203.5,14.203,1.53809,-0.1043
204,14.2489,1.54584,-0.1043
204.5,14.297,1.54945,-0.104704
205,14.3446,1.55065,-0.105609
205.5,14.3911,1.5595,-0.105896
206,14.439,1.56387,-0.106921
206.5,14.486,1.56088,-0.10824
207,14.533,1.56578,-0.10824
207.5,14.5801,1.56948,-0.10824
208,14.6251,1.58054,-0.108054
208.5,14.6742,1.58565,-0.109559
209,14.7202,1.58117,-0.109666
209.5,14.768,1.59062,-0.112198
210,14.8158,1.5939,-0.112218
210.5,14.8632,1.6009,-0.113497
211,14.9095,1.60826,-0.11351
211.5,14.9577,1.62859,-0.113446
212,15.0039,1.62125,-0.11483
212.5,15.0506,1.62891,-0.114825
213,15.0993,1.64319,-0.116148
213.5,15.146,1.64409,-0.117096
214,15.1937,1.6525,-0.117447
214.5,15.2408,1.65744,-0.120099
215,15.288,1.66901,-0.120946
215.5,15.3343,1.68165,-0.122741
216,15.3817,1.69728,-0.122745
216.5,15.429,1.71,-0.124076
217,15.476,1.72498,-0.126678
217.5,15.523,1.7374,-0.129621
218,15.5704,1.75324,-0.132286
218.5,15.6177,1.77293,-0.133509
219,15.6654,1.79515,-0.133969
219.5,15.7116,1.81198,-0.132709
220,15.7605,1.84867,-0.131211
220.5,15.8073,1.87529,-0.130941
221,15.855,1.90765,-0.130978
221.5,15.9022,1.95217,-0.131796
222,15.9511,2.00011,-0.132282
222.5,15.9976,2.05971,-0.135121
223,16.0432,2.12981,-0.136598
223.5,16.0941,2.22518,-0.140091
224,16.1425,2.35729,-0.143702
224.5,16.1918,2.53482,-0.147246
225,16.2418,2.79088,-0.149275
225.5,16.2924,3.10652,-0.151732
226,16.3452,3.49497,-0.15219
226.5,16.3966,3.89515,-0.155279
227,16.452,4.65826,-0.157548
227.5,16.4952,4.21601,-0.158833
228,16.535,3.62128,-0.16078
228.5,16.5775,3.16262,-0.162915
229,16.6212,2.8124,-0.165618
229.5,16.6653,2.53668,-0.169295
230,16.7101,2.32602,-0.172569
230.5,16.7559,2.16441,-0.173411
231,16.8016,2.04005,-0.17338
231.5,16.8465,1.95785,-0.175755
232,16.8931,1.869,-0.181598
232.5,16.9393,1.81452,-0.184719
233,16.9862,1.78193,-0.186281
233.5,17.0329,1.7421,-0.188653
234,17.0798,1.72181,-0.191668
234.5,17.1265,1.71145,-0.194918
235,17.1724,1.69304,-0.195801
235.5,17.2201,1.68427,-0.198916
236,17.2681,1.68592,-0.204165
236.5,17.3143,1.6782,-0.2088
237,17.3614,1.66245,-0.212028
237.5,17.4085,1.66955,-0.215936
238,17.4558,1.67469,-0.218428
238.5,17.5031,1.67137,-0.222661
239,17.5503,1.68248,-0.229351
239.5,17.5968,1.68506,-0.231764
240,17.6441,1.6884,-0.234651
240.5,17.692,1.69438,-0.238976
241,17.7395,1.70603,-0.243745
241.5,17.7858,1.71179,-0.24814
242,17.8335,1.74074,-0.253513
242.5,17.8802,1.75313,-0.259982
243,17.9274,1.78677,-0.264889
243.5,17.9754,1.80711,-0.270162
244,18.0225,1.8388,-0.27753
244.5,18.0714,1.88978,-0.284227
245,18.1187,1.93449,-0.289743
245.5,18.1658,1.98557,-0.296894
246,18.212,2.06687,-0.302916
246.5,18.2622,2.16142,-0.311178
247,18.3102,2.25711,-0.318277
247.5,18.3595,2.39771,-0.32511
248,18.408,2.53838,-0.334455
248.5,18.4569,2.70888,-0.344519
249,18.5076,2.91574,-0.35427
249.5,18.5555,3.11165,-0.363952
250,18.6057,3.34657,-0.376379
250.5,18.6565,3.59104,-0.389163
251,18.7059,3.84724,-0.402954
251.5,18.7579,4.11885,-0.417194
252,18.8077,4.37806,-0.432261
252.5,18.859,4.63985,-0.447962
253,18.9089,4.86528,-0.465145
253.5,18.9587,5.10155,-0.482438
254,19.0088,5.3185,-0.499761
254.5,19.0586,5.5122,-0.521339
255,19.1057,5.67237,-0.540008
255.5,19.1573,5.8521,-0.560211
256,19.2073,6.006,-0.582757
256.5,19.2558,6.13577,-0.605565
257,19.3047,6.25141,-0.630098
257.5,19.3545,6.3506,-0.65606
258,19.4026,6.45249,-0.680148
258.5,19.4511,6.52477,-0.708855
259,19.4993,6.5937,-0.735338
259.5,19.5471,6.63831,-0.763716
260,19.5956,6.67309,-0.794681
260.5,19.6422,6.68652,-0.822337
261,19.6893,6.68989,-0.851788
261.5,19.7374,6.66139,-0.8835
262,19.7842,6.62002,-0.914339
262.5,19.831,6.56913,-0.944991
263,19.8779,6.4858,-0.974766
263.5,19.9244,6.4092,-1.00373
264,19.971,6.31414,-1.03445
264.5,20.0167,6.20628,-1.06227
265,20.0632,6.08326,-1.0915
265.5,20.1082,5.95324,-1.12069
266,20.1549,5.80678,-1.14954
266.5,20.2008,5.64963,-1.17733
267,20.2446,5.49606,-1.20305
267.5,20.2903,5.32607,-1.22968
268,20.3359,5.14459,-1.25551
268.5,20.3811,4.97532,-1.28124
269,20.4271,4.78809,-1.30648
269.5,20.4727,4.59388,-1.3307
270,20.5165,4.39602,-1.35228
270.5,20.5618,4.20297,-1.37167
271,20.6064,4.01814,-1.39108
271.5,20.6513,3.82012,-1.41067
272,20.6973,3.62984,-1.43119
272.5,20.7429,3.43661,-1.45178
273,20.7879,3.25554,-1.46887
273.5,20.8332,3.07836,-1.48568
274,20.878,2.90886,-1.50081
274.5,20.9247,2.74199,-1.51761
275,20.9686,2.59202,-1.53084
275.5,21.0141,2.44146,-1.54528
276,21.0595,2.30007,-1.559
276.5,21.1052,2.15522,-1.57315
277,21.1511,2.02601,-1.58451
277.5,21.1971,1.91101,-1.59778
278,21.2424,1.79117,-1.60754
278.5,21.2878,1.69564,-1.61904
279,21.3345,1.58814,-1.62912
279.5,21.3808,1.5026,-1.63911
280,21.4268,1.42017,-1.64801
280.5,21.473,1.33876,-1.65499
281,21.5192,1.27395,-1.66236
281.5,21.5669,1.21384,-1.67071
282,21.6127,1.16293,-1.67685
282.5,21.6596,1.11456,-1.68332
283,21.706,1.07581,-1.68792
283.5,21.7535,1.0529,-1.69331
284,21.7982,1.00543,-1.69912
284.5,21.8468,0.979903,-1.7049
285,21.8947,0.955098,-1.71014
285.5,21.9412,0.930946,-1.71449
286,21.9889,0.919729,-1.71979
286.5,22.0354,0.895373,-1.72377
287,22.0838,0.881151,-1.72669
287.5,22.1303,0.866847,-1.73042
288,22.1774,0.860392,-1.73634
288.5,22.2242,0.849026,-1.74045
289,22.2717,0.839342,-1.74369
289.5,22.3189,0.839087,-1.74674
290,22.3656,0.834298,-1.74944
290.5,22.4131,0.821624,-1.75208
291,22.46,0.820535,-1.75509
291.5,22.5083,0.816303,-1.75844
292,22.5554,0.804229,-1.76082
292.5,22.6025,0.795886,-1.7645
293,22.6505,0.78919,-1.76892
293.5,22.6982,0.779815,-1.77107
294,22.7452,0.774704,-1.77482
294.5,22.7917,0.763228,-1.7784
295,22.8399,0.75436,-1.77987
295.5,22.8869,0.736204,-1.78414
296,22.9345,0.734706,-1.78765
296.5,22.9817,0.725562,-1.79002
297,23.0285,0.727162,-1.79303
297.5,23.0761,0.717615,-1.79591
298,23.1247,0.701133,-1.8003
298.5,23.1709,0.706729,-1.80546
299,23.2192,0.701242,-1.80458
299.5,23.2663,0.695411,-1.8054
300,23.314,0.689504,-1.80849
300.5,23.3623,0.690375,-1.81164
301,23.4094,0.686828,-1.81366
301.5,23.4567,0.676183,-1.81628
302,23.5042,0.674746,-1.81886
302.5,23.5511,0.671083,-1.82267
303,23.5966,0.664311,-1.8251
303.5,23.6461,0.661801,-1.82778
304,23.6947,0.650673,-1.82942
304.5,23.7426,0.645948,-1.8318
305,23.7896,0.639113,-1.83465
305.5,23.8348,0.6317,-1.83744
306,23.882,0.633829,-1.83947
306.5,23.9316,0.624528,-1.84352
307,23.9782,0.623357,-1.84743
307.5,24.0249,0.6187,-1.84985
308,24.0758,0.607732,-1.85154
308.5,24.122,0.61241,-1.85462
309,24.1705,0.597608,-1.85745
309.5,24.2176,0.587735,-1.85937
310,24.2663,0.588929,-1.86327
310.5,24.3135,0.582043,-1.86637
311,24.3604,0.580815,-1.86992
311.5,24.4076,0.563855,-1.87171
312,24.456,0.57255,-1.87254
312.5,24.5032,0.568864,-1.87433
313,24.5505,0.566888,-1.87794
313.5,24.598,0.566829,-1.88121
314,24.6448,0.558737,-1.88394
314.5,24.6935,0.552106,-1.88595
315,24.7413,0.555587,-1.88905
315.5,24.7896,0.554245,-1.89162
316,24.8361,0.553831,-1.89369
316.5,24.8842,0.541701,-1.89728
317,24.9323,0.541308,-1.90083
317.5,24.9792,0.532995,-1.90371
318,25.0262,0.52489,-1.90355
318.5,25.0751,0.524779,-1.90676
319,25.1216,0.526868,-1.91
319.5,25.1692,0.518441,-1.91229
320,25.2166,0.5214,-1.9152
320.5,25.2654,0.521569,-1.91635
321,25.3121,0.517571,-1.91842
321.5,25.3604,0.505846,-1.92054
322,25.4077,0.50219,-1.92355
322.5,25.4544,0.498247,-1.92823
323,25.5035,0.495168,-1.93212
323.5,25.5516,0.492153,-1.93166
324,25.5984,0.491727,-1.93375
324.5,25.6453,0.489604,-1.93666
325,25.6934,0.484466,-1.93967
325.5,25.7413,0.479659,-1.94269
326,25.789,0.474229,-1.94565
326.5,25.8353,0.469216,-1.94902
327,25.8844,0.472861,-1.95283
327.5,25.932,0.470036,-1.9565
328,25.9802,0.477888,-1.9582
328.5,26.027,0.470842,-1.96015
329,26.0751,0.464897,-1.96145
329.5,26.1218,0.46854,-1.96259
330,26.1715,0.464205,-1.96462
330.5,26.2204,0.466784,-1.96646
331,26.2673,0.470988,-1.97099
331.5,26.3152,0.466244,-1.97442
332,26.3624,0.469655,-1.97584
332.5,26.4101,0.459317,-1.97884
333,26.4588,0.46316,-1.98172
333.5,26.5071,0.459861,-1.98212
334,26.5543,0.454084,-1.98472
334.5,26.6007,0.451399,-1.98735
335,26.6498,0.458726,-1.99057
335.5,26.6981,0.463975,-1.99506
336,26.7455,0.45834,-1.99919
336.5,26.7914,0.461778,-2.00067
337,26.8396,0.469776,-2.00492
337.5,26.8894,0.468384,-2.0065
338,26.9376,0.45978,-2.00987
338.5,26.9859,0.46325,-2.01065
339,27.0344,0.472324,-2.01312
339.5,27.0816,0.46651,-2.01659
340,27.1292,0.476428,-2.02024
340.5,27.1774,0.472471,-2.02257
341,27.2256,0.474649,-2.02333
341.5,27.2733,0.47964,-2.02643
342,27.3211,0.476611,-2.02977
342.5,27.3705,0.474445,-2.0323
343,27.4169,0.477937,-2.03419
343.5,27.4662,0.477124,-2.03576
344,27.5138,0.478673,-2.03724
344.5,27.5623,0.482704,-2.04092
345,27.6105,0.494702,-2.04464
345.5,27.6589,0.494749,-2.04737
346,27.7049,0.508379,-2.04933
346.5,27.7526,0.504451,-2.05168
347,27.8034,0.510661,-2.05209
347.5,27.8518,0.506426,-2.05507
348,27.8992,0.519095,-2.05856
348.5,27.9473,0.5242,-2.06092
349,27.9958,0.528962,-2.06343
349.5,28.0442,0.525493,-2.06532
350,28.0921,0.533605,-2.06777
350.5,28.1401,0.542644,-2.06875
351,28.1881,0.545618,-2.07153
351.5,28.2364,0.549797,-2.07299
352,28.2845,0.55231,-2.0738
352.5,28.3329,0.561639,-2.07587
353,28.3816,0.560701,-2.07802
353.5,28.4295,0.569143,-2.08142
354,28.4767,0.574511,-2.08392
354.5,28.5261,0.587281,-2.08528
355,28.5736,0.592849,-2.08572
355.5,28.6219,0.592234,-2.08879
356,28.6699,0.604908,-2.09103
356.5,28.7185,0.604303,-2.09281
357,28.7662,0.613637,-2.09604
357.5,28.8148,0.622692,-2.09762
358,28.8627,0.624762,-2.09907
358.5,28.9124,0.628644,-2.10159
359,28.9606,0.644942,-2.10345
359.5,29.0081,0.645836,-2.10332
360,29.0567,0.656713,-2.10489
360.5,29.1046,0.654694,-2.10732
361,29.1532,0.655903,-2.10999
361.5,29.2006,0.665222,-2.11277
362,29.2482,0.671539,-2.11502
362.5,29.2977,0.67952,-2.11737
363,29.3457,0.689776,-2.11738
363.5,29.3942,0.689034,-2.11805
364,29.4421,0.697823,-2.12003
364.5,29.4908,0.702828,-2.12168
365,29.5398,0.708323,-2.12298
365.5,29.5868,0.717902,-2.12429
366,29.6351,0.718545,-2.12694
366.5,29.6842,0.723841,-2.1285
367,29.7323,0.729057,-2.12988
367.5,29.781,0.731808,-2.13184
368,29.8278,0.736993,-2.13412
368.5,29.8771,0.733218,-2.13703
369,29.9252,0.746064,-2.14158
369.5,29.9733,0.748785,-2.14195
370,30.021,0.750136,-2.14354
370.5,30.0694,0.753104,-2.14343
371,30.1186,0.769735,-2.14376
371.5,30.1662,0.778325,-2.14636
372,30.2137,0.783696,-2.14812
372.5,30.2642,0.791015,-2.15064
373,30.3123,0.787009,-2.15235
373.5,30.3598,0.783614,-2.1537
374,30.4084,0.788229,-2.15504
374.5,30.4564,0.810845,-2.15629
375,30.5039,0.803769,-2.15854
375.5,30.5537,0.811767,-2.15852
376,30.601,0.814827,-2.15959
376.5,30.6496,0.819751,-2.16053
377,30.6993,0.826137,-2.16184
377.5,30.7468,0.832601,-2.16367
378,30.7959,0.839276,-2.1646
378.5,30.844,0.840097,-2.16582
379,30.8926,0.849966,-2.16751
379.5,30.9403,0.846525,-2.16997
380,30.9892,0.858507,-2.17128
380.5,31.0371,0.86769,-2.1707
381,31.0861,0.860009,-2.17186
381.5,31.135,0.863108,-2.1744
382,31.1833,0.870522,-2.17414
382.5,31.23,0.867682,-2.17488
383,31.2801,0.869724,-2.17579
383.5,31.3297,0.875586,-2.17741
384,31.3774,0.872289,-2.17993
384.5,31.4269,0.880136,-2.1827
385,31.4751,0.887312,-2.18506
385.5,31.523,0.898414,-2.18633
386,31.5722,0.90387,-2.18769
386.5,31.6203,0.90888,-2.18901
387,31.6698,0.903283,-2.18929
387.5,31.7177,0.910064,-2.19193
388,31.7656,0.905832,-2.19323
388.5,31.8153,0.909177,-2.19345
389,31.8635,0.914088,-2.19342
389.5,31.9127,0.922578,-2.19485
390,31.9604,0.926343,-2.19622
390.5,32.0096,0.923939,-2.20025
391,32.0582,0.932999,-2.20027
391.5,32.1061,0.934967,-2.2006
392,32.1544,0.931427,-2.2033
392.5,32.2032,0.936882,-2.20472
393,32.2508,0.940322,-2.20531
393.5,32.3005,0.943792,-2.20524
394,32.3487,0.947377,-2.20587
394.5,32.3978,0.953162,-2.20717
395,32.4457,0.953984,-2.20857
395.5,32.4946,0.960162,-2.21063
396,32.5411,0.956995,-2.21259
396.5,32.5913,0.967007,-2.21331
397,32.6397,0.957965,-2.21487
397.5,32.6892,0.961844,-2.21619
398,32.7369,0.960771,-2.21753
398.5,32.7858,0.961835,-2.21892
399,32.8337,0.973015,-2.2199
399.5,32.8826,0.975204,-2.22173
400,32.9314,0.974959,-2.22043
400.5,32.9794,0.965636,-2.22168
401,33.028,0.976946,-2.22299
401.5,33.0764,0.9709,-2.22433
402,33.1256,0.975797,-2.22563
402.5,33.1742,0.977058,-2.22662
403,33.2231,0.982392,-2.22696
403.5,33.2724,0.987587,-2.2284
404,33.3186,0.98065,-2.22979
404.5,33.3681,0.987599,-2.22947
405,33.4169,0.985087,-2.23163
405.5,33.4657,0.990213,-2.23351
406,33.5157,0.99817,-2.23498
406.5,33.5633,1.003,-2.23577
407,33.6122,1.00632,-2.23731
407.5,33.6601,1.01708,-2.23957
408,33.7094,1.00481,-2.2399
408.5,33.7573,1.00745,-2.24055
409,33.8071,1.0137,-2.24051
409.5,33.8551,1.01279,-2.24181
410,33.904,1.01228,-2.24396
410.5,33.9536,1.01575,-2.24582
411,34.0016,1.0244,-2.24712
411.5,34.0501,1.01854,-2.24713
412,34.1,1.02923,-2.24877
412.5,34.1478,1.02213,-2.24921
413,34.197,1.02879,-2.2499
413.5,34.2459,1.04228,-2.25107
414,34.2944,1.0316,-2.25234
414.5,34.3429,1.0323,-2.25373
415,34.3917,1.03643,-2.25455
415.5,34.4408,1.03824,-2.25671
416,34.4896,1.04591,-2.25765
416.5,34.5382,1.04523,-2.25935
417,34.5866,1.04093,-2.25995
417.5,34.6353,1.04471,-2.25923
418,34.6837,1.04803,-2.26064
418.5,34.7327,1.04786,-2.26215
419,34.7818,1.05061,-2.26375
419.5,34.8306,1.05002,-2.26459
420,34.8801,1.05542,-2.26624
420.5,34.9279,1.06259,-2.26724
421,34.977,1.06076,-2.26854
421.5,35.0261,1.06255,-2.26997
422,35.0741,1.06781,-2.26954
422.5,35.1232,1.06875,-2.27052
423,35.1719,1.06529,-2.2712
423.5,35.2217,1.06676,-2.27251
424,35.2697,1.0731,-2.27382
424.5,35.3189,1.05948,-2.27536
425,35.3668,1.06511,-2.27634
425.5,35.4166,1.08402,-2.27803
426,35.4649,1.07676,-2.28055
426.5,35.5145,1.08625,-2.28039
427,35.5632,1.08595,-2.28042
427.5,35.6116,1.0881,-2.28173
428,35.6606,1.08543,-2.28305
428.5,35.7092,1.09032,-2.28362
429,35.7587,1.0933,-2.28519
429.5,35.8071,1.09164,-2.28633
430,35.8565,1.09516,-2.28767
430.5,35.9032,1.08783,-2.28897
431,35.9516,1.08583,-2.29007
431.5,36.0025,1.08319,-2.29172
432,36.0518,1.09017,-2.29209
432.5,36.0995,1.10044,-2.29293
433,36.1499,1.10284,-2.29487
433.5,36.1976,1.1025,-2.29633
434,36.2466,1.10776,-2.29877
434.5,36.2968,1.10397,-2.29679
435,36.3444,1.10452,-2.29748
435.5,36.3937,1.11263,-2.29873
436,36.4426,1.11293,-2.30007
436.5,36.4928,1.11679,-2.30003
437,36.5408,1.11899,-2.30136
437.5,36.5894,1.12277,-2.30348
438,36.6363,1.12321,-2.30478
438.5,36.6874,1.12107,-2.30493
439,36.737,1.12405,-2.3065
439.5,36.7856,1.12332,-2.30736
440,36.8346,1.13202,-2.30878
440.5,36.8842,1.12909,-2.31005
441,36.9328,1.13556,-2.31093
441.5,36.9819,1.13732,-2.31218
442,37.0305,1.1427,-2.3127
442.5,37.0801,1.15272,-2.314
443,37.1287,1.15566,-2.31531
443.5,37.1785,1.15286,-2.31679
444,37.2262,1.15015,-2.318
444.5,37.2753,1.15446,-2.31937
445,37.3256,1.15808,-2.32009
445.5,37.3743,1.16339,-2.32008
446,37.4229,1.16425,-2.32133
446.5,37.4729,1.16066,-2.32266
447,37.5213,1.1645,-2.32397
447.5,37.5699,1.16263,-2.32531
448,37.6191,1.16689,-2.32664
448.5,37.6675,1.16869,-2.32738
449,37.7172,1.16917,-2.32729
449.5,37.7661,1.17248,-2.32863
450,37.8158,1.17356,-2.32993
450.5,37.8643,1.17981,-2.33123
451,37.9135,1.17554,-2.33121
451.5,37.9621,1.17302,-2.33252
452,38.0122,1.17839,-2.33385
452.5,38.0601,1.1865,-2.33519
453,38.1097,1.1898,-2.33614
453.5,38.1584,1.19102,-2.33652
454,38.2074,1.18847,-2.33794
454.5,38.257,1.19964,-2.33837
455,38.3057,1.20435,-2.33936
455.5,38.3543,1.19938,-2.3421
456,38.4037,1.19231,-2.34339
456.5,38.4519,1.2014,-2.34462
457,38.5008,1.20876,-2.34595
457.5,38.551,1.21421,-2.34727
458,38.5999,1.21345,-2.34858
458.5,38.6482,1.2213,-2.34994
459,38.6972,1.2079,-2.34973
459.5,38.746,1.2082,-2.34993
460,38.7959,1.21171,-2.35254
460.5,38.8456,1.21329,-2.3528
461,38.8942,1.20484,-2.35419
461.5,38.9426,1.2231,-2.35517
462,38.9921,1.23348,-2.35718
462.5,39.0404,1.23572,-2.35913
463,39.0902,1.23998,-2.35979
463.5,39.1386,1.23894,-2.3604
464,39.1888,1.24248,-2.36309
464.5,39.2361,1.23876,-2.36442
465,39.286,1.24735,-2.36579
465.5,39.3348,1.24782,-2.36666
466,39.3839,1.24171,-2.36741
466.5,39.4337,1.2311,-2.36718
467,39.4806,1.22026,-2.36846
467.5,39.5315,1.22567,-2.37044
468,39.5805,1.23549,-2.37131
468.5,39.63,1.22927,-2.37327
469,39.6788,1.23292,-2.37322
469.5,39.7282,1.23218,-2.37478
470,39.7756,1.2461,-2.37502
470.5,39.8269,1.24515,-2.37707
471,39.8761,1.25368,-2.37766
471.5,39.9251,1.26018,-2.37961
472,39.9733,1.26576,-2.3802
472.5,40.0202,1.26822,-2.38152
473,40.0716,1.25619,-2.38283
473.5,40.1214,1.25706,-2.38413
474,40.1701,1.26207,-2.38544
474.5,40.2195,1.25288,-2.38555
475,40.2682,1.25023,-2.38627
475.5,40.3167,1.25624,-2.38819
476,40.3668,1.25563,-2.38962
476.5,40.4158,1.2498,-2.39093
477,40.4647,1.25428,-2.39084
477.5,40.5137,1.2597,-2.39216
478,40.5637,1.26078,-2.39357
478.5,40.612,1.2633,-2.39491
479,40.6612,1.25759,-2.39642
479.5,40.7099,1.24907,-2.39787
480,40.7597,1.25,-2.39919
480.5,40.808,1.24201,-2.40043
481,40.8569,1.23596,-2.40182
481.5,40.9053,1.23603,-2.40183
482,40.9564,1.23802,-2.40358
482.5,41.0035,1.24782,-2.40653
483,41.0536,1.23882,-2.41024
483.5,41.1031,1.22861,-2.40678
484,41.1515,1.24046,-2.40668
484.5,41.2007,1.22604,-2.40808
485,41.2507,1.22683,-2.40803
485.5,41.2997,1.21924,-2.41056
486,41.3494,1.22094,-2.41083
486.5,41.3958,1.22048,-2.41217
487,41.4474,1.21868,-2.41347
487.5,41.4959,1.23122,-2.41477
488,41.5466,1.23227,-2.41608
488.5,41.5954,1.22598,-2.4174
489,41.6446,1.22642,-2.41894
489.5,41.6934,1.22618,-2.41881
490,41.7428,1.21741,-2.41908
490.5,41.7927,1.21596,-2.42049
491,41.8423,1.21443,-2.42102
491.5,41.8919,1.20497,-2.42181
492,41.9403,1.20678,-2.42312
492.5,41.99,1.20175,-2.42442
493,42.0382,1.19934,-2.42473
493.5,42.0889,1.19817,-2.42609
494,42.1368,1.19835,-2.42738
494.5,42.1872,1.18982,-2.42736
495,42.2365,1.1861,-2.42872
495.5,42.285,1.17844,-2.42874
496,42.3346,1.17549,-2.4301
496.5,42.3856,1.18231,-2.43104
497,42.4336,1.17482,-2.43233
497.5,42.4823,1.17508,-2.43243
498,42.5316,1.175,-2.43363
498.5,42.581,1.17571,-2.43531
499,42.631,1.17259,-2.43531
499.5,42.679,1.17124,-2.43663
500,42.7291,1.16445,-2.43796
500.5,42.7781,1.15996,-2.43794
501,42.8281,1.15937,-2.43925
501.5,42.8772,1.16285,-2.43925
502,42.9254,1.15498,-2.43962
502.5,42.9757,1.15025,-2.44098
503,43.0237,1.14875,-2.44091
503.5,43.074,1.15018,-2.44207
504,43.1235,1.14466,-2.44414
504.5,43.1728,1.14656,-2.44453
505,43.2223,1.14917,-2.44453
505.5,43.2715,1.13803,-2.44589
506,43.32,1.13279,-2.44585
506.5,43.3701,1.13131,-2.44611
507,43.4204,1.1223,-2.44584
507.5,43.4691,1.119,-2.44716
508,43.5191,1.11777,-2.44714
508.5,43.5688,1.11976,-2.44977
509,43.6177,1.11801,-2.45119
509.5,43.6661,1.11659,-2.44979
510,43.7161,1.11271,-2.45118
510.5,43.7656,1.11124,-2.45107
511,43.8152,1.11372,-2.45244
511.5,43.8646,1.11144,-2.45331
512,43.9142,1.11485,-2.45342
512.5,43.9634,1.11178,-2.45352
513,44.0134,1.11362,-2.45378
513.5,44.0621,1.10877,-2.45507
514,44.1126,1.10585,-2.45636
514.5,44.1611,1.09975,-2.45642
515,44.2111,1.1057,-2.4577
515.5,44.2603,1.10891,-2.4577
516,44.3101,1.08777,-2.45942
516.5,44.3589,1.09225,-2.46089
517,44.4093,1.09269,-2.46165
517.5,44.4582,1.0994,-2.46035
518,44.5079,1.10306,-2.46148
518.5,44.5583,1.0954,-2.46165
519,44.6071,1.09874,-2.46165
519.5,44.656,1.09451,-2.46165
520,44.7057,1.09492,-2.46308
520.5,44.755,1.09261,-2.46298
521,44.8045,1.09347,-2.46428
521.5,44.8536,1.09785,-2.46428
522,44.9033,1.0927,-2.46561
522.5,44.9523,1.08423,-2.4656
523,45.0018,1.09343,-2.46689
523.5,45.05,1.0862,-2.46692
524,45.1013,1.09506,-2.46692
524.5,45.1506,1.09328,-2.46692
525,45.1999,1.09356,-2.46824
525.5,45.2494,1.09461,-2.46956
526,45.2989,1.08762,-2.46956
526.5,45.3481,1.07574,-2.46956
527,45.3973,1.07316,-2.47016
527.5,45.4479,1.0843,-2.47071
528,45.4974,1.0902,-2.47088
528.5,45.546,1.09336,-2.47091
529,45.5968,1.09601,-2.4722
529.5,45.6455,1.0952,-2.4722
530,45.6935,1.09379,-2.4722
530.5,45.745,1.09266,-2.47357
531,45.7952,1.10015,-2.47352
531.5,45.8445,1.09831,-2.47489
532,45.894,1.09421,-2.47483
532.5,45.9436,1.0955,-2.4748
533,45.9931,1.10141,-2.47671
533.5,46.0427,1.09641,-2.47714
534,46.0919,1.10203,-2.47714
534.5,46.142,1.10286,-2.47715
535,46.1912,1.10616,-2.47845
535.5,46.2394,1.10149,-2.47722
536,46.289,1.10937,-2.47846
536.5,46.3398,1.10416,-2.47846
537,46.3905,1.09003,-2.47846
537.5,46.4392,1.09456,-2.47976
538,46.4901,1.0906,-2.47977
538.5,46.5388,1.08208,-2.47977
539,46.5887,1.08285,-2.47977
539.5,46.6373,1.08826,-2.48109
540,46.6873,1.10288,-2.48109
540.5,46.7371,1.10351,-2.4815
541,46.7868,1.09876,-2.48241
541.5,46.8365,1.09421,-2.48362
542,46.8861,1.09221,-2.4834
542.5,46.9369,1.08696,-2.4834
543,46.9861,1.09345,-2.48479
543.5,47.0351,1.08796,-2.48471
544,47.0852,1.09385,-2.4847
544.5,47.1329,1.0934,-2.48602
545,47.1836,1.09624,-2.48537
545.5,47.2338,1.10308,-2.4857
546,47.2841,1.10103,-2.48636
546.5,47.3331,1.09245,-2.48633
547,47.3829,1.09138,-2.48768
547.5,47.4327,1.09743,-2.48788
548,47.4821,1.09614,-2.48782
548.5,47.5316,1.10524,-2.48768
549,47.5812,1.09571,-2.48762
549.5,47.6322,1.09988,-2.49032
550,47.6806,1.10322,-2.49031
550.5,47.7311,1.09723,-2.48902
551,47.7808,1.10479,-2.48899
551.5,47.8296,1.10172,-2.48928
552,47.8796,1.10104,-2.49031
552.5,47.9289,1.10052,-2.49165
553,47.9788,1.10415,-2.49163
553.5,48.0284,1.10124,-2.49213
554,48.0774,1.10783,-2.49261
554.5,48.1277,1.10383,-2.49261
555,48.1777,1.09566,-2.49261
555.5,48.2274,1.10171,-2.49276
556,48.2777,1.09964,-2.49393
556.5,48.3252,1.10763,-2.49394
557,48.3772,1.10928,-2.49524
557.5,48.4272,1.1039,-2.49525
558,48.4774,1.10815,-2.49525
558.5,48.526,1.10896,-2.49558
559,48.5768,1.10404,-2.49657
559.5,48.6252,1.1036,-2.49657
560,48.675,1.10965,-2.49658
560.5,48.7254,1.10447,-2.49788
561,48.7748,1.10782,-2.49689
561.5,48.8245,1.09407,-2.49689
562,48.874,1.10035,-2.49826
562.5,48.9239,1.10019,-2.4992
563,48.9741,1.10806,-2.49919
563.5,49.0235,1.10354,-2.50052
564,49.0724,1.08861,-2.50116
564.5,49.1229,1.10095,-2.50132
565,49.1729,1.10159,-2.50184
565.5,49.2222,1.10797,-2.50184
566,49.2725,1.10353,-2.50185
566.5,49.3217,1.10597,-2.50182
567,49.3721,1.09583,-2.50315
567.5,49.4217,1.10746,-2.50445
568,49.4715,1.10344,-2.50579
568.5,49.5209,1.10732,-2.50579
569,49.5712,1.09957,-2.50579
569.5,49.6206,1.11236,-2.50682
570,49.6708,1.11971,-2.50836
570.5,49.7204,1.11816,-2.50975
571,49.7697,1.12582,-2.50975
571.5,49.8194,1.10893,-2.50975
572,49.8691,1.1147,-2.50845
572.5,49.9199,1.11811,-2.50974
573,49.9696,1.12332,-2.50849
573.5,50.0198,1.11892,-2.50974
574,50.0692,1.12467,-2.50879
574.5,50.12,1.12113,-2.50854
575,50.17,1.12118,-2.50843
575.5,50.2199,1.12395,-2.50847
576,50.27,1.12012,-2.5071
576.5,50.3206,1.12417,-2.50843
577,50.3703,1.13251,-2.50843
577.5,50.4201,1.1217,-2.50843
578,50.4698,1.13684,-2.50843
578.5,50.5197,1.12799,-2.50974
579,50.5693,1.12622,-2.51043
579.5,50.6193,1.13049,-2.51106
580,50.6692,1.12328,-2.51238
580.5,50.7195,1.12124,-2.51173
581,50.7697,1.1219,-2.51304
581.5,50.8195,1.1307,-2.51305
582,50.8697,1.13378,-2.51447
582.5,50.9202,1.13928,-2.51568
583,50.9696,1.14355,-2.51568
583.5,51.0191,1.14903,-2.51568
584,51.0699,1.14651,-2.51568
584.5,51.1191,1.15379,-2.51567
585,51.1695,1.15048,-2.51567
585.5,51.2179,1.1489,-2.51567
586,51.2674,1.14824,-2.51567
586.5,51.3196,1.14391,-2.517
587,51.3699,1.13986,-2.51698
587.5,51.4199,1.14068,-2.51664
588,51.4696,1.14123,-2.51699
588.5,51.5198,1.13725,-2.51744
589,51.5691,1.13685,-2.51831
589.5,51.6201,1.1271,-2.51831
590,51.6697,1.13395,-2.5183
590.5,51.7192,1.12952,-2.51962
591,51.7699,1.13427,-2.51962
591.5,51.819,1.13252,-2.51962
592,51.8668,1.13609,-2.51962
592.5,51.9192,1.14383,-2.51957
593,51.9688,1.12819,-2.52094
593.5,52.0185,1.14969,-2.52093
594,52.0691,1.14241,-2.52226
594.5,52.1202,1.13877,-2.52223
595,52.1697,1.14522,-2.52223
595.5,52.2196,1.13707,-2.52225
596,52.2698,1.13571,-2.52225
596.5,52.3174,1.14577,-2.52225
597,52.3698,1.14611,-2.52225
597.5,52.419,1.14916,-2.52227
598,52.4687,1.14741,-2.52222
598.5,52.5174,1.15611,-2.52358
599,52.568,1.14439,-2.52358
599.5,52.6185,1.15259,-2.52358
600,52.6682,1.15161,-2.52494
600.5,52.7187,1.16194,-2.52491
601,52.7689,1.15837,-2.52621
601.5,52.8187,1.15832,-2.52621
602,52.868,1.16106,-2.52621
602.5,52.9184,1.15823,-2.52615
603,52.9682,1.15942,-2.52753
603.5,53.0179,1.16253,-2.52753
604,53.0685,1.16201,-2.52753
604.5,53.1182,1.16241,-2.52888
605,53.1686,1.16212,-2.52776
605.5,53.2177,1.17302,-2.52753
606,53.2675,1.15332,-2.52753
606.5,53.3172,1.16156,-2.52752
607,53.3687,1.16419,-2.52885
607.5,53.4182,1.16234,-2.52885
608,53.4679,1.1494,-2.53015
608.5,53.5174,1.14417,-2.53038
609,53.5678,1.14474,-2.53083
609.5,53.6177,1.14821,-2.53148
610,53.6686,1.15067,-2.53148
610.5,53.7194,1.15258,-2.53148
611,53.7674,1.16154,-2.53163
611.5,53.8168,1.16338,-2.53283
612,53.8697,1.15955,-2.53279
612.5,53.9192,1.15889,-2.53329
613,53.9688,1.15345,-2.53412
613.5,54.0195,1.15441,-2.53412
614,54.0691,1.16705,-2.53295
614.5,54.1189,1.161,-2.5328
615,54.169,1.16508,-2.53426
615.5,54.2191,1.16426,-2.53477
616,54.2701,1.16512,-2.53477
616.5,54.3193,1.17349,-2.5361
617,54.3695,1.16074,-2.53609
617.5,54.4199,1.16775,-2.53609
618,54.4703,1.17844,-2.53741
618.5,54.5208,1.17526,-2.53851
619,54.5695,1.16933,-2.53873
619.5,54.621,1.16491,-2.53909
620,54.6698,1.16976,-2.53809
620.5,54.72,1.17087,-2.53937
621,54.7707,1.17225,-2.53938
621.5,54.8211,1.17312,-2.53938
622,54.8712,1.17196,-2.53938
622.5,54.9211,1.17951,-2.54044
623,54.9712,1.17547,-2.5407
623.5,55.0213,1.17565,-2.54178
624,55.0707,1.17134,-2.54135
624.5,55.1208,1.17791,-2.54136
625,55.1714,1.1826,-2.54136
625.5,55.2222,1.17881,-2.54136
626,55.2717,1.18422,-2.54135
626.5,55.3214,1.18892,-2.54267
627,55.3723,1.18734,-2.54267
627.5,55.422,1.18519,-2.54318
628,55.4725,1.183,-2.54399
628.5,55.5216,1.18675,-2.54399
629,55.5722,1.18411,-2.54399
629.5,55.6224,1.18923,-2.54483
630,55.6709,1.18479,-2.54531
630.5,55.7234,1.18216,-2.54466
631,55.7731,1.18905,-2.54566
631.5,55.8243,1.18714,-2.54429
632,55.8737,1.1837,-2.54434
632.5,55.9239,1.18652,-2.54531
633,55.9735,1.18671,-2.54653
633.5,56.0241,1.18724,-2.54663
634,56.0736,1.18823,-2.54665
634.5,56.1247,1.19389,-2.54794
635,56.1749,1.19233,-2.54878
635.5,56.2251,1.19793,-2.54926
636,56.2759,1.19816,-2.54794
636.5,56.3251,1.20189,-2.54891
637,56.376,1.21042,-2.54894
637.5,56.426,1.21903,-2.54965
638,56.4766,1.2156,-2.55026
638.5,56.5263,1.21334,-2.55117
639,56.577,1.21547,-2.55152
639.5,56.6275,1.21505,-2.55058
640,56.6777,1.20876,-2.55
640.5,56.7283,1.22142,-2.55026
641,56.7784,1.21697,-2.55058
641.5,56.829,1.22452,-2.55115
642,56.8791,1.21718,-2.55256
642.5,56.9291,1.22121,-2.55256
643,56.9794,1.22553,-2.55256
643.5,57.0294,1.22164,-2.5539
644,57.079,1.22082,-2.55388
644.5,57.1293,1.23132,-2.5552
645,57.1802,1.22606,-2.55652
645.5,57.2305,1.23482,-2.5565
646,57.2809,1.23424,-2.55519
646.5,57.3311,1.2402,-2.55528
647,57.3823,1.24044,-2.55783
647.5,57.4316,1.25317,-2.55784
648,57.4819,1.24443,-2.5565
648.5,57.5313,1.24695,-2.55651
649,57.5826,1.24892,-2.55648
649.5,57.6331,1.25467,-2.55783
650,57.6832,1.25888,-2.55912
650.5,57.733,1.24823,-2.55914
651,57.7841,1.2497,-2.55914
651.5,57.8346,1.247,-2.55914
652,57.8844,1.24658,-2.55914
652.5,57.9345,1.25293,-2.56062
653,57.9846,1.24478,-2.56101
653.5,58.0356,1.25262,-2.5609
654,58.0853,1.24483,-2.5609
654.5,58.136,1.24391,-2.5609
655,58.1856,1.24819,-2.5609
655.5,58.236,1.24894,-2.56302
656,58.2874,1.26092,-2.56551
656.5,58.338,1.25229,-2.56512
657,58.3873,1.25107,-2.56397
657.5,58.4389,1.25679,-2.56485
658,58.4887,1.25362,-2.56394
658.5,58.5391,1.24729,-2.56454
659,58.5886,1.26207,-2.56529
659.5,58.6403,1.25441,-2.56529
660,58.6908,1.26817,-2.56529
660.5,58.7408,1.25361,-2.56529
661,58.791,1.2546,-2.56535
661.5,58.8403,1.25145,-2.56661
662,58.8918,1.25622,-2.56918
662.5,58.9417,1.24425,-2.56924
663,58.9916,1.24437,-2.56924
663.5,59.0424,1.2412,-2.56797
664,59.0926,1.24513,-2.56878
664.5,59.1428,1.24535,-2.56924
665,59.1939,1.24934,-2.56924
665.5,59.2436,1.24547,-2.57043
666,59.2941,1.24994,-2.57056
666.5,59.3447,1.24389,-2.56969
667,59.3955,1.25097,-2.57115
667.5,59.4458,1.24847,-2.57187
668,59.4953,1.2443,-2.57316
668.5,59.5459,1.24392,-2.5732
669,59.5962,1.2425,-2.5745
669.5,59.6469,1.24371,-2.57451
670,59.6967,1.24232,-2.57451
670.5,59.7472,1.23899,-2.57452
671,59.7979,1.24006,-2.57387
671.5,59.8475,1.23855,-2.57442
672,59.8979,1.24297,-2.57452
672.5,59.9486,1.24453,-2.57586
673,59.9988,1.23256,-2.57583
673.5,60.0497,1.24062,-2.57715
674,60.0993,1.24202,-2.57724
674.5,60.1498,1.24413,-2.57616
675,60.2003,1.2441,-2.57616
675.5,60.2507,1.24278,-2.57773
676,60.3003,1.24204,-2.5788
676.5,60.3483,1.2379,-2.57905
677,60.4008,1.23826,-2.57913
677.5,60.4522,1.23514,-2.57881
678,60.5014,1.23379,-2.5801
678.5,60.5517,1.22518,-2.58011
679,60.6019,1.21448,-2.58012
679.5,60.6518,1.2101,-2.58143
680,60.7033,1.2104,-2.58138
680.5,60.7524,1.20379,-2.58275
681,60.804,1.19844,-2.58275
681.5,60.8537,1.20252,-2.58275
682,60.9043,1.20852,-2.58275
682.5,60.9551,1.20915,-2.58273
683,61.0054,1.20909,-2.58277
683.5,61.054,1.20639,-2.58275
684,61.106,1.19962,-2.58404
684.5,61.1564,1.19404,-2.58406
685,61.2064,1.1951,-2.58406
685.5,61.2574,1.19226,-2.58437
686,61.3076,1.19057,-2.58447
686.5,61.3575,1.18174,-2.58608
687,61.4087,1.182,-2.5867
687.5,61.4583,1.17633,-2.58806
688,61.5096,1.17352,-2.58802
688.5,61.5593,1.1687,-2.58933
689,61.6092,1.16218,-2.58801
689.5,61.6611,1.16562,-2.58801
690,61.7112,1.15013,-2.58801
690.5,61.7616,1.13876,-2.58937
691,61.8111,1.13133,-2.58933
691.5,61.8618,1.12683,-2.58933
692,61.9118,1.12403,-2.59066
692.5,61.9624,1.12089,-2.59082
693,62.0116,1.10134,-2.59197
693.5,62.063,1.09917,-2.59068
694,62.1138,1.0915,-2.59066
694.5,62.1625,1.08677,-2.59066
695,62.214,1.08569,-2.59202
695.5,62.2652,1.07788,-2.59197
696,62.3157,1.07597,-2.59287
696.5,62.3659,1.06959,-2.59372
697,62.4168,1.06122,-2.59373
697.5,62.4665,1.06654,-2.59409
698,62.5178,1.05979,-2.59597
698.5,62.568,1.06766,-2.59599
699,62.6182,1.06124,-2.59841
699.5,62.6693,1.0576,-2.59942
700,62.719,1.05674,-2.59581
700.5,62.7702,1.05361,-2.59549
701,62.8202,1.0537,-2.59581
701.5,62.8703,1.04461,-2.59581
702,62.9212,1.04036,-2.59713
702.5,62.9727,1.03873,-2.59715
703,63.0202,1.03464,-2.59845
703.5,63.0723,1.02379,-2.59845
704,63.1234,1.02743,-2.5999
704.5,63.1732,1.01453,-2.60108
705,63.2239,1.0177,-2.60108
705.5,63.2749,1.01368,-2.60245
706,63.3244,1.01408,-2.6024
706.5,63.375,1.01362,-2.60427
707,63.4259,1.01524,-2.60673
707.5,63.476,1.00689,-2.60191
708,63.5264,1.00535,-2.60327
708.5,63.5775,0.999563,-2.607
709,63.6281,1.00369,-2.60352
709.5,63.6785,1.00271,-2.60349
710,63.7295,0.994792,-2.60349
710.5,63.7787,0.989721,-2.60484
711,63.8292,0.991706,-2.60481
711.5,63.8801,0.983562,-2.60613
712,63.931,0.979504,-2.60541
712.5,63.982,0.992922,-2.60548
713,64.0317,0.979929,-2.60681
713.5,64.083,0.983673,-2.60812
714,64.1325,0.975261,-2.60947
714.5,64.1828,0.976769,-2.60876
715,64.2341,0.97004,-2.61014
715.5,64.2844,0.976742,-2.61008
716,64.3352,0.969728,-2.61113
716.5,64.3854,0.967214,-2.6114
717,64.4363,0.962531,-2.6127
717.5,64.486,0.962779,-2.61272
718,64.537,0.960355,-2.61271
718.5,64.5874,0.96073,-2.61403
719,64.6383,0.956874,-2.61403
719.5,64.6892,0.955048,-2.61537
720,64.7372,0.948369,-2.61535
720.5,64.788,0.942852,-2.61535
721,64.8401,0.943229,-2.61612
721.5,64.8903,0.937792,-2.61745
722,64.9417,0.932373,-2.61646
722.5,64.9919,0.931,-2.61777
723,65.0425,0.925764,-2.61797
723.5,65.0932,0.927138,-2.61876
724,65.1441,0.91799,-2.61888
724.5,65.1948,0.922435,-2.61909
725,65.2455,0.909429,-2.61902
725.5,65.2956,0.895807,-2.6204
726,65.3453,0.895478,-2.62148
726.5,65.3953,0.895292,-2.62139
727,65.4474,0.884128,-2.62269
727.5,65.4983,0.887233,-2.62271
728,65.547,0.882009,-2.62271
728.5,65.5986,0.877674,-2.62273
729,65.6493,0.875176,-2.62403
729.5,65.7009,0.867335,-2.62534
730,65.7506,0.871695,-2.62535
730.5,65.8007,0.862047,-2.62524
731,65.8518,0.854279,-2.62534
731.5,65.9021,0.846678,-2.62675
732,65.9528,0.839341,-2.62667
732.5,66.0027,0.831378,-2.62798
733,66.0537,0.832343,-2.62798
733.5,66.1041,0.82382,-2.62798
734,66.1544,0.823199,-2.62934
734.5,66.2054,0.821693,-2.63059
735,66.2561,0.810648,-2.63094
735.5,66.3066,0.809131,-2.63186
736,66.3578,0.802899,-2.63186
736.5,66.4084,0.792935,-2.63312
737,66.4588,0.799474,-2.63319
737.5,66.5091,0.787547,-2.63193
738,66.5609,0.785087,-2.63321
738.5,66.6111,0.781793,-2.63457
739,66.6609,0.772334,-2.63528
739.5,66.7127,0.769221,-2.63456
740,66.7635,0.760001,-2.63456
740.5,66.8122,0.757993,-2.63696
741,66.864,0.749391,-2.63745
741.5,66.9144,0.75184,-2.63781
742,66.9663,0.748519,-2.6372
742.5,67.0173,0.74585,-2.63828
743,67.0678,0.733612,-2.63852
743.5,67.1179,0.726571,-2.63982
744,67.1684,0.716932,-2.63894
744.5,67.2192,0.709829,-2.63885
745,67.2709,0.701505,-2.64016
745.5,67.3208,0.691891,-2.64147
746,67.3714,0.692821,-2.64148
746.5,67.4219,0.698703,-2.6428
747,67.4732,0.694848,-2.64279
747.5,67.523,0.689685,-2.64194
748,67.5742,0.687238,-2.64314
748.5,67.6247,0.682218,-2.64444
749,67.6756,0.675938,-2.64444
749.5,67.7257,0.673832,-2.64443
750,67.7773,0.66546,-2.64827
750.5,67.8274,0.663074,-2.64692
751,67.878,0.651828,-2.64512
751.5,67.9284,0.638726,-2.64545
752,67.9795,0.635116,-2.64544
752.5,68.0306,0.625099,-2.64774
753,68.0819,0.629258,-2.64773
753.5,68.1322,0.624052,-2.6491
754,68.1832,0.62346,-2.64905
754.5,68.2329,0.615937,-2.64905
755,68.2842,0.607417,-2.65038
755.5,68.3349,0.605742,-2.65037
756,68.3849,0.600527,-2.65037
756.5,68.4347,0.602351,-2.65105
757,68.4847,0.59119,-2.65038
757.5,68.5367,0.585963,-2.65038
758,68.5881,0.581473,-2.65059
758.5,68.6379,0.572975,-2.65169
759,68.6878,0.577108,-2.6516
759.5,68.7388,0.573709,-2.65301
760,68.788,0.570661,-2.65334
760.5,68.8408,0.561515,-2.65334
761,68.8906,0.556161,-2.65334
761.5,68.9425,0.550826,-2.65466
762,68.9921,0.550297,-2.65598
762.5,69.0429,0.5456,-2.65595
763,69.0929,0.544426,-2.65463
763.5,69.1442,0.539625,-2.65597
764,69.195,0.528414,-2.65597
764.5,69.2448,0.537043,-2.65596
765,69.2954,0.53009,-2.65729
765.5,69.3458,0.526848,-2.65729
766,69.3972,0.515738,-2.65729
766.5,69.4478,0.512768,-2.65729
767,69.4981,0.511752,-2.65861
767.5,69.5491,0.508327,-2.65989
768,69.5988,0.504197,-2.66254
768.5,69.6501,0.50065,-2.65932
769,69.7003,0.496878,-2.65761
769.5,69.7516,0.499982,-2.65887
770,69.8025,0.488838,-2.66026
770.5,69.852,0.490148,-2.66156
771,69.9035,0.487,-2.66026
771.5,69.9534,0.484086,-2.66121
772,70.0041,0.478311,-2.66157
772.5,70.0552,0.475915,-2.66157
773,70.1063,0.474828,-2.66149
773.5,70.1574,0.472889,-2.66289
774,70.2079,0.475576,-2.66293
774.5,70.2584,0.470641,-2.66289
775,70.3096,0.472943,-2.66289
775.5,70.3608,0.469226,-2.6642
776,70.4109,0.458671,-2.66453
776.5,70.4619,0.463491,-2.66453
777,70.5127,0.457271,-2.66586
777.5,70.5627,0.456088,-2.66585
778,70.6144,0.452535,-2.66585
778.5,70.6648,0.449985,-2.66459
779,70.7159,0.445864,-2.66454
779.5,70.7657,0.444638,-2.66454
780,70.8164,0.439271,-2.66566
780.5,70.8679,0.438393,-2.66577
781,70.9188,0.440205,-2.66685
781.5,70.97,0.438722,-2.66685
782,71.0207,0.435598,-2.66685
782.5,71.0721,0.437181,-2.66748
783,71.122,0.436278,-2.66914
783.5,71.1729,0.434502,-2.66907
784,71.2239,0.430521,-2.66783
784.5,71.2741,0.429553,-2.66783
785,71.3254,0.430797,-2.66887
785.5,71.3767,0.422875,-2.66882
786,71.4267,0.424261,-2.66882
786.5,71.478,0.425019,-2.66883
787,71.5282,0.422254,-2.66917
787.5,71.5801,0.41715,-2.67047
788,71.6308,0.41856,-2.67047
788.5,71.6817,0.421346,-2.66915
789,71.7333,0.412602,-2.67047
789.5,71.7842,0.408013,-2.67191
790,71.8342,0.408525,-2.67073