File: 01_Data/PLA_3D_Printer_Filament/FTIR/IS/PLA_3D_Printer_Filament_IS_T_221108_R8.dpt
7497.03,0.02824
7491.25,0.02351
7485.46,0.01923
7479.67,0.02748
7473.89,0.02198
7468.1,0.02420
7462.32,0.02099
7456.53,0.03015
7450.74,0.02772
7444.96,0.02772
7439.17,0.01983
7433.38,0.02832
7427.6,0.02625
7421.81,0.01812
7416.03,0.01836
7410.24,0.02103
7404.45,0.02150
7398.67,0.02839
7392.88,0.02285
7387.09,0.02484
7381.31,0.03205
7375.52,0.02377
7369.74,0.02892
7363.95,0.02931
7358.16,0.01127
7352.38,0.02986
7346.59,0.02617
7340.8,0.02439
7335.02,0.03346
7329.23,0.02492
7323.45,0.02234
7317.66,0.03136
7311.87,0.03255
7306.09,0.02618
7300.3,0.02770
7294.51,0.02220
7288.73,0.02485
7282.94,0.02509
7277.16,0.02489
7271.37,0.02942
7265.58,0.02576
7259.8,0.01606
7254.01,0.02080
7248.22,0.02188
7242.44,0.03105
7236.65,0.02309
7230.87,0.01700
7225.08,0.01641
7219.29,0.02208
7213.51,0.03078
7207.72,0.02091
7201.93,0.02307
7196.15,0.02221
7190.36,0.01653
7184.58,0.01914
7178.79,0.01990
7173,0.02565
7167.22,0.02638
7161.43,0.02453
7155.65,0.02200
7149.86,0.02279
7144.07,0.02957
7138.29,0.03095
7132.5,0.02729
7126.71,0.02677
7120.93,0.02568
7115.14,0.02635
7109.36,0.03341
7103.57,0.02765
7097.78,0.02592
7092,0.02083
7086.21,0.03194
7080.42,0.02804
7074.64,0.02500
7068.85,0.02347
7063.07,0.02965
7057.28,0.02881
7051.49,0.01793
7045.71,0.02119
7039.92,0.02159
7034.13,0.02596
7028.35,0.02413
7022.56,0.01755
7016.78,0.02186
7010.99,0.02348
7005.2,0.02837
6999.42,0.02441
6993.63,0.02683
6987.84,0.02127
6982.06,0.02460
6976.27,0.02423
6970.49,0.02503
6964.7,0.02057
6958.91,0.02458
6953.13,0.02265
6947.34,0.02999
6941.55,0.02303
6935.77,0.02332
6929.98,0.03039
6924.2,0.02392
6918.41,0.02629
6912.62,0.02504
6906.84,0.02067
6901.05,0.02147
6895.26,0.02576
6889.48,0.02237
6883.69,0.02898
6877.91,0.02171
6872.12,0.02542
6866.33,0.02254
6860.55,0.02996
6854.76,0.02000
6848.97,0.02190
6843.19,0.01827
6837.4,0.01742
6831.62,0.02448
6825.83,0.02343
6820.04,0.01818
6814.26,0.02048
6808.47,0.02037
6802.68,0.02421
6796.9,0.02586
6791.11,0.02469
6785.33,0.03098
6779.54,0.02772
6773.75,0.02458
6767.97,0.02506
6762.18,0.02736
6756.39,0.02652
6750.61,0.01785
6744.82,0.02180
6739.04,0.02641
6733.25,0.02182
6727.46,0.01911
6721.68,0.02407
6715.89,0.01996
6710.1,0.02635
6704.32,0.02213
6698.53,0.02599
6692.75,0.02037
6686.96,0.02176
6681.17,0.02219
6675.39,0.02801
6669.6,0.02279
6663.82,0.01982
6658.03,0.01903
6652.24,0.01818
6646.46,0.02297
6640.67,0.01650
6634.88,0.02604
6629.1,0.02806
6623.31,0.02374
6617.53,0.02268
6611.74,0.02307
6605.95,0.02164
6600.17,0.02415
6594.38,0.01764
6588.59,0.01853
6582.81,0.02010
6577.02,0.02237
6571.24,0.02590
6565.45,0.01979
6559.66,0.01956
6553.88,0.02594
6548.09,0.01787
6542.3,0.02068
6536.52,0.02131
6530.73,0.02024
6524.95,0.02162
6519.16,0.02112
6513.37,0.02889
6507.59,0.02238
6501.8,0.01870
6496.01,0.02305
6490.23,0.02213
6484.44,0.02197
6478.66,0.02124
6472.87,0.02293
6467.08,0.02174
6461.3,0.01965
6455.51,0.02218
6449.72,0.02133
6443.94,0.02060
6438.15,0.02373
6432.37,0.02218
6426.58,0.02190
6420.79,0.02289
6415.01,0.01885
6409.22,0.01910
6403.43,0.02218
6397.65,0.02182
6391.86,0.02681
6386.08,0.02372
6380.29,0.02039
6374.5,0.02451
6368.72,0.02411
6362.93,0.01798
6357.14,0.02374
6351.36,0.02159
6345.57,0.02198
6339.79,0.02135
6334,0.02279
6328.21,0.02095
6322.43,0.02028
6316.64,0.02273
6310.85,0.02255
6305.07,0.02024
6299.28,0.01977
6293.5,0.02072
6287.71,0.01992
6281.92,0.01814
6276.14,0.02030
6270.35,0.01717
6264.56,0.02138
6258.78,0.01785
6252.99,0.02240
6247.21,0.02473
6241.42,0.02297
6235.63,0.02129
6229.85,0.02378
6224.06,0.02298
6218.27,0.02141
6212.49,0.02164
6206.7,0.02145
6200.92,0.02358
6195.13,0.02270
6189.34,0.02127
6183.56,0.01934
6177.77,0.02294
6171.98,0.02203
6166.2,0.02307
6160.41,0.01821
6154.63,0.02323
6148.84,0.02253
6143.05,0.02181
6137.27,0.02131
6131.48,0.02404
6125.7,0.01936
6119.91,0.01695
6114.12,0.02098
6108.34,0.02127
6102.55,0.01981
6096.76,0.02230
6090.98,0.02258
6085.19,0.01744
6079.41,0.02205
6073.62,0.01964
6067.83,0.02050
6062.05,0.02063
6056.26,0.02050
6050.47,0.02299
6044.69,0.02004
6038.9,0.02316
6033.12,0.01776
6027.33,0.01919
6021.54,0.01894
6015.76,0.02106
6009.97,0.01720
6004.18,0.02166
5998.4,0.02403
5992.61,0.02289
5986.83,0.02496
5981.04,0.02155
5975.25,0.02420
5969.47,0.02451
5963.68,0.02075
5957.89,0.02355
5952.11,0.02102
5946.32,0.02170
5940.54,0.02233
5934.75,0.01926
5928.96,0.01979
5923.18,0.02208
5917.39,0.02388
5911.6,0.02160
5905.82,0.02139
5900.03,0.02076
5894.25,0.02347
5888.46,0.02040
5882.67,0.02079
5876.89,0.01988
5871.1,0.02037
5865.31,0.02092
5859.53,0.02237
5853.74,0.02496
5847.96,0.02044
5842.17,0.01699
5836.38,0.02164
5830.6,0.02189
5824.81,0.02229
5819.02,0.02249
5813.24,0.02267
5807.45,0.02169
5801.67,0.02234
5795.88,0.02199
5790.09,0.02206
5784.31,0.02089
5778.52,0.01981
5772.73,0.02142
5766.95,0.02278
5761.16,0.02243
5755.38,0.02037
5749.59,0.02340
5743.8,0.02218
5738.02,0.02026
5732.23,0.02072
5726.44,0.02147
5720.66,0.02189
5714.87,0.02003
5709.09,0.02227
5703.3,0.02114
5697.51,0.02163
5691.73,0.01833
5685.94,0.02151
5680.15,0.02207
5674.37,0.02360
5668.58,0.02291
5662.8,0.02189
5657.01,0.02091
5651.22,0.02217
5645.44,0.02033
5639.65,0.02163
5633.87,0.02420
5628.08,0.02332
5622.29,0.02295
5616.51,0.02193
5610.72,0.02197
5604.93,0.02330
5599.15,0.02081
5593.36,0.02169
5587.58,0.02137
5581.79,0.02013
5576,0.02254
5570.22,0.02138
5564.43,0.02159
5558.64,0.02324
5552.86,0.02269
5547.07,0.02141
5541.29,0.02192
5535.5,0.02252
5529.71,0.02252
5523.93,0.02229
5518.14,0.02208
5512.35,0.02288
5506.57,0.02289
5500.78,0.02309
5495,0.02073
5489.21,0.01992
5483.42,0.02072
5477.64,0.02032
5471.85,0.02027
5466.06,0.02178
5460.28,0.02238
5454.49,0.02322
5448.71,0.02260
5442.92,0.02109
5437.13,0.02011
5431.35,0.02124
5425.56,0.02098
5419.77,0.02151
5413.99,0.02124
5408.2,0.02057
5402.42,0.02120
5396.63,0.02056
5390.84,0.02177
5385.06,0.02183
5379.27,0.02199
5373.48,0.02017
5367.7,0.02012
5361.91,0.02152
5356.13,0.02237
5350.34,0.02138
5344.55,0.02117
5338.77,0.02299
5332.98,0.02402
5327.19,0.02187
5321.41,0.02206
5315.62,0.02269
5309.84,0.02227
5304.05,0.02197
5298.26,0.02057
5292.48,0.02074
5286.69,0.02047
5280.9,0.02246
5275.12,0.02252
5269.33,0.02222
5263.55,0.02154
5257.76,0.02296
5251.97,0.02338
5246.19,0.02157
5240.4,0.02106
5234.61,0.02089
5228.83,0.02136
5223.04,0.02268
5217.26,0.02201
5211.47,0.02147
5205.68,0.02217
5199.9,0.02100
5194.11,0.02199
5188.32,0.02258
5182.54,0.02182
5176.75,0.02333
5170.97,0.02150
5165.18,0.02136
5159.39,0.02233
5153.61,0.02190
5147.82,0.02173
5142.03,0.02106
5136.25,0.02058
5130.46,0.02041
5124.68,0.02251
5118.89,0.02237
5113.1,0.02207
5107.32,0.02263
5101.53,0.02185
5095.75,0.02266
5089.96,0.02110
5084.17,0.02124
5078.39,0.02077
5072.6,0.02241
5066.81,0.02234
5061.03,0.02172
5055.24,0.02216
5049.46,0.02117
5043.67,0.02209
5037.88,0.02194
5032.1,0.02120
5026.31,0.02263
5020.52,0.02351
5014.74,0.02140
5008.95,0.02164
5003.17,0.02064
4997.38,0.02190
4991.59,0.02058
4985.81,0.02214
4980.02,0.02377
4974.23,0.02140
4968.45,0.02124
4962.66,0.02189
4956.88,0.02169
4951.09,0.02154
4945.3,0.02073
4939.52,0.02095
4933.73,0.02203
4927.94,0.02124
4922.16,0.02144
4916.37,0.02088
4910.59,0.02215
4904.8,0.02067
4899.01,0.02206
4893.23,0.02186
4887.44,0.02206
4881.65,0.02123
4875.87,0.02236
4870.08,0.02127
4864.3,0.02186
4858.51,0.02174
4852.72,0.02250
4846.94,0.02161
4841.15,0.02125
4835.36,0.02122
4829.58,0.02047
4823.79,0.02177
4818.01,0.02170
4812.22,0.02150
4806.43,0.02198
4800.65,0.02223
4794.86,0.02056
4789.07,0.02194
4783.29,0.02077
4777.5,0.02154
4771.72,0.02301
4765.93,0.02331
4760.14,0.02244
4754.36,0.02167
4748.57,0.02164
4742.78,0.02279
4737,0.02262
4731.21,0.02259
4725.43,0.02183
4719.64,0.02164
4713.85,0.02177
4708.07,0.02177
4702.28,0.02211
4696.49,0.02209
4690.71,0.02198
4684.92,0.02121
4679.14,0.02155
4673.35,0.02160
4667.56,0.02187
4661.78,0.02305
4655.99,0.02125
4650.2,0.02216
4644.42,0.02343
4638.63,0.02289
4632.85,0.02284
4627.06,0.02241
4621.27,0.02289
4615.49,0.02259
4609.7,0.02302
4603.92,0.02136
4598.13,0.02113
4592.34,0.02215
4586.56,0.02181
4580.77,0.02159
4574.98,0.02185
4569.2,0.02211
4563.41,0.02161
4557.63,0.02226
4551.84,0.02289
4546.05,0.02206
4540.27,0.02233
4534.48,0.02191
4528.69,0.02162
4522.91,0.02164
4517.12,0.02165
4511.34,0.02187
4505.55,0.02121
4499.76,0.02206
4493.98,0.02201
4488.19,0.02247
4482.4,0.02236
4476.62,0.02226
4470.83,0.02256
4465.05,0.02271
4459.26,0.02251
4453.47,0.02239
4447.69,0.02169
4441.9,0.02144
4436.11,0.02205
4430.33,0.02192
4424.54,0.02183
4418.76,0.02237
4412.97,0.02265
4407.18,0.02177
4401.4,0.02284
4395.61,0.02233
4389.82,0.02190
4384.04,0.02291
4378.25,0.02165
4372.47,0.02218
4366.68,0.02305
4360.89,0.02204
4355.11,0.02275
4349.32,0.02329
4343.53,0.02200
4337.75,0.02275
4331.96,0.02225
4326.18,0.02202
4320.39,0.02252
4314.6,0.02198
4308.82,0.02242
4303.03,0.02174
4297.24,0.02221
4291.46,0.02181
4285.67,0.02232
4279.89,0.02244
4274.1,0.02253
4268.31,0.02187
4262.53,0.02166
4256.74,0.02241
4250.95,0.02210
4245.17,0.02287
4239.38,0.02284
4233.6,0.02295
4227.81,0.02301
4222.02,0.02231
4216.24,0.02237
4210.45,0.02226
4204.66,0.02235
4198.88,0.02295
4193.09,0.02273
4187.31,0.02359
4181.52,0.02167
4175.73,0.02267
4169.95,0.02201
4164.16,0.02192
4158.37,0.02186
4152.59,0.02204
4146.8,0.02198
4141.02,0.02263
4135.23,0.02245
4129.44,0.02284
4123.66,0.02192
4117.87,0.02216
4112.09,0.02253
4106.3,0.02259
4100.51,0.02270
4094.73,0.02227
4088.94,0.02255
4083.15,0.02179
4077.37,0.02188
4071.58,0.02209
4065.8,0.02295
4060.01,0.02231
4054.22,0.02235
4048.44,0.02221
4042.65,0.02201
4036.86,0.02257
4031.08,0.02181
4025.29,0.02234
4019.51,0.02263
4013.72,0.02244
4007.93,0.02297
4002.15,0.02271
3996.36,0.02253
3990.57,0.02181
3984.79,0.02204
3979,0.02238
3973.22,0.02262
3967.43,0.02232
3961.64,0.02204
3955.86,0.02216
3950.07,0.02269
3944.28,0.02240
3938.5,0.02212
3932.71,0.02274
3926.93,0.02203
3921.14,0.02200
3915.35,0.02263
3909.57,0.02262
3903.78,0.02239
3897.99,0.02288
3892.21,0.02258
3886.42,0.02283
3880.64,0.02277
3874.85,0.02271
3869.06,0.02280
3863.28,0.02277
3857.49,0.02208
3851.7,0.02200
3845.92,0.02236
3840.13,0.02224
3834.35,0.02300
3828.56,0.02275
3822.77,0.02301
3816.99,0.02257
3811.2,0.02299
3805.41,0.02219
3799.63,0.02261
3793.84,0.02237
3788.06,0.02247
3782.27,0.02262
3776.48,0.02214
3770.7,0.02246
3764.91,0.02247
3759.12,0.02272
3753.34,0.02222
3747.55,0.02286
3741.77,0.02197
3735.98,0.02184
3730.19,0.02176
3724.41,0.02267
3718.62,0.02232
3712.83,0.02235
3707.05,0.02272
3701.26,0.02230
3695.48,0.02184
3689.69,0.02297
3683.9,0.02268
3678.12,0.02186
3672.33,0.02195
3666.54,0.02155
3660.76,0.02222
3654.97,0.02163
3649.19,0.02168
3643.4,0.02155
3637.61,0.02251
3631.83,0.02202
3626.04,0.02133
3620.25,0.02092
3614.47,0.02101
3608.68,0.02162
3602.9,0.02161
3597.11,0.02135
3591.32,0.02164
3585.54,0.02125
3579.75,0.02134
3573.97,0.02086
3568.18,0.02120
3562.39,0.02117
3556.61,0.02158
3550.82,0.02106
3545.03,0.02077
3539.25,0.02117
3533.46,0.02098
3527.68,0.02087
3521.89,0.02108
3516.1,0.02074
3510.32,0.02088
3504.53,0.02072
3498.74,0.02084
3492.96,0.02048
3487.17,0.02106
3481.39,0.02120
3475.6,0.02116
3469.81,0.02107
3464.03,0.02103
3458.24,0.02054
3452.45,0.02125
3446.67,0.02137
3440.88,0.02103
3435.1,0.02047
3429.31,0.02016
3423.52,0.02085
3417.74,0.02078
3411.95,0.02049
3406.16,0.02046
3400.38,0.02045
3394.59,0.02031
3388.81,0.02040
3383.02,0.02014
3377.23,0.02001
3371.45,0.02016
3365.66,0.02044
3359.87,0.02029
3354.09,0.02044
3348.3,0.02056
3342.52,0.02023
3336.73,0.02006
3330.94,0.02066
3325.16,0.02007
3319.37,0.02068
3313.58,0.02007
3307.8,0.02013
3302.01,0.02012
3296.23,0.02107
3290.44,0.02009
3284.65,0.01970
3278.87,0.02020
3273.08,0.02005
3267.29,0.02092
3261.51,0.02067
3255.72,0.02053
3249.94,0.02094
3244.15,0.02086
3238.36,0.02047
3232.58,0.02058
3226.79,0.02020
3221,0.02133
3215.22,0.02030
3209.43,0.02086
3203.65,0.02146
3197.86,0.02079
3192.07,0.02077
3186.29,0.02106
3180.5,0.02120
3174.71,0.02104
3168.93,0.02089
3163.14,0.02072
3157.36,0.02081
3151.57,0.02092
3145.78,0.02074
3140,0.02083
3134.21,0.02051
3128.42,0.02022
3122.64,0.02056
3116.85,0.02057
3111.07,0.02054
3105.28,0.02085
3099.49,0.02099
3093.71,0.02082
3087.92,0.02116
3082.14,0.02064
3076.35,0.02037
3070.56,0.02077
3064.78,0.02042
3058.99,0.02034
3053.2,0.02085
3047.42,0.02094
3041.63,0.02116
3035.85,0.02075
3030.06,0.02073
3024.27,0.02113
3018.49,0.02093
3012.7,0.02052
3006.91,0.02022
3001.13,0.02008
2995.34,0.01998
2989.56,0.01993
2983.77,0.01970
2977.98,0.02016
2972.2,0.02006
2966.41,0.01933
2960.62,0.02004
2954.84,0.01972
2949.05,0.01961
2943.27,0.01978
2937.48,0.01979
2931.69,0.01966
2925.91,0.01941
2920.12,0.01990
2914.33,0.02035
2908.55,0.02051
2902.76,0.02065
2896.98,0.02085
2891.19,0.02067
2885.4,0.02061
2879.62,0.02075
2873.83,0.02056
2868.04,0.02089
2862.26,0.02063
2856.47,0.02093
2850.69,0.02112
2844.9,0.02130
2839.11,0.02119
2833.33,0.02155
2827.54,0.02163
2821.75,0.02147
2815.97,0.02113
2810.18,0.02154
2804.4,0.02131
2798.61,0.02100
2792.82,0.02143
2787.04,0.02117
2781.25,0.02113
2775.46,0.02175
2769.68,0.02156
2763.89,0.02104
2758.11,0.02150
2752.32,0.02182
2746.53,0.02141
2740.75,0.02193
2734.96,0.02175
2729.17,0.02100
2723.39,0.02103
2717.6,0.02097
2711.82,0.02116
2706.03,0.02136
2700.24,0.02135
2694.46,0.02106
2688.67,0.02118
2682.88,0.02119
2677.1,0.02139
2671.31,0.02145
2665.53,0.02098
2659.74,0.02180
2653.95,0.02125
2648.17,0.02166
2642.38,0.02141
2636.59,0.02137
2630.81,0.02155
2625.02,0.02164
2619.24,0.02165
2613.45,0.02095
2607.66,0.02117
2601.88,0.02143
2596.09,0.02197
2590.3,0.02106
2584.52,0.02147
2578.73,0.02111
2572.95,0.02167
2567.16,0.02143
2561.37,0.02122
2555.59,0.02126
2549.8,0.02096
2544.02,0.02175
2538.23,0.02179
2532.44,0.02150
2526.66,0.02099
2520.87,0.02141
2515.08,0.02112
2509.3,0.02141
2503.51,0.02177
2497.73,0.02144
2491.94,0.02125
2486.15,0.02138
2480.37,0.02150
2474.58,0.02146
2468.79,0.02110
2463.01,0.02164
2457.22,0.02185
2451.44,0.02160
2445.65,0.02122
2439.86,0.02134
2434.08,0.02125
2428.29,0.02171
2422.5,0.02128
2416.72,0.02109
2410.93,0.02154
2405.15,0.02096
2399.36,0.02131
2393.57,0.02147
2387.79,0.02081
2382,0.02143
2376.21,0.02150
2370.43,0.02114
2364.64,0.02145
2358.86,0.02125
2353.07,0.02160
2347.28,0.02150
2341.5,0.02185
2335.71,0.02168
2329.92,0.02172
2324.14,0.02156
2318.35,0.02136
2312.57,0.02144
2306.78,0.02152
2300.99,0.02130
2295.21,0.02145
2289.42,0.02097
2283.63,0.02119
2277.85,0.02151
2272.06,0.02125
2266.28,0.02095
2260.49,0.02148
2254.7,0.02142
2248.92,0.02153
2243.13,0.02138
2237.34,0.02132
2231.56,0.02134
2225.77,0.02141
2219.99,0.02103
2214.2,0.02110
2208.41,0.02084
2202.63,0.02120
2196.84,0.02119
2191.05,0.02139
2185.27,0.02149
2179.48,0.02143
2173.7,0.02132
2167.91,0.02132
2162.12,0.02141
2156.34,0.02149
2150.55,0.02120
2144.76,0.02143
2138.98,0.02083
2133.19,0.02144
2127.41,0.02094
2121.62,0.02105
2115.83,0.02118
2110.05,0.02122
2104.26,0.02097
2098.47,0.02144
2092.69,0.02120
2086.9,0.02100
2081.12,0.02090
2075.33,0.02090
2069.54,0.02108
2063.76,0.02149
2057.97,0.02105
2052.19,0.02147
2046.4,0.02102
2040.61,0.02116
2034.83,0.02093
2029.04,0.02104
2023.25,0.02081
2017.47,0.02081
2011.68,0.02109
2005.9,0.02098
2000.11,0.02100
1994.32,0.02115
1988.54,0.02082
1982.75,0.02142
1976.96,0.02097
1971.18,0.02086
1965.39,0.02102
1959.61,0.02100
1953.82,0.02088
1948.03,0.02078
1942.25,0.02116
1936.46,0.02112
1930.67,0.02106
1924.89,0.02121
1919.1,0.02110
1913.32,0.02083
1907.53,0.02076
1901.74,0.02074
1895.96,0.02073
1890.17,0.02080
1884.38,0.02055
1878.6,0.02038
1872.81,0.02073
1867.03,0.02095
1861.24,0.02065
1855.45,0.02044
1849.67,0.02065
1843.88,0.02071
1838.09,0.02005
1832.31,0.02029
1826.52,0.02027
1820.74,0.02027
1814.95,0.02021
1809.16,0.02003
1803.38,0.02002
1797.59,0.01970
1791.8,0.01969
1786.02,0.01963
1780.23,0.01927
1774.45,0.01939
1768.66,0.01919
1762.87,0.01859
1757.09,0.01776
1751.3,0.01773
1745.51,0.01789
1739.73,0.01877
1733.94,0.02013
1728.16,0.02059
1722.37,0.02118
1716.58,0.02145
1710.8,0.02080
1705.01,0.02018
1699.22,0.02065
1693.44,0.01977
1687.65,0.01956
1681.87,0.01923
1676.08,0.01891
1670.29,0.01875
1664.51,0.01896
1658.72,0.01865
1652.93,0.01880
1647.15,0.01888
1641.36,0.01877
1635.58,0.01871
1629.79,0.01926
1624,0.01927
1618.22,0.01909
1612.43,0.01899
1606.64,0.01898
1600.86,0.01903
1595.07,0.01904
1589.29,0.01892
1583.5,0.01859
1577.71,0.01887
1571.93,0.01878
1566.14,0.01862
1560.35,0.01881
1554.57,0.01853
1548.78,0.01869
1543,0.01877
1537.21,0.01832
1531.42,0.01901
1525.64,0.01934
1519.85,0.01911
1514.07,0.01893
1508.28,0.01952
1502.49,0.01883
1496.71,0.01918
1490.92,0.01915
1485.13,0.01868
1479.35,0.01889
1473.56,0.01883
1467.78,0.01881
1461.99,0.01857
1456.2,0.01900
1450.42,0.01900
1444.63,0.01901
1438.84,0.01909
1433.06,0.01883
1427.27,0.01884
1421.49,0.01883
1415.7,0.01897
1409.91,0.01882
1404.13,0.01825
1398.34,0.01836
1392.55,0.01851
1386.77,0.01870
1380.98,0.01885
1375.2,0.01862
1369.41,0.01845
1363.62,0.01829
1357.84,0.01880
1352.05,0.01846
1346.26,0.01836
1340.48,0.01807
1334.69,0.01817
1328.91,0.01793
1323.12,0.01727
1317.33,0.01757
1311.55,0.01728
1305.76,0.01738
1299.97,0.01791
1294.19,0.01818
1288.4,0.01861
1282.62,0.01908
1276.83,0.01931
1271.04,0.01949
1265.26,0.02018
1259.47,0.02038
1253.68,0.02021
1247.9,0.02081
1242.11,0.02039
1236.33,0.01996
1230.54,0.02021
1224.75,0.01975
1218.97,0.01968
1213.18,0.01973
1207.39,0.01927
1201.61,0.01889
1195.82,0.01937
1190.04,0.01924
1184.25,0.01879
1178.46,0.01852
1172.68,0.01826
1166.89,0.01770
1161.1,0.01807
1155.32,0.01778
1149.53,0.01764
1143.75,0.01732
1137.96,0.01817
1132.17,0.01779
1126.39,0.01837
1120.6,0.01909
1114.81,0.01972
1109.03,0.01931
1103.24,0.01940
1097.46,0.01803
1091.67,0.01822
1085.88,0.01866
1080.1,0.02012
1074.31,0.01965
1068.52,0.02068
1062.74,0.02074
1056.95,0.02035
1051.17,0.02031
1045.38,0.01969
1039.59,0.02002
1033.81,0.01933
1028.02,0.02023
1022.24,0.01999
1016.45,0.01951
1010.66,0.01999
1004.88,0.02121
999.09,0.02098
993.304,0.02150
987.518,0.02102
981.731,0.02079
975.945,0.02060
970.159,0.02091
964.373,0.02090
958.586,0.02042
952.8,0.02090
947.014,0.01971
941.228,0.01947
935.441,0.01974
929.655,0.02063
923.869,0.01956
918.083,0.01999
912.297,0.01970
906.51,0.01955
900.724,0.02013
894.938,0.01977
889.152,0.01986
883.365,0.01962
877.579,0.01879
871.793,0.01816
866.007,0.01864
860.22,0.01875
854.434,0.01921
848.648,0.01907
842.862,0.01882
837.075,0.01880
831.289,0.01887
825.503,0.01882
819.717,0.01876
813.931,0.01929
808.144,0.01878
802.358,0.01870
796.572,0.01854
790.786,0.01976
784.999,0.01893
779.213,0.01891
773.427,0.01818
767.641,0.01835
761.854,0.01796
756.068,0.01837
750.282,0.01840
744.496,0.01850
738.709,0.01798
732.923,0.01815
727.137,0.01827
721.351,0.01815
715.565,0.01815
709.778,0.01831
703.992,0.01805
698.206,0.01730
692.42,0.01759
686.633,0.01795
680.847,0.01776
675.061,0.01810
669.275,0.01763
663.488,0.01687
657.702,0.01682
651.916,0.01781
646.13,0.01717
640.343,0.01762
634.557,0.01697
628.771,0.01491
622.985,0.01548
617.198,0.01533
611.412,0.01511
605.626,0.01558
599.84,0.01413