File: 01_Data/Three_Layer_Turnout_Gear_Moisture_Barrier/STA/N2/10K_min/Three_Layer_Turnout_Gear_Moisture_Barrier_STA_N2_10KData_240523_R1.csv
Temp./C,Time/min,DSC/(mW/mg),Mass loss/mg
60.0,0.0,0.944868,-0.0167559
60.5,0.0568065,0.960147,-0.0179339
61,0.112932,0.966595,-0.0179273
61.5,0.169216,0.986806,-0.0191654
62,0.224133,1.00226,-0.0186884
62.5,0.280161,1.01509,-0.0192113
63,0.336177,1.0324,-0.0179774
63.5,0.38921,1.03398,-0.0185838
64,0.444075,1.05222,-0.019259
64.5,0.501254,1.06765,-0.0205712
65,0.552553,1.07656,-0.0205
65.5,0.60788,1.09077,-0.0192027
66,0.660973,1.09545,-0.0191891
66.5,0.714852,1.09732,-0.0205182
67,0.768428,1.11561,-0.0205306
67.5,0.823722,1.12892,-0.0205108
68,0.873989,1.13614,-0.019244
68.5,0.928297,1.14348,-0.0205278
69,0.980404,1.15493,-0.019256
69.5,1.03421,1.1644,-0.0192745
70,1.08715,1.17192,-0.0215186
70.5,1.13991,1.18138,-0.0248103
71,1.18992,1.19264,-0.0250233
71.5,1.24481,1.20374,-0.0229207
72,1.2963,1.21182,-0.0208581
72.5,1.35064,1.21685,-0.0221584
73,1.39862,1.23093,-0.0215051
73.5,1.45383,1.2365,-0.0221813
74,1.50516,1.24413,-0.0223329
74.5,1.55715,1.25034,-0.0235002
75,1.6089,1.25925,-0.0247156
75.5,1.66136,1.25641,-0.02481
76,1.7125,1.26753,-0.0262336
76.5,1.76381,1.27491,-0.0258011
77,1.81518,1.27912,-0.0251379
77.5,1.86688,1.28218,-0.0247862
78,1.91828,1.29932,-0.0260913
78.5,1.96727,1.29576,-0.0248084
79,2.02169,1.30529,-0.0247974
79.5,2.07133,1.30714,-0.0261301
80,2.12356,1.31005,-0.0270167
80.5,2.1738,1.31463,-0.0271209
81,2.22549,1.32062,-0.025801
81.5,2.27763,1.32305,-0.0267732
82,2.32668,1.33493,-0.0271116
82.5,2.37766,1.34075,-0.0271274
83,2.42892,1.34473,-0.0284246
83.5,2.47906,1.35052,-0.02843
84,2.53072,1.34894,-0.02843
84.5,2.58014,1.3549,-0.0283889
85,2.63126,1.34905,-0.02975
85.5,2.68149,1.35662,-0.0310858
86,2.72929,1.36069,-0.0297583
86.5,2.77814,1.36043,-0.0311484
87,2.83262,1.35679,-0.0310699
87.5,2.88212,1.3517,-0.0310709
88,2.93235,1.35463,-0.0314319
88.5,2.9821,1.35361,-0.0314
89,3.03209,1.35551,-0.0313995
89.5,3.08137,1.36054,-0.0327244
90,3.13113,1.34149,-0.03272
90.5,3.18094,1.34869,-0.0327176
91,3.2303,1.35445,-0.0340438
91.5,3.28049,1.35185,-0.0340078
92,3.32947,1.35521,-0.0313998
92.5,3.3784,1.34596,-0.0328176
93,3.42733,1.34048,-0.0342179
93.5,3.47701,1.33723,-0.0329787
94,3.52711,1.33743,-0.0338004
94.5,3.57727,1.33096,-0.03382
95,3.6257,1.32522,-0.0338195
95.5,3.67468,1.33655,-0.0332985
96,3.72459,1.31511,-0.0338198
96.5,3.77372,1.32446,-0.0338281
97,3.82135,1.32135,-0.0351171
97.5,3.8714,1.31221,-0.0351303
98,3.91973,1.31872,-0.036449
98.5,3.96844,1.30627,-0.0365021
99,4.0179,1.30068,-0.0361251
99.5,4.06705,1.299,-0.0361189
100,4.11578,1.29293,-0.0374542
100.5,4.16384,1.29886,-0.0377723
101,4.21173,1.28648,-0.0364717
101.5,4.26277,1.27924,-0.0364499
102,4.31123,1.27698,-0.0364586
102.5,4.35979,1.27161,-0.0364723
103,4.40739,1.26864,-0.03644
103.5,4.45714,1.26369,-0.0364374
104,4.50587,1.25938,-0.0367648
104.5,4.55474,1.25885,-0.03677
105,4.60323,1.25098,-0.0367794
105.5,4.65168,1.25603,-0.0381967
106,4.70124,1.25282,-0.0384678
106.5,4.74971,1.25244,-0.0384199
107,4.7984,1.24179,-0.0384199
107.5,4.84589,1.24984,-0.0384309
108,4.89467,1.24714,-0.0377844
108.5,4.94317,1.24556,-0.0384299
109,4.99179,1.23543,-0.0384299
109.5,5.04012,1.23477,-0.0384795
110,5.08794,1.23707,-0.0371039
110.5,5.13708,1.23163,-0.0380899
111,5.18711,1.23684,-0.0386622
111.5,5.23494,1.23676,-0.0397384
112,5.28289,1.21784,-0.0411649
112.5,5.33191,1.22376,-0.0410582
113,5.37941,1.22523,-0.0398225
113.5,5.42835,1.22584,-0.039055
114,5.47346,1.22623,-0.0387499
114.5,5.5257,1.23286,-0.0383966
115,5.57206,1.21894,-0.0384281
115.5,5.62249,1.2176,-0.0370936
116,5.66734,1.21602,-0.0381126
116.5,5.71894,1.20833,-0.0380952
117,5.76617,1.21118,-0.0384205
117.5,5.81539,1.21651,-0.039703
118,5.86116,1.20845,-0.0397401
118.5,5.91183,1.21137,-0.0397401
119,5.9602,1.21326,-0.0396652
119.5,6.00839,1.21105,-0.0384314
120,6.05668,1.21858,-0.0384309
120.5,6.10588,1.22081,-0.0397643
121,6.15352,1.21758,-0.0384369
121.5,6.202,1.2227,-0.0369696
122,6.24941,1.21252,-0.0399946
122.5,6.29791,1.21351,-0.0411693
123,6.34579,1.21456,-0.04117
123.5,6.39492,1.21828,-0.0411701
124,6.44279,1.21685,-0.0407447
124.5,6.49116,1.21717,-0.0391994
125,6.53896,1.22615,-0.0392
125.5,6.58763,1.22101,-0.0391998
126,6.63534,1.21966,-0.0392547
126.5,6.68408,1.22403,-0.0405095
127,6.73225,1.2273,-0.04051
127.5,6.78044,1.22055,-0.0396923
128,6.82833,1.2275,-0.0405037
128.5,6.87771,1.22036,-0.0405197
129,6.92451,1.22546,-0.0414977
129.5,6.97216,1.23373,-0.0415
130,7.02179,1.23274,-0.0415
130.5,7.0687,1.22537,-0.0414704
131,7.11688,1.23636,-0.0418293
131.5,7.16535,1.22149,-0.04183
132,7.21366,1.22868,-0.0418302
132.5,7.26216,1.23049,-0.041451
133,7.30934,1.22956,-0.0405133
133.5,7.35783,1.23865,-0.0389109
134,7.4056,1.23693,-0.0389799
134.5,7.45295,1.23647,-0.0416366
135,7.50116,1.24055,-0.0430039
135.5,7.55042,1.23776,-0.0429199
136,7.59793,1.24202,-0.0429237
136.5,7.6461,1.24271,-0.0415977
137,7.69315,1.23572,-0.0416
137.5,7.74233,1.24049,-0.0416094
138,7.7891,1.23577,-0.0416075
138.5,7.83833,1.2383,-0.0403143
139,7.88569,1.23984,-0.0416498
139.5,7.93375,1.24267,-0.04161
140,7.97926,1.24331,-0.04161
140.5,8.02918,1.24159,-0.0416092
141,8.07739,1.23867,-0.0408158
141.5,8.12461,1.24155,-0.0416092
142,8.17314,1.24193,-0.04161
142.5,8.2202,1.24016,-0.0416102
143,8.26806,1.24638,-0.041496
143.5,8.31518,1.25549,-0.0402898
144,8.36358,1.25848,-0.0402874
144.5,8.41158,1.25904,-0.0412737
145,8.45967,1.25416,-0.04128
145.5,8.5069,1.2601,-0.04128
146,8.55431,1.25712,-0.0412855
146.5,8.59977,1.2555,-0.0416115
147,8.6495,1.26251,-0.041245
147.5,8.69866,1.26146,-0.0398465
148,8.74651,1.27285,-0.0402791
148.5,8.79413,1.26995,-0.0422247
149,8.84101,1.26158,-0.0427003
149.5,8.88857,1.26797,-0.0440034
150,8.93581,1.27335,-0.0441169
150.5,8.98333,1.27024,-0.0417363
151,9.03255,1.27306,-0.0424606
151.5,9.07984,1.2693,-0.0430295
152,9.12761,1.27313,-0.0430302
152.5,9.17587,1.2763,-0.0433719
153,9.2238,1.26417,-0.0436898
153.5,9.27114,1.28132,-0.0436899
154,9.31662,1.26927,-0.0437003
154.5,9.36784,1.27702,-0.0423464
155,9.41494,1.28003,-0.0437042
155.5,9.46283,1.28193,-0.0437
156,9.51037,1.27753,-0.0436976
156.5,9.55895,1.28028,-0.0425537
157,9.60531,1.2814,-0.04271
157.5,9.65358,1.29098,-0.04271
158,9.70223,1.28721,-0.04271
158.5,9.74894,1.29514,-0.0427102
159,9.79728,1.29402,-0.0425866
159.5,9.84405,1.29424,-0.043697
160,9.89202,1.29555,-0.0437008
160.5,9.93949,1.30239,-0.0445176
161,9.98764,1.29261,-0.0457798
161.5,10.0348,1.30063,-0.0443746
162,10.0831,1.30593,-0.0441444
162.5,10.1304,1.30326,-0.0440767
163,10.1785,1.3034,-0.0428218
163.5,10.2263,1.31393,-0.042821
164,10.2741,1.3069,-0.0432234
164.5,10.3215,1.30799,-0.0444245
165,10.3696,1.31519,-0.0434091
165.5,10.4169,1.31249,-0.0435031
166,10.4642,1.31384,-0.0447877
166.5,10.5104,1.30809,-0.0447887
167,10.5589,1.31857,-0.043938
167.5,10.6073,1.31823,-0.0438
168,10.6531,1.32654,-0.0438005
168.5,10.7026,1.31748,-0.0441421
169,10.751,1.31934,-0.0447509
169.5,10.7976,1.32088,-0.0447993
170,10.8455,1.33325,-0.0451224
170.5,10.8913,1.32621,-0.0447691
171,10.9409,1.33258,-0.04479
171.5,10.9886,1.33273,-0.0449023
172,11.0366,1.33043,-0.0461087
172.5,11.0836,1.33366,-0.0461246
173,11.1317,1.32304,-0.0447584
173.5,11.1794,1.33356,-0.0447901
174,11.2268,1.32597,-0.04479
174.5,11.2752,1.33179,-0.04479
175,11.3227,1.33412,-0.04479
175.5,11.3694,1.32242,-0.04479
176,11.4176,1.33419,-0.04479
176.5,11.4646,1.33292,-0.04479
177,11.5123,1.33901,-0.0447927
177.5,11.5603,1.34184,-0.0461062
178,11.6082,1.32779,-0.04611
178.5,11.6543,1.34569,-0.04611
179,11.7018,1.33747,-0.04611
179.5,11.7507,1.34285,-0.0461046
180,11.7987,1.34216,-0.0454552
180.5,11.845,1.34457,-0.04545
181,11.8923,1.3463,-0.04545
181.5,11.9401,1.34544,-0.045471
182,11.9877,1.34573,-0.0467492
182.5,12.0359,1.34721,-0.0468243
183,12.0838,1.35169,-0.0483498
183.5,12.1308,1.34673,-0.0477544
184,12.1794,1.34985,-0.0481401
184.5,12.2257,1.34808,-0.0468658
185,12.2728,1.3516,-0.0469862
185.5,12.3216,1.35468,-0.0455601
186,12.3691,1.35586,-0.04556
186.5,12.4165,1.35179,-0.04556
187,12.4645,1.35364,-0.0455575
187.5,12.5121,1.35362,-0.0469011
188,12.5592,1.34675,-0.0470959
188.5,12.6072,1.34864,-0.0481894
189,12.655,1.3478,-0.04824
189.5,12.7021,1.34447,-0.0455591
190,12.7498,1.36108,-0.0459204
190.5,12.7973,1.36074,-0.0468698
191,12.8443,1.3623,-0.0468402
191.5,12.8927,1.35836,-0.0469755
192,12.9384,1.35557,-0.0454461
192.5,12.9875,1.36098,-0.0481978
193,13.0325,1.37268,-0.0495156
193.5,13.0832,1.36293,-0.048487
194,13.1311,1.36772,-0.0485201
194.5,13.1779,1.36559,-0.0485211
195,13.2255,1.36333,-0.049586
195.5,13.2736,1.36008,-0.04984
196,13.3204,1.36356,-0.04984
196.5,13.368,1.36258,-0.04984
197,13.4151,1.36739,-0.04984
197.5,13.4628,1.3658,-0.04984
198,13.5108,1.37398,-0.0489615
198.5,13.5583,1.37626,-0.0485232
199,13.6056,1.37852,-0.04984
199.5,13.6526,1.38248,-0.04984
200,13.7011,1.37823,-0.049839
200.5,13.7485,1.37748,-0.0489736
201,13.7956,1.38104,-0.0498508
201.5,13.845,1.37979,-0.04985
202,13.8914,1.37903,-0.04985
202.5,13.9386,1.38558,-0.04985
203,13.9865,1.37574,-0.04985
203.5,14.0337,1.38466,-0.0498502
204,14.0819,1.39119,-0.0508396
204.5,14.1291,1.38554,-0.0511605
205,14.1783,1.39332,-0.0511643
205.5,14.2248,1.39063,-0.0498533
206,14.2711,1.39648,-0.0498497
206.5,14.3187,1.39114,-0.0512719
207,14.3676,1.39846,-0.0511601
207.5,14.4147,1.39436,-0.0511398
208,14.4607,1.39169,-0.0498743
208.5,14.509,1.39333,-0.051158
209,14.5573,1.39626,-0.0511925
209.5,14.6045,1.38769,-0.0510711
210,14.6516,1.39329,-0.0511602
210.5,14.6987,1.39649,-0.05116
211,14.7463,1.39768,-0.0511634
211.5,14.7939,1.40916,-0.0524754
212,14.8413,1.4019,-0.0511144
212.5,14.8893,1.39303,-0.0511601
213,14.9362,1.3994,-0.05116
213.5,14.9839,1.40902,-0.05116
214,15.0322,1.40341,-0.05116
214.5,15.0787,1.40548,-0.0511602
215,15.1273,1.41152,-0.0516405
215.5,15.1733,1.4128,-0.0524751
216,15.2203,1.41205,-0.0511613
216.5,15.2688,1.42482,-0.0525649
217,15.3166,1.41586,-0.0535793
217.5,15.3629,1.42179,-0.0522696
218,15.4115,1.43087,-0.0521492
218.5,15.4587,1.4396,-0.051692
219,15.5068,1.41956,-0.05149
219.5,15.5544,1.42397,-0.0514846
220,15.601,1.42772,-0.0528474
220.5,15.6491,1.4469,-0.0533952
221,15.6963,1.43795,-0.0551103
221.5,15.744,1.43823,-0.0538235
222,15.7911,1.44832,-0.05379
222.5,15.8384,1.4446,-0.0537915
223,15.8847,1.44396,-0.0548488
223.5,15.9338,1.44549,-0.05511
224,15.9819,1.45185,-0.05511
224.5,16.0299,1.46368,-0.05511
225,16.0771,1.46633,-0.05511
225.5,16.125,1.47339,-0.05511
226,16.1713,1.47218,-0.05511
226.5,16.22,1.48352,-0.05511
227,16.2672,1.49076,-0.05511
227.5,16.3154,1.48873,-0.0551071
228,16.3626,1.48754,-0.0566566
228.5,16.4109,1.49932,-0.0577308
229,16.458,1.50535,-0.0550838
229.5,16.5054,1.51477,-0.0538663
230,16.5544,1.50762,-0.0537945
230.5,16.5998,1.52358,-0.0556679
231,16.6485,1.52556,-0.0570818
231.5,16.6964,1.53382,-0.0565617
232,16.7444,1.53881,-0.0557706
232.5,16.7925,1.54225,-0.0557307
233,16.8394,1.5546,-0.0570943
233.5,16.8863,1.55402,-0.05709
234,16.9342,1.56064,-0.05709
234.5,16.9816,1.57442,-0.0571267
235,17.0287,1.57877,-0.0590686
235.5,17.0731,1.58197,-0.0583762
236,17.1252,1.59433,-0.0584
236.5,17.172,1.60422,-0.0584
237,17.2198,1.60497,-0.0584132
237.5,17.2668,1.61491,-0.0596661
238,17.314,1.61372,-0.0603799
238.5,17.3597,1.62546,-0.0616197
239,17.4098,1.62215,-0.0617
239.5,17.4574,1.63564,-0.0617
240,17.5056,1.64112,-0.0617008
240.5,17.553,1.65003,-0.0620377
241,17.6013,1.65808,-0.0623593
241.5,17.6477,1.66229,-0.0623706
242,17.6932,1.65798,-0.0636701
242.5,17.7435,1.67073,-0.0636653
243,17.7903,1.67371,-0.0649968
243.5,17.8379,1.67804,-0.06499
244,17.8849,1.68396,-0.0649162
244.5,17.9334,1.67635,-0.0659917
245,17.981,1.68151,-0.0671423
245.5,18.0282,1.68618,-0.0673002
246,18.0758,1.68452,-0.0673
246.5,18.1234,1.68625,-0.067278
247,18.171,1.68716,-0.065918
247.5,18.2198,1.69073,-0.0666371
248,18.2654,1.68252,-0.0672885
248.5,18.3154,1.67947,-0.0676235
249,18.3619,1.68152,-0.0696399
249.5,18.41,1.68383,-0.0695998
250,18.4564,1.69211,-0.0696192
250.5,18.5044,1.67929,-0.0707985
251,18.5527,1.68272,-0.0712495
251.5,18.5994,1.69165,-0.071595
252,18.6469,1.69393,-0.0725699
252.5,18.6945,1.6905,-0.0725699
253,18.7433,1.68239,-0.0739303
253.5,18.7905,1.68432,-0.0742024
254,18.838,1.6841,-0.0742138
254.5,18.8855,1.66837,-0.074869
255,18.9336,1.66614,-0.0762122
255.5,18.9821,1.66495,-0.0761919
256,19.0287,1.66034,-0.0775188
256.5,19.0769,1.66695,-0.0785968
257,19.1235,1.66335,-0.0791511
257.5,19.1721,1.64563,-0.07916
258,19.2191,1.64663,-0.0791601
258.5,19.2654,1.64336,-0.0804578
259,19.3145,1.63268,-0.080804
259.5,19.3612,1.63033,-0.0817891
260,19.4095,1.62554,-0.0817863
260.5,19.4576,1.62225,-0.0831619
261,19.505,1.61619,-0.0833894
261.5,19.5525,1.61542,-0.0844286
262,19.6,1.61792,-0.0844671
262.5,19.6478,1.61586,-0.0857478
263,19.6969,1.60915,-0.0857562
263.5,19.7438,1.61005,-0.087059
264,19.7908,1.62502,-0.0884268
264.5,19.839,1.62298,-0.0883799
265,19.8874,1.63013,-0.0883813
265.5,19.9343,1.63164,-0.0897208
266,19.9824,1.63109,-0.0897009
266.5,20.0299,1.6391,-0.0907181
267,20.0775,1.64381,-0.0910016
267.5,20.1251,1.65245,-0.092329
268,20.1739,1.65154,-0.0923271
268.5,20.2209,1.67039,-0.0913766
269,20.2693,1.67053,-0.0926596
269.5,20.3172,1.67498,-0.0927173
270,20.3634,1.68752,-0.0949643
270.5,20.4115,1.68967,-0.0966048
271,20.4597,1.69548,-0.0979639
271.5,20.5077,1.69182,-0.0979198
272,20.5557,1.69729,-0.0979225
272.5,20.603,1.69587,-0.0992416
273,20.6488,1.70162,-0.0994056
273.5,20.699,1.7041,-0.101229
274,20.7462,1.70494,-0.103208
274.5,20.7943,1.70673,-0.103205
275,20.8424,1.70847,-0.105861
275.5,20.8903,1.70509,-0.107248
276,20.9375,1.70951,-0.107232
276.5,20.986,1.72027,-0.108462
277,21.0331,1.71342,-0.109777
277.5,21.0806,1.71725,-0.11115
278,21.1291,1.71944,-0.112395
278.5,21.1772,1.71889,-0.112525
279,21.2244,1.72061,-0.11422
279.5,21.2722,1.72024,-0.114374
280,21.3205,1.72064,-0.116301
280.5,21.3694,1.71676,-0.116462
281,21.4162,1.71476,-0.119052
281.5,21.4641,1.71787,-0.121309
282,21.5123,1.70965,-0.122903
282.5,21.5591,1.7049,-0.124403
283,21.6079,1.70274,-0.127238
283.5,21.6555,1.70419,-0.128553
284,21.7027,1.70555,-0.129855
284.5,21.7511,1.71462,-0.131489
285,21.7984,1.71404,-0.133083
285.5,21.8466,1.71176,-0.136404
286,21.894,1.71388,-0.138301
286.5,21.9425,1.71424,-0.14008
287,21.9905,1.71279,-0.141445
287.5,22.0374,1.70348,-0.142719
288,22.0861,1.70909,-0.144588
288.5,22.1337,1.69926,-0.147415
289,22.1816,1.70649,-0.150063
289.5,22.2287,1.69998,-0.152734
290,22.2782,1.7,-0.154864
290.5,22.325,1.69896,-0.157863
291,22.3724,1.69137,-0.159946
291.5,22.4209,1.68739,-0.161499
292,22.4682,1.68174,-0.163646
292.5,22.5161,1.67212,-0.165564
293,22.5639,1.6765,-0.167794
293.5,22.6123,1.6677,-0.170402
294,22.6604,1.65681,-0.173466
294.5,22.7072,1.65374,-0.175902
295,22.752,1.6482,-0.17781
295.5,22.8007,1.64409,-0.180605
296,22.8513,1.63714,-0.182118
296.5,22.899,1.6378,-0.184671
297,22.947,1.62567,-0.18666
297.5,22.9945,1.62692,-0.189815
298,23.0425,1.60604,-0.192941
298.5,23.0903,1.58923,-0.195311
299,23.138,1.58328,-0.19851
299.5,23.1858,1.56431,-0.20036
300,23.2333,1.55309,-0.203678
300.5,23.2787,1.53251,-0.206855
301,23.3267,1.51211,-0.208456
301.5,23.3771,1.48257,-0.209109
302,23.4245,1.44493,-0.211438
302.5,23.4708,1.40192,-0.213113
303,23.5193,1.36312,-0.215894
303.5,23.5663,1.31618,-0.218654
304,23.6135,1.26695,-0.221315
304.5,23.6616,1.22585,-0.224029
305,23.7097,1.15544,-0.227361
305.5,23.7564,1.08514,-0.230471
306,23.8029,0.982009,-0.23384
306.5,23.8502,0.87071,-0.236404
307,23.8967,0.768938,-0.240587
307.5,23.9444,0.691824,-0.244272
308,23.9914,0.658401,-0.251212
308.5,24.04,0.686734,-0.257245
309,24.0877,0.732126,-0.262243
309.5,24.1359,0.800232,-0.267581
310,24.1855,0.848676,-0.273458
310.5,24.2349,0.894795,-0.278506
311,24.2834,0.947503,-0.284009
311.5,24.3322,0.987442,-0.289868
312,24.3796,1.03422,-0.295844
312.5,24.4294,1.0639,-0.300825
313,24.4766,1.11204,-0.304885
313.5,24.5268,1.14352,-0.308833
314,24.5748,1.16628,-0.313826
314.5,24.6231,1.19052,-0.317768
315,24.672,1.21215,-0.321992
315.5,24.7204,1.24352,-0.327292
316,24.7691,1.25414,-0.332498
316.5,24.8163,1.27292,-0.336288
317,24.8662,1.28523,-0.338862
317.5,24.9118,1.3118,-0.34182
318,24.962,1.33074,-0.346901
318.5,25.009,1.35669,-0.350853
319,25.059,1.36309,-0.354678
319.5,25.1071,1.37371,-0.35797
320,25.1563,1.38292,-0.359694
320.5,25.2042,1.40219,-0.36396
321,25.2508,1.4209,-0.367016
321.5,25.3004,1.43265,-0.370881
322,25.3474,1.45446,-0.372794
322.5,25.3969,1.47815,-0.377029
323,25.4439,1.49155,-0.379945
323.5,25.4942,1.53199,-0.38315
324,25.5424,1.56473,-0.38656
324.5,25.5919,1.6056,-0.389078
325,25.6395,1.64472,-0.392231
325.5,25.6893,1.72441,-0.394161
326,25.7384,1.80817,-0.396467
326.5,25.7867,1.89629,-0.398606
327,25.8361,2.01539,-0.403274
327.5,25.8863,2.11391,-0.404904
328,25.935,2.15209,-0.407799
328.5,25.9823,2.09302,-0.408729
329,26.0292,1.97954,-0.411171
329.5,26.0767,1.86138,-0.414565
330,26.1244,1.76086,-0.41761
330.5,26.1712,1.67785,-0.419123
331,26.2187,1.61537,-0.420604
331.5,26.2661,1.5634,-0.423554
332,26.3139,1.51737,-0.425129
332.5,26.3616,1.48504,-0.42711
333,26.4088,1.46335,-0.430928
333.5,26.4573,1.43915,-0.432934
334,26.5055,1.43227,-0.43449
334.5,26.5544,1.41687,-0.436044
335,26.6009,1.40755,-0.438914
335.5,26.6493,1.3974,-0.440566
336,26.6975,1.39392,-0.441519
336.5,26.7457,1.38985,-0.444414
337,26.7921,1.38392,-0.445745
337.5,26.8418,1.36687,-0.447852
338,26.8907,1.37458,-0.451293
338.5,26.938,1.37101,-0.451264
339,26.9867,1.36291,-0.45277
339.5,27.0344,1.35449,-0.457031
340,27.083,1.3476,-0.457571
340.5,27.1305,1.34744,-0.458838
341,27.1782,1.35021,-0.460207
341.5,27.2254,1.3368,-0.461841
342,27.276,1.34264,-0.464614
342.5,27.3238,1.33405,-0.465893
343,27.3727,1.33277,-0.469356
343.5,27.4205,1.32838,-0.470421
344,27.4685,1.32599,-0.472918
344.5,27.5153,1.32634,-0.472852
345,27.5655,1.3186,-0.474161
345.5,27.6145,1.31739,-0.475675
346,27.6622,1.31113,-0.477136
346.5,27.7099,1.32071,-0.478766
347,27.7581,1.31478,-0.480781
347.5,27.8066,1.29969,-0.482905
348,27.8535,1.30883,-0.484864
348.5,27.9033,1.30063,-0.487295
349,27.952,1.29242,-0.488646
349.5,28.0002,1.28874,-0.490191
350,28.0478,1.2937,-0.491365
350.5,28.0966,1.28829,-0.492916
351,28.1449,1.28451,-0.495511
351.5,28.1933,1.28397,-0.496502
352,28.2416,1.28441,-0.497676
352.5,28.2909,1.27181,-0.498962
353,28.3393,1.27606,-0.500306
353.5,28.3861,1.27571,-0.501842
354,28.4356,1.26368,-0.5038
354.5,28.4842,1.26202,-0.504797
355,28.5321,1.26725,-0.506536
355.5,28.5819,1.26177,-0.506521
356,28.6282,1.25899,-0.508959
356.5,28.6784,1.2556,-0.5105
357,28.7275,1.25354,-0.512888
357.5,28.7751,1.26091,-0.514215
358,28.822,1.24957,-0.516296
358.5,28.872,1.25185,-0.517083
359,28.9198,1.24377,-0.518499
359.5,28.9679,1.24321,-0.51969
360,29.0168,1.24234,-0.521017
360.5,29.0659,1.23416,-0.523691
361,29.1146,1.24032,-0.5262
361.5,29.1598,1.23994,-0.528157
362,29.2119,1.23597,-0.529602
362.5,29.2597,1.23185,-0.531001
363,29.3083,1.23914,-0.532274
363.5,29.3576,1.24546,-0.533078
364,29.4068,1.24095,-0.535126
364.5,29.4536,1.23272,-0.536979
365,29.5032,1.24075,-0.538511
365.5,29.5516,1.23675,-0.540027
366,29.6,1.24167,-0.543176
366.5,29.6498,1.24204,-0.54449
367,29.6981,1.24338,-0.545927
367.5,29.7462,1.25576,-0.548082
368,29.7948,1.25494,-0.550068
368.5,29.8421,1.25448,-0.549987
369,29.8926,1.26248,-0.551584
369.5,29.9411,1.25602,-0.553714
370,29.9891,1.25773,-0.555666
370.5,30.0371,1.26381,-0.557158
371,30.0877,1.27228,-0.558589
371.5,30.1362,1.26804,-0.561475
372,30.1853,1.26894,-0.562845
372.5,30.2324,1.26692,-0.565165
373,30.2821,1.27509,-0.567777
373.5,30.3292,1.2832,-0.570652
374,30.3786,1.28741,-0.572015
374.5,30.4273,1.29644,-0.573513
375,30.4762,1.29377,-0.574639
375.5,30.5243,1.30818,-0.577523
376,30.5734,1.30465,-0.577968
376.5,30.6196,1.31322,-0.579249
377,30.671,1.31509,-0.581956
377.5,30.7193,1.32171,-0.585075
378,30.7665,1.31804,-0.588169
378.5,30.8174,1.32367,-0.589465
379,30.8655,1.33034,-0.592603
379.5,30.9152,1.33037,-0.594436
380,30.9634,1.3353,-0.597185
380.5,31.0125,1.3334,-0.598596
381,31.059,1.32277,-0.600151
381.5,31.11,1.31794,-0.601919
382,31.1585,1.3034,-0.604918
382.5,31.2073,1.29421,-0.607823
383,31.257,1.28348,-0.610102
383.5,31.3016,1.28802,-0.611484
384,31.3536,1.28691,-0.61434
384.5,31.3996,1.27735,-0.616099
385,31.451,1.27602,-0.618623
385.5,31.4997,1.27751,-0.620069
386,31.5478,1.2846,-0.621404
386.5,31.5983,1.28108,-0.62472
387,31.6464,1.28401,-0.627945
387.5,31.695,1.28672,-0.629531
388,31.7436,1.28201,-0.632466
388.5,31.7925,1.29187,-0.633937
389,31.8412,1.29296,-0.636444
389.5,31.8895,1.29406,-0.6385
390,31.9389,1.2971,-0.643502
390.5,31.9883,1.29706,-0.646307
391,32.0381,1.30223,-0.646393
391.5,32.0855,1.30014,-0.649032
392,32.1349,1.31435,-0.652036
392.5,32.1835,1.31367,-0.653997
393,32.2319,1.31707,-0.656997
393.5,32.2816,1.33036,-0.6589
394,32.3304,1.31878,-0.660106
394.5,32.3786,1.33268,-0.663627
395,32.428,1.33396,-0.666763
395.5,32.4771,1.33945,-0.669436
396,32.5259,1.34628,-0.672885
396.5,32.5726,1.3481,-0.67561
397,32.6229,1.3546,-0.677455
397.5,32.6728,1.35541,-0.680526
398,32.7226,1.35797,-0.682585
398.5,32.7717,1.36304,-0.686645
399,32.8203,1.37457,-0.687308
399.5,32.8689,1.37732,-0.691233
400,32.9182,1.3921,-0.694148
400.5,32.9674,1.39418,-0.696984
401,33.0163,1.39428,-0.700055
401.5,33.0658,1.41293,-0.702639
402,33.1145,1.42195,-0.705838
402.5,33.1641,1.42194,-0.70762
403,33.213,1.43511,-0.711319
403.5,33.2607,1.43001,-0.71416
404,33.3109,1.44374,-0.717801
404.5,33.3594,1.45201,-0.720844
405,33.4101,1.45722,-0.722732
405.5,33.4585,1.46527,-0.724097
406,33.5056,1.47654,-0.727649
406.5,33.5569,1.4922,-0.73202
407,33.606,1.49704,-0.735226
407.5,33.6552,1.5058,-0.737118
408,33.7039,1.53059,-0.738905
408.5,33.7527,1.52896,-0.74214
409,33.8022,1.53857,-0.745131
409.5,33.8486,1.55257,-0.748092
410,33.9009,1.55918,-0.751615
410.5,33.949,1.58049,-0.754335
411,33.9981,1.5908,-0.756669
411.5,34.0479,1.60119,-0.758827
412,34.0974,1.61212,-0.762367
412.5,34.1466,1.62403,-0.765463
413,34.196,1.64036,-0.768088
413.5,34.2439,1.65472,-0.770397
414,34.2935,1.66596,-0.773452
414.5,34.3425,1.68674,-0.776276
415,34.3921,1.69135,-0.779811
415.5,34.4409,1.7043,-0.782325
416,34.4904,1.7141,-0.785808
416.5,34.5397,1.73346,-0.787939
417,34.5894,1.74538,-0.790784
417.5,34.638,1.76083,-0.793873
418,34.6842,1.75837,-0.797346
418.5,34.7373,1.76761,-0.800353
419,34.7855,1.78226,-0.80284
419.5,34.8346,1.77791,-0.805053
420,34.8836,1.77756,-0.809011
420.5,34.9327,1.79867,-0.811848
421,34.9821,1.80316,-0.814488
421.5,35.0309,1.79992,-0.818143
422,35.0796,1.80529,-0.820142
422.5,35.1294,1.80009,-0.823204
423,35.1778,1.79374,-0.82661
423.5,35.2267,1.79168,-0.829399
424,35.2771,1.78353,-0.832512
424.5,35.3259,1.79243,-0.836135
425,35.3744,1.77865,-0.839141
425.5,35.4239,1.77589,-0.843197
426,35.4719,1.7745,-0.846381
426.5,35.5218,1.76846,-0.848439
427,35.5709,1.76145,-0.850326
427.5,35.6195,1.75141,-0.854021
428,35.6686,1.75126,-0.856702
428.5,35.7176,1.74264,-0.858641
429,35.7667,1.73034,-0.862496
429.5,35.816,1.7249,-0.866128
430,35.8649,1.71777,-0.870436
430.5,35.9135,1.71919,-0.873646
431,35.9626,1.71384,-0.877743
431.5,36.0118,1.70817,-0.881893
432,36.0623,1.71227,-0.885331
432.5,36.1104,1.70718,-0.888535
433,36.1592,1.69263,-0.891353
433.5,36.2086,1.70395,-0.894743
434,36.2581,1.69928,-0.898693
434.5,36.3073,1.69707,-0.903381
435,36.3562,1.7171,-0.906619
435.5,36.4058,1.71935,-0.909469
436,36.455,1.72442,-0.911583
436.5,36.5044,1.72537,-0.91518
437,36.5538,1.7357,-0.918774
437.5,36.6029,1.73677,-0.922613
438,36.6521,1.73885,-0.927177
438.5,36.7006,1.74096,-0.930602
439,36.7496,1.75037,-0.933792
439.5,36.7998,1.74107,-0.938043
440,36.8491,1.7521,-0.94333
440.5,36.8975,1.75034,-0.946393
441,36.9471,1.75347,-0.951187
441.5,36.9962,1.7498,-0.955034
442,37.0456,1.752,-0.95852
442.5,37.0946,1.75557,-0.962053
443,37.1445,1.75565,-0.96696
443.5,37.1936,1.75379,-0.971491
444,37.2428,1.75355,-0.97546
444.5,37.2939,1.75718,-0.980155
445,37.343,1.75829,-0.983041
445.5,37.3917,1.75593,-0.985703
446,37.4407,1.75016,-0.991311
446.5,37.4908,1.75268,-0.99709
447,37.5388,1.7535,-0.999261
447.5,37.5885,1.75615,-1.00444
448,37.6387,1.75358,-1.00855
448.5,37.6868,1.7491,-1.01246
449,37.737,1.73987,-1.01803
449.5,37.7867,1.74215,-1.02176
450,37.8359,1.74239,-1.02727
450.5,37.8831,1.73731,-1.03055
451,37.9351,1.7389,-1.03575
451.5,37.9843,1.73616,-1.04126
452,38.0339,1.72692,-1.04599
452.5,38.0834,1.73467,-1.0505
453,38.1318,1.73262,-1.0551
453.5,38.1814,1.73337,-1.05776
454,38.2315,1.73194,-1.06319
454.5,38.2807,1.72371,-1.06851
455,38.3311,1.73122,-1.07294
455.5,38.3807,1.71915,-1.07778
456,38.4294,1.71078,-1.08342
456.5,38.4783,1.713,-1.0875
457,38.5289,1.70779,-1.0912
457.5,38.5769,1.70698,-1.09567
458,38.6265,1.69627,-1.10146
458.5,38.6756,1.69846,-1.10651
459,38.7259,1.68073,-1.11115
459.5,38.7748,1.68116,-1.11478
460,38.8237,1.68131,-1.11953
460.5,38.8741,1.6768,-1.12011
461,38.9229,1.66961,-1.12722
461.5,38.9722,1.66542,-1.13406
462,39.0218,1.6572,-1.13802
462.5,39.0715,1.64032,-1.14408
463,39.1198,1.64635,-1.149
463.5,39.1701,1.63165,-1.15327
464,39.2194,1.62822,-1.15754
464.5,39.2692,1.61768,-1.16207
465,39.3185,1.60445,-1.16686
465.5,39.3677,1.58879,-1.17088
466,39.4176,1.58901,-1.17649
466.5,39.4667,1.57916,-1.17926
467,39.5169,1.56556,-1.18357
467.5,39.5656,1.56252,-1.1881
468,39.6163,1.55116,-1.19362
468.5,39.665,1.54731,-1.19737
469,39.7141,1.53547,-1.19906
469.5,39.7633,1.52834,-1.20166
470,39.8133,1.52072,-1.20857
470.5,39.8626,1.50838,-1.21368
471,39.9129,1.49597,-1.21872
471.5,39.9616,1.48403,-1.22211
472,40.0097,1.47646,-1.22509
472.5,40.0595,1.45785,-1.23018
473,40.1097,1.45157,-1.23448
473.5,40.1596,1.44379,-1.23915
474,40.209,1.42951,-1.24216
474.5,40.2589,1.4134,-1.24591
475,40.3079,1.39856,-1.24914
475.5,40.3571,1.38269,-1.25345
476,40.4065,1.3762,-1.25723
476.5,40.4564,1.36586,-1.25984
477,40.5059,1.35357,-1.26474
477.5,40.5546,1.33339,-1.26811
478,40.6055,1.32905,-1.27249
478.5,40.6543,1.31948,-1.27599
479,40.7039,1.31232,-1.27849
479.5,40.7532,1.29104,-1.28269
480,40.802,1.289,-1.28487
480.5,40.8521,1.26885,-1.28749
481,40.9017,1.25794,-1.29083
481.5,40.9525,1.2562,-1.2948
482,41.0004,1.24224,-1.29701
482.5,41.0507,1.23094,-1.3008
483,41.1001,1.20853,-1.30596
483.5,41.1501,1.20495,-1.31001
484,41.1987,1.18128,-1.31315
484.5,41.2488,1.16688,-1.31498
485,41.2976,1.16016,-1.31718
485.5,41.3473,1.13387,-1.32152
486,41.3972,1.11921,-1.32486
486.5,41.4464,1.10581,-1.32964
487,41.4962,1.08805,-1.33186
487.5,41.5459,1.07323,-1.33523
488,41.595,1.0615,-1.33699
488.5,41.6455,1.04313,-1.34067
489,41.6952,1.04577,-1.34365
489.5,41.7441,1.02098,-1.34669
490,41.7945,1.00354,-1.34934
490.5,41.8438,0.999616,-1.35315
491,41.8938,0.979151,-1.35714
491.5,41.9435,0.988858,-1.35985
492,41.9935,0.96125,-1.36132
492.5,42.0439,0.955612,-1.36367
493,42.0927,0.946659,-1.36629
493.5,42.1425,0.943371,-1.3694
494,42.1923,0.928181,-1.3724
494.5,42.2422,0.924766,-1.37427
495,42.2917,0.912363,-1.37709
495.5,42.342,0.907403,-1.38016
496,42.3918,0.908809,-1.38384
496.5,42.4415,0.896016,-1.38574
497,42.4914,0.895952,-1.38826
497.5,42.5406,0.899444,-1.39059
498,42.5912,0.892795,-1.392
498.5,42.6402,0.894416,-1.3951
499,42.69,0.887709,-1.39817
499.5,42.74,0.879082,-1.40076
500,42.79,0.883784,-1.40476
500.5,42.8394,0.871373,-1.4071
501,42.8884,0.877079,-1.41011
501.5,42.9383,0.873273,-1.4127
502,42.9886,0.872477,-1.41425
502.5,43.0381,0.874055,-1.4166
503,43.0877,0.873961,-1.41932
503.5,43.1371,0.871014,-1.42165
504,43.187,0.87184,-1.42361
504.5,43.2372,0.865139,-1.42665
505,43.2867,0.860578,-1.42972
505.5,43.3368,0.863612,-1.43366
506,43.3857,0.86513,-1.43517
506.5,43.4356,0.850406,-1.43772
507,43.4854,0.847363,-1.43862
507.5,43.5348,0.850648,-1.44186
508,43.5844,0.842411,-1.44333
508.5,43.6345,0.827158,-1.4453
509,43.6838,0.827399,-1.44785
509.5,43.7344,0.838246,-1.45254
510,43.783,0.827905,-1.4555
510.5,43.8314,0.822726,-1.4565
511,43.8826,0.821854,-1.45887
511.5,43.9329,0.81867,-1.46197
512,43.983,0.808558,-1.46606
512.5,44.0325,0.799527,-1.46952
513,44.0819,0.798248,-1.47304
513.5,44.1321,0.796687,-1.47307
514,44.1827,0.787805,-1.47468
514.5,44.2309,0.782817,-1.47527
515,44.2799,0.790165,-1.47812
515.5,44.3312,0.786284,-1.4819
516,44.3812,0.777616,-1.48402
516.5,44.431,0.774975,-1.48674
517,44.4808,0.770869,-1.49021
517.5,44.5304,0.762663,-1.49267
518,44.5802,0.754733,-1.49506
518.5,44.6301,0.747734,-1.49719
519,44.68,0.736059,-1.50002
519.5,44.7297,0.733288,-1.50334
520,44.7793,0.726694,-1.50652
520.5,44.8292,0.728777,-1.50977
521,44.8785,0.726788,-1.50981
521.5,44.929,0.722553,-1.51315
522,44.9778,0.725249,-1.51635
522.5,45.0286,0.743203,-1.52049
523,45.0777,0.745278,-1.52312
523.5,45.1285,0.74265,-1.52536
524,45.178,0.751393,-1.52798
524.5,45.2281,0.77575,-1.53226
525,45.2785,0.792332,-1.53597
525.5,45.3287,0.806484,-1.53828
526,45.379,0.826419,-1.54111
526.5,45.428,0.840845,-1.54351
527,45.4766,0.857679,-1.54615
527.5,45.5268,0.874794,-1.54883
528,45.579,0.893422,-1.55173
528.5,45.629,0.908586,-1.55366
529,45.6793,0.927032,-1.55757
529.5,45.7294,0.936133,-1.56088
530,45.7795,0.934631,-1.56554
530.5,45.8292,0.945939,-1.56856
531,45.8802,0.962252,-1.57219
531.5,45.9299,0.959049,-1.57525
532,45.9799,0.97515,-1.57602
532.5,46.0301,0.991063,-1.57886
533,46.0801,1.00276,-1.58198
533.5,46.1303,1.00695,-1.58702
534,46.181,1.01285,-1.59034
534.5,46.2305,1.01747,-1.59375
535,46.2819,1.02604,-1.59809
535.5,46.3309,1.03566,-1.60269
536,46.381,1.04079,-1.60537
536.5,46.4315,1.05121,-1.60772
537,46.4811,1.05427,-1.61035
537.5,46.5321,1.05916,-1.61248
538,46.5813,1.07344,-1.61534
538.5,46.6306,1.07237,-1.61984
539,46.6818,1.07784,-1.6245
539.5,46.7328,1.08736,-1.62851
540,46.7822,1.09301,-1.63379
540.5,46.8321,1.12102,-1.63617
541,46.8819,1.11984,-1.64058
541.5,46.9315,1.11954,-1.64087
542,46.9818,1.13428,-1.64726
542.5,47.0317,1.13301,-1.6525
543,47.0808,1.13609,-1.65602
543.5,47.1321,1.13906,-1.66121
544,47.1817,1.1399,-1.66492
544.5,47.2322,1.1452,-1.66903
545,47.2804,1.14346,-1.67322
545.5,47.3324,1.15587,-1.67755
546,47.3823,1.15311,-1.68131
546.5,47.4325,1.14802,-1.68575
547,47.4815,1.15249,-1.69071
547.5,47.5317,1.14554,-1.69512
548,47.5817,1.14376,-1.70103
548.5,47.6318,1.141,-1.70524
549,47.6818,1.1367,-1.71012
549.5,47.7319,1.13039,-1.71386
550,47.7811,1.12927,-1.71868
550.5,47.8323,1.12523,-1.72351
551,47.8819,1.14731,-1.7289
551.5,47.9316,1.1397,-1.73412
552,47.9815,1.14288,-1.7388
552.5,48.0321,1.13219,-1.74319
553,48.083,1.12986,-1.74782
553.5,48.1322,1.12871,-1.75277
554,48.1822,1.11412,-1.75781
554.5,48.2313,1.10756,-1.76333
555,48.2805,1.10264,-1.76968
555.5,48.3323,1.09704,-1.77548
556,48.381,1.08818,-1.78
556.5,48.4319,1.07357,-1.78636
557,48.4815,1.05165,-1.79096
557.5,48.5311,1.04438,-1.79537
558,48.5813,1.03172,-1.80089
558.5,48.6312,1.01814,-1.80538
559,48.6812,1.008,-1.8115
559.5,48.7315,0.987872,-1.81772
560,48.7817,0.980251,-1.82291
560.5,48.8316,0.959446,-1.8288
561,48.8817,0.958552,-1.83454
561.5,48.9313,0.957111,-1.83963
562,48.9816,0.947965,-1.84497
562.5,49.0325,0.938898,-1.84967
563,49.082,0.933903,-1.85487
563.5,49.1326,0.940564,-1.86133
564,49.1822,0.926853,-1.86615
564.5,49.2323,0.928754,-1.87185
565,49.2819,0.908392,-1.87736
565.5,49.3327,0.909398,-1.88236
566,49.3835,0.901792,-1.88877
566.5,49.4326,0.889631,-1.89346
567,49.483,0.880287,-1.89865
567.5,49.5333,0.865437,-1.90493
568,49.5831,0.862079,-1.90964
568.5,49.6328,0.843671,-1.91495
569,49.683,0.815034,-1.91986
569.5,49.7337,0.799063,-1.92515
570,49.7843,0.785473,-1.92939
570.5,49.8334,0.763581,-1.93524
571,49.8841,0.739597,-1.94021
571.5,49.9343,0.714272,-1.94479
572,49.9828,0.677181,-1.95053
572.5,50.034,0.637564,-1.95491
573,50.0838,0.614468,-1.9604
573.5,50.134,0.58937,-1.9646
574,50.1837,0.553433,-1.96742
574.5,50.2332,0.53022,-1.97169
575,50.2834,0.494824,-1.97661
575.5,50.3321,0.463064,-1.98084
576,50.3836,0.436564,-1.98366
576.5,50.4334,0.405875,-1.98707
577,50.484,0.377428,-1.98998
577.5,50.5339,0.352355,-1.99388
578,50.5838,0.328322,-1.99695
578.5,50.6329,0.302961,-2.00028
579,50.6833,0.299749,-2.00404
579.5,50.7337,0.27003,-2.0064
580,50.7849,0.279972,-2.00866
580.5,50.8346,0.275104,-2.01183
581,50.8851,0.272732,-2.01403
581.5,50.936,0.27623,-2.01614
582,50.9858,0.281742,-2.01671
582.5,51.0365,0.303573,-2.01889
583,51.0877,0.315654,-2.02106
583.5,51.1382,0.344482,-2.0226
584,51.1881,0.386682,-2.02547
584.5,51.2397,0.422023,-2.028
585,51.2893,0.456268,-2.02818
585.5,51.3412,0.501234,-2.02935
586,51.3922,0.536777,-2.02974
586.5,51.4417,0.561865,-2.03155
587,51.4929,0.587194,-2.03171
587.5,51.5443,0.615951,-2.03308
588,51.5958,0.63931,-2.03452
588.5,51.646,0.664366,-2.03581
589,51.6963,0.68207,-2.03686
589.5,51.7466,0.709812,-2.03714
590,51.7975,0.735017,-2.03845
590.5,51.8483,0.771191,-2.03965
591,51.897,0.788081,-2.03879
591.5,51.9499,0.809022,-2.0388
592,51.999,0.839771,-2.04142
592.5,52.0508,0.8657,-2.04154
593,52.1015,0.868361,-2.04163
593.5,52.1521,0.882437,-2.04065
594,52.2037,0.89756,-2.04164
594.5,52.2534,0.913306,-2.04164
595,52.3039,0.938476,-2.04262
595.5,52.3552,0.937296,-2.04457
596,52.4059,0.94487,-2.04521
596.5,52.4561,0.972383,-2.04559
597,52.5071,0.966569,-2.04569
597.5,52.5562,0.973623,-2.04908
598,52.608,0.982879,-2.04933
598.5,52.6586,0.985467,-2.05064
599,52.7075,0.991515,-2.05194
599.5,52.7595,1.00248,-2.05203
600,52.8103,1.01109,-2.05063
600.5,52.861,1.01279,-2.05206
601,52.9108,1.01979,-2.0532
601.5,52.9615,1.02546,-2.05317
602,53.0119,1.02118,-2.0546
602.5,53.0629,1.03194,-2.05558
603,53.114,1.0313,-2.05592
603.5,53.1634,1.0406,-2.05708
604,53.214,1.05374,-2.05723
604.5,53.2648,1.05618,-2.05683
605,53.3149,1.04884,-2.0575
605.5,53.3646,1.04845,-2.05855
606,53.4166,1.06785,-2.05855
606.5,53.467,1.06017,-2.05991
607,53.5181,1.06147,-2.05987
607.5,53.5679,1.07425,-2.05997
608,53.6181,1.07164,-2.06207
608.5,53.6694,1.0746,-2.06333
609,53.7194,1.07079,-2.06393
609.5,53.7701,1.07564,-2.06393
610,53.8202,1.07197,-2.06387
610.5,53.8703,1.07744,-2.06527
611,53.9225,1.07646,-2.06656
611.5,53.9731,1.08111,-2.06649
612,54.0234,1.08334,-2.06788
612.5,54.0738,1.08865,-2.06913
613,54.1245,1.08599,-2.06921
613.5,54.1756,1.09649,-2.07052
614,54.2253,1.09489,-2.07184
614.5,54.2774,1.10311,-2.07051
615,54.3277,1.1041,-2.07067
615.5,54.3782,1.10287,-2.07184
616,54.429,1.111,-2.07315
616.5,54.4799,1.11389,-2.07317
617,54.5306,1.12063,-2.07446
617.5,54.5803,1.1224,-2.07583
618,54.6313,1.12577,-2.07578
618.5,54.6824,1.12963,-2.07588
619,54.7324,1.1359,-2.07644
619.5,54.7832,1.13438,-2.0769
620,54.8339,1.14963,-2.0771
620.5,54.8844,1.14559,-2.07841
621,54.9341,1.1448,-2.08033
621.5,54.9862,1.14351,-2.08105
622,55.0361,1.13508,-2.0817
622.5,55.0868,1.15655,-2.08278
623,55.1371,1.16143,-2.08304
623.5,55.1866,1.15826,-2.08435
624,55.2375,1.16407,-2.08341
624.5,55.2889,1.17848,-2.08435
625,55.3401,1.17512,-2.0856
625.5,55.3905,1.18422,-2.08558
626,55.4403,1.19227,-2.08698
626.5,55.4902,1.18764,-2.08568
627,55.5422,1.19952,-2.08682
627.5,55.5922,1.20886,-2.08829
628,55.6424,1.22102,-2.08961
628.5,55.6924,1.22637,-2.08962
629,55.7442,1.25534,-2.09092
629.5,55.7946,1.25248,-2.09228
630,55.8449,1.22475,-2.09093
630.5,55.8954,1.2336,-2.09093
631,55.9459,1.23108,-2.09225
631.5,55.9955,1.23275,-2.09225
632,56.0435,1.22916,-2.09272
632.5,56.0972,1.23071,-2.09468
633,56.1458,1.24202,-2.09521
633.5,56.197,1.24144,-2.09521
634,56.2483,1.24096,-2.09658
634.5,56.2982,1.2394,-2.09768
635,56.3489,1.24888,-2.09785
635.5,56.399,1.24533,-2.09917
636,56.4494,1.24785,-2.09915
636.5,56.5004,1.24936,-2.10048
637,56.5517,1.24856,-2.10048
637.5,56.6024,1.24583,-2.10183
638,56.6524,1.25099,-2.1018
638.5,56.7032,1.25174,-2.1008
639,56.7518,1.25305,-2.1021
639.5,56.8033,1.25493,-2.10344
640,56.8555,1.24968,-2.10408
640.5,56.9058,1.25221,-2.10444
641,56.956,1.25132,-2.10575
641.5,57.0067,1.24914,-2.10455
642,57.0569,1.24996,-2.10575
642.5,57.1062,1.25107,-2.1058
643,57.1589,1.247,-2.10707
643.5,57.2105,1.24964,-2.1083
644,57.2607,1.25143,-2.10838
644.5,57.3114,1.25015,-2.10834
645,57.3624,1.2572,-2.1097
645.5,57.4132,1.26008,-2.1097
646,57.4615,1.25741,-2.1097
646.5,57.5136,1.26031,-2.11094
647,57.5655,1.26267,-2.11102
647.5,57.6161,1.26055,-2.11102
648,57.6668,1.26656,-2.11136
648.5,57.7163,1.2601,-2.1127
649,57.7685,1.26816,-2.11267
649.5,57.8187,1.2633,-2.11268
650,57.8699,1.26297,-2.11397
650.5,57.9193,1.2706,-2.114
651,57.9712,1.26703,-2.11531
651.5,58.0215,1.26643,-2.11695
652,58.0722,1.26627,-2.11797
652.5,58.1233,1.27322,-2.11684
653,58.1751,1.27396,-2.1175
653.5,58.2249,1.27836,-2.11678
654,58.2755,1.28346,-2.11684
654.5,58.3267,1.27826,-2.11687
655,58.3773,1.28399,-2.12032
655.5,58.4285,1.28281,-2.12155
656,58.4789,1.28632,-2.12158
656.5,58.5293,1.28623,-2.12288
657,58.5808,1.28547,-2.12288
657.5,58.6307,1.28327,-2.12288
658,58.6809,1.28962,-2.12379
658.5,58.7316,1.29113,-2.1242
659,58.7828,1.29634,-2.12411
659.5,58.8341,1.29564,-2.12525
660,58.8827,1.2964,-2.1255
660.5,58.9358,1.30164,-2.12679
661,58.9858,1.29277,-2.12784
661.5,59.0369,1.29722,-2.12815
662,59.0877,1.29401,-2.12633
662.5,59.1379,1.29887,-2.12353
663,59.1892,1.29943,-2.12715
663.5,59.2395,1.29423,-2.13139
664,59.2901,1.30095,-2.13263
664.5,59.3418,1.3068,-2.13265
665,59.391,1.30302,-2.13265
665.5,59.443,1.31148,-2.13265
666,59.494,1.29351,-2.13265
666.5,59.5446,1.3076,-2.13266
667,59.5948,1.30447,-2.13397
667.5,59.6457,1.30499,-2.13397
668,59.6958,1.30248,-2.13136
668.5,59.7469,1.29969,-2.13408
669,59.7976,1.3037,-2.13571
669.5,59.8485,1.30208,-2.13689
670,59.8989,1.30809,-2.13804
670.5,59.9497,1.30113,-2.13706
671,60.0002,1.30374,-2.13705
671.5,60.0521,1.30956,-2.13835
672,60.1024,1.31468,-2.13941
672.5,60.155,1.31202,-2.13967
673,60.2024,1.30489,-2.1406
673.5,60.2551,1.31287,-2.14025
674,60.3056,1.30494,-2.14099
674.5,60.3566,1.30201,-2.14099
675,60.4068,1.31009,-2.14231
675.5,60.4578,1.31675,-2.14231
676,60.5095,1.31777,-2.1435
676.5,60.5594,1.31106,-2.14249
677,60.6103,1.31031,-2.14372
677.5,60.6621,1.31192,-2.14363
678,60.7117,1.30741,-2.14363
678.5,60.7635,1.31106,-2.14498
679,60.8141,1.31245,-2.14495
679.5,60.8637,1.31557,-2.14494
680,60.9163,1.31551,-2.14627
680.5,60.9653,1.30956,-2.14625
681,61.0175,1.30539,-2.14758
681.5,61.0679,1.30046,-2.14758
682,61.1171,1.30637,-2.14891
682.5,61.1685,1.30848,-2.15008
683,61.2197,1.3062,-2.15022
683.5,61.2701,1.29774,-2.15022
684,61.3212,1.3068,-2.15022
684.5,61.3727,1.31064,-2.15155
685,61.4225,1.30672,-2.15154
685.5,61.4731,1.30413,-2.15001
686,61.5248,1.30198,-2.1529
686.5,61.5756,1.30431,-2.15362
687,61.6263,1.29739,-2.15456
687.5,61.676,1.29928,-2.15461
688,61.7269,1.29959,-2.15451
688.5,61.778,1.30262,-2.15153
689,61.8283,1.30253,-2.15402
689.5,61.8789,1.29919,-2.15731
690,61.9296,1.29803,-2.15812
690.5,61.9791,1.29665,-2.15945
691,62.0307,1.30397,-2.15944
691.5,62.0817,1.29557,-2.15945
692,62.1321,1.29904,-2.16075
692.5,62.1833,1.29888,-2.16074
693,62.2338,1.2915,-2.1601
693.5,62.2854,1.29448,-2.16141
694,62.3358,1.29557,-2.16141
694.5,62.3871,1.29928,-2.16141
695,62.438,1.30703,-2.16151
695.5,62.4883,1.29746,-2.16273
696,62.5389,1.30086,-2.16269
696.5,62.589,1.29065,-2.16372
697,62.6403,1.29487,-2.1637
697.5,62.6905,1.28862,-2.16235
698,62.7414,1.29554,-2.16578
698.5,62.7921,1.2954,-2.16701
699,62.8429,1.2882,-2.16693
699.5,62.8933,1.28602,-2.16833
700,62.9445,1.28836,-2.16831
700.5,62.9953,1.28091,-2.16767
701,63.0455,1.28471,-2.168
701.5,63.0974,1.26968,-2.17031
702,63.1485,1.27443,-2.17168
702.5,63.1977,1.27748,-2.17162
703,63.25,1.27333,-2.17135
703.5,63.3008,1.27504,-2.17228
704,63.3518,1.27499,-2.17288
704.5,63.4022,1.27724,-2.17361
705,63.4517,1.27035,-2.17459
705.5,63.5035,1.27623,-2.17486
706,63.5537,1.26987,-2.17574
706.5,63.6058,1.27626,-2.17623
707,63.6566,1.27137,-2.17623
707.5,63.7073,1.28277,-2.17757
708,63.7576,1.27334,-2.17772
708.5,63.809,1.2664,-2.17821
709,63.86,1.25762,-2.17859
709.5,63.9118,1.26085,-2.17953
710,63.9607,1.2591,-2.18081
710.5,64.0113,1.25886,-2.18084
711,64.0634,1.25402,-2.1816
711.5,64.1118,1.26174,-2.18216
712,64.1651,1.24807,-2.18279
712.5,64.2175,1.25463,-2.18348
713,64.2677,1.24797,-2.18268
713.5,64.3189,1.25492,-2.18348
714,64.3704,1.25245,-2.18348
714.5,64.4204,1.25334,-2.18471
715,64.4722,1.25358,-2.18479
715.5,64.5225,1.25252,-2.18519
716,64.5738,1.2565,-2.18612
716.5,64.6244,1.24234,-2.18803
717,64.674,1.24277,-2.18798
717.5,64.7265,1.24148,-2.18691
718,64.7779,1.24436,-2.18799
718.5,64.828,1.24341,-2.18799
719,64.8798,1.2411,-2.18799
719.5,64.93,1.23938,-2.18934
720,64.9805,1.23354,-2.1906
720.5,65.0319,1.22081,-2.19204
721,65.0824,1.2242,-2.19204
721.5,65.1342,1.21762,-2.19336
722,65.1834,1.22978,-2.19336
722.5,65.2351,1.22794,-2.19468
723,65.2857,1.21872,-2.19468
723.5,65.3373,1.22538,-2.19468
724,65.3883,1.21272,-2.19468
724.5,65.439,1.21828,-2.19468
725,65.4896,1.21427,-2.19468
725.5,65.5405,1.21461,-2.19373
726,65.591,1.20178,-2.19368
726.5,65.6419,1.19979,-2.19661
727,65.6936,1.18745,-2.19927
727.5,65.7444,1.18933,-2.20061
728,65.7946,1.17775,-2.2006
728.5,65.8458,1.177,-2.2003
729,65.8974,1.18471,-2.20061
729.5,65.9489,1.17993,-2.20061
730,65.9991,1.16524,-2.20061
730.5,66.0507,1.17596,-2.20109
731,66.1014,1.17301,-2.20066
731.5,66.1508,1.16323,-2.20193
732,66.2032,1.16832,-2.20323
732.5,66.255,1.16678,-2.20326
733,66.3062,1.15953,-2.20324
733.5,66.3568,1.16007,-2.20324
734,66.4077,1.15632,-2.20407
734.5,66.4586,1.14912,-2.20456
735,66.5095,1.13946,-2.20557
735.5,66.5606,1.13711,-2.20555
736,66.6115,1.13577,-2.20422
736.5,66.6626,1.14452,-2.20639
737,66.712,1.13899,-2.2073
737.5,66.7647,1.13641,-2.20864
738,66.8149,1.12886,-2.20862
738.5,66.8665,1.12342,-2.20932
739,66.9171,1.12615,-2.20928
739.5,66.9686,1.12785,-2.21025
740,67.0182,1.1219,-2.2096
740.5,67.0695,1.11326,-2.20818
741,67.1205,1.11126,-2.21067
741.5,67.1704,1.11954,-2.21227
742,67.2234,1.10716,-2.21335
742.5,67.2744,1.11057,-2.21389
743,67.3252,1.10501,-2.21389
743.5,67.3764,1.10506,-2.21257
744,67.4277,1.09852,-2.21649
744.5,67.4784,1.09921,-2.21545
745,67.5291,1.09611,-2.214
745.5,67.5798,1.10477,-2.21574
746,67.6307,1.10297,-2.21637
746.5,67.6821,1.09927,-2.21411
747,67.7334,1.08974,-2.21437
747.5,67.7846,1.08983,-2.21596
748,67.8368,1.09051,-2.21729
748.5,67.8864,1.08613,-2.21729
749,67.9378,1.08912,-2.21721
749.5,67.9882,1.08264,-2.21927
750,68.04,1.08,-2.21928
750.5,68.0921,1.07041,-2.22025
751,68.1404,1.07083,-2.22026
751.5,68.1939,1.07234,-2.22059
752,68.245,1.06941,-2.22056
752.5,68.2957,1.06463,-2.22191
753,68.3468,1.06276,-2.22322
753.5,68.3969,1.06152,-2.22322
754,68.4494,1.063,-2.22322
754.5,68.5,1.07198,-2.22322
755,68.5512,1.06786,-2.22424
755.5,68.6029,1.05832,-2.22324
756,68.6543,1.05421,-2.22322
756.5,68.7047,1.05803,-2.22578
757,68.7552,1.04773,-2.22586
757.5,68.8073,1.05481,-2.22633
758,68.8585,1.04401,-2.22676
758.5,68.909,1.04414,-2.22717
759,68.9602,1.04854,-2.22707
759.5,69.0109,1.04843,-2.22848
760,69.0618,1.03772,-2.22783
760.5,69.1141,1.04023,-2.22783
761,69.1651,1.02886,-2.22784
761.5,69.2151,1.03741,-2.22915
762,69.2673,1.029,-2.23047
762.5,69.3174,1.02656,-2.23047
763,69.3693,1.0241,-2.23048
763.5,69.4191,1.02274,-2.23177
764,69.47,1.02646,-2.23178
764.5,69.5218,1.02751,-2.23173
765,69.5731,1.01844,-2.2331
765.5,69.624,1.01616,-2.2331
766,69.675,1.02714,-2.2344
766.5,69.7256,1.02021,-2.2344
767,69.7767,1.02283,-2.23373
767.5,69.8283,1.0158,-2.23509
768,69.8795,1.00563,-2.235
768.5,69.9303,1.01232,-2.23442
769,69.9817,1.01173,-2.23499
769.5,70.0327,1.01231,-2.23573
770,70.0835,1.0065,-2.23573
770.5,70.1326,1.01487,-2.23704
771,70.1859,1.01539,-2.23705
771.5,70.237,1.0057,-2.23835
772,70.2879,1.00908,-2.23837
772.5,70.3373,0.998042,-2.23837
773,70.3897,0.998451,-2.23838
773.5,70.4406,0.996525,-2.2397
774,70.4915,0.997877,-2.23954
774.5,70.5421,0.996317,-2.23903
775,70.5932,1.0037,-2.23903
775.5,70.6453,0.995161,-2.23933
776,70.6966,1.0062,-2.24034
776.5,70.7472,0.990949,-2.24034
777,70.7988,0.989202,-2.24034
777.5,70.8493,0.977084,-2.24172
778,70.9006,0.98722,-2.24162
778.5,70.952,0.987908,-2.24035
779,71.0029,0.989562,-2.24034
779.5,71.0537,0.983431,-2.24167
780,71.1045,0.993444,-2.24164
780.5,71.1566,0.988594,-2.24298
781,71.2071,0.984858,-2.24298
781.5,71.258,0.987555,-2.24395
782,71.3078,0.980373,-2.24404
782.5,71.36,0.980987,-2.2443
783,71.4115,0.978785,-2.2443
783.5,71.4621,0.979989,-2.24565
784,71.5136,0.97761,-2.24503
784.5,71.5645,0.973828,-2.2443
785,71.6137,0.983436,-2.24562
785.5,71.6671,0.978272,-2.24562
786,71.7179,0.978922,-2.24706
786.5,71.769,0.970797,-2.24792
787,71.8194,0.98268,-2.24784
787.5,71.8712,0.97343,-2.24472
788,71.922,0.965799,-2.24398
788.5,71.9732,0.955508,-2.24702
789,72.0247,0.954433,-2.24844
789.5,72.0757,0.953001,-2.24979
790,72.1265,0.947842,-2.24964