File: 01_Data/Three_Layer_Turnout_Gear_Moisture_Barrier/STA/N2/10K_min/Three_Layer_Turnout_Gear_Moisture_Barrier_STA_N2_10KData_240531_R2.csv
Temp./C,Time/min,DSC/(mW/mg),Mass loss/mg
60.0,0.0,0.74207,-0.0280991
60.5,0.0555974,0.756008,-0.0284034
61,0.111233,0.765681,-0.0294236
61.5,0.166903,0.774869,-0.0280822
62,0.222849,0.788443,-0.0281302
62.5,0.277373,0.800636,-0.0293952
63,0.332573,0.811004,-0.0307179
63.5,0.388419,0.815157,-0.0322075
64,0.441939,0.831249,-0.0321966
64.5,0.495721,0.836302,-0.0315033
65,0.549913,0.838609,-0.031683
65.5,0.605005,0.849346,-0.0308596
66,0.657519,0.85875,-0.0296013
66.5,0.710132,0.871861,-0.030826
67,0.763495,0.882537,-0.0285342
67.5,0.816441,0.887354,-0.0291002
68,0.869291,0.894845,-0.031712
68.5,0.924059,0.898204,-0.0317283
69,0.977546,0.909796,-0.032909
69.5,1.02521,0.917235,-0.031928
70,1.07784,0.925727,-0.0317269
70.5,1.13288,0.929438,-0.0330477
71,1.18772,0.940739,-0.0313873
71.5,1.23874,0.950896,-0.0302061
72,1.29124,0.955917,-0.0315101
72.5,1.34516,0.962304,-0.0315211
73,1.39679,0.96318,-0.0328341
73.5,1.44926,0.97215,-0.03284
74,1.50141,0.97311,-0.0341418
74.5,1.55155,0.984579,-0.0328575
75,1.60473,0.99561,-0.0328723
75.5,1.65653,1.00825,-0.0328008
76,1.70544,1.01371,-0.0341541
76.5,1.76138,1.01617,-0.0341714
77,1.81175,1.01784,-0.0354708
77.5,1.86333,1.01732,-0.03547
78,1.91473,1.02647,-0.0355633
78.5,1.96771,1.03343,-0.0380965
79,2.01776,1.03443,-0.0381121
79.5,2.07039,1.03047,-0.0383113
80,2.12107,1.04109,-0.0377698
80.5,2.17136,1.04243,-0.0377699
81,2.22257,1.04796,-0.0378604
81.5,2.27341,1.0503,-0.0367802
82,2.3248,1.05244,-0.0384948
82.5,2.37561,1.05969,-0.0394989
83,2.42669,1.05877,-0.040741
83.5,2.47797,1.06161,-0.0394016
84,2.5278,1.06229,-0.0394157
84.5,2.57982,1.06585,-0.0374388
85,2.62959,1.06347,-0.0374399
85.5,2.68036,1.07003,-0.0381294
86,2.73051,1.06644,-0.0387618
86.5,2.78048,1.07143,-0.0400456
87,2.83038,1.07319,-0.0407471
87.5,2.88116,1.07064,-0.0428314
88,2.93084,1.06733,-0.0426621
88.5,2.98129,1.07332,-0.0440329
89,3.03023,1.06565,-0.04403
89.5,3.07869,1.06655,-0.0440292
90,3.13008,1.06317,-0.0446929
90.5,3.17956,1.06652,-0.0446901
91,3.22775,1.06726,-0.0455476
91.5,3.27837,1.0714,-0.0447305
92,3.32887,1.05964,-0.0460002
92.5,3.37872,1.06079,-0.046
93,3.42673,1.05938,-0.046
93.5,3.47747,1.05924,-0.0460009
94,3.5256,1.05473,-0.0470904
94.5,3.57551,1.05375,-0.0473203
95,3.62495,1.05805,-0.0459136
95.5,3.67378,1.04897,-0.0460002
96,3.72274,1.04095,-0.046
96.5,3.7724,1.04239,-0.0459983
97,3.82052,1.02768,-0.046978
97.5,3.8712,1.0314,-0.0469874
98,3.9206,1.02626,-0.0473128
98.5,3.96826,1.02216,-0.0478267
99,4.0179,1.01652,-0.0474076
99.5,4.06633,1.00752,-0.0475545
100,4.11544,1.01034,-0.0487912
100.5,4.16392,1.00192,-0.0499584
101,4.213,1.00958,-0.0483636
101.5,4.26235,1.00632,-0.0476505
102,4.31119,0.998123,-0.0489644
102.5,4.35969,0.996765,-0.0485252
103,4.40871,0.997408,-0.0499598
103.5,4.45819,0.983351,-0.0488829
104,4.50608,0.977782,-0.0486397
104.5,4.55424,0.973569,-0.0486408
105,4.60331,0.974036,-0.0493361
105.5,4.65248,0.972213,-0.0493
106,4.70171,0.967067,-0.0493
106.5,4.74909,0.962108,-0.0493
107,4.79707,0.957857,-0.0489578
107.5,4.84392,0.962053,-0.0491302
108,4.89552,0.951186,-0.0489314
108.5,4.9433,0.949348,-0.0502565
109,4.99173,0.942478,-0.050279
109.5,5.0403,0.934127,-0.0520748
110,5.08987,0.934337,-0.0529203
110.5,5.13785,0.932169,-0.0529454
111,5.18653,0.932125,-0.0515987
111.5,5.23523,0.923864,-0.0516
112,5.28266,0.919152,-0.0515998
112.5,5.33193,0.91903,-0.0516927
113,5.37962,0.91246,-0.0522586
113.5,5.42836,0.90413,-0.0509344
114,5.4783,0.907738,-0.0509303
114.5,5.52531,0.912724,-0.0499544
115,5.57435,0.908585,-0.04996
115.5,5.62312,0.907284,-0.0499596
116,5.67116,0.900662,-0.0506221
116.5,5.718,0.903089,-0.0506394
117,5.76752,0.903048,-0.0502902
117.5,5.81764,0.90424,-0.0502911
118,5.86271,0.891551,-0.0512807
118.5,5.91214,0.896429,-0.0504259
119,5.96249,0.888265,-0.0503095
119.5,6.01039,0.889223,-0.0516034
120,6.05898,0.887217,-0.0516
120.5,6.10412,0.883876,-0.052764
121,6.15465,0.884658,-0.0530369
121.5,6.20387,0.889434,-0.0529254
122,6.25127,0.885905,-0.05292
122.5,6.30025,0.880532,-0.05292
123,6.34799,0.885392,-0.0529201
123.5,6.3962,0.883561,-0.0528557
124,6.44223,0.886765,-0.0529178
124.5,6.49199,0.877774,-0.05292
125,6.54056,0.882453,-0.05292
125.5,6.58837,0.876177,-0.05292
126,6.6372,0.878941,-0.0529219
126.5,6.6847,0.879978,-0.0541575
127,6.7331,0.879326,-0.0538599
127.5,6.78115,0.874705,-0.0529302
128,6.8286,0.875345,-0.05293
128.5,6.87662,0.875575,-0.052908
129,6.92526,0.868665,-0.0532989
129.5,6.9743,0.876253,-0.0529207
130,7.02065,0.869771,-0.05292
130.5,7.07022,0.874174,-0.05292
131,7.11793,0.879069,-0.05292
131.5,7.16578,0.879545,-0.052918
132,7.21361,0.88012,-0.0542811
132.5,7.26137,0.883896,-0.05424
133,7.30898,0.881032,-0.05424
133.5,7.35688,0.878556,-0.05424
134,7.40521,0.872828,-0.054239
134.5,7.45361,0.883075,-0.0532308
135,7.50078,0.885114,-0.0529193
135.5,7.54842,0.888049,-0.0542302
136,7.59665,0.879575,-0.0542402
136.5,7.64399,0.881449,-0.0542431
137,7.69304,0.87724,-0.0555328
137.5,7.74018,0.877099,-0.0555609
138,7.7887,0.879779,-0.0542493
138.5,7.83646,0.883906,-0.0542398
139,7.88433,0.882029,-0.0542613
139.5,7.93046,0.886158,-0.0555566
140,7.97984,0.885413,-0.05556
140.5,8.02738,0.87993,-0.05556
141,8.07479,0.882357,-0.05556
141.5,8.12228,0.882691,-0.0555602
142,8.17041,0.880271,-0.0562529
142.5,8.21784,0.87992,-0.0568702
143,8.26661,0.878267,-0.0569124
143.5,8.31363,0.882667,-0.0555462
144,8.36206,0.888089,-0.05555
144.5,8.41093,0.884209,-0.05555
145,8.45706,0.882365,-0.0555504
145.5,8.50585,0.885821,-0.0563554
146,8.554,0.882927,-0.0567107
146.5,8.60136,0.878667,-0.0575387
147,8.64827,0.882955,-0.0578647
147.5,8.69678,0.889198,-0.0565355
148,8.74324,0.888116,-0.05654
148.5,8.79127,0.889286,-0.0565325
149,8.83969,0.884839,-0.0563186
149.5,8.88617,0.88467,-0.0562228
150,8.93596,0.885043,-0.0565482
150.5,8.98279,0.87655,-0.05655
151,9.02952,0.885132,-0.05655
151.5,9.07832,0.887633,-0.0565501
152,9.12589,0.895043,-0.0561418
152.5,9.1732,0.888039,-0.0565476
153,9.22139,0.891942,-0.0552272
153.5,9.26909,0.884844,-0.0565486
154,9.31757,0.886441,-0.0578944
154.5,9.36374,0.8844,-0.0578699
155,9.41173,0.882324,-0.05787
155.5,9.46009,0.885037,-0.05787
156,9.50714,0.892594,-0.0578795
156.5,9.55546,0.894121,-0.0588543
157,9.60301,0.892698,-0.0591822
157.5,9.65018,0.903621,-0.0578991
158,9.69731,0.903389,-0.0572011
158.5,9.74632,0.903585,-0.0572
159,9.79187,0.907644,-0.0571741
159.5,9.84061,0.899301,-0.0561172
160,9.88807,0.903584,-0.0575306
160.5,9.93564,0.898995,-0.0575301
161,9.98199,0.907225,-0.0562676
161.5,10.0305,0.902205,-0.0562359
162,10.0781,0.903922,-0.0575274
162.5,10.1263,0.897089,-0.0575294
163,10.1742,0.909035,-0.057168
163.5,10.2195,0.909193,-0.0572
164,10.2692,0.9129,-0.0572
164.5,10.3157,0.915937,-0.0572
165,10.3644,0.918896,-0.0572
165.5,10.4119,0.917527,-0.0571998
166,10.4601,0.920295,-0.0574829
166.5,10.5073,0.916913,-0.0585191
167,10.5533,0.922071,-0.05852
167.5,10.6019,0.925739,-0.0585286
168,10.6497,0.923796,-0.0598596
168.5,10.6973,0.921469,-0.061161
169,10.7455,0.914956,-0.0601364
169.5,10.7925,0.925283,-0.0598393
170,10.8405,0.924872,-0.0598565
170.5,10.8877,0.928424,-0.0598375
171,10.9363,0.923796,-0.05983
171.5,10.9832,0.92239,-0.05983
172,11.0308,0.921419,-0.05983
172.5,11.0794,0.929686,-0.0598302
173,11.1263,0.925967,-0.0597882
173.5,11.1718,0.92169,-0.058519
174,11.221,0.927621,-0.0585201
174.5,11.2692,0.925619,-0.0584753
175,11.3173,0.930518,-0.0598306
175.5,11.3643,0.923964,-0.05983
176,11.412,0.930036,-0.05983
176.5,11.4592,0.930209,-0.0598315
177,11.5077,0.922479,-0.0611692
177.5,11.5544,0.927245,-0.0628133
178,11.6022,0.934034,-0.0602832
178.5,11.6501,0.931101,-0.06028
179,11.6977,0.931853,-0.06028
179.5,11.7456,0.931016,-0.0602809
180,11.7923,0.932091,-0.0612046
180.5,11.8408,0.937331,-0.0615908
181,11.8872,0.93727,-0.0603515
181.5,11.9353,0.935385,-0.061926
182,11.983,0.940123,-0.0612136
182.5,12.0301,0.925962,-0.0619203
183,12.0775,0.933973,-0.06192
183.5,12.1251,0.939158,-0.0619206
184,12.1726,0.939063,-0.0631321
184.5,12.2208,0.943443,-0.0636723
185,12.2682,0.93853,-0.0643303
185.5,12.3162,0.936238,-0.06433
186,12.363,0.94278,-0.06433
186.5,12.4109,0.940398,-0.06433
187,12.4579,0.941135,-0.06433
187.5,12.5062,0.941211,-0.06433
188,12.5531,0.938368,-0.06433
188.5,12.6007,0.930273,-0.06433
189,12.6488,0.94072,-0.0643304
189.5,12.6955,0.939827,-0.0630145
190,12.7429,0.935127,-0.063018
190.5,12.7905,0.940191,-0.0633422
191,12.8379,0.941496,-0.0633468
191.5,12.8845,0.943371,-0.0636809
192,12.9334,0.936743,-0.06368
192.5,12.9792,0.940482,-0.06368
193,13.0277,0.939236,-0.0636798
193.5,13.075,0.945381,-0.064702
194,13.1227,0.943215,-0.0646699
194.5,13.1703,0.946829,-0.06467
195,13.2166,0.946232,-0.0646696
195.5,13.2646,0.950763,-0.0658939
196,13.3122,0.949079,-0.0659903
196.5,13.36,0.943807,-0.06599
197,13.4069,0.94653,-0.0659899
197.5,13.4546,0.944586,-0.0661787
198,13.5021,0.946873,-0.0663214
198.5,13.549,0.948203,-0.0670486
199,13.5954,0.944665,-0.0669771
199.5,13.6447,0.946386,-0.067634
200,13.6919,0.951176,-0.0688795
200.5,13.7363,0.94688,-0.0675874
201,13.7841,0.95261,-0.0676285
201.5,13.833,0.954222,-0.0663482
202,13.8809,0.951666,-0.0663569
202.5,13.9304,0.954925,-0.0669795
203,13.9762,0.949269,-0.0669486
203.5,14.0231,0.952349,-0.0682921
204,14.0701,0.950888,-0.06829
204.5,14.1161,0.948738,-0.06829
205,14.166,0.943321,-0.06829
205.5,14.2133,0.9437,-0.06829
206,14.2604,0.944774,-0.06829
206.5,14.3071,0.942381,-0.0682945
207,14.3553,0.953985,-0.0683161
207.5,14.4021,0.945629,-0.06829
208,14.4507,0.950526,-0.0682703
208.5,14.4977,0.951435,-0.0692791
209,14.5447,0.953219,-0.0692635
209.5,14.5924,0.950428,-0.0699446
210,14.6404,0.949389,-0.06994
210.5,14.688,0.954179,-0.06994
211,14.7358,0.95763,-0.06994
211.5,14.7827,0.955226,-0.06994
212,14.8303,0.957695,-0.0699442
212.5,14.8771,0.958448,-0.0686187
213,14.9246,0.95731,-0.06862
213.5,14.9723,0.968858,-0.0696617
214,15.0177,0.970112,-0.0696013
214.5,15.0673,0.965862,-0.0696101
215,15.1152,0.962524,-0.0696397
215.5,15.1622,0.971884,-0.0709247
216,15.2095,0.969952,-0.07093
216.5,15.2573,0.974273,-0.07093
217,15.3047,0.977193,-0.0709305
217.5,15.3512,0.974194,-0.0712863
218,15.3996,0.978392,-0.0722356
218.5,15.4468,0.97766,-0.0732372
219,15.4944,0.979365,-0.07323
219.5,15.5419,0.983412,-0.0732297
220,15.5894,0.985893,-0.0718069
220.5,15.6373,0.990934,-0.07192
221,15.6841,0.987265,-0.0719201
221.5,15.7317,0.993996,-0.0728978
222,15.7801,1.00011,-0.0732304
222.5,15.8271,1.00067,-0.07323
223,15.8752,1.00229,-0.0732298
223.5,15.9212,1.00402,-0.0725553
224,15.9698,1.00884,-0.0722497
224.5,16.0166,1.00694,-0.07225
225,16.0648,1.01091,-0.0722517
225.5,16.1122,1.0091,-0.0734745
226,16.1595,1.02326,-0.0739021
226.5,16.2062,1.02531,-0.07389
227,16.2533,1.02607,-0.0740055
227.5,16.3016,1.03833,-0.0745394
228,16.3487,1.04193,-0.0745273
228.5,16.3946,1.04596,-0.0751991
229,16.4444,1.0537,-0.0752
229.5,16.49,1.05889,-0.0752
230,16.5403,1.06644,-0.0751941
230.5,16.5865,1.06897,-0.0758566
231,16.6353,1.07325,-0.0758601
231.5,16.6831,1.07639,-0.0757978
232,16.7296,1.09035,-0.0778431
232.5,16.7779,1.09577,-0.07784
233,16.8255,1.09311,-0.07784
233.5,16.8737,1.101,-0.0778676
234,16.9207,1.10509,-0.0771782
234.5,16.9682,1.11804,-0.0771801
235,17.0165,1.11276,-0.0785637
235.5,17.0634,1.12284,-0.0785004
236,17.1103,1.13868,-0.0788474
236.5,17.1586,1.13977,-0.07883
237,17.2059,1.14706,-0.0788265
237.5,17.2536,1.15185,-0.0802098
238,17.301,1.153,-0.0801539
238.5,17.3485,1.15732,-0.0788352
239,17.3962,1.15998,-0.0787257
239.5,17.444,1.16769,-0.0801501
240,17.4915,1.16582,-0.0801497
240.5,17.5385,1.16804,-0.0814355
241,17.5874,1.17117,-0.0827429
241.5,17.6344,1.17634,-0.08278
242,17.682,1.17727,-0.0827801
242.5,17.7291,1.17641,-0.0827858
243,17.776,1.17797,-0.085195
243.5,17.8254,1.17937,-0.0853584
244,17.8725,1.1774,-0.0841007
244.5,17.9206,1.18545,-0.0840999
245,17.9672,1.18518,-0.084055
245.5,18.0145,1.1804,-0.0868204
246,18.0617,1.18354,-0.0867403
246.5,18.1104,1.18398,-0.0856179
247,18.1578,1.17709,-0.0867408
247.5,18.2051,1.17967,-0.08674
248,18.2528,1.18131,-0.0867483
248.5,18.3005,1.1749,-0.0880647
249,18.3484,1.1773,-0.08806
249.5,18.3952,1.17583,-0.0880566
250,18.4434,1.17698,-0.089428
250.5,18.4912,1.18,-0.08937
251,18.5385,1.18339,-0.0896621
251.5,18.5835,1.18233,-0.0906882
252,18.6313,1.18784,-0.09069
252.5,18.6813,1.18456,-0.0906897
253,18.7275,1.18057,-0.0919115
253.5,18.7752,1.18167,-0.0929299
254,18.8232,1.16813,-0.09332
254.5,18.8704,1.1685,-0.0946881
255,18.918,1.16804,-0.094427
255.5,18.9659,1.16208,-0.0933215
256,19.0133,1.1559,-0.0933206
256.5,19.0607,1.15482,-0.0941247
257,19.1083,1.15157,-0.0946399
257.5,19.1561,1.14762,-0.09464
258,19.2034,1.148,-0.0946401
258.5,19.251,1.14521,-0.0951639
259,19.298,1.13388,-0.0959597
259.5,19.3458,1.13038,-0.0959597
260,19.3931,1.12682,-0.0961742
260.5,19.4407,1.1192,-0.0972793
261,19.4883,1.12296,-0.0972818
261.5,19.536,1.11731,-0.0987301
262,19.5833,1.11979,-0.0998852
262.5,19.6315,1.1229,-0.098635
263,19.6791,1.12225,-0.0995799
263.5,19.7262,1.12487,-0.0995789
264,19.7744,1.12891,-0.100613
264.5,19.8217,1.13084,-0.100892
265,19.8698,1.13093,-0.100937
265.5,19.9166,1.14149,-0.102206
266,19.9641,1.15114,-0.103955
266.5,20.0119,1.15284,-0.10386
267,20.0597,1.15885,-0.103877
267.5,20.107,1.16791,-0.106486
268,20.1548,1.16371,-0.107819
268.5,20.2029,1.17288,-0.108152
269,20.2509,1.17628,-0.10913
269.5,20.2981,1.1905,-0.10913
270,20.3459,1.19668,-0.110194
270.5,20.3943,1.19783,-0.110451
271,20.4412,1.20325,-0.111267
271.5,20.49,1.21466,-0.111758
272,20.5376,1.21479,-0.113072
272.5,20.5858,1.22143,-0.114403
273,20.6323,1.22311,-0.114556
273.5,20.6779,1.22547,-0.115721
274,20.7282,1.23453,-0.115725
274.5,20.7756,1.23116,-0.116963
275,20.8234,1.23138,-0.118362
275.5,20.8708,1.23435,-0.119384
276,20.9186,1.22759,-0.118331
276.5,20.9664,1.24069,-0.119664
277,21.0139,1.23514,-0.12086
277.5,21.062,1.23954,-0.123754
278,21.1097,1.24513,-0.125077
278.5,21.1575,1.24358,-0.126297
279,21.2048,1.24835,-0.127581
279.5,21.253,1.24333,-0.13024
280,21.3004,1.24203,-0.131645
280.5,21.3485,1.24423,-0.132954
281,21.3965,1.24018,-0.13436
281.5,21.4443,1.24772,-0.135718
282,21.4914,1.25389,-0.137004
282.5,21.5396,1.25036,-0.138335
283,21.5872,1.24871,-0.138764
283.5,21.6347,1.25575,-0.140505
284,21.6804,1.25868,-0.143291
284.5,21.731,1.24906,-0.144893
285,21.7793,1.248,-0.14613
285.5,21.8267,1.24892,-0.147418
286,21.8738,1.24952,-0.148857
286.5,21.9221,1.25547,-0.149963
287,21.9702,1.24883,-0.150126
287.5,22.0176,1.25309,-0.151605
288,22.0665,1.25295,-0.153909
288.5,22.1135,1.25261,-0.155438
289,22.1613,1.25633,-0.160094
289.5,22.2107,1.2482,-0.1616
290,22.257,1.2509,-0.164008
290.5,22.3042,1.24174,-0.165978
291,22.3518,1.24118,-0.168011
291.5,22.4,1.23987,-0.170891
292,22.4487,1.22922,-0.172353
292.5,22.4959,1.22043,-0.175574
293,22.5434,1.22151,-0.178693
293.5,22.5904,1.2127,-0.181126
294,22.6393,1.2059,-0.181191
294.5,22.6868,1.19629,-0.185402
295,22.7351,1.196,-0.187942
295.5,22.7826,1.18241,-0.18992
296,22.8302,1.1793,-0.192669
296.5,22.8773,1.1714,-0.194366
297,22.9258,1.15838,-0.195065
297.5,22.9729,1.14542,-0.197467
298,23.0211,1.15064,-0.200913
298.5,23.069,1.13107,-0.20355
299,23.1162,1.1197,-0.205529
299.5,23.1636,1.11113,-0.207171
300,23.2119,1.07927,-0.209737
300.5,23.2594,1.0596,-0.211558
301,23.3064,1.02944,-0.214069
301.5,23.3542,0.999011,-0.216273
302,23.402,0.952529,-0.218902
302.5,23.449,0.91301,-0.220461
303,23.4968,0.875688,-0.221834
303.5,23.5434,0.815652,-0.223756
304,23.5911,0.790403,-0.226455
304.5,23.6389,0.728699,-0.229454
305,23.6854,0.671783,-0.232505
305.5,23.7328,0.585254,-0.234767
306,23.7788,0.478206,-0.23746
306.5,23.8251,0.343794,-0.242245
307,23.8717,0.197036,-0.246892
307.5,23.9173,0.0898648,-0.25144
308,23.9651,0.061412,-0.255865
308.5,24.0142,0.0872094,-0.260979
309,24.0607,0.148026,-0.265674
309.5,24.1108,0.226111,-0.272683
310,24.1596,0.300381,-0.279115
310.5,24.2083,0.373577,-0.283742
311,24.2559,0.421309,-0.287369
311.5,24.3045,0.478537,-0.292798
312,24.3544,0.528926,-0.298672
312.5,24.4026,0.576536,-0.302381
313,24.4509,0.604229,-0.307207
313.5,24.499,0.648039,-0.31113
314,24.5466,0.67552,-0.316611
314.5,24.5955,0.702887,-0.320769
315,24.6443,0.742567,-0.325113
315.5,24.6925,0.759827,-0.329855
316,24.7404,0.780798,-0.333669
316.5,24.7884,0.807941,-0.336111
317,24.8357,0.830446,-0.33962
317.5,24.8859,0.85677,-0.343839
318,24.9322,0.872295,-0.348042
318.5,24.9826,0.902413,-0.352331
319,25.0312,0.922312,-0.355663
319.5,25.0796,0.926243,-0.360401
320,25.1279,0.947229,-0.363675
320.5,25.1756,0.970387,-0.367238
321,25.2242,0.990361,-0.369917
321.5,25.2715,1.00712,-0.37316
322,25.3209,1.0259,-0.376363
322.5,25.3686,1.04373,-0.380038
323,25.4168,1.07835,-0.383513
323.5,25.466,1.1081,-0.386829
324,25.5141,1.13886,-0.391104
324.5,25.563,1.19041,-0.394277
325,25.612,1.24775,-0.396641
325.5,25.6596,1.31086,-0.400917
326,25.7098,1.40074,-0.404699
326.5,25.7592,1.52356,-0.406601
327,25.8088,1.649,-0.410144
327.5,25.8574,1.73792,-0.414541
328,25.9061,1.72892,-0.417554
328.5,25.9534,1.63183,-0.420751
329,25.9994,1.5101,-0.422566
329.5,26.0476,1.38078,-0.425781
330,26.0938,1.26873,-0.428773
330.5,26.1414,1.18812,-0.431024
331,26.1887,1.12184,-0.4334
331.5,26.2366,1.07828,-0.43543
332,26.2846,1.03555,-0.439291
332.5,26.3331,1.01217,-0.442529
333,26.3801,0.991522,-0.444936
333.5,26.4275,0.96375,-0.446028
334,26.476,0.948989,-0.447803
334.5,26.5236,0.93765,-0.449792
335,26.5728,0.921178,-0.452617
335.5,26.6199,0.917391,-0.455173
336,26.6676,0.910976,-0.455847
336.5,26.716,0.901033,-0.458725
337,26.7645,0.89066,-0.460347
337.5,26.8126,0.883047,-0.462646
338,26.8604,0.876666,-0.465248
338.5,26.9089,0.871291,-0.466689
339,26.9564,0.855678,-0.470312
339.5,27.0043,0.853914,-0.472012
340,27.0528,0.856009,-0.474802
340.5,27.1005,0.847812,-0.476016
341,27.1486,0.848381,-0.477339
341.5,27.1984,0.840643,-0.478833
342,27.2447,0.838111,-0.480533
342.5,27.2946,0.826433,-0.482329
343,27.3419,0.820582,-0.486407
343.5,27.3893,0.811897,-0.487877
344,27.4383,0.811919,-0.489196
344.5,27.4869,0.800137,-0.491403
345,27.5347,0.797458,-0.492606
345.5,27.5825,0.798498,-0.494928
346,27.632,0.786362,-0.49612
346.5,27.6793,0.788037,-0.497547
347,27.7282,0.78248,-0.500456
347.5,27.776,0.773881,-0.502116
348,27.8246,0.77074,-0.503555
348.5,27.8724,0.764658,-0.505175
349,27.9201,0.754921,-0.506516
349.5,27.9688,0.758314,-0.508392
350,28.017,0.754816,-0.510608
350.5,28.0654,0.745064,-0.511906
351,28.1134,0.742895,-0.513245
351.5,28.1617,0.73834,-0.515415
352,28.2101,0.7361,-0.51754
352.5,28.2582,0.72948,-0.51907
353,28.3069,0.716364,-0.520791
353.5,28.3549,0.717206,-0.521915
354,28.4034,0.711925,-0.521847
354.5,28.4514,0.706929,-0.523208
355,28.4993,0.708467,-0.524568
355.5,28.5481,0.705784,-0.525878
356,28.5969,0.697162,-0.527275
356.5,28.6451,0.689088,-0.528646
357,28.6915,0.688262,-0.52985
357.5,28.7424,0.687473,-0.53246
358,28.7892,0.685156,-0.534423
358.5,28.8378,0.67613,-0.536527
359,28.8862,0.677406,-0.538578
359.5,28.9356,0.674116,-0.541796
360,28.9831,0.665284,-0.544522
360.5,29.0323,0.661503,-0.544225
361,29.0789,0.670934,-0.544307
361.5,29.1286,0.67448,-0.545609
362,29.1771,0.67223,-0.547977
362.5,29.225,0.674847,-0.549613
363,29.2733,0.679331,-0.551457
363.5,29.3225,0.678513,-0.552041
364,29.3709,0.677015,-0.553327
364.5,29.4196,0.682514,-0.555115
365,29.4675,0.681308,-0.558743
365.5,29.5159,0.687877,-0.560269
366,29.5633,0.682597,-0.561441
366.5,29.6118,0.684671,-0.561734
367,29.6624,0.698888,-0.564579
367.5,29.7098,0.697746,-0.567064
368,29.7593,0.699041,-0.568587
368.5,29.8081,0.698321,-0.571377
369,29.856,0.701532,-0.574108
369.5,29.904,0.712155,-0.57504
370,29.9522,0.711738,-0.575766
370.5,30.0015,0.719886,-0.577232
371,30.0509,0.715599,-0.580147
371.5,30.0985,0.715099,-0.581379
372,30.1475,0.730612,-0.583575
372.5,30.1954,0.733697,-0.585621
373,30.2448,0.73963,-0.587741
373.5,30.2932,0.738677,-0.589432
374,30.3416,0.744154,-0.591155
374.5,30.3905,0.744669,-0.592541
375,30.4384,0.747496,-0.595976
375.5,30.487,0.759227,-0.599763
376,30.5362,0.760435,-0.601604
376.5,30.5843,0.756732,-0.603275
377,30.6326,0.768009,-0.60619
377.5,30.6814,0.769146,-0.606624
378,30.729,0.773748,-0.60963
378.5,30.7778,0.776605,-0.611389
379,30.8271,0.770433,-0.613761
379.5,30.875,0.770439,-0.615302
380,30.924,0.764406,-0.6182
380.5,30.9729,0.759978,-0.621371
381,31.0212,0.75529,-0.622566
381.5,31.0685,0.740324,-0.624402
382,31.1176,0.731521,-0.627088
382.5,31.1667,0.72423,-0.629783
383,31.2149,0.715612,-0.631056
383.5,31.2631,0.705481,-0.633403
384,31.3115,0.704345,-0.634871
384.5,31.3601,0.70772,-0.637691
385,31.4088,0.698862,-0.63915
385.5,31.457,0.701838,-0.641462
386,31.505,0.694828,-0.644687
386.5,31.5539,0.707021,-0.648061
387,31.603,0.703587,-0.65043
387.5,31.651,0.712458,-0.651515
388,31.6999,0.708101,-0.653417
388.5,31.7492,0.71498,-0.656294
389,31.7978,0.719113,-0.659261
389.5,31.8456,0.716248,-0.660783
390,31.8942,0.729157,-0.663644
390.5,31.9426,0.728549,-0.665067
391,31.9912,0.724318,-0.667245
391.5,32.0402,0.732558,-0.671566
392,32.0879,0.727871,-0.673064
392.5,32.1381,0.733569,-0.675684
393,32.1867,0.732259,-0.679399
393.5,32.2355,0.742205,-0.681215
394,32.2839,0.744296,-0.683392
394.5,32.3338,0.745774,-0.685871
395,32.382,0.744343,-0.688515
395.5,32.4311,0.747173,-0.691164
396,32.4806,0.755091,-0.693781
396.5,32.5289,0.759324,-0.69832
397,32.5772,0.766429,-0.701527
397.5,32.6271,0.764546,-0.703648
398,32.6761,0.766222,-0.707182
398.5,32.7253,0.771484,-0.711583
399,32.7735,0.782533,-0.713277
399.5,32.8223,0.78473,-0.71632
400,32.8711,0.802204,-0.718437
400.5,32.9199,0.797408,-0.721212
401,32.9688,0.800009,-0.721529
401.5,33.0183,0.812242,-0.725107
402,33.0664,0.809741,-0.72722
402.5,33.1156,0.820729,-0.730096
403,33.1657,0.830393,-0.733004
403.5,33.2136,0.840222,-0.736453
404,33.2631,0.842393,-0.739089
404.5,33.3115,0.847309,-0.741263
405,33.3605,0.865715,-0.744121
405.5,33.4099,0.87158,-0.747437
406,33.4596,0.873928,-0.750854
406.5,33.5084,0.890733,-0.753496
407,33.5571,0.904857,-0.75561
407.5,33.6061,0.914506,-0.758417
408,33.6546,0.925995,-0.762285
408.5,33.7036,0.938351,-0.766487
409,33.7523,0.944312,-0.767589
409.5,33.802,0.96497,-0.77088
410,33.8509,0.971481,-0.774176
410.5,33.8998,0.985109,-0.776801
411,33.9486,0.99153,-0.779645
411.5,33.9975,1.01121,-0.7827
412,34.0481,1.02616,-0.78672
412.5,34.0949,1.03774,-0.789451
413,34.1458,1.04503,-0.791659
413.5,34.1945,1.06156,-0.794473
414,34.2441,1.07255,-0.798137
414.5,34.2927,1.0789,-0.801915
415,34.3414,1.09206,-0.805069
415.5,34.3912,1.0987,-0.807639
416,34.4391,1.10676,-0.809996
416.5,34.4886,1.12116,-0.813046
417,34.5381,1.11873,-0.816825
417.5,34.5863,1.12587,-0.820041
418,34.6364,1.1362,-0.821884
418.5,34.6849,1.14198,-0.824833
419,34.7335,1.14263,-0.826471
419.5,34.7838,1.14992,-0.829657
420,34.8311,1.1554,-0.831792
420.5,34.8814,1.15621,-0.834843
421,34.9298,1.15262,-0.837875
421.5,34.9789,1.15315,-0.841485
422,35.0277,1.14736,-0.845303
422.5,35.0761,1.14502,-0.848257
423,35.1246,1.14152,-0.852242
423.5,35.1749,1.13158,-0.85525
424,35.2232,1.13141,-0.858542
424.5,35.2716,1.12441,-0.86177
425,35.3208,1.10994,-0.867009
425.5,35.3698,1.10169,-0.87025
426,35.4186,1.0944,-0.873863
426.5,35.4677,1.09031,-0.874821
427,35.5184,1.08528,-0.876829
427.5,35.5659,1.0669,-0.880215
428,35.6146,1.05999,-0.883194
428.5,35.6633,1.04915,-0.886777
429,35.7113,1.03876,-0.891402
429.5,35.7606,1.03115,-0.896693
430,35.81,1.02615,-0.898057
430.5,35.8589,1.01699,-0.899977
431,35.9078,1.00756,-0.902835
431.5,35.956,1.00267,-0.90652
432,36.0057,0.994395,-0.909554
432.5,36.0544,0.986483,-0.912919
433,36.1035,0.98436,-0.915412
433.5,36.1519,0.976302,-0.919139
434,36.2019,0.971168,-0.92317
434.5,36.2477,0.969581,-0.926395
435,36.2996,0.966567,-0.92927
435.5,36.3484,0.965221,-0.933537
436,36.3973,0.965406,-0.937853
436.5,36.4466,0.959912,-0.941362
437,36.4958,0.958058,-0.945608
437.5,36.545,0.958712,-0.950497
438,36.5939,0.968499,-0.954117
438.5,36.6429,0.96514,-0.957041
439,36.6918,0.967319,-0.960589
439.5,36.741,0.962055,-0.96477
440,36.7896,0.964778,-0.968103
440.5,36.8387,0.962798,-0.971563
441,36.8896,0.965064,-0.97537
441.5,36.9379,0.965855,-0.979076
442,36.9867,0.96624,-0.982965
442.5,37.0356,0.962172,-0.98711
443,37.0852,0.965353,-0.990639
443.5,37.1352,0.969716,-0.995172
444,37.1833,0.971492,-0.999503
444.5,37.2332,0.968528,-1.0038
445,37.282,0.970916,-1.00849
445.5,37.3309,0.981163,-1.01052
446,37.3807,0.977761,-1.01428
446.5,37.4293,0.970505,-1.0187
447,37.4792,0.967386,-1.02386
447.5,37.5281,0.969565,-1.02704
448,37.5774,0.972039,-1.03169
448.5,37.6269,0.970229,-1.03651
449,37.6762,0.96416,-1.04172
449.5,37.7247,0.959565,-1.04879
450,37.7734,0.967475,-1.05219
450.5,37.8234,0.965562,-1.05495
451,37.8728,0.96261,-1.05844
451.5,37.9219,0.962119,-1.06179
452,37.971,0.966058,-1.06608
452.5,38.0183,0.963576,-1.07064
453,38.0704,0.963739,-1.07538
453.5,38.1183,0.958073,-1.08011
454,38.1689,0.961701,-1.08399
454.5,38.2171,0.951855,-1.08765
455,38.2669,0.947977,-1.09261
455.5,38.3158,0.940263,-1.09629
456,38.3646,0.931894,-1.10078
456.5,38.4144,0.939811,-1.10551
457,38.4632,0.927766,-1.10987
457.5,38.513,0.934318,-1.11565
458,38.5622,0.923265,-1.12032
458.5,38.6117,0.929635,-1.12404
459,38.6607,0.918648,-1.12894
459.5,38.7105,0.918367,-1.13357
460,38.7597,0.909489,-1.13766
460.5,38.8093,0.902645,-1.14167
461,38.8584,0.902559,-1.14671
461.5,38.9073,0.893463,-1.15276
462,38.957,0.890424,-1.1571
462.5,39.006,0.872751,-1.16317
463,39.0554,0.866809,-1.16806
463.5,39.1046,0.860148,-1.17207
464,39.1541,0.861539,-1.17613
464.5,39.2012,0.852535,-1.17986
465,39.2531,0.842586,-1.18304
465.5,39.3018,0.825422,-1.18644
466,39.3522,0.817801,-1.19119
466.5,39.4009,0.816548,-1.19511
467,39.4492,0.802764,-1.1994
467.5,39.4993,0.7978,-1.20425
468,39.5483,0.781846,-1.20998
468.5,39.5983,0.772939,-1.21392
469,39.647,0.758589,-1.21726
469.5,39.6969,0.746869,-1.2224
470,39.7453,0.745259,-1.22478
470.5,39.7948,0.73264,-1.22891
471,39.8441,0.722693,-1.23421
471.5,39.8931,0.703265,-1.23841
472,39.9432,0.698488,-1.24144
472.5,39.9918,0.696806,-1.24428
473,40.0406,0.680025,-1.24965
473.5,40.0903,0.671833,-1.25415
474,40.1392,0.655703,-1.25813
474.5,40.1879,0.653558,-1.26138
475,40.2376,0.634356,-1.2648
475.5,40.2864,0.622933,-1.26838
476,40.3365,0.611995,-1.27223
476.5,40.3862,0.608856,-1.27665
477,40.4357,0.595051,-1.27926
477.5,40.4834,0.583736,-1.28309
478,40.5324,0.580394,-1.28631
478.5,40.5827,0.560544,-1.2889
479,40.6313,0.551818,-1.29358
479.5,40.682,0.548273,-1.2971
480,40.7305,0.536409,-1.30086
480.5,40.7809,0.527228,-1.30378
481,40.8296,0.520868,-1.30709
481.5,40.8791,0.512614,-1.31059
482,40.9274,0.496848,-1.31378
482.5,40.9771,0.487138,-1.31698
483,41.0239,0.475289,-1.32044
483.5,41.0761,0.464313,-1.32311
484,41.125,0.455223,-1.32598
484.5,41.1741,0.442547,-1.32899
485,41.2236,0.435052,-1.3309
485.5,41.2729,0.42571,-1.33427
486,41.3221,0.41716,-1.33734
486.5,41.3713,0.391769,-1.34022
487,41.4213,0.387621,-1.34341
487.5,41.4696,0.372203,-1.34645
488,41.5189,0.354756,-1.3499
488.5,41.5685,0.348965,-1.35216
489,41.6178,0.334507,-1.3545
489.5,41.6672,0.324052,-1.35692
490,41.7168,0.31821,-1.36008
490.5,41.7658,0.306637,-1.36172
491,41.8151,0.295959,-1.36435
491.5,41.8657,0.28512,-1.36767
492,41.9131,0.276622,-1.37101
492.5,41.9644,0.265793,-1.37428
493,42.0133,0.257295,-1.37725
493.5,42.0603,0.248888,-1.38046
494,42.1102,0.232806,-1.38355
494.5,42.1607,0.233269,-1.38667
495,42.2109,0.230925,-1.38938
495.5,42.2608,0.220102,-1.39128
496,42.3099,0.211296,-1.39296
496.5,42.3584,0.208336,-1.39645
497,42.4081,0.210456,-1.39926
497.5,42.4585,0.203234,-1.39959
498,42.5082,0.202017,-1.40279
498.5,42.5582,0.196017,-1.40604
499,42.6082,0.193368,-1.40876
499.5,42.657,0.194117,-1.41214
500,42.7071,0.187875,-1.41407
500.5,42.7566,0.183039,-1.4165
501,42.8057,0.194629,-1.41928
501.5,42.8553,0.185201,-1.42263
502,42.9052,0.183413,-1.42407
502.5,42.9554,0.17759,-1.42719
503,43.005,0.17528,-1.43094
503.5,43.0546,0.173675,-1.43432
504,43.1034,0.170838,-1.4372
504.5,43.1535,0.171699,-1.44087
505,43.2039,0.165423,-1.44474
505.5,43.2536,0.169466,-1.44561
506,43.2997,0.173434,-1.44748
506.5,43.3525,0.172106,-1.44997
507,43.4018,0.176653,-1.45276
507.5,43.4493,0.175925,-1.45454
508,43.5011,0.166938,-1.45788
508.5,43.5505,0.165309,-1.46095
509,43.6002,0.166273,-1.46411
509.5,43.65,0.156982,-1.46703
510,43.6999,0.151953,-1.46936
510.5,43.7495,0.149722,-1.47329
511,43.7995,0.152568,-1.47507
511.5,43.8488,0.151468,-1.47751
512,43.8995,0.14863,-1.47991
512.5,43.949,0.146607,-1.48362
513,43.9984,0.142665,-1.48638
513.5,44.0472,0.145386,-1.48879
514,44.0987,0.138893,-1.48985
514.5,44.147,0.137529,-1.49354
515,44.1963,0.132291,-1.4972
515.5,44.2468,0.127815,-1.49892
516,44.2965,0.130804,-1.5011
516.5,44.3467,0.124954,-1.50403
517,44.3965,0.118119,-1.50649
517.5,44.4463,0.115471,-1.50865
518,44.4957,0.115639,-1.5118
518.5,44.5451,0.108443,-1.51531
519,44.5961,0.116086,-1.51885
519.5,44.6447,0.120335,-1.52191
520,44.6954,0.117239,-1.52544
520.5,44.7452,0.108578,-1.52915
521,44.7916,0.113199,-1.53061
521.5,44.8437,0.106102,-1.53299
522,44.8939,0.0959089,-1.53628
522.5,44.9426,0.082619,-1.53873
523,44.993,0.067858,-1.54122
523.5,45.0419,0.0512872,-1.54456
524,45.0917,0.0277679,-1.54681
524.5,45.1388,0.00167969,-1.54936
525,45.1911,-0.0340664,-1.55277
525.5,45.2397,-0.0574064,-1.55762
526,45.2901,-0.0527718,-1.56103
526.5,45.3397,-0.044103,-1.56371
527,45.3892,-0.031326,-1.56719
527.5,45.4391,-0.0115589,-1.57079
528,45.4887,0.0150118,-1.57266
528.5,45.5396,0.0429653,-1.57612
529,45.5893,0.0720371,-1.57927
529.5,45.6385,0.103572,-1.58348
530,45.6904,0.135622,-1.5869
530.5,45.7392,0.159089,-1.59034
531,45.788,0.186039,-1.5938
531.5,45.8371,0.224142,-1.59665
532,45.8902,0.237558,-1.5992
532.5,45.9394,0.260488,-1.60286
533,45.9893,0.279633,-1.60635
533.5,46.0403,0.298108,-1.60967
534,46.09,0.319843,-1.6124
534.5,46.1397,0.328913,-1.6173
535,46.1895,0.354818,-1.62139
535.5,46.2398,0.360538,-1.62706
536,46.2898,0.370198,-1.62962
536.5,46.3397,0.384662,-1.6334
537,46.3898,0.397438,-1.63669
537.5,46.4401,0.414834,-1.64046
538,46.49,0.422713,-1.64386
538.5,46.5396,0.429766,-1.64803
539,46.5889,0.4432,-1.6508
539.5,46.6395,0.452307,-1.655
540,46.6896,0.460349,-1.66062
540.5,46.7393,0.470085,-1.66412
541,46.7888,0.476946,-1.6676
541.5,46.8397,0.485399,-1.67246
542,46.8891,0.491164,-1.67563
542.5,46.9391,0.502764,-1.68191
543,46.9896,0.51174,-1.68616
543.5,47.0394,0.517622,-1.69158
544,47.089,0.51737,-1.69681
544.5,47.1383,0.521957,-1.69974
545,47.1882,0.526254,-1.70463
545.5,47.2381,0.534943,-1.70755
546,47.2881,0.54575,-1.71081
546.5,47.3383,0.539451,-1.71551
547,47.3874,0.538312,-1.71961
547.5,47.4379,0.531161,-1.72557
548,47.4878,0.534003,-1.72977
548.5,47.5374,0.534947,-1.73581
549,47.5866,0.526671,-1.7427
549.5,47.6359,0.522646,-1.74676
550,47.6868,0.526272,-1.75214
550.5,47.736,0.516779,-1.75695
551,47.7866,0.519209,-1.76299
551.5,47.8362,0.504455,-1.7675
552,47.8861,0.510216,-1.77322
552.5,47.936,0.507866,-1.77798
553,47.9854,0.493803,-1.78249
553.5,48.0351,0.492686,-1.78715
554,48.0847,0.485283,-1.7933
554.5,48.136,0.485696,-1.7986
555,48.1845,0.481695,-1.80555
555.5,48.2345,0.48389,-1.81015
556,48.2844,0.473853,-1.81586
556.5,48.3353,0.465957,-1.82259
557,48.3842,0.468521,-1.82725
557.5,48.4348,0.459017,-1.83152
558,48.4849,0.456509,-1.837
558.5,48.5341,0.444764,-1.84224
559,48.5851,0.443766,-1.84818
559.5,48.6328,0.438341,-1.85375
560,48.684,0.429121,-1.85976
560.5,48.7339,0.421911,-1.86443
561,48.7839,0.41939,-1.87063
561.5,48.834,0.419038,-1.87628
562,48.8842,0.408132,-1.88036
562.5,48.9343,0.396854,-1.88645
563,48.9832,0.398022,-1.89246
563.5,49.0337,0.382528,-1.89892
564,49.0841,0.372586,-1.90391
564.5,49.1338,0.36008,-1.90911
565,49.1831,0.351052,-1.91444
565.5,49.2333,0.345114,-1.92124
566,49.2836,0.329105,-1.92619
566.5,49.3331,0.31701,-1.93111
567,49.3829,0.30882,-1.93721
567.5,49.4313,0.287023,-1.94225
568,49.4833,0.271239,-1.94726
568.5,49.5316,0.245148,-1.95178
569,49.5825,0.225813,-1.95882
569.5,49.6331,0.203266,-1.96416
570,49.682,0.182949,-1.97003
570.5,49.7316,0.151731,-1.97536
571,49.7795,0.128336,-1.98054
571.5,49.8321,0.108228,-1.98514
572,49.8818,0.0684592,-1.98997
572.5,49.9311,0.0390823,-1.99477
573,49.9817,-0.00336631,-1.99943
573.5,50.031,-0.0372113,-2.00628
574,50.0807,-0.0754336,-2.01155
574.5,50.1302,-0.106824,-2.01388
575,50.1797,-0.154842,-2.01724
575.5,50.2296,-0.197678,-2.02217
576,50.2792,-0.233726,-2.02674
576.5,50.3287,-0.277743,-2.03022
577,50.3787,-0.314629,-2.03382
577.5,50.4287,-0.35584,-2.03767
578,50.4789,-0.387193,-2.04032
578.5,50.5279,-0.42426,-2.04358
579,50.5776,-0.452256,-2.04736
579.5,50.6274,-0.475917,-2.05034
580,50.6774,-0.496733,-2.05163
580.5,50.7271,-0.508077,-2.0531
581,50.7778,-0.527195,-2.05573
581.5,50.8283,-0.525914,-2.0561
582,50.8782,-0.519248,-2.05709
582.5,50.9285,-0.513861,-2.06031
583,50.979,-0.504655,-2.06491
583.5,51.0296,-0.49338,-2.06682
584,51.0797,-0.466775,-2.06687
584.5,51.1307,-0.442887,-2.06951
585,51.1806,-0.408941,-2.07107
585.5,51.2308,-0.385656,-2.07394
586,51.2827,-0.357572,-2.07462
586.5,51.3319,-0.33419,-2.07538
587,51.3824,-0.311309,-2.07722
587.5,51.4341,-0.29518,-2.07791
588,51.484,-0.275288,-2.07787
588.5,51.5335,-0.260282,-2.07951
589,51.5846,-0.245372,-2.0799
589.5,51.634,-0.221518,-2.08174
590,51.6857,-0.21159,-2.08287
590.5,51.736,-0.201199,-2.08315
591,51.7855,-0.189727,-2.0831
591.5,51.8363,-0.178186,-2.08446
592,51.8863,-0.161519,-2.08579
592.5,51.9369,-0.148671,-2.08447
593,51.986,-0.141798,-2.08577
593.5,52.0372,-0.117544,-2.0858
594,52.0881,-0.104829,-2.0871
594.5,52.1386,-0.0895747,-2.0871
595,52.1891,-0.0754865,-2.08677
595.5,52.2394,-0.0692976,-2.08844
596,52.2901,-0.0569291,-2.08716
596.5,52.3397,-0.0513047,-2.08841
597,52.3903,-0.0407222,-2.0885
597.5,52.441,-0.0328177,-2.08973
598,52.4913,-0.0241999,-2.09237
598.5,52.5413,-0.0238385,-2.09377
599,52.5916,-0.00758007,-2.09379
599.5,52.6419,-0.00290017,-2.09379
600,52.6922,0.0105734,-2.09379
600.5,52.7426,0.0147062,-2.09394
601,52.7932,0.0221879,-2.09511
601.5,52.8441,0.0248691,-2.09537
602,52.8947,0.025973,-2.09642
602.5,52.9443,0.032368,-2.09772
603,52.9947,0.0382206,-2.09774
603.5,53.0453,0.04727,-2.09909
604,53.0959,0.0498763,-2.09919
604.5,53.1457,0.0549811,-2.1016
605,53.1967,0.0645472,-2.10173
605.5,53.2468,0.0672047,-2.103
606,53.2982,0.0677738,-2.10301
606.5,53.3466,0.0689543,-2.10436
607,53.3983,0.069338,-2.10469
607.5,53.4487,0.0751903,-2.10664
608,53.4986,0.0843634,-2.10664
608.5,53.5486,0.0865421,-2.10664
609,53.599,0.0793803,-2.10664
609.5,53.6497,0.0865139,-2.10695
610,53.6997,0.0874019,-2.10698
610.5,53.7476,0.0984396,-2.10705
611,53.798,0.0961618,-2.10831
611.5,53.8517,0.103801,-2.1096
612,53.9022,0.108885,-2.11103
612.5,53.9518,0.111086,-2.11091
613,54.0023,0.111948,-2.11092
613.5,54.0532,0.118616,-2.11222
614,54.1036,0.123934,-2.11356
614.5,54.1535,0.120438,-2.11355
615,54.2043,0.130097,-2.11251
615.5,54.2546,0.126156,-2.11359
616,54.3052,0.13727,-2.11617
616.5,54.3546,0.133547,-2.11611
617,54.4053,0.135271,-2.1172
617.5,54.456,0.133169,-2.11791
618,54.5056,0.140125,-2.1196
618.5,54.5564,0.143304,-2.12015
619,54.6063,0.136537,-2.12155
619.5,54.657,0.148697,-2.12028
620,54.7087,0.152625,-2.12157
620.5,54.7581,0.154769,-2.12289
621,54.809,0.152975,-2.1229
621.5,54.8593,0.161553,-2.12224
622,54.9105,0.165802,-2.12362
622.5,54.9609,0.175559,-2.12288
623,55.0112,0.169266,-2.12283
623.5,55.0605,0.176954,-2.1242
624,55.1121,0.17727,-2.12538
624.5,55.1619,0.17656,-2.12622
625,55.2128,0.185636,-2.12807
625.5,55.263,0.187962,-2.12816
626,55.3132,0.189211,-2.12948
626.5,55.3634,0.193855,-2.12988
627,55.4141,0.196633,-2.13078
627.5,55.4648,0.206274,-2.13212
628,55.5151,0.213508,-2.13205
628.5,55.565,0.216146,-2.13211
629,55.6155,0.220672,-2.13226
629.5,55.6664,0.251985,-2.13463
630,55.7175,0.264292,-2.1338
630.5,55.7677,0.244629,-2.13485
631,55.8183,0.229185,-2.13615
631.5,55.8677,0.222304,-2.13617
632,55.9195,0.228375,-2.13617
632.5,55.9689,0.224838,-2.13744
633,56.0201,0.225589,-2.14012
633.5,56.0695,0.228255,-2.14011
634,56.1205,0.22758,-2.1395
634.5,56.1718,0.229022,-2.13913
635,56.2223,0.237514,-2.14042
635.5,56.2721,0.240999,-2.14177
636,56.3239,0.240109,-2.14169
636.5,56.374,0.236056,-2.14308
637,56.4246,0.244731,-2.14441
637.5,56.4751,0.255901,-2.14547
638,56.5263,0.254644,-2.14539
638.5,56.5766,0.258979,-2.14573
639,56.628,0.261496,-2.14575
639.5,56.6777,0.257244,-2.14572
640,56.728,0.263651,-2.14703
640.5,56.7795,0.262388,-2.14714
641,56.8294,0.266744,-2.14704
641.5,56.8801,0.274585,-2.14704
642,56.9309,0.277343,-2.14704
642.5,56.982,0.277703,-2.14657
643,57.0303,0.28027,-2.14704
643.5,57.0831,0.277973,-2.14835
644,57.1337,0.285867,-2.14965
644.5,57.1832,0.280332,-2.15102
645,57.2349,0.280457,-2.15236
645.5,57.2853,0.277442,-2.15496
646,57.3363,0.279906,-2.1554
646.5,57.3866,0.289152,-2.15538
647,57.4372,0.286685,-2.15538
647.5,57.4883,0.289223,-2.15559
648,57.5388,0.286935,-2.15736
648.5,57.5891,0.289335,-2.15736
649,57.6397,0.287452,-2.15736
649.5,57.6895,0.289391,-2.15736
650,57.7401,0.289567,-2.15868
650.5,57.7911,0.281423,-2.15868
651,57.8408,0.286491,-2.16046
651.5,57.8893,0.282193,-2.16166
652,57.9414,0.288992,-2.16198
652.5,57.9917,0.278242,-2.16328
653,58.0423,0.282602,-2.16329
653.5,58.0928,0.292379,-2.1645
654,58.1434,0.281305,-2.16482
654.5,58.1947,0.286696,-2.16592
655,58.2443,0.280336,-2.16592
655.5,58.2951,0.282658,-2.16592
656,58.3453,0.282274,-2.16594
656.5,58.3962,0.290068,-2.16725
657,58.4462,0.284429,-2.16855
657.5,58.4972,0.290222,-2.16855
658,58.5475,0.28863,-2.16726
658.5,58.5981,0.28924,-2.1685
659,58.648,0.295627,-2.16856
659.5,58.6982,0.291513,-2.16854
660,58.7487,0.291355,-2.16987
660.5,58.799,0.290854,-2.17119
661,58.8499,0.287416,-2.17256
661.5,58.9005,0.290573,-2.17217
662,58.9508,0.28575,-2.17249
662.5,58.9993,0.292943,-2.17251
663,59.0519,0.291493,-2.17382
663.5,59.1015,0.296028,-2.17512
664,59.1519,0.286487,-2.17605
664.5,59.2005,0.287136,-2.17646
665,59.2532,0.295626,-2.17645
665.5,59.303,0.297492,-2.17778
666,59.3532,0.292665,-2.17777
666.5,59.4019,0.29423,-2.17777
667,59.4518,0.295788,-2.17776
667.5,59.5047,0.294735,-2.18041
668,59.5551,0.289319,-2.18172
668.5,59.6056,0.285942,-2.18167
669,59.6566,0.291014,-2.18305
669.5,59.7068,0.288311,-2.18199
670,59.757,0.285326,-2.18337
670.5,59.8075,0.287801,-2.18337
671,59.858,0.283676,-2.18337
671.5,59.9081,0.28829,-2.18338
672,59.9576,0.282469,-2.18436
672.5,60.01,0.287273,-2.18568
673,60.0606,0.286629,-2.18612
673.5,60.1103,0.278635,-2.18567
674,60.1623,0.285585,-2.18785
674.5,60.2121,0.279678,-2.18976
675,60.2633,0.276361,-2.19104
675.5,60.3131,0.278186,-2.19238
676,60.3647,0.27733,-2.19155
676.5,60.4149,0.274447,-2.19239
677,60.4657,0.28138,-2.19337
677.5,60.516,0.277259,-2.1947
678,60.5669,0.275864,-2.19386
678.5,60.6177,0.274786,-2.19468
679,60.6671,0.280083,-2.19453
679.5,60.7181,0.278679,-2.19336
680,60.7689,0.278047,-2.19336
680.5,60.8195,0.270676,-2.1947
681,60.8695,0.268712,-2.19468
681.5,60.9208,0.261135,-2.19468
682,60.9709,0.265192,-2.19603
682.5,61.022,0.26109,-2.19604
683,61.073,0.265898,-2.19731
683.5,61.1239,0.272996,-2.19724
684,61.174,0.267045,-2.19866
684.5,61.2249,0.267545,-2.19995
685,61.275,0.264187,-2.19995
685.5,61.3255,0.266466,-2.20125
686,61.3765,0.267571,-2.20261
686.5,61.4276,0.266052,-2.20155
687,61.4783,0.263959,-2.20187
687.5,61.5279,0.262714,-2.20256
688,61.5796,0.263486,-2.20391
688.5,61.6275,0.257275,-2.20391
689,61.6804,0.260603,-2.20526
689.5,61.7305,0.266069,-2.20653
690,61.7818,0.25626,-2.20786
690.5,61.8321,0.25667,-2.20786
691,61.883,0.251575,-2.20809
691.5,61.9334,0.245557,-2.20823
692,61.9844,0.244696,-2.20977
692.5,62.0356,0.242354,-2.21082
693,62.0859,0.239684,-2.2121
693.5,62.1373,0.235754,-2.21212
694,62.1875,0.238009,-2.21345
694.5,62.2393,0.242579,-2.21609
695,62.289,0.240488,-2.21566
695.5,62.3398,0.234689,-2.21612
696,62.3905,0.230343,-2.21609
696.5,62.4418,0.232136,-2.21598
697,62.4918,0.235854,-2.21543
697.5,62.5426,0.233574,-2.21477
698,62.5938,0.22858,-2.21582
698.5,62.6443,0.224578,-2.21542
699,62.6937,0.222659,-2.21599
699.5,62.7458,0.222781,-2.21649
700,62.7946,0.223502,-2.21741
700.5,62.8475,0.22266,-2.21825
701,62.8979,0.217229,-2.21773
701.5,62.948,0.216496,-2.21773
702,62.9999,0.220492,-2.21779
702.5,63.0497,0.215936,-2.21935
703,63.1025,0.211541,-2.22158
703.5,63.1521,0.206828,-2.22039
704,63.2031,0.201092,-2.22137
704.5,63.2539,0.205893,-2.22169
705,63.3048,0.195981,-2.22169
705.5,63.3566,0.199719,-2.22169
706,63.4071,0.192166,-2.22307
706.5,63.4582,0.193701,-2.22444
707,63.5093,0.187513,-2.22443
707.5,63.5589,0.186769,-2.22575
708,63.6108,0.195827,-2.22575
708.5,63.6605,0.186785,-2.22576
709,63.7116,0.181293,-2.22576
709.5,63.7628,0.178557,-2.22697
710,63.8122,0.179566,-2.2284
710.5,63.8624,0.172817,-2.2297
711,63.9143,0.17046,-2.22976
711.5,63.965,0.173784,-2.2297
712,64.016,0.169552,-2.23103
712.5,64.0667,0.167935,-2.2297
713,64.1154,0.168856,-2.22982
713.5,64.1686,0.167686,-2.23102
714,64.2197,0.16037,-2.2297
714.5,64.267,0.155245,-2.2297
715,64.32,0.153565,-2.23019
715.5,64.3714,0.152122,-2.23196
716,64.4227,0.154849,-2.23333
716.5,64.4719,0.153366,-2.23405
717,64.523,0.14496,-2.23399
717.5,64.5734,0.151241,-2.23399
718,64.6244,0.141722,-2.23399
718.5,64.6761,0.140014,-2.23503
719,64.7265,0.132633,-2.23634
719.5,64.7756,0.135254,-2.23833
720,64.8281,0.126977,-2.23893
720.5,64.8791,0.12669,-2.24003
721,64.9303,0.121673,-2.24023
721.5,64.9812,0.110768,-2.24024
722,65.0323,0.107384,-2.24157
722.5,65.0823,0.107664,-2.24156
723,65.1343,0.0979104,-2.24303
723.5,65.1853,0.102057,-2.24289
724,65.2356,0.100148,-2.24288
724.5,65.2857,0.107645,-2.24288
725,65.3366,0.102396,-2.24403
725.5,65.3879,0.0958769,-2.24419
726,65.4393,0.108472,-2.24544
726.5,65.4899,0.0972461,-2.24724
727,65.5395,0.0824643,-2.24815
727.5,65.5911,0.0933352,-2.24815
728,65.6413,0.0921484,-2.24815
728.5,65.6925,0.0883183,-2.24815
729,65.7436,0.0812426,-2.24817
729.5,65.7937,0.0860686,-2.24867
730,65.8437,0.0847115,-2.24863
730.5,65.8928,0.0778357,-2.24803
731,65.9454,0.0815333,-2.25089
731.5,65.9963,0.0712509,-2.25243
732,66.0471,0.0711706,-2.2534
732.5,66.0979,0.0783653,-2.25242
733,66.1488,0.0707127,-2.25148
733.5,66.1997,0.0665001,-2.25111
734,66.2503,0.0548858,-2.25111
734.5,66.3003,0.0569679,-2.25243
735,66.3512,0.0538483,-2.2543
735.5,66.4025,0.0562546,-2.25506
736,66.4528,0.0495573,-2.25638
736.5,66.5035,0.0489542,-2.25638
737,66.5541,0.0415879,-2.25638
737.5,66.6058,0.0405738,-2.25638
738,66.6564,0.0410498,-2.25773
738.5,66.707,0.0295981,-2.25769
739,66.7582,0.0460688,-2.25769
739.5,66.8093,0.0390704,-2.25902
740,66.8595,0.0287987,-2.25901
740.5,66.9113,0.0275451,-2.25901
741,66.9613,0.0294906,-2.26034
741.5,67.0129,0.0227042,-2.25903
742,67.0626,0.0192903,-2.25898
742.5,67.114,0.0226439,-2.26034
743,67.1657,0.0178767,-2.25936
743.5,67.2165,0.0184195,-2.25934
744,67.2672,0.0150357,-2.26066
744.5,67.3191,0.00861002,-2.26066
745,67.3679,0.0060539,-2.26197
745.5,67.4199,0.0102797,-2.26329
746,67.4706,0.00132285,-2.26461
746.5,67.5219,-0.0040857,-2.26593
747,67.5731,-0.00620917,-2.26593
747.5,67.623,-0.00176135,-2.26431
748,67.6748,-0.00730385,-2.26299
748.5,67.7257,-0.0148183,-2.2643
749,67.7765,-0.0139579,-2.26561
749.5,67.8278,-0.0195945,-2.26825
750,67.8791,-0.0206131,-2.26824
750.5,67.9281,-0.0209204,-2.26824
751,67.9805,-0.021622,-2.26957
751.5,68.0305,-0.0250114,-2.26956
752,68.083,-0.0252014,-2.26959
752.5,68.1339,-0.0276798,-2.27087
753,68.1849,-0.0311907,-2.26954
753.5,68.2354,-0.0255843,-2.27087
754,68.2862,-0.0246617,-2.27087
754.5,68.3376,-0.0378479,-2.26949
755,68.3887,-0.0277467,-2.26955
755.5,68.4394,-0.0388778,-2.27225
756,68.4905,-0.0360173,-2.27224
756.5,68.5421,-0.0368383,-2.27351
757,68.5924,-0.0369157,-2.27351
757.5,68.6438,-0.0390695,-2.27351
758,68.6944,-0.0478759,-2.27221
758.5,68.7448,-0.0405188,-2.27351
759,68.7963,-0.0473531,-2.27534
759.5,68.8469,-0.0524431,-2.2768
760,68.8975,-0.0476144,-2.27532
760.5,68.9468,-0.0587364,-2.27625
761,68.9992,-0.0545116,-2.2768
761.5,69.05,-0.0509375,-2.27684
762,69.1013,-0.0530634,-2.27811
762.5,69.1523,-0.0631125,-2.27811
763,69.2027,-0.0631053,-2.27801
763.5,69.2543,-0.0654855,-2.27789
764,69.3052,-0.0654841,-2.27812
764.5,69.3558,-0.0733106,-2.27918
765,69.4073,-0.0717711,-2.27944
765.5,69.4581,-0.0715312,-2.27944
766,69.5087,-0.0753579,-2.27974
766.5,69.5594,-0.0723958,-2.28198
767,69.6112,-0.0817031,-2.28338
767.5,69.6618,-0.0797648,-2.28339
768,69.7126,-0.0753718,-2.28437
768.5,69.7644,-0.0804002,-2.28437
769,69.815,-0.0808867,-2.28437
769.5,69.8669,-0.0804892,-2.28437
770,69.9165,-0.0776841,-2.28298
770.5,69.9685,-0.0853433,-2.28339
771,70.0191,-0.0753646,-2.28471
771.5,70.0701,-0.0747721,-2.28471
772,70.1204,-0.0785912,-2.28471
772.5,70.1726,-0.087119,-2.28569
773,70.2236,-0.0848657,-2.28638
773.5,70.2741,-0.091287,-2.28636
774,70.3253,-0.0905188,-2.28647
774.5,70.376,-0.0955262,-2.28767
775,70.4274,-0.0883754,-2.28876
775.5,70.4786,-0.0822529,-2.28767
776,70.5288,-0.0876219,-2.2847
776.5,70.5817,-0.0873361,-2.28317
777,70.6306,-0.0829797,-2.28635
777.5,70.6831,-0.0886629,-2.28625
778,70.7334,-0.0851578,-2.28755
778.5,70.7854,-0.0889548,-2.28751
779,70.8352,-0.0993871,-2.28888
779.5,70.8872,-0.0888256,-2.28888
780,70.9389,-0.0926073,-2.28888
780.5,70.9895,-0.0926697,-2.28888
781,71.0413,-0.0882364,-2.2902
781.5,71.0926,-0.0912708,-2.29139
782,71.1437,-0.0931249,-2.29052
782.5,71.1954,-0.09408,-2.29052
783,71.2463,-0.0964831,-2.29052
783.5,71.2975,-0.0975431,-2.29052
784,71.3485,-0.0983247,-2.29052
784.5,71.4006,-0.0945552,-2.29052
785,71.4514,-0.0905806,-2.29049
785.5,71.5027,-0.0993988,-2.29181
786,71.5551,-0.0996546,-2.29447
786.5,71.6058,-0.103727,-2.29445
787,71.6578,-0.100375,-2.29514
787.5,71.709,-0.102848,-2.29513
788,71.7615,-0.102297,-2.29554
788.5,71.8128,-0.102308,-2.29612
789,71.8638,-0.107603,-2.29644
789.5,71.9149,-0.109087,-2.29778
790,71.9662,-0.104617,-2.29777