File: 01_Data/Thermoplastic_Helmet_Shell/STA/N2/30K_min/Thermoplastic_Helmet_Shell_STA_N2_30KData_250220_R1.csv
Temp./C,Time/min,DSC/(mW/mg),Mass loss/mg
35.0,0.0,0.750743,-0.00600698
35.5,0.0321957,0.787107,-0.00674594
36,0.0659152,0.804193,-0.0049869
36.5,0.0986705,0.849651,-0.00241199
37,0.129683,0.868826,-0.00154516
37.5,0.160056,0.889566,-0.0014509
38,0.190018,0.918705,-0.00212644
38.5,0.219319,0.936855,-0.00277748
39,0.248105,0.957224,-0.00339231
39.5,0.276655,0.975872,-0.00498182
40,0.304653,1.01142,-0.00603361
40.5,0.331727,1.02841,-0.00643132
41,0.359116,1.03769,-0.00675937
41.5,0.385632,1.06435,-0.00536541
42,0.411559,1.08503,-0.00359209
42.5,0.437779,1.10733,-0.0015016
43,0.462791,1.12448,-0.00107123
43.5,0.488597,1.14369,-0.0010249
44,0.513053,1.1564,-0.00115142
44.5,0.538425,1.17197,-0.000824683
45,0.56267,1.18514,-0.000925028
45.5,0.587108,1.20508,-0.000732037
46,0.611032,1.22207,-0.00176934
46.5,0.635791,1.23673,-0.000835345
47,0.658772,1.25078,0.000263608
47.5,0.682497,1.26793,0.000393778
48,0.705843,1.28229,-0.00175702
48.5,0.729108,1.28677,-0.00401569
49,0.752109,1.30369,-0.00663503
49.5,0.775453,1.31769,-0.00690423
50,0.798186,1.32534,-0.0084335
50.5,0.821373,1.33795,-0.00983502
51,0.843084,1.3396,-0.0108371
51.5,0.865386,1.34894,-0.0109732
52,0.887118,1.36721,-0.010891
52.5,0.909731,1.37835,-0.0106219
53,0.93129,1.38903,-0.0107411
53.5,0.953647,1.40145,-0.010296
54,0.974774,1.41417,-0.00832845
54.5,0.996829,1.42549,-0.00614533
55,1.01837,1.43353,-0.00502072
55.5,1.0404,1.43852,-0.00489609
56,1.06123,1.453,-0.00454083
56.5,1.08241,1.46498,-0.00309822
57,1.10352,1.47782,-0.00123561
57.5,1.12491,1.48967,0.000270387
58,1.14504,1.4995,0.00112718
58.5,1.16663,1.5073,0.00266769
59,1.18695,1.51565,0.00345573
59.5,1.20797,1.53439,0.00260149
60,1.22847,1.53994,0.00132022
60.5,1.24883,1.55331,0.00190906
61,1.26973,1.55883,0.000486698
61.5,1.29007,1.56475,-1.0908e-05
62,1.30993,1.57548,-0.00197669
62.5,1.33088,1.58075,-0.003216
63,1.35059,1.59133,-0.00240196
63.5,1.37075,1.58983,-0.00368342
64,1.39135,1.60495,-0.00308512
64.5,1.4109,1.6193,-0.00429995
65,1.43078,1.62885,-0.00398798
65.5,1.45053,1.63388,-0.00357182
66,1.47065,1.63858,-0.00383464
66.5,1.49046,1.65249,-0.00360219
67,1.5096,1.65732,-0.00280005
67.5,1.53001,1.66976,-0.00327861
68,1.54949,1.66569,-0.00385487
68.5,1.56913,1.67054,-0.00467492
69,1.58865,1.68486,-0.00635413
69.5,1.60813,1.68765,-0.00885387
70,1.62771,1.69812,-0.00927366
70.5,1.64706,1.70593,-0.00907721
71,1.66668,1.72005,-0.00679723
71.5,1.68597,1.72839,-0.00466384
72,1.70489,1.73406,-0.0060707
72.5,1.72458,1.73995,-0.00638839
73,1.7437,1.74812,-0.00615378
73.5,1.7627,1.75426,-0.00612456
74,1.7822,1.76511,-0.00693055
74.5,1.80118,1.77963,-0.00778362
75,1.82056,1.78348,-0.00773053
75.5,1.83968,1.7844,-0.00823562
76,1.85827,1.7968,-0.00849764
76.5,1.87735,1.80573,-0.00770802
77,1.89635,1.80956,-0.00759379
77.5,1.91521,1.81779,-0.00600187
78,1.93403,1.82706,-0.00705123
78.5,1.95236,1.83645,-0.00764284
79,1.97174,1.84789,-0.00760232
79.5,1.99103,1.84989,-0.00897578
80,2.00947,1.86352,-0.00888889
80.5,2.0281,1.87108,-0.0102
81,2.04689,1.87938,-0.0102438
81.5,2.06509,1.88113,-0.0107036
82,2.0839,1.89566,-0.00957068
82.5,2.10227,1.89911,-0.008913
83,2.12128,1.91441,-0.00774936
83.5,2.13975,1.9208,-0.00605255
84,2.158,1.93072,-0.00545338
84.5,2.17679,1.94944,-0.00539554
85,2.19513,1.9595,-0.00426393
85.5,2.21306,1.96915,-0.00426599
86,2.23157,1.97637,-0.00458033
86.5,2.2495,1.98478,-0.00565379
87,2.26782,1.9925,-0.00600247
87.5,2.28625,2.00441,-0.00580495
88,2.30402,2.01826,-0.00547638
88.5,2.32212,2.02754,-0.00478835
89,2.33991,2.04407,-0.00402188
89.5,2.3578,2.06053,-0.00361522
90,2.37652,2.07176,-0.00338055
90.5,2.39405,2.07704,-0.00337618
91,2.41124,2.08267,-0.00404817
91.5,2.42856,2.09352,-0.00484472
92,2.44801,2.11338,-0.00586492
92.5,2.46472,2.11543,-0.00627993
93,2.48322,2.1259,-0.00575412
93.5,2.50072,2.12927,-0.00637189
94,2.51865,2.13776,-0.00624188
94.5,2.53636,2.14256,-0.00743918
95,2.55352,2.14655,-0.006364
95.5,2.57115,2.1576,-0.00630386
96,2.58853,2.16902,-0.00447388
96.5,2.60645,2.18008,-0.00402462
97,2.62385,2.19095,-0.00407577
97.5,2.64187,2.19572,-0.00460603
98,2.65927,2.20926,-0.00458967
98.5,2.67657,2.22089,-0.00468844
99,2.69425,2.22592,-0.00438819
99.5,2.7117,2.23717,-0.00286271
100,2.72886,2.23841,-0.00235694
100.5,2.74628,2.24748,-0.00271144
101,2.76361,2.24794,-0.0028396
101.5,2.78078,2.26084,-0.00283854
102,2.79804,2.26702,-0.00282181
102.5,2.81569,2.2693,-0.00275758
103,2.83292,2.2756,-0.00154085
103.5,2.85039,2.28306,-0.00153205
104,2.86696,2.29213,-0.0015301
104.5,2.88452,2.3014,-0.00152997
105,2.9014,2.30364,-0.00153677
105.5,2.91864,2.31223,-0.0016096
106,2.93601,2.32374,-0.000424189
106.5,2.95203,2.33235,-0.000207435
107,2.97017,2.335,-0.000210492
107.5,2.98745,2.33748,-0.00022161
108,3.00453,2.34313,-0.000268582
108.5,3.0215,2.35336,-0.00148593
109,3.03866,2.36096,-0.00172294
109.5,3.05543,2.37191,-0.00285964
110,3.07326,2.37719,-0.00349565
110.5,3.08989,2.38314,-0.00419821
111,3.10694,2.39816,-0.00417455
111.5,3.12312,2.4003,-0.0041736
112,3.14005,2.40515,-0.00530015
112.5,3.15767,2.41393,-0.00546881
113,3.17489,2.41724,-0.00511849
113.5,3.19176,2.42371,-0.00411365
114,3.20892,2.43058,-0.00501974
114.5,3.22582,2.43907,-0.00545538
115,3.24267,2.45082,-0.005548
115.5,3.25953,2.45702,-0.00518654
116,3.27639,2.4716,-0.00547661
116.5,3.293,2.47616,-0.00493893
117,3.31023,2.47531,-0.00411557
117.5,3.32706,2.48085,-0.00415647
118,3.34364,2.48833,-0.00416014
118.5,3.36067,2.49589,-0.00415943
119,3.3773,2.50556,-0.0041541
119.5,3.39387,2.52215,-0.00448726
120,3.41099,2.52428,-0.00553256
120.5,3.42764,2.52802,-0.00542528
121,3.44415,2.5248,-0.00638107
121.5,3.46082,2.53267,-0.00716453
122,3.47768,2.54117,-0.00810544
122.5,3.49435,2.54441,-0.00910534
123,3.51077,2.54839,-0.0094319
123.5,3.52735,2.55412,-0.00940521
124,3.54426,2.55877,-0.00811984
124.5,3.56041,2.56385,-0.00810482
125,3.57739,2.57157,-0.00787742
125.5,3.59396,2.57894,-0.00680415
126,3.61028,2.58983,-0.00690358
126.5,3.62678,2.59377,-0.00549855
127,3.6435,2.60294,-0.00530455
127.5,3.65967,2.60952,-0.00379967
128,3.67621,2.62324,-0.0036559
128.5,3.69257,2.63009,-0.00238371
129,3.70893,2.6374,-0.00227606
129.5,3.72538,2.64317,-0.00298825
130,3.74152,2.65344,-0.00365445
130.5,3.7582,2.65893,-0.0036252
131,3.77435,2.67244,-0.0036188
131.5,3.79051,2.67586,-0.00352345
132,3.80636,2.67763,-0.00475004
132.5,3.82288,2.68431,-0.00494261
133,3.83972,2.69499,-0.00493437
133.5,3.8561,2.70317,-0.00492905
134,3.87225,2.70914,-0.00562968
134.5,3.88843,2.71526,-0.00622568
135,3.90455,2.73102,-0.00692048
135.5,3.92084,2.74148,-0.00760437
136,3.93737,2.74831,-0.00757438
136.5,3.95354,2.76125,-0.00756813
137,3.96974,2.76446,-0.00751276
137.5,3.98631,2.77217,-0.0083871
138,4.00201,2.78867,-0.00891241
138.5,4.01798,2.80635,-0.00889332
139,4.03399,2.82494,-0.00889134
139.5,4.05044,2.83167,-0.00890727
140,4.06632,2.84609,-0.00889665
140.5,4.08231,2.85808,-0.0101397
141,4.09861,2.88204,-0.0101978
141.5,4.11498,2.90455,-0.0102003
142,4.13091,2.92575,-0.0102
142.5,4.14652,2.93718,-0.00964353
143,4.16292,2.95483,-0.00878814
143.5,4.17901,2.98221,-0.00799976
144,4.19492,3.00023,-0.00743615
144.5,4.21082,3.01453,-0.00745614
145,4.22578,3.03664,-0.00745969
145.5,4.24222,3.05011,-0.00746731
146,4.25828,3.06255,-0.00674149
146.5,4.27401,3.08169,-0.00604997
147,4.29025,3.09596,-0.0073076
147.5,4.30597,3.10567,-0.00746146
148,4.32154,3.11291,-0.00745982
148.5,4.3371,3.11777,-0.00745415
149,4.3529,3.12673,-0.0074805
149.5,4.36902,3.13907,-0.0062981
150,4.38502,3.15346,-0.00657596
150.5,4.40101,3.15375,-0.00573025
151,4.4164,3.15287,-0.0047204
151.5,4.43263,3.15783,-0.00409516
152,4.44807,3.16074,-0.00268788
152.5,4.46386,3.16363,-0.00250338
153,4.47949,3.16745,-0.00291313
153.5,4.4956,3.17532,-0.00355363
154,4.51087,3.17507,-0.00351368
154.5,4.52684,3.17996,-0.00350938
155,4.54219,3.18638,-0.00350986
155.5,4.55823,3.20368,-0.00351093
156,4.57379,3.20689,-0.00347997
156.5,4.58959,3.20835,-0.00187994
157,4.60511,3.20579,-0.00232844
157.5,4.62062,3.21553,-0.00166688
158,4.63627,3.22625,-0.00127562
158.5,4.65219,3.23052,-0.00187794
159,4.66778,3.22782,-0.000916102
159.5,4.68335,3.23205,-0.00166877
160,4.69876,3.22913,-0.00172921
160.5,4.71432,3.23363,-0.00174888
161,4.7301,3.23568,-0.00121516
161.5,4.74567,3.23347,-0.000425053
162,4.76119,3.2419,-0.000431475
162.5,4.77616,3.24846,-0.000430936
163,4.79241,3.25642,-0.000432873
163.5,4.80806,3.2562,-0.000128963
164,4.82361,3.25942,0.000396541
164.5,4.83922,3.26768,-0.00048201
165,4.85479,3.27227,-0.00043239
165.5,4.8702,3.27678,-0.000429231
166,4.88581,3.28065,-0.000430018
166.5,4.90122,3.28567,-0.00043015
167,4.91653,3.28878,-0.000424988
167.5,4.93226,3.29083,-0.00109534
168,4.94775,3.29683,-0.00203672
168.5,4.96337,3.29536,-0.00321765
169,4.97884,3.29448,-0.00485204
169.5,4.99451,3.30054,-0.00675037
170,5.00976,3.30491,-0.00825466
170.5,5.02557,3.31908,-0.00803079
171,5.04056,3.32593,-0.00688098
171.5,5.05655,3.32886,-0.0052967
172,5.07167,3.33823,-0.00443559
172.5,5.08723,3.34013,-0.00310385
173,5.10247,3.33981,-0.00301282
173.5,5.11802,3.34499,-0.00296021
174,5.13372,3.35512,-0.00319406
174.5,5.1484,3.36612,-0.00429956
175,5.16424,3.36074,-0.00557697
175.5,5.17967,3.36223,-0.00686204
176,5.19442,3.37495,-0.00787546
176.5,5.21025,3.37725,-0.00779014
177,5.2261,3.38516,-0.00778857
177.5,5.24128,3.38783,-0.00778777
178,5.25637,3.39655,-0.00777581
178.5,5.27197,3.39238,-0.00666539
179,5.28711,3.39716,-0.00649754
179.5,5.3028,3.4032,-0.00625968
180,5.31776,3.4089,-0.00492908
180.5,5.33312,3.4257,-0.00507793
181,5.3489,3.41866,-0.00398013
181.5,5.36364,3.42363,-0.00360587
182,5.37937,3.41808,-0.00276822
182.5,5.39408,3.42291,-0.00222317
183,5.40975,3.43132,-0.00318943
183.5,5.42482,3.43651,-0.00362857
184,5.44002,3.45101,-0.00360595
184.5,5.45554,3.45764,-0.00357973
185,5.4708,3.4539,-0.00246783
185.5,5.48617,3.45827,-0.00229918
186,5.50078,3.46185,-0.00127322
186.5,5.51639,3.47534,-0.000988929
187,5.53148,3.47813,-0.00107111
187.5,5.54681,3.48772,0.000174221
188,5.56192,3.48608,0.000341296
188.5,5.57703,3.48856,0.000327291
189,5.59206,3.48917,0.000423899
189.5,5.60726,3.49096,-0.000863184
190,5.6225,3.49448,-0.00124302
190.5,5.63772,3.50741,-0.00297933
191,5.65297,3.51075,-0.002969
191.5,5.66793,3.5131,-0.00305494
192,5.68305,3.5181,-0.00307895
192.5,5.69825,3.52127,-0.00309617
193,5.71341,3.52108,-0.00294397
193.5,5.72836,3.53851,-0.00305966
194,5.7435,3.54234,-0.00306396
194.5,5.75873,3.54816,-0.00288375
195,5.77408,3.55423,-0.00168266
195.5,5.789,3.55375,-0.000526427
196,5.80399,3.56034,-0.000441231
196.5,5.81937,3.56166,-0.000439291
197,5.83445,3.56857,-0.000439964
197.5,5.84934,3.57645,-0.000441711
198,5.86451,3.57702,-0.000440381
198.5,5.87939,3.57953,-0.000347926
199,5.89466,3.58149,-0.00144017
199.5,5.90956,3.5871,-0.00174697
200,5.92485,3.59373,-0.00210755
200.5,5.93978,3.59885,-0.00319607
201,5.95515,3.60052,-0.00214838
201.5,5.96999,3.60058,-0.00173089
202,5.98494,3.60679,-0.00174622
202.5,5.99996,3.61734,-0.00175037
203,6.01543,3.62407,-0.00175014
203.5,6.03008,3.63155,-0.00174978
204,6.04511,3.63418,-0.00174724
204.5,6.06023,3.63185,-0.00176309
205,6.07519,3.6337,-0.00188882
205.5,6.09047,3.63882,-0.00300886
206,6.10542,3.64064,-0.0030553
206.5,6.12016,3.65038,-0.0030714
207,6.13538,3.66304,-0.00307101
207.5,6.15047,3.67793,-0.0030543
208,6.16535,3.68024,-0.00346075
208.5,6.18004,3.68739,-0.00411563
209,6.19547,3.69664,-0.00409531
209.5,6.2102,3.69591,-0.00525833
210,6.22526,3.7039,-0.00534596
210.5,6.2403,3.7041,-0.0053718
211,6.25541,3.71017,-0.00537098
211.5,6.27012,3.70526,-0.00536018
212,6.28543,3.71263,-0.00534498
212.5,6.30033,3.71607,-0.0050162
213,6.31529,3.72176,-0.00509738
213.5,6.33038,3.72694,-0.00426208
214,6.34515,3.731,-0.00372281
214.5,6.35964,3.73705,-0.00373083
215,6.37466,3.74552,-0.00373013
215.5,6.38937,3.75361,-0.00372998
216,6.40519,3.76058,-0.00373
216.5,6.42016,3.76566,-0.00373001
217,6.43543,3.77758,-0.00373002
217.5,6.44978,3.78389,-0.00372962
218,6.46521,3.78241,-0.00372932
218.5,6.47975,3.78543,-0.00374805
219,6.49516,3.7928,-0.00335265
219.5,6.50967,3.79143,-0.00268404
220,6.52466,3.8008,-0.00272617
220.5,6.53965,3.7986,-0.00166495
221,6.55463,3.80764,-0.00143928
221.5,6.5698,3.81762,-0.00141772
222,6.58454,3.83183,-0.00142232
222.5,6.5997,3.83898,-0.00227801
223,6.61448,3.84602,-0.00264328
223.5,6.62924,3.85109,-0.00146541
224,6.64433,3.8576,-0.0014212
224.5,6.65937,3.86733,-0.00141943
225,6.67427,3.876,-0.00141998
225.5,6.68896,3.88455,-0.00141994
226,6.70408,3.88794,-0.00142005
226.5,6.71909,3.90036,-0.00142333
227,6.73395,3.91406,-0.00141637
227.5,6.7486,3.92288,-0.00120884
228,6.76388,3.93423,-0.000119073
228.5,6.77839,3.94026,-0.000115062
229,6.79371,3.94763,-9.9582e-05
229.5,6.80857,3.96668,-9.20717e-05
230,6.82339,3.97541,-0.000645619
230.5,6.83824,3.98249,-0.00315938
231,6.85315,3.99918,-0.00296575
231.5,6.86842,4.00496,-0.00329772
232,6.88319,4.01042,-0.00427335
232.5,6.89812,4.0277,-0.0042781
233,6.9131,4.05592,-0.00428021
233.5,6.92796,4.07103,-0.00428129
234,6.94285,4.09082,-0.00427504
234.5,6.95738,4.11963,-0.00422176
235,6.97212,4.13238,-0.00503993
235.5,6.98741,4.14952,-0.00559774
236,7.00252,4.17277,-0.0055891
236.5,7.01783,4.19752,-0.00558917
237,7.03279,4.23417,-0.0055927
237.5,7.04755,4.2578,-0.00562321
238,7.06255,4.28201,-0.00508299
238.5,7.07783,4.32704,-0.00422216
239,7.0925,4.35705,-0.00428845
239.5,7.10743,4.39833,-0.00431593
240,7.12271,4.43102,-0.00376508
240.5,7.13664,4.45796,-0.00292787
241,7.15264,4.50973,-0.00296382
241.5,7.16751,4.55228,-0.00296088
242,7.18208,4.59949,-0.0029599
242.5,7.19754,4.64912,-0.00295996
243,7.21232,4.69878,-0.00296015
243.5,7.22739,4.75845,-0.00296147
244,7.24235,4.80711,-0.00295231
244.5,7.25742,4.85239,-0.00287188
245,7.27228,4.90168,-0.0026151
245.5,7.28724,4.93832,-0.00262744
246,7.30179,4.95283,-0.00263226
246.5,7.31665,4.96762,-0.00264013
247,7.33223,4.97331,-0.00254958
247.5,7.34684,4.95673,-0.00378584
248,7.36147,4.92994,-0.00395291
248.5,7.37612,4.89332,-0.00394735
249,7.39087,4.83569,-0.00406965
249.5,7.4053,4.77424,-0.00530006
250,7.42032,4.70055,-0.00523901
250.5,7.43471,4.63341,-0.0052628
251,7.4491,4.55844,-0.00533573
251.5,7.46403,4.48865,-0.00614049
252,7.47847,4.41512,-0.00518632
252.5,7.49294,4.35517,-0.00527077
253,7.50748,4.29163,-0.00526358
253.5,7.52228,4.2432,-0.00524852
254,7.53701,4.19922,-0.005149
254.5,7.5515,4.15503,-0.00407177
255,7.56594,4.11421,-0.00394879
255.5,7.5805,4.08901,-0.00393508
256,7.59566,4.04777,-0.00393735
256.5,7.61014,4.02361,-0.00305836
257,7.62509,3.99827,-0.00262089
257.5,7.63941,3.96469,-0.00264064
258,7.65412,3.94604,-0.00260212
258.5,7.66907,3.93386,-0.00381133
259,7.68388,3.91055,-0.00455747
259.5,7.6984,3.89067,-0.00457907
260,7.71302,3.87385,-0.00461009
260.5,7.72804,3.86106,-0.00477006
261,7.74267,3.85387,-0.00585116
261.5,7.75742,3.84428,-0.00590724
262,7.77223,3.83565,-0.0059216
262.5,7.78699,3.8288,-0.00592025
263,7.80182,3.81872,-0.00591996
263.5,7.81631,3.81176,-0.00591995
264,7.83108,3.81016,-0.00592038
264.5,7.84598,3.80857,-0.00592155
265,7.86053,3.80557,-0.0058171
265.5,7.87544,3.80474,-0.00455508
266,7.89033,3.80186,-0.00463257
266.5,7.90512,3.80752,-0.00461119
267,7.9195,3.80352,-0.00459653
267.5,7.9343,3.79893,-0.00459592
268,7.94911,3.79972,-0.00354555
268.5,7.9643,3.79336,-0.00328853
269,7.97856,3.79056,-0.00307715
269.5,7.99351,3.78599,-0.0019985
270,8.00827,3.7828,-0.00180535
270.5,8.02303,3.77583,-0.000703101
271,8.03795,3.77366,-0.000664627
271.5,8.05267,3.76796,-0.000650336
272,8.06712,3.77362,-0.000663334
272.5,8.08222,3.7662,-0.000571606
273,8.09671,3.76218,-0.00179985
273.5,8.11164,3.76353,-0.00197334
274,8.12621,3.76403,-0.00197033
274.5,8.14107,3.761,-0.00196992
275,8.15599,3.75672,-0.00196999
275.5,8.17066,3.75802,-0.00197
276,8.18541,3.7583,-0.00196999
276.5,8.20013,3.75672,-0.00197028
277,8.21494,3.75904,-0.00197031
277.5,8.22972,3.76082,-0.0019564
278,8.24451,3.75679,-0.00196729
278.5,8.25924,3.75621,-0.000924944
279,8.27427,3.75613,-0.000648647
279.5,8.28885,3.75145,-0.000633507
280,8.30352,3.75122,-0.000673665
280.5,8.31846,3.75378,0.000334416
281,8.33313,3.74845,0.000682861
281.5,8.34791,3.74401,0.000676516
282,8.36259,3.74581,0.000659215
282.5,8.37748,3.74602,0.000531743
283,8.39218,3.75007,-0.000550678
283.5,8.40715,3.74956,-0.000586941
284,8.42205,3.75072,-0.00147632
284.5,8.43644,3.75136,-0.00215343
285,8.45127,3.73996,-0.00293021
285.5,8.46603,3.73652,-0.00372656
286,8.48088,3.73813,-0.0049636
286.5,8.49615,3.73986,-0.0053313
287,8.51051,3.74307,-0.00431757
287.5,8.52549,3.73779,-0.00406861
288,8.54023,3.73449,-0.00404477
288.5,8.55502,3.73057,-0.0040497
289,8.56974,3.72353,-0.00405037
289.5,8.58451,3.7218,-0.00405005
290,8.59939,3.7257,-0.00403847
290.5,8.61405,3.71164,-0.00406027
291,8.62827,3.71933,-0.00307617
291.5,8.64315,3.71863,-0.00271838
292,8.65802,3.71442,-0.00277733
292.5,8.67326,3.71234,-0.00401408
293,8.68796,3.72466,-0.00402423
293.5,8.70298,3.70951,-0.00405094
294,8.71796,3.71268,-0.00404942
294.5,8.73225,3.71107,-0.00425279
295,8.74724,3.71293,-0.00556965
295.5,8.76212,3.7086,-0.00555579
296,8.77677,3.70115,-0.00441779
296.5,8.79169,3.70503,-0.00446503
297,8.80677,3.71212,-0.00536578
297.5,8.82162,3.69981,-0.00584556
298,8.83622,3.69587,-0.00582311
298.5,8.85104,3.69648,-0.00581935
299,8.86585,3.69392,-0.00581953
299.5,8.88054,3.68965,-0.00582419
300,8.89532,3.68194,-0.0058354
300.5,8.91018,3.68565,-0.00545503
301,8.92513,3.68422,-0.00486453
301.5,8.93987,3.68374,-0.00591588
302,8.95463,3.68356,-0.00582446
302.5,8.96947,3.67124,-0.00529188
303,8.98451,3.6653,-0.00448845
303.5,8.99922,3.67263,-0.00449893
304,9.0139,3.67525,-0.00448342
304.5,9.02864,3.66627,-0.00405347
305,9.04347,3.66308,-0.00317185
305.5,9.05833,3.663,-0.00321611
306,9.07311,3.66022,-0.0025744
306.5,9.08819,3.65651,-0.00180559
307,9.10287,3.64607,-0.00186345
307.5,9.11777,3.63925,-0.00186091
308,9.13252,3.63991,-0.00185993
308.5,9.14723,3.64447,-0.00185998
309,9.1622,3.64333,-0.00186
309.5,9.1769,3.63743,-0.00186
310,9.19189,3.6331,-0.00185999
310.5,9.20658,3.6307,-0.00185991
311,9.22142,3.62232,-0.00186051
311.5,9.2364,3.63097,-0.00186392
312,9.25087,3.63281,-0.00183248
312.5,9.26593,3.62409,-0.00167636
313,9.28022,3.61537,-0.000809583
313.5,9.29558,3.60556,-0.00086437
314,9.31033,3.60115,-0.00087255
314.5,9.32552,3.59489,-0.000872331
315,9.33997,3.58715,-0.00082593
315.5,9.35484,3.58314,-0.00164272
316,9.36965,3.58143,-0.00234768
316.5,9.38463,3.56748,-0.00269456
317,9.39952,3.56935,-0.0046783
317.5,9.41412,3.56859,-0.00505527
318,9.42916,3.56724,-0.00576935
318.5,9.44337,3.55601,-0.00602851
319,9.4588,3.54954,-0.00603358
319.5,9.47363,3.54819,-0.00603018
320,9.48846,3.54126,-0.00604283
320.5,9.50324,3.53921,-0.0057047
321,9.51805,3.53272,-0.00430622
321.5,9.53303,3.52122,-0.00339981
322,9.54767,3.51704,-0.00339377
322.5,9.56255,3.50902,-0.00338972
323,9.57759,3.50253,-0.0033899
323.5,9.59212,3.49578,-0.00339014
324,9.60701,3.49369,-0.00339131
324.5,9.62198,3.47772,-0.0033825
325,9.63665,3.47784,-0.00332901
325.5,9.65175,3.46499,-0.00417802
326,9.66598,3.46148,-0.00365108
326.5,9.68074,3.45593,-0.00340961
327,9.6963,3.44283,-0.0046365
327.5,9.71117,3.43828,-0.00485765
328,9.72593,3.43212,-0.00493672
328.5,9.74032,3.42664,-0.0061323
329,9.7557,3.41419,-0.00618751
329.5,9.77049,3.40536,-0.0074131
330,9.78509,3.39611,-0.00808321
330.5,9.80042,3.39796,-0.00932748
331,9.81496,3.38872,-0.0107131
331.5,9.82983,3.36506,-0.0112624
332,9.84467,3.36972,-0.0127473
332.5,9.85983,3.36101,-0.0126019
333,9.87454,3.34538,-0.0137297
333.5,9.88933,3.33055,-0.014058
334,9.90457,3.32883,-0.0140504
334.5,9.91929,3.31947,-0.0140006
335,9.93421,3.30902,-0.0146926
335.5,9.94904,3.29742,-0.0154186
336,9.96369,3.28535,-0.0153682
336.5,9.97871,3.27515,-0.015369
337,9.99362,3.26535,-0.0153701
337.5,10.0085,3.26638,-0.0153704
338,10.0233,3.25412,-0.0151372
338.5,10.0383,3.23958,-0.0137045
339,10.053,3.22898,-0.0138408
339.5,10.068,3.20992,-0.0137275
340,10.083,3.20286,-0.012839
340.5,10.0977,3.18647,-0.012857
341,10.1124,3.17981,-0.0128269
341.5,10.1277,3.16668,-0.0126673
342,10.1425,3.1478,-0.0118747
342.5,10.1576,3.13732,-0.0118544
343,10.1724,3.13611,-0.0118496
343.5,10.1873,3.12547,-0.0118455
344,10.202,3.10866,-0.0118479
344.5,10.2171,3.0979,-0.0121682
345,10.2322,3.07868,-0.0130226
345.5,10.2468,3.06974,-0.0142473
346,10.2617,3.06717,-0.0141458
346.5,10.2766,3.05359,-0.014508
347,10.2915,3.03296,-0.0144929
347.5,10.3066,3.03129,-0.0145648
348,10.3218,3.01591,-0.0157678
348.5,10.3366,3.00566,-0.0158739
349,10.3512,2.99234,-0.0162998
349.5,10.3661,2.97777,-0.0173818
350,10.3812,2.96151,-0.017279
350.5,10.396,2.95123,-0.0181389
351,10.4113,2.94361,-0.0187501
351.5,10.426,2.92954,-0.0196943
352,10.4409,2.91219,-0.020463
352.5,10.4561,2.89296,-0.0204249
353,10.471,2.88151,-0.0214308
353.5,10.4858,2.87159,-0.0216934
354,10.5006,2.86084,-0.0220436
354.5,10.5156,2.85437,-0.0232964
355,10.5306,2.84153,-0.0245319
355.5,10.5448,2.82285,-0.0250495
356,10.5606,2.8092,-0.0268209
356.5,10.5756,2.79441,-0.0278902
357,10.5906,2.77727,-0.0288116
357.5,10.6054,2.77095,-0.0291699
358,10.6202,2.75559,-0.0301549
358.5,10.6351,2.7375,-0.0300495
359,10.6503,2.74178,-0.0300343
359.5,10.6654,2.74344,-0.0295726
360,10.6802,2.72434,-0.03027
360.5,10.6951,2.71576,-0.0302356
361,10.71,2.70224,-0.031631
361.5,10.7249,2.68067,-0.0317125
362,10.7402,2.66866,-0.0322611
362.5,10.7552,2.66074,-0.0330289
363,10.77,2.65081,-0.0336197
363.5,10.785,2.63346,-0.0345688
364,10.8003,2.6209,-0.0357823
364.5,10.815,2.61564,-0.0352472
365,10.83,2.60697,-0.0364597
365.5,10.8451,2.59953,-0.036815
366,10.8601,2.58453,-0.0384597
366.5,10.8752,2.57509,-0.0397299
367,10.89,2.56663,-0.0413617
367.5,10.9048,2.55867,-0.0429577
368,10.9203,2.55221,-0.0444027
368.5,10.9353,2.54378,-0.0457435
369,10.9502,2.53743,-0.0471842
369.5,10.9653,2.5226,-0.0488202
370,10.9803,2.50633,-0.0499866
370.5,10.9951,2.49986,-0.0503162
371,11.0103,2.49847,-0.0518455
371.5,11.0254,2.49546,-0.0519006
372,11.0405,2.487,-0.0525018
372.5,11.0553,2.49035,-0.0532412
373,11.0703,2.48333,-0.0533224
373.5,11.0856,2.48692,-0.0547216
374,11.1006,2.47909,-0.0547018
374.5,11.1157,2.47096,-0.0562453
375,11.131,2.46495,-0.0568763
375.5,11.1457,2.47103,-0.0579124
376,11.1609,2.46275,-0.0593586
376.5,11.1762,2.46258,-0.0597071
377,11.191,2.46555,-0.0609941
377.5,11.2062,2.46054,-0.0627486
378,11.2212,2.47069,-0.0641848
378.5,11.2362,2.47036,-0.065616
379,11.2512,2.47298,-0.0659852
379.5,11.2666,2.46812,-0.0659745
380,11.2817,2.46799,-0.06607
380.5,11.2967,2.4712,-0.0679457
381,11.312,2.4741,-0.0696767
381.5,11.327,2.48421,-0.0713127
382,11.3415,2.48976,-0.0737262
382.5,11.3572,2.4928,-0.0758696
383,11.3726,2.49697,-0.077254
383.5,11.3875,2.50261,-0.0785357
384,11.4029,2.51177,-0.0787687
384.5,11.4179,2.51541,-0.0804418
385,11.4331,2.52637,-0.0816384
385.5,11.4483,2.53434,-0.0820581
386,11.4632,2.54672,-0.0833335
386.5,11.4787,2.55865,-0.0850489
387,11.4936,2.56196,-0.0866343
387.5,11.5087,2.57385,-0.0878105
388,11.5243,2.58733,-0.0892356
388.5,11.5393,2.59554,-0.0910375
389,11.5541,2.59979,-0.0931633
389.5,11.5693,2.60903,-0.0946354
390,11.585,2.61154,-0.0975626
390.5,11.6,2.62629,-0.100264
391,11.6152,2.64465,-0.102181
391.5,11.6304,2.6611,-0.104655
392,11.6457,2.66241,-0.10587
392.5,11.6611,2.6648,-0.107441
393,11.6763,2.67859,-0.109147
393.5,11.6914,2.69785,-0.110521
394,11.7066,2.71037,-0.111714
394.5,11.7219,2.72712,-0.11341
395,11.7372,2.73465,-0.115547
395.5,11.7524,2.75152,-0.117123
396,11.7675,2.76853,-0.118288
396.5,11.7828,2.78914,-0.119618
397,11.7979,2.79267,-0.12209
397.5,11.8133,2.80198,-0.12453
398,11.8286,2.82189,-0.12615
398.5,11.8431,2.83094,-0.128915
399,11.8587,2.84618,-0.131238
399.5,11.8741,2.8581,-0.133452
400,11.8896,2.8645,-0.135696
400.5,11.905,2.87687,-0.137638
401,11.92,2.8914,-0.140242
401.5,11.9355,2.90855,-0.144854
402,11.9506,2.92628,-0.147451
402.5,11.9661,2.93857,-0.151597
403,11.9812,2.94117,-0.156042
403.5,11.9967,2.95984,-0.158798
404,12.0121,2.98073,-0.163002
404.5,12.0273,2.98561,-0.166838
405,12.0422,2.98902,-0.169706
405.5,12.0579,2.99891,-0.17251
406,12.0723,3.00111,-0.174439
406.5,12.0877,3.01224,-0.177088
407,12.1031,3.02033,-0.178587
407.5,12.1184,3.03784,-0.179215
408,12.1343,3.05102,-0.181705
408.5,12.1495,3.0655,-0.182975
409,12.1645,3.07702,-0.185239
409.5,12.1801,3.10183,-0.189194
410,12.1959,3.11027,-0.192687
410.5,12.2108,3.12032,-0.195954
411,12.2261,3.13124,-0.199743
411.5,12.2414,3.13512,-0.200765
412,12.2567,3.14325,-0.204573
412.5,12.2721,3.15338,-0.206485
413,12.2876,3.16981,-0.207596
413.5,12.3028,3.18472,-0.210043
414,12.3182,3.19518,-0.212461
414.5,12.3334,3.20981,-0.215272
415,12.3489,3.22123,-0.218863
415.5,12.3641,3.22753,-0.222858
416,12.3796,3.24525,-0.226881
416.5,12.3949,3.26355,-0.230253
417,12.4103,3.27,-0.236323
417.5,12.4256,3.27413,-0.240961
418,12.4407,3.28782,-0.24531
418.5,12.4562,3.28707,-0.250048
419,12.4717,3.2946,-0.252944
419.5,12.487,3.29175,-0.256263
420,12.5023,3.29724,-0.260035
420.5,12.5174,3.30481,-0.262838
421,12.5331,3.31346,-0.267906
421.5,12.5483,3.31096,-0.271501
422,12.5638,3.30745,-0.276121
422.5,12.579,3.31351,-0.281269
423,12.5945,3.31397,-0.286662
423.5,12.6097,3.3219,-0.291963
424,12.6251,3.32705,-0.296481
424.5,12.6404,3.32443,-0.301199
425,12.6556,3.32646,-0.307117
425.5,12.671,3.32665,-0.311795
426,12.6865,3.32902,-0.316923
426.5,12.7017,3.32615,-0.322675
427,12.7174,3.32793,-0.327632
427.5,12.7328,3.32752,-0.333868
428,12.7477,3.32585,-0.338874
428.5,12.7632,3.31561,-0.34417
429,12.7788,3.31258,-0.35145
429.5,12.7941,3.30735,-0.357277
430,12.8093,3.3068,-0.364843
430.5,12.8246,3.302,-0.370466
431,12.8399,3.25602,-0.377017
431.5,12.8548,3.13395,-0.384968
432,12.8701,3.0187,-0.390752
432.5,12.8851,2.92072,-0.396091
433,12.9004,2.82601,-0.402851
433.5,12.9154,2.76663,-0.40884
434,12.9306,2.71122,-0.416702
434.5,12.9453,2.64868,-0.423138
435,12.9611,2.6095,-0.430903
435.5,12.9763,2.58518,-0.440191
436,12.9918,2.55061,-0.447363
436.5,13.0072,2.52876,-0.45503
437,13.0225,2.51008,-0.462957
437.5,13.0377,2.47884,-0.470129
438,13.053,2.44384,-0.479362
438.5,13.0684,2.42086,-0.487435
439,13.0837,2.38435,-0.496142
439.5,13.099,2.34815,-0.506766
440,13.1141,2.31473,-0.515541
440.5,13.1295,2.27844,-0.526359
441,13.1451,2.25161,-0.535041
441.5,13.1603,2.19692,-0.544664
442,13.1753,2.15324,-0.55571
442.5,13.1907,2.1076,-0.564422
443,13.2064,2.05269,-0.575455
443.5,13.2212,2.01331,-0.585632
444,13.2369,1.96711,-0.595087
444.5,13.2517,1.91529,-0.606773
445,13.2667,1.84555,-0.616156
445.5,13.2823,1.758,-0.628543
446,13.2977,1.70291,-0.641382
446.5,13.313,1.67279,-0.651284
447,13.3287,1.63947,-0.664099
447.5,13.3438,1.60194,-0.674268
448,13.3591,1.558,-0.684125
448.5,13.3746,1.52621,-0.696358
449,13.3898,1.4959,-0.705461
449.5,13.4052,1.46398,-0.717134
450,13.4206,1.41399,-0.72908
450.5,13.4358,1.39118,-0.739102
451,13.4514,1.35351,-0.753286
451.5,13.4668,1.33105,-0.763793
452,13.482,1.30621,-0.775796
452.5,13.4978,1.26932,-0.790245
453,13.5128,1.23947,-0.800775
453.5,13.5283,1.21288,-0.813859
454,13.5437,1.1818,-0.825482
454.5,13.5592,1.1506,-0.837897
455,13.5745,1.11268,-0.853408
455.5,13.5898,1.07623,-0.863969
456,13.6054,1.04752,-0.878025
456.5,13.6207,1.00493,-0.892283
457,13.636,0.969114,-0.905473
457.5,13.6514,0.951891,-0.92203
458,13.6672,0.925867,-0.935313
458.5,13.6826,0.891343,-0.950305
459,13.6975,0.860576,-0.96659
459.5,13.7126,0.833498,-0.978226
460,13.7287,0.787485,-0.99327
460.5,13.7443,0.755504,-1.00639
461,13.7596,0.752151,-1.01924
461.5,13.7751,0.725541,-1.03573
462,13.7906,0.709382,-1.04726
462.5,13.8058,0.693648,-1.06258
463,13.8217,0.682796,-1.07849
463.5,13.8372,0.657927,-1.09188
464,13.8527,0.637777,-1.10807
464.5,13.8678,0.616996,-1.1196
465,13.8837,0.592751,-1.13345
465.5,13.8988,0.571073,-1.14802
466,13.9145,0.543634,-1.16067
466.5,13.9298,0.543693,-1.17677
467,13.9454,0.546351,-1.1905
467.5,13.961,0.548356,-1.20487
468,13.9767,0.584742,-1.22141
468.5,13.9924,0.637952,-1.23436
469,14.0081,0.685819,-1.25057
469.5,14.024,0.771744,-1.26532
470,14.0396,0.870279,-1.28003
470.5,14.056,0.991556,-1.2993
471,14.0721,1.12782,-1.3139
471.5,14.088,1.26578,-1.3321
472,14.1042,1.39985,-1.3501
472.5,14.12,1.52428,-1.36717
473,14.1358,1.64531,-1.38863
473.5,14.152,1.75831,-1.40541
474,14.1679,1.85911,-1.42671
474.5,14.1837,1.93514,-1.44617
475,14.1996,2.00602,-1.46556
475.5,14.2153,2.05347,-1.48872
476,14.2312,2.09436,-1.50517
476.5,14.247,2.13474,-1.52477
477,14.2627,2.14908,-1.54307
477.5,14.2785,2.16836,-1.56011
478,14.2941,2.19032,-1.57919
478.5,14.3097,2.20963,-1.59408
479,14.3255,2.22303,-1.61153
479.5,14.3411,2.23074,-1.62861
480,14.3571,2.24167,-1.64407
480.5,14.3725,2.25364,-1.66132
481,14.3883,2.27297,-1.67568
481.5,14.404,2.28553,-1.69245
482,14.4195,2.30031,-1.71044
482.5,14.4353,2.31844,-1.72576
483,14.4513,2.33274,-1.74521
483.5,14.4667,2.3452,-1.7592
484,14.4825,2.35811,-1.77527
484.5,14.4984,2.3642,-1.79436
485,14.5138,2.37502,-1.80893
485.5,14.5299,2.38002,-1.82778
486,14.5452,2.38432,-1.84263
486.5,14.5609,2.38524,-1.85783
487,14.5768,2.38476,-1.877
487.5,14.5924,2.37589,-1.89046
488,14.608,2.37342,-1.90716
488.5,14.6237,2.35512,-1.92278
489,14.6391,2.33732,-1.93776
489.5,14.6549,2.30928,-1.95646
490,14.6705,2.27986,-1.96973
490.5,14.6858,2.2582,-1.98642
491,14.7013,2.23284,-2.00249
491.5,14.7173,2.18644,-2.01745
492,14.7326,2.15073,-2.03646
492.5,14.7482,2.11339,-2.05065
493,14.7635,2.07403,-2.066
493.5,14.7792,2.01996,-2.08321
494,14.795,1.97115,-2.09717
494.5,14.8104,1.92153,-2.11417
495,14.8261,1.87099,-2.12804
495.5,14.8415,1.8189,-2.142
496,14.8568,1.75954,-2.15736
496.5,14.8727,1.7042,-2.17029
497,14.888,1.63078,-2.18481
497.5,14.9035,1.57379,-2.19964
498,14.9192,1.50486,-2.21416
498.5,14.9346,1.44073,-2.23114
499,14.9498,1.37551,-2.24303
499.5,14.9653,1.31539,-2.25725
500,14.981,1.2446,-2.27149
500.5,14.9967,1.17505,-2.28386
501,15.0119,1.10443,-2.29873
501.5,15.0274,1.03712,-2.31034
502,15.0431,0.975145,-2.32349
502.5,15.0582,0.909901,-2.3372
503,15.0737,0.833349,-2.34824
503.5,15.0892,0.757744,-2.36214
504,15.104,0.694704,-2.37352
504.5,15.1204,0.629904,-2.38651
505,15.1356,0.554111,-2.40122
505.5,15.1515,0.48289,-2.41287
506,15.1667,0.425023,-2.42616
506.5,15.1819,0.359646,-2.43768
507,15.1973,0.303312,-2.44841
507.5,15.2128,0.250759,-2.46246
508,15.2289,0.203504,-2.47389
508.5,15.2445,0.156506,-2.48591
509,15.2602,0.097917,-2.49911
509.5,15.2758,0.0467208,-2.51049
510,15.2914,0.00669816,-2.52439
510.5,15.3068,-0.0495486,-2.53469
511,15.3222,-0.0966773,-2.5454
511.5,15.3382,-0.138561,-2.55792
512,15.3537,-0.170393,-2.56675
512.5,15.3692,-0.210096,-2.57831
513,15.3848,-0.228251,-2.58778
513.5,15.4006,-0.268255,-2.59723
514,15.4165,-0.306441,-2.60842
514.5,15.4318,-0.339402,-2.61636
515,15.4469,-0.366065,-2.62592
515.5,15.4631,-0.393429,-2.63522
516,15.4789,-0.420598,-2.64428
516.5,15.4944,-0.441649,-2.65492
517,15.5103,-0.440596,-2.66218
517.5,15.5262,-0.453374,-2.67107
518,15.5416,-0.462999,-2.67944
518.5,15.5575,-0.480979,-2.68686
519,15.5731,-0.500523,-2.69631
519.5,15.5893,-0.527104,-2.70349
520,15.6047,-0.552437,-2.71146
520.5,15.6205,-0.571614,-2.72003
521,15.6361,-0.59323,-2.72718
521.5,15.6519,-0.606506,-2.73671
522,15.6675,-0.599888,-2.74397
522.5,15.6834,-0.531832,-2.75189
523,15.6996,-0.504225,-2.76043
523.5,15.7154,-0.508518,-2.7669
524,15.7309,-0.520707,-2.77429
524.5,15.7468,-0.549972,-2.78065
525,15.7625,-0.553923,-2.7882
525.5,15.7784,-0.570006,-2.79641
526,15.7938,-0.585381,-2.80238
526.5,15.8098,-0.600952,-2.80969
527,15.8258,-0.619913,-2.81524
527.5,15.8413,-0.633413,-2.82026
528,15.8574,-0.64082,-2.82518
528.5,15.8731,-0.650578,-2.82856
529,15.8888,-0.655715,-2.83282
529.5,15.9045,-0.669059,-2.83723
530,15.9203,-0.685378,-2.84186
530.5,15.936,-0.696337,-2.84722
531,15.952,-0.704223,-2.8514
531.5,15.9674,-0.72066,-2.85659
532,15.9835,-0.734775,-2.86021
532.5,15.9993,-0.739738,-2.86458
533,16.0155,-0.755604,-2.86967
533.5,16.0309,-0.772713,-2.87312
534,16.0467,-0.785791,-2.87732
534.5,16.0627,-0.799996,-2.88114
535,16.0785,-0.818156,-2.88466
535.5,16.0943,-0.826519,-2.88923
536,16.11,-0.849376,-2.89241
536.5,16.1258,-0.903086,-2.8955
537,16.1421,-0.796655,-2.89861
537.5,16.1575,-0.899454,-2.90203
538,16.1732,-1.06391,-2.90502
538.5,16.1879,-1.22086,-2.9091
539,16.2037,-1.37627,-2.91325
539.5,16.2192,-1.50761,-2.91705
540,16.2345,-1.63698,-2.92088
540.5,16.2501,-1.73149,-2.92456
541,16.2657,-1.83017,-2.92868
541.5,16.2811,-1.9142,-2.93135
542,16.2966,-1.98924,-2.93445
542.5,16.3124,-2.06234,-2.93741
543,16.328,-2.11364,-2.93968
543.5,16.3438,-2.18404,-2.94306
544,16.3595,-2.23904,-2.94541
544.5,16.3752,-2.26732,-2.94718
545,16.391,-2.31749,-2.9491
545.5,16.4067,-2.36027,-2.95124
546,16.4228,-2.39753,-2.95328
546.5,16.4384,-2.44446,-2.95698
547,16.4541,-2.47065,-2.95992
547.5,16.4698,-2.50014,-2.96401
548,16.4858,-2.53088,-2.96798
548.5,16.5014,-2.55843,-2.96999
549,16.5171,-2.58884,-2.97178
549.5,16.5332,-2.60818,-2.97344
550,16.5487,-2.63719,-2.97556
550.5,16.5649,-2.66404,-2.97709
551,16.5806,-2.69637,-2.98056
551.5,16.5961,-2.71054,-2.98374
552,16.6122,-2.74064,-2.98635
552.5,16.6279,-2.75327,-2.98948
553,16.644,-2.77174,-2.99129
553.5,16.6596,-2.78873,-2.99399
554,16.6756,-2.81131,-2.9983
554.5,16.6913,-2.83027,-3.00071
555,16.7073,-2.84967,-3.00395
555.5,16.7232,-2.86945,-3.00679
556,16.7388,-2.88015,-3.00825
556.5,16.755,-2.90355,-3.00987
557,16.7708,-2.91445,-3.01239
557.5,16.7866,-2.93692,-3.01447
558,16.8025,-2.9485,-3.01621
558.5,16.8182,-2.9678,-3.01787
559,16.8342,-2.97604,-3.01803
559.5,16.8501,-2.98651,-3.01803
560,16.8664,-3.00384,-3.01803
560.5,16.8822,-3.01892,-3.01804
561,16.8976,-3.03869,-3.01818
561.5,16.9131,-3.04906,-3.0193
562,16.9298,-3.06432,-3.01938
562.5,16.9457,-3.07064,-3.02093
563,16.9616,-3.08063,-3.02182
563.5,16.9773,-3.09407,-3.0232
564,16.9934,-3.10382,-3.02412
564.5,17.009,-3.11314,-3.02604
565,17.0244,-3.13341,-3.0278
565.5,17.0403,-3.14408,-3.03006
566,17.0571,-3.14593,-3.03383
566.5,17.0731,-3.15793,-3.03607
567,17.0887,-3.17199,-3.03861
567.5,17.1047,-3.18492,-3.04099
568,17.1207,-3.20091,-3.04268
568.5,17.1366,-3.2075,-3.04418
569,17.1525,-3.22398,-3.04439
569.5,17.1686,-3.23159,-3.04504
570,17.1845,-3.23942,-3.04558
570.5,17.2004,-3.26467,-3.04549
571,17.2163,-3.2743,-3.04653
571.5,17.2323,-3.28617,-3.04662
572,17.2486,-3.29504,-3.04842
572.5,17.2642,-3.30314,-3.04996
573,17.2802,-3.3146,-3.05056
573.5,17.2961,-3.32619,-3.05151
574,17.3123,-3.33298,-3.05292
574.5,17.3281,-3.33705,-3.05523
575,17.3441,-3.35142,-3.05676
575.5,17.36,-3.35748,-3.05823
576,17.3762,-3.35337,-3.05961
576.5,17.3913,-3.35287,-3.05974
577,17.4079,-3.3662,-3.06123
577.5,17.4238,-3.38652,-3.06138
578,17.4398,-3.38491,-3.06255
578.5,17.4558,-3.39451,-3.06286
579,17.4718,-3.41118,-3.0644
579.5,17.488,-3.40885,-3.06546
580,17.5039,-3.41318,-3.06693
580.5,17.5198,-3.44293,-3.06985
581,17.5357,-3.45137,-3.07246
581.5,17.5519,-3.45392,-3.07551
582,17.5676,-3.4652,-3.07919
582.5,17.584,-3.47172,-3.08129
583,17.5998,-3.47533,-3.08364
583.5,17.6163,-3.48873,-3.08608
584,17.6317,-3.49131,-3.08772
584.5,17.6479,-3.49916,-3.09021
585,17.664,-3.50467,-3.09296
585.5,17.6799,-3.51763,-3.09443
586,17.6961,-3.52635,-3.09516
586.5,17.7121,-3.53243,-3.09523
587,17.728,-3.52958,-3.09551
587.5,17.7442,-3.5337,-3.09652
588,17.7602,-3.53591,-3.09651
588.5,17.7762,-3.53484,-3.09701
589,17.7921,-3.54549,-3.09788
589.5,17.8084,-3.55035,-3.09785
590,17.8244,-3.55195,-3.09784
590.5,17.8401,-3.55719,-3.09792
591,17.8563,-3.56309,-3.09922
591.5,17.8728,-3.56889,-3.09918
592,17.8886,-3.57506,-3.09809
592.5,17.9048,-3.57122,-3.09879
593,17.9208,-3.57599,-3.09917
593.5,17.9361,-3.57561,-3.09916
594,17.9524,-3.57973,-3.09916
594.5,17.9687,-3.58021,-3.09918
595,17.9851,-3.59427,-3.0992
595.5,18.0014,-3.59428,-3.10061
596,18.0171,-3.59622,-3.09984
596.5,18.0333,-3.59722,-3.10073
597,18.0493,-3.59876,-3.10082
597.5,18.0658,-3.60128,-3.10101
598,18.0814,-3.6031,-3.10176
598.5,18.0975,-3.60169,-3.10268
599,18.1135,-3.60728,-3.10297
599.5,18.1294,-3.60966,-3.10401
600,18.1457,-3.61542,-3.10327
600.5,18.1622,-3.62604,-3.10502
601,18.178,-3.62738,-3.10569
601.5,18.1944,-3.62615,-3.10586
602,18.2102,-3.63248,-3.10766
602.5,18.2263,-3.63802,-3.10961
603,18.2424,-3.64438,-3.11093
603.5,18.2586,-3.64407,-3.11152
604,18.2746,-3.64777,-3.11289
604.5,18.2907,-3.6599,-3.1145
605,18.3069,-3.6654,-3.11552
605.5,18.3231,-3.66845,-3.11678
606,18.3391,-3.66615,-3.11719
606.5,18.3553,-3.68097,-3.11815
607,18.3715,-3.68392,-3.11954
607.5,18.3874,-3.68034,-3.11958
608,18.4033,-3.67975,-3.11958
608.5,18.4197,-3.68159,-3.11962
609,18.4359,-3.692,-3.12117
609.5,18.4519,-3.69362,-3.12193
610,18.4682,-3.69095,-3.12297
610.5,18.4843,-3.69446,-3.12452
611,18.5002,-3.69598,-3.12501
611.5,18.5164,-3.70288,-3.12721
612,18.5327,-3.70976,-3.12828
612.5,18.5486,-3.71592,-3.12892
613,18.5649,-3.71822,-3.1289
613.5,18.5812,-3.71255,-3.12956
614,18.5973,-3.71182,-3.13023
614.5,18.6131,-3.71247,-3.13021
615,18.6297,-3.71664,-3.13111
615.5,18.6458,-3.71908,-3.13099
616,18.6618,-3.72178,-3.13021
616.5,18.6779,-3.72442,-3.13022
617,18.6941,-3.72569,-3.13023
617.5,18.7104,-3.71954,-3.13033
618,18.7263,-3.72787,-3.12853
618.5,18.7429,-3.73215,-3.12756
619,18.7589,-3.73468,-3.12758
619.5,18.7748,-3.73675,-3.12758
620,18.7914,-3.74259,-3.12762
620.5,18.8072,-3.7396,-3.12726
621,18.8234,-3.74678,-3.12761
621.5,18.8396,-3.74772,-3.12812
622,18.8558,-3.75491,-3.12911
622.5,18.8723,-3.76519,-3.13006
623,18.8875,-3.77271,-3.13108
623.5,18.904,-3.7993,-3.13175
624,18.9202,-3.80094,-3.13253
624.5,18.9365,-3.80671,-3.134
625,18.9526,-3.80778,-3.13514
625.5,18.9689,-3.81385,-3.13671
626,18.985,-3.81979,-3.13869
626.5,19.0014,-3.8163,-3.13974
627,19.0173,-3.82526,-3.14094
627.5,19.0338,-3.8396,-3.14108
628,19.0498,-3.84611,-3.14151
628.5,19.0662,-3.85828,-3.14245
629,19.0823,-3.86195,-3.14238
629.5,19.0985,-3.87179,-3.14397
630,19.1146,-3.87393,-3.14551
630.5,19.1308,-3.87815,-3.14695
631,19.1465,-3.88602,-3.1489
631.5,19.1628,-3.89363,-3.15054
632,19.1789,-3.88696,-3.15177
632.5,19.195,-3.89523,-3.15201
633,19.2118,-3.90354,-3.1527
633.5,19.2282,-3.90076,-3.15277
634,19.2444,-3.89783,-3.15192
634.5,19.2605,-3.90708,-3.15139
635,19.2767,-3.90808,-3.15145
635.5,19.2929,-3.90461,-3.15075
636,19.3089,-3.91523,-3.15005
636.5,19.3253,-3.91703,-3.15008
637,19.3414,-3.92063,-3.15035
637.5,19.3578,-3.92439,-3.15149
638,19.3741,-3.92837,-3.15142
638.5,19.3902,-3.9361,-3.15195
639,19.4063,-3.94034,-3.15274
639.5,19.4226,-3.9426,-3.15322
640,19.4388,-3.95394,-3.15555
640.5,19.4551,-3.95893,-3.15674
641,19.4711,-3.96305,-3.15712
641.5,19.4874,-3.97121,-3.15774
642,19.5035,-3.96608,-3.15846
642.5,19.5199,-3.98078,-3.15844
643,19.5362,-3.9825,-3.15845
643.5,19.5523,-3.98752,-3.16057
644,19.5684,-3.98712,-3.16107
644.5,19.5848,-3.99329,-3.16108
645,19.601,-3.99616,-3.16087
645.5,19.6173,-3.99743,-3.16029
646,19.6337,-4.0068,-3.16109
646.5,19.6497,-4.01567,-3.1611
647,19.6662,-4.01683,-3.16115
647.5,19.6821,-4.01749,-3.16229
648,19.6984,-4.01675,-3.16175
648.5,19.7147,-4.02328,-3.16168
649,19.7303,-4.02386,-3.1613
649.5,19.7471,-4.02953,-3.15984
650,19.7631,-4.02753,-3.15852
650.5,19.7794,-4.03377,-3.15693
651,19.7953,-4.04462,-3.15656
651.5,19.812,-4.04861,-3.15559
652,19.8279,-4.05192,-3.15569
652.5,19.8441,-4.06599,-3.15441
653,19.8607,-4.07314,-3.15415
653.5,19.8765,-4.07955,-3.15388
654,19.8929,-4.08712,-3.1528
654.5,19.9093,-4.09533,-3.15286
655,19.9253,-4.10068,-3.15287
655.5,19.9415,-4.10531,-3.15404
656,19.9581,-4.1149,-3.15406
656.5,19.9738,-4.12574,-3.15548
657,19.99,-4.13256,-3.15701
657.5,20.0066,-4.14022,-3.15864
658,20.022,-4.14805,-3.16055
658.5,20.0386,-4.14723,-3.16164
659,20.0553,-4.15255,-3.16419
659.5,20.0715,-4.16145,-3.16502
660,20.0875,-4.16402,-3.1657
660.5,20.104,-4.17174,-3.16636
661,20.1201,-4.17809,-3.16634
661.5,20.1364,-4.17868,-3.16622
662,20.1527,-4.18669,-3.16578
662.5,20.1685,-4.19254,-3.16636
663,20.185,-4.19822,-3.16629
663.5,20.2012,-4.19956,-3.165
664,20.2174,-4.20961,-3.16504
664.5,20.2339,-4.22083,-3.16503
665,20.2499,-4.23679,-3.16503
665.5,20.2661,-4.24117,-3.16503
666,20.2824,-4.24815,-3.16503
666.5,20.2983,-4.26292,-3.16503
667,20.3148,-4.26707,-3.16503
667.5,20.3308,-4.27308,-3.16504
668,20.3473,-4.27679,-3.16574
668.5,20.363,-4.2847,-3.16663
669,20.3798,-4.29877,-3.16813
669.5,20.3962,-4.3062,-3.16929
670,20.4123,-4.31648,-3.17023
670.5,20.4287,-4.32156,-3.17215
671,20.4447,-4.32429,-3.17323
671.5,20.4611,-4.33088,-3.17282
672,20.4772,-4.34236,-3.17225
672.5,20.4934,-4.35062,-3.17226
673,20.5097,-4.35691,-3.17202
673.5,20.5257,-4.37098,-3.17126
674,20.542,-4.37623,-3.17118
674.5,20.5582,-4.38425,-3.17026
675,20.5745,-4.3877,-3.16958
675.5,20.5908,-4.40141,-3.16964
676,20.6068,-4.40925,-3.16832
676.5,20.6234,-4.41591,-3.16912
677,20.6393,-4.42447,-3.16815
677.5,20.6556,-4.42953,-3.16822
678,20.6716,-4.43981,-3.16825
678.5,20.688,-4.45681,-3.16855
679,20.7043,-4.45494,-3.16975
679.5,20.7208,-4.46668,-3.17106
680,20.737,-4.47161,-3.17159
680.5,20.7533,-4.47909,-3.17316
681,20.7694,-4.48956,-3.17261
681.5,20.7859,-4.50785,-3.17322
682,20.8021,-4.51203,-3.17326
682.5,20.8182,-4.51822,-3.17285
683,20.8348,-4.52864,-3.17282
683.5,20.8506,-4.53764,-3.17077
684,20.867,-4.55383,-3.16933
684.5,20.8829,-4.57055,-3.16924
685,20.8996,-4.57668,-3.16827
685.5,20.9156,-4.57878,-3.16834
686,20.9321,-4.59012,-3.16846
686.5,20.9483,-4.59661,-3.17125
687,20.9645,-4.60166,-3.17222
687.5,20.9803,-4.60849,-3.17295
688,20.9964,-4.62045,-3.17293
688.5,21.0133,-4.6318,-3.17292
689,21.0291,-4.64429,-3.17283
689.5,21.0456,-4.65447,-3.17403
690,21.0618,-4.66375,-3.17277
690.5,21.0781,-4.6669,-3.17342
691,21.0944,-4.67668,-3.17338
691.5,21.1107,-4.69713,-3.17565
692,21.127,-4.6963,-3.1778
692.5,21.1434,-4.71348,-3.1803
693,21.1597,-4.72893,-3.18361
693.5,21.176,-4.73435,-3.18624
694,21.1922,-4.73968,-3.18834
694.5,21.2083,-4.74825,-3.18891
695,21.2245,-4.75449,-3.18773
695.5,21.2409,-4.77244,-3.18525
696,21.257,-4.78179,-3.18329
696.5,21.2734,-4.78822,-3.18148
697,21.2895,-4.79728,-3.18142
697.5,21.3062,-4.81209,-3.18139
698,21.3221,-4.82248,-3.18125
698.5,21.3384,-4.83344,-3.179
699,21.3547,-4.84038,-3.17875
699.5,21.371,-4.85551,-3.1786
700,21.3874,-4.86791,-3.17735
700.5,21.4034,-4.88197,-3.17743
701,21.4198,-4.89659,-3.17743
701.5,21.4363,-4.9127,-3.17743
702,21.4523,-4.91867,-3.17762
702.5,21.4687,-4.93326,-3.17885
703,21.4849,-4.95354,-3.17875
703.5,21.5012,-4.96961,-3.17875
704,21.5176,-4.96719,-3.17877
704.5,21.5332,-4.97933,-3.17869
705,21.5498,-4.99381,-3.18
705.5,21.566,-5.0062,-3.18006
706,21.5825,-5.03086,-3.18007
706.5,21.5986,-5.04371,-3.18211
707,21.6152,-5.04909,-3.18327
707.5,21.6312,-5.06881,-3.18519
708,21.6477,-5.08037,-3.18809
708.5,21.664,-5.08963,-3.18969
709,21.6804,-5.10304,-3.19104
709.5,21.6964,-5.12056,-3.19194
710,21.7127,-5.14922,-3.19193
710.5,21.729,-5.16392,-3.19194
711,21.7452,-5.17686,-3.19117
711.5,21.7618,-5.19779,-3.19047
712,21.7777,-5.21264,-3.18888
712.5,21.7942,-5.23093,-3.18678
713,21.8106,-5.24,-3.18578
713.5,21.8266,-5.25865,-3.18322
714,21.8432,-5.27338,-3.18189
714.5,21.8594,-5.29492,-3.18115
715,21.8758,-5.3193,-3.18121
715.5,21.8919,-5.33497,-3.18279
716,21.9082,-5.35556,-3.18421
716.5,21.9247,-5.36149,-3.18513
717,21.941,-5.3754,-3.18653
717.5,21.957,-5.39521,-3.18644
718,21.9735,-5.41885,-3.18646
718.5,21.9898,-5.44191,-3.1861
719,22.0059,-5.45669,-3.18609
719.5,22.0224,-5.47964,-3.18581
720,22.0382,-5.50341,-3.18511
720.5,22.0548,-5.513,-3.18511
721,22.0712,-5.52426,-3.18577
721.5,22.0874,-5.53535,-3.18658
722,22.1038,-5.55946,-3.18653
722.5,22.1203,-5.58511,-3.18772
723,22.1363,-5.60551,-3.18794
723.5,22.1527,-5.62546,-3.18849
724,22.1691,-5.63729,-3.18934
724.5,22.1853,-5.66018,-3.18929
725,22.2016,-5.67696,-3.18929
725.5,22.218,-5.70415,-3.18929
726,22.2344,-5.72483,-3.18929
726.5,22.2508,-5.74431,-3.18929
727,22.2671,-5.76198,-3.18929
727.5,22.2833,-5.78354,-3.18929
728,22.2994,-5.80134,-3.18929
728.5,22.3157,-5.83356,-3.18929
729,22.3322,-5.85517,-3.18928
729.5,22.3484,-5.87133,-3.18921
730,22.3649,-5.89689,-3.18933
730.5,22.3812,-5.92096,-3.19026
731,22.3974,-5.94508,-3.18887
731.5,22.4137,-5.97012,-3.189
732,22.4301,-5.99082,-3.1879
732.5,22.4463,-6.01196,-3.18765
733,22.4628,-6.03182,-3.18764
733.5,22.4792,-6.06033,-3.18764
734,22.4954,-6.08073,-3.18765
734.5,22.5116,-6.11002,-3.18874
735,22.5278,-6.12986,-3.18894
735.5,22.5443,-6.16072,-3.18859
736,22.5601,-6.18402,-3.18759
736.5,22.5764,-6.21003,-3.18764
737,22.5933,-6.2349,-3.1879
737.5,22.6096,-6.26062,-3.18904
738,22.6258,-6.2847,-3.18896
738.5,22.6427,-6.30321,-3.18896
739,22.6587,-6.32117,-3.18896
739.5,22.6742,-6.36015,-3.18896
740,22.6912,-6.38417,-3.18897