File: 01_Data/Thermoplastic_Helmet_Shell/STA/N2/30K_min/Thermoplastic_Helmet_Shell_STA_N2_30KData_250221_R2.csv
Temp./C,Time/min,DSC/(mW/mg),Mass loss/mg
35.0,0.0,0.84526,0.0114976
35.5,0.035718,0.876609,0.0133323
36,0.0667837,0.914391,0.0148952
36.5,0.098997,0.944281,0.0158397
37,0.129325,0.988674,0.0179602
37.5,0.159875,1.02297,0.0200945
38,0.189183,1.04417,0.0208933
38.5,0.218876,1.07613,0.0204214
39,0.24804,1.1014,0.0187028
39.5,0.275531,1.12237,0.0177312
40,0.301977,1.15551,0.0168385
40.5,0.32934,1.18054,0.0155284
41,0.356786,1.20561,0.0153078
41.5,0.383589,1.22238,0.014697
42,0.408974,1.25344,0.0132085
42.5,0.434479,1.27532,0.0119471
43,0.459879,1.28838,0.0118114
43.5,0.485785,1.30633,0.0128438
44,0.510813,1.32994,0.0129003
44.5,0.535269,1.36022,0.0120229
45,0.559129,1.36828,0.0111963
45.5,0.584607,1.38658,0.0132771
46,0.608248,1.41337,0.0153146
46.5,0.631745,1.43143,0.0175637
47,0.655751,1.446,0.0175686
47.5,0.678493,1.46154,0.0174328
48,0.702577,1.48252,0.0183651
48.5,0.725208,1.50425,0.0185717
49,0.748369,1.52375,0.0178048
49.5,0.771812,1.5411,0.0170514
50,0.793391,1.54815,0.0163796
50.5,0.815464,1.56198,0.0159228
51,0.838949,1.57199,0.0149589
51.5,0.860612,1.58898,0.0138127
52,0.882581,1.60451,0.0138304
52.5,0.904998,1.62173,0.0138235
53,0.926607,1.63448,0.0142319
53.5,0.948785,1.64932,0.0135814
54,0.970218,1.65849,0.0135714
54.5,0.991611,1.67626,0.0134914
55,1.01324,1.68133,0.014216
55.5,1.03472,1.70042,0.0146948
56,1.05588,1.71717,0.015705
56.5,1.07588,1.73222,0.0172567
57,1.09757,1.73955,0.0188099
57.5,1.11797,1.74391,0.0201627
58,1.13966,1.7549,0.0189984
58.5,1.16028,1.76767,0.0180139
59,1.18109,1.78751,0.0175424
59.5,1.20179,1.80079,0.0179387
60,1.22226,1.80684,0.0173229
60.5,1.243,1.81932,0.0177376
61,1.26323,1.83449,0.0170919
61.5,1.28399,1.83984,0.0162087
62,1.30395,1.84609,0.0157706
62.5,1.32408,1.86066,0.0139287
63,1.34399,1.87569,0.0123529
63.5,1.36494,1.88001,0.0102121
64,1.38366,1.89142,0.00897722
64.5,1.40423,1.89803,0.010593
65,1.42442,1.91245,0.0127131
65.5,1.44381,1.91911,0.0149703
66,1.46388,1.93931,0.0168269
66.5,1.48276,1.94853,0.0183907
67,1.50318,1.95784,0.0193743
67.5,1.5229,1.97391,0.0197033
68,1.54283,1.98224,0.0190111
68.5,1.56193,1.9926,0.0195197
69,1.58178,2.00992,0.0209608
69.5,1.60125,2.01204,0.0207941
70,1.62016,2.02143,0.0208862
70.5,1.63997,2.02655,0.0207201
71,1.65925,2.03501,0.0186915
71.5,1.67855,2.04695,0.0172979
72,1.69754,2.05684,0.0159587
72.5,1.71656,2.07224,0.0141437
73,1.73629,2.07934,0.012947
73.5,1.7554,2.08412,0.0119634
74,1.77464,2.09564,0.0122337
74.5,1.79332,2.10103,0.0121955
75,1.81245,2.1103,0.0134939
75.5,1.8314,2.12441,0.013409
76,1.84917,2.13481,0.0133883
76.5,1.86959,2.14682,0.0164496
77,1.88841,2.15517,0.0179863
77.5,1.90727,2.1649,0.0195721
78,1.92695,2.17317,0.0211746
78.5,1.94505,2.1777,0.0200094
79,1.96368,2.19599,0.0194594
79.5,1.9831,2.20232,0.0186809
80,2.00125,2.21208,0.0179037
80.5,2.01974,2.2227,0.0173232
81,2.0386,2.23714,0.0160848
81.5,2.05691,2.24873,0.0158138
82,2.07603,2.25013,0.0158132
82.5,2.09435,2.26285,0.0152521
83,2.11272,2.27606,0.0158491
83.5,2.13132,2.27706,0.0148978
84,2.14944,2.28942,0.0149224
84.5,2.16805,2.30954,0.0141718
85,2.18643,2.31884,0.0143312
85.5,2.20469,2.33741,0.0141857
86,2.22327,2.33852,0.0129277
86.5,2.24125,2.35121,0.0125138
87,2.25963,2.36682,0.0125813
87.5,2.27764,2.37797,0.0126456
88,2.29567,2.39283,0.0131826
88.5,2.314,2.40592,0.0140306
89,2.33194,2.41908,0.0150572
89.5,2.3496,2.43167,0.0157114
90,2.36793,2.44205,0.0168871
90.5,2.38587,2.45072,0.0167923
91,2.40373,2.45511,0.0158138
91.5,2.42139,2.47167,0.0171573
92,2.43928,2.47814,0.0177598
92.5,2.45712,2.48171,0.0177862
93,2.47507,2.50097,0.0173643
93.5,2.49278,2.50516,0.017594
94,2.51031,2.51731,0.0172502
94.5,2.52805,2.52763,0.0177557
95,2.54555,2.53915,0.018608
95.5,2.56358,2.55674,0.018719
96,2.58076,2.5626,0.0201233
96.5,2.5984,2.57091,0.0202961
97,2.6158,2.5838,0.0217246
97.5,2.6337,2.59371,0.0216368
98,2.6507,2.60093,0.0216073
98.5,2.66829,2.6041,0.0203051
99,2.68562,2.6112,0.0203084
99.5,2.70341,2.62589,0.0198255
100,2.72072,2.62818,0.019742
100.5,2.73783,2.63515,0.0204407
101,2.7554,2.64457,0.0199629
101.5,2.77279,2.65625,0.0190583
102,2.79041,2.6669,0.0191155
102.5,2.80732,2.67783,0.0185042
103,2.82445,2.68637,0.0178659
103.5,2.84223,2.69289,0.0183095
104,2.85918,2.70758,0.0175819
104.5,2.87649,2.71623,0.0174759
105,2.89352,2.72965,0.0187852
105.5,2.91094,2.73605,0.0188888
106,2.92811,2.74019,0.0188915
106.5,2.94547,2.75306,0.0189174
107,2.96227,2.76329,0.0190916
107.5,2.97945,2.77506,0.0202095
108,2.99671,2.7784,0.0199162
108.5,3.01375,2.79207,0.0200227
109,3.03087,2.79349,0.0201963
109.5,3.04763,2.8011,0.020196
110,3.06503,2.80737,0.0195658
110.5,3.08103,2.8163,0.0188654
111,3.09871,2.8215,0.0188661
111.5,3.11597,2.83099,0.0175167
112,3.13287,2.84348,0.0168148
112.5,3.1494,2.84963,0.0149114
113,3.16666,2.85551,0.0146497
113.5,3.1834,2.86559,0.0134604
114,3.20094,2.875,0.0142141
114.5,3.21757,2.87972,0.0126443
115,3.23413,2.8896,0.0126342
115.5,3.25065,2.89887,0.0126213
116,3.26726,2.90462,0.01262
116.5,3.28465,2.91503,0.01262
117,3.30224,2.91821,0.01262
117.5,3.31931,2.92939,0.01262
118,3.33602,2.9284,0.0126218
118.5,3.35252,2.9444,0.0126342
119,3.36868,2.96235,0.0125591
119.5,3.38615,2.96748,0.0138952
120,3.40231,2.97941,0.0139597
120.5,3.41951,2.98706,0.0155366
121,3.43609,2.99559,0.015479
121.5,3.45314,2.99905,0.0156292
122,3.47005,3.00569,0.0168085
122.5,3.48591,3.02909,0.0167883
123,3.50316,3.03348,0.0167989
123.5,3.52001,3.03438,0.0168
124,3.53599,3.03848,0.0168
124.5,3.55315,3.04764,0.0168
125,3.56868,3.06297,0.0168
125.5,3.58605,3.06791,0.016799
126,3.60259,3.08791,0.0167911
126.5,3.61926,3.09525,0.0168036
127,3.63553,3.10272,0.0165961
127.5,3.65152,3.10995,0.0167912
128,3.66824,3.12044,0.0168024
128.5,3.68463,3.12865,0.0168622
129,3.70146,3.13794,0.0181864
129.5,3.71725,3.14962,0.0180782
130,3.73411,3.15809,0.0176799
130.5,3.75034,3.1635,0.0167969
131,3.76673,3.17335,0.0167891
131.5,3.78342,3.18181,0.0166295
132,3.79949,3.19281,0.0154873
132.5,3.81575,3.1974,0.0154964
133,3.83223,3.21177,0.0154981
133.5,3.84823,3.22366,0.0133737
134,3.86503,3.22735,0.013228
134.5,3.88087,3.24602,0.013183
135,3.89677,3.258,0.0131726
135.5,3.91331,3.26279,0.01311
136,3.92911,3.28495,0.0142035
136.5,3.94537,3.29895,0.0147484
137,3.96169,3.30683,0.0148441
137.5,3.97786,3.31477,0.0161291
138,3.9938,3.33462,0.0165345
138.5,4.01036,3.35294,0.0176055
139,4.02631,3.38018,0.019199
139.5,4.04218,3.4066,0.0204958
140,4.05838,3.41843,0.0206646
140.5,4.0744,3.432,0.0221821
141,4.09052,3.46531,0.0231938
141.5,4.10657,3.4923,0.0231576
142,4.12223,3.50834,0.0231581
142.5,4.13876,3.53306,0.0232101
143,4.15484,3.553,0.0226533
143.5,4.17064,3.57928,0.0230556
144,4.18696,3.60692,0.0231703
144.5,4.20257,3.62227,0.0217953
145,4.21864,3.6399,0.0215581
145.5,4.23471,3.65793,0.0205217
146,4.25051,3.67289,0.0200896
146.5,4.26646,3.69241,0.0195582
147,4.28218,3.7027,0.0186603
147.5,4.29813,3.70861,0.018539
148,4.31372,3.71152,0.0171347
148.5,4.32971,3.71793,0.0172321
149,4.34547,3.73283,0.0168437
149.5,4.36166,3.74186,0.0159927
150,4.37706,3.74859,0.0171252
150.5,4.39289,3.75607,0.0172264
151,4.40878,3.75129,0.0172406
151.5,4.42438,3.76139,0.0172402
152,4.44022,3.76882,0.01724
152.5,4.45586,3.77271,0.01724
153,4.47176,3.77806,0.01724
153.5,4.48719,3.77879,0.0172391
154,4.50289,3.78763,0.0172326
154.5,4.51831,3.78766,0.0161257
155,4.53441,3.794,0.0159553
155.5,4.55017,3.79017,0.0159286
156,4.56487,3.80298,0.0159295
156.5,4.58095,3.8139,0.01593
157,4.59728,3.82595,0.01593
157.5,4.61246,3.82995,0.01593
158,4.62832,3.83774,0.01593
158.5,4.64413,3.84623,0.01593
159,4.65939,3.84963,0.0159298
159.5,4.67555,3.85559,0.0159272
160,4.69092,3.86932,0.0162297
160.5,4.70669,3.87693,0.0174061
161,4.72134,3.87493,0.0181324
161.5,4.73698,3.88828,0.0186887
162,4.75324,3.90116,0.0186635
162.5,4.76886,3.8992,0.0186607
163,4.78437,3.90044,0.0187118
163.5,4.80004,3.90726,0.0199854
164,4.81553,3.90858,0.0197625
164.5,4.83106,3.91566,0.018469
165,4.84668,3.91714,0.0184259
165.5,4.86211,3.92341,0.0167599
166,4.87763,3.93095,0.0169195
166.5,4.89324,3.93659,0.0155647
167,4.9083,3.94108,0.0152375
167.5,4.92355,3.93644,0.0150266
168,4.93907,3.94686,0.0143893
168.5,4.95437,3.95489,0.0131996
169,4.97028,3.95604,0.0132979
169.5,4.98555,3.96062,0.0128867
170,5.00154,3.98057,0.0145381
170.5,5.01725,3.9868,0.0159304
171,5.03262,3.99446,0.0178163
171.5,5.04827,4.00495,0.0208581
172,5.06359,4.00003,0.0232402
172.5,5.07904,4.00235,0.0245557
173,5.09446,4.01385,0.0245177
173.5,5.10996,4.01821,0.0239058
174,5.12519,4.02499,0.0223807
174.5,5.14089,4.02872,0.0222866
175,5.15658,4.03022,0.0212042
175.5,5.17135,4.04604,0.0205338
176,5.18699,4.05488,0.0205207
176.5,5.2024,4.05625,0.0209367
177,5.21726,4.06341,0.0221791
177.5,5.23316,4.0688,0.0222126
178,5.24866,4.07892,0.0233653
178.5,5.26406,4.08869,0.0234162
179,5.27927,4.09139,0.0228935
179.5,5.29436,4.09564,0.0220206
180,5.30957,4.10663,0.0220761
180.5,5.32514,4.11054,0.0213386
181,5.34082,4.11706,0.0206637
181.5,5.35607,4.11658,0.0194394
182,5.371,4.12991,0.0194497
182.5,5.38587,4.13471,0.0181824
183,5.40097,4.13393,0.0181226
183.5,5.41658,4.13517,0.0178228
184,5.43229,4.14942,0.0167843
184.5,5.44724,4.16244,0.0166277
185,5.4628,4.15825,0.0153294
185.5,5.47764,4.16699,0.014212
186,5.49321,4.17337,0.0141729
186.5,5.50846,4.17698,0.0141696
187,5.52339,4.18605,0.0141699
187.5,5.53853,4.19387,0.01417
188,5.55396,4.19557,0.01417
188.5,5.56913,4.19812,0.01417
189,5.58442,4.21115,0.01417
189.5,5.59936,4.21646,0.0141698
190,5.61482,4.22615,0.0141676
190.5,5.62935,4.23221,0.0141801
191,5.64493,4.24155,0.0143402
191.5,5.65987,4.24231,0.0155477
192,5.67533,4.2504,0.0166684
192.5,5.69059,4.25583,0.0171103
193,5.70549,4.26324,0.0184722
193.5,5.72068,4.26692,0.0183033
194,5.73573,4.27724,0.0194473
194.5,5.75091,4.28591,0.0198505
195,5.76603,4.29228,0.020398
195.5,5.78115,4.29671,0.0221571
196,5.79598,4.3057,0.0225126
196.5,5.81138,4.31615,0.0224946
197,5.82651,4.32108,0.0228989
197.5,5.84099,4.32849,0.0238565
198,5.85658,4.32641,0.0238218
198.5,5.87151,4.33813,0.0238293
199,5.88642,4.35014,0.0238302
199.5,5.90178,4.35389,0.0238302
200,5.91705,4.35176,0.0238283
200.5,5.93187,4.36237,0.0238198
201,5.94705,4.37388,0.023922
201.5,5.96186,4.37971,0.0226971
202,5.97744,4.3902,0.0225059
202.5,5.99159,4.3954,0.0225095
203,6.0072,4.39939,0.0225137
203.5,6.02234,4.40641,0.022515
204,6.0374,4.41175,0.0221987
204.5,6.0514,4.41967,0.0211807
205,6.06666,4.4252,0.0211067
205.5,6.08174,4.43504,0.0223222
206,6.09701,4.4428,0.0225164
206.5,6.1125,4.4491,0.0225162
207,6.12702,4.45518,0.0222004
207.5,6.14235,4.46389,0.0211648
208,6.15771,4.464,0.0212023
208.5,6.1724,4.47097,0.0211923
209,6.18746,4.4723,0.0211781
209.5,6.20277,4.47982,0.0210579
210,6.21747,4.47931,0.0199623
210.5,6.23284,4.48703,0.0198833
211,6.24761,4.49864,0.0198685
211.5,6.2629,4.5121,0.0198697
212,6.27768,4.51823,0.01987
212.5,6.29273,4.51838,0.01987
213,6.30787,4.5306,0.019871
213.5,6.32286,4.53818,0.0198715
214,6.33767,4.54714,0.0198187
214.5,6.35251,4.55671,0.0206484
215,6.36754,4.55503,0.0212639
215.5,6.38249,4.56126,0.0204899
216,6.3977,4.57236,0.0213074
216.5,6.41245,4.58114,0.0198953
217,6.42744,4.58647,0.020084
217.5,6.44228,4.59862,0.0213226
218,6.45756,4.60797,0.0212892
218.5,6.47244,4.61058,0.0213198
219,6.48757,4.61987,0.0210998
219.5,6.50227,4.63061,0.0202675
220,6.51694,4.62754,0.0203292
220.5,6.5323,4.62788,0.020321
221,6.54724,4.63877,0.0203199
221.5,6.56228,4.6457,0.02032
222,6.57692,4.65969,0.0203199
222.5,6.59203,4.66583,0.0203201
223,6.60724,4.67569,0.0203232
223.5,6.62203,4.68538,0.0203174
224,6.63706,4.69761,0.0201037
224.5,6.65202,4.71346,0.0190235
225,6.66688,4.72479,0.0190146
225.5,6.68195,4.73175,0.0189994
226,6.69641,4.74005,0.0189997
226.5,6.71165,4.74466,0.019
227,6.72635,4.76986,0.0190001
227.5,6.74147,4.77745,0.0190003
228,6.75667,4.79003,0.0189966
228.5,6.77141,4.80411,0.0189841
229,6.7863,4.81739,0.0193747
229.5,6.80132,4.83407,0.020356
230,6.81626,4.84783,0.0203099
230.5,6.83132,4.86205,0.0203194
231,6.84631,4.87943,0.0203205
231.5,6.86047,4.90108,0.0203184
232,6.87552,4.91414,0.0203057
232.5,6.89039,4.93347,0.0205397
233,6.90549,4.95575,0.0210015
233.5,6.92044,4.97309,0.0209757
234,6.93522,4.99841,0.020981
234.5,6.95088,5.02091,0.0209653
235,6.96564,5.04416,0.0209193
235.5,6.9805,5.07428,0.0198221
236,6.99555,5.0926,0.0196682
236.5,7.0107,5.12085,0.0196578
237,7.02583,5.15798,0.0196475
237.5,7.04065,5.19243,0.0196316
238,7.05567,5.22175,0.0184818
238.5,7.07047,5.25737,0.0182369
239,7.08538,5.29931,0.018226
239.5,7.10072,5.34065,0.0182298
240,7.11569,5.38156,0.0182301
240.5,7.1306,5.42298,0.01823
241,7.14575,5.47746,0.01823
241.5,7.16059,5.5218,0.01823
242,7.17523,5.57272,0.01823
242.5,7.19075,5.63226,0.0182298
243,7.20568,5.68433,0.0182303
243.5,7.22072,5.73306,0.0182423
244,7.23612,5.78388,0.0182052
244.5,7.25083,5.82889,0.0191007
245,7.26576,5.86059,0.0203519
245.5,7.28077,5.88509,0.0205346
246,7.2959,5.8965,0.0205463
246.5,7.3105,5.89955,0.0205492
247,7.32522,5.88591,0.0202333
247.5,7.34002,5.84988,0.0191011
248,7.35457,5.78962,0.0180317
248.5,7.3693,5.71623,0.0179104
249,7.38377,5.66517,0.0178977
249.5,7.39856,5.59929,0.0178997
250,7.4129,5.51383,0.0178978
250.5,7.42792,5.44445,0.0179098
251,7.44239,5.37655,0.0180126
251.5,7.45704,5.31262,0.0190971
252,7.47151,5.24917,0.0192109
252.5,7.48612,5.19429,0.0192244
253,7.50059,5.14734,0.0191255
253.5,7.51562,5.09856,0.0203517
254,7.53019,5.0526,0.0216158
254.5,7.54458,5.02429,0.0222639
255,7.55939,4.98455,0.023109
255.5,7.57403,4.95482,0.023048
256,7.58899,4.92161,0.0230424
256.5,7.60367,4.89527,0.0233052
257,7.61853,4.87406,0.0244436
257.5,7.63284,4.85884,0.0247301
258,7.64694,4.83912,0.0246941
258.5,7.66155,4.81834,0.0246942
259,7.67676,4.79519,0.0246487
259.5,7.69142,4.78399,0.0254964
260,7.70651,4.77474,0.025381
260.5,7.72113,4.77295,0.0247054
261,7.73573,4.75593,0.0247093
261.5,7.75064,4.74508,0.0247059
262,7.76546,4.73997,0.0237759
262.5,7.78016,4.73307,0.0233956
263,7.79494,4.72506,0.0233839
263.5,7.80978,4.72049,0.0233834
264,7.82461,4.71817,0.0233785
264.5,7.83945,4.72217,0.0239188
265,7.85419,4.72383,0.024711
265.5,7.8688,4.73014,0.0247084
266,7.88384,4.73316,0.02471
266.5,7.89835,4.73456,0.02471
267,7.9131,4.72524,0.02471
267.5,7.92788,4.721,0.02471
268,7.94285,4.71766,0.02471
268.5,7.95732,4.70707,0.0247099
269,7.97238,4.70859,0.0247091
269.5,7.98679,4.69655,0.0247175
270,8.00118,4.6916,0.0247357
270.5,8.01606,4.69488,0.0241021
271,8.03091,4.6928,0.0233863
271.5,8.04555,4.69298,0.0233915
272,8.06099,4.69702,0.0233905
272.5,8.07509,4.69421,0.023392
273,8.08981,4.6894,0.0233664
273.5,8.10438,4.68929,0.0232906
274,8.11936,4.68199,0.0218181
274.5,8.13449,4.68598,0.0206573
275,8.14966,4.67947,0.0207501
275.5,8.16436,4.68478,0.0207519
276,8.17917,4.67957,0.02075
276.5,8.19364,4.67953,0.0207499
277,8.2088,4.66915,0.0207502
277.5,8.22319,4.67011,0.0207528
278,8.2383,4.67981,0.020739
278.5,8.25269,4.67227,0.0206191
279,8.26792,4.6751,0.0195908
279.5,8.28248,4.67718,0.0186708
280,8.2973,4.68346,0.0181088
280.5,8.31193,4.67372,0.0181313
281,8.32696,4.67433,0.0180379
281.5,8.34158,4.67489,0.019243
282,8.35634,4.68063,0.0195471
282.5,8.37093,4.68088,0.01952
283,8.38602,4.67984,0.0201311
283.5,8.40078,4.67369,0.0209832
284,8.41543,4.67794,0.0213598
284.5,8.43047,4.67889,0.0236332
285,8.44493,4.67472,0.0234799
285.5,8.45987,4.6819,0.023499
286,8.47455,4.67832,0.0232815
286.5,8.4893,4.67599,0.0219498
287,8.50428,4.67956,0.0215313
287.5,8.51907,4.67317,0.0191728
288,8.53398,4.67132,0.0191043
288.5,8.54883,4.67398,0.0191205
289,8.5636,4.67075,0.019081
289.5,8.57821,4.67684,0.020138
290,8.59333,4.67657,0.0191218
290.5,8.60787,4.67913,0.0199924
291,8.62272,4.67851,0.0206749
291.5,8.63761,4.67726,0.0205896
292,8.65249,4.67192,0.0214926
292.5,8.66736,4.67548,0.021962
293,8.68176,4.67706,0.0219807
293.5,8.69682,4.66624,0.0221746
294,8.71152,4.66679,0.0232642
294.5,8.72637,4.66742,0.0232794
295,8.74107,4.66578,0.0232738
295.5,8.75591,4.66206,0.0237984
296,8.77081,4.66417,0.0246637
296.5,8.78554,4.66503,0.0246056
297,8.80042,4.6607,0.0245984
297.5,8.81533,4.65929,0.0246
298,8.82964,4.6575,0.0246
298.5,8.84427,4.65786,0.0245999
299,8.85978,4.66057,0.0246022
299.5,8.87469,4.65613,0.024602
300,8.88945,4.66453,0.0255039
300.5,8.9041,4.65487,0.0259192
301,8.91907,4.64813,0.0259277
301.5,8.93362,4.64914,0.025959
302,8.94827,4.64628,0.0253858
302.5,8.96339,4.64251,0.0245473
303,8.97841,4.64313,0.0246039
303.5,8.99299,4.64314,0.0246013
304,9.00774,4.64465,0.0245984
304.5,9.02272,4.64072,0.0245861
305,9.03749,4.63547,0.0246797
305.5,9.05171,4.63404,0.0234808
306,9.06728,4.63838,0.0232744
306.5,9.08212,4.63839,0.0232793
307,9.09646,4.62951,0.0232802
307.5,9.11153,4.625,0.0232798
308,9.12627,4.61911,0.0232798
308.5,9.14105,4.61794,0.0232887
309,9.15569,4.6146,0.0232872
309.5,9.17067,4.61178,0.0229277
310,9.18524,4.61083,0.0222785
310.5,9.20067,4.6085,0.0222908
311,9.21532,4.6052,0.0222907
311.5,9.23007,4.59725,0.0222834
312,9.24477,4.59384,0.022268
312.5,9.25963,4.59572,0.0228734
313,9.27453,4.59181,0.0236156
313.5,9.28921,4.59081,0.0236081
314,9.30409,4.58886,0.0236095
314.5,9.31897,4.58537,0.023599
315,9.33395,4.58063,0.0236371
315.5,9.3487,4.57352,0.0219706
316,9.36365,4.56184,0.0209178
316.5,9.37849,4.55831,0.0209637
317,9.39324,4.55627,0.0209732
317.5,9.408,4.55176,0.0213797
318,9.42283,4.54985,0.0223939
318.5,9.43784,4.54651,0.0223954
319,9.45245,4.53986,0.0223994
319.5,9.4676,4.53127,0.0223765
320,9.48232,4.52407,0.0224403
320.5,9.49681,4.52264,0.0210106
321,9.51207,4.5259,0.0206426
321.5,9.52679,4.5175,0.0188702
322,9.54173,4.51753,0.0184424
322.5,9.55669,4.50181,0.0172865
323,9.57124,4.50603,0.0173975
323.5,9.58618,4.49837,0.0177153
324,9.60122,4.48918,0.017633
324.5,9.61588,4.47307,0.0187937
325,9.63062,4.47586,0.0202313
325.5,9.64556,4.47291,0.022367
326,9.66051,4.4683,0.0229978
326.5,9.67534,4.47254,0.0249334
327,9.6902,4.46999,0.0251704
327.5,9.70537,4.47054,0.0251247
328,9.71955,4.45707,0.0245071
328.5,9.73434,4.45809,0.0235111
329,9.74914,4.45297,0.0237265
329.5,9.76417,4.44576,0.0220814
330,9.77948,4.4367,0.0212809
330.5,9.79427,4.42402,0.0195964
331,9.80918,4.40798,0.0183331
331.5,9.82416,4.39997,0.0170765
332,9.83887,4.3907,0.0154323
332.5,9.85408,4.38178,0.0134796
333,9.86881,4.37236,0.0117027
333.5,9.8835,4.36513,0.0100308
334,9.89871,4.35129,0.00795737
334.5,9.91337,4.34419,0.00803885
335,9.92823,4.33944,0.00983546
335.5,9.94327,4.33849,0.0120923
336,9.95813,4.32062,0.0144585
336.5,9.97299,4.3133,0.0162671
337,9.98807,4.3063,0.0181047
337.5,10.0028,4.29776,0.0191994
338,10.0177,4.2849,0.0211385
338.5,10.0321,4.2839,0.0215364
339,10.0474,4.27277,0.0207223
339.5,10.0624,4.25265,0.0199271
340,10.0774,4.23933,0.0186077
340.5,10.092,4.23789,0.0174666
341,10.107,4.22772,0.0170563
341.5,10.122,4.22435,0.0160913
342,10.1364,4.21359,0.0161481
342.5,10.1511,4.20079,0.0161368
343,10.1664,4.19366,0.0161906
343.5,10.1816,4.17481,0.0153325
344,10.1962,4.16081,0.0145567
344.5,10.2113,4.14579,0.0135304
345,10.2261,4.13728,0.0131589
345.5,10.2414,4.1222,0.0121508
346,10.2562,4.11282,0.0122003
346.5,10.2711,4.09524,0.0121915
347,10.2861,4.1002,0.012177
347.5,10.3011,4.0863,0.0121402
348,10.3159,4.07625,0.0110319
348.5,10.331,4.06184,0.0108891
349,10.3459,4.04704,0.00959937
349.5,10.3605,4.04284,0.00955082
350,10.3757,4.02669,0.00946663
350.5,10.3906,4.01691,0.00818896
351,10.4057,4.00235,0.00798163
351.5,10.4205,3.988,0.00689532
352,10.4357,3.97805,0.00570446
352.5,10.4503,3.96219,0.00507473
353,10.4651,3.95695,0.00369308
353.5,10.4801,3.94405,0.0026244
354,10.4951,3.92965,0.00190666
354.5,10.5102,3.91136,0.000176603
355,10.5253,3.90758,-0.000277607
355.5,10.54,3.89161,-0.00176211
356,10.555,3.88433,-0.000725469
356.5,10.57,3.87019,-0.00197631
357,10.5847,3.85847,-0.00218789
357.5,10.5999,3.84893,-0.00313988
358,10.6151,3.83127,-0.00227363
358.5,10.63,3.81689,-0.00293484
359,10.6449,3.80422,-0.00187251
359.5,10.6596,3.80889,-0.00149992
360,10.6749,3.78598,-0.00185462
360.5,10.6899,3.78508,-0.00173563
361,10.7045,3.77616,-0.00217826
361.5,10.7196,3.75696,-0.00466807
362,10.7346,3.73554,-0.00598786
362.5,10.7495,3.72035,-0.00751882
363,10.7648,3.70672,-0.00974401
363.5,10.7797,3.68819,-0.0104166
364,10.7946,3.67303,-0.0120878
364.5,10.8097,3.66335,-0.0143853
365,10.8249,3.66217,-0.0153355
365.5,10.8393,3.65945,-0.0168739
366,10.8542,3.64442,-0.0179638
366.5,10.8695,3.63986,-0.0191736
367,10.8848,3.63352,-0.0210268
367.5,10.8998,3.63121,-0.0227201
368,10.9147,3.61581,-0.0232257
368.5,10.9297,3.60536,-0.0243497
369,10.9449,3.60161,-0.0244414
369.5,10.9599,3.59395,-0.0248301
370,10.9748,3.59325,-0.0264761
370.5,10.99,3.58481,-0.0271004
371,11.0049,3.57746,-0.0276815
371.5,11.0202,3.57398,-0.0288854
372,11.0353,3.57228,-0.0303453
372.5,11.0503,3.57355,-0.0309749
373,11.0653,3.57175,-0.0310866
373.5,11.0806,3.56914,-0.0324336
374,11.0958,3.57558,-0.0321679
374.5,11.1106,3.57555,-0.0335088
375,11.126,3.57055,-0.0349502
375.5,11.1406,3.57313,-0.0350042
376,11.1559,3.57317,-0.0365903
376.5,11.1709,3.57763,-0.0383761
377,11.1863,3.58262,-0.0400881
377.5,11.2015,3.58744,-0.0422717
378,11.2167,3.58699,-0.0449834
378.5,11.2317,3.59874,-0.046102
379,11.2468,3.61002,-0.047755
379.5,11.262,3.61218,-0.0506009
380,11.2772,3.62696,-0.0532476
380.5,11.2921,3.63762,-0.053759
381,11.3072,3.6448,-0.0552386
381.5,11.3224,3.65407,-0.0573631
382,11.3378,3.66051,-0.0587691
382.5,11.3527,3.68205,-0.0620308
383,11.3677,3.69636,-0.0644396
383.5,11.3832,3.70811,-0.0655682
384,11.3983,3.71728,-0.067405
384.5,11.4135,3.72804,-0.0695738
385,11.4285,3.74789,-0.0713985
385.5,11.4439,3.76526,-0.0733982
386,11.459,3.78685,-0.0747053
386.5,11.4741,3.80101,-0.0751805
387,11.4893,3.81415,-0.0758996
387.5,11.5044,3.83802,-0.0769045
388,11.5196,3.85857,-0.0792443
388.5,11.535,3.86117,-0.0810196
389,11.5502,3.88352,-0.0810089
389.5,11.5655,3.89545,-0.0822093
390,11.5808,3.90107,-0.0833367
390.5,11.5956,3.9317,-0.0838956
391,11.6109,3.94598,-0.0867734
391.5,11.6262,3.95518,-0.087231
392,11.6414,3.97846,-0.0890859
392.5,11.6568,3.99783,-0.0912607
393,11.6721,4.01431,-0.0927503
393.5,11.6872,4.02753,-0.0947884
394,11.7023,4.04413,-0.0965174
394.5,11.7177,4.05435,-0.0987388
395,11.733,4.06737,-0.101087
395.5,11.7479,4.0747,-0.103599
396,11.7632,4.08516,-0.107626
396.5,11.7787,4.10314,-0.109455
397,11.7937,4.1233,-0.111569
397.5,11.8092,4.13206,-0.114408
398,11.8244,4.13445,-0.115943
398.5,11.8396,4.14308,-0.118086
399,11.8549,4.1455,-0.120175
399.5,11.87,4.15633,-0.122671
400,11.8855,4.15941,-0.125151
400.5,11.9007,4.1654,-0.127547
401,11.916,4.17275,-0.130333
401.5,11.9316,4.17614,-0.13344
402,11.9466,4.17567,-0.13537
402.5,11.9618,4.19425,-0.138149
403,11.9771,4.19947,-0.141235
403.5,11.9924,4.18922,-0.143317
404,12.0078,4.2003,-0.146379
404.5,12.023,4.20698,-0.148747
405,12.0382,4.20076,-0.151334
405.5,12.0536,4.20136,-0.154052
406,12.0688,4.20418,-0.156245
406.5,12.0842,4.20283,-0.159546
407,12.0995,4.21116,-0.161878
407.5,12.1147,4.21292,-0.164227
408,12.1299,4.21168,-0.167037
408.5,12.1455,4.22311,-0.168261
409,12.1611,4.22479,-0.171028
409.5,12.1761,4.22953,-0.174228
410,12.1914,4.23434,-0.176652
410.5,12.2065,4.24017,-0.179806
411,12.2219,4.24183,-0.182638
411.5,12.237,4.24309,-0.186724
412,12.2526,4.24962,-0.190085
412.5,12.2681,4.25032,-0.194836
413,12.2835,4.26291,-0.19812
413.5,12.2987,4.26443,-0.20285
414,12.3141,4.26496,-0.206822
414.5,12.3293,4.27402,-0.210222
415,12.3446,4.29077,-0.215176
415.5,12.3604,4.30087,-0.218141
416,12.3757,4.2972,-0.221486
416.5,12.3905,4.29763,-0.226133
417,12.4061,4.30645,-0.230793
417.5,12.4217,4.31566,-0.234894
418,12.4368,4.32181,-0.238546
418.5,12.4516,4.33136,-0.241959
419,12.4676,4.34002,-0.246468
419.5,12.4829,4.35092,-0.250408
420,12.4982,4.36564,-0.254594
420.5,12.5138,4.36957,-0.259062
421,12.529,4.37143,-0.26194
421.5,12.5446,4.38302,-0.265927
422,12.5595,4.39348,-0.268495
422.5,12.5753,4.40435,-0.272393
423,12.5905,4.41421,-0.277186
423.5,12.6059,4.42298,-0.281285
424,12.6214,4.4282,-0.285246
424.5,12.6368,4.42198,-0.290742
425,12.652,4.43362,-0.295946
425.5,12.6674,4.45026,-0.302715
426,12.6832,4.45846,-0.307714
426.5,12.6978,4.46657,-0.31419
427,12.714,4.46959,-0.32057
427.5,12.7292,4.47548,-0.325655
428,12.7447,4.48236,-0.333437
428.5,12.7601,4.48378,-0.3393
429,12.7753,4.48203,-0.345084
429.5,12.7908,4.48504,-0.352594
430,12.8063,4.50236,-0.358404
430.5,12.8216,4.50526,-0.366084
431,12.837,4.49914,-0.373523
431.5,12.8518,4.51353,-0.380273
432,12.8672,4.50877,-0.388501
432.5,12.8831,4.51655,-0.394911
433,12.898,4.52207,-0.401829
433.5,12.9138,4.48932,-0.409936
434,12.9293,4.46173,-0.415742
434.5,12.9447,4.4519,-0.423172
435,12.9595,4.4444,-0.429704
435.5,12.9755,4.43199,-0.436831
436,12.9908,4.4179,-0.44543
436.5,13.0065,4.41027,-0.452307
437,13.0213,4.41118,-0.460004
437.5,13.0367,4.39961,-0.468061
438,13.0523,4.39495,-0.475298
438.5,13.0677,4.39151,-0.484483
439,13.0832,4.38072,-0.491775
439.5,13.0988,4.38492,-0.500288
440,13.114,4.39634,-0.509523
440.5,13.1296,4.41016,-0.51708
441,13.145,4.42032,-0.526724
441.5,13.1599,4.42382,-0.534505
442,13.1752,4.43064,-0.541748
442.5,13.1912,4.42554,-0.552296
443,13.2069,4.43616,-0.559109
443.5,13.2223,4.44044,-0.567806
444,13.2376,4.44055,-0.576965
444.5,13.2529,4.43826,-0.585492
445,13.2682,4.43805,-0.596694
445.5,13.2838,4.44517,-0.605555
446,13.2996,4.44583,-0.616109
446.5,13.3148,4.45412,-0.627103
447,13.3306,4.45748,-0.636716
447.5,13.3459,4.46276,-0.648557
448,13.3613,4.45867,-0.658488
448.5,13.3767,4.44614,-0.669029
449,13.3921,4.44759,-0.681759
449.5,13.4076,4.46106,-0.691032
450,13.4231,4.45815,-0.702914
450.5,13.4388,4.45832,-0.71439
451,13.4541,4.45992,-0.725328
451.5,13.4696,4.46137,-0.739364
452,13.4851,4.45338,-0.749665
452.5,13.5006,4.43774,-0.761866
453,13.5161,4.42066,-0.773609
453.5,13.5312,4.41679,-0.782904
454,13.5469,4.41207,-0.795708
454.5,13.5623,4.3967,-0.805707
455,13.5779,4.38707,-0.817028
455.5,13.5931,4.37888,-0.830011
456,13.6089,4.36094,-0.840275
456.5,13.624,4.3438,-0.8522
457,13.6397,4.31818,-0.862834
457.5,13.655,4.30299,-0.87382
458,13.6705,4.2837,-0.88749
458.5,13.6858,4.26281,-0.898168
459,13.7011,4.2281,-0.910625
459.5,13.7163,4.19036,-0.923034
460,13.732,4.17687,-0.934232
460.5,13.7475,4.14185,-0.947368
461,13.7629,4.13018,-0.957286
461.5,13.7784,4.10058,-0.969114
462,13.7937,4.06276,-0.982208
462.5,13.809,4.03483,-0.992829
463,13.8248,4.00032,-1.00623
463.5,13.8405,3.96243,-1.01688
464,13.8557,3.93025,-1.02815
464.5,13.8709,3.89727,-1.04131
465,13.8865,3.86405,-1.05027
465.5,13.9019,3.8359,-1.06302
466,13.9174,3.79807,-1.07535
466.5,13.9327,3.76703,-1.08542
467,13.9483,3.73796,-1.09913
467.5,13.9636,3.69652,-1.10962
468,13.979,3.6511,-1.12219
468.5,13.9945,3.59647,-1.1359
469,14.0097,3.5567,-1.14618
469.5,14.0253,3.51607,-1.15928
470,14.0408,3.48496,-1.17042
470.5,14.0562,3.44047,-1.18306
471,14.0714,3.40195,-1.19716
471.5,14.0872,3.34773,-1.2093
472,14.1023,3.29261,-1.22206
472.5,14.1178,3.23395,-1.23366
473,14.133,3.15972,-1.24472
473.5,14.1484,3.09414,-1.25758
474,14.1638,3.03475,-1.26786
474.5,14.1795,2.96616,-1.28011
475,14.1943,2.90349,-1.29256
475.5,14.2098,2.854,-1.30284
476,14.2254,2.81696,-1.31592
476.5,14.2411,2.77881,-1.32706
477,14.2567,2.74858,-1.33894
477.5,14.2718,2.73818,-1.35325
478,14.2876,2.72682,-1.36511
478.5,14.3032,2.75071,-1.37848
479,14.319,2.78136,-1.39035
479.5,14.3344,2.82609,-1.40145
480,14.3502,2.84435,-1.4161
480.5,14.3661,2.91673,-1.42772
481,14.382,2.97653,-1.44247
481.5,14.3979,3.04722,-1.45644
482,14.4135,3.10317,-1.46924
482.5,14.4296,3.16941,-1.48415
483,14.4455,3.21867,-1.49617
483.5,14.4609,3.25023,-1.51026
484,14.4767,3.28261,-1.52485
484.5,14.4926,3.30877,-1.53805
485,14.5084,3.34364,-1.555
485.5,14.5238,3.36599,-1.56777
486,14.5399,3.38821,-1.58287
486.5,14.5553,3.41969,-1.59784
487,14.5711,3.46164,-1.61005
487.5,14.5869,3.51399,-1.62506
488,14.6031,3.56152,-1.63737
488.5,14.6191,3.60288,-1.65031
489,14.6347,3.64144,-1.6648
489.5,14.6504,3.67476,-1.6763
490,14.6664,3.71535,-1.69117
490.5,14.6816,3.74032,-1.70276
491,14.6977,3.76971,-1.71653
491.5,14.7132,3.78872,-1.73184
492,14.7292,3.79747,-1.74392
492.5,14.7447,3.82104,-1.75884
493,14.761,3.83733,-1.77224
493.5,14.7763,3.83742,-1.78542
494,14.7924,3.83698,-1.802
494.5,14.8079,3.84186,-1.81398
495,14.8239,3.84412,-1.83043
495.5,14.8392,3.83804,-1.8435
496,14.8551,3.83546,-1.85673
496.5,14.8707,3.82231,-1.8728
497,14.8862,3.79907,-1.88385
497.5,14.902,3.78699,-1.89864
498,14.9175,3.77956,-1.91271
498.5,14.9331,3.75586,-1.92528
499,14.9491,3.73377,-1.9419
499.5,14.9647,3.70254,-1.95438
500,14.98,3.66237,-1.96957
500.5,14.996,3.63456,-1.9861
501,15.0112,3.58412,-1.99879
501.5,15.027,3.55118,-2.01481
502,15.0426,3.51729,-2.02756
502.5,15.0581,3.47329,-2.04238
503,15.074,3.43468,-2.05998
503.5,15.0895,3.39461,-2.07376
504,15.1049,3.33977,-2.09064
504.5,15.1206,3.2919,-2.10461
505,15.136,3.2482,-2.11802
505.5,15.1517,3.18812,-2.13351
506,15.1674,3.12582,-2.14534
506.5,15.1831,3.07911,-2.15999
507,15.1985,3.01302,-2.17363
507.5,15.2139,2.95666,-2.18689
508,15.2296,2.89306,-2.20439
508.5,15.2451,2.8324,-2.21712
509,15.2603,2.77277,-2.23194
509.5,15.276,2.70652,-2.24686
510,15.2916,2.63874,-2.25753
510.5,15.3074,2.5709,-2.27214
511,15.3228,2.5068,-2.28163
511.5,15.3381,2.45361,-2.29248
512,15.3539,2.39164,-2.30514
512.5,15.3693,2.33228,-2.31502
513,15.385,2.27024,-2.32777
513.5,15.4002,2.21138,-2.33964
514,15.416,2.15073,-2.35248
514.5,15.4317,2.08567,-2.36759
515,15.447,2.03222,-2.37888
515.5,15.4627,1.97994,-2.39395
516,15.4782,1.9273,-2.40785
516.5,15.4938,1.87106,-2.4209
517,15.5094,1.81379,-2.43671
517.5,15.5252,1.76683,-2.44914
518,15.5405,1.71494,-2.46381
518.5,15.5562,1.67636,-2.47914
519,15.5719,1.63644,-2.49207
519.5,15.5876,1.58588,-2.50745
520,15.6031,1.55839,-2.51804
520.5,15.6193,1.51092,-2.53057
521,15.6345,1.46747,-2.54341
521.5,15.6502,1.43144,-2.55361
522,15.6657,1.41144,-2.56721
522.5,15.6814,1.37221,-2.57908
523,15.6973,1.33627,-2.59198
523.5,15.7129,1.30819,-2.60597
524,15.7287,1.28332,-2.61598
524.5,15.7441,1.25188,-2.62784
525,15.7599,1.21862,-2.63885
525.5,15.7756,1.19082,-2.65075
526,15.7911,1.17281,-2.66371
526.5,15.8069,1.14652,-2.67482
527,15.8228,1.1222,-2.68718
527.5,15.8385,1.08843,-2.69789
528,15.854,1.05805,-2.70928
528.5,15.8698,1.03372,-2.72197
529,15.8855,1.00927,-2.73211
529.5,15.9012,0.986137,-2.74261
530,15.9171,0.964857,-2.75175
530.5,15.9326,0.960515,-2.75977
531,15.9486,0.93635,-2.77014
531.5,15.9642,0.903756,-2.77744
532,15.9801,0.885503,-2.78627
532.5,15.9955,0.868616,-2.79587
533,16.0117,0.851023,-2.80363
533.5,16.0274,0.828057,-2.81363
534,16.0432,0.815086,-2.82153
534.5,16.0589,0.793804,-2.83019
535,16.0748,0.778809,-2.83879
535.5,16.0907,0.769227,-2.84431
536,16.1064,0.74296,-2.851
536.5,16.1224,0.705472,-2.85619
537,16.1382,0.698394,-2.86134
537.5,16.1536,0.684785,-2.86698
538,16.1696,0.666801,-2.87227
538.5,16.1854,0.647359,-2.87908
539,16.2011,0.62774,-2.88466
539.5,16.2172,0.611581,-2.89103
540,16.2327,0.583193,-2.8994
540.5,16.2487,0.565931,-2.90612
541,16.2644,0.545039,-2.91259
541.5,16.2802,0.521691,-2.91546
542,16.2961,0.498721,-2.9183
542.5,16.3121,0.480834,-2.9214
543,16.3278,0.466408,-2.92645
543.5,16.3435,0.44188,-2.93119
544,16.3596,0.418631,-2.93707
544.5,16.3751,0.399011,-2.94269
545,16.391,0.375935,-2.94693
545.5,16.4069,0.357592,-2.95144
546,16.4228,0.339682,-2.95407
546.5,16.4384,0.308726,-2.95757
547,16.4546,0.293144,-2.96074
547.5,16.4702,0.282086,-2.96389
548,16.486,0.264662,-2.96828
548.5,16.5022,0.236067,-2.97176
549,16.5179,0.209696,-2.97413
549.5,16.5335,0.192345,-2.97744
550,16.5495,0.18056,-2.98053
550.5,16.5656,0.147081,-2.98379
551,16.5812,0.122155,-2.98742
551.5,16.5972,0.104457,-2.98944
552,16.6133,0.0848801,-2.99206
552.5,16.629,0.0686603,-2.99492
553,16.6449,0.0509342,-2.99814
553.5,16.6606,0.032698,-3.002
554,16.6767,0.0154819,-3.00597
554.5,16.6926,0.00568577,-3.00919
555,16.7083,-0.00818406,-3.01334
555.5,16.7245,-0.0231774,-3.01702
556,16.7398,-0.0424626,-3.02046
556.5,16.7562,-0.0688789,-3.02365
557,16.7716,-0.0874362,-3.0264
557.5,16.7881,-0.0961954,-3.028
558,16.8037,-0.105438,-3.03193
558.5,16.8195,-0.110242,-3.03555
559,16.8357,-0.114882,-3.03793
559.5,16.8516,-0.119175,-3.04112
560,16.8677,-0.134983,-3.04407
560.5,16.8836,-0.151491,-3.04548
561,16.8997,-0.15507,-3.04658
561.5,16.9153,-0.171614,-3.04795
562,16.9315,-0.179545,-3.04997
562.5,16.9474,-0.189282,-3.05241
563,16.9633,-0.196597,-3.05432
563.5,16.9792,-0.214223,-3.05674
564,16.995,-0.220124,-3.05873
564.5,17.0112,-0.221351,-3.06044
565,17.0271,-0.225435,-3.06222
565.5,17.0426,-0.233727,-3.06406
566,17.0592,-0.247567,-3.06474
566.5,17.0748,-0.25904,-3.06563
567,17.091,-0.257214,-3.06789
567.5,17.1069,-0.262638,-3.07015
568,17.1229,-0.272291,-3.0715
568.5,17.1389,-0.2843,-3.07278
569,17.1551,-0.287572,-3.07452
569.5,17.1706,-0.297589,-3.07554
570,17.1869,-0.298833,-3.07772
570.5,17.2031,-0.316254,-3.08009
571,17.2191,-0.326011,-3.08252
571.5,17.2349,-0.331399,-3.08443
572,17.251,-0.333222,-3.08594
572.5,17.2671,-0.339982,-3.08739
573,17.2831,-0.346397,-3.08857
573.5,17.299,-0.353058,-3.09008
574,17.315,-0.359031,-3.09223
574.5,17.3311,-0.375987,-3.09387
575,17.3469,-0.404485,-3.09517
575.5,17.3629,-0.445469,-3.09511
576,17.3792,-0.414779,-3.0965
576.5,17.3952,-0.405735,-3.09799
577,17.4109,-0.389952,-3.09913
577.5,17.4271,-0.390659,-3.09936
578,17.443,-0.401364,-3.1001
578.5,17.4593,-0.405843,-3.1013
579,17.4753,-0.407858,-3.10276
579.5,17.4913,-0.40645,-3.10364
580,17.5075,-0.410071,-3.1043
580.5,17.5231,-0.41044,-3.10608
581,17.5394,-0.411392,-3.10758
581.5,17.5553,-0.416961,-3.1085
582,17.5716,-0.417491,-3.11011
582.5,17.5876,-0.426215,-3.11193
583,17.6037,-0.429178,-3.11325
583.5,17.6198,-0.429965,-3.11476
584,17.6358,-0.436538,-3.11657
584.5,17.6519,-0.449118,-3.11852
585,17.668,-0.452729,-3.11992
585.5,17.684,-0.457454,-3.12107
586,17.7002,-0.459432,-3.12191
586.5,17.7159,-0.474891,-3.12336
587,17.7323,-0.481093,-3.12406
587.5,17.7484,-0.484132,-3.12565
588,17.7642,-0.487935,-3.12815
588.5,17.7804,-0.487464,-3.12986
589,17.7963,-0.48935,-3.13074
589.5,17.8126,-0.492562,-3.13244
590,17.8288,-0.496702,-3.13482
590.5,17.8449,-0.480861,-3.13571
591,17.8611,-0.458795,-3.13733
591.5,17.8769,-0.460258,-3.13869
592,17.8931,-0.468843,-3.1391
592.5,17.9095,-0.475174,-3.14019
593,17.9252,-0.483125,-3.14144
593.5,17.9413,-0.49246,-3.14144
594,17.9574,-0.491552,-3.14282
594.5,17.9736,-0.495343,-3.14289
595,17.9898,-0.49886,-3.14417
595.5,18.0057,-0.507324,-3.14415
596,18.0218,-0.501496,-3.14416
596.5,18.038,-0.501358,-3.14564
597,18.054,-0.500256,-3.146
597.5,18.0702,-0.503602,-3.14758
598,18.0865,-0.505984,-3.14826
598.5,18.1024,-0.506297,-3.14926
599,18.1182,-0.508255,-3.15063
599.5,18.1347,-0.506091,-3.151
600,18.151,-0.514846,-3.15242
600.5,18.1668,-0.524408,-3.15324
601,18.1832,-0.536187,-3.15408
601.5,18.1992,-0.547246,-3.15395
602,18.2154,-0.543295,-3.15394
602.5,18.2314,-0.599106,-3.15406
603,18.2474,-0.599583,-3.15548
603.5,18.2637,-0.601028,-3.15604
604,18.2799,-0.609092,-3.1573
604.5,18.296,-0.60101,-3.15952
605,18.3117,-0.599855,-3.16037
605.5,18.3281,-0.593808,-3.16185
606,18.3443,-0.596118,-3.16233
606.5,18.3604,-0.607719,-3.16349
607,18.3766,-0.609476,-3.16487
607.5,18.3926,-0.603943,-3.16533
608,18.4089,-0.606162,-3.16707
608.5,18.4251,-0.60871,-3.16768
609,18.4409,-0.619271,-3.16876
609.5,18.4573,-0.622301,-3.16892
610,18.4734,-0.616324,-3.17018
610.5,18.4897,-0.634868,-3.17008
611,18.5056,-0.645676,-3.17102
611.5,18.522,-0.63468,-3.17139
612,18.5378,-0.634936,-3.17158
612.5,18.554,-0.633282,-3.17395
613,18.5703,-0.630536,-3.17403
613.5,18.5868,-0.638628,-3.17412
614,18.603,-0.643962,-3.17332
614.5,18.6193,-0.639788,-3.17413
615,18.6354,-0.639428,-3.17446
615.5,18.6514,-0.64796,-3.17597
616,18.6676,-0.64639,-3.17532
616.5,18.6837,-0.648304,-3.17612
617,18.6998,-0.650471,-3.17599
617.5,18.7162,-0.645642,-3.17612
618,18.7322,-0.655403,-3.17551
618.5,18.7483,-0.657387,-3.17598
619,18.7648,-0.652949,-3.17467
619.5,18.7807,-0.656592,-3.17628
620,18.7964,-0.657035,-3.17699
620.5,18.8126,-0.66582,-3.17814
621,18.8292,-0.6671,-3.18018
621.5,18.8454,-0.676604,-3.18162
622,18.8618,-0.677093,-3.18285
622.5,18.8779,-0.668975,-3.18427
623,18.8933,-0.671806,-3.18423
623.5,18.9098,-0.681026,-3.18565
624,18.9262,-0.686812,-3.18581
624.5,18.9426,-0.681728,-3.18709
625,18.9586,-0.680393,-3.18708
625.5,18.975,-0.684205,-3.18708
626,18.9912,-0.686783,-3.18755
626.5,19.0075,-0.688867,-3.18845
627,19.0238,-0.691726,-3.188
627.5,19.0395,-0.690828,-3.18693
628,19.0562,-0.690841,-3.18809
628.5,19.072,-0.687828,-3.18697
629,19.0881,-0.688737,-3.18753
629.5,19.1046,-0.695754,-3.18835
630,19.1207,-0.700437,-3.1883
630.5,19.1372,-0.705087,-3.1883
631,19.1531,-0.708374,-3.1883
631.5,19.1694,-0.70679,-3.1883
632,19.1855,-0.706915,-3.18834
632.5,19.202,-0.711319,-3.18765
633,19.2182,-0.716022,-3.18694
633.5,19.2341,-0.717757,-3.18699
634,19.2507,-0.718313,-3.18701
634.5,19.267,-0.718682,-3.18826
635,19.2831,-0.718106,-3.18841
635.5,19.2994,-0.72656,-3.18992
636,19.3155,-0.740189,-3.18999
636.5,19.3314,-0.741237,-3.19157
637,19.348,-0.747588,-3.19141
637.5,19.364,-0.753906,-3.19051
638,19.3804,-0.745561,-3.19116
638.5,19.3966,-0.74858,-3.19116
639,19.4128,-0.756837,-3.1918
639.5,19.4294,-0.758353,-3.19249
640,19.4453,-0.759893,-3.1925
640.5,19.4616,-0.761473,-3.19254
641,19.4777,-0.774277,-3.1939
641.5,19.494,-0.783292,-3.19419
642,19.5107,-0.781336,-3.19558
642.5,19.5265,-0.77851,-3.19562
643,19.542,-0.787917,-3.19714
643.5,19.5584,-0.792583,-3.19609
644,19.5748,-0.79732,-3.1973
644.5,19.5908,-0.800088,-3.19721
645,19.6079,-0.805877,-3.19732
645.5,19.6242,-0.807467,-3.19721
646,19.6402,-0.819586,-3.19842
646.5,19.6565,-0.812226,-3.19872
647,19.6729,-0.815914,-3.19945
647.5,19.6891,-0.823209,-3.19999
648,19.7054,-0.830103,-3.20075
648.5,19.7216,-0.832755,-3.20072
649,19.7378,-0.834952,-3.20067
649.5,19.754,-0.831097,-3.20231
650,19.7703,-0.843754,-3.20347
650.5,19.7862,-0.843926,-3.20445
651,19.8024,-0.848932,-3.20496
651.5,19.8192,-0.853324,-3.20651
652,19.8354,-0.852337,-3.2067
652.5,19.8516,-0.857794,-3.20675
653,19.8683,-0.865309,-3.20668
653.5,19.884,-0.87213,-3.20783
654,19.9004,-0.872611,-3.20773
654.5,19.9166,-0.873071,-3.20763
655,19.9328,-0.881132,-3.20884
655.5,19.9491,-0.888714,-3.20905
656,19.9656,-0.88996,-3.20905
656.5,19.9818,-0.902521,-3.20905
657,19.998,-0.916573,-3.20905
657.5,20.0144,-0.942243,-3.20905
658,20.0307,-0.950505,-3.20905
658.5,20.0465,-0.956689,-3.20905
659,20.0629,-0.958104,-3.20907
659.5,20.0791,-0.967312,-3.20902
660,20.0954,-0.975367,-3.21033
660.5,20.1119,-0.987794,-3.21036
661,20.1281,-1.00081,-3.21061
661.5,20.1439,-0.998548,-3.21207
662,20.1606,-1.00485,-3.213
662.5,20.1769,-1.01403,-3.21342
663,20.193,-1.02273,-3.21449
663.5,20.2094,-1.02342,-3.21442
664,20.2258,-1.03627,-3.21555
664.5,20.2417,-1.03902,-3.21527
665,20.2579,-1.04978,-3.21427
665.5,20.2743,-1.05081,-3.21264
666,20.2906,-1.06183,-3.21041
666.5,20.3067,-1.06989,-3.20855
667,20.3232,-1.07737,-3.20707
667.5,20.3394,-1.08777,-3.20698
668,20.3556,-1.08344,-3.20698
668.5,20.3718,-1.08993,-3.20705
669,20.3883,-1.09378,-3.20822
669.5,20.4044,-1.09915,-3.20828
670,20.4208,-1.10127,-3.20829
670.5,20.4372,-1.1141,-3.20829
671,20.4526,-1.11878,-3.20829
671.5,20.4695,-1.1253,-3.20829
672,20.486,-1.13531,-3.20826
672.5,20.5022,-1.1394,-3.20872
673,20.5185,-1.14382,-3.20894
673.5,20.5346,-1.16072,-3.20983
674,20.551,-1.16343,-3.21033
674.5,20.5672,-1.17179,-3.21111
675,20.5835,-1.18477,-3.21169
675.5,20.5995,-1.18463,-3.21168
676,20.6158,-1.19125,-3.21198
676.5,20.6323,-1.2012,-3.21362
677,20.6485,-1.20303,-3.21399
677.5,20.6648,-1.21707,-3.21636
678,20.6812,-1.22204,-3.21661
678.5,20.6974,-1.22974,-3.21664
679,20.7134,-1.23254,-3.21684
679.5,20.7295,-1.24879,-3.21718
680,20.7462,-1.25632,-3.21653
680.5,20.762,-1.26364,-3.21746
681,20.7787,-1.26797,-3.21795
681.5,20.7951,-1.27071,-3.21803
682,20.8112,-1.28038,-3.21677
682.5,20.8276,-1.28697,-3.21663
683,20.8438,-1.30252,-3.21663
683.5,20.8601,-1.30473,-3.21663
684,20.8765,-1.31879,-3.21663
684.5,20.8927,-1.32746,-3.21663
685,20.9087,-1.33303,-3.21664
685.5,20.9253,-1.34893,-3.21713
686,20.9415,-1.35225,-3.21807
686.5,20.9578,-1.36224,-3.21961
687,20.9737,-1.37028,-3.22032
687.5,20.9897,-1.37838,-3.22146
688,21.0064,-1.38856,-3.22146
688.5,21.0229,-1.39647,-3.22156
689,21.0391,-1.40605,-3.22021
689.5,21.0555,-1.41005,-3.22
690,21.0717,-1.41291,-3.21863
690.5,21.088,-1.41607,-3.2185
691,21.1041,-1.42491,-3.21853
691.5,21.1206,-1.42684,-3.21776
692,21.1369,-1.43893,-3.21703
692.5,21.1532,-1.44543,-3.21707
693,21.1692,-1.45135,-3.21707
693.5,21.1858,-1.46063,-3.21707
694,21.2019,-1.466,-3.21707
694.5,21.2184,-1.47307,-3.21707
695,21.2342,-1.47968,-3.21704
695.5,21.2511,-1.49083,-3.21818
696,21.2672,-1.50237,-3.22009
696.5,21.2837,-1.51514,-3.22059
697,21.2997,-1.51973,-3.22179
697.5,21.3161,-1.53668,-3.22181
698,21.3325,-1.54625,-3.222
698.5,21.3488,-1.54835,-3.22305
699,21.3649,-1.54861,-3.22404
699.5,21.3811,-1.56059,-3.22443
700,21.3975,-1.56159,-3.22443
700.5,21.4139,-1.57008,-3.22443
701,21.4298,-1.57035,-3.22443
701.5,21.4464,-1.57754,-3.22443
702,21.4628,-1.58259,-3.22444
702.5,21.4789,-1.59308,-3.22441
703,21.4951,-1.60663,-3.22551
703.5,21.5114,-1.61822,-3.22573
704,21.5276,-1.62671,-3.22574
704.5,21.5439,-1.63478,-3.22574
705,21.5603,-1.64626,-3.22574
705.5,21.5764,-1.66136,-3.22586
706,21.5929,-1.67649,-3.22717
706.5,21.6091,-1.69256,-3.22706
707,21.6254,-1.68982,-3.22706
707.5,21.6418,-1.69381,-3.22707
708,21.6578,-1.70528,-3.22633
708.5,21.6746,-1.71426,-3.22565
709,21.6907,-1.718,-3.22693
709.5,21.707,-1.72974,-3.22719
710,21.723,-1.73669,-3.22863
710.5,21.7395,-1.74783,-3.22787
711,21.7558,-1.76501,-3.22864
711.5,21.7722,-1.77025,-3.22878
712,21.788,-1.79044,-3.22833
712.5,21.8041,-1.8074,-3.22739
713,21.8209,-1.81441,-3.22857
713.5,21.8372,-1.82809,-3.22881
714,21.8537,-1.84157,-3.22881
714.5,21.8699,-1.8517,-3.2288
715,21.8861,-1.85972,-3.22875
715.5,21.9022,-1.87729,-3.22982
716,21.9187,-1.88847,-3.22956
716.5,21.9349,-1.90546,-3.22876
717,21.9512,-1.91899,-3.22881
717.5,21.9676,-1.94606,-3.22881
718,21.9837,-1.94839,-3.22881
718.5,22.0001,-1.9578,-3.22881
719,22.0167,-1.96664,-3.22881
719.5,22.0328,-1.97546,-3.22882
720,22.049,-1.99525,-3.22832
720.5,22.0654,-2.00996,-3.22744
721,22.0817,-2.0181,-3.22749
721.5,22.0978,-2.03117,-3.22749
722,22.1144,-2.03525,-3.22749
722.5,22.1306,-2.05221,-3.22749
723,22.1468,-2.07763,-3.22749
723.5,22.163,-2.09597,-3.22753
724,22.1795,-2.1187,-3.22873
724.5,22.1953,-2.12857,-3.23005
725,22.2115,-2.14335,-3.23013
725.5,22.2285,-2.14857,-3.23013
726,22.2449,-2.16994,-3.23013
726.5,22.2611,-2.18044,-3.23013
727,22.2773,-2.19075,-3.23012
727.5,22.2937,-2.20855,-3.23006
728,22.3097,-2.21865,-3.23112
728.5,22.3262,-2.25594,-3.23146
729,22.3423,-2.26341,-3.23146
729.5,22.359,-2.26882,-3.23142
730,22.375,-2.28065,-3.23277
730.5,22.3914,-2.29655,-3.23286
731,22.4077,-2.31694,-3.23306
731.5,22.4237,-2.33101,-3.23427
732,22.4404,-2.35109,-3.23418
732.5,22.4566,-2.36687,-3.23459
733,22.4729,-2.38154,-3.23629
733.5,22.4893,-2.39758,-3.23734
734,22.5055,-2.41756,-3.23857
734.5,22.5219,-2.42678,-3.23857
735,22.5379,-2.45566,-3.2374
735.5,22.5543,-2.46375,-3.23714
736,22.5708,-2.48725,-3.23697
736.5,22.5872,-2.51024,-3.23583
737,22.6029,-2.52269,-3.23541
737.5,22.6196,-2.53717,-3.23422
738,22.6359,-2.55347,-3.23342
738.5,22.6521,-2.57167,-3.23267
739,22.6681,-2.5883,-3.23145
739.5,22.6847,-2.61239,-3.23087
740,22.7008,-2.63089,-3.23008