File: 01_Data/High_Temp_Bourke/STA/N2/10K_min/High_Temp_Bourke_STA_N2_10KData_240228_R2.csv
Temp./C,Time/min,DSC/(mW/mg),Mass loss/mg
50.0,0.0,0.756507,0.0247733
50.5,0.0579491,0.771923,0.0247245
51,0.117835,0.787026,0.0234776
51.5,0.174048,0.791173,0.0220694
52,0.230628,0.802697,0.0232243
52.5,0.287067,0.809746,0.0227973
53,0.344466,0.818544,0.0232172
53.5,0.401232,0.821105,0.0244433
54,0.455802,0.835067,0.0230034
54.5,0.51117,0.836725,0.0229519
55,0.565094,0.839029,0.0229491
55.5,0.620373,0.848977,0.0240896
56,0.675793,0.846156,0.0234638
56.5,0.729047,0.851704,0.0242595
57,0.785469,0.855753,0.0243517
57.5,0.83982,0.856375,0.0255903
58,0.893534,0.862237,0.0255901
58.5,0.947328,0.860087,0.0245612
59,1.00238,0.871963,0.0255726
59.5,1.05608,0.872492,0.0255884
60,1.1098,0.870806,0.0255378
60.5,1.16383,0.871515,0.0255589
61,1.21564,0.876353,0.02559
61.5,1.2702,0.87742,0.0245508
62,1.32296,0.885681,0.0255805
62.5,1.37593,0.886145,0.0268793
63,1.4289,0.889669,0.0269801
63.5,1.48212,0.89418,0.0269021
64,1.53446,0.896381,0.0255358
64.5,1.58479,0.891669,0.0268803
65,1.63508,0.906207,0.0268998
65.5,1.69298,0.903358,0.0281966
66,1.74322,0.903357,0.0296785
66.5,1.79539,0.916165,0.0282154
67,1.84793,0.914336,0.02822
67.5,1.90089,0.924395,0.0291358
68,1.95254,0.924629,0.0282214
68.5,2.00236,0.928353,0.0286406
69,2.05579,0.930234,0.02953
69.5,2.10774,0.93556,0.0283724
70,2.16098,0.933484,0.0295258
70.5,2.21075,0.941199,0.0301997
71,2.26203,0.941441,0.029443
71.5,2.31365,0.942956,0.0294625
72,2.36115,0.943635,0.0295401
72.5,2.41702,0.945319,0.0295404
73,2.46704,0.945826,0.0308912
73.5,2.51783,0.953827,0.0295285
74,2.57001,0.953662,0.0309169
74.5,2.62022,0.947345,0.0296144
75,2.66908,0.948988,0.0308893
75.5,2.72164,0.954331,0.0308508
76,2.77235,0.96374,0.0309946
76.5,2.82448,0.960246,0.03086
77,2.87541,0.958998,0.03086
77.5,2.9225,0.958047,0.03086
78,2.97653,0.959824,0.0308579
78.5,3.02761,0.965012,0.0322896
79,3.07719,0.965793,0.0322722
79.5,3.12726,0.977658,0.0319338
80,3.17636,0.971224,0.0322248
80.5,3.22739,0.969973,0.0319598
81,3.27705,0.968907,0.0312896
81.5,3.32801,0.971283,0.031952
82,3.37971,0.970135,0.0311545
82.5,3.42903,0.971333,0.0322788
83,3.47988,0.978146,0.03228
83.5,3.52688,0.977448,0.0317728
84,3.5787,0.97546,0.0322803
84.5,3.62703,0.980886,0.0322801
85,3.67783,0.977735,0.0336
85.5,3.72942,0.979072,0.0347056
86,3.77794,0.979817,0.0341489
86.5,3.82844,0.988412,0.0339316
87,3.87904,0.986672,0.03392
87.5,3.92696,0.993815,0.03392
88,3.97793,0.996451,0.0324734
88.5,4.02774,0.986901,0.0326102
89,4.07674,0.994845,0.032585
89.5,4.12705,0.984867,0.0322433
90,4.17774,0.994466,0.0322799
90.5,4.22576,1.00037,0.0336199
91,4.27581,0.997642,0.0335488
91.5,4.32558,0.99617,0.0349204
92,4.37161,0.999613,0.03492
92.5,4.42369,1.00391,0.0349148
93,4.47239,1.00236,0.0336033
93.5,4.52082,1.00853,0.0335994
94,4.5728,1.01165,0.0322801
94.5,4.62063,1.01483,0.0335948
95,4.67143,1.01709,0.0323069
95.5,4.7189,1.02947,0.0323262
96,4.76735,1.02034,0.0336073
96.5,4.81825,1.01925,0.0322885
97,4.86793,1.02574,0.0335993
97.5,4.91714,1.02786,0.0336001
98,4.96509,1.03164,0.0335321
98.5,5.01246,1.03415,0.0322802
99,5.06235,1.04222,0.0326888
99.5,5.11154,1.03975,0.0335999
100,5.15894,1.03987,0.0336005
100.5,5.20968,1.04676,0.0348663
101,5.25762,1.05017,0.0335921
101.5,5.30501,1.04813,0.0335901
102,5.35502,1.05045,0.0335474
102.5,5.4054,1.0559,0.0338372
103,5.45499,1.06096,0.0335989
103.5,5.50256,1.0584,0.0336002
104,5.55079,1.06473,0.034407
104.5,5.60038,1.06977,0.0345803
105,5.64921,1.07289,0.03458
105.5,5.69745,1.06854,0.0345798
106,5.74542,1.06646,0.0359354
106.5,5.79555,1.07685,0.0365989
107,5.84405,1.07231,0.0359406
107.5,5.89333,1.07822,0.0372201
108,5.94234,1.08231,0.0372237
108.5,5.99058,1.07265,0.0358579
109,6.03979,1.08287,0.0359001
109.5,6.08774,1.08177,0.0352885
110,6.13642,1.09095,0.0345795
110.5,6.18458,1.09486,0.03458
111,6.23322,1.09268,0.0345976
111.5,6.2809,1.09613,0.037261
112,6.33123,1.09934,0.0372211
112.5,6.37949,1.10112,0.0383514
113,6.42867,1.1045,0.0378644
113.5,6.47741,1.10499,0.0372196
114,6.52626,1.10598,0.0384125
114.5,6.57445,1.11079,0.0385403
115,6.62302,1.11173,0.03854
115.5,6.67138,1.11152,0.03854
116,6.71967,1.11854,0.0385423
116.5,6.76734,1.12004,0.0372223
117,6.81687,1.11813,0.0381357
117.5,6.86621,1.1165,0.0372199
118,6.91495,1.11302,0.0372133
118.5,6.96177,1.12521,0.0385145
119,7.00874,1.12671,0.0385603
119.5,7.06068,1.12701,0.0385411
120,7.10831,1.12797,0.039582
120.5,7.15575,1.13407,0.0391673
121,7.20493,1.13426,0.0385402
121.5,7.25457,1.14259,0.03854
122,7.30124,1.13901,0.0385398
122.5,7.35141,1.13951,0.0399479
123,7.39845,1.14992,0.0385712
123.5,7.44728,1.14201,0.03854
124,7.49537,1.14989,0.03854
124.5,7.54248,1.14862,0.03854
125,7.59173,1.1556,0.038574
125.5,7.63936,1.15673,0.0384348
126,7.68872,1.15919,0.0385301
126.5,7.73806,1.16189,0.03853
127,7.78584,1.16129,0.03853
127.5,7.83395,1.17021,0.03853
128,7.88123,1.17043,0.0385392
128.5,7.9296,1.17247,0.0372134
129,7.9773,1.17152,0.03722
129.5,8.02598,1.17125,0.03722
130,8.07474,1.17108,0.03722
130.5,8.12378,1.17382,0.0372734
131,8.16844,1.1809,0.0358964
131.5,8.21882,1.18087,0.0359398
132,8.26753,1.18398,0.0372192
132.5,8.3146,1.18064,0.0385428
133,8.36306,1.18461,0.0372304
133.5,8.41267,1.18886,0.03722
134,8.45936,1.19017,0.0372214
134.5,8.50794,1.18717,0.036828
135,8.55669,1.18551,0.0372288
135.5,8.60523,1.19332,0.0378959
136,8.65331,1.19323,0.0378795
136.5,8.70009,1.1894,0.0373941
137,8.7472,1.20103,0.0372201
137.5,8.79722,1.19958,0.0375545
138,8.84467,1.20072,0.0369305
138.5,8.89302,1.19953,0.0368903
139,8.94056,1.19874,0.0365045
139.5,8.98944,1.20805,0.0359
140,9.03646,1.20436,0.0358984
140.5,9.08393,1.20335,0.0362237
141,9.13323,1.20571,0.0374972
141.5,9.18176,1.20504,0.0374006
142,9.22951,1.20779,0.0372198
142.5,9.27647,1.21034,0.037232
143,9.32501,1.21757,0.0378827
143.5,9.37197,1.21461,0.037845
144,9.42107,1.2128,0.0385416
144.5,9.46811,1.21902,0.03854
145,9.51596,1.22092,0.0385402
145.5,9.5637,1.22235,0.0387391
146,9.61291,1.22615,0.0385455
146.5,9.66108,1.22787,0.0398365
147,9.70683,1.2325,0.03985
147.5,9.75457,1.2316,0.03985
148,9.80417,1.23639,0.0398544
148.5,9.85172,1.23504,0.0384962
149,9.89899,1.23304,0.0385401
149.5,9.94576,1.2298,0.0385499
150,9.99562,1.23996,0.0396326
150.5,10.0433,1.24319,0.0385518
151,10.0914,1.23681,0.0398477
151.5,10.1391,1.24316,0.0398336
152,10.1872,1.24729,0.0385502
152.5,10.2348,1.24035,0.040601
153,10.2815,1.25345,0.0411641
153.5,10.3306,1.24593,0.039876
154,10.3777,1.24828,0.0398615
154.5,10.4254,1.24729,0.0411792
155,10.4742,1.25392,0.04118
155.5,10.5212,1.25403,0.04118
156,10.5695,1.25691,0.04118
156.5,10.6163,1.26176,0.04118
157,10.6643,1.25616,0.0411799
157.5,10.7112,1.26119,0.0412387
158,10.7602,1.25786,0.0398582
158.5,10.8077,1.26563,0.0398582
159,10.8559,1.26597,0.0408516
159.5,10.9034,1.26701,0.04085
160,10.9504,1.27546,0.04085
160.5,11.0002,1.27215,0.0408523
161,11.0472,1.27334,0.0395299
161.5,11.0954,1.27719,0.03953
162,11.1423,1.27807,0.03953
162.5,11.191,1.27734,0.039507
163,11.2387,1.27912,0.0398521
163.5,11.2841,1.27667,0.0395361
164,11.3321,1.28451,0.0398505
164.5,11.3827,1.27514,0.0398503
165,11.4291,1.28746,0.0401557
165.5,11.4763,1.28584,0.0405097
166,11.5241,1.28522,0.0404531
166.5,11.5726,1.29011,0.0391916
167,11.62,1.29213,0.0392003
167.5,11.6683,1.29629,0.0405092
168,11.7158,1.29611,0.04051
168.5,11.7646,1.29419,0.0405129
169,11.8106,1.29343,0.03953
169.5,11.8571,1.29603,0.03953
170,11.9057,1.29471,0.0394673
170.5,11.9537,1.30284,0.0408524
171,11.9998,1.29468,0.0408502
171.5,12.0499,1.29337,0.0406876
172,12.0972,1.29736,0.0391986
172.5,12.1452,1.30453,0.0389428
173,12.1922,1.3077,0.0378801
173.5,12.2396,1.30554,0.0378796
174,12.2869,1.30584,0.0388336
174.5,12.3357,1.30603,0.0388701
175,12.3828,1.31013,0.03887
175.5,12.4308,1.30803,0.0388733
176,12.4783,1.31813,0.0375203
176.5,12.5256,1.30942,0.0375497
177,12.5745,1.3117,0.0376273
177.5,12.6203,1.31411,0.0382781
178,12.6687,1.31682,0.0385898
178.5,12.7159,1.32089,0.0396762
179,12.7627,1.31747,0.0385309
179.5,12.8114,1.32215,0.0384881
180,12.858,1.32323,0.0398504
180.5,12.9068,1.32869,0.03985
181,12.9539,1.32693,0.03985
181.5,13.0017,1.32356,0.0398547
182,13.0485,1.32567,0.0385296
182.5,13.096,1.32224,0.03853
183,13.1425,1.33187,0.03853
183.5,13.1919,1.32822,0.03853
184,13.2401,1.3362,0.0385294
184.5,13.2872,1.34404,0.0376329
185,13.3325,1.3373,0.0372178
185.5,13.382,1.33601,0.0385288
186,13.4279,1.3418,0.0385186
186.5,13.4764,1.34406,0.0372319
187,13.5242,1.35007,0.0375963
187.5,13.57,1.35326,0.0385342
188,13.6197,1.35923,0.0395337
188.5,13.6659,1.36193,0.03953
189,13.7142,1.36896,0.03953
189.5,13.7621,1.36602,0.0395306
190,13.8099,1.37573,0.039897
190.5,13.8562,1.37879,0.0398601
191,13.9031,1.38323,0.0398105
191.5,13.9529,1.39079,0.0406737
192,14,1.38895,0.0396725
192.5,14.0472,1.39471,0.0395298
193,14.0949,1.40396,0.03953
193.5,14.1428,1.41187,0.03953
194,14.1888,1.41926,0.0395238
194.5,14.2373,1.42127,0.0398602
195,14.2843,1.42696,0.03986
195.5,14.3328,1.43159,0.0398591
196,14.3782,1.43662,0.0408486
196.5,14.4282,1.44088,0.0408209
197,14.4764,1.44315,0.039523
197.5,14.523,1.45088,0.03952
198,14.5707,1.4581,0.0394862
198.5,14.6172,1.46952,0.0408281
199,14.6658,1.4677,0.0408401
199.5,14.7136,1.47152,0.04084
200,14.7614,1.4833,0.04084
200.5,14.8081,1.48434,0.04084
201,14.8564,1.48335,0.0408546
201.5,14.9034,1.48482,0.0421608
202,14.9509,1.47796,0.0408394
202.5,14.9981,1.48511,0.04084
203,15.0462,1.48479,0.0408507
203.5,15.0936,1.48376,0.0421494
204,15.1418,1.48201,0.0411653
204.5,15.1898,1.47664,0.04117
205,15.2363,1.48215,0.04117
205.5,15.2846,1.48932,0.04117
206,15.3316,1.48145,0.04117
206.5,15.3798,1.48154,0.04117
207,15.4276,1.48409,0.04117
207.5,15.4751,1.48246,0.04117
208,15.5216,1.49475,0.04117
208.5,15.5705,1.49028,0.0411803
209,15.6176,1.48743,0.0424922
209.5,15.6639,1.48592,0.0424899
210,15.7124,1.4785,0.04249
210.5,15.7593,1.48936,0.0424924
211,15.8073,1.48286,0.042166
211.5,15.8549,1.48653,0.0396259
212,15.9012,1.48997,0.03953
212.5,15.9482,1.49545,0.0395214
213,15.9975,1.49367,0.04085
213.5,16.0444,1.48747,0.04085
214,16.0926,1.4972,0.0408499
214.5,16.1401,1.49826,0.0409404
215,16.186,1.49321,0.0398616
215.5,16.2348,1.49918,0.03986
216,16.2829,1.5008,0.03986
216.5,16.3305,1.49952,0.0398678
217,16.3776,1.5043,0.0407951
217.5,16.4258,1.50013,0.0408462
218,16.4733,1.50287,0.0395286
218.5,16.52,1.50975,0.0395308
219,16.5683,1.50894,0.0405457
219.5,16.6161,1.50216,0.04084
220,16.6634,1.50515,0.0408401
220.5,16.711,1.51091,0.0407522
221,16.7588,1.50983,0.0395219
221.5,16.8059,1.51342,0.03952
222,16.8529,1.50707,0.0395181
222.5,16.9008,1.51109,0.0382261
223,16.9482,1.51265,0.03821
223.5,16.9957,1.51898,0.03821
224,17.0438,1.51803,0.03821
224.5,17.0905,1.5207,0.0382109
225,17.1389,1.52286,0.0390443
225.5,17.1851,1.52194,0.040512
226,17.2343,1.52447,0.0404918
226.5,17.2822,1.52258,0.0398459
227,17.3269,1.52457,0.03985
227.5,17.3778,1.5276,0.03985
228,17.4239,1.52818,0.0398489
228.5,17.4723,1.53188,0.0385579
229,17.5202,1.53306,0.0385299
229.5,17.5678,1.52824,0.03853
230,17.6146,1.52748,0.0398586
230.5,17.6628,1.53262,0.0397491
231,17.7098,1.54331,0.0411706
231.5,17.757,1.53774,0.0411748
232,17.8051,1.53643,0.0419534
232.5,17.8534,1.53921,0.0421704
233,17.9005,1.54092,0.0421702
233.5,17.9478,1.54793,0.04217
234,17.9949,1.54798,0.0408496
234.5,18.0427,1.54645,0.0408502
235,18.0905,1.54564,0.0407961
235.5,18.1352,1.54174,0.0405222
236,18.1851,1.54601,0.0411998
236.5,18.2326,1.54969,0.0403351
237,18.2792,1.54628,0.0405201
237.5,18.3271,1.54771,0.0405201
238,18.375,1.55157,0.0413305
238.5,18.4222,1.54591,0.0415102
239,18.4695,1.54201,0.0415176
239.5,18.5181,1.54546,0.0428149
240,18.5658,1.55812,0.041515
240.5,18.6124,1.55495,0.0421645
241,18.6603,1.55169,0.04216
241.5,18.7068,1.55022,0.042166
242,18.7543,1.54715,0.0428234
242.5,18.802,1.54484,0.04282
243,18.8498,1.55579,0.04282
243.5,18.8966,1.54944,0.04282
244,18.9448,1.55255,0.04282
244.5,18.9922,1.55664,0.04282
245,19.0413,1.55187,0.0428204
245.5,19.0868,1.5594,0.0428804
246,19.134,1.56124,0.0414979
246.5,19.182,1.55409,0.0402059
247,19.2285,1.54995,0.04018
247.5,19.2772,1.55262,0.04018
248,19.3254,1.55449,0.04018
248.5,19.3721,1.55692,0.04018
249,19.4177,1.55642,0.04018
249.5,19.4662,1.55786,0.04018
250,19.515,1.55701,0.04018
250.5,19.5619,1.5622,0.04018
251,19.6089,1.56341,0.0401835
251.5,19.6564,1.56677,0.0415034
252,19.7041,1.5708,0.0414767
252.5,19.752,1.56148,0.0414177
253,19.7994,1.56668,0.0414818
253.5,19.8464,1.57067,0.0428161
254,19.8948,1.56375,0.0428204
254.5,19.9418,1.57176,0.0413881
255,19.9883,1.56942,0.0405098
255.5,20.0361,1.57347,0.0405489
256,20.0843,1.5707,0.0401806
256.5,20.132,1.57276,0.04018
257,20.1801,1.57068,0.04018
257.5,20.2268,1.5682,0.04018
258,20.2745,1.56581,0.0401787
258.5,20.3221,1.5659,0.0388866
259,20.3693,1.56203,0.0398512
259.5,20.4167,1.5597,0.03985
260,20.4637,1.56471,0.0398946
260.5,20.511,1.57343,0.0385381
261,20.5592,1.56641,0.039626
261.5,20.6048,1.57652,0.0398599
262,20.653,1.56871,0.0398566
262.5,20.7016,1.56403,0.0412317
263,20.7488,1.56494,0.0398525
263.5,20.7957,1.56209,0.0398599
264,20.8432,1.5579,0.0398602
264.5,20.891,1.56414,0.0403617
265,20.9381,1.56472,0.0411923
265.5,20.9868,1.57025,0.04118
266,21.0338,1.56556,0.0411833
266.5,21.0799,1.5709,0.0398532
267,21.1279,1.56266,0.03986
267.5,21.1748,1.56648,0.0398601
268,21.2242,1.56224,0.0397626
268.5,21.2718,1.56475,0.0408526
269,21.3183,1.57011,0.0421585
269.5,21.3632,1.56993,0.0410708
270,21.4129,1.56956,0.0395308
270.5,21.4611,1.56972,0.03953
271,21.5085,1.58005,0.03953
271.5,21.5562,1.5769,0.0394917
272,21.6029,1.57517,0.0408535
272.5,21.6508,1.58302,0.04085
273,21.6992,1.5791,0.0408622
273.5,21.7458,1.57825,0.0395383
274,21.7934,1.57877,0.039223
274.5,21.8416,1.57653,0.0379672
275,21.8894,1.57324,0.03689
275.5,21.9368,1.57532,0.0368978
276,21.9852,1.57979,0.0382026
276.5,22.0321,1.5782,0.03821
277,22.0782,1.57765,0.0382099
277.5,22.1259,1.5772,0.0393939
278,22.1737,1.58162,0.0394191
278.5,22.2224,1.58465,0.0408439
279,22.2719,1.57761,0.0421761
279.5,22.3187,1.57767,0.04216
280,22.3659,1.57863,0.04216
280.5,22.4137,1.56938,0.0421638
281,22.4607,1.57273,0.039663
281.5,22.5085,1.57882,0.03953
282,22.5547,1.57865,0.0395337
282.5,22.6042,1.58083,0.0419701
283,22.6516,1.57869,0.0421611
283.5,22.6999,1.58232,0.0408178
284,22.7474,1.58687,0.04084
284.5,22.7949,1.59136,0.04084
285,22.8422,1.59267,0.04084
285.5,22.8914,1.5826,0.0408399
286,22.9384,1.58526,0.0403676
286.5,22.9859,1.58304,0.0387153
287,23.0333,1.5899,0.0382101
287.5,23.0809,1.58878,0.03821
288,23.1282,1.58931,0.0382109
288.5,23.1782,1.58522,0.0395172
289,23.2243,1.58692,0.03952
289.5,23.2723,1.58461,0.0395184
290,23.32,1.59427,0.0383868
290.5,23.3668,1.59061,0.03821
291,23.4151,1.59195,0.03821
291.5,23.4617,1.59652,0.0382111
292,23.5111,1.59195,0.03895
292.5,23.5579,1.59381,0.03886
293,23.6061,1.598,0.03886
293.5,23.6539,1.59629,0.03886
294,23.7013,1.59562,0.0388648
294.5,23.7497,1.58995,0.0384212
295,23.7972,1.59836,0.03821
295.5,23.845,1.59432,0.03821
296,23.8927,1.59412,0.03821
296.5,23.94,1.59041,0.0382075
297,23.9875,1.59374,0.03886
297.5,24.0364,1.59054,0.03886
298,24.0843,1.59469,0.0388603
298.5,24.1316,1.59662,0.0374545
299,24.1801,1.60014,0.0372282
299.5,24.2274,1.59959,0.037215
300,24.2753,1.59724,0.038218
300.5,24.3228,1.59528,0.0381999
301,24.3711,1.59561,0.0382035
301.5,24.4199,1.5907,0.0372127
302,24.4664,1.59732,0.0371688
302.5,24.5131,1.59894,0.0382009
303,24.5627,1.59455,0.0382
303.5,24.6119,1.59356,0.0382
304,24.6587,1.60376,0.0382
304.5,24.7062,1.59855,0.0382
305,24.7533,1.60148,0.0381886
305.5,24.8018,1.59567,0.0369015
306,24.849,1.59813,0.03689
306.5,24.8971,1.60026,0.03689
307,24.9447,1.60064,0.0368525
307.5,24.9911,1.60232,0.0381261
308,25.0405,1.6058,0.0385356
308.5,25.0879,1.60517,0.0392029
309,25.1353,1.61159,0.0385321
309.5,25.1842,1.60781,0.0385408
310,25.2319,1.60634,0.0393604
310.5,25.28,1.60519,0.0398563
311,25.3267,1.60669,0.0385404
311.5,25.3757,1.60433,0.03854
312,25.4234,1.60936,0.03854
312.5,25.4707,1.60685,0.03854
313,25.518,1.61209,0.0385391
313.5,25.5662,1.60641,0.0372174
314,25.6134,1.59945,0.0373471
314.5,25.6616,1.6059,0.0362326
315,25.709,1.59971,0.03623
315.5,25.7572,1.60063,0.03623
316,25.8062,1.59533,0.03623
316.5,25.8527,1.59725,0.0362254
317,25.9008,1.60515,0.036814
317.5,25.9489,1.60639,0.0378787
318,25.9974,1.60062,0.03788
318.5,26.0439,1.60118,0.03788
319,26.0927,1.60292,0.0378801
319.5,26.1412,1.59823,0.0378701
320,26.1884,1.60075,0.0365613
320.5,26.2358,1.60197,0.03656
321,26.2832,1.60337,0.03656
321.5,26.3316,1.59908,0.0365606
322,26.3805,1.60331,0.0369985
322.5,26.4283,1.60421,0.0382487
323,26.4751,1.59322,0.0385399
323.5,26.5233,1.59647,0.0385405
324,26.5708,1.59638,0.0382908
324.5,26.6184,1.59884,0.0372199
325,26.6664,1.60143,0.0366308
325.5,26.7154,1.60273,0.0365598
326,26.7632,1.60304,0.0365594
326.5,26.8103,1.59972,0.0362041
327,26.8594,1.59673,0.0362306
327.5,26.9057,1.60536,0.037038
328,26.9544,1.602,0.0375506
328.5,27.0028,1.60227,0.0385926
329,27.0505,1.60105,0.0388703
329.5,27.0988,1.59873,0.0388696
330,27.1454,1.60831,0.0374924
330.5,27.1943,1.60859,0.0376037
331,27.2427,1.61373,0.0362275
331.5,27.2914,1.61142,0.0371842
332,27.3389,1.60828,0.0375527
332.5,27.3867,1.60711,0.0385219
333,27.436,1.61096,0.03854
333.5,27.4829,1.61135,0.0385411
334,27.5298,1.61234,0.0360904
334.5,27.5786,1.60587,0.0359
335,27.6268,1.61285,0.0359
335.5,27.6767,1.61344,0.0358982
336,27.7235,1.61282,0.0358773
336.5,27.7709,1.61273,0.0358988
337,27.8192,1.60592,0.0345929
337.5,27.8679,1.60871,0.03458
338,27.9159,1.61237,0.03458
338.5,27.9635,1.61335,0.03458
339,28.012,1.6174,0.0345745
339.5,28.0595,1.62234,0.0359048
340,28.1068,1.62584,0.0359001
340.5,28.1556,1.62595,0.0358819
341,28.2035,1.63165,0.0349101
341.5,28.2503,1.62849,0.03491
342,28.2995,1.6311,0.0349072
342.5,28.3484,1.6341,0.0362887
343,28.3961,1.63157,0.0362307
343.5,28.4437,1.63273,0.0368969
344,28.4929,1.6361,0.03689
344.5,28.5409,1.63509,0.0368882
345,28.5896,1.63547,0.0356223
345.5,28.6368,1.63799,0.035569
346,28.6854,1.64734,0.0342725
346.5,28.7336,1.63968,0.03425
347,28.7813,1.64254,0.03425
347.5,28.8305,1.64594,0.0342501
348,28.8774,1.64334,0.0342151
348.5,28.9261,1.6474,0.0352277
349,28.9758,1.65192,0.0339349
349.5,29.023,1.64321,0.0339068
350,29.0711,1.64582,0.0322182
350.5,29.1197,1.6503,0.0312909
351,29.1679,1.65329,0.0312888
351.5,29.2158,1.65716,0.0337716
352,29.2633,1.6687,0.0339306
352.5,29.3118,1.6652,0.0335054
353,29.359,1.66517,0.032611
353.5,29.4082,1.66871,0.03261
354,29.4576,1.67375,0.03261
354.5,29.5038,1.66705,0.03261
355,29.5534,1.67962,0.03261
355.5,29.6019,1.6744,0.03261
356,29.6498,1.68262,0.03261
356.5,29.6986,1.68069,0.03261
357,29.7465,1.6817,0.0326117
357.5,29.7955,1.6851,0.0322848
358,29.8428,1.69037,0.0322799
358.5,29.8912,1.68825,0.0324322
359,29.9389,1.69229,0.0323961
359.5,29.9869,1.68747,0.0326101
360,30.0357,1.69282,0.03261
360.5,30.084,1.69284,0.0326508
361,30.1305,1.69402,0.0304037
361.5,30.1796,1.69199,0.0299698
362,30.2295,1.6963,0.0299407
362.5,30.2763,1.69088,0.0312893
363,30.3254,1.69263,0.03129
363.5,30.3739,1.6996,0.0312974
364,30.4222,1.69108,0.0299686
364.5,30.4689,1.69648,0.0299801
365,30.5184,1.68828,0.0299511
365.5,30.5669,1.68822,0.0302997
366,30.615,1.697,0.0302998
366.5,30.6635,1.70056,0.0304201
367,30.7117,1.69503,0.02898
367.5,30.7604,1.6954,0.02898
368,30.8066,1.69662,0.02898
368.5,30.8573,1.69673,0.02898
369,30.9054,1.70114,0.02898
369.5,30.9534,1.69015,0.02898
370,31.0022,1.69427,0.0289245
370.5,31.0508,1.6891,0.0266691
371,31.0989,1.69531,0.02668
371.5,31.1471,1.70356,0.02668
372,31.1953,1.70387,0.026663
372.5,31.2434,1.70597,0.0276607
373,31.2923,1.71238,0.0266414
373.5,31.3409,1.70298,0.0263525
374,31.389,1.70533,0.0249959
374.5,31.438,1.71197,0.025716
375,31.4863,1.70964,0.0263497
375.5,31.5343,1.70244,0.026347
376,31.5829,1.70177,0.0276931
376.5,31.6311,1.70433,0.0263503
377,31.6806,1.70764,0.02499
377.5,31.7264,1.70064,0.02504
378,31.7741,1.70628,0.0251235
378.5,31.8245,1.70543,0.0250552
379,31.8711,1.69867,0.0250299
379.5,31.9198,1.71034,0.0250255
380,31.9674,1.7005,0.0260189
380.5,32.0184,1.70547,0.0260183
381,32.0665,1.71074,0.0247112
381.5,32.1147,1.71259,0.0247647
382,32.1629,1.71589,0.0233869
382.5,32.2115,1.71033,0.023092
383,32.2607,1.7134,0.0220233
383.5,32.3088,1.71313,0.0206498
384,32.3575,1.71059,0.02065
384.5,32.4054,1.70937,0.02065
385,32.454,1.71219,0.0206508
385.5,32.5024,1.70611,0.0216558
386,32.5506,1.70797,0.0219603
386.5,32.5994,1.70666,0.02196
387,32.6483,1.71028,0.02196
387.5,32.696,1.70828,0.0219648
388,32.7452,1.71157,0.0229487
388.5,32.7939,1.7147,0.02295
389,32.8425,1.71773,0.02295
389.5,32.8904,1.71455,0.0229501
390,32.9399,1.71019,0.0228932
390.5,32.9875,1.70972,0.0216395
391,33.0367,1.70986,0.0190646
391.5,33.0852,1.71564,0.0189997
392,33.1331,1.71981,0.0189987
392.5,33.1818,1.71786,0.0201151
393,33.23,1.71411,0.0209731
393.5,33.2793,1.72076,0.0196711
394,33.328,1.7188,0.01966
394.5,33.3769,1.71147,0.0184024
395,33.4247,1.71723,0.0183511
395.5,33.4733,1.71902,0.0186721
396,33.5221,1.71621,0.01867
396.5,33.5707,1.71195,0.01867
397,33.6191,1.71781,0.0186701
397.5,33.6683,1.71877,0.01867
398,33.7167,1.71913,0.0180105
398.5,33.7653,1.71509,0.0179893
399,33.8136,1.71936,0.0173444
399.5,33.8625,1.71548,0.01735
400,33.9121,1.71064,0.0173564
400.5,33.9604,1.71363,0.0160283
401,34.0086,1.71662,0.0147287
401.5,34.0572,1.71167,0.01472
402,34.1056,1.71358,0.01472
402.5,34.1547,1.71335,0.01472
403,34.2037,1.7116,0.014726
403.5,34.2524,1.71449,0.0133795
404,34.3011,1.71925,0.0119875
404.5,34.3498,1.72061,0.01197
405,34.3986,1.71162,0.0119632
405.5,34.4481,1.71744,0.0133131
406,34.4959,1.71776,0.0146079
406.5,34.5459,1.71893,0.0138235
407,34.5939,1.71854,0.0132901
407.5,34.6439,1.72154,0.01329
408,34.6914,1.71918,0.01329
408.5,34.7405,1.7223,0.01329
409,34.7898,1.71925,0.013288
409.5,34.8378,1.72077,0.0119852
410,34.8867,1.71672,0.0119743
410.5,34.9341,1.71369,0.0106538
411,34.9836,1.72017,0.01066
411.5,35.0316,1.72337,0.01066
412,35.0817,1.71775,0.01066
412.5,35.1301,1.71696,0.01066
413,35.1787,1.71491,0.0106601
413.5,35.2282,1.71056,0.0106362
414,35.2773,1.71333,0.00797365
414.5,35.3233,1.71141,0.00672898
415,35.3737,1.70411,0.00669997
415.5,35.4232,1.70481,0.0067
416,35.4717,1.70367,0.0067
416.5,35.5205,1.70388,0.0066999
417,35.5711,1.69752,0.00679879
417.5,35.6176,1.70358,0.00405755
418,35.6685,1.7043,0.00301701
418.5,35.7166,1.70335,0.00372205
419,35.7655,1.6952,0.00374003
419.5,35.8141,1.69372,0.00373902
420,35.8623,1.69164,0.00401685
420.5,35.91,1.6896,0.00275157
421,35.96,1.6892,0.00275
421.5,36.0091,1.68414,0.00274998
422,36.0573,1.6769,0.00272625
422.5,36.1036,1.68301,0.00273123
423,36.1536,1.68325,0.00143188
423.5,36.2038,1.68096,0.00142217
424,36.2524,1.67866,0.00275227
424.5,36.3018,1.68157,0.00275492
425,36.3498,1.67256,0.0010957
425.5,36.3985,1.67125,0.000714714
426,36.4477,1.67208,-0.00118405
426.5,36.4963,1.67656,-0.0015492
427,36.5458,1.67433,-0.00284984
427.5,36.5946,1.6744,-0.00284996
428,36.6436,1.67253,-0.00287823
428.5,36.6921,1.67188,-0.00416912
429,36.7417,1.66924,-0.00417
429.5,36.7905,1.66493,-0.00417
430,36.8378,1.6706,-0.00417
430.5,36.8875,1.66566,-0.00417
431,36.9369,1.66165,-0.00417
431.5,36.9855,1.6541,-0.0041673
432,37.0325,1.65685,-0.00555784
432.5,37.0831,1.64983,-0.00548993
433,37.1311,1.64998,-0.00549131
433.5,37.1804,1.6547,-0.00737774
434,37.2283,1.64983,-0.00779021
434.5,37.2774,1.64327,-0.00778984
435,37.3252,1.64604,-0.0091462
435.5,37.3758,1.63825,-0.00911072
436,37.4248,1.63685,-0.0102852
436.5,37.4741,1.63696,-0.0119392
437,37.5225,1.62779,-0.0123266
437.5,37.5715,1.62328,-0.013146
438,37.6204,1.62827,-0.0131339
438.5,37.6695,1.62407,-0.013829
439,37.7177,1.61946,-0.01383
439.5,37.7667,1.62332,-0.0138414
440,37.8147,1.6187,-0.0144937
440.5,37.8627,1.621,-0.0141253
441,37.913,1.62262,-0.0150125
441.5,37.9621,1.61571,-0.0153949
442,38.0107,1.61791,-0.0167902
442.5,38.0603,1.62117,-0.0181989
443,38.1087,1.61881,-0.0180893
443.5,38.1559,1.62577,-0.0194299
444,38.2076,1.62341,-0.0207283
444.5,38.2563,1.6182,-0.0220381
445,38.3061,1.61502,-0.0229093
445.5,38.354,1.6227,-0.0235542
446,38.4034,1.61877,-0.0233867
446.5,38.4519,1.62524,-0.0247527
447,38.5007,1.62237,-0.0261208
447.5,38.55,1.62347,-0.0274852
448,38.5998,1.62717,-0.0288102
448.5,38.6488,1.62664,-0.0301291
449,38.697,1.63065,-0.0313591
449.5,38.7458,1.63153,-0.0321834
450,38.7948,1.63179,-0.0327099
450.5,38.8443,1.63729,-0.0327032
451,38.894,1.63709,-0.0351795
451.5,38.9428,1.6374,-0.0378636
452,38.9909,1.64216,-0.039333
452.5,39.0416,1.64772,-0.0409278
453,39.0904,1.64264,-0.0425634
453.5,39.1388,1.6435,-0.0450941
454,39.1875,1.64701,-0.0454348
454.5,39.2374,1.64869,-0.0454574
455,39.2863,1.65482,-0.0467672
455.5,39.333,1.65765,-0.0483266
456,39.3833,1.66041,-0.0512621
456.5,39.4335,1.6705,-0.0527621
457,39.4818,1.67358,-0.0542714
457.5,39.5313,1.6798,-0.0544596
458,39.5805,1.68355,-0.055689
458.5,39.6299,1.68912,-0.0586572
459,39.68,1.69716,-0.0624954
459.5,39.7292,1.70478,-0.0665655
460,39.7758,1.71257,-0.0686279
460.5,39.827,1.71548,-0.0715682
461,39.8759,1.72347,-0.0739423
461.5,39.9253,1.72389,-0.0765024
462,39.975,1.73591,-0.0792438
462.5,40.0238,1.73741,-0.0817423
463,40.0709,1.7437,-0.0841586
463.5,40.1228,1.74753,-0.0872275
464,40.1712,1.75896,-0.0896836
464.5,40.2203,1.76934,-0.0923089
465,40.2693,1.77759,-0.0954391
465.5,40.3188,1.78471,-0.0989045
466,40.3685,1.79026,-0.105017
466.5,40.418,1.80158,-0.108039
467,40.4662,1.81342,-0.110684
467.5,40.5159,1.81952,-0.114369
468,40.5642,1.82751,-0.118728
468.5,40.6142,1.83908,-0.123116
469,40.6644,1.84529,-0.127302
469.5,40.7135,1.86098,-0.130256
470,40.7621,1.86854,-0.135662
470.5,40.8117,1.88089,-0.14113
471,40.8611,1.88809,-0.146355
471.5,40.911,1.90886,-0.15113
472,40.96,1.91586,-0.156014
472.5,41.0087,1.93303,-0.161967
473,41.0586,1.94075,-0.166823
473.5,41.1082,1.95317,-0.17109
474,41.157,1.96844,-0.177206
474.5,41.2064,1.98121,-0.182846
475,41.2559,1.99064,-0.189571
475.5,41.3047,2.01106,-0.196234
476,41.3536,2.01948,-0.203964
476.5,41.4029,2.0414,-0.211465
477,41.4522,2.0621,-0.21912
477.5,41.5032,2.07424,-0.227051
478,41.5509,2.08743,-0.235232
478.5,41.6006,2.10466,-0.243566
479,41.6505,2.13733,-0.251326
479.5,41.6995,2.15166,-0.261687
480,41.7492,2.16621,-0.269397
480.5,41.7976,2.19293,-0.278045
481,41.8481,2.21731,-0.288022
481.5,41.8976,2.23687,-0.298451
482,41.947,2.27433,-0.308961
482.5,41.9968,2.30155,-0.318008
483,42.0476,2.31933,-0.329164
483.5,42.0957,2.34911,-0.339911
484,42.1456,2.38318,-0.351593
484.5,42.1955,2.42215,-0.363767
485,42.2454,2.44161,-0.376738
485.5,42.2955,2.46958,-0.388355
486,42.344,2.50691,-0.399902
486.5,42.3941,2.54912,-0.41345
487,42.4446,2.57915,-0.42842
487.5,42.4944,2.60834,-0.443419
488,42.5438,2.64161,-0.45831
488.5,42.594,2.67426,-0.474484
489,42.6436,2.69931,-0.491521
489.5,42.6932,2.73666,-0.509127
490,42.7424,2.76848,-0.525412
490.5,42.7934,2.80367,-0.54308
491,42.8425,2.83128,-0.562638
491.5,42.8922,2.86288,-0.581633
492,42.9418,2.89031,-0.601216
492.5,42.9911,2.93073,-0.621693
493,43.0416,2.95033,-0.643844
493.5,43.0913,2.97396,-0.666144
494,43.1411,3.00637,-0.687587
494.5,43.1906,3.03168,-0.709614
495,43.2398,3.0562,-0.733278
495.5,43.288,3.07183,-0.755616
496,43.337,3.0966,-0.780752
496.5,43.389,3.11231,-0.805475
497,43.4375,3.12826,-0.832033
497.5,43.4882,3.14953,-0.860434
498,43.5378,3.15647,-0.885304
498.5,43.5874,3.16136,-0.912941
499,43.6365,3.17138,-0.940782
499.5,43.686,3.17523,-0.97149
500,43.7359,3.17161,-1.00044
500.5,43.7846,3.1659,-1.02945
501,43.8356,3.15884,-1.05991
501.5,43.8836,3.14555,-1.08828
502,43.9319,3.13167,-1.11765
502.5,43.9805,3.1174,-1.14669
503,44.0294,3.09567,-1.17669
503.5,44.079,3.07008,-1.2066
504,44.129,3.04159,-1.23916
504.5,44.1778,3.01045,-1.26722
505,44.2269,2.97439,-1.29826
505.5,44.2756,2.92706,-1.32849
506,44.3246,2.88887,-1.36043
506.5,44.3733,2.83043,-1.39037
507,44.4215,2.77941,-1.41993
507.5,44.469,2.72736,-1.44872
508,44.5187,2.67667,-1.47986
508.5,44.5677,2.61157,-1.50952
509,44.6162,2.55578,-1.5372
509.5,44.6645,2.48942,-1.56477
510,44.7132,2.42803,-1.5904
510.5,44.7612,2.35654,-1.61741
511,44.8104,2.29109,-1.64523
511.5,44.8592,2.21526,-1.67012
512,44.9077,2.1511,-1.6942
512.5,44.9556,2.08476,-1.71773
513,45.004,2.02013,-1.74069
513.5,45.0522,1.95488,-1.76397
514,45.1014,1.89329,-1.78615
514.5,45.1498,1.83662,-1.80624
515,45.1984,1.7792,-1.82716
515.5,45.247,1.72881,-1.84772
516,45.2956,1.67509,-1.86677
516.5,45.3427,1.61545,-1.88458
517,45.3917,1.573,-1.9017
517.5,45.4418,1.52823,-1.91881
518,45.4913,1.48549,-1.93391
518.5,45.5403,1.44031,-1.94975
519,45.588,1.39926,-1.96473
519.5,45.6374,1.3655,-1.97932
520,45.6844,1.33368,-1.99388
520.5,45.7349,1.27848,-2.0087
521,45.7841,1.25733,-2.02214
521.5,45.8334,1.22818,-2.03586
522,45.8809,1.18313,-2.04852
522.5,45.9315,1.1513,-2.06217
523,45.9796,1.10765,-2.07435
523.5,46.0296,1.08438,-2.08741
524,46.0793,1.05068,-2.09806
524.5,46.1279,1.02309,-2.10819
525,46.1771,0.998742,-2.11977
525.5,46.2258,0.972387,-2.12918
526,46.2756,0.942238,-2.13976
526.5,46.3252,0.914023,-2.15016
527,46.3746,0.952944,-2.16033
527.5,46.4233,0.883344,-2.17007
528,46.4722,0.841013,-2.18004
528.5,46.5222,0.79224,-2.18908
529,46.5698,0.763687,-2.195
529.5,46.6206,0.742364,-2.20422
530,46.6699,0.718143,-2.21247
530.5,46.7179,0.695087,-2.21877
531,46.7682,0.67699,-2.22546
531.5,46.8187,0.665218,-2.23326
532,46.8681,0.643282,-2.24171
532.5,46.9176,0.631716,-2.24898
533,46.9668,0.617781,-2.25486
533.5,47.016,0.591902,-2.26105
534,47.0662,0.580339,-2.2675
534.5,47.1152,0.578774,-2.27321
535,47.1647,0.55432,-2.27997
535.5,47.2143,0.553449,-2.28631
536,47.2629,0.531037,-2.29255
536.5,47.3135,0.525571,-2.29805
537,47.3617,0.520911,-2.3028
537.5,47.411,0.50689,-2.308
538,47.4608,0.495316,-2.31267
538.5,47.5113,0.493953,-2.31762
539,47.5607,0.488978,-2.32243
539.5,47.6105,0.471467,-2.32748
540,47.6592,0.470254,-2.33156
540.5,47.709,0.458267,-2.33555
541,47.7585,0.453344,-2.34196
541.5,47.807,0.444127,-2.34587
542,47.8576,0.439229,-2.3513
542.5,47.9055,0.433322,-2.35596
543,47.9553,0.441313,-2.35956
543.5,48.0052,0.427119,-2.36313
544,48.0558,0.428269,-2.36812
544.5,48.105,0.416521,-2.37206
545,48.1526,0.415403,-2.37523
545.5,48.2046,0.411687,-2.37998
546,48.254,0.405535,-2.38353
546.5,48.3038,0.39696,-2.38732
547,48.3539,0.389537,-2.39145
547.5,48.4031,0.391475,-2.39356
548,48.4505,0.388268,-2.39568
548.5,48.5016,0.381287,-2.39958
549,48.5514,0.3791,-2.40419
549.5,48.6015,0.370583,-2.40806
550,48.651,0.357947,-2.41173
550.5,48.6999,0.355077,-2.41488
551,48.749,0.348542,-2.41852
551.5,48.7997,0.349435,-2.42125
552,48.8483,0.341168,-2.42349
552.5,48.8984,0.336724,-2.42632
553,48.9491,0.328065,-2.42953
553.5,48.9989,0.320012,-2.43171
554,49.0477,0.308294,-2.43246
554.5,49.0987,0.297194,-2.43476
555,49.1476,0.289289,-2.44078
555.5,49.1964,0.275688,-2.44462
556,49.2467,0.257634,-2.4495
556.5,49.2959,0.241405,-2.45284
557,49.3455,0.232808,-2.45581
557.5,49.3948,0.222283,-2.45928
558,49.4443,0.207321,-2.46066
558.5,49.4918,0.202031,-2.46207
559,49.544,0.198817,-2.4646
559.5,49.5931,0.194329,-2.46647
560,49.641,0.187765,-2.46822
560.5,49.6924,0.185414,-2.47092
561,49.7414,0.184103,-2.47384
561.5,49.7898,0.180498,-2.47457
562,49.8401,0.184358,-2.47744
562.5,49.8903,0.181564,-2.47927
563,49.9408,0.184902,-2.48154
563.5,49.9895,0.185642,-2.48491
564,50.0401,0.19123,-2.48692
564.5,50.0897,0.185895,-2.4893
565,50.139,0.187856,-2.49165
565.5,50.1894,0.186374,-2.4951
566,50.2386,0.185407,-2.49863
566.5,50.2882,0.190067,-2.49997
567,50.3377,0.18088,-2.50259
567.5,50.3872,0.184618,-2.50436
568,50.437,0.188485,-2.50584
568.5,50.4869,0.192003,-2.50883
569,50.5366,0.189077,-2.50941
569.5,50.587,0.177751,-2.51099
570,50.6369,0.18455,-2.51381
570.5,50.6859,0.188131,-2.51511
571,50.7351,0.19157,-2.51659
571.5,50.7858,0.189707,-2.51972
572,50.8353,0.194109,-2.52104
572.5,50.8851,0.197291,-2.52205
573,50.9345,0.197114,-2.5234
573.5,50.984,0.189808,-2.52475
574,51.0344,0.193677,-2.52803
574.5,51.0839,0.201664,-2.5296
575,51.1333,0.19712,-2.53318
575.5,51.1827,0.193292,-2.5339
576,51.2334,0.19333,-2.53487
576.5,51.2831,0.19267,-2.53821
577,51.3331,0.198995,-2.5401
577.5,51.3825,0.18793,-2.54313
578,51.4312,0.187305,-2.54444
578.5,51.4815,0.194882,-2.5458
579,51.532,0.201601,-2.54714
579.5,51.5814,0.199518,-2.54855
580,51.6308,0.206054,-2.54849
580.5,51.679,0.203299,-2.54981
581,51.7309,0.208952,-2.55276
581.5,51.7805,0.203808,-2.55553
582,51.831,0.212674,-2.55744
582.5,51.8797,0.213608,-2.56036
583,51.9294,0.215867,-2.56146
583.5,51.9792,0.209458,-2.56167
584,52.0281,0.21136,-2.5617
584.5,52.0788,0.198393,-2.56302
585,52.1287,0.205808,-2.56433
585.5,52.1773,0.201675,-2.56559
586,52.2278,0.206811,-2.56804
586.5,52.278,0.213406,-2.56968
587,52.327,0.218187,-2.57101
587.5,52.3767,0.217067,-2.57234
588,52.4268,0.220262,-2.57497
588.5,52.4765,0.222122,-2.57622
589,52.5264,0.220211,-2.57762
589.5,52.5776,0.222122,-2.57891
590,52.6258,0.229007,-2.58022
590.5,52.676,0.235141,-2.58154
591,52.7257,0.234874,-2.58278
591.5,52.7752,0.222673,-2.58274
592,52.8251,0.21925,-2.58417
592.5,52.8747,0.233977,-2.5855
593,52.9258,0.242076,-2.58609
593.5,52.9744,0.238295,-2.58832
594,53.0231,0.244965,-2.59033
594.5,53.0743,0.25052,-2.59175
595,53.1245,0.251978,-2.59278
595.5,53.1735,0.266665,-2.59305
596,53.2238,0.272845,-2.5943
596.5,53.2731,0.274158,-2.59563
597,53.3228,0.280005,-2.59731
597.5,53.372,0.287001,-2.59866
598,53.4225,0.287884,-2.59999
598.5,53.4729,0.297519,-2.59991
599,53.5199,0.304665,-2.60242
599.5,53.5721,0.302926,-2.60458
600,53.6222,0.306239,-2.60612
600.5,53.6722,0.308518,-2.60857
601,53.7224,0.308376,-2.60999
601.5,53.7722,0.317668,-2.61128
602,53.8225,0.318581,-2.61261
602.5,53.8718,0.327681,-2.61256
603,53.922,0.330297,-2.61394
603.5,53.9715,0.337002,-2.61489
604,54.0211,0.336509,-2.61642
604.5,54.0717,0.340737,-2.61804
605,54.1212,0.343064,-2.61833
605.5,54.1722,0.345491,-2.62053
606,54.2215,0.352264,-2.62084
606.5,54.2723,0.356571,-2.62216
607,54.3221,0.362684,-2.62214
607.5,54.3724,0.368886,-2.62349
608,54.422,0.367518,-2.6249
608.5,54.4722,0.374355,-2.62471
609,54.5224,0.378861,-2.62612
609.5,54.5725,0.382993,-2.62512
610,54.6213,0.385814,-2.62513
610.5,54.6715,0.384707,-2.62514
611,54.7225,0.381213,-2.6274
611.5,54.7723,0.390554,-2.62905
612,54.8209,0.393259,-2.63069
612.5,54.8709,0.390237,-2.633
613,54.9212,0.391055,-2.63438
613.5,54.9718,0.398999,-2.635
614,55.0215,0.400601,-2.63544
614.5,55.0708,0.40586,-2.635
615,55.1207,0.408482,-2.635
615.5,55.1711,0.406648,-2.635
616,55.2214,0.405927,-2.6363
616.5,55.2714,0.418856,-2.63633
617,55.3212,0.416608,-2.63632
617.5,55.3707,0.417983,-2.63646
618,55.4198,0.423325,-2.63819
618.5,55.4705,0.424285,-2.64052
619,55.5202,0.421532,-2.64183
619.5,55.5703,0.425645,-2.64297
620,55.6201,0.429982,-2.64444
620.5,55.6701,0.433746,-2.64573
621,55.7196,0.429361,-2.6459
621.5,55.7688,0.42649,-2.64708
622,55.8192,0.436324,-2.64708
622.5,55.8692,0.437774,-2.64817
623,55.9187,0.434782,-2.6484
623.5,55.9693,0.449152,-2.64841
624,56.0183,0.449114,-2.6484
624.5,56.068,0.444884,-2.64941
625,56.1183,0.447822,-2.64972
625.5,56.1662,0.441856,-2.65095
626,56.2173,0.447279,-2.65104
626.5,56.2674,0.449675,-2.65233
627,56.3158,0.450282,-2.6523
627.5,56.3662,0.447789,-2.65367
628,56.416,0.445733,-2.65367
628.5,56.4659,0.447576,-2.65386
629,56.5163,0.444718,-2.65499
629.5,56.5661,0.447323,-2.65502
630,56.6146,0.445488,-2.6563
630.5,56.6654,0.443665,-2.6563
631,56.7151,0.43377,-2.65739
631.5,56.7644,0.427226,-2.65762
632,56.8145,0.43801,-2.65866
632.5,56.8638,0.43909,-2.66026
633,56.9137,0.434393,-2.66026
633.5,56.9634,0.429387,-2.65917
634,57.0128,0.427892,-2.66026
634.5,57.0623,0.433033,-2.66177
635,57.1128,0.428531,-2.66289
635.5,57.1624,0.425367,-2.66289
636,57.2126,0.419668,-2.66415
636.5,57.2621,0.419127,-2.66425
637,57.3114,0.419333,-2.66553
637.5,57.3617,0.41846,-2.66624
638,57.4114,0.422631,-2.66652
638.5,57.4593,0.422278,-2.66653
639,57.5108,0.417394,-2.66783
639.5,57.5595,0.410761,-2.66893
640,57.6105,0.409806,-2.66915
640.5,57.6607,0.412058,-2.66915
641,57.7104,0.410472,-2.66913
641.5,57.7589,0.41298,-2.66948
642,57.8107,0.41508,-2.66948
642.5,57.8598,0.41187,-2.66983
643,57.9086,0.408139,-2.67079
643.5,57.9595,0.405774,-2.6708
644,58.0097,0.397012,-2.6707
644.5,58.06,0.398741,-2.67236
645,58.1096,0.396591,-2.67277
645.5,58.1592,0.398829,-2.67233
646,58.2094,0.398257,-2.6728
646.5,58.2594,0.391285,-2.67365
647,58.3086,0.387696,-2.67365
647.5,58.357,0.38995,-2.67365
648,58.408,0.391569,-2.6738
648.5,58.4581,0.38515,-2.67497
649,58.5086,0.374683,-2.67569
649.5,58.5592,0.382034,-2.67631
650,58.6084,0.380325,-2.67895
650.5,58.6574,0.383708,-2.67892
651,58.7065,0.375175,-2.67795
651.5,58.7555,0.380545,-2.67894
652,58.8065,0.376141,-2.67892
652.5,58.8571,0.375211,-2.6775
653,58.9071,0.371173,-2.67765
653.5,58.9567,0.367424,-2.6776
654,59.006,0.373588,-2.6785
654.5,59.0559,0.369551,-2.67892
655,59.1055,0.36499,-2.67893
655.5,59.155,0.362478,-2.68154
656,59.2053,0.360961,-2.68297
656.5,59.2553,0.358749,-2.68295
657,59.3048,0.358648,-2.68298
657.5,59.3541,0.354213,-2.68425
658,59.4039,0.350327,-2.68428
658.5,59.4536,0.349313,-2.68499
659,59.504,0.345432,-2.68495
659.5,59.5528,0.341533,-2.68605
660,59.6026,0.343743,-2.68573
660.5,59.6534,0.344159,-2.68561
661,59.7032,0.341232,-2.68461
661.5,59.7532,0.333983,-2.68463
662,59.8034,0.333778,-2.68353
662.5,59.8536,0.326739,-2.68331
663,59.9034,0.328608,-2.68462
663.5,59.9524,0.32822,-2.68462
664,60.002,0.323748,-2.68468
664.5,60.052,0.324305,-2.68436
665,60.1008,0.322175,-2.6843
665.5,60.151,0.318968,-2.6843
666,60.2007,0.318374,-2.68466
666.5,60.2503,0.309093,-2.68708
667,60.3008,0.307199,-2.68726
667.5,60.3505,0.308917,-2.68739
668,60.4008,0.298803,-2.68727
668.5,60.4505,0.29562,-2.68728
669,60.5005,0.287483,-2.68973
669.5,60.5509,0.285807,-2.68989
670,60.6002,0.28212,-2.69008
670.5,60.6502,0.279858,-2.69121
671,60.6978,0.277997,-2.69117
671.5,60.7487,0.281241,-2.69122
672,60.7995,0.269118,-2.69245
672.5,60.8491,0.276149,-2.69328
673,60.8989,0.279713,-2.69385
673.5,60.9487,0.275025,-2.69385
674,60.9994,0.273163,-2.69523
674.5,61.0499,0.264698,-2.69517
675,61.0987,0.26516,-2.69517
675.5,61.1486,0.266747,-2.69514
676,61.1987,0.263062,-2.69517
676.5,61.2482,0.271744,-2.69465
677,61.2986,0.269274,-2.69385
677.5,61.3486,0.267908,-2.69385
678,61.3984,0.26433,-2.69385
678.5,61.4495,0.257276,-2.69516
679,61.4979,0.257895,-2.69581
679.5,61.5476,0.249318,-2.69515
680,61.5982,0.259339,-2.69649
680.5,61.6485,0.253734,-2.69649
681,61.699,0.257574,-2.69768
681.5,61.7492,0.255985,-2.69781
682,61.7974,0.255517,-2.69657
682.5,61.8481,0.247471,-2.69649
683,61.8984,0.255385,-2.6978
683.5,61.9484,0.257275,-2.6978
684,61.9982,0.252466,-2.69779
684.5,62.048,0.247365,-2.69912
685,62.0976,0.250818,-2.69911
685.5,62.1489,0.25426,-2.70044
686,62.1993,0.252304,-2.70044
686.5,62.2487,0.248729,-2.70044
687,62.299,0.251172,-2.70176
687.5,62.3484,0.266901,-2.70306
688,62.3985,0.271264,-2.70308
688.5,62.4497,0.278143,-2.70174
689,62.4994,0.280123,-2.70175
689.5,62.5486,0.292399,-2.70175
690,62.5996,0.298423,-2.70175
690.5,62.6495,0.311854,-2.70175
691,62.7002,0.323986,-2.70165
691.5,62.75,0.333529,-2.70307
692,62.7991,0.358621,-2.70307
692.5,62.8491,0.385821,-2.70307
693,62.8997,0.409662,-2.70439
693.5,62.9501,0.426737,-2.70307
694,63.0014,0.433494,-2.70307
694.5,63.0509,0.4391,-2.70308
695,63.1006,0.43471,-2.70519
695.5,63.1509,0.435133,-2.70707
696,63.2014,0.430959,-2.70772
696.5,63.2513,0.430142,-2.70833
697,63.3006,0.42708,-2.70942
697.5,63.3515,0.422825,-2.70966
698,63.4013,0.423813,-2.7097
698.5,63.4522,0.414504,-2.7084
699,63.5009,0.423026,-2.70966
699.5,63.5516,0.417243,-2.70966
700,63.6018,0.413914,-2.70966
700.5,63.6515,0.4116,-2.70966
701,63.7023,0.3999,-2.70966
701.5,63.752,0.403388,-2.70966
702,63.8018,0.402036,-2.70966
702.5,63.8521,0.406318,-2.71105
703,63.902,0.391911,-2.70965
703.5,63.9529,0.394014,-2.70965
704,64.0024,0.390167,-2.70956
704.5,64.0531,0.393421,-2.71097
705,64.1029,0.393631,-2.71097
705.5,64.1534,0.381826,-2.71181
706,64.2043,0.386605,-2.71344
706.5,64.254,0.381157,-2.7136
707,64.3032,0.376952,-2.71502
707.5,64.355,0.3706,-2.71625
708,64.4051,0.373718,-2.71561
708.5,64.4546,0.371892,-2.71493
709,64.5051,0.365318,-2.71497
709.5,64.5556,0.367552,-2.7146
710,64.6058,0.360147,-2.71478
710.5,64.6554,0.361021,-2.71602
711,64.7057,0.355486,-2.71681
711.5,64.7563,0.350369,-2.71734
712,64.8067,0.348763,-2.71867
712.5,64.8559,0.345008,-2.71984
713,64.9072,0.350076,-2.71998
713.5,64.9576,0.342549,-2.71899
714,65.0079,0.345741,-2.719
714.5,65.0587,0.34093,-2.719
715,65.1092,0.3369,-2.7203
715.5,65.1589,0.330777,-2.72136
716,65.2098,0.330262,-2.72031
716.5,65.2593,0.331076,-2.72031
717,65.3105,0.328118,-2.72031
717.5,65.36,0.320692,-2.72031
718,65.4103,0.324406,-2.72031
718.5,65.4608,0.324011,-2.72024
719,65.5118,0.322373,-2.72057
719.5,65.5614,0.321576,-2.72063
720,65.6121,0.330553,-2.72063
720.5,65.6615,0.326972,-2.71932
721,65.7121,0.31529,-2.72062
721.5,65.7649,0.31078,-2.72265
722,65.8146,0.318163,-2.72261
722.5,65.8637,0.317491,-2.72391
723,65.9154,0.314609,-2.72438
723.5,65.9658,0.316846,-2.72524
724,66.0161,0.318689,-2.72524
724.5,66.0667,0.309785,-2.72524
725,66.1172,0.302359,-2.72524
725.5,66.1676,0.297086,-2.72524
726,66.218,0.292008,-2.72389
726.5,66.2666,0.294436,-2.72393
727,66.3186,0.286775,-2.72529
727.5,66.3681,0.287182,-2.72525
728,66.4186,0.282537,-2.72516
728.5,66.4692,0.27871,-2.72503
729,66.5196,0.278251,-2.72394
729.5,66.5705,0.278224,-2.72445
730,66.6203,0.276572,-2.72393
730.5,66.6716,0.275715,-2.72521
731,66.7211,0.269553,-2.72555
731.5,66.7716,0.273011,-2.72656
732,66.8205,0.267891,-2.72664
732.5,66.8737,0.265651,-2.72722
733,66.9241,0.265497,-2.72715
733.5,66.9738,0.26185,-2.72722
734,67.0219,0.261867,-2.72853
734.5,67.0741,0.258186,-2.72762
735,67.1248,0.249486,-2.72755
735.5,67.1754,0.249125,-2.72867
736,67.2247,0.24045,-2.72891
736.5,67.2759,0.237775,-2.72827
737,67.3269,0.237593,-2.72862
737.5,67.376,0.22892,-2.72998
738,67.4264,0.222258,-2.73129
738.5,67.4772,0.225626,-2.73001
739,67.5285,0.225884,-2.72997
739.5,67.578,0.227505,-2.73128
740,67.6298,0.220424,-2.73128