File: 01_Data/Helmet_Shield/STA/N2/10K_min/Helmet_Shield_STA_N2_10KData_240225_R2.csv
Temp./C,Time/min,DSC/(mW/mg),Mass loss/mg
60.0,0.0,0.778244,0.0273095
60.5,0.0565195,0.786993,0.0286256
61,0.114838,0.79485,0.0287867
61.5,0.171093,0.801767,0.0287872
62,0.226166,0.81961,0.028592
62.5,0.279255,0.827909,0.0289601
63,0.337279,0.832199,0.0287076
63.5,0.391362,0.84147,0.0288618
64,0.447116,0.840111,0.0284466
64.5,0.50134,0.851697,0.0287607
65,0.555647,0.863771,0.0281139
65.5,0.609506,0.857039,0.029777
66,0.664581,0.871174,0.0287599
66.5,0.716449,0.870601,0.0276699
67,0.771725,0.873937,0.028767
67.5,0.822906,0.877002,0.0282549
68,0.878631,0.880117,0.0280599
68.5,0.93231,0.882935,0.0287541
69,0.984076,0.8828,0.0300857
69.5,1.03806,0.886733,0.0295576
70,1.09089,0.898606,0.0300733
70.5,1.14349,0.899215,0.0287583
71,1.19708,0.899736,0.028759
71.5,1.25055,0.906867,0.0285428
72,1.30197,0.909245,0.0287599
72.5,1.35461,0.91894,0.0290798
73,1.40723,0.920792,0.030073
73.5,1.46,0.930235,0.0304642
74,1.51194,0.924133,0.0300799
74.5,1.56112,0.930985,0.0300802
75,1.61481,0.931475,0.0287617
75.5,1.66738,0.92945,0.0288036
76,1.71924,0.933384,0.0287609
76.5,1.77088,0.93834,0.0287528
77,1.82387,0.938502,0.0288067
77.5,1.87436,0.94067,0.0287427
78,1.92675,0.946712,0.0300851
78.5,1.97843,0.947746,0.0297665
79,2.02932,0.946278,0.0295782
79.5,2.08099,0.946684,0.03008
80,2.13233,0.949779,0.0300802
80.5,2.18418,0.943494,0.0303884
81,2.23448,0.953759,0.0304214
81.5,2.2876,0.958316,0.030083
82,2.33773,0.959502,0.0287332
82.5,2.38798,0.964197,0.0300725
83,2.43908,0.967045,0.031373
83.5,2.48859,0.96939,0.0300911
84,2.53915,0.974234,0.03009
84.5,2.59215,0.975785,0.0300904
85,2.64275,0.974767,0.0312199
85.5,2.69312,0.972554,0.031158
86,2.74302,0.974847,0.0300802
86.5,2.7926,0.972683,0.0300848
87,2.84287,0.976134,0.0289096
87.5,2.89342,0.983973,0.03008
88,2.94358,0.982799,0.0300277
88.5,2.99411,0.982549,0.031316
89,3.04307,0.976118,0.0300805
89.5,3.09322,0.977662,0.03008
90,3.14506,0.982866,0.03008
90.5,3.19438,0.975478,0.030082
91,3.24395,0.98399,0.0313736
91.5,3.29175,0.97665,0.0304034
92,3.34207,0.978322,0.03008
92.5,3.39285,0.980369,0.0287715
93,3.44078,0.9827,0.0300828
93.5,3.49227,0.984674,0.03008
94,3.54187,0.984719,0.0300948
94.5,3.59108,0.980539,0.0300785
95,3.64028,0.988798,0.03008
95.5,3.69069,0.986109,0.03008
96,3.73853,0.981567,0.0300799
96.5,3.78865,0.987887,0.030163
97,3.83819,0.992473,0.0294229
97.5,3.88794,0.990436,0.0300658
98,3.93647,0.98944,0.0300794
98.5,3.9854,0.98756,0.0291157
99,4.03488,0.990183,0.0287741
99.5,4.08117,0.989589,0.0300777
100,4.13297,0.993199,0.0300801
100.5,4.18136,0.987175,0.030442
101,4.23099,0.992458,0.0307712
101.5,4.28029,0.988358,0.0307454
102,4.3295,0.994277,0.0300898
102.5,4.37768,0.994132,0.0300775
103,4.42612,0.987423,0.0300692
103.5,4.47509,0.994872,0.03008
104,4.52333,0.99504,0.03008
104.5,4.57308,0.992428,0.03008
105,4.62194,0.997737,0.0300805
105.5,4.67099,0.995678,0.031033
106,4.72,1.00432,0.0300802
106.5,4.76947,1.00199,0.0300772
107,4.81697,1.00148,0.0314203
107.5,4.86546,1.00424,0.0300008
108,4.91431,1.00004,0.0300801
108.5,4.96306,1.00468,0.03008
109,5.01262,0.999215,0.0300876
109.5,5.06089,1.00278,0.0314001
110,5.10924,0.999821,0.0314
110.5,5.1582,1.00953,0.0314001
111,5.20615,1.0099,0.0313508
111.5,5.25575,1.00867,0.0313009
112,5.30357,1.0166,0.0314001
112.5,5.35191,1.01273,0.0313996
113,5.40049,1.02186,0.0306393
113.5,5.44692,1.01288,0.0300828
114,5.49786,1.01851,0.0313907
114.5,5.54747,1.01741,0.0313986
115,5.59574,1.01499,0.0303211
115.5,5.64416,1.0155,0.0300729
116,5.69332,1.02025,0.0313926
116.5,5.73982,1.01451,0.0317953
117,5.78984,1.02858,0.03205
117.5,5.83908,1.02542,0.03205
118,5.88728,1.02687,0.032055
118.5,5.93585,1.02393,0.0306443
119,5.98502,1.02864,0.0322183
119.5,6.0328,1.02526,0.0325432
120,6.07784,1.0318,0.032485
120.5,6.12777,1.03315,0.0311883
121,6.17526,1.04026,0.031191
121.5,6.22614,1.02928,0.0324866
122,6.27453,1.03215,0.0324853
122.5,6.323,1.03374,0.0328403
123,6.37258,1.04199,0.0328509
123.5,6.4202,1.03012,0.03283
124,6.46946,1.03172,0.0328299
124.5,6.51688,1.03696,0.0322215
125,6.56481,1.0383,0.03217
125.5,6.61313,1.0385,0.0320512
126,6.66109,1.03983,0.0315338
126.5,6.7115,1.03769,0.0318274
127,6.75911,1.03544,0.0321608
127.5,6.80736,1.04135,0.0321887
128,6.85466,1.04316,0.0334812
128.5,6.90306,1.03918,0.0334629
129,6.95188,1.05012,0.0321751
129.5,6.99953,1.04686,0.03217
130,7.04708,1.04512,0.03217
130.5,7.09583,1.04413,0.03217
131,7.14482,1.04003,0.03217
131.5,7.19258,1.04799,0.0321735
132,7.24155,1.04682,0.0308449
132.5,7.2906,1.04307,0.0308499
133,7.33833,1.0468,0.0312883
133.5,7.38633,1.0393,0.0321689
134,7.43418,1.04673,0.03217
134.5,7.48206,1.04233,0.03217
135,7.52786,1.05125,0.0321289
135.5,7.57693,1.04443,0.0331286
136,7.62381,1.04382,0.0325054
136.5,7.67458,1.04041,0.0328329
137,7.72229,1.04062,0.0328285
137.5,7.77173,1.05062,0.0321721
138,7.81816,1.04643,0.0321695
138.5,7.86761,1.04716,0.0323345
139,7.91569,1.04747,0.0321605
139.5,7.96383,1.04776,0.0321783
140,8.01059,1.04455,0.0341444
140.5,8.05943,1.04254,0.0341744
141,8.10612,1.0498,0.0328193
141.5,8.15425,1.0498,0.0314533
142,8.20099,1.05031,0.0313404
142.5,8.25047,1.04907,0.031512
143,8.29854,1.04429,0.03151
143.5,8.34433,1.04724,0.03151
144,8.39437,1.04837,0.03151
144.5,8.44208,1.05047,0.03151
145,8.48968,1.04479,0.03151
145.5,8.53878,1.04799,0.0315096
146,8.5858,1.05422,0.0328884
146.5,8.63463,1.05133,0.0315228
147,8.68099,1.05375,0.03151
147.5,8.72954,1.05161,0.0308265
148,8.77773,1.05313,0.0308501
148.5,8.82553,1.04844,0.03085
149,8.87362,1.05389,0.03085
149.5,8.92029,1.05143,0.03085
150,8.96684,1.06204,0.030875
150.5,9.01631,1.05824,0.0331445
151,9.06383,1.05313,0.0331508
151.5,9.11219,1.05322,0.0318475
152,9.15966,1.05812,0.0318755
152.5,9.20775,1.0584,0.0324737
153,9.25548,1.05321,0.03249
153.5,9.3032,1.054,0.03249
154,9.35011,1.0572,0.0324898
154.5,9.39868,1.05816,0.0318111
155,9.44423,1.05863,0.0318509
155.5,9.4942,1.06155,0.0331434
156,9.54206,1.0634,0.0331474
156.5,9.58908,1.05946,0.0321591
157,9.63701,1.06865,0.0321613
157.5,9.68505,1.06894,0.0330322
158,9.73319,1.06822,0.0331501
158.5,9.78027,1.07051,0.03315
159,9.82723,1.07538,0.0331502
159.5,9.87521,1.06511,0.0330081
160,9.9226,1.07247,0.0328298
160.5,9.97052,1.06739,0.03283
161,10.0192,1.07126,0.03283
161.5,10.0673,1.08002,0.0328101
162,10.1138,1.08118,0.0315118
162.5,10.161,1.07966,0.03151
163,10.21,1.07772,0.03151
163.5,10.2578,1.08648,0.0315
164,10.3052,1.08066,0.0304491
164.5,10.352,1.08292,0.0305202
165,10.4002,1.08915,0.0308293
165.5,10.4447,1.09026,0.0308492
166,10.4956,1.0856,0.0322508
166.5,10.5424,1.0924,0.0321708
167,10.5908,1.09409,0.0318443
167.5,10.638,1.09315,0.0305237
168,10.6865,1.09594,0.0304857
168.5,10.7335,1.09983,0.0305201
169,10.781,1.09932,0.03052
169.5,10.8275,1.1033,0.0305192
170,10.8763,1.10565,0.0294347
170.5,10.9243,1.10701,0.0291062
171,10.9719,1.10577,0.030189
171.5,11.0195,1.10561,0.0315334
172,11.0674,1.11083,0.0315152
172.5,11.1126,1.10584,0.030158
173,11.161,1.1171,0.03019
173.5,11.2085,1.12169,0.03019
174,11.2586,1.12163,0.0301812
174.5,11.3065,1.12655,0.0287784
175,11.3541,1.12258,0.0285522
175.5,11.4016,1.13295,0.0278801
176,11.4499,1.1331,0.0292096
176.5,11.4979,1.12932,0.02921
177,11.5448,1.13722,0.0292102
177.5,11.5935,1.13342,0.0290892
178,11.6415,1.13673,0.0282503
178.5,11.6885,1.13131,0.0278906
179,11.7364,1.13297,0.0279564
179.5,11.7839,1.13716,0.0269026
180,11.8315,1.14377,0.0269
180.5,11.8787,1.14191,0.0269
181,11.927,1.14212,0.0268984
181.5,11.975,1.13978,0.0272202
182,12.0216,1.14816,0.02723
182.5,12.0689,1.15351,0.02723
183,12.1168,1.1503,0.0272187
183.5,12.1635,1.15238,0.0259179
184,12.2125,1.15421,0.02591
184.5,12.2606,1.15925,0.02591
185,12.307,1.16067,0.02591
185.5,12.3539,1.15864,0.0259103
186,12.4024,1.15676,0.0258204
186.5,12.4498,1.15819,0.02459
187,12.4975,1.16101,0.0258876
187.5,12.5449,1.15969,0.0254012
188,12.5922,1.16466,0.0245899
188.5,12.6407,1.17413,0.0245903
189,12.6872,1.17498,0.0243758
189.5,12.7345,1.17202,0.0232718
190,12.7815,1.17409,0.0219203
190.5,12.8288,1.17778,0.022619
191,12.8782,1.17814,0.0228043
191.5,12.9239,1.17934,0.0236091
192,12.9718,1.18429,0.02361
192.5,13.0195,1.17675,0.02361
193,13.0673,1.17261,0.0236099
193.5,13.1147,1.1837,0.023644
194,13.1618,1.17905,0.0229487
194.5,13.2087,1.16996,0.0215884
195,13.2564,1.17406,0.0216346
195.5,13.3044,1.17944,0.0209803
196,13.3518,1.18229,0.02097
196.5,13.3992,1.18277,0.02097
197,13.4461,1.18006,0.0209702
197.5,13.4948,1.18797,0.019529
198,13.5421,1.18986,0.0196531
198.5,13.5887,1.17967,0.0216437
199,13.6366,1.18096,0.02163
199.5,13.6834,1.18133,0.0216243
200,13.7313,1.17634,0.0203127
200.5,13.7781,1.17607,0.0189833
201,13.8262,1.18514,0.0189857
201.5,13.8733,1.18931,0.018016
202,13.9207,1.19245,0.0170437
202.5,13.9674,1.18626,0.0166819
203,14.0164,1.18831,0.0176426
203.5,14.0637,1.19003,0.0176683
204,14.1112,1.19469,0.016363
204.5,14.1586,1.19188,0.0163632
205,14.2058,1.18935,0.014752
205.5,14.2526,1.19027,0.01471
206,14.3013,1.18569,0.01471
206.5,14.3481,1.18782,0.0137031
207,14.3959,1.18873,0.0127023
207.5,14.4431,1.19666,0.0123844
208,14.4908,1.19249,0.0120698
208.5,14.5373,1.18828,0.0127398
209,14.5857,1.19398,0.01298
209.5,14.6305,1.19847,0.0117727
210,14.6807,1.18789,0.0104311
210.5,14.7288,1.18779,0.01043
211,14.7764,1.19182,0.0103791
211.5,14.8231,1.19837,0.00980517
212,14.8713,1.19251,0.00976997
212.5,14.9194,1.19166,0.00842279
213,14.966,1.19318,0.00824288
213.5,15.0133,1.19145,0.00658229
214,15.0616,1.19143,0.00581986
214.5,15.1085,1.1897,0.00591429
215,15.1535,1.19376,0.00450968
215.5,15.2025,1.1869,0.00451018
216,15.2501,1.18765,0.00456371
216.5,15.2989,1.18471,0.00318993
217,15.3471,1.18732,0.00319085
217.5,15.3941,1.19292,0.00179595
218,15.4432,1.18465,0.00186938
218.5,15.49,1.18935,0.000532734
219,15.5377,1.18858,0.000550149
219.5,15.5849,1.18623,0.000530188
220,15.6321,1.19432,-0.000760206
220.5,15.6794,1.19022,-0.00161413
221,15.7278,1.19994,-0.0020799
221.5,15.7752,1.19394,-0.0020784
222,15.8223,1.19972,-0.00337364
222.5,15.8704,1.20092,-0.00465092
223,15.9172,1.19826,-0.00604039
223.5,15.9657,1.19981,-0.00599187
224,16.0118,1.19999,-0.00735171
224.5,16.0601,1.19717,-0.00793172
225,16.107,1.2017,-0.00865414
225.5,16.1538,1.20092,-0.00857365
226,16.2003,1.20172,-0.00866935
226.5,16.2504,1.20421,-0.010153
227,16.2976,1.21024,-0.0126338
227.5,16.3453,1.20863,-0.013928
228,16.3921,1.21472,-0.0147767
228.5,16.4393,1.21689,-0.0162407
229,16.4872,1.21486,-0.0175763
229.5,16.5333,1.21248,-0.0188641
230,16.5825,1.21354,-0.0201934
230.5,16.6298,1.21926,-0.021654
231,16.678,1.21434,-0.0229252
231.5,16.7244,1.20791,-0.0231064
232,16.7708,1.2128,-0.024305
232.5,16.8198,1.22224,-0.025987
233,16.8675,1.21559,-0.0272477
233.5,16.915,1.22187,-0.028671
234,16.9633,1.22366,-0.0312636
234.5,17.01,1.22596,-0.032822
235,17.0574,1.2301,-0.0329707
235.5,17.1023,1.22905,-0.0344318
236,17.1503,1.23191,-0.0377093
236.5,17.2002,1.23891,-0.0389915
237,17.2471,1.23784,-0.0386214
237.5,17.296,1.24878,-0.042878
238,17.3422,1.25444,-0.0442592
238.5,17.3906,1.2551,-0.0455608
239,17.4387,1.25908,-0.0469128
239.5,17.485,1.26209,-0.048801
240,17.5321,1.25997,-0.0498892
240.5,17.5793,1.26394,-0.0513563
241,17.6277,1.27915,-0.0559494
241.5,17.6751,1.28888,-0.0575337
242,17.7223,1.28504,-0.0602689
242.5,17.7702,1.29137,-0.0628748
243,17.8185,1.29797,-0.0644001
243.5,17.8656,1.29993,-0.0669945
244,17.9116,1.30875,-0.068867
244.5,17.9606,1.30609,-0.0706604
245,18.0087,1.31502,-0.0733032
245.5,18.0559,1.32625,-0.0755608
246,18.1038,1.33154,-0.0783085
246.5,18.1512,1.33651,-0.0798245
247,18.2,1.35506,-0.0829959
247.5,18.2474,1.35635,-0.0859403
248,18.2944,1.36044,-0.089172
248.5,18.3429,1.36972,-0.0921035
249,18.3894,1.37754,-0.0949246
249.5,18.4378,1.39565,-0.0975935
250,18.4858,1.40047,-0.100729
250.5,18.5328,1.41083,-0.104012
251,18.5801,1.42167,-0.107411
251.5,18.628,1.42938,-0.110442
252,18.6763,1.44021,-0.113983
252.5,18.7219,1.44808,-0.117123
253,18.7716,1.45397,-0.120941
253.5,18.8187,1.46821,-0.124578
254,18.8672,1.4666,-0.127506
254.5,18.9148,1.47868,-0.131242
255,18.962,1.48858,-0.136057
255.5,19.01,1.49549,-0.141713
256,19.0572,1.50684,-0.144664
256.5,19.1051,1.51687,-0.148587
257,19.1529,1.53366,-0.153376
257.5,19.2005,1.54283,-0.157705
258,19.249,1.55104,-0.161881
258.5,19.2971,1.57747,-0.166296
259,19.3442,1.59417,-0.17044
259.5,19.3922,1.60918,-0.17457
260,19.4397,1.62609,-0.180002
260.5,19.4867,1.65002,-0.184853
261,19.5346,1.66319,-0.190038
261.5,19.5832,1.68333,-0.196624
262,19.6327,1.70794,-0.201307
262.5,19.6795,1.72886,-0.206931
263,19.7285,1.75264,-0.213387
263.5,19.7753,1.77391,-0.219647
264,19.8241,1.80353,-0.226415
264.5,19.8714,1.82667,-0.233783
265,19.9194,1.85475,-0.239148
265.5,19.9673,1.87941,-0.246056
266,20.0152,1.90946,-0.253043
266.5,20.064,1.94974,-0.261264
267,20.1117,1.97628,-0.267839
267.5,20.1586,2.00585,-0.275862
268,20.2071,2.04267,-0.284404
268.5,20.2553,2.07059,-0.292708
269,20.3025,2.10198,-0.301038
269.5,20.351,2.13923,-0.31003
270,20.4003,2.1765,-0.31975
270.5,20.4477,2.21758,-0.327938
271,20.4952,2.25462,-0.336514
271.5,20.5431,2.29194,-0.345658
272,20.5912,2.32791,-0.355639
272.5,20.6393,2.36888,-0.36715
273,20.6872,2.41292,-0.376931
273.5,20.7339,2.43863,-0.388415
274,20.7844,2.48846,-0.399838
274.5,20.8328,2.52748,-0.410701
275,20.8803,2.56144,-0.422058
275.5,20.9292,2.60523,-0.434537
276,20.9787,2.64751,-0.448543
276.5,21.0252,2.68476,-0.459442
277,21.0734,2.72407,-0.472573
277.5,21.1212,2.76159,-0.486281
278,21.1694,2.80087,-0.500527
278.5,21.2179,2.8231,-0.515008
279,21.2661,2.86365,-0.529206
279.5,21.3145,2.88997,-0.543306
280,21.3622,2.92281,-0.55882
280.5,21.4115,2.96059,-0.574327
281,21.4592,2.99318,-0.589771
281.5,21.5064,3.02632,-0.605366
282,21.5553,3.05656,-0.620284
282.5,21.6019,3.0793,-0.636495
283,21.6502,3.10364,-0.654969
283.5,21.6996,3.12822,-0.673902
284,21.7472,3.15505,-0.690465
284.5,21.7946,3.17171,-0.707408
285,21.8424,3.18902,-0.725178
285.5,21.8908,3.21802,-0.743901
286,21.9386,3.23299,-0.7645
286.5,21.9869,3.24737,-0.782374
287,22.0346,3.27031,-0.800394
287.5,22.0822,3.28339,-0.819908
288,22.1304,3.29672,-0.839366
288.5,22.1792,3.30616,-0.85991
289,22.2255,3.32786,-0.879289
289.5,22.2736,3.32871,-0.898625
290,22.3218,3.33914,-0.918967
290.5,22.3697,3.35151,-0.938527
291,22.4172,3.35025,-0.960877
291.5,22.4662,3.34692,-0.983672
292,22.5111,3.35647,-1.00333
292.5,22.5609,3.35301,-1.02411
293,22.6092,3.34787,-1.04563
293.5,22.6563,3.34393,-1.06743
294,22.7048,3.34351,-1.08922
294.5,22.7516,3.32651,-1.10934
295,22.7995,3.31833,-1.13147
295.5,22.8466,3.30627,-1.15341
296,22.8934,3.29198,-1.17542
296.5,22.9422,3.27947,-1.19858
297,22.9904,3.25954,-1.21937
297.5,23.0377,3.23885,-1.2407
298,23.0844,3.20954,-1.26165
298.5,23.1323,3.17498,-1.28432
299,23.1805,3.14012,-1.30641
299.5,23.2272,3.11713,-1.32735
300,23.2731,3.07529,-1.34716
300.5,23.3221,3.03557,-1.36891
301,23.369,2.98625,-1.38897
301.5,23.4162,2.94589,-1.40984
302,23.4643,2.89165,-1.43165
302.5,23.5113,2.8384,-1.45134
303,23.5589,2.78512,-1.47062
303.5,23.6055,2.73179,-1.48888
304,23.6535,2.66797,-1.50944
304.5,23.6995,2.60619,-1.52877
305,23.747,2.54117,-1.54539
305.5,23.7948,2.47455,-1.56367
306,23.8418,2.40694,-1.58138
306.5,23.8883,2.34663,-1.59882
307,23.9357,2.2791,-1.61545
307.5,23.9828,2.19655,-1.6313
308,24.0301,2.12972,-1.64598
308.5,24.0758,2.05508,-1.66011
309,24.1226,1.99049,-1.67559
309.5,24.1699,1.9241,-1.68956
310,24.2174,1.84417,-1.703
310.5,24.2639,1.78354,-1.71593
311,24.3114,1.71405,-1.72995
311.5,24.3587,1.65985,-1.7416
312,24.4052,1.60281,-1.75219
312.5,24.4523,1.53968,-1.76415
313,24.5,1.48155,-1.77363
313.5,24.5469,1.43791,-1.78405
314,24.5939,1.39325,-1.794
314.5,24.6408,1.35656,-1.80558
315,24.6889,1.31546,-1.81508
315.5,24.7351,1.27941,-1.82261
316,24.7828,1.23696,-1.83186
316.5,24.8306,1.21175,-1.83969
317,24.8774,1.17092,-1.84939
317.5,24.9252,1.14345,-1.85748
318,24.9724,1.1217,-1.86501
318.5,25.0198,1.09936,-1.8726
319,25.0667,1.07559,-1.8794
319.5,25.1149,1.04995,-1.88673
320,25.1622,1.02896,-1.89422
320.5,25.2105,1.01109,-1.90181
321,25.2578,0.98567,-1.90793
321.5,25.3048,0.976312,-1.91451
322,25.3535,0.957068,-1.92124
322.5,25.4011,0.939421,-1.92881
323,25.4488,0.923379,-1.93591
323.5,25.4965,0.907256,-1.94139
324,25.5438,0.886202,-1.94854
324.5,25.5923,0.872851,-1.95349
325,25.6392,0.860384,-1.95908
325.5,25.6861,0.847134,-1.96513
326,25.734,0.824799,-1.97119
326.5,25.7823,0.814821,-1.97808
327,25.8295,0.796274,-1.98256
327.5,25.8777,0.784686,-1.98854
328,25.9253,0.766235,-1.99374
328.5,25.9733,0.754608,-1.99809
329,26.0204,0.742209,-2.0037
329.5,26.0682,0.729531,-2.00936
330,26.116,0.702561,-2.01342
330.5,26.1643,0.690412,-2.01946
331,26.2102,0.671168,-2.02433
331.5,26.26,0.658516,-2.02868
332,26.3085,0.642487,-2.03279
332.5,26.3559,0.627785,-2.03755
333,26.404,0.610647,-2.04195
333.5,26.4523,0.594293,-2.0466
334,26.5003,0.575881,-2.05136
334.5,26.5471,0.566016,-2.05572
335,26.5959,0.549784,-2.06064
335.5,26.6434,0.530783,-2.066
336,26.6913,0.516561,-2.07043
336.5,26.7394,0.494651,-2.07451
337,26.7856,0.491345,-2.07699
337.5,26.8352,0.474056,-2.08085
338,26.883,0.460538,-2.08544
338.5,26.9308,0.442859,-2.08941
339,26.979,0.421869,-2.09393
339.5,27.0269,0.410669,-2.09776
340,27.0742,0.395233,-2.10044
340.5,27.123,0.374479,-2.10377
341,27.1702,0.370444,-2.10676
341.5,27.2192,0.36084,-2.11232
342,27.267,0.338074,-2.11568
342.5,27.3154,0.330099,-2.11931
343,27.3608,0.318345,-2.12288
343.5,27.4109,0.297881,-2.12517
344,27.4588,0.282676,-2.12826
344.5,27.5058,0.267055,-2.13149
345,27.555,0.257801,-2.13424
345.5,27.6026,0.238789,-2.13755
346,27.6501,0.229179,-2.14095
346.5,27.6984,0.221952,-2.14436
347,27.7467,0.204072,-2.1462
347.5,27.7939,0.188307,-2.14891
348,27.8422,0.173752,-2.1532
348.5,27.8913,0.167243,-2.15625
349,27.9384,0.149189,-2.1593
349.5,27.9858,0.143227,-2.16061
350,28.0343,0.125106,-2.16296
350.5,28.0827,0.110841,-2.16608
351,28.1301,0.106787,-2.16782
351.5,28.1781,0.0965401,-2.17056
352,28.2265,0.0802219,-2.17328
352.5,28.2748,0.0708368,-2.17591
353,28.3207,0.0562815,-2.17787
353.5,28.3695,0.0438561,-2.17916
354,28.4179,0.0349957,-2.18211
354.5,28.4669,0.0344192,-2.18498
355,28.5147,0.01783,-2.18636
355.5,28.5629,0.0070252,-2.1898
356,28.6111,-0.00291006,-2.19236
356.5,28.6588,-0.00470547,-2.19476
357,28.7079,-0.0162113,-2.19677
357.5,28.7558,-0.0212025,-2.19873
358,28.8042,-0.0271607,-2.2016
358.5,28.8523,-0.0427341,-2.20301
359,28.8995,-0.0532434,-2.20332
359.5,28.9482,-0.053527,-2.20569
360,28.9963,-0.0588469,-2.20788
360.5,29.0442,-0.0681471,-2.21074
361,29.0925,-0.0702627,-2.21361
361.5,29.1409,-0.0763478,-2.21662
362,29.1871,-0.0774731,-2.21795
362.5,29.2376,-0.0837411,-2.21856
363,29.2855,-0.0855175,-2.22084
363.5,29.3337,-0.0879472,-2.22246
364,29.3826,-0.101147,-2.22423
364.5,29.4304,-0.099069,-2.22658
365,29.4785,-0.100515,-2.22801
365.5,29.5272,-0.108729,-2.23044
366,29.5756,-0.108092,-2.23222
366.5,29.6235,-0.109915,-2.23453
367,29.6713,-0.104532,-2.23551
367.5,29.7202,-0.113749,-2.23785
368,29.7676,-0.1126,-2.23972
368.5,29.8169,-0.114661,-2.24249
369,29.8651,-0.118946,-2.24517
369.5,29.9137,-0.118792,-2.24665
370,29.9606,-0.110916,-2.24791
370.5,30.0107,-0.116595,-2.25008
371,30.0592,-0.105098,-2.25232
371.5,30.1063,-0.112324,-2.25444
372,30.1558,-0.104476,-2.25645
372.5,30.2036,-0.108483,-2.25884
373,30.2525,-0.110345,-2.26021
373.5,30.301,-0.10232,-2.26251
374,30.3501,-0.105367,-2.26384
374.5,30.3982,-0.106885,-2.26567
375,30.4466,-0.0914632,-2.26808
375.5,30.495,-0.0988385,-2.26968
376,30.5434,-0.0883657,-2.27281
376.5,30.5908,-0.0876802,-2.27414
377,30.6399,-0.0816448,-2.27711
377.5,30.6885,-0.0901226,-2.27926
378,30.7374,-0.0891048,-2.28134
378.5,30.7856,-0.0847995,-2.28438
379,30.8346,-0.0780835,-2.28584
379.5,30.8834,-0.0761494,-2.28877
380,30.9317,-0.070068,-2.29072
380.5,30.9805,-0.0725844,-2.29216
381,31.0284,-0.071671,-2.29453
381.5,31.0765,-0.0633428,-2.29657
382,31.1259,-0.0663689,-2.30085
382.5,31.174,-0.0614838,-2.30273
383,31.2238,-0.0489054,-2.30556
383.5,31.2725,-0.0583003,-2.30798
384,31.3208,-0.0535114,-2.31102
384.5,31.369,-0.0512291,-2.31161
385,31.4178,-0.0449068,-2.31474
385.5,31.4645,-0.0472739,-2.31791
386,31.5143,-0.0407495,-2.32044
386.5,31.5636,-0.0386375,-2.32269
387,31.6123,-0.0346155,-2.32576
387.5,31.6601,-0.0316033,-2.32879
388,31.7095,-0.0253424,-2.33141
388.5,31.7572,-0.0248836,-2.33517
389,31.8051,-0.0157812,-2.3382
389.5,31.8554,-0.0179519,-2.34181
390,31.9022,-0.00601091,-2.34326
390.5,31.9528,0.00164512,-2.34499
391,32.0016,-0.00439844,-2.34811
391.5,32.0508,0.00359148,-2.35253
392,32.0989,0.00193965,-2.35565
392.5,32.147,0.00637898,-2.35922
393,32.1959,0.00760856,-2.36271
393.5,32.2451,0.00466671,-2.36589
394,32.2936,0.00322173,-2.36922
394.5,32.3415,0.0131567,-2.37321
395,32.3901,0.0173578,-2.37494
395.5,32.4394,0.0158466,-2.37811
396,32.4885,0.0181415,-2.38171
396.5,32.5367,0.0140622,-2.38533
397,32.5853,0.0184186,-2.38915
397.5,32.6334,0.0167174,-2.39177
398,32.6823,0.0207717,-2.39354
398.5,32.7305,0.0144192,-2.3976
399,32.7784,0.0149935,-2.40114
399.5,32.8282,0.019178,-2.40583
400,32.874,0.0248587,-2.40905
400.5,32.9242,0.0332839,-2.41326
401,32.9719,0.0226228,-2.41709
401.5,33.0223,0.0248609,-2.42119
402,33.0706,0.0305005,-2.42375
402.5,33.1194,0.0253179,-2.42741
403,33.1683,0.0257003,-2.43182
403.5,33.2171,0.026603,-2.43564
404,33.2656,0.0247558,-2.44022
404.5,33.315,0.027429,-2.4441
405,33.3628,0.0272034,-2.44721
405.5,33.4117,0.0264863,-2.45173
406,33.4604,0.0214501,-2.45567
406.5,33.5098,0.0179561,-2.4597
407,33.5581,0.0108991,-2.46302
407.5,33.6046,0.0165192,-2.46708
408,33.6529,0.0125767,-2.47143
408.5,33.7038,0.0101526,-2.47309
409,33.7519,0.0137056,-2.47751
409.5,33.7992,0.0129374,-2.48261
410,33.8502,0.0100198,-2.48633
410.5,33.8994,0.0053717,-2.49083
411,33.946,-0.000452366,-2.49516
411.5,33.9956,-0.000867396,-2.49967
412,34.0448,-0.00618928,-2.50235
412.5,34.0932,-0.0052567,-2.50756
413,34.1402,-0.011193,-2.51151
413.5,34.1895,-0.0184485,-2.51522
414,34.2391,-0.0200293,-2.51965
414.5,34.2885,-0.0248447,-2.52362
415,34.3366,-0.0248462,-2.52782
415.5,34.3845,-0.0283637,-2.53112
416,34.4343,-0.0320225,-2.53623
416.5,34.4835,-0.0315915,-2.54025
417,34.5324,-0.0381418,-2.54429
417.5,34.5807,-0.0431484,-2.54718
418,34.6301,-0.0482644,-2.55077
418.5,34.6787,-0.0413119,-2.55547
419,34.7272,-0.0442981,-2.56032
419.5,34.7757,-0.0448853,-2.56535
420,34.8239,-0.0460148,-2.56878
420.5,34.8741,-0.0441788,-2.57354
421,34.9218,-0.0484526,-2.57585
421.5,34.9714,-0.0524695,-2.57916
422,35.0195,-0.0545128,-2.58434
422.5,35.0684,-0.0624254,-2.58859
423,35.1175,-0.0578258,-2.59245
423.5,35.1663,-0.0597964,-2.59673
424,35.2152,-0.0635264,-2.59984
424.5,35.2636,-0.0671834,-2.60506
425,35.3124,-0.0683533,-2.60739
425.5,35.361,-0.072279,-2.6114
426,35.4094,-0.0705405,-2.61663
426.5,35.4598,-0.071147,-2.62079
427,35.5075,-0.0632299,-2.62466
427.5,35.5567,-0.0667242,-2.62907
428,35.6053,-0.0764907,-2.63364
428.5,35.6537,-0.0794347,-2.63774
429,35.7037,-0.0789106,-2.64194
429.5,35.7524,-0.0737227,-2.64757
430,35.8013,-0.0774053,-2.65095
430.5,35.8498,-0.0679547,-2.65514
431,35.8988,-0.0663391,-2.65958
431.5,35.9472,-0.0679072,-2.66266
432,35.9966,-0.0691839,-2.66693
432.5,36.0462,-0.0649838,-2.67236
433,36.0944,-0.0672521,-2.67666
433.5,36.1433,-0.0636834,-2.68091
434,36.1918,-0.0606099,-2.68589
434.5,36.2409,-0.0560059,-2.68957
435,36.2893,-0.0559385,-2.69314
435.5,36.3389,-0.0563934,-2.69902
436,36.3864,-0.054798,-2.7034
436.5,36.4369,-0.058044,-2.70886
437,36.4857,-0.0502457,-2.7115
437.5,36.5341,-0.0427832,-2.71661
438,36.5839,-0.0376665,-2.72102
438.5,36.6329,-0.0366084,-2.72652
439,36.6804,-0.0355053,-2.73071
439.5,36.7308,-0.0304642,-2.73456
440,36.7808,-0.0264492,-2.73961
440.5,36.8282,-0.0227713,-2.74417
441,36.8778,-0.0182385,-2.74949
441.5,36.9269,-0.0151806,-2.75395
442,36.9761,-0.00698287,-2.75932
442.5,37.0254,-0.00521794,-2.76415
443,37.0746,-0.000659094,-2.76841
443.5,37.1239,0.00791612,-2.7725
444,37.1737,0.0152574,-2.77739
444.5,37.2224,0.0203934,-2.78195
445,37.2702,0.0223266,-2.78684
445.5,37.3207,0.0244965,-2.7924
446,37.3691,0.0337913,-2.79646
446.5,37.4189,0.0405913,-2.80104
447,37.4675,0.03581,-2.80607
447.5,37.5168,0.0438437,-2.81071
448,37.5656,0.046647,-2.81508
448.5,37.6141,0.047221,-2.81964
449,37.6641,0.0542783,-2.82477
449.5,37.7127,0.0591788,-2.82969
450,37.763,0.0624107,-2.83345
450.5,37.8111,0.0645966,-2.83811
451,37.8603,0.0653933,-2.84308
451.5,37.9098,0.0661742,-2.84847
452,37.959,0.0755027,-2.85295
452.5,38.0089,0.0774977,-2.85903
453,38.0566,0.074111,-2.86307
453.5,38.1063,0.0750836,-2.86606
454,38.1556,0.0725929,-2.87079
454.5,38.2044,0.0808134,-2.87477
455,38.2534,0.0785826,-2.87966
455.5,38.3025,0.0753679,-2.88442
456,38.3519,0.0664834,-2.88853
456.5,38.4003,0.0785446,-2.89261
457,38.4503,0.0797842,-2.89808
457.5,38.4991,0.0703873,-2.9015
458,38.5479,0.0713649,-2.90581
458.5,38.597,0.0748062,-2.90939
459,38.6461,0.0751347,-2.91296
459.5,38.6954,0.0712006,-2.9178
460,38.7447,0.0624026,-2.92135
460.5,38.7932,0.0635403,-2.9263
461,38.842,0.0681592,-2.93004
461.5,38.8919,0.0636859,-2.93384
462,38.9414,0.0675304,-2.93736
462.5,38.9904,0.0536786,-2.93958
463,39.0398,0.0525089,-2.94514
463.5,39.0884,0.0498607,-2.9491
464,39.1382,0.0522149,-2.95213
464.5,39.1866,0.0461633,-2.95514
465,39.2363,0.0442997,-2.95848
465.5,39.2857,0.0367193,-2.96228
466,39.335,0.0337287,-2.96549
466.5,39.384,0.0393465,-2.96917
467,39.4323,0.033414,-2.97244
467.5,39.4829,0.0277403,-2.97571
468,39.5313,0.0240525,-2.97897
468.5,39.5801,0.0250692,-2.9824
469,39.6296,0.012419,-2.98575
469.5,39.679,0.0101483,-2.98897
470,39.728,0.01106,-2.99129
470.5,39.7767,0.00483522,-2.99401
471,39.826,0.00543089,-2.9971
471.5,39.8751,0.00136872,-2.99874
472,39.9241,-0.00178689,-3.00148
472.5,39.9737,-0.00607061,-3.0044
473,40.0234,0.00311073,-3.00661
473.5,40.0723,0.000919354,-3.00965
474,40.1222,-0.00329374,-3.01169
474.5,40.1716,-0.0079109,-3.01454
475,40.2186,-0.0123523,-3.01724
475.5,40.2677,-0.0138142,-3.0198
476,40.318,-0.0190074,-3.0235
476.5,40.3669,-0.0294327,-3.02519
477,40.4153,-0.0280151,-3.02662
477.5,40.4648,-0.0322548,-3.02831
478,40.5155,-0.0332446,-3.03109
478.5,40.5649,-0.0318502,-3.03262
479,40.6136,-0.0288441,-3.0343
479.5,40.6631,-0.0314758,-3.03699
480,40.7125,-0.0362847,-3.03847
480.5,40.7611,-0.0361709,-3.03859
481,40.8102,-0.036031,-3.04049
481.5,40.859,-0.0400164,-3.04246
482,40.9084,-0.0391845,-3.04518
482.5,40.9576,-0.0385466,-3.04528
483,41.0071,-0.0403865,-3.04772
483.5,41.0561,-0.0408703,-3.04917
484,41.1065,-0.0452168,-3.05022
484.5,41.1536,-0.0493816,-3.05155
485,41.2042,-0.0405828,-3.05206
485.5,41.2535,-0.0512436,-3.05298
486,41.3019,-0.0529726,-3.05497
486.5,41.3517,-0.0557137,-3.05624
487,41.4017,-0.0518217,-3.05854
487.5,41.4501,-0.0553535,-3.05987
488,41.4992,-0.0512379,-3.06111
488.5,41.5484,-0.0587846,-3.06255
489,41.5982,-0.0588879,-3.06391
489.5,41.6478,-0.0629956,-3.06433
490,41.6969,-0.0627394,-3.06558
490.5,41.7453,-0.0602145,-3.06737
491,41.7956,-0.0658773,-3.06887
491.5,41.8448,-0.071926,-3.06931
492,41.8941,-0.0676081,-3.06913
492.5,41.941,-0.0711629,-3.07019
493,41.9927,-0.0744184,-3.07165
493.5,42.0428,-0.0746742,-3.07244
494,42.0911,-0.0654805,-3.07332
494.5,42.1415,-0.0742702,-3.07523
495,42.1895,-0.0747702,-3.07654
495.5,42.2375,-0.0762051,-3.07655
496,42.2886,-0.0795547,-3.0765
496.5,42.3391,-0.0841327,-3.07789
497,42.3876,-0.0761986,-3.07913
497.5,42.4373,-0.0897249,-3.0805
498,42.486,-0.0810102,-3.08051
498.5,42.5356,-0.0804188,-3.08083
499,42.5859,-0.0844706,-3.08091
499.5,42.634,-0.0889578,-3.08231
500,42.6838,-0.0828649,-3.08345
500.5,42.7331,-0.0874171,-3.08479
501,42.7837,-0.0894411,-3.08607
501.5,42.8325,-0.0916425,-3.08788
502,42.8814,-0.0986831,-3.0884
502.5,42.9304,-0.0887654,-3.0897
503,42.98,-0.0880939,-3.08973
503.5,43.0301,-0.0916481,-3.09104
504,43.079,-0.0890744,-3.09104
504.5,43.1287,-0.0933916,-3.09234
505,43.1779,-0.0853167,-3.09366
505.5,43.2258,-0.0882834,-3.09368
506,43.2773,-0.086695,-3.09484
506.5,43.3261,-0.0936808,-3.09407
507,43.3747,-0.0923215,-3.09369
507.5,43.4252,-0.092395,-3.09468
508,43.4725,-0.0936751,-3.09625
508.5,43.5243,-0.090713,-3.09624
509,43.5738,-0.0851677,-3.09767
509.5,43.6236,-0.0922912,-3.09775
510,43.6719,-0.0899951,-3.09764
510.5,43.7217,-0.0976403,-3.09764
511,43.7714,-0.096154,-3.09764
511.5,43.8201,-0.097268,-3.09895
512,43.8704,-0.0978602,-3.10027
512.5,43.9186,-0.093805,-3.10029
513,43.9684,-0.0961337,-3.1016
513.5,44.0164,-0.0914751,-3.10152
514,44.0672,-0.0919619,-3.10291
514.5,44.117,-0.0911026,-3.10291
515,44.1663,-0.0975622,-3.10283
515.5,44.2147,-0.0944155,-3.10422
516,44.2646,-0.095698,-3.10438
516.5,44.3136,-0.0996503,-3.10554
517,44.3624,-0.0928851,-3.10692
517.5,44.4106,-0.0976573,-3.10686
518,44.4621,-0.0921013,-3.10686
518.5,44.5114,-0.0907336,-3.1082
519,44.5611,-0.0915707,-3.10688
519.5,44.6098,-0.0916023,-3.10818
520,44.6587,-0.0915231,-3.10817
520.5,44.7088,-0.0856045,-3.10818
521,44.7587,-0.0823716,-3.10911
521.5,44.8072,-0.0843946,-3.10916
522,44.8568,-0.0888695,-3.10952
522.5,44.9062,-0.0916639,-3.11077
523,44.9555,-0.0879759,-3.11206
523.5,45.0049,-0.0893077,-3.11213
524,45.0539,-0.0857015,-3.11226
524.5,45.1036,-0.0827978,-3.11473
525,45.1539,-0.0816205,-3.11376
525.5,45.2028,-0.0796289,-3.11373
526,45.2533,-0.0786942,-3.11476
526.5,45.3016,-0.0846845,-3.11476
527,45.3508,-0.0805253,-3.11507
527.5,45.4005,-0.0746796,-3.11608
528,45.4497,-0.0753079,-3.11871
528.5,45.5,-0.079794,-3.11869
529,45.5491,-0.0850367,-3.1174
529.5,45.5987,-0.0818768,-3.1174
530,45.6484,-0.0836664,-3.11875
530.5,45.6952,-0.0812132,-3.11748
531,45.7474,-0.0824334,-3.11849
531.5,45.796,-0.0889489,-3.12003
532,45.8448,-0.0824348,-3.12126
532.5,45.896,-0.0796897,-3.12135
533,45.9451,-0.0788477,-3.11997
533.5,45.9947,-0.0812659,-3.11994
534,46.0441,-0.0826447,-3.12135
534.5,46.0929,-0.0786477,-3.12179
535,46.1432,-0.0808264,-3.12201
535.5,46.1926,-0.0870768,-3.1228
536,46.2423,-0.0794542,-3.12329
536.5,46.2924,-0.0807891,-3.12464
537,46.3415,-0.0794541,-3.12464
537.5,46.3913,-0.0813621,-3.12466
538,46.4396,-0.0740977,-3.12398
538.5,46.4902,-0.0772301,-3.1249
539,46.5395,-0.0777005,-3.1253
539.5,46.5887,-0.0713815,-3.12529
540,46.6378,-0.0714275,-3.12664
540.5,46.6878,-0.07265,-3.12661
541,46.7374,-0.0737786,-3.12661
541.5,46.7876,-0.0739299,-3.12661
542,46.8366,-0.0793084,-3.12726
542.5,46.8855,-0.0675908,-3.12729
543,46.9353,-0.0719805,-3.12794
543.5,46.9845,-0.0733165,-3.12811
544,47.0348,-0.0745738,-3.12925
544.5,47.0845,-0.0770866,-3.12925
545,47.1337,-0.0772483,-3.12927
545.5,47.1833,-0.0836963,-3.12954
546,47.2321,-0.0824738,-3.12958
546.5,47.2822,-0.0798788,-3.13089
547,47.3314,-0.0820452,-3.13089
547.5,47.3808,-0.0765647,-3.13089
548,47.4307,-0.0789182,-3.13357
548.5,47.4801,-0.0831896,-3.13353
549,47.5301,-0.0790311,-3.13309
549.5,47.5792,-0.0763334,-3.13287
550,47.6279,-0.0782076,-3.13287
550.5,47.6781,-0.0782152,-3.13286
551,47.7278,-0.0795164,-3.13353
551.5,47.778,-0.0824585,-3.13353
552,47.8264,-0.0789941,-3.13463
552.5,47.8763,-0.0768368,-3.13615
553,47.9257,-0.0821355,-3.13701
553.5,47.9755,-0.07966,-3.13748
554,48.0254,-0.0821967,-3.1368
554.5,48.0735,-0.0772308,-3.13616
555,48.1241,-0.0720615,-3.13616
555.5,48.1749,-0.0703266,-3.13713
556,48.2233,-0.0684823,-3.13748
556.5,48.2733,-0.0784075,-3.13748
557,48.323,-0.0779539,-3.1383
557.5,48.3723,-0.0788979,-3.1388
558,48.4231,-0.069153,-3.1388
558.5,48.4716,-0.072444,-3.13793
559,48.5206,-0.0694147,-3.13746
559.5,48.5714,-0.0702054,-3.13881
560,48.6207,-0.0684867,-3.13881
560.5,48.6711,-0.0623755,-3.13881
561,48.7203,-0.0631636,-3.13949
561.5,48.7699,-0.062352,-3.13947
562,48.8202,-0.0589246,-3.13947
562.5,48.8693,-0.0699981,-3.14029
563,48.9199,-0.0627093,-3.14078
563.5,48.9695,-0.0642636,-3.14078
564,49.0191,-0.0648085,-3.13978
564.5,49.0679,-0.0648616,-3.13946
565,49.1183,-0.0611112,-3.13938
565.5,49.1677,-0.061366,-3.14078
566,49.2172,-0.0627709,-3.14078
566.5,49.267,-0.0684934,-3.14078
567,49.3168,-0.0653715,-3.14081
567.5,49.3665,-0.0675653,-3.1421
568,49.4161,-0.0652449,-3.1421
568.5,49.4661,-0.0645085,-3.14217
569,49.5153,-0.0609487,-3.14342
569.5,49.5653,-0.0582359,-3.14342
570,49.6144,-0.0605758,-3.14342
570.5,49.664,-0.0567035,-3.14262
571,49.7138,-0.0602428,-3.1421
571.5,49.7636,-0.0643008,-3.14444
572,49.8117,-0.0679042,-3.1444
572.5,49.8635,-0.0647847,-3.1444
573,49.9131,-0.0722384,-3.1444
573.5,49.9626,-0.0655966,-3.14366
574,50.0125,-0.0670796,-3.14381
574.5,50.0614,-0.0688691,-3.14408
575,50.1114,-0.0676875,-3.14407
575.5,50.1619,-0.0639231,-3.1444
576,50.2103,-0.0640158,-3.14437
576.5,50.2603,-0.0634626,-3.14572
577,50.3098,-0.0667289,-3.14567
577.5,50.3596,-0.0679433,-3.14572
578,50.4074,-0.0661666,-3.14572
578.5,50.4581,-0.0719323,-3.14561
579,50.5085,-0.0712686,-3.14668
579.5,50.5572,-0.0684836,-3.14704
580,50.6073,-0.0680373,-3.14704
580.5,50.657,-0.0791421,-3.14736
581,50.7065,-0.0772398,-3.14835
581.5,50.7561,-0.0749371,-3.14835
582,50.8064,-0.0702197,-3.14768
582.5,50.8562,-0.0725704,-3.14703
583,50.9056,-0.0718678,-3.14703
583.5,50.9551,-0.0650552,-3.14702
584,51.0046,-0.0713203,-3.14837
584.5,51.054,-0.0738478,-3.14967
585,51.1035,-0.0761141,-3.14969
585.5,51.1538,-0.0693963,-3.15099
586,51.2033,-0.0719626,-3.15099
586.5,51.2539,-0.0742736,-3.15099
587,51.3031,-0.0697166,-3.15073
587.5,51.3523,-0.0698722,-3.15004
588,51.4024,-0.0757359,-3.15134
588.5,51.4529,-0.0690412,-3.15132
589,51.5021,-0.0717883,-3.15099
589.5,51.5521,-0.0684152,-3.15103
590,51.6008,-0.0741033,-3.1523
590.5,51.6512,-0.065767,-3.1523
591,51.701,-0.071006,-3.1523
591.5,51.75,-0.0743791,-3.15463
592,51.8004,-0.0714683,-3.15494
592.5,51.8509,-0.0680802,-3.15494
593,51.9007,-0.0687723,-3.15444
593.5,51.9483,-0.0664339,-3.15362
594,52.0006,-0.066806,-3.15496
594.5,52.0481,-0.0736087,-3.15626
595,52.1011,-0.0706296,-3.15626
595.5,52.1506,-0.0722608,-3.15529
596,52.201,-0.0679652,-3.15617
596.5,52.2502,-0.0717651,-3.15625
597,52.2997,-0.0732136,-3.15625
597.5,52.3494,-0.0639171,-3.15625
598,52.4004,-0.0697102,-3.15757
598.5,52.4497,-0.0683424,-3.15757
599,52.5005,-0.0708183,-3.15857
599.5,52.5502,-0.0706592,-3.15856
600,52.5986,-0.0690085,-3.15856
600.5,52.6492,-0.0711134,-3.15857
601,52.6999,-0.0677851,-3.15889
601.5,52.7499,-0.0713048,-3.15757
602,52.7992,-0.0704908,-3.1589
602.5,52.8488,-0.0713419,-3.15977
603,52.8998,-0.0770179,-3.15983
603.5,52.9491,-0.0764664,-3.16119
604,52.9989,-0.0682849,-3.16119
604.5,53.0487,-0.0711523,-3.16119
605,53.0987,-0.0767314,-3.16119
605.5,53.1482,-0.0808963,-3.16042
606,53.198,-0.083859,-3.16121
606.5,53.2484,-0.0848423,-3.16262
607,53.2975,-0.0800965,-3.16351
607.5,53.3481,-0.0821764,-3.16349
608,53.3979,-0.0789648,-3.16285
608.5,53.4473,-0.0890971,-3.16318
609,53.4979,-0.0820411,-3.16417
609.5,53.5476,-0.085307,-3.16417
610,53.5973,-0.0858921,-3.16417
610.5,53.6479,-0.0818348,-3.16417
611,53.6974,-0.0825594,-3.16347
611.5,53.7487,-0.083861,-3.16482
612,53.7964,-0.0854738,-3.16344
612.5,53.8483,-0.0873385,-3.16421
613,53.8975,-0.0806308,-3.16478
613.5,53.948,-0.089779,-3.16647
614,53.9987,-0.088915,-3.16647
614.5,54.0472,-0.0896408,-3.16647
615,54.0981,-0.0919175,-3.16647
615.5,54.1485,-0.0925859,-3.16647
616,54.1984,-0.0961347,-3.16746
616.5,54.2457,-0.0970387,-3.16879
617,54.2979,-0.100681,-3.16878
617.5,54.348,-0.100121,-3.16878
618,54.3976,-0.110162,-3.16882
618.5,54.4476,-0.107873,-3.16746
619,54.498,-0.104371,-3.16745
619.5,54.5466,-0.108152,-3.16877
620,54.5979,-0.117731,-3.16877
620.5,54.6486,-0.119457,-3.16895
621,54.6977,-0.114206,-3.17144
621.5,54.7477,-0.113206,-3.17141
622,54.7976,-0.119327,-3.1702
622.5,54.8473,-0.120173,-3.17009
623,54.8975,-0.121375,-3.17073
623.5,54.9476,-0.124946,-3.17141
624,54.9971,-0.127597,-3.17141
624.5,55.0475,-0.11758,-3.17243
625,55.0973,-0.12716,-3.17273
625.5,55.1471,-0.127762,-3.17276
626,55.197,-0.12703,-3.17141
626.5,55.2468,-0.13367,-3.17231
627,55.2974,-0.136469,-3.1727
627.5,55.3466,-0.139121,-3.17304
628,55.3965,-0.143439,-3.17299
628.5,55.4468,-0.141448,-3.17536
629,55.4972,-0.146187,-3.17536
629.5,55.5471,-0.147743,-3.17536
630,55.5971,-0.148491,-3.17407
630.5,55.6471,-0.140918,-3.17404
631,55.6976,-0.151971,-3.17403
631.5,55.7475,-0.154632,-3.17502
632,55.7973,-0.155087,-3.17636
632.5,55.8475,-0.156233,-3.17635
633,55.8974,-0.160605,-3.17736
633.5,55.948,-0.162797,-3.17767
634,55.9978,-0.164306,-3.17767
634.5,56.0476,-0.159025,-3.17762
635,56.0985,-0.168893,-3.17766
635.5,56.1486,-0.177056,-3.17887
636,56.1978,-0.173232,-3.17833
636.5,56.2489,-0.171598,-3.17833
637,56.2988,-0.184361,-3.17833
637.5,56.3489,-0.186093,-3.17949
638,56.3985,-0.186187,-3.17899
638.5,56.4491,-0.192313,-3.17899
639,56.4972,-0.188565,-3.17899
639.5,56.5496,-0.196699,-3.17893
640,56.5988,-0.192297,-3.1803
640.5,56.6497,-0.193799,-3.1803
641,56.7005,-0.192974,-3.1803
641.5,56.7499,-0.202964,-3.17963
642,56.8003,-0.192406,-3.17965
642.5,56.8507,-0.197717,-3.17965
643,56.9002,-0.187432,-3.17918
643.5,56.9509,-0.196396,-3.17931
644,57.0009,-0.190442,-3.17931
644.5,57.0505,-0.198867,-3.17931
645,57.1011,-0.193361,-3.17931
645.5,57.1513,-0.19682,-3.17965
646,57.2024,-0.193399,-3.18096
646.5,57.2522,-0.196192,-3.18096
647,57.3027,-0.197489,-3.18096
647.5,57.3523,-0.204189,-3.18096
648,57.4035,-0.202546,-3.18227
648.5,57.4533,-0.201654,-3.18228
649,57.5036,-0.198904,-3.18228
649.5,57.554,-0.199903,-3.1822
650,57.6044,-0.199558,-3.18124
650.5,57.6543,-0.200962,-3.18228
651,57.7055,-0.204522,-3.18328
651.5,57.7553,-0.205211,-3.18449
652,57.805,-0.211237,-3.18458
652.5,57.8558,-0.205319,-3.18458
653,57.905,-0.206097,-3.18458
653.5,57.9576,-0.209145,-3.18521
654,58.0072,-0.212525,-3.18458
654.5,58.0566,-0.209345,-3.18457
655,58.1081,-0.212996,-3.18695
655.5,58.1584,-0.215539,-3.18724
656,58.2089,-0.220336,-3.18722
656.5,58.2587,-0.222876,-3.18791
657,58.3094,-0.212822,-3.18788
657.5,58.3599,-0.217846,-3.18652
658,58.4103,-0.218128,-3.18722
658.5,58.4603,-0.221993,-3.1872
659,58.5107,-0.219082,-3.18853
659.5,58.5616,-0.222962,-3.18852
660,58.612,-0.230517,-3.18884
660.5,58.6625,-0.225703,-3.19018
661,58.7114,-0.226991,-3.19018
661.5,58.7628,-0.225105,-3.18948
662,58.8125,-0.223344,-3.19023
662.5,58.8625,-0.228338,-3.19018
663,58.9135,-0.227626,-3.19018
663.5,58.9635,-0.232448,-3.19018
664,59.0137,-0.238119,-3.19018
664.5,59.0645,-0.235137,-3.19018
665,59.1138,-0.231938,-3.19121
665.5,59.1649,-0.237235,-3.19112
666,59.2156,-0.241184,-3.19051
666.5,59.2654,-0.236977,-3.19051
667,59.3161,-0.245968,-3.19051
667.5,59.3657,-0.242735,-3.19069
668,59.4165,-0.24616,-3.19179
668.5,59.4666,-0.252471,-3.19312
669,59.5172,-0.243037,-3.19183
669.5,59.5675,-0.248915,-3.19183
670,59.618,-0.250003,-3.19301
670.5,59.6685,-0.255471,-3.19315
671,59.7195,-0.253612,-3.19341
671.5,59.7689,-0.255037,-3.19448
672,59.8198,-0.255817,-3.19447
672.5,59.8703,-0.263221,-3.19447
673,59.9218,-0.261881,-3.19446
673.5,59.9713,-0.263566,-3.19576
674,60.0219,-0.268149,-3.19446
674.5,60.0729,-0.26732,-3.19583
675,60.122,-0.27011,-3.19577
675.5,60.1726,-0.262982,-3.1971
676,60.2242,-0.261905,-3.1971
676.5,60.275,-0.263369,-3.1971
677,60.3249,-0.263538,-3.1984
677.5,60.3748,-0.263552,-3.19752
678,60.4252,-0.258805,-3.19712
678.5,60.4762,-0.267552,-3.19842
679,60.526,-0.2612,-3.19842
679.5,60.5768,-0.265993,-3.19842
680,60.628,-0.265498,-3.19842
680.5,60.6781,-0.263896,-3.19908
681,60.7288,-0.26345,-3.19908
681.5,60.7799,-0.26704,-3.19908
682,60.8303,-0.272043,-3.20037
682.5,60.8812,-0.265546,-3.20039
683,60.9311,-0.268618,-3.20039
683.5,60.98,-0.270949,-3.20172
684,61.0306,-0.27083,-3.20039
684.5,61.0812,-0.273072,-3.20039
685,61.1335,-0.272637,-3.20172
685.5,61.1828,-0.276702,-3.20171
686,61.233,-0.274205,-3.20172
686.5,61.2839,-0.279426,-3.20303
687,61.334,-0.275864,-3.20303
687.5,61.3846,-0.279956,-3.2032
688,61.4362,-0.285928,-3.20297
688.5,61.486,-0.289473,-3.20302
689,61.5363,-0.285962,-3.20432
689.5,61.5862,-0.292217,-3.20434
690,61.6368,-0.299541,-3.20434
690.5,61.6852,-0.292268,-3.20558
691,61.7358,-0.307261,-3.20434
691.5,61.7881,-0.303748,-3.20434
692,61.8382,-0.305871,-3.20567
692.5,61.8887,-0.303374,-3.20702
693,61.9386,-0.309543,-3.20565
693.5,61.9878,-0.307474,-3.20566
694,62.0386,-0.306611,-3.20566
694.5,62.0899,-0.308235,-3.20566
695,62.1411,-0.310314,-3.20633
695.5,62.1918,-0.310585,-3.20698
696,62.2405,-0.309807,-3.20698
696.5,62.2922,-0.315125,-3.20829
697,62.3427,-0.319272,-3.20829
697.5,62.3931,-0.323339,-3.20725
698,62.4436,-0.322951,-3.20828
698.5,62.4941,-0.328532,-3.20956
699,62.5443,-0.321239,-3.20961
699.5,62.5952,-0.322544,-3.20999
700,62.6461,-0.329551,-3.21093
700.5,62.697,-0.331582,-3.21093
701,62.7471,-0.331447,-3.21102
701.5,62.7977,-0.333664,-3.21126
702,62.8472,-0.333507,-3.21126
702.5,62.8981,-0.335705,-3.21126
703,62.9485,-0.33956,-3.21126
703.5,62.9988,-0.342284,-3.21126
704,63.0479,-0.334082,-3.21126
704.5,63.1004,-0.339233,-3.21126
705,63.1504,-0.343393,-3.21253
705.5,63.2004,-0.344819,-3.21257
706,63.2507,-0.351023,-3.21257
706.5,63.3024,-0.341018,-3.21257
707,63.3529,-0.343713,-3.2139
707.5,63.4032,-0.344316,-3.21357
708,63.4544,-0.345747,-3.21478
708.5,63.5055,-0.34366,-3.21356
709,63.5558,-0.346047,-3.21357
709.5,63.6056,-0.344681,-3.21347
710,63.6564,-0.346573,-3.21488
710.5,63.7066,-0.353159,-3.21478
711,63.759,-0.360103,-3.2162
711.5,63.808,-0.350515,-3.2162
712,63.8593,-0.362629,-3.2162
712.5,63.9098,-0.359733,-3.21617
713,63.9604,-0.364813,-3.21752
713.5,64.0112,-0.358327,-3.21752
714,64.0626,-0.361302,-3.21752
714.5,64.113,-0.366792,-3.21885
715,64.1632,-0.36033,-3.21841
715.5,64.2147,-0.369865,-3.21715
716,64.2656,-0.365117,-3.21719
716.5,64.3168,-0.367117,-3.21729
717,64.3669,-0.370393,-3.21851
717.5,64.4172,-0.378836,-3.21851
718,64.4685,-0.38272,-3.21847
718.5,64.5187,-0.385029,-3.21982
719,64.5703,-0.387174,-3.21982
719.5,64.6185,-0.390796,-3.2208
720,64.6698,-0.3899,-3.22081
720.5,64.7208,-0.383913,-3.22114
721,64.7724,-0.394428,-3.22114
721.5,64.8229,-0.394099,-3.22115
722,64.8731,-0.399767,-3.22246
722.5,64.9246,-0.401488,-3.22157
723,64.9743,-0.404441,-3.22114
723.5,65.0243,-0.406109,-3.22242
724,65.0751,-0.405826,-3.22282
724.5,65.1253,-0.407204,-3.22377
725,65.1763,-0.404385,-3.22377
725.5,65.2267,-0.415879,-3.22377
726,65.2775,-0.410247,-3.22377
726.5,65.325,-0.417473,-3.22377
727,65.3774,-0.41823,-3.22377
727.5,65.428,-0.414594,-3.22376
728,65.4775,-0.414981,-3.22378
728.5,65.5295,-0.414432,-3.22378
729,65.5795,-0.415521,-3.22378
729.5,65.6289,-0.418381,-3.22509
730,65.6807,-0.415678,-3.22608
730.5,65.731,-0.422207,-3.22641
731,65.7815,-0.419553,-3.22628
731.5,65.8317,-0.421198,-3.2255
732,65.8835,-0.41909,-3.22641
732.5,65.9332,-0.417814,-3.22641
733,65.9842,-0.418586,-3.2261
733.5,66.035,-0.426867,-3.22737
734,66.0849,-0.430626,-3.22685
734.5,66.1356,-0.424824,-3.22806
735,66.1865,-0.431384,-3.22806
735.5,66.2367,-0.427168,-3.22841
736,66.2877,-0.423529,-3.22872
736.5,66.3385,-0.421324,-3.22872
737,66.3886,-0.426968,-3.22872
737.5,66.4393,-0.429717,-3.22872
738,66.4894,-0.427173,-3.22901
738.5,66.5401,-0.426583,-3.22904
739,66.5912,-0.433287,-3.23035
739.5,66.6412,-0.433522,-3.23068
740,66.6924,-0.435365,-3.23101