File: 01_Data/Helmet_Shield/STA/N2/10K_min/Helmet_Shield_STA_N2_10KData_240225_R3.csv
Temp./C,Time/min,DSC/(mW/mg),Mass loss/mg
60.0,0.0,0.939832,-0.00881593
60.5,0.0576953,0.9492,-0.00936051
61,0.113981,0.966446,-0.0083735
61.5,0.170142,0.983704,-0.0101657
62,0.226355,0.99484,-0.00969401
62.5,0.280321,1.00538,-0.00994509
63,0.335817,1.01617,-0.00943076
63.5,0.391524,1.01626,-0.00934291
64,0.446503,1.0308,-0.00932485
64.5,0.496892,1.03016,-0.00904486
65,0.553841,1.03749,-0.00920884
65.5,0.608996,1.05372,-0.00921952
66,0.662712,1.05698,-0.00966838
66.5,0.717412,1.05825,-0.00923448
67,0.770331,1.0663,-0.00923104
67.5,0.823484,1.0728,-0.0104062
68,0.877404,1.07402,-0.0100032
68.5,0.929516,1.07368,-0.0105421
69,0.98254,1.08369,-0.00924749
69.5,1.03552,1.08808,-0.0105474
70,1.08868,1.09111,-0.00922712
70.5,1.14154,1.09299,-0.0103274
71,1.19436,1.10542,-0.00926433
71.5,1.24731,1.10995,-0.00922076
72,1.29943,1.11978,-0.00882593
72.5,1.3521,1.11394,-0.00926428
73,1.40436,1.11707,-0.00923559
73.5,1.45563,1.12442,-0.0105369
74,1.50877,1.12831,-0.0105538
74.5,1.56131,1.13928,-0.0105542
75,1.61392,1.14031,-0.00997165
75.5,1.66559,1.14743,-0.0105377
76,1.71374,1.15172,-0.0118702
76.5,1.76643,1.14959,-0.0105007
77,1.82015,1.15095,-0.0112221
77.5,1.87215,1.16349,-0.0119168
78,1.92396,1.15564,-0.0105494
78.5,1.97649,1.16434,-0.0104669
79,2.02659,1.17186,-0.01187
79.5,2.07624,1.16786,-0.0117296
80,2.12906,1.17536,-0.0118579
80.5,2.18097,1.17416,-0.010504
81,2.23174,1.19154,-0.0105344
81.5,2.28299,1.18059,-0.0105971
82,2.33342,1.18919,-0.0104287
82.5,2.3854,1.19312,-0.0118367
83,2.43616,1.1896,-0.0105499
83.5,2.48717,1.19846,-0.0118532
84,2.53758,1.19316,-0.0118702
84.5,2.58826,1.20434,-0.0115733
85,2.63846,1.19945,-0.0118605
85.5,2.68999,1.20153,-0.0130417
86,2.74036,1.20342,-0.0118236
86.5,2.79176,1.21255,-0.0118539
87,2.84192,1.21583,-0.0131877
87.5,2.89333,1.21384,-0.0131806
88,2.94337,1.21663,-0.0140466
88.5,2.99109,1.2176,-0.0131923
89,3.04275,1.21932,-0.0124907
89.5,3.09208,1.22625,-0.013172
90,3.14129,1.21946,-0.0118737
90.5,3.19208,1.22416,-0.0118595
91,3.24237,1.22138,-0.0121177
91.5,3.29227,1.23054,-0.0124361
92,3.33888,1.22885,-0.0125214
92.5,3.39066,1.22527,-0.0138166
93,3.44072,1.22102,-0.0138233
93.5,3.48987,1.22697,-0.0148676
94,3.53581,1.23207,-0.0145039
94.5,3.58735,1.23377,-0.0144918
95,3.63745,1.22709,-0.0131947
95.5,3.68794,1.23348,-0.0119193
96,3.73728,1.23273,-0.0118649
96.5,3.78748,1.24236,-0.0131799
97,3.83622,1.23788,-0.01318
97.5,3.8861,1.24354,-0.01318
98,3.93389,1.24518,-0.0131798
98.5,3.98464,1.24572,-0.0132638
99,4.03285,1.24576,-0.0131789
99.5,4.08239,1.25419,-0.0128655
100,4.13168,1.25311,-0.0118586
100.5,4.18018,1.26801,-0.010637
101,4.22941,1.26155,-0.011516
101.5,4.27791,1.26092,-0.0121683
102,4.32551,1.27161,-0.0138247
102.5,4.37664,1.26912,-0.0138405
103,4.42317,1.26792,-0.0133928
103.5,4.47246,1.267,-0.0132939
104,4.52161,1.2671,-0.0130819
104.5,4.57095,1.27716,-0.0125209
105,4.61993,1.27132,-0.0132211
105.5,4.66966,1.27177,-0.0138397
106,4.72686,1.27208,-0.013838
106.5,4.7769,1.28261,-0.0125299
107,4.82459,1.27735,-0.0125201
107.5,4.87357,1.27788,-0.0124548
108,4.92287,1.28539,-0.0138639
108.5,4.97014,1.28631,-0.01384
109,5.01971,1.29439,-0.0138504
109.5,5.06879,1.28916,-0.0134653
110,5.11741,1.29133,-0.0138523
110.5,5.16631,1.29366,-0.0138422
111,5.21532,1.29336,-0.0151419
111.5,5.26356,1.2938,-0.0137835
112,5.31324,1.296,-0.0138401
112.5,5.36114,1.29837,-0.0138369
113,5.41003,1.3044,-0.0148486
113.5,5.45928,1.30054,-0.0135097
114,5.50588,1.30393,-0.0135097
114.5,5.55434,1.30366,-0.0136934
115,5.60293,1.30545,-0.0128318
115.5,5.65232,1.30898,-0.0141766
116,5.701,1.31201,-0.0141701
116.5,5.75002,1.30869,-0.0141349
117,5.7994,1.31695,-0.0144257
117.5,5.8473,1.32195,-0.0138389
118,5.89549,1.31845,-0.0145275
118.5,5.94472,1.32435,-0.0152219
119,5.99321,1.32378,-0.0151598
119.5,6.04184,1.3306,-0.0149506
120,6.09069,1.32629,-0.0151598
120.5,6.1384,1.32514,-0.01516
121,6.18609,1.33003,-0.01516
121.5,6.23535,1.33188,-0.0151594
122,6.28413,1.3309,-0.0155406
122.5,6.33202,1.33157,-0.0158094
123,6.38083,1.32894,-0.0151594
123.5,6.42943,1.33396,-0.01516
124,6.47786,1.33403,-0.0151596
124.5,6.5263,1.33175,-0.0157941
125,6.57582,1.33633,-0.0164698
125.5,6.62385,1.33134,-0.0156154
126,6.67218,1.34521,-0.0151508
126.5,6.72035,1.33926,-0.0138641
127,6.76686,1.34662,-0.0137961
127.5,6.8159,1.34196,-0.015153
128,6.8648,1.34693,-0.0136339
128.5,6.91253,1.34091,-0.0151664
129,6.96068,1.34656,-0.013838
129.5,7.00818,1.35428,-0.0141282
130,7.05746,1.34504,-0.0151847
130.5,7.10498,1.35645,-0.0138277
131,7.15315,1.35191,-0.0151656
131.5,7.20211,1.35546,-0.0151605
132,7.24977,1.35575,-0.0159087
132.5,7.2984,1.35377,-0.0164808
133,7.34605,1.35869,-0.0151557
133.5,7.39458,1.36078,-0.0151745
134,7.44255,1.36348,-0.0164639
134.5,7.49094,1.36099,-0.0153338
135,7.53902,1.36493,-0.01516
135.5,7.58628,1.36928,-0.0149992
136,7.63349,1.37366,-0.0138437
136.5,7.68141,1.37667,-0.0150592
137,7.73062,1.37153,-0.01515
137.5,7.7785,1.37789,-0.01515
138,7.82659,1.374,-0.0151498
138.5,7.87454,1.37635,-0.0154903
139,7.92323,1.37299,-0.0164697
139.5,7.97103,1.38067,-0.0163868
140,8.01895,1.37915,-0.0161511
140.5,8.0669,1.37873,-0.01615
141,8.11421,1.37363,-0.01615
141.5,8.16285,1.38387,-0.01615
142,8.21043,1.38177,-0.01615
142.5,8.25848,1.38323,-0.0161482
143,8.30509,1.3783,-0.0158269
143.5,8.35336,1.39481,-0.0151737
144,8.40258,1.39151,-0.0164631
144.5,8.45116,1.38415,-0.0164803
145,8.49984,1.39041,-0.015206
145.5,8.54649,1.38853,-0.015153
146,8.59488,1.39704,-0.0164868
146.5,8.64128,1.39452,-0.0164799
147,8.68992,1.39327,-0.0164983
147.5,8.73848,1.39163,-0.0151602
148,8.78624,1.39621,-0.0150498
148.5,8.83488,1.39866,-0.0164703
149,8.88174,1.39927,-0.01647
149.5,8.92926,1.40406,-0.01647
150,8.97716,1.40479,-0.0164701
150.5,9.02521,1.40289,-0.0163088
151,9.07273,1.39905,-0.0150135
151.5,9.11877,1.40614,-0.01482
152,9.16813,1.40927,-0.0151114
152.5,9.21536,1.40717,-0.0151793
153,9.26448,1.40959,-0.0161485
153.5,9.31056,1.41228,-0.01614
154,9.35987,1.41243,-0.01614
154.5,9.40868,1.40944,-0.0161415
155,9.45554,1.40974,-0.017329
155.5,9.50269,1.414,-0.0174601
156,9.55098,1.4159,-0.01746
156.5,9.59949,1.42169,-0.0174688
157,9.64547,1.40494,-0.0161581
157.5,9.69444,1.40837,-0.016151
158,9.74282,1.41528,-0.0171572
158.5,9.79155,1.42312,-0.0173715
159,9.83801,1.42109,-0.0168131
159.5,9.88459,1.42765,-0.0174741
160,9.93345,1.42665,-0.0174691
160.5,9.98153,1.42118,-0.0187345
161,10.0278,1.42687,-0.0187799
161.5,10.0758,1.4343,-0.0184305
162,10.1248,1.43373,-0.0184505
162.5,10.1723,1.43937,-0.0190304
163,10.2208,1.43438,-0.0197705
163.5,10.2674,1.44352,-0.0204873
164,10.3154,1.45055,-0.0198341
164.5,10.3645,1.44265,-0.0201002
165,10.4112,1.45086,-0.0201
165.5,10.459,1.4505,-0.0201
166,10.5071,1.45082,-0.0201
166.5,10.5549,1.45654,-0.0200998
167,10.6017,1.45901,-0.0194469
167.5,10.6499,1.45753,-0.0174724
168,10.6978,1.45737,-0.017455
168.5,10.7447,1.45574,-0.0187864
169,10.7927,1.46098,-0.01878
169.5,10.8399,1.4604,-0.01878
170,10.8879,1.47058,-0.01878
170.5,10.936,1.46234,-0.01878
171,10.984,1.47367,-0.0187833
171.5,11.0313,1.47718,-0.020106
172,11.0787,1.47633,-0.0201
172.5,11.1263,1.48053,-0.0201
173,11.1749,1.47529,-0.0200956
173.5,11.2222,1.47401,-0.0188252
174,11.2691,1.47978,-0.0200979
174.5,11.3162,1.48655,-0.0200954
175,11.3642,1.48292,-0.0207554
175.5,11.412,1.4857,-0.0214148
176,11.4603,1.49013,-0.02141
176.5,11.508,1.48704,-0.02141
177,11.5549,1.49523,-0.021308
177.5,11.6013,1.49478,-0.0201023
178,11.6493,1.49817,-0.0201
178.5,11.6978,1.50303,-0.0201
179,11.7444,1.49786,-0.0201
179.5,11.79,1.50552,-0.0201013
180,11.8394,1.5028,-0.0202894
180.5,11.887,1.50576,-0.02076
181,11.934,1.51122,-0.0207603
181.5,11.9813,1.51118,-0.022074
182,12.0298,1.51304,-0.0220821
182.5,12.0759,1.50894,-0.0207104
183,12.1245,1.51338,-0.0208134
183.5,12.1728,1.51939,-0.0220756
184,12.2187,1.51355,-0.0233842
184.5,12.2675,1.51038,-0.0233629
185,12.3143,1.51961,-0.024371
185.5,12.3613,1.51558,-0.02437
186,12.4097,1.51695,-0.02437
186.5,12.4556,1.51941,-0.02437
187,12.5047,1.52009,-0.02437
187.5,12.5517,1.51911,-0.0243681
188,12.5992,1.52049,-0.0256879
188.5,12.6462,1.52435,-0.02569
189,12.6941,1.52681,-0.02569
189.5,12.7426,1.52541,-0.0256863
190,12.789,1.53035,-0.0243555
190.5,12.8361,1.53251,-0.0253483
191,12.8845,1.53376,-0.0260625
191.5,12.9313,1.53428,-0.0261379
192,12.9794,1.53814,-0.0273394
192.5,13.0258,1.53866,-0.0279492
193,13.0747,1.538,-0.0286599
193.5,13.1209,1.5363,-0.02866
194,13.1695,1.53185,-0.02866
194.5,13.2167,1.53448,-0.0286462
195,13.262,1.54566,-0.0279946
195.5,13.3119,1.53844,-0.028
196,13.3584,1.54045,-0.028
196.5,13.4062,1.54715,-0.0279431
197,13.4528,1.54393,-0.0290497
197.5,13.5016,1.5508,-0.0282972
198,13.5485,1.55409,-0.02833
198.5,13.5951,1.54984,-0.028361
199,13.6429,1.55801,-0.0296497
199.5,13.6915,1.54883,-0.0309487
200,13.7385,1.54956,-0.03097
200.5,13.7841,1.55785,-0.0309686
201,13.8326,1.55369,-0.0323393
201.5,13.8809,1.55717,-0.0336134
202,13.9275,1.55518,-0.0336043
202.5,13.9747,1.55838,-0.032622
203,14.0236,1.55848,-0.03262
203.5,14.0711,1.55886,-0.0326091
204,14.1179,1.56116,-0.0312987
204.5,14.1643,1.55946,-0.0333708
205,14.213,1.56441,-0.0336103
205.5,14.2602,1.56761,-0.0336199
206,14.3078,1.56336,-0.0352479
206.5,14.3553,1.56336,-0.0352078
207,14.4036,1.56236,-0.036603
207.5,14.4508,1.5649,-0.0378843
208,14.4982,1.56831,-0.0392059
208.5,14.5459,1.56749,-0.0392611
209,14.5926,1.57247,-0.0385412
209.5,14.6396,1.57228,-0.03854
210,14.6878,1.56579,-0.0385373
210.5,14.7356,1.56679,-0.0402744
211,14.7828,1.57182,-0.041169
211.5,14.8302,1.57551,-0.04117
212,14.8776,1.5721,-0.0411699
212.5,14.9248,1.57207,-0.0415086
213,14.9728,1.57586,-0.0424888
213.5,15.0205,1.57363,-0.0424987
214,15.068,1.57562,-0.0448516
214.5,15.1158,1.5722,-0.0448016
215,15.1639,1.57807,-0.046096
215.5,15.2101,1.57148,-0.0461203
216,15.258,1.57753,-0.0467257
216.5,15.3045,1.57663,-0.0474369
217,15.3519,1.5784,-0.0477612
217.5,15.4002,1.57634,-0.04776
218,15.4472,1.58931,-0.047766
218.5,15.4944,1.57651,-0.0497566
219,15.5428,1.58303,-0.0510677
219.5,15.5881,1.57749,-0.052342
220,15.636,1.58394,-0.0523912
220.5,15.6844,1.5824,-0.0536788
221,15.7324,1.58416,-0.0536915
221.5,15.7802,1.58052,-0.0547827
222,15.8271,1.5808,-0.0552144
222.5,15.8754,1.58262,-0.0571052
223,15.9224,1.58579,-0.0583201
223.5,15.9691,1.5896,-0.0582199
224,16.0173,1.58792,-0.0606378
224.5,16.0642,1.58297,-0.0605994
225,16.1121,1.58343,-0.0608917
225.5,16.1595,1.58753,-0.061914
226,16.2074,1.58803,-0.0630196
226.5,16.2548,1.5867,-0.0642517
227,16.3014,1.58671,-0.0655257
227.5,16.3492,1.58396,-0.0668594
228,16.3976,1.59304,-0.0681661
228.5,16.4429,1.58881,-0.0680814
229,16.4923,1.59304,-0.0707691
229.5,16.5402,1.59527,-0.0721387
230,16.5873,1.60158,-0.0734535
230.5,16.6329,1.59841,-0.0736449
231,16.6798,1.59751,-0.0747577
231.5,16.7292,1.60673,-0.0760803
232,16.7776,1.60573,-0.0773908
232.5,16.8233,1.60741,-0.0772849
233,16.8723,1.60964,-0.080348
233.5,16.92,1.61385,-0.0821232
234,16.967,1.60962,-0.0838684
234.5,17.0132,1.62263,-0.0838198
235,17.0626,1.62545,-0.0852169
235.5,17.1092,1.6238,-0.0867148
236,17.1583,1.62025,-0.0880418
236.5,17.2049,1.62236,-0.0907302
237,17.251,1.63053,-0.0921289
237.5,17.3003,1.63489,-0.0942399
238,17.3481,1.6421,-0.0961932
238.5,17.3953,1.64056,-0.0974727
239,17.4426,1.64305,-0.100202
239.5,17.4901,1.6498,-0.102056
240,17.5381,1.65912,-0.103815
240.5,17.5859,1.65652,-0.106257
241,17.633,1.66342,-0.107926
241.5,17.6803,1.67193,-0.110447
242,17.7278,1.67723,-0.113281
242.5,17.7753,1.68643,-0.114467
243,17.8222,1.68587,-0.115226
243.5,17.871,1.68917,-0.117504
244,17.92,1.70506,-0.119677
244.5,17.9672,1.70834,-0.124428
245,18.014,1.71648,-0.125581
245.5,18.0618,1.72068,-0.128908
246,18.1096,1.72698,-0.13027
246.5,18.1565,1.74046,-0.133157
247,18.2049,1.7447,-0.134966
247.5,18.2523,1.75474,-0.138164
248,18.3012,1.76574,-0.139849
248.5,18.3456,1.76948,-0.143564
249,18.3961,1.7809,-0.147871
249.5,18.4437,1.79076,-0.150904
250,18.4908,1.8116,-0.15214
250.5,18.538,1.82329,-0.155612
251,18.5865,1.8259,-0.158251
251.5,18.6345,1.83552,-0.161759
252,18.6815,1.84672,-0.165175
252.5,18.7293,1.85054,-0.167984
253,18.7775,1.86752,-0.171394
253.5,18.8241,1.87119,-0.174919
254,18.8736,1.87761,-0.180025
254.5,18.922,1.88323,-0.183842
255,18.9666,1.88545,-0.188183
255.5,19.0161,1.89,-0.192342
256,19.0633,1.90366,-0.196103
256.5,19.1099,1.90467,-0.200644
257,19.1598,1.93448,-0.204898
257.5,19.2071,1.93791,-0.210143
258,19.2542,1.9559,-0.214212
258.5,19.301,1.97218,-0.219555
259,19.3486,1.9932,-0.224062
259.5,19.3969,2.01193,-0.228929
260,19.4467,2.02729,-0.233338
260.5,19.4944,2.05439,-0.238967
261,19.5414,2.06932,-0.24377
261.5,19.5897,2.09194,-0.250208
262,19.6376,2.10956,-0.256309
262.5,19.6855,2.13217,-0.26255
263,19.7335,2.16259,-0.267865
263.5,19.7817,2.18593,-0.274257
264,19.8294,2.21104,-0.280476
264.5,19.8776,2.24204,-0.286594
265,19.9258,2.26987,-0.293317
265.5,19.9735,2.29941,-0.299308
266,20.0218,2.31974,-0.3067
266.5,20.0696,2.35567,-0.314198
267,20.1153,2.38491,-0.320998
267.5,20.1651,2.42368,-0.329763
268,20.2135,2.45715,-0.336779
268.5,20.2616,2.48916,-0.346043
269,20.3094,2.52147,-0.35436
269.5,20.3567,2.54875,-0.36456
270,20.4065,2.59035,-0.37276
270.5,20.4545,2.62673,-0.382264
271,20.5018,2.66288,-0.391817
271.5,20.5506,2.70058,-0.401302
272,20.5972,2.73466,-0.410293
272.5,20.646,2.77819,-0.421092
273,20.6941,2.8169,-0.433269
273.5,20.7429,2.8506,-0.44494
274,20.791,2.88865,-0.456198
274.5,20.8391,2.92982,-0.46669
275,20.8876,2.97278,-0.479492
275.5,20.9353,3.00663,-0.491264
276,20.9835,3.04182,-0.504465
276.5,21.0311,3.08038,-0.516876
277,21.0786,3.12184,-0.53012
277.5,21.1285,3.14756,-0.544929
278,21.1762,3.1885,-0.558384
278.5,21.2244,3.23047,-0.572881
279,21.273,3.25036,-0.587912
279.5,21.3216,3.28784,-0.602182
280,21.3698,3.31991,-0.619293
280.5,21.4185,3.34379,-0.634502
281,21.4663,3.37988,-0.648699
281.5,21.5137,3.40238,-0.664664
282,21.5616,3.43207,-0.680763
282.5,21.6103,3.45455,-0.69835
283,21.6586,3.47797,-0.714871
283.5,21.707,3.50747,-0.733634
284,21.7552,3.53411,-0.751077
284.5,21.8038,3.55178,-0.769604
285,21.852,3.57838,-0.788386
285.5,21.8989,3.59506,-0.80489
286,21.9477,3.6165,-0.823525
286.5,21.9961,3.62493,-0.843534
287,22.0432,3.64245,-0.863357
287.5,22.0909,3.66356,-0.883556
288,22.1389,3.67786,-0.902585
288.5,22.1863,3.69831,-0.920623
289,22.2354,3.7014,-0.941019
289.5,22.2826,3.71418,-0.961938
290,22.3304,3.72099,-0.98391
290.5,22.3791,3.72418,-1.00345
291,22.427,3.73274,-1.02465
291.5,22.4757,3.7282,-1.04574
292,22.5229,3.73738,-1.06753
292.5,22.5702,3.74543,-1.09048
293,22.6187,3.73921,-1.11014
293.5,22.6659,3.73639,-1.13111
294,22.7143,3.73424,-1.15356
294.5,22.7626,3.72282,-1.17576
295,22.81,3.71584,-1.19923
295.5,22.8572,3.69925,-1.21983
296,22.9061,3.69293,-1.2416
296.5,22.9526,3.66966,-1.26353
297,23.0001,3.65469,-1.28556
297.5,23.0472,3.63101,-1.30798
298,23.0957,3.60172,-1.33017
298.5,23.1426,3.57432,-1.35055
299,23.1901,3.5373,-1.37312
299.5,23.2371,3.5051,-1.39289
300,23.2848,3.46364,-1.41503
300.5,23.3323,3.43195,-1.4377
301,23.3798,3.37944,-1.4579
301.5,23.4258,3.34246,-1.47785
302,23.4736,3.28189,-1.49835
302.5,23.5208,3.22981,-1.51979
303,23.5687,3.18583,-1.54092
303.5,23.6142,3.13119,-1.55954
304,23.6628,3.06615,-1.57957
304.5,23.7091,3.01004,-1.5976
305,23.756,2.94661,-1.61568
305.5,23.8034,2.87527,-1.63534
306,23.8506,2.79628,-1.65354
306.5,23.898,2.72613,-1.67106
307,23.944,2.66501,-1.68628
307.5,23.9909,2.59049,-1.70252
308,24.0382,2.51976,-1.71934
308.5,24.0847,2.45344,-1.73467
309,24.1312,2.37662,-1.74922
309.5,24.1786,2.30324,-1.7642
310,24.2246,2.23526,-1.77781
310.5,24.2715,2.1657,-1.7909
311,24.3193,2.09569,-1.80313
311.5,24.3642,2.02836,-1.81487
312,24.411,1.96796,-1.82777
312.5,24.4599,1.90804,-1.83857
313,24.5071,1.8594,-1.84914
313.5,24.5543,1.8061,-1.85974
314,24.6006,1.74848,-1.87036
314.5,24.6477,1.70963,-1.88044
315,24.6957,1.66258,-1.89019
315.5,24.7434,1.62751,-1.89853
316,24.7895,1.59222,-1.90669
316.5,24.8379,1.56178,-1.91676
317,24.8856,1.51853,-1.92371
317.5,24.9327,1.50186,-1.92966
318,24.9799,1.4667,-1.93953
318.5,25.0278,1.44882,-1.94878
319,25.0741,1.41724,-1.95589
319.5,25.1222,1.40049,-1.96413
320,25.1697,1.37945,-1.971
320.5,25.2167,1.35833,-1.97869
321,25.265,1.33752,-1.98612
321.5,25.3126,1.31912,-1.99407
322,25.3605,1.30049,-1.99967
322.5,25.4091,1.28608,-2.00736
323,25.4562,1.27037,-2.01287
323.5,25.5037,1.24731,-2.01972
324,25.551,1.23413,-2.02598
324.5,25.5982,1.20774,-2.03204
325,25.6471,1.19996,-2.03775
325.5,25.6943,1.18709,-2.0438
326,25.7412,1.16885,-2.04989
326.5,25.7902,1.15204,-2.05561
327,25.8358,1.13979,-2.06115
327.5,25.8848,1.12151,-2.06725
328,25.9329,1.10815,-2.07356
328.5,25.9804,1.09458,-2.07908
329,26.0281,1.0829,-2.08387
329.5,26.074,1.06664,-2.08916
330,26.123,1.04875,-2.09417
330.5,26.1715,1.02826,-2.10089
331,26.2198,1.01049,-2.10525
331.5,26.2663,0.992912,-2.10932
332,26.3152,0.97566,-2.11441
332.5,26.3616,0.955266,-2.1189
333,26.4097,0.942863,-2.12407
333.5,26.4573,0.929901,-2.12802
334,26.5056,0.912163,-2.13333
334.5,26.553,0.900638,-2.13788
335,26.601,0.885365,-2.14291
335.5,26.6487,0.865986,-2.1466
336,26.6966,0.850293,-2.15019
336.5,26.7423,0.838097,-2.15524
337,26.792,0.829518,-2.15944
337.5,26.8388,0.798859,-2.16384
338,26.8867,0.791418,-2.16855
338.5,26.9352,0.773145,-2.17269
339,26.9828,0.756521,-2.17488
339.5,27.031,0.737933,-2.17817
340,27.0788,0.723518,-2.18119
340.5,27.1265,0.710349,-2.18543
341,27.1741,0.694674,-2.18955
341.5,27.2224,0.678304,-2.19399
342,27.27,0.667966,-2.19771
342.5,27.3182,0.648814,-2.20093
343,27.3661,0.643158,-2.20416
343.5,27.4138,0.627735,-2.20784
344,27.4615,0.612248,-2.21035
344.5,27.5102,0.596353,-2.21388
345,27.5571,0.582441,-2.21932
345.5,27.6057,0.566647,-2.22224
346,27.6536,0.550833,-2.22619
346.5,27.7017,0.537271,-2.22746
347,27.7492,0.527902,-2.22984
347.5,27.7972,0.509629,-2.23286
348,27.8461,0.497216,-2.23735
348.5,27.8934,0.48676,-2.23967
349,27.9421,0.475139,-2.24264
349.5,27.99,0.470152,-2.24559
350,28.0357,0.450157,-2.24798
350.5,28.0861,0.439921,-2.249
351,28.1339,0.423623,-2.25243
351.5,28.1824,0.417778,-2.25548
352,28.2302,0.40833,-2.25699
352.5,28.2784,0.397855,-2.2592
353,28.3264,0.394516,-2.26176
353.5,28.3752,0.386905,-2.26517
354,28.4221,0.371058,-2.26807
354.5,28.4714,0.3606,-2.26954
355,28.5197,0.35559,-2.27183
355.5,28.5674,0.35216,-2.2742
356,28.6159,0.341237,-2.27579
356.5,28.6636,0.337278,-2.2782
357,28.7125,0.324909,-2.28115
357.5,28.7595,0.317266,-2.28328
358,28.8077,0.310061,-2.28479
358.5,28.8561,0.306351,-2.28813
359,28.9044,0.298093,-2.2903
359.5,28.9522,0.295744,-2.29154
360,29.0005,0.286731,-2.29388
360.5,29.0486,0.283895,-2.29611
361,29.0978,0.278396,-2.2991
361.5,29.1452,0.274332,-2.30055
362,29.1927,0.268113,-2.30313
362.5,29.2407,0.269871,-2.30416
363,29.2897,0.263376,-2.30558
363.5,29.3344,0.257986,-2.30664
364,29.3849,0.250163,-2.30945
364.5,29.4342,0.249991,-2.31143
365,29.4811,0.247797,-2.31376
365.5,29.5301,0.24046,-2.31469
366,29.5782,0.241848,-2.31708
366.5,29.6256,0.245562,-2.31873
367,29.6744,0.242453,-2.32167
367.5,29.7209,0.237428,-2.32321
368,29.7701,0.236669,-2.32587
368.5,29.8193,0.237031,-2.32753
369,29.8673,0.232914,-2.32905
369.5,29.9162,0.234933,-2.3318
370,29.9639,0.23085,-2.33354
370.5,30.0126,0.239509,-2.33475
371,30.0613,0.241511,-2.33811
371.5,30.1073,0.239062,-2.33927
372,30.1585,0.248248,-2.34068
372.5,30.2061,0.251808,-2.34265
373,30.2544,0.255092,-2.34469
373.5,30.3035,0.255059,-2.34654
374,30.3502,0.260879,-2.3492
374.5,30.3998,0.255844,-2.35144
375,30.4474,0.25533,-2.35421
375.5,30.4966,0.25686,-2.35588
376,30.5445,0.261728,-2.35596
376.5,30.5938,0.263331,-2.35844
377,30.6397,0.264608,-2.3607
377.5,30.6898,0.264808,-2.3637
378,30.7379,0.272873,-2.36517
378.5,30.7876,0.273243,-2.36909
379,30.8348,0.275133,-2.37113
379.5,30.8829,0.276084,-2.3729
380,30.9318,0.288589,-2.3751
380.5,30.9802,0.288474,-2.37716
381,31.0281,0.286351,-2.37935
381.5,31.0768,0.285484,-2.38338
382,31.1253,0.294614,-2.38552
382.5,31.1738,0.2963,-2.38954
383,31.222,0.296313,-2.39145
383.5,31.2695,0.301313,-2.39425
384,31.319,0.305143,-2.39501
384.5,31.3675,0.308928,-2.39797
385,31.4158,0.309514,-2.40116
385.5,31.4651,0.316128,-2.40431
386,31.5116,0.31758,-2.40657
386.5,31.5614,0.323176,-2.40865
387,31.6103,0.328373,-2.41143
387.5,31.6579,0.331268,-2.41427
388,31.7071,0.333476,-2.41646
388.5,31.7547,0.332795,-2.41953
389,31.804,0.337339,-2.42332
389.5,31.854,0.343949,-2.42799
390,31.9005,0.342051,-2.43001
390.5,31.9503,0.34512,-2.43436
391,31.9987,0.348512,-2.43807
391.5,32.0476,0.352752,-2.43974
392,32.0962,0.349553,-2.44296
392.5,32.1437,0.350048,-2.44644
393,32.1929,0.358236,-2.44931
393.5,32.2417,0.35883,-2.45375
394,32.2916,0.357309,-2.45742
394.5,32.3402,0.353173,-2.46095
395,32.3867,0.36082,-2.46239
395.5,32.4368,0.358774,-2.46588
396,32.4855,0.358711,-2.4698
396.5,32.5343,0.358974,-2.47433
397,32.5838,0.359336,-2.47808
397.5,32.6288,0.358748,-2.48025
398,32.6803,0.365481,-2.48458
398.5,32.7281,0.364736,-2.48732
399,32.7773,0.356859,-2.49065
399.5,32.8262,0.365195,-2.49533
400,32.8755,0.366721,-2.49839
400.5,32.9237,0.371367,-2.50133
401,32.9724,0.369352,-2.5057
401.5,33.0218,0.369206,-2.51053
402,33.0712,0.365799,-2.51406
402.5,33.1193,0.368206,-2.51608
403,33.1675,0.369296,-2.52015
403.5,33.2169,0.369526,-2.52437
404,33.264,0.355339,-2.52885
404.5,33.3139,0.360376,-2.53324
405,33.3632,0.364288,-2.53621
405.5,33.4115,0.367401,-2.5395
406,33.4592,0.360702,-2.54416
406.5,33.5091,0.364513,-2.54903
407,33.5578,0.363162,-2.55368
407.5,33.606,0.356003,-2.55811
408,33.6556,0.358597,-2.56183
408.5,33.7039,0.361353,-2.56533
409,33.7522,0.353331,-2.56981
409.5,33.8009,0.348331,-2.5751
410,33.8498,0.357446,-2.57862
410.5,33.8993,0.351475,-2.58147
411,33.9474,0.345941,-2.58539
411.5,33.9965,0.340469,-2.59008
412,34.0451,0.341052,-2.5943
412.5,34.0928,0.337949,-2.59826
413,34.1421,0.335091,-2.60241
413.5,34.19,0.333201,-2.60621
414,34.2389,0.32153,-2.61186
414.5,34.2876,0.320173,-2.61494
415,34.3375,0.320664,-2.62007
415.5,34.3851,0.31781,-2.6244
416,34.4345,0.310229,-2.62992
416.5,34.483,0.307673,-2.63382
417,34.5316,0.302934,-2.63846
417.5,34.5807,0.299449,-2.64097
418,34.6287,0.301973,-2.64523
418.5,34.6784,0.297173,-2.65026
419,34.7261,0.294797,-2.65544
419.5,34.7741,0.286077,-2.65962
420,34.8222,0.281231,-2.66385
420.5,34.8726,0.280567,-2.66858
421,34.9217,0.272235,-2.67191
421.5,34.9706,0.272902,-2.67633
422,35.0191,0.265531,-2.68216
422.5,35.0682,0.267318,-2.68581
423,35.1163,0.266274,-2.68889
423.5,35.1659,0.260531,-2.6932
424,35.2145,0.264988,-2.69719
424.5,35.2632,0.258684,-2.70149
425,35.3117,0.262322,-2.70612
425.5,35.3602,0.25848,-2.71049
426,35.4092,0.25525,-2.71521
426.5,35.4584,0.251387,-2.71954
427,35.506,0.248015,-2.72331
427.5,35.5561,0.250615,-2.72864
428,35.6036,0.24558,-2.73244
428.5,35.6531,0.243587,-2.73615
429,35.7024,0.235566,-2.74077
429.5,35.7507,0.242273,-2.74563
430,35.7996,0.240583,-2.7495
430.5,35.8488,0.241645,-2.75337
431,35.8956,0.239265,-2.75805
431.5,35.9444,0.242034,-2.76209
432,35.9923,0.23947,-2.76723
432.5,36.0444,0.236401,-2.77097
433,36.0923,0.237935,-2.77532
433.5,36.1427,0.244275,-2.7797
434,36.1909,0.248555,-2.78628
434.5,36.2406,0.245771,-2.79111
435,36.2873,0.249982,-2.79512
435.5,36.3376,0.258416,-2.80026
436,36.3854,0.261607,-2.80403
436.5,36.4357,0.253162,-2.80805
437,36.4842,0.250925,-2.81293
437.5,36.5329,0.265906,-2.81805
438,36.5818,0.270125,-2.82209
438.5,36.6311,0.26275,-2.82711
439,36.6794,0.265161,-2.83161
439.5,36.7291,0.27765,-2.83705
440,36.7777,0.278765,-2.84169
440.5,36.8265,0.28999,-2.84647
441,36.8759,0.296603,-2.8505
441.5,36.9258,0.292126,-2.85527
442,36.9745,0.303758,-2.86091
442.5,37.0229,0.310889,-2.86563
443,37.0722,0.315007,-2.87027
443.5,37.1216,0.324679,-2.87516
444,37.1692,0.327984,-2.87967
444.5,37.2184,0.333272,-2.88497
445,37.2662,0.331579,-2.88851
445.5,37.317,0.338812,-2.89456
446,37.367,0.352926,-2.89882
446.5,37.4148,0.350823,-2.90358
447,37.4641,0.353186,-2.90864
447.5,37.5131,0.357786,-2.91392
448,37.5626,0.363426,-2.91704
448.5,37.611,0.364584,-2.92149
449,37.6612,0.365084,-2.92743
449.5,37.71,0.371742,-2.93329
450,37.7596,0.378971,-2.938
450.5,37.8077,0.379106,-2.94208
451,37.8566,0.388609,-2.94746
451.5,37.9062,0.389818,-2.94966
452,37.9523,0.390773,-2.95426
452.5,38.0042,0.394795,-2.9596
453,38.0507,0.387585,-2.96451
453.5,38.1029,0.392635,-2.96791
454,38.1507,0.391188,-2.97217
454.5,38.2008,0.389498,-2.97715
455,38.2499,0.39059,-2.98163
455.5,38.299,0.392573,-2.98635
456,38.3481,0.394692,-2.99102
456.5,38.3969,0.400353,-2.99485
457,38.4463,0.398024,-3.00025
457.5,38.4955,0.395647,-3.00453
458,38.5444,0.394355,-3.00782
458.5,38.5938,0.394334,-3.01254
459,38.6414,0.392933,-3.01766
459.5,38.6921,0.390397,-3.02135
460,38.74,0.394687,-3.02554
460.5,38.7894,0.389739,-3.03004
461,38.8391,0.390828,-3.03367
461.5,38.8891,0.39572,-3.0374
462,38.9383,0.393536,-3.04119
462.5,38.9867,0.393134,-3.0449
463,39.0358,0.392661,-3.04825
463.5,39.085,0.392457,-3.0515
464,39.1349,0.390076,-3.05571
464.5,39.1833,0.393719,-3.05947
465,39.2326,0.381438,-3.0608
465.5,39.2819,0.374964,-3.06496
466,39.3303,0.372154,-3.06968
466.5,39.3802,0.372016,-3.07239
467,39.4294,0.365212,-3.07537
467.5,39.4776,0.363813,-3.07893
468,39.5276,0.35612,-3.08257
468.5,39.5763,0.355007,-3.0859
469,39.6251,0.354342,-3.0889
469.5,39.6748,0.354598,-3.09158
470,39.7229,0.347068,-3.09547
470.5,39.7727,0.346499,-3.09857
471,39.8222,0.3473,-3.10064
471.5,39.8708,0.339969,-3.10245
472,39.9198,0.339474,-3.105
472.5,39.9691,0.33793,-3.10823
473,40.0184,0.338329,-3.1106
473.5,40.0668,0.334757,-3.11348
474,40.1171,0.330677,-3.11492
474.5,40.1661,0.329049,-3.1184
475,40.2148,0.325971,-3.12207
475.5,40.2635,0.328363,-3.12366
476,40.3135,0.31931,-3.12585
476.5,40.3636,0.319496,-3.12783
477,40.4117,0.307573,-3.12953
477.5,40.462,0.309194,-3.13217
478,40.5104,0.302252,-3.13341
478.5,40.5606,0.304609,-3.13426
479,40.6093,0.302014,-3.13569
479.5,40.6582,0.301253,-3.13919
480,40.7077,0.298739,-3.14215
480.5,40.7555,0.295366,-3.1436
481,40.8057,0.295629,-3.14479
481.5,40.8559,0.291806,-3.14542
482,40.9046,0.290946,-3.14745
482.5,40.9524,0.293202,-3.14924
483,41.0022,0.296069,-3.14926
483.5,41.0518,0.286496,-3.15261
484,41.0999,0.294361,-3.1544
484.5,41.1492,0.281071,-3.15572
485,41.1986,0.286805,-3.15653
485.5,41.2485,0.281194,-3.15746
486,41.2969,0.280162,-3.15929
486.5,41.3462,0.283302,-3.161
487,41.3956,0.277205,-3.16098
487.5,41.4455,0.276676,-3.16253
488,41.4942,0.271939,-3.16384
488.5,41.5429,0.267683,-3.16507
489,41.593,0.269547,-3.16633
489.5,41.642,0.271535,-3.16781
490,41.6911,0.269645,-3.16942
490.5,41.7397,0.262296,-3.17054
491,41.7898,0.259846,-3.17185
491.5,41.8381,0.261598,-3.17279
492,41.8882,0.259427,-3.17315
492.5,41.9375,0.252987,-3.17447
493,41.9871,0.263234,-3.17699
493.5,42.036,0.263369,-3.17779
494,42.0857,0.259288,-3.17793
494.5,42.1324,0.261382,-3.17786
495,42.1831,0.250311,-3.17909
495.5,42.2327,0.258048,-3.17945
496,42.2826,0.262484,-3.18044
496.5,42.3316,0.250801,-3.18173
497,42.3805,0.253256,-3.18173
497.5,42.4301,0.253374,-3.18306
498,42.4792,0.247521,-3.18437
498.5,42.5289,0.248652,-3.18437
499,42.5792,0.244857,-3.18569
499.5,42.6281,0.251114,-3.18701
500,42.6769,0.250171,-3.18826
500.5,42.7272,0.246563,-3.18832
501,42.776,0.243503,-3.18847
501.5,42.8235,0.244993,-3.18968
502,42.8722,0.245445,-3.19126
502.5,42.9235,0.237775,-3.19222
503,42.9729,0.23731,-3.19359
503.5,43.0228,0.235748,-3.19351
504,43.0722,0.23722,-3.19491
504.5,43.1209,0.231977,-3.19491
505,43.1712,0.242704,-3.19627
505.5,43.2206,0.24175,-3.1949
506,43.2688,0.245942,-3.19622
506.5,43.3198,0.240049,-3.19622
507,43.3671,0.233385,-3.19748
507.5,43.4173,0.237742,-3.19812
508,43.4668,0.237763,-3.19921
508.5,43.5158,0.235363,-3.20051
509,43.5657,0.238987,-3.20193
509.5,43.6153,0.240714,-3.20051
510,43.6636,0.235893,-3.20071
510.5,43.7142,0.230991,-3.20313
511,43.7637,0.236043,-3.20308
511.5,43.8124,0.233998,-3.20315
512,43.8629,0.235036,-3.20417
512.5,43.9126,0.231556,-3.20447
513,43.9617,0.236937,-3.20447
513.5,44.0098,0.239093,-3.20447
514,44.0599,0.24035,-3.20522
514.5,44.1098,0.245803,-3.20654
515,44.1593,0.243355,-3.20712
515.5,44.2085,0.234187,-3.20842
516,44.2581,0.243444,-3.20842
516.5,44.3078,0.234542,-3.20842
517,44.3568,0.233008,-3.20973
517.5,44.4067,0.241134,-3.20974
518,44.4563,0.226571,-3.21006
518.5,44.5053,0.230652,-3.21135
519,44.553,0.233709,-3.2127
519.5,44.6038,0.23184,-3.21269
520,44.6535,0.236256,-3.2127
520.5,44.7029,0.233527,-3.21393
521,44.7528,0.233947,-3.2127
521.5,44.8022,0.228949,-3.21266
522,44.8513,0.232423,-3.21401
522.5,44.9003,0.23714,-3.21401
523,44.9496,0.237326,-3.21401
523.5,44.9997,0.233134,-3.21594
524,45.0475,0.237564,-3.21788
524.5,45.0989,0.237396,-3.21796
525,45.1481,0.248604,-3.21796
525.5,45.1975,0.243923,-3.21772
526,45.2468,0.243304,-3.21833
526.5,45.296,0.238932,-3.21829
527,45.3453,0.233431,-3.21961
527.5,45.3934,0.235228,-3.21961
528,45.444,0.240422,-3.21962
528.5,45.4942,0.240067,-3.2206
529,45.5442,0.24346,-3.2206
529.5,45.5933,0.239814,-3.2206
530,45.6431,0.245393,-3.22189
530.5,45.6922,0.252411,-3.22324
531,45.7419,0.251885,-3.22324
531.5,45.7907,0.245618,-3.22331
532,45.8402,0.247474,-3.22455
532.5,45.8897,0.249102,-3.22531
533,45.9394,0.247377,-3.22589
533.5,45.9891,0.251789,-3.22617
534,46.0368,0.255329,-3.22587
534.5,46.0886,0.250224,-3.22719
535,46.1375,0.252294,-3.22719
535.5,46.1871,0.252507,-3.2264
536,46.2376,0.255846,-3.22802
536.5,46.2872,0.25198,-3.22851
537,46.3369,0.253357,-3.22844
537.5,46.3867,0.256278,-3.22982
538,46.436,0.260302,-3.22982
538.5,46.4846,0.266728,-3.23116
539,46.5348,0.264044,-3.23015
539.5,46.5846,0.266087,-3.23015
540,46.634,0.268229,-3.23004
540.5,46.6837,0.266018,-3.23147
541,46.7336,0.266057,-3.23142
541.5,46.7829,0.270761,-3.23247
542,46.8323,0.268455,-3.23247
542.5,46.8803,0.276097,-3.23376
543,46.9319,0.269025,-3.23377
543.5,46.9805,0.273593,-3.23379
544,47.0306,0.276764,-3.23311
544.5,47.0816,0.277539,-3.23245
545,47.1304,0.267832,-3.23384
545.5,47.1797,0.275575,-3.23377
546,47.2298,0.27217,-3.23377
546.5,47.2794,0.270833,-3.23509
547,47.3291,0.268434,-3.23578
547.5,47.3785,0.271585,-3.2364
548,47.4278,0.269676,-3.2364
548.5,47.475,0.273769,-3.2365
549,47.5266,0.278179,-3.23772
549.5,47.5775,0.273086,-3.23772
550,47.6253,0.268373,-3.23772
550.5,47.6757,0.274778,-3.2377
551,47.7251,0.272695,-3.23838
551.5,47.7752,0.273551,-3.23838
552,47.8249,0.272253,-3.23909
552.5,47.8745,0.277676,-3.23904
553,47.9231,0.270229,-3.23903
553.5,47.9715,0.271564,-3.24012
554,48.0233,0.272413,-3.24033
554.5,48.0715,0.271507,-3.23905
555,48.1214,0.26983,-3.23898
555.5,48.1715,0.279023,-3.24036
556,48.2213,0.276799,-3.24036
556.5,48.2696,0.274726,-3.2417
557,48.3196,0.275372,-3.24168
557.5,48.3687,0.276839,-3.243
558,48.4193,0.272086,-3.243
558.5,48.4685,0.276245,-3.243
559,48.5164,0.279671,-3.243
559.5,48.5681,0.278375,-3.24301
560,48.6175,0.274277,-3.24432
560.5,48.6669,0.279029,-3.24432
561,48.7159,0.282717,-3.24432
561.5,48.7658,0.28908,-3.24422
562,48.8154,0.280692,-3.24563
562.5,48.865,0.282226,-3.24431
563,48.9144,0.288798,-3.24538
563.5,48.9646,0.283126,-3.24694
564,49.0135,0.283894,-3.24695
564.5,49.064,0.285966,-3.24629
565,49.1114,0.279986,-3.24629
565.5,49.1624,0.286924,-3.24629
566,49.2133,0.286075,-3.24629
566.5,49.2628,0.283209,-3.24648
567,49.3112,0.282599,-3.2476
567.5,49.3611,0.282902,-3.24695
568,49.4113,0.279123,-3.24836
568.5,49.46,0.278878,-3.24827
569,49.5108,0.2762,-3.24827
569.5,49.5602,0.274688,-3.24827
570,49.6101,0.276578,-3.24873
570.5,49.6588,0.274448,-3.24958
571,49.7098,0.277847,-3.24958
571.5,49.7595,0.273143,-3.24958
572,49.8084,0.27873,-3.24958
572.5,49.8588,0.271986,-3.24967
573,49.9082,0.269898,-3.24955
573.5,49.9583,0.265067,-3.2509
574,50.0079,0.264283,-3.25083
574.5,50.0573,0.26143,-3.25222
575,50.1069,0.272125,-3.25223
575.5,50.1562,0.266272,-3.2519
576,50.2071,0.268898,-3.25223
576.5,50.2562,0.270293,-3.25246
577,50.3056,0.27111,-3.25319
577.5,50.3548,0.267447,-3.25453
578,50.4052,0.27556,-3.25452
578.5,50.4559,0.275675,-3.25436
579,50.5029,0.276558,-3.25342
579.5,50.5529,0.270071,-3.25452
580,50.6045,0.274494,-3.25452
580.5,50.6542,0.272758,-3.25452
581,50.7026,0.271577,-3.25585
581.5,50.7534,0.268142,-3.25584
582,50.8021,0.267576,-3.25654
582.5,50.8524,0.268584,-3.25579
583,50.9023,0.267824,-3.25575
583.5,50.952,0.260898,-3.25518
584,51.0012,0.267992,-3.25604
584.5,51.0513,0.264407,-3.25692
585,51.1008,0.264208,-3.25781
585.5,51.1509,0.264794,-3.2591
586,51.2005,0.262924,-3.25783
586.5,51.2505,0.263295,-3.25781
587,51.2998,0.267644,-3.25781
587.5,51.3491,0.269574,-3.25783
588,51.3991,0.268599,-3.25982
588.5,51.4487,0.26365,-3.26012
589,51.4993,0.273851,-3.26012
589.5,51.5489,0.272282,-3.26012
590,51.597,0.272825,-3.26014
590.5,51.649,0.274686,-3.26013
591,51.6986,0.275636,-3.26143
591.5,51.7482,0.276944,-3.26143
592,51.7982,0.279706,-3.26143
592.5,51.8475,0.284834,-3.26275
593,51.8979,0.279555,-3.26275
593.5,51.9477,0.276972,-3.26183
594,51.9968,0.279335,-3.26144
594.5,52.0466,0.286166,-3.26144
595,52.097,0.2818,-3.26245
595.5,52.1474,0.281289,-3.26273
596,52.1974,0.276606,-3.26276
596.5,52.2462,0.27291,-3.26276
597,52.2969,0.281055,-3.26273
597.5,52.3464,0.284962,-3.26408
598,52.3957,0.286827,-3.26408
598.5,52.4461,0.280287,-3.26428
599,52.4943,0.280148,-3.2651
599.5,52.5456,0.276445,-3.2637
600,52.5956,0.282284,-3.26407
600.5,52.645,0.284612,-3.26439
601,52.6962,0.285454,-3.26671
601.5,52.7449,0.276578,-3.26678
602,52.7952,0.283794,-3.26539
602.5,52.845,0.282969,-3.26539
603,52.8937,0.283977,-3.26539
603.5,52.9442,0.289831,-3.26538
604,52.9939,0.286274,-3.26672
604.5,53.0441,0.284722,-3.26675
605,53.0944,0.283171,-3.26803
605.5,53.1439,0.283954,-3.26802
606,53.1934,0.282371,-3.26934
606.5,53.2438,0.283881,-3.26934
607,53.2935,0.282578,-3.26934
607.5,53.3424,0.276512,-3.26934
608,53.3924,0.28234,-3.26923
608.5,53.4424,0.282106,-3.26898
609,53.492,0.279172,-3.26934
609.5,53.5397,0.277731,-3.26934
610,53.5914,0.28313,-3.27065
610.5,53.6412,0.280582,-3.27066
611,53.6921,0.284572,-3.27066
611.5,53.7423,0.282365,-3.27066
612,53.791,0.287414,-3.27066
612.5,53.8408,0.277424,-3.27127
613,53.891,0.280583,-3.27069
613.5,53.9411,0.278634,-3.27198
614,53.9909,0.283323,-3.27206
614.5,54.0408,0.279979,-3.27329
615,54.0903,0.282901,-3.27329
615.5,54.1412,0.276464,-3.27416
616,54.191,0.278867,-3.27461
616.5,54.2405,0.270074,-3.27461
617,54.2914,0.273992,-3.27461
617.5,54.3406,0.268543,-3.27596
618,54.3909,0.262086,-3.27461
618.5,54.4417,0.253286,-3.27461
619,54.4923,0.25828,-3.27602
619.5,54.5415,0.262713,-3.27595
620,54.591,0.256783,-3.27461
620.5,54.6409,0.258334,-3.27456
621,54.6918,0.253492,-3.27592
621.5,54.741,0.254952,-3.27588
622,54.7913,0.260177,-3.27724
622.5,54.8416,0.249569,-3.27724
623,54.891,0.248676,-3.27755
623.5,54.9417,0.249211,-3.27889
624,54.9907,0.24483,-3.27988
624.5,55.041,0.25141,-3.27988
625,55.0909,0.249385,-3.27864
625.5,55.1404,0.245332,-3.27856
626,55.1912,0.239602,-3.27986
626.5,55.2408,0.232351,-3.27858
627,55.2913,0.243269,-3.27986
627.5,55.3411,0.234335,-3.27988
628,55.3911,0.232506,-3.27988
628.5,55.4402,0.22535,-3.27988
629,55.4909,0.222791,-3.2792
629.5,55.5411,0.232378,-3.28054
630,55.5905,0.225231,-3.28055
630.5,55.6411,0.219548,-3.27988
631,55.6914,0.225172,-3.27987
631.5,55.7415,0.210629,-3.2812
632,55.7909,0.211451,-3.28051
632.5,55.8412,0.205552,-3.28054
633,55.8907,0.20034,-3.28054
633.5,55.941,0.198797,-3.28054
634,55.991,0.199138,-3.28054
634.5,56.0416,0.199579,-3.28062
635,56.091,0.193973,-3.28133
635.5,56.1414,0.196644,-3.28285
636,56.1919,0.193214,-3.28281
636.5,56.2425,0.195253,-3.28449
637,56.2918,0.184376,-3.28588
637.5,56.3397,0.184413,-3.28581
638,56.3916,0.193192,-3.28493
638.5,56.4423,0.194025,-3.28581
639,56.4908,0.189779,-3.28527
639.5,56.5405,0.184808,-3.28449
640,56.592,0.184386,-3.28449
640.5,56.6419,0.179329,-3.28569
641,56.6922,0.178127,-3.28581
641.5,56.7428,0.184944,-3.28584
642,56.7926,0.18331,-3.28713
642.5,56.8425,0.180691,-3.2858
643,56.8928,0.174774,-3.28581
643.5,56.9429,0.170512,-3.28584
644,56.9932,0.173432,-3.28726
644.5,57.0432,0.174078,-3.28778
645,57.0931,0.172467,-3.28778
645.5,57.144,0.173044,-3.28781
646,57.1931,0.170902,-3.2891
646.5,57.2437,0.164728,-3.28846
647,57.2937,0.168278,-3.28844
647.5,57.3426,0.161424,-3.28836
648,57.3925,0.162235,-3.28976
648.5,57.4435,0.160808,-3.28976
649,57.493,0.163575,-3.28976
649.5,57.5437,0.160829,-3.28976
650,57.5935,0.154057,-3.28983
650.5,57.6432,0.154259,-3.29108
651,57.6931,0.158267,-3.29108
651.5,57.7424,0.151991,-3.29108
652,57.7946,0.151477,-3.29109
652.5,57.8436,0.154999,-3.29174
653,57.8935,0.150687,-3.29174
653.5,57.945,0.148827,-3.29036
654,57.9947,0.150226,-3.29172
654.5,58.0452,0.140308,-3.29174
655,58.095,0.148248,-3.29224
655.5,58.145,0.1405,-3.29309
656,58.196,0.146549,-3.29402
656.5,58.2457,0.139147,-3.29372
657,58.2967,0.144795,-3.29373
657.5,58.3468,0.141552,-3.29405
658,58.397,0.139198,-3.29507
658.5,58.4472,0.136836,-3.29504
659,58.4977,0.126882,-3.29505
659.5,58.5471,0.138711,-3.29527
660,58.5977,0.129899,-3.2957
660.5,58.6478,0.131601,-3.29569
661,58.6975,0.129263,-3.29569
661.5,58.7488,0.127424,-3.2959
662,58.7972,0.13152,-3.29569
662.5,58.8497,0.130077,-3.29569
663,58.8994,0.128533,-3.29503
663.5,58.9494,0.119654,-3.29503
664,58.9994,0.127697,-3.29743
664.5,59.0498,0.127985,-3.29734
665,59.1,0.13113,-3.29866
665.5,59.15,0.136409,-3.29866
666,59.2015,0.127305,-3.29731
666.5,59.2504,0.126119,-3.29734
667,59.3016,0.12876,-3.29734
667.5,59.352,0.121614,-3.29749
668,59.401,0.118511,-3.29733
668.5,59.4524,0.118319,-3.29733
669,59.503,0.124882,-3.29733
669.5,59.5527,0.121644,-3.29733
670,59.6029,0.123534,-3.29733
670.5,59.6537,0.117523,-3.29872
671,59.7047,0.118516,-3.30006
671.5,59.7548,0.116001,-3.30008
672,59.8056,0.122231,-3.30008
672.5,59.8552,0.114021,-3.30008
673,59.9039,0.115422,-3.30038
673.5,59.9552,0.116751,-3.3014
674,60.0064,0.117411,-3.3014
674.5,60.0559,0.113891,-3.3014
675,60.1067,0.112454,-3.30008
675.5,60.1569,0.10366,-3.30105
676,60.2071,0.106616,-3.30239
676.5,60.2572,0.112036,-3.30271
677,60.3077,0.102139,-3.3014
677.5,60.3578,0.0975447,-3.30266
678,60.4086,0.107556,-3.30272
678.5,60.4587,0.0997332,-3.30272
679,60.5082,0.0983923,-3.30272
679.5,60.5599,0.101948,-3.30272
680,60.6102,0.105577,-3.30272
680.5,60.6602,0.100541,-3.30273
681,60.7109,0.104651,-3.30311
681.5,60.7613,0.0987224,-3.30272
682,60.8113,0.102823,-3.30271
682.5,60.8613,0.099499,-3.30371
683,60.9119,0.101857,-3.30366
683.5,60.9624,0.104491,-3.30405
684,61.011,0.103772,-3.30534
684.5,61.0637,0.099119,-3.30489
685,61.1127,0.102235,-3.30403
685.5,61.1639,0.101517,-3.30473
686,61.2146,0.103505,-3.3057
686.5,61.2645,0.102111,-3.30635
687,61.3153,0.103748,-3.30666
687.5,61.3654,0.0979358,-3.30674
688,61.4156,0.093552,-3.30668
688.5,61.4651,0.102026,-3.30798
689,61.5163,0.0954597,-3.30791
689.5,61.5672,0.100511,-3.30667
690,61.6176,0.0875731,-3.30666
690.5,61.6678,0.0982893,-3.3093
691,61.7181,0.0894264,-3.30811
691.5,61.7687,0.0894554,-3.30798
692,61.8197,0.0830392,-3.30798
692.5,61.8699,0.0905012,-3.30936
693,61.9199,0.0817465,-3.3093
693.5,61.9699,0.0823081,-3.3093
694,62.0219,0.0847559,-3.30799
694.5,62.072,0.0774379,-3.30794
695,62.1222,0.0798571,-3.31074
695.5,62.1723,0.0804169,-3.31062
696,62.2229,0.0805796,-3.31134
696.5,62.2713,0.0837781,-3.31128
697,62.3226,0.0778474,-3.31128
697.5,62.3748,0.0750163,-3.31128
698,62.4231,0.0726242,-3.31251
698.5,62.4752,0.0803685,-3.31259
699,62.5265,0.0738751,-3.31192
699.5,62.5764,0.0777686,-3.31331
700,62.6268,0.0832337,-3.31316
700.5,62.678,0.0785909,-3.31195
701,62.7284,0.0874852,-3.31194
701.5,62.7785,0.0785374,-3.31325
702,62.8295,0.0794606,-3.3135
702.5,62.8797,0.0753608,-3.31384
703,62.9297,0.0706174,-3.31326
703.5,62.9799,0.0740664,-3.31326
704,63.0313,0.0691931,-3.31442
704.5,63.0822,0.0669571,-3.31458
705,63.1317,0.0629524,-3.31458
705.5,63.1822,0.066458,-3.31555
706,63.2331,0.0637948,-3.3149
706.5,63.284,0.0652454,-3.3149
707,63.335,0.0635879,-3.31589
707.5,63.3851,0.0616636,-3.31622
708,63.4362,0.0591578,-3.31622
708.5,63.4859,0.058837,-3.31741
709,63.5365,0.0537982,-3.31935
709.5,63.5875,0.0536767,-3.32018
710,63.6362,0.0611375,-3.32018
710.5,63.6882,0.0491923,-3.31887
711,63.7393,0.0459838,-3.31886
711.5,63.789,0.044018,-3.31886
712,63.8408,0.044079,-3.31765
712.5,63.8909,0.0385419,-3.31771
713,63.9417,0.0385828,-3.31885
713.5,63.9924,0.0356807,-3.32006
714,64.0432,0.0322214,-3.31952
714.5,64.0941,0.0355399,-3.31951
715,64.1435,0.0313116,-3.31822
715.5,64.1952,0.0304255,-3.3182
716,64.2452,0.0254757,-3.32018
716.5,64.2953,0.0247129,-3.32017
717,64.3462,0.0179067,-3.3201
717.5,64.3971,0.0120785,-3.32016
718,64.4481,0.0165346,-3.32149
718.5,64.4983,0.0146086,-3.3228
719,64.5485,0.0233624,-3.3228
719.5,64.5978,0.0184487,-3.32149
720,64.6492,0.0106954,-3.32151
720.5,64.6999,0.0152645,-3.3228
721,64.7505,0.0175129,-3.3228
721.5,64.8006,0.0224836,-3.3228
722,64.8522,0.0168536,-3.32413
722.5,64.9019,0.0163777,-3.32416
723,64.9527,0.0135595,-3.32272
723.5,65.0011,0.0113525,-3.32411
724,65.0543,0.0103084,-3.32413
724.5,65.1057,0.0144974,-3.32413
725,65.155,0.0144125,-3.32549
725.5,65.2056,0.00262565,-3.32545
726,65.257,0.0103039,-3.32545
726.5,65.3074,0.00734037,-3.32545
727,65.3576,0.00108636,-3.32545
727.5,65.4083,0.00162984,-3.32545
728,65.4596,0.000415592,-3.32676
728.5,65.51,0.000571926,-3.32676
729,65.5612,-0.00289997,-3.32664
729.5,65.6105,-0.00397943,-3.32677
730,65.6615,-0.00682822,-3.32676
730.5,65.7121,-0.00524004,-3.32675
731,65.7629,-0.00388792,-3.32946
731.5,65.8138,-0.0132893,-3.3294
732,65.8643,-0.0121685,-3.3295
732.5,65.9139,-0.00976907,-3.3294
733,65.9653,-0.00936293,-3.33007
733.5,66.0166,-0.0176948,-3.33005
734,66.0668,-0.0192684,-3.33005
734.5,66.1174,-0.0181153,-3.32939
735,66.167,-0.0117973,-3.32873
735.5,66.2175,-0.0175355,-3.32934
736,66.2687,-0.0275918,-3.32939
736.5,66.319,-0.0232754,-3.32939
737,66.3704,-0.0290275,-3.33041
737.5,66.4211,-0.035818,-3.33045
738,66.4707,-0.0266562,-3.33071
738.5,66.5217,-0.0269409,-3.33135
739,66.5708,-0.0338595,-3.33137
739.5,66.6233,-0.0328896,-3.33307
740,66.6739,-0.0356494,-3.33302