File: 01_Data/Helmet_Shield/STA/N2/10K_min/Helmet_Shield_STA_N2_10KData_240223_R1.csv
Temp./C,Time/min,DSC/(mW/mg),Mass loss/mg
60.0,0.0,0.848116,-0.0221799
60.5,0.0575483,0.866222,-0.0221703
61,0.113303,0.878001,-0.0222189
61.5,0.168871,0.88306,-0.0223
62,0.224361,0.89259,-0.0223202
62.5,0.281236,0.910415,-0.0219483
63,0.337689,0.924375,-0.0222967
63.5,0.393338,0.926634,-0.0222819
64,0.447143,0.929399,-0.0225294
64.5,0.502862,0.94776,-0.0222873
65,0.557292,0.952642,-0.0232569
65.5,0.610238,0.959987,-0.0224851
66,0.664244,0.968477,-0.0221128
66.5,0.719722,0.970705,-0.023475
67,0.774911,0.974857,-0.0222965
67.5,0.828129,0.981073,-0.0234173
68,0.880154,0.983573,-0.0235148
68.5,0.931962,0.988951,-0.0248853
69,0.985778,0.993515,-0.0235107
69.5,1.04103,0.998336,-0.0234898
70,1.09299,1.00659,-0.0240114
70.5,1.14623,1.01021,-0.0247151
71,1.19801,1.01175,-0.0248043
71.5,1.25072,1.01469,-0.0248033
72,1.30403,1.0181,-0.0245049
72.5,1.35669,1.03066,-0.0248175
73,1.40956,1.03015,-0.0248138
73.5,1.4591,1.03526,-0.025954
74,1.5136,1.04347,-0.0261406
74.5,1.56571,1.05082,-0.024856
75,1.6173,1.05466,-0.02481
75.5,1.66848,1.06192,-0.0248235
76,1.71975,1.06723,-0.0260915
76.5,1.77469,1.06629,-0.024807
77,1.82666,1.06515,-0.0261355
77.5,1.87733,1.07263,-0.0248204
78,1.9292,1.07607,-0.0248198
78.5,1.98148,1.07809,-0.0252742
79,2.03171,1.09365,-0.0261294
79.5,2.08401,1.09356,-0.026211
80,2.13593,1.09049,-0.0274479
80.5,2.186,1.09529,-0.0261332
81,2.23763,1.10016,-0.0274284
81.5,2.28825,1.10345,-0.0274509
82,2.34005,1.1042,-0.0260706
82.5,2.39148,1.09828,-0.0274457
83,2.44212,1.09883,-0.0274402
83.5,2.4932,1.10227,-0.0287314
84,2.54355,1.10106,-0.0274547
84.5,2.59509,1.10785,-0.0274426
85,2.64545,1.10312,-0.0287666
85.5,2.69575,1.10161,-0.0273825
86,2.74557,1.10734,-0.0267903
86.5,2.79723,1.10271,-0.0267854
87,2.84647,1.10585,-0.0281161
87.5,2.8979,1.10857,-0.0281236
88,2.94696,1.1044,-0.0290979
88.5,2.99696,1.10581,-0.02811
89,3.04717,1.11041,-0.02778
89.5,3.09746,1.10628,-0.0277806
90,3.14778,1.10798,-0.028138
90.5,3.19733,1.11139,-0.028174
91,3.24705,1.10908,-0.0280999
91.5,3.29659,1.11631,-0.0280971
92,3.34627,1.11143,-0.0294757
92.5,3.39715,1.11162,-0.0294198
93,3.44717,1.11202,-0.0284317
93.5,3.49627,1.11837,-0.02843
94,3.54634,1.11317,-0.0284298
94.5,3.59556,1.11411,-0.0286378
95,3.64448,1.11165,-0.0294239
95.5,3.69403,1.11668,-0.028587
96,3.74313,1.11853,-0.0294588
96.5,3.79252,1.11225,-0.0292246
97,3.84015,1.11608,-0.0284946
97.5,3.89044,1.12161,-0.0287517
98,3.9405,1.11518,-0.0294197
98.5,3.99173,1.12056,-0.02942
99,4.04087,1.11844,-0.0294202
99.5,4.08946,1.11777,-0.0293188
100,4.13874,1.12312,-0.0283036
100.5,4.18743,1.12916,-0.0294182
101,4.2356,1.12155,-0.0294106
101.5,4.28572,1.12036,-0.0281026
102,4.33461,1.12496,-0.0281017
102.5,4.38378,1.12138,-0.0294245
103,4.43274,1.12549,-0.02942
103.5,4.48111,1.12673,-0.02942
104,4.53034,1.1308,-0.029426
104.5,4.57726,1.13585,-0.0281096
105,4.62556,1.14253,-0.029425
105.5,4.67529,1.13325,-0.02942
106,4.72461,1.13262,-0.0294181
106.5,4.77333,1.13875,-0.0281326
107,4.8181,1.13969,-0.0280988
107.5,4.8711,1.13738,-0.0294457
108,4.91878,1.13651,-0.02942
108.5,4.96765,1.14296,-0.0294199
109,5.01494,1.13867,-0.0298759
109.5,5.06405,1.14581,-0.029429
110,5.1141,1.14671,-0.0294199
110.5,5.16353,1.14673,-0.0294721
111,5.20833,1.14929,-0.0281071
111.5,5.2604,1.1538,-0.02811
112,5.30798,1.15734,-0.0281096
112.5,5.35832,1.15449,-0.0294294
113,5.40618,1.15561,-0.02943
113.5,5.45439,1.15804,-0.0294282
114,5.50411,1.16162,-0.0296085
114.5,5.55508,1.15719,-0.0294178
115,5.60155,1.16154,-0.0297029
115.5,5.65014,1.16413,-0.0300785
116,5.69927,1.16782,-0.0307478
116.5,5.74505,1.17293,-0.0306969
117,5.79715,1.17296,-0.0307226
117.5,5.84487,1.16998,-0.0300804
118,5.89367,1.16904,-0.0300804
118.5,5.9436,1.17702,-0.0294697
119,5.98959,1.17174,-0.0290896
119.5,6.03926,1.17631,-0.02909
120,6.08805,1.17706,-0.02909
120.5,6.13619,1.17763,-0.02909
121,6.18397,1.17777,-0.0290902
121.5,6.23251,1.18018,-0.028907
122,6.28067,1.18393,-0.0287602
122.5,6.32953,1.18739,-0.0300723
123,6.378,1.1809,-0.0293331
123.5,6.42656,1.18599,-0.0287601
124,6.47515,1.18184,-0.02876
124.5,6.52273,1.19044,-0.0287847
125,6.57124,1.18628,-0.0300783
125.5,6.62048,1.18505,-0.03008
126,6.66775,1.17967,-0.03008
126.5,6.7181,1.18088,-0.03008
127,6.76539,1.18622,-0.0300849
127.5,6.8144,1.19108,-0.0287662
128,6.86234,1.18792,-0.0287709
128.5,6.91034,1.19789,-0.0295813
129,6.95861,1.19598,-0.02975
129.5,7.00762,1.19428,-0.0297505
130,7.05597,1.19306,-0.0301114
130.5,7.10346,1.19309,-0.0300794
131,7.15161,1.19944,-0.0301208
131.5,7.20074,1.19099,-0.03008
132,7.24801,1.19779,-0.03008
132.5,7.29677,1.20206,-0.03008
133,7.34553,1.20037,-0.0300725
133.5,7.39127,1.20448,-0.0313749
134,7.44087,1.21197,-0.0300818
134.5,7.48836,1.20304,-0.03008
135,7.53742,1.20888,-0.03008
135.5,7.58501,1.20646,-0.03008
136,7.63306,1.21226,-0.0300797
136.5,7.68142,1.20899,-0.0315094
137,7.72981,1.20406,-0.0313769
137.5,7.77686,1.2169,-0.0300786
138,7.82585,1.20961,-0.0290869
138.5,7.87337,1.2104,-0.0291154
139,7.92222,1.21545,-0.0316102
139.5,7.96975,1.21672,-0.031736
140,8.01854,1.21486,-0.0304046
140.5,8.0656,1.22084,-0.03041
141,8.11406,1.21053,-0.030406
141.5,8.16148,1.21394,-0.0317736
142,8.21007,1.20868,-0.03172
142.5,8.25686,1.21765,-0.0317199
143,8.30588,1.21713,-0.030452
143.5,8.35226,1.21839,-0.0304097
144,8.4007,1.2172,-0.03041
144.5,8.44791,1.21582,-0.0304104
145,8.49557,1.21368,-0.0309231
145.5,8.54285,1.2206,-0.0317292
146,8.5918,1.21574,-0.031728
146.5,8.6394,1.2125,-0.0327689
147,8.68686,1.22273,-0.0327199
147.5,8.73488,1.21449,-0.0327228
148,8.78344,1.21715,-0.0313598
148.5,8.82976,1.22044,-0.0314267
149,8.87672,1.22028,-0.0327204
149.5,8.92667,1.21685,-0.03272
150,8.97408,1.23083,-0.03272
150.5,9.02182,1.22673,-0.03272
151,9.06915,1.22901,-0.0327198
151.5,9.11676,1.22571,-0.0314024
152,9.16433,1.23237,-0.0317306
152.5,9.21312,1.22858,-0.0323105
153,9.2598,1.2253,-0.0330396
153.5,9.30779,1.23343,-0.03304
154,9.35635,1.23245,-0.03304
154.5,9.40452,1.23365,-0.0330399
155,9.45202,1.23087,-0.0342831
155.5,9.49941,1.23193,-0.0343602
156,9.54705,1.22848,-0.03436
156.5,9.59582,1.24005,-0.0343511
157,9.64304,1.23586,-0.0330527
157.5,9.68954,1.2471,-0.03304
158,9.73807,1.24078,-0.03304
158.5,9.78587,1.24285,-0.03304
159,9.83287,1.24554,-0.0330232
159.5,9.88109,1.24737,-0.0317413
160,9.92846,1.24563,-0.0325729
160.5,9.974,1.259,-0.0339891
161,10.0244,1.24908,-0.0343598
161.5,10.0721,1.25748,-0.03436
162,10.1205,1.25838,-0.0343483
162.5,10.1678,1.25951,-0.0330537
163,10.2164,1.2612,-0.0332008
163.5,10.2641,1.26187,-0.0343709
164,10.3116,1.26379,-0.03437
164.5,10.3588,1.26577,-0.03437
165,10.4075,1.27173,-0.03437
165.5,10.4544,1.26997,-0.03437
166,10.5013,1.27288,-0.03437
166.5,10.5495,1.27672,-0.03437
167,10.5978,1.27338,-0.0343846
167.5,10.6438,1.27395,-0.0350338
168,10.6929,1.2742,-0.0350229
168.5,10.7401,1.28158,-0.0356811
169,10.7884,1.28292,-0.03568
169.5,10.8355,1.28276,-0.03568
170,10.8824,1.28965,-0.03568
170.5,10.9312,1.29185,-0.03568
171,10.9762,1.29456,-0.03568
171.5,11.0266,1.29198,-0.03568
172,11.0745,1.294,-0.03568
172.5,11.1214,1.30554,-0.03568
173,11.1688,1.30029,-0.03568
173.5,11.2174,1.29936,-0.0356799
174,11.2643,1.30633,-0.0351596
174.5,11.3127,1.31155,-0.0354734
175,11.3601,1.31441,-0.0357004
175.5,11.4075,1.31178,-0.03568
176,11.4553,1.31409,-0.03568
176.5,11.5026,1.32395,-0.0356814
177,11.5499,1.3276,-0.0369761
177.5,11.5987,1.32985,-0.0384146
178,11.645,1.32938,-0.0378277
178.5,11.6935,1.32922,-0.0356838
179,11.7409,1.32823,-0.0356886
179.5,11.7883,1.33091,-0.0366935
180,11.8359,1.33296,-0.0373303
180.5,11.8841,1.34406,-0.03733
181,11.931,1.34047,-0.03733
181.5,11.979,1.34592,-0.03733
182,12.0262,1.34629,-0.03733
182.5,12.0729,1.34627,-0.0373301
183,12.1216,1.35062,-0.0372174
183.5,12.1695,1.352,-0.0383179
184,12.217,1.3492,-0.0383201
184.5,12.2642,1.35731,-0.0383
185,12.3111,1.3576,-0.03964
185.5,12.3586,1.3623,-0.03964
186,12.4069,1.35714,-0.03964
186.5,12.4537,1.35835,-0.03964
187,12.5014,1.358,-0.0396535
187.5,12.5488,1.36169,-0.0389967
188,12.5966,1.35771,-0.0399587
188.5,12.6433,1.35579,-0.0399628
189,12.6916,1.36448,-0.0410824
189.5,12.739,1.36148,-0.0409349
190,12.7857,1.36425,-0.040905
190.5,12.8336,1.36858,-0.04094
191,12.8823,1.37211,-0.04094
191.5,12.93,1.36864,-0.04094
192,12.9773,1.3708,-0.04094
192.5,13.0239,1.37413,-0.04094
193,13.0723,1.37696,-0.04094
193.5,13.1187,1.37118,-0.0419887
194,13.1673,1.37459,-0.0435754
194.5,13.2147,1.37375,-0.0435801
195,13.2623,1.36805,-0.0434
195.5,13.3088,1.37713,-0.0432499
196,13.3572,1.37522,-0.04325
196.5,13.4053,1.37842,-0.04325
197,13.4519,1.37428,-0.0432503
197.5,13.4995,1.37522,-0.0437537
198,13.546,1.37842,-0.0442398
198.5,13.5944,1.38284,-0.0442471
199,13.6411,1.38164,-0.0455626
199.5,13.6894,1.37751,-0.0456317
200,13.7373,1.38642,-0.04589
200.5,13.784,1.39123,-0.0460183
201,13.8322,1.3843,-0.0472078
201.5,13.8793,1.38322,-0.04721
202,13.927,1.3877,-0.04721
202.5,13.9734,1.38449,-0.0476375
203,14.0207,1.39254,-0.0481996
203.5,14.0688,1.38722,-0.0482
204,14.1165,1.39452,-0.0482031
204.5,14.164,1.39914,-0.0498092
205,14.2124,1.39633,-0.0509478
205.5,14.2595,1.39926,-0.0511683
206,14.307,1.39664,-0.05248
206.5,14.3546,1.40355,-0.0524797
207,14.402,1.39972,-0.052755
207.5,14.4493,1.40558,-0.0537993
208,14.497,1.40798,-0.0538
208.5,14.5439,1.40147,-0.0538
209,14.592,1.40284,-0.0537993
209.5,14.6395,1.41781,-0.0551043
210,14.6872,1.41577,-0.0551158
210.5,14.7344,1.41165,-0.0564217
211,14.7813,1.41343,-0.0564414
211.5,14.8299,1.41503,-0.0577377
212,14.8773,1.40594,-0.0577439
212.5,14.9241,1.41326,-0.0567382
213,14.9719,1.41613,-0.058166
213.5,15.0188,1.41385,-0.0580804
214,15.0661,1.41441,-0.0593421
214.5,15.1143,1.41635,-0.0603804
215,15.1615,1.41427,-0.060377
215.5,15.2096,1.42116,-0.060701
216,15.2566,1.43003,-0.0620259
216.5,15.3043,1.42817,-0.0620199
217,15.3527,1.42494,-0.0620201
217.5,15.3988,1.42689,-0.061995
218,15.4475,1.42544,-0.0633412
218.5,15.4941,1.42007,-0.0652505
219,15.5417,1.42343,-0.0664745
219.5,15.5894,1.41292,-0.0672958
220,15.6349,1.40952,-0.0686145
220.5,15.6844,1.41355,-0.0686105
221,15.7316,1.41633,-0.0697936
221.5,15.7782,1.41844,-0.0712488
222,15.8268,1.41899,-0.0725697
222.5,15.8744,1.40918,-0.0711961
223,15.9219,1.41126,-0.0725614
223.5,15.9693,1.41169,-0.0738634
224,16.016,1.4149,-0.0752008
224.5,16.0643,1.41791,-0.0764828
225,16.1116,1.41538,-0.0767728
225.5,16.1593,1.41118,-0.0778362
226,16.2068,1.41285,-0.078227
226.5,16.2543,1.41498,-0.0781641
227,16.3015,1.4182,-0.0794853
227.5,16.3491,1.41888,-0.0795623
228,16.3967,1.41988,-0.0808041
228.5,16.444,1.42897,-0.0832785
229,16.4917,1.42152,-0.0847506
229.5,16.5389,1.42509,-0.0860725
230,16.5863,1.42763,-0.0860321
230.5,16.6343,1.42059,-0.0874021
231,16.6823,1.43333,-0.0887095
231.5,16.7288,1.43047,-0.0899941
232,16.7767,1.4296,-0.0914513
232.5,16.823,1.42609,-0.0927536
233,16.8696,1.43582,-0.0941237
233.5,16.9189,1.43542,-0.095437
234,16.9648,1.44142,-0.0968987
234.5,17.0122,1.44243,-0.0981329
235,17.0594,1.44785,-0.0994855
235.5,17.1069,1.44792,-0.10089
236,17.1543,1.45342,-0.102215
236.5,17.1996,1.46059,-0.103486
237,17.2501,1.46704,-0.106252
237.5,17.2975,1.46648,-0.108185
238,17.3439,1.46827,-0.110284
238.5,17.3922,1.4765,-0.111653
239,17.4391,1.48291,-0.113378
239.5,17.4875,1.4831,-0.116305
240,17.5341,1.48714,-0.117454
240.5,17.5823,1.4944,-0.11921
241,17.6298,1.49769,-0.120538
241.5,17.6774,1.50679,-0.123649
242,17.7243,1.5048,-0.124929
242.5,17.7721,1.51673,-0.127439
243,17.8185,1.51882,-0.129474
243.5,17.8668,1.5195,-0.132052
244,17.9145,1.53323,-0.134027
244.5,17.9633,1.53352,-0.137005
245,18.0082,1.54016,-0.13877
245.5,18.0574,1.54648,-0.141757
246,18.105,1.55213,-0.145364
246.5,18.1548,1.56311,-0.147545
247,18.2019,1.57522,-0.150338
247.5,18.25,1.5741,-0.15224
248,18.2975,1.58472,-0.15535
248.5,18.345,1.59552,-0.15979
249,18.3928,1.59816,-0.16288
249.5,18.4398,1.62163,-0.165125
250,18.4876,1.62461,-0.168198
250.5,18.5356,1.63283,-0.171573
251,18.5838,1.64161,-0.174435
251.5,18.6309,1.65314,-0.176949
252,18.6793,1.66397,-0.181435
252.5,18.7263,1.67559,-0.184366
253,18.7753,1.68749,-0.188679
253.5,18.821,1.69107,-0.190765
254,18.8705,1.6996,-0.194483
254.5,18.9181,1.70614,-0.199455
255,18.9655,1.71443,-0.202933
255.5,19.0125,1.72581,-0.20687
256,19.0612,1.73314,-0.210559
256.5,19.1085,1.75589,-0.214278
257,19.1563,1.76105,-0.220039
257.5,19.2043,1.77075,-0.223774
258,19.2517,1.78649,-0.228495
258.5,19.2992,1.80412,-0.233477
259,19.3476,1.82098,-0.239855
259.5,19.3952,1.83785,-0.243821
260,19.4429,1.856,-0.25033
260.5,19.4918,1.87611,-0.255213
261,19.5394,1.89682,-0.259855
261.5,19.5872,1.92421,-0.265604
262,19.6351,1.94017,-0.271251
262.5,19.6832,1.9689,-0.275688
263,19.7312,1.98783,-0.282115
263.5,19.7799,2.01517,-0.288264
264,19.8278,2.04072,-0.294577
264.5,19.8767,2.07201,-0.301411
265,19.9233,2.0933,-0.308348
265.5,19.971,2.12101,-0.314801
266,20.018,2.15642,-0.321345
266.5,20.0688,2.20046,-0.329159
267,20.1163,2.21408,-0.33687
267.5,20.1629,2.2516,-0.344939
268,20.2125,2.28091,-0.354136
268.5,20.2611,2.31222,-0.36299
269,20.3081,2.35227,-0.371271
269.5,20.3553,2.39604,-0.379355
270,20.4049,2.4311,-0.388422
270.5,20.4531,2.46082,-0.398187
271,20.5015,2.49969,-0.408089
271.5,20.5503,2.54093,-0.417594
272,20.5981,2.57712,-0.426848
272.5,20.6476,2.61942,-0.438199
273,20.696,2.65538,-0.448354
273.5,20.7437,2.69656,-0.459916
274,20.7918,2.73142,-0.472376
274.5,20.8398,2.75958,-0.483746
275,20.889,2.80591,-0.496016
275.5,20.9368,2.84716,-0.509023
276,20.9848,2.87599,-0.5213
276.5,21.0331,2.91814,-0.533676
277,21.081,2.96327,-0.547162
277.5,21.1287,2.98901,-0.560861
278,21.1788,3.02323,-0.575054
278.5,21.226,3.05639,-0.590486
279,21.2741,3.08194,-0.604288
279.5,21.3197,3.1138,-0.618169
280,21.369,3.14339,-0.634054
280.5,21.4191,3.17888,-0.649244
281,21.4675,3.19786,-0.664673
281.5,21.515,3.22874,-0.681456
282,21.5625,3.25156,-0.697107
282.5,21.6104,3.27605,-0.716156
283,21.6579,3.30686,-0.732908
283.5,21.7067,3.33455,-0.749947
284,21.7557,3.35037,-0.768262
284.5,21.8035,3.36911,-0.78531
285,21.8527,3.39278,-0.80426
285.5,21.8995,3.41071,-0.822455
286,21.9481,3.42791,-0.840845
286.5,21.9957,3.4552,-0.859549
287,22.044,3.46221,-0.878457
287.5,22.092,3.48075,-0.899178
288,22.1398,3.49713,-0.92019
288.5,22.1877,3.50513,-0.93879
289,22.2345,3.5134,-0.958255
289.5,22.2838,3.52326,-0.979631
290,22.3325,3.53199,-1.00114
290.5,22.3797,3.54167,-1.02187
291,22.4274,3.54484,-1.04245
291.5,22.4737,3.55198,-1.06193
292,22.5237,3.55165,-1.08259
292.5,22.5729,3.54975,-1.10582
293,22.6195,3.54608,-1.12665
293.5,22.6682,3.54128,-1.14854
294,22.7132,3.53559,-1.16844
294.5,22.7624,3.52594,-1.19019
295,22.8106,3.51126,-1.21365
295.5,22.8569,3.49731,-1.23513
296,22.9058,3.48578,-1.25682
296.5,22.9535,3.46724,-1.27806
297,23.0006,3.44273,-1.30031
297.5,23.048,3.4246,-1.32235
298,23.0958,3.40802,-1.34452
298.5,23.1431,3.3763,-1.36584
299,23.1907,3.33711,-1.38681
299.5,23.238,3.31029,-1.40786
300,23.2851,3.27587,-1.42915
300.5,23.333,3.23093,-1.45104
301,23.3798,3.19255,-1.4697
301.5,23.4277,3.14222,-1.49033
302,23.4741,3.09392,-1.51004
302.5,23.5212,3.04013,-1.53013
303,23.5684,2.98753,-1.54976
303.5,23.6149,2.93819,-1.5709
304,23.6623,2.87097,-1.58919
304.5,23.7091,2.80867,-1.60499
305,23.7564,2.7557,-1.62402
305.5,23.8041,2.68188,-1.64372
306,23.8502,2.60887,-1.66179
306.5,23.8968,2.53649,-1.67862
307,23.942,2.47288,-1.69307
307.5,23.989,2.40464,-1.70989
308,24.0375,2.34287,-1.72585
308.5,24.0837,2.26853,-1.74168
309,24.1311,2.19478,-1.7574
309.5,24.1779,2.1172,-1.77263
310,24.2244,2.05225,-1.78618
310.5,24.2716,1.98907,-1.79821
311,24.3171,1.93181,-1.81103
311.5,24.3642,1.86205,-1.82249
312,24.4108,1.80343,-1.83508
312.5,24.4579,1.74685,-1.84558
313,24.5048,1.69891,-1.85728
313.5,24.5511,1.64375,-1.86691
314,24.5987,1.59768,-1.87643
314.5,24.6451,1.5636,-1.88544
315,24.693,1.52438,-1.89524
315.5,24.7402,1.4965,-1.90518
316,24.7892,1.45652,-1.91551
316.5,24.8363,1.42471,-1.92396
317,24.8837,1.38879,-1.93171
317.5,24.9312,1.36915,-1.93966
318,24.9789,1.33808,-1.94785
318.5,25.0254,1.31579,-1.95517
319,25.0723,1.29534,-1.96308
319.5,25.1198,1.26981,-1.9717
320,25.1679,1.24941,-1.9787
320.5,25.2164,1.22796,-1.98527
321,25.263,1.21443,-1.99314
321.5,25.3106,1.18742,-2.00045
322,25.3579,1.17263,-2.00695
322.5,25.4056,1.15486,-2.01287
323,25.4536,1.14102,-2.02018
323.5,25.5006,1.12345,-2.02431
324,25.5484,1.10956,-2.03053
324.5,25.5952,1.08699,-2.03773
325,25.644,1.08101,-2.04283
325.5,25.6919,1.06107,-2.04897
326,25.7386,1.04698,-2.05388
326.5,25.786,1.03126,-2.06098
327,25.8343,1.00495,-2.0676
327.5,25.8813,0.990893,-2.07282
328,25.9302,0.978073,-2.07838
328.5,25.9782,0.964118,-2.08425
329,26.0262,0.947738,-2.08877
329.5,26.0729,0.924268,-2.0935
330,26.1217,0.910522,-2.09937
330.5,26.1699,0.903587,-2.10444
331,26.2172,0.878101,-2.10884
331.5,26.265,0.870666,-2.11391
332,26.3116,0.849142,-2.11892
332.5,26.3607,0.835345,-2.12331
333,26.4077,0.826423,-2.12793
333.5,26.4555,0.805071,-2.13172
334,26.5035,0.78401,-2.13533
334.5,26.5515,0.76964,-2.14089
335,26.6,0.751356,-2.14587
335.5,26.6467,0.739476,-2.14985
336,26.6945,0.72401,-2.15456
336.5,26.7415,0.712774,-2.15944
337,26.7909,0.694889,-2.16381
337.5,26.8386,0.677557,-2.16734
338,26.8875,0.658636,-2.17054
338.5,26.9345,0.648382,-2.17439
339,26.9824,0.634553,-2.17768
339.5,27.0284,0.618871,-2.18104
340,27.0779,0.601817,-2.18576
340.5,27.126,0.582392,-2.18885
341,27.1748,0.571718,-2.19258
341.5,27.2227,0.558737,-2.19585
342,27.271,0.541524,-2.19988
342.5,27.3177,0.520978,-2.20298
343,27.3667,0.515069,-2.20663
343.5,27.4148,0.503432,-2.20968
344,27.4608,0.482716,-2.21185
344.5,27.5104,0.473364,-2.21578
345,27.5593,0.450598,-2.21857
345.5,27.6064,0.442609,-2.22206
346,27.6544,0.429843,-2.22555
346.5,27.703,0.412902,-2.22833
347,27.7504,0.39724,-2.2319
347.5,27.7997,0.385205,-2.2341
348,27.8471,0.380553,-2.23684
348.5,27.8945,0.367114,-2.23967
349,27.9424,0.348532,-2.24281
349.5,27.9899,0.338444,-2.24672
350,28.0393,0.318696,-2.24937
350.5,28.0872,0.306698,-2.25192
351,28.1337,0.300923,-2.25464
351.5,28.1827,0.290501,-2.25641
352,28.2302,0.278057,-2.25784
352.5,28.2766,0.273052,-2.26006
353,28.3276,0.257478,-2.26264
353.5,28.3753,0.245075,-2.26551
354,28.4232,0.238778,-2.2676
354.5,28.4715,0.233343,-2.27057
355,28.5198,0.216199,-2.27266
355.5,28.5675,0.209915,-2.27504
356,28.6157,0.193348,-2.27757
356.5,28.6636,0.187667,-2.28075
357,28.7123,0.184085,-2.28275
357.5,28.7594,0.173862,-2.2847
358,28.8087,0.171275,-2.28608
358.5,28.857,0.160182,-2.28843
359,28.9042,0.154882,-2.29038
359.5,28.9515,0.143416,-2.29233
360,29.0014,0.138478,-2.2955
360.5,29.05,0.136429,-2.29735
361,29.0991,0.126904,-2.3003
361.5,29.1449,0.124041,-2.30149
362,29.1952,0.119365,-2.30345
362.5,29.2432,0.108694,-2.30624
363,29.2914,0.10698,-2.30674
363.5,29.3375,0.106827,-2.30941
364,29.3859,0.103767,-2.31073
364.5,29.436,0.100043,-2.31336
365,29.4843,0.0930014,-2.3153
365.5,29.5328,0.0947252,-2.31803
366,29.5816,0.0846978,-2.31865
366.5,29.6293,0.0891687,-2.32012
367,29.6782,0.0852762,-2.32305
367.5,29.7245,0.0837988,-2.32432
368,29.7749,0.0829173,-2.32576
368.5,29.8235,0.0782443,-2.32847
369,29.8715,0.0842837,-2.33117
369.5,29.9199,0.0770241,-2.33383
370,29.9681,0.0844612,-2.33583
370.5,30.0159,0.0821477,-2.33596
371,30.0649,0.0858673,-2.33722
371.5,30.1119,0.0845042,-2.34016
372,30.1616,0.0860173,-2.34154
372.5,30.2099,0.0880754,-2.34305
373,30.2575,0.0905988,-2.34446
373.5,30.3065,0.094124,-2.34761
374,30.3552,0.0966546,-2.34983
374.5,30.4033,0.100473,-2.35205
375,30.4516,0.100415,-2.35478
375.5,30.5005,0.0998626,-2.35646
376,30.5491,0.103601,-2.35787
376.5,30.5963,0.0958469,-2.35935
377,30.6448,0.101289,-2.3624
377.5,30.6927,0.1021,-2.36573
378,30.7414,0.105185,-2.36697
378.5,30.79,0.106162,-2.36919
379,30.8372,0.110875,-2.37065
379.5,30.8868,0.109374,-2.37283
380,30.9347,0.110789,-2.3751
380.5,30.9855,0.110552,-2.37853
381,31.0328,0.113648,-2.37987
381.5,31.081,0.117217,-2.38264
382,31.1301,0.117041,-2.38517
382.5,31.1795,0.122293,-2.38894
383,31.2269,0.11837,-2.39194
383.5,31.2757,0.123923,-2.39465
384,31.3234,0.120597,-2.39741
384.5,31.3719,0.136634,-2.3987
385,31.421,0.12984,-2.39988
385.5,31.4697,0.132469,-2.40313
386,31.5184,0.144359,-2.40613
386.5,31.5671,0.139212,-2.4099
387,31.6149,0.143717,-2.41262
387.5,31.6638,0.150258,-2.416
388,31.7117,0.16025,-2.4184
388.5,31.7607,0.154258,-2.41986
389,31.8098,0.154595,-2.42323
389.5,31.859,0.152933,-2.42662
390,31.9061,0.159782,-2.42919
390.5,31.9547,0.162722,-2.43089
391,32.0035,0.16598,-2.43602
391.5,32.0504,0.167,-2.43925
392,32.1004,0.172761,-2.44241
392.5,32.1491,0.173217,-2.44588
393,32.1977,0.177785,-2.44895
393.5,32.2462,0.182664,-2.4525
394,32.295,0.179151,-2.45417
394.5,32.3436,0.187617,-2.4573
395,32.3925,0.184572,-2.46148
395.5,32.4412,0.187073,-2.46436
396,32.4902,0.187999,-2.46971
396.5,32.5384,0.19638,-2.47271
397,32.5876,0.19128,-2.47567
397.5,32.6359,0.191158,-2.47961
398,32.6838,0.188796,-2.48274
398.5,32.7334,0.204745,-2.48627
399,32.7817,0.19665,-2.49104
399.5,32.8307,0.196413,-2.49456
400,32.8803,0.197947,-2.49733
400.5,32.9283,0.198548,-2.49994
401,32.9769,0.199276,-2.50245
401.5,33.0251,0.199206,-2.50551
402,33.073,0.194222,-2.50967
402.5,33.1229,0.195871,-2.51325
403,33.1725,0.191556,-2.51796
403.5,33.2201,0.192479,-2.52212
404,33.2694,0.199198,-2.52622
404.5,33.3167,0.196793,-2.52973
405,33.3662,0.19563,-2.53298
405.5,33.4154,0.191805,-2.53686
406,33.4642,0.192867,-2.54181
406.5,33.5126,0.186628,-2.54408
407,33.5609,0.182259,-2.54787
407.5,33.6103,0.183381,-2.55253
408,33.6595,0.174548,-2.55764
408.5,33.7078,0.171851,-2.56083
409,33.7554,0.172034,-2.56523
409.5,33.8055,0.163903,-2.56869
410,33.8537,0.15923,-2.57353
410.5,33.9016,0.15394,-2.5787
411,33.9508,0.149931,-2.58225
411.5,33.9995,0.149974,-2.58795
412,34.0471,0.142572,-2.59202
412.5,34.0983,0.14247,-2.59465
413,34.1458,0.138154,-2.5999
413.5,34.1946,0.136591,-2.60337
414,34.2438,0.134158,-2.60802
414.5,34.2925,0.132566,-2.6118
415,34.3419,0.136383,-2.61543
415.5,34.3882,0.12797,-2.61956
416,34.4372,0.124706,-2.62448
416.5,34.4847,0.124491,-2.62801
417,34.5355,0.117152,-2.63039
417.5,34.5852,0.117421,-2.63399
418,34.6327,0.111339,-2.64014
418.5,34.6819,0.108957,-2.64414
419,34.7306,0.105561,-2.64822
419.5,34.7792,0.103995,-2.65121
420,34.8277,0.10059,-2.65603
420.5,34.8743,0.0945521,-2.65955
421,34.9244,0.090676,-2.66346
421.5,34.9738,0.0884003,-2.66819
422,35.0236,0.0879992,-2.67251
422.5,35.072,0.0819636,-2.67621
423,35.1209,0.0844363,-2.67855
423.5,35.169,0.0797521,-2.68496
424,35.2188,0.0721129,-2.68879
424.5,35.2669,0.0832712,-2.69308
425,35.3155,0.0762839,-2.69788
425.5,35.3643,0.0787588,-2.70135
426,35.4133,0.0753892,-2.70545
426.5,35.4622,0.0772082,-2.70891
427,35.5117,0.0748261,-2.71353
427.5,35.5595,0.0760184,-2.71834
428,35.6095,0.0723015,-2.72248
428.5,35.6579,0.0729454,-2.72581
429,35.7064,0.07392,-2.73177
429.5,35.7553,0.073472,-2.7354
430,35.8032,0.0665908,-2.73984
430.5,35.8526,0.0741122,-2.74312
431,35.9026,0.0697077,-2.74794
431.5,35.9501,0.0793558,-2.75164
432,35.9992,0.0771032,-2.75562
432.5,36.0482,0.0823746,-2.75964
433,36.0964,0.0759367,-2.76351
433.5,36.1448,0.0835622,-2.76798
434,36.1944,0.0799288,-2.77371
434.5,36.2436,0.0793841,-2.77819
435,36.2926,0.0844511,-2.78242
435.5,36.3418,0.0842402,-2.78759
436,36.3905,0.0909749,-2.79227
436.5,36.4394,0.0957244,-2.79613
437,36.4888,0.0946824,-2.79933
437.5,36.5375,0.0917019,-2.80444
438,36.586,0.0951165,-2.80804
438.5,36.6365,0.10773,-2.815
439,36.6853,0.114968,-2.81961
439.5,36.7345,0.120768,-2.82384
440,36.7837,0.125033,-2.82876
440.5,36.8324,0.122458,-2.83315
441,36.8806,0.127469,-2.83798
441.5,36.93,0.137531,-2.84341
442,36.9787,0.127293,-2.84543
442.5,37.0289,0.138211,-2.85104
443,37.0776,0.139391,-2.85658
443.5,37.1262,0.143854,-2.86215
444,37.1762,0.145721,-2.86606
444.5,37.2247,0.150992,-2.86976
445,37.2735,0.153303,-2.87631
445.5,37.3233,0.15569,-2.88093
446,37.3722,0.162272,-2.88584
446.5,37.4205,0.165677,-2.89046
447,37.4694,0.168482,-2.89424
447.5,37.5187,0.171421,-2.89842
448,37.5687,0.171816,-2.90267
448.5,37.6175,0.183216,-2.908
449,37.6661,0.175973,-2.91334
449.5,37.7172,0.178959,-2.91871
450,37.7652,0.182421,-2.92315
450.5,37.8144,0.180965,-2.92782
451,37.8636,0.191404,-2.93246
451.5,37.9123,0.187122,-2.93708
452,37.9621,0.19272,-2.94091
452.5,38.0098,0.190703,-2.94556
453,38.0594,0.194099,-2.95074
453.5,38.1087,0.188377,-2.95541
454,38.1572,0.187133,-2.95987
454.5,38.2073,0.198364,-2.96396
455,38.2563,0.195527,-2.96813
455.5,38.3056,0.188119,-2.97243
456,38.3542,0.184529,-2.97691
456.5,38.4039,0.189596,-2.98196
457,38.4522,0.193322,-2.98643
457.5,38.5017,0.186642,-2.99041
458,38.5512,0.18872,-2.99444
458.5,38.6003,0.179325,-2.99785
459,38.6494,0.184063,-3.00237
459.5,38.698,0.175217,-3.00697
460,38.7479,0.174889,-3.01077
460.5,38.7974,0.170383,-3.01501
461,38.8463,0.16554,-3.01873
461.5,38.8953,0.171068,-3.02193
462,38.9451,0.16381,-3.02467
462.5,38.9937,0.158199,-3.02867
463,39.043,0.155393,-3.03308
463.5,39.0916,0.159099,-3.0366
464,39.1409,0.149962,-3.04028
464.5,39.1888,0.151764,-3.04315
465,39.2394,0.145225,-3.04671
465.5,39.2878,0.149657,-3.04993
466,39.3382,0.14632,-3.05363
466.5,39.3867,0.134322,-3.0571
467,39.4355,0.142253,-3.06009
467.5,39.4841,0.133781,-3.06395
468,39.5338,0.131466,-3.06818
468.5,39.5827,0.12012,-3.07047
469,39.632,0.118233,-3.07369
469.5,39.6814,0.121694,-3.0754
470,39.73,0.116582,-3.07789
470.5,39.7801,0.108155,-3.08035
471,39.8273,0.103734,-3.08364
471.5,39.8784,0.0998009,-3.08629
472,39.9261,0.0954549,-3.08789
472.5,39.9752,0.0944453,-3.09137
473,40.0244,0.089404,-3.09398
473.5,40.0736,0.0828544,-3.09584
474,40.1219,0.0805166,-3.09893
474.5,40.1718,0.0802206,-3.10183
475,40.2201,0.0732227,-3.10325
475.5,40.2695,0.0748474,-3.1061
476,40.319,0.0668289,-3.10779
476.5,40.3674,0.0677419,-3.11173
477,40.4146,0.0659111,-3.11362
477.5,40.4652,0.0591788,-3.11693
478,40.5146,0.0585362,-3.11733
478.5,40.5637,0.0616756,-3.11862
479,40.613,0.0545449,-3.12022
479.5,40.6621,0.0519758,-3.12292
480,40.7112,0.0522405,-3.12421
480.5,40.7607,0.0419612,-3.12699
481,40.8098,0.0446989,-3.12954
481.5,40.859,0.0383771,-3.12981
482,40.9076,0.038557,-3.13111
482.5,40.9564,0.0284468,-3.13241
483,41.0059,0.0305433,-3.13511
483.5,41.0549,0.0190604,-3.13566
484,41.1038,0.0230124,-3.13778
484.5,41.1527,0.0163347,-3.13922
485,41.2022,0.0211096,-3.13905
485.5,41.2517,0.016645,-3.14082
486,41.3011,0.0130056,-3.14215
486.5,41.3488,0.0148042,-3.14422
487,41.3978,0.0161296,-3.14542
487.5,41.4472,0.0120932,-3.14671
488,41.4957,0.0153532,-3.14769
488.5,41.5457,0.00467367,-3.14803
489,41.5951,0.00944453,-3.14938
489.5,41.6446,0.008755,-3.15073
490,41.6939,0.00319425,-3.15212
490.5,41.7436,0.00382044,-3.15276
491,41.7932,-0.0025495,-3.15424
491.5,41.8417,-0.00598761,-3.15548
492,41.893,-0.00302273,-3.15606
492.5,41.9423,-0.0101953,-3.15682
493,41.9918,-0.0100865,-3.15824
493.5,42.0397,-0.00705283,-3.15955
494,42.0904,-0.013612,-3.15955
494.5,42.1395,-0.00988742,-3.16082
495,42.1886,-0.00858505,-3.16219
495.5,42.2389,-0.0173516,-3.16351
496,42.2881,-0.0164705,-3.16288
496.5,42.3379,-0.0181154,-3.16416
497,42.3856,-0.0163421,-3.16547
497.5,42.4358,-0.0146982,-3.16549
498,42.4831,-0.0193595,-3.16547
498.5,42.533,-0.0175093,-3.16645
499,42.5838,-0.0227467,-3.16806
499.5,42.6329,-0.030753,-3.16943
500,42.6834,-0.0249187,-3.16943
500.5,42.7328,-0.0350398,-3.17076
501,42.781,-0.0390736,-3.17114
501.5,42.8287,-0.0342196,-3.17207
502,42.8799,-0.0351766,-3.17207
502.5,42.9295,-0.0358249,-3.1734
503,42.9798,-0.0413828,-3.17481
503.5,43.0284,-0.0409688,-3.1747
504,43.078,-0.0422073,-3.17601
504.5,43.1282,-0.0414765,-3.17602
505,43.1765,-0.0420691,-3.17734
505.5,43.226,-0.0413991,-3.17725
506,43.2752,-0.048205,-3.17734
506.5,43.3253,-0.0455488,-3.17865
507,43.375,-0.0491196,-3.17862
507.5,43.4247,-0.0494421,-3.17997
508,43.4734,-0.0501821,-3.1799
508.5,43.5225,-0.0521583,-3.18139
509,43.573,-0.054471,-3.17996
509.5,43.6219,-0.0528463,-3.18058
510,43.6718,-0.0548481,-3.18268
510.5,43.7209,-0.0567472,-3.18295
511,43.7684,-0.0578283,-3.18392
511.5,43.82,-0.0696655,-3.18483
512,43.8698,-0.0584482,-3.18524
512.5,43.9195,-0.0586352,-3.18662
513,43.9685,-0.0626842,-3.18654
513.5,44.0174,-0.0573284,-3.18525
514,44.0671,-0.0648249,-3.18525
514.5,44.1167,-0.0640745,-3.18657
515,44.1666,-0.0625154,-3.18787
515.5,44.2158,-0.0659757,-3.18787
516,44.2644,-0.0653911,-3.18919
516.5,44.3149,-0.0688719,-3.18997
517,44.3632,-0.0692164,-3.19051
517.5,44.413,-0.0637688,-3.19041
518,44.4638,-0.0685562,-3.19137
518.5,44.5113,-0.0786008,-3.19087
519,44.5623,-0.0730757,-3.19214
519.5,44.6116,-0.0670624,-3.19183
520,44.6603,-0.0653259,-3.19279
520.5,44.7087,-0.0617744,-3.19182
521,44.759,-0.0629478,-3.19265
521.5,44.8093,-0.062428,-3.19315
522,44.8588,-0.0681429,-3.19396
522.5,44.9083,-0.0710461,-3.19447
523,44.9574,-0.0726934,-3.19573
523.5,45.0072,-0.072548,-3.19679
524,45.0568,-0.0753663,-3.1971
524.5,45.1048,-0.0702792,-3.1971
525,45.1545,-0.0640513,-3.19823
525.5,45.204,-0.0608175,-3.19842
526,45.2553,-0.0563399,-3.19894
526.5,45.3046,-0.0594006,-3.19974
527,45.3537,-0.0530249,-3.19974
527.5,45.403,-0.050672,-3.19979
528,45.4533,-0.0583283,-3.20106
528.5,45.5029,-0.0571597,-3.20107
529,45.5501,-0.0540436,-3.20231
529.5,45.6018,-0.0554694,-3.20171
530,45.6509,-0.0576058,-3.20269
530.5,45.7005,-0.0647377,-3.20303
531,45.7493,-0.0520928,-3.20303
531.5,45.7995,-0.0552877,-3.20303
532,45.8489,-0.0423431,-3.20417
532.5,45.8983,-0.0447086,-3.20435
533,45.948,-0.0471114,-3.20434
533.5,45.9974,-0.0493123,-3.20566
534,46.0469,-0.0541894,-3.20566
534.5,46.0948,-0.0463332,-3.20495
535,46.1454,-0.053754,-3.20632
535.5,46.1945,-0.0492213,-3.20633
536,46.2447,-0.0421402,-3.20763
536.5,46.2943,-0.049345,-3.20681
537,46.3437,-0.0560544,-3.20632
537.5,46.3928,-0.0527553,-3.20625
538,46.4421,-0.0481783,-3.20764
538.5,46.4917,-0.0427135,-3.20764
539,46.5406,-0.0455082,-3.20857
539.5,46.5908,-0.0520523,-3.20994
540,46.6401,-0.0428024,-3.20862
540.5,46.6896,-0.0517813,-3.20869
541,46.7384,-0.0606524,-3.21107
541.5,46.7882,-0.0524064,-3.21159
542,46.8386,-0.0441781,-3.21159
542.5,46.8874,-0.0548109,-3.21063
543,46.936,-0.0533916,-3.21027
543.5,46.9864,-0.0494029,-3.21025
544,47.034,-0.0482312,-3.21121
544.5,47.086,-0.0518753,-3.21159
545,47.1359,-0.0537415,-3.21159
545.5,47.1848,-0.0558309,-3.21291
546,47.2338,-0.0530178,-3.21291
546.5,47.2837,-0.0544052,-3.21291
547,47.3324,-0.0521295,-3.2142
547.5,47.3827,-0.0542092,-3.2129
548,47.4315,-0.0506334,-3.21419
548.5,47.4819,-0.0579553,-3.21422
549,47.5312,-0.053961,-3.21422
549.5,47.5807,-0.0601313,-3.21422
550,47.6306,-0.0661451,-3.21423
550.5,47.6787,-0.0626101,-3.21489
551,47.7293,-0.0593481,-3.21547
551.5,47.7797,-0.0648245,-3.21686
552,47.829,-0.0673251,-3.21686
552.5,47.8778,-0.0681702,-3.21672
553,47.9274,-0.0685789,-3.21653
553.5,47.9768,-0.0711626,-3.21653
554,48.0275,-0.0660181,-3.21686
554.5,48.0767,-0.0711103,-3.21686
555,48.1251,-0.0697736,-3.21817
555.5,48.1759,-0.0658849,-3.21817
556,48.2254,-0.0760815,-3.21817
556.5,48.2744,-0.0716471,-3.21817
557,48.3242,-0.0814984,-3.21862
557.5,48.374,-0.0712149,-3.21916
558,48.4239,-0.0773065,-3.21915
558.5,48.473,-0.0749264,-3.21818
559,48.5234,-0.0740352,-3.21818
559.5,48.5733,-0.0778366,-3.21854
560,48.6222,-0.0777859,-3.2195
560.5,48.6715,-0.0846404,-3.22081
561,48.7219,-0.0806311,-3.22084
561.5,48.7702,-0.0748376,-3.22017
562,48.8208,-0.0778581,-3.22081
562.5,48.8706,-0.0824465,-3.22082
563,48.921,-0.082995,-3.22079
563.5,48.9698,-0.0865825,-3.22213
564,49.0198,-0.0865778,-3.22213
564.5,49.0708,-0.0883023,-3.22213
565,49.1187,-0.0856051,-3.22263
565.5,49.1684,-0.0839224,-3.22353
566,49.2185,-0.0908095,-3.22246
566.5,49.2683,-0.0869555,-3.2225
567,49.3178,-0.085443,-3.22378
567.5,49.3664,-0.0926071,-3.22378
568,49.4174,-0.0874946,-3.2251
568.5,49.4671,-0.0872527,-3.22509
569,49.516,-0.088538,-3.22506
569.5,49.566,-0.0868448,-3.22641
570,49.6159,-0.09395,-3.22511
570.5,49.666,-0.0975953,-3.2251
571,49.7154,-0.10088,-3.2251
571.5,49.7653,-0.102881,-3.22546
572,49.8147,-0.102558,-3.22542
572.5,49.8645,-0.0981472,-3.22542
573,49.9151,-0.0988629,-3.22537
573.5,49.9647,-0.0976425,-3.22806
574,50.0143,-0.106498,-3.2267
574.5,50.0645,-0.10902,-3.22674
575,50.1134,-0.0993688,-3.22674
575.5,50.1627,-0.108666,-3.22674
576,50.2118,-0.104775,-3.22674
576.5,50.263,-0.103965,-3.2267
577,50.3125,-0.113759,-3.22806
577.5,50.3618,-0.116866,-3.22806
578,50.4114,-0.109941,-3.22828
578.5,50.461,-0.113741,-3.22937
579,50.5113,-0.111835,-3.22932
579.5,50.5589,-0.108441,-3.23009
580,50.6105,-0.109442,-3.22871
580.5,50.6592,-0.108278,-3.22871
581,50.7104,-0.114948,-3.22871
581.5,50.7586,-0.108499,-3.22871
582,50.8094,-0.112898,-3.22871
582.5,50.8579,-0.112958,-3.22995
583,50.9088,-0.108207,-3.23003
583.5,50.9576,-0.114544,-3.22944
584,51.0069,-0.107794,-3.22937
584.5,51.0575,-0.108344,-3.22937
585,51.1073,-0.102268,-3.23069
585.5,51.1581,-0.104944,-3.23069
586,51.2058,-0.103312,-3.23194
586.5,51.2564,-0.102547,-3.23201
587,51.3066,-0.0949041,-3.23111
587.5,51.3564,-0.0918266,-3.23102
588,51.406,-0.0953955,-3.23233
588.5,51.4559,-0.0964701,-3.23233
589,51.5063,-0.0962289,-3.23233
589.5,51.5553,-0.10121,-3.23233
590,51.6063,-0.0973278,-3.23233
590.5,51.6562,-0.0954167,-3.23232
591,51.7061,-0.0940862,-3.23168
591.5,51.7558,-0.0934355,-3.23168
592,51.8065,-0.0903212,-3.23313
592.5,51.8566,-0.0930227,-3.23472
593,51.907,-0.0876648,-3.23574
593.5,51.9563,-0.0919572,-3.23574
594,52.006,-0.087827,-3.23581
594.5,52.0569,-0.0863202,-3.23574
595,52.1055,-0.0852907,-3.23574
595.5,52.1558,-0.0894883,-3.23661
596,52.2058,-0.0862913,-3.23706
596.5,52.2552,-0.0818798,-3.23584
597,52.3058,-0.0777028,-3.23577
597.5,52.3559,-0.075986,-3.23706
598,52.4059,-0.0752363,-3.23754
598.5,52.4562,-0.0778635,-3.23706
599,52.5055,-0.0749296,-3.23838
599.5,52.5556,-0.0773611,-3.23838
600,52.6061,-0.0776734,-3.23837
600.5,52.6539,-0.0704919,-3.23706
601,52.7059,-0.0750998,-3.23706
601.5,52.7552,-0.0737019,-3.23717
602,52.8056,-0.0686573,-3.2397
602.5,52.8553,-0.0671661,-3.2397
603,52.9051,-0.0611882,-3.2397
603.5,52.9558,-0.0603719,-3.23971
604,53.0066,-0.0621417,-3.24045
604.5,53.0557,-0.0686853,-3.23969
605,53.1055,-0.0682482,-3.23969
605.5,53.1569,-0.0640132,-3.23969
606,53.2066,-0.064941,-3.23971
606.5,53.2571,-0.0618707,-3.242
607,53.3061,-0.0612175,-3.242
607.5,53.3575,-0.0595321,-3.242
608,53.4065,-0.0625092,-3.24202
608.5,53.4572,-0.0580441,-3.24201
609,53.5074,-0.0550081,-3.242
609.5,53.5572,-0.0609682,-3.242
610,53.6075,-0.0627008,-3.242
610.5,53.6574,-0.0610315,-3.242
611,53.7078,-0.0595701,-3.24334
611.5,53.7574,-0.0632606,-3.24332
612,53.8075,-0.059631,-3.24332
612.5,53.8583,-0.0618003,-3.24337
613,53.9069,-0.0595691,-3.24462
613.5,53.9579,-0.0558938,-3.24397
614,54.0082,-0.0589048,-3.24397
614.5,54.0576,-0.0660866,-3.24397
615,54.108,-0.0552424,-3.24497
615.5,54.1586,-0.0584822,-3.24532
616,54.2087,-0.061307,-3.24529
616.5,54.2585,-0.0650196,-3.24577
617,54.3085,-0.056555,-3.24661
617.5,54.3591,-0.0677687,-3.24661
618,54.4085,-0.0677114,-3.24661
618.5,54.4584,-0.0730731,-3.24666
619,54.5076,-0.0704283,-3.24793
619.5,54.5597,-0.0692319,-3.24724
620,54.6094,-0.0680934,-3.24724
620.5,54.66,-0.0740196,-3.24858
621,54.7102,-0.069981,-3.24858
621.5,54.7599,-0.0764638,-3.24858
622,54.8103,-0.0699082,-3.2486
622.5,54.8599,-0.0787133,-3.2499
623,54.9103,-0.0744747,-3.24988
623.5,54.9603,-0.0798258,-3.25056
624,55.0102,-0.0842287,-3.25056
624.5,55.0604,-0.0860856,-3.25061
625,55.11,-0.0867115,-3.24924
625.5,55.1606,-0.0873399,-3.24989
626,55.2115,-0.0917661,-3.25044
626.5,55.2606,-0.0832817,-3.25139
627,55.3108,-0.0894389,-3.25254
627.5,55.3614,-0.0897836,-3.25254
628,55.4112,-0.0868526,-3.25165
628.5,55.4606,-0.0931495,-3.25254
629,55.5108,-0.0858445,-3.25254
629.5,55.562,-0.1015,-3.25253
630,55.6116,-0.104048,-3.25386
630.5,55.6622,-0.104279,-3.25338
631,55.7122,-0.101375,-3.25341
631.5,55.7617,-0.100449,-3.25275
632,55.8123,-0.0999719,-3.25254
632.5,55.8618,-0.108092,-3.25345
633,55.9126,-0.111621,-3.25407
633.5,55.9623,-0.113101,-3.25485
634,56.0132,-0.113363,-3.25485
634.5,56.0621,-0.114844,-3.25484
635,56.1136,-0.110412,-3.25387
635.5,56.163,-0.114619,-3.25497
636,56.2128,-0.108472,-3.25518
636.5,56.2628,-0.117662,-3.25518
637,56.3138,-0.114743,-3.25518
637.5,56.3635,-0.122594,-3.25518
638,56.4141,-0.117211,-3.25515
638.5,56.4643,-0.116974,-3.25751
639,56.5119,-0.11396,-3.25748
639.5,56.5619,-0.113492,-3.25747
640,56.6141,-0.11283,-3.2588
640.5,56.6616,-0.117655,-3.25828
641,56.714,-0.120698,-3.25867
641.5,56.7637,-0.123083,-3.2588
642,56.8141,-0.119569,-3.2588
642.5,56.8648,-0.120925,-3.25901
643,56.9136,-0.122038,-3.25979
643.5,56.9633,-0.120439,-3.25979
644,57.0142,-0.122362,-3.25979
644.5,57.0624,-0.118205,-3.25979
645,57.1137,-0.117176,-3.26002
645.5,57.1635,-0.130474,-3.26012
646,57.2139,-0.119808,-3.26119
646.5,57.2638,-0.123833,-3.26143
647,57.3122,-0.121483,-3.26143
647.5,57.3647,-0.11312,-3.26075
648,57.4152,-0.11863,-3.26127
648.5,57.4651,-0.117333,-3.26209
649,57.5151,-0.127785,-3.26209
649.5,57.5652,-0.117883,-3.26209
650,57.6149,-0.120956,-3.26209
650.5,57.6661,-0.115214,-3.26335
651,57.7154,-0.110909,-3.26341
651.5,57.7667,-0.112766,-3.26472
652,57.817,-0.109132,-3.26472
652.5,57.8659,-0.106157,-3.26472
653,57.9173,-0.0999232,-3.26539
653.5,57.9674,-0.0969403,-3.26472
654,58.0177,-0.095313,-3.26472
654.5,58.0675,-0.103687,-3.26334
655,58.1174,-0.102321,-3.26405
655.5,58.1681,-0.100616,-3.26538
656,58.218,-0.0909384,-3.26672
656.5,58.269,-0.084965,-3.26669
657,58.3211,-0.0982522,-3.26538
657.5,58.3706,-0.0823476,-3.26569
658,58.4213,-0.0918269,-3.26811
658.5,58.4712,-0.0906484,-3.26824
659,58.522,-0.0850778,-3.26933
659.5,58.5713,-0.0830498,-3.26796
660,58.6218,-0.0874236,-3.26801
660.5,58.6725,-0.0804786,-3.26801
661,58.7209,-0.0868473,-3.26801
661.5,58.7722,-0.0942965,-3.26941
662,58.8236,-0.088924,-3.27082
662.5,58.8729,-0.0906063,-3.27203
663,58.923,-0.0864182,-3.2694
663.5,58.9736,-0.0794035,-3.26944
664,59.0224,-0.0771976,-3.2708
664.5,59.0721,-0.0817919,-3.27072
665,59.1238,-0.0803039,-3.27208
665.5,59.1744,-0.0805964,-3.27208
666,59.2248,-0.0789523,-3.2721
666.5,59.2739,-0.0827333,-3.27339
667,59.3261,-0.0798123,-3.27339
667.5,59.3762,-0.081018,-3.27208
668,59.4258,-0.0777939,-3.27343
668.5,59.4765,-0.0794171,-3.2734
669,59.5271,-0.0743865,-3.27594
669.5,59.577,-0.0755514,-3.27603
670,59.6275,-0.0745198,-3.27569
670.5,59.6774,-0.0763642,-3.27442
671,59.7282,-0.0699503,-3.27439
671.5,59.7786,-0.0742102,-3.27439
672,59.8283,-0.0787385,-3.27571
672.5,59.8789,-0.0753816,-3.27571
673,59.9298,-0.0841617,-3.27565
673.5,59.9795,-0.0826287,-3.27702
674,60.0299,-0.083524,-3.27702
674.5,60.0794,-0.0852345,-3.27817
675,60.1314,-0.0828163,-3.27833
675.5,60.1806,-0.0841391,-3.27703
676,60.232,-0.085618,-3.27702
676.5,60.282,-0.0908448,-3.27767
677,60.3337,-0.0818175,-3.27964
677.5,60.3825,-0.0888865,-3.2797
678,60.4332,-0.0937728,-3.27834
678.5,60.4837,-0.0961573,-3.2797
679,60.5338,-0.0854797,-3.27966
679.5,60.5848,-0.08681,-3.27966
680,60.6347,-0.0853068,-3.27966
680.5,60.6861,-0.0885022,-3.27993
681,60.736,-0.0816073,-3.28163
681.5,60.7854,-0.0922204,-3.28196
682,60.8364,-0.0885954,-3.28328
682.5,60.8867,-0.089161,-3.28328
683,60.937,-0.0833457,-3.2833
683.5,60.9875,-0.0850518,-3.28196
684,61.0363,-0.0825332,-3.28196
684.5,61.0874,-0.0768608,-3.28196
685,61.1401,-0.0736981,-3.28316
685.5,61.1902,-0.0733925,-3.28328
686,61.2408,-0.0728297,-3.28328
686.5,61.2914,-0.0723117,-3.28328
687,61.3419,-0.0772526,-3.28452
687.5,61.392,-0.0652129,-3.28442
688,61.4415,-0.0725654,-3.28328
688.5,61.4928,-0.0680993,-3.28328
689,61.5434,-0.0669346,-3.28328
689.5,61.5937,-0.0669269,-3.28328
690,61.6429,-0.0692288,-3.28416
690.5,61.6942,-0.0671631,-3.28459
691,61.7444,-0.0695999,-3.28496
691.5,61.7952,-0.0708993,-3.28492
692,61.8463,-0.062385,-3.28622
692.5,61.896,-0.0671421,-3.28624
693,61.9472,-0.0558671,-3.28619
693.5,61.9971,-0.0643081,-3.28624
694,62.046,-0.0588495,-3.2876
694.5,62.0971,-0.0687823,-3.28756
695,62.1489,-0.0649699,-3.28756
695.5,62.1995,-0.0603005,-3.28889
696,62.2493,-0.0551259,-3.28889
696.5,62.2995,-0.0668845,-3.28986
697,62.3504,-0.0588871,-3.29019
697.5,62.4011,-0.0540402,-3.29018
698,62.4516,-0.0536565,-3.29151
698.5,62.5022,-0.0550723,-3.29151
699,62.5527,-0.0589974,-3.2902
699.5,62.6029,-0.0572302,-3.29019
700,62.6537,-0.0471269,-3.29019
700.5,62.7046,-0.0532856,-3.29019
701,62.7545,-0.0524293,-3.29149
701.5,62.8053,-0.0476486,-3.29151
702,62.8557,-0.0391997,-3.29151
702.5,62.9058,-0.0486841,-3.29276
703,62.9562,-0.0486632,-3.29282
703.5,63.0073,-0.0434268,-3.29146
704,63.0569,-0.0473029,-3.29283
704.5,63.1086,-0.0449574,-3.29283
705,63.1587,-0.0488554,-3.29278
705.5,63.2091,-0.0432557,-3.29282
706,63.2596,-0.048536,-3.29413
706.5,63.3107,-0.049678,-3.29519
707,63.3609,-0.0474018,-3.29546
707.5,63.4113,-0.0406141,-3.29547
708,63.4615,-0.0442978,-3.29547
708.5,63.5123,-0.0446485,-3.29654
709,63.5634,-0.0445305,-3.29678
709.5,63.6132,-0.0500275,-3.29678
710,63.6636,-0.0488486,-3.29678
710.5,63.7135,-0.045769,-3.29808
711,63.7654,-0.0387163,-3.2967
711.5,63.8149,-0.0337108,-3.29678
712,63.8659,-0.0483324,-3.29678
712.5,63.9169,-0.0418886,-3.29744
713,63.9672,-0.0368564,-3.2981
713.5,64.0186,-0.042035,-3.2981
714,64.0698,-0.0381372,-3.2981
714.5,64.1193,-0.0455483,-3.2982
715,64.1697,-0.0380661,-3.29942
715.5,64.2208,-0.0429768,-3.29942
716,64.2721,-0.0464448,-3.29899
716.5,64.3222,-0.046701,-3.2981
717,64.3721,-0.0471376,-3.29916
717.5,64.4229,-0.0501411,-3.29997
718,64.4743,-0.0445766,-3.30073
718.5,64.5248,-0.0397819,-3.30073
719,64.575,-0.0480783,-3.30073
719.5,64.6255,-0.0496052,-3.30073
720,64.6755,-0.0497753,-3.30074
720.5,64.7273,-0.0601545,-3.30205
721,64.7779,-0.0578297,-3.30205
721.5,64.8285,-0.0470011,-3.30205
722,64.8792,-0.050923,-3.30214
722.5,64.9293,-0.0514667,-3.30337
723,64.9802,-0.0544124,-3.30337
723.5,65.0298,-0.0546308,-3.30337
724,65.0813,-0.0540113,-3.30331
724.5,65.1324,-0.0584602,-3.30336
725,65.1828,-0.0591587,-3.30335
725.5,65.234,-0.0626126,-3.30468
726,65.2838,-0.0587675,-3.30386
726.5,65.3347,-0.061953,-3.30505
727,65.3843,-0.0619841,-3.30502
727.5,65.4366,-0.061655,-3.30635
728,65.4878,-0.0656896,-3.30765
728.5,65.538,-0.0518042,-3.30765
729,65.5864,-0.0618689,-3.30765
729.5,65.6394,-0.0623165,-3.30765
730,65.69,-0.0629884,-3.30633
730.5,65.7408,-0.067526,-3.30633
731,65.791,-0.0784166,-3.30732
731.5,65.8422,-0.0793827,-3.30732
732,65.8931,-0.0796787,-3.30732
732.5,65.943,-0.0820252,-3.30764
733,65.9945,-0.0871635,-3.3076
733.5,66.045,-0.0816023,-3.30886
734,66.0954,-0.088053,-3.30765
734.5,66.146,-0.0866763,-3.30763
735,66.1957,-0.0885218,-3.30924
735.5,66.2469,-0.0855825,-3.31029
736,66.2975,-0.091506,-3.30959
736.5,66.3479,-0.0898461,-3.30801
737,66.3991,-0.0973134,-3.30799
737.5,66.4487,-0.0994274,-3.3093
738,66.4993,-0.108931,-3.3094
738.5,66.5508,-0.113436,-3.31061
739,66.601,-0.108618,-3.31061
739.5,66.6525,-0.114936,-3.31058
740,66.7023,-0.114945,-3.30924