File: 01_Data/Turnout_Gear_Shell/STA/N2/10K_min/Turnout_Gear_Shell_STA_N2_10KData_240514_R1.csv
Temp./C,Time/min,DSC/(mW/mg),Mass loss/mg
60.0,0.0,0.912851,-0.0153761
60.6,0.0703811,0.937797,-0.0169049
61.2,0.138831,0.943733,-0.0164551
61.8,0.207364,0.964052,-0.0170209
62.4,0.272324,0.977414,-0.0170377
63,0.338448,0.996334,-0.0162162
63.6,0.404016,1.01356,-0.017024
64.2,0.467288,1.03771,-0.0182578
64.8,0.534433,1.03597,-0.016824
65.4,0.599554,1.0568,-0.0168319
66,0.663064,1.07977,-0.0196368
66.6,0.723916,1.09382,-0.019407
67.2,0.792567,1.10481,-0.019462
67.8,0.855591,1.12627,-0.019558
68.4,0.918497,1.13249,-0.019944
69,0.983075,1.14221,-0.019509
69.6,1.04587,1.15406,-0.0195319
70.2,1.1091,1.17107,-0.0205182
70.8,1.17289,1.19044,-0.0208702
71.4,1.2365,1.19595,-0.02218
72,1.29808,1.20334,-0.0221799
72.6,1.3612,1.21751,-0.0231572
73.2,1.42344,1.24122,-0.0225058
73.8,1.48595,1.25113,-0.022454
74.4,1.54904,1.25263,-0.0238353
75,1.61197,1.27763,-0.0238706
75.6,1.6702,1.2841,-0.0241459
76.2,1.73441,1.30882,-0.0241501
76.8,1.79606,1.31573,-0.0254809
77.4,1.8596,1.33377,-0.0254276
78,1.92144,1.33116,-0.0261264
78.6,1.98382,1.34667,-0.02613
79.2,2.04464,1.35205,-0.0261212
79.8,2.10601,1.37129,-0.0271224
80.4,2.16708,1.3797,-0.025783
81,2.23142,1.39437,-0.0261353
81.6,2.29222,1.40027,-0.0287702
82.2,2.35221,1.40699,-0.02877
82.8,2.4124,1.41655,-0.0286934
83.4,2.47414,1.42622,-0.0300901
84,2.53415,1.4324,-0.03009
84.6,2.59718,1.45568,-0.0310654
85.2,2.65636,1.4551,-0.0313998
85.8,2.71768,1.46784,-0.0314
86.4,2.77784,1.47194,-0.0324595
87,2.83802,1.49032,-0.0320598
87.6,2.89896,1.49012,-0.0320595
88.2,2.9583,1.50296,-0.0333796
88.8,3.01791,1.50623,-0.0343699
89.4,3.07903,1.50403,-0.0356378
90,3.13785,1.51313,-0.03569
90.6,3.19695,1.51815,-0.03569
91.2,3.25739,1.52567,-0.0356917
91.8,3.31648,1.52427,-0.0370411
92.4,3.37651,1.53185,-0.0369948
93,3.43718,1.54138,-0.0383177
93.6,3.49529,1.53433,-0.03832
94.2,3.55472,1.54292,-0.03832
94.8,3.61416,1.5443,-0.0383189
95.4,3.67358,1.55342,-0.0389794
96,3.73248,1.54888,-0.0390434
96.6,3.79153,1.55418,-0.0393045
97.2,3.85047,1.55002,-0.039961
97.8,3.90971,1.56132,-0.0400999
98.4,3.96652,1.57319,-0.0415199
99,4.02728,1.5583,-0.0416153
99.6,4.08643,1.5571,-0.0427235
100.2,4.14481,1.56153,-0.0439096
100.8,4.20415,1.5651,-0.0453301
101.4,4.26246,1.56366,-0.0463208
102,4.32123,1.56647,-0.045035
102.6,4.38002,1.57317,-0.04369
103.2,4.43701,1.56062,-0.0437002
103.8,4.49543,1.56367,-0.0450147
104.4,4.55407,1.55766,-0.0450165
105,4.61344,1.55514,-0.0463259
105.6,4.67113,1.56805,-0.0473247
106.2,4.73036,1.55759,-0.0473168
106.8,4.78697,1.55561,-0.048629
107.4,4.84613,1.54709,-0.04864
108,4.90354,1.55633,-0.04864
108.6,4.96269,1.54423,-0.04864
109.2,5.01685,1.53957,-0.0499435
109.8,5.07908,1.53785,-0.0499538
110.4,5.13659,1.5325,-0.0502796
111,5.19562,1.54557,-0.0503024
111.6,5.2515,1.5373,-0.0516001
112.2,5.31157,1.5344,-0.0516
112.8,5.36933,1.5328,-0.0516
113.4,5.42708,1.51959,-0.0515996
114,5.48515,1.52671,-0.052644
114.6,5.54342,1.51819,-0.0529437
115.2,5.60318,1.5202,-0.0539101
115.8,5.6598,1.52136,-0.05391
116.4,5.71727,1.5105,-0.05391
117,5.77529,1.5116,-0.0539327
117.6,5.83347,1.50639,-0.0545685
118.2,5.89147,1.50359,-0.0546047
118.8,5.94846,1.51242,-0.0549
119.4,6.00673,1.50589,-0.0548501
120,6.06507,1.49634,-0.0562097
120.6,6.12253,1.50035,-0.05621
121.2,6.18168,1.49659,-0.0567023
121.8,6.23836,1.48459,-0.0575303
122.4,6.29628,1.48674,-0.0575324
123,6.35441,1.48787,-0.058793
123.6,6.41221,1.47595,-0.0593935
124.2,6.47049,1.47901,-0.0581897
124.8,6.52808,1.47674,-0.0589697
125.4,6.58628,1.46036,-0.0595092
126,6.64498,1.45535,-0.0595096
126.6,6.7017,1.44537,-0.0602312
127.2,6.76039,1.44833,-0.06016
127.8,6.81712,1.442,-0.0601599
128.4,6.87447,1.42555,-0.0598652
129,6.93223,1.42199,-0.0594997
129.6,6.99095,1.42328,-0.0606401
130.2,7.04872,1.42536,-0.0608302
130.8,7.10524,1.41685,-0.0621407
131.4,7.16458,1.41013,-0.0621399
132,7.22125,1.40341,-0.0620995
132.6,7.27863,1.40186,-0.0608203
133.2,7.33627,1.39217,-0.0619724
133.8,7.39374,1.39339,-0.0621399
134.4,7.45138,1.38557,-0.06214
135,7.51011,1.38638,-0.06214
135.6,7.56614,1.38337,-0.06214
136.2,7.62488,1.37538,-0.0620683
136.8,7.68169,1.36913,-0.0621411
137.4,7.73981,1.37045,-0.0621619
138,7.79742,1.3604,-0.0635492
138.6,7.85449,1.36812,-0.0628054
139.2,7.91118,1.3622,-0.0627991
139.8,7.96958,1.35418,-0.0637727
140.4,8.02609,1.35653,-0.0637788
141,8.08468,1.35305,-0.0626229
141.6,8.14216,1.345,-0.06246
142.2,8.19877,1.34636,-0.062671
142.8,8.2573,1.34639,-0.0641099
143.4,8.3153,1.34366,-0.063228
144,8.37243,1.34031,-0.0641103
144.6,8.4295,1.33472,-0.0653816
145.2,8.48668,1.33457,-0.0654299
145.8,8.54406,1.33026,-0.0654297
146.4,8.60193,1.31718,-0.0661776
147,8.65732,1.32834,-0.0654304
147.6,8.71531,1.32274,-0.06543
148.2,8.77234,1.32456,-0.06543
148.8,8.82864,1.32967,-0.06543
149.4,8.88693,1.32711,-0.06543
150,8.94181,1.32698,-0.0654061
150.6,9.00155,1.30737,-0.0654468
151.2,9.05653,1.31562,-0.0654399
151.8,9.11537,1.31332,-0.0669287
152.4,9.17261,1.31138,-0.0672819
153,9.22948,1.31378,-0.065443
153.6,9.28624,1.30978,-0.06544
154.2,9.34369,1.3139,-0.06544
154.8,9.40074,1.3101,-0.0654219
155.4,9.45801,1.31384,-0.0664194
156,9.51506,1.31376,-0.06642
156.6,9.57261,1.31016,-0.0663872
157.2,9.62919,1.30836,-0.066752
157.8,9.68547,1.31245,-0.0680642
158.4,9.74347,1.3105,-0.0679085
159,9.80207,1.30489,-0.0667498
159.6,9.85758,1.30981,-0.0667611
160.2,9.91444,1.30584,-0.0680738
160.8,9.97171,1.30774,-0.0680735
161.4,10.0297,1.2998,-0.0701433
162,10.0851,1.3049,-0.0686001
162.6,10.1428,1.29846,-0.0673019
163.2,10.1993,1.30063,-0.0673
163.8,10.2573,1.29898,-0.0673
164.4,10.3136,1.30452,-0.0673
165,10.3712,1.30383,-0.0673
165.6,10.4281,1.29785,-0.0673019
166.2,10.4857,1.29916,-0.068098
166.8,10.5434,1.30005,-0.0686102
167.4,10.5996,1.30139,-0.06861
168,10.6559,1.30166,-0.06861
168.6,10.7129,1.29982,-0.06861
169.2,10.7711,1.29844,-0.06861
169.8,10.8276,1.3038,-0.06861
170.4,10.8848,1.29916,-0.0686151
171,10.9418,1.30412,-0.0687015
171.6,10.9991,1.30507,-0.06861
172.2,11.0565,1.31014,-0.0685593
172.8,11.1122,1.30224,-0.0699293
173.4,11.1697,1.31464,-0.06993
174,11.2268,1.3063,-0.0699298
174.6,11.2842,1.31691,-0.0702674
175.2,11.3415,1.32008,-0.06993
175.8,11.3975,1.3145,-0.06993
176.4,11.4553,1.32202,-0.06993
177,11.5124,1.31308,-0.0699313
177.6,11.5689,1.31694,-0.0686034
178.2,11.6263,1.32234,-0.0702477
178.8,11.6828,1.3207,-0.0708992
179.4,11.7402,1.31956,-0.0712501
180,11.7978,1.32595,-0.0701226
180.6,11.8522,1.32994,-0.0712516
181.2,11.9111,1.32449,-0.071258
181.8,11.9684,1.33058,-0.0689393
182.4,12.0248,1.32288,-0.06895
183,12.0822,1.32749,-0.06895
183.6,12.1387,1.33486,-0.0689672
184.2,12.1958,1.33507,-0.07027
184.8,12.2526,1.34116,-0.07027
185.4,12.3097,1.33648,-0.0702701
186,12.3671,1.34754,-0.0703744
186.6,12.4241,1.34231,-0.0728326
187.2,12.4799,1.34986,-0.0728898
187.8,12.5373,1.3519,-0.0715775
188.4,12.5942,1.35505,-0.07158
189,12.6493,1.35499,-0.0715803
189.6,12.7082,1.35306,-0.0699828
190.2,12.7661,1.35561,-0.0698578
190.8,12.8209,1.35925,-0.0712495
191.4,12.8784,1.35304,-0.0710131
192,12.9363,1.36038,-0.0712498
192.6,12.993,1.35157,-0.070091
193.2,13.0501,1.35798,-0.0709165
193.8,13.1065,1.36685,-0.0722393
194.4,13.164,1.36401,-0.07224
195,13.2201,1.36254,-0.0722423
195.6,13.2777,1.36972,-0.072245
196.2,13.3344,1.36788,-0.07224
196.8,13.3896,1.37174,-0.0722383
197.4,13.4481,1.36144,-0.0729022
198,13.5064,1.37059,-0.0729
198.6,13.5627,1.36926,-0.0729
199.2,13.6196,1.37184,-0.0729
199.8,13.6763,1.3728,-0.0725458
200.4,13.7322,1.38463,-0.0715765
201,13.7893,1.38136,-0.0728855
201.6,13.8473,1.38277,-0.0741913
202.2,13.9039,1.38683,-0.0745557
202.8,13.9603,1.38688,-0.073233
203.4,14.017,1.39567,-0.07323
204,14.0754,1.38275,-0.07323
204.6,14.1315,1.39162,-0.07323
205.2,14.1891,1.39303,-0.0731934
205.8,14.2454,1.40096,-0.0745421
206.4,14.303,1.40203,-0.0732435
207,14.3608,1.40586,-0.0732202
207.6,14.4158,1.40858,-0.074488
208.2,14.4727,1.41059,-0.07454
208.8,14.5311,1.40737,-0.07454
209.4,14.5881,1.40521,-0.07454
210,14.6446,1.40652,-0.07454
210.6,14.7014,1.40756,-0.074551
211.2,14.7587,1.40227,-0.0759019
211.8,14.8158,1.40514,-0.0751997
212.4,14.8729,1.41146,-0.0752003
213,14.9294,1.41024,-0.0743931
213.6,14.9867,1.41568,-0.0742095
214.2,15.0438,1.41473,-0.0735245
214.8,15.1003,1.42465,-0.074756
215.4,15.1576,1.43168,-0.07487
216,15.214,1.43105,-0.0748699
216.6,15.2705,1.42285,-0.0745957
217.2,15.3284,1.42898,-0.0738786
217.8,15.3848,1.42692,-0.0752027
218.4,15.4426,1.42464,-0.0752
219,15.4987,1.4269,-0.0751375
219.6,15.5542,1.42507,-0.07652
220.2,15.613,1.43091,-0.07652
220.8,15.67,1.43185,-0.0765518
221.4,15.7265,1.43024,-0.0752
222,15.7838,1.43812,-0.0765401
222.6,15.8407,1.42747,-0.0765194
223.2,15.8969,1.43158,-0.0776155
223.8,15.9542,1.42964,-0.0775099
224.4,16.0106,1.42793,-0.077394
225,16.0669,1.43246,-0.0761895
225.6,16.1247,1.42591,-0.07619
226.2,16.1811,1.43672,-0.0761033
226.8,16.2385,1.4332,-0.07751
227.4,16.2954,1.44343,-0.07751
228,16.352,1.44118,-0.07751
228.6,16.4096,1.4431,-0.07751
229.2,16.4669,1.44361,-0.0775099
229.8,16.5232,1.44958,-0.0780516
230.4,16.5812,1.44407,-0.0781599
231,16.6369,1.44837,-0.0781606
231.6,16.6939,1.45102,-0.0787791
232.2,16.7512,1.45058,-0.0798301
232.8,16.8073,1.45421,-0.0798105
233.4,16.8653,1.45599,-0.0804694
234,16.9214,1.44407,-0.0807976
234.6,16.9796,1.44929,-0.0804688
235.2,17.0357,1.43971,-0.0791041
235.8,17.0925,1.44479,-0.0793231
236.4,17.1501,1.45308,-0.0804704
237,17.2071,1.45291,-0.08047
237.6,17.2635,1.4522,-0.08047
238.2,17.3208,1.45322,-0.0804938
238.8,17.3755,1.44725,-0.08179
239.4,17.4348,1.45157,-0.08179
240,17.4915,1.44481,-0.0817935
240.6,17.5495,1.45381,-0.0831081
241.2,17.6064,1.44761,-0.0817957
241.8,17.6626,1.45134,-0.0818884
242.4,17.7187,1.4548,-0.0831102
243,17.7765,1.46113,-0.0831091
243.6,17.8334,1.4576,-0.0844101
244.2,17.89,1.45525,-0.08443
244.8,17.9475,1.46538,-0.08443
245.4,18.0035,1.47459,-0.08443
246,18.0602,1.47259,-0.08443
246.6,18.1175,1.47407,-0.08443
247.2,18.1745,1.46517,-0.08443
247.8,18.2314,1.46545,-0.0844302
248.4,18.2873,1.47028,-0.0858171
249,18.3448,1.47943,-0.08575
249.6,18.4023,1.47909,-0.0857481
250.2,18.4582,1.47809,-0.0864042
250.8,18.5156,1.48036,-0.0869464
251.4,18.5722,1.47918,-0.08706
252,18.6297,1.47773,-0.08706
252.6,18.6868,1.47619,-0.0870668
253.2,18.7444,1.48069,-0.0857537
253.8,18.7997,1.47764,-0.0870467
254.4,18.8567,1.47633,-0.08706
255,18.9132,1.4763,-0.08706
255.6,18.9721,1.47393,-0.08706
256.2,19.0272,1.48221,-0.0870597
256.8,19.0843,1.4874,-0.0880386
257.4,19.1415,1.48493,-0.0890376
258,19.1988,1.47806,-0.0877221
258.6,19.2559,1.4808,-0.08772
259.2,19.3125,1.48234,-0.0877199
259.8,19.3705,1.48624,-0.0883462
260.4,19.4273,1.48389,-0.0886986
261,19.4837,1.48761,-0.0890281
261.6,19.5411,1.47938,-0.0890313
262.2,19.5976,1.48984,-0.0896833
262.8,19.6552,1.48221,-0.0909969
263.4,19.7111,1.48543,-0.090993
264,19.7696,1.4869,-0.0910114
264.6,19.8248,1.49294,-0.0923415
265.2,19.882,1.49763,-0.09233
265.8,19.9405,1.49369,-0.09233
266.4,19.9979,1.48477,-0.0931231
267,20.055,1.49181,-0.0933199
267.6,20.1118,1.49327,-0.09332
268.2,20.1679,1.48306,-0.09332
268.8,20.2256,1.49158,-0.0935041
269.4,20.2829,1.48957,-0.0936499
270,20.3399,1.48047,-0.09365
270.6,20.3966,1.4836,-0.0937516
271.2,20.454,1.47229,-0.0949606
271.8,20.5118,1.48889,-0.09496
272.4,20.5683,1.48496,-0.09496
273,20.6264,1.48553,-0.09496
273.6,20.6824,1.49508,-0.09496
274.2,20.7403,1.50275,-0.0949604
274.8,20.7969,1.5069,-0.0962684
275.4,20.8551,1.50666,-0.0962803
276,20.9115,1.50672,-0.0975898
276.6,20.9702,1.51134,-0.098261
277.2,21.0275,1.5132,-0.0989207
277.8,21.0845,1.51781,-0.0989199
278.4,21.1415,1.52163,-0.097612
279,21.1991,1.513,-0.098851
279.6,21.255,1.51563,-0.100241
280.2,21.3128,1.51982,-0.100257
280.8,21.3697,1.51881,-0.104857
281.4,21.4277,1.52462,-0.103065
282,21.4852,1.51771,-0.10188
282.6,21.5431,1.51826,-0.10188
283.2,21.5995,1.52241,-0.10188
283.8,21.6563,1.52303,-0.10188
284.4,21.713,1.53033,-0.101837
285,21.7707,1.53249,-0.104205
285.6,21.8279,1.52149,-0.10452
286.2,21.885,1.52508,-0.103213
286.8,21.9412,1.52699,-0.10326
287.4,21.9998,1.53368,-0.103849
288,22.0568,1.5371,-0.104528
288.6,22.1137,1.53972,-0.106833
289.2,22.1703,1.54581,-0.10683
289.8,22.2283,1.53917,-0.10683
290.4,22.2859,1.54669,-0.10683
291,22.3435,1.53701,-0.108147
291.6,22.3977,1.5496,-0.10814
292.2,22.4575,1.54381,-0.106812
292.8,22.5152,1.54635,-0.10682
293.4,22.5715,1.54664,-0.107134
294,22.629,1.55011,-0.109137
294.6,22.6861,1.55577,-0.109459
295.2,22.7441,1.55074,-0.109487
295.8,22.8007,1.5545,-0.110779
296.4,22.8579,1.56274,-0.11078
297,22.9128,1.55771,-0.11078
297.6,22.9715,1.55829,-0.11078
298.2,23.0302,1.55875,-0.11078
298.8,23.087,1.55814,-0.112069
299.4,23.1443,1.57216,-0.11209
300,23.2025,1.55677,-0.112412
300.6,23.2599,1.55882,-0.11472
301.2,23.3171,1.56331,-0.11472
301.8,23.3747,1.55873,-0.114753
302.4,23.4323,1.55886,-0.114728
303,23.49,1.5601,-0.116047
303.6,23.5465,1.56272,-0.11605
304.2,23.6051,1.57192,-0.116602
304.8,23.662,1.56204,-0.118897
305.4,23.7195,1.56591,-0.118944
306,23.7764,1.57478,-0.118716
306.6,23.8349,1.57374,-0.117569
307.2,23.892,1.56895,-0.118888
307.8,23.9495,1.56928,-0.1189
308.4,24.0064,1.57486,-0.118187
309,24.0649,1.56838,-0.118227
309.6,24.1213,1.56787,-0.11955
310.2,24.179,1.56671,-0.119791
310.8,24.237,1.57197,-0.12087
311.4,24.2908,1.57311,-0.122217
312,24.3501,1.58284,-0.12219
312.6,24.4099,1.57924,-0.12219
313.2,24.4669,1.57814,-0.12219
313.8,24.5238,1.58413,-0.122189
314.4,24.581,1.57447,-0.123513
315,24.6395,1.57588,-0.126145
315.6,24.6958,1.5817,-0.126139
316.2,24.7551,1.57778,-0.124819
316.8,24.812,1.59337,-0.12482
317.4,24.8704,1.59562,-0.125504
318,24.9276,1.59291,-0.126137
318.6,24.9842,1.59633,-0.127123
319.2,25.0419,1.59298,-0.128448
319.8,25.0992,1.59371,-0.128436
320.4,25.1568,1.59458,-0.129101
321,25.2147,1.59892,-0.1291
321.6,25.272,1.60229,-0.129101
322.2,25.329,1.60331,-0.130421
322.8,25.3878,1.61055,-0.13042
323.4,25.4448,1.61704,-0.130414
324,25.5022,1.61866,-0.131737
324.6,25.5582,1.62101,-0.131742
325.2,25.6176,1.62458,-0.133078
325.8,25.6762,1.62335,-0.13437
326.4,25.733,1.63329,-0.13438
327,25.788,1.63849,-0.134391
327.6,25.8484,1.64648,-0.135689
328.2,25.9059,1.63944,-0.136998
328.8,25.9633,1.64169,-0.137066
329.4,26.0213,1.63467,-0.13701
330,26.0794,1.64094,-0.13701
330.6,26.1367,1.6377,-0.137006
331.2,26.1951,1.63634,-0.138319
331.8,26.2527,1.63336,-0.139637
332.4,26.3104,1.64329,-0.14096
333,26.3686,1.64468,-0.140958
333.6,26.426,1.63711,-0.14227
334.2,26.4834,1.63751,-0.14228
334.8,26.541,1.63647,-0.142343
335.4,26.5984,1.6383,-0.1436
336,26.6581,1.63509,-0.143617
336.6,26.7147,1.63388,-0.146233
337.2,26.7727,1.6273,-0.146246
337.8,26.831,1.63638,-0.146452
338.4,26.889,1.62479,-0.14623
339,26.9475,1.62553,-0.147436
339.6,27.0044,1.62167,-0.14755
340.2,27.0622,1.62013,-0.14755
340.8,27.1198,1.61368,-0.148179
341.4,27.1772,1.62275,-0.148866
342,27.2356,1.61559,-0.150229
342.6,27.2936,1.62304,-0.15118
343.2,27.3512,1.61028,-0.152539
343.8,27.4094,1.62534,-0.152487
344.4,27.464,1.60584,-0.153815
345,27.5254,1.60759,-0.152491
345.6,27.5831,1.60362,-0.152447
346.2,27.6405,1.60247,-0.15513
346.8,27.6981,1.60741,-0.155616
347.4,27.7558,1.60815,-0.155129
348,27.8148,1.6026,-0.156447
348.6,27.8725,1.60028,-0.157758
349.2,27.93,1.59812,-0.15776
349.8,27.9879,1.60706,-0.157711
350.4,28.0422,1.5922,-0.160046
351,28.1034,1.58843,-0.160071
351.6,28.1615,1.59128,-0.161395
352.2,28.2187,1.59038,-0.162713
352.8,28.275,1.59476,-0.162702
353.4,28.3344,1.5955,-0.164024
354,28.392,1.58932,-0.165005
354.6,28.4496,1.5768,-0.165343
355.2,28.5084,1.57967,-0.16534
355.8,28.5654,1.58167,-0.16534
356.4,28.6241,1.58108,-0.166744
357,28.6825,1.58211,-0.168082
357.6,28.7394,1.58684,-0.167967
358.2,28.7976,1.56846,-0.16929
358.8,28.8556,1.57101,-0.169287
359.4,28.913,1.58071,-0.170608
360,28.9712,1.57547,-0.170616
360.6,29.0295,1.56123,-0.17192
361.2,29.0879,1.56108,-0.173249
361.8,29.1454,1.56327,-0.17357
362.4,29.2041,1.55204,-0.1749
363,29.2618,1.55763,-0.175884
363.6,29.3202,1.55795,-0.176878
364.2,29.3786,1.55823,-0.177496
364.8,29.4367,1.55396,-0.17862
365.4,29.4945,1.55283,-0.17884
366,29.5518,1.56229,-0.178845
366.6,29.6113,1.55228,-0.180161
367.2,29.6694,1.55127,-0.182798
367.8,29.7272,1.55676,-0.182799
368.4,29.7862,1.54578,-0.182781
369,29.8437,1.53996,-0.184107
369.6,29.9016,1.54419,-0.184095
370.2,29.9598,1.5439,-0.185431
370.8,30.017,1.54478,-0.186576
371.4,30.0766,1.54042,-0.1874
372,30.1349,1.53349,-0.188718
372.6,30.1929,1.53861,-0.189884
373.2,30.2519,1.53875,-0.19004
373.8,30.3104,1.54304,-0.190034
374.4,30.3674,1.53311,-0.190027
375,30.4257,1.53578,-0.192532
375.6,30.4852,1.53181,-0.193129
376.2,30.5435,1.53791,-0.19399
376.8,30.6006,1.53743,-0.194691
377.4,30.6573,1.53944,-0.195286
378,30.7172,1.53882,-0.196629
378.6,30.7752,1.52144,-0.198043
379.2,30.8335,1.52641,-0.198047
379.8,30.8921,1.52509,-0.19827
380.4,30.9494,1.52047,-0.199336
381,31.0092,1.5303,-0.199882
381.6,31.0666,1.53377,-0.201232
382.2,31.1248,1.53029,-0.202548
382.8,31.1841,1.53636,-0.205294
383.4,31.2415,1.52871,-0.205831
384,31.3001,1.5419,-0.205718
384.6,31.3588,1.53507,-0.205746
385.2,31.4172,1.52573,-0.205654
385.8,31.473,1.53203,-0.207025
386.4,31.5342,1.52486,-0.207069
387,31.5927,1.53058,-0.208371
387.6,31.6522,1.52652,-0.210613
388.2,31.7097,1.52812,-0.212109
388.8,31.7665,1.53129,-0.21211
389.4,31.8266,1.52805,-0.212226
390,31.8857,1.52158,-0.214809
390.6,31.9439,1.53222,-0.216057
391.2,32.0026,1.53376,-0.216073
391.8,32.0619,1.5243,-0.217375
392.4,32.1194,1.52705,-0.218701
393,32.1776,1.52496,-0.220341
393.6,32.2364,1.53548,-0.22034
394.2,32.2955,1.52754,-0.22133
394.8,32.3536,1.53776,-0.221329
395.4,32.4113,1.53809,-0.221987
396,32.4681,1.53473,-0.224376
396.6,32.5296,1.54305,-0.225721
397.2,32.5869,1.54174,-0.227044
397.8,32.6454,1.54143,-0.22704
398.4,32.705,1.54168,-0.228617
399,32.7632,1.55163,-0.229784
399.6,32.8227,1.5462,-0.229775
400.2,32.8801,1.54448,-0.2311
400.8,32.9387,1.53773,-0.231962
401.4,32.9973,1.54692,-0.233135
402,33.0562,1.55138,-0.235154
402.6,33.1147,1.54436,-0.235056
403.2,33.1729,1.55156,-0.235711
403.8,33.2323,1.55794,-0.236553
404.4,33.2913,1.54957,-0.237103
405,33.3491,1.5621,-0.239589
405.6,33.4083,1.55943,-0.240479
406.2,33.4673,1.56737,-0.240977
406.8,33.525,1.56381,-0.242283
407.4,33.583,1.57181,-0.24358
408,33.6425,1.5647,-0.244464
408.6,33.7012,1.57246,-0.244976
409.2,33.759,1.56446,-0.246249
409.8,33.8181,1.57398,-0.247595
410.4,33.8773,1.56985,-0.247545
411,33.9352,1.57704,-0.24756
411.6,33.9945,1.57649,-0.246162
412.2,34.053,1.58528,-0.249446
412.8,34.1115,1.58042,-0.252317
413.4,34.1689,1.57922,-0.252753
414,34.2273,1.58261,-0.254264
414.6,34.2865,1.58495,-0.255588
415.2,34.3457,1.59068,-0.256684
415.8,34.4035,1.59444,-0.257835
416.4,34.4628,1.60275,-0.259547
417,34.5205,1.59219,-0.259527
417.6,34.5802,1.60427,-0.260849
418.2,34.639,1.60303,-0.262145
418.8,34.6946,1.60382,-0.263479
419.4,34.7561,1.59995,-0.263495
420,34.8149,1.6032,-0.264816
420.6,34.8731,1.61367,-0.266097
421.2,34.932,1.6098,-0.268092
421.8,34.9899,1.61741,-0.26941
422.4,35.0496,1.62052,-0.268776
423,35.1083,1.62349,-0.269758
423.6,35.1666,1.62109,-0.271285
424.2,35.2251,1.6257,-0.27373
424.8,35.2835,1.63065,-0.27397
425.4,35.3431,1.6287,-0.275116
426,35.4012,1.62957,-0.276435
426.6,35.4612,1.63071,-0.277759
427.2,35.5197,1.64373,-0.279055
427.8,35.5785,1.63845,-0.280429
428.4,35.6353,1.64392,-0.281505
429,35.6948,1.64067,-0.283097
429.6,35.7523,1.64605,-0.283133
430.2,35.8134,1.6493,-0.285858
430.8,35.872,1.64801,-0.285765
431.4,35.932,1.64592,-0.2871
432,35.9907,1.64785,-0.288431
432.6,36.0492,1.65806,-0.291025
433.2,36.1078,1.66263,-0.292352
433.8,36.1666,1.65909,-0.293678
434.4,36.2264,1.65784,-0.294984
435,36.2856,1.66371,-0.295298
435.6,36.3439,1.66325,-0.296649
436.2,36.404,1.6732,-0.297933
436.8,36.4631,1.67459,-0.299507
437.4,36.5212,1.66937,-0.300678
438,36.5808,1.67484,-0.302134
438.6,36.6398,1.68004,-0.30345
439.2,36.6983,1.68495,-0.304752
439.8,36.7579,1.68082,-0.3061
440.4,36.8166,1.69164,-0.307367
441,36.8759,1.69027,-0.307716
441.6,36.9357,1.6874,-0.308664
442.2,36.9937,1.68968,-0.309679
442.8,37.0538,1.69066,-0.310653
443.4,37.1122,1.69906,-0.312834
444,37.1714,1.69801,-0.314804
444.6,37.2305,1.70447,-0.316071
445.2,37.2895,1.71105,-0.317345
445.8,37.3487,1.70929,-0.317984
446.4,37.4085,1.70704,-0.318875
447,37.4671,1.70904,-0.320912
447.6,37.5263,1.71358,-0.323436
448.2,37.5856,1.72201,-0.324748
448.8,37.6435,1.71453,-0.325531
449.4,37.7032,1.71744,-0.326075
450,37.7616,1.72287,-0.327561
450.6,37.8206,1.73053,-0.328796
451.2,37.8795,1.718,-0.330101
451.8,37.9383,1.72595,-0.331443
452.4,37.9976,1.74174,-0.332756
453,38.0555,1.73028,-0.333655
453.6,38.1142,1.74128,-0.33539
454.2,38.1731,1.74611,-0.336353
454.8,38.2331,1.73183,-0.338222
455.4,38.2919,1.74389,-0.338932
456,38.3505,1.74657,-0.340791
456.6,38.4084,1.75165,-0.340674
457.2,38.4681,1.75085,-0.34275
457.8,38.5271,1.74603,-0.344127
458.4,38.5874,1.75157,-0.345477
459,38.6454,1.74886,-0.346795
459.6,38.7043,1.74971,-0.348178
460.2,38.763,1.74966,-0.34878
460.8,38.8229,1.75367,-0.349751
461.4,38.8815,1.76278,-0.351091
462,38.9387,1.74857,-0.352411
462.6,38.9997,1.75343,-0.353725
463.2,39.0592,1.75295,-0.355041
463.8,39.1174,1.75766,-0.355037
464.4,39.1775,1.74652,-0.35631
465,39.2356,1.75673,-0.357669
465.6,39.2948,1.7531,-0.358802
466.2,39.3538,1.74063,-0.360628
466.8,39.4139,1.74242,-0.361918
467.4,39.4721,1.75168,-0.363245
468,39.5319,1.7535,-0.364943
468.6,39.5906,1.75403,-0.36558
469.2,39.6493,1.74073,-0.366906
469.8,39.7085,1.74578,-0.368205
470.4,39.7675,1.74207,-0.369522
471,39.8267,1.73973,-0.370859
471.6,39.886,1.73596,-0.372353
472.2,39.9451,1.73202,-0.373725
472.8,40.0036,1.73206,-0.373696
473.4,40.0623,1.72452,-0.37495
474,40.1213,1.71579,-0.377761
474.6,40.1816,1.71295,-0.378448
475.2,40.2399,1.70738,-0.37908
475.8,40.2991,1.70645,-0.380401
476.4,40.3592,1.7024,-0.380982
477,40.4188,1.70439,-0.382267
477.6,40.4781,1.69432,-0.38438
478.2,40.5364,1.69845,-0.385786
478.8,40.5953,1.69436,-0.387109
479.4,40.6552,1.68411,-0.388411
480,40.7142,1.67975,-0.389407
480.6,40.7737,1.6693,-0.391032
481.2,40.8324,1.67762,-0.392374
481.8,40.8919,1.66235,-0.392371
482.4,40.9516,1.6561,-0.393686
483,41.0104,1.66218,-0.395008
483.6,41.07,1.65489,-0.395001
484.2,41.1284,1.64738,-0.394989
484.8,41.1883,1.64395,-0.397638
485.4,41.2467,1.6344,-0.39779
486,41.3059,1.63309,-0.398963
486.6,41.3659,1.62635,-0.400285
487.2,41.4257,1.6189,-0.401593
487.8,41.4846,1.62875,-0.40282
488.4,41.5425,1.61527,-0.403477
489,41.6035,1.61097,-0.404927
489.6,41.6623,1.60327,-0.405298
490.2,41.7221,1.60208,-0.405204
490.8,41.7799,1.58927,-0.406529
491.4,41.8411,1.58777,-0.40784
492,41.8996,1.5793,-0.409123
492.6,41.9589,1.57955,-0.407818
493.2,42.0183,1.5793,-0.410168
493.8,42.078,1.58127,-0.410333
494.4,42.1377,1.56977,-0.412759
495,42.1974,1.57136,-0.413479
495.6,42.2551,1.56604,-0.414096
496.2,42.3155,1.55654,-0.415411
496.8,42.3751,1.55445,-0.415442
497.4,42.4349,1.54969,-0.41581
498,42.4935,1.54604,-0.41707
498.6,42.5535,1.54629,-0.418714
499.2,42.6123,1.54169,-0.419697
499.8,42.672,1.54018,-0.421018
500.4,42.732,1.54282,-0.421029
501,42.7923,1.54083,-0.421044
501.6,42.8513,1.54669,-0.422339
502.2,42.9109,1.5473,-0.423659
502.8,42.9687,1.54079,-0.423661
503.4,43.0284,1.54634,-0.424983
504,43.0883,1.55421,-0.425804
504.6,43.1481,1.55986,-0.426297
505.2,43.2074,1.5561,-0.428724
505.8,43.2674,1.55838,-0.42991
506.4,43.3265,1.56924,-0.42991
507,43.387,1.56907,-0.431212
507.6,43.4441,1.56636,-0.431296
508.2,43.5058,1.57219,-0.433167
508.8,43.5652,1.56451,-0.433994
509.4,43.6241,1.56651,-0.435304
510,43.6836,1.57791,-0.435265
510.6,43.743,1.58024,-0.436609
511.2,43.8026,1.59314,-0.436752
511.8,43.8633,1.59341,-0.440153
512.4,43.9224,1.59293,-0.439349
513,43.9825,1.59762,-0.440583
513.6,44.0411,1.59129,-0.442216
514.2,44.1015,1.60623,-0.443854
514.8,44.1622,1.60659,-0.44431
515.4,44.2193,1.6079,-0.445157
516,44.2805,1.61123,-0.447831
516.6,44.3399,1.62412,-0.450094
517.2,44.4,1.61891,-0.450288
517.8,44.4595,1.63495,-0.450448
518.4,44.5186,1.6383,-0.45176
519,44.579,1.64516,-0.45233
519.6,44.6399,1.6495,-0.453524
520.2,44.6989,1.65329,-0.454857
520.8,44.7584,1.66153,-0.456979
521.4,44.818,1.65932,-0.459623
522,44.8773,1.67393,-0.461106
522.6,44.938,1.69046,-0.462327
523.2,44.9983,1.69078,-0.464527
523.8,45.0579,1.69084,-0.466385
524.4,45.1176,1.71415,-0.468133
525,45.1766,1.73003,-0.47044
525.6,45.2369,1.74286,-0.471763
526.2,45.2959,1.75331,-0.473042
526.8,45.3551,1.76363,-0.473942
527.4,45.4167,1.76675,-0.476801
528,45.4759,1.786,-0.479191
528.6,45.5357,1.79471,-0.480277
529.2,45.5958,1.80636,-0.48312
529.8,45.656,1.81149,-0.486153
530.4,45.7162,1.82387,-0.48755
531,45.775,1.85079,-0.489942
531.6,45.8357,1.86274,-0.493066
532.2,45.8948,1.88591,-0.495192
532.8,45.9553,1.90387,-0.498819
533.4,46.0155,1.92631,-0.502195
534,46.0757,1.94339,-0.502446
534.6,46.1347,1.96859,-0.50573
535.2,46.196,1.98919,-0.50868
535.8,46.2534,2.01509,-0.513068
536.4,46.3158,2.04597,-0.516348
537,46.3765,2.05646,-0.520352
537.6,46.4352,2.09011,-0.522103
538.2,46.4953,2.11911,-0.525044
538.8,46.5553,2.14658,-0.528551
539.4,46.615,2.17553,-0.534344
540,46.6734,2.20113,-0.53852
540.6,46.7348,2.23274,-0.541737
541.2,46.7933,2.25855,-0.545408
541.8,46.8543,2.30111,-0.550849
542.4,46.9156,2.33538,-0.555234
543,46.9746,2.36478,-0.55899
543.6,47.0338,2.39977,-0.562172
544.2,47.0956,2.43813,-0.566909
544.8,47.1549,2.47611,-0.573139
545.4,47.2153,2.50788,-0.577731
546,47.2756,2.54025,-0.58314
546.6,47.3349,2.59042,-0.588095
547.2,47.3957,2.61695,-0.594905
547.8,47.456,2.65336,-0.601771
548.4,47.5159,2.70233,-0.606762
549,47.5761,2.73766,-0.613965
549.6,47.6372,2.76696,-0.62139
550.2,47.6965,2.80837,-0.628058
550.8,47.7564,2.83789,-0.636947
551.4,47.817,2.87432,-0.642973
552,47.8768,2.90157,-0.651478
552.6,47.9384,2.93807,-0.65985
553.2,47.9974,2.9838,-0.669952
553.8,48.0584,3.00845,-0.679189
554.4,48.1184,3.04447,-0.687832
555,48.1788,3.08399,-0.69775
555.6,48.2381,3.12303,-0.706369
556.2,48.2988,3.14818,-0.716752
556.8,48.3594,3.1866,-0.727629
557.4,48.4192,3.22835,-0.739321
558,48.4796,3.25826,-0.75137
558.6,48.5397,3.30172,-0.761083
559.2,48.6004,3.34941,-0.774717
559.8,48.6588,3.38681,-0.788426
560.4,48.7209,3.43236,-0.802081
561,48.7818,3.47212,-0.816843
561.6,48.8415,3.52065,-0.831231
562.2,48.9024,3.5725,-0.846385
562.8,48.9625,3.63078,-0.862517
563.4,49.0238,3.69091,-0.875971
564,49.0847,3.74558,-0.892901
564.6,49.1452,3.80764,-0.910025
565.2,49.2056,3.87811,-0.929708
565.8,49.2666,3.93504,-0.94867
566.4,49.3273,4.01035,-0.967365
567,49.3879,4.07796,-0.98605
567.6,49.4496,4.15891,-1.00794
568.2,49.5108,4.22418,-1.02947
568.8,49.5714,4.29496,-1.05235
569.4,49.6323,4.3683,-1.07379
570,49.6926,4.4477,-1.09816
570.6,49.7541,4.5166,-1.12107
571.2,49.8151,4.5828,-1.1474
571.8,49.8762,4.64488,-1.17199
572.4,49.9369,4.70205,-1.19647
573,49.9977,4.76284,-1.22354
573.6,50.0583,4.80534,-1.25137
574.2,50.1185,4.84083,-1.27681
574.8,50.1801,4.87199,-1.3062
575.4,50.2398,4.89121,-1.3348
576,50.3017,4.89169,-1.36501
576.6,50.361,4.88561,-1.39156
577.2,50.421,4.85812,-1.41945
577.8,50.4811,4.81331,-1.45091
578.4,50.5397,4.75246,-1.47921
579,50.5994,4.66137,-1.50604
579.6,50.6594,4.55376,-1.53471
580.2,50.7171,4.42909,-1.56043
580.8,50.7759,4.28339,-1.58691
581.4,50.8348,4.09597,-1.61104
582,50.8923,3.89327,-1.63481
582.6,50.9496,3.66824,-1.656
583.2,51.0074,3.41986,-1.6776
583.8,51.0646,3.13626,-1.69501
584.4,51.1194,2.86038,-1.71131
585,51.1779,2.55723,-1.72631
585.6,51.2344,2.27438,-1.73916
586.2,51.2915,2.01371,-1.75029
586.8,51.3487,1.79001,-1.75846
587.4,51.4071,1.59826,-1.76483
588,51.4653,1.43565,-1.77156
588.6,51.5241,1.30978,-1.77627
589.2,51.5831,1.21232,-1.7807
589.8,51.6416,1.14395,-1.78415
590.4,51.701,1.08779,-1.78907
591,51.7601,1.02911,-1.79439
591.6,51.8189,1.01192,-1.79528
592.2,51.8798,0.973491,-1.79804
592.8,51.9386,0.958198,-1.80138
593.4,51.9989,0.936227,-1.8041
594,52.0585,0.912956,-1.80569
594.6,52.1194,0.902283,-1.80884
595.2,52.1785,0.884476,-1.81136
595.8,52.239,0.887647,-1.81274
596.4,52.2986,0.861749,-1.81559
597,52.3591,0.857256,-1.81721
597.6,52.4191,0.857268,-1.81955
598.2,52.4789,0.856562,-1.82088
598.8,52.5383,0.859152,-1.82197
599.4,52.5959,0.860982,-1.82328
600,52.6589,0.85681,-1.8246
600.6,52.7187,0.859183,-1.82592
601.2,52.7773,0.856877,-1.82795
601.8,52.8394,0.852785,-1.82998
602.4,52.8997,0.85603,-1.8313
603,52.9598,0.856651,-1.83262
603.6,53.018,0.865393,-1.83393
604.2,53.0804,0.868509,-1.83525
604.8,53.1404,0.872819,-1.83667
605.4,53.2001,0.875586,-1.838
606,53.2605,0.878748,-1.83931
606.6,53.3204,0.885999,-1.84063
607.2,53.3803,0.884039,-1.84195
607.8,53.441,0.895911,-1.8433
608.4,53.501,0.895969,-1.84524
609,53.5612,0.899239,-1.84649
609.6,53.6212,0.898553,-1.84594
610.2,53.6816,0.905268,-1.84728
610.8,53.7421,0.903935,-1.84936
611.4,53.8012,0.907545,-1.85126
612,53.8622,0.916045,-1.85145
612.6,53.9229,0.915354,-1.85282
613.2,53.9827,0.922668,-1.85425
613.8,54.0436,0.929943,-1.85554
614.4,54.103,0.931088,-1.85679
615,54.1637,0.945677,-1.85787
615.6,54.2244,0.940317,-1.85907
616.2,54.2841,0.944793,-1.85918
616.8,54.3442,0.954199,-1.86047
617.4,54.4052,0.954194,-1.86179
618,54.4656,0.943904,-1.86312
618.6,54.5272,0.966063,-1.86445
619.2,54.5858,0.96922,-1.86556
619.8,54.646,0.969445,-1.86577
620.4,54.7068,0.969875,-1.86617
621,54.7669,0.975126,-1.86852
621.6,54.8277,0.986599,-1.86983
622.2,54.8888,0.986553,-1.86978
622.8,54.9488,0.985461,-1.87147
623.4,55.0091,0.997745,-1.87116
624,55.0701,0.998518,-1.87246
624.6,55.1294,1.01721,-1.87247
625.2,55.1912,1.01416,-1.87378
625.8,55.2506,1.02688,-1.8751
626.4,55.3113,1.02722,-1.87586
627,55.372,1.02205,-1.87752
627.6,55.433,1.03969,-1.87892
628.2,55.4934,1.04308,-1.87918
628.8,55.5536,1.04394,-1.88037
629.4,55.6132,1.0446,-1.88169
630,55.6739,1.04871,-1.883
630.6,55.7335,1.05806,-1.88399
631.2,55.7951,1.06352,-1.88538
631.8,55.8552,1.06133,-1.88525
632.4,55.9157,1.07151,-1.8856
633,55.9758,1.08203,-1.88584
633.6,56.0356,1.08177,-1.88753
634.2,56.0961,1.08929,-1.88924
634.8,56.1566,1.08827,-1.89066
635.4,56.2161,1.09784,-1.8905
636,56.2772,1.1038,-1.8918
636.6,56.3375,1.10817,-1.89207
637.2,56.3974,1.11169,-1.89454
637.8,56.4559,1.11493,-1.89585
638.4,56.5188,1.13279,-1.89585
639,56.5782,1.13454,-1.8962
639.6,56.6393,1.13565,-1.89584
640.2,56.6993,1.13486,-1.89716
640.8,56.7593,1.13683,-1.89808
641.4,56.8203,1.1466,-1.89848
642,56.8806,1.15929,-1.8999
642.6,56.9416,1.15697,-1.90122
643.2,57.0004,1.15982,-1.90122
643.8,57.0607,1.16213,-1.90254
644.4,57.1213,1.17751,-1.90319
645,57.1818,1.18246,-1.90255
645.6,57.2424,1.18718,-1.90262
646.2,57.3029,1.20058,-1.90689
646.8,57.363,1.19474,-1.90846
647.4,57.423,1.2002,-1.90849
648,57.4835,1.20709,-1.90849
648.6,57.5434,1.20837,-1.91078
649.2,57.6043,1.21817,-1.91114
649.8,57.6643,1.23213,-1.9121
650.4,57.7242,1.23763,-1.91215
651,57.7849,1.24246,-1.91205
651.6,57.8454,1.24897,-1.91337
652.2,57.9058,1.24859,-1.9134
652.8,57.9666,1.25969,-1.9146
653.4,58.0266,1.26474,-1.91557
654,58.0863,1.27102,-1.9165
654.6,58.1469,1.27816,-1.91694
655.2,58.2076,1.28225,-1.91887
655.8,58.2681,1.29348,-1.91994
656.4,58.3286,1.30223,-1.92077
657,58.388,1.29791,-1.9208
657.6,58.4496,1.3084,-1.92304
658.2,58.5103,1.31478,-1.92342
658.8,58.571,1.31275,-1.92472
659.4,58.632,1.32794,-1.92599
660,58.6919,1.32736,-1.9271
660.6,58.7529,1.33316,-1.92835
661.2,58.8135,1.34393,-1.92768
661.8,58.874,1.34339,-1.92853
662.4,58.9342,1.35346,-1.93045
663,58.9954,1.35646,-1.93128
663.6,59.0555,1.35738,-1.93131
664.2,59.1156,1.35912,-1.93261
664.8,59.1766,1.37389,-1.93394
665.4,59.2365,1.37821,-1.93394
666,59.2977,1.37918,-1.93537
666.6,59.3577,1.39358,-1.93659
667.2,59.4191,1.38799,-1.93727
667.8,59.4787,1.3934,-1.938
668.4,59.539,1.38633,-1.93933
669,59.6,1.39648,-1.94064
669.6,59.6608,1.40252,-1.94196
670.2,59.7217,1.40999,-1.94207
670.8,59.7827,1.41592,-1.94326
671.4,59.8426,1.41832,-1.94468
672,59.9034,1.42996,-1.94591
672.6,59.9631,1.4248,-1.94721
673.2,60.0216,1.4343,-1.94854
673.8,60.084,1.43934,-1.94986
674.4,60.1448,1.44623,-1.94986
675,60.2037,1.44577,-1.95095
675.6,60.2653,1.44576,-1.95055
676.2,60.3259,1.44679,-1.95118
676.8,60.3855,1.45009,-1.95255
677.4,60.4462,1.45435,-1.95391
678,60.5064,1.45791,-1.95536
678.6,60.5661,1.46737,-1.95666
679.2,60.6265,1.46312,-1.95665
679.8,60.6882,1.46841,-1.95798
680.4,60.7475,1.46978,-1.95896
681,60.8084,1.46553,-1.96371
681.6,60.8678,1.47202,-1.9636
682.2,60.9289,1.47077,-1.9598
682.8,60.9889,1.47502,-1.96193
683.4,61.0496,1.47921,-1.96194
684,61.1098,1.48014,-1.96324
684.6,61.1702,1.48202,-1.96326
685.2,61.2302,1.4709,-1.96457
685.8,61.2909,1.47661,-1.96588
686.4,61.3519,1.46382,-1.96721
687,61.4111,1.45713,-1.96853
687.6,61.472,1.46505,-1.96853
688.2,61.5327,1.46328,-1.96985
688.8,61.592,1.46691,-1.97115
689.4,61.6527,1.46005,-1.97227
690,61.7131,1.46157,-1.97747
690.6,61.7741,1.46497,-1.97623
691.2,61.8332,1.46847,-1.97613
691.8,61.8946,1.46567,-1.97733
692.4,61.9529,1.46153,-1.97855
693,62.0153,1.46603,-1.97862
693.6,62.0753,1.47157,-1.97855
694.2,62.1363,1.46264,-1.97872
694.8,62.1944,1.46161,-1.98174
695.4,62.2573,1.46238,-1.98258
696,62.3183,1.46243,-1.98258
696.6,62.3788,1.45514,-1.98777
697.2,62.44,1.45817,-1.99033
697.8,62.4998,1.45004,-1.98681
698.4,62.5612,1.45795,-1.98723
699,62.6216,1.44858,-1.98741
699.6,62.6804,1.44219,-1.98883
700.2,62.7426,1.43797,-1.9897
700.8,62.8037,1.43389,-1.99268
701.4,62.8639,1.43322,-1.99298
702,62.9243,1.44014,-1.9941
702.6,62.9856,1.43435,-1.99542
703.2,63.0453,1.43409,-1.99734
703.8,63.1069,1.44037,-1.99717
704.4,63.1652,1.42737,-1.99849
705,63.2261,1.42622,-1.99978
705.6,63.2887,1.42196,-1.99982
706.2,63.3482,1.41393,-2.00113
706.8,63.4097,1.41171,-2.00244
707.4,63.4694,1.41657,-2.00371
708,63.53,1.40866,-2.00474
708.6,63.5906,1.4063,-2.00481
709.2,63.6518,1.40213,-2.00556
709.8,63.7119,1.40201,-2.00607
710.4,63.7729,1.39129,-2.0074
711,63.8335,1.38642,-2.00886
711.6,63.8935,1.38213,-2.0103
712.2,63.954,1.37834,-2.01099
712.8,64.0148,1.36802,-2.01234
713.4,64.0745,1.36968,-2.01364
714,64.1355,1.35877,-2.01497
714.6,64.1974,1.36728,-2.01496
715.2,64.2572,1.35379,-2.01497
715.8,64.3175,1.34155,-2.01618
716.4,64.3788,1.34005,-2.01779
717,64.4388,1.33045,-2.02029
717.6,64.4994,1.3252,-2.02166
718.2,64.56,1.31821,-2.02208
718.8,64.6193,1.31253,-2.02199
719.4,64.6783,1.30519,-2.02324
720,64.742,1.29593,-2.02435
720.6,64.8013,1.30141,-2.0243
721.2,64.8616,1.28441,-2.02561
721.8,64.923,1.27987,-2.02627
722.4,64.9828,1.26341,-2.02763
723,65.0436,1.26644,-2.02854
723.6,65.1033,1.25503,-2.02888
724.2,65.1614,1.24194,-2.03022
724.8,65.2241,1.23513,-2.03165
725.4,65.2841,1.2273,-2.03158
726,65.3454,1.21505,-2.03286
726.6,65.4059,1.2045,-2.03285
727.2,65.4658,1.19108,-2.03423
727.8,65.5273,1.18884,-2.03489
728.4,65.5878,1.17479,-2.03483
729,65.6485,1.15909,-2.03618
729.6,65.7093,1.15623,-2.03775
730.2,65.7699,1.14799,-2.03879
730.8,65.83,1.1491,-2.03746
731.4,65.8918,1.13261,-2.04024
732,65.9518,1.12142,-2.04253
732.6,66.0127,1.11277,-2.04361
733.2,66.0734,1.10506,-2.04406
733.8,66.1345,1.10377,-2.04537
734.4,66.1947,1.08636,-2.04662
735,66.2543,1.07332,-2.04669
735.6,66.3165,1.07478,-2.04666
736.2,66.3764,1.05533,-2.04669
736.8,66.4373,1.04656,-2.04934
737.4,66.4984,1.03882,-2.04957
738,66.5589,1.04269,-2.04932
738.6,66.62,1.03473,-2.05064
739.2,66.6797,1.02214,-2.05168
739.8,66.7416,1.01502,-2.05063
740.4,66.8018,0.999776,-2.05197
741,66.8599,1.00291,-2.05261
741.6,66.9234,0.984857,-2.0546
742.2,66.9838,0.978576,-2.05591
742.8,67.0451,0.968192,-2.05719
743.4,67.1052,0.961893,-2.05617
744,67.1672,0.958673,-2.05756
744.6,67.226,0.952022,-2.05887
745.2,67.2888,0.945771,-2.06019
745.8,67.35,0.936838,-2.0615
746.4,67.4112,0.930208,-2.06289
747,67.472,0.912817,-2.06298
747.6,67.5331,0.902852,-2.06251
748.2,67.5945,0.89161,-2.06278
748.8,67.6552,0.896574,-2.06283
749.4,67.7165,0.884685,-2.06547
750,67.7768,0.871623,-2.0649
750.6,67.8383,0.877332,-2.06448
751.2,67.8987,0.86891,-2.06548
751.8,67.9592,0.858863,-2.06686
752.4,68.0206,0.859447,-2.06821
753,68.0816,0.838381,-2.06821
753.6,68.1423,0.845615,-2.06921
754.2,68.2042,0.837399,-2.06921
754.8,68.265,0.832248,-2.06819
755.4,68.325,0.827674,-2.06953
756,68.386,0.812116,-2.07085
756.6,68.4486,0.808839,-2.07216
757.2,68.5084,0.794035,-2.07216
757.8,68.57,0.800271,-2.07348
758.4,68.6306,0.785572,-2.07348
759,68.6913,0.782628,-2.07503
759.6,68.752,0.785468,-2.0797
760.2,68.8113,0.772163,-2.07642
760.8,68.8733,0.770778,-2.07512
761.4,68.9357,0.762067,-2.07604
762,68.9967,0.756768,-2.07775
762.6,69.0578,0.758045,-2.07895
763.2,69.1187,0.752051,-2.07774
763.8,69.1804,0.745282,-2.0788
764.4,69.2393,0.742951,-2.08103
765,69.3009,0.733637,-2.08105
765.6,69.3642,0.733272,-2.08105
766.2,69.4249,0.723472,-2.08238
766.8,69.4862,0.727853,-2.08236
767.4,69.5462,0.716129,-2.08369
768,69.6098,0.711029,-2.08509
768.6,69.6695,0.712519,-2.08501
769.2,69.7307,0.706638,-2.08632
769.8,69.7922,0.695916,-2.08632
770.4,69.853,0.694819,-2.08699
771,69.9142,0.691103,-2.0869
771.6,69.9753,0.690199,-2.0883
772.2,70.0347,0.688417,-2.08866
772.8,70.0968,0.690236,-2.08896
773.4,70.1588,0.692046,-2.08763
774,70.2199,0.681241,-2.08895
774.6,70.2809,0.67775,-2.08895
775.2,70.3398,0.682914,-2.09122
775.8,70.4023,0.680026,-2.09126
776.4,70.4646,0.682136,-2.09126
777,70.5259,0.673559,-2.09257
777.6,70.5864,0.661118,-2.09391
778.2,70.6479,0.66538,-2.0939
778.8,70.7082,0.658012,-2.09411
779.4,70.7701,0.655671,-2.09481
780,70.8313,0.651949,-2.0939
780.6,70.8922,0.65566,-2.09399
781.2,70.9533,0.642971,-2.09522
781.8,71.0147,0.63732,-2.09655
782.4,71.0756,0.63863,-2.09654
783,71.1366,0.631381,-2.09783
783.6,71.1979,0.639517,-2.09786
784.2,71.2587,0.636506,-2.09764
784.8,71.3214,0.636878,-2.09797
785.4,71.3826,0.641649,-2.09965
786,71.4434,0.632555,-2.09979
786.6,71.5058,0.625645,-2.10115
787.2,71.5669,0.637993,-2.10115
787.8,71.6279,0.639278,-2.10246
788.4,71.6891,0.6399,-2.10246
789,71.75,0.641715,-2.10246
789.6,71.8117,0.646244,-2.10343
790.2,71.8735,0.66143,-2.10345
790.8,71.9351,0.656572,-2.10345
791.4,71.9961,0.65781,-2.10346
792,72.0576,0.660725,-2.10345
792.6,72.1185,0.673256,-2.10339
793.2,72.1806,0.660308,-2.10477
793.8,72.2408,0.667729,-2.10477
794.4,72.3035,0.655,-2.1048
795,72.3644,0.656541,-2.1096
795.6,72.4259,0.657703,-2.10728
796.2,72.4869,0.668666,-2.10587
796.8,72.5485,0.662178,-2.10714
797.4,72.6092,0.667044,-2.10976
798,72.6713,0.677444,-2.10649
798.6,72.7322,0.672916,-2.10725
799.2,72.794,0.665041,-2.108
799.8,72.8557,0.672563,-2.10806
800.4,72.9161,0.680548,-2.10938
801,72.9784,0.680008,-2.10937
801.6,73.037,0.679138,-2.10937
802.2,73.1003,0.680926,-2.10971
802.8,73.1617,0.684761,-2.11168
803.4,73.2232,0.682054,-2.1126
804,73.2845,0.685789,-2.113
804.6,73.3457,0.6771,-2.113
805.2,73.4075,0.67926,-2.11433
805.8,73.4683,0.685256,-2.11432
806.4,73.53,0.682858,-2.11432
807,73.5902,0.675628,-2.11551
807.6,73.653,0.690132,-2.11747
808.2,73.7154,0.678423,-2.11564
808.8,73.7773,0.689272,-2.11564
809.4,73.8391,0.684667,-2.11564
810,73.9003,0.703147,-2.11399
810.6,73.9627,0.704029,-2.11537
811.2,74.0241,0.696802,-2.11531
811.8,74.0851,0.705253,-2.1166
812.4,74.1478,0.716551,-2.11662
813,74.2094,0.730134,-2.11821
813.6,74.2709,0.721147,-2.11926
814.2,74.3325,0.731179,-2.11832
814.8,74.3939,0.731242,-2.11737
815.4,74.4562,0.728643,-2.11887
816,74.5177,0.735095,-2.12157
816.6,74.5795,0.725071,-2.12157
817.2,74.6417,0.71733,-2.1209
817.8,74.7028,0.732057,-2.12231
818.4,74.7652,0.74055,-2.12222
819,74.8263,0.732422,-2.12222
819.6,74.889,0.735531,-2.12287
820.2,74.9504,0.733397,-2.12288
820.8,75.0127,0.746471,-2.12302
821.4,75.0741,0.744889,-2.12354
822,75.1368,0.743382,-2.12354
822.6,75.1974,0.748018,-2.12403
823.2,75.2596,0.747961,-2.1242
823.8,75.3193,0.744298,-2.12603
824.4,75.3824,0.750656,-2.12936
825,75.4452,0.74794,-2.12609
825.6,75.5061,0.751381,-2.1258
826.2,75.5682,0.750561,-2.12716
826.8,75.6297,0.750152,-2.12585
827.4,75.6914,0.753217,-2.12716
828,75.7539,0.753947,-2.12845
828.6,75.8147,0.749405,-2.12953
829.2,75.8774,0.743562,-2.1298
829.8,75.9392,0.749052,-2.13134
830.4,76.0005,0.747324,-2.12896
831,76.0615,0.754277,-2.12831
831.6,76.1238,0.753093,-2.12695
832.2,76.185,0.748277,-2.12695
832.8,76.2471,0.7482,-2.12932
833.4,76.3095,0.75982,-2.12957
834,76.3713,0.763273,-2.12957
834.6,76.4333,0.764459,-2.13091
835.2,76.4951,0.767173,-2.13152
835.8,76.5561,0.727544,-2.13221
836.4,76.617,0.733377,-2.13298
837,76.6791,0.73448,-2.13221
837.6,76.7423,0.74405,-2.13334
838.2,76.8043,0.744412,-2.13288
838.8,76.8667,0.745311,-2.13287
839.4,76.9295,0.740188,-2.13517
840,76.9908,0.748473,-2.13522