File: 01_Data/Turnout_Gear_Shell/STA/N2/10K_min/Turnout_Gear_Shell_STA_N2_10KData_240529_R1.csv
Temp./C,Time/min,DSC/(mW/mg),Mass loss/mg
60.0,0.0,0.801166,-0.0187754
60.6,0.0660674,0.813954,-0.0188342
61.2,0.134019,0.831149,-0.0200907
61.8,0.201049,0.855363,-0.0201228
62.4,0.268321,0.865987,-0.0200427
63,0.334666,0.876251,-0.020082
63.6,0.401617,0.897353,-0.0214379
64.2,0.467327,0.904743,-0.02141
64.8,0.529954,0.92139,-0.021364
65.4,0.594467,0.930573,-0.0214043
66,0.660423,0.948921,-0.0214264
66.6,0.724569,0.964205,-0.0227041
67.2,0.786072,0.971897,-0.0217227
67.8,0.851779,0.987913,-0.0227262
68.4,0.916678,1.00038,-0.0227319
69,0.980989,1.00734,-0.0227306
69.6,1.04431,1.01627,-0.0226612
70.2,1.10129,1.02834,-0.0240501
70.8,1.16997,1.04662,-0.0254039
71.4,1.23289,1.0523,-0.0250275
72,1.29703,1.06691,-0.0253708
72.6,1.36018,1.08948,-0.0247101
73.2,1.42304,1.09086,-0.0248504
73.8,1.4862,1.10626,-0.0260984
74.4,1.54815,1.12349,-0.0266891
75,1.61059,1.13719,-0.0279955
75.6,1.67148,1.14239,-0.0266752
76.2,1.73587,1.15905,-0.0279585
76.8,1.79821,1.16871,-0.028
77.4,1.85937,1.18498,-0.0280001
78,1.92114,1.19437,-0.02899
78.6,1.98198,1.20213,-0.0292689
79.2,2.04477,1.21252,-0.0306399
79.8,2.10563,1.21814,-0.0306382
80.4,2.16855,1.23914,-0.0319374
81,2.22876,1.24321,-0.03195
81.6,2.29084,1.25802,-0.03195
82.2,2.35061,1.2715,-0.03195
82.8,2.41318,1.28073,-0.0332757
83.4,2.47342,1.28717,-0.0332712
84,2.53333,1.29572,-0.0345905
84.6,2.59573,1.31021,-0.03459
85.2,2.65712,1.32035,-0.0345927
85.8,2.71639,1.33694,-0.0359156
86.4,2.77703,1.33801,-0.0359107
87,2.83701,1.3449,-0.0362161
87.6,2.89679,1.34815,-0.0368587
88.2,2.95692,1.35051,-0.0381904
88.8,3.01744,1.36273,-0.0398637
89.4,3.0771,1.37025,-0.0398765
90,3.13752,1.36316,-0.0408508
90.6,3.19706,1.37094,-0.04085
91.2,3.25661,1.38563,-0.0408548
91.8,3.31722,1.3822,-0.0411798
92.4,3.37658,1.38215,-0.04118
93,3.43553,1.39413,-0.0413911
93.6,3.49545,1.38924,-0.0438047
94.2,3.55528,1.38704,-0.0424978
94.8,3.61378,1.39223,-0.042523
95.4,3.67345,1.40213,-0.04381
96,3.73286,1.39807,-0.0437193
96.6,3.79118,1.3941,-0.046425
97.2,3.84946,1.39268,-0.0464265
97.8,3.90916,1.40164,-0.0467913
98.4,3.96787,1.39888,-0.0479934
99,4.02733,1.39122,-0.04798
99.6,4.08536,1.39845,-0.0479755
100.2,4.14381,1.39759,-0.04666
100.8,4.20401,1.39394,-0.0437102
101.4,4.26147,1.39522,-0.0436344
102,4.32042,1.39101,-0.0449941
102.6,4.37907,1.38886,-0.0476511
103.2,4.43679,1.38939,-0.0490463
103.8,4.49585,1.3809,-0.0512829
104.4,4.55287,1.38212,-0.0525799
105,4.61304,1.38495,-0.0521701
105.6,4.66972,1.37823,-0.0512878
106.2,4.72829,1.37902,-0.053916
106.8,4.78677,1.37276,-0.0539098
107.4,4.8444,1.36528,-0.0547151
108,4.90248,1.36698,-0.0536418
108.6,4.96216,1.35795,-0.053898
109.2,5.01868,1.35563,-0.054047
109.8,5.07675,1.34794,-0.0565403
110.4,5.13605,1.34642,-0.0564752
111,5.19359,1.34565,-0.0578599
111.6,5.25205,1.34315,-0.0578596
112.2,5.30939,1.33777,-0.0589622
112.8,5.36499,1.33119,-0.0591801
113.4,5.42547,1.3235,-0.059177
114,5.48469,1.31969,-0.0604983
114.6,5.54225,1.31403,-0.0605
115.2,5.60052,1.31203,-0.0605
115.8,5.65879,1.30302,-0.0605
116.4,5.71621,1.30141,-0.0605001
117,5.77424,1.29175,-0.0607591
117.6,5.82986,1.29096,-0.06182
118.2,5.89035,1.28668,-0.0618204
118.8,5.94797,1.28554,-0.0631305
119.4,6.00505,1.27655,-0.0631418
120,6.06246,1.27641,-0.0644425
120.6,6.12174,1.26242,-0.0644403
121.2,6.1795,1.25068,-0.063735
121.8,6.23814,1.25036,-0.0637901
122.4,6.29442,1.2433,-0.0645125
123,6.35352,1.24367,-0.06511
123.6,6.41016,1.2373,-0.06511
124.2,6.46894,1.23285,-0.0651101
124.8,6.52685,1.22988,-0.0657502
125.4,6.58342,1.22569,-0.0660999
126,6.64248,1.2178,-0.0661
126.6,6.69947,1.21309,-0.0661
127.2,6.75752,1.21229,-0.0661
127.8,6.81319,1.20761,-0.0660567
128.4,6.8725,1.20348,-0.0663966
129,6.92951,1.19296,-0.0667678
129.6,6.98811,1.19193,-0.0680702
130.2,7.04581,1.18469,-0.06807
130.8,7.10333,1.18758,-0.0679869
131.4,7.16154,1.17494,-0.0693798
132,7.21917,1.17035,-0.06938
132.6,7.27555,1.16725,-0.06938
133.2,7.33437,1.15791,-0.069394
133.8,7.39097,1.15363,-0.0703712
134.4,7.44995,1.14747,-0.07037
135,7.50695,1.14592,-0.07037
135.6,7.56199,1.14006,-0.07037
136.2,7.62195,1.12891,-0.0703705
136.8,7.67941,1.12858,-0.0692962
137.4,7.73733,1.11786,-0.06939
138,7.79424,1.12377,-0.0693886
138.6,7.8517,1.1138,-0.0702208
139.2,7.9096,1.12012,-0.0710402
139.8,7.96763,1.10898,-0.07104
140.4,8.02526,1.10189,-0.0710304
141,8.08164,1.09626,-0.0691651
141.6,8.1393,1.09566,-0.0707573
142.2,8.19601,1.08469,-0.07262
142.8,8.25435,1.08705,-0.0726899
143.4,8.31137,1.0748,-0.0726899
144,8.36955,1.07733,-0.0725465
144.6,8.42668,1.06899,-0.07137
145.2,8.4827,1.06617,-0.0713701
145.8,8.54048,1.06481,-0.0728932
146.4,8.59884,1.05579,-0.0733399
147,8.65524,1.0601,-0.0733404
147.6,8.71233,1.05377,-0.0720965
148.2,8.76988,1.05252,-0.07202
148.8,8.82733,1.04328,-0.071961
149.4,8.88456,1.04458,-0.0733297
150,8.93921,1.03749,-0.0720211
150.6,8.99904,1.03526,-0.0720198
151.2,9.05575,1.03217,-0.0728349
151.8,9.11297,1.02325,-0.0731088
152.4,9.1688,1.03339,-0.0715772
153,9.2267,1.02841,-0.0688344
153.6,9.28359,1.02339,-0.0724389
154.2,9.34075,1.02076,-0.0723492
154.8,9.39723,1.02582,-0.0736736
155.4,9.45723,1.01134,-0.07367
156,9.51266,1.0131,-0.07367
156.6,9.57062,1.01053,-0.07367
157.2,9.62809,1.0107,-0.07367
157.8,9.68511,1.00392,-0.073704
158.4,9.74158,0.997763,-0.0723512
159,9.799,0.996781,-0.072356
159.6,9.85588,0.993574,-0.0736724
160.2,9.91236,0.991275,-0.07367
160.8,9.96967,1.00067,-0.07367
161.4,10.0265,0.993503,-0.07367
162,10.0845,0.990407,-0.07367
162.6,10.1411,0.989206,-0.07367
163.2,10.1986,0.984633,-0.07367
163.8,10.2556,0.982859,-0.0736755
164.4,10.3128,0.983334,-0.072364
165,10.37,0.978095,-0.0736738
165.6,10.4269,0.981328,-0.07367
166.2,10.4847,0.976359,-0.0736698
166.8,10.5411,0.980858,-0.0736672
167.4,10.5996,0.981588,-0.0721668
168,10.6558,0.978343,-0.0717757
168.6,10.7123,0.979283,-0.0731185
169.2,10.7697,0.976632,-0.0731196
169.8,10.8254,0.976791,-0.0744856
170.4,10.8839,0.978841,-0.0744407
171,10.9407,0.974314,-0.0733344
171.6,10.9978,0.972713,-0.0734529
172.2,11.0546,0.96843,-0.0744127
172.8,11.1113,0.972883,-0.07444
173.4,11.1679,0.970526,-0.07444
174,11.2259,0.96515,-0.07444
174.6,11.2805,0.966704,-0.0744957
175.2,11.3408,0.956343,-0.0743016
175.8,11.3966,0.965116,-0.0750995
176.4,11.4534,0.955454,-0.0737805
177,11.5121,0.959765,-0.0737408
177.6,11.5682,0.963953,-0.0755849
178.2,11.6253,0.965723,-0.0764208
178.8,11.6822,0.965763,-0.0751002
179.4,11.7401,0.966351,-0.076312
180,11.7962,0.968283,-0.0792936
180.6,11.8534,0.959938,-0.0779732
181.2,11.9097,0.961625,-0.0779477
181.8,11.9678,0.962505,-0.0779917
182.4,12.024,0.963189,-0.0766299
183,12.0815,0.964951,-0.0758905
183.6,12.1388,0.967948,-0.0753087
184.2,12.1957,0.965606,-0.07531
184.8,12.2529,0.965008,-0.0764648
185.4,12.3099,0.960401,-0.0766332
186,12.3666,0.964183,-0.075639
186.6,12.4231,0.958847,-0.0756399
187.2,12.4799,0.954898,-0.0742309
187.8,12.5375,0.96125,-0.074309
188.4,12.5936,0.961022,-0.0756407
189,12.6519,0.966066,-0.074552
189.6,12.7082,0.966269,-0.07466
190.2,12.763,0.965664,-0.0746567
190.8,12.8222,0.957827,-0.075954
191.4,12.8799,0.963169,-0.07597
192,12.9364,0.961334,-0.0759703
192.6,12.9941,0.961896,-0.07599
193.2,13.0494,0.966385,-0.07598
193.8,13.107,0.963726,-0.0759804
194.4,13.1639,0.964637,-0.0756486
195,13.2217,0.971288,-0.07565
195.6,13.2776,0.968405,-0.07565
196.2,13.3345,0.967311,-0.0745559
196.8,13.3901,0.967693,-0.0746596
197.4,13.4461,0.967299,-0.0758777
198,13.5059,0.968086,-0.0773
198.6,13.5632,0.972994,-0.0774113
199.2,13.6199,0.970884,-0.07598
199.8,13.6759,0.976971,-0.0759799
200.4,13.7339,0.973245,-0.0763382
201,13.7901,0.973079,-0.07631
201.6,13.8474,0.971168,-0.0763079
202.2,13.9046,0.970597,-0.0776221
202.8,13.9623,0.976447,-0.0776199
203.4,14.0184,0.975996,-0.0775826
204,14.0746,0.975388,-0.0762961
204.6,14.1322,0.974999,-0.0778444
205.2,14.1892,0.974717,-0.0770707
205.8,14.2469,0.965266,-0.07707
206.4,14.3023,0.971161,-0.07707
207,14.359,0.975263,-0.07707
207.6,14.4169,0.970415,-0.0770669
208.2,14.4748,0.969275,-0.078501
208.8,14.5318,0.969369,-0.0785
209.4,14.5866,0.968654,-0.0785
210,14.6453,0.970644,-0.0780074
210.6,14.7018,0.97033,-0.0770923
211.2,14.7568,0.97368,-0.0758595
211.8,14.8158,0.977998,-0.07586
212.4,14.8724,0.978599,-0.0758595
213,14.93,0.970218,-0.0770391
213.6,14.9881,0.972572,-0.07718
214.2,15.0438,0.975553,-0.07718
214.8,15.1008,0.976097,-0.0771747
215.4,15.1569,0.977358,-0.0786019
216,15.2153,0.976691,-0.0786852
216.6,15.2715,0.973735,-0.0786081
217.2,15.3294,0.980861,-0.0766317
217.8,15.3863,0.974698,-0.07663
218.4,15.4417,0.974999,-0.0766264
219,15.4983,0.980988,-0.0779357
219.6,15.5571,0.976007,-0.07795
220.2,15.6132,0.982295,-0.0779518
220.8,15.6719,0.98466,-0.0792767
221.4,15.7284,0.984753,-0.0792698
222,15.7848,0.98186,-0.0780673
222.6,15.842,0.988406,-0.0779601
223.2,15.8979,0.985233,-0.07796
223.8,15.9559,0.981591,-0.0778965
224.4,16.0118,0.98566,-0.0792732
225,16.0688,0.98655,-0.0779624
225.6,16.1273,0.979503,-0.0782021
226.2,16.1827,0.973665,-0.0780015
226.8,16.241,0.976027,-0.07927
227.4,16.2968,0.972637,-0.0785413
228,16.3539,0.980035,-0.0779629
228.6,16.4112,0.988555,-0.0764397
229.2,16.4683,0.971913,-0.0782752
229.8,16.5245,0.977021,-0.0799205
230.4,16.5815,0.980899,-0.0805797
231,16.6393,0.968623,-0.08058
231.6,16.697,0.979883,-0.08058
232.2,16.753,0.979937,-0.08058
232.8,16.81,0.967298,-0.08058
233.4,16.8664,0.974459,-0.0806091
234,16.9244,0.976417,-0.0819005
234.6,16.9813,0.981608,-0.0808988
235.2,17.0386,0.982852,-0.0788037
235.8,17.0951,0.974635,-0.0777346
236.4,17.1525,0.980953,-0.0808517
237,17.208,0.975267,-0.0818886
237.6,17.2664,0.983781,-0.0812206
238.2,17.323,0.977155,-0.0812399
238.8,17.3803,0.982218,-0.0820033
239.4,17.4375,0.979641,-0.0825599
240,17.4945,0.983321,-0.0825605
240.6,17.5515,0.983811,-0.0814678
241.2,17.6095,0.992464,-0.0814989
241.8,17.6662,0.986155,-0.0802199
242.4,17.7227,0.991898,-0.0818043
243,17.7789,0.982778,-0.0831118
243.6,17.8371,0.98487,-0.0830963
244.2,17.8938,0.982614,-0.081784
244.8,17.9513,0.980597,-0.0830993
245.4,18.0082,0.980021,-0.08311
246,18.0649,0.977975,-0.0830492
246.6,18.1221,0.978515,-0.0844295
247.2,18.18,0.974767,-0.0836289
247.8,18.2364,0.971343,-0.08344
248.4,18.293,0.98214,-0.0847288
249,18.3509,0.981185,-0.0848521
249.6,18.4073,0.974807,-0.0841
250.2,18.4657,0.971363,-0.0841
250.8,18.5218,0.975367,-0.0841166
251.4,18.5788,0.976906,-0.0847592
252,18.6352,0.974896,-0.08476
252.6,18.6922,0.979054,-0.0847534
253.2,18.7501,0.972726,-0.0860776
253.8,18.8074,0.975178,-0.0847321
254.4,18.8639,0.985931,-0.08476
255,18.9213,0.978337,-0.0847597
255.6,18.9782,0.975116,-0.0855992
256.2,19.0353,0.976163,-0.0857501
256.8,19.0925,0.976923,-0.0860413
257.4,19.1494,0.970479,-0.0870702
258,19.2055,0.980483,-0.0870756
258.6,19.264,0.976274,-0.087688
259.2,19.3205,0.976809,-0.08772
259.8,19.3775,0.978069,-0.0877197
260.4,19.4339,0.969839,-0.0887174
261,19.4916,0.977456,-0.0890416
261.6,19.5489,0.97531,-0.0903663
262.2,19.6035,0.974193,-0.09036
262.8,19.6636,0.967528,-0.09036
263.4,19.7208,0.97541,-0.0903603
264,19.7785,0.972048,-0.0891873
264.6,19.8351,0.9657,-0.0904722
265.2,19.893,0.980097,-0.0910342
265.8,19.9495,0.97088,-0.0920102
266.4,20.0077,0.977673,-0.09201
267,20.0639,0.983136,-0.0923673
267.6,20.1218,0.975572,-0.09234
268.2,20.1795,0.973332,-0.0923035
268.8,20.2358,0.978301,-0.0948525
269.4,20.2919,0.981204,-0.0936527
270,20.3504,0.980975,-0.094899
270.6,20.4071,0.985705,-0.0935404
271.2,20.4642,0.980874,-0.09354
271.8,20.5217,0.980256,-0.093416
272.4,20.5798,0.97918,-0.0958737
273,20.6367,0.978264,-0.0961819
273.6,20.6935,0.97799,-0.09618
274.2,20.7506,0.97367,-0.0961896
274.8,20.8085,0.971668,-0.0989162
275.4,20.8653,0.977729,-0.0993244
276,20.9231,0.974978,-0.0985982
276.6,20.9802,0.975455,-0.0976412
277.2,21.0377,0.974071,-0.0979555
277.8,21.0941,0.96811,-0.099571
278.4,21.1507,0.969992,-0.0996038
279,21.2085,0.97404,-0.101547
279.6,21.2661,0.968872,-0.10204
280.2,21.3225,0.971115,-0.102171
280.8,21.381,0.970296,-0.102814
281.4,21.438,0.978442,-0.1021
282,21.4946,0.971553,-0.102121
282.6,21.5527,0.973887,-0.10342
283.2,21.6104,0.97264,-0.10342
283.8,21.6672,0.976131,-0.10342
284.4,21.7238,0.962354,-0.10342
285,21.7801,0.969886,-0.104708
285.6,21.8391,0.981505,-0.104736
286.2,21.8959,0.976311,-0.103349
286.8,21.9518,0.981456,-0.106341
287.4,22.0116,0.972964,-0.10627
288,22.0682,0.972018,-0.10627
288.6,22.1244,0.97021,-0.107577
289.2,22.183,0.978207,-0.10759
289.8,22.2413,0.976428,-0.10759
290.4,22.2988,0.97987,-0.107586
291,22.3564,0.980937,-0.108911
291.6,22.4122,0.981613,-0.10891
292.2,22.4697,0.980081,-0.10891
292.8,22.5276,0.98512,-0.108908
293.4,22.5832,0.986351,-0.110224
294,22.6426,0.996501,-0.11022
294.6,22.6994,0.997316,-0.111071
295.2,22.756,0.994352,-0.113001
295.8,22.8146,0.992711,-0.11297
296.4,22.8722,1.00462,-0.11297
297,22.9289,0.997353,-0.11297
297.6,22.9861,0.993542,-0.11298
298.2,23.043,1.00042,-0.114294
298.8,23.1021,0.997722,-0.11429
299.4,23.1595,0.990167,-0.114304
300,23.2166,0.999539,-0.115235
300.6,23.2746,0.989582,-0.11528
301.2,23.3312,0.987736,-0.11528
301.8,23.3885,0.986139,-0.117107
302.4,23.4469,0.983392,-0.11791
303,23.5048,0.98128,-0.119215
303.6,23.5623,0.982048,-0.11923
304.2,23.6196,0.975577,-0.11923
304.8,23.678,0.973999,-0.11923
305.4,23.7339,0.976597,-0.120523
306,23.7904,0.977049,-0.12054
306.6,23.8494,0.974684,-0.121381
307.2,23.9071,0.979513,-0.12186
307.8,23.9636,0.979246,-0.12186
308.4,24.0231,0.973288,-0.122769
309,24.0804,0.96932,-0.12318
309.6,24.1377,0.967958,-0.123178
310.2,24.1953,0.971288,-0.124523
310.8,24.253,0.969463,-0.1245
311.4,24.3108,0.975105,-0.124868
312,24.3683,0.969859,-0.124897
312.6,24.4263,0.973871,-0.12581
313.2,24.4833,0.96582,-0.12581
313.8,24.5415,0.967838,-0.127228
314.4,24.599,0.966376,-0.12713
315,24.6569,0.974749,-0.125583
315.6,24.7131,0.971787,-0.126922
316.2,24.771,0.966564,-0.128306
316.8,24.8287,0.975443,-0.12867
317.4,24.886,0.975596,-0.129224
318,24.9447,0.973276,-0.12999
318.6,25.0021,0.970831,-0.129938
319.2,25.0604,0.96956,-0.131299
319.8,25.1174,0.979848,-0.1313
320.4,25.1752,0.979445,-0.1313
321,25.2333,0.976709,-0.132694
321.6,25.2909,0.979453,-0.13262
322.2,25.3484,0.978748,-0.132619
322.8,25.407,0.976245,-0.133482
323.4,25.4642,0.977748,-0.133298
324,25.5215,0.982039,-0.132867
324.6,25.5799,0.975666,-0.132827
325.2,25.6376,0.979506,-0.1357
325.8,25.6962,0.975395,-0.137011
326.4,25.754,0.974281,-0.13699
327,25.8115,0.974823,-0.136352
327.6,25.8703,0.975883,-0.136566
328.2,25.9267,0.976633,-0.13767
328.8,25.9841,0.973182,-0.137615
329.4,26.0428,0.971248,-0.140313
330,26.1014,0.965351,-0.138649
330.6,26.1595,0.963352,-0.137998
331.2,26.2166,0.969582,-0.139431
331.8,26.2745,0.970943,-0.140793
332.4,26.3333,0.966395,-0.14074
333,26.3913,0.967712,-0.14074
333.6,26.448,0.969884,-0.14074
334.2,26.5063,0.961724,-0.142056
334.8,26.5644,0.967098,-0.142475
335.4,26.6227,0.963685,-0.143585
336,26.6799,0.962222,-0.145899
336.6,26.7377,0.961464,-0.1447
337.2,26.7965,0.967317,-0.1447
337.8,26.8535,0.965374,-0.145956
338.4,26.9123,0.959581,-0.14601
339,26.9698,0.960533,-0.146011
339.6,27.0285,0.961247,-0.14736
340.2,27.0866,0.957119,-0.148246
340.8,27.144,0.957076,-0.150012
341.4,27.2013,0.960037,-0.14997
342,27.26,0.958594,-0.151017
342.6,27.3169,0.955942,-0.149969
343.2,27.3761,0.957016,-0.151279
343.8,27.4333,0.954682,-0.15116
344.4,27.491,0.960421,-0.153264
345,27.5504,0.958363,-0.154451
345.6,27.6085,0.952001,-0.154624
346.2,27.6665,0.950888,-0.1559
346.8,27.7245,0.945144,-0.155913
347.4,27.783,0.94568,-0.157213
348,27.8402,0.942919,-0.157172
348.6,27.8988,0.953931,-0.15853
349.2,27.9558,0.947565,-0.159801
349.8,28.0146,0.948666,-0.15985
350.4,28.0725,0.953311,-0.161144
351,28.1308,0.949893,-0.160366
351.6,28.1886,0.949346,-0.161494
352.2,28.2462,0.950585,-0.164101
352.8,28.305,0.94292,-0.164191
353.4,28.3634,0.94474,-0.164111
354,28.421,0.943289,-0.16414
354.6,28.4786,0.949109,-0.165434
355.2,28.536,0.941314,-0.166762
355.8,28.5951,0.948243,-0.167593
356.4,28.6535,0.940976,-0.168099
357,28.7113,0.936179,-0.169355
357.6,28.7695,0.934294,-0.172019
358.2,28.8276,0.941491,-0.173042
358.8,28.8854,0.933825,-0.171944
359.4,28.9434,0.933229,-0.173349
360,29.0017,0.921306,-0.173346
360.6,29.0604,0.931641,-0.174605
361.2,29.1163,0.930124,-0.177288
361.8,29.1754,0.928419,-0.17861
362.4,29.2333,0.922327,-0.178428
363,29.2907,0.922071,-0.178584
363.6,29.3498,0.924743,-0.179939
364.2,29.4078,0.917935,-0.179953
364.8,29.4662,0.912769,-0.182806
365.4,29.5246,0.913094,-0.1829
366,29.5814,0.905284,-0.18291
366.6,29.6408,0.902511,-0.185441
367.2,29.6986,0.898797,-0.18554
367.8,29.7563,0.900936,-0.1862
368.4,29.8149,0.902391,-0.186193
369,29.8723,0.901351,-0.187519
369.6,29.9305,0.899422,-0.187775
370.2,29.9899,0.898181,-0.189032
370.8,30.0463,0.887652,-0.189601
371.4,30.1058,0.884732,-0.190948
372,30.1627,0.894388,-0.190815
372.6,30.2208,0.889856,-0.192239
373.2,30.2797,0.888954,-0.19354
373.8,30.3383,0.893298,-0.194748
374.4,30.3961,0.889427,-0.19641
375,30.4546,0.883325,-0.197408
375.6,30.5127,0.885821,-0.1989
376.2,30.5708,0.888489,-0.200129
376.8,30.6264,0.881931,-0.198825
377.4,30.6865,0.883031,-0.200154
378,30.7426,0.885353,-0.202723
378.6,30.8047,0.88137,-0.20376
379.2,30.8616,0.888917,-0.204986
379.8,30.9205,0.881532,-0.205348
380.4,30.9786,0.883116,-0.206422
381,31.0376,0.887926,-0.206729
381.6,31.0961,0.88775,-0.208052
382.2,31.1543,0.880784,-0.208766
382.8,31.2125,0.884904,-0.210933
383.4,31.2715,0.884617,-0.210934
384,31.33,0.882619,-0.209525
384.6,31.3877,0.879639,-0.2109
385.2,31.446,0.878513,-0.212208
385.8,31.5041,0.8857,-0.21354
386.4,31.5624,0.882352,-0.215849
387,31.621,0.887503,-0.21584
387.6,31.6798,0.886093,-0.21584
388.2,31.7382,0.881379,-0.217262
388.8,31.796,0.882053,-0.218681
389.4,31.8544,0.885725,-0.220286
390,31.9146,0.882301,-0.221329
390.6,31.972,0.883212,-0.220238
391.2,32.0305,0.886678,-0.22087
391.8,32.0883,0.888579,-0.223805
392.4,32.1482,0.893512,-0.225487
393,32.2065,0.892503,-0.226574
393.6,32.2648,0.892643,-0.228256
394.2,32.3216,0.894393,-0.230176
394.8,32.3814,0.892843,-0.229498
395.4,32.4417,0.895306,-0.232
396,32.4986,0.893847,-0.233172
396.6,32.5575,0.901061,-0.2345
397.2,32.6167,0.898985,-0.235829
397.8,32.6738,0.890889,-0.237155
398.4,32.733,0.889084,-0.238982
399,32.7921,0.890731,-0.241385
399.6,32.8511,0.896728,-0.241373
400.2,32.9085,0.891559,-0.243519
400.8,32.9685,0.887776,-0.244285
401.4,33.0262,0.884076,-0.247138
402,33.0852,0.886157,-0.249863
402.6,33.1434,0.88447,-0.249787
403.2,33.2027,0.889646,-0.251285
403.8,33.261,0.882757,-0.252824
404.4,33.3194,0.878844,-0.25416
405,33.3783,0.883292,-0.255469
405.6,33.4365,0.874729,-0.256802
406.2,33.4955,0.880813,-0.258707
406.8,33.5542,0.876962,-0.26019
407.4,33.6127,0.875124,-0.262423
408,33.6717,0.876667,-0.262808
408.6,33.7294,0.875289,-0.265238
409.2,33.7883,0.870451,-0.266486
409.8,33.8479,0.862673,-0.269893
410.4,33.9052,0.862734,-0.271865
411,33.964,0.857692,-0.273188
411.6,34.0229,0.860549,-0.274432
412.2,34.0825,0.856981,-0.27545
412.8,34.1412,0.848624,-0.275369
413.4,34.1993,0.848351,-0.278591
414,34.2572,0.844184,-0.281813
414.6,34.3169,0.843169,-0.284478
415.2,34.376,0.846131,-0.284538
415.8,34.4331,0.841759,-0.286353
416.4,34.4929,0.835078,-0.288834
417,34.5515,0.82845,-0.290696
417.6,34.6103,0.826797,-0.291811
418.2,34.6668,0.826995,-0.293317
418.8,34.7269,0.822268,-0.294764
419.4,34.7868,0.823229,-0.297409
420,34.844,0.817011,-0.298706
420.6,34.9032,0.816603,-0.298393
421.2,34.9626,0.813724,-0.301151
421.8,35.0214,0.813756,-0.301834
422.4,35.0798,0.811943,-0.303793
423,35.139,0.807441,-0.305029
423.6,35.1984,0.809979,-0.30586
424.2,35.2564,0.806924,-0.307138
424.8,35.3142,0.809172,-0.309151
425.4,35.3743,0.809071,-0.309151
426,35.4325,0.817405,-0.310797
426.6,35.4922,0.812335,-0.313882
427.2,35.5514,0.807713,-0.315394
427.8,35.6104,0.80816,-0.31654
428.4,35.6682,0.808485,-0.317352
429,35.7279,0.810607,-0.31827
429.6,35.7868,0.813281,-0.318882
430.2,35.8458,0.810304,-0.319597
430.8,35.9054,0.811685,-0.320906
431.4,35.9639,0.811408,-0.322163
432,36.0228,0.810445,-0.323533
432.6,36.081,0.809795,-0.32519
433.2,36.1399,0.811581,-0.327703
433.8,36.2003,0.815918,-0.327261
434.4,36.2584,0.816582,-0.328589
435,36.3171,0.822418,-0.329555
435.6,36.3762,0.825821,-0.329916
436.2,36.4355,0.819119,-0.33185
436.8,36.4946,0.829847,-0.33323
437.4,36.554,0.831763,-0.334637
438,36.6116,0.832336,-0.33463
438.6,36.6716,0.837163,-0.334616
439.2,36.7313,0.834389,-0.338409
439.8,36.7888,0.833153,-0.340227
440.4,36.8487,0.836129,-0.341549
441,36.9078,0.843828,-0.341565
441.6,36.9668,0.840684,-0.342203
442.2,37.0262,0.844751,-0.342162
442.8,37.0844,0.851106,-0.342836
443.4,37.1435,0.857205,-0.342854
444,37.2026,0.856078,-0.345663
444.6,37.2615,0.852719,-0.347142
445.2,37.3209,0.859424,-0.348453
445.8,37.3807,0.861337,-0.349778
446.4,37.4388,0.861667,-0.351148
447,37.4986,0.864076,-0.351186
447.6,37.5561,0.855986,-0.352372
448.2,37.6169,0.86279,-0.35373
448.8,37.6758,0.865006,-0.354554
449.4,37.7349,0.869751,-0.354849
450,37.7934,0.868649,-0.355714
450.6,37.853,0.875099,-0.356953
451.2,37.912,0.866605,-0.358242
451.8,37.9714,0.879475,-0.359586
452.4,38.0303,0.87516,-0.360996
453,38.0896,0.869164,-0.362291
453.6,38.149,0.879628,-0.363611
454.2,38.2094,0.872731,-0.364759
454.8,38.2671,0.879696,-0.365243
455.4,38.3258,0.878531,-0.366242
456,38.3865,0.878592,-0.366963
456.6,38.445,0.875937,-0.368216
457.2,38.5052,0.876265,-0.371006
457.8,38.5641,0.87189,-0.372203
458.4,38.623,0.872702,-0.371801
459,38.6823,0.877379,-0.371817
459.6,38.7413,0.871805,-0.37405
460.2,38.8005,0.87727,-0.378079
460.8,38.8609,0.875436,-0.378819
461.4,38.9194,0.873796,-0.380839
462,38.9782,0.870333,-0.37953
462.6,39.0391,0.875333,-0.379535
463.2,39.0971,0.871627,-0.382586
463.8,39.1568,0.863701,-0.38392
464.4,39.2161,0.870961,-0.385288
465,39.2759,0.871159,-0.386654
465.6,39.3349,0.865402,-0.388442
466.2,39.3938,0.866511,-0.389183
466.8,39.4531,0.861705,-0.39061
467.4,39.5104,0.859441,-0.390258
468,39.572,0.85682,-0.391625
468.6,39.632,0.857813,-0.393192
469.2,39.6907,0.85795,-0.394458
469.8,39.7503,0.85802,-0.395751
470.4,39.8064,0.856726,-0.397206
471,39.8686,0.848805,-0.398526
471.6,39.9281,0.852979,-0.399839
472.2,39.9874,0.849911,-0.401149
472.8,40.0471,0.848382,-0.40247
473.4,40.106,0.844748,-0.403729
474,40.1659,0.845788,-0.406038
474.6,40.2252,0.84872,-0.406762
475.2,40.2845,0.838214,-0.406691
475.8,40.3449,0.839814,-0.409159
476.4,40.4041,0.842931,-0.409382
477,40.4627,0.84243,-0.410616
477.6,40.522,0.836817,-0.414417
478.2,40.5821,0.833344,-0.415795
478.8,40.6406,0.826466,-0.415854
479.4,40.7009,0.827488,-0.417179
480,40.7597,0.823576,-0.418504
480.6,40.8187,0.821118,-0.418718
481.2,40.878,0.814874,-0.41992
481.8,40.9381,0.819242,-0.421353
482.4,40.9976,0.814084,-0.423137
483,41.0572,0.812496,-0.42409
483.6,41.1166,0.810598,-0.425521
484.2,41.1756,0.801291,-0.427469
484.8,41.2361,0.791968,-0.429694
485.4,41.2955,0.796908,-0.429509
486,41.3544,0.800773,-0.428859
486.6,41.4145,0.796536,-0.431398
487.2,41.4734,0.794659,-0.433277
487.8,41.5325,0.79434,-0.436639
488.4,41.5936,0.797468,-0.439395
489,41.6528,0.791354,-0.44076
489.6,41.7097,0.792489,-0.442498
490.2,41.7711,0.795667,-0.443671
490.8,41.8301,0.804823,-0.445181
491.4,41.8903,0.807148,-0.446395
492,41.95,0.812169,-0.447912
492.6,42.0097,0.817658,-0.450422
493.2,42.069,0.824831,-0.45138
493.8,42.1289,0.827912,-0.454629
494.4,42.1873,0.83107,-0.45594
495,42.2471,0.837801,-0.456321
495.6,42.3075,0.84141,-0.458793
496.2,42.3667,0.850268,-0.464209
496.8,42.426,0.848125,-0.466477
497.4,42.4851,0.860557,-0.467803
498,42.5449,0.868006,-0.469443
498.6,42.6053,0.879096,-0.470781
499.2,42.6635,0.874031,-0.473598
499.8,42.723,0.879931,-0.476987
500.4,42.7825,0.891454,-0.480144
501,42.8428,0.899558,-0.482969
501.6,42.9018,0.905283,-0.48602
502.2,42.9618,0.91595,-0.488567
502.8,43.0201,0.923156,-0.490754
503.4,43.0814,0.934662,-0.493857
504,43.1414,0.939894,-0.496902
504.6,43.2005,0.96168,-0.499718
505.2,43.2603,0.973377,-0.501677
505.8,43.3194,0.990654,-0.505769
506.4,43.3802,1.00371,-0.50873
507,43.4392,1.01229,-0.512968
507.6,43.4992,1.03307,-0.516568
508.2,43.5586,1.0425,-0.520023
508.8,43.6187,1.05662,-0.522896
509.4,43.6777,1.06352,-0.526544
510,43.7382,1.07365,-0.530303
510.6,43.7973,1.07349,-0.53531
511.2,43.8585,1.07334,-0.539307
511.8,43.9171,1.08073,-0.542102
512.4,43.9773,1.0833,-0.54749
513,44.0368,1.07803,-0.550972
513.6,44.0968,1.06729,-0.556331
514.2,44.1567,1.06565,-0.559456
514.8,44.2159,1.05129,-0.562744
515.4,44.2757,1.04313,-0.56779
516,44.3346,1.03075,-0.571427
516.6,44.3945,1.01844,-0.575004
517.2,44.454,1.00731,-0.5786
517.8,44.5135,0.990677,-0.582388
518.4,44.5735,0.976071,-0.586314
519,44.6334,0.964628,-0.589656
519.6,44.6927,0.954078,-0.593076
520.2,44.7525,0.948936,-0.596994
520.8,44.8125,0.927032,-0.600537
521.4,44.8725,0.920065,-0.60329
522,44.9304,0.910328,-0.606813
522.6,44.9917,0.90323,-0.610868
523.2,45.0518,0.905837,-0.614371
523.8,45.1109,0.898073,-0.617303
524.4,45.1704,0.897611,-0.6203
525,45.2311,0.899916,-0.623446
525.6,45.291,0.911568,-0.626607
526.2,45.3511,0.912718,-0.629126
526.8,45.41,0.916439,-0.632915
527.4,45.4708,0.925908,-0.633945
528,45.5306,0.93169,-0.639003
528.6,45.59,0.936518,-0.639173
529.2,45.6503,0.945751,-0.644856
529.8,45.7104,0.957089,-0.64809
530.4,45.7702,0.969585,-0.651194
531,45.8297,0.979423,-0.653858
531.6,45.8893,0.992516,-0.657871
532.2,45.9494,1.01188,-0.66246
532.8,46.0096,1.02551,-0.664925
533.4,46.069,1.03637,-0.669227
534,46.1306,1.06298,-0.672565
534.6,46.1894,1.07743,-0.675727
535.2,46.2504,1.09497,-0.680325
535.8,46.3099,1.11973,-0.683103
536.4,46.3689,1.13542,-0.684446
537,46.4298,1.1552,-0.692423
537.6,46.4895,1.17273,-0.697977
538.2,46.5478,1.18841,-0.700518
538.8,46.61,1.22264,-0.706139
539.4,46.6697,1.24287,-0.70937
540,46.7308,1.26875,-0.713199
540.6,46.7905,1.29708,-0.718692
541.2,46.8514,1.32213,-0.72302
541.8,46.9118,1.33879,-0.729121
542.4,46.9706,1.3699,-0.733048
543,47.0314,1.40584,-0.737781
543.6,47.0937,1.43211,-0.742675
544.2,47.1523,1.45744,-0.748121
544.8,47.2131,1.48177,-0.75078
545.4,47.2742,1.51395,-0.760103
546,47.3349,1.54054,-0.76792
546.6,47.3944,1.57194,-0.775058
547.2,47.4543,1.60543,-0.780535
547.8,47.5162,1.64452,-0.788386
548.4,47.5746,1.66917,-0.794567
549,47.6361,1.70427,-0.801208
549.6,47.6962,1.73284,-0.808004
550.2,47.7561,1.76968,-0.815589
550.8,47.8172,1.79825,-0.823361
551.4,47.8765,1.82805,-0.831617
552,47.9376,1.86007,-0.840439
552.6,47.9975,1.89216,-0.849212
553.2,48.0576,1.91825,-0.857441
553.8,48.1166,1.94596,-0.866805
554.4,48.1787,1.97358,-0.876905
555,48.2388,1.99767,-0.887256
555.6,48.3004,2.03079,-0.89777
556.2,48.3602,2.05041,-0.907435
556.8,48.4199,2.08748,-0.918022
557.4,48.4808,2.11501,-0.930252
558,48.5405,2.14015,-0.941666
558.6,48.6018,2.18261,-0.954969
559.2,48.6614,2.20623,-0.966287
559.8,48.7223,2.2365,-0.980007
560.4,48.7819,2.28393,-0.992843
561,48.8443,2.32446,-1.00669
561.6,48.9038,2.36255,-1.02197
562.2,48.9644,2.41107,-1.03699
562.8,49.0242,2.45327,-1.0509
563.4,49.0858,2.50436,-1.06691
564,49.1457,2.55225,-1.08146
564.6,49.2065,2.59772,-1.09856
565.2,49.2672,2.64136,-1.11604
565.8,49.3291,2.69081,-1.13573
566.4,49.3883,2.73415,-1.15204
567,49.4497,2.78893,-1.17121
567.6,49.5106,2.83694,-1.18981
568.2,49.5712,2.87525,-1.20966
568.8,49.6319,2.90996,-1.22803
569.4,49.6939,2.94374,-1.24852
570,49.7532,2.97156,-1.26883
570.6,49.8132,2.98862,-1.29082
571.2,49.8732,3.00591,-1.31083
571.8,49.935,3.01869,-1.3326
572.4,49.9937,3.01404,-1.35424
573,50.0542,3.00871,-1.37684
573.6,50.1137,2.97772,-1.39869
574.2,50.1732,2.93387,-1.41973
574.8,50.2341,2.88248,-1.44195
575.4,50.291,2.8152,-1.46258
576,50.3518,2.72236,-1.48285
576.6,50.4098,2.60403,-1.5041
577.2,50.469,2.4814,-1.52261
577.8,50.5272,2.32171,-1.53987
578.4,50.586,2.15918,-1.55594
579,50.6441,1.97091,-1.57301
579.6,50.7021,1.76126,-1.58761
580.2,50.7602,1.54972,-1.60157
580.8,50.8173,1.34582,-1.61298
581.4,50.8751,1.1486,-1.62301
582,50.9332,0.953532,-1.63216
582.6,50.9907,0.787578,-1.64006
583.2,51.0503,0.619384,-1.64733
583.8,51.1061,0.513264,-1.65319
584.4,51.1661,0.419602,-1.65897
585,51.2267,0.336704,-1.66207
585.6,51.2861,0.269013,-1.66485
586.2,51.3451,0.220695,-1.6688
586.8,51.4041,0.188957,-1.67284
587.4,51.4653,0.150949,-1.67563
588,51.5219,0.122753,-1.6789
588.6,51.5838,0.102718,-1.68178
589.2,51.6432,0.0871811,-1.68477
589.8,51.7011,0.0765039,-1.68639
590.4,51.7629,0.0589646,-1.6887
591,51.8226,0.0465933,-1.68995
591.6,51.8827,0.0405934,-1.69199
592.2,51.9431,0.030497,-1.69365
592.8,52.0036,0.0159754,-1.69614
593.4,52.0626,0.0191971,-1.69899
594,52.123,0.0106615,-1.70009
594.6,52.1838,0.0122177,-1.70254
595.2,52.2437,0.00535148,-1.70515
595.8,52.3039,0.00966673,-1.70532
596.4,52.3632,0.00868316,-1.70635
597,52.424,0.00865731,-1.70823
597.6,52.484,0.0054942,-1.71054
598.2,52.5446,0.0109857,-1.7118
598.8,52.605,0.00622532,-1.71394
599.4,52.6648,0.00839905,-1.71448
600,52.7253,0.00727853,-1.7163
600.6,52.7864,0.0137153,-1.71845
601.2,52.8456,0.0159461,-1.71977
601.8,52.9063,0.0194968,-1.71976
602.4,52.9668,0.0229619,-1.72108
603,53.0273,0.0267457,-1.72239
603.6,53.0872,0.028246,-1.72414
604.2,53.1457,0.0264798,-1.72514
604.8,53.2079,0.0271456,-1.72645
605.4,53.268,0.0364727,-1.72907
606,53.3279,0.0439758,-1.72902
606.6,53.3887,0.0492478,-1.73046
607.2,53.4486,0.0465908,-1.73249
607.8,53.5095,0.0517481,-1.73302
608.4,53.5694,0.0517693,-1.73521
609,53.63,0.0557688,-1.73696
609.6,53.6901,0.0636862,-1.73712
610.2,53.7514,0.0731769,-1.73857
610.8,53.8088,-0.00897705,-1.73998
611.4,53.871,0.019498,-1.74116
612,53.9321,0.0350036,-1.74248
612.6,53.9924,0.0424282,-1.74336
613.2,54.0529,0.0578362,-1.74489
613.8,54.1134,0.0573893,-1.74644
614.4,54.1731,0.0667901,-1.74708
615,54.2355,0.0766419,-1.74486
615.6,54.2951,0.0779432,-1.74822
616.2,54.3557,0.0838419,-1.75097
616.8,54.4159,0.0820446,-1.75128
617.4,54.4769,0.0913822,-1.75139
618,54.5374,0.0961174,-1.75039
618.6,54.5981,0.0909143,-1.75448
619.2,54.6581,0.0980095,-1.75575
619.8,54.7169,0.112094,-1.75576
620.4,54.7789,0.118646,-1.75681
621,54.8376,0.119872,-1.75808
621.6,54.8979,0.121708,-1.7581
622.2,54.9596,0.129764,-1.75937
622.8,55.0202,0.133229,-1.76065
623.4,55.0812,0.139571,-1.76204
624,55.1409,0.148196,-1.76335
624.6,55.2018,0.148207,-1.76335
625.2,55.2616,0.153341,-1.76548
625.8,55.3218,0.156937,-1.76774
626.4,55.3828,0.157153,-1.76845
627,55.4433,0.164547,-1.76852
627.6,55.5048,0.176722,-1.76982
628.2,55.5643,0.171887,-1.77046
628.8,55.6252,0.178817,-1.7718
629.4,55.6862,0.186507,-1.7718
630,55.7463,0.194853,-1.77324
630.6,55.8066,0.19483,-1.77454
631.2,55.8654,0.200705,-1.77537
631.8,55.9279,0.20863,-1.77717
632.4,55.9891,0.215598,-1.77718
633,56.0496,0.214445,-1.7785
633.6,56.1095,0.219768,-1.77981
634.2,56.1702,0.217098,-1.78122
634.8,56.2313,0.22458,-1.78258
635.4,56.2915,0.229251,-1.78388
636,56.3521,0.229899,-1.78388
636.6,56.4136,0.236372,-1.78398
637.2,56.4706,0.24082,-1.78511
637.8,56.5338,0.252922,-1.78651
638.4,56.5934,0.248885,-1.78784
639,56.6549,0.253559,-1.78918
639.6,56.7163,0.259001,-1.78976
640.2,56.7753,0.264878,-1.78916
640.8,56.837,0.271958,-1.79046
641.4,56.8963,0.284593,-1.79188
642,56.9569,0.287528,-1.79441
642.6,57.0178,0.292052,-1.79573
643.2,57.0773,0.291487,-1.79705
643.8,57.1386,0.299046,-1.79947
644.4,57.1989,0.306365,-1.80026
645,57.2596,0.311618,-1.79944
645.6,57.32,0.312195,-1.80078
646.2,57.3806,0.318496,-1.80204
646.8,57.4414,0.327358,-1.80341
647.4,57.5014,0.324726,-1.8047
648,57.5626,0.330005,-1.80606
648.6,57.6221,0.326799,-1.80606
649.2,57.6833,0.336085,-1.80604
649.8,57.7439,0.341102,-1.80736
650.4,57.8043,0.34724,-1.80866
651,57.8649,0.35313,-1.80944
651.6,57.9255,0.354164,-1.81144
652.2,57.9859,0.356733,-1.81277
652.8,58.046,0.363929,-1.81415
653.4,58.1068,0.366549,-1.8114
654,58.1672,0.366949,-1.8134
654.6,58.2271,0.373195,-1.81504
655.2,58.2877,0.377618,-1.81505
655.8,58.3475,0.384765,-1.81506
656.4,58.4092,0.390584,-1.818
657,58.4683,0.389743,-1.81868
657.6,58.53,0.391833,-1.81999
658.2,58.5898,0.398583,-1.82138
658.8,58.651,0.401118,-1.822
659.4,58.7108,0.402745,-1.82263
660,58.7716,0.406313,-1.82396
660.6,58.8323,0.412586,-1.82519
661.2,58.8928,0.414665,-1.82577
661.8,58.9531,0.41994,-1.82584
662.4,59.0134,0.419484,-1.82722
663,59.0753,0.422906,-1.82855
663.6,59.1344,0.43013,-1.82987
664.2,59.1955,0.43141,-1.8302
664.8,59.2564,0.430145,-1.83153
665.4,59.3175,0.437654,-1.83187
666,59.3784,0.434401,-1.83284
666.6,59.4379,0.442596,-1.83495
667.2,59.4988,0.441508,-1.83679
667.8,59.558,0.447244,-1.83577
668.4,59.621,0.449014,-1.8382
669,59.6811,0.452732,-1.8394
669.6,59.7417,0.455766,-1.83944
670.2,59.8025,0.465796,-1.83945
670.8,59.8627,0.475958,-1.84074
671.4,59.9219,0.473916,-1.84204
672,59.9843,0.481636,-1.84337
672.6,60.045,0.475105,-1.84587
673.2,60.1059,0.476062,-1.84724
673.8,60.167,0.480536,-1.84603
674.4,60.2271,0.484249,-1.84732
675,60.2876,0.484921,-1.84732
675.6,60.3482,0.489591,-1.84865
676.2,60.4088,0.486495,-1.8503
676.8,60.4693,0.484981,-1.85161
677.4,60.5303,0.487862,-1.85292
678,60.5906,0.48068,-1.8536
678.6,60.6515,0.485819,-1.85462
679.2,60.7131,0.487396,-1.85649
679.8,60.7735,0.491099,-1.85558
680.4,60.8335,0.484817,-1.85688
681,60.8947,0.491705,-1.85802
681.6,60.9546,0.484349,-1.8582
682.2,61.0154,0.496938,-1.8595
682.8,61.0761,0.497105,-1.86232
683.4,61.136,0.49828,-1.86351
684,61.1972,0.498799,-1.86409
684.6,61.258,0.497886,-1.86394
685.2,61.3189,0.49015,-1.86523
685.8,61.3805,0.497015,-1.86656
686.4,61.4407,0.49671,-1.86785
687,61.5008,0.494921,-1.86911
687.6,61.5623,0.492619,-1.87016
688.2,61.6227,0.491448,-1.87154
688.8,61.6829,0.495178,-1.87288
689.4,61.7429,0.488281,-1.87273
690,61.8046,0.489821,-1.87411
690.6,61.8628,0.500977,-1.87442
691.2,61.9255,0.497452,-1.87543
691.8,61.9864,0.492095,-1.87601
692.4,62.0466,0.492025,-1.87768
693,62.1073,0.48675,-1.87807
693.6,62.1681,0.485412,-1.87937
694.2,62.2289,0.484934,-1.87942
694.8,62.289,0.481123,-1.87945
695.4,62.3491,0.46428,-1.88155
696,62.4106,0.468903,-1.8837
696.6,62.4704,0.468505,-1.88487
697.2,62.5313,0.455986,-1.88487
697.8,62.5921,0.456735,-1.88613
698.4,62.6528,0.451871,-1.88742
699,62.713,0.453008,-1.88882
699.6,62.774,0.449445,-1.89017
700.2,62.8331,0.448745,-1.89106
700.8,62.8951,0.443998,-1.89079
701.4,62.9558,0.435434,-1.89147
702,63.0162,0.439451,-1.89272
702.6,63.0769,0.439153,-1.8941
703.2,63.1388,0.431828,-1.89542
703.8,63.1969,0.430194,-1.89673
704.4,63.258,0.428662,-1.89804
705,63.3204,0.413809,-1.89935
705.6,63.3814,0.405335,-1.90055
706.2,63.4423,0.401184,-1.90076
706.8,63.5028,0.392734,-1.90205
707.4,63.5632,0.387911,-1.902
708,63.6246,0.375389,-1.90331
708.6,63.6856,0.369849,-1.90677
709.2,63.7451,0.359881,-1.90665
709.8,63.807,0.352866,-1.90727
710.4,63.8678,0.34799,-1.90729
711,63.9272,0.339436,-1.90991
711.6,63.9897,0.334341,-1.90991
712.2,64.0502,0.323261,-1.91134
712.8,64.1103,0.307532,-1.91355
713.4,64.1711,0.300239,-1.91492
714,64.2314,0.297036,-1.91528
714.6,64.293,0.280671,-1.91571
715.2,64.3539,0.27852,-1.91567
715.8,64.415,0.267331,-1.91652
716.4,64.4771,0.259398,-1.91791
717,64.5367,0.246506,-1.9189
717.6,64.5976,0.244868,-1.91955
718.2,64.6581,0.233495,-1.92055
718.8,64.7186,0.217803,-1.92187
719.4,64.779,0.210861,-1.92188
720,64.8403,0.197847,-1.92325
720.6,64.9007,0.183489,-1.92352
721.2,64.9619,0.170865,-1.92484
721.8,65.0221,0.164463,-1.92617
722.4,65.0825,0.160362,-1.92645
723,65.1443,0.146101,-1.92918
723.6,65.2062,0.139513,-1.93113
724.2,65.2667,0.127121,-1.9319
724.8,65.327,0.11443,-1.93399
725.4,65.3865,0.115364,-1.93275
726,65.4486,0.103085,-1.93274
726.6,65.5086,0.093127,-1.93406
727.2,65.5711,0.0807902,-1.93424
727.8,65.632,0.0767429,-1.93561
728.4,65.6928,0.0715575,-1.93802
729,65.7531,0.0565264,-1.93771
729.6,65.8141,0.0581396,-1.93948
730.2,65.8755,0.039424,-1.94067
730.8,65.9362,0.0319453,-1.94198
731.4,65.9973,0.0251883,-1.94207
732,66.0584,0.0109777,-1.94339
732.6,66.1183,-0.000292924,-1.94471
733.2,66.1807,0.0519349,-1.94599
733.8,66.241,0.0330038,-1.94634
734.4,66.3024,0.0178241,-1.94734
735,66.3627,0.00807267,-1.94842
735.6,66.424,0.000374944,-1.94905
736.2,66.4847,-0.0200968,-1.95043
736.8,66.5457,-0.0246604,-1.95113
737.4,66.6068,-0.0448856,-1.9513
738,66.6675,-0.0479474,-1.95261
738.6,66.729,-0.0527726,-1.95376
739.2,66.7893,-0.0675706,-1.95292
739.8,66.8506,-0.0732944,-1.95425
740.4,66.9118,-0.0772435,-1.95557
741,66.9719,-0.0879779,-1.95651
741.6,67.0337,-0.095234,-1.95786
742.2,67.0953,-0.0987512,-1.95788
742.8,67.1569,-0.11139,-1.95788
743.4,67.2171,-0.117516,-1.95922
744,67.2781,-0.126656,-1.95986
744.6,67.3391,-0.123749,-1.96125
745.2,67.4005,-0.137719,-1.96118
745.8,67.4606,-0.141822,-1.96113
746.4,67.5221,-0.15092,-1.96283
747,67.5833,-0.147056,-1.96414
747.6,67.6438,-0.159064,-1.96545
748.2,67.7055,-0.166991,-1.96539
748.8,67.7665,-0.171181,-1.96772
749.4,67.8274,-0.172581,-1.96907
750,67.8891,-0.186083,-1.97019
750.6,67.9498,-0.191426,-1.97125
751.2,68.0108,-0.199221,-1.97167
751.8,68.0717,-0.205038,-1.97172
752.4,68.133,-0.211972,-1.97283
753,68.1944,-0.213564,-1.97303
753.6,68.2554,-0.226057,-1.97303
754.2,68.3166,-0.231892,-1.97167
754.8,68.3784,-0.23256,-1.97301
755.4,68.4393,-0.237904,-1.97443
756,68.5006,-0.252534,-1.97567
756.6,68.5619,-0.258162,-1.97696
757.2,68.6234,-0.264943,-1.97698
757.8,68.6851,-0.272253,-1.9783
758.4,68.7462,-0.273673,-1.9783
759,68.8074,-0.273298,-1.97863
759.6,68.8694,-0.28149,-1.97896
760.2,68.93,-0.281694,-1.98027
760.8,68.9917,-0.290347,-1.9816
761.4,69.0514,-0.2946,-1.98182
762,69.1142,-0.30592,-1.98298
762.6,69.176,-0.309886,-1.98225
763.2,69.2371,-0.314793,-1.98357
763.8,69.2984,-0.317017,-1.98489
764.4,69.3595,-0.32743,-1.98489
765,69.4208,-0.329554,-1.98609
765.6,69.4827,-0.33534,-1.98619
766.2,69.5436,-0.344188,-1.98718
766.8,69.6051,-0.335821,-1.98719
767.4,69.6662,-0.344194,-1.98846
768,69.7282,-0.349457,-1.98859
768.6,69.7884,-0.351979,-1.98895
769.2,69.8512,-0.350174,-1.99022
769.8,69.9126,-0.360865,-1.99158
770.4,69.9741,-0.353533,-1.99158
771,70.0353,-0.361868,-1.99156
771.6,70.0966,-0.373504,-1.99158
772.2,70.1578,-0.369321,-1.9929
772.8,70.2195,-0.367473,-1.99444
773.4,70.2808,-0.364814,-1.99454
774,70.3425,-0.36839,-1.99455
774.6,70.4041,-0.372147,-1.99508
775.2,70.4651,-0.377509,-1.9964
775.8,70.5254,-0.375066,-1.99741
776.4,70.5883,-0.37928,-1.99741
777,70.6504,-0.386232,-1.99871
777.6,70.7103,-0.384551,-1.99731
778.2,70.7732,-0.387614,-1.99872
778.8,70.834,-0.390232,-1.99872
779.4,70.8955,-0.391246,-2.00004
780,70.9557,-0.394639,-2.00004
780.6,71.018,-0.397687,-2.00004
781.2,71.0804,-0.400391,-2.00137
781.8,71.1426,-0.402161,-2.00137
782.4,71.2036,-0.404777,-2.00267
783,71.2645,-0.403703,-2.00256
783.6,71.3262,-0.413199,-2.00399
784.2,71.3881,-0.41318,-2.00324
784.8,71.4491,-0.415619,-2.00333
785.4,71.5104,-0.41658,-2.00466
786,71.5724,-0.422756,-2.00489
786.6,71.6338,-0.428078,-2.00597
787.2,71.694,-0.427563,-2.00713
787.8,71.7545,-0.42724,-2.00728
788.4,71.8175,-0.430823,-2.00724
789,71.8788,-0.433108,-2.00882
789.6,71.94,-0.437298,-2.00883
790.2,72.0019,-0.43292,-2.00751
790.8,72.0631,-0.445186,-2.0087
791.4,72.1248,-0.453963,-2.00973
792,72.1868,-0.451894,-2.01057
792.6,72.2484,-0.454748,-2.00981
793.2,72.309,-0.454488,-2.01112
793.8,72.3708,-0.460776,-2.01112
794.4,72.432,-0.455119,-2.01116
795,72.4939,-0.457259,-2.01234
795.6,72.5553,-0.455533,-2.01245
796.2,72.6165,-0.46534,-2.01371
796.8,72.6786,-0.46054,-2.016
797.4,72.7397,-0.468475,-2.01378
798,72.8006,-0.467707,-2.01398
798.6,72.8629,-0.46852,-2.01398
799.2,72.9224,-0.480232,-2.01393
799.8,72.9854,-0.480156,-2.0153
800.4,73.0477,-0.478036,-2.0153
801,73.108,-0.484593,-2.01435
801.6,73.1704,-0.480284,-2.01599
802.2,73.2319,-0.487883,-2.01662
802.8,73.2941,-0.485168,-2.018
803.4,73.3558,-0.482407,-2.01662
804,73.4161,-0.489163,-2.01691
804.6,73.4783,-0.486894,-2.01793
805.2,73.5402,-0.484791,-2.01792
805.8,73.6015,-0.487482,-2.01789
806.4,73.6638,-0.49354,-2.0214
807,73.7242,-0.486305,-2.02314
807.6,73.7863,-0.49432,-2.02047
808.2,73.8477,-0.496517,-2.01925
808.8,73.9096,-0.505722,-2.02054
809.4,73.9718,-0.500787,-2.02181
810,74.0343,-0.502951,-2.0229
810.6,74.0962,-0.499574,-2.02221
811.2,74.1576,-0.513407,-2.02223
811.8,74.2189,-0.505878,-2.02353
812.4,74.2801,-0.503266,-2.02451
813,74.3428,-0.506944,-2.02585
813.6,74.404,-0.508484,-2.02591
814.2,74.4653,-0.50764,-2.02452
814.8,74.5278,-0.510871,-2.02587
815.4,74.5897,-0.516151,-2.02584
816,74.6514,-0.513591,-2.02717
816.6,74.711,-0.534844,-2.02715
817.2,74.7743,-0.534595,-2.02774
817.8,74.836,-0.545684,-2.02781
818.4,74.8976,-0.553419,-2.02649
819,74.9595,-0.551453,-2.02646
819.6,75.0218,-0.55792,-2.02664
820.2,75.0839,-0.55251,-2.02749
820.8,75.1458,-0.561533,-2.02749
821.4,75.2074,-0.557372,-2.02815
822,75.2685,-0.565881,-2.02883
822.6,75.3307,-0.566561,-2.0301
823.2,75.3925,-0.566246,-2.03058
823.8,75.4546,-0.560242,-2.03013
824.4,75.516,-0.559003,-2.02942
825,75.5784,-0.560598,-2.02987
825.6,75.639,-0.559628,-2.03078
826.2,75.701,-0.561779,-2.03078
826.8,75.763,-0.559194,-2.03132
827.4,75.8252,-0.567795,-2.0321
828,75.8873,-0.557074,-2.03276
828.6,75.9486,-0.564763,-2.03341
829.2,76.0102,-0.569038,-2.03238
829.8,76.0713,-0.569008,-2.03209
830.4,76.1333,-0.573756,-2.03306
831,76.1954,-0.585053,-2.03341
831.6,76.256,-0.589693,-2.03429
832.2,76.3186,-0.596374,-2.03474
832.8,76.3799,-0.596242,-2.03374
833.4,76.4417,-0.605825,-2.03505
834,76.5029,-0.609183,-2.03507
834.6,76.5635,-0.607057,-2.03635
835.2,76.6268,-0.611497,-2.0367
835.8,76.6887,-0.612677,-2.0367
836.4,76.7512,-0.614727,-2.03731
837,76.8129,-0.617468,-2.03802
837.6,76.8749,-0.616693,-2.03802
838.2,76.9363,-0.615632,-2.03936
838.8,76.9985,-0.611792,-2.03934
839.4,77.0597,-0.613391,-2.03991
840,77.1217,-0.609379,-2.04066