File: 01_Data/Turnout_Gear_Shell/STA/N2/10K_min/Turnout_Gear_Shell_STA_N2_10KData_240528_R1.csv
Temp./C,Time/min,DSC/(mW/mg),Mass loss/mg
60.0,0.0,0.823361,-0.0262355
60.6,0.0682565,0.843522,-0.0262382
61.2,0.135373,0.864941,-0.0262343
61.8,0.202389,0.873787,-0.0263485
62.4,0.270749,0.902465,-0.0262017
63,0.336083,0.915426,-0.027541
63.6,0.401875,0.924794,-0.027534
64.2,0.466905,0.936362,-0.0262699
64.8,0.532677,0.957889,-0.0261403
65.4,0.59671,0.968882,-0.0275558
66,0.661275,0.980857,-0.0275415
66.6,0.725935,0.99746,-0.0288542
67.2,0.790402,1.00709,-0.0288602
67.8,0.853155,1.02528,-0.02886
68.4,0.917265,1.03126,-0.0289019
69,0.981828,1.04364,-0.03019
69.6,1.04505,1.06432,-0.030214
70.2,1.10811,1.07238,-0.0305183
70.8,1.17116,1.08942,-0.0304771
71.4,1.23594,1.10586,-0.03029
72,1.29788,1.115,-0.0315015
72.6,1.36128,1.13528,-0.0320198
73.2,1.42294,1.14174,-0.0304203
73.8,1.48673,1.15649,-0.0330404
74.4,1.54844,1.17441,-0.03304
75,1.61019,1.18752,-0.0330636
75.6,1.67387,1.19384,-0.03436
76.2,1.73573,1.2123,-0.0357086
76.8,1.79892,1.2153,-0.03567
77.4,1.86076,1.22815,-0.0356216
78,1.91949,1.24002,-0.0369893
78.6,1.984,1.25565,-0.035596
79.2,2.04519,1.26069,-0.037933
79.8,2.10743,1.27834,-0.0383067
80.4,2.16899,1.27946,-0.0384238
81,2.23106,1.28934,-0.039019
81.6,2.29135,1.30328,-0.0389703
82.2,2.35293,1.31111,-0.0399428
82.8,2.41499,1.3173,-0.0409243
83.4,2.47568,1.32815,-0.041272
84,2.53402,1.33984,-0.0422591
84.6,2.59696,1.34858,-0.04324
85.2,2.65661,1.35271,-0.04325
85.8,2.7169,1.35793,-0.0432573
86.4,2.77478,1.36923,-0.0435881
87,2.83822,1.36814,-0.0448912
87.6,2.89938,1.38522,-0.04489
88.2,2.95927,1.39231,-0.0448898
88.8,3.0179,1.3941,-0.045778
89.4,3.08013,1.40055,-0.0469361
90,3.13916,1.39845,-0.047485
90.6,3.19916,1.40112,-0.0504331
91.2,3.25871,1.40936,-0.0490753
91.8,3.31817,1.40666,-0.04907
92.4,3.3798,1.40683,-0.04907
93,3.43818,1.40853,-0.0490691
93.6,3.49716,1.41703,-0.0503851
94.2,3.55682,1.41362,-0.0516845
94.8,3.6159,1.41718,-0.053002
95.4,3.67438,1.42012,-0.0532419
96,3.73342,1.4176,-0.0543402
96.6,3.79332,1.41918,-0.0543399
97.2,3.85202,1.41656,-0.0548507
97.8,3.91094,1.42486,-0.05533
98.4,3.96928,1.41581,-0.0555858
99,4.02661,1.41132,-0.0570003
99.6,4.08566,1.40878,-0.0569799
100.2,4.14455,1.4141,-0.0579633
100.8,4.20452,1.41088,-0.0580461
101.4,4.26385,1.40311,-0.0592805
102,4.32164,1.40499,-0.0592771
102.6,4.37967,1.40051,-0.061042
103.2,4.439,1.39808,-0.0611427
103.8,4.49646,1.38807,-0.0601609
104.4,4.55497,1.38805,-0.0601595
105,4.61475,1.38165,-0.0624357
105.6,4.67152,1.37637,-0.06246
106.2,4.73125,1.37141,-0.0624686
106.8,4.78905,1.36868,-0.0627893
107.4,4.84784,1.35947,-0.06279
108,4.90645,1.36243,-0.0627576
108.6,4.96457,1.35385,-0.0641091
109.2,5.02418,1.34366,-0.06411
109.8,5.08035,1.34416,-0.0641098
110.4,5.13927,1.33888,-0.0650073
111,5.19761,1.32774,-0.0664194
111.6,5.25632,1.32423,-0.0664271
112.2,5.31311,1.31656,-0.0667502
112.8,5.37133,1.31241,-0.06707
113.4,5.42618,1.31699,-0.0680601
114,5.48615,1.31119,-0.0680234
114.6,5.5459,1.30495,-0.0693789
115.2,5.60109,1.29424,-0.06938
115.8,5.66287,1.29016,-0.06938
116.4,5.7192,1.28628,-0.0693006
117,5.77844,1.28138,-0.0707
117.6,5.83606,1.26948,-0.0710762
118.2,5.89508,1.26061,-0.0734055
118.8,5.95301,1.25534,-0.0738532
119.4,6.01166,1.25493,-0.0747502
120,6.06889,1.24711,-0.0741219
120.6,6.12685,1.24002,-0.0741
121.2,6.18485,1.24035,-0.0741
121.8,6.24348,1.22612,-0.0740933
122.4,6.30076,1.23628,-0.0741966
123,6.35957,1.22594,-0.0734293
123.6,6.41466,1.22019,-0.0721172
124.2,6.47403,1.21291,-0.0707518
124.8,6.53146,1.19763,-0.0708006
125.4,6.58963,1.19541,-0.0734749
126,6.6438,1.19703,-0.0734401
126.6,6.70229,1.19004,-0.0747427
127.2,6.76218,1.18348,-0.0742506
127.8,6.82033,1.18146,-0.0734399
128.4,6.87801,1.17327,-0.0734487
129,6.93299,1.16743,-0.0745929
129.6,6.99357,1.16039,-0.0734362
130.2,7.05095,1.158,-0.0747525
130.8,7.10768,1.15239,-0.076092
131.4,7.16503,1.14641,-0.0774141
132,7.2229,1.13965,-0.0773997
132.6,7.28098,1.13008,-0.0785176
133.2,7.33801,1.1285,-0.0787097
133.8,7.39569,1.12202,-0.077661
134.4,7.45285,1.11573,-0.0774021
135,7.51066,1.10899,-0.0787209
135.6,7.56835,1.10526,-0.07871
136.2,7.62536,1.10818,-0.07871
136.8,7.68211,1.10183,-0.0799684
137.4,7.7408,1.08857,-0.0800302
138,7.79804,1.09143,-0.0790876
138.6,7.85483,1.08326,-0.07871
139.2,7.91249,1.07283,-0.0786929
139.8,7.97043,1.07083,-0.0773895
140.4,8.02729,1.07044,-0.0773889
141,8.08229,1.06416,-0.0760733
141.6,8.14175,1.05898,-0.078785
142.2,8.19678,1.06003,-0.0799285
142.8,8.25394,1.05703,-0.0813505
143.4,8.31526,1.0491,-0.0800542
144,8.37168,1.04283,-0.08003
144.6,8.42855,1.04043,-0.08003
145.2,8.48661,1.04409,-0.0800234
145.8,8.5435,1.03694,-0.0800021
146.4,8.60124,1.03916,-0.0813721
147,8.65844,1.03561,-0.0800299
147.6,8.71491,1.02669,-0.08003
148.2,8.77295,1.02929,-0.0800296
148.8,8.82956,1.02325,-0.0813371
149.4,8.88676,1.01489,-0.0813404
150,8.9437,1.01349,-0.08063
150.6,8.99938,1.01014,-0.08135
151.2,9.0585,1.00453,-0.0813376
151.8,9.11577,0.998035,-0.0819997
152.4,9.17335,0.99515,-0.082
153,9.23033,0.999353,-0.0819995
153.6,9.28784,0.992949,-0.083301
154.2,9.34552,0.986561,-0.0833332
154.8,9.40183,0.976187,-0.0843046
155.4,9.45947,0.981035,-0.0829998
156,9.5165,0.980214,-0.0830096
156.6,9.57382,0.972227,-0.0833293
157.2,9.63157,0.973348,-0.0819187
157.8,9.68748,0.979212,-0.0820092
158.4,9.74687,0.968181,-0.0830523
159,9.80179,0.975289,-0.0816652
159.6,9.85898,0.976383,-0.0820102
160.2,9.91626,0.976468,-0.0807152
160.8,9.9744,0.973395,-0.0820458
161.4,10.0315,0.973929,-0.0825311
162,10.0893,0.964541,-0.0820103
162.6,10.1456,0.969788,-0.08201
163.2,10.2029,0.971229,-0.0823148
163.8,10.2599,0.968479,-0.08326
164.4,10.317,0.9668,-0.0832966
165,10.3744,0.966573,-0.0826284
165.6,10.4322,0.971555,-0.0820104
166.2,10.4883,0.967624,-0.0832938
166.8,10.5461,0.961812,-0.08333
167.4,10.6032,0.964031,-0.0833296
168,10.6607,0.959726,-0.0846225
168.6,10.7178,0.962817,-0.08464
169.2,10.7742,0.964676,-0.083775
169.8,10.8316,0.969117,-0.083776
170.4,10.8887,0.959215,-0.0846402
171,10.9462,0.956816,-0.08464
171.6,11.0035,0.956665,-0.08464
172.2,11.0617,0.962742,-0.08464
172.8,11.1173,0.961409,-0.0846326
173.4,11.1748,0.954323,-0.0856391
174,11.2315,0.955819,-0.0856303
174.6,11.2888,0.959852,-0.0846793
175.2,11.3464,0.953395,-0.0846402
175.8,11.4035,0.948927,-0.0849419
176.4,11.4604,0.948316,-0.0852335
177,11.5181,0.941607,-0.0847262
177.6,11.5748,0.95324,-0.0843099
178.2,11.6313,0.94419,-0.08431
178.8,11.6887,0.952961,-0.0843099
179.4,11.746,0.950449,-0.0846201
180,11.8034,0.950965,-0.0849701
180.6,11.8595,0.948215,-0.08497
181.2,11.9173,0.951487,-0.0849661
181.8,11.974,0.948527,-0.0856267
182.4,12.0318,0.951785,-0.0869353
183,12.089,0.947145,-0.086949
183.6,12.1446,0.947671,-0.0863139
184.2,12.2033,0.950853,-0.08629
184.8,12.2599,0.943376,-0.08629
185.4,12.3167,0.939112,-0.0862893
186,12.3738,0.938795,-0.0865458
186.6,12.4311,0.941778,-0.0858687
187.2,12.4883,0.947412,-0.0869356
187.8,12.5424,0.946834,-0.0857796
188.4,12.6016,0.938704,-0.0869403
189,12.6587,0.945218,-0.0869478
189.6,12.7155,0.942537,-0.0882836
190.2,12.7733,0.950964,-0.088237
190.8,12.829,0.952131,-0.0869401
191.4,12.8859,0.949246,-0.0869322
192,12.9421,0.945074,-0.088258
192.6,13.0002,0.952835,-0.0882564
193.2,13.0574,0.948736,-0.0869257
193.8,13.1148,0.948217,-0.0856178
194.4,13.1721,0.959998,-0.0856166
195,13.2277,0.953173,-0.0868327
195.6,13.2845,0.954539,-0.0882526
196.2,13.3414,0.953593,-0.0894515
196.8,13.3994,0.952742,-0.0899099
197.4,13.456,0.949921,-0.08991
198,13.5127,0.948745,-0.0899103
198.6,13.5709,0.946834,-0.0891291
199.2,13.6271,0.955592,-0.0872362
199.8,13.6837,0.951291,-0.0886645
200.4,13.7409,0.958829,-0.0910782
201,13.7982,0.949302,-0.0927746
201.6,13.8548,0.951165,-0.0914497
202.2,13.9119,0.947852,-0.0914495
202.8,13.967,0.948447,-0.0902329
203.4,14.0265,0.942534,-0.09013
204,14.0829,0.953575,-0.0906065
204.6,14.1395,0.950219,-0.0914503
205.2,14.1976,0.94878,-0.09145
205.8,14.2542,0.949954,-0.0914498
206.4,14.3109,0.952272,-0.0927312
207,14.3679,0.953459,-0.0943055
207.6,14.4252,0.951609,-0.0928717
208.2,14.483,0.952945,-0.0928708
208.8,14.5398,0.956815,-0.0940675
209.4,14.5961,0.958957,-0.09386
210,14.6519,0.956026,-0.0938598
210.6,14.7098,0.952675,-0.0949195
211.2,14.7672,0.954521,-0.09649
211.8,14.8241,0.952598,-0.0964944
212.4,14.8804,0.957655,-0.0951289
213,14.9374,0.961278,-0.09518
213.6,14.995,0.962135,-0.09518
214.2,15.0517,0.960186,-0.0965517
214.8,15.1097,0.955074,-0.0978038
215.4,15.1648,0.959983,-0.0988073
216,15.2227,0.961832,-0.099131
216.6,15.2795,0.961241,-0.0991303
217.2,15.3365,0.956341,-0.099793
217.8,15.3948,0.959673,-0.09979
218.4,15.4507,0.963359,-0.0997903
219,15.5072,0.960471,-0.0984316
219.6,15.5651,0.968012,-0.09847
220.2,15.6224,0.971245,-0.09847
220.8,15.6788,0.970487,-0.09847
221.4,15.7361,0.971354,-0.0984466
222,15.7935,0.964077,-0.10003
222.6,15.8502,0.969719,-0.0996474
223.2,15.9068,0.974853,-0.0994545
223.8,15.9638,0.972971,-0.100778
224.4,16.0208,0.976826,-0.101112
225,16.0775,0.975056,-0.10111
225.6,16.1348,0.973812,-0.10111
226.2,16.1916,0.973221,-0.10111
226.8,16.2486,0.976824,-0.101107
227.4,16.3042,0.980367,-0.102428
228,16.3631,0.972565,-0.10243
228.6,16.4189,0.980463,-0.10243
229.2,16.4762,0.975687,-0.102838
229.8,16.5328,0.976773,-0.104082
230.4,16.5908,0.977629,-0.104489
231,16.6463,0.974849,-0.10571
231.6,16.7037,0.979065,-0.10571
232.2,16.7612,0.972036,-0.10571
232.8,16.8181,0.983602,-0.10517
233.4,16.8753,0.983978,-0.1044
234,16.9309,0.979426,-0.1044
234.6,16.9883,0.984065,-0.105726
235.2,17.0446,0.984979,-0.105755
235.8,17.1036,0.981598,-0.109006
236.4,17.1603,0.986936,-0.108902
237,17.2164,0.992992,-0.107581
237.6,17.2733,0.989521,-0.107549
238.2,17.3305,0.986466,-0.108347
238.8,17.3881,0.985003,-0.110304
239.4,17.4456,0.983226,-0.11055
240,17.5017,0.981067,-0.110547
240.6,17.5599,0.98262,-0.111858
241.2,17.6165,0.978561,-0.110547
241.8,17.6733,0.972641,-0.11204
242.4,17.7302,0.973256,-0.11318
243,17.7871,0.976479,-0.114539
243.6,17.8448,0.971945,-0.115993
244.2,17.9018,0.975046,-0.11461
244.8,17.958,0.982096,-0.11461
245.4,18.0172,0.975205,-0.11461
246,18.0729,0.979921,-0.116011
246.6,18.1277,0.971931,-0.115927
247.2,18.1864,0.974848,-0.117244
247.8,18.2451,0.973724,-0.117247
248.4,18.302,0.979676,-0.118524
249,18.3565,0.969943,-0.119547
249.6,18.4154,0.975089,-0.118134
250.2,18.4724,0.969065,-0.118946
250.8,18.5309,0.959437,-0.1201
251.4,18.5866,0.968058,-0.120283
252,18.6444,0.962847,-0.121413
252.6,18.7011,0.964155,-0.12142
253.2,18.7583,0.961844,-0.121161
253.8,18.8154,0.973969,-0.122409
254.4,18.8731,0.965581,-0.123169
255,18.9299,0.964217,-0.125038
255.6,18.9864,0.962799,-0.126326
256.2,19.0441,0.961466,-0.124926
256.8,19.1008,0.962707,-0.12503
257.4,19.1584,0.9723,-0.124928
258,19.2155,0.959457,-0.126328
258.6,19.2729,0.966057,-0.127522
259.2,19.3302,0.968709,-0.130232
259.8,19.3869,0.960695,-0.1302
260.4,19.4444,0.961403,-0.130174
261,19.502,0.965963,-0.129462
261.6,19.5599,0.965351,-0.130192
262.2,19.6163,0.965456,-0.13152
262.8,19.6733,0.953682,-0.131529
263.4,19.7301,0.9645,-0.132951
264,19.787,0.962025,-0.134263
264.6,19.8444,0.961206,-0.134304
265.2,19.9017,0.95374,-0.13557
265.8,19.9581,0.956075,-0.13557
266.4,20.0163,0.960455,-0.136877
267,20.073,0.962036,-0.136803
267.6,20.1306,0.964901,-0.137238
268.2,20.1849,0.952792,-0.138539
268.8,20.2452,0.960352,-0.139635
269.4,20.3018,0.951642,-0.141169
270,20.3593,0.949915,-0.143811
270.6,20.4164,0.961459,-0.145094
271.2,20.4731,0.954132,-0.146396
271.8,20.5315,0.953332,-0.146505
272.4,20.5876,0.95622,-0.146439
273,20.6462,0.95695,-0.147641
273.6,20.7033,0.959045,-0.149079
274.2,20.7606,0.962759,-0.14896
274.8,20.8184,0.952506,-0.14644
275.4,20.8747,0.956538,-0.14842
276,20.9318,0.960841,-0.148773
276.6,20.9904,0.954471,-0.15007
277.2,21.0475,0.952292,-0.151244
277.8,21.1041,0.952783,-0.151415
278.4,21.1622,0.951305,-0.152702
279,21.2185,0.957002,-0.154016
279.6,21.2762,0.955511,-0.154012
280.2,21.3337,0.962291,-0.15533
280.8,21.3906,0.961732,-0.156268
281.4,21.4475,0.955594,-0.155356
282,21.5059,0.963438,-0.157993
282.6,21.5638,0.957963,-0.159291
283.2,21.6196,0.95526,-0.159638
283.8,21.677,0.951917,-0.161733
284.4,21.735,0.957623,-0.16191
285,21.7923,0.958816,-0.161931
285.6,21.8504,0.952064,-0.161911
286.2,21.9068,0.950181,-0.164593
286.8,21.9646,0.955125,-0.164508
287.4,22.0213,0.953796,-0.165849
288,22.0786,0.952014,-0.165859
288.6,22.137,0.951703,-0.167234
289.2,22.194,0.951076,-0.167191
289.8,22.2519,0.948238,-0.168495
290.4,22.31,0.949049,-0.170209
291,22.3663,0.949065,-0.17082
291.6,22.4247,0.949731,-0.170708
292.2,22.4811,0.956204,-0.17214
292.8,22.5397,0.951442,-0.17214
293.4,22.5967,0.948824,-0.172104
294,22.6532,0.949528,-0.173448
294.6,22.7113,0.945814,-0.17429
295.2,22.768,0.9516,-0.176199
295.8,22.8259,0.947807,-0.177531
296.4,22.8835,0.952173,-0.178834
297,22.9414,0.953737,-0.179146
297.6,22.9988,0.954447,-0.179157
298.2,23.0566,0.955217,-0.180473
298.8,23.1142,0.952344,-0.180383
299.4,23.1701,0.95638,-0.181801
300,23.2285,0.957518,-0.1818
300.6,23.2863,0.962309,-0.181716
301.2,23.3437,0.960901,-0.183122
301.8,23.4011,0.960235,-0.184435
302.4,23.4592,0.963476,-0.18576
303,23.5162,0.958198,-0.186643
303.6,23.574,0.957138,-0.18806
304.2,23.6308,0.957085,-0.18806
304.8,23.6894,0.958221,-0.187076
305.4,23.7466,0.956296,-0.188265
306,23.8042,0.96018,-0.189774
306.6,23.8617,0.955569,-0.189671
307.2,23.9166,0.949025,-0.19102
307.8,23.9757,0.955683,-0.192028
308.4,24.0346,0.95525,-0.192334
309,24.0923,0.957045,-0.193658
309.6,24.1477,0.953561,-0.19361
310.2,24.208,0.949848,-0.19497
310.8,24.2649,0.946951,-0.196362
311.4,24.3233,0.949207,-0.196179
312,24.3804,0.945493,-0.198026
312.6,24.4381,0.941704,-0.198599
313.2,24.4946,0.947136,-0.199908
313.8,24.5536,0.942472,-0.19991
314.4,24.611,0.937807,-0.201534
315,24.6683,0.929825,-0.20156
315.6,24.7258,0.933659,-0.201923
316.2,24.7836,0.938334,-0.202872
316.8,24.8413,0.93947,-0.204201
317.4,24.899,0.937694,-0.204201
318,24.957,0.933947,-0.205518
318.6,25.0141,0.938213,-0.20419
319.2,25.0723,0.92759,-0.204298
319.8,25.1302,0.924928,-0.205511
320.4,25.1872,0.930967,-0.206846
321,25.2449,0.928335,-0.208176
321.6,25.303,0.927745,-0.209468
322.2,25.3603,0.923863,-0.208502
322.8,25.4177,0.926732,-0.209462
323.4,25.4757,0.927927,-0.210489
324,25.5334,0.932657,-0.21078
324.6,25.5914,0.923608,-0.210777
325.2,25.6495,0.92845,-0.2121
325.8,25.7073,0.918889,-0.212029
326.4,25.7638,0.921478,-0.213645
327,25.8229,0.920935,-0.216743
327.6,25.8807,0.925044,-0.21737
328.2,25.9386,0.918058,-0.21737
328.8,25.9963,0.921953,-0.217905
329.4,26.0539,0.915876,-0.219943
330,26.1121,0.918945,-0.220111
330.6,26.1708,0.921613,-0.220003
331.2,26.2286,0.918708,-0.220297
331.8,26.2868,0.921074,-0.222315
332.4,26.3448,0.923237,-0.224037
333,26.4025,0.923205,-0.222377
333.6,26.4596,0.928542,-0.22242
334.2,26.5178,0.927358,-0.223761
334.8,26.5767,0.936149,-0.225053
335.4,26.6343,0.934424,-0.224978
336,26.6918,0.932254,-0.227769
336.6,26.7509,0.927075,-0.228994
337.2,26.8085,0.922026,-0.229599
337.8,26.866,0.927365,-0.23066
338.4,26.9244,0.921807,-0.231947
339,26.983,0.926699,-0.23197
339.6,27.0405,0.925433,-0.231956
340.2,27.0984,0.919623,-0.23329
340.8,27.1561,0.914139,-0.233315
341.4,27.2146,0.92024,-0.234631
342,27.2726,0.91663,-0.235918
342.6,27.3307,0.911235,-0.237984
343.2,27.3889,0.91074,-0.239592
343.8,27.4469,0.915474,-0.239684
344.4,27.5046,0.906683,-0.239326
345,27.5627,0.912764,-0.240628
345.6,27.6211,0.904726,-0.240639
346.2,27.6791,0.907831,-0.241973
346.8,27.7375,0.899963,-0.244087
347.4,27.7955,0.91027,-0.245743
348,27.8531,0.902727,-0.245743
348.6,27.9118,0.896409,-0.245919
349.2,27.9704,0.89901,-0.248148
349.8,28.0261,0.89545,-0.251175
350.4,28.0843,0.895592,-0.249867
351,28.1441,0.899683,-0.24987
351.6,28.2028,0.893459,-0.249868
352.2,28.2614,0.892862,-0.24988
352.8,28.3198,0.894021,-0.251174
353.4,28.3764,0.895041,-0.252557
354,28.4363,0.886881,-0.256761
354.6,28.4935,0.887973,-0.25671
355.2,28.5523,0.871351,-0.258455
355.8,28.6103,0.877606,-0.259631
356.4,28.6687,0.877657,-0.260951
357,28.7261,0.870882,-0.260976
357.6,28.7846,0.867788,-0.26226
358.2,28.8427,0.872302,-0.264604
358.8,28.9003,0.869207,-0.266318
359.4,28.9589,0.872303,-0.267652
360,29.0174,0.866023,-0.26897
360.6,29.0756,0.862965,-0.268975
361.2,29.1332,0.862047,-0.269131
361.8,29.1909,0.864671,-0.270261
362.4,29.2493,0.865464,-0.270279
363,29.3082,0.872504,-0.271594
363.6,29.3661,0.866088,-0.269625
364.2,29.4248,0.868478,-0.272628
364.8,29.483,0.869997,-0.273912
365.4,29.541,0.869307,-0.275223
366,29.5991,0.866157,-0.275219
366.6,29.6574,0.864717,-0.276531
367.2,29.7159,0.856183,-0.276538
367.8,29.7746,0.852343,-0.277751
368.4,29.8319,0.859822,-0.280809
369,29.8915,0.858605,-0.283343
369.6,29.9498,0.853409,-0.282043
370.2,30.0073,0.859773,-0.285279
370.8,30.0647,0.860576,-0.286225
371.4,30.123,0.859116,-0.28763
372,30.1816,0.853793,-0.287612
372.6,30.2403,0.856104,-0.288949
373.2,30.2977,0.845596,-0.290274
373.8,30.3561,0.854417,-0.291588
374.4,30.4141,0.857857,-0.29289
375,30.4739,0.857246,-0.29422
375.6,30.5311,0.859594,-0.293969
376.2,30.5898,0.859407,-0.294881
376.8,30.6487,0.859898,-0.2962
377.4,30.7068,0.86176,-0.299019
378,30.765,0.86096,-0.300267
378.6,30.8243,0.865703,-0.301574
379.2,30.8818,0.861016,-0.301582
379.8,30.9404,0.861222,-0.30158
380.4,30.9988,0.866729,-0.30158
381,31.0573,0.868237,-0.302887
381.6,31.1158,0.869725,-0.304623
382.2,31.1746,0.86687,-0.30619
382.8,31.2326,0.86899,-0.308378
383.4,31.2916,0.874278,-0.309038
384,31.3501,0.873687,-0.310021
384.6,31.4086,0.885116,-0.309633
385.2,31.4676,0.880856,-0.310377
385.8,31.5256,0.882093,-0.312148
386.4,31.5839,0.884548,-0.314636
387,31.6435,0.891956,-0.316982
387.6,31.7018,0.895113,-0.318477
388.2,31.7606,0.891538,-0.318416
388.8,31.8184,0.89804,-0.318376
389.4,31.8769,0.901154,-0.319905
390,31.936,0.905644,-0.321251
390.6,31.9942,0.903432,-0.322562
391.2,32.0529,0.906554,-0.323891
391.8,32.11,0.909973,-0.325225
392.4,32.1707,0.910685,-0.328051
393,32.2271,0.91559,-0.329349
393.6,32.2873,0.923834,-0.329348
394.2,32.3458,0.926694,-0.330876
394.8,32.4037,0.931152,-0.333669
395.4,32.4631,0.933202,-0.334996
396,32.5216,0.929726,-0.337142
396.6,32.5803,0.928608,-0.339752
397.2,32.6393,0.93589,-0.341414
397.8,32.6974,0.937525,-0.341419
398.4,32.7533,0.940565,-0.34384
399,32.8145,0.944131,-0.346245
399.6,32.8731,0.943397,-0.346974
400.2,32.9321,0.943732,-0.348998
400.8,32.9899,0.940767,-0.350307
401.4,33.0498,0.941606,-0.350337
402,33.1074,0.944746,-0.354802
402.6,33.1655,0.945515,-0.357728
403.2,33.2244,0.944295,-0.35959
403.8,33.2838,0.949928,-0.360646
404.4,33.3431,0.948447,-0.362019
405,33.401,0.945084,-0.364685
405.6,33.4597,0.954055,-0.366027
406.2,33.519,0.953035,-0.369086
406.8,33.5764,0.947128,-0.370347
407.4,33.6354,0.950032,-0.373325
408,33.6943,0.948588,-0.374862
408.6,33.7533,0.949092,-0.377995
409.2,33.8115,0.941156,-0.379262
409.8,33.8708,0.939508,-0.383301
410.4,33.9292,0.941267,-0.385386
411,33.9885,0.93354,-0.386225
411.6,34.0464,0.940162,-0.387414
412.2,34.1056,0.940222,-0.390446
412.8,34.164,0.939584,-0.393528
413.4,34.2217,0.938879,-0.395398
414,34.282,0.933984,-0.399037
414.6,34.3403,0.934984,-0.401184
415.2,34.3971,0.937466,-0.401331
415.8,34.4577,0.935392,-0.402722
416.4,34.517,0.92868,-0.404099
417,34.5743,0.933628,-0.405781
417.6,34.6339,0.930071,-0.408596
418.2,34.6937,0.931598,-0.411646
418.8,34.7526,0.932679,-0.412897
419.4,34.8117,0.931838,-0.415196
420,34.8697,0.928812,-0.417277
420.6,34.9302,0.923264,-0.419339
421.2,34.9882,0.930718,-0.42149
421.8,35.0464,0.92943,-0.421826
422.4,35.1064,0.920256,-0.423005
423,35.1634,0.930527,-0.427091
423.6,35.224,0.931978,-0.428603
424.2,35.2827,0.927846,-0.432677
424.8,35.3415,0.932444,-0.433974
425.4,35.4009,0.925159,-0.435471
426,35.4593,0.928736,-0.436827
426.6,35.5182,0.940819,-0.438155
427.2,35.5787,0.937779,-0.440062
427.8,35.6373,0.942606,-0.442077
428.4,35.6958,0.937616,-0.442107
429,35.7547,0.938661,-0.445053
429.6,35.813,0.945222,-0.447335
430.2,35.8732,0.948351,-0.44883
430.8,35.9314,0.95471,-0.450633
431.4,35.9903,0.957613,-0.452176
432,36.0487,0.953736,-0.454057
432.6,36.108,0.952987,-0.45503
433.2,36.1673,0.957499,-0.454852
433.8,36.2266,0.964702,-0.456724
434.4,36.2856,0.963076,-0.459449
435,36.3452,0.960823,-0.46067
435.6,36.4037,0.961975,-0.463334
436.2,36.464,0.968231,-0.464726
436.8,36.5217,0.962539,-0.467352
437.4,36.5811,0.969382,-0.469474
438,36.6402,0.96244,-0.471516
438.6,36.6994,0.965854,-0.4736
439.2,36.7581,0.960351,-0.474832
439.8,36.817,0.970869,-0.476061
440.4,36.8758,0.96534,-0.478961
441,36.9356,0.971185,-0.481448
441.6,36.9939,0.967743,-0.483263
442.2,37.0536,0.969843,-0.484556
442.8,37.1131,0.964532,-0.485902
443.4,37.1722,0.966177,-0.487208
444,37.2325,0.966179,-0.488765
444.6,37.2912,0.964199,-0.491519
445.2,37.3507,0.953177,-0.491931
445.8,37.4095,0.959933,-0.49325
446.4,37.468,0.969763,-0.494567
447,37.5275,0.959883,-0.49588
447.6,37.5867,0.951417,-0.499489
448.2,37.6462,0.958458,-0.501166
448.8,37.7056,0.954941,-0.501142
449.4,37.7647,0.951652,-0.502349
450,37.825,0.947413,-0.503708
450.6,37.8839,0.939719,-0.505508
451.2,37.9439,0.93875,-0.507844
451.8,38.0019,0.93621,-0.509168
452.4,38.0607,0.931101,-0.509262
453,38.1208,0.929066,-0.51195
453.6,38.1801,0.929379,-0.513957
454.2,38.2389,0.92472,-0.514548
454.8,38.2981,0.921806,-0.51592
455.4,38.3557,0.911981,-0.517292
456,38.4164,0.904145,-0.517562
456.6,38.4758,0.900873,-0.519338
457.2,38.5343,0.898883,-0.520938
457.8,38.594,0.899152,-0.52277
458.4,38.6538,0.885237,-0.524149
459,38.7132,0.874345,-0.525935
459.6,38.773,0.874391,-0.527358
460.2,38.8311,0.868992,-0.527744
460.8,38.8902,0.861345,-0.528914
461.4,38.95,0.854925,-0.53157
462,39.0087,0.84973,-0.532894
462.6,39.068,0.855401,-0.535533
463.2,39.1269,0.846446,-0.536848
463.8,39.1863,0.833832,-0.538073
464.4,39.2451,0.839483,-0.53947
465,39.304,0.840754,-0.540509
465.6,39.3629,0.837437,-0.540692
466.2,39.4234,0.833433,-0.542455
466.8,39.4822,0.827222,-0.544727
467.4,39.5405,0.825309,-0.546102
468,39.6003,0.820466,-0.548905
468.6,39.6592,0.819472,-0.550984
469.2,39.7192,0.805423,-0.55165
469.8,39.778,0.798716,-0.551699
470.4,39.8369,0.789496,-0.550478
471,39.8957,0.778765,-0.553176
471.6,39.9527,0.774938,-0.554216
472.2,40.0143,0.771109,-0.55712
472.8,40.0738,0.757066,-0.557029
473.4,40.1333,0.750869,-0.558454
474,40.1923,0.744421,-0.558368
474.6,40.2517,0.732526,-0.559163
475.2,40.3108,0.72964,-0.562085
475.8,40.3705,0.728056,-0.562369
476.4,40.4291,0.721149,-0.562969
477,40.4889,0.715794,-0.56297
477.6,40.5479,0.705881,-0.562989
478.2,40.6077,0.692104,-0.567403
478.8,40.6665,0.694338,-0.568683
479.4,40.7246,0.682607,-0.569557
480,40.7857,0.678595,-0.569638
480.6,40.8449,0.681823,-0.569907
481.2,40.9042,0.673163,-0.569929
481.8,40.9637,0.674732,-0.569964
482.4,41.0222,0.676927,-0.56999
483,41.0821,0.662519,-0.569995
483.6,41.1416,0.664049,-0.571999
484.2,41.2002,0.66275,-0.572637
484.8,41.2597,0.658215,-0.57511
485.4,41.3163,0.66367,-0.576494
486,41.3782,0.65263,-0.574069
486.6,41.4358,0.65793,-0.575155
487.2,41.4972,0.651098,-0.575898
487.8,41.5561,0.648819,-0.576519
488.4,41.6167,0.644833,-0.57645
489,41.6759,0.643642,-0.577778
489.6,41.7358,0.638164,-0.579738
490.2,41.795,0.63814,-0.581076
490.8,41.854,0.635202,-0.58314
491.4,41.9142,0.640409,-0.584404
492,41.9725,0.639008,-0.58569
492.6,42.0304,0.63751,-0.585691
493.2,42.0922,0.64275,-0.585649
493.8,42.1525,0.64689,-0.58569
494.4,42.2103,0.645795,-0.586859
495,42.2717,0.647785,-0.588642
495.6,42.3307,0.64773,-0.588536
496.2,42.3919,0.647069,-0.591164
496.8,42.4505,0.654833,-0.592475
497.4,42.5098,0.650723,-0.59494
498,42.5707,0.658705,-0.597263
498.6,42.6301,0.662029,-0.599206
499.2,42.6896,0.662432,-0.599079
499.8,42.7474,0.671223,-0.601242
500.4,42.8079,0.660404,-0.602742
501,42.8688,0.667428,-0.603999
501.6,42.9277,0.670555,-0.605286
502.2,42.9877,0.670126,-0.606677
502.8,43.0478,0.673247,-0.61087
503.4,43.1065,0.674488,-0.611476
504,43.1666,0.671913,-0.613065
504.6,43.2269,0.666703,-0.615448
505.2,43.2859,0.670845,-0.619241
505.8,43.3459,0.672426,-0.620616
506.4,43.4059,0.67272,-0.620607
507,43.4651,0.664556,-0.621921
507.6,43.5252,0.671471,-0.624599
508.2,43.5849,0.663881,-0.624854
508.8,43.6441,0.664331,-0.627343
509.4,43.7043,0.659531,-0.631547
510,43.7646,0.651267,-0.633703
510.6,43.8235,0.650219,-0.638572
511.2,43.8841,0.655451,-0.641014
511.8,43.9411,0.649337,-0.641017
512.4,44.0034,0.643259,-0.643857
513,44.0619,0.633442,-0.647585
513.6,44.1212,0.631382,-0.650654
514.2,44.1821,0.626929,-0.652002
514.8,44.2421,0.636257,-0.6548
515.4,44.3016,0.639616,-0.655379
516,44.3612,0.635558,-0.658637
516.6,44.4202,0.629498,-0.661897
517.2,44.4785,0.627355,-0.664769
517.8,44.5409,0.635632,-0.668088
518.4,44.6007,0.63724,-0.668319
519,44.6598,0.636525,-0.670877
519.6,44.7196,0.633612,-0.6722
520.2,44.7798,0.636082,-0.673762
520.8,44.8396,0.634272,-0.675917
521.4,44.8996,0.642082,-0.680972
522,44.9592,0.645526,-0.681838
522.6,45.0186,0.646935,-0.685202
523.2,45.0791,0.651528,-0.685377
523.8,45.1386,0.648196,-0.68844
524.4,45.1988,0.656779,-0.692625
525,45.2593,0.656469,-0.695685
525.6,45.3195,0.662384,-0.696371
526.2,45.3792,0.672505,-0.698971
526.8,45.4387,0.670408,-0.701558
527.4,45.4995,0.67912,-0.703159
528,45.5592,0.692751,-0.706799
528.6,45.6187,0.690482,-0.711585
529.2,45.6791,0.690309,-0.715543
529.8,45.7388,0.700572,-0.716798
530.4,45.7983,0.707096,-0.717546
531,45.8586,0.72006,-0.718467
531.6,45.9186,0.721235,-0.721675
532.2,45.9783,0.736898,-0.7248
532.8,46.0392,0.749341,-0.727865
533.4,46.0992,0.754703,-0.731039
534,46.1594,0.761608,-0.735
534.6,46.219,0.778007,-0.736934
535.2,46.2794,0.786467,-0.737298
535.8,46.3389,0.79041,-0.740381
536.4,46.4002,0.802647,-0.743196
537,46.4599,0.813634,-0.747228
537.6,46.5198,0.826348,-0.750826
538.2,46.5799,0.845553,-0.753554
538.8,46.6396,0.869457,-0.756534
539.4,46.7,0.875981,-0.760424
540,46.7584,0.889843,-0.764413
540.6,46.8206,0.907571,-0.76667
541.2,46.88,0.923984,-0.769218
541.8,46.9409,0.931747,-0.772839
542.4,47.002,0.950261,-0.77815
543,47.061,0.967764,-0.782538
543.6,47.1221,0.995516,-0.786691
544.2,47.1808,1.01237,-0.79093
544.8,47.2419,1.02949,-0.796547
545.4,47.3021,1.04462,-0.800406
546,47.3629,1.06408,-0.804405
546.6,47.4235,1.08417,-0.809541
547.2,47.4808,1.10465,-0.813062
547.8,47.5426,1.12656,-0.816334
548.4,47.6048,1.14891,-0.82085
549,47.6627,1.16034,-0.826782
549.6,47.7245,1.18054,-0.833057
550.2,47.7849,1.1951,-0.838962
550.8,47.846,1.21027,-0.845278
551.4,47.9064,1.2321,-0.852103
552,47.9663,1.2484,-0.857697
552.6,48.0264,1.2548,-0.863385
553.2,48.0877,1.26681,-0.868372
553.8,48.1478,1.28786,-0.873951
554.4,48.2085,1.30041,-0.880315
555,48.2686,1.3264,-0.886617
555.6,48.3295,1.33597,-0.893201
556.2,48.389,1.34721,-0.899835
556.8,48.4496,1.3722,-0.908959
557.4,48.5109,1.38344,-0.91564
558,48.5712,1.40561,-0.923159
558.6,48.6316,1.4256,-0.931915
559.2,48.6912,1.44287,-0.940046
559.8,48.7516,1.46416,-0.948054
560.4,48.8117,1.49841,-0.957693
561,48.872,1.52657,-0.971088
561.6,48.9327,1.55718,-0.979394
562.2,48.9931,1.59498,-0.987515
562.8,49.0545,1.63739,-0.996708
563.4,49.114,1.66552,-1.00531
564,49.1749,1.70941,-1.01646
564.6,49.2352,1.75562,-1.02697
565.2,49.2964,1.79886,-1.03961
565.8,49.3573,1.84338,-1.05164
566.4,49.418,1.89325,-1.06424
567,49.4788,1.94172,-1.07675
567.6,49.5403,1.99452,-1.08926
568.2,49.6009,2.03826,-1.1044
568.8,49.6614,2.09634,-1.11915
569.4,49.7226,2.14325,-1.13537
570,49.7802,2.1875,-1.14968
570.6,49.8431,2.25342,-1.16492
571.2,49.9043,2.31509,-1.18036
571.8,49.9649,2.3643,-1.19611
572.4,50.0252,2.42644,-1.21327
573,50.0867,2.47375,-1.22959
573.6,50.1478,2.51874,-1.24761
574.2,50.2078,2.56773,-1.26585
574.8,50.2692,2.61267,-1.28505
575.4,50.33,2.64474,-1.30365
576,50.3902,2.68298,-1.32537
576.6,50.4508,2.71297,-1.34451
577.2,50.5112,2.73157,-1.36522
577.8,50.5724,2.74736,-1.38669
578.4,50.6335,2.75685,-1.4086
579,50.6937,2.76043,-1.42791
579.6,50.7534,2.74385,-1.45131
580.2,50.8131,2.72464,-1.47004
580.8,50.8732,2.68192,-1.49336
581.4,50.9335,2.62941,-1.51482
582,50.9932,2.56805,-1.53586
582.6,51.0529,2.4964,-1.55452
583.2,51.1125,2.39998,-1.5751
583.8,51.1709,2.30879,-1.59322
584.4,51.231,2.18643,-1.6139
585,51.2896,2.04063,-1.6322
585.6,51.3476,1.89379,-1.65058
586.2,51.4057,1.7424,-1.66563
586.8,51.4646,1.57435,-1.68017
587.4,51.5226,1.39709,-1.69344
588,51.5797,1.21446,-1.70301
588.6,51.6391,1.02885,-1.71443
589.2,51.6966,0.85213,-1.72777
589.8,51.7558,0.683868,-1.73827
590.4,51.8146,0.525873,-1.74442
591,51.8713,0.385998,-1.7506
591.6,51.9309,0.265466,-1.75714
592.2,51.9902,0.158857,-1.76286
592.8,52.0495,0.083704,-1.7684
593.4,52.1086,0.0025074,-1.77303
594,52.1679,-0.0472307,-1.77498
594.6,52.2278,-0.0895426,-1.77826
595.2,52.2882,-0.130915,-1.78179
595.8,52.3482,-0.149634,-1.78448
596.4,52.4078,-0.175987,-1.78551
597,52.4687,-0.194935,-1.788
597.6,52.5278,-0.207628,-1.79155
598.2,52.5887,-0.223304,-1.79379
598.8,52.6485,-0.231758,-1.79561
599.4,52.7085,-0.233486,-1.79807
600,52.7686,-0.238029,-1.79984
600.6,52.8293,-0.248945,-1.80221
601.2,52.8896,-0.253278,-1.80462
601.8,52.9505,-0.256756,-1.80845
602.4,53.0111,-0.263211,-1.81111
603,53.0718,-0.255077,-1.81178
603.6,53.1316,-0.258822,-1.81342
604.2,53.1918,-0.258424,-1.8145
604.8,53.252,-0.253354,-1.81579
605.4,53.3127,-0.260853,-1.81846
606,53.3718,-0.257,-1.81975
606.6,53.4323,-0.257069,-1.82109
607.2,53.4929,-0.25147,-1.82241
607.8,53.553,-0.249047,-1.82265
608.4,53.6131,-0.249769,-1.82404
609,53.6743,-0.246527,-1.82525
609.6,53.7338,-0.244574,-1.82687
610.2,53.7942,-0.235888,-1.82813
610.8,53.8551,-0.238552,-1.83236
611.4,53.9156,-0.23091,-1.83362
612,53.9757,-0.225222,-1.83472
612.6,54.0353,-0.225768,-1.83557
613.2,54.0975,-0.226261,-1.83691
613.8,54.1556,-0.217192,-1.83839
614.4,54.2181,-0.218503,-1.83982
615,54.2773,-0.205088,-1.84258
615.6,54.3386,-0.209112,-1.84523
616.2,54.3983,-0.207009,-1.84518
616.8,54.459,-0.195352,-1.84655
617.4,54.5192,-0.202404,-1.84722
618,54.5802,-0.195326,-1.84687
618.6,54.6413,-0.189146,-1.8483
619.2,54.7018,-0.184362,-1.84785
619.8,54.7588,-0.172568,-1.84979
620.4,54.8222,-0.166359,-1.85021
621,54.8825,-0.164391,-1.84926
621.6,54.943,-0.150004,-1.8506
622.2,55.0038,-0.147171,-1.85189
622.8,55.0635,-0.147905,-1.85356
623.4,55.1253,-0.142887,-1.85338
624,55.1853,-0.126305,-1.85669
624.6,55.2453,-0.126392,-1.85797
625.2,55.306,-0.124608,-1.86071
625.8,55.3668,-0.12266,-1.86197
626.4,55.4273,-0.110327,-1.86324
627,55.487,-0.105702,-1.86442
627.6,55.5481,-0.0948924,-1.86516
628.2,55.6085,-0.0955819,-1.86642
628.8,55.6692,-0.0808472,-1.86642
629.4,55.7289,-0.0811624,-1.86774
630,55.7891,-0.0729727,-1.86817
630.6,55.8499,-0.0721823,-1.87002
631.2,55.9088,-0.0612277,-1.87169
631.8,55.9702,-0.0572386,-1.87204
632.4,56.0314,-0.0507806,-1.87333
633,56.0919,-0.0458982,-1.87416
633.6,56.1506,-0.0421255,-1.87444
634.2,56.2132,-0.0361769,-1.87704
634.8,56.274,-0.0267449,-1.87841
635.4,56.3343,-0.0251851,-1.87699
636,56.395,-0.0199658,-1.87685
636.6,56.4553,-0.0207103,-1.87681
637.2,56.5155,-0.0156805,-1.87991
637.8,56.577,-0.00954034,-1.87988
638.4,56.6377,0.00896023,-1.88016
639,56.6986,0.0104821,-1.88146
639.6,56.7592,0.0251224,-1.8841
640.2,56.8203,0.0295254,-1.88541
640.8,56.8807,0.0374477,-1.88808
641.4,56.9416,0.0410887,-1.88805
642,57.0022,0.0533054,-1.88937
642.6,57.0626,0.058484,-1.88794
643.2,57.1235,0.0575006,-1.88927
643.8,57.1837,0.061397,-1.88936
644.4,57.245,0.0641804,-1.89071
645,57.3055,0.0686493,-1.89199
645.6,57.3662,0.0752112,-1.89393
646.2,57.4246,0.074628,-1.89652
646.8,57.4892,0.0747896,-1.89585
647.4,57.5466,0.0876475,-1.89585
648,57.6097,0.0884925,-1.89844
648.6,57.67,0.0960095,-1.89951
649.2,57.7313,0.0963893,-1.90061
649.8,57.7917,0.0960817,-1.90244
650.4,57.8525,0.0986106,-1.90244
651,57.9123,0.10923,-1.90276
651.6,57.9731,0.109387,-1.90409
652.2,58.0335,0.109817,-1.9054
652.8,58.0944,0.112496,-1.90673
653.4,58.1551,0.120905,-1.90671
654,58.2157,0.123112,-1.90802
654.6,58.2762,0.13317,-1.90739
655.2,58.3375,0.147925,-1.90692
655.8,58.3977,0.150216,-1.90896
656.4,58.4582,0.158983,-1.91208
657,58.5185,0.164432,-1.91472
657.6,58.5789,0.161474,-1.91472
658.2,58.6403,0.176691,-1.9147
658.8,58.7008,0.18336,-1.91473
659.4,58.7613,0.188127,-1.91656
660,58.8214,0.198238,-1.91983
660.6,58.8827,0.200868,-1.9201
661.2,58.9431,0.206296,-1.92153
661.8,59.0033,0.216447,-1.92143
662.4,59.0638,0.217423,-1.92143
663,59.1243,0.227074,-1.92125
663.6,59.185,0.242124,-1.92119
664.2,59.2447,0.244947,-1.92193
664.8,59.3052,0.249499,-1.92564
665.4,59.3662,0.252523,-1.92705
666,59.4275,0.263459,-1.92836
666.6,59.4879,0.264211,-1.92966
667.2,59.5473,0.275824,-1.92966
667.8,59.6087,0.276143,-1.92993
668.4,59.6683,0.282816,-1.93252
669,59.7286,0.287661,-1.93199
669.6,59.7897,0.293135,-1.93199
670.2,59.8492,0.289876,-1.9337
670.8,59.9101,0.296353,-1.93609
671.4,59.9697,0.304667,-1.93701
672,60.0309,0.30828,-1.93599
672.6,60.0915,0.304991,-1.9373
673.2,60.1522,0.310144,-1.93889
673.8,60.2128,0.309834,-1.93998
674.4,60.2735,0.315315,-1.94163
675,60.3334,0.315974,-1.94416
675.6,60.3948,0.320695,-1.94558
676.2,60.4556,0.325568,-1.9442
676.8,60.5161,0.333373,-1.94426
677.4,60.5763,0.336064,-1.94688
678,60.637,0.330796,-1.94685
678.6,60.6972,0.336452,-1.94822
679.2,60.7578,0.337897,-1.94821
679.8,60.8179,0.339274,-1.94787
680.4,60.878,0.341354,-1.94816
681,60.9398,0.35053,-1.94821
681.6,60.9998,0.352686,-1.94821
682.2,61.0611,0.350791,-1.94965
682.8,61.1199,0.351191,-1.95346
683.4,61.181,0.354221,-1.95591
684,61.2411,0.352329,-1.95728
684.6,61.3023,0.355002,-1.95866
685.2,61.3628,0.348096,-1.96
685.8,61.4224,0.35479,-1.96114
686.4,61.4833,0.354195,-1.95996
687,61.5446,0.351499,-1.95996
687.6,61.6042,0.363088,-1.96248
688.2,61.6655,0.360807,-1.96241
688.8,61.7253,0.358577,-1.96138
689.4,61.7872,0.364786,-1.96357
690,61.8471,0.36773,-1.96385
690.6,61.9082,0.369009,-1.96812
691.2,61.9686,0.371904,-1.96611
691.8,62.0283,0.372182,-1.96601
692.4,62.0894,0.371226,-1.96896
693,62.1491,0.37135,-1.97028
693.6,62.2105,0.382892,-1.97029
694.2,62.2712,0.377935,-1.97098
694.8,62.3319,0.386033,-1.97317
695.4,62.3928,0.374151,-1.9755
696,62.452,0.383777,-1.97709
696.6,62.5124,0.387701,-1.97811
697.2,62.5728,0.379282,-1.97917
697.8,62.6349,0.386048,-1.98093
698.4,62.6957,0.386052,-1.98313
699,62.7566,0.389189,-1.98231
699.6,62.8168,0.381853,-1.9826
700.2,62.8769,0.386437,-1.98147
700.8,62.9381,0.387926,-1.98015
701.4,62.998,0.393976,-1.98148
702,63.0591,0.407624,-1.9828
702.6,63.1204,0.403982,-1.98437
703.2,63.18,0.413413,-1.98559
703.8,63.2415,0.408371,-1.98828
704.4,63.3025,0.400277,-1.98965
705,63.3635,0.403846,-1.98894
705.6,63.4238,0.403782,-1.98776
706.2,63.4845,0.406854,-1.99076
706.8,63.5448,0.399115,-1.99371
707.4,63.6068,0.399002,-1.997
708,63.6674,0.398814,-1.99848
708.6,63.7271,0.398764,-1.99849
709.2,63.7889,0.395763,-2.00084
709.8,63.8496,0.393231,-2.00112
710.4,63.9106,0.390364,-2.00112
711,63.9696,0.395966,-2.00112
711.6,64.0315,0.395102,-2.00256
712.2,64.0926,0.391551,-2.00358
712.8,64.1527,0.388055,-2.00642
713.4,64.2134,0.387991,-2.00815
714,64.275,0.389147,-2.00944
714.6,64.3351,0.386826,-2.01088
715.2,64.3962,0.379991,-2.01256
715.8,64.457,0.380985,-2.01434
716.4,64.5174,0.383106,-2.01298
717,64.5758,0.384454,-2.01298
717.6,64.6406,0.37945,-2.01341
718.2,64.7007,0.381017,-2.01427
718.8,64.7621,0.374332,-2.01432
719.4,64.8225,0.372555,-2.01547
720,64.8832,0.355386,-2.01562
720.6,64.9436,0.359664,-2.01796
721.2,65.0051,0.353169,-2.01721
721.8,65.0661,0.3464,-2.01974
722.4,65.1268,0.345131,-2.02089
723,65.1884,0.34249,-2.02216
723.6,65.2472,0.345117,-2.02499
724.2,65.3097,0.338359,-2.02627
724.8,65.3707,0.334968,-2.02757
725.4,65.4311,0.329245,-2.0289
726,65.4918,0.319241,-2.0289
726.6,65.553,0.316363,-2.03047
727.2,65.6138,0.310127,-2.03341
727.8,65.6754,0.305986,-2.03546
728.4,65.7362,0.303474,-2.03623
729,65.7959,0.302041,-2.03713
729.6,65.8577,0.297016,-2.03846
730.2,65.9182,0.298302,-2.03847
730.8,65.9789,0.301237,-2.03873
731.4,66.0398,0.292129,-2.03978
732,66.1007,0.291063,-2.04106
732.6,66.1615,0.28372,-2.04241
733.2,66.2225,0.277208,-2.04369
733.8,66.2825,0.271401,-2.04503
734.4,66.3436,0.269838,-2.04645
735,66.4045,0.261971,-2.04898
735.6,66.4625,0.249528,-2.04849
736.2,66.5256,0.248099,-2.04768
736.8,66.5864,0.2323,-2.05029
737.4,66.6468,0.218987,-2.05184
738,66.7064,0.22428,-2.05257
738.6,66.768,0.21585,-2.05185
739.2,66.8286,0.208226,-2.05326
739.8,66.8882,0.2009,-2.05548
740.4,66.9499,0.191435,-2.05488
741,67.0103,0.194508,-2.05599
741.6,67.0708,0.185354,-2.05742
742.2,67.1314,0.178205,-2.05876
742.8,67.1925,0.164908,-2.05812
743.4,67.2532,0.161955,-2.06073
744,67.3143,0.148884,-2.05916
744.6,67.3742,0.140243,-2.06147
745.2,67.4354,0.125905,-2.06336
745.8,67.4962,0.124309,-2.06604
746.4,67.5575,0.122508,-2.06596
747,67.6169,0.120561,-2.06732
747.6,67.6787,0.116208,-2.06792
748.2,67.7407,0.111442,-2.06864
748.8,67.8015,0.103055,-2.06996
749.4,67.8624,0.0990509,-2.07086
750,67.9236,0.0943544,-2.07132
750.6,67.984,0.0832096,-2.07361
751.2,68.0447,0.0735073,-2.07662
751.8,68.1063,0.0755837,-2.07794
752.4,68.1669,0.0705721,-2.07514
753,68.2262,0.0635858,-2.07493
753.6,68.2892,0.0491463,-2.07633
754.2,68.3494,0.0487413,-2.07765
754.8,68.4108,0.0493141,-2.07897
755.4,68.4725,0.0335556,-2.07761
756,68.5336,0.0238425,-2.08098
756.6,68.5943,0.0217602,-2.08226
757.2,68.6556,0.010259,-2.08237
757.8,68.7173,0.00521554,-2.08486
758.4,68.7783,-0.00732899,-2.08611
759,68.8382,-0.00996747,-2.08621
759.6,68.8997,-0.00970713,-2.08753
760.2,68.9609,-0.01658,-2.08884
760.8,69.0234,-0.0166662,-2.09012
761.4,69.0831,-0.0283854,-2.09023
762,69.145,-0.0308916,-2.09008
762.6,69.2059,-0.0343839,-2.09453
763.2,69.2674,-0.0456422,-2.09673
763.8,69.3288,-0.0403541,-2.09674
764.4,69.3902,-0.0547249,-2.09674
765,69.4516,-0.0602096,-2.09672
765.6,69.513,-0.0660687,-2.09806
766.2,69.5733,-0.0733247,-2.09937
766.8,69.635,-0.0758408,-2.10064
767.4,69.6962,-0.0796469,-2.10196
768,69.758,-0.0853515,-2.10332
768.6,69.8197,-0.0852599,-2.10465
769.2,69.8806,-0.0944386,-2.10433
769.8,69.9412,-0.0889745,-2.1044
770.4,70.0033,-0.0982689,-2.10652
771,70.0645,-0.100619,-2.10716
771.6,70.1254,-0.109458,-2.10574
772.2,70.1864,-0.111871,-2.10578
772.8,70.2478,-0.117904,-2.10576
773.4,70.3087,-0.118549,-2.10446
774,70.3707,-0.11992,-2.10252
774.6,70.4295,-0.121196,-2.1037
775.2,70.4929,-0.127999,-2.10521
775.8,70.5531,-0.134112,-2.10761
776.4,70.6154,-0.136996,-2.10962
777,70.6761,-0.145855,-2.11221
777.6,70.7362,-0.141846,-2.11096
778.2,70.7989,-0.143743,-2.11077
778.8,70.8602,-0.16013,-2.11232
779.4,70.9212,-0.156322,-2.11232
780,70.9817,-0.159989,-2.11217
780.6,71.044,-0.16637,-2.11234
781.2,71.1042,-0.171084,-2.115
781.8,71.1672,-0.173949,-2.11811
782.4,71.2284,-0.177044,-2.11913
783,71.2898,-0.177303,-2.12013
783.6,71.3508,-0.18411,-2.12131
784.2,71.41,-0.18498,-2.12013
784.8,71.4737,-0.188059,-2.12145
785.4,71.5353,-0.189199,-2.12145
786,71.5959,-0.189406,-2.12143
786.6,71.658,-0.198029,-2.1221
787.2,71.7199,-0.203397,-2.12342
787.8,71.7803,-0.199565,-2.12342
788.4,71.843,-0.206029,-2.12304
789,71.9036,-0.200841,-2.12309
789.6,71.9657,-0.211142,-2.1237
790.2,72.0277,-0.223167,-2.12576
790.8,72.0887,-0.216161,-2.12676
791.4,72.1499,-0.219073,-2.1265
792,72.2118,-0.2201,-2.1242
792.6,72.2726,-0.225636,-2.12417
793.2,72.3352,-0.227573,-2.12688
793.8,72.3963,-0.228595,-2.12958
794.4,72.4583,-0.231574,-2.13099
795,72.5199,-0.235907,-2.13236
795.6,72.581,-0.246845,-2.13101
796.2,72.641,-0.250091,-2.13232
796.8,72.705,-0.248304,-2.13306
797.4,72.767,-0.250476,-2.13224
798,72.8283,-0.247927,-2.13363
798.6,72.887,-0.248741,-2.13167
799.2,72.9519,-0.255299,-2.13298
799.8,73.0138,-0.258252,-2.13319
800.4,73.0759,-0.257855,-2.13429
801,73.1369,-0.256878,-2.13563
801.6,73.1987,-0.26061,-2.13693
802.2,73.26,-0.268663,-2.13692
802.8,73.3222,-0.270169,-2.13824
803.4,73.384,-0.265352,-2.13554
804,73.4455,-0.269783,-2.13714
804.6,73.5066,-0.273073,-2.13703
805.2,73.5694,-0.267166,-2.13703
805.8,73.6304,-0.266845,-2.13855
806.4,73.691,-0.269941,-2.14001
807,73.7537,-0.274933,-2.13916
807.6,73.8155,-0.272334,-2.13905
808.2,73.878,-0.268399,-2.14131
808.8,73.9395,-0.264776,-2.14002
809.4,74.0008,-0.262978,-2.14001
810,74.0616,-0.262068,-2.14132
810.6,74.1238,-0.26124,-2.13978
811.2,74.186,-0.258094,-2.14135
811.8,74.2485,-0.260984,-2.14418
812.4,74.3091,-0.259661,-2.14418
813,74.3715,-0.26026,-2.14418
813.6,74.4335,-0.25675,-2.14689
814.2,74.4951,-0.260072,-2.14823
814.8,74.5569,-0.25743,-2.14724
815.4,74.6179,-0.252288,-2.14553
816,74.6792,-0.261488,-2.1456
816.6,74.7429,-0.252509,-2.14824
817.2,74.8047,-0.248626,-2.147
817.8,74.8667,-0.243635,-2.14725
818.4,74.9288,-0.249358,-2.14725
819,74.9912,-0.241266,-2.14789
819.6,75.0531,-0.241112,-2.14921
820.2,75.1145,-0.235948,-2.14955
820.8,75.1767,-0.228668,-2.14956
821.4,75.2385,-0.228871,-2.15087
822,75.3019,-0.228488,-2.15086
822.6,75.3638,-0.226873,-2.15087
823.2,75.4253,-0.226909,-2.15184
823.8,75.4869,-0.234662,-2.15219
824.4,75.5495,-0.235365,-2.1521
825,75.611,-0.226341,-2.15485
825.6,75.6733,-0.227891,-2.15482
826.2,75.7351,-0.226237,-2.15482
826.8,75.7968,-0.22983,-2.15352
827.4,75.859,-0.227862,-2.15349
828,75.9208,-0.231105,-2.1536
828.6,75.9828,-0.234576,-2.15479
829.2,76.0448,-0.22607,-2.15614
829.8,76.1062,-0.230579,-2.15614
830.4,76.1683,-0.234847,-2.15614
831,76.2301,-0.237702,-2.15612
831.6,76.2926,-0.235598,-2.15482
832.2,76.3546,-0.236618,-2.15614
832.8,76.4177,-0.243033,-2.15749
833.4,76.4793,-0.244808,-2.15744
834,76.5393,-0.245016,-2.15614
834.6,76.6009,-0.247515,-2.15746
835.2,76.6635,-0.254524,-2.15884
835.8,76.7267,-0.248744,-2.15878
836.4,76.79,-0.252349,-2.15882
837,76.8507,-0.258987,-2.1598
837.6,76.9131,-0.258386,-2.15881
838.2,76.9743,-0.256074,-2.16103
838.8,77.0364,-0.263568,-2.1611
839.4,77.0985,-0.268181,-2.16276
840,77.161,-0.279629,-2.16271