File: 01_Data/Turnout_Gear_Shell/STA/N2/10K_min/Turnout_Gear_Shell_STA_N2_10KData_240516_R1.csv
Temp./C,Time/min,DSC/(mW/mg),Mass loss/mg
60.0,0.0,1.08011,-0.0546441
60.6,0.0682094,1.10978,-0.0540735
61.2,0.135996,1.13277,-0.0543851
61.8,0.203121,1.15407,-0.0543427
62.4,0.269573,1.17209,-0.0530195
63,0.334692,1.19416,-0.0530235
63.6,0.401017,1.21286,-0.0516585
64.2,0.464129,1.2245,-0.0529875
64.8,0.531702,1.24861,-0.0535816
65.4,0.594863,1.25935,-0.0530211
66,0.658796,1.2695,-0.054641
66.6,0.723565,1.2952,-0.0561394
67.2,0.788912,1.31261,-0.0574204
67.8,0.852721,1.33287,-0.0562677
68.4,0.916318,1.34597,-0.0573649
69,0.979552,1.3604,-0.05874
69.6,1.04412,1.37495,-0.058651
70.2,1.10609,1.39078,-0.06006
70.8,1.16995,1.40048,-0.0600606
71.4,1.2326,1.42164,-0.0591726
72,1.29726,1.44056,-0.0577495
72.6,1.3599,1.45457,-0.0577343
73.2,1.42306,1.46943,-0.0590898
73.8,1.48449,1.48338,-0.0612693
74.4,1.54834,1.49951,-0.0618276
75,1.60975,1.51233,-0.0611608
75.6,1.67232,1.52464,-0.0638378
76.2,1.73432,1.53746,-0.0659883
76.8,1.79642,1.55626,-0.0665135
77.4,1.85816,1.5695,-0.0650999
78,1.92123,1.57869,-0.0650965
78.6,1.98265,1.59754,-0.0664199
79.2,2.04202,1.61322,-0.0677391
79.8,2.10617,1.616,-0.0690445
80.4,2.16795,1.62747,-0.0690704
81,2.22845,1.64228,-0.0704111
81.6,2.29117,1.65014,-0.0703358
82.2,2.35227,1.66826,-0.0716972
82.8,2.41237,1.6734,-0.0704448
83.4,2.47422,1.68484,-0.0706038
84,2.53535,1.6979,-0.0732289
84.6,2.59648,1.70602,-0.07323
85.2,2.65701,1.70695,-0.0745053
85.8,2.71793,1.72372,-0.0752084
86.4,2.77823,1.72775,-0.076529
87,2.83877,1.73167,-0.0771796
87.6,2.89836,1.738,-0.075864
88.2,2.9576,1.75209,-0.0758592
88.8,3.01764,1.75576,-0.0771841
89.4,3.0777,1.76719,-0.0773508
90,3.13866,1.76151,-0.0798202
90.6,3.19536,1.7669,-0.07982
91.2,3.2579,1.77695,-0.07982
91.8,3.31786,1.78298,-0.0798202
92.4,3.37451,1.77776,-0.0791519
93,3.43572,1.77884,-0.0791601
93.6,3.49539,1.78644,-0.079754
94.2,3.55556,1.78454,-0.0817207
94.8,3.61382,1.78611,-0.0843598
95.4,3.67261,1.78681,-0.0857498
96,3.73079,1.78017,-0.08575
96.6,3.78909,1.79176,-0.08575
97.2,3.84962,1.78302,-0.08575
97.8,3.90877,1.78616,-0.08575
98.4,3.96827,1.78674,-0.0857512
99,4.02517,1.79017,-0.087441
99.6,4.08383,1.78317,-0.0883542
100.2,4.14155,1.78946,-0.0896886
100.8,4.20036,1.7866,-0.0893294
101.4,4.25942,1.78447,-0.0906795
102,4.31807,1.78372,-0.09068
102.6,4.37715,1.78177,-0.0906798
103.2,4.43483,1.77524,-0.0919886
103.8,4.49441,1.77478,-0.0930875
104.4,4.55149,1.77716,-0.09332
105,4.60999,1.76797,-0.0933908
105.6,4.66566,1.76927,-0.0946402
106.2,4.72642,1.7707,-0.0946401
106.8,4.78525,1.76245,-0.0938701
107.4,4.84298,1.75477,-0.0946602
108,4.90214,1.7557,-0.0946221
108.6,4.95951,1.7538,-0.0959516
109.2,5.01568,1.74923,-0.0972699
109.8,5.07651,1.74158,-0.09727
110.4,5.13328,1.74229,-0.09727
111,5.19255,1.74293,-0.0972701
111.6,5.24651,1.73595,-0.0974659
112.2,5.30745,1.72978,-0.0985961
112.8,5.36598,1.7288,-0.0999122
113.4,5.42421,1.72995,-0.101221
114,5.48172,1.72328,-0.101222
114.6,5.54035,1.71242,-0.102545
115.2,5.59751,1.7088,-0.103291
115.8,5.65638,1.70714,-0.104519
116.4,5.71382,1.6999,-0.104516
117,5.77138,1.70237,-0.105183
117.6,5.8299,1.69816,-0.10518
118.2,5.88785,1.69828,-0.103885
118.8,5.94612,1.69538,-0.103827
119.4,6.00351,1.69314,-0.10452
120,6.06096,1.68611,-0.10452
120.6,6.11988,1.69252,-0.10452
121.2,6.17701,1.68835,-0.10452
121.8,6.23503,1.68886,-0.10452
122.4,6.292,1.6898,-0.10452
123,6.35089,1.68765,-0.10452
123.6,6.40928,1.68174,-0.105897
124.2,6.46664,1.66898,-0.1065
124.8,6.52422,1.65072,-0.105219
125.4,6.58151,1.64108,-0.106488
126,6.63984,1.63142,-0.107801
126.6,6.698,1.6202,-0.108038
127.2,6.75448,1.61249,-0.110451
127.8,6.81187,1.60584,-0.11045
128.4,6.87049,1.59971,-0.11045
129,6.928,1.60077,-0.11045
129.6,6.98583,1.5961,-0.11045
130.2,7.04393,1.59152,-0.109799
130.8,7.10067,1.58867,-0.111034
131.4,7.15752,1.58619,-0.111763
132,7.21551,1.5782,-0.113088
132.6,7.27354,1.57632,-0.11176
133.2,7.33118,1.57883,-0.11176
133.8,7.38836,1.5722,-0.110326
134.4,7.44587,1.57049,-0.11045
135,7.50402,1.56175,-0.11045
135.6,7.56088,1.55559,-0.11045
136.2,7.61839,1.55568,-0.110411
136.8,7.67491,1.55428,-0.108776
137.4,7.73442,1.54736,-0.110646
138,7.79194,1.54882,-0.111554
138.6,7.84783,1.53802,-0.112945
139.2,7.90549,1.53604,-0.113512
139.8,7.96296,1.53305,-0.11451
140.4,8.02083,1.52916,-0.11451
141,8.07849,1.53247,-0.11451
141.6,8.13591,1.52864,-0.11451
142.2,8.19301,1.52753,-0.11451
142.8,8.25075,1.52301,-0.11451
143.4,8.30795,1.52559,-0.11451
144,8.36296,1.51857,-0.114512
144.6,8.42312,1.51671,-0.114178
145.2,8.47905,1.51662,-0.114737
145.8,8.53773,1.51664,-0.11549
146.4,8.59427,1.51113,-0.11549
147,8.65114,1.51669,-0.114165
147.6,8.70784,1.50942,-0.11417
148.2,8.76672,1.50844,-0.114172
148.8,8.82345,1.5025,-0.115486
149.4,8.8807,1.49946,-0.116844
150,8.93756,1.49863,-0.11681
150.6,8.99488,1.50653,-0.1168
151.2,9.0522,1.49948,-0.117482
151.8,9.10957,1.4977,-0.11879
152.4,9.16613,1.50377,-0.118789
153,9.22352,1.49982,-0.118082
153.6,9.28148,1.50215,-0.11846
154.2,9.33922,1.4949,-0.11846
154.8,9.39537,1.49787,-0.117411
155.4,9.45201,1.50489,-0.11714
156,9.51042,1.50538,-0.11714
156.6,9.56673,1.49997,-0.118495
157.2,9.62382,1.50746,-0.117799
157.8,9.68125,1.50569,-0.119115
158.4,9.73815,1.50379,-0.119117
159,9.7964,1.49472,-0.120435
159.6,9.85306,1.49646,-0.121798
160.2,9.9107,1.50048,-0.120436
160.8,9.9676,1.50072,-0.119874
161.4,10.0255,1.50062,-0.118484
162,10.0822,1.50661,-0.117128
162.6,10.1386,1.50256,-0.118462
163.2,10.1956,1.50236,-0.119814
163.8,10.2528,1.49711,-0.1211
164.4,10.3106,1.51279,-0.120473
165,10.3678,1.51119,-0.118256
165.6,10.4245,1.51791,-0.118241
166.2,10.4823,1.51579,-0.119557
166.8,10.5394,1.51275,-0.120954
167.4,10.5963,1.51171,-0.121295
168,10.652,1.51726,-0.12131
168.6,10.7096,1.51461,-0.12131
169.2,10.7679,1.51883,-0.121306
169.8,10.8231,1.52363,-0.120328
170.4,10.8811,1.52875,-0.119999
171,10.9385,1.53201,-0.12
171.6,10.9951,1.52924,-0.119994
172.2,11.053,1.51868,-0.12064
172.8,11.1101,1.5274,-0.121322
173.4,11.1669,1.53181,-0.121663
174,11.2244,1.53141,-0.12263
174.6,11.2803,1.54022,-0.122586
175.2,11.3386,1.54236,-0.12131
175.8,11.3955,1.53815,-0.12131
176.4,11.4499,1.54268,-0.12136
177,11.5093,1.54174,-0.121023
177.6,11.5665,1.54605,-0.121948
178.2,11.623,1.54437,-0.12197
178.8,11.6803,1.54673,-0.121972
179.4,11.7384,1.54885,-0.12261
180,11.7955,1.5587,-0.123955
180.6,11.8528,1.56431,-0.12395
181.2,11.909,1.56931,-0.124578
181.8,11.9662,1.56972,-0.125613
182.4,12.0243,1.56362,-0.12593
183,12.0813,1.56427,-0.12593
183.6,12.137,1.57368,-0.124611
184.2,12.1948,1.58091,-0.123198
184.8,12.2514,1.58385,-0.12461
185.4,12.309,1.58598,-0.12461
186,12.3653,1.58765,-0.12461
186.6,12.423,1.58807,-0.12461
187.2,12.48,1.59363,-0.12461
187.8,12.5362,1.59316,-0.125973
188.4,12.5913,1.59639,-0.126841
189,12.6504,1.59551,-0.12691
189.6,12.7082,1.60862,-0.125595
190.2,12.7641,1.60196,-0.126886
190.8,12.8213,1.60052,-0.128232
191.4,12.8792,1.61247,-0.12823
192,12.9354,1.60851,-0.12823
192.6,12.9926,1.61359,-0.12823
193.2,13.0497,1.61602,-0.128241
193.8,13.1074,1.61907,-0.128557
194.4,13.1645,1.61928,-0.12654
195,13.22,1.62472,-0.127244
195.6,13.2775,1.62786,-0.127239
196.2,13.3351,1.62687,-0.128213
196.8,13.3919,1.62962,-0.12823
197.4,13.4479,1.62854,-0.12823
198,13.506,1.63503,-0.12823
198.6,13.5625,1.636,-0.12823
199.2,13.6193,1.64303,-0.12823
199.8,13.6774,1.64909,-0.12823
200.4,13.7332,1.64422,-0.12823
201,13.7905,1.65386,-0.128226
201.6,13.847,1.65479,-0.129548
202.2,13.9052,1.65729,-0.12955
202.8,13.9612,1.65962,-0.12955
203.4,14.0188,1.65591,-0.129558
204,14.0752,1.66253,-0.130698
204.6,14.1318,1.6588,-0.131228
205.2,14.1889,1.66536,-0.131191
205.8,14.2463,1.6638,-0.131156
206.4,14.3028,1.66053,-0.13251
207,14.3607,1.66878,-0.132425
207.6,14.4177,1.67015,-0.133255
208.2,14.4754,1.66691,-0.13383
208.8,14.5319,1.66781,-0.133827
209.4,14.5882,1.67818,-0.132526
210,14.646,1.67177,-0.131202
210.6,14.7027,1.67044,-0.132515
211.2,14.7598,1.67443,-0.133831
211.8,14.8172,1.67913,-0.135181
212.4,14.8741,1.67595,-0.13515
213,14.9279,1.68588,-0.135022
213.6,14.9871,1.68516,-0.135295
214.2,15.0443,1.6863,-0.13482
214.8,15.1014,1.68857,-0.13482
215.4,15.1594,1.69402,-0.134819
216,15.2164,1.69115,-0.133498
216.6,15.272,1.69865,-0.1335
217.2,15.3298,1.69334,-0.1335
217.8,15.3862,1.70095,-0.1335
218.4,15.4433,1.70794,-0.134812
219,15.5008,1.70238,-0.135493
219.6,15.5575,1.70202,-0.13614
220.2,15.6145,1.70441,-0.136145
220.8,15.6716,1.69901,-0.137459
221.4,15.7277,1.70518,-0.13746
222,15.7851,1.70155,-0.138194
222.6,15.8425,1.70621,-0.13877
223.2,15.8996,1.70996,-0.138165
223.8,15.9563,1.70964,-0.136042
224.4,16.0132,1.71207,-0.137093
225,16.0712,1.71636,-0.13745
225.6,16.1271,1.71098,-0.138636
226.2,16.184,1.71742,-0.13877
226.8,16.2394,1.71354,-0.14021
227.4,16.2988,1.71553,-0.141262
228,16.3563,1.7142,-0.139695
228.6,16.4128,1.72565,-0.14031
229.2,16.4696,1.72023,-0.14033
229.8,16.5269,1.72628,-0.141621
230.4,16.5843,1.72934,-0.14162
231,16.6412,1.72413,-0.141962
231.6,16.6978,1.72593,-0.143946
232.2,16.7554,1.72717,-0.143923
232.8,16.813,1.72878,-0.14261
233.4,16.869,1.72938,-0.14261
234,16.9254,1.72561,-0.14261
234.6,16.983,1.7267,-0.14261
235.2,17.0413,1.73078,-0.142579
235.8,17.0972,1.73126,-0.144264
236.4,17.1542,1.72633,-0.14426
237,17.2123,1.72421,-0.14426
237.6,17.2682,1.73543,-0.144261
238.2,17.3255,1.72941,-0.145574
238.8,17.3823,1.73083,-0.145536
239.4,17.44,1.73066,-0.147597
240,17.4964,1.73114,-0.148209
240.6,17.5535,1.73289,-0.14821
241.2,17.61,1.73093,-0.14821
241.8,17.6675,1.73463,-0.14821
242.4,17.7249,1.73409,-0.14821
243,17.7814,1.73792,-0.14821
243.6,17.8387,1.74043,-0.148629
244.2,17.896,1.7398,-0.14953
244.8,17.953,1.74388,-0.149485
245.4,18.01,1.74056,-0.15085
246,18.0667,1.7513,-0.15085
246.6,18.1241,1.75257,-0.15085
247.2,18.1807,1.74861,-0.15085
247.8,18.2376,1.74349,-0.15085
248.4,18.2954,1.74351,-0.151252
249,18.3525,1.74682,-0.153443
249.6,18.4084,1.75133,-0.154799
250.2,18.4656,1.74938,-0.1548
250.8,18.5234,1.74525,-0.153983
251.4,18.5803,1.75103,-0.15447
252,18.6369,1.74563,-0.15447
252.6,18.6939,1.75422,-0.15447
253.2,18.7524,1.74929,-0.15447
253.8,18.8085,1.75283,-0.15447
254.4,18.8652,1.74629,-0.154462
255,18.9221,1.75107,-0.156078
255.6,18.9798,1.7448,-0.15776
256.2,19.0377,1.74676,-0.157788
256.8,19.0948,1.74709,-0.15908
257.4,19.151,1.74812,-0.16026
258,19.2089,1.74871,-0.161804
258.6,19.2654,1.74766,-0.162802
259.2,19.3227,1.75258,-0.161924
259.8,19.3799,1.75561,-0.16182
260.4,19.4371,1.75306,-0.161821
261,19.4934,1.75541,-0.163123
261.6,19.5511,1.75608,-0.164471
262.2,19.6088,1.75332,-0.165792
262.8,19.6657,1.75693,-0.167092
263.4,19.723,1.76182,-0.169569
264,19.7802,1.7564,-0.16973
264.6,19.8376,1.76007,-0.169337
265.2,19.8946,1.76129,-0.168387
265.8,19.9501,1.75268,-0.163849
266.4,20.0066,1.75783,-0.166982
267,20.0658,1.76225,-0.169692
267.6,20.1227,1.75402,-0.171162
268.2,20.1788,1.75899,-0.172541
268.8,20.2363,1.76089,-0.17247
269.4,20.2939,1.75932,-0.172486
270,20.3519,1.75739,-0.172152
270.6,20.4082,1.76714,-0.173012
271.2,20.4658,1.75445,-0.173567
271.8,20.5227,1.76259,-0.174902
272.4,20.5796,1.76995,-0.17489
273,20.638,1.756,-0.176106
273.6,20.6943,1.76369,-0.176201
274.2,20.7516,1.76127,-0.178394
274.8,20.8091,1.76214,-0.178513
275.4,20.8665,1.76441,-0.177198
276,20.9252,1.76515,-0.17719
276.6,20.9817,1.76071,-0.17719
277.2,21.0387,1.76589,-0.178495
277.8,21.0962,1.76017,-0.17857
278.4,21.153,1.75737,-0.17753
279,21.2101,1.75822,-0.178939
279.6,21.2673,1.75971,-0.182249
280.2,21.3247,1.7601,-0.18393
280.8,21.3827,1.75973,-0.182776
281.4,21.4396,1.75573,-0.184354
282,21.4973,1.76265,-0.185651
282.6,21.5547,1.76735,-0.185649
283.2,21.6123,1.76578,-0.186972
283.8,21.6696,1.76416,-0.18697
284.4,21.7266,1.75867,-0.188243
285,21.7851,1.76336,-0.18875
285.6,21.8413,1.76687,-0.189499
286.2,21.8997,1.75451,-0.19092
286.8,21.9562,1.76258,-0.190921
287.4,22.0146,1.76382,-0.192249
288,22.072,1.76706,-0.19223
288.6,22.129,1.76067,-0.191392
289.2,22.1874,1.7591,-0.192907
289.8,22.2437,1.75861,-0.193669
290.4,22.3012,1.75743,-0.194979
291,22.359,1.75882,-0.19498
291.6,22.4159,1.76164,-0.195131
292.2,22.4739,1.7563,-0.199384
292.8,22.5318,1.76451,-0.198814
293.4,22.5894,1.76011,-0.197034
294,22.6463,1.75406,-0.19707
294.6,22.704,1.7608,-0.199375
295.2,22.761,1.76956,-0.199691
295.8,22.8185,1.76904,-0.202378
296.4,22.8752,1.76221,-0.202778
297,22.9346,1.76667,-0.20365
297.6,22.9908,1.76997,-0.203511
298.2,23.0486,1.77001,-0.20365
298.8,23.1064,1.76987,-0.20365
299.4,23.163,1.76701,-0.203597
300,23.2206,1.76616,-0.205817
300.6,23.2781,1.77244,-0.206938
301.2,23.3364,1.77185,-0.208991
301.8,23.3936,1.77382,-0.209097
302.4,23.4516,1.77235,-0.20881
303,23.5081,1.76955,-0.20881
303.6,23.5657,1.7632,-0.20881
304.2,23.6234,1.76541,-0.20881
304.8,23.6813,1.76949,-0.210937
305.4,23.7384,1.77269,-0.211132
306,23.7961,1.76673,-0.21243
306.6,23.8542,1.76558,-0.21243
307.2,23.9112,1.76489,-0.21243
307.8,23.968,1.76212,-0.214124
308.4,24.0258,1.76311,-0.214078
309,24.0836,1.76239,-0.2154
309.6,24.1406,1.7729,-0.2154
310.2,24.1989,1.7653,-0.216799
310.8,24.2563,1.76778,-0.21671
311.4,24.3147,1.77069,-0.217431
312,24.3722,1.76701,-0.21803
312.6,24.4289,1.76346,-0.218038
313.2,24.4868,1.77037,-0.220037
313.8,24.5454,1.76524,-0.220668
314.4,24.6027,1.76122,-0.221962
315,24.6599,1.75622,-0.22232
315.6,24.7172,1.76033,-0.22232
316.2,24.7753,1.76206,-0.22368
316.8,24.8336,1.76446,-0.22361
317.4,24.8909,1.77046,-0.223574
318,24.9472,1.76941,-0.223647
318.6,25.0058,1.76423,-0.223631
319.2,25.064,1.77082,-0.223631
319.8,25.1192,1.76516,-0.224983
320.4,25.179,1.76438,-0.22824
321,25.2361,1.7662,-0.227264
321.6,25.2933,1.77546,-0.225598
322.2,25.3524,1.75882,-0.224286
322.8,25.4103,1.76312,-0.225612
323.4,25.4667,1.77004,-0.226945
324,25.5247,1.76894,-0.229076
324.6,25.5833,1.76812,-0.22956
325.2,25.6401,1.7662,-0.22956
325.8,25.6978,1.77103,-0.229528
326.4,25.7544,1.76875,-0.230874
327,25.814,1.77038,-0.23219
327.6,25.8721,1.7681,-0.233497
328.2,25.9298,1.76545,-0.234449
328.8,25.988,1.76118,-0.23475
329.4,26.0451,1.76243,-0.237633
330,26.1034,1.75873,-0.238891
330.6,26.1613,1.77101,-0.241594
331.2,26.2189,1.77456,-0.238144
331.8,26.2764,1.76819,-0.238117
332.4,26.3337,1.77376,-0.239083
333,26.3923,1.77405,-0.240739
333.6,26.4517,1.77242,-0.240845
334.2,26.5084,1.76699,-0.241684
334.8,26.5656,1.76627,-0.240759
335.4,26.6247,1.76284,-0.242066
336,26.6819,1.76958,-0.24208
336.6,26.7391,1.77055,-0.244731
337.2,26.7982,1.76278,-0.247434
337.8,26.856,1.7602,-0.247364
338.4,26.9144,1.76181,-0.248672
339,26.9722,1.75225,-0.24998
339.6,27.0304,1.75245,-0.249993
340.2,27.0883,1.75878,-0.251303
340.8,27.1469,1.75878,-0.251306
341.4,27.2031,1.75086,-0.249982
342,27.2623,1.7556,-0.249085
342.6,27.3194,1.75463,-0.248214
343.2,27.378,1.76171,-0.251543
343.8,27.4357,1.7538,-0.252935
344.4,27.4936,1.75741,-0.251093
345,27.5509,1.75522,-0.25174
345.6,27.6098,1.75081,-0.254479
346.2,27.6677,1.75044,-0.257
346.8,27.7259,1.75284,-0.258377
347.4,27.7833,1.74579,-0.263087
348,27.8416,1.7395,-0.262761
348.6,27.8986,1.73818,-0.261402
349.2,27.9575,1.74001,-0.262726
349.8,28.0163,1.73157,-0.263047
350.4,28.0737,1.73147,-0.262773
351,28.1312,1.72999,-0.262107
351.6,28.1909,1.73179,-0.264335
352.2,28.2488,1.73472,-0.265343
352.8,28.3061,1.72837,-0.266661
353.4,28.3642,1.73392,-0.266341
354,28.4241,1.72599,-0.26765
354.6,28.4805,1.72883,-0.267651
355.2,28.5384,1.72887,-0.26699
355.8,28.5962,1.72121,-0.26801
356.4,28.6551,1.72723,-0.268728
357,28.7137,1.71464,-0.2693
357.6,28.7707,1.71394,-0.269301
358.2,28.8294,1.72046,-0.271602
358.8,28.8855,1.71106,-0.272881
359.4,28.9456,1.71217,-0.274359
360,29.003,1.70934,-0.27457
360.6,29.0614,1.71859,-0.27457
361.2,29.1201,1.71414,-0.276782
361.8,29.1776,1.71224,-0.27597
362.4,29.2364,1.71068,-0.275225
363,29.2932,1.69807,-0.277308
363.6,29.3524,1.70007,-0.278735
364.2,29.4101,1.70411,-0.279523
364.8,29.4694,1.70213,-0.280093
365.4,29.5274,1.69517,-0.282795
366,29.5856,1.69504,-0.282704
366.6,29.6434,1.68871,-0.28401
367.2,29.7012,1.68828,-0.283949
367.8,29.7593,1.69054,-0.28401
368.4,29.818,1.6836,-0.284003
369,29.8756,1.68336,-0.286293
369.6,29.934,1.67911,-0.288563
370.2,29.992,1.67672,-0.288788
370.8,30.0508,1.67819,-0.289301
371.4,30.1098,1.67711,-0.287997
372,30.1675,1.67878,-0.291246
372.6,30.2252,1.68016,-0.291261
373.2,30.2839,1.67407,-0.291293
373.8,30.3421,1.67217,-0.291252
374.4,30.401,1.66414,-0.292604
375,30.4586,1.65673,-0.294357
375.6,30.5179,1.66928,-0.29521
376.2,30.5757,1.66417,-0.29521
376.8,30.6344,1.65529,-0.298027
377.4,30.6926,1.65333,-0.299267
378,30.7516,1.65835,-0.299184
378.6,30.8097,1.65302,-0.301749
379.2,30.8682,1.6648,-0.299175
379.8,30.9263,1.65682,-0.29931
380.4,30.9859,1.65568,-0.299171
381,31.0433,1.65039,-0.301811
381.6,31.1017,1.64275,-0.305042
382.2,31.1608,1.64812,-0.307015
382.8,31.2197,1.65117,-0.304715
383.4,31.2778,1.65666,-0.303331
384,31.3364,1.64192,-0.305063
384.6,31.3952,1.65211,-0.308117
385.2,31.4534,1.64737,-0.308654
385.8,31.5116,1.64325,-0.309836
386.4,31.5694,1.64127,-0.310982
387,31.6286,1.64282,-0.312002
387.6,31.6875,1.63966,-0.312203
388.2,31.7464,1.64159,-0.311921
388.8,31.8054,1.64516,-0.310644
389.4,31.8621,1.64108,-0.315094
390,31.9211,1.63773,-0.316418
390.6,31.9794,1.631,-0.318388
391.2,32.0384,1.63879,-0.318927
391.8,32.0963,1.63837,-0.321315
392.4,32.1561,1.63572,-0.321778
393,32.2143,1.63689,-0.323119
393.6,32.2731,1.64381,-0.323093
394.2,32.3325,1.63799,-0.323091
394.8,32.3907,1.63579,-0.324446
395.4,32.4488,1.64043,-0.325751
396,32.5075,1.64043,-0.32704
396.6,32.566,1.64328,-0.32843
397.2,32.6245,1.64107,-0.329702
397.8,32.6839,1.639,-0.329692
398.4,32.7411,1.64277,-0.330959
399,32.7998,1.64142,-0.331434
399.6,32.8577,1.64324,-0.332625
400.2,32.9175,1.64586,-0.334272
400.8,32.976,1.6414,-0.336639
401.4,33.0346,1.63761,-0.336594
402,33.0945,1.64472,-0.33726
402.6,33.1517,1.6473,-0.339359
403.2,33.2109,1.64632,-0.342692
403.8,33.2687,1.64511,-0.342786
404.4,33.3277,1.6439,-0.342746
405,33.3865,1.64157,-0.34274
405.6,33.4457,1.64813,-0.344137
406.2,33.5039,1.65041,-0.345707
406.8,33.5622,1.65002,-0.348848
407.4,33.6215,1.64896,-0.349786
408,33.6794,1.64884,-0.352112
408.6,33.7384,1.64695,-0.353365
409.2,33.7964,1.64756,-0.353391
409.8,33.8555,1.64843,-0.354722
410.4,33.9143,1.65564,-0.35603
411,33.973,1.64963,-0.357475
411.6,34.0316,1.64892,-0.358773
412.2,34.0902,1.65026,-0.357347
412.8,34.1482,1.6579,-0.358759
413.4,34.2068,1.65966,-0.360894
414,34.2661,1.66009,-0.362883
414.6,34.3254,1.65683,-0.365131
415.2,34.3831,1.66029,-0.364008
415.8,34.4427,1.66051,-0.364043
416.4,34.5014,1.66087,-0.364707
417,34.5602,1.66037,-0.366049
417.6,34.6183,1.6629,-0.3689
418.2,34.6774,1.66942,-0.371208
418.8,34.736,1.66797,-0.374146
419.4,34.7949,1.6732,-0.372602
420,34.854,1.67324,-0.374361
420.6,34.9122,1.6737,-0.37616
421.2,34.9717,1.67446,-0.376511
421.8,35.0305,1.67816,-0.378455
422.4,35.0893,1.67367,-0.377834
423,35.1475,1.67831,-0.377667
423.6,35.2069,1.6849,-0.378585
424.2,35.2638,1.68465,-0.381974
424.8,35.3233,1.6854,-0.384696
425.4,35.3825,1.687,-0.384655
426,35.4423,1.68821,-0.386016
426.6,35.5,1.6983,-0.38599
427.2,35.5595,1.69758,-0.384599
427.8,35.617,1.68647,-0.389278
428.4,35.6767,1.68623,-0.392322
429,35.7366,1.68842,-0.393581
429.6,35.7947,1.69533,-0.39357
430.2,35.8539,1.6955,-0.395215
430.8,35.9129,1.6962,-0.395644
431.4,35.972,1.69259,-0.397533
432,36.0305,1.69595,-0.398788
432.6,36.09,1.69112,-0.400587
433.2,36.1485,1.68968,-0.400958
433.8,36.2071,1.68381,-0.402221
434.4,36.2671,1.67945,-0.403695
435,36.326,1.67933,-0.40488
435.6,36.3849,1.68523,-0.404207
436.2,36.4432,1.68731,-0.403934
436.8,36.5033,1.67815,-0.406693
437.4,36.5624,1.6796,-0.410128
438,36.6217,1.68013,-0.411469
438.6,36.6798,1.68146,-0.411996
439.2,36.739,1.68639,-0.412924
439.8,36.7978,1.67822,-0.414214
440.4,36.857,1.67835,-0.416863
441,36.9154,1.68119,-0.418173
441.6,36.9744,1.68002,-0.41948
442.2,37.0313,1.68843,-0.418116
442.8,37.0902,1.68398,-0.417078
443.4,37.151,1.68053,-0.420154
444,37.2102,1.68596,-0.422284
444.6,37.2709,1.67626,-0.424205
445.2,37.3281,1.68098,-0.425539
445.8,37.3869,1.68106,-0.426803
446.4,37.4458,1.68108,-0.426819
447,37.505,1.67924,-0.428158
447.6,37.5646,1.6786,-0.430797
448.2,37.6224,1.68137,-0.4321
448.8,37.6822,1.67613,-0.433427
449.4,37.7408,1.67808,-0.435649
450,37.8003,1.68289,-0.437463
450.6,37.8599,1.68183,-0.43738
451.2,37.9183,1.6824,-0.440108
451.8,37.9771,1.67999,-0.441452
452.4,38.0371,1.6784,-0.442116
453,38.0959,1.67672,-0.443418
453.6,38.1553,1.67435,-0.444736
454.2,38.2146,1.68441,-0.445444
454.8,38.2735,1.67313,-0.446063
455.4,38.3338,1.67168,-0.447371
456,38.3925,1.66697,-0.451543
456.6,38.4513,1.65667,-0.452896
457.2,38.5117,1.66046,-0.455392
457.8,38.5696,1.65548,-0.455613
458.4,38.6289,1.65568,-0.454885
459,38.6883,1.65806,-0.456604
459.6,38.748,1.65437,-0.45636
460.2,38.808,1.65291,-0.457368
460.8,38.8676,1.64832,-0.459892
461.4,38.9274,1.64962,-0.462312
462,38.9861,1.64762,-0.463588
462.6,39.0462,1.64829,-0.463502
463.2,39.1039,1.64855,-0.463514
463.8,39.1634,1.64642,-0.464817
464.4,39.2236,1.64686,-0.466138
465,39.2833,1.64618,-0.465322
465.6,39.3431,1.64407,-0.466262
466.2,39.4024,1.6373,-0.469477
466.8,39.4612,1.63915,-0.471581
467.4,39.5208,1.63036,-0.472834
468,39.5799,1.62994,-0.475478
468.6,39.6394,1.63078,-0.476791
469.2,39.6995,1.63778,-0.476852
469.8,39.7588,1.64008,-0.476861
470.4,39.8174,1.64371,-0.478117
471,39.8764,1.65133,-0.47942
471.6,39.9353,1.64444,-0.480097
472.2,39.996,1.63992,-0.479326
472.8,40.0551,1.63383,-0.480175
473.4,40.1143,1.61691,-0.483658
474,40.1747,1.61563,-0.486054
474.6,40.2337,1.60736,-0.487966
475.2,40.2936,1.5997,-0.48895
475.8,40.3532,1.59426,-0.489971
476.4,40.4119,1.59287,-0.491183
477,40.4713,1.58691,-0.492602
477.6,40.531,1.58254,-0.493926
478.2,40.5898,1.57913,-0.495319
478.8,40.6501,1.57467,-0.494838
479.4,40.7091,1.5788,-0.493617
480,40.7691,1.57169,-0.49399
480.6,40.8285,1.56372,-0.495231
481.2,40.8874,1.56091,-0.495392
481.8,40.9476,1.55472,-0.497924
482.4,41.0069,1.54989,-0.499162
483,41.0661,1.5542,-0.501886
483.6,41.1255,1.54504,-0.503141
484.2,41.1851,1.54986,-0.503684
484.8,41.2442,1.54429,-0.502162
485.4,41.3043,1.5372,-0.50314
486,41.3635,1.53755,-0.504425
486.6,41.4224,1.52396,-0.507117
487.2,41.4822,1.52101,-0.509157
487.8,41.5428,1.51799,-0.50973
488.4,41.6014,1.50695,-0.509821
489,41.6595,1.50871,-0.512353
489.6,41.7206,1.50413,-0.512852
490.2,41.7801,1.50532,-0.511068
490.8,41.8397,1.50651,-0.512392
491.4,41.8993,1.50596,-0.513638
492,41.9585,1.51034,-0.51503
492.6,42.019,1.50004,-0.515228
493.2,42.0776,1.50413,-0.51631
493.8,42.1371,1.49785,-0.514944
494.4,42.1963,1.50376,-0.516281
495,42.2566,1.49725,-0.517645
495.6,42.3157,1.49651,-0.51894
496.2,42.3753,1.4989,-0.519005
496.8,42.4346,1.4987,-0.519628
497.4,42.4955,1.5023,-0.52026
498,42.5542,1.502,-0.521581
498.6,42.6146,1.49599,-0.52158
499.2,42.6734,1.49882,-0.522854
499.8,42.7326,1.50268,-0.522831
500.4,42.7928,1.50074,-0.525134
501,42.852,1.50454,-0.524217
501.6,42.9126,1.49819,-0.524149
502.2,42.9714,1.49338,-0.525555
502.8,43.0318,1.49729,-0.526861
503.4,43.0917,1.48918,-0.528158
504,43.1512,1.4971,-0.529361
504.6,43.2105,1.49824,-0.531514
505.2,43.2709,1.49846,-0.532201
505.8,43.3298,1.48794,-0.534553
506.4,43.3899,1.49122,-0.53755
507,43.4493,1.48159,-0.538892
507.6,43.5094,1.4811,-0.540249
508.2,43.5694,1.48812,-0.538946
508.8,43.6279,1.48002,-0.540255
509.4,43.6885,1.4816,-0.540244
510,43.7491,1.48894,-0.541568
510.6,43.8082,1.49656,-0.542781
511.2,43.8679,1.50297,-0.54288
511.8,43.9261,1.50908,-0.543053
512.4,43.9864,1.51401,-0.544402
513,44.0465,1.51857,-0.546932
513.6,44.1072,1.52229,-0.547134
514.2,44.1634,1.52135,-0.548743
514.8,44.2259,1.52598,-0.551037
515.4,44.2864,1.5393,-0.550982
516,44.3457,1.55331,-0.552996
516.6,44.4057,1.56376,-0.554433
517.2,44.4663,1.5699,-0.556286
517.8,44.5258,1.57628,-0.557586
518.4,44.5846,1.59033,-0.55891
519,44.6452,1.60453,-0.560758
519.6,44.7043,1.61808,-0.562881
520.2,44.7647,1.63464,-0.565727
520.8,44.825,1.64131,-0.569963
521.4,44.8845,1.66089,-0.571397
522,44.9446,1.67784,-0.571461
522.6,45.0046,1.69456,-0.572958
523.2,45.0637,1.70489,-0.572945
523.8,45.1216,1.71802,-0.574352
524.4,45.1833,1.73691,-0.574351
525,45.2439,1.75547,-0.580434
525.6,45.3045,1.77613,-0.581964
526.2,45.3636,1.79225,-0.583135
526.8,45.423,1.81702,-0.583633
527.4,45.4831,1.83509,-0.585409
528,45.5429,1.85456,-0.588772
528.6,45.6032,1.87643,-0.591968
529.2,45.6631,1.8952,-0.596163
529.8,45.7219,1.9175,-0.598651
530.4,45.7825,1.94123,-0.600806
531,45.8423,1.97291,-0.603805
531.6,45.9031,1.98424,-0.606876
532.2,45.961,2.00609,-0.60862
532.8,46.022,2.02408,-0.610936
533.4,46.0819,2.03335,-0.615907
534,46.1432,2.04379,-0.6206
534.6,46.2021,2.05875,-0.623534
535.2,46.263,2.07116,-0.626216
535.8,46.3232,2.0736,-0.631092
536.4,46.3837,2.06753,-0.634853
537,46.4435,2.06077,-0.637477
537.6,46.5036,2.05745,-0.640045
538.2,46.5639,2.08504,-0.643649
538.8,46.6253,2.10439,-0.648876
539.4,46.6846,2.13147,-0.65372
540,46.7457,2.15336,-0.65781
540.6,46.8059,2.18388,-0.664307
541.2,46.8666,2.20602,-0.671702
541.8,46.9246,2.2404,-0.67533
542.4,46.9875,2.26421,-0.681213
543,47.0475,2.29465,-0.686654
543.6,47.1092,2.33014,-0.693431
544.2,47.1692,2.35511,-0.698545
544.8,47.2288,2.38339,-0.703335
545.4,47.2902,2.40942,-0.707627
546,47.3501,2.4426,-0.713322
546.6,47.4106,2.48124,-0.722202
547.2,47.4717,2.50526,-0.731016
547.8,47.5331,2.54276,-0.739051
548.4,47.5934,2.57032,-0.749645
549,47.6539,2.59798,-0.755837
549.6,47.7148,2.62535,-0.763409
550.2,47.7751,2.66462,-0.773077
550.8,47.8357,2.69957,-0.78155
551.4,47.896,2.7353,-0.791051
552,47.9569,2.76853,-0.799626
552.6,48.0174,2.81096,-0.809519
553.2,48.0788,2.84864,-0.819712
553.8,48.1383,2.88597,-0.828546
554.4,48.2005,2.92439,-0.841177
555,48.2608,2.96721,-0.850552
555.6,48.3212,3.00587,-0.864138
556.2,48.3819,3.05173,-0.876956
556.8,48.4435,3.09257,-0.88958
557.4,48.5042,3.12108,-0.904166
558,48.565,3.17326,-0.917583
558.6,48.6254,3.22213,-0.93205
559.2,48.6867,3.26214,-0.946407
559.8,48.7485,3.30441,-0.963013
560.4,48.808,3.36256,-0.976596
561,48.8695,3.41348,-0.993918
561.6,48.9294,3.45859,-1.00923
562.2,48.991,3.51246,-1.02564
562.8,49.052,3.5684,-1.04408
563.4,49.1128,3.62439,-1.06389
564,49.1729,3.6797,-1.08261
564.6,49.236,3.74862,-1.10373
565.2,49.2966,3.80612,-1.12577
565.8,49.3568,3.86047,-1.1467
566.4,49.4176,3.91972,-1.16713
567,49.4794,3.98399,-1.18846
567.6,49.5404,4.03229,-1.21295
568.2,49.6004,4.08787,-1.2332
568.8,49.6625,4.13666,-1.25811
569.4,49.7197,4.18267,-1.28234
570,49.784,4.21716,-1.31013
570.6,49.844,4.25698,-1.33267
571.2,49.9057,4.28586,-1.35927
571.8,49.9647,4.2972,-1.38454
572.4,50.0257,4.31162,-1.41098
573,50.0862,4.3035,-1.43679
573.6,50.1467,4.28575,-1.46461
574.2,50.2061,4.26116,-1.48924
574.8,50.2658,4.20467,-1.51765
575.4,50.3261,4.13966,-1.54405
576,50.3851,4.05104,-1.57213
576.6,50.4446,3.95124,-1.59636
577.2,50.5028,3.82398,-1.62149
577.8,50.5624,3.67396,-1.64513
578.4,50.6202,3.50348,-1.66754
579,50.6792,3.30134,-1.68693
579.6,50.735,3.10064,-1.70413
580.2,50.7939,2.85217,-1.72179
580.8,50.8516,2.61234,-1.73888
581.4,50.9083,2.3623,-1.75324
582,50.9663,2.12128,-1.76564
582.6,51.0237,1.88909,-1.77605
583.2,51.081,1.67181,-1.78477
583.8,51.1391,1.48072,-1.79376
584.4,51.1974,1.33501,-1.8004
585,51.2564,1.20585,-1.80541
585.6,51.3157,1.12129,-1.81021
586.2,51.3753,1.051,-1.81248
586.8,51.4344,1.00372,-1.81674
587.4,51.4941,0.9538,-1.82153
588,51.5531,0.932223,-1.82467
588.6,51.613,0.901186,-1.82914
589.2,51.6726,0.887632,-1.83011
589.8,51.7333,0.893333,-1.83316
590.4,51.7941,0.902775,-1.83625
591,51.8529,0.911123,-1.83722
591.6,51.913,0.906494,-1.83879
592.2,51.9735,0.906686,-1.8417
592.8,52.0343,0.91743,-1.84385
593.4,52.0942,0.928152,-1.84701
594,52.1547,0.929857,-1.84829
594.6,52.2157,0.942563,-1.84974
595.2,52.2758,0.95264,-1.85143
595.8,52.336,0.969321,-1.85471
596.4,52.3964,0.984325,-1.8575
597,52.4544,1.0034,-1.85996
597.6,52.5166,1.02033,-1.86112
598.2,52.5765,1.03533,-1.86112
598.8,52.6379,1.05458,-1.86159
599.4,52.6972,1.07167,-1.86287
600,52.7585,1.09048,-1.86412
600.6,52.818,1.10501,-1.86466
601.2,52.8792,1.11566,-1.86517
601.8,52.9385,1.13649,-1.86871
602.4,52.9994,1.1482,-1.87058
603,53.0595,1.16824,-1.8732
603.6,53.1194,1.18877,-1.87332
604.2,53.1799,1.20048,-1.87488
604.8,53.2404,1.23071,-1.87608
605.4,53.3004,1.24413,-1.87498
606,53.3602,1.27491,-1.87443
606.6,53.4208,1.30008,-1.8758
607.2,53.4811,1.31712,-1.87708
607.8,53.542,1.34377,-1.87871
608.4,53.6018,1.35555,-1.88069
609,53.664,1.38245,-1.88202
609.6,53.7221,1.3925,-1.88335
610.2,53.7844,1.40928,-1.88501
610.8,53.8423,1.42497,-1.88467
611.4,53.9043,1.43699,-1.88465
612,53.9644,1.44808,-1.88597
612.6,54.0254,1.45379,-1.88598
613.2,54.0866,1.46649,-1.88597
613.8,54.1461,1.48094,-1.88728
614.4,54.2067,1.49268,-1.8886
615,54.267,1.49241,-1.88984
615.6,54.3278,1.5041,-1.89154
616.2,54.3885,1.51404,-1.89255
616.8,54.4484,1.51897,-1.89387
617.4,54.5093,1.52373,-1.89528
618,54.5699,1.53121,-1.89651
618.6,54.6308,1.53319,-1.89784
619.2,54.691,1.54009,-1.89914
619.8,54.7517,1.54149,-1.89972
620.4,54.8123,1.53644,-1.89914
621,54.8733,1.54596,-1.89912
621.6,54.9338,1.54482,-1.90046
622.2,54.9926,1.54848,-1.9018
622.8,55.0551,1.54534,-1.90308
623.4,55.1162,1.54008,-1.90363
624,55.1757,1.53355,-1.90521
624.6,55.2366,1.53555,-1.9071
625.2,55.2978,1.53084,-1.90738
625.8,55.355,1.52499,-1.90836
626.4,55.417,1.5222,-1.90973
627,55.4786,1.52391,-1.91101
627.6,55.5397,1.52019,-1.91233
628.2,55.6003,1.51252,-1.91101
628.8,55.6611,1.51229,-1.9114
629.4,55.721,1.5067,-1.91465
630,55.7791,1.50753,-1.91633
630.6,55.8419,1.50135,-1.91595
631.2,55.9035,1.49927,-1.91735
631.8,55.9629,1.49323,-1.91822
632.4,56.0234,1.48725,-1.91869
633,56.0837,1.48693,-1.92
633.6,56.1442,1.47279,-1.92
634.2,56.2044,1.46631,-1.92008
634.8,56.2653,1.45614,-1.92
635.4,56.3253,1.45347,-1.91997
636,56.3864,1.45418,-1.92132
636.6,56.4473,1.44163,-1.92252
637.2,56.5071,1.42913,-1.92383
637.8,56.5673,1.4297,-1.92635
638.4,56.627,1.42103,-1.92813
639,56.6879,1.41546,-1.92946
639.6,56.7489,1.4069,-1.92917
640.2,56.8091,1.39589,-1.92945
640.8,56.8699,1.39595,-1.93074
641.4,56.93,1.39407,-1.93173
642,56.9899,1.39272,-1.93208
642.6,57.0511,1.38674,-1.9321
643.2,57.1112,1.38067,-1.93341
643.8,57.1725,1.38235,-1.93401
644.4,57.2324,1.37112,-1.9347
645,57.2943,1.36905,-1.93603
645.6,57.3542,1.37142,-1.93868
646.2,57.4148,1.3636,-1.93998
646.8,57.4754,1.35431,-1.94206
647.4,57.5363,1.36165,-1.94315
648,57.5977,1.35651,-1.94533
648.6,57.6578,1.34414,-1.94657
649.2,57.7189,1.34878,-1.94525
649.8,57.7777,1.34577,-1.94525
650.4,57.8399,1.34907,-1.94525
651,57.8995,1.34458,-1.94605
651.6,57.9588,1.35093,-1.94657
652.2,58.0209,1.34064,-1.94789
652.8,58.0826,1.34084,-1.94843
653.4,58.1426,1.3428,-1.95047
654,58.2026,1.34402,-1.9492
654.6,58.2641,1.34516,-1.94913
655.2,58.3252,1.34061,-1.95059
655.8,58.3868,1.3411,-1.95052
656.4,58.4475,1.33695,-1.95316
657,58.5079,1.33718,-1.95447
657.6,58.5691,1.33719,-1.95577
658.2,58.6292,1.33077,-1.95711
658.8,58.6907,1.33614,-1.9584
659.4,58.7519,1.33122,-1.95974
660,58.8114,1.32853,-1.95843
660.6,58.873,1.3381,-1.95933
661.2,58.9345,1.33785,-1.96106
661.8,58.9956,1.33086,-1.96107
662.4,59.056,1.32917,-1.96236
663,59.1166,1.3199,-1.96377
663.6,59.1785,1.32239,-1.9645
664.2,59.2394,1.32185,-1.96719
664.8,59.3002,1.32022,-1.96764
665.4,59.3608,1.3234,-1.96897
666,59.4221,1.3259,-1.96898
666.6,59.4835,1.32232,-1.9703
667.2,59.5444,1.31431,-1.9716
667.8,59.6045,1.31989,-1.97292
668.4,59.6656,1.31508,-1.97424
669,59.7264,1.3173,-1.97556
669.6,59.7871,1.31333,-1.97558
670.2,59.8477,1.3037,-1.97599
670.8,59.9087,1.30097,-1.97731
671.4,59.97,1.31219,-1.97711
672,60.0297,1.30319,-1.97871
672.6,60.0921,1.30743,-1.97986
673.2,60.1513,1.30587,-1.98116
673.8,60.2139,1.31018,-1.98213
674.4,60.2741,1.3141,-1.98246
675,60.336,1.30574,-1.98387
675.6,60.3972,1.30198,-1.9852
676.2,60.4582,1.30204,-1.98518
676.8,60.5191,1.29893,-1.98701
677.4,60.5799,1.29605,-1.9888
678,60.6408,1.297,-1.98917
678.6,60.7013,1.29487,-1.99054
679.2,60.7624,1.29502,-1.99169
679.8,60.8241,1.30165,-1.9918
680.4,60.884,1.29559,-1.99233
681,60.946,1.29824,-1.99295
681.6,61.0052,1.29535,-1.9918
682.2,61.0668,1.29612,-1.9932
682.8,61.128,1.29968,-1.99312
683.4,61.1886,1.29758,-1.99353
684,61.2494,1.31051,-1.9958
684.6,61.3101,1.3008,-1.99723
685.2,61.3709,1.30266,-1.99726
685.8,61.4327,1.29998,-1.99861
686.4,61.4936,1.306,-1.9999
687,61.5536,1.30128,-1.99994
687.6,61.6141,1.2954,-2.00125
688.2,61.6756,1.28874,-2.00189
688.8,61.7362,1.29325,-2.00278
689.4,61.7974,1.29107,-2.00519
690,61.8586,1.29047,-2.00784
690.6,61.9186,1.28979,-2.00756
691.2,61.9795,1.29298,-2.0079
691.8,62.0405,1.29222,-2.00886
692.4,62.1017,1.29095,-2.0106
693,62.1624,1.2902,-2.01457
693.6,62.2242,1.28538,-2.01595
694.2,62.285,1.28102,-2.01719
694.8,62.3456,1.29133,-2.01716
695.4,62.4063,1.28254,-2.01595
696,62.4677,1.28403,-2.01628
696.6,62.5281,1.2812,-2.01854
697.2,62.5888,1.28445,-2.01939
697.8,62.6502,1.27808,-2.01859
698.4,62.7089,1.27843,-2.02002
699,62.7724,1.2646,-2.02247
699.6,62.833,1.27264,-2.02401
700.2,62.8948,1.26497,-2.02408
700.8,62.9546,1.26586,-2.02265
701.4,63.0164,1.25746,-2.0238
702,63.0772,1.25242,-2.02342
702.6,63.1387,1.24178,-2.02453
703.2,63.1986,1.23507,-2.02661
703.8,63.2594,1.23518,-2.02947
704.4,63.3206,1.23653,-2.03229
705,63.3812,1.23405,-2.03503
705.6,63.4429,1.22601,-2.03633
706.2,63.5045,1.2244,-2.03697
706.8,63.5648,1.22053,-2.03637
707.4,63.6267,1.21351,-2.03632
708,63.6873,1.20978,-2.03637
708.6,63.7485,1.2082,-2.03722
709.2,63.8085,1.19916,-2.03909
709.8,63.8707,1.1995,-2.0405
710.4,63.9311,1.18888,-2.04046
711,63.9927,1.18746,-2.04174
711.6,64.0536,1.17625,-2.04406
712.2,64.1147,1.18318,-2.04479
712.8,64.1754,1.17385,-2.04542
713.4,64.2361,1.15986,-2.04517
714,64.2981,1.15615,-2.04407
714.6,64.3589,1.15127,-2.04538
715.2,64.4198,1.1416,-2.04671
715.8,64.4807,1.14238,-2.04801
716.4,64.5417,1.13443,-2.04727
717,64.6027,1.12599,-2.04801
717.6,64.6634,1.12217,-2.04933
718.2,64.7245,1.12173,-2.05299
718.8,64.7857,1.10616,-2.05328
719.4,64.8467,1.10283,-2.05597
720,64.9078,1.09999,-2.05688
720.6,64.9685,1.08772,-2.05725
721.2,65.0293,1.08567,-2.05854
721.8,65.09,1.08091,-2.05995
722.4,65.151,1.07371,-2.05986
723,65.212,1.07019,-2.06117
723.6,65.2728,1.05904,-2.06118
724.2,65.3317,1.05286,-2.05974
724.8,65.3949,1.0473,-2.05988
725.4,65.4565,1.03115,-2.06113
726,65.5173,1.03041,-2.06252
726.6,65.5778,1.02307,-2.06514
727.2,65.637,1.01733,-2.06605
727.8,65.7001,1.00883,-2.06512
728.4,65.7618,0.997935,-2.06645
729,65.821,0.988909,-2.06645
729.6,65.8836,0.983708,-2.06777
730.2,65.944,0.974253,-2.06875
730.8,66.0046,0.966718,-2.06876
731.4,66.0662,0.956052,-2.07139
732,66.1262,0.951706,-2.07277
732.6,66.1874,0.945358,-2.0754
733.2,66.2485,0.937973,-2.07677
733.8,66.3094,0.941181,-2.07754
734.4,66.3705,0.928498,-2.07665
735,66.4314,0.914741,-2.07703
735.6,66.492,0.912146,-2.07797
736.2,66.5527,0.911144,-2.07903
736.8,66.6136,0.904971,-2.07928
737.4,66.6753,0.894994,-2.0793
738,66.7357,0.889277,-2.08137
738.6,66.796,0.878325,-2.08192
739.2,66.858,0.871491,-2.08326
739.8,66.9176,0.86391,-2.08193
740.4,66.9791,0.856854,-2.08325
741,67.0407,0.849292,-2.08463
741.6,67.1004,0.844543,-2.08457
742.2,67.1623,0.831479,-2.08514
742.8,67.2234,0.831728,-2.0872
743.4,67.2839,0.828827,-2.08848
744,67.3457,0.818749,-2.08852
744.6,67.4064,0.814659,-2.08852
745.2,67.4674,0.808594,-2.08986
745.8,67.5279,0.797919,-2.09117
746.4,67.589,0.797552,-2.09114
747,67.6506,0.792803,-2.08979
747.6,67.7112,0.783982,-2.09126
748.2,67.7725,0.782135,-2.09257
748.8,67.8341,0.779024,-2.09258
749.4,67.895,0.767538,-2.0939
750,67.9565,0.759088,-2.0939
750.6,68.0174,0.761841,-2.0939
751.2,68.0783,0.748126,-2.09522
751.8,68.1401,0.743411,-2.09643
752.4,68.2009,0.740756,-2.09785
753,68.2624,0.735392,-2.09781
753.6,68.3228,0.731157,-2.1007
754.2,68.3837,0.720314,-2.10068
754.8,68.4449,0.716555,-2.1007
755.4,68.5064,0.708603,-2.09939
756,68.5681,0.703987,-2.09939
756.6,68.6291,0.696492,-2.09939
757.2,68.6896,0.692055,-2.10048
757.8,68.7504,0.690957,-2.10065
758.4,68.8118,0.675734,-2.10198
759,68.8729,0.672491,-2.10203
759.6,68.934,0.664901,-2.10362
760.2,68.9944,0.659367,-2.10464
760.8,69.0556,0.665562,-2.10594
761.4,69.117,0.650919,-2.10729
762,69.178,0.653053,-2.10894
762.6,69.2386,0.644479,-2.11
763.2,69.2996,0.640079,-2.1092
763.8,69.3602,0.620078,-2.10981
764.4,69.421,0.622737,-2.10982
765,69.4822,0.613822,-2.11007
765.6,69.5432,0.614288,-2.10983
766.2,69.6043,0.603338,-2.11116
766.8,69.6642,0.600521,-2.11257
767.4,69.725,0.599356,-2.11519
768,69.7862,0.594921,-2.1145
768.6,69.8474,0.585653,-2.1139
769.2,69.9082,0.584953,-2.11523
769.8,69.9689,0.577124,-2.11652
770.4,70.0306,0.577349,-2.11661
771,70.0909,0.571893,-2.11382
771.6,70.1521,0.578338,-2.1139
772.2,70.2132,0.574594,-2.11388
772.8,70.2735,0.577619,-2.11519
773.4,70.3354,0.563628,-2.11657
774,70.397,0.562548,-2.11648
774.6,70.4583,0.5638,-2.11783
775.2,70.5191,0.564205,-2.1192
775.8,70.5801,0.559403,-2.11971
776.4,70.6411,0.553694,-2.12046
777,70.702,0.556148,-2.12182
777.6,70.7623,0.557994,-2.12316
778.2,70.8243,0.549798,-2.12442
778.8,70.8821,0.550935,-2.12493
779.4,70.9448,0.549044,-2.12574
780,71.0064,0.55339,-2.12705
780.6,71.0675,0.554076,-2.12705
781.2,71.1267,0.551427,-2.12836
781.8,71.1895,0.554252,-2.12697
782.4,71.2506,0.54958,-2.12497
783,71.3105,0.54623,-2.12353
783.6,71.3719,0.543144,-2.12486
784.2,71.4329,0.538898,-2.12483
784.8,71.4925,0.535087,-2.12572
785.4,71.5547,0.528267,-2.12753
786,71.6157,0.522676,-2.12761
786.6,71.6767,0.523177,-2.12749
787.2,71.7364,0.518684,-2.12749
787.8,71.7974,0.512024,-2.12745
788.4,71.8592,0.508389,-2.12881
789,71.9189,0.494194,-2.13013
789.6,71.9806,0.490708,-2.13003
790.2,72.0414,0.481487,-2.13145
790.8,72.1021,0.475388,-2.13317
791.4,72.1622,0.461944,-2.13412
792,72.2233,0.454915,-2.13176
792.6,72.2845,0.439606,-2.13313
793.2,72.3448,0.426304,-2.13473
793.8,72.4059,0.409697,-2.13474
794.4,72.466,0.39917,-2.13483
795,72.5278,0.389485,-2.13606
795.6,72.588,0.37332,-2.13607
796.2,72.65,0.361715,-2.13705
796.8,72.7104,0.356592,-2.13704
797.4,72.771,0.337178,-2.13704
798,72.832,0.310663,-2.13836
798.6,72.8927,0.297336,-2.13922
799.2,72.9531,0.28242,-2.13967
799.8,73.0147,0.263812,-2.14039
800.4,73.0741,0.243211,-2.14032
801,73.1357,0.224252,-2.14034
801.6,73.1946,0.209184,-2.13902
802.2,73.2574,0.184769,-2.14177
802.8,73.3174,0.170536,-2.14165
803.4,73.3782,0.152763,-2.14088
804,73.4392,0.136741,-2.14033
804.6,73.499,0.11627,-2.14178
805.2,73.5595,0.0991862,-2.14309
805.8,73.6211,0.0717267,-2.14309
806.4,73.6814,0.0555752,-2.1436
807,73.742,0.043208,-2.14656
807.6,73.8039,0.0259247,-2.14407
808.2,73.8637,0.0130546,-2.14407
808.8,73.924,-0.00315363,-2.1461
809.4,73.9844,-0.018434,-2.14671
810,74.0469,-0.0327454,-2.14685
810.6,74.1074,-0.0405842,-2.14935
811.2,74.1683,-0.051233,-2.14482
811.8,74.2291,-0.0653871,-2.14189
812.4,74.2901,-0.0775289,-2.14331
813,74.3492,-0.0918417,-2.14449
813.6,74.4103,-0.0958379,-2.14901
814.2,74.4733,-0.107931,-2.14748
814.8,74.5337,-0.12513,-2.14769
815.4,74.5946,-0.134319,-2.14857
816,74.6554,-0.145216,-2.14928
816.6,74.7167,-0.162343,-2.14923
817.2,74.7789,-0.17178,-2.15068
817.8,74.8396,-0.193166,-2.15054
818.4,74.8999,-0.206852,-2.15218
819,74.9613,-0.216315,-2.15318
819.6,75.0219,-0.21908,-2.15449
820.2,75.0832,-0.23035,-2.15443
820.8,75.1447,-0.249624,-2.15351
821.4,75.2048,-0.25296,-2.15351
822,75.2667,-0.262357,-2.15351
822.6,75.3282,-0.275628,-2.15496
823.2,75.389,-0.287611,-2.15483
823.8,75.4498,-0.293683,-2.15483
824.4,75.5107,-0.302391,-2.15483
825,75.5727,-0.318293,-2.15484
825.6,75.6328,-0.324691,-2.15615
826.2,75.694,-0.338256,-2.15566
826.8,75.7555,-0.338593,-2.15404
827.4,75.8164,-0.354307,-2.15733
828,75.8753,-0.362044,-2.16154
828.6,75.9375,-0.354123,-2.15837
829.2,75.9989,-0.364765,-2.15703
829.8,76.0592,-0.371637,-2.15703
830.4,76.1214,-0.385048,-2.15836
831,76.1828,-0.3912,-2.15702
831.6,76.2433,-0.395391,-2.15702
832.2,76.3034,-0.401591,-2.15659
832.8,76.3645,-0.412204,-2.15844
833.4,76.4262,-0.415717,-2.16093
834,76.4864,-0.417744,-2.16097
834.6,76.548,-0.42738,-2.16227
835.2,76.6091,-0.433878,-2.16093
835.8,76.6699,-0.438831,-2.1623
836.4,76.7316,-0.445198,-2.1623
837,76.7925,-0.442552,-2.16315
837.6,76.8537,-0.453262,-2.1628
838.2,76.9149,-0.459508,-2.16085
838.8,76.9752,-0.457377,-2.16086
839.4,77.0373,-0.458713,-2.16221
840,77.0984,-0.465121,-2.1635