File: 01_Data/Fiber_Cement_Board/FTIR/IS/Fiber_Cement_Board_IS_T_221012_R1.dpt
7497.03,0.02335
7491.25,0.03368
7485.46,0.03056
7479.67,0.03354
7473.89,0.01817
7468.1,0.01431
7462.32,0.01483
7456.53,0.02048
7450.74,0.03127
7444.96,0.02212
7439.17,0.02543
7433.38,0.02050
7427.6,0.02014
7421.81,0.02144
7416.03,0.01467
7410.24,0.01318
7404.45,0.03131
7398.67,0.02872
7392.88,0.01911
7387.09,0.01654
7381.31,0.02499
7375.52,0.01963
7369.74,0.01718
7363.95,0.02540
7358.16,0.01384
7352.38,0.02133
7346.59,0.02172
7340.8,0.02338
7335.02,0.02720
7329.23,0.02470
7323.45,0.02409
7317.66,0.01618
7311.87,0.02433
7306.09,0.02486
7300.3,0.03038
7294.51,0.02532
7288.73,0.02177
7282.94,0.02970
7277.16,0.02338
7271.37,0.02516
7265.58,0.02539
7259.8,0.02320
7254.01,0.02227
7248.22,0.02066
7242.44,0.01971
7236.65,0.02522
7230.87,0.02964
7225.08,0.02305
7219.29,0.01341
7213.51,0.02106
7207.72,0.01998
7201.93,0.02633
7196.15,0.02448
7190.36,0.02008
7184.58,0.01908
7178.79,0.02426
7173,0.02640
7167.22,0.02244
7161.43,0.02144
7155.65,0.02278
7149.86,0.01831
7144.07,0.02491
7138.29,0.02651
7132.5,0.03150
7126.71,0.02171
7120.93,0.02107
7115.14,0.01867
7109.36,0.02442
7103.57,0.02192
7097.78,0.02613
7092,0.02405
7086.21,0.01528
7080.42,0.03331
7074.64,0.01917
7068.85,0.02578
7063.07,0.02870
7057.28,0.02481
7051.49,0.01926
7045.71,0.02339
7039.92,0.02302
7034.13,0.02237
7028.35,0.02476
7022.56,0.02023
7016.78,0.02565
7010.99,0.02140
7005.2,0.02035
6999.42,0.02482
6993.63,0.01575
6987.84,0.01664
6982.06,0.02272
6976.27,0.02488
6970.49,0.02687
6964.7,0.01987
6958.91,0.02693
6953.13,0.02589
6947.34,0.02310
6941.55,0.02135
6935.77,0.02265
6929.98,0.02600
6924.2,0.02263
6918.41,0.02035
6912.62,0.02094
6906.84,0.02432
6901.05,0.02302
6895.26,0.01890
6889.48,0.01680
6883.69,0.02300
6877.91,0.01933
6872.12,0.02644
6866.33,0.02239
6860.55,0.02222
6854.76,0.02412
6848.97,0.02311
6843.19,0.02381
6837.4,0.02593
6831.62,0.02133
6825.83,0.01946
6820.04,0.02188
6814.26,0.02103
6808.47,0.02647
6802.68,0.02257
6796.9,0.02318
6791.11,0.02081
6785.33,0.01945
6779.54,0.02113
6773.75,0.02468
6767.97,0.02229
6762.18,0.02355
6756.39,0.02462
6750.61,0.01978
6744.82,0.02159
6739.04,0.02463
6733.25,0.02517
6727.46,0.02519
6721.68,0.02595
6715.89,0.02280
6710.1,0.02437
6704.32,0.02340
6698.53,0.02150
6692.75,0.01841
6686.96,0.02022
6681.17,0.01875
6675.39,0.02098
6669.6,0.01772
6663.82,0.01836
6658.03,0.02107
6652.24,0.02092
6646.46,0.02460
6640.67,0.02390
6634.88,0.02344
6629.1,0.02162
6623.31,0.02560
6617.53,0.02512
6611.74,0.02428
6605.95,0.02432
6600.17,0.02566
6594.38,0.01958
6588.59,0.01867
6582.81,0.02445
6577.02,0.01888
6571.24,0.02111
6565.45,0.02235
6559.66,0.01877
6553.88,0.01927
6548.09,0.02194
6542.3,0.01865
6536.52,0.01765
6530.73,0.02427
6524.95,0.02210
6519.16,0.01887
6513.37,0.02181
6507.59,0.02438
6501.8,0.02015
6496.01,0.02016
6490.23,0.01971
6484.44,0.01882
6478.66,0.01716
6472.87,0.02174
6467.08,0.02264
6461.3,0.01994
6455.51,0.02063
6449.72,0.01620
6443.94,0.02081
6438.15,0.02146
6432.37,0.01980
6426.58,0.02555
6420.79,0.02418
6415.01,0.02432
6409.22,0.02221
6403.43,0.02233
6397.65,0.02313
6391.86,0.02241
6386.08,0.01932
6380.29,0.01937
6374.5,0.01904
6368.72,0.02083
6362.93,0.02219
6357.14,0.02667
6351.36,0.02101
6345.57,0.01886
6339.79,0.02453
6334,0.02443
6328.21,0.02268
6322.43,0.02443
6316.64,0.02349
6310.85,0.02273
6305.07,0.02428
6299.28,0.02525
6293.5,0.02274
6287.71,0.01783
6281.92,0.01969
6276.14,0.01701
6270.35,0.02228
6264.56,0.02310
6258.78,0.02095
6252.99,0.02289
6247.21,0.02192
6241.42,0.02142
6235.63,0.02425
6229.85,0.02384
6224.06,0.01747
6218.27,0.02251
6212.49,0.02215
6206.7,0.01976
6200.92,0.02013
6195.13,0.01962
6189.34,0.02179
6183.56,0.02211
6177.77,0.02165
6171.98,0.02378
6166.2,0.02248
6160.41,0.02092
6154.63,0.02323
6148.84,0.02429
6143.05,0.02167
6137.27,0.02144
6131.48,0.02448
6125.7,0.02137
6119.91,0.02173
6114.12,0.01905
6108.34,0.01988
6102.55,0.02142
6096.76,0.02285
6090.98,0.02600
6085.19,0.01993
6079.41,0.02002
6073.62,0.02055
6067.83,0.02087
6062.05,0.02025
6056.26,0.01970
6050.47,0.02011
6044.69,0.02126
6038.9,0.02341
6033.12,0.02066
6027.33,0.02008
6021.54,0.02419
6015.76,0.02153
6009.97,0.02260
6004.18,0.02252
5998.4,0.01979
5992.61,0.02180
5986.83,0.01940
5981.04,0.02100
5975.25,0.01918
5969.47,0.01969
5963.68,0.02325
5957.89,0.02027
5952.11,0.02186
5946.32,0.01905
5940.54,0.02054
5934.75,0.02205
5928.96,0.01883
5923.18,0.02397
5917.39,0.02150
5911.6,0.02316
5905.82,0.02395
5900.03,0.02069
5894.25,0.02048
5888.46,0.02328
5882.67,0.02188
5876.89,0.01965
5871.1,0.02090
5865.31,0.01851
5859.53,0.02137
5853.74,0.02079
5847.96,0.01947
5842.17,0.02075
5836.38,0.01880
5830.6,0.02056
5824.81,0.02024
5819.02,0.02183
5813.24,0.01967
5807.45,0.02012
5801.67,0.02101
5795.88,0.02026
5790.09,0.02307
5784.31,0.02119
5778.52,0.02013
5772.73,0.02021
5766.95,0.02198
5761.16,0.02168
5755.38,0.02092
5749.59,0.01960
5743.8,0.02056
5738.02,0.01926
5732.23,0.02188
5726.44,0.02387
5720.66,0.02082
5714.87,0.02097
5709.09,0.02079
5703.3,0.02034
5697.51,0.02161
5691.73,0.02304
5685.94,0.02127
5680.15,0.02131
5674.37,0.02085
5668.58,0.02014
5662.8,0.01903
5657.01,0.02148
5651.22,0.02142
5645.44,0.01959
5639.65,0.02263
5633.87,0.02042
5628.08,0.01969
5622.29,0.02177
5616.51,0.02015
5610.72,0.02173
5604.93,0.01999
5599.15,0.02054
5593.36,0.02173
5587.58,0.02202
5581.79,0.02141
5576,0.02227
5570.22,0.02049
5564.43,0.01967
5558.64,0.02179
5552.86,0.02196
5547.07,0.02092
5541.29,0.02154
5535.5,0.02123
5529.71,0.02200
5523.93,0.02177
5518.14,0.02116
5512.35,0.02168
5506.57,0.02245
5500.78,0.02132
5495,0.02219
5489.21,0.02087
5483.42,0.02063
5477.64,0.02174
5471.85,0.02113
5466.06,0.02121
5460.28,0.01959
5454.49,0.02216
5448.71,0.02140
5442.92,0.02104
5437.13,0.02178
5431.35,0.02172
5425.56,0.02105
5419.77,0.02124
5413.99,0.02167
5408.2,0.02220
5402.42,0.02282
5396.63,0.02318
5390.84,0.02190
5385.06,0.02072
5379.27,0.02011
5373.48,0.02343
5367.7,0.02332
5361.91,0.02257
5356.13,0.02043
5350.34,0.02258
5344.55,0.02103
5338.77,0.02056
5332.98,0.02262
5327.19,0.02206
5321.41,0.02158
5315.62,0.02245
5309.84,0.02162
5304.05,0.02052
5298.26,0.02125
5292.48,0.02170
5286.69,0.02147
5280.9,0.02057
5275.12,0.02143
5269.33,0.02117
5263.55,0.02100
5257.76,0.01920
5251.97,0.02070
5246.19,0.02134
5240.4,0.02038
5234.61,0.01944
5228.83,0.02175
5223.04,0.02137
5217.26,0.02127
5211.47,0.02079
5205.68,0.02190
5199.9,0.02279
5194.11,0.02177
5188.32,0.02188
5182.54,0.02193
5176.75,0.02167
5170.97,0.02046
5165.18,0.01976
5159.39,0.02003
5153.61,0.02097
5147.82,0.02309
5142.03,0.02204
5136.25,0.02291
5130.46,0.02231
5124.68,0.02110
5118.89,0.02173
5113.1,0.02246
5107.32,0.02332
5101.53,0.02131
5095.75,0.02294
5089.96,0.02354
5084.17,0.02229
5078.39,0.02299
5072.6,0.02256
5066.81,0.02055
5061.03,0.02100
5055.24,0.02211
5049.46,0.02033
5043.67,0.02145
5037.88,0.02074
5032.1,0.02092
5026.31,0.02081
5020.52,0.02173
5014.74,0.02112
5008.95,0.02075
5003.17,0.02090
4997.38,0.02194
4991.59,0.02062
4985.81,0.02103
4980.02,0.02187
4974.23,0.02186
4968.45,0.02050
4962.66,0.02095
4956.88,0.02075
4951.09,0.02120
4945.3,0.02256
4939.52,0.02204
4933.73,0.02173
4927.94,0.02029
4922.16,0.02215
4916.37,0.02279
4910.59,0.02135
4904.8,0.02155
4899.01,0.02113
4893.23,0.02185
4887.44,0.02195
4881.65,0.02246
4875.87,0.02260
4870.08,0.02149
4864.3,0.02237
4858.51,0.02228
4852.72,0.02213
4846.94,0.02154
4841.15,0.02129
4835.36,0.02084
4829.58,0.02048
4823.79,0.02066
4818.01,0.02077
4812.22,0.02265
4806.43,0.02263
4800.65,0.02045
4794.86,0.02136
4789.07,0.02073
4783.29,0.02169
4777.5,0.02167
4771.72,0.02202
4765.93,0.02247
4760.14,0.02152
4754.36,0.02156
4748.57,0.02221
4742.78,0.02239
4737,0.02184
4731.21,0.02144
4725.43,0.02208
4719.64,0.02130
4713.85,0.02135
4708.07,0.02202
4702.28,0.02160
4696.49,0.02088
4690.71,0.02171
4684.92,0.02218
4679.14,0.02172
4673.35,0.02186
4667.56,0.02257
4661.78,0.02274
4655.99,0.02224
4650.2,0.02081
4644.42,0.02116
4638.63,0.02140
4632.85,0.02218
4627.06,0.02210
4621.27,0.02180
4615.49,0.02156
4609.7,0.02206
4603.92,0.02196
4598.13,0.02170
4592.34,0.02225
4586.56,0.02149
4580.77,0.02206
4574.98,0.02165
4569.2,0.02107
4563.41,0.02205
4557.63,0.02265
4551.84,0.02144
4546.05,0.02167
4540.27,0.02203
4534.48,0.02222
4528.69,0.02214
4522.91,0.02226
4517.12,0.02198
4511.34,0.02247
4505.55,0.02130
4499.76,0.02198
4493.98,0.02216
4488.19,0.02110
4482.4,0.02121
4476.62,0.02239
4470.83,0.02243
4465.05,0.02173
4459.26,0.02206
4453.47,0.02134
4447.69,0.02189
4441.9,0.02282
4436.11,0.02180
4430.33,0.02164
4424.54,0.02061
4418.76,0.02144
4412.97,0.02189
4407.18,0.02180
4401.4,0.02283
4395.61,0.02173
4389.82,0.02210
4384.04,0.02131
4378.25,0.02093
4372.47,0.02128
4366.68,0.02120
4360.89,0.02165
4355.11,0.02156
4349.32,0.02205
4343.53,0.02135
4337.75,0.02198
4331.96,0.02179
4326.18,0.02203
4320.39,0.02122
4314.6,0.02118
4308.82,0.02233
4303.03,0.02209
4297.24,0.02219
4291.46,0.02116
4285.67,0.02179
4279.89,0.02179
4274.1,0.02229
4268.31,0.02133
4262.53,0.02124
4256.74,0.02219
4250.95,0.02278
4245.17,0.02192
4239.38,0.02185
4233.6,0.02135
4227.81,0.02213
4222.02,0.02215
4216.24,0.02194
4210.45,0.02137
4204.66,0.02292
4198.88,0.02235
4193.09,0.02220
4187.31,0.02164
4181.52,0.02185
4175.73,0.02204
4169.95,0.02189
4164.16,0.02171
4158.37,0.02105
4152.59,0.02120
4146.8,0.02272
4141.02,0.02177
4135.23,0.02210
4129.44,0.02208
4123.66,0.02237
4117.87,0.02217
4112.09,0.02161
4106.3,0.02130
4100.51,0.02146
4094.73,0.02215
4088.94,0.02230
4083.15,0.02206
4077.37,0.02189
4071.58,0.02233
4065.8,0.02151
4060.01,0.02230
4054.22,0.02199
4048.44,0.02230
4042.65,0.02201
4036.86,0.02180
4031.08,0.02137
4025.29,0.02173
4019.51,0.02220
4013.72,0.02193
4007.93,0.02212
4002.15,0.02257
3996.36,0.02232
3990.57,0.02244
3984.79,0.02227
3979,0.02204
3973.22,0.02258
3967.43,0.02136
3961.64,0.02197
3955.86,0.02222
3950.07,0.02195
3944.28,0.02165
3938.5,0.02200
3932.71,0.02246
3926.93,0.02219
3921.14,0.02225
3915.35,0.02205
3909.57,0.02198
3903.78,0.02251
3897.99,0.02272
3892.21,0.02224
3886.42,0.02257
3880.64,0.02163
3874.85,0.02255
3869.06,0.02220
3863.28,0.02165
3857.49,0.02308
3851.7,0.02286
3845.92,0.02154
3840.13,0.02302
3834.35,0.02314
3828.56,0.02202
3822.77,0.02151
3816.99,0.02254
3811.2,0.02235
3805.41,0.02193
3799.63,0.02248
3793.84,0.02238
3788.06,0.02169
3782.27,0.02231
3776.48,0.02199
3770.7,0.02243
3764.91,0.02217
3759.12,0.02297
3753.34,0.02292
3747.55,0.02240
3741.77,0.02282
3735.98,0.02302
3730.19,0.02197
3724.41,0.02251
3718.62,0.02198
3712.83,0.02242
3707.05,0.02197
3701.26,0.02218
3695.48,0.02159
3689.69,0.02306
3683.9,0.02182
3678.12,0.02265
3672.33,0.02202
3666.54,0.02134
3660.76,0.02177
3654.97,0.02244
3649.19,0.02196
3643.4,0.02154
3637.61,0.02215
3631.83,0.02221
3626.04,0.02074
3620.25,0.02140
3614.47,0.02172
3608.68,0.02181
3602.9,0.02153
3597.11,0.02107
3591.32,0.02182
3585.54,0.02154
3579.75,0.02129
3573.97,0.02092
3568.18,0.02089
3562.39,0.02081
3556.61,0.02039
3550.82,0.02124
3545.03,0.02092
3539.25,0.02108
3533.46,0.02101
3527.68,0.02027
3521.89,0.02131
3516.1,0.02046
3510.32,0.02105
3504.53,0.02055
3498.74,0.01988
3492.96,0.02107
3487.17,0.02062
3481.39,0.02048
3475.6,0.02043
3469.81,0.02045
3464.03,0.01984
3458.24,0.02031
3452.45,0.02007
3446.67,0.02040
3440.88,0.01986
3435.1,0.01993
3429.31,0.02002
3423.52,0.02069
3417.74,0.02076
3411.95,0.02110
3406.16,0.02083
3400.38,0.02023
3394.59,0.01966
3388.81,0.01945
3383.02,0.01948
3377.23,0.02010
3371.45,0.01984
3365.66,0.02045
3359.87,0.01927
3354.09,0.02022
3348.3,0.01951
3342.52,0.01919
3336.73,0.01977
3330.94,0.01941
3325.16,0.01981
3319.37,0.02029
3313.58,0.01977
3307.8,0.02003
3302.01,0.01931
3296.23,0.01974
3290.44,0.01943
3284.65,0.02013
3278.87,0.01966
3273.08,0.01993
3267.29,0.01980
3261.51,0.02019
3255.72,0.02036
3249.94,0.02088
3244.15,0.02101
3238.36,0.02023
3232.58,0.02018
3226.79,0.02025
3221,0.01993
3215.22,0.02030
3209.43,0.01955
3203.65,0.01982
3197.86,0.02032
3192.07,0.02051
3186.29,0.02026
3180.5,0.02097
3174.71,0.02066
3168.93,0.02083
3163.14,0.02048
3157.36,0.02061
3151.57,0.02020
3145.78,0.02065
3140,0.02122
3134.21,0.02093
3128.42,0.02070
3122.64,0.02021
3116.85,0.02096
3111.07,0.02112
3105.28,0.02033
3099.49,0.02023
3093.71,0.02025
3087.92,0.02017
3082.14,0.01957
3076.35,0.02003
3070.56,0.02071
3064.78,0.02073
3058.99,0.02017
3053.2,0.02001
3047.42,0.01955
3041.63,0.02008
3035.85,0.01955
3030.06,0.02023
3024.27,0.02057
3018.49,0.02032
3012.7,0.02018
3006.91,0.02029
3001.13,0.01990
2995.34,0.02036
2989.56,0.02008
2983.77,0.01981
2977.98,0.02009
2972.2,0.01943
2966.41,0.01843
2960.62,0.01902
2954.84,0.01965
2949.05,0.01934
2943.27,0.01948
2937.48,0.01950
2931.69,0.01962
2925.91,0.01938
2920.12,0.01987
2914.33,0.02036
2908.55,0.02060
2902.76,0.02040
2896.98,0.01986
2891.19,0.02060
2885.4,0.02069
2879.62,0.02017
2873.83,0.02054
2868.04,0.02003
2862.26,0.02028
2856.47,0.01993
2850.69,0.02083
2844.9,0.02113
2839.11,0.02125
2833.33,0.02086
2827.54,0.02107
2821.75,0.02079
2815.97,0.02103
2810.18,0.02174
2804.4,0.02144
2798.61,0.02084
2792.82,0.02070
2787.04,0.02106
2781.25,0.02063
2775.46,0.02139
2769.68,0.02075
2763.89,0.02080
2758.11,0.02091
2752.32,0.02082
2746.53,0.02025
2740.75,0.02069
2734.96,0.02117
2729.17,0.02085
2723.39,0.02087
2717.6,0.02101
2711.82,0.02090
2706.03,0.02088
2700.24,0.02097
2694.46,0.02105
2688.67,0.02118
2682.88,0.02120
2677.1,0.02098
2671.31,0.02116
2665.53,0.02059
2659.74,0.02094
2653.95,0.02103
2648.17,0.02122
2642.38,0.02122
2636.59,0.02035
2630.81,0.02100
2625.02,0.02117
2619.24,0.02090
2613.45,0.02125
2607.66,0.02105
2601.88,0.02074
2596.09,0.02112
2590.3,0.02091
2584.52,0.02138
2578.73,0.02083
2572.95,0.02072
2567.16,0.02094
2561.37,0.02081
2555.59,0.02127
2549.8,0.02074
2544.02,0.02068
2538.23,0.02131
2532.44,0.02101
2526.66,0.02137
2520.87,0.02085
2515.08,0.02096
2509.3,0.02111
2503.51,0.02115
2497.73,0.02113
2491.94,0.02087
2486.15,0.02087
2480.37,0.02115
2474.58,0.02114
2468.79,0.02109
2463.01,0.02085
2457.22,0.02121
2451.44,0.02089
2445.65,0.02100
2439.86,0.02105
2434.08,0.02098
2428.29,0.02064
2422.5,0.02087
2416.72,0.02073
2410.93,0.02075
2405.15,0.02099
2399.36,0.02111
2393.57,0.02090
2387.79,0.02100
2382,0.02139
2376.21,0.02205
2370.43,0.02388
2364.64,0.02493
2358.86,0.02451
2353.07,0.02333
2347.28,0.02275
2341.5,0.02413
2335.71,0.02363
2329.92,0.02377
2324.14,0.02281
2318.35,0.02272
2312.57,0.02202
2306.78,0.02165
2300.99,0.02138
2295.21,0.02112
2289.42,0.02097
2283.63,0.02091
2277.85,0.02097
2272.06,0.02104
2266.28,0.02134
2260.49,0.02114
2254.7,0.02070
2248.92,0.02118
2243.13,0.02083
2237.34,0.02127
2231.56,0.02092
2225.77,0.02093
2219.99,0.02084
2214.2,0.02107
2208.41,0.02091
2202.63,0.02076
2196.84,0.02105
2191.05,0.02075
2185.27,0.02070
2179.48,0.02073
2173.7,0.02086
2167.91,0.02127
2162.12,0.02048
2156.34,0.02079
2150.55,0.02073
2144.76,0.02067
2138.98,0.02067
2133.19,0.02089
2127.41,0.02062
2121.62,0.02048
2115.83,0.02066
2110.05,0.02061
2104.26,0.02113
2098.47,0.02069
2092.69,0.02076
2086.9,0.02096
2081.12,0.02056
2075.33,0.02050
2069.54,0.02077
2063.76,0.02068
2057.97,0.02100
2052.19,0.02115
2046.4,0.02090
2040.61,0.02042
2034.83,0.02110
2029.04,0.02093
2023.25,0.02086
2017.47,0.02066
2011.68,0.02059
2005.9,0.02085
2000.11,0.02078
1994.32,0.02051
1988.54,0.02064
1982.75,0.02075
1976.96,0.02060
1971.18,0.02062
1965.39,0.02090
1959.61,0.02083
1953.82,0.02051
1948.03,0.02048
1942.25,0.02045
1936.46,0.02067
1930.67,0.02075
1924.89,0.02071
1919.1,0.02045
1913.32,0.02066
1907.53,0.02033
1901.74,0.02033
1895.96,0.02055
1890.17,0.02075
1884.38,0.02080
1878.6,0.02021
1872.81,0.02003
1867.03,0.02027
1861.24,0.02023
1855.45,0.02001
1849.67,0.02046
1843.88,0.02053
1838.09,0.02016
1832.31,0.02021
1826.52,0.02003
1820.74,0.01954
1814.95,0.01987
1809.16,0.01977
1803.38,0.01968
1797.59,0.01974
1791.8,0.01920
1786.02,0.01953
1780.23,0.01912
1774.45,0.01858
1768.66,0.01860
1762.87,0.01813
1757.09,0.01786
1751.3,0.01763
1745.51,0.01756
1739.73,0.01893
1733.94,0.01985
1728.16,0.02019
1722.37,0.02099
1716.58,0.02094
1710.8,0.02071
1705.01,0.02017
1699.22,0.01999
1693.44,0.01966
1687.65,0.01909
1681.87,0.01929
1676.08,0.01897
1670.29,0.01877
1664.51,0.01861
1658.72,0.01834
1652.93,0.01852
1647.15,0.01877
1641.36,0.01860
1635.58,0.01856
1629.79,0.01842
1624,0.01874
1618.22,0.01901
1612.43,0.01871
1606.64,0.01839
1600.86,0.01892
1595.07,0.01850
1589.29,0.01916
1583.5,0.01831
1577.71,0.01847
1571.93,0.01809
1566.14,0.01801
1560.35,0.01810
1554.57,0.01813
1548.78,0.01844
1543,0.01872
1537.21,0.01920
1531.42,0.01878
1525.64,0.01920
1519.85,0.01911
1514.07,0.01854
1508.28,0.01895
1502.49,0.01885
1496.71,0.01902
1490.92,0.01912
1485.13,0.01860
1479.35,0.01849
1473.56,0.01883
1467.78,0.01854
1461.99,0.01880
1456.2,0.01878
1450.42,0.01869
1444.63,0.01855
1438.84,0.01902
1433.06,0.01887
1427.27,0.01860
1421.49,0.01839
1415.7,0.01813
1409.91,0.01826
1404.13,0.01825
1398.34,0.01826
1392.55,0.01799
1386.77,0.01783
1380.98,0.01835
1375.2,0.01825
1369.41,0.01801
1363.62,0.01872
1357.84,0.01806
1352.05,0.01789
1346.26,0.01786
1340.48,0.01788
1334.69,0.01802
1328.91,0.01757
1323.12,0.01725
1317.33,0.01663
1311.55,0.01684
1305.76,0.01718
1299.97,0.01750
1294.19,0.01782
1288.4,0.01824
1282.62,0.01840
1276.83,0.01938
1271.04,0.01962
1265.26,0.01965
1259.47,0.01999
1253.68,0.01993
1247.9,0.01983
1242.11,0.01969
1236.33,0.01985
1230.54,0.01942
1224.75,0.01946
1218.97,0.01906
1213.18,0.01887
1207.39,0.01879
1201.61,0.01889
1195.82,0.01819
1190.04,0.01818
1184.25,0.01831
1178.46,0.01757
1172.68,0.01749
1166.89,0.01790
1161.1,0.01753
1155.32,0.01759
1149.53,0.01746
1143.75,0.01766
1137.96,0.01788
1132.17,0.01747
1126.39,0.01789
1120.6,0.01872
1114.81,0.01893
1109.03,0.01859
1103.24,0.01814
1097.46,0.01778
1091.67,0.01787
1085.88,0.01886
1080.1,0.01824
1074.31,0.01879
1068.52,0.01936
1062.74,0.01942
1056.95,0.02011
1051.17,0.01946
1045.38,0.01895
1039.59,0.01947
1033.81,0.01930
1028.02,0.01910
1022.24,0.01882
1016.45,0.01915
1010.66,0.02019
1004.88,0.02062
999.09,0.02080
993.304,0.02110
987.518,0.02101
981.731,0.02021
975.945,0.02046
970.159,0.01996
964.373,0.02016
958.586,0.01987
952.8,0.01923
947.014,0.01864
941.228,0.01928
935.441,0.01968
929.655,0.01900
923.869,0.01887
918.083,0.01916
912.297,0.01883
906.51,0.01841
900.724,0.01901
894.938,0.01893
889.152,0.01920
883.365,0.01869
877.579,0.01844
871.793,0.01859
866.007,0.01878
860.22,0.01874
854.434,0.01854
848.648,0.01870
842.862,0.01868
837.075,0.01916
831.289,0.01816
825.503,0.01856
819.717,0.01797
813.931,0.01795
808.144,0.01896
802.358,0.01873
796.572,0.01818
790.786,0.01902
784.999,0.01842
779.213,0.01861
773.427,0.01759
767.641,0.01742
761.854,0.01841
756.068,0.01800
750.282,0.01776
744.496,0.01794
738.709,0.01778
732.923,0.01842
727.137,0.01785
721.351,0.01804
715.565,0.01854
709.778,0.01733
703.992,0.01640
698.206,0.01844
692.42,0.01767
686.633,0.01755
680.847,0.01782
675.061,0.01859
669.275,0.01778
663.488,0.01622
657.702,0.01671
651.916,0.01617
646.13,0.01528
640.343,0.01654
634.557,0.01669
628.771,0.01666
622.985,0.01448
617.198,0.01606
611.412,0.01587
605.626,0.01567
599.84,0.01756