File: 01_Data/NFPA_1981-2007_SCBA_Lens/STA/N2/10K_min/NFPA_1981-2007_SCBA_Lens_STA_N2_10KData_240103_R2.csv
Temp./C,Time/min,DSC/(mW/mg),Mass loss/mg
60.0,0.0,0.761111,0.000809334
60.5,0.0557255,0.771852,0.00250958
61,0.114242,0.780634,0.00314613
61.5,0.170212,0.789426,0.00296983
62,0.226289,0.798957,0.0017314
62.5,0.279964,0.809388,0.000876743
63,0.334961,0.818977,0.00312322
63.5,0.390883,0.822707,0.00231722
64,0.444896,0.830394,0.00171246
64.5,0.498697,0.834908,0.00228375
65,0.552996,0.84333,0.00174976
65.5,0.606563,0.856484,0.00166524
66,0.660297,0.852349,0.00176491
66.5,0.713278,0.862046,0.00302644
67,0.766264,0.873599,0.00174264
67.5,0.819572,0.871968,0.001766
68,0.873389,0.873686,0.00320415
68.5,0.925568,0.875598,0.00190661
69,0.979014,0.884589,0.00175125
69.5,1.02713,0.88775,0.00173375
70,1.08439,0.886012,0.00177034
70.5,1.13732,0.900529,0.000677688
71,1.19041,0.895793,0.0016316
71.5,1.24235,0.895078,0.00176008
72,1.29523,0.908527,0.00177074
72.5,1.34696,0.912972,0.00306397
73,1.39976,0.912171,0.00166184
73.5,1.45169,0.911239,0.00306996
74,1.50347,0.917449,0.00314012
74.5,1.55467,0.918253,0.00313551
75,1.60718,0.92318,0.00316542
75.5,1.65789,0.934288,0.00176399
76,1.70907,0.928872,0.00306904
76.5,1.76086,0.936906,0.00208129
77,1.81323,0.942037,0.00210336
77.5,1.86359,0.942804,0.00307547
78,1.91597,0.943199,0.00312849
78.5,1.96611,0.948617,0.00303464
79,2.01834,0.948882,0.00306913
79.5,2.06933,0.950175,0.00312715
80,2.12005,0.958805,0.00307977
80.5,2.17082,0.966549,0.00440923
81,2.2231,0.967314,0.0044117
81.5,2.27424,0.970775,0.00438022
82,2.32282,0.971139,0.0030831
82.5,2.37405,0.971729,0.00313128
83,2.42505,0.977262,0.00241293
83.5,2.47438,0.979108,0.00371019
84,2.52605,0.976944,0.00425097
84.5,2.57606,0.989629,0.00438755
85,2.62698,0.986121,0.00308107
85.5,2.67716,0.994954,0.00439282
86,2.7245,0.999504,0.00310445
86.5,2.77646,0.997498,0.00395459
87,2.82805,1.00044,0.0031049
87.5,2.87729,1.00474,0.00306997
88,2.92442,1.00555,0.00306968
88.5,2.97792,1.00818,0.00350764
89,3.02515,1.01222,0.00307913
89.5,3.07655,1.0062,0.00307841
90,3.12645,1.01574,0.00322481
90.5,3.17588,1.02444,0.00308105
91,3.22575,1.01976,0.00357054
91.5,3.27467,1.03178,0.00307104
92,3.32456,1.03099,0.00393818
92.5,3.37274,1.03891,0.00439026
93,3.42282,1.03882,0.0029884
93.5,3.47252,1.03941,0.00438643
94,3.52127,1.04119,0.00438524
94.5,3.57043,1.04988,0.00309158
95,3.61771,1.04595,0.00438773
95.5,3.66932,1.05032,0.00412443
96,3.71811,1.04635,0.00308147
96.5,3.76632,1.05685,0.00387925
97,3.81607,1.068,0.00308498
97.5,3.86448,1.06938,0.00439116
98,3.91473,1.0706,0.00438991
98.5,3.96245,1.0687,0.00383873
99,4.01278,1.07094,0.00306107
99.5,4.06163,1.07843,0.00438919
100,4.10999,1.08406,0.00448552
100.5,4.15965,1.0835,0.0030799
101,4.20832,1.0892,0.00308107
101.5,4.25718,1.09526,0.0041531
102,4.30486,1.09472,0.00448881
102.5,4.35403,1.10233,0.00307002
103,4.40166,1.10092,0.00403701
103.5,4.45017,1.11021,0.00438993
104,4.49952,1.10878,0.00438897
104.5,4.54847,1.10992,0.0040561
105,4.59771,1.11474,0.00407192
105.5,4.64552,1.11026,0.00344429
106,4.69459,1.1143,0.00307117
106.5,4.74341,1.11652,0.00301181
107,4.79146,1.11947,0.00307983
107.5,4.83986,1.11908,0.00358723
108,4.88835,1.12381,0.00306527
108.5,4.93801,1.12895,0.00307001
109,4.98451,1.13213,0.00306997
109.5,5.03362,1.12947,0.00308328
110,5.08256,1.13695,0.00437859
110.5,5.13212,1.13058,0.00307168
111,5.1791,1.12563,0.00306047
111.5,5.22823,1.13736,0.00307002
112,5.27379,1.1447,0.00304406
112.5,5.32367,1.14765,0.00176325
113,5.37023,1.14703,0.00176076
113.5,5.42119,1.14697,0.00307669
114,5.47031,1.15439,0.00307947
114.5,5.51834,1.1563,0.00178923
115,5.56555,1.15618,0.00304091
115.5,5.61413,1.15879,0.00307003
116,5.66275,1.16652,0.00307024
116.5,5.71192,1.16742,0.00439006
117,5.75877,1.17125,0.00440049
117.5,5.80742,1.1671,0.00306946
118,5.85691,1.17689,0.00413532
118.5,5.90442,1.17639,0.00307131
119,5.95317,1.18669,0.0030557
119.5,6.00173,1.17875,0.00176088
120,6.04982,1.18505,0.00291263
120.5,6.0969,1.18746,0.0030805
121,6.14546,1.19399,0.00308045
121.5,6.19334,1.19333,0.00166967
122,6.24222,1.1916,0.00176484
122.5,6.29052,1.19625,0.00274837
123,6.33928,1.1987,0.00313266
123.5,6.38651,1.20688,0.00175019
124,6.43518,1.19731,0.00193606
124.5,6.48319,1.21168,0.00241708
125,6.52952,1.21912,0.00164375
125.5,6.57873,1.20189,0.00176023
126,6.62811,1.20965,0.00176524
126.5,6.67504,1.21141,0.000426524
127,6.72314,1.22085,0.00146283
127.5,6.77062,1.22406,0.00143654
128,6.81948,1.22376,0.00176128
128.5,6.86726,1.22231,0.00176001
129,6.91543,1.23307,0.00175648
129.5,6.964,1.22323,0.00171419
130,7.01126,1.2315,0.00268147
130.5,7.05969,1.23305,0.00307611
131,7.1068,1.22558,0.00175385
131.5,7.15556,1.23561,0.00174977
132,7.20431,1.2366,0.00186452
132.5,7.25202,1.23691,0.0023092
133,7.29988,1.24217,0.00105815
133.5,7.34713,1.2447,0.00175906
134,7.39515,1.23847,0.00176031
134.5,7.44302,1.2517,0.00152998
135,7.49127,1.24168,0.000768686
135.5,7.5396,1.25593,0.00211216
136,7.58761,1.25438,0.0017437
136.5,7.63656,1.25922,0.00171386
137,7.68192,1.26023,0.00145628
137.5,7.73142,1.26414,0.00175914
138,7.77767,1.26926,0.00175943
138.5,7.82661,1.27441,0.00218077
139,7.87515,1.27427,0.00306998
139.5,7.9222,1.28071,0.00306475
140,7.97007,1.28703,0.00174593
140.5,8.01804,1.29216,0.00175003
141,8.06645,1.29998,0.00174949
141.5,8.11434,1.30021,0.00304467
142,8.1605,1.30729,0.00306997
142.5,8.21013,1.31972,0.00307004
143,8.25649,1.32005,0.00302886
143.5,8.30544,1.32996,0.00209409
144,8.35375,1.34644,0.0030761
144.5,8.4016,1.35112,0.00274999
145,8.44886,1.36802,0.00277209
145.5,8.49721,1.37768,0.00308413
146,8.5443,1.40071,0.00307
146.5,8.59312,1.42022,0.00307
147,8.64104,1.42662,0.00207759
147.5,8.68918,1.44963,0.00208
148,8.73736,1.46165,0.00208215
148.5,8.78192,1.47526,0.00175669
149,8.83277,1.49342,0.00310806
149.5,8.87986,1.50367,0.00307019
150,8.92809,1.50354,0.00307063
150.5,8.97566,1.5009,0.00222532
151,9.02403,1.50135,0.00307246
151.5,9.07108,1.49411,0.00309106
152,9.11912,1.48568,0.00351369
152.5,9.16701,1.48264,0.0030789
153,9.21416,1.47763,0.00308
153.5,9.26202,1.4664,0.00308
154,9.30915,1.46956,0.00308
154.5,9.35758,1.47102,0.00307889
155,9.4043,1.46881,0.00439847
155.5,9.45317,1.47222,0.00439049
156,9.49933,1.46762,0.00335079
156.5,9.54684,1.47156,0.00306974
157,9.59411,1.47125,0.00307781
157.5,9.64346,1.47762,0.00437783
158,9.69062,1.4763,0.00438998
158.5,9.73644,1.47836,0.00439
159,9.78597,1.481,0.00438922
159.5,9.83445,1.4723,0.00308968
160,9.88133,1.48377,0.00307003
160.5,9.92916,1.48014,0.00307005
161,9.97649,1.48996,0.00300458
161.5,10.0231,1.4892,0.00307256
162,10.0717,1.48049,0.0030692
162.5,10.1197,1.48394,0.00520711
163,10.1668,1.48659,0.00571597
163.5,10.2145,1.48021,0.00438266
164,10.2627,1.49152,0.00439037
164.5,10.31,1.48964,0.00376943
165,10.3575,1.48929,0.00398632
165.5,10.4045,1.49316,0.00439058
166,10.4529,1.49549,0.00439
166.5,10.4987,1.49388,0.00438999
167,10.5468,1.49317,0.00439521
167.5,10.5953,1.49551,0.00372208
168,10.6423,1.49381,0.00439012
168.5,10.6909,1.49812,0.00439
169,10.7374,1.49831,0.00438999
169.5,10.7845,1.5021,0.00379781
170,10.8329,1.50691,0.00307278
170.5,10.8802,1.50284,0.0044054
171,10.9277,1.50451,0.00431355
171.5,10.9739,1.50561,0.00438988
172,11.0225,1.5035,0.00438578
172.5,11.0708,1.49962,0.00406044
173,11.1181,1.49575,0.00405999
173.5,11.1659,1.505,0.00406
174,11.2127,1.50105,0.00405996
174.5,11.2605,1.51016,0.0040192
175,11.3086,1.50929,0.00453557
175.5,11.3551,1.50203,0.00438973
176,11.4028,1.51037,0.00437368
176.5,11.4502,1.51091,0.00340686
177,11.4968,1.50939,0.00341007
177.5,11.545,1.5121,0.0040366
178,11.5922,1.5071,0.00471983
178.5,11.64,1.50289,0.00437934
179,11.6874,1.50731,0.0043899
179.5,11.7344,1.50875,0.00347039
180,11.7829,1.50927,0.00306955
180.5,11.8306,1.51893,0.00305513
181,11.8789,1.51806,0.00373786
181.5,11.9241,1.51803,0.00439198
182,11.9706,1.52143,0.00343134
182.5,12.0198,1.52916,0.00339999
183,12.0679,1.52621,0.0034
183.5,12.1147,1.5197,0.00339999
184,12.1619,1.52691,0.0034
184.5,12.2095,1.52688,0.00474544
185,12.2575,1.53244,0.00449564
185.5,12.3049,1.5305,0.00435658
186,12.3529,1.52584,0.00407847
186.5,12.3979,1.52417,0.00438955
187,12.4469,1.52409,0.00439
187.5,12.4942,1.52671,0.00439
188,12.541,1.52729,0.00438994
188.5,12.5884,1.52329,0.00439361
189,12.6366,1.52883,0.00349731
189.5,12.6839,1.52951,0.00440284
190,12.7308,1.52609,0.00306522
190.5,12.7796,1.53042,0.00302647
191,12.8256,1.5334,0.00384542
191.5,12.8735,1.53179,0.00406014
192,12.9206,1.52863,0.00406
192.5,12.9685,1.53081,0.00406076
193,13.0168,1.52759,0.00286825
193.5,13.0642,1.54176,0.00273977
194,13.1115,1.53366,0.00274
194.5,13.1587,1.53491,0.00273998
195,13.2057,1.52807,0.00275085
195.5,13.2536,1.533,0.00307233
196,13.3026,1.53755,0.00306954
196.5,13.3486,1.53645,0.00384553
197,13.3972,1.53264,0.00372959
197.5,13.4439,1.53459,0.00372894
198,13.492,1.5383,0.00304673
198.5,13.5391,1.53974,0.00308906
199,13.5862,1.53761,0.00336255
199.5,13.6342,1.53847,0.00406876
200,13.6808,1.54114,0.00407
200.5,13.7287,1.54152,0.00407
201,13.7762,1.53417,0.00406969
201.5,13.8242,1.54559,0.00335886
202,13.8714,1.54528,0.0030797
202.5,13.9181,1.5438,0.00307692
203,13.9656,1.5429,0.0044531
203.5,14.0109,1.541,0.00438872
204,14.0606,1.54237,0.00349829
204.5,14.1091,1.54291,0.00307002
205,14.1552,1.54471,0.00307
205.5,14.2034,1.54594,0.00307
206,14.2498,1.54601,0.00307001
206.5,14.2973,1.5487,0.00306257
207,14.3456,1.54732,0.00404167
207.5,14.392,1.54811,0.00348166
208,14.4398,1.54245,0.0030695
208.5,14.4878,1.5455,0.00308786
209,14.5328,1.55356,0.00438553
209.5,14.5819,1.55235,0.00439
210,14.6304,1.55397,0.00439046
210.5,14.6783,1.55152,0.00306549
211,14.7249,1.55528,0.00298363
211.5,14.7722,1.55525,0.00406956
212,14.8204,1.54941,0.00343765
212.5,14.869,1.54325,0.00274997
213,14.9154,1.55304,0.00275
213.5,14.9632,1.55624,0.00275
214,15.0115,1.55331,0.00275
214.5,15.0576,1.55544,0.00275
215,15.1039,1.55496,0.00275
215.5,15.1518,1.55424,0.00275
216,15.1999,1.55071,0.00272373
216.5,15.247,1.55598,0.00334722
217,15.2947,1.55738,0.00438895
217.5,15.341,1.56669,0.00439663
218,15.3906,1.55362,0.00342397
218.5,15.4376,1.5494,0.00306294
219,15.4857,1.55512,0.00306995
219.5,15.5325,1.55461,0.00307
220,15.579,1.55658,0.00307105
220.5,15.6262,1.55927,0.00369924
221,15.6746,1.56436,0.00307086
221.5,15.7197,1.56391,0.00306847
222,15.77,1.5615,0.00192121
222.5,15.817,1.55809,0.00175995
223,15.8651,1.55942,0.00176209
223.5,15.9105,1.56427,0.00416793
224,15.9602,1.56403,0.00407227
224.5,16.0073,1.56174,0.00306345
225,16.054,1.56814,0.00175868
225.5,16.1022,1.55848,0.00176001
226,16.1504,1.5641,0.00175906
226.5,16.1978,1.56127,0.00308655
227,16.245,1.56087,0.00309327
227.5,16.2919,1.56624,0.00439
228,16.3391,1.56673,0.0043887
228.5,16.3872,1.56252,0.0033375
229,16.4346,1.56757,0.00339969
229.5,16.4821,1.56585,0.00340013
230,16.5299,1.56742,0.00328593
230.5,16.5777,1.56385,0.0030699
231,16.6254,1.56136,0.00308024
231.5,16.6715,1.56263,0.00109223
232,16.7198,1.55451,0.0010957
232.5,16.7675,1.56398,0.00242768
233,16.8146,1.56196,0.00300474
233.5,16.862,1.56245,0.00366473
234,16.9095,1.56291,0.00242214
234.5,16.9572,1.56245,0.00108538
235,17.0056,1.57234,0.00108999
235.5,17.0521,1.57012,0.00108944
236,17.0995,1.56585,0.00127801
236.5,17.1459,1.56609,0.00233403
237,17.1954,1.56743,0.00340114
237.5,17.2399,1.57548,0.00340052
238,17.2893,1.56783,0.00306076
238.5,17.3381,1.56828,0.00208008
239,17.3841,1.57158,0.00208002
239.5,17.4322,1.57099,0.00207828
240,17.4793,1.56691,0.00241155
240.5,17.5248,1.57053,0.00240653
241,17.575,1.57509,0.00249983
241.5,17.6227,1.57412,0.00241999
242,17.6694,1.5787,0.00242
242.5,17.7158,1.57258,0.00242
243,17.7637,1.57796,0.00242
243.5,17.8114,1.57677,0.00242
244,17.8591,1.56897,0.00241998
244.5,17.9031,1.57932,0.00242338
245,17.9534,1.57815,0.00371908
245.5,18.0018,1.57168,0.00373
246,18.0491,1.57215,0.00373
246.5,18.0954,1.57472,0.0037303
247,18.1426,1.57385,0.00371776
247.5,18.1899,1.57405,0.00230046
248,18.2377,1.56829,0.000916541
248.5,18.286,1.56517,0.000980106
249,18.3323,1.56968,0.000975818
249.5,18.3802,1.57365,0.00295854
250,18.4277,1.57053,0.00328392
250.5,18.4755,1.56691,0.00311097
251,18.5227,1.57181,0.0019704
251.5,18.5687,1.57756,0.00197
252,18.6184,1.5729,0.00196999
252.5,18.6649,1.5707,0.00197435
253,18.712,1.57054,0.00262963
253.5,18.7598,1.57641,0.00262966
254,18.8086,1.57813,0.0030732
254.5,18.8559,1.58474,0.0032904
255,18.9027,1.57544,0.00328936
255.5,18.9511,1.5732,0.00233203
256,18.9978,1.58047,0.00233768
256.5,19.0461,1.58334,0.00295954
257,19.0941,1.58321,0.00296
257.5,19.1415,1.58476,0.00296
258,19.1893,1.57702,0.00295986
258.5,19.2368,1.58318,0.00306205
259,19.2838,1.58149,0.00200768
259.5,19.3299,1.5794,0.00198007
260,19.3795,1.58429,0.00198
260.5,19.4268,1.58316,0.00198
261,19.4745,1.58084,0.00198
261.5,19.5216,1.58795,0.00197985
262,19.5707,1.59432,0.00193459
262.5,19.6158,1.59162,0.00295853
263,19.6652,1.58905,0.00288467
263.5,19.7131,1.58257,0.00428017
264,19.7593,1.58283,0.00426707
264.5,19.8084,1.58585,0.00297621
265,19.8566,1.57954,0.00296999
265.5,19.9011,1.57668,0.00297
266,19.9513,1.58214,0.00297
266.5,19.9988,1.58455,0.00297
267,20.0467,1.58799,0.00297002
267.5,20.0944,1.58053,0.00296091
268,20.1419,1.58544,0.00166006
268.5,20.1899,1.58845,0.00264313
269,20.2369,1.58401,0.00263999
269.5,20.2844,1.58153,0.00264
270,20.3318,1.58764,0.00264
270.5,20.3804,1.58984,0.0026384
271,20.4273,1.5937,0.00295137
271.5,20.4756,1.59122,0.00295578
272,20.5234,1.58705,0.00428706
272.5,20.5704,1.5861,0.00294317
273,20.6194,1.58615,0.00296006
273.5,20.6668,1.58305,0.00295988
274,20.7157,1.57793,0.00297136
274.5,20.7625,1.58462,0.00362
275,20.8099,1.58516,0.00362
275.5,20.8578,1.57987,0.00362001
276,20.9058,1.5761,0.00361831
276.5,20.9539,1.5793,0.00570222
277,21.0009,1.57885,0.0055996
277.5,21.0489,1.57874,0.0044178
278,21.097,1.58243,0.00427557
278.5,21.1439,1.57723,0.00295182
279,21.1916,1.58221,0.0042788
279.5,21.2387,1.57962,0.00429973
280,21.2864,1.57201,0.00232266
280.5,21.3354,1.57223,0.00197712
281,21.3828,1.57972,0.00197
281.5,21.4318,1.57724,0.00196998
282,21.4788,1.57389,0.00241398
282.5,21.5255,1.57622,0.00191833
283,21.5739,1.57867,0.00230942
283.5,21.6227,1.57413,0.00231
284,21.6694,1.57832,0.00231
284.5,21.7175,1.57876,0.00231
285,21.7648,1.58137,0.00231
285.5,21.8127,1.57388,0.00231
286,21.8604,1.57012,0.00231
286.5,21.9067,1.5734,0.00231
287,21.9545,1.5813,0.00231
287.5,22.0033,1.58883,0.0023098
288,22.0506,1.58172,0.00354014
288.5,22.0988,1.57463,0.00363313
289,22.1441,1.57824,0.0022664
289.5,22.1944,1.57307,0.00230981
290,22.2417,1.57696,0.00229926
290.5,22.2906,1.57531,0.00362036
291,22.3375,1.5717,0.00330185
291.5,22.3852,1.5727,0.0019413
292,22.4331,1.57649,0.00198765
292.5,22.4811,1.5802,0.00330146
293,22.5278,1.57504,0.00330004
293.5,22.5766,1.5751,0.00322903
294,22.6249,1.57652,0.00198134
294.5,22.672,1.57468,0.00198
295,22.72,1.56911,0.00198
295.5,22.7673,1.57999,0.00198
296,22.816,1.57103,0.00198
296.5,22.8643,1.56982,0.00198
297,22.9116,1.56743,0.00198
297.5,22.9604,1.57302,0.00197998
298,23.0075,1.57847,0.00199759
298.5,23.0555,1.56954,0.00263461
299,23.1033,1.57166,0.00263
299.5,23.1505,1.57202,0.00262994
300,23.1992,1.57547,0.0028489
300.5,23.2466,1.57443,0.00328921
301,23.2943,1.57299,0.00345977
301.5,23.3433,1.57537,0.00395004
302,23.3903,1.56663,0.00395
302.5,23.4385,1.56744,0.00395042
303,23.4862,1.58014,0.00357692
303.5,23.534,1.5737,0.0026302
304,23.5819,1.57188,0.00263
304.5,23.6301,1.57903,0.00263
305,23.6781,1.57395,0.00263
305.5,23.7264,1.57469,0.00263
306,23.7735,1.57822,0.00263
306.5,23.8216,1.57307,0.00263
307,23.87,1.5707,0.00263
307.5,23.9175,1.57449,0.00263
308,23.9647,1.57788,0.00263
308.5,24.0135,1.57912,0.00263
309,24.0614,1.57702,0.00263
309.5,24.1099,1.57292,0.0026299
310,24.1571,1.56588,0.00276805
310.5,24.2053,1.57597,0.00165276
311,24.2533,1.56776,0.00262744
311.5,24.3005,1.57074,0.00262999
312,24.3485,1.57045,0.00264592
312.5,24.3979,1.57242,0.00329435
313,24.445,1.57531,0.00328998
313.5,24.4944,1.569,0.00329595
314,24.5427,1.57233,0.00196728
314.5,24.5904,1.56642,0.00198071
315,24.6382,1.56679,0.00263279
315.5,24.6863,1.56946,0.00263
316,24.7349,1.56776,0.00262867
316.5,24.7828,1.56825,0.00165762
317,24.8301,1.56264,0.00131001
317.5,24.8794,1.55438,0.00131
318,24.9265,1.56135,0.00130987
318.5,24.9753,1.55972,0.00138549
319,25.0233,1.55644,1.73759e-08
319.5,25.0716,1.56332,0.000625909
320,25.1196,1.55379,0.00131123
320.5,25.1688,1.55191,0.00236765
321,25.2159,1.54788,0.00229987
321.5,25.2636,1.55203,0.0023
322,25.313,1.55951,0.00229927
322.5,25.3602,1.55316,0.000974617
323,25.4085,1.54556,0.00098007
323.5,25.4563,1.54859,0.000980006
324,25.5051,1.54023,0.000976257
324.5,25.5531,1.54871,0.00162327
325,25.601,1.54211,0.00164068
325.5,25.6497,1.54307,0.000325357
326,25.698,1.53809,0.00031881
326.5,25.7459,1.53798,0.00137855
327,25.7922,1.54871,0.00164609
327.5,25.843,1.54202,0.00163998
328,25.8897,1.53939,0.00164
328.5,25.9394,1.53258,0.00164
329,25.9873,1.54047,0.00164
329.5,26.0357,1.54114,0.00164
330,26.0834,1.53766,0.00164001
330.5,26.1319,1.53225,0.00163584
331,26.1808,1.53314,0.000321051
331.5,26.2287,1.53273,0.000326173
332,26.2763,1.53265,0.00133737
332.5,26.3244,1.53371,-8.16322e-05
333,26.3738,1.5335,1.03081e-07
333.5,26.419,1.5287,3.88793e-10
334,26.4699,1.53066,7.29856e-09
334.5,26.518,1.52606,-7.10999e-06
335,26.5666,1.53492,0.00132749
335.5,26.6152,1.53101,0.00131999
336,26.6632,1.5293,0.00132
336.5,26.7118,1.53125,0.00132
337,26.76,1.5247,0.00132518
337.5,26.8083,1.52022,-1.16392e-05
338,26.8569,1.52234,2.17653e-08
338.5,26.9049,1.52781,1.86546e-11
339,26.9528,1.52616,-2.77922e-08
339.5,27.0008,1.5176,3.05428e-06
340,27.049,1.51461,-0.00131929
340.5,27.0978,1.516,-0.00132004
341,27.1461,1.51387,-0.00130283
341.5,27.1944,1.52111,0.000726074
342,27.2424,1.51811,0.000659897
342.5,27.2913,1.51703,0.000384658
343,27.3396,1.51322,-0.00065924
343.5,27.388,1.50642,-0.000454854
344,27.436,1.50925,-0.000325114
344.5,27.4843,1.5037,-0.00132761
345,27.5324,1.51099,-0.00131999
345.5,27.5812,1.50668,-0.0013199
346,27.6301,1.51105,-0.00159657
346.5,27.6783,1.50829,-0.00165016
347,27.7268,1.50812,-0.00165
347.5,27.775,1.50783,-0.00165
348,27.8231,1.51267,-0.00165
348.5,27.8716,1.50911,-0.00165
349,27.9207,1.50474,-0.00165
349.5,27.9696,1.5055,-0.00165018
350,28.0174,1.50293,-0.00201429
350.5,28.0661,1.50246,-0.00197972
351,28.1143,1.50416,-0.00210133
351.5,28.1636,1.49888,-0.00295967
352,28.2112,1.50062,-0.00296
352.5,28.2595,1.49973,-0.00296052
353,28.3091,1.50161,-0.00391218
353.5,28.3575,1.49875,-0.00394983
354,28.4028,1.49645,-0.00462622
354.5,28.4513,1.49763,-0.00362006
355,28.503,1.50016,-0.00362001
355.5,28.5519,1.49927,-0.00362
356,28.6003,1.49685,-0.00296572
356.5,28.648,1.49504,-0.00295998
357,28.6968,1.49694,-0.00296
357.5,28.7457,1.4972,-0.00296
358,28.7939,1.49235,-0.00296
358.5,28.8421,1.49308,-0.00296003
359,28.8908,1.48482,-0.00352926
359.5,28.9403,1.49233,-0.00427967
360,28.9889,1.48803,-0.00428584
360.5,29.0371,1.48078,-0.00294869
361,29.0858,1.48371,-0.0029583
361.5,29.1338,1.48193,-0.00428663
362,29.1829,1.48996,-0.00428308
362.5,29.2311,1.48373,-0.00494244
363,29.2802,1.48563,-0.00493999
363.5,29.3274,1.47702,-0.00494
364,29.3763,1.48243,-0.00493999
364.5,29.4252,1.48124,-0.0049428
365,29.474,1.48712,-0.00362
365.5,29.5212,1.48172,-0.00361999
366,29.5705,1.48576,-0.00361507
366.5,29.6202,1.49272,-0.00494307
367,29.666,1.48117,-0.00496531
367.5,29.7167,1.48214,-0.00625925
368,29.7653,1.47415,-0.00626148
368.5,29.8135,1.47864,-0.00597141
369,29.863,1.48622,-0.00460987
369.5,29.9111,1.48023,-0.0046101
370,29.9595,1.4656,-0.00450294
370.5,30.0079,1.47349,-0.00561339
371,30.057,1.47158,-0.00690766
371.5,30.1052,1.46225,-0.00692002
372,30.1546,1.46543,-0.00691942
372.5,30.2021,1.4597,-0.0062531
373,30.2512,1.46491,-0.00660241
373.5,30.3001,1.46931,-0.00659084
374,30.3487,1.46254,-0.00787948
374.5,30.3963,1.46648,-0.00790003
375,30.4464,1.46452,-0.0079
375.5,30.4957,1.47025,-0.00790152
376,30.5442,1.45557,-0.00905406
376.5,30.592,1.46205,-0.00922
377,30.6416,1.45188,-0.00922
377.5,30.6902,1.45749,-0.00922
378,30.7388,1.45918,-0.00922
378.5,30.788,1.45988,-0.00921994
379,30.8361,1.46157,-0.0092757
379.5,30.8851,1.45559,-0.0105378
380,30.9336,1.45603,-0.01054
380.5,30.9835,1.45636,-0.01054
381,31.0323,1.45786,-0.01054
381.5,31.0811,1.45373,-0.01054
382,31.1291,1.45314,-0.01054
382.5,31.1777,1.44942,-0.0105563
383,31.2268,1.45381,-0.0131858
383.5,31.2765,1.45376,-0.01318
384,31.3248,1.448,-0.0131674
384.5,31.3733,1.44026,-0.0118613
385,31.4227,1.44098,-0.0125886
385.5,31.4717,1.44592,-0.0118534
386,31.5206,1.44294,-0.0118493
386.5,31.5696,1.44554,-0.0132319
387,31.6173,1.44286,-0.0131699
387.5,31.6671,1.44443,-0.01317
388,31.716,1.43598,-0.0131386
388.5,31.7644,1.43929,-0.0144941
389,31.8131,1.43102,-0.01449
389.5,31.862,1.43665,-0.01449
390,31.9115,1.43198,-0.0144973
390.5,31.9595,1.42915,-0.0144619
391,32.0088,1.42765,-0.0144902
391.5,32.0566,1.42311,-0.014429
392,32.1062,1.42395,-0.015731
392.5,32.1547,1.41987,-0.0171317
393,32.2032,1.41841,-0.0157868
393.5,32.2528,1.41775,-0.0158101
394,32.3023,1.41469,-0.0158058
394.5,32.3504,1.41993,-0.0171169
395,32.3994,1.40472,-0.01712
395.5,32.4489,1.41054,-0.0171202
396,32.4977,1.40667,-0.0185557
396.5,32.5466,1.40663,-0.0184399
397,32.5958,1.40503,-0.01844
397.5,32.6423,1.39949,-0.0184379
398,32.6937,1.398,-0.0197649
398.5,32.7421,1.3992,-0.01976
399,32.7912,1.39075,-0.0203446
399.5,32.84,1.38781,-0.0224409
400,32.8884,1.39183,-0.0223998
400.5,32.9379,1.38726,-0.02254
401,32.9865,1.38182,-0.0224086
401.5,33.0349,1.37947,-0.0237097
402,33.0844,1.37112,-0.0236959
402.5,33.1339,1.37245,-0.025033
403,33.1825,1.36562,-0.0250016
403.5,33.2332,1.36862,-0.0250296
404,33.2812,1.36318,-0.02503
404.5,33.3306,1.36674,-0.0252615
405,33.3797,1.36011,-0.0263488
405.5,33.4285,1.35112,-0.0277259
406,33.4774,1.34415,-0.0289862
406.5,33.5271,1.34573,-0.0289852
407,33.576,1.34035,-0.0288461
407.5,33.6245,1.32575,-0.0289773
408,33.6734,1.33457,-0.0303076
408.5,33.7223,1.3245,-0.0302999
409,33.7713,1.32153,-0.0315736
409.5,33.8205,1.32399,-0.0316115
410,33.8689,1.32192,-0.0333267
410.5,33.9184,1.31308,-0.0351321
411,33.9677,1.30987,-0.0342629
411.5,34.0164,1.3076,-0.0355491
412,34.0659,1.30461,-0.036886
412.5,34.1154,1.29872,-0.037184
413,34.1637,1.30332,-0.0385307
413.5,34.213,1.29309,-0.0385287
414,34.26,1.29223,-0.0398325
414.5,34.3096,1.28528,-0.0411716
415,34.3592,1.28417,-0.0416013
415.5,34.4088,1.27861,-0.0436293
416,34.459,1.27523,-0.0450837
416.5,34.5071,1.27191,-0.0462805
417,34.5563,1.26403,-0.0468961
417.5,34.6056,1.26443,-0.0478043
418,34.6539,1.25897,-0.049212
418.5,34.7024,1.25626,-0.0514824
419,34.7517,1.24578,-0.0527144
419.5,34.8018,1.23753,-0.0528012
420,34.8505,1.23991,-0.054086
420.5,34.8997,1.23237,-0.0570516
421,34.9474,1.22596,-0.0585807
421.5,34.9975,1.21757,-0.0598805
422,35.0455,1.21791,-0.061311
422.5,35.0952,1.21136,-0.0635355
423,35.1436,1.20503,-0.0653568
423.5,35.1922,1.19527,-0.0666482
424,35.242,1.19004,-0.0681715
424.5,35.291,1.18556,-0.0706091
425,35.3414,1.17725,-0.0724523
425.5,35.3897,1.17069,-0.07484
426,35.437,1.15999,-0.0764755
426.5,35.487,1.15559,-0.0779133
427,35.5353,1.1462,-0.0794234
427.5,35.5845,1.14039,-0.0824351
428,35.6332,1.12896,-0.0846674
428.5,35.6819,1.12237,-0.08727
429,35.7322,1.11786,-0.0898276
429.5,35.7808,1.10997,-0.0916654
430,35.8295,1.10471,-0.0943095
430.5,35.8788,1.09715,-0.0975203
431,35.928,1.09306,-0.0999858
431.5,35.977,1.08367,-0.101997
432,36.0267,1.07595,-0.104614
432.5,36.0755,1.07095,-0.108525
433,36.125,1.06175,-0.112094
433.5,36.1717,1.05562,-0.114369
434,36.2229,1.04687,-0.116466
434.5,36.2719,1.04169,-0.11911
435,36.3212,1.02544,-0.122815
435.5,36.3705,1.02347,-0.125816
436,36.4211,1.02378,-0.128971
436.5,36.4687,1.02256,-0.132841
437,36.5185,1.01645,-0.136724
437.5,36.5676,1.01298,-0.139472
438,36.6173,1.01503,-0.144061
438.5,36.6663,1.00713,-0.148016
439,36.7146,0.999582,-0.151832
439.5,36.7645,0.995795,-0.156464
440,36.8133,0.993804,-0.160483
440.5,36.8633,0.986361,-0.164121
441,36.9128,0.982774,-0.168501
441.5,36.9611,0.978158,-0.173914
442,37.0108,0.986786,-0.178656
442.5,37.0565,0.985223,-0.183687
443,37.1087,0.970627,-0.188678
443.5,37.1593,0.967185,-0.19546
444,37.2074,0.970108,-0.201338
444.5,37.257,0.975627,-0.207401
445,37.306,0.984108,-0.213584
445.5,37.355,0.983145,-0.218682
446,37.4047,0.971151,-0.225721
446.5,37.4537,0.967189,-0.232164
447,37.5014,0.944138,-0.238471
447.5,37.5528,0.946296,-0.245673
448,37.6019,0.954474,-0.25338
448.5,37.6511,0.960398,-0.2612
449,37.6987,0.946027,-0.26956
449.5,37.7496,0.96003,-0.275927
450,37.7999,0.972656,-0.285573
450.5,37.849,0.978411,-0.293501
451,37.8997,1.00561,-0.303368
451.5,37.9485,1.03979,-0.312424
452,37.9973,1.04062,-0.322813
452.5,38.0481,1.05368,-0.335681
453,38.0965,1.05454,-0.346941
453.5,38.1459,1.05793,-0.358806
454,38.1964,1.04876,-0.370459
454.5,38.2455,1.0693,-0.38355
455,38.2951,1.10615,-0.396092
455.5,38.3451,1.11638,-0.40984
456,38.3944,1.13813,-0.422982
456.5,38.4438,1.10822,-0.437872
457,38.4928,1.06962,-0.45231
457.5,38.5435,1.07124,-0.466032
458,38.5918,1.11581,-0.479392
458.5,38.6421,1.14255,-0.495408
459,38.6908,1.11291,-0.511519
459.5,38.7409,1.1129,-0.528135
460,38.79,1.14511,-0.543635
460.5,38.8391,1.14033,-0.560608
461,38.89,1.14008,-0.5794
461.5,38.9393,1.16418,-0.596388
462,38.9891,1.17279,-0.613614
462.5,39.0374,1.17519,-0.631539
463,39.0875,1.15728,-0.651881
463.5,39.1375,1.17761,-0.67134
464,39.188,1.21792,-0.690094
464.5,39.238,1.25562,-0.711386
465,39.2869,1.26949,-0.733006
465.5,39.3364,1.28396,-0.755049
466,39.3852,1.25935,-0.775605
466.5,39.4358,1.22734,-0.798765
467,39.4841,1.18121,-0.822025
467.5,39.5331,1.16003,-0.843973
468,39.5825,1.1645,-0.863634
468.5,39.633,1.1729,-0.885421
469,39.6816,1.18404,-0.907841
469.5,39.7322,1.19658,-0.932543
470,39.7817,1.22255,-0.954497
470.5,39.8308,1.22558,-0.977849
471,39.8805,1.22605,-1.00262
471.5,39.9298,1.21786,-1.02892
472,39.9798,1.24799,-1.05308
472.5,40.029,1.22768,-1.07776
473,40.0788,1.20506,-1.10318
473.5,40.1268,1.17401,-1.12815
474,40.1749,1.14709,-1.15302
474.5,40.2265,1.14504,-1.1781
475,40.2768,1.1656,-1.20238
475.5,40.3243,1.18333,-1.22799
476,40.375,1.18498,-1.25599
476.5,40.4251,1.18295,-1.28191
477,40.4744,1.16808,-1.3073
477.5,40.523,1.17333,-1.33382
478,40.5729,1.20848,-1.3616
478.5,40.6225,1.23379,-1.38773
479,40.6733,1.24093,-1.41414
479.5,40.7235,1.2429,-1.44407
480,40.7729,1.24275,-1.47354
480.5,40.8222,1.24817,-1.50216
481,40.8718,1.25981,-1.52921
481.5,40.9221,1.26406,-1.55884
482,40.9691,1.25901,-1.58615
482.5,41.0221,1.25645,-1.61732
483,41.0712,1.25262,-1.64529
483.5,41.121,1.26172,-1.67466
484,41.1703,1.26031,-1.70467
484.5,41.2201,1.26497,-1.73319
485,41.2699,1.26039,-1.76056
485.5,41.3194,1.25198,-1.78986
486,41.3659,1.24967,-1.81685
486.5,41.4173,1.24554,-1.8464
487,41.4681,1.24303,-1.87548
487.5,41.5172,1.23245,-1.90293
488,41.5667,1.22709,-1.9331
488.5,41.6162,1.22025,-1.9614
489,41.6664,1.21805,-1.98902
489.5,41.715,1.20978,-2.01571
490,41.7647,1.20393,-2.04457
490.5,41.8147,1.18867,-2.07214
491,41.8635,1.17967,-2.09895
491.5,41.9125,1.16228,-2.1253
492,41.9627,1.13928,-2.15257
492.5,42.0116,1.11541,-2.17982
493,42.0594,1.10388,-2.20456
493.5,42.1106,1.08634,-2.23004
494,42.1596,1.06169,-2.25487
494.5,42.2087,1.04837,-2.28056
495,42.2591,1.01896,-2.30519
495.5,42.3085,0.993117,-2.32789
496,42.3569,0.973727,-2.35026
496.5,42.4063,0.957085,-2.37318
497,42.4556,0.93041,-2.3957
497.5,42.5047,0.905722,-2.41661
498,42.5545,0.875217,-2.4384
498.5,42.6042,0.858187,-2.45821
499,42.6536,0.830504,-2.48014
499.5,42.7031,0.798768,-2.49876
500,42.7518,0.775682,-2.51729
500.5,42.8013,0.756285,-2.53538
501,42.8502,0.729909,-2.5544
501.5,42.8999,0.705793,-2.57244
502,42.9472,0.685566,-2.58828
502.5,42.9983,0.65494,-2.60619
503,43.0473,0.639061,-2.62121
503.5,43.0984,0.617616,-2.63718
504,43.1471,0.594857,-2.65213
504.5,43.1965,0.573126,-2.66677
505,43.2465,0.555625,-2.68142
505.5,43.2949,0.528745,-2.69384
506,43.3452,0.522607,-2.70697
506.5,43.3941,0.513504,-2.72031
507,43.4437,0.489139,-2.73285
507.5,43.4937,0.470755,-2.74519
508,43.5424,0.451937,-2.75636
508.5,43.5929,0.443006,-2.76732
509,43.6421,0.423614,-2.77799
509.5,43.6922,0.417699,-2.788
510,43.7414,0.400689,-2.79818
510.5,43.7912,0.390887,-2.80825
511,43.8406,0.377064,-2.81861
511.5,43.89,0.368466,-2.82753
512,43.9405,0.355352,-2.83674
512.5,43.9896,0.348854,-2.84509
513,44.0396,0.335954,-2.85197
513.5,44.0885,0.328522,-2.86013
514,44.1392,0.320295,-2.86665
514.5,44.1881,0.30708,-2.87328
515,44.2383,0.295689,-2.88018
515.5,44.2877,0.298531,-2.88549
516,44.338,0.28359,-2.89124
516.5,44.3872,0.279592,-2.89617
517,44.4367,0.266597,-2.90168
517.5,44.4872,0.260722,-2.90666
518,44.5355,0.251683,-2.91227
518.5,44.5868,0.247725,-2.91635
519,44.6361,0.243183,-2.922
519.5,44.6868,0.231522,-2.92646
520,44.7357,0.231534,-2.92941
520.5,44.7859,0.225498,-2.93325
521,44.8362,0.219614,-2.93754
521.5,44.8856,0.221162,-2.94172
522,44.9348,0.207637,-2.94553
522.5,44.9855,0.205136,-2.94948
523,45.0349,0.211207,-2.95255
523.5,45.0853,0.198983,-2.95577
524,45.1347,0.197594,-2.95941
524.5,45.1858,0.187033,-2.9624
525,45.2349,0.189289,-2.96486
525.5,45.2823,0.189401,-2.96777
526,45.3352,0.182601,-2.97085
526.5,45.3825,0.178714,-2.97439
527,45.4356,0.1875,-2.97598
527.5,45.4843,0.174708,-2.97854
528,45.5339,0.175042,-2.98102
528.5,45.584,0.173269,-2.98458
529,45.6341,0.173868,-2.98694
529.5,45.6838,0.175272,-2.98978
530,45.7345,0.167653,-2.9918
530.5,45.7844,0.16146,-2.99471
531,45.834,0.161522,-2.99712
531.5,45.8835,0.160836,-2.99885
532,45.9338,0.163223,-3.00035
532.5,45.9842,0.159325,-3.00256
533,46.0332,0.157928,-3.0032
533.5,46.0837,0.151067,-3.00549
534,46.1336,0.153681,-3.00895
534.5,46.1846,0.150269,-3.01052
535,46.2319,0.150704,-3.0119
535.5,46.2835,0.145156,-3.01482
536,46.3341,0.144725,-3.01496
536.5,46.3846,0.140459,-3.01717
537,46.4347,0.136133,-3.01904
537.5,46.4838,0.135535,-3.02165
538,46.5349,0.127156,-3.02307
538.5,46.5851,0.133399,-3.02436
539,46.6341,0.132233,-3.02451
539.5,46.6846,0.125806,-3.02749
540,46.734,0.117586,-3.02985
540.5,46.7847,0.127147,-3.02929
541,46.8347,0.122398,-3.03119
541.5,46.8849,0.116887,-3.03269
542,46.935,0.114266,-3.03398
542.5,46.9852,0.109174,-3.03531
543,47.0345,0.107868,-3.0366
543.5,47.0845,0.104582,-3.03803
544,47.1355,0.109095,-3.03925
544.5,47.1845,0.104696,-3.04058
545,47.2357,0.104173,-3.04355
545.5,47.2845,0.105937,-3.04474
546,47.3332,0.102908,-3.0452
546.5,47.3834,0.104391,-3.04473
547,47.4352,0.107815,-3.04605
547.5,47.4854,0.107616,-3.04739
548,47.5355,0.105217,-3.04908
548.5,47.5859,0.10452,-3.05022
549,47.6358,0.102196,-3.05026
549.5,47.6855,0.0967474,-3.05183
550,47.7369,0.0962475,-3.0546
550.5,47.7857,0.0951404,-3.05482
551,47.8357,0.0918467,-3.05575
551.5,47.8859,0.0970004,-3.05716
552,47.9348,0.0984579,-3.05853
552.5,47.9851,0.0893543,-3.0599
553,48.0358,0.0952112,-3.06131
553.5,48.0856,0.0887344,-3.0612
554,48.1356,0.0906436,-3.06261
554.5,48.1864,0.0885702,-3.06439
555,48.2335,0.0927234,-3.06501
555.5,48.2862,0.0884483,-3.06625
556,48.3367,0.0817509,-3.0663
556.5,48.385,0.0869664,-3.06772
557,48.4362,0.0866736,-3.06911
557.5,48.4865,0.0897861,-3.07009
558,48.5366,0.0894766,-3.07143
558.5,48.587,0.089879,-3.07284
559,48.6366,0.0864109,-3.07326
559.5,48.6872,0.085263,-3.07279
560,48.7361,0.0870502,-3.07403
560.5,48.787,0.0898662,-3.07546
561,48.8361,0.0807712,-3.07752
561.5,48.8875,0.0899945,-3.07902
562,48.9373,0.0891567,-3.0795
562.5,48.9873,0.0914892,-3.07958
563,49.0373,0.0863359,-3.08205
563.5,49.0873,0.0829218,-3.08074
564,49.1382,0.0883436,-3.0823
564.5,49.1889,0.089152,-3.08347
565,49.2388,0.0848417,-3.08481
565.5,49.2887,0.0899025,-3.08615
566,49.34,0.0907421,-3.0881
566.5,49.3897,0.087439,-3.08873
567,49.4401,0.0980699,-3.08876
567.5,49.4896,0.0937243,-3.09007
568,49.5386,0.0915713,-3.09075
568.5,49.591,0.0953505,-3.09165
569,49.6415,0.086602,-3.09271
569.5,49.6916,0.0876979,-3.09402
570,49.7425,0.0903131,-3.09538
570.5,49.7923,0.0841344,-3.09534
571,49.8429,0.0883827,-3.09666
571.5,49.893,0.0860736,-3.09662
572,49.9439,0.0792801,-3.09668
572.5,49.9945,0.0886819,-3.0986
573,50.0453,0.0845332,-3.10002
573.5,50.0946,0.0835845,-3.09998
574,50.1453,0.0834107,-3.10129
574.5,50.1957,0.0863048,-3.10258
575,50.2455,0.0737075,-3.1039
575.5,50.2966,0.0757615,-3.10522
576,50.3471,0.0767375,-3.10426
576.5,50.3968,0.0749727,-3.10553
577,50.4483,0.0706966,-3.10558
577.5,50.4982,0.072185,-3.10701
578,50.5486,0.0751947,-3.1083
578.5,50.6003,0.0692424,-3.10965
579,50.6491,0.0729352,-3.10952
579.5,50.6994,0.0668873,-3.11094
580,50.7499,0.0708477,-3.11217
580.5,50.8003,0.0660114,-3.11225
581,50.8497,0.0659536,-3.11358
581.5,50.9019,0.0609482,-3.11489
582,50.9515,0.0638019,-3.11489
582.5,51.0018,0.0660077,-3.11521
583,51.0531,0.0675789,-3.11619
583.5,51.1009,0.0728887,-3.11752
584,51.1533,0.0553179,-3.11884
584.5,51.2033,0.0656784,-3.11885
585,51.254,0.0616782,-3.12016
585.5,51.3033,0.0639842,-3.12062
586,51.3545,0.0592543,-3.12234
586.5,51.4046,0.0598276,-3.12279
587,51.4557,0.0518838,-3.12282
587.5,51.5059,0.0524287,-3.12412
588,51.5558,0.0511551,-3.12542
588.5,51.6063,0.0567198,-3.12511
589,51.6568,0.0561628,-3.12642
589.5,51.7065,0.0577504,-3.12773
590,51.7577,0.0580016,-3.12832
590.5,51.8083,0.0566704,-3.12806
591,51.8585,0.0633517,-3.12806
591.5,51.9086,0.0574748,-3.12818
592,51.9604,0.0619651,-3.12937
592.5,52.0105,0.0590526,-3.13069
593,52.0612,0.0530375,-3.13036
593.5,52.1107,0.0551994,-3.13167
594,52.1611,0.0586139,-3.13168
594.5,52.2126,0.0504356,-3.133
595,52.2622,0.0543145,-3.13432
595.5,52.313,0.0705741,-3.13432
596,52.3632,0.0761137,-3.13562
596.5,52.4127,0.0846256,-3.1356
597,52.4642,0.0799919,-3.13563
597.5,52.5144,0.0782773,-3.13575
598,52.5661,0.0869205,-3.13682
598.5,52.6161,0.0729403,-3.13959
599,52.6664,0.0739871,-3.13961
599.5,52.7164,0.0764966,-3.1409
600,52.7668,0.0790334,-3.1409
600.5,52.8184,0.0782558,-3.14218
601,52.8687,0.0837298,-3.14093
601.5,52.9185,0.0760078,-3.14086
602,52.9689,0.0702222,-3.14222
602.5,53.0198,0.0661216,-3.14354
603,53.0697,0.0620075,-3.14403
603.5,53.12,0.0612583,-3.1452
604,53.1702,0.0661836,-3.1465
604.5,53.2206,0.0623022,-3.1465
605,53.2713,0.0621349,-3.14781
605.5,53.3224,0.0597302,-3.14718
606,53.3723,0.067597,-3.14848
606.5,53.4229,0.065391,-3.14848
607,53.4724,0.0641927,-3.1498
607.5,53.5231,0.0691796,-3.14978
608,53.5738,0.0727827,-3.15111
608.5,53.6229,0.0597461,-3.15152
609,53.6741,0.0667719,-3.15243
609.5,53.7231,0.0683804,-3.15244
610,53.7739,0.0685125,-3.15375
610.5,53.8247,0.0792194,-3.15309
611,53.8726,0.0684557,-3.15309
611.5,53.9249,0.0710057,-3.15313
612,53.9757,0.0718125,-3.15431
612.5,54.0264,0.0839639,-3.15441
613,54.0778,0.0775306,-3.15515
613.5,54.1277,0.0853057,-3.15577
614,54.1772,0.0829599,-3.15573
614.5,54.2272,0.0771197,-3.15703
615,54.2782,0.0812551,-3.1574
615.5,54.3282,0.0856219,-3.15836
616,54.3773,0.0940401,-3.15754
616.5,54.429,0.090923,-3.15703
617,54.4804,0.0998492,-3.1589
617.5,54.5307,0.0940089,-3.15992
618,54.5786,0.102656,-3.161
618.5,54.6315,0.0993774,-3.16103
619,54.682,0.0923943,-3.16166
619.5,54.7328,0.0987793,-3.16165
620,54.7835,0.0968745,-3.16297
620.5,54.8344,0.0956157,-3.16297
621,54.8859,0.104217,-3.1629
621.5,54.9365,0.111599,-3.16429
622,54.9859,0.106417,-3.16428
622.5,55.0374,0.103383,-3.16489
623,55.0882,0.110777,-3.16498
623.5,55.1382,0.113407,-3.16626
624,55.1897,0.111021,-3.16626
624.5,55.2412,0.11765,-3.1676
625,55.2919,0.117837,-3.16758
625.5,55.3419,0.120808,-3.16758
626,55.3938,0.114867,-3.1689
626.5,55.4442,0.112222,-3.16845
627,55.4926,0.117134,-3.1689
627.5,55.5454,0.117389,-3.16889
628,55.5962,0.119776,-3.17152
628.5,55.6469,0.119191,-3.17156
629,55.6976,0.115893,-3.17021
629.5,55.7484,0.118683,-3.17149
630,55.7995,0.116819,-3.17153
630.5,55.8493,0.114654,-3.17153
631,55.9011,0.117812,-3.17245
631.5,55.9501,0.122013,-3.17284
632,56.0021,0.125748,-3.17417
632.5,56.0529,0.121505,-3.17417
633,56.1041,0.123436,-3.1756
633.5,56.1541,0.123585,-3.17416
634,56.2048,0.118562,-3.17416
634.5,56.2555,0.121345,-3.17487
635,56.307,0.123234,-3.17551
635.5,56.3563,0.116923,-3.17752
636,56.4071,0.113465,-3.17798
636.5,56.4583,0.114546,-3.17794
637,56.5067,0.110037,-3.17954
637.5,56.5596,0.107625,-3.17944
638,56.6102,0.112516,-3.17846
638.5,56.6606,0.109295,-3.17898
639,56.7125,0.106883,-3.17943
639.5,56.7622,0.105145,-3.18076
640,56.8129,0.107103,-3.18075
640.5,56.8641,0.107969,-3.1801
641,56.9142,0.107469,-3.18012
641.5,56.9644,0.10755,-3.18142
642,57.0146,0.108671,-3.18142
642.5,57.0657,0.108665,-3.18279
643,57.1161,0.0975366,-3.18274
643.5,57.1671,0.0983954,-3.18273
644,57.2172,0.0902794,-3.18209
644.5,57.2676,0.0900944,-3.18337
645,57.3176,0.0892335,-3.18339
645.5,57.3691,0.0878023,-3.18457
646,57.4192,0.0894283,-3.18471
646.5,57.4694,0.0915982,-3.18471
647,57.5208,0.0893666,-3.18559
647.5,57.5706,0.0856528,-3.18605
648,57.621,0.083854,-3.18735
648.5,57.6725,0.0834109,-3.18725
649,57.7224,0.0719905,-3.18603
649.5,57.7729,0.0793446,-3.18604
650,57.8236,0.0703027,-3.18812
650.5,57.8738,0.0712397,-3.18752
651,57.9246,0.0692924,-3.18734
651.5,57.9755,0.0729122,-3.18867
652,58.0253,0.0642912,-3.18866
652.5,58.0754,0.0637707,-3.1884
653,58.1369,0.0658678,-3.18866
653.5,58.1855,0.0572901,-3.18868
654,58.2375,0.0581183,-3.18965
654.5,58.2888,0.0570073,-3.19102
655,58.3397,0.0546724,-3.19096
655.5,58.3911,0.0580878,-3.19096
656,58.4412,0.0474345,-3.19156
656.5,58.491,0.0421756,-3.19228
657,58.5421,0.0485386,-3.19228
657.5,58.5924,0.0483393,-3.19298
658,58.6444,0.0421822,-3.19361
658.5,58.6942,0.0412237,-3.19492
659,58.7453,0.0371818,-3.19494
659.5,58.7962,0.031026,-3.19426
660,58.8466,0.029854,-3.19558
660.5,58.8969,0.0324888,-3.19557
661,58.9478,0.0304851,-3.19557
661.5,58.9985,0.0266453,-3.19563
662,59.0497,0.0181545,-3.19491
662.5,59.1007,0.0287406,-3.19515
663,59.1509,0.0250802,-3.19623
663.5,59.2014,0.021836,-3.19755
664,59.2532,0.020491,-3.19755
664.5,59.3013,0.0160127,-3.1963
665,59.3541,0.017551,-3.19757
665.5,59.4048,0.0177669,-3.19756
666,59.4564,0.0125385,-3.19756
666.5,59.5074,0.0122846,-3.19864
667,59.5582,0.0102066,-3.19988
667.5,59.6086,0.0128525,-3.20117
668,59.6597,0.0102562,-3.20117
668.5,59.7102,0.0142402,-3.20138
669,59.7603,0.00374677,-3.20249
669.5,59.8123,0.0173494,-3.20249
670,59.8612,0.0192426,-3.20249
670.5,59.9142,0.0169221,-3.20379
671,59.9651,0.0127476,-3.20317
671.5,60.0159,0.00424576,-3.20283
672,60.0671,0.00715374,-3.20283
672.5,60.115,0.00352482,-3.20284
673,60.1679,0.00868539,-3.20245
673.5,60.2186,0.00557914,-3.20381
674,60.2697,0.00679667,-3.20428
674.5,60.3201,0.0177244,-3.20513
675,60.371,0.0112247,-3.20455
675.5,60.4222,0.0158138,-3.20381
676,60.4718,0.0142947,-3.20569
676.5,60.5236,0.015897,-3.20645
677,60.5735,0.0237402,-3.20513
677.5,60.6243,0.0207794,-3.20524
678,60.6758,0.021877,-3.20645
678.5,60.7268,0.0242318,-3.20647
679,60.7774,0.0251603,-3.20776
679.5,60.8278,0.0274458,-3.20776
680,60.8796,0.0251617,-3.20897
680.5,60.9302,0.0303607,-3.20908
681,60.9811,0.0255831,-3.20909
681.5,61.0309,0.0301001,-3.21039
682,61.0816,0.028117,-3.20908
682.5,61.132,0.0373595,-3.20908
683,61.1836,0.0311287,-3.20908
683.5,61.234,0.0407367,-3.20905
684,61.2836,0.0305483,-3.2104
684.5,61.3362,0.0296696,-3.2104
685,61.3866,0.0207985,-3.21035
685.5,61.4374,0.0298892,-3.21173
686,61.4887,0.0281056,-3.21302
686.5,61.5386,0.0316435,-3.21333
687,61.5909,0.0308712,-3.21302
687.5,61.6417,0.0303511,-3.21303
688,61.6917,0.0327605,-3.21435
688.5,61.743,0.0324023,-3.2142
689,61.7946,0.034843,-3.21369
689.5,61.8459,0.0345049,-3.21367
690,61.8962,0.0352352,-3.21426
690.5,61.9469,0.0378987,-3.21434
691,61.9986,0.0355222,-3.21502
691.5,62.0492,0.0334561,-3.215
692,62.1003,0.0348366,-3.21563
692.5,62.152,0.0433275,-3.21566
693,62.202,0.0459726,-3.21698
693.5,62.2528,0.0511231,-3.21567
694,62.3042,0.0515436,-3.21567
694.5,62.3558,0.0502936,-3.21562
695,62.4069,0.0467313,-3.217
695.5,62.4575,0.0521296,-3.21808
696,62.5078,0.0568191,-3.2183
696.5,62.5594,0.0613744,-3.2183
697,62.6104,0.0557922,-3.2183
697.5,62.6616,0.0566207,-3.21962
698,62.7125,0.0583332,-3.21962
698.5,62.763,0.0580144,-3.21962
699,62.8146,0.0519848,-3.21962
699.5,62.8659,0.0570733,-3.21962
700,62.9162,0.0545399,-3.22039
700.5,62.9673,0.0560518,-3.22094
701,63.0191,0.0607662,-3.22097
701.5,63.0696,0.0604485,-3.22193
702,63.1208,0.063358,-3.22193
702.5,63.1712,0.0581951,-3.22194
703,63.2226,0.0548698,-3.22127
703.5,63.2734,0.0534006,-3.22261
704,63.3243,0.0539859,-3.22258
704.5,63.3763,0.0518991,-3.22262
705,63.4264,0.0528032,-3.2239
705.5,63.4785,0.0589167,-3.2239
706,63.5292,0.0601005,-3.22521
706.5,63.5799,0.0644628,-3.22522
707,63.6306,0.0569843,-3.22522
707.5,63.6822,0.0651033,-3.22522
708,63.7327,0.0650571,-3.22522
708.5,63.7835,0.0621361,-3.22523
709,63.8352,0.0674067,-3.22654
709.5,63.8856,0.0734762,-3.22654
710,63.9369,0.0710006,-3.22622
710.5,63.9875,0.073941,-3.22752
711,64.0387,0.0802292,-3.22752
711.5,64.0903,0.0898914,-3.22852
712,64.1406,0.0855596,-3.22847
712.5,64.1926,0.0886701,-3.22752
713,64.2428,0.0982128,-3.2285
713.5,64.2953,0.0994586,-3.22852
714,64.3461,0.0987173,-3.22718
714.5,64.397,0.0931973,-3.22751
715,64.448,0.0927637,-3.22882
715.5,64.4977,0.10786,-3.22884
716,64.5507,0.111586,-3.22977
716.5,64.6014,0.109863,-3.23044
717,64.6527,0.108194,-3.23114
717.5,64.7046,0.114348,-3.23114
718,64.7549,0.112952,-3.23115
718.5,64.8068,0.115851,-3.2325
719,64.8576,0.114843,-3.23171
719.5,64.9094,0.110713,-3.23224
720,64.9608,0.115287,-3.23246
720.5,65.0116,0.119047,-3.23246
721,65.0625,0.118162,-3.23246
721.5,65.1144,0.124211,-3.23246
722,65.1673,0.116654,-3.23274
722.5,65.2172,0.113028,-3.23378
723,65.2673,0.120154,-3.23378
723.5,65.3204,0.117912,-3.23379
724,65.3704,0.124335,-3.23371
724.5,65.4231,0.119753,-3.23312
725,65.4741,0.124668,-3.23376
725.5,65.526,0.132598,-3.23508
726,65.5772,0.128294,-3.23378
726.5,65.6288,0.131642,-3.23378
727,65.6802,0.12823,-3.23477
727.5,65.7313,0.118868,-3.23477
728,65.7813,0.126002,-3.23609
728.5,65.8343,0.125978,-3.23607
729,65.8861,0.127584,-3.23614
729.5,65.9369,0.130266,-3.23609
730,65.9891,0.13151,-3.23609
730.5,66.0406,0.130608,-3.2361
731,66.0917,0.128205,-3.2384
731.5,66.1433,0.132981,-3.23838
732,66.194,0.136518,-3.23873
732.5,66.2451,0.130035,-3.23861
733,66.2956,0.139435,-3.23872
733.5,66.3481,0.136664,-3.23872
734,66.3995,0.131849,-3.23905
734.5,66.4512,0.133461,-3.24104
735,66.5028,0.131819,-3.24103
735.5,66.5534,0.136321,-3.24103
736,66.6043,0.137495,-3.24001
736.5,66.6561,0.139623,-3.24003
737,66.7078,0.145608,-3.24103
737.5,66.7586,0.13879,-3.24102
738,66.8112,0.14835,-3.23973
738.5,66.8621,0.151738,-3.23971
739,66.913,0.154269,-3.24102
739.5,66.9645,0.158938,-3.24233
740,67.0159,0.150149,-3.24234