File: 01_Data/NFPA_1981-2007_SCBA_Lens/STA/N2/10K_min/NFPA_1981-2007_SCBA_Lens_STA_N2_10KData_240102_R1.csv
Temp./C,Time/min,DSC/(mW/mg),Mass loss/mg
60.0,0.0,0.984064,0.00765145
60.5,0.0555158,1.00395,0.00656227
61,0.113796,1.00988,0.00527017
61.5,0.168047,1.02193,0.00513453
62,0.224361,1.02489,0.00363018
62.5,0.280116,1.03881,0.00421847
63,0.335262,1.04299,0.00348196
63.5,0.38934,1.05153,0.00429915
64,0.443567,1.05508,0.00547376
64.5,0.497808,1.07361,0.00459221
65,0.552026,1.07833,0.00438446
65.5,0.605939,1.08256,0.0038558
66,0.659316,1.08872,0.00437072
66.5,0.713301,1.09734,0.00459441
67,0.765256,1.10314,0.0035967
67.5,0.820121,1.11343,0.00328231
68,0.872437,1.12204,0.00222924
68.5,0.925865,1.12747,0.00182608
69,0.979224,1.12553,0.00328982
69.5,1.03101,1.13877,0.00400947
70,1.08551,1.1429,0.00460852
70.5,1.13702,1.15289,0.00595309
71,1.18797,1.15042,0.00592253
71.5,1.24196,1.15825,0.00461972
72,1.29492,1.16167,0.003727
72.5,1.344,1.16882,0.00461662
73,1.39966,1.17279,0.00454952
73.5,1.45223,1.18212,0.00461051
74,1.5031,1.18558,0.00589828
74.5,1.5553,1.19118,0.00563516
75,1.60791,1.19614,0.00593014
75.5,1.65827,1.19638,0.00590875
76,1.71055,1.20383,0.00593894
76.5,1.76262,1.21655,0.00460784
77,1.81303,1.2179,0.00460739
77.5,1.86084,1.22005,0.00594433
78,1.9178,1.22089,0.00599415
78.5,1.96824,1.22401,0.0059403
79,2.01917,1.23162,0.00590581
79.5,2.07069,1.23277,0.00459611
80,2.12277,1.24537,0.00593355
80.5,2.1718,1.24963,0.00591844
81,2.22402,1.25129,0.00623407
81.5,2.27464,1.25587,0.00532885
82,2.32575,1.26154,0.00600021
82.5,2.3748,1.2623,0.0046191
83,2.42548,1.26347,0.00442883
83.5,2.4758,1.27085,0.00474805
84,2.52522,1.27462,0.00494003
84.5,2.5792,1.27685,0.00493999
85,2.62827,1.2871,0.00495
85.5,2.67777,1.2922,0.00623432
86,2.72844,1.2961,0.00757312
86.5,2.7784,1.30419,0.00763861
87,2.82805,1.30341,0.00608783
87.5,2.87899,1.31295,0.0060482
88,2.92923,1.30411,0.00559834
88.5,2.977,1.313,0.0056
89,3.02857,1.32977,0.0056
89.5,3.07832,1.32725,0.00559923
90,3.12716,1.33678,0.00465494
90.5,3.17698,1.33445,0.0056343
91,3.22735,1.34314,0.00527377
91.5,3.27716,1.34875,0.00460822
92,3.32597,1.35181,0.00574398
92.5,3.37543,1.35529,0.00457797
93,3.42427,1.36241,0.00593021
93.5,3.47359,1.36379,0.00593
94,3.52348,1.3628,0.00593
94.5,3.57197,1.37446,0.00593
95,3.62127,1.36675,0.00593145
95.5,3.67031,1.37622,0.00720811
96,3.7187,1.37469,0.00597149
96.5,3.76898,1.38107,0.00662349
97,3.81833,1.38823,0.00579932
97.5,3.86654,1.38865,0.00438917
98,3.91463,1.39532,0.00438995
98.5,3.96499,1.39768,0.00577499
99,4.01391,1.40201,0.00571
99.5,4.06289,1.39872,0.00672173
100,4.11202,1.41007,0.00670057
100.5,4.16025,1.41062,0.00705712
101,4.20984,1.41819,0.00703253
101.5,4.25886,1.42137,0.00804332
102,4.30757,1.4292,0.00703976
102.5,4.35541,1.43341,0.00834099
103,4.4046,1.43339,0.00701343
103.5,4.45482,1.42874,0.00703289
104,4.50218,1.43472,0.0083558
104.5,4.55073,1.44905,0.00834884
105,4.59918,1.44778,0.00777567
105.5,4.64753,1.45482,0.00768994
106,4.69606,1.4545,0.00769
106.5,4.74538,1.46266,0.00768997
107,4.79409,1.4585,0.00769164
107.5,4.84238,1.47106,0.00715818
108,4.89049,1.47005,0.00595439
108.5,4.93871,1.4779,0.00701896
109,4.98785,1.48292,0.00702645
109.5,5.03642,1.4825,0.00570557
110,5.08301,1.48588,0.00570632
110.5,5.13143,1.48964,0.00702415
111,5.1812,1.49184,0.00572041
111.5,5.22902,1.4979,0.00643753
112,5.27812,1.50172,0.00637112
112.5,5.32612,1.50019,0.00709363
113,5.37512,1.51263,0.00703179
113.5,5.42373,1.51448,0.00835329
114,5.47161,1.51117,0.00964464
114.5,5.52096,1.51898,0.00834126
115,5.56938,1.51906,0.00696006
115.5,5.61747,1.52452,0.00792011
116,5.665,1.5342,0.00703017
116.5,5.714,1.5251,0.00703
117,5.76241,1.53579,0.00703
117.5,5.81002,1.53945,0.00703
118,5.85917,1.5428,0.00703
118.5,5.90768,1.54817,0.00702979
119,5.9572,1.55335,0.0066877
119.5,6.00363,1.54908,0.00634535
120,6.05236,1.55542,0.0057103
120.5,6.10097,1.55858,0.00570802
121,6.14842,1.55751,0.00484435
121.5,6.19717,1.56218,0.00574216
122,6.24576,1.56635,0.00701863
122.5,6.29341,1.56789,0.00702
123,6.34138,1.57018,0.00570654
123.5,6.3895,1.57623,0.00682519
124,6.43801,1.58482,0.00724254
124.5,6.48591,1.5843,0.00766048
125,6.53411,1.5819,0.00769062
125.5,6.5823,1.58315,0.00868423
126,6.63038,1.5866,0.00867992
126.5,6.67733,1.59208,0.00873706
127,6.72639,1.60085,0.00802107
127.5,6.77271,1.59663,0.00803281
128,6.82315,1.60416,0.00703145
128.5,6.87041,1.604,0.00816934
129,6.91939,1.61252,0.00702113
129.5,6.96766,1.61301,0.00702785
130,7.01539,1.61311,0.00769403
130.5,7.06429,1.61633,0.00833762
131,7.11208,1.61676,0.00833991
131.5,7.15979,1.61823,0.00723683
132,7.20776,1.61854,0.00702956
132.5,7.25661,1.63074,0.00703
133,7.30363,1.63358,0.00703011
133.5,7.35135,1.63016,0.0070707
134,7.4,1.63352,0.00570941
134.5,7.44821,1.63849,0.00567239
135,7.49492,1.6468,0.00504477
135.5,7.54293,1.64945,0.00505
136,7.59077,1.64414,0.00505
136.5,7.64023,1.65583,0.00505697
137,7.68766,1.66548,0.00366202
137.5,7.73513,1.66781,0.00438738
138,7.78309,1.67474,0.00570611
138.5,7.83061,1.68223,0.00703223
139,7.87949,1.68489,0.00810495
139.5,7.92555,1.68938,0.00834013
140,7.97537,1.6917,0.00839165
140.5,8.02276,1.69626,0.00966088
141,8.07044,1.71098,0.00966
141.5,8.11834,1.71545,0.00966
142,8.16714,1.72241,0.00965984
142.5,8.21455,1.73963,0.00915772
143,8.26251,1.73713,0.00834077
143.5,8.31082,1.75339,0.00872593
144,8.35834,1.76739,0.00837555
144.5,8.40607,1.77514,0.00834997
145,8.45454,1.79522,0.00835
145.5,8.50176,1.81324,0.00835013
146,8.54932,1.82762,0.00823582
146.5,8.59811,1.84113,0.00966157
147,8.64579,1.86492,0.00836276
147.5,8.69317,1.88207,0.00834999
148,8.742,1.90213,0.00836193
148.5,8.78769,1.91064,0.0076629
149,8.83734,1.92577,0.00788307
149.5,8.88439,1.93548,0.00834024
150,8.93293,1.94047,0.00923559
150.5,8.98063,1.94039,0.00965996
151,9.02847,1.93989,0.0096622
151.5,9.07381,1.93161,0.00866652
152,9.12358,1.93636,0.00833984
152.5,9.17164,1.92034,0.00698756
153,9.21916,1.92633,0.00697502
153.5,9.26626,1.9217,0.00838219
154,9.31372,1.92662,0.00835
154.5,9.3621,1.92525,0.00836905
155,9.40839,1.92139,0.00929572
155.5,9.45559,1.92448,0.0083509
156,9.50343,1.92662,0.00835
156.5,9.55114,1.93019,0.00835011
157,9.59816,1.9317,0.00826641
157.5,9.64607,1.93244,0.00899876
158,9.69441,1.9287,0.00899999
158.5,9.74173,1.93305,0.00897777
159,9.78914,1.93035,0.00966152
159.5,9.83783,1.93306,0.00966035
160,9.88513,1.94151,0.00944977
160.5,9.93173,1.94228,0.00867017
161,9.98072,1.93758,0.00866761
161.5,10.0284,1.94629,0.00876299
162,10.0761,1.93931,0.00769577
162.5,10.1222,1.94373,0.00799006
163,10.1709,1.95217,0.00774594
163.5,10.2172,1.951,0.00703045
164,10.2665,1.95891,0.00703002
164.5,10.3121,1.95831,0.0070261
165,10.3606,1.95493,0.00615997
165.5,10.4059,1.96097,0.00735895
166,10.4555,1.95792,0.00737006
166.5,10.5046,1.96042,0.00867935
167,10.5508,1.96252,0.00867428
167.5,10.5989,1.96896,0.00999628
168,10.6463,1.97033,0.0100002
168.5,10.6941,1.97543,0.0103226
169,10.7426,1.96842,0.01032
169.5,10.7889,1.97293,0.01032
170,10.8374,1.97885,0.01032
170.5,10.8837,1.98384,0.0103057
171,10.9317,1.98358,0.00900137
171.5,10.9785,1.99006,0.00887946
172,11.027,1.98991,0.00972373
172.5,11.0749,1.98966,0.00899972
173,11.1237,1.9973,0.00909661
173.5,11.1679,1.99978,0.00998965
174,11.2179,2.00337,0.00998999
174.5,11.2646,2.00579,0.00999129
175,11.313,2.01157,0.0112217
175.5,11.3602,2.01048,0.0100061
176,11.4071,2.00985,0.0112898
176.5,11.4558,2.01391,0.00997549
177,11.5038,2.01389,0.00867983
177.5,11.5516,2.01497,0.00868071
178,11.5979,2.01662,0.00954697
178.5,11.6466,2.0163,0.00974375
179,11.6935,2.02367,0.00866604
179.5,11.7405,2.02347,0.00861216
180,11.7882,2.02524,0.0099933
180.5,11.8364,2.0189,0.00999268
181,11.8838,2.02561,0.00932895
181.5,11.9302,2.02373,0.00933018
182,11.9787,2.0298,0.00926794
182.5,12.026,2.02544,0.0106506
183,12.0729,2.03231,0.01065
183.5,12.1211,2.03111,0.0106445
184,12.1685,2.03554,0.00961
184.5,12.2166,2.03172,0.00932152
185,12.264,2.03415,0.0080188
185.5,12.3107,2.0313,0.00932886
186,12.3582,2.02884,0.00933
186.5,12.4061,2.03827,0.00933003
187,12.4527,2.03265,0.00931879
187.5,12.5006,2.04525,0.0107736
188,12.5461,2.03957,0.0119681
188.5,12.5946,2.04569,0.012024
189,12.6438,2.04547,0.0106543
189.5,12.6908,2.04447,0.00932943
190,12.738,2.04799,0.00932566
190.5,12.7848,2.04813,0.0106505
191,12.833,2.04539,0.0100039
191.5,12.8805,2.04598,0.010002
192,12.9259,2.05241,0.0112969
192.5,12.9754,2.05296,0.0113103
193,13.0239,2.05217,0.0112233
193.5,13.07,2.0529,0.0104231
194,13.1173,2.05405,0.00949605
194.5,13.1659,2.05351,0.00996954
195,13.2128,2.05498,0.00932961
195.5,13.2607,2.0547,0.00933904
196,13.3081,2.05387,0.00802153
196.5,13.3541,2.05885,0.00802388
197,13.4027,2.06431,0.00986502
197.5,13.4501,2.06322,0.0103199
198,13.4964,2.0642,0.0103299
198.5,13.5444,2.06764,0.0106568
199,13.5925,2.06393,0.0119539
199.5,13.6394,2.06696,0.011983
200,13.6867,2.0749,0.0106468
200.5,13.7336,2.07353,0.0106453
201,13.7817,2.07161,0.00966779
201.5,13.8296,2.07683,0.00966001
202,13.8763,2.08013,0.00966228
202.5,13.924,2.07447,0.0109069
203,13.9715,2.07339,0.0109789
203.5,14.0188,2.07951,0.00967995
204,14.0669,2.08089,0.0111249
204.5,14.1136,2.08714,0.0110831
205,14.1611,2.09302,0.01109
205.5,14.2087,2.09555,0.01109
206,14.2561,2.10423,0.01109
206.5,14.3037,2.09847,0.01109
207,14.3501,2.09928,0.0111506
207.5,14.3982,2.09578,0.00846403
208,14.4461,2.1073,0.00845999
208.5,14.4933,2.10855,0.00845983
209,14.5408,2.10921,0.0085027
209.5,14.5878,2.11347,0.00950759
210,14.6345,2.10878,0.0101032
210.5,14.6833,2.10927,0.00877186
211,14.73,2.10459,0.00878005
211.5,14.7781,2.11362,0.00881369
212,14.8251,2.12246,0.0114511
212.5,14.8714,2.12282,0.0114226
213,14.9201,2.12477,0.0126998
213.5,14.9671,2.13118,0.0140597
214,15.0144,2.12623,0.01406
214.5,15.0587,2.13011,0.0131313
215,15.1093,2.12639,0.0127382
215.5,15.1577,2.12728,0.0117145
216,15.2046,2.12925,0.0116221
216.5,15.2516,2.13626,0.0114009
217,15.2994,2.12902,0.0101007
217.5,15.3461,2.13585,0.0114178
218,15.3951,2.12734,0.0113897
218.5,15.4419,2.12933,0.0127298
219,15.4894,2.12851,0.0127163
219.5,15.5368,2.13188,0.011408
220,15.584,2.13766,0.0101018
220.5,15.6316,2.13357,0.0101
221,15.6778,2.14122,0.0101
221.5,15.7263,2.14771,0.0101
222,15.7742,2.14231,0.0100972
222.5,15.8222,2.14675,0.0114124
223,15.8688,2.14742,0.01142
223.5,15.9173,2.15875,0.01142
224,15.9647,2.15998,0.01142
224.5,16.012,2.1551,0.01142
225,16.0584,2.15411,0.01142
225.5,16.1064,2.15698,0.0114187
226,16.1518,2.16396,0.0101815
226.5,16.2021,2.15614,0.0101004
227,16.2488,2.15659,0.0114239
227.5,16.2968,2.16533,0.0126038
228,16.3437,2.15771,0.0114485
228.5,16.391,2.15809,0.01142
229,16.439,2.15914,0.01142
229.5,16.4877,2.16595,0.01142
230,16.5349,2.1675,0.0114198
230.5,16.5811,2.17288,0.0108895
231,16.6295,2.17551,0.0101005
231.5,16.6774,2.17884,0.010762
232,16.7241,2.1706,0.01142
232.5,16.772,2.17094,0.01142
233,16.8193,2.16879,0.01142
233.5,16.8671,2.17417,0.0114201
234,16.9144,2.1786,0.0114137
234.5,16.9614,2.17109,0.0120833
235,17.0095,2.17835,0.01208
235.5,17.0566,2.18227,0.0120616
236,17.1039,2.18507,0.011093
236.5,17.1513,2.17898,0.01109
237,17.1994,2.1866,0.01109
237.5,17.2472,2.1857,0.01109
238,17.2938,2.1832,0.01109
238.5,17.3414,2.18596,0.0110901
239,17.3893,2.18405,0.0111108
239.5,17.4373,2.18429,0.0113667
240,17.4839,2.18968,0.0120672
240.5,17.5323,2.19024,0.010773
241,17.5793,2.19706,0.0107601
241.5,17.6277,2.19799,0.0107536
242,17.6742,2.20141,0.0120702
242.5,17.7217,2.20442,0.0120649
243,17.77,2.19941,0.0107568
243.5,17.8179,2.20771,0.0110787
244,17.8653,2.20976,0.01109
244.5,17.9122,2.20324,0.0110901
245,17.9599,2.2096,0.011107
245.5,18.0073,2.21643,0.00976762
246,18.0552,2.20865,0.00978583
246.5,18.1028,2.20982,0.0114023
247,18.1507,2.20968,0.0127165
247.5,18.1979,2.20605,0.0114218
248,18.2445,2.20975,0.01142
248.5,18.2925,2.21037,0.01142
249,18.3395,2.21349,0.01142
249.5,18.3845,2.21308,0.01142
250,18.4352,2.20762,0.0114132
250.5,18.4818,2.21091,0.0100946
251,18.5294,2.21575,0.00975851
251.5,18.5771,2.21615,0.010759
252,18.6222,2.21671,0.0107531
252.5,18.672,2.21943,0.0101034
253,18.7197,2.22307,0.0100999
253.5,18.7667,2.23258,0.0101549
254,18.8125,2.22453,0.0107606
254.5,18.8621,2.23289,0.01076
255,18.91,2.23445,0.01076
255.5,18.9545,2.22946,0.0107598
256,19.0033,2.23348,0.0114118
256.5,19.0519,2.23215,0.0114195
257,19.099,2.23965,0.0119338
257.5,19.1455,2.23378,0.0114205
258,19.1937,2.24417,0.0114199
258.5,19.2412,2.244,0.011504
259,19.288,2.24114,0.00937434
259.5,19.3345,2.24597,0.00945003
260,19.3834,2.24646,0.00945013
260.5,19.4313,2.24449,0.00935411
261,19.4788,2.25018,0.0107704
261.5,19.5265,2.25034,0.01077
262,19.5729,2.25245,0.0107655
262.5,19.6201,2.25243,0.0120846
263,19.6686,2.25338,0.0120799
263.5,19.7152,2.25136,0.012097
264,19.7636,2.25768,0.01109
264.5,19.8114,2.25454,0.0112095
265,19.8577,2.25927,0.012409
265.5,19.9052,2.25436,0.0137053
266,19.9531,2.26003,0.0124088
266.5,20.0015,2.26049,0.01241
267,20.0489,2.26199,0.01241
267.5,20.0957,2.26091,0.01241
268,20.1435,2.26762,0.01241
268.5,20.1914,2.26012,0.012411
269,20.2384,2.26366,0.0120878
269.5,20.2867,2.2665,0.0124125
270,20.3343,2.27172,0.0124101
270.5,20.3817,2.2718,0.0120211
271,20.4304,2.277,0.0117497
271.5,20.4772,2.26819,0.0117496
272,20.5253,2.26571,0.0113947
272.5,20.5727,2.27303,0.01142
273,20.6177,2.27354,0.01142
273.5,20.6656,2.27595,0.01142
274,20.7155,2.27771,0.01142
274.5,20.7635,2.28089,0.01142
275,20.8111,2.28188,0.01142
275.5,20.8588,2.27988,0.01142
276,20.9064,2.2804,0.0114204
276.5,20.9544,2.29186,0.0127219
277,21.0032,2.29039,0.0127146
277.5,21.0502,2.28986,0.0117455
278,21.098,2.28699,0.01175
278.5,21.1454,2.28853,0.0117393
279,21.1921,2.28641,0.0104404
279.5,21.2385,2.28903,0.01043
280,21.2893,2.29311,0.01043
280.5,21.3382,2.28826,0.01043
281,21.3846,2.28965,0.01043
281.5,21.4326,2.29158,0.0104303
282,21.4807,2.28697,0.00897645
282.5,21.5284,2.29148,0.0100012
283,21.5759,2.29835,0.0114484
283.5,21.624,2.29622,0.0114199
284,21.6722,2.29744,0.0114237
284.5,21.72,2.29747,0.0107071
285,21.7675,2.30581,0.011081
285.5,21.8153,2.30091,0.01109
286,21.8627,2.29994,0.01109
286.5,21.9112,2.30289,0.01109
287,21.9589,2.30314,0.01109
287.5,22.0056,2.30579,0.01109
288,22.0538,2.31007,0.01109
288.5,22.102,2.30516,0.01109
289,22.1475,2.30374,0.01109
289.5,22.1973,2.3133,0.01109
290,22.2447,2.30603,0.0110888
290.5,22.2932,2.3118,0.010371
291,22.3415,2.31461,0.0104401
291.5,22.3891,2.31233,0.0104408
292,22.4366,2.3176,0.0116508
292.5,22.4822,2.31975,0.012068
293,22.5322,2.31625,0.0120962
293.5,22.5804,2.31311,0.0107709
294,22.6289,2.31332,0.0114242
294.5,22.6765,2.32244,0.0113166
295,22.7227,2.32389,0.0127324
295.5,22.7713,2.31802,0.0129514
296,22.819,2.31629,0.0133895
296.5,22.8678,2.32042,0.01339
297,22.9152,2.32161,0.0133905
297.5,22.9629,2.32035,0.0129856
298,23.0105,2.32335,0.0120801
298.5,23.059,2.32524,0.01208
299,23.1068,2.32246,0.0119125
299.5,23.1519,2.32213,0.0107616
300,23.2034,2.32396,0.0114323
300.5,23.2498,2.32347,0.0120803
301,23.2979,2.31898,0.01208
301.5,23.345,2.32799,0.01208
302,23.3932,2.32618,0.01208
302.5,23.4403,2.33004,0.01208
303,23.4889,2.33614,0.01208
303.5,23.5373,2.32913,0.0120777
304,23.5843,2.33019,0.0134311
304.5,23.6326,2.33466,0.0120757
305,23.6803,2.32829,0.0122863
305.5,23.7286,2.32906,0.0124114
306,23.7758,2.32293,0.0124099
306.5,23.824,2.32272,0.0124125
307,23.8718,2.32587,0.012442
307.5,23.9203,2.32893,0.01241
308,23.9683,2.32567,0.01241
308.5,24.0144,2.32615,0.0123004
309,24.0629,2.32358,0.0137295
309.5,24.1115,2.32603,0.014507
310,24.1591,2.33038,0.0134324
310.5,24.2075,2.33514,0.0133971
311,24.2557,2.3354,0.0120962
311.5,24.3029,2.33821,0.0111611
312,24.352,2.33325,0.0107458
312.5,24.3996,2.33402,0.01076
313,24.4477,2.33621,0.01076
313.5,24.4953,2.33161,0.01076
314,24.544,2.33055,0.01076
314.5,24.5918,2.32745,0.01076
315,24.639,2.33183,0.00935864
315.5,24.6872,2.33475,0.00943996
316,24.7356,2.33182,0.00944011
316.5,24.784,2.33286,0.0103232
317,24.8314,2.33003,0.0107603
317.5,24.8793,2.32684,0.01076
318,24.9273,2.33602,0.01076
318.5,24.9754,2.33458,0.0107605
319,25.0248,2.33587,0.0128297
319.5,25.0724,2.33391,0.01274
320,25.1209,2.3317,0.0127496
320.5,25.1683,2.34074,0.0100913
321,25.2165,2.34068,0.010135
321.5,25.2646,2.33937,0.00876892
322,25.3134,2.34477,0.0100989
322.5,25.3583,2.34083,0.00907117
323,25.4073,2.34186,0.00877973
323.5,25.4571,2.33981,0.00878
324,25.5045,2.34458,0.00877999
324.5,25.5533,2.34775,0.00878437
325,25.6017,2.35094,0.00813536
325.5,25.6501,2.3449,0.00811998
326,25.6988,2.34649,0.00812
326.5,25.7457,2.35619,0.00812
327,25.7941,2.34795,0.00812
327.5,25.8423,2.35371,0.00812
328,25.8908,2.35482,0.00812
328.5,25.9392,2.35255,0.00812001
329,25.9884,2.35775,0.00812078
329.5,26.0365,2.36208,0.00877592
330,26.0836,2.35859,0.00878001
330.5,26.1317,2.34922,0.00878825
331,26.1797,2.35593,0.00911192
331.5,26.2277,2.35438,0.00911008
332,26.277,2.35729,0.00913794
332.5,26.3251,2.36078,0.00778749
333,26.3738,2.35185,0.00779
333.5,26.422,2.35217,0.00779
334,26.4693,2.35427,0.00779
334.5,26.5183,2.35378,0.00779
335,26.5656,2.35553,0.00778947
335.5,26.6143,2.35218,0.00676138
336,26.6619,2.35982,0.00779378
336.5,26.7111,2.35972,0.00770003
337,26.7592,2.35733,0.00877861
337.5,26.8073,2.36066,0.00878001
338,26.8553,2.35639,0.00877151
338.5,26.904,2.36377,0.00745243
339,26.953,2.3652,0.00745992
339.5,27.0001,2.35891,0.00746084
340,27.0485,2.36692,0.00846766
340.5,27.0959,2.35786,0.00878001
341,27.1453,2.35002,0.00878002
341.5,27.1935,2.35676,0.00878347
342,27.2419,2.35501,0.00977343
342.5,27.2908,2.35433,0.00844751
343,27.3384,2.35714,0.00721844
343.5,27.3866,2.36064,0.0058125
344,27.4345,2.35596,0.00451346
344.5,27.4827,2.35247,0.00449997
345,27.532,2.3531,0.0045019
345.5,27.5795,2.3548,0.00581045
346,27.6285,2.36011,0.00608622
346.5,27.6764,2.35608,0.00712923
347,27.7257,2.35754,0.0072192
347.5,27.7729,2.3641,0.00581972
348,27.8209,2.34875,0.00583294
348.5,27.8705,2.35931,0.00449727
349,27.9178,2.35723,0.00219598
349.5,27.9675,2.35493,0.00186958
350,28.015,2.35841,0.00220912
350.5,28.0644,2.36103,0.00353571
351,28.1119,2.3592,0.00417953
351.5,28.1578,2.35513,0.00418
352,28.2096,2.35411,0.00417986
352.5,28.2569,2.35931,0.00557606
353,28.3055,2.34981,0.00713573
353.5,28.3535,2.35047,0.00778144
354,28.4031,2.35395,0.00779588
354.5,28.4485,2.35293,0.00649477
355,28.4997,2.35368,0.00647998
355.5,28.548,2.34757,0.00648
356,28.5965,2.35142,0.00647999
356.5,28.6442,2.35552,0.00648343
357,28.6934,2.34905,0.00515294
357.5,28.7415,2.34222,0.00507667
358,28.7911,2.34605,0.00385006
358.5,28.8391,2.34215,0.00384753
359,28.8867,2.34152,0.00252187
359.5,28.9356,2.33845,0.00251158
360,28.9843,2.33888,0.00120994
360.5,29.033,2.34651,0.00150172
361,29.081,2.3406,0.00186278
361.5,29.13,2.34173,0.00319348
362,29.1782,2.33763,0.00318999
362.5,29.2267,2.33997,0.00319
363,29.2757,2.34324,0.00318998
363.5,29.3241,2.34133,0.00318761
364,29.3722,2.34278,0.00251654
364.5,29.4219,2.3318,0.0025193
365,29.4704,2.33663,0.00122664
365.5,29.5186,2.34345,0.000848428
366,29.5687,2.34614,0.000880043
366.5,29.616,2.3487,0.00088
367,29.6652,2.34726,0.000880001
367.5,29.7136,2.34391,0.000879545
368,29.7615,2.35085,0.00127577
368.5,29.8112,2.35281,0.00219352
369,29.8568,2.34942,0.00186806
369.5,29.9054,2.35435,0.00186
370,29.9535,2.3455,0.00186
370.5,30.0055,2.34272,0.0018616
371,30.0518,2.34654,0.000560112
371.5,30.1008,2.34277,0.000549888
372,30.1507,2.34699,-0.00086014
372.5,30.2003,2.34759,-0.000759877
373,30.2484,2.34675,-0.00076
373.5,30.2978,2.34551,-0.000760103
374,30.3459,2.34729,-0.000727308
374.5,30.3948,2.34014,-0.00338334
375,30.4441,2.3463,-0.00340003
375.5,30.4918,2.34888,-0.0034
376,30.5411,2.34344,-0.00339805
376.5,30.5891,2.35058,-0.00209393
377,30.6379,2.34643,-0.00203522
377.5,30.6866,2.34739,-0.00394924
378,30.7367,2.35075,-0.00471967
378.5,30.785,2.35034,-0.00472
379,30.8335,2.34324,-0.00472
379.5,30.8817,2.3518,-0.00472011
380,30.9306,2.34266,-0.00457065
380.5,30.9795,2.34338,-0.00393042
381,31.0273,2.34888,-0.00341954
381.5,31.0762,2.34263,-0.0034101
382,31.1238,2.33484,-0.00450513
382.5,31.174,2.33797,-0.00602926
383,31.2235,2.34169,-0.0060377
383.5,31.2714,2.33326,-0.0047184
384,31.3207,2.33102,-0.0048591
384.5,31.3688,2.32897,-0.00602828
385,31.4184,2.32629,-0.00603001
385.5,31.468,2.33389,-0.00602529
386,31.517,2.32817,-0.00736785
386.5,31.5653,2.32388,-0.00735059
387,31.6146,2.32789,-0.00838623
387.5,31.6628,2.32559,-0.00833912
388,31.7113,2.32525,-0.00926964
388.5,31.7603,2.3284,-0.00998985
389,31.8087,2.32213,-0.00868167
389.5,31.8583,2.32948,-0.00867002
390,31.9073,2.3248,-0.0086692
390.5,31.9557,2.32577,-0.00757617
391,32.0052,2.32901,-0.00874887
391.5,32.0533,2.32167,-0.00868037
392,32.1013,2.3252,-0.00989089
392.5,32.152,2.32748,-0.00999012
393,32.1999,2.33116,-0.00999
393.5,32.2487,2.32431,-0.00998849
394,32.2985,2.33677,-0.0113145
394.5,32.347,2.32834,-0.0126056
395,32.393,2.32509,-0.01262
395.5,32.4436,2.33345,-0.01262
396,32.4938,2.32965,-0.01262
396.5,32.5425,2.32615,-0.0126334
397,32.5908,2.329,-0.0139365
397.5,32.6403,2.31912,-0.0139349
398,32.6885,2.31699,-0.0152669
398.5,32.7372,2.32324,-0.01526
399,32.7861,2.31483,-0.0152729
399.5,32.8344,2.31716,-0.0165695
400,32.8836,2.31853,-0.0165677
400.5,32.9327,2.31615,-0.0192202
401,32.9818,2.31086,-0.0192063
401.5,33.0308,2.31178,-0.0185538
402,33.0805,2.31017,-0.0185466
402.5,33.1289,2.30888,-0.0199055
403,33.1783,2.30873,-0.0211589
403.5,33.2274,2.29906,-0.0225023
404,33.2762,2.29745,-0.021195
404.5,33.325,2.2973,-0.0205558
405,33.3736,2.29585,-0.0211822
405.5,33.4229,2.28578,-0.0211779
406,33.4719,2.28595,-0.0225244
406.5,33.5206,2.28614,-0.0238392
407,33.5698,2.27102,-0.0264639
407.5,33.6186,2.27361,-0.0251693
408,33.6682,2.2796,-0.026444
408.5,33.717,2.27654,-0.0265008
409,33.7655,2.26641,-0.02645
409.5,33.8146,2.27845,-0.0268438
410,33.864,2.27519,-0.02777
410.5,33.9127,2.26403,-0.0277677
411,33.9621,2.25605,-0.0291122
411.5,34.0106,2.25316,-0.0305135
412,34.0598,2.25025,-0.0317328
412.5,34.1089,2.24765,-0.0339686
413,34.1585,2.24242,-0.0350639
413.5,34.207,2.23822,-0.0353517
414,34.2564,2.23611,-0.0354085
414.5,34.3036,2.23396,-0.0366575
415,34.3555,2.23563,-0.0368786
415.5,34.404,2.23245,-0.038089
416,34.4531,2.23132,-0.0394585
416.5,34.5014,2.2261,-0.042482
417,34.5505,2.21963,-0.0438375
417.5,34.5997,2.21641,-0.046706
418,34.6495,2.20554,-0.0490608
418.5,34.6982,2.20616,-0.049635
419,34.7463,2.20422,-0.0510641
419.5,34.796,2.19821,-0.0516433
420,34.845,2.1989,-0.0529026
420.5,34.8944,2.1895,-0.054103
421,34.9426,2.19033,-0.0555314
421.5,34.9921,2.18719,-0.0576668
422,35.0408,2.18331,-0.06028
422.5,35.0901,2.1753,-0.0613341
423,35.1399,2.16978,-0.0630357
423.5,35.1888,2.16898,-0.0639303
424,35.2369,2.15725,-0.0660826
424.5,35.287,2.16371,-0.0675566
425,35.3351,2.15932,-0.069521
425.5,35.3855,2.14557,-0.0719089
426,35.4341,2.14542,-0.0732331
426.5,35.4826,2.13313,-0.0747979
427,35.5309,2.12604,-0.076713
427.5,35.5812,2.11928,-0.079316
428,35.6294,2.11453,-0.0825893
428.5,35.6794,2.10609,-0.0854156
429,35.7288,2.10552,-0.0875523
429.5,35.7766,2.10567,-0.0899572
430,35.8258,2.09591,-0.0914535
430.5,35.8746,2.0951,-0.0945558
431,35.9226,2.08574,-0.09798
431.5,35.9722,2.06779,-0.101032
432,36.022,2.06736,-0.103114
432.5,36.0715,2.07012,-0.105727
433,36.1198,2.06872,-0.109105
433.5,36.1696,2.05583,-0.112786
434,36.2178,2.04457,-0.116819
434.5,36.2683,2.04706,-0.118971
435,36.3165,2.03708,-0.121634
435.5,36.3666,2.03083,-0.124073
436,36.4152,2.02814,-0.126646
436.5,36.4647,2.02633,-0.131225
437,36.5132,2.02842,-0.134908
437.5,36.563,2.02792,-0.139644
438,36.6122,2.01949,-0.143511
438.5,36.6624,2.02517,-0.147587
439,36.7113,2.03706,-0.150194
439.5,36.7603,2.03641,-0.154284
440,36.8098,2.03152,-0.159922
440.5,36.8587,2.03915,-0.165336
441,36.9078,2.03364,-0.169334
441.5,36.9574,2.02507,-0.174259
442,37.0058,2.02865,-0.178714
442.5,37.0551,2.0214,-0.184674
443,37.1042,1.99282,-0.189749
443.5,37.1534,1.98561,-0.196223
444,37.2026,1.97654,-0.201417
444.5,37.2517,1.98545,-0.206148
445,37.3012,1.99288,-0.211095
445.5,37.3497,1.98231,-0.217211
446,37.3971,1.9828,-0.226103
446.5,37.4482,1.98434,-0.232644
447,37.4974,1.99237,-0.238864
447.5,37.5474,1.98367,-0.24574
448,37.5971,1.97643,-0.253563
448.5,37.646,1.97555,-0.261458
449,37.6949,1.97528,-0.269184
449.5,37.7429,1.99648,-0.276646
450,37.7936,1.98411,-0.285949
450.5,37.8434,1.98981,-0.294378
451,37.8931,1.99685,-0.303894
451.5,37.9427,2.00985,-0.314244
452,37.99,2.02127,-0.321852
452.5,38.0408,2.01702,-0.331375
453,38.0904,2.03739,-0.342265
453.5,38.1399,2.05374,-0.353975
454,38.1893,2.05803,-0.366285
454.5,38.239,2.06624,-0.378486
455,38.288,2.07387,-0.389824
455.5,38.3378,2.07739,-0.403044
456,38.3874,2.0867,-0.416589
456.5,38.4359,2.0837,-0.429428
457,38.485,2.09605,-0.443988
457.5,38.5356,2.107,-0.456453
458,38.5856,2.10639,-0.47167
458.5,38.634,2.15784,-0.487701
459,38.684,2.18097,-0.504813
459.5,38.7334,2.2157,-0.51991
460,38.7834,2.27081,-0.536102
460.5,38.8333,2.28211,-0.554021
461,38.8824,2.27585,-0.571672
461.5,38.9319,2.25459,-0.589135
462,38.9813,2.24975,-0.608732
462.5,39.0308,2.28462,-0.627609
463,39.0807,2.30895,-0.64818
463.5,39.1312,2.30994,-0.669552
464,39.1792,2.29479,-0.688467
464.5,39.2289,2.28133,-0.708506
465,39.2786,2.31634,-0.729703
465.5,39.3284,2.3203,-0.751926
466,39.3776,2.31852,-0.773492
466.5,39.4275,2.31162,-0.793766
467,39.4767,2.30986,-0.816395
467.5,39.5261,2.27065,-0.839684
468,39.5745,2.25517,-0.859812
468.5,39.6244,2.23241,-0.882551
469,39.6738,2.2224,-0.905331
469.5,39.7225,2.24458,-0.927425
470,39.7724,2.28944,-0.950434
470.5,39.8235,2.30843,-0.975788
471,39.8731,2.32586,-0.999526
471.5,39.9223,2.32259,-1.02493
472,39.9716,2.30672,-1.04979
472.5,40.0209,2.28308,-1.07421
473,40.0704,2.29299,-1.0988
473.5,40.1197,2.30276,-1.12511
474,40.1699,2.33114,-1.15244
474.5,40.2196,2.36388,-1.17738
475,40.2674,2.37667,-1.20265
475.5,40.3172,2.36782,-1.23142
476,40.3693,2.38597,-1.25947
476.5,40.4184,2.40926,-1.28494
477,40.4661,2.40626,-1.31273
477.5,40.5177,2.39048,-1.34184
478,40.5677,2.38097,-1.371
478.5,40.6169,2.3704,-1.39687
479,40.6667,2.3719,-1.42514
479.5,40.7155,2.36485,-1.45314
480,40.7655,2.35391,-1.48293
480.5,40.8137,2.36272,-1.5093
481,40.8653,2.35566,-1.5399
481.5,40.914,2.36159,-1.56832
482,40.9643,2.37191,-1.59756
482.5,41.0138,2.37096,-1.62551
483,41.0641,2.36856,-1.65444
483.5,41.1143,2.36705,-1.68423
484,41.1627,2.36261,-1.71512
484.5,41.2133,2.35812,-1.74439
485,41.2626,2.35804,-1.77263
485.5,41.3129,2.34678,-1.80121
486,41.3601,2.35524,-1.82953
486.5,41.4121,2.3508,-1.86001
487,41.4615,2.34265,-1.88703
487.5,41.5115,2.32966,-1.91539
488,41.561,2.30614,-1.94526
488.5,41.6109,2.31057,-1.97298
489,41.6583,2.29406,-1.99831
489.5,41.7092,2.28443,-2.02653
490,41.7592,2.26324,-2.05417
490.5,41.8084,2.24955,-2.08283
491,41.8584,2.23032,-2.11049
491.5,41.9081,2.21743,-2.13634
492,41.9576,2.19425,-2.16223
492.5,42.0061,2.17725,-2.18852
493,42.0555,2.15818,-2.21329
493.5,42.1059,2.13704,-2.23831
494,42.1535,2.12107,-2.26206
494.5,42.2032,2.10044,-2.28807
495,42.253,2.07487,-2.31072
495.5,42.3024,2.04961,-2.33212
496,42.3522,2.02837,-2.35686
496.5,42.4027,2.00761,-2.38039
497,42.4517,1.99203,-2.40171
497.5,42.5014,1.96232,-2.422
498,42.5509,1.94448,-2.44461
498.5,42.5996,1.91585,-2.46554
499,42.6494,1.88597,-2.48504
499.5,42.6986,1.86499,-2.50388
500,42.7482,1.8416,-2.51983
500.5,42.7976,1.82416,-2.53717
501,42.8467,1.79489,-2.55479
501.5,42.896,1.77799,-2.57163
502,42.9458,1.74551,-2.58988
502.5,42.9949,1.7287,-2.60597
503,43.0447,1.70546,-2.62191
503.5,43.0945,1.68143,-2.63495
504,43.1433,1.66249,-2.64956
504.5,43.1936,1.64032,-2.66499
505,43.2417,1.62712,-2.67845
505.5,43.2918,1.60618,-2.69217
506,43.3415,1.59058,-2.70555
506.5,43.3891,1.57875,-2.71724
507,43.4378,1.55959,-2.73038
507.5,43.4895,1.54274,-2.7437
508,43.5393,1.52715,-2.75474
508.5,43.5883,1.51046,-2.76642
509,43.6377,1.49674,-2.77706
509.5,43.687,1.47847,-2.78656
510,43.7362,1.47552,-2.7954
510.5,43.7861,1.46193,-2.80523
511,43.8362,1.44506,-2.81416
511.5,43.8849,1.43274,-2.82443
512,43.9357,1.42103,-2.83407
512.5,43.9846,1.40479,-2.83987
513,44.0335,1.3947,-2.84687
513.5,44.0841,1.38237,-2.85407
514,44.1334,1.37478,-2.86112
514.5,44.1836,1.36341,-2.86525
515,44.233,1.35293,-2.8723
515.5,44.2825,1.35413,-2.88035
516,44.3315,1.34148,-2.88692
516.5,44.3817,1.33018,-2.89189
517,44.4312,1.3223,-2.89619
517.5,44.4817,1.32061,-2.9009
518,44.5315,1.30587,-2.9066
518.5,44.5797,1.31323,-2.9104
519,44.6308,1.30749,-2.9153
519.5,44.6805,1.30368,-2.91985
520,44.7301,1.28597,-2.92383
520.5,44.7799,1.28419,-2.92735
521,44.8284,1.28377,-2.93179
521.5,44.8794,1.28534,-2.93588
522,44.9289,1.27881,-2.93931
522.5,44.9785,1.27449,-2.94415
523,45.0287,1.27613,-2.94695
523.5,45.0786,1.2701,-2.94977
524,45.1278,1.26493,-2.95265
524.5,45.1782,1.26106,-2.95606
525,45.2288,1.26055,-2.95935
525.5,45.2782,1.25095,-2.96091
526,45.3279,1.24569,-2.96453
526.5,45.3773,1.24505,-2.96723
527,45.428,1.2421,-2.96892
527.5,45.4757,1.24226,-2.97086
528,45.5276,1.23903,-2.97396
528.5,45.5778,1.23503,-2.9769
529,45.6275,1.238,-2.97954
529.5,45.6772,1.23633,-2.98186
530,45.7278,1.2242,-2.9838
530.5,45.7762,1.22536,-2.98477
531,45.827,1.22411,-2.98836
531.5,45.8769,1.22084,-2.99101
532,45.9269,1.2182,-2.99273
532.5,45.9772,1.21463,-2.9959
533,46.0262,1.21108,-2.9978
533.5,46.0764,1.20936,-3.00022
534,46.1267,1.20981,-3.00137
534.5,46.1761,1.20802,-3.00257
535,46.2259,1.20811,-3.00455
535.5,46.2772,1.20229,-3.00611
536,46.3267,1.19962,-3.00652
536.5,46.377,1.19758,-3.00776
537,46.4273,1.19973,-3.01021
537.5,46.4772,1.19779,-3.01171
538,46.5257,1.19747,-3.01426
538.5,46.577,1.19994,-3.01698
539,46.6271,1.19423,-3.01958
539.5,46.6779,1.19657,-3.02152
540,46.7274,1.19552,-3.02285
540.5,46.7751,1.18924,-3.02311
541,46.8283,1.19669,-3.02582
541.5,46.8774,1.1963,-3.02579
542,46.9273,1.19734,-3.02432
542.5,46.9767,1.19061,-3.02567
543,47.0273,1.18655,-3.02784
543.5,47.0776,1.19002,-3.03055
544,47.1281,1.18712,-3.03274
544.5,47.1774,1.18653,-3.03285
545,47.228,1.18725,-3.03419
545.5,47.2776,1.18329,-3.03556
546,47.3276,1.18123,-3.03622
546.5,47.3776,1.17943,-3.03751
547,47.4279,1.17723,-3.04004
547.5,47.4779,1.17846,-3.04012
548,47.5274,1.17812,-3.04137
548.5,47.5783,1.18353,-3.0414
549,47.6274,1.1805,-3.04277
549.5,47.6779,1.17083,-3.04406
550,47.7286,1.17426,-3.04562
550.5,47.7774,1.17759,-3.04572
551,47.8282,1.17369,-3.04696
551.5,47.8781,1.17138,-3.04844
552,47.928,1.16896,-3.04836
552.5,47.9779,1.16957,-3.04984
553,48.0285,1.16991,-3.05115
553.5,48.0779,1.16899,-3.05339
554,48.1262,1.1672,-3.05529
554.5,48.1768,1.16129,-3.05525
555,48.2281,1.16786,-3.05571
555.5,48.2784,1.16997,-3.05893
556,48.3279,1.17265,-3.06151
556.5,48.3788,1.16752,-3.06323
557,48.4294,1.16652,-3.06407
557.5,48.4781,1.17865,-3.06449
558,48.5285,1.1709,-3.06499
558.5,48.5782,1.17028,-3.06579
559,48.6289,1.16701,-3.06743
559.5,48.6776,1.17325,-3.0691
560,48.729,1.17331,-3.06957
560.5,48.7765,1.16992,-3.06903
561,48.8289,1.17195,-3.06898
561.5,48.8781,1.1699,-3.07032
562,48.9294,1.17217,-3.07036
562.5,48.9787,1.17223,-3.07187
563,49.0298,1.17532,-3.07289
563.5,49.0801,1.16946,-3.07427
564,49.1303,1.1703,-3.07645
564.5,49.1787,1.17531,-3.07763
565,49.2302,1.17024,-3.07902
565.5,49.2804,1.16758,-3.08022
566,49.331,1.17896,-3.08052
566.5,49.3808,1.17204,-3.08184
567,49.4311,1.17799,-3.08257
567.5,49.4813,1.18214,-3.08187
568,49.5321,1.18226,-3.08315
568.5,49.5813,1.17348,-3.08319
569,49.6316,1.18456,-3.08593
569.5,49.6802,1.18482,-3.08652
570,49.7322,1.18497,-3.08716
570.5,49.7828,1.18432,-3.08727
571,49.8338,1.18535,-3.08854
571.5,49.8838,1.19354,-3.08985
572,49.9337,1.18786,-3.08985
572.5,49.9845,1.1939,-3.09117
573,50.0337,1.19304,-3.09271
573.5,50.0836,1.19788,-3.09405
574,50.1332,1.204,-3.09594
574.5,50.1845,1.202,-3.09534
575,50.2348,1.2058,-3.09532
575.5,50.2854,1.20109,-3.09675
576,50.3355,1.20964,-3.09677
576.5,50.3859,1.21015,-3.09768
577,50.4369,1.2081,-3.09942
577.5,50.4866,1.20895,-3.10078
578,50.5366,1.21934,-3.10213
578.5,50.5879,1.21964,-3.10348
579,50.6376,1.21802,-3.10342
579.5,50.6877,1.22375,-3.10578
580,50.7382,1.21881,-3.10578
580.5,50.7881,1.21881,-3.10568
581,50.8385,1.22718,-3.10708
581.5,50.8884,1.22456,-3.10819
582,50.9377,1.22535,-3.10709
582.5,50.9888,1.23131,-3.10851
583,51.039,1.22704,-3.10907
583.5,51.088,1.23512,-3.11038
584,51.1404,1.23833,-3.10943
584.5,51.1906,1.23599,-3.11038
585,51.2406,1.24172,-3.11258
585.5,51.2896,1.24215,-3.11302
586,51.3412,1.24588,-3.11434
586.5,51.3913,1.24923,-3.11569
587,51.4417,1.24966,-3.11574
587.5,51.4913,1.25559,-3.11839
588,51.5411,1.252,-3.11862
588.5,51.5906,1.25623,-3.11859
589,51.643,1.25713,-3.11994
589.5,51.6932,1.25344,-3.11993
590,51.7431,1.26242,-3.11964
590.5,51.7936,1.26543,-3.11993
591,51.8445,1.26422,-3.12125
591.5,51.8946,1.2671,-3.12383
592,51.9456,1.27091,-3.12389
592.5,51.9971,1.27252,-3.12401
593,52.0461,1.26808,-3.12521
593.5,52.0972,1.27771,-3.12652
594,52.1473,1.27527,-3.12609
594.5,52.1972,1.27461,-3.12636
595,52.2473,1.27087,-3.12652
595.5,52.2972,1.2685,-3.12652
596,52.3487,1.27779,-3.12649
596.5,52.3991,1.27643,-3.12757
597,52.4499,1.27189,-3.12882
597.5,52.4996,1.28112,-3.12816
598,52.5508,1.28421,-3.12933
598.5,52.6013,1.28671,-3.12992
599,52.6506,1.28874,-3.13056
599.5,52.7022,1.30051,-3.13271
600,52.7531,1.29273,-3.13273
600.5,52.8029,1.29957,-3.13344
601,52.8536,1.30114,-3.13344
601.5,52.9026,1.31723,-3.13344
602,52.9543,1.31394,-3.13478
602.5,53.0051,1.31192,-3.13605
603,53.0559,1.29703,-3.13733
603.5,53.1052,1.31522,-3.13869
604,53.1565,1.33352,-3.13734
604.5,53.2066,1.33889,-3.1387
605,53.2576,1.34057,-3.13966
605.5,53.3085,1.32372,-3.13916
606,53.3593,1.34557,-3.14003
606.5,53.4086,1.35727,-3.14014
607,53.4596,1.3645,-3.14126
607.5,53.5102,1.37086,-3.14267
608,53.5603,1.37702,-3.1433
608.5,53.6112,1.38577,-3.14397
609,53.6619,1.39192,-3.14454
609.5,53.7125,1.39217,-3.14355
610,53.7628,1.3961,-3.14397
610.5,53.8133,1.40281,-3.14395
611,53.8643,1.40242,-3.14531
611.5,53.9141,1.40326,-3.14793
612,53.9653,1.40982,-3.14932
612.5,54.0155,1.40768,-3.14927
613,54.0659,1.41146,-3.15056
613.5,54.116,1.41516,-3.15053
614,54.1673,1.41702,-3.15188
614.5,54.2177,1.42328,-3.15208
615,54.2684,1.41192,-3.15286
615.5,54.3189,1.41735,-3.15319
616,54.3694,1.41397,-3.15187
616.5,54.42,1.41699,-3.15199
617,54.47,1.41743,-3.15189
617.5,54.5202,1.42237,-3.15187
618,54.571,1.42338,-3.15188
618.5,54.6212,1.41666,-3.15191
619,54.6728,1.41926,-3.15393
619.5,54.7226,1.4228,-3.15512
620,54.7722,1.42256,-3.15517
620.5,54.822,1.42303,-3.15517
621,54.8741,1.4237,-3.15616
621.5,54.924,1.42764,-3.15616
622,54.9747,1.42354,-3.15618
622.5,55.0244,1.4297,-3.15651
623,55.075,1.43362,-3.15781
623.5,55.1261,1.42877,-3.15781
624,55.1764,1.42479,-3.15896
624.5,55.2267,1.42094,-3.15806
625,55.2766,1.42481,-3.15897
625.5,55.3268,1.43011,-3.15907
626,55.3772,1.43236,-3.16044
626.5,55.4283,1.42651,-3.16044
627,55.4788,1.43545,-3.15899
627.5,55.529,1.42565,-3.16017
628,55.5797,1.43055,-3.16076
628.5,55.63,1.41991,-3.16171
629,55.6813,1.42014,-3.16373
629.5,55.7315,1.41178,-3.16369
630,55.782,1.40911,-3.1657
630.5,55.8319,1.40809,-3.16836
631,55.8831,1.40764,-3.16835
631.5,55.9337,1.40262,-3.16777
632,55.9843,1.40732,-3.16703
632.5,56.0343,1.40321,-3.16585
633,56.0845,1.40917,-3.16573
633.5,56.1347,1.39833,-3.16703
634,56.1867,1.40157,-3.16704
634.5,56.2368,1.40109,-3.16799
635,56.2877,1.39836,-3.16835
635.5,56.3378,1.39688,-3.16835
636,56.3889,1.39098,-3.16835
636.5,56.4392,1.39476,-3.16826
637,56.489,1.38784,-3.16967
637.5,56.5408,1.39634,-3.16967
638,56.5905,1.38751,-3.16967
638.5,56.6397,1.38228,-3.16967
639,56.6921,1.3832,-3.16986
639.5,56.7425,1.3802,-3.17099
640,56.792,1.37238,-3.17229
640.5,56.8439,1.37891,-3.1723
641,56.8941,1.3781,-3.17231
641.5,56.944,1.37524,-3.17362
642,56.9941,1.3744,-3.17232
642.5,57.0432,1.37337,-3.17331
643,57.0973,1.36467,-3.17482
643.5,57.1466,1.37459,-3.17757
644,57.1971,1.37492,-3.17794
644.5,57.2474,1.36455,-3.17874
645,57.2974,1.36899,-3.17737
645.5,57.3484,1.37247,-3.17746
646,57.3993,1.36845,-3.17746
646.5,57.45,1.36568,-3.17837
647,57.4997,1.36204,-3.17746
647.5,57.5506,1.35828,-3.17873
648,57.6019,1.35555,-3.17944
648.5,57.6495,1.35282,-3.17935
649,57.7024,1.35271,-3.18076
649.5,57.7529,1.35675,-3.18023
650,57.8027,1.35041,-3.18075
650.5,57.8549,1.3569,-3.18075
651,57.9055,1.35262,-3.18081
651.5,57.956,1.34889,-3.18207
652,58.0062,1.35473,-3.18207
652.5,58.0568,1.35541,-3.18211
653,58.1078,1.35794,-3.18241
653.5,58.159,1.36033,-3.18372
654,58.2085,1.35607,-3.18372
654.5,58.259,1.36418,-3.18479
655,58.3103,1.3625,-3.18503
655.5,58.3613,1.36152,-3.18471
656,58.4125,1.3598,-3.1847
656.5,58.4602,1.35209,-3.1847
657,58.5138,1.3582,-3.1847
657.5,58.5642,1.35561,-3.18602
658,58.6144,1.35796,-3.18606
658.5,58.666,1.35655,-3.18734
659,58.7171,1.35852,-3.18734
659.5,58.7676,1.36024,-3.1873
660,58.8188,1.36382,-3.18867
660.5,58.8694,1.369,-3.18939
661,58.9207,1.3645,-3.18932
661.5,58.9708,1.36656,-3.1906
662,59.0225,1.37102,-3.1893
662.5,59.0734,1.37048,-3.18922
663,59.1242,1.36439,-3.18919
663.5,59.1753,1.36875,-3.18958
664,59.2258,1.36853,-3.18954
664.5,59.2752,1.36912,-3.1903
665,59.3272,1.37042,-3.19084
665.5,59.3782,1.36147,-3.19217
666,59.4299,1.35168,-3.19306
666.5,59.4798,1.35384,-3.19349
667,59.5316,1.35604,-3.19485
667.5,59.5826,1.35303,-3.1948
668,59.6324,1.35034,-3.19502
668.5,59.6836,1.35241,-3.19612
669,59.7359,1.34846,-3.19612
669.5,59.7862,1.3545,-3.19612
670,59.8367,1.35526,-3.19635
670.5,59.887,1.35272,-3.19744
671,59.938,1.35106,-3.19746
671.5,59.9891,1.34584,-3.19876
672,60.0396,1.34809,-3.19876
672.5,60.0911,1.34828,-3.19849
673,60.1411,1.35927,-3.19744
673.5,60.192,1.35439,-3.19743
674,60.243,1.3499,-3.19873
674.5,60.2921,1.36805,-3.20008
675,60.3449,1.3556,-3.19874
675.5,60.3935,1.36151,-3.20007
676,60.4464,1.36257,-3.19877
676.5,60.4973,1.36653,-3.19876
677,60.5481,1.36255,-3.2015
677.5,60.5986,1.36294,-3.20371
678,60.6506,1.36349,-3.20365
678.5,60.7009,1.35928,-3.20049
679,60.7503,1.36215,-3.20052
679.5,60.8014,1.36909,-3.20178
680,60.8522,1.37282,-3.20324
680.5,60.903,1.36989,-3.20326
681,60.9537,1.37419,-3.20248
681.5,61.005,1.37628,-3.20328
682,61.0565,1.37547,-3.20194
682.5,61.1068,1.37474,-3.20336
683,61.1569,1.37926,-3.20528
683.5,61.2088,1.37768,-3.20568
684,61.259,1.38417,-3.20568
684.5,61.3101,1.38603,-3.20556
685,61.3615,1.3886,-3.207
685.5,61.4125,1.38861,-3.20563
686,61.4627,1.3847,-3.20699
686.5,61.5137,1.38127,-3.20699
687,61.564,1.38247,-3.20698
687.5,61.6154,1.38082,-3.20797
688,61.6655,1.37788,-3.2093
688.5,61.7179,1.37928,-3.20798
689,61.7682,1.37606,-3.20655
689.5,61.8175,1.3688,-3.20749
690,61.8704,1.37064,-3.20787
690.5,61.9212,1.36977,-3.20786
691,61.9728,1.37183,-3.20953
691.5,62.0234,1.36602,-3.2105
692,62.075,1.36697,-3.2105
692.5,62.1256,1.36781,-3.21181
693,62.1769,1.36799,-3.21182
693.5,62.2279,1.37801,-3.21256
694,62.2789,1.3771,-3.21314
694.5,62.33,1.37278,-3.21182
695,62.3812,1.38664,-3.21182
695.5,62.4318,1.39133,-3.21177
696,62.4827,1.38547,-3.21315
696.5,62.534,1.38894,-3.21182
697,62.5826,1.38768,-3.21125
697.5,62.6364,1.3823,-3.21051
698,62.6862,1.37536,-3.21123
698.5,62.738,1.38462,-3.21317
699,62.7887,1.38433,-3.21311
699.5,62.84,1.38468,-3.21282
700,62.8913,1.38137,-3.21314
700.5,62.9423,1.38873,-3.21314
701,62.9932,1.37486,-3.21444
701.5,63.0438,1.3775,-3.21446
702,63.0954,1.3712,-3.21557
702.5,63.1462,1.36957,-3.21578
703,63.1971,1.37639,-3.21635
703.5,63.2487,1.37144,-3.2171
704,63.2995,1.36671,-3.2171
704.5,63.3499,1.36072,-3.21849
705,63.4021,1.36739,-3.21841
705.5,63.453,1.3669,-3.21841
706,63.504,1.37149,-3.21941
706.5,63.5539,1.36048,-3.21873
707,63.606,1.37655,-3.21968
707.5,63.6576,1.36872,-3.21874
708,63.7079,1.36849,-3.21873
708.5,63.7597,1.36393,-3.22005
709,63.8105,1.36989,-3.22272
709.5,63.8617,1.38046,-3.22269
710,63.9137,1.37951,-3.22273
710.5,63.964,1.376,-3.22138
711,64.0152,1.37643,-3.22234
711.5,64.0662,1.37347,-3.22137
712,64.117,1.3798,-3.22227
712.5,64.1685,1.37713,-3.22007
713,64.2201,1.37812,-3.21874
713.5,64.2703,1.38323,-3.21875
714,64.3218,1.37861,-3.22145
714.5,64.3726,1.38459,-3.22137
715,64.4241,1.38128,-3.22137
715.5,64.4758,1.37136,-3.22403
716,64.5267,1.37239,-3.22401
716.5,64.5783,1.37695,-3.22538
717,64.6286,1.36882,-3.22533
717.5,64.6799,1.37849,-3.22513
718,64.7318,1.3803,-3.224
718.5,64.7832,1.38022,-3.22499
719,64.8339,1.38345,-3.22499
719.5,64.8859,1.38845,-3.22497
720,64.9368,1.38693,-3.22401
720.5,64.9878,1.3985,-3.224
721,65.0395,1.3911,-3.2253
721.5,65.0917,1.40361,-3.22532
722,65.1407,1.39904,-3.2252
722.5,65.1936,1.39721,-3.22631
723,65.2452,1.39541,-3.22664
723.5,65.2965,1.39719,-3.22664
724,65.3481,1.39049,-3.22792
724.5,65.3998,1.39365,-3.22801
725,65.45,1.38831,-3.22829
725.5,65.5022,1.39435,-3.22883
726,65.5528,1.3981,-3.22993
726.5,65.6042,1.39817,-3.22992
727,65.6557,1.39656,-3.22863
727.5,65.7077,1.39853,-3.22862
728,65.7586,1.38964,-3.22862
728.5,65.8098,1.38739,-3.23004
729,65.8605,1.39484,-3.23125
729.5,65.9125,1.39344,-3.23126
730,65.9638,1.3965,-3.23159
730.5,66.0154,1.39779,-3.23126
731,66.066,1.39071,-3.23191
731.5,66.1177,1.39366,-3.23199
732,66.168,1.39209,-3.2306
732.5,66.22,1.38829,-3.2297
733,66.2711,1.38251,-3.22993
733.5,66.3226,1.3887,-3.23251
734,66.3724,1.37944,-3.23398
734.5,66.4245,1.3741,-3.23397
735,66.4765,1.38005,-3.23257
735.5,66.5274,1.37783,-3.23154
736,66.5786,1.3803,-3.23162
736.5,66.63,1.37376,-3.2329
737,66.6813,1.38267,-3.23422
737.5,66.7324,1.37714,-3.23553
738,66.7837,1.3793,-3.2353
738.5,66.8356,1.37313,-3.23561
739,66.8869,1.36833,-3.23553
739.5,66.9384,1.37124,-3.23625
740,66.9899,1.37145,-3.23685