File: 01_Data/Corrugated_Cardboard/Cone/Corrugated_Cardboard_Cone_HF50Scan_250211_R1.csv
Names,Time,Stack TC,Smoke TC,Exh Press,Smoke Comp,Smoke Meas,CO Meter,CO2 Meter,O2 Meter,Sample Mass,Ext Coeff,Start Test,Flame Verif
Chan Gain,,500,500,1,1,1,1,1,1,1,1,1.0,1.0
Offset,,0,0,0.131183,0,0,0,0,0,0,0,0.0,0.0
Gain,,1,1,25.011,13.1923,20.2122,1,1,1,1.00092,1.05074,1.0,1.0
Units,sec,C,C,Pa,%,%,%,%,%,g,/m,,
Baseline,,41.6812,44.3065,156.128,101.266,100.927,0.000904657,0.0487114,20.9327,-435.054,0.0309615,,
2,0.25,42.3011,44.5572,152.62,100.477,100.179,0.000955034,0.0651008,20.9142,146.005,0.0273786,0.0,0.0
4,0.75,41.3639,43.8077,151.331,100.466,100.189,0.000963833,0.0651552,20.9141,146.045,0.0254361,0.0,0.0
6,1.25,40.9531,43.7845,151.523,100.425,99.8434,0.000980457,0.0651993,20.914,145.985,0.053574,0.0,0.0
8,1.75,41.2168,43.6045,151.714,100.359,100.271,0.000993923,0.0652349,20.9139,145.955,0.0080624,0.0,0.0
10,2.25,41.2371,43.7519,156.465,100.325,99.7083,0.00100483,0.0653083,20.9138,145.935,0.0568484,0.0,0.0
12,2.75,41.197,43.6136,156.728,100.309,100.117,0.00104,0.0653678,20.9139,145.925,0.0176784,0.0,0.0
14,3.25,40.9993,44.0134,153.732,100.268,99.5152,0.00106849,0.0654472,20.9141,145.915,0.0694959,0.0,0.0
16,3.75,41.3497,44.2465,152.85,100.242,99.6053,0.00110213,0.0655396,20.9142,145.905,0.0587155,0.0,0.0
18,4.25,41.1257,44.1001,158.923,100.223,99.5091,0.00113889,0.0656145,20.9144,145.895,0.0658475,0.0,0.0
20,4.75,41.3372,44.1857,155.798,100.213,99.4363,0.00115456,0.0656464,20.9144,145.875,0.0717388,0.0,0.0
22,5.25,40.9636,44.2981,156.794,100.191,99.2845,0.0011914,0.065701,20.9145,145.855,0.0837791,0.0,0.0
24,5.75,41.0431,44.1856,156.145,100.195,98.7522,0.00122124,0.0657608,20.9146,145.855,0.133663,0.0,0.0
26,6.25,41.3711,44.1984,156.315,100.177,98.2606,0.00124541,0.0658233,20.9146,145.805,0.178068,0.0,0.0
28,6.75,41.6464,43.9004,152.751,100.184,97.7314,0.00126499,0.0658974,20.9147,145.765,0.228439,0.0,0.0
30,7.25,41.4522,44.0226,150.385,100.196,96.7993,0.00127622,0.0659785,20.9147,145.635,0.317833,0.0,1.0
32,7.75,41.4555,44.4169,143.704,100.202,95.5373,0.00128116,0.0660051,20.9147,145.625,0.43942,0.0,1.0
34,8.25,41.9879,45.099,136.227,100.212,93.5443,0.00127525,0.0659915,20.9148,145.384,0.634652,0.0,1.0
36,8.75,41.5808,47.3641,124.513,100.254,91.2158,0.00126155,0.0659571,20.9143,145.314,0.870836,0.0,1.0
38,9.25,42.8088,48.6428,126.468,100.246,89.6318,0.00123527,0.0659081,20.914,145.104,1.03152,0.0,1.0
40,9.75,43.7021,51.0812,117.036,100.289,88.8731,0.00120033,0.0658685,20.9137,144.974,1.11387,0.0,1.0
42,10.25,44.7538,54.3864,126.325,100.311,85.9117,0.00117202,0.0659847,20.9135,144.824,1.42819,0.0,1.0
44,10.75,46.0246,56.92,119.627,100.367,86.2109,0.00112798,0.0660788,20.9133,144.684,1.40129,0.0,1.0
46,11.25,46.801,59.7813,131.612,100.377,84.8711,0.00107333,0.0662332,20.9132,144.544,1.54658,0.0,1.0
48,11.75,47.4765,61.259,137.57,100.437,86.8573,0.00102437,0.0664286,20.913,144.403,1.33894,0.0,1.0
50,12.25,47.3363,62.9686,130.232,100.469,89.0088,0.000980507,0.0665869,20.9129,144.323,1.1163,0.0,1.0
52,12.75,48.2174,64.6362,136.672,100.526,90.9364,0.000944975,0.0668803,20.9129,144.253,0.924102,0.0,0.0
54,13.25,49.1054,65.8258,137.277,100.566,92.8763,0.000921201,0.0671181,20.9127,144.133,0.7332,0.0,0.0
56,13.75,49.3001,66.5462,140.412,100.596,93.0614,0.000901945,0.0673997,20.9124,144.123,0.717584,0.0,0.0
58,14.25,50.1942,67.4016,143.759,100.653,94.0828,0.000917664,0.0676279,20.9121,143.963,0.622168,0.0,0.0
60,14.75,50.7465,68.0393,142.213,100.706,94.7243,0.000930397,0.0690769,20.9119,143.943,0.564399,0.0,0.0
62,15.25,50.6875,68.6261,142.124,100.76,96.2522,0.00100844,0.0702506,20.9113,143.813,0.421891,0.0,0.0
64,15.75,51.0852,68.879,141.71,100.827,96.4083,0.00107166,0.0757464,20.9104,143.823,0.41307,0.0,0.0
66,16.25,51.3035,69.1811,141.586,100.865,97.1707,0.001199,0.0842888,20.9092,143.703,0.343891,0.0,0.0
68,16.75,51.4706,68.7618,144.478,100.953,96.6753,0.00137066,0.103418,20.9078,143.713,0.399085,0.0,0.0
70,17.25,51.3921,68.9912,149.024,101.002,97.4057,0.00150971,0.129902,20.9066,143.593,0.3342,0.0,0.0
72,17.75,52.1861,69.0161,144.794,101.055,96.7771,0.00183591,0.151354,20.8997,143.623,0.398681,0.0,0.0
74,18.25,51.6612,68.7125,145.121,101.113,97.5445,0.00210014,0.189786,20.8887,143.503,0.331211,0.0,0.0
76,18.75,52.097,68.6903,144.217,101.19,97.991,0.00249072,0.239865,20.8612,143.513,0.296079,0.0,0.0
78,19.25,52.1565,68.795,140.578,101.226,97.8442,0.00280709,0.296012,20.8222,143.392,0.313198,0.0,0.0
80,19.75,52.5986,68.9428,143.399,101.277,97.7129,0.00315132,0.355516,20.7907,143.413,0.330238,0.0,0.0
82,20.25,52.4919,68.9764,141.292,101.334,96.8141,0.00350931,0.412466,20.7229,143.302,0.420569,0.0,0.0
84,20.75,52.185,68.5716,144.405,101.388,96.8474,0.00385454,0.466471,20.6446,143.332,0.422304,0.0,0.0
86,21.25,52.871,68.9568,143.333,101.414,96.6618,0.0041839,0.510297,20.5601,143.202,0.442368,0.0,0.0
88,21.75,52.7439,68.7424,142.237,101.51,97.8208,0.00447162,0.545869,20.4916,143.232,0.341178,0.0,0.0
90,22.25,52.944,69.0015,142.349,101.521,96.9942,0.0047235,0.568759,20.4362,143.112,0.420449,0.0,0.0
92,22.75,52.7818,68.3198,143.186,101.584,96.6908,0.00491003,0.581971,20.3913,143.112,0.454996,0.0,0.0
94,23.25,53.0111,68.6508,145.71,101.614,97.0905,0.00504538,0.592673,20.3549,143.032,0.419712,0.0,0.0
96,23.75,53.086,68.8193,140.934,101.661,97.0356,0.00515501,0.585353,20.3255,143.012,0.429234,0.0,0.0
98,24.25,53.1325,68.486,134.192,101.701,95.1678,0.00512347,0.579423,20.3016,142.922,0.611949,0.0,0.0
100,24.75,52.9971,68.3509,141.336,101.755,96.0968,0.00509793,0.574621,20.2901,142.922,0.527305,0.0,0.0
102,25.25,53.6142,68.3996,145.352,101.74,95.6015,0.00507723,0.558892,20.2877,142.802,0.573623,0.0,0.0
104,25.75,53.4231,68.3429,140.789,101.793,95.76,0.00496248,0.535497,20.2858,142.792,0.563092,0.0,0.0
106,26.25,53.693,68.8296,139.307,101.828,95.594,0.00478134,0.516547,20.3018,142.672,0.582321,0.0,0.0
108,26.75,53.795,69.1003,140.594,101.823,95.1487,0.00463462,0.491264,20.3148,142.652,0.624887,0.0,0.0
110,27.25,54.2504,69.2859,140.22,101.875,95.2634,0.00443317,0.470785,20.3403,142.522,0.618443,0.0,0.0
112,27.75,54.4271,69.9285,137.631,101.849,94.7971,0.00427,0.448366,20.3609,142.462,0.661376,0.0,0.0
114,28.25,54.9172,70.6154,131.755,101.895,93.7485,0.00408835,0.430206,20.3862,142.372,0.768016,0.0,0.0
116,28.75,55.2283,70.9225,133.231,101.885,92.9577,0.00394121,0.411923,20.4143,142.271,0.845217,0.0,0.0
118,29.25,55.6165,71.9775,137.65,101.886,93.1563,0.00378782,0.397114,20.442,142.171,0.825618,0.0,0.0
120,29.75,56.2022,72.4231,133.819,101.899,93.4777,0.00366357,0.383237,20.4689,142.111,0.795005,0.0,0.0
122,30.25,55.7525,73.0907,135.988,101.896,93.5672,0.00352748,0.371996,20.4922,142.021,0.785971,0.0,0.0
124,30.75,55.9427,73.7192,140.026,101.88,92.3588,0.00341724,0.362494,20.5126,141.921,0.904286,0.0,0.0
126,31.25,56.857,74.4175,134.015,101.906,90.7902,0.00332795,0.354438,20.5291,141.831,1.06457,0.0,0.0
128,31.75,57.0569,74.669,140.515,101.883,91.679,0.00321768,0.347913,20.5431,141.691,0.972663,0.0,0.0
130,32.25,57.769,75.3316,136.715,101.858,92.4988,0.00312836,0.343195,20.5551,141.691,0.888355,0.0,0.0
132,32.75,57.4064,75.5166,138.365,101.843,92.1922,0.00305734,0.339373,20.5649,141.541,0.917642,0.0,0.0
134,33.25,57.9493,75.932,137.097,101.851,92.2533,0.00300101,0.337379,20.5728,141.561,0.912232,0.0,0.0
136,33.75,58.1086,76.1217,136.118,101.804,93.0755,0.00296597,0.336754,20.5791,141.431,0.826219,0.0,0.0
138,34.25,58.2418,76.2371,142.909,101.815,91.4798,0.00294711,0.338119,20.5845,141.451,0.986558,0.0,0.0
140,34.75,58.3768,76.1028,141.069,101.766,95.4195,0.00294249,0.34091,20.5888,141.321,0.593517,0.0,0.0
142,35.25,58.4434,76.1375,136.842,101.733,95.0389,0.00294834,0.34317,20.5901,141.351,0.627363,0.0,0.0
144,35.75,58.5423,76.3722,145.742,101.707,95.6835,0.00296041,0.350564,20.5911,141.23,0.56269,0.0,0.0
146,36.25,58.3368,75.7494,144.965,101.689,96.2189,0.00297678,0.356553,20.5892,141.311,0.509653,0.0,0.0
148,36.75,58.7248,75.4511,143.851,101.622,96.589,0.00299004,0.369591,20.5851,141.18,0.468135,0.0,0.0
150,37.25,58.668,75.0875,147.106,101.625,96.3762,0.00301978,0.380152,20.5781,141.23,0.488758,0.0,0.0
152,37.75,58.4882,74.9879,146.091,101.575,97.7653,0.00304386,0.393295,20.5691,141.12,0.352367,0.0,0.0
154,38.25,58.27,73.9412,144.452,101.549,98.4629,0.00308005,0.408069,20.5618,141.17,0.284418,0.0,0.0
156,38.75,58.5982,73.4923,145.484,101.504,98.9255,0.00310337,0.414367,20.5529,141.09,0.23712,0.0,0.0
158,39.25,58.2766,73.2698,150.384,101.466,97.8745,0.00314326,0.431495,20.5377,141.13,0.332137,0.0,0.0
160,39.75,58.3448,72.4778,148.913,101.403,98.4864,0.00320728,0.445368,20.5201,141.03,0.269024,0.0,0.0
162,40.25,58.3245,72.0134,149.582,101.388,97.5087,0.00325913,0.458985,20.501,141.1,0.359587,0.0,0.0
164,40.75,57.7528,71.43,151.975,101.345,99.1729,0.00331636,0.470014,20.4829,141,0.199653,0.0,0.0
166,41.25,57.7718,70.4374,149.906,101.312,98.1021,0.00336272,0.478732,20.4661,141.06,0.296784,0.0,0.0
168,41.75,57.6434,69.9802,153.727,101.253,99.5399,0.00339266,0.485598,20.4524,140.97,0.157254,0.0,0.0
170,42.25,57.1128,69.2179,151.397,101.241,99.6102,0.0034169,0.489573,20.4413,141.03,0.149718,0.0,0.0
172,42.75,56.9009,68.7067,156.172,101.178,100.407,0.0034137,0.491365,20.4323,140.94,0.0704773,0.0,0.0
174,43.25,56.855,67.6645,152.121,101.159,99.6756,0.00341111,0.492816,20.425,141.01,0.136117,0.0,0.0
176,43.75,56.4328,67.0788,150.757,101.124,99.1451,0.00338906,0.486727,20.4192,140.9,0.182182,0.0,0.0
178,44.25,56.6524,66.3569,151.065,101.084,98.5135,0.00335325,0.481795,20.4175,140.99,0.237419,0.0,0.0
180,44.75,56.1866,65.689,148.998,101.048,98.6461,0.00332423,0.472466,20.4161,140.91,0.221715,0.0,0.0
182,45.25,56.0155,64.953,153.22,101.003,98.6029,0.00328207,0.460108,20.415,140.97,0.221673,0.0,0.0
184,45.75,56.1149,64.4694,155.499,100.988,98.965,0.00323112,0.445263,20.4223,140.9,0.186494,0.0,0.0
186,46.25,55.5723,64.187,150.693,100.952,99.8199,0.00318852,0.428888,20.4282,140.95,0.103907,0.0,0.0
188,46.75,55.1391,63.3639,154.873,100.93,98.8805,0.00315281,0.415625,20.439,140.87,0.189075,0.0,0.0
190,47.25,55.5001,62.8292,156.134,100.898,99.4418,0.00312389,0.396583,20.4532,140.94,0.133996,0.0,0.0
192,47.75,55.0934,61.9972,151.683,100.855,99.5146,0.00311818,0.38116,20.4647,140.87,0.123279,0.0,0.0
194,48.25,54.8057,61.809,151.907,100.915,99.3925,0.00311357,0.368667,20.4796,140.94,0.140153,0.0,0.0
196,48.75,54.5277,61.2121,150.204,100.941,98.6961,0.00310982,0.348445,20.4966,140.85,0.207312,0.0,0.0
198,49.25,54.0303,60.609,150.165,101.008,99.0107,0.00317271,0.332065,20.5166,140.91,0.184118,0.0,0.0
200,49.75,54.4033,60.1858,151.942,101.015,99.0588,0.00322364,0.315758,20.5383,140.82,0.180228,0.0,0.0
202,50.25,54.3531,59.9261,151.382,101.083,100.073,0.003307,0.299813,20.5559,140.88,0.0925594,0.0,0.0
204,50.75,53.7209,59.4192,148.344,101.09,99.3104,0.00341243,0.284192,20.578,140.8,0.163745,0.0,0.0
206,51.25,53.9099,58.9879,149.455,101.136,99.6682,0.00355678,0.269102,20.596,140.87,0.134748,0.0,0.0
208,51.75,53.5418,58.5471,158.431,101.124,100.075,0.00372678,0.25688,20.6189,140.77,0.0960385,0.0,0.0
210,52.25,53.5788,58.1399,154.811,101.194,99.6886,0.00386448,0.242753,20.6374,140.86,0.138147,0.0,0.0
212,52.75,53.3324,57.7172,152.117,101.181,99.538,0.00415491,0.23131,20.6566,140.78,0.150936,0.0,0.0
214,53.25,53.2456,57.6113,152.985,101.213,99.8033,0.00439016,0.220328,20.6759,140.84,0.129268,0.0,0.0
216,53.75,52.9528,57.0155,152.303,101.215,99.5387,0.004655,0.209891,20.6916,140.77,0.153923,0.0,0.0
218,54.25,52.5843,56.7527,153.031,101.245,99.0964,0.00493637,0.200204,20.7078,140.84,0.197752,0.0,0.0
220,54.75,52.7009,56.56,153.167,101.229,99.5054,0.00522249,0.191249,20.7209,140.76,0.15829,0.0,0.0
222,55.25,52.4967,56.0147,153.08,101.253,100.096,0.00550662,0.183062,20.7347,140.82,0.105915,0.0,0.0
224,55.75,52.2782,56.091,152.482,101.245,99.3561,0.00578228,0.175589,20.746,140.75,0.17363,0.0,0.0
226,56.25,52.1179,55.4848,153.538,101.233,99.2518,0.00604651,0.168882,20.7577,140.8,0.182133,0.0,0.0
228,56.75,51.924,55.4633,152.418,101.229,99.7638,0.00630205,0.162859,20.7672,140.75,0.134345,0.0,0.0
230,57.25,52.0751,55.0284,154.109,101.21,99.8699,0.00654641,0.157981,20.7776,140.78,0.122898,0.0,0.0
232,57.75,51.811,54.5647,151.833,101.181,100.352,0.00678525,0.152881,20.7859,140.73,0.0758121,0.0,0.0
234,58.25,51.3078,54.2421,156.821,101.172,99.3888,0.00701553,0.14875,20.7941,140.78,0.163925,0.0,0.0
236,58.75,51.5436,53.9675,159.648,101.14,100.189,0.00720207,0.144938,20.8006,140.72,0.0870754,0.0,0.0
238,59.25,51.1458,53.9626,151.802,101.113,99.5769,0.00738116,0.14143,20.8059,140.76,0.141138,0.0,0.0
240,59.75,51.4258,53.5209,155.367,101.088,99.4683,0.00755143,0.138589,20.8111,140.73,0.14888,0.0,0.0
242,60.25,50.3383,52.3286,151.694,101.052,99.1858,0.00770439,0.135724,20.8153,140.75,0.171791,0.0,0.0
244,60.75,49.5097,51.8784,149.173,101.009,99.4301,0.00784183,0.133403,20.8192,140.73,0.145228,0.0,0.0
246,61.25,49.6346,51.9759,149.124,100.97,100.095,0.00795315,0.131082,20.8223,140.75,0.08023,0.0,0.0
248,61.75,49.0298,51.302,153.229,100.948,100.019,0.00807192,0.129202,20.8253,140.74,0.0851966,0.0,0.0
250,62.25,49.2899,50.7889,150.759,100.898,99.1951,0.00816813,0.127208,20.8281,140.72,0.156929,0.0,0.0
252,62.75,49.2434,51.3774,149.167,100.905,99.3493,0.00826297,0.125592,20.8306,140.73,0.143165,0.0,0.0
254,63.25,48.6666,50.4647,149.257,100.868,99.4616,0.00833978,0.123859,20.8329,140.71,0.129445,0.0,0.0
256,63.75,48.65,50.4046,150.738,100.814,98.8423,0.0083942,0.122455,20.8347,140.7,0.182045,0.0,0.0
258,64.25,48.8188,50.3125,154.9,100.807,99.5442,0.00843828,0.121317,20.8366,140.7,0.116232,0.0,0.0
260,64.75,48.5412,50.2451,150.166,100.769,99.2679,0.00845619,0.120092,20.8382,140.71,0.138319,0.0,0.0
262,65.25,48.3965,50.2775,154.864,100.73,98.9027,0.00845468,0.1191,20.8403,140.71,0.168751,0.0,0.0
264,65.75,48.4929,50.2703,153.375,100.667,99.7872,0.00845346,0.117918,20.8421,140.68,0.0808639,0.0,0.0
266,66.25,48.5007,49.9784,155.324,100.616,98.3346,0.00843812,0.11696,20.8435,140.63,0.211378,0.0,0.0
268,66.75,48.6264,50.1339,152.015,100.603,99.6176,0.00841276,0.116184,20.8446,140.72,0.0906828,0.0,0.0
270,67.25,48.4751,49.4414,154.812,100.582,99.2691,0.00838334,0.115208,20.8455,140.58,0.121102,0.0,0.0
272,67.75,48.2038,49.637,150.554,100.578,98.9305,0.00835151,0.114417,20.8465,140.67,0.152192,0.0,0.0
274,68.25,48.2369,49.574,150.11,100.59,99.4264,0.00832573,0.113609,20.8475,140.64,0.107285,0.0,0.0
276,68.75,48.0651,49.4399,156.808,100.604,99.7558,0.00829057,0.112955,20.8486,140.67,0.0780186,0.0,0.0
278,69.25,47.9597,48.9595,155.492,100.63,99.4122,0.00826209,0.112322,20.8496,140.62,0.112252,0.0,0.0
280,69.75,47.3331,49.4873,156.214,100.661,99.6164,0.00822215,0.111716,20.8507,140.63,0.096181,0.0,0.0
282,70.25,47.4499,48.7143,150.414,100.665,99.3456,0.0081898,0.111122,20.8518,140.59,0.121601,0.0,0.0
284,70.75,47.9269,48.8007,154.67,100.709,99.3154,0.00815336,0.110548,20.8527,140.71,0.128459,0.0,0.0
286,71.25,47.4471,48.6981,153.936,100.725,99.4023,0.00811463,0.110082,20.8534,140.54,0.121827,0.0,0.0
288,71.75,47.3936,49.1998,152.525,100.755,98.6424,0.00808325,0.10961,20.854,140.66,0.195325,0.0,0.0
290,72.25,47.4,48.3433,152.864,100.821,99.9581,0.0080292,0.109141,20.8544,140.58,0.0792387,0.0,0.0
292,72.75,47.7221,48.7312,153.98,100.866,100.493,0.00795964,0.108762,20.8554,140.62,0.0341791,0.0,0.0
294,73.25,47.1529,48.6354,160.087,100.849,99.5849,0.00790329,0.108349,20.8562,140.58,0.116217,0.0,0.0
296,73.75,46.9246,48.3834,152.867,100.908,99.2845,0.00779943,0.108014,20.8571,140.61,0.149469,0.0,0.0
298,74.25,47.3288,48.3652,150.956,100.924,99.316,0.00771529,0.107687,20.858,140.52,0.148057,0.0,0.0
300,74.75,47.2963,48.7125,153.186,100.967,99.4788,0.0076247,0.107373,20.8587,140.64,0.136853,0.0,0.0
302,75.25,47.0512,48.1269,152.729,100.989,100.897,0.00753112,0.107118,20.8593,140.56,0.00837526,0.0,0.0
304,75.75,46.6607,47.9757,150.798,101.045,99.8218,0.0074363,0.106776,20.8598,140.6,0.112259,0.0,0.0
306,76.25,46.5501,48.1385,152.725,101.051,99.7829,0.00734237,0.106498,20.8602,140.5,0.116399,0.0,0.0
308,76.75,46.681,48.0245,151.033,101.101,99.9427,0.00726629,0.106077,20.8605,140.61,0.106243,0.0,0.0
310,77.25,46.3245,47.7692,155.334,101.107,99.9211,0.00715566,0.105737,20.8608,140.51,0.108748,0.0,0.0
312,77.75,46.4088,48.1026,150.653,101.155,99.1747,0.00706604,0.105219,20.861,140.62,0.182219,0.0,0.0
314,78.25,46.7362,47.7732,152.281,101.182,99.2389,0.00696092,0.1048,20.8614,140.47,0.178716,0.0,0.0
316,78.75,46.5707,47.671,154.672,101.196,99.9303,0.0068465,0.104302,20.8619,140.6,0.116002,0.0,0.0
318,79.25,46.3015,47.7327,150.713,101.209,99.3308,0.00672423,0.103756,20.8623,140.5,0.172641,0.0,0.0
320,79.75,46.226,48.1544,156.354,101.248,99.852,0.00662519,0.103313,20.8631,140.57,0.127922,0.0,0.0
322,80.25,46.3766,47.734,153.113,101.261,99.4807,0.00654496,0.102744,20.8638,140.48,0.163507,0.0,0.0
324,80.75,46.6624,47.653,152.79,101.294,99.9192,0.0064607,0.102283,20.8643,140.56,0.125932,0.0,0.0
326,81.25,45.9809,47.1915,155.371,101.283,100.155,0.00639245,0.101759,20.8647,140.45,0.103212,0.0,0.0
328,81.75,45.8021,47.7177,150.001,101.335,100.294,0.00632973,0.101199,20.865,140.57,0.0951751,0.0,0.0
330,82.25,46.2441,47.5566,158.228,101.363,99.7552,0.00627223,0.100634,20.8658,140.48,0.147342,0.0,0.0
332,82.75,46.427,47.2645,150.322,101.389,100.139,0.00621686,0.100077,20.8663,140.53,0.11434,0.0,0.0
334,83.25,45.8375,47.4391,154.268,101.344,100.25,0.00616411,0.0995787,20.8673,140.48,0.0999696,0.0,0.0
336,83.75,46.1783,47.8259,149.547,101.387,99.733,0.00612137,0.0991321,20.868,140.51,0.151589,0.0,0.0
338,84.25,46.6157,47.3959,157.756,101.381,99.9458,0.0060752,0.0987703,20.8686,140.41,0.131395,0.0,0.0
340,84.75,45.5227,47.0347,152.01,101.415,99.9778,0.00603781,0.0983871,20.8691,140.53,0.131548,0.0,0.0
342,85.25,45.8227,47.4935,148.35,101.389,98.8558,0.00599981,0.0980766,20.8695,140.44,0.233229,0.0,0.0
344,85.75,45.8958,47.6972,151.907,101.421,99.9698,0.00596904,0.0977687,20.8698,140.51,0.132872,0.0,0.0
346,86.25,45.449,47.3249,152.987,101.425,99.8563,0.00594038,0.0974684,20.8702,140.45,0.143709,0.0,0.0
348,86.75,45.2061,47.2296,155.889,101.43,100.017,0.00591716,0.0972252,20.8706,140.48,0.12932,0.0,0.0
350,87.25,46.1777,47.1086,151.758,101.419,99.9951,0.00589836,0.0969079,20.871,140.42,0.130358,0.0,0.0
352,87.75,45.1767,47.1912,156.728,101.435,99.7946,0.00587158,0.096651,20.8713,140.52,0.150246,0.0,0.0
354,88.25,46.1089,47.1737,151.881,101.429,100.139,0.00584988,0.096348,20.8715,140.43,0.117962,0.0,0.0
356,88.75,45.5809,47.1649,152.22,101.428,100.407,0.00582421,0.0960171,20.8717,140.48,0.0932251,0.0,0.0
358,89.25,45.5852,46.9933,153.035,101.399,100.375,0.00579612,0.0956148,20.8723,140.41,0.0935362,0.0,0.0
360,89.75,45.7728,46.7612,153.464,101.412,99.031,0.00576528,0.095168,20.8728,140.51,0.21896,0.0,0.0
362,90.25,45.7333,46.9368,153.265,101.401,100.279,0.005733,0.0946797,20.8732,140.43,0.102595,0.0,0.0
364,90.75,45.4666,46.9636,155.816,101.385,100.187,0.00569944,0.0941705,20.8735,140.45,0.109583,0.0,0.0
366,91.25,45.3119,46.5609,152.93,101.345,100.2,0.00566557,0.0936633,20.8742,140.36,0.104694,0.0,0.0
368,91.75,45.6539,46.7041,154.327,101.371,99.6824,0.00563207,0.0931672,20.8748,140.51,0.154801,0.0,0.0
370,92.25,45.674,46.7332,155.163,101.352,100.575,0.00559947,0.0927654,20.8757,140.42,0.07092,0.0,0.0
372,92.75,45.0627,46.867,148.067,101.345,99.7909,0.00557306,0.09223,20.8764,140.45,0.142425,0.0,0.0
374,93.25,45.2113,46.7282,152.322,101.321,98.9434,0.0055363,0.0917964,20.8773,140.37,0.218842,0.0,0.0
376,93.75,45.5495,47.0314,151.13,101.295,100.258,0.00550653,0.0913111,20.8781,140.42,0.0948935,0.0,0.0
378,94.25,45.2888,46.6296,154.127,101.3,100.131,0.00546624,0.0907973,20.8788,140.42,0.106986,0.0,0.0
380,94.75,44.6623,46.356,160.512,101.281,99.4887,0.00541905,0.0903811,20.8794,140.36,0.164561,0.0,0.0
382,95.25,45.1833,46.5558,151.12,101.274,99.9254,0.00538083,0.090044,20.8799,140.47,0.123567,0.0,0.0
384,95.75,44.7455,46.7985,150.467,101.22,101.065,0.00534987,0.0894715,20.8803,140.37,0.0141092,0.0,0.0
386,96.25,45.3016,46.7056,156.574,101.235,99.5442,0.00529781,0.0890078,20.8807,140.44,0.155205,0.0,0.0
388,96.75,44.7404,46.7679,149.954,101.21,99.4714,0.00525564,0.0885545,20.8813,140.37,0.159747,0.0,0.0
390,97.25,44.9281,46.85,151.484,101.166,99.8643,0.00522021,0.0881174,20.8821,140.42,0.119377,0.0,0.0
392,97.75,45.3303,47.0666,150.524,101.162,99.2895,0.0051915,0.087724,20.883,140.36,0.172222,0.0,0.0
394,98.25,44.9706,46.563,154.265,101.148,99.7737,0.0051772,0.0873699,20.8837,140.43,0.126062,0.0,0.0
396,98.75,44.9664,46.7785,149.01,101.127,99.3283,0.00517111,0.0872189,20.884,140.35,0.165424,0.0,0.0
398,99.25,44.839,46.6407,153.726,101.106,99.7478,0.00517443,0.0870642,20.8848,140.42,0.12464,0.0,0.0
400,99.75,45.1369,46.9726,154.179,101.076,99.2167,0.0051868,0.0870225,20.885,140.34,0.171128,0.0,0.0
402,100.25,44.9472,46.9938,158.521,101.058,99.868,0.00520794,0.0872957,20.8853,140.41,0.109163,0.0,0.0
404,100.75,45.196,46.8663,150.527,101.045,99.9112,0.00526734,0.087517,20.8856,140.33,0.104004,0.0,0.0
406,101.25,45.1971,46.526,152.944,101.007,99.2167,0.00531546,0.0878618,20.8859,140.39,0.164812,0.0,0.0
408,101.75,44.9155,46.6133,153.314,100.971,99.7441,0.00535443,0.0882902,20.886,140.33,0.112642,0.0,0.0
410,102.25,44.6519,46.5186,154.534,100.966,100.452,0.00542831,0.0886372,20.886,140.39,0.0470534,0.0,0.0
412,102.75,44.6977,47.0757,151.816,100.921,98.6066,0.00548816,0.0889182,20.8857,140.31,0.21383,0.0,0.0
414,103.25,44.5209,46.4209,154.028,100.919,99.6077,0.0055546,0.0891459,20.8855,140.38,0.120542,0.0,0.0
416,103.75,45.0424,46.5565,145.968,100.873,99.6953,0.00560841,0.0892435,20.8853,140.31,0.108211,0.0,0.0
418,104.25,45.1432,46.6241,153.229,100.858,100.35,0.00565471,0.0892445,20.8851,140.37,0.0464861,0.0,0.0
420,104.75,44.7682,46.3263,149.256,100.822,98.2088,0.00569464,0.0891271,20.885,140.3,0.242081,0.0,0.0
422,105.25,44.8339,46.7288,148.156,100.797,98.717,0.00572313,0.0889255,20.8849,140.37,0.19222,0.0,0.0
424,105.75,44.7911,46.468,151.192,100.761,100.511,0.00574621,0.0886361,20.8848,140.3,0.0228761,0.0,0.0
426,106.25,44.804,46.929,153.472,100.729,99.1679,0.0057541,0.0882883,20.8848,140.36,0.143993,0.0,0.0
428,106.75,44.7291,46.2662,149.758,100.682,99.7145,0.00575076,0.0880065,20.8852,140.29,0.0889897,0.0,0.0
430,107.25,44.829,46.4472,154.68,100.682,99.7262,0.00574069,0.0875817,20.8855,140.37,0.0879439,0.0,0.0
432,107.75,44.5944,46.1889,156.418,100.628,99.8341,0.00572591,0.0872376,20.886,140.28,0.0729957,0.0,0.0
434,108.25,45.0293,46.5044,154.493,100.623,99.1976,0.00571393,0.0868094,20.8865,140.34,0.131548,0.0,0.0
436,108.75,44.127,46.4249,154.037,100.592,99.3117,0.00570019,0.0863279,20.8868,140.27,0.118038,0.0,0.0
438,109.25,44.4513,46.1243,154.702,100.568,99.4788,0.00568541,0.0859378,20.8871,140.35,0.100323,0.0,0.0
440,109.75,44.9237,46.4425,151.571,100.517,99.4579,0.00567343,0.0854127,20.8873,140.26,0.0976162,0.0,0.0
442,110.25,44.6875,46.2743,152.57,100.516,99.551,0.00565989,0.0849873,20.8877,140.35,0.0888776,0.0,0.0
444,110.75,44.4218,46.4048,151.99,100.468,99.6226,0.00564892,0.0845248,20.8883,140.26,0.0778606,0.0,0.0
446,111.25,44.8055,46.8434,153.634,100.466,99.0767,0.0056426,0.084044,20.8887,140.33,0.128395,0.0,0.0
448,111.75,44.5179,46.5518,152.246,100.407,99.5744,0.00563748,0.0835367,20.8891,140.24,0.0767721,0.0,0.0
450,112.25,44.5611,46.4656,156.562,100.404,99.9303,0.0056367,0.0830196,20.8894,140.31,0.0435536,0.0,0.0
452,112.75,44.4129,46.5026,153.07,100.334,100.498,0.00563911,0.0825223,20.89,140.24,-0.0150349,0.0,0.0
454,113.25,44.6469,46.0894,153.745,100.355,99.4097,0.00565052,0.0820488,20.8908,140.32,0.0871864,0.0,0.0
456,113.75,44.7038,45.9791,157.868,100.293,99.4332,0.00566826,0.0815945,20.8917,140.23,0.0793542,0.0,0.0
458,114.25,44.483,46.2236,150.79,100.316,99.3505,0.00568736,0.0811629,20.8923,140.32,0.0891649,0.0,0.0
460,114.75,44.4419,46.0307,150.853,100.255,99.1939,0.00570708,0.0808134,20.8929,140.24,0.0980499,0.0,0.0
462,115.25,44.3914,46.3624,152.685,100.261,100.202,0.00572306,0.0803662,20.8933,140.3,0.00536803,0.0,0.0
464,115.75,44.3832,46.4415,156.453,100.235,99.6534,0.00572959,0.0800039,20.8937,140.22,0.053598,0.0,0.0
466,116.25,44.3241,46.3117,149.115,100.232,99.3808,0.00573487,0.0795928,20.894,140.29,0.0785894,0.0,0.0
468,116.75,44.1428,46.0977,154.393,100.217,99.3123,0.00573031,0.0791538,20.8942,140.22,0.0836092,0.0,0.0
470,117.25,44.2173,46.0231,154.267,100.223,99.1297,0.00571867,0.0787983,20.8944,140.3,0.101125,0.0,0.0
472,117.75,44.4324,46.5087,153.895,100.177,98.4857,0.00569439,0.0783782,20.8946,140.21,0.156937,0.0,0.0
474,118.25,44.5665,46.0663,150.894,100.2,99.9667,0.00566137,0.0780379,20.8947,140.28,0.0214413,0.0,0.0
476,118.75,44.2285,45.9831,155.323,100.179,99.4597,0.00563461,0.0777622,20.8951,140.2,0.066382,0.0,0.0
478,119.25,44.0552,46.203,152.461,100.207,99.4523,0.00561295,0.0774198,20.8958,140.26,0.0696606,0.0,0.0
480,119.75,44.6172,46.2644,149.322,100.156,99.3326,0.00552113,0.0771424,20.8964,140.18,0.0760911,0.0,0.0
482,120.25,44.0872,46.3236,152.303,100.174,99.2629,0.00544676,0.0768628,20.8971,140.26,0.0841895,0.0,0.0
484,120.75,43.6441,46.0861,152.664,100.164,99.6096,0.00535356,0.076587,20.8976,140.19,0.0511311,0.0,0.0
486,121.25,44.0706,46.2423,154.479,100.172,100.334,0.0052484,0.0763635,20.898,140.26,-0.0148555,0.0,0.0
488,121.75,44.3493,46.4829,154.264,100.175,99.0878,0.00516322,0.076123,20.8984,140.18,0.100545,0.0,0.0
490,122.25,44.4721,46.2625,147.988,100.174,99.0884,0.00505338,0.0759281,20.8987,140.26,0.10045,0.0,0.0
492,122.75,43.7046,45.8861,150.542,100.191,98.8595,0.00496441,0.0757468,20.8989,140.19,0.123317,0.0,0.0
494,123.25,44.3578,46.1047,156.492,100.201,99.3363,0.0048816,0.0755787,20.8991,140.26,0.0798585,0.0,0.0
496,123.75,44.1774,45.8705,149.218,100.2,99.5337,0.00480486,0.0754426,20.8992,140.19,0.0614882,0.0,0.0
498,124.25,44.3923,46.4416,156.936,100.206,100.213,0.0047427,0.0752133,20.8994,140.25,-0.000593894,0.0,0.0
500,124.75,43.7513,45.9809,154.035,100.213,99.3425,0.00471404,0.0750275,20.8997,140.19,0.0804336,0.0,0.0
502,125.25,44.2407,46.4648,150.151,100.245,100.205,0.00469082,0.07483,20.9002,140.23,0.0036043,0.0,0.0
504,125.75,44.2547,45.8318,152.127,100.24,98.619,0.00470392,0.0746277,20.9006,140.18,0.150253,0.0,0.0
506,126.25,43.8594,46.4138,152.425,100.276,99.2278,0.0047095,0.0745179,20.9007,140.23,0.0968964,0.0,0.0
508,126.75,44.4257,46.4555,152.326,100.272,99.2549,0.00472981,0.0743303,20.901,140.19,0.093969,0.0,0.0
510,127.25,43.9779,46.4132,151.204,100.322,99.4961,0.00475594,0.0741783,20.9012,140.22,0.076151,0.0,0.0
512,127.75,44.2671,46.2008,154.172,100.313,99.9575,0.0047771,0.0740105,20.9014,140.19,0.0327307,0.0,0.0
514,128.25,43.9748,46.2341,152.125,100.339,99.3036,0.00480063,0.0738747,20.9016,140.22,0.0955862,0.0,0.0
516,128.75,44.3666,46.3227,154.264,100.398,99.2808,0.00481969,0.0737348,20.9017,140.18,0.103101,0.0,0.0
518,129.25,44.3272,46.7241,153.453,100.39,99.3333,0.00482235,0.0736216,20.9018,140.2,0.0975335,0.0,0.0
520,129.75,43.9209,46.7159,152.167,100.411,99.8199,0.00482451,0.0734828,20.9019,140.21,0.0543714,0.0,0.0
522,130.25,44.1393,46.0612,149.683,100.438,99.1618,0.00480677,0.0733282,20.9019,140.23,0.117857,0.0,0.0
524,130.75,44.0065,46.4327,153.94,100.485,99.9236,0.00477486,0.0732029,20.902,140.2,0.0516785,0.0,0.0
526,131.25,43.9508,46.2884,153.703,100.518,99.5491,0.00474902,0.0730779,20.902,140.17,0.0892705,0.0,0.0
528,131.75,44.3366,46.5169,153.656,100.548,100.33,0.00469364,0.0729556,20.9021,140.19,0.0199822,0.0,0.0
530,132.25,44.2699,46.4608,152.013,100.579,100.283,0.00464879,0.0728017,20.9021,140.15,0.027131,0.0,0.0
532,132.75,43.9474,46.5392,151.283,100.604,99.9741,0.00460481,0.0726277,20.9021,140.19,0.057865,0.0,0.0
534,133.25,43.7534,46.7279,155.615,100.628,99.8082,0.00456919,0.0724554,20.9021,140.16,0.0753511,0.0,0.0
536,133.75,43.9633,46.3775,154.746,100.68,99.0526,0.00454033,0.0722877,20.9024,140.18,0.150224,0.0,0.0
538,134.25,44.0624,46.314,157.395,100.685,100.27,0.00451696,0.0721206,20.9028,140.15,0.0380929,0.0,0.0
540,134.75,43.8822,46.2651,149.85,100.727,99.6774,0.00449803,0.0719571,20.9031,140.18,0.0965387,0.0,0.0
542,135.25,44.46,46.4249,155.118,100.768,100.503,0.00448269,0.0718168,20.9034,140.139,0.0242011,0.0,0.0
544,135.75,44.2408,46.5883,154.146,100.807,99.712,0.00445625,0.0716961,20.9036,140.18,0.100637,0.0,0.0
546,136.25,44.5099,46.0309,151.328,100.826,100.313,0.00443483,0.0715827,20.9038,140.119,0.0470349,0.0,0.0
548,136.75,44.1088,46.2294,152.39,100.86,100.311,0.00441749,0.0714767,20.9039,140.18,0.0503334,0.0,0.0
550,137.25,43.9938,46.3734,150.437,100.889,99.9729,0.00436522,0.0713909,20.9043,140.109,0.0840926,0.0,0.0
552,137.75,44.2919,46.716,149.144,100.928,100.385,0.00432289,0.0712745,20.9047,140.16,0.0497127,0.0,0.0
554,138.25,43.8522,46.3134,153.744,100.954,99.1279,0.00427192,0.0711379,20.9051,140.099,0.16829,0.0,0.0
556,138.75,44.1833,46.1096,149.366,101.024,100.25,0.00421563,0.0710184,20.9055,140.16,0.0708709,0.0,0.0
558,139.25,44.0313,46.7162,156.224,101.041,99.765,0.00416133,0.0709136,20.9057,140.079,0.117133,0.0,0.0
560,139.75,44.0545,46.425,154.279,101.088,100.106,0.00410951,0.0708287,20.9058,140.16,0.0900256,0.0,0.0
562,140.25,43.9273,46.5988,147.883,101.1,100.264,0.00405885,0.0707302,20.9058,140.079,0.0765062,0.0,0.0
564,140.75,44.1701,46.462,152.128,101.147,99.7441,0.00400998,0.0706505,20.9054,140.139,0.128724,0.0,0.0
566,141.25,43.6872,46.3082,149.911,101.168,100.439,0.0039704,0.0705115,20.9051,140.069,0.0666176,0.0,0.0
568,141.75,44.0282,46.2167,149.343,101.212,100.052,0.00391039,0.070399,20.9048,140.129,0.10623,0.0,0.0
570,142.25,44.1599,45.9117,153.043,101.238,99.7817,0.00386178,0.0703079,20.9046,140.059,0.133572,0.0,0.0
572,142.75,43.9164,46.099,152.814,101.29,100.542,0.00382241,0.0701637,20.9044,140.129,0.0683683,0.0,0.0
574,143.25,44.1697,46.1472,151.358,101.299,100.296,0.00377715,0.0699835,20.9046,140.049,0.0917283,0.0,0.0
576,143.75,43.7944,46.8649,152.285,101.361,101.17,0.00372847,0.0697829,20.9051,140.129,0.0173922,0.0,0.0
578,144.25,44.0537,46.4873,153.49,101.355,99.7459,0.00368903,0.0695711,20.9055,140.049,0.147538,0.0,0.0
580,144.75,43.9087,46.478,153.267,101.415,100.008,0.00365075,0.0693995,20.906,140.119,0.128762,0.0,0.0
582,145.25,44.0812,46.1086,151.459,101.438,100.538,0.00361973,0.0691863,20.9067,140.049,0.0821806,0.0,0.0
584,145.75,43.8535,46.5944,155.263,101.481,101.162,0.00360096,0.0690136,20.9074,140.119,0.0290261,0.0,0.0
586,146.25,43.6193,46.8467,159.259,101.507,100.44,0.00358575,0.0688589,20.9083,140.039,0.0973922,0.0,0.0
588,146.75,43.9312,46.5562,156.259,101.544,100.407,0.00357944,0.0687335,20.9089,140.119,0.103792,0.0,0.0
590,147.25,44.0344,46.8546,157.346,101.559,101.417,0.00357975,0.0686086,20.9095,140.039,0.0128804,0.0,0.0
592,147.75,43.8369,46.107,151.43,101.607,100.849,0.00358467,0.0684862,20.9099,140.099,0.0689823,0.0,0.0
594,148.25,44.0678,46.3661,155.802,101.605,100.693,0.00359287,0.0683872,20.9103,140.049,0.0830365,0.0,0.0
596,148.75,44.0848,46.6748,149.293,101.666,101.11,0.00359951,0.0682475,20.9105,140.099,0.0505334,0.0,0.0
598,149.25,43.4364,46.6252,152.1,101.674,100.625,0.00359854,0.0681344,20.9108,140.029,0.0955851,0.0,0.0
600,149.75,43.8421,46.4131,150.296,101.709,101.899,0.00359775,0.0679982,20.911,140.119,-0.0171433,0.0,0.0
602,150.25,43.8168,46.6165,149.727,101.721,100.664,0.00357808,0.0678879,20.9111,140.029,0.0963321,0.0,0.0
604,150.75,43.9631,46.266,155.102,101.753,100.205,0.00356214,0.0677673,20.9112,140.119,0.14133,0.0,0.0
606,151.25,44.1683,46.337,150.495,101.746,101.001,0.00354923,0.0676415,20.9113,140.019,0.067752,0.0,0.0
608,151.75,43.9021,46.4641,154.164,101.794,99.7293,0.00352482,0.0675396,20.9114,140.099,0.188896,0.0,0.0
610,152.25,43.9283,45.8973,151.484,101.795,99.6639,0.00350505,0.0674883,20.9115,140.019,0.195051,0.0,0.0
612,152.75,44.1102,46.0578,153.608,101.812,101.797,0.00349371,0.0674749,20.9115,140.089,0.00134587,0.0,0.0
614,153.25,44.3307,46.3576,155.586,101.818,101.602,0.00348872,0.0674641,20.9116,140.019,0.0195776,0.0,0.0
616,153.75,43.9533,46.014,151.837,101.863,101.04,0.00348803,0.0674404,20.9116,140.089,0.0748138,0.0,0.0
618,154.25,43.7107,46.8159,152.179,101.851,99.6528,0.00349047,0.0674213,20.9116,140.029,0.201107,0.0,0.0
620,154.75,43.9834,47.1179,151.104,101.85,100.836,0.00349245,0.0674057,20.9117,140.079,0.0922189,0.0,0.0
622,155.25,44.122,46.6321,152.89,101.857,101.453,0.00349278,0.0673932,20.9117,140.029,0.0366079,0.0,0.0
624,155.75,44.3635,46.7211,152.013,101.87,101.311,0.00349305,0.0673236,20.9117,140.069,0.0507082,0.0,0.0
626,156.25,43.8746,46.7117,152.581,101.872,101.438,0.00349327,0.0672673,20.9117,140.029,0.0393008,0.0,0.0
628,156.75,44.2431,46.5033,157.483,101.876,101.569,0.0035008,0.0671623,20.9117,140.069,0.0278464,0.0,0.0
630,157.25,44.0688,46.7145,155.18,101.9,100.562,0.0035135,0.0670772,20.9117,140.029,0.121838,0.0,0.0
632,157.75,43.6188,46.3212,153.778,101.898,101.123,0.0035238,0.0670005,20.9117,140.049,0.0703159,0.0,0.0
634,158.25,43.9587,46.3249,147.101,101.866,101.355,0.00354015,0.0669314,20.9117,140.019,0.046344,0.0,0.0
636,158.75,43.4708,46.4849,149.386,101.887,101.22,0.00356062,0.0668753,20.9117,140.049,0.0605462,0.0,0.0
638,159.25,44.0543,46.3435,154.473,101.879,101.669,0.0035772,0.0668299,20.9118,139.989,0.0190184,0.0,0.0
640,159.75,44.1597,46.4772,152.516,101.896,99.7003,0.00358936,0.0667932,20.9118,140.049,0.200831,0.0,0.0
642,160.25,43.9921,46.3852,148.86,101.851,101.048,0.0035992,0.0667244,20.9118,140.009,0.0729521,0.0,0.0
644,160.75,43.9533,46.3044,155.663,101.859,101.314,0.0035856,0.0666335,20.9118,140.019,0.0494275,0.0,0.0
646,161.25,43.5518,46.3025,153.596,101.843,101.847,0.00357458,0.0665286,20.9118,139.999,-0.000350508,0.0,0.0
648,161.75,43.8009,46.2983,151.801,101.859,101.646,0.00354896,0.0664156,20.9118,140.009,0.019286,0.0,0.0
650,162.25,44.2397,46.5961,150.14,101.824,100.783,0.00351319,0.0663084,20.9118,139.999,0.0946999,0.0,0.0
652,162.75,44.3558,46.6639,152.059,101.806,101.169,0.00346353,0.0662075,20.9118,139.979,0.0578497,0.0,0.0
654,163.25,43.3332,46.1883,151.716,101.781,100.738,0.00340469,0.0661258,20.9118,140.009,0.0949185,0.0,0.0
656,163.75,44.0652,46.3843,152.726,101.785,101.35,0.00335704,0.0659854,20.9118,139.979,0.0395043,0.0,0.0
658,164.25,43.9949,46.5551,149.759,101.758,101.576,0.00329438,0.0658718,20.9118,140.029,0.01646,0.0,0.0
660,164.75,44.0203,46.4961,152.807,101.731,100.38,0.00324362,0.0656758,20.9118,139.979,0.123261,0.0,0.0
662,165.25,43.77,46.3548,147.017,101.719,99.8119,0.00322198,0.0655923,20.9118,140.009,0.174478,0.0,0.0
664,165.75,43.8757,46.5038,154.88,101.708,100.38,0.00315081,0.0654495,20.9118,139.959,0.121108,0.0,0.0
666,166.25,43.9982,46.8246,151.203,101.693,100.894,0.00309316,0.0653338,20.912,139.999,0.0726436,0.0,0.0
668,166.75,44.1123,46.7339,152.555,101.649,99.8175,0.00304647,0.0651808,20.9124,139.959,0.167579,0.0,0.0
670,167.25,43.8417,46.6339,150.737,101.617,101.014,0.00298841,0.0650568,20.9127,140.009,0.0548181,0.0,0.0
672,167.75,44.3859,47.0067,158.646,101.609,100.849,0.00294139,0.0649564,20.9129,139.929,0.0692571,0.0,0.0
674,168.25,43.7846,46.6613,151.446,101.593,101.525,0.00291089,0.0648751,20.9133,139.999,0.0061246,0.0,0.0
676,168.75,43.9947,46.8738,149.482,101.562,99.4282,0.00288618,0.0648241,20.9138,139.929,0.195737,0.0,0.0
678,169.25,44.1876,46.5593,159.08,101.543,100.539,0.00288261,0.0647828,20.9142,140.019,0.0915368,0.0,0.0
680,169.75,44.3549,46.6962,152.662,101.499,101.014,0.00287971,0.0647035,20.9146,139.939,0.0441135,0.0,0.0
682,170.25,43.9871,46.5142,152.482,101.471,100.818,0.00288996,0.064598,20.9148,140.019,0.0595059,0.0,0.0
684,170.75,44.0285,47.1089,152.729,101.436,100.706,0.00290959,0.0644892,20.9151,139.929,0.0665358,0.0,0.0
686,171.25,44.0281,46.7914,154.419,101.409,100.957,0.00293215,0.06438,20.9153,139.999,0.0412295,0.0,0.0
688,171.75,43.9502,46.4459,153.032,101.382,100.78,0.00295642,0.0642916,20.9156,139.919,0.0549175,0.0,0.0
690,172.25,43.5486,46.9252,153.659,101.358,100.213,0.00297608,0.0641902,20.9158,139.989,0.10469,0.0,0.0
692,172.75,44.399,46.6004,152.648,101.319,100.932,0.00298534,0.0641082,20.916,139.909,0.0352814,0.0,0.0
694,173.25,44.1761,46.7299,150.736,101.292,99.8378,0.00298685,0.0640417,20.9162,139.989,0.133299,0.0,0.0
696,173.75,43.9793,46.6569,147.367,101.262,100.268,0.00298074,0.0639731,20.9163,139.899,0.0908514,0.0,0.0
698,174.25,43.7947,46.909,150.491,101.225,100.558,0.0029692,0.0639175,20.9164,139.959,0.0609435,0.0,0.0
700,174.75,43.8207,46.8026,148.847,101.181,99.963,0.00295985,0.0639021,20.9165,139.889,0.111667,0.0,0.0
702,175.25,44.4131,47.0145,153.575,101.168,100.931,0.00293456,0.0638896,20.9166,139.969,0.0216134,0.0,0.0
704,175.75,43.9407,46.6515,150.989,101.138,100.25,0.00291408,0.0638795,20.9167,139.889,0.0812963,0.0,0.0
706,176.25,43.9963,46.328,159.119,101.111,100.635,0.00288106,0.0638713,20.9167,139.969,0.0434606,0.0,0.0
708,176.75,44.1589,46.5488,155.551,101.069,100.252,0.0028543,0.0638054,20.9167,139.889,0.0748127,0.0,0.0
710,177.25,44.0535,46.6994,157.641,101.06,100.106,0.00281999,0.063752,20.917,139.949,0.0873627,0.0,0.0
712,177.75,44.174,46.7143,151.473,101.028,100.226,0.0027922,0.0636643,20.9174,139.879,0.0735233,0.0,0.0
714,178.25,43.9166,46.7298,153.945,101.006,100.331,0.00275832,0.0635933,20.9178,139.969,0.0617709,0.0,0.0
716,178.75,44.1376,46.3366,150.734,100.961,101.034,0.00273087,0.0635045,20.918,139.889,-0.00671746,0.0,0.0
718,179.25,43.87,46.4141,155.216,100.945,100.954,0.00270864,0.0634045,20.9183,139.959,-0.000832341,0.0,0.0