File: 01_Data/Corrugated_Cardboard/Cone/Corrugated_Cardboard_Cone_HF25Scan_250211_R1.csv
Names,Time,Stack TC,Smoke TC,Exh Press,Smoke Comp,Smoke Meas,CO Meter,CO2 Meter,O2 Meter,Sample Mass,Ext Coeff,Start Test,Flame Verif
Chan Gain,,500,500,1,1,1,1,1,1,1,1,1.0,1.0
Offset,,0,0,0.131183,0,0,0,0,0,0,0,0.0,0.0
Gain,,1,1,25.011,13.1923,20.2122,1,1,1,1.00092,1.05074,1.0,1.0
Units,sec,C,C,Pa,%,%,%,%,%,g,/m,,
Baseline,,33.1917,33.8955,163.301,99.5654,105.52,0.000716413,0.0442519,20.9433,-434.338,-0.535365,,
2,0.25,33.2539,33.7994,160.609,100.289,105.954,0.000642631,0.0474321,20.9398,135.725,-0.506443,0.0,0.0
4,0.75,32.9994,33.5006,164.547,100.273,106.007,0.000634152,0.047823,20.9396,135.695,-0.512499,0.0,0.0
6,1.25,32.9601,33.4902,157.092,100.305,105.882,0.000623993,0.0483755,20.9395,135.775,-0.498699,0.0,0.0
8,1.75,32.9861,33.2953,158.761,100.288,105.991,0.000612802,0.048823,20.9389,135.695,-0.509789,0.0,0.0
10,2.25,32.2838,33.7949,163.992,100.321,105.914,0.000601763,0.0495101,20.9384,135.755,-0.499994,0.0,0.0
12,2.75,32.4071,33.2633,163.679,100.297,106.044,0.000591044,0.0503154,20.9367,135.685,-0.513533,0.0,0.0
14,3.25,32.7091,33.5682,158.869,100.326,105.954,0.000586475,0.0507765,20.936,135.725,-0.50313,0.0,0.0
16,3.75,33.0897,33.2892,160.498,100.308,106.033,0.000576161,0.051565,20.9346,135.605,-0.511622,0.0,0.0
18,4.25,32.5505,33.798,161.837,100.342,105.975,0.000567806,0.0527062,20.9332,135.685,-0.503421,0.0,0.0
20,4.75,32.672,33.2113,161.485,100.338,106.044,0.000557289,0.0536306,20.9318,135.655,-0.509797,0.0,0.0
22,5.25,32.5195,33.5828,162.753,100.362,106.136,0.000548769,0.0545818,20.9305,135.715,-0.515562,0.0,0.0
24,5.75,32.4717,33.5167,166.583,100.321,105.995,0.000541869,0.0555345,20.9294,135.625,-0.507114,0.0,0.0
26,6.25,33.0339,33.6203,163.925,100.35,106.03,0.000531278,0.0563061,20.9286,135.675,-0.507508,0.0,0.0
28,6.75,32.2411,33.871,166.401,100.35,105.999,0.0005227,0.0569756,20.9279,135.615,-0.504736,0.0,0.0
30,7.25,32.7407,33.385,159.332,100.336,106.051,0.000517002,0.0575178,20.9271,135.695,-0.510551,0.0,0.0
32,7.75,32.4725,33.9637,160.162,100.328,106.034,0.000512387,0.0579737,20.9262,135.595,-0.509826,0.0,0.0
34,8.25,32.743,33.2533,164.21,100.346,105.938,0.000519109,0.0583578,20.9255,135.635,-0.499831,0.0,0.0
36,8.75,32.5009,33.5124,162.694,100.347,105.939,0.000533966,0.058669,20.925,135.575,-0.499844,0.0,0.0
38,9.25,32.8642,33.4765,158.987,100.352,106.016,0.000555877,0.0590247,20.9245,135.645,-0.506053,0.0,0.0
40,9.75,32.913,33.9196,158.174,100.327,106.02,0.000582514,0.0593128,20.9243,135.575,-0.508721,0.0,0.0
42,10.25,32.7369,33.867,168.123,100.349,106.164,0.000607382,0.059635,20.9241,135.605,-0.519173,0.0,0.0
44,10.75,32.9719,33.5172,165.404,100.343,105.941,0.000630489,0.059896,20.924,135.555,-0.500321,0.0,0.0
46,11.25,32.9275,33.689,161.772,100.36,106.122,0.000649864,0.0601518,20.9239,135.615,-0.514569,0.0,0.0
48,11.75,32.9679,33.638,165.36,100.351,106.012,0.000666152,0.060359,20.9238,135.575,-0.505805,0.0,0.0
50,12.25,32.4082,33.3603,158.479,100.369,106.013,0.000679345,0.0604801,20.9237,135.605,-0.504194,0.0,0.0
52,12.75,32.3671,33.5964,165.146,100.344,105.872,0.000688713,0.0605361,20.9237,135.565,-0.494198,0.0,0.0
54,13.25,32.8194,33.4607,166.31,100.357,106.038,0.000695116,0.0605814,20.9236,135.585,-0.507522,0.0,0.0
56,13.75,33.0743,33.6272,163.805,100.372,105.996,0.000697009,0.0605441,20.9236,135.525,-0.502524,0.0,0.0
58,14.25,32.7652,33.679,161.428,100.371,105.909,0.000695578,0.0605139,20.9236,135.615,-0.495016,0.0,0.0
60,14.75,33.1871,33.883,164.672,100.349,105.904,0.000687835,0.0604598,20.9235,135.545,-0.49662,0.0,0.0
62,15.25,32.9387,34.2209,162.304,100.375,105.967,0.000675637,0.060416,20.9235,135.595,-0.499708,0.0,0.0
64,15.75,32.6179,33.8943,164.649,100.35,105.795,0.000656542,0.0603954,20.9235,135.585,-0.487002,0.0,0.0
66,16.25,32.6281,33.6729,167.406,100.368,105.808,0.000632782,0.0603786,20.9235,135.565,-0.486484,0.0,0.0
68,16.75,33.1026,33.561,161.753,100.358,105.703,0.000608931,0.0603799,20.9235,135.575,-0.478252,0.0,0.0
70,17.25,33.3567,33.3704,163.006,100.373,105.804,0.000585467,0.0603809,20.9235,135.555,-0.48568,0.0,0.0
72,17.75,32.9908,33.9228,160.174,100.371,105.76,0.00056646,0.0603817,20.9237,135.555,-0.481996,0.0,0.0
74,18.25,32.6689,33.4381,157.804,100.359,105.699,0.000551065,0.0603379,20.9241,135.495,-0.477818,0.0,0.0
76,18.75,33.2471,34.1028,166.181,100.375,105.796,0.000557094,0.0603025,20.9244,135.545,-0.484834,0.0,0.0
78,19.25,33.4455,33.814,166.826,100.365,105.695,0.000578626,0.0602738,20.9243,135.535,-0.476941,0.0,0.0
80,19.75,32.635,33.8946,165.026,100.342,105.503,0.000596067,0.0603196,20.9242,135.545,-0.462251,0.0,0.0
82,20.25,33.1541,33.8302,166.932,100.356,105.558,0.000629959,0.0604189,20.9242,135.525,-0.465843,0.0,0.0
84,20.75,32.9061,33.7285,162.618,100.348,105.308,0.000675199,0.0606241,20.9239,135.535,-0.444743,0.0,0.0
86,21.25,32.7372,33.7637,160.342,100.342,105.362,0.000721734,0.0609026,20.9238,135.535,-0.449902,0.0,0.0
88,21.75,32.8732,34.2543,158.814,100.332,105.225,0.000768328,0.0611281,20.9232,135.505,-0.438878,0.0,0.0
90,22.25,32.6468,33.7495,162.906,100.343,105.32,0.000806728,0.0613256,20.9227,135.495,-0.446158,0.0,0.0
92,22.75,33.5454,34.0112,159.656,100.326,105.002,0.000838426,0.0614856,20.9223,135.465,-0.419907,0.0,0.0
94,23.25,33.1095,33.9089,164.185,100.316,104.988,0.000864101,0.061467,20.922,135.475,-0.419549,0.0,0.0
96,23.75,32.7502,33.8118,161.132,100.331,105.097,0.000869864,0.061452,20.9218,135.515,-0.427724,0.0,0.0
98,24.25,32.7796,33.9827,172.253,100.332,104.684,0.000874533,0.0611733,20.9216,135.485,-0.391425,0.0,0.0
100,24.75,33.1719,33.7003,163.616,100.313,104.512,0.000857027,0.0609476,20.9216,135.435,-0.377907,0.0,0.0
102,25.25,33.0303,34.0247,159.411,100.294,104.486,0.000842847,0.060528,20.9219,135.415,-0.377362,0.0,0.0
104,25.75,32.9724,33.8709,161.534,100.323,104.404,0.00081384,0.0601881,20.9224,135.425,-0.36755,0.0,0.0
106,26.25,32.794,33.793,165.142,100.314,104.23,0.000790345,0.0597649,20.9229,135.425,-0.352957,0.0,0.0
108,26.75,32.9505,34.2067,168.046,100.303,103.702,0.000773289,0.059289,20.9234,135.405,-0.30722,0.0,0.0
110,27.25,32.7314,33.7351,162.203,100.308,104.01,0.000761251,0.0589035,20.9238,135.325,-0.334055,0.0,0.0
112,27.75,32.7617,34.3682,166.813,100.324,103.838,0.000765337,0.0582956,20.9241,135.415,-0.317277,0.0,0.0
114,28.25,33.1869,33.9346,164.302,100.282,103.416,0.000781099,0.0578033,20.9247,135.325,-0.283635,0.0,0.0
116,28.75,33.2001,33.8488,160.282,100.269,104.465,0.000793866,0.0572567,20.9253,135.325,-0.37786,0.0,0.0
118,29.25,33.0993,34.2641,163.694,100.268,103.739,0.000839169,0.0568139,20.9257,135.315,-0.3136,0.0,0.0
120,29.75,32.9862,33.8923,162.987,100.274,103.333,0.000907331,0.0564242,20.9265,135.305,-0.276986,0.0,0.0
122,30.25,33.0194,34.2345,158.043,100.253,104.838,0.000988308,0.0560805,20.9272,135.255,-0.41219,0.0,1.0
124,30.75,32.8518,34.2603,154.739,100.27,103.381,0.00107709,0.0557788,20.9277,135.095,-0.281665,0.0,1.0
126,31.25,32.8177,34.8821,147.88,100.235,102.395,0.00117282,0.0555135,20.9282,135.145,-0.196436,0.0,1.0
128,31.75,33.4111,35.5961,149.894,100.25,101.756,0.00127179,0.055283,20.9289,135.025,-0.137457,0.0,1.0
130,32.25,33.5499,36.2666,143.605,100.234,100.179,0.00136983,0.0550823,20.9296,134.835,0.00508252,0.0,1.0
132,32.75,33.6939,37.6509,144.726,100.223,100.334,0.00146534,0.0549198,20.9301,134.845,-0.0102257,0.0,1.0
134,33.25,34.5361,38.6363,139.696,100.234,97.4328,0.0015427,0.0548029,20.9305,134.674,0.261266,0.0,1.0
136,33.75,35.3293,40.3415,141.15,100.217,98.0163,0.00162193,0.0547082,20.9306,134.634,0.204639,0.0,1.0
138,34.25,35.46,41.6579,139.219,100.217,98.5166,0.00170102,0.0547092,20.9305,134.544,0.157718,0.0,1.0
140,34.75,36.5253,43.2467,147.704,100.199,99.7552,0.00177835,0.05478,20.9304,134.474,0.0409319,0.0,1.0
142,35.25,36.408,43.6413,137.249,100.202,99.6127,0.00185292,0.0549385,20.9303,134.354,0.0543288,0.0,1.0
144,35.75,36.3265,44.9294,145.571,100.197,99.7465,0.00193457,0.0551579,20.9303,134.284,0.0415445,0.0,0.0
146,36.25,37.0088,45.6093,145.048,100.196,100.981,0.00201982,0.0555223,20.9298,134.234,-0.071956,0.0,0.0
148,36.75,37.254,46.9656,143.863,100.2,100.122,0.00212477,0.0559856,20.9294,134.114,0.00712045,0.0,0.0
150,37.25,38.0462,48.0769,147.009,100.17,100.663,0.00224209,0.0567426,20.929,134.064,-0.0452293,0.0,0.0
152,37.75,38.347,48.5865,139.906,100.172,100.572,0.00238175,0.0576992,20.9281,133.984,-0.0367015,0.0,0.0
154,38.25,38.5025,49.512,145.103,100.144,101.382,0.00253504,0.0595993,20.9267,133.894,-0.113239,0.0,0.0
156,38.75,38.7755,50.3361,146.413,100.144,102.233,0.00269524,0.0621509,20.9255,133.804,-0.190248,0.0,0.0
158,39.25,39.3659,50.7846,151.945,100.136,102.604,0.00285745,0.0642177,20.9242,133.784,-0.224425,0.0,0.0
160,39.75,39.7989,51.0518,146.819,100.145,103.199,0.00298883,0.0710005,20.9231,133.744,-0.27689,0.0,0.0
162,40.25,40.1031,51.3136,149.898,100.12,102.633,0.00309525,0.0810923,20.9222,133.674,-0.228493,0.0,0.0
164,40.75,40.3463,52.0722,153.418,100.102,102.897,0.00318145,0.0892667,20.9171,133.643,-0.25382,0.0,0.0
166,41.25,40.3251,52.3131,150.54,100.1,103.566,0.00324192,0.095888,20.9129,133.603,-0.313761,0.0,0.0
168,41.75,40.5082,52.1804,150.185,100.093,103.591,0.00328249,0.115565,20.9043,133.553,-0.31655,0.0,0.0
170,42.25,41.0941,52.1438,152.373,100.06,103.715,0.00328799,0.144386,20.8926,133.493,-0.330707,0.0,0.0
172,42.75,40.9747,52.6179,154.956,100.058,103.732,0.00326783,0.175554,20.8832,133.483,-0.332373,0.0,0.0
174,43.25,40.9749,52.5281,156.548,100.056,104.187,0.0032395,0.207839,20.8584,133.403,-0.37288,0.0,0.0
176,43.75,41.2088,52.5464,155.705,100.044,104.478,0.00320575,0.24374,20.8382,133.423,-0.399713,0.0,0.0
178,44.25,41.1262,52.1268,153.517,100.026,104.587,0.00317715,0.272819,20.8083,133.353,-0.411046,0.0,0.0
180,44.75,41.6242,52.1754,153.944,100.03,104.024,0.00315398,0.301479,20.7717,133.363,-0.360819,0.0,0.0
182,45.25,41.6372,52.3993,153.309,100.018,104.188,0.00313648,0.324694,20.7324,133.223,-0.376476,0.0,0.0
184,45.75,41.8335,51.5038,158.081,100.01,104.579,0.0031223,0.344352,20.6918,133.283,-0.411823,0.0,0.0
186,46.25,41.5521,52.1589,154.247,99.9673,104.573,0.00311015,0.361045,20.6589,133.223,-0.415121,0.0,0.0
188,46.75,41.5843,52.0165,154.579,99.9709,104.388,0.00309971,0.374566,20.6309,133.223,-0.398463,0.0,0.0
190,47.25,41.5916,51.4625,158.835,99.9524,104.574,0.00309126,0.383636,20.6082,133.123,-0.416659,0.0,0.0
192,47.75,41.1713,51.4377,154.032,99.9193,104.436,0.00308061,0.390983,20.5899,133.153,-0.407463,0.0,0.0
194,48.25,41.4401,51.7239,151.625,99.9294,104.195,0.00307198,0.394535,20.575,133.063,-0.385279,0.0,0.0
196,48.75,41.324,50.9573,154.374,99.9028,104.489,0.00305487,0.395253,20.563,133.073,-0.413666,0.0,0.0
198,49.25,41.5046,50.9734,163.821,99.8747,104.425,0.00304101,0.393099,20.5532,133.063,-0.410606,0.0,0.0
200,49.75,41.4472,50.873,150.169,99.8859,104.217,0.00302978,0.388892,20.5453,133.043,-0.391201,0.0,0.0
202,50.25,41.4235,51.1484,156.566,99.8722,104.309,0.00299538,0.385484,20.5417,132.983,-0.400588,0.0,0.0
204,50.75,40.9708,50.9295,152.361,99.8638,103.985,0.00296752,0.37642,20.5413,132.973,-0.372709,0.0,0.0
206,51.25,41.5507,50.6854,157.322,99.8328,104.149,0.0029184,0.369079,20.5453,132.923,-0.390102,0.0,0.0
208,51.75,41.7008,50.352,157.311,99.8135,103.913,0.00287861,0.360361,20.5526,132.923,-0.37101,0.0,0.0
210,52.25,41.3985,50.4824,152.146,99.8163,103.557,0.00282742,0.350806,20.5617,132.863,-0.339072,0.0,0.0
212,52.75,41.5443,50.3271,154.444,99.8259,104.275,0.00278596,0.34083,20.572,132.823,-0.401918,0.0,0.0
214,53.25,41.7755,50.1774,154.209,99.7905,103.847,0.00274706,0.330739,20.5803,132.813,-0.367274,0.0,0.0
216,53.75,41.7799,50.3751,156.15,99.7821,104.157,0.00271077,0.322565,20.5932,132.773,-0.395551,0.0,0.0
218,54.25,41.9631,50.0644,158.89,99.7784,104.09,0.00268137,0.311923,20.6037,132.763,-0.38988,0.0,0.0
220,54.75,42.0106,50.1948,158.223,99.7543,104.135,0.00265124,0.303304,20.6122,132.703,-0.396152,0.0,0.0
222,55.25,41.8565,50.3904,152.807,99.7301,103.936,0.00262683,0.294752,20.6243,132.663,-0.380733,0.0,0.0
224,55.75,41.9681,50.5347,154.767,99.7366,103.825,0.00260328,0.286412,20.6358,132.633,-0.370287,0.0,0.0
226,56.25,41.8296,50.542,152.487,99.7052,103.229,0.0025842,0.278675,20.6465,132.613,-0.32014,0.0,0.0
228,56.75,41.9934,50.0309,154.078,99.6774,103.507,0.00256409,0.271526,20.6552,132.562,-0.347459,0.0,0.0
230,57.25,41.8068,50.7309,156.536,99.6818,103.119,0.00254362,0.264973,20.6649,132.552,-0.31249,0.0,0.0
232,57.75,41.6621,50.5256,155.695,99.6669,103.253,0.00253169,0.25898,20.6727,132.472,-0.325824,0.0,0.0
234,58.25,42.9966,50.4249,154.197,99.6605,103.173,0.00252621,0.253563,20.6822,132.442,-0.319259,0.0,0.0
236,58.75,42.9634,50.8385,152.642,99.6391,103.511,0.00254305,0.248669,20.6898,132.412,-0.351381,0.0,0.0
238,59.25,42.7516,50.9413,152.113,99.6472,103.744,0.00257584,0.244705,20.6973,132.322,-0.371374,0.0,0.0
240,59.75,42.9081,50.7971,158.571,99.6049,103.766,0.0026317,0.240913,20.7034,132.312,-0.377202,0.0,0.0
242,60.25,42.8034,50.5515,156.295,99.6081,103.238,0.0027033,0.237841,20.7088,132.232,-0.329885,0.0,0.0
244,60.75,42.9416,51.2226,151.294,99.6029,103.578,0.0027613,0.235353,20.7136,132.202,-0.360662,0.0,0.0
246,61.25,42.821,51.011,157.68,99.5779,103.41,0.00280828,0.233338,20.7175,132.212,-0.348086,0.0,0.0
248,61.75,43.0183,50.8668,150.544,99.5747,103.151,0.00293251,0.231705,20.7206,132.132,-0.325209,0.0,0.0
250,62.25,43.1382,50.8945,151.999,99.5699,102.998,0.00303313,0.230835,20.7232,132.132,-0.312032,0.0,0.0
252,62.75,42.8694,50.7944,153.797,99.5618,103.76,0.0031286,0.23013,20.7252,132.102,-0.380642,0.0,0.0
254,63.25,43.1164,50.6032,157.378,99.5465,104.192,0.00320593,0.230028,20.7269,132.102,-0.420388,0.0,0.0
256,63.75,42.8607,50.8242,153.525,99.5167,103.513,0.00325206,0.229946,20.7282,131.972,-0.362929,0.0,0.0
258,64.25,43.0938,51.0336,153.53,99.5252,103.812,0.00328944,0.229879,20.7293,132.052,-0.388691,0.0,0.0
260,64.75,43.1331,50.5386,151.618,99.5457,103.335,0.00331971,0.230499,20.7298,131.982,-0.344358,0.0,0.0
262,65.25,43.0789,50.8886,153.223,99.5735,103.7,0.00333261,0.231082,20.73,131.982,-0.374244,0.0,0.0
264,65.75,43.0537,50.7887,152.112,99.5957,103.969,0.00328877,0.232081,20.7301,131.862,-0.396067,0.0,0.0
266,66.25,43.4499,50.6722,154.893,99.6524,104.235,0.00325326,0.23411,20.7301,131.902,-0.414354,0.0,0.0
268,66.75,43.0315,50.449,152.199,99.6516,103.671,0.00318778,0.235754,20.7296,131.832,-0.364495,0.0,0.0
270,67.25,42.7204,50.2925,151.955,99.6903,103.214,0.00313475,0.238165,20.7288,131.852,-0.320195,0.0,0.0
272,67.75,43.371,50.2767,154.774,99.704,104.1,0.00307282,0.240117,20.727,131.742,-0.397691,0.0,0.0
274,68.25,43.0396,50.4551,155.502,99.7442,103.837,0.00302265,0.242001,20.7245,131.792,-0.370675,0.0,0.0
276,68.75,43.066,50.6495,154.657,99.7402,103.599,0.00297869,0.243798,20.7225,131.702,-0.349833,0.0,0.0
278,69.25,43.5293,50.1429,158.754,99.7829,103.982,0.00294009,0.245254,20.7204,131.722,-0.379907,0.0,0.0
280,69.75,43.0956,50.2369,151.219,99.7994,103.843,0.00291348,0.24599,20.7187,131.632,-0.366072,0.0,0.0
282,70.25,43.4524,50.5119,155.56,99.84,104.549,0.00289612,0.246587,20.7173,131.642,-0.424738,0.0,0.0
284,70.75,43.2798,50.1141,151.158,99.8259,104.239,0.00288205,0.246301,20.7162,131.552,-0.3987,0.0,0.0
286,71.25,42.8119,50.3267,156.079,99.8638,104.526,0.00288331,0.24607,20.7153,131.562,-0.420588,0.0,0.0
288,71.75,43.4048,49.7415,152.216,99.8735,104.172,0.00288433,0.245221,20.7146,131.502,-0.388423,0.0,0.0
290,72.25,43.5282,49.5688,156.372,99.9089,104.603,0.00288649,0.24394,20.714,131.532,-0.423224,0.0,0.0
292,72.75,43.0076,49.6721,156.293,99.9077,104.586,0.00288944,0.24244,20.7148,131.431,-0.421759,0.0,0.0
294,73.25,43.2254,49.5795,154.964,99.9077,104.544,0.00288929,0.240809,20.7162,131.471,-0.418116,0.0,0.0
296,73.75,43.2578,49.492,153.932,99.9069,104.097,0.00288917,0.239121,20.7179,131.411,-0.378679,0.0,0.0
298,74.25,43.3021,49.2875,151.946,99.9499,104.581,0.00288575,0.237424,20.7201,131.431,-0.417424,0.0,0.0
300,74.75,43.4773,49.2153,156.878,99.9479,104.7,0.00287998,0.23605,20.7224,131.381,-0.428097,0.0,0.0
302,75.25,43.6717,49.2351,156.149,99.9741,104.598,0.00287531,0.234209,20.7243,131.411,-0.41672,0.0,0.0
304,75.75,43.1372,48.8665,161.828,99.9773,104.628,0.00286553,0.232717,20.7263,131.331,-0.419086,0.0,0.0
306,76.25,43.2628,48.9482,154.751,99.987,104.938,0.00285222,0.231306,20.7283,131.371,-0.445487,0.0,0.0
308,76.75,43.279,48.439,158.355,99.9673,104.389,0.00283512,0.229979,20.7302,131.311,-0.398961,0.0,0.0
310,77.25,43.0689,48.3725,157.832,99.9733,104.52,0.00282127,0.228777,20.7319,131.331,-0.409889,0.0,0.0
312,77.75,42.8886,48.6196,156.947,99.9809,104.952,0.00281137,0.228204,20.7326,131.281,-0.447235,0.0,0.0
314,78.25,42.8584,48.2062,152.786,99.9862,104.753,0.00278723,0.22657,20.7339,131.291,-0.429293,0.0,0.0
316,78.75,42.5104,48.2225,157.772,99.9926,104.875,0.00278472,0.22598,20.7349,131.241,-0.43944,0.0,0.0
318,79.25,42.5502,47.7678,156.379,100.019,104.882,0.00278045,0.224972,20.7362,131.241,-0.437587,0.0,0.0
320,79.75,43.0999,47.3608,158.816,99.9922,104.916,0.00277698,0.223385,20.7377,131.211,-0.443053,0.0,0.0
322,80.25,42.7198,46.9852,159.88,100.001,105.033,0.00280706,0.222099,20.7391,131.201,-0.45249,0.0,0.0
324,80.75,42.2438,46.9635,161.713,99.9632,104.859,0.00283142,0.220095,20.7404,131.201,-0.440739,0.0,0.0
326,81.25,42.159,46.6853,161.579,99.9616,105.11,0.00290307,0.218472,20.7418,131.191,-0.462928,0.0,0.0
328,81.75,42.7622,46.1096,162.956,99.9544,105.061,0.00296111,0.217158,20.7431,131.181,-0.459268,0.0,0.0
330,82.25,42.3101,46.2279,160.907,99.9588,105.152,0.00300812,0.214656,20.7441,131.141,-0.466811,0.0,0.0
332,82.75,41.8622,46.0196,163.208,99.9403,105.294,0.00310966,0.21263,20.7449,131.151,-0.480946,0.0,0.0
334,83.25,42.1401,45.6795,167.806,99.9391,104.969,0.00324901,0.210261,20.7474,131.131,-0.452558,0.0,0.0
336,83.75,42.0642,45.1038,159.849,99.9218,105.176,0.00341346,0.207687,20.7494,131.101,-0.472389,0.0,0.0
338,84.25,41.9054,44.8219,156.431,99.9113,105.073,0.00359308,0.204936,20.7518,131.111,-0.464269,0.0,0.0
340,84.75,42.0817,44.5471,159.951,99.8763,105.344,0.00366966,0.203447,20.7529,131.081,-0.491224,0.0,0.0
342,85.25,41.4918,44.6911,156.335,99.8602,104.943,0.00392952,0.200902,20.7554,131.051,-0.457564,0.0,0.0
344,85.75,41.029,44.7647,156.034,99.8259,105.236,0.00414001,0.197421,20.7581,131.061,-0.48642,0.0,0.0
346,86.25,41.2009,44.0965,158.691,99.7881,105.102,0.0044437,0.194602,20.7614,131.051,-0.478184,0.0,0.0
348,86.75,41.7088,43.3545,156.633,99.7772,104.992,0.00468969,0.191493,20.7651,131.011,-0.469555,0.0,0.0
350,87.25,41.4181,43.4777,160.278,99.7354,104.91,0.0050316,0.188231,20.7681,131.021,-0.466218,0.0,0.0
352,87.75,41.0146,43.2682,163.763,99.7076,105.11,0.00530855,0.185589,20.7717,131.021,-0.486327,0.0,0.0
354,88.25,41.1377,43.1754,159.869,99.6685,104.913,0.00553287,0.182071,20.7757,130.981,-0.472668,0.0,0.0
356,88.75,41.0453,42.9698,159.442,99.6569,104.832,0.00589912,0.17798,20.7795,130.971,-0.466646,0.0,0.0
358,89.25,40.782,42.9894,160.51,99.6033,105.011,0.00619578,0.17372,20.7832,130.981,-0.487259,0.0,0.0
360,89.75,40.5084,42.6573,162.089,99.5707,104.872,0.00643608,0.169419,20.7861,130.971,-0.478088,0.0,0.0
362,90.25,40.7516,42.2192,158.211,99.526,104.73,0.00676806,0.165935,20.7903,130.931,-0.469802,0.0,0.0
364,90.75,40.7738,41.9453,163.12,99.4684,104.851,0.007078,0.16131,20.7937,130.931,-0.485769,0.0,0.0
366,91.25,40.9872,41.7641,159.971,99.4624,104.481,0.00736598,0.157563,20.7986,130.901,-0.453684,0.0,0.0
368,91.75,40.4155,42.1827,160.105,99.4113,104.549,0.00759924,0.15324,20.8026,130.921,-0.464406,0.0,0.0
370,92.25,40.3187,42.0467,159.161,99.3336,104.496,0.00769868,0.151397,20.8043,130.881,-0.46699,0.0,0.0
372,92.75,40.0953,41.3687,153.831,99.3018,104.616,0.00792198,0.148245,20.8094,130.891,-0.480491,0.0,0.0
374,93.25,40.2891,41.3477,160.388,99.243,104.529,0.00810285,0.144272,20.8136,130.871,-0.478336,0.0,0.0
376,93.75,40.2178,41.089,161.264,99.189,104.462,0.00827801,0.141055,20.818,130.881,-0.477364,0.0,0.0
378,94.25,39.694,41.2612,160.54,99.1468,104.102,0.00841989,0.137717,20.8224,130.831,-0.449509,0.0,0.0
380,94.75,39.9754,40.989,163.866,99.125,104.263,0.0085648,0.135013,20.8262,130.871,-0.465772,0.0,0.0
382,95.25,39.9419,40.8133,159.906,99.1327,104.283,0.00868218,0.132305,20.8296,130.791,-0.46686,0.0,0.0
384,95.75,39.8563,40.2346,162.817,99.1516,104.258,0.0088177,0.130112,20.8329,130.841,-0.462866,0.0,0.0
386,96.25,39.7634,40.5321,161.283,99.1395,104.201,0.00892747,0.128104,20.8363,130.791,-0.458916,0.0,0.0
388,96.75,39.5851,40.3661,161.973,99.1915,104.396,0.00904871,0.126268,20.839,130.841,-0.471368,0.0,0.0
390,97.25,39.193,40.3374,161.81,99.1657,104.381,0.00917599,0.124566,20.8421,130.751,-0.472401,0.0,0.0
392,97.75,40.0096,40.1035,159.709,99.1975,104.563,0.00929837,0.122992,20.8446,130.801,-0.485554,0.0,0.0
394,98.25,39.2294,39.841,158.591,99.2027,104.461,0.00941484,0.121718,20.8466,130.741,-0.476038,0.0,0.0
396,98.75,38.2601,38.7794,158.835,99.2152,104.354,0.00952159,0.120413,20.8483,130.771,-0.465457,0.0,0.0
398,99.25,37.4484,38.3361,161.309,99.2297,104.586,0.00961921,0.119356,20.85,130.681,-0.484518,0.0,0.0
400,99.75,37.7309,38.0217,162.521,99.2575,104.631,0.00971,0.118257,20.8515,130.721,-0.485906,0.0,0.0
402,100.25,37.9296,37.972,156.744,99.2776,104.688,0.00979409,0.117367,20.8531,130.671,-0.489089,0.0,0.0
404,100.75,38.0449,37.5783,159.725,99.303,104.646,0.00987048,0.116388,20.8544,130.701,-0.483041,0.0,0.0
406,101.25,37.8383,38.0655,156.876,99.2957,104.527,0.0099398,0.115428,20.8554,130.631,-0.473223,0.0,0.0
408,101.75,37.8566,38.5335,160.651,99.3303,104.814,0.00999802,0.1145,20.8563,130.741,-0.49532,0.0,0.0
410,102.25,37.997,37.6698,162.396,99.3372,104.826,0.0100238,0.114104,20.8569,130.631,-0.495715,0.0,0.0
412,102.75,37.4094,37.5261,159.514,99.3694,104.834,0.0100679,0.113245,20.8579,130.771,-0.493378,0.0,0.0
414,103.25,37.6073,37.5936,159.328,99.3807,104.948,0.0101037,0.112383,20.8587,130.641,-0.50236,0.0,0.0
416,103.75,37.5162,37.592,157.543,99.4028,104.89,0.0101498,0.111686,20.8594,130.691,-0.495268,0.0,0.0
418,104.25,37.0017,36.8986,162.964,99.4141,104.838,0.0101871,0.110841,20.8599,130.621,-0.489614,0.0,0.0
420,104.75,36.8799,37.1754,165.633,99.4346,104.877,0.0102215,0.109906,20.8604,130.701,-0.491181,0.0,0.0
422,105.25,37.1614,37.2402,161.491,99.4282,104.772,0.0102531,0.10895,20.8605,130.601,-0.482503,0.0,0.0
424,105.75,37.0552,37.1644,158.923,99.4705,104.883,0.01028,0.107996,20.8614,130.681,-0.488401,0.0,0.0
426,106.25,36.9933,37.4464,157.548,99.4721,104.848,0.0103017,0.107018,20.8627,130.611,-0.485162,0.0,0.0
428,106.75,36.7542,36.7663,162.605,99.5047,104.98,0.0103207,0.10604,20.8638,130.681,-0.493738,0.0,0.0
430,107.25,36.6492,36.9661,159.458,99.5095,104.908,0.010336,0.105049,20.8646,130.601,-0.486898,0.0,0.0
432,107.75,36.983,36.4402,159.617,99.5385,105.147,0.0103406,0.104068,20.8658,130.661,-0.505271,0.0,0.0
434,108.25,36.7942,36.829,155.408,99.5341,105.02,0.0103443,0.102988,20.8672,130.591,-0.494482,0.0,0.0
436,108.75,36.6391,36.8908,159.842,99.5566,105.022,0.0103263,0.102113,20.8685,130.651,-0.49261,0.0,0.0
438,109.25,36.6486,36.4863,164.039,99.5486,105.019,0.0103118,0.101356,20.8698,130.591,-0.493031,0.0,0.0
440,109.75,36.8342,36.7296,162.795,99.6029,105.054,0.0102641,0.100701,20.8708,130.651,-0.491139,0.0,0.0
442,110.25,36.664,36.7201,157.143,99.6097,104.978,0.0101933,0.10017,20.8717,130.581,-0.483793,0.0,0.0
444,110.75,36.8501,36.1737,162.89,99.6363,105.114,0.0101359,0.0997402,20.8723,130.641,-0.493241,0.0,0.0
446,111.25,36.6269,36.5177,158.025,99.6532,105.072,0.0100894,0.0994671,20.8729,130.581,-0.487999,0.0,0.0
448,111.75,36.2486,36.1106,160.681,99.6935,105.187,0.00994332,0.0992459,20.8736,130.611,-0.494389,0.0,0.0
450,112.25,36.2471,36.144,159.155,99.6842,105.173,0.00982497,0.0991269,20.8745,130.571,-0.494002,0.0,0.0
452,112.75,36.1011,35.8264,162.502,99.7064,105.311,0.00964829,0.0990305,20.8752,130.611,-0.504056,0.0,0.0
454,113.25,35.9737,36.3257,158.826,99.7273,105.273,0.00950517,0.0989073,20.8758,130.571,-0.498827,0.0,0.0
456,113.75,36.332,36.1136,159.216,99.7378,105.213,0.00931508,0.0988075,20.8763,130.581,-0.492565,0.0,0.0
458,114.25,35.6406,36.1444,164.211,99.7495,105.294,0.00916111,0.0987267,20.8766,130.571,-0.498562,0.0,0.0
460,114.75,36.1822,35.9774,163.817,99.7531,105.339,0.00901109,0.0984055,20.8769,130.561,-0.502222,0.0,0.0
462,115.25,36.0891,36.2362,160.233,99.7652,105.307,0.00886681,0.0981454,20.8772,130.561,-0.498245,0.0,0.0
464,115.75,35.9968,35.8527,159.699,99.7656,105.398,0.00874721,0.0976942,20.8774,130.551,-0.506195,0.0,0.0
466,116.25,36.0577,36.0774,159.523,99.7688,105.378,0.00869492,0.0975018,20.8777,130.531,-0.504171,0.0,0.0
468,116.75,35.9102,35.6401,156.91,99.7857,105.386,0.00860552,0.0970069,20.8782,130.521,-0.503311,0.0,0.0
470,117.25,36.0414,35.3539,164.327,99.776,105.307,0.0085249,0.0964565,20.8787,130.511,-0.497241,0.0,0.0
472,117.75,35.8197,35.7985,158.606,99.772,105.19,0.00842125,0.0956706,20.8798,130.541,-0.487403,0.0,0.0
474,118.25,36.0493,35.5698,160.327,99.7635,105.277,0.00839336,0.0953645,20.8801,130.521,-0.495802,0.0,0.0
476,118.75,35.7191,35.8997,160.541,99.7712,105.189,0.00831454,0.094841,20.8809,130.511,-0.487424,0.0,0.0
478,119.25,36.3279,35.7316,161.35,99.7579,105.22,0.0082507,0.094177,20.8817,130.511,-0.491354,0.0,0.0
480,119.75,35.9347,35.1515,161.442,99.7507,105.351,0.00815493,0.0936391,20.8823,130.501,-0.503471,0.0,0.0
482,120.25,35.5198,35.6898,159.664,99.7325,105.342,0.00807735,0.0930685,20.8829,130.501,-0.504336,0.0,0.0
484,120.75,35.5478,35.5949,159.105,99.7374,105.157,0.0079705,0.0926063,20.8835,130.501,-0.487683,0.0,0.0
486,121.25,35.858,35.3799,156.933,99.7523,105.086,0.00788395,0.092112,20.8843,130.511,-0.480142,0.0,0.0
488,121.75,35.6643,35.3198,159.164,99.7201,105.199,0.00778021,0.0917116,20.8851,130.521,-0.493014,0.0,0.0
490,122.25,35.9313,35.262,161.874,99.6999,105.168,0.00769619,0.0912524,20.886,130.511,-0.492172,0.0,0.0
492,122.75,35.4568,35.6601,163.455,99.6883,105.24,0.00760616,0.0908805,20.8867,130.471,-0.49952,0.0,0.0
494,123.25,35.0724,35.628,162.386,99.6713,105.073,0.00753324,0.090524,20.8873,130.481,-0.486486,0.0,0.0
496,123.75,35.3155,35.399,164.157,99.6552,104.994,0.00746533,0.0901856,20.8878,130.491,-0.481046,0.0,0.0
498,124.25,35.6077,35.1204,164.128,99.615,104.984,0.00740237,0.0899115,20.8882,130.481,-0.483851,0.0,0.0
500,124.75,35.7786,35.2048,164.341,99.6206,105.015,0.00735137,0.0895546,20.8885,130.441,-0.486036,0.0,0.0
502,125.25,35.3271,35.2891,160.284,99.5796,105.225,0.00729919,0.0892656,20.8887,130.451,-0.508225,0.0,0.0
504,125.75,35.2117,35.5016,160.481,99.5566,105.047,0.00724714,0.0889842,20.8889,130.481,-0.494776,0.0,0.0
506,126.25,35.4149,34.967,163.78,99.5373,105.027,0.00718664,0.0887137,20.8891,130.461,-0.494833,0.0,0.0
508,126.75,35.0116,35.3623,161.748,99.5159,104.728,0.00712114,0.0884395,20.8897,130.38,-0.470517,0.0,0.0
510,127.25,35.3503,35.5112,166.074,99.4829,105.061,0.00704501,0.0881677,20.8901,130.431,-0.502789,0.0,0.0
512,127.75,35.2326,35.3601,160.088,99.4644,104.869,0.00696259,0.087916,20.8905,130.4,-0.487715,0.0,0.0
514,128.25,35.6831,35.4964,163.638,99.4539,104.909,0.00687008,0.0876839,20.8908,130.37,-0.492154,0.0,0.0
516,128.75,35.4901,35.232,163.836,99.3891,104.876,0.00677197,0.0874564,20.8911,130.31,-0.49529,0.0,0.0
518,129.25,35.3053,35.4253,158.413,99.3682,104.981,0.00667288,0.0872367,20.8913,130.37,-0.506443,0.0,0.0
520,129.75,35.3205,34.7237,165.901,99.3267,104.825,0.00657494,0.0870588,20.8914,130.39,-0.496579,0.0,0.0
522,130.25,34.8532,34.8214,160.776,99.3046,104.703,0.00649561,0.08678,20.8916,130.421,-0.487942,0.0,0.0
524,130.75,35.3471,35.3046,163.536,99.2446,104.604,0.00640972,0.0865542,20.8917,130.35,-0.484766,0.0,0.0
526,131.25,34.9296,34.5742,160.577,99.2345,104.697,0.00632067,0.0863004,20.8918,130.38,-0.493904,0.0,0.0
528,131.75,34.8538,35.0346,163.134,99.1806,104.677,0.00624111,0.0860311,20.8918,130.28,-0.497178,0.0,0.0
530,132.25,34.7704,34.9982,159.835,99.1472,104.732,0.00616997,0.0857579,20.8923,130.38,-0.505062,0.0,0.0
532,132.75,35.025,35.145,153.917,99.1053,104.432,0.00610627,0.085487,20.8927,130.31,-0.482535,0.0,0.0
534,133.25,34.7658,34.9526,159.384,99.1017,104.73,0.0060492,0.0852676,20.893,130.33,-0.50913,0.0,0.0
536,133.75,34.7572,35.1491,161.856,99.0634,104.515,0.00600298,0.0850899,20.8933,130.24,-0.493776,0.0,0.0
538,134.25,34.9865,35.0305,163.015,99.0228,104.417,0.00595608,0.0849459,20.8935,130.33,-0.488854,0.0,0.0
540,134.75,34.6231,35.018,158.394,98.9805,104.377,0.00590959,0.0848293,20.8937,130.26,-0.489303,0.0,0.0
542,135.25,34.8374,34.7888,164.288,98.9636,104.563,0.00588976,0.0847638,20.8938,130.32,-0.507313,0.0,0.0
544,135.75,34.8384,35.2696,161.054,98.902,104.208,0.00584845,0.0846519,20.8939,130.25,-0.48168,0.0,0.0
546,136.25,34.6522,34.8861,158.375,98.8798,104.362,0.00580829,0.0845613,20.894,130.34,-0.497319,0.0,0.0
548,136.75,34.657,35.023,164.113,98.8227,104.324,0.00576835,0.0845626,20.8941,130.24,-0.499325,0.0,0.0
550,137.25,34.7254,35.0307,169.005,98.8247,104.236,0.00571267,0.0845637,20.8942,130.32,-0.491396,0.0,0.0
552,137.75,34.3789,34.8134,161.222,98.7989,104.304,0.0056977,0.0845646,20.8942,130.25,-0.499797,0.0,0.0
554,138.25,34.8611,34.5801,165.225,98.7603,104.216,0.00567546,0.0845653,20.8943,130.32,-0.495606,0.0,0.0
556,138.75,34.8749,34.5408,159.79,98.7039,104.159,0.00566048,0.0845658,20.8943,130.25,-0.495793,0.0,0.0
558,139.25,34.5297,34.6892,167.006,98.7059,103.897,0.00565105,0.0845364,20.8943,130.33,-0.472378,0.0,0.0
560,139.75,35.0468,34.6109,161.535,98.6592,104,0.00564584,0.0845125,20.8943,130.27,-0.485928,0.0,0.0
562,140.25,34.4113,34.9915,161.486,98.6359,104.014,0.00563487,0.0844484,20.8944,130.33,-0.489312,0.0,0.0
564,140.75,34.3759,34.6251,163.85,98.596,104.017,0.00561992,0.0843728,20.8948,130.27,-0.493311,0.0,0.0
566,141.25,34.2564,34.9339,157.989,98.5944,104.107,0.00559364,0.0842903,20.8952,130.31,-0.501492,0.0,0.0
568,141.75,34.772,34.8404,159.826,98.5638,104.022,0.00555961,0.0842,20.8955,130.29,-0.496759,0.0,0.0
570,142.25,34.4115,35.0145,163.461,98.5521,103.771,0.00551925,0.0841055,20.8957,130.32,-0.475635,0.0,0.0
572,142.75,34.2063,34.9006,162.595,98.5239,103.977,0.00549597,0.0840652,20.8958,130.26,-0.496551,0.0,0.0
574,143.25,34.2663,34.9469,161.914,98.5215,104.008,0.00545617,0.083817,20.896,130.29,-0.499511,0.0,0.0
576,143.75,34.81,34.6308,165.768,98.4905,103.993,0.00542009,0.083616,20.8961,130.26,-0.5011,0.0,0.0
578,144.25,34.3643,34.8641,157.865,98.4696,104.097,0.00539087,0.083351,20.8963,130.28,-0.512239,0.0,0.0
580,144.75,34.4742,35.2093,164.111,98.4781,104.021,0.0053672,0.0830443,20.8964,130.28,-0.504672,0.0,0.0
582,145.25,34.6203,34.6947,160.138,98.4559,103.959,0.00536082,0.0827959,20.8969,130.27,-0.501278,0.0,0.0
584,145.75,34.2511,35.1366,162.621,98.4434,103.916,0.00535566,0.0825004,20.8973,130.25,-0.498672,0.0,0.0
586,146.25,34.4267,34.6333,160.545,98.4535,104.032,0.0053535,0.0821762,20.8976,130.29,-0.507955,0.0,0.0
588,146.75,33.9897,34.725,160.87,98.4229,103.956,0.00535358,0.0818508,20.8979,130.26,-0.50415,0.0,0.0
590,147.25,34.5162,34.6104,168.609,98.4394,103.977,0.00534622,0.0815306,20.8981,130.26,-0.504464,0.0,0.0
592,147.75,33.7301,35.1628,162.234,98.4418,103.967,0.00533359,0.0812555,20.8987,130.27,-0.503363,0.0,0.0
594,148.25,33.9524,34.782,164.03,98.4547,103.957,0.00531326,0.0810186,20.8992,130.27,-0.501227,0.0,0.0
596,148.75,34.1993,34.4333,157.852,98.4627,104.022,0.0052877,0.0808267,20.8996,130.27,-0.506268,0.0,0.0
598,149.25,34.3259,34.9928,163.569,98.4636,103.985,0.00526767,0.0805966,20.9,130.26,-0.502913,0.0,0.0
600,149.75,34.3514,34.6096,164.057,98.4789,104.027,0.00525205,0.0804103,20.9002,130.27,-0.505198,0.0,0.0
602,150.25,34.4137,34.6598,158.41,98.4881,103.996,0.0052394,0.0802146,20.9005,130.26,-0.501544,0.0,0.0
604,150.75,34.3936,34.4695,158.961,98.4809,104.117,0.00525091,0.080056,20.9006,130.23,-0.512931,0.0,0.0
606,151.25,34.5108,34.5716,161.619,98.5247,104.011,0.00526023,0.079857,20.9008,130.25,-0.499483,0.0,0.0
608,151.75,34.1784,34.3167,159.562,98.5509,104.201,0.00528058,0.0796322,20.9009,130.23,-0.513854,0.0,0.0
610,152.25,34.0238,34.6558,161.06,98.5678,104.101,0.0053086,0.0793794,20.9014,130.24,-0.503376,0.0,0.0
612,152.75,34.3891,34.5562,161.776,98.59,104.065,0.00534096,0.0789968,20.902,130.22,-0.498138,0.0,0.0
614,153.25,34.1978,34.7569,160.952,98.6286,103.824,0.00534967,0.0788938,20.9022,130.23,-0.473194,0.0,0.0
616,153.75,34.5979,34.7103,163.544,98.6359,104.167,0.00535169,0.0785364,20.9026,130.21,-0.502913,0.0,0.0
618,154.25,34.0901,34.4654,160.478,98.6858,104.219,0.00534922,0.0784403,20.9027,130.21,-0.502832,0.0,0.0
620,154.75,34.0905,34.6633,159.636,98.7289,104.192,0.00532949,0.0782461,20.9029,130.2,-0.496409,0.0,0.0
622,155.25,34.2276,34.0923,160.211,98.722,104.349,0.00529956,0.0780888,20.9031,130.21,-0.510897,0.0,0.0
624,155.75,34.3019,34.6725,157.524,98.7872,104.205,0.00527532,0.0779017,20.9032,130.21,-0.492107,0.0,0.0
626,156.25,34.0513,34.2732,161.444,98.8364,104.116,0.00522116,0.0777502,20.9033,130.2,-0.479611,0.0,0.0
628,156.75,34.4208,34.474,161.13,98.8629,104.396,0.00517729,0.0776275,20.9034,130.21,-0.501945,0.0,0.0
630,157.25,33.8681,34.6749,154.115,98.9108,104.316,0.00514176,0.0774743,20.9034,130.19,-0.490397,0.0,0.0
632,157.75,33.8983,34.5426,153.771,98.9773,104.406,0.00509677,0.0773017,20.9035,130.2,-0.492163,0.0,0.0
634,158.25,34.3611,34.7986,162.533,98.9841,104.513,0.00504575,0.0771619,20.9037,130.19,-0.500941,0.0,0.0
636,158.75,33.9692,34.6028,159.811,99.0276,104.501,0.00500442,0.0769741,20.9039,130.19,-0.49586,0.0,0.0
638,159.25,33.8849,34.8861,158.231,99.0417,104.71,0.00495482,0.0768221,20.9041,130.18,-0.512919,0.0,0.0
640,159.75,33.6841,34.3649,162.911,99.1109,104.664,0.00490013,0.0766911,20.9042,130.19,-0.502512,0.0,0.0
642,160.25,33.8125,34.6786,161.235,99.1741,104.73,0.00484307,0.0765779,20.9043,130.18,-0.502446,0.0,0.0
644,160.75,33.9022,34.6346,160.874,99.2104,104.74,0.00479685,0.0764549,20.9044,130.18,-0.499948,0.0,0.0
646,161.25,34.0488,34.1703,157.138,99.2563,104.802,0.00475941,0.076327,20.9044,130.15,-0.501112,0.0,0.0
648,161.75,33.8716,34.5114,156.745,99.332,104.941,0.00472909,0.076192,20.9045,130.18,-0.506337,0.0,0.0
650,162.25,33.9709,34.6698,160.13,99.3746,104.883,0.00470855,0.0760545,20.9045,130.15,-0.497284,0.0,0.0
652,162.75,33.7484,34.9518,164.63,99.4157,105.025,0.00469555,0.0759274,20.9046,130.17,-0.505882,0.0,0.0
654,163.25,33.9376,34.4451,159.297,99.4584,105.141,0.00469778,0.0758104,20.9046,130.13,-0.512151,0.0,0.0
656,163.75,33.9205,34.5405,162.182,99.5111,104.964,0.00469958,0.0757077,20.9046,130.16,-0.49168,0.0,0.0
658,164.25,34.0473,34.4743,160.954,99.5566,105.139,0.00471126,0.0756176,20.9046,130.12,-0.50289,0.0,0.0
660,164.75,33.6764,34.1141,165.703,99.5924,105.143,0.00472071,0.0755445,20.9046,130.14,-0.499844,0.0,0.0
662,165.25,34.0773,34.2627,165.655,99.6484,105.374,0.00472837,0.075396,20.9047,130.09,-0.514921,0.0,0.0
664,165.75,34.1215,34.3357,161.352,99.6971,105.189,0.00473075,0.0752757,20.9047,130.14,-0.49427,0.0,0.0
666,166.25,34.1038,34.4016,156.947,99.7354,105.347,0.00473267,0.0751625,20.9047,130.09,-0.504507,0.0,0.0
668,166.75,33.9783,34.5071,163.006,99.7837,105.267,0.00472019,0.0750568,20.9047,130.12,-0.493025,0.0,0.0
670,167.25,33.974,34.401,162.962,99.832,105.358,0.00469744,0.0749712,20.9047,130.07,-0.496554,0.0,0.0
672,167.75,33.9105,34.4773,159.881,99.8968,105.498,0.00467901,0.0748105,20.9047,130.12,-0.502812,0.0,0.0
674,168.25,34.4032,34.2346,157.936,99.9181,105.466,0.0046271,0.0746803,20.9048,130.06,-0.498094,0.0,0.0
676,168.75,34.1548,34.3614,158.481,99.9725,105.484,0.00458505,0.0745278,20.9051,130.12,-0.494591,0.0,0.0
678,169.25,33.7842,34.6245,163.214,99.9846,105.589,0.00454094,0.074362,20.9053,130.05,-0.50269,0.0,0.0
680,169.75,33.8618,34.7522,160.494,100.027,105.513,0.00449615,0.0741886,20.9055,130.12,-0.492115,0.0,0.0
682,170.25,34.2748,34.2019,161.925,100.061,105.584,0.00445652,0.0740129,20.9056,130.04,-0.49521,0.0,0.0
684,170.75,33.68,34.8712,165.973,100.138,105.683,0.00440643,0.0737629,20.9057,130.12,-0.496741,0.0,0.0
686,171.25,34.4132,34.7307,158.507,100.115,105.73,0.00439899,0.073666,20.9058,130.05,-0.502996,0.0,0.0
688,171.75,33.943,34.4946,162.808,100.177,105.819,0.00438627,0.0735003,20.9059,130.1,-0.505012,0.0,0.0
690,172.25,34.0334,34.5773,160.974,100.209,105.849,0.00437596,0.0732768,20.9059,130.02,-0.504682,0.0,0.0
692,172.75,33.902,35.0292,159.526,100.235,105.973,0.00437298,0.0730958,20.906,130.09,-0.513118,0.0,0.0
694,173.25,33.6427,34.5424,163.501,100.284,105.825,0.00437539,0.0728631,20.906,130.01,-0.495664,0.0,0.0
696,173.75,33.801,34.6231,158.081,100.316,105.925,0.0043693,0.0725971,20.906,130.09,-0.501458,0.0,0.0
698,174.25,33.8825,34.6285,161.164,100.32,105.876,0.00435712,0.0723581,20.9065,130.02,-0.49683,0.0,0.0
700,174.75,33.2955,35.1584,162.259,100.361,105.911,0.00433184,0.0721435,20.9069,130.06,-0.496118,0.0,0.0
702,175.25,34.2825,34.3615,164.163,100.358,106.051,0.00429749,0.0719696,20.9072,130,-0.508537,0.0,0.0
704,175.75,33.5486,34.5788,158.888,100.376,105.997,0.00425293,0.0717395,20.9074,130.07,-0.502172,0.0,0.0
706,176.25,33.9173,34.724,163.919,100.404,106.007,0.00420176,0.0715532,20.9076,130,-0.50057,0.0,0.0
708,176.75,34.0096,34.8407,163.028,100.427,105.976,0.00416031,0.0713725,20.9078,130.07,-0.495654,0.0,0.0
710,177.25,33.5603,34.5421,161.99,100.427,105.986,0.00409241,0.0712262,20.9079,130,-0.496603,0.0,0.0
712,177.75,33.9905,35.1511,157.039,100.458,106.054,0.00403741,0.0711243,20.908,130.06,-0.499566,0.0,0.0
714,178.25,34.0671,34.7113,157.632,100.444,106.007,0.0039801,0.0710569,20.9081,129.99,-0.496875,0.0,0.0
716,178.75,33.812,34.3758,162.45,100.444,106.128,0.00392218,0.0710022,20.9083,130.06,-0.50738,0.0,0.0
718,179.25,33.621,34.3931,166.141,100.453,106.192,0.00387526,0.070958,20.9085,130.01,-0.512048,0.0,0.0
720,179.75,33.8931,34.2973,160.362,100.461,106.028,0.00383124,0.0709221,20.9087,130.05,-0.497056,0.0,0.0
722,180.25,33.7565,34.3188,162.785,100.458,106.026,0.00379018,0.0708931,20.9088,130.01,-0.497208,0.0,0.0
724,180.75,33.316,34.1413,157.725,100.457,106.068,0.00375691,0.0708696,20.9089,130.04,-0.500964,0.0,0.0
726,181.25,33.7908,34.2877,153.777,100.449,105.961,0.00373465,0.0707762,20.909,130.01,-0.492371,0.0,0.0
728,181.75,33.8337,34.2167,159.493,100.435,105.975,0.00372082,0.0707006,20.9094,130.03,-0.494882,0.0,0.0
730,182.25,33.3714,34.3609,158.397,100.426,106.037,0.00371364,0.0705948,20.9098,130,-0.501074,0.0,0.0
732,182.75,33.803,34.1389,161.194,100.433,106.079,0.00371142,0.070509,20.9105,130.03,-0.504054,0.0,0.0
734,183.25,33.938,34.5489,160.883,100.41,105.946,0.00371097,0.0703504,20.9111,130.01,-0.494614,0.0,0.0
736,183.75,33.5781,34.8788,159.278,100.384,105.953,0.0037118,0.0702219,20.9116,130.01,-0.497698,0.0,0.0
738,184.25,33.6913,34.3842,164.013,100.392,105.98,0.00371114,0.0700287,20.912,129.99,-0.499191,0.0,0.0
740,184.75,33.9584,34.4294,161.38,100.373,106.014,0.00370941,0.0698253,20.9123,130.02,-0.503969,0.0,0.0
742,185.25,33.6131,34.1314,157.491,100.335,105.891,0.00370599,0.0696183,20.9125,130,-0.496713,0.0,0.0
744,185.75,33.5956,34.6852,163.753,100.324,105.841,0.00370359,0.0695301,20.9129,130.02,-0.493452,0.0,0.0
746,186.25,33.5297,34.4067,162.402,100.301,105.867,0.00369947,0.0693245,20.9135,130.02,-0.497817,0.0,0.0
748,186.75,33.7722,34.0731,159.724,100.264,105.791,0.00369614,0.0691087,20.9139,130.01,-0.494613,0.0,0.0
750,187.25,33.716,34.3969,155.997,100.25,105.806,0.00369344,0.0689339,20.9143,129.99,-0.497161,0.0,0.0
752,187.75,33.6757,34.51,159.416,100.208,105.819,0.00369126,0.0687611,20.9146,130,-0.50214,0.0,0.0
754,188.25,33.6952,34.303,159.806,100.19,105.669,0.003706,0.068593,20.9149,129.98,-0.490725,0.0,0.0
756,188.75,33.4523,34.3156,164.736,100.16,105.709,0.00371794,0.068449,20.9151,129.99,-0.497,0.0,0.0
758,189.25,33.7228,33.8459,163.366,100.131,105.671,0.0037323,0.0683253,20.9152,129.98,-0.496349,0.0,0.0
760,189.75,33.714,34.1106,159.424,100.118,105.657,0.00374814,0.0682329,20.9154,129.97,-0.496298,0.0,0.0
762,190.25,33.6999,34.1998,162.495,100.073,105.58,0.00375897,0.0681652,20.9155,129.99,-0.493775,0.0,0.0
764,190.75,33.6207,33.9901,165.334,100.05,105.697,0.00376593,0.0680868,20.9156,129.96,-0.506097,0.0,0.0
766,191.25,33.4349,34.3863,165.617,99.997,105.63,0.00376622,0.0680023,20.9156,129.98,-0.505092,0.0,0.0
768,191.75,33.0864,34.1065,160.986,99.9681,105.401,0.00376164,0.0679025,20.9157,129.95,-0.487775,0.0,0.0
770,192.25,33.9862,34.2415,164.457,99.9435,105.433,0.00375191,0.0677936,20.9157,129.98,-0.492844,0.0,0.0
772,192.75,33.9671,34.4138,161.587,99.9157,105.445,0.00373862,0.0677053,20.9158,129.93,-0.496431,0.0,0.0
774,193.25,33.6292,34.5562,159.131,99.8803,105.353,0.00372785,0.0675151,20.9158,129.99,-0.491662,0.0,0.0
776,193.75,33.5403,34.2349,158.186,99.8284,105.357,0.00370989,0.067434,20.9158,129.91,-0.496834,0.0,0.0
778,194.25,33.4612,34.6071,163.628,99.8102,105.437,0.00367919,0.0672641,20.9158,129.96,-0.505519,0.0,0.0
780,194.75,33.9585,34.1955,160.406,99.7788,105.371,0.00363829,0.0670984,20.9158,129.91,-0.502648,0.0,0.0
782,195.25,34.0326,34.2104,159.407,99.7704,105.246,0.00359074,0.0669641,20.9163,129.95,-0.492415,0.0,0.0
784,195.75,33.7228,34.3398,156.069,99.7068,105.328,0.00353087,0.0668554,20.9167,129.89,-0.505476,0.0,0.0
786,196.25,33.6557,34.0403,164.711,99.7144,105.221,0.00346317,0.0667127,20.917,129.96,-0.495426,0.0,0.0
788,196.75,33.5963,34.3987,168.151,99.6649,105.209,0.003395,0.0665478,20.9172,129.89,-0.498924,0.0,0.0
790,197.25,33.6576,34.3886,159.775,99.6512,105.189,0.00332778,0.0664143,20.9174,129.95,-0.498514,0.0,0.0
792,197.75,33.8525,34.3463,164.649,99.6057,105.253,0.00327333,0.0662172,20.9176,129.89,-0.508288,0.0,0.0
794,198.25,33.6647,34.7148,162.753,99.6033,105.214,0.00321657,0.0660575,20.9177,129.94,-0.505108,0.0,0.0
796,198.75,33.191,34.3583,162.121,99.58,105.059,0.0031706,0.0659578,20.9178,129.87,-0.493642,0.0,0.0
798,199.25,33.5902,34.698,160.635,99.5618,105.173,0.00313269,0.0658771,20.9179,129.94,-0.505379,0.0,0.0
800,199.75,33.4621,34.2403,162.947,99.5345,105.054,0.00310139,0.0658117,20.918,129.87,-0.49742,0.0,0.0
802,200.25,33.7104,34.2013,158.426,99.5212,105.047,0.00307603,0.0657439,20.918,129.94,-0.498055,0.0,0.0
804,200.75,33.42,34.6175,162.932,99.5079,105.049,0.00306149,0.0656889,20.9183,129.87,-0.499503,0.0,0.0
806,201.25,33.4027,34.2432,160.019,99.5445,105.146,0.0030551,0.0656288,20.9187,129.94,-0.504603,0.0,0.0
808,201.75,33.302,34.5301,158.331,99.6142,105.092,0.0030526,0.0655661,20.9191,129.87,-0.493397,0.0,0.0
810,202.25,33.3976,34.0984,161.015,99.6327,105.224,0.00305297,0.0655309,20.9194,129.93,-0.503253,0.0,0.0
812,202.75,33.7278,34.2856,162.389,99.6556,105.294,0.00305327,0.0655164,20.9196,129.87,-0.507288,0.0,0.0
814,203.25,33.443,34.1088,158.197,99.7313,105.274,0.00305351,0.0655047,20.9198,129.92,-0.498509,0.0,0.0
816,203.75,33.6912,34.0909,166.677,99.7486,105.405,0.00305371,0.0654562,20.9199,129.85,-0.508351,0.0,0.0
818,204.25,33.5524,34.2212,162.012,99.7978,105.36,0.00304721,0.0653818,20.92,129.91,-0.499929,0.0,0.0
820,204.75,33.4614,34.2077,161.009,99.8094,105.334,0.00303594,0.0653137,20.9203,129.87,-0.49653,0.0,0.0
822,205.25,33.6487,34.164,162.757,99.8493,105.524,0.0030135,0.0652515,20.9204,129.91,-0.509459,0.0,0.0
824,205.75,33.8204,34.8247,162.764,99.8726,105.414,0.00298333,0.0651855,20.9206,129.83,-0.497709,0.0,0.0
826,206.25,33.5943,34.4301,164.395,99.8948,105.506,0.00294625,0.065118,20.9207,129.89,-0.503753,0.0,0.0
828,206.75,33.2299,34.0797,163.895,99.9153,105.536,0.00290483,0.0650633,20.9208,129.81,-0.504444,0.0,0.0
830,207.25,33.5526,34.3277,158.334,99.9648,105.523,0.00287129,0.0649597,20.9209,129.89,-0.498746,0.0,0.0
832,207.75,32.9824,34.2534,157.624,99.9576,105.566,0.00284212,0.0648758,20.9209,129.83,-0.503185,0.0,0.0
834,208.25,33.3513,34.45,162.644,99.9729,105.576,0.0028167,0.0648079,20.921,129.91,-0.502635,0.0,0.0
836,208.75,33.2997,34.2178,159.671,99.9753,105.67,0.0027961,0.0646638,20.921,129.84,-0.510595,0.0,0.0
838,209.25,33.0053,34.4371,158.805,99.9902,105.749,0.00280851,0.0645472,20.9211,129.91,-0.516105,0.0,0.0
840,209.75,33.4935,34.2824,156.734,99.9886,105.741,0.00281855,0.0644683,20.9211,129.85,-0.515608,0.0,0.0
842,210.25,33.2275,34.3112,160.526,100.001,105.674,0.00286466,0.0644185,20.9211,129.9,-0.508579,0.0,0.0
844,210.75,33.4134,34.725,163.449,99.9874,105.751,0.002902,0.0643703,20.9211,129.85,-0.51658,0.0,0.0
846,211.25,33.6779,34.3603,159.861,100.007,105.651,0.00294358,0.0643242,20.9214,129.89,-0.506086,0.0,0.0
848,211.75,33.3721,34.4072,157.86,99.9765,105.564,0.00298746,0.0642713,20.9218,129.85,-0.501278,0.0,0.0
850,212.25,33.4212,34.6461,161.83,99.962,105.659,0.00302768,0.0642144,20.9221,129.87,-0.510905,0.0,0.0
852,212.75,33.3106,34.7117,163.497,99.954,105.426,0.00306445,0.0641293,20.9224,129.84,-0.491232,0.0,0.0
854,213.25,33.4944,34.198,158.687,99.9375,105.59,0.0030889,0.0640253,20.9226,129.85,-0.507087,0.0,0.0
856,213.75,33.8446,34.4038,162.186,99.9206,105.651,0.0031039,0.063941,20.9228,129.84,-0.514029,0.0,0.0
858,214.25,33.4609,34.3591,158.408,99.9069,105.523,0.00311606,0.0638876,20.9229,129.86,-0.504093,0.0,0.0
860,214.75,33.1625,34.1201,161.425,99.8799,105.399,0.00311323,0.0638443,20.923,129.82,-0.495746,0.0,0.0
862,215.25,33.5398,34.055,159.611,99.8594,105.53,0.00309955,0.0638248,20.9231,129.84,-0.509069,0.0,0.0
864,215.75,33.5702,34.0171,161.451,99.8296,105.436,0.00307981,0.0638231,20.9232,129.83,-0.503573,0.0,0.0
866,216.25,33.5048,33.9107,164.336,99.7949,105.394,0.00305602,0.0637905,20.9233,129.83,-0.503102,0.0,0.0
868,216.75,33.4964,34.6727,162.757,99.7527,105.3,0.00303276,0.063736,20.9233,129.83,-0.498805,0.0,0.0
870,217.25,33.7403,34.2661,158.37,99.706,105.366,0.00301032,0.0636529,20.9234,129.83,-0.50895,0.0,0.0
871,217.5,33.5484,34.6091,166.942,99.6673,105.307,0.00300075,0.063599,20.9234,129.76,-0.507342,0.0,0.0