File: 01_Data/Corrugated_Cardboard/Cone/Corrugated_Cardboard_Cone_HF75Scan_250211_R2.csv
Names,Time,Stack TC,Smoke TC,Exh Press,Smoke Comp,Smoke Meas,CO Meter,CO2 Meter,O2 Meter,Sample Mass,Ext Coeff,Start Test,Flame Verif
Chan Gain,,500,500,1,1,1,1,1,1,1,1,1.0,1.0
Offset,,0,0,0.131183,0,0,0,0,0,0,0,0.0,0.0
Gain,,1,1,25.011,13.1923,20.2122,1,1,1,1.00092,1.05074,1.0,1.0
Units,sec,C,C,Pa,%,%,%,%,%,g,/m,,
Baseline,,60.6403,64.5856,146.72,100.008,102.998,0.000292328,0.0340596,20.9555,-438.406,-0.271466,,
2,0.25,60.4145,64.3381,142.935,99.962,102.312,0.000245317,0.033946,20.9546,139.379,-0.214165,0.0,0.0
4,0.75,59.9845,63.7096,146.826,99.9089,101.896,0.000225532,0.0338924,20.9547,139.279,-0.181537,0.0,0.0
6,1.25,59.8229,64.1943,145.311,99.8646,101.681,0.000197093,0.0338875,20.9548,139.269,-0.166129,0.0,0.0
8,1.75,59.7264,63.6773,146.609,99.8267,102.799,0.000167493,0.0339184,20.9549,139.239,-0.270441,0.0,0.0
10,2.25,59.6524,63.9336,148.564,99.7901,102.293,0.000137609,0.0339433,20.9549,139.239,-0.228362,0.0,0.0
12,2.75,60.0101,63.6934,147.15,99.7515,101.188,0.000115372,0.0339636,20.955,139.179,-0.131793,0.0,1.0
14,3.25,59.7988,63.6806,139.696,99.7213,100.16,9.91315e-05,0.0339799,20.955,139.199,-0.0405009,0.0,1.0
16,3.75,59.8444,64.1889,133.509,99.6838,96.243,9.64822e-05,0.0339492,20.9551,139.028,0.323771,0.0,1.0
18,4.25,60.2234,65.2234,121.821,99.6339,90.6218,0.000103791,0.0339243,20.9549,138.788,0.873841,0.0,1.0
20,4.75,60.6655,67.5507,118.39,99.6049,88.8848,0.000109711,0.0339042,20.9545,138.508,1.04954,0.0,1.0
22,5.25,61.8112,69.2982,105.335,99.594,87.2724,0.000135726,0.0338878,20.9542,138.268,1.21727,0.0,1.0
24,5.75,62.8789,72.8708,110.696,99.5687,87.7011,0.000156797,0.0339773,20.9539,138.158,1.16975,0.0,1.0
26,6.25,63.8237,76.915,118.68,99.5622,85.921,0.000188851,0.0340497,20.9537,137.927,1.35817,0.0,1.0
28,6.75,65.0518,80.9199,112.07,99.6391,84.8748,0.000214815,0.0341933,20.9536,137.757,1.4782,0.0,1.0
30,7.25,66.3052,83.6902,114.187,99.7337,85.7328,0.000235845,0.0343861,20.9535,137.627,1.39424,0.0,1.0
32,7.75,66.8613,85.5434,123.758,99.8276,87.2946,0.000269121,0.0345422,20.9534,137.507,1.23651,0.0,1.0
34,8.25,68.0883,87.1778,122.091,99.9016,89.3271,0.000296074,0.0348773,20.9533,137.307,1.03121,0.0,1.0
36,8.75,68.6984,88.9974,121.454,100.02,92.1904,0.00032909,0.0353364,20.9532,137.257,0.751351,0.0,1.0
38,9.25,69.5508,90.4965,130.896,100.079,94.1297,0.000365898,0.036033,20.9531,137.087,0.564854,0.0,1.0
40,9.75,70.0881,91.6678,125.359,100.169,95.1098,0.000406902,0.0368896,20.9531,137.087,0.477641,0.0,1.0
42,10.25,70.0507,92.3392,129.397,100.205,96.6741,0.000450187,0.0383503,20.9526,136.937,0.330652,0.0,1.0
44,10.75,71.3593,93.6028,127.219,100.241,95.2178,0.000500397,0.0402237,20.9522,136.886,0.473815,0.0,1.0
46,11.25,71.4151,93.623,128.33,100.298,94.9988,0.000554702,0.0454993,20.9506,136.776,0.500291,0.0,1.0
48,11.75,71.7687,94.3211,129.377,100.333,96.4971,0.000630342,0.053155,20.9483,136.716,0.359315,0.0,0.0
50,12.25,72.0185,94.2863,130.443,100.318,95.8685,0.000720098,0.072174,20.9457,136.626,0.418179,0.0,0.0
52,12.75,72.647,94.5286,135.959,100.349,96.2294,0.000856922,0.0991154,20.9435,136.526,0.386362,0.0,0.0
54,13.25,72.597,94.9572,136.297,100.347,96.3521,0.00102546,0.120938,20.9352,136.486,0.374464,0.0,0.0
56,13.75,72.7187,95.0618,134.186,100.328,96.4675,0.00116197,0.192272,20.9284,136.386,0.361699,0.0,0.0
58,14.25,73.0051,94.7811,126.756,100.3,96.6587,0.00156046,0.250053,20.9083,136.346,0.340821,0.0,0.0
60,14.75,73.1905,95.1195,132.699,100.268,95.9833,0.00188323,0.326322,20.8788,136.266,0.402493,0.0,0.0
62,15.25,73.2651,95.5006,131.207,100.226,93.4364,0.00239519,0.41462,20.855,136.206,0.646517,0.0,0.0
64,15.75,73.483,95.2093,135.978,100.159,95.7557,0.00280988,0.486142,20.8356,136.136,0.414378,0.0,0.0
66,16.25,73.8198,94.875,133.338,100.07,95.5552,0.00314578,0.558716,20.764,136.046,0.425503,0.0,0.0
68,16.75,73.8929,95.1955,134.309,100.014,94.4245,0.0035837,0.63068,20.7059,135.996,0.530019,0.0,0.0
70,17.25,74.0937,95.7411,134.553,99.9302,93.5887,0.00408768,0.683803,20.5969,135.906,0.604284,0.0,0.0
72,17.75,74.2928,95.9477,126.778,99.9528,93.4203,0.0044959,0.72218,20.5086,135.836,0.622962,0.0,0.0
74,18.25,74.7249,96.0428,130.162,99.9862,92.2428,0.00489337,0.753266,20.4324,135.745,0.742957,0.0,0.0
76,18.75,75.0917,96.0934,131.123,100.044,91.7666,0.00521532,0.755827,20.3665,135.725,0.795967,0.0,0.0
78,19.25,75.532,96.6503,127.22,100.089,90.3615,0.00540274,0.757901,20.3132,135.505,0.942381,0.0,0.0
80,19.75,75.9387,97.0812,132.448,100.168,90.3738,0.00555455,0.747605,20.2701,135.495,0.948386,0.0,0.0
82,20.25,75.8127,97.9604,126.327,100.219,90.6613,0.00559579,0.728486,20.2352,135.275,0.923819,0.0,0.0
84,20.75,76.4555,98.5627,126.282,100.295,88.8521,0.00555564,0.712999,20.207,135.275,1.11656,0.0,0.0
86,21.25,76.1794,98.9435,125.625,100.345,86.737,0.00552312,0.683735,20.1841,135.075,1.34321,0.0,0.0
88,21.75,77.1074,99.8551,125.224,100.409,88.0607,0.0053064,0.660032,20.1655,135.055,1.20949,0.0,0.0
90,22.25,77.4822,100.216,124.113,100.481,87.6857,0.00513086,0.634452,20.173,134.875,1.25544,0.0,0.0
92,22.75,77.5054,100.702,130.243,100.558,89.2105,0.00486778,0.607991,20.179,134.915,1.10359,0.0,0.0
94,23.25,78.1032,101.095,131.671,100.62,88.9514,0.00465468,0.583501,20.2042,134.734,1.13612,0.0,0.0
96,23.75,78.3121,101.479,129.567,100.671,88.0552,0.00444999,0.560912,20.2246,134.734,1.2341,0.0,0.0
98,24.25,78.5797,101.8,131.374,100.712,89.3259,0.00425533,0.541474,20.2522,134.594,1.10577,0.0,0.0
100,24.75,78.5853,101.835,133.856,100.789,91.8666,0.00409165,0.524704,20.2745,134.604,0.854301,0.0,0.0
102,25.25,79.3045,101.738,132.497,100.836,93.5672,0.00395366,0.511594,20.3032,134.494,0.689584,0.0,0.0
104,25.75,79.2041,101.713,128.821,100.842,93.8756,0.00385458,0.501403,20.3264,134.504,0.659804,0.0,0.0
106,26.25,79.2875,101.433,132.596,100.861,95.4744,0.00378573,0.495114,20.3452,134.414,0.505915,0.0,0.0
108,26.75,79.3988,101.081,135.798,100.888,97.4137,0.00375336,0.491788,20.3604,134.464,0.323002,0.0,0.0
110,27.25,78.9489,100.052,138.279,100.901,98.004,0.00374819,0.489094,20.3728,134.344,0.268494,0.0,0.0
112,27.75,78.9033,99.5447,133.702,100.917,97.3027,0.003744,0.494059,20.3828,134.404,0.33616,0.0,0.0
114,28.25,78.6674,99.1735,140.882,100.903,99.2611,0.00383474,0.498081,20.3909,134.314,0.151203,0.0,0.0
116,28.75,78.7394,98.3492,138.603,100.903,101.616,0.00390824,0.501339,20.3961,134.364,-0.0648855,0.0,0.0
118,29.25,78.3685,97.6425,138.739,100.883,101.112,0.00396777,0.514326,20.4003,134.284,-0.0208443,0.0,0.0
120,29.75,78.6034,96.9763,141.203,100.886,101.043,0.00415901,0.524845,20.4003,134.314,-0.0143812,0.0,0.0
122,30.25,78.4378,96.103,139.132,100.842,100.741,0.00431391,0.54073,20.3971,134.214,0.00916451,0.0,0.0
124,30.75,77.9511,95.4365,144.494,100.804,101.69,0.00455075,0.553597,20.39,134.314,-0.0806479,0.0,0.0
126,31.25,77.84,94.2364,143.277,100.748,101.465,0.00474259,0.566459,20.3803,134.254,-0.0653375,0.0,0.0
128,31.75,77.7771,93.6944,139.972,100.72,101.08,0.00496213,0.576877,20.3659,134.334,-0.032886,0.0,0.0
130,32.25,77.1633,92.6554,143.225,100.66,100.888,0.00513995,0.58353,20.3483,134.264,-0.0208482,0.0,0.0
132,32.75,77.3741,92.2578,145.311,100.584,101.322,0.00528398,0.587311,20.3341,134.284,-0.0673683,0.0,0.0
134,33.25,76.8731,90.9301,144.599,100.503,101.5,0.00540065,0.582064,20.3226,134.264,-0.0909697,0.0,0.0
136,33.75,76.5713,90.3408,144.845,100.446,100.307,0.00545409,0.577814,20.3133,134.294,0.0127575,0.0,0.0
138,34.25,76.2162,89.7514,142.418,100.351,100.669,0.00549738,0.56805,20.3058,134.224,-0.0291955,0.0,0.0
140,34.75,76.2167,88.8144,141.544,100.281,99.5239,0.00547177,0.554452,20.2997,134.214,0.0698427,0.0,0.0
142,35.25,75.8355,88.0811,142.888,100.192,100.491,0.00539643,0.543438,20.3044,134.234,-0.0274778,0.0,0.0
144,35.75,75.8421,86.9456,140.544,100.087,99.5726,0.0053354,0.519374,20.3083,134.224,0.0475158,0.0,0.0
146,36.25,75.386,86.9261,142.553,100.008,100.378,0.00516085,0.499882,20.3186,134.224,-0.0340598,0.0,0.0
148,36.75,75.2148,86.1716,142.528,99.9153,100.828,0.00501945,0.472135,20.3334,134.194,-0.0838512,0.0,0.0
150,37.25,74.8848,85.279,144.468,99.8428,101.915,0.00477258,0.449659,20.3519,134.224,-0.189303,0.0,0.0
152,37.75,74.71,84.6688,147.571,99.7527,101.656,0.00457261,0.425814,20.3728,134.184,-0.174229,0.0,0.0
154,38.25,74.7741,84.3922,141.104,99.681,99.7101,0.00430533,0.401425,20.3897,134.204,-0.00269288,0.0,0.0
156,38.75,74.381,83.8037,141.308,99.6102,99.7552,0.00408884,0.38167,20.4131,134.214,-0.0134085,0.0,0.0
158,39.25,74.1732,83.3719,143.682,99.5381,100.076,0.00391348,0.359597,20.4408,134.204,-0.049668,0.0,0.0
160,39.75,74.0164,82.565,145.356,99.4511,101.656,0.00377144,0.336253,20.4633,134.154,-0.202077,0.0,0.0
162,40.25,73.3951,81.8212,145.337,99.365,101.354,0.00354872,0.317345,20.4881,134.174,-0.182676,0.0,0.0
164,40.75,73.3494,81.3638,144.042,99.3134,100.363,0.00336832,0.294629,20.5141,134.144,-0.0969282,0.0,0.0
166,41.25,73.2015,80.9959,143.508,99.2708,99.6645,0.0032222,0.276228,20.5408,134.144,-0.0364853,0.0,0.0
168,41.75,73.1805,80.5735,151.391,99.2027,100.205,0.00310383,0.259166,20.5675,134.114,-0.0926398,0.0,0.0
170,42.25,72.9765,79.9364,142.127,99.1697,100.778,0.00300796,0.243403,20.5891,134.154,-0.148266,0.0,0.0
172,42.75,72.379,79.0406,145.392,99.1101,99.3777,0.00297834,0.230636,20.6108,134.124,-0.0248476,0.0,0.0
174,43.25,71.2654,77.9336,150.027,99.1089,100.505,0.00295435,0.21866,20.6322,134.154,-0.128948,0.0,0.0
176,43.75,70.6591,77.1797,144.228,99.0739,100.321,0.00298302,0.207489,20.6541,134.114,-0.115278,0.0,0.0
178,44.25,71.1095,76.8292,144.312,99.0707,100.4,0.00300624,0.196753,20.676,134.134,-0.122828,0.0,0.0
180,44.75,70.6837,76.244,142.89,99.036,100.218,0.00306434,0.188056,20.6957,134.074,-0.109387,0.0,0.0
182,45.25,70.7725,76.4151,141.08,99.0695,99.6855,0.00311139,0.179578,20.7132,133.914,-0.0571321,0.0,0.0
184,45.75,70.8366,76.0781,140.629,99.0292,100.571,0.00317233,0.172711,20.7289,134.074,-0.142359,0.0,0.0
186,46.25,69.7624,76.1055,143.707,99.0759,100.808,0.0032217,0.166518,20.7428,134.084,-0.159752,0.0,0.0
188,46.75,69.7156,75.4062,143.475,99.0662,100.92,0.0032541,0.163578,20.7487,134.074,-0.170854,0.0,0.0
190,47.25,70.0486,74.3002,144.12,99.1278,100.832,0.0033095,0.158553,20.761,134.084,-0.157065,0.0,0.0
192,47.75,69.5758,74.5249,143.436,99.146,100.403,0.00338045,0.153517,20.771,134.044,-0.116166,0.0,0.0
194,48.25,69.5244,74.2362,139.21,99.1918,100.117,0.00346138,0.149438,20.7798,134.134,-0.08559,0.0,0.0
196,48.75,69.7068,74.1129,144.246,99.2188,99.7953,0.00352693,0.145676,20.7876,134.054,-0.0533938,0.0,0.0
198,49.25,68.7323,74.4393,140.429,99.2909,99.8039,0.00363697,0.142215,20.7939,134.134,-0.0474981,0.0,0.0
200,49.75,69.4661,73.5644,145.403,99.3211,101.259,0.00377735,0.139012,20.8003,134.034,-0.178106,0.0,0.0
202,50.25,68.9431,73.263,144.098,99.3919,99.4807,0.00389105,0.136055,20.8055,134.074,-0.00822507,0.0,0.0
204,50.75,69.06,73.704,148.574,99.4503,100.109,0.00403157,0.133661,20.8097,134.024,-0.0608094,0.0,0.0
206,51.25,68.6247,73.025,142.705,99.5163,100.997,0.00418896,0.13124,20.814,134.044,-0.136167,0.0,0.0
208,51.75,68.4689,72.6763,146.377,99.5679,100.603,0.00433798,0.128846,20.8174,133.994,-0.0953538,0.0,0.0
210,52.25,68.4596,72.4086,142.341,99.6536,101.832,0.00447806,0.126906,20.821,134.034,-0.199309,0.0,0.0
212,52.75,68.5382,72.5681,144.541,99.6995,100.823,0.00459691,0.124788,20.8238,134.014,-0.103273,0.0,0.0
214,53.25,67.8225,72.1867,141.634,99.7776,101.556,0.00469802,0.122754,20.8275,134.054,-0.162858,0.0,0.0
216,53.75,68.1225,72.0117,145.696,99.8457,101.752,0.00477521,0.120819,20.8304,134.004,-0.174304,0.0,0.0
218,54.25,68.1393,71.6991,145.165,99.9024,101.142,0.0048335,0.119252,20.8341,134.054,-0.113639,0.0,0.0
220,54.75,67.8982,71.2105,145.883,99.9395,100.499,0.004876,0.117377,20.8371,133.974,-0.0514644,0.0,0.0
222,55.25,67.7509,71.5615,143.451,100.026,101.582,0.00490618,0.115858,20.84,134.014,-0.142198,0.0,0.0
224,55.75,67.4908,71.0789,145.562,100.051,102.145,0.00493063,0.113948,20.8423,133.934,-0.190893,0.0,0.0
226,56.25,67.8049,71.1514,144.9,100.117,101.989,0.00495299,0.1124,20.8447,134.004,-0.170776,0.0,0.0
228,56.75,67.2562,70.7739,142.122,100.135,102.224,0.0049711,0.110829,20.847,133.934,-0.190266,0.0,0.0
230,57.25,66.9472,70.9846,145.429,100.181,102.457,0.00499714,0.109271,20.8489,133.994,-0.207098,0.0,0.0
232,57.75,66.9411,70.3575,140.84,100.202,101.113,0.00500495,0.107842,20.8513,133.934,-0.0834604,0.0,0.0
234,58.25,66.8091,70.4389,144.651,100.231,100.847,0.00501696,0.106535,20.8533,133.994,-0.0564721,0.0,0.0
236,58.75,66.8832,69.8948,145.091,100.253,101.679,0.00502548,0.105476,20.8557,133.924,-0.130212,0.0,0.0
238,59.25,67.1436,70.4665,145.023,100.304,101.82,0.00502564,0.104558,20.8577,133.974,-0.138215,0.0,0.0
240,59.75,66.7396,69.9923,140.495,100.294,101.809,0.00501972,0.103783,20.8598,133.914,-0.138227,0.0,0.0
242,60.25,67.0641,70.1745,149.334,100.339,101.421,0.00500417,0.103127,20.8614,133.974,-0.098836,0.0,0.0
244,60.75,66.6263,69.5242,142.218,100.304,101.69,0.00498188,0.102595,20.8628,133.924,-0.126462,0.0,0.0
246,61.25,66.6428,69.5201,140.173,100.313,100.639,0.00496383,0.102001,20.8639,133.954,-0.0298684,0.0,0.0
248,61.75,66.5131,69.7132,145.845,100.309,100.361,0.00492098,0.101519,20.8647,133.904,-0.00479894,0.0,0.0
250,62.25,66.8058,69.3411,148.262,100.308,101.181,0.00488628,0.10113,20.8655,133.914,-0.0798721,0.0,0.0
252,62.75,66.2388,69.3168,142.762,100.28,101.756,0.00485818,0.100814,20.866,133.894,-0.134681,0.0,0.0
254,63.25,66.0819,69.2371,142.421,100.278,101.007,0.00483541,0.100152,20.8665,133.914,-0.0666948,0.0,0.0
256,63.75,66.4508,69.3776,149.168,100.223,101.173,0.00479144,0.0996156,20.8672,133.894,-0.0869874,0.0,0.0
258,64.25,66.1022,69.0414,145.99,100.189,100.17,0.00475582,0.0990388,20.868,133.924,0.00182265,0.0,0.0
260,64.75,66.1206,69.354,144.997,100.135,100.582,0.00473208,0.0984434,20.8687,133.884,-0.0410709,0.0,0.0
262,65.25,66.182,69.2409,143.881,100.11,100.406,0.00471284,0.0977792,20.8692,133.894,-0.0271885,0.0,0.0
264,65.75,65.9019,69.2045,144.354,100.039,102.368,0.00471769,0.0970776,20.8696,133.884,-0.212169,0.0,0.0
266,66.25,65.8092,68.6942,146.892,100.012,101.348,0.00472161,0.0963118,20.8709,133.884,-0.122298,0.0,0.0
268,66.75,65.9234,68.5596,142.94,99.9483,101.546,0.00474906,0.0955138,20.8719,133.874,-0.146207,0.0,0.0
270,67.25,65.2461,68.4092,144.001,99.8996,101.187,0.00477129,0.0947331,20.8736,133.874,-0.118002,0.0,0.0
272,67.75,65.8352,68.5026,147.86,99.8509,100.561,0.00479064,0.0939801,20.8749,133.864,-0.0652916,0.0,0.0
274,68.25,65.9156,68.4822,144.294,99.803,100.509,0.00480753,0.0932202,20.8761,133.884,-0.0649651,0.0,0.0
276,68.75,65.5929,68.7732,143.398,99.799,100.622,0.00481314,0.0924697,20.8769,133.864,-0.0757396,0.0,0.0
278,69.25,65.7926,68.3698,147.15,99.7269,101.742,0.00481042,0.0918619,20.8781,133.844,-0.18438,0.0,0.0
280,69.75,65.0456,68.4696,149.163,99.704,100.939,0.00480822,0.0911961,20.8791,133.844,-0.113514,0.0,0.0
282,70.25,65.1878,68.4387,147.745,99.6657,100.278,0.00479837,0.0905007,20.8798,133.854,-0.0564726,0.0,0.0
284,70.75,64.9471,68.1389,147.166,99.6359,100.739,0.00478313,0.0899375,20.8809,133.814,-0.101482,0.0,0.0
286,71.25,65.3277,68.0228,147.655,99.5945,100.729,0.00477079,0.0892418,20.8818,134.014,-0.104416,0.0,0.0
288,71.75,65.2971,68.0159,141.782,99.5981,100.447,0.00476463,0.0886782,20.8825,133.844,-0.0782508,0.0,0.0
290,72.25,64.5272,67.9956,143.806,99.6826,101.443,0.00475963,0.0881509,20.8835,133.814,-0.161333,0.0,0.0
292,72.75,64.7125,67.3585,145.439,99.7567,100.717,0.00476433,0.0876599,20.8843,133.804,-0.0883402,0.0,0.0
294,73.25,64.731,67.9501,146.874,99.7917,101.469,0.00477599,0.0872072,20.8849,133.814,-0.153659,0.0,0.0
296,73.75,65.3532,67.7107,148.153,99.9065,100.733,0.0047962,0.0867908,20.8855,133.854,-0.0759251,0.0,0.0
298,74.25,64.8934,67.4114,147.435,99.9785,102.206,0.00482225,0.0864536,20.8861,133.844,-0.203081,0.0,0.0
300,74.75,64.7514,67.455,139.03,100.102,101.944,0.00484335,0.0860459,20.8869,133.814,-0.168114,0.0,0.0
302,75.25,64.7695,66.8566,145.004,100.127,101.142,0.00487962,0.0857156,20.8875,133.814,-0.0928995,0.0,0.0
304,75.75,64.8777,67.4389,147.084,100.202,101.632,0.004909,0.0853584,20.888,133.804,-0.130607,0.0,0.0
306,76.25,64.5166,67.077,143.427,100.233,100.986,0.00493663,0.085069,20.8884,133.754,-0.0689262,0.0,0.0
308,76.75,64.1821,66.8409,148.319,100.297,101.472,0.00495901,0.0848346,20.8887,133.854,-0.107298,0.0,0.0
310,77.25,64.3562,67.1391,148.441,100.301,102.14,0.00497714,0.0845252,20.889,133.754,-0.167408,0.0,0.0
312,77.75,64.3526,67.1935,146.188,100.34,101.899,0.00499249,0.0842746,20.8892,133.834,-0.14216,0.0,0.0
314,78.25,64.6803,67.2299,148.012,100.356,101.669,0.00500554,0.0840008,20.8893,133.764,-0.119846,0.0,0.0
316,78.75,63.85,66.8533,147.019,100.378,100.549,0.0050225,0.0837153,20.8897,133.794,-0.0156628,0.0,0.0
318,79.25,64.6242,66.9414,149.936,100.375,101.385,0.00503624,0.0834291,20.8902,133.704,-0.092313,0.0,0.0
320,79.75,64.4837,66.7848,146.18,100.357,101.432,0.00504737,0.0831477,20.8906,133.814,-0.098218,0.0,0.0
322,80.25,64.0588,67.1063,146.258,100.334,101.965,0.00505638,0.0828333,20.891,133.794,-0.148646,0.0,0.0
324,80.75,64.3654,66.8046,147.722,100.357,102.187,0.00504322,0.0825008,20.8915,133.764,-0.166625,0.0,0.0
326,81.25,63.9772,66.9921,147.985,100.273,101.195,0.00503257,0.0821294,20.8921,133.754,-0.0843829,0.0,0.0
328,81.75,63.6957,66.4401,147.346,100.283,101.662,0.00500241,0.0817366,20.8926,133.744,-0.125927,0.0,0.0
330,82.25,63.9814,66.9712,145.263,100.187,100.213,0.00495862,0.0814184,20.8934,133.734,-0.00233404,0.0,0.0
332,82.75,63.8198,67.0932,143.084,100.139,101.144,0.00492315,0.0809667,20.8941,133.814,-0.0920305,0.0,0.0
334,83.25,63.8512,67.0211,141.708,100.032,101.378,0.00486889,0.0806009,20.8947,133.694,-0.123155,0.0,0.0
336,83.75,63.8975,66.8562,145.623,99.962,102.083,0.00482494,0.080281,20.8951,133.794,-0.193526,0.0,0.0
338,84.25,63.7861,67.1128,141.879,99.9669,100.923,0.0048062,0.0801334,20.8953,133.704,-0.0877223,0.0,0.0
340,84.75,64.1808,66.8798,147.479,100.041,100.871,0.00477215,0.0798811,20.8956,133.774,-0.0761245,0.0,0.0
342,85.25,63.7962,66.6903,142.28,100.058,100.439,0.00474275,0.0796532,20.8959,133.704,-0.0350094,0.0,0.0
344,85.75,63.7864,66.9219,142.708,100.119,100.552,0.00471692,0.0794474,20.8961,133.754,-0.0397461,0.0,0.0
346,86.25,63.9402,66.6159,148.402,100.145,101.643,0.00469419,0.0792808,20.8963,133.704,-0.1368,0.0,0.0
348,86.75,63.818,66.8867,142.573,100.209,100.762,0.00467578,0.0791457,20.8969,133.754,-0.0506888,0.0,0.0
350,87.25,63.6366,67.0957,145.529,100.272,101.196,0.00466086,0.0788276,20.8973,133.724,-0.0845504,0.0,0.0
352,87.75,63.2323,66.5768,145.217,100.328,101.133,0.00464495,0.0785699,20.8976,133.774,-0.0735823,0.0,0.0
354,88.25,63.5613,66.4662,140.446,100.369,101.541,0.00463542,0.0783314,20.8978,133.674,-0.107025,0.0,0.0
356,88.75,63.4625,66.8064,141.106,100.448,100.339,0.00463073,0.0781382,20.898,133.734,0.0100689,0.0,0.0
358,89.25,63.2513,66.8523,147.128,100.502,101.469,0.00462692,0.0779519,20.8981,133.684,-0.0883346,0.0,0.0
360,89.75,63.6089,67.0175,146.549,100.568,102.706,0.00463022,0.0778009,20.8982,133.724,-0.193905,0.0,0.0
362,90.25,63.4335,66.6426,147.307,100.594,101.626,0.00463289,0.0777383,20.8983,133.684,-0.0941044,0.0,0.0
364,90.75,63.3586,66.8715,146.806,100.652,101.666,0.00463633,0.0776876,20.8984,133.774,-0.0923929,0.0,0.0
366,91.25,63.2076,66.4559,142.907,100.71,101.223,0.00463912,0.0776465,20.8984,133.643,-0.0467902,0.0,0.0
368,91.75,63.5931,66.8077,149.073,100.741,101.825,0.00464138,0.0775834,20.8985,133.744,-0.0985722,0.0,0.0
370,92.25,63.3809,66.971,144.944,100.779,101.227,0.00464448,0.0775323,20.8988,133.694,-0.0408485,0.0,0.0
372,92.75,63.5561,66.839,143.157,100.823,101.239,0.004647,0.0774663,20.8992,133.744,-0.0379029,0.0,0.0
374,93.25,63.4652,66.8773,142.415,100.832,101.183,0.00464904,0.0773907,20.8995,133.674,-0.032,0.0,0.0
376,93.75,63.4882,66.6008,142.495,100.894,101.456,0.00464825,0.0773295,20.8998,133.724,-0.0511727,0.0,0.0
378,94.25,63.2353,66.6734,145.694,100.907,101.933,0.00464762,0.0771607,20.9,133.764,-0.0933041,0.0,0.0
380,94.75,63.7539,66.7028,143.16,100.936,101.696,0.0046369,0.0770239,20.9001,133.653,-0.0691216,0.0,0.0
382,95.25,63.0308,66.7495,145.126,100.928,102.209,0.00462822,0.0767195,20.9002,133.663,-0.116217,0.0,0.0
384,95.75,63.312,66.6369,144.568,100.946,102.345,0.00460842,0.0764729,20.9002,133.653,-0.126846,0.0,0.0
386,96.25,63.182,66.3738,148.601,100.955,102.092,0.00459239,0.0761689,20.9002,133.623,-0.103271,0.0,0.0
388,96.75,63.2348,66.3538,149.8,100.973,102.044,0.00455901,0.0759227,20.9002,133.633,-0.0972358,0.0,0.0
390,97.25,62.6994,66.2203,140.981,100.953,101.776,0.00453196,0.0757311,20.9002,133.613,-0.0748428,0.0,0.0
392,97.75,62.8632,66.0915,145.697,100.927,101.137,0.00449222,0.0755829,20.9004,133.543,-0.0191612,0.0,0.0
394,98.25,63.1993,66.3882,144.571,100.902,102.327,0.00446002,0.0754551,20.9008,133.663,-0.129317,0.0,0.0
396,98.75,63.3697,66.398,145.659,100.899,100.786,0.00443394,0.0753445,20.9011,133.543,0.0103258,0.0,0.0
398,99.25,63.1938,65.9718,145.455,100.847,101.566,0.00439371,0.0752549,20.9014,133.573,-0.0654465,0.0,0.0
400,99.75,63.1227,66.2602,142.55,100.825,102.153,0.00436113,0.0751078,20.9016,133.593,-0.12057,0.0,0.0
402,100.25,62.7496,65.7572,143.45,100.783,102.028,0.00431309,0.0749888,20.9018,133.633,-0.113223,0.0,0.0
404,100.75,63.282,66.4544,147.043,100.725,102,0.00427417,0.074861,20.9019,133.573,-0.115889,0.0,0.0
406,101.25,62.6128,65.729,148.71,100.699,102.525,0.00421721,0.0747292,20.902,133.613,-0.165688,0.0,0.0
408,101.75,62.6936,65.8215,141.431,100.63,101.09,0.00417106,0.0745183,20.9021,133.583,-0.0420047,0.0,0.0
410,102.25,63.0973,65.6442,145.212,100.579,101.904,0.0041108,0.0743475,20.9024,133.583,-0.120573,0.0,0.0
412,102.75,62.6247,65.7913,143.09,100.513,101.167,0.00406198,0.0741347,20.9029,133.583,-0.0598058,0.0,0.0
414,103.25,62.5732,65.7799,147.618,100.47,102.148,0.00401843,0.0739624,20.9032,133.553,-0.152662,0.0,0.0
416,103.75,62.4955,65.6565,144.508,100.395,100.434,0.00397954,0.0738228,20.9035,133.603,-0.00358702,0.0,0.0
418,104.25,62.5688,65.8024,148.046,100.305,101.654,0.00396296,0.0736928,20.9037,133.583,-0.123202,0.0,0.0
420,104.75,62.7816,65.8231,146.346,100.244,101.237,0.00395113,0.0734705,20.9039,133.553,-0.0909047,0.0,0.0
422,105.25,62.7044,66.0102,143.788,100.194,101.052,0.00394156,0.0732121,20.904,133.653,-0.0785766,0.0,0.0
424,105.75,62.0316,65.9146,146.757,100.112,100.2,0.0039338,0.0729324,20.9042,133.513,-0.00807166,0.0,0.0
426,106.25,63.0228,65.7982,139.209,100.039,100.122,0.00395168,0.0727058,20.9043,133.613,-0.0075746,0.0,0.0
428,106.75,62.3172,65.6491,147.93,99.9532,100.79,0.00396616,0.0724331,20.9044,133.523,-0.0768087,0.0,0.0
430,107.25,62.6317,66.1709,144.217,99.9069,100.301,0.00398044,0.0722121,20.9047,133.613,-0.0362961,0.0,0.0
432,107.75,62.4936,65.8996,145.841,99.7921,100.431,0.003992,0.0719941,20.9052,133.553,-0.0587829,0.0,0.0
434,108.25,62.3329,66.1545,145.543,99.7374,101.509,0.003992,0.0717822,20.9055,133.603,-0.162322,0.0,0.0
436,108.75,62.5893,66.0674,147.332,99.681,100.569,0.00398356,0.0715715,20.9058,133.493,-0.0817226,0.0,0.0
438,109.25,62.4039,65.5903,140.81,99.6097,100.115,0.003962,0.0713656,20.9061,133.613,-0.0466124,0.0,0.0
440,109.75,62.3492,65.8575,147.276,99.5159,101.154,0.00393129,0.0711988,20.9063,133.523,-0.150435,0.0,0.0
442,110.25,62.5638,65.3078,143.031,99.4612,100.148,0.00390641,0.0710168,20.9064,133.583,-0.0634355,0.0,0.0
444,110.75,62.8158,65.7241,143.359,99.4016,99.5337,0.00386821,0.0708271,20.9066,133.503,-0.0122433,0.0,0.0
446,111.25,62.0105,65.2113,148.124,99.3686,100.819,0.00382102,0.0706735,20.9074,133.543,-0.133523,0.0,0.0
448,111.75,62.667,65.5087,145.547,99.3219,100.415,0.00376943,0.0705193,20.9081,133.493,-0.100901,0.0,0.0
450,112.25,62.4066,65.8808,147.33,99.27,99.6275,0.00371562,0.0703944,20.9086,133.533,-0.0331363,0.0,0.0
452,112.75,62.2446,65.5754,146.59,99.2297,100.835,0.00367203,0.0702487,20.9091,133.503,-0.147937,0.0,0.0
454,113.25,62.7065,65.8091,143.008,99.2156,99.7965,0.00362671,0.0701307,20.9094,133.573,-0.053806,0.0,0.0
456,113.75,62.6252,65.5871,142.017,99.1596,100.164,0.00358099,0.0700351,20.9097,133.403,-0.0928973,0.0,0.0
458,114.25,62.1868,65.7537,146.855,99.1778,100.545,0.00354395,0.0698833,20.91,133.523,-0.126226,0.0,0.0
460,114.75,61.8014,65.2106,144.209,99.1431,100.593,0.00352918,0.0697604,20.9102,133.503,-0.133853,0.0,0.0
462,115.25,62.2375,66.0445,143.291,99.1544,99.8119,0.00351721,0.0696374,20.9103,133.553,-0.0609167,0.0,0.0
464,115.75,62.3878,65.5075,144.156,99.1363,99.8175,0.00351954,0.0695166,20.9104,133.503,-0.0631141,0.0,0.0
466,116.25,62.2703,65.6799,146.454,99.1701,99.667,0.00353225,0.0693172,20.911,133.523,-0.0460625,0.0,0.0
468,116.75,62.2956,65.4006,140.377,99.177,100.846,0.00355123,0.0690642,20.9114,133.473,-0.153796,0.0,0.0
470,117.25,62.5177,65.6788,144.101,99.1931,100.125,0.00357442,0.0687811,20.9118,133.623,-0.0861589,0.0,0.0
472,117.75,62.2074,64.8509,148.176,99.2357,100.765,0.00359455,0.0684815,20.9121,133.423,-0.140947,0.0,0.0
474,118.25,61.8973,65.6725,145.232,99.2704,99.4979,0.00361205,0.0681997,20.9123,133.523,-0.021107,0.0,0.0
476,118.75,61.9904,65.5181,143.511,99.27,99.9334,0.00362556,0.0679364,20.9125,133.433,-0.0613973,0.0,0.0
478,119.25,62.4421,65.989,147.98,99.3654,100.572,0.00363591,0.067723,20.9126,133.523,-0.111237,0.0,0.0
480,119.75,61.6621,65.6815,146.583,99.365,99.3536,0.00364428,0.0675205,20.9128,133.443,0.00105364,0.0,0.0
482,120.25,61.9609,65.426,145.706,99.4258,100.611,0.00364572,0.0673565,20.9129,133.473,-0.109198,0.0,0.0
484,120.75,61.8291,65.5453,148.071,99.4737,100.253,0.00364207,0.0672393,20.9129,133.363,-0.0719245,0.0,0.0
486,121.25,62.015,65.4799,146.115,99.5393,101.258,0.00363243,0.0671584,20.9132,133.533,-0.157822,0.0,0.0
488,121.75,62.112,65.7028,146.309,99.5767,100.239,0.00361861,0.0671241,20.9137,133.413,-0.0610754,0.0,0.0
490,122.25,61.73,65.5801,143.085,99.6407,99.9433,0.00360408,0.0671245,20.9141,133.493,-0.027944,0.0,0.0
492,122.75,62.1054,65.5495,146.967,99.6866,100.001,0.0035893,0.0671404,20.9143,133.413,-0.0290456,0.0,0.0
494,123.25,62.4692,65.4419,149.979,99.7643,101.202,0.00358067,0.0671674,20.9146,133.463,-0.131896,0.0,0.0
496,123.75,62.0357,65.5215,142.013,99.7837,100.716,0.00357668,0.067158,20.9148,133.413,-0.0856798,0.0,0.0
498,124.25,61.9174,65.2832,144.308,99.8763,99.8199,0.00357747,0.0671222,20.9149,133.483,0.00520002,0.0,0.0
500,124.75,62.23,65.224,143.743,99.8916,101.265,0.00358171,0.0670932,20.9151,133.413,-0.125822,0.0,0.0
502,125.25,62.0556,65.3264,154.182,99.958,101.273,0.00358514,0.0669065,20.9152,133.483,-0.120481,0.0,0.0
504,125.75,61.7533,65.0215,139.614,100.003,101.896,0.00358285,0.0667553,20.9153,133.403,-0.172831,0.0,0.0
506,126.25,62.1585,64.9789,146.287,100.067,103.235,0.00358099,0.0666328,20.9153,133.473,-0.287256,0.0,0.0
508,126.75,62.0247,65.0889,145.255,100.098,99.9902,0.00357948,0.0664297,20.9154,133.413,0.0099054,0.0,0.0
510,127.25,61.7803,65.476,140.983,100.161,100.93,0.00356049,0.0662652,20.9154,133.473,-0.0704673,0.0,0.0
512,127.75,61.7335,65.729,148.807,100.193,100.48,0.00354511,0.0661468,20.9155,133.363,-0.0263852,0.0,0.0
514,128.25,61.9039,65.6022,143.634,100.263,100.587,0.00351489,0.0660509,20.9157,133.443,-0.0297461,0.0,0.0
516,128.75,61.7302,65.6783,143.952,100.26,101.743,0.00349042,0.0659732,20.9161,133.353,-0.135396,0.0,0.0
518,129.25,61.7629,65.1617,147.428,100.318,100.003,0.00346258,0.0659103,20.9165,133.423,0.0289297,0.0,0.0
520,129.75,62.2838,65.6636,143.72,100.316,101.08,0.00343283,0.0658515,20.9168,133.333,-0.0699126,0.0,0.0
522,130.25,62.1349,65.6026,145.837,100.379,102.489,0.00340492,0.0657969,20.917,133.413,-0.191721,0.0,0.0
524,130.75,62.0702,65.1121,143.956,100.38,99.704,0.00338232,0.0657292,20.9172,133.363,0.0622391,0.0,0.0
526,131.25,62.084,65.8207,141.895,100.398,101.593,0.00337669,0.0656533,20.9171,133.383,-0.109084,0.0,0.0
528,131.75,61.9737,65.8546,143.497,100.4,101.198,0.00337213,0.065584,20.9168,133.333,-0.0729211,0.0,0.0
530,132.25,61.7552,65.8381,141.535,100.415,101.883,0.00337378,0.0655209,20.9166,133.343,-0.133797,0.0,0.0
532,132.75,61.5072,65.6712,143.132,100.415,102.043,0.00337992,0.0654697,20.9164,133.323,-0.148275,0.0,0.0
534,133.25,62.1134,65.7711,141.699,100.416,101.588,0.00338489,0.0654283,20.9162,133.313,-0.106954,0.0,0.0
536,133.75,62.0661,65.6897,148.676,100.386,101.099,0.00338892,0.0652909,20.9161,133.323,-0.0651649,0.0,0.0
538,134.25,61.7477,65.8663,144.501,100.379,100.494,0.00339552,0.0651796,20.9162,133.333,-0.0105353,0.0,0.0
540,134.75,61.7,65.5116,145.763,100.374,101.669,0.00340387,0.0650895,20.9163,133.313,-0.118089,0.0,0.0
542,135.25,61.8527,65.4486,144.638,100.336,100.46,0.00341064,0.0649275,20.9164,133.313,-0.0114,0.0,0.0
544,135.75,61.5987,65.5635,147.182,100.307,102.223,0.00341865,0.0647963,20.9165,133.273,-0.174364,0.0,0.0
546,136.25,61.8981,65.7388,145.056,100.282,101.547,0.00342515,0.0647212,20.9166,133.303,-0.1155,0.0,0.0
548,136.75,62.016,65.5595,144.316,100.247,100.063,0.00342279,0.0646885,20.9166,133.293,0.0169414,0.0,0.0
550,137.25,61.6532,65.2213,147.21,100.196,101.034,0.00342089,0.0646464,20.9167,133.273,-0.0768159,0.0,0.0
552,137.75,61.8942,65.677,143.46,100.165,100.305,0.00340666,0.0645983,20.917,133.283,-0.0129144,0.0,0.0
554,138.25,62.0704,65.2177,146.488,100.149,101.912,0.00339514,0.0645148,20.9174,133.283,-0.160878,0.0,0.0
556,138.75,61.9584,65.0881,148.393,100.087,100.332,0.00337566,0.0644472,20.9177,133.253,-0.0225046,0.0,0.0
558,139.25,61.6138,65.2654,147.577,100.038,101.596,0.00335989,0.0643846,20.918,133.273,-0.142503,0.0,0.0
560,139.75,61.5514,65.2047,146.099,99.991,99.7151,0.00334838,0.0643269,20.9183,133.243,0.0254701,0.0,0.0
562,140.25,61.9027,65.6188,144.149,99.9455,100.883,0.00333905,0.0642802,20.9184,133.243,-0.0860841,0.0,0.0
564,140.75,61.5074,65.3805,145.826,99.9173,102.688,0.00333508,0.064229,20.9185,133.243,-0.252066,0.0,0.0
566,141.25,62.0614,65.4565,146.301,99.8497,100.778,0.00333429,0.0641416,20.9187,133.263,-0.0853394,0.0,0.0
568,141.75,61.7895,65.5815,141.234,99.8356,101.383,0.00333905,0.0640005,20.9188,133.283,-0.14176,0.0,0.0
570,142.25,61.9768,65.5937,143.034,99.8119,99.8008,0.00335025,0.0638231,20.9189,133.263,0.00101958,0.0,0.0
572,142.75,61.5345,65.4698,142.601,99.7873,99.8434,0.00336594,0.0636794,20.9189,133.293,-0.00517877,0.0,0.0
574,143.25,62.1694,65.7468,142.776,99.745,100.074,0.00337864,0.0634592,20.919,133.253,-0.0303557,0.0,0.0
576,143.75,61.7347,65.6383,146.845,99.7325,101.044,0.00340923,0.0632809,20.919,133.313,-0.120386,0.0,0.0
578,144.25,61.7271,65.3502,142.381,99.6879,100.403,0.00343401,0.0630624,20.9191,133.243,-0.0658709,0.0,0.0
580,144.75,61.6436,65.3488,140.97,99.6943,100.841,0.00346678,0.0628854,20.9191,133.323,-0.105448,0.0,0.0
582,145.25,61.9131,65.3917,144.133,99.6416,100.397,0.00349332,0.0626828,20.9191,133.243,-0.0695855,0.0,0.0
584,145.75,61.6861,65.7248,141.984,99.7531,99.5146,0.0035072,0.0625186,20.9192,133.313,0.0220607,0.0,0.0
586,146.25,61.3881,65.3462,142.24,99.7917,99.6916,0.00351845,0.0623701,20.9196,133.233,0.00924903,0.0,0.0
588,146.75,61.9603,65.4225,145.211,99.8674,100.011,0.00352324,0.0622994,20.9198,133.293,-0.0131999,0.0,0.0
590,147.25,61.8718,65.8803,147.515,99.9105,101.543,0.00351621,0.0621785,20.9201,133.243,-0.149418,0.0,0.0
592,147.75,61.7747,65.6811,145.01,99.9773,101.744,0.00351051,0.0620727,20.9204,133.333,-0.161489,0.0,0.0
594,148.25,61.7214,65.7407,144.797,100.051,100.521,0.00350589,0.0619801,20.9206,133.253,-0.0431648,0.0,0.0
596,148.75,61.7057,65.6331,144.207,100.159,100.59,0.00349454,0.061905,20.9208,133.353,-0.0395629,0.0,0.0
598,149.25,61.8337,65.2964,142.454,100.196,101.343,0.00348468,0.0617702,20.9209,133.253,-0.104945,0.0,0.0
600,149.75,62.2315,65.7066,143.44,100.29,101.103,0.00347609,0.0616609,20.9211,133.323,-0.0743975,0.0,0.0
602,150.25,61.449,65.9053,148.975,100.307,100.154,0.00347314,0.0615428,20.9212,133.233,0.01405,0.0,0.0
604,150.75,62.0111,65.7713,141.852,100.393,100.595,0.00347436,0.0614472,20.9212,133.313,-0.0185155,0.0,0.0
606,151.25,61.6979,66.008,145.133,100.385,100.806,0.00348269,0.0613697,20.9213,133.213,-0.0385262,0.0,0.0
608,151.75,61.8185,65.8108,143.136,100.437,101.523,0.00349605,0.061307,20.9213,133.303,-0.0990809,0.0,0.0
610,152.25,61.7237,65.7713,147.658,100.413,100.347,0.00350688,0.0612117,20.9214,133.203,0.00606091,0.0,0.0
612,152.75,61.6873,65.8759,147.582,100.456,100.878,0.00352453,0.0611345,20.9214,133.283,-0.0386184,0.0,0.0
614,153.25,61.5629,65.648,144.952,100.419,101.733,0.00353883,0.0609832,20.9214,133.203,-0.119894,0.0,0.0
616,153.75,61.7808,65.2554,146.191,100.423,101.199,0.00355422,0.0608606,20.9215,133.303,-0.0710004,0.0,0.0
618,154.25,61.519,65.9039,142.489,100.399,101.965,0.00356669,0.0607691,20.9215,133.193,-0.142656,0.0,0.0
620,154.75,61.9284,65.6905,143.11,100.386,100.067,0.00357678,0.060702,20.9215,133.273,0.0293426,0.0,0.0
622,155.25,61.5243,65.6259,148.569,100.349,101.108,0.00357481,0.0606476,20.9215,133.193,-0.0694847,0.0,0.0
624,155.75,61.7199,65.4826,143.205,100.34,100.197,0.00357321,0.0605888,20.9215,133.283,0.0130735,0.0,0.0
626,156.25,61.6197,65.6008,147.012,100.266,102.014,0.00356122,0.0605411,20.9215,133.203,-0.159301,0.0,0.0
628,156.75,61.881,65.2486,148.502,100.249,101.4,0.0035419,0.0605025,20.9215,133.313,-0.1052,0.0,0.0
630,157.25,61.5877,66.0009,146.035,100.16,101.51,0.00352624,0.0604713,20.9215,133.143,-0.123396,0.0,0.0
632,157.75,61.7671,65.5994,146.696,100.109,100.778,0.00351356,0.0603127,20.9215,133.273,-0.0614742,0.0,0.0
634,158.25,61.4827,65.3515,147.699,100.007,102.098,0.00346652,0.0601843,20.9215,133.153,-0.190761,0.0,0.0
636,158.75,61.7603,65.3121,142.132,100.041,102.334,0.00342841,0.0600359,20.9215,133.273,-0.208891,0.0,0.0
638,159.25,61.4733,65.3821,145.329,100.061,99.5596,0.0033874,0.0599156,20.9218,133.153,0.0463418,0.0,0.0
640,159.75,61.8942,65.8195,142.057,100.123,101.286,0.00335419,0.0598035,20.9222,133.233,-0.106451,0.0,0.0
642,160.25,61.7625,65.7165,149.616,100.125,100.97,0.00333362,0.0597126,20.9225,133.173,-0.0774823,0.0,0.0
644,160.75,61.4353,65.5283,145.187,100.183,101.329,0.00331696,0.0595798,20.9228,133.263,-0.104841,0.0,0.0
646,161.25,61.2935,65.0767,145.739,100.21,101.274,0.00331741,0.0594722,20.923,133.133,-0.0973829,0.0,0.0
648,161.75,61.5864,65.256,147.649,100.276,100.79,0.00331777,0.0592994,20.9231,133.193,-0.0471386,0.0,0.0
650,162.25,61.7471,64.9919,146.883,100.303,101.451,0.00331807,0.0590824,20.9233,133.143,-0.104838,0.0,0.0