File: 01_Data/Corrugated_Cardboard/Cone/Corrugated_Cardboard_Cone_HF25Scan_250211_R2.csv
Names,Time,Stack TC,Smoke TC,Exh Press,Smoke Comp,Smoke Meas,CO Meter,CO2 Meter,O2 Meter,Sample Mass,Ext Coeff,Start Test,Flame Verif
Chan Gain,,500,500,1,1,1,1,1,1,1,1,1.0,1.0
Offset,,0,0,0.131183,0,0,0,0,0,0,0,0.0,0.0
Gain,,1,1,25.011,13.1923,20.2122,1,1,1,1.00092,1.05074,1.0,1.0
Units,sec,C,C,Pa,%,%,%,%,%,g,/m,,
Baseline,,34.3863,35.4506,161.138,100.002,105.983,0.000579399,0.0427604,20.9448,-434.453,-0.535412,,
2,0.25,35.7525,37.3505,162.407,100.382,106.593,0.000363198,0.0414652,20.9493,146.015,-0.553338,0.0,0.0
4,0.75,35.7653,37.203,157.029,100.412,106.654,0.000359051,0.0414539,20.9493,145.885,-0.555882,0.0,0.0
6,1.25,35.2531,36.3342,159.078,100.398,106.764,0.000366951,0.0414347,20.9494,145.945,-0.566659,0.0,0.0
8,1.75,35.3039,36.5672,157.865,100.429,106.68,0.00037335,0.0414486,20.9495,146.045,-0.556515,0.0,0.0
10,2.25,34.9702,36.5317,159.28,100.418,106.764,0.000392146,0.0414598,20.9496,145.935,-0.564848,0.0,0.0
12,2.75,34.8495,36.3808,156.901,100.435,106.725,0.000407371,0.0415086,20.9497,145.975,-0.559904,0.0,0.0
14,3.25,35.417,36.46,161.593,100.435,106.81,0.000432204,0.0415838,20.9496,145.885,-0.567236,0.0,0.0
16,3.75,34.9045,36.7547,158.446,100.453,106.822,0.000452319,0.0416834,20.9493,145.815,-0.566601,0.0,0.0
18,4.25,35.1108,36.8136,160.792,100.437,106.635,0.000477365,0.041799,20.9492,145.785,-0.551902,0.0,0.0
20,4.75,35.3773,36.5174,154.266,100.467,106.828,0.000497652,0.041939,20.949,145.885,-0.56584,0.0,0.0
22,5.25,35.3794,36.5059,160.503,100.435,106.62,0.000511452,0.0420942,20.9489,145.755,-0.550754,0.0,0.0
24,5.75,35.2515,36.5407,163.063,100.459,106.741,0.000520261,0.0422199,20.9484,145.915,-0.559056,0.0,0.0
26,6.25,35.2734,36.5201,161.09,100.471,106.714,0.000521473,0.0424247,20.948,145.815,-0.55562,0.0,0.0
28,6.75,35.0438,36.438,160.017,100.445,106.689,0.000517126,0.0425907,20.9476,145.785,-0.555837,0.0,0.0
30,7.25,35.4572,36.772,164.101,100.446,106.744,0.000513604,0.042725,20.9473,145.554,-0.560594,0.0,0.0
32,7.75,35.2893,36.5663,157.411,100.447,106.697,0.000510751,0.0428881,20.9471,145.845,-0.556382,0.0,0.0
34,8.25,35.3685,37.2014,160.472,100.419,106.682,0.000497259,0.0430689,20.9469,145.765,-0.557598,0.0,0.0
36,8.75,34.9497,36.46875,161.019,100.417,106.755,0.000476267,0.0432154,20.9469,145.885,-0.564086,0.0,0.0
38,9.25,35.5964,36.4416,157.982,100.406,106.545,0.000452032,0.0433635,20.9469,145.865,-0.546979,0.0,0.0
40,9.75,35.1863,36.7157,157.64,100.402,106.55,0.000425893,0.0434835,20.9469,145.905,-0.547793,0.0,0.0
42,10.25,35.0389,36.6263,159.548,100.377,106.571,0.00040012,0.0435512,20.9469,145.865,-0.551936,0.0,0.0
44,10.75,35.7827,37.0457,164.427,100.39,106.785,0.000386953,0.0435801,20.9467,145.945,-0.569245,0.0,0.0
46,11.25,35.6953,36.6909,159.881,100.363,106.622,0.000364438,0.0435853,20.9463,145.835,-0.557603,0.0,0.0
48,11.75,35.1094,36.9261,163.798,100.339,106.569,0.000351195,0.0435896,20.946,145.835,-0.555213,0.0,0.0
50,12.25,34.9296,36.4365,158.317,100.31,106.456,0.000340469,0.0435853,20.9457,145.775,-0.548147,0.0,0.0
52,12.75,35.2265,36.4565,158.397,100.315,106.555,0.000346973,0.0435748,20.9455,145.544,-0.556169,0.0,0.0
54,13.25,35.1958,36.6325,161.531,100.281,106.447,0.000365913,0.0435576,20.9453,145.484,-0.550009,0.0,0.0
56,13.75,35.9887,36.9324,156.197,100.258,106.48,0.000398365,0.0435358,20.9452,145.474,-0.554949,0.0,0.0
58,14.25,35.3081,36.7507,160.585,100.22,106.513,0.000440048,0.0435181,20.9449,145.805,-0.561274,0.0,0.0
60,14.75,35.6463,37.0491,153.92,100.206,106.424,0.000473812,0.0435774,20.9447,145.875,-0.554881,0.0,0.0
62,15.25,35.5948,37.0508,161.86,100.167,106.493,0.00050116,0.0436254,20.9445,145.815,-0.564492,0.0,0.0
64,15.75,35.285,36.4846,160.506,100.134,106.24,0.000554595,0.0436643,20.9444,145.865,-0.545579,0.0,0.0
66,16.25,35.4692,36.6579,157.626,100.119,106.136,0.000597877,0.0436664,20.9443,145.735,-0.537938,0.0,0.0
68,16.75,35.1903,36.9992,156.967,100.114,106.154,0.000625426,0.043668,20.9442,145.775,-0.539936,0.0,0.0
70,17.25,35.4594,36.8851,153.263,100.068,106.118,0.00064774,0.0436547,20.9441,145.745,-0.541093,0.0,0.0
72,17.75,35.3451,36.727,160.308,100.05,105.957,0.000647045,0.0436439,20.944,145.745,-0.528732,0.0,0.0
74,18.25,35.6386,36.6555,159.6,100.008,105.959,0.000646482,0.0436351,20.944,145.775,-0.532697,0.0,0.0
76,18.75,35.3446,36.7188,158.379,99.985,105.967,0.00063352,0.043628,20.9439,145.805,-0.535546,0.0,0.0
78,19.25,34.8947,36.8697,159.016,99.935,105.812,0.000619729,0.0435781,20.9439,145.785,-0.526727,0.0,0.0
80,19.75,35.4463,36.3828,156.533,99.89,105.678,0.000605597,0.0435377,20.9439,145.765,-0.519166,0.0,0.0
82,20.25,35.0102,36.2769,159.406,99.8735,105.73,0.000596124,0.0434608,20.9439,145.835,-0.525261,0.0,0.0
84,20.75,35.209,36.755,159.671,99.8505,105.568,0.000590228,0.0433986,20.9438,145.825,-0.513226,0.0,0.0
86,21.25,35.3884,36.9722,159.705,99.7909,105.199,0.000585452,0.0433629,20.9438,145.755,-0.486412,0.0,0.0
88,21.75,35.4452,36.7464,163.129,99.77,104.93,0.0005829,0.0433339,20.9438,145.745,-0.464808,0.0,0.0
90,22.25,35.1915,36.8546,164.399,99.737,105.067,0.000582018,0.043295,20.9442,145.735,-0.479824,0.0,0.0
92,22.75,35.7093,36.9115,161.809,99.6971,104.785,0.000578013,0.0432496,20.9446,145.805,-0.4588,0.0,0.0
94,23.25,34.9479,36.8225,163.679,99.6605,104.705,0.000571807,0.0432127,20.9449,145.785,-0.455078,0.0,0.0
96,23.75,35.6859,37.1311,165.325,99.623,104.44,0.00056678,0.0430947,20.9451,145.755,-0.435218,0.0,0.0
98,24.25,35.1184,37.0687,159.99,99.5876,104.383,0.000566459,0.042999,20.9453,145.725,-0.433486,0.0,0.0
100,24.75,35.8259,36.3929,160.571,99.5634,104.073,0.000566199,0.0428921,20.9454,145.735,-0.408286,0.0,0.0
102,25.25,35.0033,37.1087,163.001,99.5127,104.136,0.000578496,0.0428055,20.9456,145.695,-0.418608,0.0,0.0
104,25.75,35.4358,36.7856,159.149,99.4753,103.938,0.000588457,0.0427664,20.9457,145.675,-0.404535,0.0,0.0
106,26.25,35.3718,36.4101,162.413,99.439,103.559,0.00060772,0.0427625,20.9457,145.655,-0.374136,0.0,0.0
108,26.75,35.3389,37.3495,164.306,99.3883,103.909,0.000633398,0.0427594,20.9458,145.625,-0.40997,0.0,0.0
110,27.25,35.0989,36.9992,159.209,99.367,103.637,0.000654198,0.0427863,20.9458,145.715,-0.387788,0.0,0.0
112,27.75,35.1668,36.6855,163.123,99.3243,102.732,0.000696086,0.042808,20.9459,145.675,-0.310918,0.0,0.0
114,28.25,35.7115,37.2645,162.075,99.2953,102.661,0.000730016,0.0428102,20.9459,145.675,-0.307242,0.0,0.0
116,28.75,35.3917,36.7612,159.687,99.2551,102.971,0.000757499,0.042798,20.946,145.564,-0.338793,0.0,0.0
118,29.25,35.6564,36.7431,160.908,99.2345,102.124,0.000826127,0.0427881,20.946,145.585,-0.26458,0.0,0.0
120,29.75,35.6093,37.5179,156.681,99.1854,102.561,0.000881715,0.0427948,20.946,145.524,-0.308419,0.0,0.0
122,30.25,35.6396,37.1912,158.065,99.156,101.585,0.000971912,0.0428003,20.946,145.514,-0.22309,0.0,0.0
124,30.75,35.757,36.9698,158.294,99.117,102.256,0.00104497,0.0428047,20.946,145.424,-0.287355,0.0,0.0
126,31.25,35.8878,37.213,161.486,99.0832,102.078,0.00110415,0.0428547,20.946,145.564,-0.274418,0.0,0.0
128,31.75,35.84,37.2152,157.332,99.0356,101.294,0.00121114,0.042937,20.9458,145.034,-0.207832,0.0,0.0
130,32.25,35.0896,37.2298,157.976,99.0207,103.657,0.0012978,0.0430502,20.9454,145.134,-0.421771,0.0,1.0
132,32.75,35.321,37.0477,151.233,98.9519,104.165,0.00141077,0.0431836,20.945,145.244,-0.473209,0.0,1.0
134,33.25,35.3696,37.901,143.103,98.939,101.756,0.00150228,0.0433212,20.9448,145.224,-0.258717,0.0,1.0
136,33.75,35.8389,38.5923,141.121,98.9064,101.259,0.00161021,0.0434326,20.9446,145.184,-0.216668,0.0,1.0
138,34.25,36.5076,39.3489,140.028,98.8899,101.34,0.00172808,0.0435925,20.9448,144.994,-0.225558,0.0,1.0
140,34.75,36.265,40.9687,139.13,98.8585,100.521,0.00185809,0.0437848,20.945,144.864,-0.153737,0.0,1.0
142,35.25,36.9922,42.9965,137.893,98.8275,99.6571,0.00199449,0.0439406,20.9448,144.784,-0.0770474,0.0,1.0
144,35.75,37.553,44.3755,141.779,98.7675,100.567,0.00210497,0.0441698,20.9445,144.734,-0.166408,0.0,1.0
146,36.25,38.0167,46.056,141.223,98.7683,100.334,0.00225038,0.0443554,20.9444,144.704,-0.144996,0.0,1.0
148,36.75,39.0091,47.0786,135.587,98.7309,100.116,0.0024185,0.0445058,20.9442,144.604,-0.12841,0.0,1.0
150,37.25,38.8852,47.955,137.507,98.6922,101.057,0.00259538,0.0447601,20.9441,144.534,-0.218215,0.0,1.0
152,37.75,39.3428,48.8443,147.328,98.6705,102.461,0.00277528,0.0449661,20.944,144.353,-0.347408,0.0,1.0
154,38.25,40.0595,50.3258,145.974,98.6351,101.783,0.00292101,0.045295,20.9439,144.243,-0.28959,0.0,1.0
156,38.75,40.1052,50.9976,141.547,98.6141,102.073,0.00311782,0.0455614,20.9439,144.273,-0.317762,0.0,1.0
158,39.25,40.6364,51.5875,144.203,98.5876,101.851,0.00327723,0.0460423,20.9438,144.333,-0.300173,0.0,1.0
160,39.75,40.8377,52.5661,142.125,98.5735,102.16,0.00348784,0.0464319,20.9433,144.163,-0.329414,0.0,1.0
162,40.25,40.7842,52.3933,149.115,98.54,102.705,0.00365843,0.0482084,20.943,144.093,-0.381603,0.0,1.0
164,40.75,41.2181,53.0183,146.11,98.5312,102.66,0.00384634,0.0496473,20.9426,144.073,-0.378335,0.0,1.0
166,41.25,41.8346,53.0544,145.64,98.5082,103.495,0.00399856,0.0565964,20.9424,144.093,-0.455163,0.0,0.0
168,41.75,41.8604,53.7469,146.003,98.4756,103.507,0.00412185,0.0622252,20.9413,144.033,-0.459258,0.0,0.0
170,42.25,42.2045,54.543,148.676,98.4527,103.205,0.00422171,0.0747566,20.9395,144.013,-0.434508,0.0,0.0
172,42.75,42.1583,54.1612,152.341,98.4378,103.605,0.0043026,0.0920819,20.9381,144.013,-0.47153,0.0,0.0
174,43.25,42.5985,54.1902,145.149,98.4346,103.221,0.00429673,0.106115,20.9281,143.753,-0.437636,0.0,0.0
176,43.75,42.0977,53.9682,152.031,98.4165,103.687,0.00429197,0.139614,20.9201,143.763,-0.480878,0.0,0.0
178,44.25,42.4433,54.2167,149.972,98.4088,103.509,0.00421673,0.166747,20.9031,143.723,-0.465735,0.0,0.0
180,44.75,42.8114,54.2599,145.773,98.3762,103.486,0.00415578,0.197245,20.88,143.723,-0.466757,0.0,0.0
182,45.25,43.0144,53.8765,156.669,98.3947,103.626,0.004079,0.229615,20.8498,143.753,-0.477485,0.0,0.0
184,45.75,42.9319,53.8111,149.608,98.373,103.475,0.00399213,0.259623,20.8149,143.743,-0.46607,0.0,0.0
186,46.25,43.3751,53.2853,151.369,98.381,103.274,0.00389638,0.287337,20.7867,143.703,-0.447387,0.0,0.0
188,46.75,42.5133,53.6394,154.964,98.371,103.519,0.00379599,0.309786,20.7423,143.683,-0.470159,0.0,0.0
190,47.25,43.2095,53.7011,148.033,98.3665,103.637,0.003682,0.329739,20.7063,143.673,-0.481112,0.0,0.0
192,47.75,43.3613,53.4245,152.767,98.3565,103.67,0.00356025,0.344501,20.6758,143.473,-0.484908,0.0,0.0
194,48.25,43.3463,53.7486,154.396,98.3766,103.977,0.003435,0.3552,20.6511,143.573,-0.510346,0.0,0.0
196,48.75,43.4381,53.3807,147.784,98.3959,104.014,0.00336898,0.359761,20.6406,143.473,-0.511761,0.0,0.0
198,49.25,43.4861,53.3245,154.132,98.3858,104.195,0.0032561,0.36425,20.6226,143.423,-0.528761,0.0,0.0
200,49.75,43.2999,53.5982,149.194,98.3774,103.969,0.00314138,0.364907,20.6081,143.423,-0.50956,0.0,0.0
202,50.25,42.6961,53.5519,153.832,98.3987,103.745,0.00302751,0.365439,20.5963,143.483,-0.487635,0.0,0.0
204,50.75,43.3854,52.352,150.759,98.4104,103.899,0.00292664,0.359147,20.5867,143.392,-0.500233,0.0,0.0
206,51.25,43.009,52.7127,151.059,98.4358,104.306,0.00283715,0.354051,20.5822,143.433,-0.533846,0.0,0.0
208,51.75,43.5895,52.6486,151.285,98.4362,104.164,0.00276002,0.345033,20.5815,143.372,-0.521264,0.0,0.0
210,52.25,43.678,52.2516,157.823,98.4603,104.413,0.00269336,0.33773,20.5879,143.282,-0.54108,0.0,0.0
212,52.75,43.5534,52.2046,151.65,98.466,104.26,0.00263936,0.327643,20.5932,143.332,-0.526985,0.0,0.0
214,53.25,43.9812,52.255,158.72,98.4974,104.236,0.00257922,0.319473,20.5974,143.342,-0.521919,0.0,0.0
216,53.75,43.4742,51.9534,148.676,98.5199,104.176,0.00253051,0.312855,20.6048,143.342,-0.514518,0.0,0.0
218,54.25,43.1215,52.1036,147.737,98.5356,104.379,0.00249105,0.302805,20.6143,143.242,-0.530986,0.0,0.0
220,54.75,43.5679,51.6347,148.508,98.5489,104.311,0.00245656,0.294665,20.6243,143.122,-0.52375,0.0,0.0
222,55.25,42.9219,51.2853,149.544,98.59,104.537,0.00242863,0.286945,20.6344,143.072,-0.539837,0.0,0.0
224,55.75,43.1001,51.3218,157.277,98.6181,104.156,0.0024238,0.279678,20.6426,143.142,-0.503531,0.0,0.0
226,56.25,43.3146,50.6311,149.94,98.6355,104.094,0.00241988,0.273792,20.6521,143.112,-0.496453,0.0,0.0
228,56.75,43.2961,51.155,153.227,98.6737,104.301,0.00241671,0.267131,20.6599,143.042,-0.511158,0.0,0.0
230,57.25,43.2103,50.3684,151.865,98.6898,104.596,0.00243475,0.261735,20.6662,143.072,-0.535727,0.0,0.0
232,57.75,43.7098,50.5054,149.491,98.7369,104.719,0.0024679,0.256042,20.6734,143.012,-0.542139,0.0,0.0
234,58.25,43.3233,50.5617,154.263,98.7659,104.629,0.00251404,0.250241,20.6793,143.102,-0.531504,0.0,0.0
236,58.75,42.8208,50.1665,148.434,98.7909,104.595,0.00256878,0.244754,20.6863,142.932,-0.52624,0.0,0.0
238,59.25,42.9418,50.2945,149.92,98.8303,104.842,0.00264242,0.239601,20.692,142.942,-0.544222,0.0,0.0
240,59.75,42.9499,50.1282,153.035,98.8823,104.496,0.00272845,0.234751,20.6992,142.952,-0.508962,0.0,0.0
242,60.25,43.2407,50.0469,151.144,98.9145,104.587,0.00282948,0.230216,20.705,142.872,-0.513955,0.0,0.0
244,60.75,43.1748,50.0051,153.102,98.9664,104.808,0.00293953,0.225937,20.7133,142.892,-0.528611,0.0,0.0
246,61.25,43.5198,50.2086,157.752,98.9757,104.618,0.00304938,0.221927,20.7207,142.822,-0.511026,0.0,0.0
248,61.75,43.4653,50.4828,153.716,99.0139,104.331,0.00315699,0.218126,20.7273,142.822,-0.482161,0.0,0.0
250,62.25,43.3841,49.8395,153.146,99.0554,104.565,0.00325552,0.21455,20.7326,142.772,-0.498876,0.0,0.0
252,62.75,43.8339,48.6545,154.525,99.0848,104.446,0.00334556,0.211653,20.7383,142.762,-0.485697,0.0,0.0
254,63.25,43.8483,49.5919,151.554,99.1089,104.241,0.00341848,0.208102,20.7429,142.712,-0.465306,0.0,0.0
256,63.75,43.7059,49.2542,150.166,99.1733,104.512,0.00348892,0.205225,20.7473,142.662,-0.483284,0.0,0.0
258,64.25,43.519,49.7701,153.074,99.1979,104.864,0.00355621,0.202363,20.7515,142.652,-0.512011,0.0,0.0
260,64.75,43.3675,50.0943,148.566,99.2418,104.999,0.00362343,0.199566,20.7549,142.672,-0.519746,0.0,0.0
262,65.25,43.2601,49.8739,154.447,99.2603,104.35,0.00368932,0.1973,20.7585,142.582,-0.460888,0.0,0.0
264,65.75,43.722,50.2028,151.848,99.313,103.787,0.00376004,0.194837,20.7614,142.432,-0.406114,0.0,0.0
266,66.25,43.2786,50.6766,152.57,99.3235,104.463,0.00383294,0.192842,20.7644,142.412,-0.464985,0.0,0.0
268,66.75,43.844,50.3091,146.324,99.373,104.38,0.00391411,0.190927,20.7672,142.412,-0.453041,0.0,0.0
270,67.25,44.2607,50.6856,145.951,99.4012,104.498,0.00399976,0.189376,20.77,142.392,-0.46088,0.0,0.0
272,67.75,43.6493,50.6327,147.721,99.4382,103.73,0.00406914,0.187868,20.7727,142.332,-0.389461,0.0,0.0
274,68.25,44.324,50.9404,147.18,99.4519,104.13,0.00418784,0.186646,20.7751,142.231,-0.423695,0.0,0.0
276,68.75,43.8321,51.533,147.606,99.4781,104.006,0.00428398,0.185566,20.7773,142.271,-0.410234,0.0,0.0
278,69.25,44.3067,51.6568,146.071,99.497,104.172,0.00440783,0.184609,20.779,142.221,-0.423174,0.0,0.0
280,69.75,44.1796,52.0617,145.098,99.5288,103.789,0.00450815,0.183941,20.7804,142.201,-0.386274,0.0,0.0
282,70.25,44.3361,51.8513,148.4,99.555,104.212,0.00458941,0.183497,20.7815,142.181,-0.421406,0.0,0.0
284,70.75,44.936,52.3122,142.44,99.594,103.828,0.00468207,0.183137,20.7825,142.151,-0.38374,0.0,0.0
286,71.25,44.9763,52.6605,148.866,99.6037,103.856,0.00475713,0.183538,20.7832,142.041,-0.385365,0.0,0.0
288,71.75,44.6693,53.1649,143.356,99.6355,103.571,0.00480898,0.183863,20.7838,142.091,-0.357042,0.0,0.0
290,72.25,45.1543,53.2179,149.682,99.6315,104.305,0.00485097,0.185294,20.7843,141.881,-0.422506,0.0,0.0
292,72.75,45.5547,53.4199,155.473,99.6762,104.495,0.00484155,0.186453,20.7845,141.941,-0.435145,0.0,0.0
294,73.25,45.4028,53.6388,153.285,99.6693,104.019,0.00483391,0.188419,20.7844,141.821,-0.39368,0.0,0.0
296,73.75,45.4751,54.0977,148.092,99.706,104.097,0.00475627,0.190934,20.7834,141.751,-0.397231,0.0,0.0
298,74.25,45.7356,53.9658,152.336,99.7257,104.511,0.00469339,0.194098,20.7818,141.731,-0.431983,0.0,0.0
300,74.75,46.0482,54.1544,148.592,99.7358,104.583,0.00454823,0.197674,20.7805,141.791,-0.437414,0.0,0.0
302,75.25,45.9294,54.563,151.31,99.716,103.501,0.00443066,0.201991,20.7768,141.741,-0.343391,0.0,0.0
304,75.75,45.9239,54.7472,148.4,99.7358,104.347,0.00427334,0.206766,20.7738,141.701,-0.41657,0.0,0.0
306,76.25,46.0286,54.9772,148.983,99.745,104.771,0.00409004,0.210635,20.7713,141.661,-0.453125,0.0,0.0
308,76.75,45.9468,55.1143,150.295,99.743,104.653,0.00394157,0.213768,20.768,141.541,-0.442886,0.0,0.0
310,77.25,46.029,54.8366,153.764,99.7515,104.434,0.0038213,0.218558,20.764,141.521,-0.422853,0.0,0.0
312,77.75,45.861,54.5964,152.044,99.7426,104.52,0.00372389,0.224465,20.7608,141.481,-0.431181,0.0,0.0
314,78.25,45.7928,54.296,151.991,99.7325,104.093,0.00354243,0.22925,20.7572,141.551,-0.394394,0.0,0.0
316,78.75,46.0391,54.7513,150.692,99.7426,103.639,0.00339545,0.234277,20.7534,141.491,-0.353176,0.0,0.0
318,79.25,46.2973,54.7272,154.103,99.7237,104.52,0.00327134,0.239385,20.7485,141.451,-0.432984,0.0,0.0
320,79.75,46.2065,54.5,150.023,99.7317,104.616,0.00317081,0.244045,20.7429,141.481,-0.440722,0.0,0.0
322,80.25,46.5849,54.4174,155.841,99.7044,104.598,0.00309571,0.248289,20.7367,141.401,-0.441621,0.0,0.0
324,80.75,46.4193,54.3141,150.708,99.7164,105.144,0.00303487,0.252407,20.7302,141.411,-0.488483,0.0,0.0
326,81.25,46.8027,54.3217,156.149,99.6935,105.122,0.00299571,0.255742,20.7238,141.371,-0.488658,0.0,0.0
328,81.75,46.039,53.926,157.891,99.6786,104.749,0.00296399,0.258826,20.7176,141.301,-0.457311,0.0,0.0
330,82.25,46.4077,53.8889,151.529,99.6508,104.927,0.00295094,0.261324,20.7121,141.291,-0.475498,0.0,0.0
332,82.75,46.2891,53.4346,153.877,99.6407,105.679,0.00294038,0.263397,20.7072,141.13,-0.542243,0.0,0.0
334,83.25,46.004,53.3191,154.85,99.6307,105.37,0.00295333,0.265077,20.7033,140.98,-0.516236,0.0,0.0
336,83.75,46.1715,53.0654,156.344,99.6226,105.701,0.00296383,0.266148,20.7001,141.281,-0.54591,0.0,0.0
338,84.25,46.0368,52.9337,153.459,99.6097,105.49,0.00297233,0.266757,20.6975,140.91,-0.528688,0.0,0.0
340,84.75,45.9842,52.5609,156.237,99.5916,105.677,0.00301721,0.26725,20.6954,141.09,-0.546627,0.0,0.0
342,85.25,45.8151,51.8012,156.525,99.5771,106.02,0.00305356,0.266589,20.6937,141.15,-0.577885,0.0,0.0
344,85.75,46.0919,51.8449,159.024,99.58,105.537,0.00310763,0.266053,20.6923,141.17,-0.535487,0.0,0.0
346,86.25,45.9674,51.7019,156.504,99.5433,105.593,0.00317359,0.264857,20.6916,141.06,-0.543833,0.0,0.0
348,86.75,45.8873,51.108,153.769,99.5393,105.634,0.00325441,0.263202,20.6911,141.04,-0.547758,0.0,0.0
350,87.25,45.1621,50.6758,161.111,99.5002,105.53,0.00334453,0.260954,20.6917,140.94,-0.542275,0.0,0.0
352,87.75,45.4626,50.5792,152.726,99.4865,105.49,0.00344563,0.258318,20.6922,141.07,-0.540041,0.0,0.0
354,88.25,45.1075,50.3968,155.296,99.4608,105.168,0.00355282,0.256182,20.6933,141.1,-0.514306,0.0,0.0
356,88.75,45.2594,50.0281,156.051,99.4378,105.458,0.00363963,0.251716,20.6948,141.1,-0.541806,0.0,0.0
358,89.25,45.0724,49.4306,154.512,99.4177,105.607,0.00378763,0.248099,20.6976,141.2,-0.556655,0.0,0.0
360,89.75,44.6902,49.2917,158.778,99.394,105.574,0.00390752,0.243919,20.7014,141.08,-0.556004,0.0,0.0
362,90.25,45.3909,48.7242,158.653,99.3992,105.51,0.00409906,0.239409,20.7056,141.15,-0.549916,0.0,0.0
364,90.75,44.902,48.2939,148.547,99.3658,105.51,0.00425421,0.234373,20.71,140.96,-0.552961,0.0,0.0
366,91.25,44.4911,47.9248,154.415,99.3412,105.323,0.00437989,0.22905,20.7136,141,-0.538898,0.0,0.0
368,91.75,44.5231,47.9252,159.142,99.3299,105.587,0.00463403,0.224738,20.7184,140.99,-0.563019,0.0,0.0
370,92.25,44.6535,47.7096,152.855,99.3158,105.481,0.00483989,0.218244,20.7239,141.06,-0.555061,0.0,0.0
372,92.75,44.0577,47.7586,161.683,99.3034,105.411,0.00512741,0.212985,20.7296,141.12,-0.550181,0.0,0.0
374,93.25,44.11,47.0289,157.833,99.2857,105.278,0.00536029,0.206112,20.7352,141.04,-0.540114,0.0,0.0
376,93.75,43.5003,46.9777,162.001,99.2696,105.209,0.00565458,0.200545,20.7414,141.04,-0.535612,0.0,0.0
378,94.25,43.8556,46.2787,159.888,99.2607,105.448,0.00589295,0.193288,20.7478,141.11,-0.557378,0.0,0.0
380,94.75,43.5982,46.252,157.325,99.2623,105.334,0.00617903,0.18741,20.7551,141.05,-0.547248,0.0,0.0
382,95.25,43.6286,46.1817,159.687,99.2551,105.143,0.00641076,0.180217,20.7629,141.07,-0.53112,0.0,0.0
384,95.75,44.1251,45.1426,157.931,99.2063,105.555,0.00669945,0.17439,20.7711,141,-0.571748,0.0,0.0
386,96.25,43.463,45.893,156.958,99.2184,105.502,0.00693329,0.168317,20.7794,141.05,-0.565939,0.0,0.0
388,96.75,42.6229,45.3335,152.094,99.2027,105.354,0.00718426,0.16218,20.7861,141.01,-0.55451,0.0,0.0
390,97.25,42.8661,44.6283,161.838,99.214,105.602,0.00744294,0.157209,20.7942,141,-0.57513,0.0,0.0
392,97.75,42.9126,44.4999,156.525,99.2317,105.367,0.00765248,0.151165,20.8007,140.91,-0.55295,0.0,0.0
394,98.25,42.9043,44.7628,160.733,99.3114,105.532,0.00787633,0.14627,20.806,140.92,-0.559998,0.0,0.0
396,98.75,43.1339,44.6682,154.845,99.3803,105.599,0.00810637,0.142304,20.8124,140.87,-0.559428,0.0,0.0
398,99.25,42.9536,44.3719,155.115,99.4463,105.738,0.0082927,0.137374,20.8175,140.93,-0.565411,0.0,0.0
400,99.75,42.6451,43.824,156.474,99.5019,105.844,0.00847101,0.13338,20.8216,140.8,-0.569561,0.0,0.0
402,100.25,43.0668,43.8169,155.38,99.5739,105.813,0.00861545,0.130145,20.8259,140.8,-0.560148,0.0,0.0
404,100.75,42.622,43.7044,158.565,99.6162,105.812,0.00873244,0.126297,20.8302,140.79,-0.556128,0.0,0.0
406,101.25,42.4321,43.1706,158.345,99.6701,105.897,0.0087946,0.123181,20.8352,140.88,-0.55855,0.0,0.0
408,101.75,41.8795,43.0548,154.311,99.7072,105.975,0.00884495,0.120052,20.8393,140.77,-0.561887,0.0,0.0
410,102.25,42.0025,43.2032,161.554,99.7672,105.946,0.00885447,0.117517,20.8443,140.98,-0.553876,0.0,0.0
412,102.75,42.2846,43.2647,159.964,99.7829,105.93,0.00884779,0.114981,20.8484,140.77,-0.55103,0.0,0.0
414,103.25,41.9474,42.7239,155.08,99.8292,106.255,0.00883813,0.1139,20.8506,140.81,-0.574995,0.0,0.0
416,103.75,42.2677,43.0288,157.752,99.8481,105.941,0.0088216,0.111821,20.8544,140.85,-0.54592,0.0,0.0
418,104.25,42.0134,42.583,154.491,99.8984,106.168,0.00879863,0.109931,20.8575,140.91,-0.561003,0.0,0.0
420,104.75,42.2251,42.8973,158.826,99.9093,106.34,0.00877139,0.108399,20.8604,140.9,-0.574982,0.0,0.0
422,105.25,41.4742,42.6211,155.151,99.9399,106.351,0.00874933,0.106782,20.8627,140.97,-0.573068,0.0,0.0
424,105.75,41.692,42.4747,161.593,99.9709,106.234,0.00871585,0.105472,20.8649,140.83,-0.560047,0.0,0.0
426,106.25,41.2233,41.5045,160.904,100.005,105.843,0.00868874,0.10414,20.8668,140.82,-0.522901,0.0,0.0
428,106.75,40.3357,40.6456,158.172,99.9987,106.236,0.00865514,0.103061,20.8684,140.76,-0.557701,0.0,0.0
430,107.25,40.0368,40.9543,157.055,100.006,106.335,0.00861746,0.102068,20.8697,140.9,-0.565608,0.0,0.0
432,107.75,40.4272,41.0363,159.385,100.019,106.155,0.00857463,0.101157,20.8707,140.85,-0.548779,0.0,0.0
434,108.25,39.6582,40.6259,159.969,100.028,106.333,0.00852886,0.100293,20.872,140.85,-0.563428,0.0,0.0
436,108.75,40.3385,40.3838,159.3,100.025,106.36,0.00846711,0.0994786,20.873,140.85,-0.565948,0.0,0.0
438,109.25,40.0344,40.8174,154.587,100.039,106.248,0.0084171,0.0988192,20.8743,140.91,-0.555045,0.0,0.0
440,109.75,40.1714,40.5992,158.058,100.002,106.447,0.00835678,0.0981047,20.8753,140.77,-0.575688,0.0,0.0
442,110.25,39.685,40.4306,155.862,99.9966,106.355,0.0082901,0.097526,20.8762,140.82,-0.568156,0.0,0.0
444,110.75,39.6784,40.4875,158.354,100.014,106.359,0.00823609,0.0970723,20.8769,140.75,-0.566934,0.0,0.0
446,111.25,39.7145,39.66,157.135,99.9942,106.438,0.00815994,0.0967048,20.8774,140.83,-0.575592,0.0,0.0
448,111.75,39.7767,40.2697,154.25,99.9813,106.343,0.00809825,0.0963834,20.8778,140.7,-0.568549,0.0,0.0
450,112.25,39.5296,40.0197,157.836,99.9491,106.31,0.00803056,0.0961017,20.8782,140.78,-0.568633,0.0,0.0
452,112.75,39.5168,39.83,156.279,99.9214,106.268,0.00795978,0.0958735,20.8785,140.79,-0.567611,0.0,0.0
454,113.25,39.8252,39.8872,154.818,99.9117,106.352,0.00789631,0.0955685,20.8787,140.29,-0.575721,0.0,0.0
456,113.75,39.5636,39.6619,156.328,99.8763,106.25,0.00783938,0.0953215,20.8789,140.6,-0.570165,0.0,0.0
458,114.25,39.2616,39.3569,160.953,99.8581,106.211,0.00778987,0.0949112,20.8791,140.78,-0.568466,0.0,0.0
460,114.75,39.3882,39.5592,152.842,99.8356,106.319,0.0077467,0.0945789,20.8792,140.71,-0.579964,0.0,0.0
462,115.25,39.3344,39.5417,155.863,99.8042,106.117,0.00771172,0.0941147,20.8793,140.75,-0.565254,0.0,0.0
464,115.75,39.2862,39.4587,153.142,99.7615,105.965,0.00767046,0.0937386,20.8798,140.75,-0.556006,0.0,0.0
466,116.25,39.4799,39.6373,159.561,99.7257,105.999,0.00761934,0.0932841,20.8803,140.77,-0.562322,0.0,0.0
468,116.75,39.3183,39.4166,159.667,99.6782,106.055,0.007562,0.0929158,20.881,140.7,-0.571539,0.0,0.0
470,117.25,39.3402,39.2388,158.985,99.6367,105.888,0.00751556,0.0926029,20.8817,140.72,-0.560889,0.0,0.0
472,117.75,39.0477,39.0946,158.804,99.5779,105.65,0.00741196,0.0923362,20.8824,140.71,-0.545579,0.0,0.0
474,118.25,38.8788,39.2058,162.054,99.5449,105.661,0.00732804,0.0920886,20.8832,140.7,-0.549551,0.0,0.0
476,118.75,38.625,39.6164,160.774,99.5341,105.736,0.00726007,0.0918596,20.8839,140.68,-0.557119,0.0,0.0
478,119.25,38.9512,39.2842,154.944,99.5534,105.792,0.00712766,0.0916742,20.8845,140.69,-0.560221,0.0,0.0
480,119.75,38.5965,39.0915,158.849,99.5634,105.844,0.0070204,0.0913591,20.8851,140.7,-0.563803,0.0,0.0
482,120.25,38.7922,39.0708,155.342,99.5993,105.773,0.00691455,0.0911038,20.8856,140.69,-0.554307,0.0,0.0
484,120.75,39.0801,38.9121,160.822,99.6142,105.73,0.00681174,0.0908103,20.8859,140.68,-0.549219,0.0,0.0
486,121.25,38.4387,38.9444,157.491,99.6484,105.899,0.00671763,0.0904945,20.8862,140.7,-0.560775,0.0,0.0
488,121.75,38.8195,38.8982,159.893,99.6556,105.891,0.00663165,0.0902387,20.8869,140.67,-0.559353,0.0,0.0
490,122.25,39.1072,39.2313,156.617,99.677,105.745,0.00655523,0.0900165,20.8875,140.68,-0.5447,0.0,0.0
492,122.75,39.0774,39.0971,158.075,99.7313,105.901,0.00648725,0.0898365,20.8879,140.67,-0.553269,0.0,0.0
494,123.25,38.6452,39.0494,158.745,99.7575,105.776,0.00643218,0.0896355,20.8883,140.66,-0.539946,0.0,0.0
496,123.75,38.363,39.1472,157.386,99.7591,105.951,0.00638149,0.089423,20.8886,140.65,-0.555049,0.0,0.0
498,124.25,38.317,38.5471,156.595,99.7957,105.663,0.00633494,0.089251,20.8891,140.65,-0.526572,0.0,0.0
500,124.75,38.2952,38.5042,153.917,99.8497,106.067,0.0062898,0.0891265,20.8894,140.64,-0.556713,0.0,0.0
502,125.25,38.4065,39.0061,156.172,99.8561,106.218,0.00624654,0.0890258,20.8897,140.65,-0.569294,0.0,0.0
504,125.75,38.9112,38.8946,156.207,99.9069,106.028,0.0062115,0.0888693,20.8899,140.65,-0.548113,0.0,0.0
506,126.25,38.3818,39.0465,155.998,99.927,106.4,0.00617162,0.0887425,20.8901,140.64,-0.578532,0.0,0.0
508,126.75,38.4764,38.3659,154.755,99.9656,106.332,0.00612898,0.0885767,20.8903,140.6,-0.569035,0.0,0.0
510,127.25,38.0953,38.8752,159.5,100.014,106.329,0.0060843,0.0883857,20.8904,140.6,-0.564314,0.0,0.0
512,127.75,38.3905,38.651,156.302,100.018,106.401,0.00603899,0.088231,20.8905,140.63,-0.570251,0.0,0.0
514,128.25,38.799,38.3749,154.64,100.069,106.329,0.00600229,0.087956,20.8906,140.59,-0.559323,0.0,0.0
516,128.75,38.7378,38.5303,158.333,100.131,106.49,0.00595588,0.0877333,20.8907,140.61,-0.567506,0.0,0.0
518,129.25,37.9611,38.7397,155.286,100.142,106.421,0.00591829,0.0874481,20.8907,140.57,-0.56054,0.0,0.0
520,129.75,37.6946,38.6686,156.497,100.17,106.471,0.00587629,0.0872171,20.891,140.6,-0.56231,0.0,0.0
522,130.25,38.3009,38.7144,160.375,100.216,106.504,0.00584227,0.0869402,20.8914,140.57,-0.560935,0.0,0.0
524,130.75,38.1265,39.0078,158.47,100.239,106.708,0.00580527,0.086716,20.8918,140.59,-0.576422,0.0,0.0
526,131.25,38.1483,38.639,156.911,100.259,106.644,0.0057668,0.0864398,20.8921,140.57,-0.569066,0.0,0.0
528,131.75,37.7519,38.5169,157.115,100.324,106.712,0.00571809,0.0861312,20.8923,140.61,-0.568971,0.0,0.0
530,132.25,38.3769,38.7495,158.826,100.315,106.575,0.00566286,0.0858811,20.8929,140.56,-0.557877,0.0,0.0
532,132.75,38.5847,39.1269,157.375,100.367,106.816,0.00561812,0.0855291,20.8934,140.6,-0.57394,0.0,0.0
534,133.25,37.7921,38.9161,157.834,100.351,106.848,0.0055583,0.0852439,20.8939,140.57,-0.578224,0.0,0.0
536,133.75,38.2376,38.6935,154.583,100.403,106.704,0.00548863,0.0849736,20.8942,140.59,-0.560959,0.0,0.0
538,134.25,38.0645,38.9884,157.731,100.398,106.474,0.00542209,0.0847193,20.8945,140.54,-0.541506,0.0,0.0
540,134.75,38.3064,38.8986,159.477,100.449,106.728,0.0053591,0.0844975,20.8947,140.59,-0.558824,0.0,0.0
542,135.25,38.8541,39.0342,155.928,100.47,106.792,0.00530472,0.0843037,20.8948,140.52,-0.562404,0.0,0.0
544,135.75,37.8544,38.8269,162.688,100.439,106.701,0.00525764,0.0841153,20.895,140.59,-0.55742,0.0,0.0
546,136.25,38.3136,38.4984,153.558,100.46,106.663,0.00522018,0.0839344,20.8951,140.51,-0.552194,0.0,0.0
548,136.75,37.1309,38.4159,160.585,100.47,106.591,0.00519044,0.083717,20.8961,140.58,-0.54507,0.0,0.0
550,137.25,37.783,38.0633,158.227,100.47,106.83,0.00516635,0.0834773,20.8969,140.5,-0.565705,0.0,0.0
552,137.75,37.741,38.9708,158.859,100.473,106.7,0.00514684,0.0832831,20.8975,140.56,-0.554284,0.0,0.0
554,138.25,37.7225,38.7283,160.32,100.461,106.705,0.00513103,0.0829754,20.898,140.5,-0.555782,0.0,0.0
556,138.75,37.9805,38.5424,157.594,100.464,106.748,0.00510173,0.0825908,20.8985,140.56,-0.559198,0.0,0.0
558,139.25,37.6489,38.0429,159.778,100.45,106.645,0.005078,0.0822793,20.8988,140.49,-0.551609,0.0,0.0
560,139.75,37.4888,38.3631,158.705,100.424,106.688,0.00505877,0.0819224,20.8991,140.53,-0.557742,0.0,0.0
562,140.25,37.3296,38.2372,160.66,100.416,106.524,0.00501254,0.0816334,20.8991,140.48,-0.544241,0.0,0.0
564,140.75,38.151,38.1479,159.447,100.381,106.495,0.00497509,0.0813098,20.8992,140.54,-0.545002,0.0,0.0
566,141.25,37.3614,38.1797,160.804,100.355,106.578,0.00493669,0.0810476,20.8992,140.48,-0.554555,0.0,0.0
568,141.75,37.5799,38.5449,157.443,100.334,106.649,0.00489833,0.0808117,20.8997,140.53,-0.562664,0.0,0.0
570,142.25,37.6333,38.312,156.561,100.307,106.672,0.00486591,0.0805994,20.9001,140.47,-0.567041,0.0,0.0
572,142.75,37.4623,38.4804,157.704,100.265,106.403,0.00483844,0.0803725,20.9004,140.52,-0.547643,0.0,0.0
574,143.25,37.1919,38.6315,160.166,100.209,106.566,0.00481888,0.0801392,20.9006,140.47,-0.566847,0.0,0.0
576,143.75,37.1367,38.2626,158.788,100.189,106.489,0.00480546,0.0798717,20.9008,140.51,-0.562044,0.0,0.0
578,144.25,37.495,38.8099,158.548,100.13,106.384,0.00480466,0.0795845,20.901,140.47,-0.558483,0.0,0.0
580,144.75,37.5204,37.9614,156.458,100.1,106.359,0.0048131,0.079289,20.9011,140.5,-0.559035,0.0,0.0
582,145.25,37.4656,37.9551,160.174,100.034,106.413,0.00483405,0.0789932,20.9012,140.45,-0.569728,0.0,0.0
584,145.75,37.3941,37.8608,161.468,99.983,106.329,0.00486373,0.0787535,20.9013,140.5,-0.567172,0.0,0.0
586,146.25,37.0507,37.7404,161.749,99.9302,106.047,0.00488777,0.0785594,20.9018,140.44,-0.547621,0.0,0.0
588,146.75,36.7519,38.2039,160.225,99.8815,106.21,0.00490725,0.0782681,20.9022,140.49,-0.566204,0.0,0.0
590,147.25,36.861,37.9191,159.181,99.811,105.841,0.0049385,0.078032,20.9026,140.48,-0.540696,0.0,0.0
592,147.75,36.8916,37.7041,157.901,99.7716,105.864,0.00497775,0.0777781,20.9028,140.47,-0.546327,0.0,0.0
594,148.25,36.9142,38.2404,158.01,99.6887,105.899,0.0050177,0.077516,20.9029,140.43,-0.556998,0.0,0.0
596,148.75,37.5101,37.7905,158.861,99.6102,105.714,0.00502505,0.0773036,20.903,140.46,-0.548194,0.0,0.0
598,149.25,36.8557,37.6637,156.367,99.5715,105.677,0.00503762,0.0770572,20.9031,140.47,-0.548543,0.0,0.0
600,149.75,36.943,38.007,161.598,99.5087,105.72,0.00504141,0.0768575,20.9032,140.46,-0.55807,0.0,0.0
602,150.25,37.3181,38.4045,158.025,99.4278,105.63,0.00504448,0.076666,20.9033,140.44,-0.557768,0.0,0.0
604,150.75,37.1221,37.8951,159.888,99.3754,105.589,0.00504824,0.0765109,20.9033,140.46,-0.55896,0.0,0.0
606,151.25,37.2435,38.0816,159.365,99.2989,105.568,0.00505129,0.0763774,20.9034,140.44,-0.56428,0.0,0.0
608,151.75,37.2166,38.2516,158.514,99.2269,105.117,0.00505174,0.0762622,20.9034,140.45,-0.531466,0.0,0.0
610,152.25,36.9492,37.8951,157.453,99.1846,105.32,0.00505029,0.076114,20.9039,140.44,-0.55317,0.0,0.0
612,152.75,37.3208,38.08,158.941,99.1041,105.185,0.00504238,0.0759446,20.9043,140.46,-0.54888,0.0,0.0
614,153.25,37.1058,37.7031,162.553,99.0328,105.014,0.00502993,0.0758074,20.9046,140.44,-0.540526,0.0,0.0
616,153.75,37.3266,38.0646,156.863,98.9793,105.07,0.00501983,0.0755771,20.9048,140.44,-0.550383,0.0,0.0
618,154.25,37.0343,37.6649,157.062,98.9173,104.918,0.00499552,0.0753906,20.905,140.45,-0.542837,0.0,0.0
620,154.75,36.7919,37.8682,159.042,98.8694,104.868,0.00496131,0.075216,20.9052,140.45,-0.542912,0.0,0.0
622,155.25,37.1768,38.2058,164.809,98.8259,104.839,0.00492284,0.0750535,20.9053,140.42,-0.544418,0.0,0.0
624,155.75,37.2474,38.09,158.604,98.7683,105.017,0.004882,0.0749218,20.9054,140.44,-0.565447,0.0,0.0
626,156.25,36.9217,37.7979,154.634,98.7128,104.768,0.00484892,0.0747407,20.9055,140.42,-0.548682,0.0,0.0
628,156.75,37.3301,37.7226,153.93,98.664,104.581,0.00480426,0.074594,20.9056,140.42,-0.536774,0.0,0.0
630,157.25,37.1472,37.6626,156.482,98.6318,104.748,0.00476809,0.0743561,20.9056,140.42,-0.554559,0.0,0.0
632,157.75,36.8014,37.5307,156.823,98.5976,104.563,0.00472093,0.0741634,20.9057,140.4,-0.541461,0.0,0.0
634,158.25,37.0589,38.2577,157.969,98.5634,104.616,0.00465504,0.0738772,20.9057,140.4,-0.549334,0.0,0.0
636,158.75,36.9203,37.5768,163.237,98.5239,104.538,0.00463012,0.0738001,20.906,140.39,-0.546121,0.0,0.0
638,159.25,36.8557,37.794,158.652,98.5203,104.436,0.0045875,0.0736695,20.9064,140.4,-0.537481,0.0,0.0
640,159.75,37.0102,37.4317,157.25,98.4946,104.446,0.00454688,0.0735646,20.9067,140.37,-0.540763,0.0,0.0
642,160.25,36.6061,37.5614,154.089,98.4607,104.557,0.00450848,0.073464,20.907,140.38,-0.553666,0.0,0.0
644,160.75,36.5595,37.5162,157.47,98.4422,104.458,0.00447738,0.0733685,20.9072,140.35,-0.54675,0.0,0.0
646,161.25,36.8181,37.1577,159.503,98.4479,104.365,0.00445729,0.073291,20.9075,140.37,-0.538001,0.0,0.0
648,161.75,36.7404,37.8774,153.85,98.4225,104.379,0.00444101,0.0732127,20.9078,140.33,-0.541575,0.0,0.0
650,162.25,36.9311,37.73,158.737,98.4257,104.529,0.00442984,0.0731351,20.908,140.34,-0.554499,0.0,0.0
652,162.75,36.9497,37.6743,158.762,98.4217,104.47,0.00442261,0.0730723,20.9082,140.32,-0.549708,0.0,0.0
654,163.25,36.6386,37.3376,158.799,98.4293,104.449,0.00441272,0.0729024,20.9084,140.38,-0.547086,0.0,0.0
656,163.75,36.321,38.0448,156.109,98.4201,104.625,0.00440109,0.0727648,20.9085,140.29,-0.563508,0.0,0.0
658,164.25,36.618,37.0684,160.186,98.4462,104.579,0.00439167,0.0725789,20.9086,140.31,-0.557035,0.0,0.0
660,164.75,36.4609,37.2905,157.417,98.4438,104.55,0.00437003,0.0724284,20.9089,140.27,-0.554652,0.0,0.0
662,165.25,36.7699,37.3385,163.024,98.4809,104.515,0.00435249,0.072247,20.9094,140.35,-0.548138,0.0,0.0
664,165.75,36.6499,37.2459,155.267,98.4736,104.626,0.00432556,0.0721,20.9098,140.28,-0.558603,0.0,0.0
666,166.25,36.5342,37.5577,155.373,98.5111,104.486,0.00430374,0.0719661,20.9101,140.31,-0.542756,0.0,0.0
668,166.75,36.5686,37.3875,154.518,98.4994,104.411,0.00428479,0.0718577,20.9103,140.24,-0.537208,0.0,0.0
670,167.25,36.8197,37.5535,158.392,98.5505,104.228,0.00426944,0.0717307,20.9105,140.32,-0.516293,0.0,0.0
672,167.75,36.5804,37.8903,161.002,98.5634,104.533,0.00425701,0.0715926,20.9107,140.23,-0.541995,0.0,0.0
674,168.25,36.7097,37.2723,157.234,98.6,104.782,0.00424694,0.0714808,20.9108,140.29,-0.560516,0.0,0.0
676,168.75,36.568,37.6051,156.928,98.6057,104.708,0.00423878,0.0713511,20.9109,140.23,-0.553476,0.0,0.0
678,169.25,36.9083,37.445,154.758,98.6451,104.896,0.00423553,0.0712108,20.911,140.28,-0.566334,0.0,0.0
680,169.75,37.0148,37.6955,162.249,98.6576,104.814,0.00423591,0.0710972,20.9111,140.21,-0.557956,0.0,0.0
682,170.25,37.1067,37.4887,154.992,98.7095,104.738,0.00423622,0.0710276,20.9111,140.28,-0.546378,0.0,0.0
684,170.75,36.4814,37.4383,160.848,98.7345,104.73,0.00423452,0.0709914,20.9112,140.19,-0.543341,0.0,0.0
686,171.25,36.5892,37.264,159.77,98.7715,104.964,0.00423139,0.0709621,20.9109,140.28,-0.560437,0.0,0.0
688,171.75,36.021,37.5195,158.394,98.7844,105.051,0.00422618,0.0708937,20.9106,140.21,-0.566922,0.0,0.0
690,172.25,36.5879,37.4658,157.195,98.8424,105.036,0.00421954,0.0708384,20.9104,140.26,-0.560161,0.0,0.0
692,172.75,35.8162,36.895,158.624,98.8589,104.892,0.00421417,0.0706449,20.9102,140.22,-0.546002,0.0,0.0
694,173.25,36.3816,37.4265,156.115,98.9028,104.922,0.00421745,0.0704882,20.9101,140.25,-0.544567,0.0,0.0
696,173.75,36.2594,37.2937,164.229,98.9265,105.111,0.00422012,0.0703222,20.91,140.21,-0.558919,0.0,0.0
698,174.25,36.3547,36.7885,160.275,98.9616,105.243,0.00423628,0.0701525,20.9101,140.27,-0.567224,0.0,0.0
700,174.75,36.4844,36.9061,162.316,98.9849,105.062,0.00424938,0.0699916,20.9104,140.21,-0.549154,0.0,0.0
702,175.25,36.6964,37.1362,157.883,99.0256,105.024,0.00425999,0.0698402,20.9107,140.26,-0.542067,0.0,0.0
704,175.75,36.2787,37.398,163.138,99.0574,105.044,0.00430299,0.0697175,20.9109,140.21,-0.540839,0.0,0.0
706,176.25,35.9683,37.4153,154.872,99.0892,105.164,0.00433782,0.0696494,20.9111,140.24,-0.548428,0.0,0.0
708,176.75,36.2819,37.3814,161.769,99.1037,105.349,0.00439283,0.0696224,20.9112,140.19,-0.563284,0.0,0.0
710,177.25,36.1644,37.1579,158.004,99.1504,105.215,0.00443738,0.0696084,20.9113,140.25,-0.54717,0.0,0.0
712,177.75,36.5976,37.1435,154.863,99.1717,105.352,0.00447951,0.069604,20.9114,140.21,-0.557228,0.0,0.0
714,178.25,36.3322,36.9541,157.445,99.2039,105.313,0.00451908,0.0695692,20.9115,140.26,-0.550835,0.0,0.0
716,178.75,36.5291,36.5033,158.377,99.2313,105.204,0.00455113,0.0695129,20.9116,140.19,-0.538678,0.0,0.0
718,179.25,36.388,37.1388,159.401,99.2772,105.49,0.00457709,0.0694047,20.9116,140.25,-0.559457,0.0,0.0
720,179.75,36.3773,37.0432,154.47,99.2792,105.362,0.00459811,0.0692608,20.9117,140.21,-0.548107,0.0,0.0
722,180.25,36.2958,37.1755,157.283,99.3018,105.479,0.00459856,0.0691443,20.9117,140.24,-0.556261,0.0,0.0
724,180.75,36.2194,37.1689,160.024,99.3444,105.468,0.00459891,0.0690201,20.9117,140.2,-0.55133,0.0,0.0
726,181.25,36.5452,36.8061,160.583,99.3831,105.495,0.00457497,0.0689196,20.9117,140.24,-0.550116,0.0,0.0
728,181.75,36.49,36.7615,153.897,99.3839,105.447,0.00455558,0.0688069,20.9118,140.2,-0.545783,0.0,0.0
730,182.25,36.5104,37.105,153.49,99.4109,105.444,0.00453987,0.0686875,20.9118,140.23,-0.543013,0.0,0.0
732,182.75,36.2082,37.5639,156.16,99.439,105.648,0.0044851,0.0685908,20.9118,140.22,-0.558229,0.0,0.0
734,183.25,36.3472,37.195,155.834,99.4455,105.521,0.00444073,0.0684968,20.9118,140.23,-0.546541,0.0,0.0
736,183.75,36.552,37.6452,154.803,99.4777,105.6,0.0043666,0.0684066,20.9118,140.24,-0.550503,0.0,0.0
738,184.25,36.4312,37.3866,158.822,99.5087,105.53,0.00430655,0.0683648,20.9118,140.24,-0.541492,0.0,0.0
740,184.75,36.3575,37.4539,161.268,99.5039,105.659,0.00424453,0.068359,20.912,140.25,-0.553246,0.0,0.0
742,185.25,36.2424,37.1267,159.888,99.5441,105.888,0.00418224,0.0683466,20.9124,140.25,-0.569405,0.0,0.0
744,185.75,36.5804,37.416,155.677,99.5397,105.743,0.00411907,0.0683295,20.9128,140.23,-0.557189,0.0,0.0
746,186.25,36.2949,37.3384,154.605,99.551,105.665,0.0040679,0.0682765,20.913,140.23,-0.549368,0.0,0.0
748,186.75,36.0415,37.2156,155.857,99.5735,105.803,0.00404609,0.0682354,20.9131,140.24,-0.559325,0.0,0.0
750,187.25,36.6903,37.3544,157.661,99.5856,105.706,0.0040126,0.0681652,20.9133,140.22,-0.549767,0.0,0.0
752,187.75,36.7125,37.3948,156.389,99.6033,105.608,0.00399485,0.0680489,20.9135,140.23,-0.539518,0.0,0.0
754,188.25,36.3728,37.6345,154.451,99.625,105.734,0.0039889,0.0679547,20.9132,140.25,-0.548537,0.0,0.0
756,188.75,36.4344,37.4459,156.365,99.6279,105.839,0.00398408,0.0678784,20.9129,140.23,-0.557412,0.0,0.0
758,189.25,36.2757,37.2297,157.469,99.6315,105.754,0.00397951,0.0678166,20.9127,140.2,-0.549661,0.0,0.0
760,189.75,35.8978,36.8612,156.03,99.6395,105.938,0.0039752,0.0677666,20.9125,140.069,-0.564976,0.0,0.0
762,190.25,36.3274,37.0115,159.079,99.6613,105.876,0.00397171,0.0676963,20.9124,140.109,-0.557544,0.0,0.0
764,190.75,36.4416,37.4182,160.638,99.6774,105.862,0.00393317,0.0676394,20.9123,140.129,-0.554873,0.0,0.0
766,191.25,36.3664,37.1323,157.536,99.6629,105.859,0.0038746,0.0675657,20.9122,140.19,-0.555891,0.0,0.0
768,191.75,35.993,37.9191,157.464,99.685,105.897,0.00384999,0.0675059,20.9122,140.15,-0.557172,0.0,0.0
770,192.25,36.0034,36.8803,159.013,99.679,105.745,0.0038079,0.0675169,20.9123,140.18,-0.54446,0.0,0.0
772,192.75,35.8171,36.8822,156.927,99.6979,105.603,0.00375096,0.0675257,20.9124,140.16,-0.530391,0.0,0.0
774,193.25,36.0275,36.6738,158.921,99.7072,105.763,0.00370484,0.0675329,20.9124,140.109,-0.543468,0.0,0.0
776,193.75,36.3252,37.1988,160.928,99.706,105.804,0.00366748,0.0675239,20.9125,140.139,-0.54718,0.0,0.0
778,194.25,35.9976,37.343,153.545,99.7088,105.571,0.00363054,0.0675166,20.9125,140.129,-0.526533,0.0,0.0
780,194.75,36.1813,36.9944,156.959,99.7241,105.686,0.00359461,0.0674716,20.9128,140.129,-0.535184,0.0,0.0
782,195.25,36.1632,36.9415,157.83,99.7193,105.596,0.00356751,0.0674,20.9131,140.139,-0.527773,0.0,0.0
784,195.75,36.3365,37.3769,160.271,99.7285,105.952,0.00354736,0.067342,20.9137,140.17,-0.557929,0.0,0.0
786,196.25,36.3944,37.4408,162.204,99.7257,105.595,0.00353104,0.0671763,20.9142,140.16,-0.527069,0.0,0.0
788,196.75,36.1084,37.1581,159.069,99.7261,105.74,0.00351782,0.0670421,20.9147,140.18,-0.53973,0.0,0.0
790,197.25,36.0666,36.9738,157.672,99.7124,105.766,0.00350711,0.0668709,20.915,140.139,-0.543199,0.0,0.0
792,197.75,36.3711,36.8565,159.918,99.7539,105.654,0.0034931,0.066676,20.9153,140.19,-0.529632,0.0,0.0
794,198.25,35.881,37.7207,154.693,99.7023,105.692,0.00347694,0.0665182,20.9155,140.17,-0.53773,0.0,0.0
796,198.75,36.1021,37.0396,153.319,99.7402,105.61,0.00345517,0.0663903,20.9157,140.18,-0.527076,0.0,0.0
798,199.25,35.7262,37.2554,151.193,99.7289,105.585,0.00342973,0.0662867,20.9158,140.16,-0.525964,0.0,0.0
800,199.75,35.7815,37.0665,153.796,99.749,105.55,0.00340913,0.0661435,20.916,140.17,-0.52098,0.0,0.0
802,200.25,36.0817,37.5591,159.584,99.7325,105.671,0.00338483,0.0660275,20.9163,140.15,-0.533111,0.0,0.0
804,200.75,35.7886,36.928,158.281,99.7337,105.746,0.00336515,0.0659038,20.9168,140.15,-0.53956,0.0,0.0
806,201.25,36.4794,36.8814,157.717,99.7116,105.798,0.00334327,0.0658037,20.9171,140.119,-0.546068,0.0,0.0
808,201.75,36.1485,37.4771,158.022,99.7511,105.411,0.00333113,0.0657912,20.9173,140.15,-0.508667,0.0,0.0
810,202.25,36.2979,37.3414,157.532,99.7257,105.595,0.00330037,0.0657698,20.9176,140.099,-0.527124,0.0,0.0
812,202.75,35.698,37.4818,157.864,99.7519,105.794,0.00326645,0.0657524,20.9172,140.15,-0.542025,0.0,0.0
814,203.25,36.486,37.5127,156.785,99.7325,105.679,0.00323898,0.0659165,20.9169,140.089,-0.533756,0.0,0.0
816,203.75,36.3272,37.2948,159.717,99.747,105.79,0.00319474,0.0660493,20.9167,140.129,-0.542149,0.0,0.0
818,204.25,36.0356,37.0201,154.497,99.7164,105.58,0.00313912,0.0661648,20.9165,140.079,-0.526633,0.0,0.0
820,204.75,35.7042,37.4699,158.466,99.7386,105.481,0.00307809,0.0662653,20.9163,140.129,-0.515913,0.0,0.0
822,205.25,36.1122,37.2802,158.124,99.716,105.656,0.00301428,0.0663467,20.9162,140.069,-0.533345,0.0,0.0
824,205.75,36.2323,37.4319,154.915,99.7337,105.595,0.00295261,0.0664423,20.9161,140.129,-0.526379,0.0,0.0
826,206.25,35.9166,37.2227,152.163,99.7092,105.729,0.00289369,0.0665198,20.916,140.059,-0.540271,0.0,0.0
828,206.75,35.7761,37.1233,159.406,99.7229,105.793,0.00284795,0.0666271,20.9159,140.119,-0.54465,0.0,0.0
830,207.25,36.0382,37.423,165.281,99.7076,105.821,0.0028127,0.066714,20.9158,140.059,-0.548482,0.0,0.0
832,207.75,36.3258,37.3071,158.31,99.7064,105.668,0.00278813,0.0667695,20.9158,140.109,-0.535261,0.0,0.0
834,208.25,36.1233,37.4792,157.575,99.7096,105.744,0.00277183,0.0668145,20.9158,140.049,-0.541578,0.0,0.0
836,208.75,36.4751,36.9271,156.701,99.7474,105.808,0.00275862,0.0668064,20.9157,140.099,-0.543671,0.0,0.0
838,209.25,36.2266,37.0533,157.448,99.6883,105.543,0.00275299,0.0667998,20.9157,140.039,-0.52606,0.0,0.0
840,209.75,36.3637,37.3312,159.243,99.7148,105.603,0.00274842,0.0667399,20.9157,140.109,-0.528828,0.0,0.0
842,210.25,36.3464,37.3201,160.28,99.6879,105.658,0.00274472,0.0666421,20.9157,140.039,-0.536058,0.0,0.0
844,210.75,35.8553,37.3496,161.957,99.6862,105.666,0.00275563,0.0665629,20.9157,140.089,-0.53696,0.0,0.0
846,211.25,36.3832,37.7115,160.076,99.6854,105.529,0.00276446,0.0663652,20.9156,140.039,-0.525028,0.0,0.0
848,211.75,36.22,36.9724,161.005,99.6742,105.83,0.00280439,0.0662051,20.9159,140.099,-0.552323,0.0,0.0
850,212.25,36.2826,37.6309,161.765,99.6488,105.677,0.00283673,0.0660686,20.9163,140.069,-0.541338,0.0,0.0
852,212.75,35.9724,37.2497,156.936,99.6822,105.564,0.00288824,0.065952,20.9167,140.079,-0.52845,0.0,0.0
854,213.25,36.0144,37.1475,158.665,99.6717,105.606,0.00291021,0.0659413,20.9169,140.039,-0.533026,0.0,0.0
856,213.75,36.4146,37.0289,155.731,99.6742,105.753,0.0029491,0.065923,20.9172,140.089,-0.54566,0.0,0.0
858,214.25,36.1471,37.406,158.804,99.6589,105.497,0.0029818,0.0659395,20.9175,140.079,-0.524737,0.0,0.0
860,214.75,36.405,37.0905,158.798,99.6669,105.603,0.00299182,0.0659809,20.9178,140.079,-0.533257,0.0,0.0
862,215.25,36.1211,37.3724,158.501,99.6593,105.696,0.00299994,0.0659832,20.918,140.059,-0.542037,0.0,0.0
864,215.75,36.2755,37.1598,157.633,99.6375,105.613,0.00299186,0.065957,20.9181,140.059,-0.536836,0.0,0.0
866,216.25,36.0612,37.2822,155.426,99.6142,105.706,0.00297213,0.0659358,20.9182,140.059,-0.547069,0.0,0.0
868,216.75,36.4128,36.8254,160.095,99.6387,105.498,0.00295615,0.0659185,20.9183,140.069,-0.526654,0.0,0.0
870,217.25,35.9775,37.4866,160.077,99.6138,105.584,0.0029432,0.0658422,20.9184,140.029,-0.53645,0.0,0.0
872,217.75,36.6363,37.3944,158.444,99.6166,105.549,0.0029061,0.0657241,20.9185,140.049,-0.533174,0.0,0.0
874,218.25,36.1659,37.076,156.831,99.6069,105.687,0.00285209,0.0656284,20.9187,138.428,-0.546125,0.0,0.0
876,218.75,36.3908,37.2735,154.862,99.6202,105.548,0.00280835,0.0655361,20.9188,140.15,-0.53273,0.0,0.0
878,219.25,36.2304,37.4559,155.527,99.6162,105.627,0.00275775,0.0654613,20.9189,140.019,-0.540049,0.0,0.0
880,219.75,35.9268,37.2405,157.163,99.6077,105.615,0.00271677,0.0654749,20.919,140.069,-0.539755,0.0,0.0
882,220.25,35.6885,37.4346,158.497,99.5961,105.479,0.00269116,0.0654859,20.9191,140.039,-0.528985,0.0,0.0
884,220.75,36.1986,37.5817,156.9,99.5884,105.551,0.00267706,0.0655097,20.9192,140.029,-0.535997,0.0,0.0
886,221.25,36.0704,36.9458,158.106,99.592,105.579,0.00267162,0.0655289,20.9192,140.029,-0.538085,0.0,0.0
888,221.75,36.2301,37.5283,161.857,99.5908,105.621,0.00266722,0.0655593,20.9193,140.029,-0.541804,0.0,0.0
890,222.25,36.02,37.4064,159.041,99.5747,105.468,0.00266239,0.065584,20.9191,140.049,-0.529935,0.0,0.0
892,222.75,35.9675,37.3858,163.625,99.586,105.513,0.00265847,0.0658097,20.9187,140.019,-0.532881,0.0,0.0
894,223.25,35.9584,37.6858,157.62,99.5948,105.507,0.0026327,0.0659925,20.9183,140.019,-0.531522,0.0,0.0
896,223.75,35.9805,37.6018,156.118,99.5796,105.391,0.00261181,0.0662265,20.9179,140.029,-0.522802,0.0,0.0
898,224.25,36.4968,37.1126,160.89,99.5796,105.58,0.00260291,0.066367,20.9177,140.039,-0.539295,0.0,0.0
900,224.75,35.7694,36.698,154.976,99.5639,105.567,0.00256643,0.0666072,20.9175,140.009,-0.539617,0.0,0.0
902,225.25,36.5626,37.0691,158.623,99.5848,105.358,0.00251775,0.0668174,20.9172,140.029,-0.519404,0.0,0.0
903,225.5,36.0598,37.2369,159.033,99.5707,105.443,0.002497,0.0669144,20.9171,140.009,-0.528152,0.0,0.0