File: 01_Data/Corrugated_Cardboard/Cone/Corrugated_Cardboard_Cone_HF75Scan_250211_R1.csv
Names,Time,Stack TC,Smoke TC,Exh Press,Smoke Comp,Smoke Meas,CO Meter,CO2 Meter,O2 Meter,Sample Mass,Ext Coeff,Start Test,Flame Verif
Chan Gain,,500,500,1,1,1,1,1,1,1,1,1.0,1.0
Offset,,0,0,0.131183,0,0,0,0,0,0,0,0.0,0.0
Gain,,1,1,25.011,13.1923,20.2122,1,1,1,1.00092,1.05074,1.0,1.0
Units,sec,C,C,Pa,%,%,%,%,%,g,/m,,
Baseline,,58.2677,62.6212,147.622,100.234,104.555,0.000505636,0.0376017,20.9443,-438.07,-0.388987,,
2,0.25,58.0607,62.4876,146.321,100.557,105.17,0.000568925,0.0400072,20.9435,142.592,-0.413471,0.0,0.0
4,0.75,57.2258,61.9705,146.16,100.574,105.266,0.000577212,0.0400812,20.9435,142.432,-0.420296,0.0,0.0
6,1.25,57.6189,62.3172,147.011,100.53,105.292,0.000577998,0.040141,20.9435,142.442,-0.426566,0.0,0.0
8,1.75,57.875,61.7899,144.524,100.514,104.377,0.000578635,0.0402611,20.9435,142.472,-0.347637,0.0,0.0
10,2.25,57.7831,62.2304,148.506,100.46,103.796,0.000564279,0.0403584,20.9435,142.392,-0.301096,0.0,0.0
12,2.75,57.3256,62.2918,146.442,100.424,104.466,0.000552651,0.040496,20.9435,142.402,-0.363678,0.0,0.0
14,3.25,57.3299,62.2454,146.621,100.392,104.147,0.000530731,0.0406075,20.9435,142.322,-0.338491,0.0,0.0
16,3.75,57.5028,61.6591,149.659,100.359,102.455,0.000512976,0.0407287,20.9429,142.261,-0.190482,0.0,1.0
18,4.25,58.2142,62.1965,138.112,100.318,98.4296,0.000490703,0.0408548,20.9424,142.071,0.175147,0.0,1.0
20,4.75,57.9964,63.2334,133.709,100.271,96.2719,0.00046556,0.0409569,20.9416,141.881,0.375111,0.0,1.0
22,5.25,59.0223,64.8908,124.671,100.241,94.1026,0.000445193,0.0411131,20.9409,141.691,0.582405,0.0,1.0
24,5.75,59.3796,68.2037,112.62,100.215,89.5966,0.000433958,0.0412397,20.9403,141.571,1.03229,0.0,1.0
26,6.25,60.0589,71.5697,113.2,100.168,87.7246,0.000429592,0.0414506,20.9399,141.311,1.22258,0.0,1.0
28,6.75,61.9921,75.3208,103.998,100.125,84.6842,0.000439214,0.0417189,20.9395,141.14,1.54376,0.0,1.0
30,7.25,63.5406,79.5489,114.925,100.085,83.1354,0.000449548,0.0418333,20.9394,140.95,1.71023,0.0,1.0
32,7.75,64.4008,83.1926,116.518,100.033,84.749,0.000477752,0.0421319,20.9391,140.78,1.52822,0.0,1.0
34,8.25,64.9243,84.7919,117.282,100.018,84.1784,0.000510077,0.0423738,20.9389,140.65,1.58911,0.0,1.0
36,8.75,65.7541,86.4845,125.961,99.956,87.2644,0.000538894,0.0426874,20.9387,140.51,1.25155,0.0,1.0
38,9.25,66.8066,88.4619,126.05,99.9169,89.4245,0.000564606,0.0429415,20.9386,140.4,1.02257,0.0,1.0
40,9.75,67.6156,89.6401,123.313,99.8485,92.7536,0.000582799,0.0433091,20.9385,140.3,0.679364,0.0,1.0
42,10.25,67.8582,91.0936,126.971,99.8203,94.0588,0.000595165,0.0437155,20.9384,140.19,0.547967,0.0,1.0
44,10.75,68.3834,91.4301,126.347,99.7547,95.1999,0.000607157,0.0441422,20.9383,140.119,0.430757,0.0,1.0
46,11.25,68.8064,91.7432,130.816,99.7201,96.3602,0.000618649,0.0444879,20.9378,139.979,0.315904,0.0,0.0
48,11.75,69.3558,92.4593,129.694,99.6794,96.5063,0.000627958,0.0480327,20.9374,139.929,0.298172,0.0,0.0
50,12.25,69.682,92.8291,126.571,99.6548,97.3866,0.000684219,0.0509039,20.9371,139.829,0.212216,0.0,0.0
52,12.75,70.1958,93.3884,132.937,99.6045,97.8948,0.000773641,0.0532297,20.9368,139.849,0.159582,0.0,0.0
54,13.25,70.4661,93.46875,133.224,99.5292,97.2533,0.000846073,0.0551135,20.9363,139.729,0.213209,0.0,0.0
56,13.75,70.5075,93.5244,128.471,99.5019,96.9634,0.000904743,0.106743,20.9358,139.709,0.238191,0.0,0.0
58,14.25,70.2428,93.3295,128.514,99.4612,95.0667,0.00110535,0.148563,20.9348,139.599,0.416507,0.0,0.0
60,14.75,70.5601,93.371,131.309,99.4294,94.5319,0.00140562,0.213601,20.9335,139.539,0.465555,0.0,0.0
62,15.25,71.3815,93.6992,131.887,99.3666,95.0105,0.00192537,0.29433,20.9257,139.449,0.41318,0.0,0.0
64,15.75,71.8344,94.113,129.839,99.3473,94.7724,0.00234636,0.382004,20.9134,139.419,0.434513,0.0,0.0
66,16.25,70.6149,92.8154,131.8,99.2998,94.6762,0.00282586,0.473076,20.8549,139.309,0.439469,0.0,0.0
68,16.75,71.6883,93.8531,130.475,99.2551,93.2871,0.0033389,0.556079,20.7638,139.309,0.571553,0.0,0.0
70,17.25,72.1541,94.1581,132.284,99.2212,93.025,0.00387625,0.631623,20.6472,139.179,0.594351,0.0,0.0
72,17.75,71.8698,94.1435,127.542,99.1782,93.3562,0.0044211,0.689594,20.514,139.129,0.557587,0.0,0.0
74,18.25,72.0601,94.4099,129.514,99.1379,91.7099,0.00498638,0.733652,20.4062,139.028,0.717833,0.0,0.0
76,18.75,72.7612,95.6488,125.648,99.09,92.27,0.00544426,0.76934,20.3188,138.948,0.657261,0.0,0.0
78,19.25,73.1384,95.6331,133.899,99.0534,90.8759,0.00581515,0.775306,20.2481,138.818,0.794167,0.0,0.0
80,19.75,72.5871,95.3129,123.95,99.0095,91.317,0.00611216,0.780138,20.1908,138.718,0.74546,0.0,0.0
82,20.25,73.1795,95.9822,130.533,98.9853,91.4983,0.00634968,0.77117,20.1443,138.688,0.724925,0.0,0.0
84,20.75,74.0185,96.9309,136.645,98.9507,93.3328,0.00644005,0.752311,20.1067,138.558,0.538738,0.0,0.0
86,21.25,74.1104,96.6912,134.112,98.9555,94.3203,0.00651325,0.728833,20.0983,138.518,0.442176,0.0,0.0
88,21.75,74.3098,96.7745,132.319,98.8947,94.5016,0.00643607,0.702435,20.1022,138.378,0.418808,0.0,0.0
90,22.25,74.5542,97.104,129.936,98.8786,94.3993,0.00637355,0.674982,20.1149,138.378,0.427299,0.0,0.0
92,22.75,74.9197,97.3471,130.061,98.8368,92.3205,0.00624324,0.647281,20.1252,138.228,0.628625,0.0,0.0
94,23.25,74.4117,96.7308,132.73,98.8315,93.313,0.00606599,0.620449,20.1574,138.268,0.529579,0.0,0.0
96,23.75,75.2885,97.2445,127.073,98.7909,95.2647,0.00587267,0.594759,20.1834,138.098,0.335002,0.0,0.0
98,24.25,75.3034,97.4077,134.565,98.805,95.1203,0.00567132,0.57395,20.2172,138.098,0.350292,0.0,0.0
100,24.75,74.9386,96.9609,132.47,98.7583,94.8674,0.00550822,0.554308,20.2445,137.977,0.370472,0.0,0.0
102,25.25,75.2613,97.0226,132.91,98.7562,94.3067,0.00530592,0.538399,20.2706,138.008,0.424922,0.0,0.0
104,25.75,75.8931,97.4741,132.733,98.7353,96.5211,0.00514207,0.526475,20.2952,137.877,0.209046,0.0,0.0
106,26.25,75.6692,97.0409,139.79,98.7301,97.0862,0.00500934,0.517683,20.3152,137.907,0.15476,0.0,0.0
108,26.75,75.4335,96.4411,134.604,98.7305,96.7833,0.00489291,0.510561,20.3314,137.777,0.183595,0.0,0.0
110,27.25,75.9368,96.6061,137.771,98.7458,96.7555,0.00481941,0.509961,20.3445,137.787,0.187667,0.0,0.0
112,27.75,76.115,96.2892,139.033,98.6942,95.8087,0.0047786,0.509474,20.3551,137.697,0.273496,0.0,0.0
114,28.25,75.4116,95.3241,137.426,98.7381,97.7844,0.00474555,0.512329,20.3637,137.757,0.0894609,0.0,0.0
116,28.75,75.6839,95.1978,134.567,98.7192,98.1058,0.00477623,0.514641,20.3698,137.667,0.0574511,0.0,0.0
118,29.25,75.5569,94.885,135.14,98.7289,97.9707,0.00482261,0.517914,20.3738,137.727,0.0710541,0.0,0.0
120,29.75,75.6564,94.4635,139.88,98.7224,99.5942,0.00487957,0.520565,20.3736,137.627,-0.0810315,0.0,0.0
122,30.25,75.289,93.9089,138.521,98.7409,98.957,0.0049257,0.522081,20.3734,137.637,-0.0201451,0.0,0.0
124,30.75,75.5093,93.1661,139.579,98.7397,99.9717,0.00496946,0.523308,20.3732,137.557,-0.114285,0.0,0.0
126,31.25,75.4297,93.2483,137.676,98.7562,99.9341,0.00500491,0.522356,20.3731,137.587,-0.109275,0.0,0.0
128,31.75,75.0628,92.2882,141.673,98.7711,99.2019,0.00500676,0.521584,20.373,137.507,-0.0401069,0.0,0.0
130,32.25,75.122,92.0684,134.786,98.7997,99.8175,0.00500826,0.519267,20.3729,137.557,-0.0944596,0.0,0.0
132,32.75,75.0065,91.4212,138.489,98.807,100.131,0.0049678,0.515867,20.3728,137.477,-0.122729,0.0,0.0
134,33.25,74.9472,90.7213,141.905,98.8456,100.649,0.00489753,0.513112,20.375,137.517,-0.166638,0.0,0.0
136,33.75,74.718,90.1249,138.597,98.848,100.756,0.0048406,0.505981,20.3767,137.447,-0.176237,0.0,0.0
138,34.25,74.4194,89.4918,143.462,98.8984,101.965,0.00471292,0.500205,20.3795,137.467,-0.281483,0.0,0.0
140,34.75,74.1409,88.4869,141.101,98.9028,100.902,0.00460949,0.492175,20.3831,137.407,-0.184496,0.0,0.0
142,35.25,74.2953,88.072,147.052,98.9302,101.151,0.0044889,0.482654,20.3859,137.427,-0.204624,0.0,0.0
144,35.75,74.0684,87.3936,143.518,98.937,101.587,0.00435808,0.474942,20.3882,137.387,-0.243582,0.0,0.0
146,36.25,73.7874,86.3245,138.804,98.968,101.485,0.00425211,0.468695,20.3936,137.437,-0.231456,0.0,0.0
148,36.75,73.6141,86.1522,141.063,98.9805,101.418,0.00412685,0.451296,20.398,137.387,-0.224241,0.0,0.0
150,37.25,72.8757,85.155,145.177,99.0324,100.812,0.00398991,0.437203,20.4103,137.427,-0.164136,0.0,0.0
152,37.75,73.1177,84.5791,141.895,99.0445,102.048,0.00385163,0.4193,20.4202,137.387,-0.275341,0.0,0.0
154,38.25,73.0291,84.4191,142.642,99.0936,102.305,0.003715,0.404799,20.4389,137.427,-0.293918,0.0,0.0
156,38.75,72.7719,83.6887,141.267,99.1214,101.324,0.00357503,0.386967,20.4539,137.397,-0.202605,0.0,0.0
158,39.25,72.3552,83.0155,139.432,99.1427,101.625,0.00343526,0.372523,20.4772,137.407,-0.227905,0.0,0.0
160,39.75,72.0918,82.3846,146.416,99.1902,102.35,0.00332205,0.355483,20.496,137.367,-0.289047,0.0,0.0
162,40.25,72.3138,81.9291,140.788,99.2281,101.753,0.00317726,0.34168,20.5162,137.397,-0.231604,0.0,0.0
164,40.75,72.0423,81.6475,144.847,99.2474,101.918,0.00305999,0.32787,20.5368,137.357,-0.24477,0.0,0.0
166,41.25,71.8519,81.2148,144.349,99.3038,102.17,0.00294605,0.314317,20.5566,137.377,-0.262269,0.0,0.0
168,41.75,71.4537,80.2408,147.046,99.3299,101.622,0.00289747,0.308539,20.5665,137.327,-0.210239,0.0,0.0
170,42.25,71.09,79.4417,143.627,99.3617,101.701,0.00280511,0.294474,20.5833,137.347,-0.214446,0.0,0.0
172,42.75,70.9683,79.0674,144.159,99.404,101.139,0.00272193,0.280876,20.6018,137.287,-0.159513,0.0,0.0
174,43.25,70.6649,78.8935,146.01,99.4334,102.238,0.00264658,0.267876,20.6168,137.327,-0.256364,0.0,0.0
176,43.75,70.6873,78.2782,144.039,99.4616,102.824,0.00257838,0.257345,20.6322,137.267,-0.306429,0.0,0.0
178,44.25,70.4982,77.9721,145.615,99.5019,102.589,0.00252314,0.244204,20.6476,137.237,-0.281664,0.0,0.0
180,44.75,70.4355,77.6888,146.393,99.5236,103.253,0.00248356,0.233559,20.6631,137.287,-0.339088,0.0,0.0
182,45.25,70.2807,77.1634,146.103,99.5687,102.824,0.00245151,0.221577,20.6783,137.317,-0.296511,0.0,0.0
184,45.75,69.0853,76.221,149.18,99.594,102.147,0.00244481,0.211872,20.6929,137.307,-0.233252,0.0,0.0
186,46.25,68.7562,75.3284,146.142,99.6371,102.889,0.00245672,0.204011,20.7068,137.287,-0.295981,0.0,0.0
188,46.75,68.3678,74.3397,144.369,99.675,102.835,0.00246637,0.194085,20.718,137.267,-0.287672,0.0,0.0
190,47.25,68.3431,74.7441,147.948,99.7185,102.454,0.00255635,0.186045,20.7291,137.247,-0.249478,0.0,0.0
192,47.75,68.3846,74.4685,144.604,99.7446,102.634,0.00262924,0.178494,20.74,137.257,-0.263193,0.0,0.0
194,48.25,68.0497,73.6789,142.256,99.7575,102.892,0.00274527,0.171444,20.7505,137.237,-0.285183,0.0,0.0
196,48.75,67.6011,73.6158,141.187,99.7978,103.728,0.00283925,0.164475,20.7605,137.227,-0.356032,0.0,0.0
198,49.25,67.6735,73.2275,143.834,99.8424,102.616,0.00296991,0.158829,20.7697,137.187,-0.252551,0.0,0.0
200,49.75,67.582,73.2015,144.902,99.8545,102.748,0.00307575,0.153263,20.7782,137.247,-0.263285,0.0,0.0
202,50.25,67.0984,73.0692,143.488,99.8718,102.696,0.00321863,0.148754,20.7862,137.207,-0.256982,0.0,0.0
204,50.75,67.6754,72.2905,146.055,99.9161,102.878,0.00333437,0.144539,20.7938,137.237,-0.269213,0.0,0.0
206,51.25,66.9881,72.5481,145.774,99.9419,103.06,0.00349044,0.14062,20.7999,137.257,-0.28318,0.0,0.0
208,51.75,67.0147,72.261,144.536,99.9664,103.08,0.00361687,0.137004,20.8062,137.267,-0.28268,0.0,0.0
210,52.25,67.2304,71.7524,144.729,99.9745,103.433,0.00375146,0.13368,20.8113,137.247,-0.313487,0.0,0.0
212,52.75,66.6666,71.7429,141.508,100.001,103.438,0.00388944,0.130987,20.8163,137.257,-0.31144,0.0,0.0
214,53.25,66.586,71.7969,145.252,100.027,103.684,0.00400121,0.128001,20.8204,137.197,-0.330916,0.0,0.0
216,53.75,66.1806,71.1714,144.281,100.045,102.747,0.00411727,0.125582,20.8243,137.217,-0.24565,0.0,0.0
218,54.25,66.4364,71.1443,143.656,100.051,102.649,0.00423424,0.123201,20.8282,137.187,-0.236255,0.0,0.0
220,54.75,66.0685,70.7318,144.323,100.064,103.428,0.004339,0.120893,20.8313,137.187,-0.30472,0.0,0.0
222,55.25,66.5879,70.7648,144.223,100.083,102.606,0.00443287,0.119024,20.8347,137.177,-0.229411,0.0,0.0
224,55.75,66.1131,70.3786,146.816,100.064,101.696,0.00450891,0.117087,20.8375,137.197,-0.149154,0.0,0.0
226,56.25,66.1333,70.0395,143.791,100.069,103.465,0.00456156,0.115517,20.8403,137.167,-0.307664,0.0,0.0
228,56.75,65.5554,70.1051,144.564,100.099,103.462,0.00460421,0.113959,20.843,137.177,-0.304645,0.0,0.0
230,57.25,65.1811,69.402,146.338,100.059,102.49,0.00462854,0.112696,20.8455,137.157,-0.221175,0.0,0.0
232,57.75,66.0219,69.8188,141.219,100.064,103.315,0.00464824,0.111538,20.8477,137.147,-0.29471,0.0,0.0
234,58.25,65.3925,69.4398,145.17,100.059,103.505,0.00466293,0.110599,20.8495,137.137,-0.312033,0.0,0.0
236,58.75,65.7539,69.451,146.41,100.063,103.354,0.00467482,0.109839,20.8511,137.157,-0.298286,0.0,0.0
238,59.25,65.2232,69.373,145.506,100.047,103.309,0.00468446,0.109144,20.8527,137.097,-0.295791,0.0,0.0
240,59.75,64.8246,69.1621,145.012,100.048,102.527,0.00472164,0.10851,20.854,137.137,-0.225598,0.0,0.0
242,60.25,65.4122,68.8531,149.45,100.012,103.472,0.00475175,0.107884,20.8554,137.087,-0.313461,0.0,0.0
244,60.75,64.7841,68.9412,145.228,100.021,103.778,0.00477615,0.107278,20.8565,137.127,-0.339857,0.0,0.0
246,61.25,64.7234,68.8482,144.407,99.9793,103.032,0.00484449,0.106786,20.8577,137.077,-0.277189,0.0,0.0
248,61.75,64.9453,68.239,140.055,99.9741,103.283,0.00489984,0.106011,20.8588,137.117,-0.300157,0.0,0.0
250,62.25,65.136,68.0712,146.374,99.9556,103.081,0.00497283,0.105384,20.86,137.057,-0.283792,0.0,0.0
252,62.75,64.6705,68.116,143.246,99.9435,103.265,0.00503195,0.104653,20.8611,137.087,-0.301328,0.0,0.0
254,63.25,64.6612,68.2636,147.769,99.902,103.093,0.0050888,0.103861,20.8623,137.047,-0.289835,0.0,0.0
256,63.75,64.3027,68.1372,146.008,99.9222,103.15,0.00513485,0.102874,20.8634,137.087,-0.292994,0.0,0.0
258,64.25,64.3937,68.2145,142.921,99.8658,102.26,0.00516191,0.102074,20.8646,137.037,-0.218372,0.0,0.0
260,64.75,64.4029,67.7039,145.41,99.8577,101.363,0.00518383,0.10126,20.8657,137.097,-0.137921,0.0,0.0
262,65.25,64.358,67.6163,147.152,99.84,102.505,0.00518003,0.100451,20.8669,137.037,-0.242795,0.0,0.0
264,65.75,64.5435,67.7923,143.141,99.8231,103.221,0.00515756,0.0996848,20.868,137.107,-0.308471,0.0,0.0
266,66.25,63.834,67.4298,144.68,99.7829,103.313,0.0051091,0.0989646,20.869,137.047,-0.320447,0.0,0.0
268,66.75,64.097,67.5395,142.686,99.7905,102.153,0.0050741,0.0986575,20.8696,137.097,-0.215644,0.0,0.0
270,67.25,64.2421,67.4946,148.448,99.7434,102.571,0.00501426,0.0980218,20.8707,137.027,-0.257653,0.0,0.0
272,67.75,63.9622,67.7399,145,99.749,102.733,0.00493825,0.0974071,20.8715,137.087,-0.271697,0.0,0.0
274,68.25,63.5145,67.3263,145.146,99.6822,102.199,0.0048519,0.0969093,20.8727,137.007,-0.229825,0.0,0.0
276,68.75,64.09,67.214,146.354,99.6524,102.022,0.00477927,0.0963258,20.8736,137.067,-0.216601,0.0,0.0
278,69.25,63.8637,67.1467,141.887,99.6271,103.883,0.00471803,0.0958532,20.8744,137.017,-0.385558,0.0,0.0
280,69.75,63.3578,66.9475,140.588,99.6367,102.63,0.00467513,0.0952453,20.875,137.087,-0.272837,0.0,0.0
282,70.25,63.5478,66.7531,142.285,99.561,102.991,0.00464643,0.0947054,20.8755,137.017,-0.31219,0.0,0.0
284,70.75,63.6313,66.9669,145.084,99.5848,102.444,0.00463661,0.0942255,20.8759,137.087,-0.260897,0.0,0.0
286,71.25,63.5133,66.6492,147,99.5264,103.056,0.00464074,0.0938368,20.8766,137.017,-0.32119,0.0,0.0
288,71.75,63.4885,66.863,147.515,99.5574,102.514,0.00464409,0.0935369,20.8773,137.087,-0.2697,0.0,0.0
290,72.25,63.7016,67.0211,142.787,99.5095,102.129,0.0046851,0.093294,20.8778,137.017,-0.239466,0.0,0.0
292,72.75,63.2449,66.9329,144.813,99.5236,102.104,0.00471833,0.0931123,20.8782,137.047,-0.235934,0.0,0.0
294,73.25,63.3233,66.956,146.997,99.5047,102.6,0.00478358,0.092965,20.8785,136.957,-0.282345,0.0,0.0
296,73.75,63.1301,66.4461,149.8,99.5019,103.042,0.00483644,0.0927826,20.8788,136.987,-0.322196,0.0,0.0
298,74.25,63.1361,66.7265,143.926,99.5333,102.533,0.00487925,0.092578,20.879,136.947,-0.273711,0.0,0.0
300,74.75,62.9281,66.8214,148.395,99.6065,103.114,0.00493952,0.0924123,20.8792,136.997,-0.319013,0.0,0.0
302,75.25,63.0748,66.5304,147.699,99.6862,101.836,0.00498833,0.092207,20.8793,136.917,-0.196685,0.0,0.0
304,75.75,62.8706,66.8886,144.672,99.7607,102.2,0.00503326,0.0919768,20.8794,136.957,-0.222625,0.0,0.0
306,76.25,63.2577,66.381,144.445,99.8082,102.546,0.0050745,0.0917982,20.8795,136.927,-0.249392,0.0,0.0
308,76.75,63.0328,66.3063,150.769,99.8879,102.325,0.00511397,0.0916607,20.8796,136.977,-0.222164,0.0,0.0
310,77.25,62.8209,66.1511,145.672,99.9516,102.447,0.0051514,0.0915493,20.8801,136.917,-0.227291,0.0,0.0
312,77.75,63.0206,66.3207,147.119,100.01,102.897,0.00518171,0.091459,20.8805,136.927,-0.262277,0.0,0.0
314,78.25,62.9327,66.2256,146.101,100.051,103.364,0.00521523,0.0913859,20.8808,136.927,-0.300262,0.0,0.0
316,78.75,62.5008,66.0262,146.063,100.107,102.583,0.00524238,0.0913117,20.8811,136.967,-0.225172,0.0,0.0
318,79.25,62.7697,65.897,145.008,100.167,102.398,0.0052695,0.0912516,20.8813,136.906,-0.203028,0.0,0.0
320,79.75,62.689,66.0375,145.289,100.203,102.758,0.00529146,0.0911729,20.8815,136.906,-0.232136,0.0,0.0
322,80.25,62.7109,66.1171,150.476,100.208,102.939,0.00530797,0.0911092,20.8816,136.906,-0.247796,0.0,0.0
324,80.75,62.9534,65.9958,149.167,100.248,103.324,0.00532134,0.0910576,20.8817,136.917,-0.278493,0.0,0.0
326,81.25,62.7341,65.7992,141.712,100.287,102.918,0.00533217,0.0910158,20.8818,136.906,-0.238755,0.0,0.0
328,81.75,62.6807,65.9287,141.305,100.291,103.137,0.00532174,0.0909819,20.8819,136.886,-0.257938,0.0,0.0
330,82.25,61.812,66.1062,141.299,100.317,102.127,0.00531329,0.0909545,20.882,136.876,-0.164832,0.0,0.0
332,82.75,62.9434,66.3124,142.635,100.333,102.03,0.00529342,0.0907279,20.882,136.886,-0.15461,0.0,0.0
334,83.25,61.9827,65.7321,144.855,100.342,103.527,0.0052817,0.0906363,20.8822,136.866,-0.288013,0.0,0.0
336,83.75,62.4162,66.1229,145.615,100.318,102.845,0.00526166,0.0904402,20.8824,136.886,-0.229386,0.0,0.0
338,84.25,62.3009,66.3445,142.477,100.317,103.205,0.00524139,0.0902459,20.8829,136.896,-0.261632,0.0,0.0
340,84.75,62.3031,65.8409,141.791,100.313,102.631,0.00522133,0.0900333,20.8834,136.856,-0.210535,0.0,0.0
342,85.25,62.1391,65.9978,148.74,100.307,103.09,0.00519903,0.0898114,20.8839,136.876,-0.25225,0.0,0.0
344,85.75,62.2107,65.8363,146.987,100.269,103.351,0.00517551,0.0896317,20.8843,136.846,-0.279026,0.0,0.0
346,86.25,61.7875,66.101,142.873,100.256,102.768,0.00514502,0.0893063,20.8846,136.846,-0.228171,0.0,0.0
348,86.75,62.0324,65.8381,140.944,100.226,102.748,0.00511002,0.0890428,20.8848,136.806,-0.229085,0.0,0.0
350,87.25,62.2624,65.5868,148.199,100.188,103.12,0.00508168,0.0887395,20.885,136.836,-0.265835,0.0,0.0
352,87.75,61.9766,65.9026,145.81,100.143,102.307,0.00502551,0.0884939,20.8852,136.816,-0.197068,0.0,0.0
354,88.25,62.3094,65.1323,148.093,100.1,103.298,0.00498,0.0882949,20.8853,136.846,-0.289906,0.0,0.0
356,88.75,62.026,65.682,146.14,100.039,102.984,0.00494314,0.0880439,20.8854,136.816,-0.26743,0.0,0.0
358,89.25,62.0639,65.2642,147.052,99.9858,102.664,0.00486862,0.0878406,20.8857,136.846,-0.243594,0.0,0.0
360,89.75,61.7865,65.4327,139.065,99.9161,102.976,0.00480826,0.0874963,20.8862,136.786,-0.278051,0.0,0.0
362,90.25,61.7614,65.8468,149.524,99.8561,103.311,0.00473895,0.0872175,20.8866,136.836,-0.313461,0.0,0.0
364,90.75,61.7658,65.3986,141.247,99.8702,102.649,0.00468282,0.0868121,20.8869,136.766,-0.252979,0.0,0.0
366,91.25,61.6389,65.7068,145,99.9093,101.947,0.00463225,0.0864837,20.8874,136.836,-0.186073,0.0,0.0
368,91.75,61.7654,65.2855,145.806,99.9202,102.87,0.00459129,0.0859785,20.888,136.766,-0.268179,0.0,0.0
370,92.25,61.9781,65.4785,146.778,99.9826,103.416,0.00456322,0.0855693,20.8884,136.866,-0.311206,0.0,0.0
372,92.75,61.6832,65.8533,140.377,100.007,102.552,0.00454047,0.0849389,20.8888,136.786,-0.231692,0.0,0.0
374,93.25,61.7092,65.5396,149.066,100.078,101.939,0.00453225,0.0844284,20.8894,136.876,-0.169892,0.0,0.0
376,93.75,62.0497,65.4711,144.191,100.101,102.087,0.00452559,0.0837161,20.89,136.786,-0.181099,0.0,0.0
378,94.25,61.6064,65.4193,145.349,100.121,102.665,0.00452913,0.0831392,20.8908,136.856,-0.231243,0.0,0.0
380,94.75,61.6669,65.5152,145.354,100.177,102.981,0.00453199,0.0825227,20.8916,136.766,-0.25444,0.0,0.0
382,95.25,61.658,65.0552,148.079,100.234,103.262,0.00453431,0.081889,20.8923,136.816,-0.274377,0.0,0.0
384,95.75,61.0754,65.4627,144.416,100.25,102.761,0.00455405,0.0813757,20.8933,136.736,-0.227989,0.0,0.0
386,96.25,61.2477,65.2753,147.295,100.311,102.899,0.00457004,0.0808705,20.8941,136.816,-0.234731,0.0,0.0
388,96.75,61.27,65.2678,143.038,100.353,104.015,0.0045932,0.0804612,20.8947,136.716,-0.330388,0.0,0.0
390,97.25,61.3236,65.6299,144.594,100.427,103.925,0.00461196,0.0801297,20.8952,136.776,-0.315602,0.0,0.0
392,97.75,61.4374,65.2063,145.877,100.44,103.71,0.00462514,0.0798612,20.8957,136.706,-0.295272,0.0,0.0
394,98.25,61.5418,65.4216,149.964,100.516,103.577,0.00463401,0.0796437,20.8964,136.756,-0.276534,0.0,0.0
396,98.75,61.9234,65.4995,143.22,100.53,103.349,0.00463178,0.0794526,20.8971,136.696,-0.25493,0.0,0.0
398,99.25,61.4093,64.8414,145.294,100.578,103.641,0.00462152,0.0792978,20.8976,136.766,-0.276466,0.0,0.0
400,99.75,61.5348,65.2027,143.714,100.621,104.476,0.00460716,0.0790979,20.898,136.696,-0.346514,0.0,0.0
402,100.25,61.5422,65.5454,140.3,100.67,103.303,0.0045901,0.0789359,20.8983,136.776,-0.237949,0.0,0.0
404,100.75,61.2688,64.9536,145.069,100.693,104.329,0.00457627,0.0787451,20.8986,136.716,-0.326937,0.0,0.0
406,101.25,61.563,64.8848,147.16,100.727,104.161,0.0045587,0.0785905,20.8988,136.786,-0.309008,0.0,0.0
408,101.75,61.3092,64.8202,144.282,100.763,103.141,0.00454446,0.0783947,20.899,136.716,-0.215006,0.0,0.0
410,102.25,61.6452,65.093,148.352,100.774,104.745,0.00453293,0.0781725,20.8992,136.766,-0.356226,0.0,0.0
412,102.75,61.6216,65.1288,147.415,100.778,103.62,0.00452232,0.0779926,20.8997,136.676,-0.256301,0.0,0.0
414,103.25,61.3897,65.1468,144.555,100.814,103.034,0.00451372,0.0775786,20.9002,136.756,-0.200772,0.0,0.0
416,103.75,60.7967,65.1286,143.74,100.805,103.188,0.00449783,0.0772432,20.9005,136.656,-0.215366,0.0,0.0
418,104.25,61.0805,64.8668,142.596,100.84,104.28,0.00449106,0.0770454,20.9007,136.736,-0.309136,0.0,0.0
420,104.75,60.9876,65.0963,145.65,100.812,104.161,0.00445781,0.0767071,20.901,136.646,-0.30122,0.0,0.0
422,105.25,61.3655,65.0697,142.436,100.819,104.047,0.00443088,0.076433,20.9012,136.716,-0.290473,0.0,0.0
424,105.75,61.5206,64.7712,146.142,100.799,103.517,0.00440906,0.0760622,20.9014,136.656,-0.245201,0.0,0.0
426,106.25,60.9762,64.9751,150.545,100.802,104.544,0.00433792,0.0757618,20.9015,136.716,-0.335955,0.0,0.0
428,106.75,60.9835,64.6454,143.369,100.762,103.816,0.00428029,0.0754871,20.9016,136.656,-0.275187,0.0,0.0
430,107.25,61.0849,64.8964,147.197,100.747,103.98,0.00420684,0.0752364,20.9017,136.716,-0.291068,0.0,0.0
432,107.75,61.4105,64.3259,145.063,100.709,103.565,0.00412325,0.0750255,20.9022,136.646,-0.257752,0.0,0.0
434,108.25,61.0613,64.7141,144.386,100.668,103.38,0.0040375,0.0748476,20.9026,136.726,-0.244973,0.0,0.0
436,108.75,60.925,65.1599,142.421,100.616,104.151,0.0039518,0.0747035,20.903,136.636,-0.318308,0.0,0.0
438,109.25,60.9629,64.8282,145.66,100.595,103.754,0.00388238,0.0745241,20.9033,136.686,-0.285005,0.0,0.0
440,109.75,60.9958,65.2173,143.528,100.527,102.563,0.00381612,0.0743224,20.9035,136.626,-0.184781,0.0,0.0
442,110.25,61.1064,64.9298,146.174,100.482,103.004,0.00375344,0.0740808,20.9037,136.696,-0.228502,0.0,0.0
444,110.75,60.8991,65.3791,149.452,100.428,103.837,0.00370467,0.0738145,20.9038,136.596,-0.30772,0.0,0.0
446,111.25,60.6647,64.6884,147.513,100.348,103.98,0.00366697,0.0735988,20.9039,136.676,-0.327678,0.0,0.0
448,111.75,60.9838,64.5922,143.584,100.298,103.309,0.00363644,0.0733646,20.904,136.616,-0.272676,0.0,0.0
450,112.25,60.8155,64.6367,143.021,100.24,103.47,0.00361424,0.0731749,20.9043,136.666,-0.292357,0.0,0.0
452,112.75,60.9943,64.8729,145.961,100.167,103.383,0.00359626,0.0729915,20.9048,136.606,-0.29131,0.0,0.0
454,113.25,61.2145,64.5284,143.953,100.115,102.966,0.00357028,0.0728429,20.9052,136.656,-0.258839,0.0,0.0
456,113.75,60.663,64.6021,143.642,100.005,103.671,0.00354322,0.0726334,20.9055,136.666,-0.331896,0.0,0.0
458,114.25,61.0689,65.0408,147.184,99.9379,102.959,0.0035159,0.0724636,20.9057,136.666,-0.274499,0.0,0.0
460,114.75,60.7583,65.1513,142.266,99.861,103.09,0.00348843,0.072222,20.9059,136.626,-0.293293,0.0,0.0
462,115.25,61.2444,64.5923,145.639,99.7937,103.245,0.00346137,0.0720263,20.9065,136.636,-0.313388,0.0,0.0
464,115.75,60.4585,64.9357,147.434,99.71,103.615,0.00343945,0.0717974,20.907,136.596,-0.354051,0.0,0.0
466,116.25,60.4572,64.9003,147.293,99.6315,102.643,0.00342103,0.0715486,20.9074,136.606,-0.274429,0.0,0.0
468,116.75,61.2147,64.8967,146.166,99.5329,102.917,0.00340551,0.0712375,20.9077,136.586,-0.308173,0.0,0.0
470,117.25,60.724,64.8454,143.678,99.4745,102.101,0.00339361,0.070887,20.908,136.576,-0.240205,0.0,0.0
472,117.75,60.7096,64.5654,141.882,99.4076,103.177,0.00338456,0.0706031,20.9084,136.566,-0.343002,0.0,0.0
474,118.25,60.5681,64.8311,149.428,99.3291,102.902,0.00337724,0.0701504,20.909,136.576,-0.325731,0.0,0.0
476,118.75,60.6377,64.5916,146.641,99.2824,102.472,0.00335863,0.0697836,20.9094,136.596,-0.291476,0.0,0.0
478,119.25,60.6314,64.6286,146.529,99.2152,102.523,0.00334356,0.0694162,20.9098,136.606,-0.302268,0.0,0.0
480,119.75,60.6113,64.4882,142.566,99.1363,101.672,0.00332334,0.0690553,20.9101,136.636,-0.232756,0.0,0.0
482,120.25,60.6932,64.7836,150.264,99.0948,102.874,0.00329976,0.0687473,20.9103,136.606,-0.344957,0.0,0.0
484,120.75,60.6145,64.9367,144.662,99.0493,102.075,0.00327599,0.0684838,20.9108,136.586,-0.277343,0.0,0.0
486,121.25,60.5768,64.9155,148.444,98.9946,101.902,0.00325254,0.0682469,20.9113,136.556,-0.266831,0.0,0.0
488,121.75,60.2981,64.7194,146.375,98.9668,101.995,0.00323355,0.068034,20.9118,136.556,-0.277838,0.0,0.0
490,122.25,60.3133,64.5623,144.349,98.9189,101.725,0.00321816,0.0678615,20.9121,136.546,-0.257798,0.0,0.0
492,122.75,60.6999,64.1266,143.255,98.9048,101.67,0.0032057,0.067603,20.9124,136.556,-0.254191,0.0,0.0
494,123.25,60.6301,64.9136,144.758,98.8722,101.005,0.00320067,0.0673936,20.9127,136.546,-0.196696,0.0,0.0
496,123.75,60.5075,64.2392,143.723,98.8347,101.236,0.0031966,0.067224,20.9129,136.556,-0.221271,0.0,0.0
498,124.25,60.6785,64.6056,145.958,98.8074,101.584,0.00320597,0.0670867,20.9133,136.516,-0.255444,0.0,0.0
500,124.75,60.5884,64.9553,144.394,98.7965,101.941,0.00321356,0.0669598,20.9138,136.546,-0.288805,0.0,0.0
502,125.25,60.7125,64.5653,147.106,98.7836,102.085,0.00322772,0.066843,20.9142,136.526,-0.302993,0.0,0.0
504,125.75,60.4244,64.4369,142.77,98.7909,102.131,0.00324639,0.0667014,20.9146,136.576,-0.306493,0.0,0.0
506,126.25,60.5737,64.3484,143.852,98.7731,101.761,0.00325818,0.0665447,20.9148,136.516,-0.274685,0.0,0.0
508,126.75,60.3211,64.6132,143.717,98.8247,101.74,0.00326473,0.0663786,20.9151,136.596,-0.267921,0.0,0.0
510,127.25,60.6514,64.3678,147.974,98.7997,101.121,0.00327003,0.066209,20.9152,136.546,-0.214031,0.0,0.0
512,127.75,60.2039,64.5438,150.754,98.84,101.693,0.00323631,0.0660716,20.9154,136.606,-0.262302,0.0,0.0
514,128.25,60.3496,64.1546,144.22,98.8537,102.305,0.003209,0.0659604,20.9155,136.536,-0.316264,0.0,0.0
516,128.75,60.4469,64.2589,146.009,98.8778,102.08,0.00318687,0.0657664,20.9156,136.586,-0.293761,0.0,0.0
518,129.25,60.4006,64.0583,148.46,98.9008,102.356,0.00309557,0.0656092,20.9158,136.506,-0.31654,0.0,0.0
520,129.75,60.0194,64.3749,145.632,98.9535,102.695,0.00302161,0.065482,20.9161,136.556,-0.342069,0.0,0.0
522,130.25,60.3032,64.383,147.561,98.9821,102.729,0.00299008,0.0653419,20.9162,136.526,-0.342451,0.0,0.0
524,130.75,60.1092,63.9743,145.05,99.0477,101.837,0.00293617,0.0651023,20.9164,136.576,-0.255968,0.0,0.0
526,131.25,60.2268,63.9504,147.26,99.0542,102.438,0.00285965,0.0649082,20.9166,136.526,-0.309641,0.0,0.0
528,131.75,60.0952,64.045,142.903,99.1335,101.655,0.00279766,0.0647214,20.9167,136.576,-0.231508,0.0,0.0
530,132.25,60.0752,64.04,142.69,99.1846,102.871,0.00274998,0.06457,20.9169,136.526,-0.336388,0.0,0.0
532,132.75,60.573,64.263,151.11,99.2216,102.44,0.00271136,0.0644474,20.9169,136.586,-0.29418,0.0,0.0
534,133.25,60.0886,63.6122,151.066,99.2736,101.818,0.00269271,0.0643481,20.917,136.516,-0.2333,0.0,0.0
536,133.75,60.1788,63.9978,149.009,99.3501,102.219,0.00267761,0.0642381,20.9171,136.596,-0.262367,0.0,0.0
538,134.25,60.3795,64.0848,146.711,99.3847,101.372,0.00267421,0.0641489,20.9171,136.506,-0.182473,0.0,0.0
540,134.75,59.9062,63.8329,151.524,99.4455,101.664,0.00267147,0.0640618,20.9172,136.576,-0.203382,0.0,0.0
542,135.25,60.3418,64.2508,152.322,99.4721,102.93,0.0026604,0.0639913,20.9172,136.506,-0.314964,0.0,0.0
544,135.75,60.0234,64.1592,143.504,99.563,102.575,0.00265143,0.0639046,20.9172,136.606,-0.274722,0.0,0.0
546,136.25,60.1068,64.0066,145.771,99.5936,102.377,0.00262522,0.0638343,20.9172,136.526,-0.254082,0.0,0.0
548,136.75,60.123,63.9643,147.521,99.6532,101.969,0.00260399,0.0637462,20.9173,136.556,-0.211733,0.0,0.0
550,137.25,60.4057,63.8303,145.165,99.7068,102.74,0.00258679,0.0636467,20.9173,136.476,-0.276214,0.0,0.0
552,137.75,59.737,63.9583,151.424,99.7571,103.159,0.00254635,0.0635662,20.9173,136.526,-0.30906,0.0,0.0
554,138.25,60.1218,63.8442,144.681,99.7728,103.137,0.00251359,0.063412,20.9175,136.436,-0.305625,0.0,0.0
556,138.75,59.9798,64.3282,149.319,99.8465,102.997,0.00249337,0.0632559,20.9179,136.486,-0.286355,0.0,0.0
558,139.25,60.2011,64.0021,146.057,99.8706,102.987,0.00247699,0.0631014,20.9183,136.396,-0.283242,0.0,0.0
560,139.75,59.8397,64.2687,147.562,99.9334,103.078,0.00249289,0.0629762,20.9185,136.456,-0.285559,0.0,0.0
562,140.25,60.24,63.9695,148.626,99.9363,103.264,0.00250577,0.0628426,20.9187,136.416,-0.301941,0.0,0.0
564,140.75,60.1992,63.8175,145.016,99.9966,102.494,0.0025315,0.0627054,20.9189,136.476,-0.227351,0.0,0.0
566,141.25,60.0366,64.064,142.036,100.022,102.828,0.00256611,0.0625553,20.9191,136.406,-0.255066,0.0,0.0
568,141.75,59.9367,63.7921,142.872,100.053,103.267,0.00259414,0.0623986,20.919,136.466,-0.291454,0.0,0.0
570,142.25,59.8534,63.7105,144.362,100.041,103.094,0.00262949,0.0622327,20.919,136.396,-0.277121,0.0,0.0
572,142.75,60.132,63.7104,143.546,100.085,102.525,0.00265812,0.0620633,20.9189,136.456,-0.221964,0.0,0.0
574,143.25,60.1285,64.0204,145.717,100.097,101.577,0.00268384,0.061926,20.9189,136.406,-0.135224,0.0,0.0
576,143.75,59.9417,64.0821,144.481,100.127,101.667,0.00270467,0.0617852,20.9189,136.426,-0.140705,0.0,0.0
578,144.25,60.1593,63.9474,145.818,100.097,103.384,0.00272155,0.0616712,20.9189,136.376,-0.297776,0.0,0.0
580,144.75,59.7547,64.04,143.775,100.147,103.098,0.00274154,0.0615788,20.9189,136.426,-0.26772,0.0,0.0
582,145.25,60.1271,63.7336,144.179,100.103,103.412,0.00275774,0.0615484,20.9188,136.386,-0.299786,0.0,0.0
584,145.75,60.0353,63.7447,147.144,100.101,102.636,0.00277338,0.0615238,20.9188,136.416,-0.230531,0.0,0.0
586,146.25,59.7486,64.3517,147.567,100.109,102.82,0.00278606,0.0615186,20.9188,136.386,-0.246282,0.0,0.0
588,146.75,60.1135,64.393,148.388,100.119,103.237,0.00279,0.0615145,20.9188,136.396,-0.282676,0.0,0.0
590,147.25,59.9539,64.0454,144.346,100.076,102.894,0.00279319,0.0614222,20.9188,136.396,-0.255917,0.0,0.0
592,147.75,59.8088,64.1904,145.495,100.067,103.405,0.00278187,0.0613475,20.9188,136.406,-0.302425,0.0,0.0
594,148.25,60.3702,64.0979,139.283,100.005,103.984,0.0027727,0.0612278,20.919,136.366,-0.359659,0.0,0.0
596,148.75,59.9501,63.8291,143.074,100.001,103.005,0.00274884,0.0611308,20.9194,136.366,-0.27272,0.0,0.0
598,149.25,60.1432,64.0841,144.729,99.9648,103.626,0.00272951,0.0610078,20.9198,136.366,-0.331512,0.0,0.0
600,149.75,59.9035,63.8392,145.136,99.9411,102.729,0.00270455,0.0609082,20.92,136.366,-0.253582,0.0,0.0
602,150.25,60.3826,64.2439,148.141,99.9117,103.003,0.00267595,0.0608276,20.9202,136.366,-0.280832,0.0,0.0
604,150.75,59.8509,64.3912,144.381,99.8706,102.411,0.00265278,0.0606457,20.9204,136.366,-0.231481,0.0,0.0
606,151.25,60.2551,64.255,148.621,99.8521,101.568,0.00263402,0.0604984,20.9205,136.366,-0.157044,0.0,0.0
608,151.75,60.1341,64.2235,145.22,99.828,103.114,0.00261882,0.0603791,20.9206,136.316,-0.298546,0.0,0.0
610,152.25,59.8,64.6064,147.08,99.7945,103.357,0.00260312,0.0602825,20.9207,136.346,-0.32333,0.0,0.0
612,152.75,60.1247,64.1116,148.24,99.7631,102.16,0.00258735,0.0601886,20.9208,136.316,-0.218785,0.0,0.0
614,153.25,60.3129,64.3393,145.837,99.7478,102.896,0.00257391,0.0600986,20.9209,136.336,-0.286407,0.0,0.0
616,153.75,60.1286,64.3814,143.4,99.708,103.071,0.00256243,0.0600256,20.9214,136.336,-0.305769,0.0,0.0
618,154.25,60.0277,64.3863,146.122,99.6677,102.848,0.00254981,0.0599369,20.9219,136.366,-0.289503,0.0,0.0
620,154.75,60.0444,64.3316,148.292,99.6452,101.957,0.00253659,0.0598417,20.9222,136.336,-0.211362,0.0,0.0
622,155.25,60.0902,64.502,150.053,99.6162,103.175,0.00252722,0.0597436,20.9225,136.366,-0.323576,0.0,0.0
624,155.75,60.0662,64.2702,148.468,99.5783,101.451,0.00252082,0.0596485,20.9227,136.346,-0.171764,0.0,0.0
626,156.25,60.1301,64.3057,144.681,99.5598,102.444,0.00251829,0.0595575,20.9229,136.366,-0.263207,0.0,0.0
628,156.75,60.451,64.3849,145.709,99.5216,102.432,0.00251864,0.0595071,20.9226,136.316,-0.265639,0.0,0.0
630,157.25,60.1825,64.1634,147.58,99.5172,102.242,0.00252145,0.0594874,20.9223,136.376,-0.248994,0.0,0.0
632,157.75,59.9791,64.1448,142.063,99.5023,102.154,0.00252372,0.0594714,20.9221,136.316,-0.242419,0.0,0.0
634,158.25,59.7508,64.388,143.827,99.5622,102.794,0.00252557,0.0595176,20.922,136.366,-0.294397,0.0,0.0
636,158.75,60.0853,64.6456,144.984,99.6359,102.403,0.00251569,0.059555,20.9219,136.296,-0.252447,0.0,0.0
638,159.25,60.2443,64.1952,144.156,99.7796,103.285,0.0025077,0.0595776,20.9218,136.366,-0.318213,0.0,0.0
640,159.75,60.0963,64.2438,143.361,99.8308,102.949,0.0024886,0.0595888,20.9217,136.326,-0.283498,0.0,0.0
642,160.25,59.913,64.4695,143.134,99.9286,102.54,0.00247312,0.0595824,20.9216,136.386,-0.237784,0.0,0.0
644,160.75,59.9571,64.3933,143.596,100.001,103.229,0.00245528,0.0595631,20.9216,136.326,-0.292826,0.0,0.0
646,161.25,59.738,64.9885,147.858,100.072,103.038,0.00243604,0.0595475,20.9215,136.396,-0.269171,0.0,0.0
648,161.75,59.8431,64.4682,144.561,100.134,102.609,0.00242045,0.0594461,20.9215,136.276,-0.225036,0.0,0.0
650,162.25,60.3814,64.6304,143.691,100.167,102.987,0.00240657,0.0593639,20.9217,136.426,-0.255844,0.0,0.0
652,162.75,60.1343,64.7939,149.565,100.22,104,0.00239533,0.0592382,20.9221,136.316,-0.341195,0.0,0.0
654,163.25,60.0948,64.1829,143.327,100.28,102.728,0.00238874,0.0591363,20.9224,136.366,-0.222299,0.0,0.0
656,163.75,60.0428,64.0627,139.612,100.271,103.292,0.00238341,0.059039,20.9226,136.296,-0.273576,0.0,0.0
658,164.25,59.8529,64.3799,148.08,100.343,102.602,0.00237404,0.0589602,20.9228,136.386,-0.205213,0.0,0.0
660,164.75,59.948,64.4539,145.188,100.326,103.453,0.00236645,0.0588497,20.923,136.316,-0.2829,0.0,0.0
662,165.25,60.1548,64.6243,147.533,100.344,104.023,0.00235167,0.0587181,20.9231,136.376,-0.331912,0.0,0.0