File: 01_Data/Corrugated_Cardboard/Cone/Corrugated_Cardboard_Cone_HF75Scan_250211_R3.csv
Names,Time,Stack TC,Smoke TC,Exh Press,Smoke Comp,Smoke Meas,CO Meter,CO2 Meter,O2 Meter,Sample Mass,Ext Coeff,Start Test,Flame Verif
Chan Gain,,500,500,1,1,1,1,1,1,1,1,1.0,1.0
Offset,,0,0,0.131183,0,0,0,0,0,0,0,0.0,0.0
Gain,,1,1,25.011,13.1923,20.2122,1,1,1,1.00092,1.05074,1.0,1.0
Units,sec,C,C,Pa,%,%,%,%,%,g,/m,,
Baseline,,61.6495,65.5612,146.546,100.673,98.7295,0.000396318,0.0349771,20.9539,-438.99,0.179866,,
2,0.25,61.2042,64.4479,145.653,100.636,99.4091,0.000294913,0.0357744,20.9551,129.75,0.113054,0.0,0.0
4,0.75,60.1939,64.2037,143.369,100.625,99.3542,0.000269379,0.0357636,20.9552,129.79,0.117112,0.0,0.0
6,1.25,60.3339,63.9294,147.518,100.583,98.6387,0.000231227,0.0357479,20.955,129.7,0.179895,0.0,0.0
8,1.75,60.448,64.0715,145.424,100.55,99.2043,0.000200324,0.0357198,20.9546,129.76,0.124167,0.0,0.0
10,2.25,60.203,64.2437,146.462,100.515,99.5146,0.000165315,0.0356831,20.9543,129.66,0.0922113,0.0,0.0
12,2.75,60.4161,63.9354,146.069,100.501,97.8356,0.000136958,0.0356688,20.9541,129.74,0.247754,0.0,0.0
14,3.25,60.3351,64.5228,146.072,100.464,98.3315,0.00011924,0.0356711,20.9539,129.66,0.197753,0.0,0.0
16,3.75,60.603,64.2184,144.241,100.445,97.4118,0.000109615,0.035673,20.9538,129.61,0.282629,0.0,0.0
18,4.25,60.5042,64.2866,144.401,100.426,97.0578,0.000101818,0.0357431,20.9536,129.42,0.314454,0.0,1.0
20,4.75,60.1486,64.6464,140.862,100.398,93.4315,9.55027e-05,0.0358615,20.9535,129.299,0.662835,0.0,1.0
22,5.25,61.4268,65.9376,127.261,100.401,91.1843,0.000139202,0.0361584,20.9535,129.119,0.887479,0.0,1.0
24,5.75,61.8785,69.0333,118.368,100.379,90.628,0.000174599,0.0365797,20.9532,128.879,0.941895,0.0,1.0
26,6.25,62.7431,72.066,114.472,100.374,87.1725,0.000208267,0.036921,20.953,128.659,1.29971,0.0,1.0
28,6.75,64.4722,75.133,118.983,100.342,84.9624,0.000235538,0.0376235,20.9527,128.379,1.53345,0.0,1.0
30,7.25,65.9676,79.5335,112.651,100.33,81.9215,0.000246386,0.0381925,20.9521,128.198,1.86828,0.0,1.0
32,7.75,67.0009,83.7172,114.182,100.301,81.2781,0.000255174,0.0389181,20.9517,128.008,1.93832,0.0,1.0
34,8.25,68.2409,86.5748,121.305,100.254,85.4867,0.00025112,0.0395058,20.9509,127.898,1.46872,0.0,1.0
36,8.75,68.3513,87.8944,122.868,100.216,86.9856,0.000237784,0.0401213,20.9501,127.718,1.30496,0.0,1.0
38,9.25,69.2109,89.6389,122.156,100.182,87.7054,0.000221727,0.0407452,20.9492,127.678,1.22589,0.0,1.0
40,9.75,70.008,91.2162,129.317,100.123,90.232,0.000203992,0.0415007,20.9482,127.538,0.958716,0.0,1.0
42,10.25,70.5785,92.5181,130.352,100.076,91.2608,0.000195538,0.0421127,20.9472,127.478,0.849913,0.0,1.0
44,10.75,71.1326,93.4634,125.262,100.066,91.3176,0.000194011,0.0429572,20.9464,127.328,0.84322,0.0,1.0
46,11.25,72.034,94.5642,127.058,100.06,92.1472,0.000192774,0.0439553,20.9457,127.238,0.759305,0.0,0.0
48,11.75,72.1741,95.3572,129.201,100.074,91.7395,0.000191772,0.0447637,20.945,127.127,0.801475,0.0,0.0
50,12.25,72.6059,95.9307,127.969,100.089,92.5494,0.000236998,0.0454185,20.9442,127.027,0.721872,0.0,0.0
52,12.75,72.8416,96.4506,129.076,100.099,91.1992,0.000315066,0.0554458,20.9435,126.967,0.858222,0.0,0.0
54,13.25,73.3294,96.4463,138.104,100.123,93.1995,0.000431048,0.0721151,20.9435,126.897,0.660466,0.0,0.0
56,13.75,73.5964,96.5149,133.061,100.151,91.8555,0.000572467,0.0856172,20.9436,126.837,0.796948,0.0,0.0
58,14.25,74.0261,97.4846,127.482,100.165,93.1884,0.000687015,0.141235,20.9423,126.737,0.66538,0.0,0.0
60,14.75,74.2299,97.6384,133.354,100.214,92.6197,0.000974736,0.186285,20.9412,126.677,0.726394,0.0,0.0
62,15.25,74.5547,97.2045,130.321,100.239,92.8763,0.00120779,0.282068,20.9323,126.577,0.703116,0.0,0.0
64,15.75,74.539,97.12,131.668,100.268,92.4951,0.00164196,0.359651,20.9177,126.517,0.743689,0.0,0.0
66,16.25,74.6271,97.2604,131.467,100.3,90.884,0.00182705,0.464432,20.8613,126.437,0.908649,0.0,0.0
68,16.75,74.4684,97.3065,131.217,100.311,91.4366,0.00230584,0.509102,20.8162,126.397,0.853731,0.0,0.0
70,17.25,75.1006,97.2163,128.975,100.357,91.3429,0.0028397,0.590258,20.7389,126.307,0.867477,0.0,0.0
72,17.75,74.7083,96.958,133.914,100.375,90.5256,0.00336456,0.660288,20.6027,126.237,0.951982,0.0,0.0
74,18.25,75.3101,97.3581,129.963,100.419,89.9131,0.00387289,0.717012,20.4924,126.167,1.01851,0.0,0.0
76,18.75,75.1927,96.979,131.517,100.443,90.401,0.00428464,0.746333,20.403,126.036,0.970885,0.0,0.0
78,19.25,75.6493,97.5328,129.875,100.466,89.0612,0.00465268,0.770083,20.3307,126.056,1.11065,0.0,0.0
80,19.75,75.7579,97.3635,130.123,100.499,88.5036,0.00498185,0.778366,20.272,125.866,1.17156,0.0,0.0
82,20.25,75.9375,97.7725,127.464,100.54,89.1488,0.00524848,0.775216,20.2245,125.866,1.10831,0.0,0.0
84,20.75,76.0406,97.9717,136.232,100.562,89.0538,0.00539501,0.764027,20.1861,125.706,1.12016,0.0,0.0
86,21.25,76.371,98.3401,127.45,100.608,89.1901,0.00551371,0.74719,20.1571,125.726,1.11031,0.0,0.0
88,21.75,76.8862,99.0326,133.321,100.585,90.8957,0.00550849,0.733552,20.1337,125.536,0.933618,0.0,0.0
90,22.25,77.0047,98.5803,131.965,100.653,89.9322,0.00550426,0.709368,20.1244,125.536,1.03803,0.0,0.0
92,22.75,77.0811,98.7819,129.554,100.679,90.1259,0.00541379,0.689778,20.1257,125.426,1.02064,0.0,0.0
94,23.25,77.0094,98.6829,131.412,100.716,90.6095,0.00534052,0.66458,20.1453,125.446,0.974667,0.0,0.0
96,23.75,77.9043,98.8831,134.23,100.723,90.9456,0.0052275,0.644169,20.1611,125.326,0.941196,0.0,0.0
98,24.25,77.861,99.2623,134.951,100.759,91.5181,0.00513596,0.61951,20.1807,125.286,0.886608,0.0,0.0
100,24.75,77.9832,99.0437,130.07,100.762,92.7468,0.00504367,0.599535,20.2026,125.196,0.763943,0.0,0.0
102,25.25,77.881,99.0681,131.388,100.796,94.031,0.0049526,0.580401,20.2203,125.206,0.64036,0.0,0.0
104,25.75,78.4837,99.1444,130.949,100.784,93.8028,0.00487883,0.562243,20.2444,125.086,0.661653,0.0,0.0
106,26.25,78.4459,99.1584,135.125,100.828,91.7339,0.0048184,0.547536,20.2639,125.116,0.87126,0.0,0.0
108,26.75,78.7075,98.9626,126.87,100.819,94.2093,0.00476885,0.535038,20.2797,124.995,0.625001,0.0,0.0
110,27.25,78.5896,98.8262,133.314,100.87,94.0754,0.00472872,0.52439,20.3,125.026,0.642779,0.0,0.0
112,27.75,78.6836,98.92,139.538,100.838,94.4653,0.00472301,0.515765,20.3165,124.905,0.601721,0.0,0.0
114,28.25,78.415,98.0028,139.458,100.878,95.5725,0.00471838,0.510829,20.3312,124.915,0.497961,0.0,0.0
116,28.75,78.4883,97.7018,138.349,100.878,95.9938,0.00474145,0.506831,20.3444,124.825,0.457458,0.0,0.0
118,29.25,78.3935,97.0517,135.882,100.906,96.1116,0.00476014,0.506201,20.355,124.865,0.44869,0.0,0.0
120,29.75,78.2852,96.567,137.399,100.901,97.0387,0.00479316,0.50569,20.3637,124.775,0.359768,0.0,0.0
122,30.25,78.3431,96.3169,130.76,100.936,94.6559,0.00481991,0.506717,20.3707,124.815,0.592081,0.0,0.0
124,30.75,78.2348,95.8232,135.44,100.923,95.9962,0.00483646,0.507548,20.3763,124.705,0.461303,0.0,0.0
126,31.25,77.9087,94.9826,141.136,100.947,95.2406,0.00484987,0.508319,20.38,124.745,0.536309,0.0,0.0
128,31.75,77.8265,94.6631,140.624,100.92,95.979,0.00482242,0.508943,20.3821,124.655,0.462704,0.0,0.0
130,32.25,77.8821,94.2594,134.947,100.95,95.8247,0.00480018,0.508978,20.3838,124.675,0.480281,0.0,0.0
132,32.75,77.3593,93.4078,143.096,100.939,96.7265,0.00478217,0.508581,20.3852,124.645,0.392918,0.0,0.0
134,33.25,77.4132,92.7324,139.732,100.945,98.3395,0.00468214,0.508259,20.3864,124.705,0.240998,0.0,0.0
136,33.75,77.4196,92.1374,140.544,100.936,96.8172,0.00460112,0.505995,20.3873,124.645,0.383987,0.0,0.0
138,34.25,77.0585,91.272,143.637,100.945,97.2422,0.00446805,0.502358,20.388,124.685,0.344462,0.0,0.0
140,34.75,76.7649,90.7111,146.342,100.931,98.1853,0.00436025,0.499412,20.3886,124.635,0.254212,0.0,0.0
142,35.25,77.0902,89.8406,142.763,100.934,97.2379,0.00427294,0.497026,20.3904,124.665,0.343879,0.0,0.0
144,35.75,76.7416,89.0141,143.985,100.917,97.9602,0.00420222,0.484176,20.3919,124.605,0.274122,0.0,0.0
146,36.25,76.5295,88.5564,144.552,100.908,97.8436,0.00406098,0.473767,20.3963,124.615,0.284251,0.0,0.0
148,36.75,75.9556,87.6623,146.471,100.88,98.3877,0.00394658,0.456659,20.3999,124.595,0.23057,0.0,0.0
150,37.25,75.9574,86.4664,143.141,100.901,97.2071,0.00381967,0.442801,20.4062,124.605,0.343787,0.0,0.0
152,37.75,73.8853,85.5859,142.682,100.882,97.5759,0.00371687,0.426863,20.4142,124.595,0.307149,0.0,0.0
154,38.25,73.912,84.5338,142.369,100.856,97.0374,0.00362427,0.409711,20.4208,124.605,0.355765,0.0,0.0
156,38.75,73.7339,84.433,144.148,100.841,97.4001,0.00354085,0.392494,20.4388,124.575,0.320018,0.0,0.0
158,39.25,73.8584,83.1358,146.925,100.841,97.0158,0.00346129,0.375557,20.4535,124.545,0.356418,0.0,0.0
160,39.75,73.3749,82.5972,143.205,100.812,98.1631,0.00338604,0.361838,20.4781,124.565,0.245444,0.0,0.0
162,40.25,72.8453,82.2171,145.223,100.812,96.4403,0.00332509,0.344978,20.4981,124.575,0.408643,0.0,0.0
164,40.75,72.879,81.3024,145.425,100.798,97.9904,0.00325041,0.331322,20.5143,124.545,0.260351,0.0,0.0
166,41.25,72.6805,80.7018,145.753,100.763,97.5975,0.00316714,0.31689,20.5357,124.565,0.294217,0.0,0.0
168,41.75,72.7615,80.2515,145.205,100.731,99.2352,0.00307973,0.302168,20.5531,124.535,0.137856,0.0,0.0
170,42.25,72.1406,79.8657,143.333,100.716,97.938,0.00299096,0.287415,20.5734,124.545,0.257845,0.0,0.0
172,42.75,72.0738,79.6832,141.611,100.678,97.7209,0.00289779,0.272919,20.5898,124.515,0.2748,0.0,0.0
174,43.25,72.3017,79.2803,144.156,100.651,96.7734,0.00280318,0.261177,20.6093,124.535,0.362129,0.0,0.0
176,43.75,72.0597,78.8111,147.448,100.648,97.9867,0.00272456,0.246068,20.6251,124.535,0.246957,0.0,0.0
178,44.25,71.6468,78.2214,144.997,100.632,97.8732,0.00265908,0.231651,20.6471,124.505,0.256165,0.0,0.0
180,44.75,71.4411,78.0566,144.586,100.595,98.297,0.00261999,0.218012,20.665,124.515,0.213025,0.0,0.0
182,45.25,71.7202,77.7189,145.394,100.558,97.199,0.00260089,0.206965,20.6856,124.465,0.313161,0.0,0.0
184,45.75,71.1867,77.4332,140.517,100.528,96.6729,0.00258542,0.194892,20.7023,124.495,0.360459,0.0,0.0
186,46.25,70.8797,77.2983,144.32,100.484,97.505,0.00263241,0.185112,20.7207,124.485,0.277403,0.0,0.0
188,46.75,70.8494,76.6685,144.588,100.467,95.9709,0.00267048,0.176012,20.7356,124.515,0.422016,0.0,0.0
190,47.25,70.6406,76.126,143.197,100.431,97.4741,0.00274864,0.16758,20.7477,124.485,0.275406,0.0,0.0
192,47.75,70.6645,76.7397,141.595,100.403,96.6661,0.00285453,0.160751,20.7592,124.495,0.349581,0.0,0.0
194,48.25,70.4281,75.46,143.303,100.348,97.2145,0.00294031,0.154239,20.7701,124.465,0.292417,0.0,0.0
196,48.75,70.4356,75.3598,144.632,100.341,97.7776,0.00307831,0.148083,20.7802,124.475,0.238511,0.0,0.0
198,49.25,70.2839,75.3502,147.232,100.297,97.1003,0.00319009,0.142736,20.7893,124.445,0.298507,0.0,0.0
200,49.75,69.8935,74.9905,145.401,100.278,97.7215,0.0033035,0.138082,20.7979,124.455,0.238069,0.0,0.0
202,50.25,69.726,74.7836,146.835,100.235,97.9115,0.00339536,0.134223,20.8059,124.425,0.216135,0.0,0.0
204,50.75,69.576,74.3539,143.075,100.226,97.2922,0.00347612,0.131019,20.8131,124.455,0.273803,0.0,0.0
206,51.25,70.1635,74.056,145.603,100.172,97.3335,0.00354154,0.128472,20.8195,124.425,0.264962,0.0,0.0
208,51.75,69.2231,74.1998,144.493,100.151,96.845,0.00359961,0.126451,20.825,124.445,0.309414,0.0,0.0
210,52.25,69.2593,73.7372,141.373,100.112,96.8296,0.00364665,0.124823,20.8296,124.395,0.307249,0.0,0.0
212,52.75,69.2707,73.9257,140.104,100.09,97.3699,0.00369747,0.123511,20.8333,124.445,0.253994,0.0,0.0
214,53.25,69.3314,73.4505,144.12,100.053,96.8271,0.00373863,0.122281,20.8364,124.405,0.302071,0.0,0.0
216,53.75,68.9376,73.3279,145.846,100.023,97.5408,0.00377197,0.121133,20.8388,124.435,0.231604,0.0,0.0
218,54.25,69.3311,72.9792,141.269,99.997,98.5345,0.00383587,0.120203,20.8408,124.385,0.135806,0.0,0.0
220,54.75,68.7109,73.313,146.606,99.9805,97.0467,0.00388763,0.11901,20.8424,124.435,0.274514,0.0,0.0
222,55.25,68.7995,72.3677,147.909,99.9359,98.0083,0.0039754,0.118044,20.844,124.365,0.179511,0.0,0.0
224,55.75,68.5563,72.3554,144.303,99.9222,97.3249,0.0040465,0.117038,20.8454,124.415,0.242748,0.0,0.0
226,56.25,68.3807,72.1597,143.79,99.8851,96.7352,0.00412348,0.116023,20.8466,124.365,0.295345,0.0,0.0
228,56.75,68.1629,71.8094,144.224,99.8791,96.4533,0.0042033,0.114994,20.8476,124.415,0.321686,0.0,0.0
230,57.25,68.0413,71.9275,150.069,99.8513,97.1676,0.00428003,0.113976,20.8483,124.365,0.251116,0.0,0.0
232,57.75,68.1775,71.6629,140.591,99.8392,97.2712,0.00435307,0.113151,20.849,124.435,0.240178,0.0,0.0
234,58.25,67.9652,71.6284,141.378,99.8042,96.3201,0.00441223,0.112275,20.851,124.365,0.327514,0.0,0.0
236,58.75,67.7701,71.3289,144.513,99.8034,97.059,0.00446015,0.11138,20.8526,124.405,0.256997,0.0,0.0
238,59.25,68.0105,71.275,144.178,99.7837,97.0707,0.00454494,0.110655,20.8539,124.355,0.254063,0.0,0.0
240,59.75,67.8117,70.8427,150.92,99.7833,96.5076,0.00461362,0.109706,20.8549,124.395,0.307654,0.0,0.0
242,60.25,67.5092,70.4299,143.604,99.7482,97.1811,0.00469737,0.108936,20.8559,124.335,0.240312,0.0,0.0
244,60.75,67.3298,70.8099,142.63,99.7587,97.0547,0.00476521,0.10813,20.857,124.365,0.253279,0.0,0.0
246,61.25,67.337,70.4208,144.143,99.7519,97.0714,0.00482016,0.107313,20.8579,124.345,0.251066,0.0,0.0
248,61.75,67.1365,70.6038,143.322,99.7313,97.5636,0.00488898,0.106651,20.859,124.385,0.202549,0.0,0.0
250,62.25,67.2717,70.4016,147.551,99.7193,98.0731,0.00494606,0.105663,20.8599,124.305,0.153424,0.0,0.0
252,62.75,67.2105,70.265,144.455,99.7253,97.2342,0.00499351,0.104862,20.8611,124.345,0.233162,0.0,0.0
254,63.25,66.7875,70.0428,143.265,99.7176,97.5938,0.00503195,0.103883,20.8621,124.275,0.198429,0.0,0.0
256,63.75,67.3405,69.8977,141.962,99.7068,97.7184,0.00504497,0.103465,20.8627,124.315,0.185664,0.0,0.0
258,64.25,66.8608,69.848,143.948,99.7036,96.032,0.00506723,0.102465,20.8638,124.275,0.34582,0.0,0.0
260,64.75,66.8378,69.8134,140.377,99.7285,95.4127,0.00507375,0.101654,20.865,124.335,0.407759,0.0,0.0
262,65.25,66.664,69.776,145.261,99.7011,97.1978,0.00507903,0.100856,20.8661,124.265,0.234379,0.0,0.0
264,65.75,66.7475,69.7557,142.421,99.7277,97.0855,0.00506668,0.10008,20.8674,124.305,0.247487,0.0,0.0
266,66.25,66.9564,69.4108,143.098,99.7241,97.0936,0.00505668,0.0992615,20.869,124.255,0.24639,0.0,0.0
268,66.75,66.8864,69.3099,138.269,99.7595,96.9949,0.00503586,0.0984263,20.8702,124.325,0.259038,0.0,0.0
270,67.25,66.1065,69.295,147.209,99.7374,97.1867,0.00500755,0.0977499,20.8712,124.285,0.238781,0.0,0.0
272,67.75,66.7886,69.1352,146.542,99.7615,96.9282,0.00498462,0.0968116,20.872,124.315,0.265557,0.0,0.0
274,68.25,66.2163,69.2005,137.826,99.772,97.4902,0.00494454,0.0960515,20.8727,124.235,0.213243,0.0,0.0
276,68.75,66.7131,69.0258,145.397,99.7978,98.1582,0.00489272,0.0952859,20.8731,124.305,0.152682,0.0,0.0
278,69.25,66.1335,69.2215,144.174,99.8135,98.0873,0.00483261,0.0945306,20.8734,124.235,0.160796,0.0,0.0
280,69.75,66.4344,68.9666,142.19,99.8537,96.9276,0.00476761,0.0939189,20.8745,124.315,0.274129,0.0,0.0
282,70.25,65.6717,68.6926,145.874,99.8316,97.2237,0.00470757,0.0932585,20.8754,124.265,0.243973,0.0,0.0
284,70.75,65.7831,68.9372,146.735,99.861,97.0276,0.0046523,0.0927235,20.8761,124.295,0.2653,0.0,0.0
286,71.25,66.0152,68.5275,148.015,99.9,98.5055,0.00461491,0.0921853,20.8767,124.255,0.129569,0.0,0.0
288,71.75,65.7475,68.6157,146.662,99.9326,97.5648,0.00459127,0.0917493,20.8776,124.275,0.221018,0.0,0.0
290,72.25,66.0565,68.8264,142.518,99.9375,97.3378,0.00458555,0.0912613,20.8784,124.235,0.242932,0.0,0.0
292,72.75,65.7818,68.65,147.823,99.9809,98.0558,0.004593,0.0907872,20.879,124.255,0.179204,0.0,0.0
294,73.25,65.5254,68.3971,146.326,100.014,97.5716,0.00460576,0.0903322,20.8795,124.215,0.227911,0.0,0.0
296,73.75,65.3945,68.7226,144.385,100.048,97.0966,0.00462213,0.0899636,20.8803,124.245,0.276003,0.0,0.0
298,74.25,65.4494,68.5493,146.559,100.091,96.9868,0.0046354,0.0894554,20.881,124.215,0.290362,0.0,0.0
300,74.75,65.4827,68.2674,144.285,100.116,97.0936,0.00463405,0.0890438,20.8816,124.235,0.282524,0.0,0.0
302,75.25,65.1545,68.4535,144.895,100.14,97.7912,0.00462208,0.088608,20.8825,124.215,0.218722,0.0,0.0
304,75.75,65.3942,68.3876,142.662,100.168,97.8226,0.00459493,0.0881628,20.8832,124.225,0.218352,0.0,0.0
306,76.25,65.5472,68.4632,147.934,100.199,97.3224,0.00455724,0.0878022,20.8838,124.205,0.268495,0.0,0.0
308,76.75,65.5225,68.7452,144.475,100.231,97.5192,0.00452671,0.0873007,20.8842,124.205,0.252768,0.0,0.0
310,77.25,65.3958,68.016,146.615,100.278,97.7233,0.0044765,0.0868944,20.8846,124.185,0.237822,0.0,0.0
312,77.75,65.6893,68.223,144.494,100.299,98.9459,0.00443582,0.0865024,20.8849,124.155,0.125153,0.0,0.0
314,78.25,65.3397,68.1436,144.852,100.349,97.967,0.0044067,0.0861282,20.8854,124.215,0.221379,0.0,0.0
316,78.75,65.0517,68.705,143.651,100.393,97.909,0.00438311,0.0857543,20.886,124.175,0.230941,0.0,0.0
318,79.25,65.1762,68.3775,144.535,100.431,97.4069,0.00437547,0.0853876,20.8865,124.165,0.281766,0.0,0.0
320,79.75,64.868,68.1588,140.739,100.481,98.115,0.00436928,0.0850199,20.8873,124.145,0.219621,0.0,0.0
322,80.25,64.9945,67.9607,143.696,100.504,98.0348,0.00437365,0.0846583,20.888,124.185,0.229261,0.0,0.0
324,80.75,64.7851,67.8689,140.361,100.543,99.3098,0.00438565,0.0843654,20.8885,124.135,0.113708,0.0,0.0
326,81.25,65.4583,67.7065,140.847,100.582,98.1816,0.00439537,0.0841281,20.889,124.155,0.222666,0.0,0.0
328,81.75,65.1362,68.0398,143.005,100.631,98.6541,0.00440324,0.0838463,20.8893,124.125,0.182844,0.0,0.0
330,82.25,64.3489,67.9686,144.136,100.69,97.1707,0.0044264,0.083618,20.8896,124.225,0.327875,0.0,0.0
332,82.75,65.2642,67.6906,147.696,100.692,97.3014,0.00446026,0.0834331,20.8908,124.155,0.315663,0.0,0.0
334,83.25,64.7394,67.8766,145.209,100.758,98.1514,0.00449575,0.0832983,20.8917,124.215,0.241539,0.0,0.0
336,83.75,64.3271,67.6549,144.337,100.781,99.002,0.00453175,0.0832048,20.8925,124.155,0.164141,0.0,0.0
338,84.25,64.7764,67.3844,146.368,100.837,99.1815,0.00455621,0.0831432,20.8931,124.215,0.152562,0.0,0.0
340,84.75,64.1688,67.4259,143.272,100.842,97.9799,0.00457179,0.0830855,20.8936,124.155,0.265386,0.0,0.0
342,85.25,64.5429,67.4967,148.96,100.912,98.2217,0.00457031,0.0830317,20.894,124.185,0.249069,0.0,0.0
344,85.75,64.5405,67.5462,144.317,100.917,98.123,0.00455642,0.082933,20.8943,124.135,0.25874,0.0,0.0
346,86.25,64.4241,67.3559,140.926,100.958,99.1383,0.00453041,0.0828036,20.8946,124.165,0.167645,0.0,0.0
348,86.75,64.3527,67.7279,143.175,100.972,97.3909,0.00449605,0.0826673,20.8948,124.115,0.332808,0.0,0.0
350,87.25,64.3686,67.7363,147.56,101.024,98.9465,0.00446823,0.0825286,20.895,124.145,0.191487,0.0,0.0
352,87.75,64.1516,67.6147,142.232,101.043,98.9767,0.00443027,0.0824162,20.8951,124.075,0.190472,0.0,0.0
354,88.25,64.6493,67.7436,142.092,101.097,98.2575,0.00439953,0.0822713,20.8952,124.135,0.262575,0.0,0.0
356,88.75,64.5933,67.7278,143.445,101.102,98.4839,0.00437397,0.0821053,20.8953,124.085,0.241842,0.0,0.0
358,89.25,64.3268,67.7627,141.887,101.146,98.1749,0.00435265,0.0819709,20.8956,124.145,0.274809,0.0,0.0
360,89.75,64.1421,67.6971,146.05,101.161,99.1507,0.00433539,0.0817425,20.8958,124.065,0.185005,0.0,0.0
362,90.25,64.4625,67.4951,143.905,101.197,99.5251,0.00431758,0.0815576,20.8959,124.125,0.153529,0.0,0.0
364,90.75,64.4206,67.6296,147.617,101.196,98.2168,0.00430316,0.0813056,20.896,124.055,0.27542,0.0,0.0
366,91.25,64.565,67.6226,142.711,101.241,97.7159,0.00428812,0.0810097,20.8962,124.135,0.326685,0.0,0.0
368,91.75,64.1286,68.133,142.806,101.258,98.3192,0.00427293,0.0806914,20.8962,124.075,0.271424,0.0,0.0
370,92.25,63.9686,68.0944,147.929,101.315,99.1334,0.00425459,0.0803629,20.8963,124.135,0.200612,0.0,0.0
372,92.75,64.4507,67.6671,144.74,101.287,97.6561,0.00423431,0.0800812,20.8968,124.065,0.336435,0.0,0.0
374,93.25,64.3782,67.3858,142.25,101.329,98.4111,0.00420716,0.0798388,20.8972,124.135,0.269333,0.0,0.0
376,93.75,63.7953,67.6017,141.038,101.329,98.4753,0.00417553,0.0796425,20.8975,124.065,0.263327,0.0,0.0
378,94.25,63.597,67.653,145.529,101.342,98.2378,0.00414455,0.0794835,20.8978,124.105,0.286717,0.0,0.0
380,94.75,63.9124,67.4562,144.194,101.32,98.6017,0.00411463,0.0793547,20.898,124.045,0.250694,0.0,0.0
382,95.25,63.9979,67.5474,144.081,101.376,98.3846,0.0040904,0.0792802,20.8982,124.085,0.276101,0.0,0.0
384,95.75,64.1747,67.8585,145.459,101.376,98.5234,0.00410513,0.0792199,20.8983,124.035,0.263072,0.0,0.0
386,96.25,63.9986,67.6266,146.458,101.388,98.1644,0.00411707,0.0791946,20.8984,124.095,0.297852,0.0,0.0
388,96.75,63.9791,67.4501,141.599,101.395,98.3883,0.00414551,0.0791953,20.8985,124.045,0.277438,0.0,0.0
390,97.25,64.002,67.4818,145.503,101.414,99.9322,0.00418544,0.0791487,20.8986,124.095,0.135683,0.0,0.0
392,97.75,64.123,68.0475,147.856,101.375,99.7737,0.00421778,0.0790686,20.8987,124.015,0.146767,0.0,0.0
394,98.25,63.5628,67.2749,144.236,101.403,98.2698,0.00425672,0.0790037,20.8987,124.055,0.289309,0.0,0.0
396,98.75,63.7105,67.4208,146.73,101.379,98.4426,0.00428827,0.0788617,20.8987,124.015,0.270927,0.0,0.0
398,99.25,63.8555,67.7802,147.56,101.406,99.2124,0.00429598,0.0787466,20.8992,124.075,0.201586,0.0,0.0
400,99.75,64.2141,67.3568,145.937,101.388,99.2864,0.00430222,0.0785192,20.8996,124.015,0.193063,0.0,0.0
402,100.25,63.9355,67.2836,147.315,101.383,97.9392,0.00428053,0.078335,20.8999,124.085,0.31854,0.0,0.0
404,100.75,63.8406,67.6143,147.414,101.374,99.25,0.00426296,0.078076,20.9002,124.015,0.195199,0.0,0.0
406,101.25,63.5601,67.5051,142.678,101.387,99.7922,0.00424002,0.0777674,20.9004,124.075,0.146119,0.0,0.0
408,101.75,63.5981,67.3934,143.682,101.354,98.4857,0.00421359,0.0775174,20.9005,124.005,0.264616,0.0,0.0
410,102.25,63.717,67.5148,145.995,101.33,99.155,0.00419219,0.0770765,20.9007,124.055,0.199998,0.0,0.0
412,102.75,63.5611,67.1177,144.113,101.297,98.5912,0.00417284,0.0767194,20.9008,124.015,0.24955,0.0,0.0
414,103.25,63.4176,66.7152,148.319,101.325,99.1741,0.00415536,0.0763674,20.9009,124.045,0.197779,0.0,0.0
416,103.75,63.9991,67.3278,148.489,101.28,98.0712,0.00413652,0.0760259,20.9009,124.025,0.296715,0.0,0.0
418,104.25,63.5093,66.9934,147.355,101.253,99.2469,0.00411703,0.0757493,20.901,124.045,0.184424,0.0,0.0
420,104.75,63.35,67.1118,144.197,101.227,98.7232,0.00410125,0.0755252,20.9015,124.015,0.230842,0.0,0.0
422,105.25,63.4609,67.0787,143.371,101.217,98.1816,0.00407106,0.0751949,20.9019,124.025,0.28059,0.0,0.0
424,105.75,63.2241,66.8351,150.999,101.191,98.4389,0.00403095,0.0749273,20.9024,124.015,0.254128,0.0,0.0
426,106.25,63.234,67.2453,146.287,101.178,98.5221,0.00398775,0.074651,20.9028,124.015,0.245161,0.0,0.0
428,106.75,63.2206,66.6314,148.099,101.146,99.807,0.00394313,0.0744272,20.9032,123.985,0.122876,0.0,0.0
430,107.25,63.8626,66.7944,144.766,101.107,100.102,0.00389896,0.0741268,20.9035,123.995,0.0920557,0.0,0.0
432,107.75,63.432,67.0188,145.832,101.08,99.0773,0.00385596,0.0738836,20.9037,124.015,0.184455,0.0,0.0
434,108.25,63.174,66.8297,146.024,101.044,98.1255,0.00382114,0.0735824,20.9039,123.985,0.270155,0.0,0.0
436,108.75,63.2738,66.3791,152.335,101.031,98.6918,0.00375992,0.0733384,20.9042,123.985,0.215909,0.0,0.0
438,109.25,63.3503,66.8823,140.628,101.004,98.8379,0.00371033,0.0730537,20.9048,123.965,0.199842,0.0,0.0
440,109.75,63.5422,66.8113,145.935,100.977,99.3191,0.00367016,0.0727446,20.9052,123.995,0.152586,0.0,0.0
442,110.25,62.919,66.6806,143.195,100.926,98.5647,0.00358195,0.0724942,20.9054,123.985,0.218192,0.0,0.0
444,110.75,63.2031,66.6559,144.971,100.9,99.0168,0.00351051,0.0721427,20.9056,123.955,0.173693,0.0,0.0
446,111.25,62.9891,66.3235,145.903,100.881,98.1952,0.0034413,0.071858,20.9057,123.955,0.248689,0.0,0.0
448,111.75,63.1572,66.8203,140.607,100.854,98.5406,0.00337504,0.0715805,20.9058,123.955,0.213895,0.0,0.0
450,112.25,63.1029,66.6905,150.369,100.805,99.0865,0.00332517,0.0713134,20.9058,123.965,0.158523,0.0,0.0
452,112.75,63.332,66.6713,147.251,100.773,99.6818,0.00328477,0.0710377,20.9059,123.965,0.100338,0.0,0.0
454,113.25,63.0433,66.5791,147.043,100.739,98.0577,0.00327288,0.0709201,20.9059,123.935,0.24869,0.0,0.0
456,113.75,62.7937,66.563,146.666,100.71,98.7355,0.00324389,0.0705442,20.906,123.914,0.182463,0.0,0.0
458,114.25,63.3068,66.4077,146.328,100.677,98.5172,0.00324543,0.0704291,20.906,123.914,0.199885,0.0,0.0
460,114.75,62.6408,66.4566,149.376,100.646,99.6127,0.00324806,0.070154,20.9064,123.935,0.0950849,0.0,0.0
462,115.25,63.2368,66.4192,145.794,100.613,99.3962,0.00326087,0.0698608,20.9068,123.935,0.112116,0.0,0.0
464,115.75,63.211,66.3909,141.354,100.591,98.4685,0.00328085,0.0696233,20.9076,123.924,0.196553,0.0,0.0
466,116.25,62.8569,66.0966,144.845,100.548,99.1494,0.00329704,0.0693122,20.9082,123.894,0.129084,0.0,0.0
468,116.75,62.8139,66.6248,143.759,100.528,98.7041,0.00332617,0.0690601,20.9087,123.904,0.168805,0.0,0.0
470,117.25,62.7848,65.9416,145.361,100.496,97.4501,0.0033642,0.0688169,20.9091,123.894,0.283702,0.0,0.0
472,117.75,62.8081,66.2764,145.037,100.473,98.4092,0.00340435,0.0685847,20.9094,123.924,0.191284,0.0,0.0
474,118.25,62.701,66.3773,147.188,100.437,97.9824,0.00344529,0.0683966,20.9096,123.874,0.228098,0.0,0.0
476,118.75,62.8203,65.7337,145.384,100.439,97.4297,0.00347845,0.06817,20.9099,123.924,0.28042,0.0,0.0
478,119.25,63.2297,66.2415,144.022,100.4,98.2051,0.00351294,0.0679865,20.91,123.894,0.203702,0.0,0.0
480,119.75,62.4942,65.901,147.196,100.391,97.7998,0.00354087,0.0678379,20.9102,123.935,0.24104,0.0,0.0
482,120.25,62.6862,65.9219,143.124,100.389,98.1292,0.00354698,0.0677175,20.9103,123.924,0.209865,0.0,0.0
484,120.75,62.937,66.3085,142.437,100.434,97.7147,0.00355194,0.0675902,20.9104,123.965,0.253019,0.0,0.0
486,121.25,62.9489,65.6528,148.386,100.467,98.8762,0.0035255,0.0674872,20.9104,123.914,0.1471,0.0,0.0
488,121.75,62.7376,66.3485,145.149,100.532,97.7782,0.00350408,0.0673334,20.9105,123.945,0.256002,0.0,0.0
490,122.25,62.4668,66.2639,145.91,100.551,98.767,0.00344996,0.0671456,20.9108,123.864,0.164998,0.0,0.0
492,122.75,62.5155,66.1331,144.919,100.573,98.4296,0.00340613,0.0669076,20.9112,123.924,0.19857,0.0,0.0
494,123.25,62.4563,66.2328,147.583,100.6,97.9035,0.00337062,0.0666374,20.9116,123.844,0.250405,0.0,0.0
496,123.75,62.5644,66.118,144.033,100.646,99.3931,0.00331272,0.0664187,20.9119,123.874,0.1155,0.0,0.0
498,124.25,62.8029,66.2667,147.991,100.652,98.26,0.00326583,0.0661376,20.9121,123.834,0.221695,0.0,0.0
500,124.75,62.4376,65.9885,143.952,100.687,98.9829,0.00321138,0.0659099,20.9123,123.884,0.157302,0.0,0.0
502,125.25,62.5623,66.3205,144.384,100.706,97.5839,0.00316728,0.0656787,20.9124,123.824,0.290267,0.0,0.0
504,125.75,62.4328,65.905,144.48,100.729,97.1522,0.00310752,0.0654493,20.9126,123.884,0.333204,0.0,0.0
506,126.25,62.5096,66.3259,144.531,100.723,98.7676,0.00305911,0.0652166,20.9127,123.834,0.180649,0.0,0.0
508,126.75,62.5958,66.6169,146.828,100.743,97.9892,0.00300093,0.064986,20.9127,123.914,0.255496,0.0,0.0
510,127.25,62.3178,66.2889,149.208,100.741,99.0248,0.0029538,0.0647992,20.9128,123.824,0.158334,0.0,0.0
512,127.75,62.4489,66.2964,146.362,100.756,98.8657,0.00291563,0.0646635,20.9129,123.884,0.174595,0.0,0.0
514,128.25,62.4237,66.2506,141.966,100.727,98.5678,0.00287939,0.0645676,20.9129,123.814,0.19976,0.0,0.0
516,128.75,62.126,65.9835,144.123,100.759,98.9212,0.00284524,0.0645056,20.9135,123.884,0.169679,0.0,0.0
518,129.25,62.1272,65.9372,144.071,100.735,99.1667,0.00282424,0.0644694,20.9141,123.814,0.144586,0.0,0.0
520,129.75,62.3495,65.8071,147.386,100.737,98.6517,0.00281321,0.06444,20.9145,123.864,0.192803,0.0,0.0
522,130.25,62.5085,65.9405,143.843,100.698,99.5337,0.00280428,0.0644641,20.9148,123.794,0.107222,0.0,0.0
524,130.75,62.4606,65.9061,148.64,100.708,98.9243,0.00280497,0.0645267,20.9151,123.864,0.16475,0.0,0.0
526,131.25,62.401,65.5024,145.867,100.655,98.2211,0.00281265,0.0645774,20.9155,123.794,0.2256,0.0,0.0
528,131.75,62.5971,65.5556,147.592,100.654,98.7103,0.00281888,0.0646482,20.9158,123.834,0.179739,0.0,0.0
530,132.25,62.13,66.1448,141.63,100.607,98.136,0.00282013,0.0647055,20.916,123.794,0.229202,0.0,0.0
532,132.75,62.2555,66.1037,145.001,100.599,97.8492,0.00282114,0.0647519,20.9162,123.854,0.255443,0.0,0.0
534,133.25,62.3663,66.0836,143.029,100.558,99.72,0.0028169,0.0647895,20.9164,123.794,0.0771186,0.0,0.0
536,133.75,62.3551,65.9078,147.996,100.537,98.6924,0.00281346,0.0648792,20.9165,123.844,0.170712,0.0,0.0
538,134.25,62.3349,65.8031,142.788,100.474,99.0896,0.00280689,0.064952,20.9167,123.794,0.127891,0.0,0.0
540,134.75,62.06,65.8554,144.533,100.466,97.769,0.00280156,0.0649796,20.9167,123.854,0.250782,0.0,0.0
542,135.25,62.1656,66.1298,147.526,100.403,98.4049,0.00279525,0.064974,20.9168,123.784,0.185259,0.0,0.0
544,135.75,62.0598,65.3937,147.277,100.404,98.0305,0.00278834,0.0649381,20.9169,123.844,0.220544,0.0,0.0
546,136.25,62.6746,66.2724,146.04,100.381,98.9514,0.00277742,0.064881,20.9169,123.814,0.132218,0.0,0.0
548,136.75,62.3739,65.7262,138.155,100.371,97.8412,0.00276379,0.0648348,20.9165,123.834,0.23526,0.0,0.0
550,137.25,62.2475,66.0557,144.575,100.332,99.274,0.00275274,0.0647083,20.9162,123.804,0.0977064,0.0,0.0
552,137.75,62.5078,66.0838,147.434,100.318,98.9224,0.00273183,0.0646059,20.9159,123.804,0.12915,0.0,0.0
554,138.25,62.6102,65.8699,143.818,100.262,98.532,0.00270411,0.0644761,20.9157,123.784,0.160459,0.0,0.0
556,138.75,62.1669,66.008,143.126,100.235,98.6147,0.002677,0.0643288,20.9155,123.754,0.150212,0.0,0.0
558,139.25,62.4405,66.1294,144.187,100.187,97.1941,0.00265086,0.064194,20.9154,123.754,0.279544,0.0,0.0
560,139.75,62.2121,66.4951,146.191,100.17,97.4643,0.00263101,0.0640707,20.9153,123.764,0.252366,0.0,0.0
562,140.25,62.4739,66.4979,145.065,100.126,97.6228,0.00261613,0.0639708,20.9156,123.774,0.233348,0.0,0.0
564,140.75,62.4009,66.179,146.748,100.087,98.1563,0.00260873,0.0638306,20.9159,123.754,0.179514,0.0,0.0
566,141.25,62.1663,66.4525,142.069,100.062,98.0694,0.00260693,0.063678,20.9161,123.784,0.185385,0.0,0.0
568,141.75,62.0888,66.3708,143.897,100.072,98.2575,0.00261145,0.0635194,20.9163,123.734,0.168686,0.0,0.0
570,142.25,62.2076,66.3809,146.176,100.08,99.2697,0.0026205,0.0633909,20.9165,123.754,0.074925,0.0,0.0
572,142.75,62.27,66.452,143.413,100.091,97.9861,0.00262784,0.0632571,20.9166,123.744,0.195885,0.0,0.0
574,143.25,62.6297,66.6132,142.869,100.123,98.3926,0.002654,0.0631488,20.9167,123.714,0.160656,0.0,0.0
576,143.75,62.8201,66.4842,144.376,100.144,98.231,0.00267519,0.0630688,20.9168,123.754,0.177772,0.0,0.0
578,144.25,62.3569,66.3978,142.772,100.171,97.0738,0.00269236,0.0630111,20.9168,123.744,0.289438,0.0,0.0
580,144.75,62.4446,66.2551,147.36,100.174,97.4618,0.00270879,0.0629643,20.9169,123.694,0.252969,0.0,0.0
582,145.25,62.3365,66.275,145.685,100.244,98.3753,0.00272211,0.0629561,20.9169,123.724,0.17346,0.0,0.0
584,145.75,62.5845,66.1632,146.283,100.274,97.4729,0.00272404,0.0629494,20.917,123.724,0.261102,0.0,0.0
586,146.25,62.1084,66.224,146.959,100.305,97.6765,0.0027256,0.062944,20.917,123.744,0.244796,0.0,0.0
588,146.75,62.1488,66.5967,148.449,100.339,97.9423,0.00271297,0.0629396,20.917,123.694,0.222815,0.0,0.0
590,147.25,62.6851,66.354,147.963,100.385,98.1594,0.00270758,0.06293,20.917,123.724,0.206656,0.0,0.0
592,147.75,62.4952,66.2585,141.656,100.413,98.078,0.00269105,0.0629134,20.917,123.704,0.216818,0.0,0.0
594,148.25,61.9231,66.1196,145.337,100.44,99.5732,0.00267108,0.0629001,20.9171,123.754,0.0798792,0.0,0.0
596,148.75,62.8213,66.186,150.99,100.491,97.0707,0.00265091,0.0628892,20.9171,123.704,0.319172,0.0,0.0
598,149.25,62.1708,65.9926,149.034,100.511,98.4018,0.00263099,0.0629038,20.9171,123.764,0.195485,0.0,0.0
600,149.75,61.8852,66.1944,146.121,100.538,99.7521,0.00261751,0.0629367,20.9171,123.714,0.072346,0.0,0.0
602,150.25,62.413,66.2132,145.742,100.592,99.2568,0.00260899,0.0629634,20.9171,123.784,0.123206,0.0,0.0
604,150.75,62.2732,65.8098,142.724,100.578,99.1914,0.00260208,0.0629849,20.9175,123.734,0.12799,0.0,0.0
606,151.25,61.5931,66.1868,142.767,100.657,98.2637,0.00259649,0.0630248,20.9179,123.824,0.221754,0.0,0.0
608,151.75,61.8171,66.0718,148.195,100.665,99.5084,0.00261264,0.0630772,20.9182,123.734,0.106505,0.0,0.0
610,152.25,62.073,65.4915,146.145,100.711,99.1858,0.00264435,0.0631196,20.9188,123.794,0.140636,0.0,0.0
612,152.75,62.2395,65.846,144.263,100.715,97.5327,0.00267003,0.0631096,20.9194,123.714,0.295916,0.0,0.0
614,153.25,62.1315,66.3481,143.946,100.737,99.0785,0.00272373,0.0631014,20.9197,123.794,0.153009,0.0,0.0
616,153.75,61.9225,65.7836,144.331,100.76,98.9175,0.00276722,0.0629615,20.9199,123.704,0.170097,0.0,0.0
618,154.25,61.868,65.7457,142.972,100.785,99.96,0.00281384,0.0628481,20.92,123.804,0.0757565,0.0,0.0
620,154.75,62.1606,66.604,143.946,100.815,99.2969,0.0028516,0.0626525,20.9202,123.724,0.139861,0.0,0.0
622,155.25,62.0793,65.8599,146.79,100.824,99.1581,0.00288219,0.0624942,20.9203,123.804,0.153563,0.0,0.0
624,155.75,61.9662,65.6611,143.546,100.833,98.6288,0.00290696,0.0622918,20.9203,123.634,0.203735,0.0,0.0
626,156.25,62.1523,65.9103,147.045,100.857,99.3875,0.00292577,0.0621279,20.9204,123.814,0.13524,0.0,0.0
628,156.75,61.8848,65.8099,144.797,100.851,101.179,0.002941,0.0619655,20.9205,124.005,-0.0299511,0.0,0.0
629,157,62.2701,65.8467,147.431,100.866,99.7009,0.00294482,0.0618963,20.9205,122.793,0.107109,0.0,0.0