File: 01_Data/Corrugated_Cardboard/Cone/Corrugated_Cardboard_Cone_HF50Scan_250211_R2.csv
Names,Time,Stack TC,Smoke TC,Exh Press,Smoke Comp,Smoke Meas,CO Meter,CO2 Meter,O2 Meter,Sample Mass,Ext Coeff,Start Test,Flame Verif
Chan Gain,,500,500,1,1,1,1,1,1,1,1,1.0,1.0
Offset,,0,0,0.131183,0,0,0,0,0,0,0,0.0,0.0
Gain,,1,1,25.011,13.1923,20.2122,1,1,1,1.00092,1.05074,1.0,1.0
Units,sec,C,C,Pa,%,%,%,%,%,g,/m,,
Baseline,,45.3828,47.7591,154.014,100.869,102.057,0.000694603,0.0471826,20.9332,-435.293,-0.107842,,
2,0.25,45.9624,48.3067,151.469,100.26,101.548,0.000529875,0.051348,20.9267,142.311,-0.117591,0.0,0.0
4,0.75,45.0256,47.961,153.18,100.265,101.975,0.000518665,0.0516653,20.9259,142.492,-0.155808,0.0,0.0
6,1.25,44.7762,47.9801,151.288,100.225,101.44,0.000513336,0.0519362,20.9252,142.462,-0.111102,0.0,0.0
8,1.75,45.1697,47.7367,148.318,100.216,101.546,0.000509018,0.0521401,20.9246,142.472,-0.121532,0.0,0.0
10,2.25,44.7092,47.8424,155.032,100.163,101.69,0.000511444,0.0522913,20.9242,142.432,-0.139457,0.0,0.0
12,2.75,44.9202,47.5903,155.652,100.172,101.569,0.000518739,0.0523817,20.9238,142.442,-0.12764,0.0,0.0
14,3.25,45.015,47.3957,150.487,100.132,101.888,0.000529983,0.052426,20.9235,142.211,-0.160294,0.0,0.0
16,3.75,44.9395,47.3158,150.004,100.142,101.009,0.000543893,0.0524619,20.9231,142.412,-0.0794532,0.0,0.0
18,4.25,45.2158,47.4422,153.5,100.107,101.463,0.00055516,0.0524762,20.9228,142.352,-0.123936,0.0,0.0
20,4.75,44.8267,47.5934,157.203,100.093,101.185,0.000571529,0.0524878,20.9225,142.392,-0.100022,0.0,0.0
22,5.25,44.9191,47.3345,154.798,100.07,100.866,0.000591306,0.0525283,20.9223,142.301,-0.0730031,0.0,0.0
24,5.75,45.3902,47.663,154.022,100.088,100.907,0.000607325,0.0525891,20.9221,142.352,-0.0751281,0.0,0.0
26,6.25,44.9012,47.695,153.529,100.036,99.9667,0.000617798,0.0526383,20.922,142.251,0.00639251,0.0,0.0
28,6.75,44.7525,47.744,154.186,100.04,99.4998,0.000620356,0.052811,20.9218,142.261,0.0498788,0.0,0.0
30,7.25,45.0983,47.7636,147.945,100.021,98.4968,0.000617095,0.0529509,20.9213,142.141,0.141552,0.0,0.0
32,7.75,45.3194,48.3394,147.958,100.006,96.4169,0.000602608,0.0533892,20.9209,142.061,0.336823,0.0,1.0
34,8.25,45.6561,48.9552,140.803,99.989,94.5146,0.000580212,0.0540166,20.9205,141.841,0.518969,0.0,1.0
36,8.75,45.5585,50.3631,133.167,99.997,90.7285,0.000550233,0.0547698,20.9202,141.781,0.896527,0.0,1.0
38,9.25,46.1166,52.1735,131.394,100.003,91.2923,0.000531844,0.0550909,20.9199,141.571,0.839986,0.0,1.0
40,9.75,46.7187,53.7628,118.004,99.9648,89.8637,0.000500401,0.0562617,20.9193,141.401,0.981832,0.0,1.0
42,10.25,47.9587,56.5901,132.742,99.983,90.0759,0.000462441,0.05721,20.9183,141.241,0.961764,0.0,1.0
44,10.75,49.0462,59.4333,126.526,99.995,87.7949,0.000431693,0.0583681,20.9172,141.1,1.19929,0.0,1.0
46,11.25,49.9628,61.7848,118.677,99.966,88.7386,0.000411389,0.0596572,20.9162,141.02,1.09807,0.0,1.0
48,11.75,50.9736,64.5699,135.056,99.9507,88.9379,0.000399085,0.0607014,20.9154,140.88,1.07599,0.0,1.0
50,12.25,51.9058,65.8661,131.979,99.9596,89.8446,0.000389118,0.0615472,20.9143,140.79,0.98331,0.0,1.0
52,12.75,51.606,66.9045,132.203,99.9894,91.3349,0.000381045,0.063346,20.9135,140.68,0.834429,0.0,1.0
54,13.25,52.1031,68.1809,133.988,99.954,92.3279,0.000394497,0.064803,20.9126,140.63,0.731486,0.0,1.0
56,13.75,52.6073,69.1383,134.141,99.9475,93.7849,0.000405393,0.0664699,20.9119,140.54,0.586582,0.0,1.0
58,14.25,53.5493,70.4594,137.172,99.9507,93.8324,0.000426651,0.0682581,20.9109,140.48,0.582213,0.0,1.0
60,14.75,52.4697,69.6958,136.129,99.9572,96.0684,0.000455058,0.0709407,20.9097,140.38,0.365746,0.0,1.0
62,15.25,54.8392,72.1321,133.412,99.9524,96.1621,0.000511006,0.0742245,20.9088,140.29,0.356309,0.0,1.0
64,15.75,54.2541,71.8925,138.542,99.9306,97.7869,0.000585968,0.0815464,20.9067,140.27,0.199877,0.0,1.0
66,16.25,54.4506,72.0481,141.712,99.9507,96.7259,0.000733245,0.091673,20.905,140.18,0.302281,0.0,1.0
68,16.75,55.1866,72.6326,143.775,99.9733,96.9665,0.000930442,0.0998755,20.9001,140.15,0.281464,0.0,1.0
70,17.25,54.9898,72.7277,144.858,99.9777,97.2058,0.00119174,0.130529,20.8962,140.049,0.259152,0.0,1.0
72,17.75,55.5121,72.9068,141.775,99.9934,96.5316,0.00149481,0.155358,20.882,140.039,0.324748,0.0,1.0
74,18.25,55.6912,73.0986,142.888,99.9878,96.9085,0.0017403,0.212091,20.8704,139.889,0.288314,0.0,1.0
76,18.75,56.0019,72.4422,138.37,100.053,97.1509,0.00210755,0.258045,20.8611,139.889,0.271333,0.0,0.0
78,19.25,55.5863,73.0776,148.352,100.02,98.1699,0.00255661,0.314621,20.8245,139.879,0.172084,0.0,0.0
80,19.75,55.6379,72.6857,142.051,100.073,97.9275,0.00305297,0.377864,20.7948,139.889,0.199768,0.0,0.0
82,20.25,55.6561,73.2849,144.454,100.048,96.9005,0.0035744,0.429091,20.7218,139.759,0.294605,0.0,0.0
84,20.75,56.2392,72.7282,141.859,100.092,97.6172,0.00399675,0.483399,20.6628,139.779,0.230796,0.0,0.0
86,21.25,55.93,72.6839,141.631,100.12,97.1367,0.00450733,0.527389,20.5783,139.669,0.278835,0.0,0.0
88,21.75,56.3804,72.3074,137.865,100.153,96.9492,0.00492972,0.544136,20.5423,139.679,0.299645,0.0,0.0
90,22.25,55.9584,72.4194,140.438,100.15,97.2953,0.00511397,0.572774,20.4808,139.579,0.26651,0.0,0.0
92,22.75,56.4577,72.4031,143.188,100.212,96.9437,0.00556336,0.594462,20.4097,139.589,0.305655,0.0,0.0
94,23.25,56.4463,72.2825,142.531,100.196,96.8912,0.00561649,0.598503,20.3905,139.469,0.309086,0.0,0.0
96,23.75,56.9141,72.4614,140.46,100.23,97.6931,0.00570735,0.605414,20.3578,139.469,0.236268,0.0,0.0
98,24.25,56.9055,72.6684,139.687,100.278,96.0388,0.00569658,0.59616,20.3313,139.369,0.398126,0.0,0.0
100,24.75,57.1144,72.3586,143.911,100.294,96.1436,0.0056119,0.588664,20.3178,139.379,0.389511,0.0,0.0
102,25.25,57.1599,72.4156,137.483,100.313,96.2423,0.00554332,0.575614,20.3068,139.189,0.381867,0.0,0.0
104,25.75,57.5496,72.7906,138.445,100.351,95.7711,0.00538094,0.558765,20.298,139.209,0.430586,0.0,0.0
106,26.25,57.7164,72.3849,139.56,100.376,96.7747,0.00515326,0.539417,20.3053,139.189,0.336796,0.0,0.0
108,26.75,57.5839,72.8143,140.651,100.395,96.6852,0.00496884,0.518615,20.3113,139.159,0.34702,0.0,0.0
110,27.25,57.7275,73.3573,138.049,100.429,97.0578,0.00470377,0.501766,20.3235,139.068,0.314749,0.0,0.0
112,27.75,57.9111,73.3043,140.861,100.464,96.1122,0.00448906,0.480012,20.3401,138.978,0.408165,0.0,0.0
114,28.25,58.5549,73.7629,141.617,100.488,95.7131,0.00425552,0.462392,20.3593,138.828,0.448694,0.0,0.0
116,28.75,58.1558,73.7011,135.576,100.512,95.879,0.00406636,0.443083,20.3801,138.818,0.434982,0.0,0.0
118,29.25,58.5462,74.0798,138.513,100.557,96.1998,0.00389033,0.427443,20.4026,138.808,0.408334,0.0,0.0
120,29.75,58.8496,74.4816,136.245,100.574,95.7248,0.00374775,0.411845,20.4257,138.708,0.455465,0.0,0.0
122,30.25,59.07,74.9249,140.09,100.612,95.5903,0.00362465,0.39921,20.448,138.658,0.471889,0.0,0.0
124,30.75,59.5643,75.4408,130.383,100.62,95.615,0.00352495,0.387757,20.4691,138.518,0.470285,0.0,0.0
126,31.25,59.2806,75.9907,139.143,100.674,95.3239,0.00344165,0.37848,20.4879,138.428,0.503333,0.0,0.0
128,31.75,60.0173,76.298,135.239,100.675,93.0225,0.00337419,0.370965,20.5045,138.378,0.728697,0.0,0.0
130,32.25,59.8597,76.6469,138.86,100.727,93.9521,0.00331954,0.365035,20.518,138.368,0.641731,0.0,0.0
132,32.75,60.4416,77.121,135.414,100.765,93.7763,0.00327654,0.360231,20.5289,138.248,0.662493,0.0,0.0
134,33.25,60.691,77.5207,141.011,100.785,93.8984,0.00324171,0.356992,20.5378,138.228,0.652337,0.0,0.0
136,33.75,60.67,77.4853,140.13,100.799,93.6788,0.00321949,0.354954,20.545,138.088,0.675169,0.0,0.0
138,34.25,60.8868,78.003,138.019,100.854,94.1427,0.0032069,0.353303,20.5508,138.068,0.634723,0.0,0.0
140,34.75,61.1632,78.0776,135.99,100.869,95.0475,0.00320004,0.353894,20.5555,137.947,0.547915,0.0,0.0
142,35.25,61.4339,77.6335,138.694,100.91,95.0321,0.00319748,0.354372,20.5593,137.997,0.553125,0.0,0.0
144,35.75,61.4444,78.2146,144.11,100.926,96.5359,0.0031954,0.356847,20.5624,137.897,0.40992,0.0,0.0
146,36.25,61.4138,77.9256,146.896,100.976,96.5816,0.00319105,0.360732,20.5649,137.887,0.410086,0.0,0.0
148,36.75,61.1975,77.6378,135.977,100.997,96.7716,0.00318513,0.363878,20.5644,137.737,0.393919,0.0,0.0
150,37.25,61.9756,77.206,145.851,101.03,98.7207,0.00318034,0.370522,20.564,137.817,0.213091,0.0,0.0
152,37.75,61.5725,77.4043,145.5,101.062,97.7505,0.00316252,0.375904,20.5619,137.727,0.30703,0.0,0.0
154,38.25,61.7007,77.0798,145.248,101.088,97.5654,0.00314809,0.385505,20.5584,137.767,0.326917,0.0,0.0
156,38.75,61.4377,76.6547,151.053,101.112,99.0372,0.003125,0.393282,20.5531,137.667,0.191086,0.0,0.0
158,39.25,61.3676,76.1934,149.503,101.151,98.672,0.0031063,0.401781,20.5465,137.687,0.228727,0.0,0.0
160,39.75,61.472,75.677,143.397,101.152,98.6751,0.00309115,0.410644,20.5412,137.587,0.22855,0.0,0.0
162,40.25,61.5649,75.557,146.393,101.196,99.0551,0.00308936,0.414423,20.5389,137.637,0.197088,0.0,0.0
164,40.75,61.2757,75.0465,143.138,101.207,99.5387,0.00308629,0.4221,20.5275,137.547,0.153227,0.0,0.0
166,41.25,61.0932,74.3969,144.591,101.279,100.552,0.00309248,0.429414,20.5183,137.617,0.0664191,0.0,0.0
168,41.75,61.2282,74.1006,149.817,101.27,99.5874,0.00310529,0.435367,20.5059,137.517,0.154433,0.0,0.0
170,42.25,60.7963,73.5106,150.62,101.304,99.3727,0.003129,0.440217,20.496,137.527,0.177435,0.0,0.0
172,42.75,60.8407,73.0531,144.575,101.321,100.63,0.00316021,0.443293,20.4879,137.357,0.0630706,0.0,0.0
174,43.25,60.6979,72.7728,147.908,101.37,101.614,0.00319417,0.445018,20.4813,137.567,-0.0221009,0.0,0.0
176,43.75,60.672,72.3696,148.047,101.336,99.6053,0.00322949,0.44463,20.476,137.457,0.158785,0.0,0.0
178,44.25,60.4823,71.5603,147.113,101.414,100.815,0.00325809,0.442708,20.4717,137.497,0.0545735,0.0,0.0
180,44.75,60.0482,70.669,147.398,101.412,101.504,0.00328126,0.44115,20.4683,137.397,-0.00833009,0.0,0.0
182,45.25,60.5002,70.2657,154.977,101.454,100.848,0.00330003,0.434052,20.4654,137.407,0.0552987,0.0,0.0
184,45.75,59.5497,69.6811,145.861,101.458,100.983,0.00330268,0.428302,20.4654,137.407,0.0431982,0.0,0.0
186,46.25,59.9112,68.9907,150.36,101.502,100.902,0.00330482,0.419786,20.4674,137.457,0.0546183,0.0,0.0
188,46.75,59.2559,68.4981,150.938,101.503,100.939,0.00329122,0.409417,20.469,137.377,0.0512917,0.0,0.0
190,47.25,59.213,67.7544,149.745,101.543,101.385,0.00326639,0.401018,20.4769,137.427,0.0142771,0.0,0.0
192,47.75,58.9047,67.7558,150.394,101.542,101.265,0.00324628,0.387503,20.4833,137.337,0.025183,0.0,0.0
194,48.25,59.1278,66.7078,150.778,101.576,102.092,0.00321226,0.376555,20.4929,137.407,-0.0466383,0.0,0.0
196,48.75,58.9402,66.1925,145.31,101.558,101.772,0.0031847,0.362247,20.5046,137.377,-0.0194266,0.0,0.0
198,49.25,58.9135,66.4341,150.047,101.608,102.337,0.00315352,0.350657,20.5178,137.407,-0.0659257,0.0,0.0
200,49.75,58.7527,65.4134,151.622,101.601,102.145,0.00312826,0.337464,20.5318,137.347,-0.049161,0.0,0.0
202,50.25,58.1396,65.3105,148.762,101.63,101.876,0.0031078,0.326778,20.5465,137.387,-0.0222331,0.0,0.0
204,50.75,58.2317,64.9236,146.236,101.62,102.189,0.00309122,0.314597,20.5612,137.267,-0.0515241,0.0,0.0
206,51.25,58.0214,64.1746,147.564,101.656,102.035,0.00309173,0.304731,20.5757,137.347,-0.0343185,0.0,0.0
208,51.75,58.1848,63.5018,146.864,101.655,101.614,0.00309214,0.293355,20.5898,137.287,0.00372291,0.0,0.0
210,52.25,57.8754,63.5767,147.49,101.674,101.953,0.00313428,0.28414,20.6056,137.357,-0.0252266,0.0,0.0
212,52.75,57.2442,63.0317,148.226,101.664,101.55,0.00316842,0.274456,20.6184,137.287,0.0103477,0.0,0.0
214,53.25,57.3901,62.6928,150.137,101.693,101.305,0.00324752,0.264613,20.6287,137.317,0.0352278,0.0,0.0
216,53.75,57.405,62.0763,146.036,101.68,101.721,0.00335789,0.254752,20.6411,137.267,-0.0036876,0.0,0.0
218,54.25,57.3198,61.7092,149.84,101.707,101.653,0.00350154,0.245065,20.6511,137.307,0.00496282,0.0,0.0
220,54.75,56.8269,61.6151,153.347,101.696,102.288,0.00366674,0.237219,20.661,137.277,-0.0534855,0.0,0.0
222,55.25,56.6553,61.63,151.562,101.696,102.132,0.00380055,0.227901,20.6708,137.287,-0.0393764,0.0,0.0
224,55.75,56.5153,60.8051,150.378,101.708,102.232,0.00406972,0.220354,20.6805,137.287,-0.0473683,0.0,0.0
226,56.25,56.5402,60.4328,148.217,101.715,101.521,0.00428775,0.213041,20.6901,137.277,0.0176685,0.0,0.0
228,56.75,56.2191,60.3642,151.583,101.717,102.461,0.00460025,0.206037,20.6978,137.277,-0.0671939,0.0,0.0
230,57.25,56.0152,59.7607,156.324,101.707,101.035,0.00485336,0.199582,20.7082,137.237,0.0611182,0.0,0.0
232,57.75,56.1208,59.5742,151.841,101.713,101.075,0.00511998,0.19365,20.7167,137.247,0.0579348,0.0,0.0
234,58.25,55.9336,59.3801,152.854,101.709,102.039,0.00539138,0.188845,20.7235,137.237,-0.0298001,0.0,0.0
236,58.75,54.3865,57.5064,148.451,101.735,100.698,0.00561121,0.184953,20.7304,137.237,0.094503,0.0,0.0
238,59.25,54.1703,57.6392,150.461,101.715,101.514,0.00578928,0.180089,20.7373,137.227,0.0182125,0.0,0.0
240,59.75,54.1123,57.1627,151.652,101.721,102.234,0.00608837,0.176149,20.7437,137.237,-0.0463512,0.0,0.0
242,60.25,53.4651,56.6052,151.86,101.694,101.93,0.00633063,0.172558,20.7496,137.177,-0.0214115,0.0,0.0
244,60.75,53.6292,56.5541,153.138,101.717,102.317,0.00652686,0.169289,20.7545,137.227,-0.0542558,0.0,0.0
246,61.25,53.8035,56.4179,150.127,101.677,102.799,0.00676347,0.166641,20.7591,137.147,-0.101144,0.0,0.0
248,61.75,53.2237,56.4421,148.426,101.682,101.107,0.00695512,0.164047,20.7635,137.197,0.0523308,0.0,0.0
250,62.25,53.109,55.6294,154.157,101.674,101.563,0.00715831,0.161947,20.7675,137.137,0.010047,0.0,0.0
252,62.75,53.1588,55.2701,150.553,101.67,101.508,0.00732291,0.160075,20.7711,137.247,0.0147587,0.0,0.0
254,63.25,52.8176,55.3954,151.148,101.651,101.15,0.00750554,0.158559,20.7745,137.067,0.0455852,0.0,0.0
256,63.75,53.1469,55.6524,146.574,101.66,101.258,0.00765348,0.157249,20.7777,137.137,0.0364645,0.0,0.0
258,64.25,52.9483,55.2393,150.401,101.626,102.61,0.00781619,0.156116,20.7806,137.127,-0.0888599,0.0,0.0
260,64.75,52.7991,55.1575,154.939,101.622,102.454,0.00794798,0.155067,20.7831,137.147,-0.0751419,0.0,0.0
262,65.25,52.8319,54.6438,154.378,101.602,100.543,0.00806568,0.154101,20.7851,137.097,0.096605,0.0,0.0
264,65.75,52.6668,54.8105,149.264,101.628,102.441,0.00817088,0.153042,20.7867,137.137,-0.0734472,0.0,0.0
266,66.25,52.5818,54.8094,151.295,101.602,101.927,0.00824582,0.151936,20.788,137.077,-0.0294187,0.0,0.0
268,66.75,52.2322,54.8593,151.141,101.599,102.693,0.00829728,0.15104,20.7895,137.137,-0.0987649,0.0,0.0
270,67.25,52.4082,54.1521,150.525,101.582,101.624,0.00833897,0.149575,20.7908,137.037,-0.00376179,0.0,0.0
272,67.75,52.6438,54.5591,150.602,101.565,101.995,0.00833923,0.148388,20.7918,137.127,-0.038913,0.0,0.0
274,68.25,52.2562,53.7791,147.897,101.545,102.899,0.00830929,0.147427,20.7934,137.037,-0.122005,0.0,0.0
276,68.75,52.1668,53.4939,151.642,101.553,101.398,0.00828504,0.145833,20.7948,137.107,0.0141059,0.0,0.0
278,69.25,51.9925,53.8342,155.786,101.52,102.503,0.00822907,0.144543,20.7961,137.027,-0.0887867,0.0,0.0
280,69.75,51.9064,54.0068,154.818,101.525,102.532,0.00818373,0.143083,20.7974,137.107,-0.0909541,0.0,0.0
282,70.25,51.748,53.4959,150.582,101.492,102.296,0.00813275,0.141901,20.7989,137.047,-0.0727268,0.0,0.0
284,70.75,51.8542,53.077,151.773,101.494,101.897,0.00809145,0.140484,20.8006,137.117,-0.036515,0.0,0.0
286,71.25,51.6003,52.8922,156.178,101.463,102.258,0.00806565,0.139879,20.8018,137.047,-0.0719693,0.0,0.0
288,71.75,51.1732,52.7814,150.056,101.472,101.458,0.00802155,0.138604,20.8037,137.117,0.00126567,0.0,0.0
290,72.25,51.6785,52.9778,152.531,101.449,102.3,0.00795992,0.137354,20.8056,137.027,-0.0769732,0.0,0.0
292,72.75,51.7693,53.04,151.54,101.421,101.163,0.00790999,0.135975,20.8073,137.087,0.0234077,0.0,0.0
294,73.25,51.2803,52.6728,152.379,101.401,101.194,0.0078359,0.134857,20.8091,136.997,0.0188419,0.0,0.0
296,73.75,51.254,52.7872,149.181,101.408,101.827,0.00777588,0.133647,20.811,137.087,-0.0379988,0.0,0.0
298,74.25,51.0955,52.8983,152.419,101.373,102.007,0.00772726,0.132391,20.8126,137.017,-0.0574162,0.0,0.0
300,74.75,50.9329,52.2436,151.802,101.375,101.929,0.00764133,0.131374,20.8143,137.057,-0.0502452,0.0,0.0
302,75.25,51.13,52.8145,150.951,101.339,102.261,0.00757173,0.129926,20.8156,136.987,-0.0834986,0.0,0.0
304,75.75,51.5146,52.1197,155.225,101.356,102.055,0.00749726,0.128752,20.817,137.037,-0.063337,0.0,0.0
306,76.25,50.9018,52.4565,148.15,101.296,101.033,0.00743693,0.127546,20.8183,136.957,0.0239611,0.0,0.0
308,76.75,50.8032,52.6529,155.517,101.323,101.171,0.00738549,0.126337,20.8196,137.037,0.0138756,0.0,0.0
310,77.25,50.751,52.3134,153.442,101.265,101.019,0.00734382,0.125159,20.8208,136.977,0.0224344,0.0,0.0
312,77.75,50.5858,51.9163,150.465,101.294,101.605,0.00731394,0.124024,20.8225,137.027,-0.0282757,0.0,0.0
314,78.25,50.5017,51.8235,151.822,101.249,101.971,0.00728974,0.122865,20.8245,136.957,-0.0655007,0.0,0.0
316,78.75,51.1202,52.1837,152.236,101.254,101.671,0.00726742,0.12171,20.8262,137.017,-0.0378885,0.0,0.0
318,79.25,50.7184,52.4575,147.456,101.208,101.966,0.00724689,0.120775,20.8279,136.957,-0.0687203,0.0,0.0
320,79.75,50.6129,52.5482,150.731,101.211,101.647,0.00722075,0.119608,20.8293,137.007,-0.0396297,0.0,0.0
322,80.25,50.2481,51.7708,147.368,101.181,101.332,0.00719101,0.118662,20.8314,136.947,-0.0138101,0.0,0.0
324,80.75,50.1487,51.6835,149.057,101.186,100.973,0.00716692,0.117639,20.833,137.017,0.0193781,0.0,0.0
326,81.25,50.36,51.9036,148.776,101.156,101.514,0.00712839,0.11681,20.8344,136.947,-0.0326197,0.0,0.0
328,81.75,50.3176,51.8926,153.741,101.152,102.584,0.00708006,0.116138,20.8354,136.997,-0.129518,0.0,0.0
330,82.25,50.3183,51.4904,150.784,101.112,101.554,0.00704091,0.115594,20.8363,136.917,-0.0402029,0.0,0.0
332,82.75,50.1468,51.8076,151.53,101.128,101.511,0.00699224,0.114957,20.837,136.977,-0.0348721,0.0,0.0
334,83.25,49.7441,51.1956,153.877,101.09,101.231,0.00693754,0.114441,20.8377,136.896,-0.0128231,0.0,0.0
336,83.75,50.5136,51.5852,149.901,101.088,101.149,0.00689324,0.11381,20.8383,136.977,-0.00557125,0.0,0.0
338,84.25,50.2486,51.6964,150.999,101.055,102.071,0.0068406,0.1133,20.839,136.896,-0.0921376,0.0,0.0
340,84.75,50.0697,51.6152,147.027,101.067,101.364,0.00679796,0.112599,20.8397,136.967,-0.0271114,0.0,0.0
342,85.25,50.3285,51.6654,148.071,101.027,101.629,0.00677436,0.1123,20.8401,136.896,-0.054741,0.0,0.0
344,85.75,50.0094,51.2149,151.646,101.047,101.301,0.006734,0.111646,20.8406,136.957,-0.023095,0.0,0.0
346,86.25,50.024,51.6954,148.384,101.004,101.281,0.00670131,0.110987,20.8411,136.896,-0.0253027,0.0,0.0
348,86.75,49.0219,51.1235,155.218,101.008,101.253,0.0066581,0.110453,20.8423,136.937,-0.0223162,0.0,0.0
350,87.25,49.7135,51.288,151.889,100.994,101.522,0.00661563,0.109704,20.8433,136.886,-0.0480702,0.0,0.0
352,87.75,49.6879,51.4032,150.199,100.98,101.411,0.00657453,0.109097,20.8446,136.937,-0.0392148,0.0,0.0
354,88.25,49.5155,50.9464,151.139,100.959,101.63,0.00654124,0.108288,20.8456,136.866,-0.0610992,0.0,0.0
356,88.75,49.2642,51.2275,153.38,100.963,101.208,0.00649667,0.107633,20.8464,136.937,-0.0222948,0.0,0.0
358,89.25,49.6664,51.3113,149.843,100.938,101.273,0.00644473,0.107102,20.8476,136.866,-0.0305265,0.0,0.0
360,89.75,49.6429,51.1005,152.641,100.934,101.071,0.00640265,0.1064,20.8485,136.917,-0.0125194,0.0,0.0
362,90.25,49.7305,51.251,150.926,100.915,101.739,0.00634286,0.105832,20.8492,136.876,-0.0749098,0.0,0.0
364,90.75,49.9113,51.484,152.123,100.905,101.025,0.00629443,0.105206,20.8498,136.906,-0.0109836,0.0,0.0
366,91.25,49.5794,51.623,151.489,100.877,101.218,0.00624877,0.104699,20.8505,136.856,-0.031156,0.0,0.0
368,91.75,49.3579,51.1667,152.877,100.878,101.846,0.00621179,0.104092,20.8513,136.906,-0.0880112,0.0,0.0
370,92.25,49.1999,51.4495,149.831,100.868,101.553,0.00618441,0.103601,20.8521,136.866,-0.0624139,0.0,0.0
372,92.75,49.367,50.9136,151.588,100.855,102.138,0.00616222,0.103113,20.853,136.906,-0.116511,0.0,0.0
374,93.25,49.4377,51.4052,150.758,100.836,102.211,0.00615197,0.102717,20.8538,136.866,-0.124769,0.0,0.0
376,93.75,49.1904,50.9935,149.954,100.841,101.8,0.00614366,0.102336,20.8544,136.896,-0.0872082,0.0,0.0
378,94.25,49.2131,51.4911,152.994,100.823,101.657,0.00613693,0.102028,20.8551,136.856,-0.0759916,0.0,0.0
380,94.75,49.5882,51.3846,149.468,100.812,101.189,0.00613148,0.101746,20.8559,136.876,-0.0343466,0.0,0.0
382,95.25,49.121,50.6619,158.368,100.784,101.188,0.00612707,0.10149,20.8565,136.856,-0.0368669,0.0,0.0
384,95.75,48.9098,50.1466,151.826,100.773,101.524,0.00609779,0.101282,20.857,136.866,-0.0684685,0.0,0.0
386,96.25,49.4029,50.7065,155.063,100.77,101.74,0.00607408,0.100858,20.8575,136.866,-0.0882686,0.0,0.0
388,96.75,49.0657,50.4462,150.547,100.745,101.653,0.00603933,0.100514,20.8578,136.846,-0.0827059,0.0,0.0
390,97.25,49.0939,50.9497,150.553,100.746,101.298,0.00597924,0.0999667,20.8582,136.856,-0.0504176,0.0,0.0
392,97.75,49.4628,51.0946,152.672,100.728,101.978,0.00593029,0.0995065,20.8586,136.836,-0.11368,0.0,0.0
394,98.25,49.168,50.8317,150.144,100.725,102.118,0.00587424,0.0990309,20.8592,136.846,-0.126658,0.0,0.0
396,98.75,48.9272,50.7832,153.945,100.696,101.963,0.00583685,0.0987794,20.8594,136.826,-0.115327,0.0,0.0
398,99.25,49.1297,50.4082,151.321,100.706,101.135,0.00577291,0.0983493,20.8598,136.856,-0.0391425,0.0,0.0
400,99.75,49.0465,50.6849,152.213,100.686,101.409,0.00572112,0.0978506,20.8602,136.826,-0.0659478,0.0,0.0
402,100.25,48.6737,50.0697,152.677,100.735,102.089,0.00565996,0.0974467,20.8607,136.846,-0.123064,0.0,0.0
404,100.75,48.4507,50.9658,151.956,100.712,101.598,0.00561041,0.0969393,20.8613,136.796,-0.0807848,0.0,0.0
406,101.25,48.7146,50.7209,150.503,100.77,101.679,0.00557156,0.0965282,20.862,136.836,-0.0827348,0.0,0.0
408,101.75,48.5679,50.6525,152.952,100.781,101.709,0.00554009,0.0960688,20.8628,136.756,-0.0845165,0.0,0.0
410,102.25,48.8,50.9651,153.183,100.802,101.918,0.0055146,0.0955829,20.8634,136.846,-0.101476,0.0,0.0
412,102.75,49.041,50.8818,149.746,100.797,102.235,0.00552086,0.0951893,20.864,136.766,-0.130546,0.0,0.0
414,103.25,48.3986,50.6905,151.012,100.841,102.162,0.00552593,0.0947599,20.8644,136.826,-0.119933,0.0,0.0
416,103.75,48.8528,50.808,149.534,100.847,101.724,0.00555312,0.0943125,20.8647,136.756,-0.0798582,0.0,0.0
418,104.25,48.636,50.1131,154.532,100.887,101.54,0.00557514,0.093887,20.865,136.816,-0.059453,0.0,0.0
420,104.75,48.7751,50.6569,153.483,100.874,101.091,0.00560837,0.0934855,20.8652,136.726,-0.0198351,0.0,0.0
422,105.25,48.466,50.5163,153.374,100.927,101.745,0.00563529,0.0931602,20.8657,136.816,-0.0744391,0.0,0.0
424,105.75,48.5621,50.6257,147.399,100.922,102.042,0.00565709,0.0927705,20.8662,136.736,-0.101682,0.0,0.0
426,106.25,48.6462,50.1338,151.744,100.938,101.434,0.00567745,0.0923412,20.8669,136.806,-0.0451675,0.0,0.0
428,106.75,48.2575,50.1687,155.534,100.938,102.54,0.00569638,0.0919461,20.8676,136.726,-0.145119,0.0,0.0
430,107.25,48.7003,50.2853,148.724,100.971,101.29,0.00571171,0.0915834,20.8682,136.796,-0.0290847,0.0,0.0
432,107.75,48.5027,50.3203,152.768,100.962,101.644,0.00571129,0.0912897,20.869,136.726,-0.062035,0.0,0.0
434,108.25,48.5593,50.23,149.947,101.019,101.995,0.00571095,0.0910518,20.8698,136.776,-0.0886258,0.0,0.0
436,108.75,48.1,50.124,150.291,101.027,102.561,0.00569401,0.0908591,20.8704,136.706,-0.138884,0.0,0.0
438,109.25,48.6479,49.966,154.69,101.037,102.577,0.00568029,0.090703,20.8709,136.766,-0.139407,0.0,0.0
440,109.75,48.3318,50.0554,149.56,101.039,101.915,0.00566917,0.0904866,20.8714,136.696,-0.0795595,0.0,0.0
442,110.25,48.332,50.2101,152.543,101.05,102.017,0.00564869,0.0903114,20.8719,136.746,-0.0878044,0.0,0.0
444,110.75,48.6613,50.2074,151.806,101.032,101.466,0.00562179,0.0901221,20.8726,136.696,-0.0394636,0.0,0.0
446,111.25,48.0709,50.0034,150.759,101.072,102.293,0.0055919,0.0899262,20.8732,136.756,-0.110717,0.0,0.0
448,111.75,48.004,50.4632,151.068,101.068,102.43,0.00556041,0.0897044,20.8736,136.716,-0.123359,0.0,0.0
450,112.25,48.032,50.2901,151.732,101.086,102.34,0.00552816,0.089468,20.874,136.786,-0.113637,0.0,0.0
452,112.75,48.2334,50.6305,152.818,101.074,102.169,0.00549598,0.0892293,20.8742,136.696,-0.0993569,0.0,0.0
454,113.25,48.2058,50.6106,150.108,101.105,101.763,0.00546047,0.0889933,20.8745,136.776,-0.0597494,0.0,0.0
456,113.75,48.0629,49.991,156.224,101.073,102.586,0.00542322,0.0888022,20.8747,136.696,-0.136914,0.0,0.0
458,114.25,48.007,50.2246,151.518,101.103,101.763,0.0053816,0.0885874,20.8748,136.756,-0.0599689,0.0,0.0
460,114.75,48.1755,50.0328,154.406,101.07,102.193,0.00533758,0.0883899,20.8754,136.686,-0.10193,0.0,0.0
462,115.25,47.9615,50.3938,150.451,101.102,101.555,0.00528711,0.0882086,20.8758,136.756,-0.0411962,0.0,0.0
464,115.75,48.2101,50.258,154.729,101.098,101.899,0.00523291,0.0880618,20.8762,136.666,-0.0726925,0.0,0.0
466,116.25,48.2062,50.05,148.15,101.107,101.773,0.00518901,0.0879034,20.8765,136.746,-0.0604599,0.0,0.0
468,116.75,47.8576,49.762,151.148,101.09,101.767,0.00513462,0.0877397,20.8768,136.666,-0.061498,0.0,0.0
470,117.25,48.1744,50.1833,156.218,101.11,101.605,0.00507361,0.0875835,20.877,136.726,-0.0450322,0.0,0.0
472,117.75,48.4977,49.897,151.91,101.083,102.219,0.0050242,0.0874356,20.8771,136.646,-0.102962,0.0,0.0
474,118.25,47.9651,50.4603,150.81,101.086,102.497,0.00496119,0.0873159,20.8772,136.706,-0.127718,0.0,0.0
476,118.75,48.2433,50.1111,152.83,101.081,101.796,0.00491015,0.0871889,20.8774,136.646,-0.0649491,0.0,0.0
478,119.25,48.69,50.8283,150.672,101.083,102.005,0.00485095,0.0870861,20.8774,136.716,-0.0836794,0.0,0.0
480,119.75,48.5569,50.0491,153.637,101.05,102.085,0.00480299,0.0868383,20.8775,136.656,-0.0939323,0.0,0.0
482,120.25,48.2859,50.38,154.525,101.06,101.49,0.00474374,0.0866375,20.8776,136.706,-0.0391508,0.0,0.0
484,120.75,48.2364,50.3412,148.596,101.051,101.974,0.00469574,0.0863402,20.8776,136.656,-0.0838285,0.0,0.0
486,121.25,48.3773,50.3738,154.264,101.068,101.459,0.00464667,0.0860994,20.8776,136.726,-0.0355421,0.0,0.0
488,121.75,48.779,50.1914,148.071,101.046,101.651,0.00460691,0.0858965,20.8777,136.646,-0.0550649,0.0,0.0
490,122.25,48.0663,50.4714,153.123,101.03,101.981,0.00458491,0.0857251,20.8779,136.706,-0.0863708,0.0,0.0
492,122.75,48.2254,50.6601,148.297,101.001,101.955,0.0045671,0.0856099,20.8783,136.666,-0.0866553,0.0,0.0
494,123.25,48.163,50.2845,152.457,101.01,102.538,0.00455266,0.0855378,20.8787,136.686,-0.138393,0.0,0.0
496,123.75,48.2431,49.7884,153.326,100.991,102.301,0.00456904,0.0854794,20.879,136.616,-0.118767,0.0,0.0
498,124.25,48.1047,49.9577,155.208,100.961,102.116,0.0045823,0.0854021,20.8792,136.656,-0.104855,0.0,0.0
500,124.75,48.2503,49.9441,150.293,100.977,101.814,0.00461985,0.0853396,20.8794,136.616,-0.0760077,0.0,0.0
502,125.25,47.86,50.1126,148.979,100.964,101.658,0.00465026,0.0852811,20.8795,136.636,-0.0631014,0.0,0.0
504,125.75,48.1324,49.9943,149.195,100.945,101.898,0.00469789,0.0852266,20.8796,136.626,-0.086632,0.0,0.0
506,126.25,48.0414,49.7535,151.965,100.937,102.081,0.00473647,0.0851525,20.8797,136.636,-0.103867,0.0,0.0
508,126.75,47.4124,50.2436,151.489,100.913,101.51,0.00476389,0.0850926,20.8798,136.656,-0.0544116,0.0,0.0
510,127.25,47.6806,49.8751,151.649,100.89,101.815,0.0047861,0.0850282,20.8799,136.626,-0.084134,0.0,0.0
512,127.75,47.7385,50.2928,150.026,100.892,101.389,0.00476833,0.084962,20.8799,136.656,-0.0453033,0.0,0.0
514,128.25,47.5585,50.1673,145.368,100.877,101.938,0.00475393,0.0849083,20.8799,136.636,-0.0964724,0.0,0.0
516,128.75,47.5121,50.232,150.943,100.858,102.107,0.00474228,0.0847546,20.8804,136.666,-0.113415,0.0,0.0
518,129.25,47.5654,49.9387,145.932,100.83,101.875,0.00469256,0.084531,20.8808,136.646,-0.0950868,0.0,0.0
520,129.75,47.9025,50.0545,149.418,100.832,102.168,0.00461605,0.0843499,20.8805,136.666,-0.121299,0.0,0.0
522,130.25,47.7331,50.052,155.128,100.771,102.004,0.00455408,0.084101,20.8803,136.616,-0.112025,0.0,0.0
524,130.75,48.1174,50.2314,154.647,100.768,102.702,0.00448043,0.0838073,20.8802,136.656,-0.175198,0.0,0.0
526,131.25,47.7301,49.7354,152.255,100.741,102.916,0.00439966,0.0835695,20.88,136.586,-0.19691,0.0,0.0
528,131.75,47.8257,49.8398,151.805,100.727,101.838,0.00433424,0.0832125,20.8799,136.646,-0.101164,0.0,0.0
530,132.25,47.9825,50.0474,157.502,100.685,101.865,0.0042698,0.0829233,20.8798,136.566,-0.107378,0.0,0.0
532,132.75,47.313,49.9269,153.129,100.677,101.368,0.00421761,0.082719,20.8798,136.626,-0.0630577,0.0,0.0
534,133.25,47.6748,50.1049,157.13,100.659,102.107,0.00418678,0.0825535,20.8799,136.556,-0.131644,0.0,0.0
536,133.75,47.782,50.0513,153.022,100.648,102.126,0.0041618,0.0824792,20.8803,136.626,-0.134365,0.0,0.0
538,134.25,47.4038,50.3955,152.797,100.613,101.637,0.0041594,0.082419,20.8806,136.576,-0.0933407,0.0,0.0
540,134.75,47.6945,49.9265,147.091,100.594,101.36,0.00415744,0.0823702,20.8808,136.626,-0.0699613,0.0,0.0
542,135.25,47.9423,50.1347,156.443,100.574,101.891,0.00417242,0.0823307,20.881,136.546,-0.119844,0.0,0.0
544,135.75,47.513,49.6928,153.505,100.58,102.237,0.00418455,0.0823137,20.8811,136.636,-0.150596,0.0,0.0
546,136.25,47.429,49.705,151.568,100.527,101.217,0.00420583,0.0822998,20.8813,136.546,-0.0630278,0.0,0.0
548,136.75,48.0185,50.1073,148.774,100.529,102.105,0.00422308,0.0822965,20.8814,136.606,-0.143355,0.0,0.0
550,137.25,48.1732,50.0442,154.665,100.496,101.105,0.00423704,0.0823009,20.8814,136.546,-0.0556789,0.0,0.0
552,137.75,47.729,50.1259,149.886,100.468,101.047,0.00424836,0.0823045,20.8815,136.606,-0.0530329,0.0,0.0
554,138.25,47.7369,50.6646,152.67,100.421,101.781,0.00425752,0.0822476,20.8816,136.536,-0.124067,0.0,0.0
556,138.75,47.6366,50.0443,151.693,100.444,101.464,0.0042624,0.0822015,20.8816,136.616,-0.0931493,0.0,0.0
558,139.25,47.6061,49.9463,151.016,100.413,101.859,0.00426634,0.0820895,20.8816,136.546,-0.131841,0.0,0.0
560,139.75,47.8057,49.5393,154.51,100.408,102.129,0.00426686,0.0819988,20.8817,136.586,-0.156607,0.0,0.0
562,140.25,47.4439,49.837,157.93,100.363,101.492,0.00426487,0.0819253,20.8817,136.496,-0.103118,0.0,0.0
564,140.75,47.8807,50.1063,155.714,100.348,101.871,0.00425655,0.081821,20.8817,136.536,-0.138816,0.0,0.0
566,141.25,47.246,49.6666,149.562,100.327,100.77,0.00423833,0.0817365,20.8817,136.446,-0.0406714,0.0,0.0
568,141.75,48.0011,50.0209,155.328,100.353,101.002,0.00423343,0.0817427,20.8817,136.496,-0.0594381,0.0,0.0
570,142.25,47.4803,49.9453,149.639,100.319,101.283,0.0041996,0.0817478,20.8817,136.456,-0.0881771,0.0,0.0
572,142.75,47.4398,49.8448,153.939,100.348,101.065,0.00417219,0.081689,20.8818,136.506,-0.0656401,0.0,0.0
574,143.25,47.8244,49.5128,152.797,100.363,101.511,0.00412709,0.0815848,20.8818,136.456,-0.104761,0.0,0.0
576,143.75,47.4575,49.591,156.405,100.392,102.236,0.00409056,0.0814297,20.8818,136.506,-0.167803,0.0,0.0
578,144.25,47.8311,49.5766,150.001,100.369,100.428,0.00406097,0.0812404,20.8818,136.436,-0.00546021,0.0,0.0
580,144.75,46.9079,49.9745,149.704,100.393,100.358,0.00401793,0.081087,20.882,136.486,0.00319351,0.0,0.0
582,145.25,47.4851,49.9817,155.415,100.392,101.042,0.00398307,0.080933,20.8824,136.436,-0.0595094,0.0,0.0
584,145.75,47.6995,49.7784,150.747,100.416,101.211,0.00395102,0.0808082,20.8827,136.506,-0.0727152,0.0,0.0
586,146.25,47.8117,49.7763,155.254,100.4,101.402,0.00392506,0.0806773,20.883,136.426,-0.0915722,0.0,0.0
588,146.75,47.5379,49.515,152.475,100.45,101.532,0.00390403,0.0805712,20.8832,136.506,-0.0987199,0.0,0.0
590,147.25,47.6672,49.509,149.124,100.431,101.955,0.00389507,0.0804711,20.8833,136.446,-0.138826,0.0,0.0
592,147.75,47.6713,49.5462,149.164,100.463,101.205,0.00387339,0.0802998,20.8834,136.526,-0.067775,0.0,0.0
594,148.25,47.6896,50.0116,151.721,100.456,101.485,0.00385582,0.079982,20.8836,136.456,-0.0939279,0.0,0.0
596,148.75,47.3873,49.8285,151.887,100.495,100.7,0.00382508,0.0797246,20.8837,136.536,-0.0188276,0.0,0.0
598,149.25,47.4126,49.9558,156.403,100.474,101.58,0.00380018,0.0793371,20.8838,136.476,-0.100906,0.0,0.0
600,149.75,47.6177,49.8799,148.5,100.495,101.548,0.00376223,0.0790233,20.8838,136.536,-0.0960394,0.0,0.0
602,150.25,47.8918,50.2629,151.832,100.475,101.785,0.00373149,0.0787691,20.8843,136.456,-0.119378,0.0,0.0
604,150.75,47.8978,49.4796,152.764,100.537,101.988,0.00370659,0.0783247,20.8847,136.516,-0.132088,0.0,0.0
606,151.25,47.2984,49.7999,152.123,100.528,101.475,0.00367119,0.0779648,20.885,136.446,-0.0863663,0.0,0.0
608,151.75,47.1422,49.8032,158.096,100.542,101.886,0.00364251,0.0776732,20.8855,136.496,-0.122405,0.0,0.0
610,152.25,47.3341,49.4738,152.78,100.555,101.265,0.00363029,0.0776039,20.8859,136.426,-0.0648241,0.0,0.0
612,152.75,47.4006,49.8283,148.49,100.585,101.54,0.00360938,0.0774852,20.8864,136.496,-0.0871366,0.0,0.0
614,153.25,47.5654,49.3249,158.981,100.601,101.628,0.00357088,0.0773891,20.8872,136.416,-0.0936637,0.0,0.0
616,153.75,47.5356,49.9675,156.243,100.638,101.482,0.00353302,0.0773261,20.8879,136.486,-0.0770402,0.0,0.0
618,154.25,48.1019,49.8935,150.822,100.623,101.628,0.00349635,0.0772751,20.8884,136.416,-0.0916166,0.0,0.0
620,154.75,47.5736,49.9199,151.085,100.65,101.726,0.00346197,0.0772339,20.8889,136.476,-0.0980364,0.0,0.0
622,155.25,47.3008,50.2764,150.682,100.688,101.495,0.00342992,0.0772004,20.8892,136.406,-0.0735718,0.0,0.0
624,155.75,47.2796,49.9492,152.677,100.701,102.674,0.00340396,0.0771137,20.8895,136.466,-0.178859,0.0,0.0
626,156.25,47.4023,49.7384,154.986,100.694,101.523,0.00337406,0.0770435,20.8897,136.406,-0.0755396,0.0,0.0
628,156.75,47.7582,50.1716,152.787,100.723,101.117,0.00334984,0.0769419,20.8899,136.466,-0.0359453,0.0,0.0
630,157.25,47.5104,49.7414,148.679,100.737,101.986,0.00330741,0.0768596,20.8903,136.416,-0.113594,0.0,0.0
632,157.75,47.0944,49.7871,151.894,100.771,101.71,0.00327305,0.0767694,20.8908,136.456,-0.0854929,0.0,0.0
634,158.25,47.4607,50.3564,156.676,100.774,101.987,0.00324522,0.0766752,20.8912,136.406,-0.110281,0.0,0.0
636,158.75,47.5004,50.0135,149.502,100.82,102.339,0.00318089,0.0765989,20.8916,136.466,-0.137841,0.0,0.0
638,159.25,47.319,50.0545,149.705,100.813,102.243,0.00312879,0.07649,20.8918,136.426,-0.129852,0.0,0.0
640,159.75,47.687,49.9101,155.599,100.834,101.533,0.00306508,0.0763595,20.8921,136.466,-0.0636756,0.0,0.0
642,160.25,47.6396,50.0653,152.715,100.83,101.797,0.00301348,0.076191,20.8922,136.416,-0.0879597,0.0,0.0
644,160.75,47.6723,49.9989,151.908,100.861,102.337,0.00297901,0.0759981,20.8924,136.456,-0.133866,0.0,0.0
646,161.25,47.2274,50.1011,149.901,100.886,101.144,0.00295767,0.0758419,20.8925,136.416,-0.0235301,0.0,0.0
648,161.75,47.6626,50.1797,153.909,100.879,102.274,0.00295371,0.0756111,20.8926,136.446,-0.126597,0.0,0.0
650,162.25,47.312,50.1736,153.607,100.905,102.086,0.00296249,0.0754241,20.8927,136.416,-0.107236,0.0,0.0
652,162.75,47.177,50.0195,149.296,100.924,101.838,0.0029756,0.0751983,20.8927,136.436,-0.0831306,0.0,0.0
654,163.25,47.1068,50.2735,153.657,100.936,101.554,0.00299162,0.0750154,20.8928,136.426,-0.0562742,0.0,0.0
656,163.75,47.6313,50.0961,151.957,100.942,102.293,0.00300459,0.0748358,20.8928,136.366,-0.122491,0.0,0.0
658,164.25,47.689,50.0651,154.401,100.949,102.084,0.00300497,0.0746622,20.8931,136.406,-0.103043,0.0,0.0
660,164.75,47.2224,49.3504,149.333,100.946,101.32,0.00300528,0.0744667,20.8935,136.396,-0.0340571,0.0,0.0
662,165.25,47.2841,49.7841,149.708,100.968,101.811,0.00300552,0.074259,20.8939,136.416,-0.0766663,0.0,0.0
664,165.75,47.4099,50.1603,151.762,100.961,102.403,0.00299054,0.0740908,20.8942,136.366,-0.130707,0.0,0.0
666,166.25,47.7271,50.5621,149.402,100.989,102.766,0.0029784,0.0738058,20.8944,136.436,-0.160795,0.0,0.0
668,166.75,47.7479,50.2589,148.122,101.006,102.878,0.00296604,0.0735749,20.8946,136.386,-0.169187,0.0,0.0
670,167.25,47.7371,50.2061,154.051,101.022,102.115,0.00295602,0.0732689,20.8947,136.436,-0.0991025,0.0,0.0
672,167.75,47.5903,50.1452,146.848,101.015,101.706,0.0029555,0.073021,20.8951,136.346,-0.0628326,0.0,0.0
674,168.25,47.6152,49.945,150.894,101.031,102.758,0.00295508,0.072731,20.8956,136.426,-0.156237,0.0,0.0
676,168.75,47.1863,49.9897,147.863,101.029,102.24,0.00295854,0.072496,20.896,136.346,-0.109866,0.0,0.0
678,169.25,47.2576,49.8193,149.995,101.053,102.905,0.00296134,0.072251,20.8963,136.416,-0.16732,0.0,0.0
680,169.75,47.606,49.9403,157.15,101.027,101.812,0.00295761,0.0720032,20.8965,136.356,-0.0713404,0.0,0.0
682,170.25,47.4926,49.9112,150.497,101.065,102.131,0.0029492,0.071779,20.8968,136.406,-0.0967133,0.0,0.0
684,170.75,47.2403,49.8876,152.016,101.047,102.985,0.00292214,0.0715763,20.8969,136.336,-0.175088,0.0,0.0
686,171.25,47.1522,49.6886,149.65,101.084,102.065,0.00290023,0.0714121,20.8975,136.406,-0.0890657,0.0,0.0
688,171.75,47.5373,50.1343,149.781,101.057,102.242,0.00288248,0.0712196,20.898,136.346,-0.10737,0.0,0.0
690,172.25,47.1571,50.1512,150.592,101.09,102.274,0.00283902,0.0710637,20.8984,136.406,-0.10725,0.0,0.0
692,172.75,47.5636,49.8905,154.757,101.059,101.258,0.00280383,0.0708827,20.8987,136.316,-0.018194,0.0,0.0
694,173.25,47.6056,49.8934,153.31,101.097,101.747,0.00276867,0.0706868,20.8989,136.386,-0.0590306,0.0,0.0
696,173.75,47.5268,50.0968,152.333,101.082,101.352,0.0027342,0.0705281,20.8991,136.326,-0.0245579,0.0,0.0
698,174.25,47.2411,50.0923,149.506,101.092,101.604,0.00270628,0.070355,20.8993,136.386,-0.0465909,0.0,0.0
700,174.75,47.6633,50.299,153.765,101.088,102.839,0.00268114,0.0702147,20.8994,136.336,-0.158341,0.0,0.0
702,175.25,47.7183,49.8513,154.778,101.095,102.511,0.00266078,0.0701011,20.8995,136.366,-0.128131,0.0,0.0
704,175.75,47.2799,49.8176,152.068,101.088,101.94,0.00264429,0.0699349,20.8996,136.316,-0.0773111,0.0,0.0
706,176.25,47.6222,50.4906,151.25,101.114,102.643,0.00263346,0.0698002,20.8994,136.386,-0.138358,0.0,0.0
708,176.75,47.2983,50.0159,155.454,101.071,102.004,0.00262468,0.0695722,20.8993,136.326,-0.0847245,0.0,0.0
710,177.25,47.6759,50.0356,152.958,101.09,102.579,0.0026062,0.0693876,20.8994,136.396,-0.134726,0.0,0.0
712,177.75,47.5259,49.7764,149.044,101.073,101.942,0.00259124,0.0692083,20.8997,136.326,-0.0789655,0.0,0.0