File: 01_Data/Corrugated_Cardboard/Cone/Corrugated_Cardboard_Cone_HF25Scan_250211_R3.csv
Names,Time,Stack TC,Smoke TC,Exh Press,Smoke Comp,Smoke Meas,CO Meter,CO2 Meter,O2 Meter,Sample Mass,Ext Coeff,Start Test,Flame Verif
Chan Gain,,500,500,1,1,1,1,1,1,1,1,1.0,1.0
Offset,,0,0,0.131183,0,0,0,0,0,0,0,0.0,0.0
Gain,,1,1,25.011,13.1923,20.2122,1,1,1,1.00092,1.05074,1.0,1.0
Units,sec,C,C,Pa,%,%,%,%,%,g,/m,,
Baseline,,36.9171,37.9564,158.728,99.8701,105.813,0.000317553,0.0423914,20.9475,-434.65,-0.532814,,
2,0.25,36.9802,38.2264,158.745,99.9709,106.015,0.000446613,0.0429112,20.9501,144.063,-0.541029,0.0,0.0
4,0.75,36.1356,37.2301,161.793,99.9652,106.104,0.00046524,0.0429552,20.9503,144.083,-0.549268,0.0,0.0
6,1.25,36.1915,37.4255,155.415,99.9616,106.028,0.000480327,0.0429909,20.9499,144.003,-0.543063,0.0,0.0
8,1.75,36.0468,36.9148,158.554,99.9769,105.962,0.000493799,0.0430198,20.9497,144.093,-0.53586,0.0,0.0
10,2.25,36.1123,37.6182,157.512,99.9528,106.072,0.000504711,0.0430579,20.9494,144.003,-0.547686,0.0,0.0
12,2.75,35.8579,37.3688,164.267,99.9616,105.884,0.00051026,0.0430888,20.9493,144.033,-0.530507,0.0,0.0
14,3.25,36.2075,37.5873,156.785,99.9483,105.927,0.000511793,0.0431138,20.9491,143.993,-0.535436,0.0,0.0
16,3.75,36.4089,37.4239,156.985,99.9604,105.983,0.000506456,0.0431341,20.949,144.033,-0.539205,0.0,0.0
18,4.25,36.4176,37.3415,156.779,99.9403,105.933,0.000496213,0.0431737,20.9489,143.963,-0.536716,0.0,0.0
20,4.75,35.8614,37.0956,157.982,99.9363,106.002,0.000480681,0.0432267,20.9488,143.963,-0.543149,0.0,0.0
22,5.25,36.5198,37.5333,163.434,99.9133,106.052,0.000461589,0.0432619,20.9488,143.963,-0.549556,0.0,0.0
24,5.75,36.0317,37.3327,156.734,99.9363,105.85,0.000446125,0.0432835,20.9487,144.013,-0.529892,0.0,0.0
26,6.25,36.2049,37.3539,157.721,99.9145,106.015,0.000429851,0.0433009,20.9487,143.953,-0.546227,0.0,0.0
28,6.75,35.9941,37.5275,158.163,99.9282,105.815,0.000416669,0.0432918,20.9486,143.983,-0.527627,0.0,0.0
30,7.25,36.8589,37.6473,162.947,99.8811,105.909,0.000411252,0.0432636,20.9486,143.953,-0.540136,0.0,0.0
32,7.75,36.3668,37.6356,157.23,99.8855,105.833,0.000411599,0.0432407,20.9486,143.953,-0.533121,0.0,0.0
34,8.25,36.5173,37.9894,159.122,99.8573,105.914,0.000419773,0.0432221,20.9486,143.943,-0.542757,0.0,0.0
36,8.75,36.1946,37.4408,158.076,99.8662,105.817,0.000433498,0.0432148,20.9486,143.963,-0.533508,0.0,0.0
38,9.25,36.2008,37.945,163.63,99.8312,105.859,0.000444615,0.0432159,20.9485,143.953,-0.54034,0.0,0.0
40,9.75,36.2057,37.5338,158.029,99.8304,105.754,0.000463622,0.0432168,20.9485,143.973,-0.531334,0.0,0.0
42,10.25,36.2529,37.8209,157.749,99.8356,106.038,0.000479017,0.0432616,20.9485,143.933,-0.555547,0.0,0.0
44,10.75,36.5891,37.5889,155.477,99.842,105.655,0.000500241,0.0433754,20.9485,143.953,-0.521597,0.0,0.0
46,11.25,36.163,37.5839,157.373,99.8179,105.654,0.000517433,0.0435372,20.9485,143.953,-0.523719,0.0,0.0
48,11.75,36.0925,37.9523,160.508,99.8171,105.701,0.000543866,0.043769,20.9485,143.953,-0.527936,0.0,0.0
50,12.25,36.0934,37.9912,159.929,99.7945,105.753,0.000565278,0.0440474,20.9481,143.923,-0.534482,0.0,0.0
52,12.75,35.9066,37.6543,159.178,99.7865,105.793,0.000600139,0.0442729,20.9477,143.933,-0.538772,0.0,0.0
54,13.25,36.569,37.5187,156.495,99.7692,105.669,0.000628377,0.0446882,20.9474,143.913,-0.529565,0.0,0.0
56,13.75,36.5101,38.0505,158.41,99.7957,105.632,0.00065125,0.0452338,20.9472,143.913,-0.523881,0.0,0.0
58,14.25,36.0834,37.2795,159.971,99.7861,105.738,0.000689809,0.0460016,20.947,143.893,-0.533972,0.0,0.0
60,14.75,36.6582,37.8295,157.844,99.7478,105.642,0.000721042,0.0469168,20.946,143.873,-0.529113,0.0,0.0
62,15.25,36.4425,37.7948,157.365,99.7603,105.643,0.000758865,0.0479534,20.9451,143.893,-0.528122,0.0,0.0
64,15.75,36.482,38.2532,155.968,99.739,105.6,0.000789501,0.0490586,20.944,143.903,-0.526326,0.0,0.0
66,16.25,36.4804,37.7916,153.173,99.7241,105.597,0.000826846,0.0499539,20.9426,143.923,-0.527434,0.0,0.0
68,16.75,36.1998,37.9851,161.18,99.7136,105.584,0.000857096,0.051344,20.9411,143.893,-0.527217,0.0,0.0
70,17.25,36.6473,37.934,159.099,99.6923,105.561,0.000884237,0.05247,20.9394,143.893,-0.52725,0.0,0.0
72,17.75,35.9009,38.0252,157.629,99.6826,105.568,0.000908596,0.0536156,20.938,143.853,-0.528683,0.0,0.0
74,18.25,36.574,37.7347,155.164,99.6866,105.564,0.000928327,0.0547538,20.9361,143.833,-0.52804,0.0,0.0
76,18.75,36.487,38.1853,156.908,99.6689,105.365,0.000944309,0.0557926,20.9345,143.843,-0.512266,0.0,0.0
78,19.25,36.433,38.1298,156.47,99.6633,105.286,0.000957255,0.0567392,20.9332,143.893,-0.505878,0.0,0.0
80,19.75,36.4512,37.7655,159.46,99.6484,105.305,0.000971039,0.057506,20.9317,143.833,-0.50893,0.0,0.0
82,20.25,36.7024,38.0529,159.762,99.6677,105.323,0.000985171,0.058127,20.9305,143.863,-0.508655,0.0,0.0
84,20.75,36.4866,37.7098,159.645,99.6452,105.017,0.000996619,0.0588226,20.9292,143.803,-0.48398,0.0,0.0
86,21.25,36.2975,37.7046,164.136,99.6476,105.069,0.00100193,0.059386,20.9279,143.833,-0.488304,0.0,0.0
88,21.75,36.1085,37.9835,154.785,99.6375,105.123,0.00100268,0.059975,20.9268,143.793,-0.493995,0.0,0.0
90,22.25,36.1167,37.9978,160.193,99.6492,104.805,0.00100064,0.0605713,20.926,143.803,-0.464967,0.0,0.0
92,22.75,36.4627,37.9623,160.361,99.6267,104.874,0.000996616,0.0611636,20.9253,143.763,-0.473072,0.0,0.0
94,23.25,36.1165,37.8975,155.451,99.6347,104.735,0.000992038,0.0617417,20.9243,143.773,-0.460121,0.0,0.0
96,23.75,36.3951,38.3426,155.315,99.6069,104.425,0.000987143,0.0622567,20.9235,143.703,-0.435402,0.0,0.0
98,24.25,36.5421,37.8684,158.305,99.6061,104.391,0.000983178,0.062716,20.9228,143.773,-0.432481,0.0,0.0
100,24.75,36.7219,38.0176,158.936,99.582,104.222,0.000971195,0.0630881,20.9223,143.733,-0.419727,0.0,0.0
102,25.25,36.9043,37.96,159.69,99.582,104.499,0.000961489,0.0633301,20.9219,143.763,-0.444188,0.0,0.0
104,25.75,36.4733,38.2035,158.844,99.5514,104.03,0.000951122,0.0635261,20.9215,143.683,-0.405579,0.0,0.0
106,26.25,36.6233,38.3305,157.346,99.5763,103.762,0.000942725,0.0636537,20.9212,143.683,-0.379519,0.0,0.0
108,26.75,36.6205,38.2201,156.192,99.5506,103.898,0.000937242,0.063729,20.921,143.663,-0.394005,0.0,0.0
110,27.25,36.8774,37.845,163.236,99.5461,104.042,0.000933987,0.06379,20.9208,143.713,-0.407156,0.0,0.0
112,27.75,36.2526,38.311,157.349,99.5622,103.232,0.00093135,0.0637801,20.9207,143.653,-0.333582,0.0,0.0
114,28.25,36.1023,38.1154,161.801,99.5639,103.427,0.000939107,0.063772,20.9205,143.673,-0.350874,0.0,0.0
116,28.75,36.4348,37.9297,157.209,99.5494,103.04,0.000954294,0.0636953,20.9204,143.613,-0.317631,0.0,0.0
118,29.25,36.9214,38.2594,157.166,99.5796,103.412,0.000986395,0.06357,20.9204,143.633,-0.348102,0.0,0.0
120,29.75,36.7037,38.6293,155.083,99.5566,104.318,0.00103022,0.0634685,20.9203,143.423,-0.430581,0.0,1.0
122,30.25,36.4705,38.6379,153.278,99.5602,103.442,0.00106571,0.0633863,20.9202,143.513,-0.35253,0.0,1.0
124,30.75,36.7271,38.5815,144.177,99.5759,102.582,0.00114468,0.0633431,20.9202,143.292,-0.27414,0.0,1.0
126,31.25,37.0015,40.0095,139.3,99.584,102.09,0.00122783,0.0633291,20.9206,143.262,-0.229061,0.0,1.0
128,31.75,37.4455,40.9991,140.541,99.5429,101.083,0.00131245,0.0633412,20.9209,143.212,-0.141527,0.0,1.0
130,32.25,37.6629,42.1208,137.823,99.551,99.7249,0.00139423,0.0633721,20.9212,143.192,-0.0160932,0.0,1.0
132,32.75,38.257,43.6952,141.689,99.5634,100.347,0.00147238,0.0633737,20.9214,143.052,-0.0722822,0.0,1.0
134,33.25,38.9717,45.2166,140.802,99.555,99.4289,0.0015443,0.063354,20.9216,142.942,0.0116844,0.0,1.0
136,33.75,40.0833,46.3142,140.328,99.5506,99.7613,0.00161031,0.0632834,20.9217,142.852,-0.0194938,0.0,1.0
138,34.25,40.2123,48.1783,140.884,99.555,99.5572,0.00163845,0.0632274,20.9218,142.762,-0.000201074,0.0,1.0
140,34.75,39.534,48.8346,137.198,99.559,99.9334,0.00168657,0.0631317,20.9219,142.692,-0.0345975,0.0,1.0
142,35.25,40.1001,49.5288,140.41,99.5719,100.627,0.00177089,0.0630542,20.922,142.582,-0.0971292,0.0,1.0
144,35.75,40.6685,50.8083,142.219,99.5735,101.043,0.00183919,0.0629766,20.9221,142.532,-0.135038,0.0,1.0
146,36.25,41.171,51.8035,141.83,99.5997,101.617,0.00194749,0.0629137,20.9221,142.452,-0.184795,0.0,1.0
148,36.75,41.7225,52.33,140.688,99.5832,101.025,0.00203521,0.0632186,20.9222,142.392,-0.132512,0.0,1.0
150,37.25,42.1388,53.2051,144.293,99.5904,102.695,0.00214682,0.0634655,20.9222,142.342,-0.282935,0.0,1.0
152,37.75,42.2715,53.5048,146.496,99.6255,102.586,0.00227373,0.0647683,20.9222,142.301,-0.269945,0.0,1.0
154,38.25,42.4195,53.7842,146.497,99.6154,103.195,0.00240784,0.0668162,20.9218,142.251,-0.325413,0.0,0.0
156,38.75,42.5128,54.1178,146.635,99.6295,102.517,0.00254465,0.0752303,20.921,142.211,-0.263307,0.0,0.0
158,39.25,42.9217,54.8611,142.919,99.6428,103.385,0.00267013,0.0820457,20.9199,142.181,-0.339779,0.0,0.0
160,39.75,43.2136,55.3888,150.365,99.6713,103.601,0.00278498,0.0959203,20.9191,142.071,-0.356417,0.0,0.0
162,40.25,43.7607,55.4314,149.273,99.673,103.261,0.002884,0.114678,20.9118,142.031,-0.325926,0.0,0.0
164,40.75,43.7505,55.8763,145.209,99.6456,103.468,0.00296962,0.129871,20.9058,142.001,-0.346939,0.0,0.0
166,41.25,43.9902,55.6161,147.432,99.6673,104.093,0.00303898,0.160891,20.8925,141.961,-0.400477,0.0,0.0
168,41.75,44.2972,56.1525,146.319,99.687,103.654,0.00310583,0.186017,20.8739,141.901,-0.359628,0.0,0.0
170,42.25,44.237,55.5335,150.02,99.6866,103.787,0.00316959,0.20637,20.8589,141.871,-0.371505,0.0,0.0
172,42.75,44.4574,56.2917,145.558,99.6923,104.31,0.00322124,0.222855,20.8368,141.841,-0.41732,0.0,0.0
174,43.25,44.3752,56.1477,154.826,99.6935,104.5,0.00326308,0.260608,20.8099,141.821,-0.43398,0.0,0.0
176,43.75,44.6498,56.1871,150.226,99.6987,104.76,0.00331473,0.291187,20.7674,141.761,-0.456426,0.0,0.0
178,44.25,44.83,56.0971,151.41,99.714,104.787,0.00335657,0.319321,20.733,141.731,-0.457346,0.0,0.0
180,44.75,44.757,55.786,148.495,99.7269,104.175,0.0033765,0.342109,20.7051,141.721,-0.40223,0.0,0.0
182,45.25,44.6552,55.7913,149.835,99.7382,104.656,0.00339264,0.359601,20.6676,141.681,-0.443658,0.0,0.0
184,45.75,44.887,56.0564,148.086,99.7321,104.695,0.00338769,0.372901,20.6371,141.661,-0.447637,0.0,0.0
186,46.25,45.0361,55.7066,145.972,99.7511,104.834,0.00336747,0.381455,20.6125,141.641,-0.458045,0.0,0.0
188,46.75,44.9039,55.3518,156.336,99.7676,104.593,0.00333175,0.386385,20.5925,141.611,-0.435345,0.0,0.0
190,47.25,45.1374,55.7799,153.832,99.7647,105.087,0.00328541,0.390379,20.5764,141.571,-0.479043,0.0,0.0
192,47.75,44.793,55.6606,151.813,99.7929,104.52,0.00324788,0.387831,20.5633,141.531,-0.426586,0.0,0.0
194,48.25,45.3126,55.3094,150.341,99.8267,105.056,0.00318203,0.385768,20.558,141.521,-0.470612,0.0,0.0
196,48.75,45.3121,55.4162,146.507,99.8223,105.191,0.0031287,0.381261,20.5537,141.511,-0.48281,0.0,0.0
198,49.25,45.1675,55.303,148.964,99.8175,105.117,0.00306487,0.37506,20.5502,141.471,-0.476822,0.0,0.0
200,49.75,45.4958,55.222,149.337,99.8517,105.019,0.0029946,0.370036,20.5522,141.441,-0.465005,0.0,0.0
202,50.25,44.9928,54.7378,148.557,99.8449,105.105,0.00292371,0.360836,20.5538,141.421,-0.473213,0.0,0.0
204,50.75,45.1338,54.5463,151.497,99.8618,105.147,0.00285372,0.353384,20.5579,141.341,-0.47533,0.0,0.0
206,51.25,45.0841,54.3504,154.973,99.8626,105.458,0.00279704,0.343306,20.5637,141.331,-0.50252,0.0,0.0
208,51.75,45.4082,54.106,145.109,99.8908,105.186,0.00272334,0.335142,20.5737,141.321,-0.476114,0.0,0.0
210,52.25,45.4868,53.9508,149.737,99.9077,104.941,0.00266365,0.324743,20.5819,141.271,-0.453072,0.0,0.0
212,52.75,44.9972,54.0348,149.192,99.9089,104.426,0.00259889,0.316321,20.5917,141.261,-0.407558,0.0,0.0
214,53.25,45.2626,53.7284,148.359,99.9097,104.866,0.00254644,0.306322,20.6025,141.17,-0.44622,0.0,0.0
216,53.75,45.0832,53.6759,148.721,99.9081,105.028,0.00251405,0.298224,20.6139,141.14,-0.46067,0.0,0.0
218,54.25,45.1078,53.6751,153.612,99.9145,105.46,0.00248781,0.289276,20.6254,141.11,-0.497836,0.0,0.0
220,54.75,45.4277,53.2204,151.881,99.9447,105.507,0.00250444,0.282028,20.6363,141.1,-0.499201,0.0,0.0
222,55.25,44.9135,53.346,149.705,99.9455,104.818,0.0025179,0.274774,20.6466,141.05,-0.43874,0.0,0.0
224,55.75,44.7747,53.1307,150.713,99.9499,104.975,0.00252881,0.267652,20.655,141.07,-0.452152,0.0,0.0
226,56.25,45.1852,52.9188,151.31,99.9487,105.131,0.0025809,0.261884,20.6633,141,-0.465902,0.0,0.0
228,56.75,45.3334,53.4126,154.002,99.9725,105.321,0.00266203,0.255831,20.6716,141,-0.480406,0.0,0.0
230,57.25,45.3542,53.1329,152.77,99.9741,105.428,0.00276309,0.249686,20.6783,140.92,-0.489537,0.0,0.0
232,57.75,44.7647,52.815,148.882,99.9821,104.966,0.00287676,0.244708,20.6859,140.94,-0.44837,0.0,0.0
234,58.25,45.1029,52.901,151.538,99.9745,105,0.00300757,0.239068,20.6921,140.82,-0.452053,0.0,0.0
236,58.75,45.2046,53.2038,149.143,99.9962,105.037,0.0031484,0.2345,20.6997,140.8,-0.453298,0.0,0.0
238,59.25,45.7351,53.1611,150.159,99.9902,105.261,0.00326248,0.229711,20.7059,140.69,-0.473481,0.0,0.0
240,59.75,45.3377,52.8411,154.553,99.9874,105.193,0.00343119,0.225832,20.7136,140.74,-0.467798,0.0,0.0
242,60.25,45.7196,53.3057,153.99,100.013,104.973,0.00360674,0.221924,20.7198,140.63,-0.446145,0.0,0.0
244,60.75,45.4143,52.9156,150.185,100.015,104.491,0.00378394,0.218759,20.7265,140.63,-0.403526,0.0,0.0
246,61.25,45.6954,53.3326,153.5,100.02,103.927,0.00395031,0.215685,20.732,140.58,-0.353125,0.0,0.0
248,61.75,45.756,53.3463,147.589,99.9874,104.296,0.00410562,0.213195,20.7374,140.56,-0.388823,0.0,0.0
250,62.25,45.2587,53.1603,143.743,100.011,104.608,0.00423143,0.210702,20.7417,140.51,-0.414267,0.0,0.0
252,62.75,46.0542,54.0145,143.763,100.004,104.491,0.00434341,0.208682,20.7452,140.49,-0.404511,0.0,0.0
254,63.25,45.9243,53.8481,145.073,100.014,104.407,0.00444319,0.207046,20.748,140.44,-0.396144,0.0,0.0
256,63.75,45.9477,54.4332,142.268,99.9954,103.783,0.004522,0.205482,20.7503,140.41,-0.34267,0.0,0.0
258,64.25,46.4094,54.2609,151.876,100.006,104.501,0.00458402,0.204215,20.7531,140.35,-0.40525,0.0,0.0
260,64.75,46.3592,54.9778,148.85,100.029,103.95,0.00463425,0.203412,20.7553,140.31,-0.354388,0.0,0.0
262,65.25,46.7136,54.8738,144.98,99.9809,103.895,0.00468772,0.202761,20.7571,140.25,-0.353971,0.0,0.0
264,65.75,46.5979,55.1425,150.553,99.9926,103.665,0.00473102,0.202234,20.7585,140.23,-0.332406,0.0,0.0
266,66.25,46.7607,55.5314,148.077,99.9737,103.366,0.0047661,0.203017,20.7597,140.2,-0.307568,0.0,0.0
268,66.75,47.2771,55.5733,146.642,99.9576,103.501,0.00487894,0.203651,20.7607,140.17,-0.321091,0.0,0.0
270,67.25,46.9178,55.6261,145.836,99.9528,103.967,0.00497034,0.20488,20.7616,140.099,-0.362915,0.0,0.0
272,67.75,47.2688,55.8726,149.084,99.9455,103.949,0.00507203,0.206519,20.7623,140.099,-0.361997,0.0,0.0
274,68.25,46.8152,55.7327,145.987,99.9044,103.599,0.00517928,0.207847,20.762,140.029,-0.334721,0.0,0.0
276,68.75,47.5112,56.1071,148.295,99.8972,103.307,0.00526615,0.210899,20.7618,140.029,-0.309397,0.0,0.0
278,69.25,47.2556,55.9611,151.737,99.8779,104.653,0.00534678,0.213372,20.7609,139.979,-0.430486,0.0,0.0
280,69.75,47.0876,55.6898,148.04,99.8912,104.554,0.00541209,0.215374,20.7595,139.949,-0.42051,0.0,0.0
282,70.25,47.2959,56.0428,147.885,99.8477,104.245,0.00546499,0.220271,20.7585,139.889,-0.39724,0.0,0.0
284,70.75,47.5587,56.3676,149.624,99.8203,104.104,0.00543352,0.224238,20.7562,139.879,-0.387268,0.0,0.0
286,71.25,47.609,55.9099,148.571,99.8187,104.737,0.00540802,0.229228,20.7531,139.829,-0.44328,0.0,0.0
288,71.75,47.0219,55.3558,150.552,99.7756,104.836,0.00531064,0.234869,20.7487,139.809,-0.455993,0.0,0.0
290,72.25,47.4446,55.498,158.924,99.7486,105.04,0.00523176,0.240457,20.7435,139.779,-0.476418,0.0,0.0
292,72.75,47.4206,55.5666,149.128,99.704,104.962,0.00513494,0.2459,20.7375,139.749,-0.473672,0.0,0.0
294,73.25,47.4535,55.0021,153.903,99.6943,105.116,0.00502689,0.250878,20.7309,139.709,-0.488097,0.0,0.0
296,73.75,47.3193,55.2258,155.96,99.6444,105.017,0.00489347,0.255421,20.7239,139.719,-0.484055,0.0,0.0
298,74.25,47.6684,54.7988,157.051,99.6355,104.832,0.0047854,0.259198,20.7168,139.709,-0.46862,0.0,0.0
300,74.75,46.8207,54.1148,154.677,99.584,104.769,0.00467843,0.262344,20.7111,139.659,-0.4678,0.0,0.0
302,75.25,47.0582,54.3358,159.197,99.5337,104.507,0.00457428,0.264568,20.7064,139.639,-0.449422,0.0,0.0
304,75.75,46.9201,53.8606,155.355,99.5244,104.839,0.00447185,0.266078,20.7027,139.629,-0.479501,0.0,0.0
306,76.25,46.6621,53.3206,158.745,99.5155,104.936,0.0043726,0.267301,20.6996,139.579,-0.488831,0.0,0.0
308,76.75,46.4605,53.023,148.849,99.5312,104.442,0.00429221,0.26708,20.6971,139.539,-0.443877,0.0,0.0
310,77.25,46.8909,53.0636,154.115,99.5663,105.109,0.00419834,0.266901,20.6951,139.489,-0.499346,0.0,0.0
312,77.75,47.0587,52.9173,160.259,99.5779,105.177,0.00409641,0.265842,20.6935,139.489,-0.504213,0.0,0.0
314,78.25,46.6438,52.5254,158.497,99.5804,105.118,0.00400322,0.264161,20.6922,139.479,-0.498798,0.0,0.0
316,78.75,46.396,52.3829,157.464,99.623,105.162,0.00391818,0.2628,20.6923,139.469,-0.498743,0.0,0.0
318,79.25,46.7141,52.4223,157.268,99.6319,105.3,0.00384462,0.260121,20.6924,139.449,-0.509971,0.0,0.0
320,79.75,46.6098,51.8843,155.226,99.642,105.259,0.00378082,0.257951,20.6937,139.429,-0.505476,0.0,0.0
322,80.25,46.3221,51.6651,154.348,99.6709,105.371,0.00372782,0.254315,20.6949,139.419,-0.512566,0.0,0.0
324,80.75,46.7782,51.8692,156.968,99.6947,105.402,0.00368368,0.251371,20.6969,139.379,-0.513067,0.0,0.0
326,81.25,46.1861,51.3099,157.784,99.7229,105.357,0.00366486,0.24881,20.6983,139.379,-0.506524,0.0,0.0
328,81.75,46.1378,51.1357,151.722,99.7454,105.288,0.00364283,0.244432,20.7022,139.369,-0.498449,0.0,0.0
330,82.25,46.2061,51.0616,156.366,99.7716,105.582,0.003625,0.239523,20.7065,139.349,-0.521698,0.0,0.0
332,82.75,45.9604,50.6699,151.33,99.7804,105.537,0.00365118,0.234321,20.7117,139.329,-0.516948,0.0,0.0
334,83.25,45.97,50.1622,150.775,99.8183,105.431,0.00367239,0.230107,20.7173,139.349,-0.504237,0.0,0.0
336,83.75,45.5346,49.9699,150.972,99.8437,105.345,0.00368957,0.223985,20.7219,139.309,-0.494341,0.0,0.0
338,84.25,45.5955,49.6044,157.194,99.8714,105.517,0.00386774,0.219026,20.7272,139.319,-0.506823,0.0,0.0
340,84.75,45.845,49.6386,159.51,99.8767,105.594,0.00401206,0.213835,20.733,139.269,-0.513072,0.0,0.0
342,85.25,45.6073,49.3898,158.133,99.9516,105.77,0.00427085,0.208574,20.7388,139.299,-0.52155,0.0,0.0
344,85.75,45.5052,49.0612,156.091,99.9391,105.846,0.00448046,0.203452,20.7446,139.239,-0.529256,0.0,0.0
346,86.25,45.3579,48.5434,154.47,100.003,105.943,0.00471844,0.198529,20.7502,139.289,-0.531784,0.0,0.0
348,86.75,45.1971,48.3454,157.285,100.005,105.995,0.00497257,0.193653,20.7555,139.229,-0.536159,0.0,0.0
350,87.25,45.2382,48.5638,158.1,100.048,106.056,0.00523659,0.188902,20.7599,139.229,-0.537534,0.0,0.0
352,87.75,44.5614,47.6741,156.444,100.063,105.928,0.00550281,0.185054,20.7661,139.189,-0.525059,0.0,0.0
354,88.25,45.0459,47.8037,158.7,100.09,106.039,0.00571845,0.18029,20.771,139.199,-0.532177,0.0,0.0
356,88.75,44.4135,47.3507,151.868,100.119,106.105,0.00595243,0.176431,20.7751,139.149,-0.535297,0.0,0.0
358,89.25,44.4454,47.3509,158.699,100.166,106.176,0.00614195,0.173306,20.7784,139.169,-0.537084,0.0,0.0
360,89.75,44.7977,47.3774,153.751,100.181,106.424,0.00629546,0.169682,20.7829,139.129,-0.557251,0.0,0.0
362,90.25,44.2562,47.123,159.086,100.216,106.328,0.0064606,0.165764,20.7867,139.149,-0.545654,0.0,0.0
364,90.75,44.1357,46.6703,156.472,100.223,106.485,0.00663107,0.162591,20.791,139.089,-0.55856,0.0,0.0
366,91.25,44.0865,46.2448,153.755,100.291,106.254,0.00676915,0.159429,20.7945,139.159,-0.532388,0.0,0.0
368,91.75,44.0763,45.9546,155.558,100.287,106.207,0.00691982,0.156334,20.7973,139.089,-0.528654,0.0,0.0
370,92.25,44.2566,46.4026,158.094,100.324,106.189,0.0070768,0.153828,20.8014,139.149,-0.523644,0.0,0.0
372,92.75,43.693,45.4258,159.704,100.315,106.348,0.00723124,0.150753,20.8047,139.119,-0.538224,0.0,0.0
374,93.25,43.8839,45.633,156.145,100.354,106.423,0.0073809,0.148262,20.8083,139.159,-0.541194,0.0,0.0
376,93.75,43.7265,45.1006,154.86,100.373,106.382,0.00750212,0.145356,20.812,139.139,-0.535892,0.0,0.0
378,94.25,43.4123,45.3416,157.611,100.404,106.269,0.00772177,0.14154,20.8177,139.169,-0.523298,0.0,0.0
380,94.75,43.23,44.9891,157.462,100.391,106.418,0.00778086,0.140224,20.8194,139.089,-0.537311,0.0,0.0
382,95.25,43.3202,44.9359,151.977,100.428,106.389,0.00791828,0.137974,20.8237,139.119,-0.5314,0.0,0.0
384,95.75,42.3918,43.7774,158.2,100.432,106.484,0.00802959,0.135297,20.8271,139.058,-0.539257,0.0,0.0
386,96.25,42.164,43.1707,155.749,100.459,106.579,0.00814446,0.133129,20.8308,139.089,-0.545091,0.0,0.0
388,96.75,41.8931,43.1187,153.956,100.443,106.427,0.00823751,0.130521,20.8347,139.038,-0.533437,0.0,0.0
390,97.25,41.9165,42.7016,161.958,100.447,106.712,0.00833629,0.128409,20.8381,139.089,-0.557623,0.0,0.0
392,97.75,41.7782,42.8681,159.228,100.465,106.569,0.00841631,0.126226,20.841,139.008,-0.543593,0.0,0.0
394,98.25,41.7048,42.7344,159.072,100.473,106.751,0.00848112,0.124034,20.8434,139.089,-0.558631,0.0,0.0
396,98.75,41.5469,42.3458,154.279,100.452,106.73,0.00854794,0.122258,20.8457,139.028,-0.558725,0.0,0.0
398,99.25,41.9592,41.9653,155.905,100.454,106.565,0.00860207,0.119654,20.8481,139.058,-0.544306,0.0,0.0
400,99.75,41.5146,41.8439,152.734,100.466,106.628,0.00864659,0.117545,20.85,139.008,-0.548655,0.0,0.0
402,100.25,41.5581,41.9327,158.183,100.462,106.633,0.00868327,0.11528,20.8524,139.058,-0.549525,0.0,0.0
404,100.75,41.0239,41.8715,160.61,100.453,106.333,0.00870819,0.112945,20.8544,138.998,-0.524336,0.0,0.0
406,101.25,41.0505,42.1534,158.984,100.45,106.622,0.00872405,0.110658,20.8568,139.038,-0.549599,0.0,0.0
408,101.75,40.8932,41.7683,155.137,100.423,106.487,0.00873553,0.108448,20.8588,139.008,-0.540337,0.0,0.0
410,102.25,41.3085,41.928,159.739,100.417,106.432,0.0087436,0.106397,20.8622,139.068,-0.536266,0.0,0.0
412,102.75,40.9917,41.5916,156.335,100.399,106.56,0.00875356,0.1045,20.865,139.008,-0.548942,0.0,0.0
414,103.25,41.2958,41.0238,154.682,100.384,106.674,0.00876471,0.102806,20.8676,139.018,-0.560174,0.0,0.0
416,103.75,41.0499,41.6603,156.318,100.355,106.633,0.00878128,0.101291,20.8698,139.008,-0.559264,0.0,0.0
418,104.25,40.6529,41.2938,157.833,100.347,106.478,0.00880149,0.100064,20.8724,138.978,-0.546612,0.0,0.0
420,104.75,40.8511,41.2683,154.717,100.324,106.348,0.00881785,0.0988897,20.8745,138.998,-0.53741,0.0,0.0
422,105.25,40.9229,40.5842,159.305,100.277,106.403,0.00882981,0.0979386,20.8762,138.978,-0.546587,0.0,0.0
424,105.75,40.9421,40.7108,155.165,100.254,106.413,0.00883949,0.0970735,20.8776,138.968,-0.549534,0.0,0.0
426,106.25,40.0375,40.7316,157.166,100.231,106.353,0.00883706,0.0962875,20.8788,138.968,-0.546423,0.0,0.0
428,106.75,40.3526,40.8878,155.895,100.192,106.424,0.00882583,0.095556,20.8797,138.968,-0.556161,0.0,0.0
430,107.25,40.03125,40.5273,154.983,100.165,106.344,0.00880031,0.0948782,20.8804,138.958,-0.551785,0.0,0.0
432,107.75,40.0189,40.9066,158.369,100.118,106.303,0.00876484,0.0943291,20.881,138.948,-0.552464,0.0,0.0
434,108.25,40.3801,40.3392,156.316,100.078,106.125,0.00873611,0.0937195,20.8815,138.938,-0.540756,0.0,0.0
436,108.75,40.4042,40.383,161.597,100.034,106.205,0.00867904,0.0932256,20.8821,138.988,-0.551743,0.0,0.0
438,109.25,39.7763,40.5447,160.493,100.009,106.332,0.00863281,0.0926994,20.8829,138.918,-0.56508,0.0,0.0
440,109.75,40.0786,40.1209,157.029,99.929,105.877,0.00857827,0.0921595,20.8834,138.928,-0.532924,0.0,0.0
442,110.25,39.7818,40.2311,157.725,99.8992,106.181,0.00851871,0.0917222,20.8843,138.898,-0.562106,0.0,0.0
444,110.75,39.5422,40.0687,154.647,99.8678,105.902,0.00845749,0.0912631,20.8851,138.878,-0.540771,0.0,0.0
446,111.25,40.269,39.7683,155.828,99.8179,106.124,0.00839621,0.0908912,20.8857,138.888,-0.564632,0.0,0.0
448,111.75,39.722,40.0821,157.186,99.7704,105.922,0.00834658,0.090545,20.8862,138.878,-0.551485,0.0,0.0
450,112.25,39.9519,39.8414,159.393,99.6911,105.76,0.00828249,0.0902646,20.8866,138.878,-0.544688,0.0,0.0
452,112.75,40.1305,39.5646,156.608,99.6387,105.629,0.00820907,0.0900375,20.8869,138.858,-0.538071,0.0,0.0
454,113.25,39.6574,40.0023,153.914,99.5618,105.845,0.0081496,0.0898535,20.8871,138.868,-0.564059,0.0,0.0
456,113.75,39.1535,39.765,151.499,99.5123,105.651,0.00810143,0.0896146,20.8873,138.878,-0.551763,0.0,0.0
458,114.25,39.5162,39.8885,157.492,99.4725,105.589,0.00800283,0.0894211,20.8875,138.868,-0.550018,0.0,0.0
460,114.75,39.6706,39.436,158.299,99.4137,105.589,0.00792297,0.0891595,20.8876,138.888,-0.555413,0.0,0.0
462,115.25,39.3096,39.1416,158.211,99.3469,105.415,0.00780654,0.0889476,20.888,138.858,-0.546469,0.0,0.0
464,115.75,39.2439,39.0425,151.882,99.2929,105.358,0.00768843,0.0886413,20.8885,138.898,-0.546513,0.0,0.0
466,116.25,39.3559,40.1336,157.283,99.2386,105.389,0.00757135,0.0883931,20.8889,138.878,-0.554202,0.0,0.0
468,116.75,39.2994,39.2116,160.413,99.1693,105.262,0.00745613,0.0880873,20.8892,138.868,-0.549571,0.0,0.0
470,117.25,39.2064,39.6832,157.77,99.1129,105.243,0.00734447,0.0878396,20.8899,138.838,-0.553136,0.0,0.0
472,117.75,38.9644,39.0553,158.61,99.0622,105.229,0.00723706,0.0875642,20.8905,138.838,-0.556612,0.0,0.0
474,118.25,38.9075,39.1134,152.768,98.9978,104.972,0.00713478,0.087341,20.8909,138.838,-0.540051,0.0,0.0
476,118.75,39.1535,39.597,152.803,98.9426,105.162,0.00705194,0.0870705,20.8913,138.848,-0.561907,0.0,0.0
478,119.25,39.4291,39.7499,152.778,98.9157,105.029,0.00696993,0.0868514,20.8916,138.848,-0.552736,0.0,0.0
480,119.75,38.695,39.4929,157.543,98.8609,104.995,0.00689006,0.086674,20.8923,138.858,-0.554862,0.0,0.0
482,120.25,38.9124,39.3272,157.231,98.8118,104.784,0.00682537,0.0864405,20.8928,138.828,-0.54085,0.0,0.0
484,120.75,39.0169,39.0517,154.753,98.757,104.742,0.0067498,0.0862513,20.8933,138.808,-0.542323,0.0,0.0
486,121.25,38.9833,39.439,155.081,98.7095,104.692,0.00668859,0.0861131,20.8936,138.818,-0.542305,0.0,0.0
488,121.75,38.7738,39.013,150.066,98.6822,104.792,0.00661198,0.0860011,20.8939,138.788,-0.55371,0.0,0.0
490,122.25,39.0584,39.0947,160.88,98.6314,104.774,0.00654993,0.0858805,20.8942,138.768,-0.556875,0.0,0.0
492,122.75,38.6515,39.298,156.778,98.6149,104.808,0.00646753,0.0857827,20.8944,138.738,-0.561402,0.0,0.0
494,123.25,39.0522,39.2188,158.036,98.5743,104.843,0.0064324,0.0857096,20.8944,138.748,-0.568295,0.0,0.0
496,123.75,38.8106,39.507,154.716,98.5473,104.467,0.00634791,0.0855845,20.8946,138.748,-0.537679,0.0,0.0
498,124.25,38.934,38.8402,157.259,98.5388,104.584,0.00627948,0.0854596,20.8947,138.718,-0.548751,0.0,0.0
500,124.75,38.7981,39.2553,157.234,98.5139,104.58,0.00621378,0.0853372,20.8948,138.728,-0.55076,0.0,0.0
502,125.25,38.8996,39.0601,158.827,98.4772,104.562,0.00616055,0.0852459,20.8949,138.668,-0.552611,0.0,0.0
504,125.75,38.4766,39.0824,161.276,98.4728,104.457,0.00611745,0.085179,20.8949,138.748,-0.543777,0.0,0.0
506,126.25,38.8322,39.2274,153.864,98.4354,104.483,0.00607226,0.0851248,20.895,138.708,-0.549568,0.0,0.0
508,126.75,38.856,38.7636,155.986,98.437,104.356,0.00603565,0.0849912,20.895,138.748,-0.538202,0.0,0.0
510,127.25,38.3728,38.7878,157.846,98.416,104.494,0.0059983,0.084883,20.895,138.678,-0.552303,0.0,0.0
512,127.75,38.3565,39.3832,158.92,98.4201,104.438,0.00596805,0.084631,20.8951,138.738,-0.547027,0.0,0.0
514,128.25,38.5243,38.6137,156.067,98.412,104.571,0.00592943,0.0844268,20.8951,138.688,-0.559533,0.0,0.0
516,128.75,38.6548,38.9637,156.272,98.4189,104.532,0.00589814,0.0841568,20.8951,138.758,-0.555411,0.0,0.0
518,129.25,38.4298,39.2657,156.096,98.4092,104.621,0.005851,0.0839381,20.8951,138.698,-0.564146,0.0,0.0
520,129.75,38.1762,38.7428,155.457,98.4386,104.592,0.00581281,0.0837137,20.8956,138.798,-0.558839,0.0,0.0
522,130.25,38.7592,39.1483,162.307,98.4394,104.452,0.00576636,0.0834896,20.8959,138.698,-0.54647,0.0,0.0
524,130.75,38.2612,39.2214,161.983,98.4829,104.665,0.00571477,0.083308,20.8962,138.688,-0.561159,0.0,0.0
526,131.25,38.5491,39.1049,153.67,98.4913,104.614,0.00567298,0.0831311,20.8965,138.668,-0.555858,0.0,0.0
528,131.75,38.3284,38.745,157.445,98.5211,104.611,0.00561864,0.0829877,20.8967,138.738,-0.552854,0.0,0.0
530,132.25,38.6068,38.9128,157.832,98.5477,104.351,0.00557462,0.0828245,20.8968,138.668,-0.52735,0.0,0.0
532,132.75,38.2197,38.9316,161.202,98.5783,104.345,0.00554031,0.0826498,20.897,138.688,-0.523999,0.0,0.0
534,133.25,38.458,38.9229,162.368,98.6097,104.679,0.00551373,0.0825083,20.8971,138.648,-0.550547,0.0,0.0
536,133.75,38.1419,38.922,159.197,98.6564,104.636,0.00549221,0.082319,20.8971,138.698,-0.542381,0.0,0.0
538,134.25,38.4356,38.2659,158.779,98.6769,104.718,0.00548886,0.0821657,20.8972,138.678,-0.547631,0.0,0.0
540,134.75,38.3156,38.8276,160.142,98.7297,104.78,0.00548615,0.0820257,20.8973,138.698,-0.548243,0.0,0.0
542,135.25,38.5218,38.3233,159.622,98.7748,104.859,0.00549421,0.0818983,20.8973,138.718,-0.550977,0.0,0.0
544,135.75,38.411,38.8594,154.951,98.809,104.922,0.00550073,0.081795,20.8973,138.708,-0.553313,0.0,0.0
546,136.25,38.172,38.999,157.924,98.8557,104.939,0.00550602,0.0817507,20.8974,138.698,-0.550421,0.0,0.0
548,136.75,37.9759,38.7395,156.962,98.9,104.869,0.00550389,0.0817501,20.8973,138.708,-0.540168,0.0,0.0
550,137.25,37.933,38.8147,157.464,98.9471,104.871,0.00550217,0.0817418,20.8972,138.688,-0.535888,0.0,0.0
552,137.75,38.2061,38.7711,155.508,98.9958,105.02,0.00547516,0.081728,20.8974,138.688,-0.544461,0.0,0.0
554,138.25,38.4149,38.6452,161.307,99.034,105.047,0.00545328,0.0816775,20.8977,138.658,-0.543283,0.0,0.0
556,138.75,38.2643,38.7566,155.592,99.0932,105.138,0.00540739,0.0816013,20.898,138.638,-0.545783,0.0,0.0
558,139.25,38.2118,38.1436,155.849,99.1673,105.178,0.00537022,0.0815395,20.8982,138.638,-0.542355,0.0,0.0
560,139.75,38.4309,38.9459,160.04,99.2092,105.438,0.00534012,0.0813253,20.8984,138.648,-0.561248,0.0,0.0
562,140.25,38.1393,39.1996,155.136,99.249,105.3,0.00530832,0.0811518,20.8985,138.628,-0.545513,0.0,0.0
564,140.75,38.2102,39.0191,160.482,99.2925,105.441,0.00527591,0.0809484,20.8987,138.628,-0.553778,0.0,0.0
566,141.25,38.184,38.6188,156.756,99.3368,105.444,0.00524965,0.0807271,20.8988,138.618,-0.549938,0.0,0.0
568,141.75,38.0207,38.5313,156.218,99.3855,105.503,0.0052271,0.0805478,20.8988,138.618,-0.550539,0.0,0.0
570,142.25,38.0743,38.8016,155.905,99.4548,105.558,0.00520883,0.0804026,20.8989,138.608,-0.548914,0.0,0.0
572,142.75,38.0549,38.826,159.698,99.4684,105.523,0.00518637,0.080285,20.8989,138.618,-0.544576,0.0,0.0
574,143.25,38.3307,38.6882,155.263,99.5272,105.624,0.00516817,0.0801191,20.899,138.638,-0.547962,0.0,0.0
576,143.75,37.9657,38.7066,154.755,99.5554,105.653,0.0051368,0.0799211,20.899,138.618,-0.547882,0.0,0.0
578,144.25,38.2899,38.9503,160.038,99.5852,105.724,0.0051114,0.0796665,20.899,138.588,-0.55131,0.0,0.0
580,144.75,37.5581,38.3856,154.632,99.6383,105.84,0.00508679,0.0793755,20.8991,138.598,-0.556552,0.0,0.0
582,145.25,38.0853,38.6489,158.094,99.6681,105.569,0.00506322,0.0791163,20.8995,138.608,-0.53013,0.0,0.0
584,145.75,38.0218,38.5536,153.724,99.6911,105.831,0.00505152,0.0788851,20.8999,138.598,-0.550868,0.0,0.0
586,146.25,38.0813,37.9737,154.273,99.7003,106.092,0.00504871,0.0786978,20.9002,138.578,-0.572707,0.0,0.0
588,146.75,38.0739,38.8601,155.519,99.7201,105.913,0.00504644,0.0785014,20.9004,138.578,-0.55533,0.0,0.0
590,147.25,37.5663,38.9648,158.217,99.7587,105.789,0.00505806,0.0783423,20.9009,138.588,-0.540963,0.0,0.0
592,147.75,37.2439,38.3837,157.143,99.7607,105.674,0.00507959,0.0781664,20.9014,138.588,-0.530775,0.0,0.0
594,148.25,37.7508,38.6206,156.801,99.7764,105.629,0.00509905,0.0779816,20.9019,138.588,-0.525397,0.0,0.0
596,148.75,37.6376,38.2741,159.845,99.772,105.842,0.00511663,0.077824,20.9022,138.578,-0.544356,0.0,0.0
598,149.25,37.9803,38.6394,151.917,99.7756,105.677,0.00512615,0.0776893,20.9025,138.588,-0.529614,0.0,0.0
600,149.75,38.0314,38.4753,155.436,99.7901,105.949,0.00512962,0.0775331,20.9028,138.598,-0.551971,0.0,0.0
602,150.25,37.4843,38.4028,153.888,99.7788,105.932,0.00512301,0.0773642,20.903,138.608,-0.551563,0.0,0.0
604,150.75,38.0726,38.303,153.529,99.7639,105.924,0.00510918,0.0772275,20.9036,138.598,-0.552242,0.0,0.0
606,151.25,37.8266,38.4434,158.056,99.7563,105.862,0.00509797,0.0769359,20.9041,138.578,-0.547525,0.0,0.0
608,151.75,37.6087,38.5317,155.421,99.7313,105.943,0.00506729,0.0766997,20.9044,138.558,-0.556918,0.0,0.0
610,152.25,37.7034,38.0854,155.17,99.7329,105.82,0.00504243,0.07643,20.9046,138.578,-0.546031,0.0,0.0
612,152.75,37.9485,38.1182,162.155,99.6979,105.801,0.00500683,0.076141,20.9047,138.548,-0.547656,0.0,0.0
614,153.25,38.0885,38.3037,157.711,99.6782,105.883,0.00494585,0.0759069,20.9048,138.558,-0.55657,0.0,0.0
616,153.75,37.7714,38.3306,160.042,99.6424,105.632,0.00492945,0.0756546,20.9049,138.538,-0.538059,0.0,0.0
618,154.25,37.7791,38.5641,155.566,99.6299,105.706,0.00489199,0.0753938,20.905,138.558,-0.545616,0.0,0.0
620,154.75,37.4713,38.5094,155.501,99.6102,105.564,0.00485319,0.0751826,20.905,138.538,-0.535116,0.0,0.0
622,155.25,37.3831,38.5365,160.164,99.5928,105.519,0.00482579,0.0750115,20.9051,138.568,-0.532785,0.0,0.0
624,155.75,37.6614,38.6676,156.825,99.5252,105.531,0.00480722,0.0748729,20.9055,138.528,-0.540071,0.0,0.0
626,156.25,37.9458,38.4626,157.657,99.5296,105.568,0.00479823,0.0747308,20.9059,138.558,-0.542839,0.0,0.0
628,156.75,37.7326,38.6085,156.882,99.4753,105.472,0.00479639,0.0746158,20.9062,138.528,-0.539522,0.0,0.0
630,157.25,37.5201,38.9883,157.881,99.4708,105.672,0.0047949,0.0744035,20.9065,138.558,-0.557381,0.0,0.0
632,157.75,37.5886,38.5525,154.992,99.4246,105.49,0.00478731,0.0742316,20.9067,138.508,-0.54584,0.0,0.0
634,158.25,37.7626,38.3385,160.696,99.3867,105.553,0.00478116,0.0740328,20.9069,138.538,-0.55479,0.0,0.0
636,158.75,37.9569,38.9538,155.941,99.3428,105.306,0.00476086,0.0738718,20.907,138.478,-0.537292,0.0,0.0
638,159.25,38.0022,38.6052,159.419,99.3316,105.333,0.00474442,0.0737414,20.9071,138.538,-0.540713,0.0,0.0
640,159.75,37.5103,38.4576,155.511,99.2881,105.397,0.0047311,0.0735731,20.9072,138.478,-0.55036,0.0,0.0
642,160.25,37.6099,38.8328,157.22,99.2752,105.307,0.00472031,0.0733804,20.9073,138.518,-0.543622,0.0,0.0
644,160.75,37.5377,38.6727,158.48,99.2329,105.381,0.00471157,0.0732243,20.9074,138.458,-0.554079,0.0,0.0
646,161.25,37.6896,38.0398,159.298,99.2329,105.183,0.00470449,0.073052,20.9074,138.518,-0.536745,0.0,0.0
648,161.75,37.2327,38.5423,158.104,99.208,105.214,0.00471953,0.0728711,20.9075,138.438,-0.541765,0.0,0.0
650,162.25,37.8039,38.448,160.378,99.2059,105.425,0.00475041,0.0727245,20.9076,138.498,-0.560414,0.0,0.0
652,162.75,37.1232,38.0617,161.061,99.2059,105.195,0.00477541,0.0725166,20.9076,138.458,-0.540277,0.0,0.0
654,163.25,37.4193,38.0454,157.077,99.2539,105.444,0.0048174,0.0723481,20.9077,138.518,-0.557636,0.0,0.0
656,163.75,37.3027,37.9713,159.35,99.3291,105.415,0.0048514,0.072182,20.9079,138.448,-0.548059,0.0,0.0
658,164.25,37.3899,38.2614,157.885,99.4346,105.482,0.00488662,0.0720474,20.908,138.488,-0.544153,0.0,0.0
660,164.75,37.2607,38.2294,156.256,99.5071,105.807,0.00491514,0.0719681,20.9082,138.428,-0.565799,0.0,0.0
662,165.25,36.8085,38.1322,159.002,99.6061,105.614,0.00493824,0.0719039,20.9085,138.498,-0.539796,0.0,0.0
664,165.75,37.4783,37.7027,157.432,99.6593,105.878,0.00494809,0.0718765,20.9087,138.438,-0.557891,0.0,0.0
666,166.25,36.8402,38.3972,159.138,99.7152,106.001,0.0049609,0.0717851,20.9091,138.498,-0.56345,0.0,0.0
668,166.75,37.5699,38.1111,159.156,99.7885,105.963,0.00496764,0.0716641,20.9095,138.428,-0.553354,0.0,0.0
670,167.25,37.4174,38.1223,157.524,99.8569,105.994,0.00496368,0.0715238,20.9098,138.478,-0.549716,0.0,0.0
672,167.75,37.6134,37.6725,155.71,99.8738,106.075,0.004952,0.0714102,20.91,138.418,-0.55518,0.0,0.0
674,168.25,37.4906,38.45,162.202,99.9133,106.007,0.00494254,0.0712289,20.9102,138.498,-0.545642,0.0,0.0
676,168.75,37.4135,38.0744,153.491,99.9624,106.021,0.00491672,0.0710821,20.9103,138.448,-0.542344,0.0,0.0
678,169.25,37.2659,37.8132,163.481,99.9886,106.285,0.00487948,0.070932,20.9104,138.468,-0.562855,0.0,0.0
680,169.75,37.3977,38.3435,162.211,99.9987,106.303,0.00483655,0.0707822,20.9105,138.418,-0.563532,0.0,0.0
682,170.25,37.1281,38.0074,157.417,100.026,106.138,0.0047903,0.0706843,20.9106,138.428,-0.546703,0.0,0.0
684,170.75,37.3089,38.2199,160.758,100.018,106.207,0.00474276,0.0706261,20.9107,138.398,-0.553388,0.0,0.0
686,171.25,37.1052,38.2134,162.428,100.022,106.338,0.00469519,0.070579,20.911,138.448,-0.564338,0.0,0.0
688,171.75,37.448,37.7284,156.215,100.009,106.229,0.00467491,0.0705892,20.9112,138.428,-0.556184,0.0,0.0
690,172.25,37.2881,38.3992,158.523,100.009,106.192,0.00461359,0.0706065,20.9116,138.438,-0.552935,0.0,0.0
692,172.75,37.1294,38.3467,156.951,99.9648,106.21,0.00456391,0.0706128,20.9115,138.398,-0.55857,0.0,0.0
694,173.25,37.3859,38.2363,158.305,99.9354,106.065,0.00451027,0.0706108,20.9114,138.428,-0.548693,0.0,0.0
696,173.75,36.9642,38.4317,160.861,99.904,106.207,0.00445475,0.0705701,20.9116,138.408,-0.563856,0.0,0.0
698,174.25,37.4545,37.5788,158.781,99.8763,106.102,0.00439638,0.0705019,20.9117,138.398,-0.557368,0.0,0.0
700,174.75,37.2595,37.869,158.684,99.8159,105.982,0.00433704,0.0704467,20.9119,138.388,-0.552488,0.0,0.0
702,175.25,37.1351,38.1766,156.689,99.7515,105.885,0.00428897,0.0703871,20.912,138.388,-0.549958,0.0,0.0
704,175.75,37.1221,38.2787,155.66,99.7213,105.914,0.00424134,0.0703388,20.9121,138.348,-0.555326,0.0,0.0
706,176.25,37.283,37.8637,158.761,99.6327,105.806,0.0042169,0.0703182,20.9121,138.358,-0.554117,0.0,0.0
708,176.75,36.6443,37.9182,163.156,99.5598,105.724,0.00418182,0.070283,20.9122,138.348,-0.553658,0.0,0.0
710,177.25,36.8723,38.3429,155.317,99.5433,105.719,0.00415943,0.0702545,20.9122,138.398,-0.55481,0.0,0.0
712,177.75,37.4362,38.0487,153.374,99.586,105.745,0.00415067,0.0702909,20.9122,138.398,-0.553064,0.0,0.0
714,178.25,36.7507,37.9668,153.867,99.6202,105.744,0.00415201,0.0703203,20.9123,138.388,-0.549843,0.0,0.0
716,178.75,37.1302,38.6081,161.576,99.6552,105.8,0.00415444,0.0703145,20.9123,138.318,-0.551495,0.0,0.0
718,179.25,36.7706,37.9034,158.068,99.6818,105.883,0.00415762,0.0703097,20.9123,138.378,-0.556235,0.0,0.0
720,179.75,37.1963,38.1104,161.058,99.7277,106.046,0.00416019,0.0702316,20.9123,138.388,-0.566157,0.0,0.0
722,180.25,37.1847,38.1368,155.974,99.7615,106.02,0.00414572,0.0701683,20.9124,138.388,-0.56078,0.0,0.0
724,180.75,36.6286,37.9055,156.254,99.7962,106.113,0.00413401,0.0700427,20.9124,138.408,-0.565729,0.0,0.0
726,181.25,37.0344,38.3472,161.064,99.8481,106.053,0.00410416,0.069941,20.9124,138.368,-0.555682,0.0,0.0
728,181.75,37.0852,38.0767,156.612,99.9016,106.17,0.00407999,0.0697804,20.9124,138.378,-0.560921,0.0,0.0
730,182.25,37.0472,37.9645,158.057,99.9278,106.09,0.0040604,0.06958,20.9124,138.388,-0.551542,0.0,0.0
732,182.75,37.068,38.1399,155.523,99.9842,106.118,0.00403298,0.0694176,20.9124,138.368,-0.54881,0.0,0.0
734,183.25,37.2559,38.1336,150.346,100.032,106.274,0.00401076,0.0692861,20.9124,138.378,-0.557922,0.0,0.0
736,183.75,37.187,37.898,157.497,100.089,106.187,0.00399276,0.0690868,20.9124,138.368,-0.54511,0.0,0.0
738,184.25,37.0448,37.9334,158.503,100.126,106.255,0.00397818,0.068842,20.9124,138.378,-0.547604,0.0,0.0
740,184.75,37.4292,38.1159,158.694,100.174,106.408,0.00396002,0.0686436,20.9128,138.358,-0.556439,0.0,0.0
742,185.25,37.0694,38.3125,155.391,100.21,106.469,0.00394531,0.0684384,20.9136,138.378,-0.558393,0.0,0.0
744,185.75,37.1642,38.4375,157.224,100.278,106.678,0.00392402,0.0682722,20.9142,138.358,-0.570184,0.0,0.0
746,186.25,37.4972,37.9398,162.69,100.302,106.627,0.00389835,0.0681297,20.9146,138.368,-0.563631,0.0,0.0
748,186.75,37.265,38.2366,155.533,100.338,106.511,0.00385342,0.0680073,20.915,138.328,-0.550346,0.0,0.0
750,187.25,36.7364,38.192,157.659,100.349,106.529,0.00381703,0.0679004,20.9153,138.298,-0.550842,0.0,0.0
752,187.75,37.384,38.3192,157.544,100.4,106.529,0.00377753,0.0678067,20.9156,138.328,-0.546126,0.0,0.0
754,188.25,36.9954,38.4991,155.75,100.412,106.45,0.00373651,0.0676996,20.9158,138.318,-0.538221,0.0,0.0
756,188.75,37.1896,38.3113,153.487,100.456,106.573,0.00370329,0.0675847,20.916,138.308,-0.544852,0.0,0.0
758,189.25,36.9779,38.1135,160.3,100.458,106.588,0.00367638,0.0674916,20.9161,138.278,-0.545874,0.0,0.0
760,189.75,36.9129,38.2047,160.518,100.461,106.699,0.00365458,0.0674756,20.9162,138.298,-0.555248,0.0,0.0
762,190.25,37.4248,38.1236,160.943,100.443,106.555,0.00365163,0.0674626,20.9163,138.278,-0.54445,0.0,0.0
764,190.75,36.8938,38.1825,156.476,100.505,106.763,0.00366247,0.0675381,20.9164,138.288,-0.556725,0.0,0.0
766,191.25,37.0272,38.1446,157.488,100.465,106.688,0.00368061,0.0676766,20.9164,138.268,-0.553937,0.0,0.0
768,191.75,37.1277,38.1814,157.931,100.481,106.587,0.00370373,0.0678044,20.9165,138.288,-0.543662,0.0,0.0
770,192.25,37.6174,37.9266,159.423,100.442,106.831,0.0037238,0.067922,20.9165,138.258,-0.568343,0.0,0.0
772,192.75,37.096,38.1012,156.088,100.45,106.773,0.00374125,0.0680172,20.9166,138.268,-0.562638,0.0,0.0
774,193.25,37.011,38.1648,157.701,100.431,106.877,0.00374737,0.068035,20.9166,138.198,-0.573369,0.0,0.0
776,193.75,37.1786,38.1746,158.317,100.404,106.719,0.0037451,0.0680493,20.9166,138.248,-0.562163,0.0,0.0
778,194.25,37.0382,38.448,161.677,100.352,106.668,0.00374326,0.0680016,20.9166,138.218,-0.5626,0.0,0.0
780,194.75,36.9513,37.9475,157.849,100.322,106.591,0.00371129,0.0679629,20.9166,138.268,-0.558724,0.0,0.0
782,195.25,36.7124,37.9529,153.317,100.264,106.484,0.0036854,0.0679003,20.9166,138.218,-0.554804,0.0,0.0
784,195.75,36.9404,38.1154,156.23,100.239,106.438,0.00364239,0.0678215,20.9167,138.278,-0.55311,0.0,0.0
786,196.25,36.9259,37.9479,160.286,100.181,106.257,0.00358772,0.0677577,20.9167,138.218,-0.542725,0.0,0.0
788,196.75,36.9397,37.7403,157.563,100.122,106.305,0.00354344,0.0676317,20.9167,138.268,-0.552254,0.0,0.0
790,197.25,37.1923,37.9519,158.707,100.041,106.133,0.00346701,0.0675297,20.9167,138.238,-0.544827,0.0,0.0
792,197.75,36.951,37.8351,155.857,99.9866,106.131,0.00340511,0.0674002,20.9167,138.278,-0.549658,0.0,0.0
794,198.25,36.6556,38.0552,158.526,99.9387,106.08,0.00334356,0.0672531,20.9167,138.238,-0.549682,0.0,0.0
796,198.75,36.6736,38.0626,160.184,99.863,105.981,0.00329372,0.0671028,20.9167,138.288,-0.548085,0.0,0.0
798,199.25,36.8414,38.3212,155.763,99.7974,105.906,0.00325934,0.0669529,20.9167,138.238,-0.547599,0.0,0.0
800,199.75,37.3919,38.0968,155.445,99.741,105.933,0.00323689,0.0668236,20.9167,138.308,-0.555112,0.0,0.0
802,200.25,36.5141,38.1853,159.671,99.6581,105.868,0.00323005,0.0667119,20.9167,138.258,-0.557143,0.0,0.0
804,200.75,36.9617,37.7957,159.828,99.5747,105.786,0.0032347,0.066637,20.9171,138.268,-0.557709,0.0,0.0
806,201.25,37.109,37.52,154.157,99.4966,105.56,0.00324782,0.0665904,20.9175,138.248,-0.545196,0.0,0.0
808,201.75,36.3824,38.04,158.329,99.4093,105.498,0.00326685,0.0665839,20.9178,138.238,-0.547959,0.0,0.0
810,202.25,37.0987,38.1645,158.991,99.3336,105.292,0.00328627,0.0666068,20.918,138.248,-0.536909,0.0,0.0
812,202.75,37.0017,37.9236,159.7,99.2494,105.415,0.0033056,0.0666253,20.9182,138.268,-0.555513,0.0,0.0
814,203.25,36.9001,37.8797,153.835,99.1717,105.121,0.00332126,0.0665364,20.9184,138.258,-0.53697,0.0,0.0
816,203.75,36.9827,38.2047,157.92,99.1041,105.16,0.00332527,0.0664644,20.9185,138.248,-0.546664,0.0,0.0
818,204.25,36.4513,37.9376,156.126,99.0232,104.953,0.00332071,0.0664061,20.9186,138.208,-0.53601,0.0,0.0
820,204.75,36.7509,38.3201,154.56,98.9575,104.913,0.00330234,0.066255,20.9187,138.228,-0.538653,0.0,0.0
822,205.25,36.8507,37.7546,156.169,98.9128,104.791,0.00327426,0.0661327,20.9187,138.258,-0.53208,0.0,0.0
824,205.75,36.7588,37.8476,162.473,98.8396,104.814,0.00325151,0.066057,20.9188,138.238,-0.540972,0.0,0.0
826,206.25,36.5646,38.0235,159.082,98.7772,104.629,0.00320522,0.0660167,20.9188,138.208,-0.530452,0.0,0.0
828,206.75,36.532,37.9105,154.602,98.7188,104.679,0.00316773,0.0659841,20.9189,138.208,-0.5403,0.0,0.0
830,207.25,36.6312,37.7489,160.518,98.6568,104.496,0.00313737,0.0659733,20.9189,138.198,-0.530001,0.0,0.0
832,207.75,36.8952,38.0233,154.071,98.6101,104.586,0.00311657,0.0659787,20.9188,138.218,-0.542251,0.0,0.0
834,208.25,36.7363,37.8297,153.237,98.5739,104.494,0.00309972,0.0660064,20.9188,138.188,-0.537589,0.0,0.0
836,208.75,37.0523,37.6907,157.417,98.5557,104.551,0.00309074,0.0660499,20.9187,138.188,-0.544288,0.0,0.0
838,209.25,36.6687,37.8501,157.864,98.5239,104.531,0.00308766,0.0660774,20.9186,138.168,-0.545468,0.0,0.0
840,209.75,36.7403,38.202,158.597,98.4881,104.465,0.0030877,0.0660926,20.9186,138.198,-0.542999,0.0,0.0
842,210.25,36.6345,37.8463,158.862,98.495,104.478,0.00308773,0.0660581,20.9185,138.208,-0.543556,0.0,0.0
844,210.75,37.1111,37.7085,153.677,98.4567,104.512,0.00308776,0.065988,20.9185,138.198,-0.550127,0.0,0.0
846,211.25,36.5192,38.1934,156.115,98.4603,104.544,0.00307512,0.0659312,20.9185,138.188,-0.552562,0.0,0.0
848,211.75,36.9195,37.4791,155.785,98.4789,104.553,0.00306488,0.0658555,20.9184,138.188,-0.551644,0.0,0.0
850,212.25,36.8019,38.1286,158.057,98.4873,104.506,0.00304393,0.0657942,20.9184,138.178,-0.54672,0.0,0.0
852,212.75,36.7171,38.1001,160.418,98.5078,104.497,0.00302696,0.0657289,20.9184,138.158,-0.543982,0.0,0.0
854,213.25,36.3081,37.5202,160.295,98.5356,104.605,0.00300455,0.065662,20.9184,138.178,-0.5509,0.0,0.0
856,213.75,36.675,37.6275,154.62,98.5594,104.634,0.00297862,0.0656,20.9188,138.178,-0.551286,0.0,0.0
858,214.25,36.9404,37.8654,156.126,98.6016,104.709,0.00295228,0.0655427,20.9192,138.178,-0.553906,0.0,0.0
860,214.75,36.6863,38.0722,159.112,98.6355,104.647,0.00292616,0.0654964,20.9195,138.138,-0.54526,0.0,0.0
861,215,37.1005,37.7389,159.961,98.6479,104.732,0.00291502,0.0654376,20.9196,138.108,-0.551643,0.0,0.0