File: 01_Data/Corrugated_Cardboard/Cone/Corrugated_Cardboard_Cone_HF50Scan_250211_R3.csv
Names,Time,Stack TC,Smoke TC,Exh Press,Smoke Comp,Smoke Meas,CO Meter,CO2 Meter,O2 Meter,Sample Mass,Ext Coeff,Start Test,Flame Verif
Chan Gain,,500,500,1,1,1,1,1,1,1,1,1.0,1.0
Offset,,0,0,0.131183,0,0,0,0,0,0,0,0.0,0.0
Gain,,1,1,25.011,13.1923,20.2122,1,1,1,1.00092,1.05074,1.0,1.0
Units,sec,C,C,Pa,%,%,%,%,%,g,/m,,
Baseline,,51.4023,54.4411,151.67,100.052,105.069,0.000784869,0.0525633,20.9145,-437.003,-0.450885,,
2,0.25,50.1992,52.2946,149.306,99.1846,104.334,0.000461941,0.0537624,20.9149,133.313,-0.466556,0.0,0.0
4,0.75,49.5675,51.4793,151.578,99.1826,104.132,0.000459757,0.0540652,20.915,132.653,-0.448853,0.0,0.0
6,1.25,49.4124,51.0701,152.571,99.1681,104.078,0.000457988,0.0546356,20.915,132.733,-0.445395,0.0,0.0
8,1.75,49.6316,51.4229,149.07,99.1588,103.971,0.000467804,0.0550976,20.9148,133.043,-0.4368,0.0,0.0
10,2.25,49.3977,51.5412,158.094,99.1544,104.497,0.000475756,0.0556509,20.9144,132.783,-0.483683,0.0,0.0
12,2.75,49.3345,51.3083,155.322,99.1363,104.125,0.000494044,0.0562603,20.9141,132.933,-0.452556,0.0,0.0
14,3.25,49.3777,51.0971,152.353,99.1637,104.422,0.00051952,0.0567538,20.9134,132.903,-0.476236,0.0,0.0
16,3.75,49.2113,51.4394,150.764,99.1246,104.373,0.000540156,0.0574052,20.9129,132.793,-0.475565,0.0,0.0
18,4.25,49.2405,51.4896,151.566,99.1299,103.369,0.000566091,0.0579328,20.9124,132.883,-0.38597,0.0,0.0
20,4.75,49.5848,51.2122,149.969,99.1081,103.72,0.000595396,0.0584537,20.9121,132.773,-0.41918,0.0,0.0
22,5.25,49.3963,51.6212,153.517,99.119,103.744,0.000624404,0.0589598,20.9118,132.833,-0.420307,0.0,0.0
24,5.75,49.6585,51.8722,151.092,99.1005,103.528,0.000652643,0.0594633,20.9102,132.773,-0.402882,0.0,0.0
26,6.25,49.4986,51.9563,160.992,99.0852,102.442,0.000675517,0.0599553,20.9089,132.773,-0.307089,0.0,0.0
28,6.75,49.1132,51.9895,154.048,99.0807,101.925,0.000689038,0.0603538,20.9079,132.703,-0.260876,0.0,1.0
30,7.25,49.7435,52.1043,142.701,99.0779,100.601,0.000699989,0.0609582,20.9071,132.593,-0.140596,0.0,1.0
32,7.75,49.64,52.7238,144.962,99.0618,98.5715,0.000697597,0.0614477,20.9064,132.442,0.045735,0.0,1.0
34,8.25,49.7737,53.3901,138.203,99.0715,95.7038,0.000695659,0.0622447,20.9059,132.382,0.318752,0.0,1.0
36,8.75,50.5244,55.3859,133.258,99.0795,94.1957,0.000686581,0.0628902,20.9054,132.122,0.465903,0.0,1.0
38,9.25,51.0584,57.028,124.646,99.0538,94.2074,0.000679228,0.0636083,20.9051,131.902,0.462359,0.0,1.0
40,9.75,52.2694,59.9556,123.925,99.0687,90.7211,0.000673272,0.0643657,20.9048,131.762,0.811307,0.0,1.0
42,10.25,52.8292,62.736,116.82,99.0715,92.3335,0.000668448,0.0649793,20.9037,131.592,0.649193,0.0,1.0
44,10.75,54.0644,65.8088,117.078,99.0501,93.2686,0.00066454,0.0657436,20.9028,131.441,0.554334,0.0,1.0
46,11.25,54.3833,68.4097,125.461,99.0433,88.7941,0.000655121,0.0663626,20.9018,131.341,1.00683,0.0,1.0
48,11.75,55.8229,70.8092,129.282,99.0421,90.6212,0.000651105,0.0668328,20.9008,131.261,0.818992,0.0,1.0
50,12.25,56.4615,72.2887,129.011,99.0368,92.4606,0.000644239,0.0670184,20.9004,131.141,0.633297,0.0,1.0
52,12.75,57.4788,74.4245,132.1,99.0562,92.5383,0.000631172,0.0673359,20.8997,131.061,0.627352,0.0,1.0
54,13.25,58.1115,75.5567,135.027,99.0091,94.506,0.000620587,0.0672515,20.8991,130.901,0.429037,0.0,1.0
56,13.75,58.2762,76.4544,130.971,99.0284,96.082,0.00062202,0.0671831,20.8984,130.861,0.2784,0.0,1.0
58,14.25,58.9371,77.2204,139.039,98.993,98.3272,0.000623181,0.0675138,20.8976,130.781,0.0621965,0.0,1.0
60,14.75,59.1832,77.3113,136.627,99.0179,98.519,0.000662921,0.0677817,20.897,130.771,0.046556,0.0,1.0
62,15.25,59.723,77.7208,137.323,98.9805,98.0311,0.000695111,0.0704901,20.8964,130.651,0.0888298,0.0,1.0
64,15.75,59.6667,78.1335,141.294,99.0034,100.423,0.000806433,0.0749263,20.896,130.651,-0.131181,0.0,1.0
66,16.25,60.0049,78.0757,135.551,98.9922,99.9458,0.000896604,0.0924162,20.8957,130.551,-0.0883635,0.0,1.0
68,16.75,60.275,77.7135,137.291,99.0091,100.65,0.00106566,0.106583,20.8954,130.561,-0.151466,0.0,1.0
70,17.25,60.0881,78.21,137.518,99.0006,100.143,0.001289,0.118058,20.8903,130.431,-0.105761,0.0,1.0
72,17.75,60.055,77.7342,143.435,99.0063,100.733,0.00146991,0.171593,20.8862,130.441,-0.159408,0.0,0.0
74,18.25,61.0528,77.2727,141.031,99.0026,101.566,0.00175699,0.214956,20.8829,130.33,-0.235624,0.0,0.0
76,18.75,60.5589,77.8374,141.376,98.9841,99.7459,0.00211601,0.25008,20.8802,130.36,-0.0706649,0.0,0.0
78,19.25,60.3427,77.9147,136.752,98.968,100.297,0.00253079,0.322231,20.8482,130.26,-0.122923,0.0,0.0
80,19.75,61.1813,77.8335,141.57,99.0167,98.5061,0.002981,0.39696,20.8318,130.26,0.0476547,0.0,0.0
82,20.25,60.642,77.3807,138.81,98.974,100.29,0.00317293,0.428817,20.8072,130.12,-0.121737,0.0,0.0
84,20.75,61.3375,77.6891,139.305,98.9861,100.721,0.00355905,0.494529,20.765,130.15,-0.160153,0.0,0.0
86,21.25,61.0549,77.6301,136.359,98.9696,100.411,0.00392393,0.547755,20.6731,130.01,-0.13331,0.0,0.0
88,21.75,61.3144,77.3894,138.408,98.9893,98.7059,0.00421949,0.583313,20.5987,130.04,0.0264244,0.0,0.0
90,22.25,61.6538,77.4505,141.618,98.9724,99.2574,0.00451146,0.612115,20.5342,129.94,-0.0264982,0.0,0.0
92,22.75,61.8102,77.4275,136.952,99.0042,99.8317,0.00474795,0.618139,20.4783,129.95,-0.0767095,0.0,0.0
94,23.25,61.6819,77.4113,139.925,98.9789,99.6811,0.00492871,0.623018,20.4329,129.81,-0.0651649,0.0,0.0
96,23.75,61.775,77.8921,140.854,98.9982,98.7177,0.00506541,0.62697,20.3962,129.85,0.0261549,0.0,0.0
98,24.25,61.9349,78.0327,139.963,98.9845,98.4154,0.00513904,0.607953,20.3665,129.7,0.0531447,0.0,0.0
100,24.75,62.2069,77.673,140.44,99.0067,98.1687,0.0051653,0.592549,20.3424,129.76,0.0783432,0.0,0.0
102,25.25,62.3651,77.7514,142.04,98.991,99.9125,0.00518657,0.563529,20.3229,129.62,-0.0854037,0.0,0.0
104,25.75,62.9157,77.6807,136.32,98.9865,98.627,0.00513386,0.540022,20.3071,129.63,0.0335387,0.0,0.0
106,26.25,62.5513,78.2137,132.613,98.9664,99.4825,0.0050282,0.520982,20.315,129.49,-0.0479432,0.0,0.0
108,26.75,62.8361,78.0126,140.176,99.0014,98.5524,0.00494262,0.493631,20.3214,129.48,0.0419032,0.0,0.0
110,27.25,63.0183,78.4989,142.234,98.999,98.5684,0.00477391,0.471476,20.3365,129.37,0.0401793,0.0,0.0
112,27.75,63.0093,78.6372,136.726,99.001,97.0973,0.00463726,0.44748,20.3578,129.34,0.178966,0.0,0.0
114,28.25,63.4393,79.1285,140.235,99.001,98.1841,0.00446554,0.428043,20.3808,129.179,0.07637,0.0,0.0
116,28.75,63.6626,79.2944,129.934,99.0119,97.0091,0.00432645,0.409866,20.4047,129.179,0.188355,0.0,0.0
118,29.25,63.8996,79.9704,130.439,99.0143,95.8241,0.00418077,0.395143,20.4289,129.079,0.301855,0.0,0.0
120,29.75,64.0654,80.7758,131.245,99.026,94.3789,0.00406276,0.382647,20.4529,128.979,0.443012,0.0,0.0
122,30.25,64.6226,80.7516,136.957,99.0244,94.6774,0.00394307,0.372525,20.4742,128.889,0.413752,0.0,0.0
124,30.75,64.6048,81.8879,128.292,99.03,93.7781,0.00384612,0.364741,20.4931,128.819,0.502246,0.0,0.0
126,31.25,64.9775,82.5167,134.422,99.0236,94.0403,0.00373082,0.358436,20.5089,128.769,0.475918,0.0,0.0
128,31.75,65.4446,82.7895,137.165,99.0449,93.6893,0.00368166,0.356313,20.5158,128.689,0.512367,0.0,0.0
130,32.25,65.9057,83.6846,136.501,99.053,94.279,0.00359761,0.352684,20.5277,128.629,0.455286,0.0,0.0
132,32.75,65.8972,84.0339,138.472,99.0493,95.7415,0.00345861,0.349744,20.5373,128.549,0.313069,0.0,0.0
134,33.25,65.9459,84.0901,132.118,99.0767,95.3245,0.00334603,0.348842,20.5451,128.529,0.355846,0.0,0.0
136,33.75,66.1791,84.3651,137.197,99.0252,95.6934,0.00322356,0.348111,20.5515,128.479,0.315454,0.0,0.0
138,34.25,66.2206,83.7904,138.062,99.0413,97.7801,0.00309622,0.348635,20.5566,128.369,0.118122,0.0,0.0
140,34.75,66.7925,84.0357,141.04,99.0538,98.3679,0.00295899,0.350064,20.56,128.409,0.0640396,0.0,0.0
142,35.25,66.5119,84.0704,139.473,99.03,99.7064,0.00284783,0.352634,20.5622,128.258,-0.062743,0.0,0.0
144,35.75,66.5646,83.5069,142.658,99.0574,99.2247,0.00275022,0.355988,20.563,128.319,-0.0155549,0.0,0.0
146,36.25,66.8658,83.7204,145.035,99.0308,100.489,0.00267116,0.36103,20.5628,128.188,-0.134744,0.0,0.0
148,36.75,67.0489,82.592,138.423,99.059,98.2736,0.00262731,0.367207,20.5609,128.238,0.073374,0.0,0.0
150,37.25,66.4792,82.1818,143.421,99.0505,100.239,0.00259179,0.376418,20.5576,128.108,-0.109967,0.0,0.0
152,37.75,66.591,82.4645,146.299,99.0811,101.253,0.00256302,0.387664,20.5549,128.168,-0.199838,0.0,0.0
154,38.25,66.5363,81.7214,139.661,99.0771,100.857,0.00259784,0.396773,20.5475,128.038,-0.164094,0.0,0.0
156,38.75,66.1616,81.2666,147.992,99.0799,100.968,0.00262603,0.413581,20.5414,128.118,-0.174029,0.0,0.0
158,39.25,66.2552,80.9292,142.501,99.1017,100.822,0.00269751,0.427196,20.5324,127.978,-0.158653,0.0,0.0
160,39.75,66.4973,80.9883,144.304,99.0924,101.437,0.00279917,0.440666,20.5213,128.048,-0.215563,0.0,0.0
162,40.25,66.1056,80.0386,144.514,99.1137,102.195,0.00291824,0.453774,20.5123,127.948,-0.282149,0.0,0.0
164,40.75,65.9335,80.1314,142.388,99.0972,101.304,0.00304774,0.463675,20.494,127.998,-0.202999,0.0,0.0
166,41.25,66.155,79.2947,142.018,99.0916,101.825,0.0031767,0.47105,20.4792,127.928,-0.250769,0.0,0.0
168,41.75,65.4157,78.4819,140.264,99.1154,101.568,0.00330282,0.477025,20.4672,127.978,-0.225304,0.0,0.0
170,42.25,65.7249,78.0665,144.202,99.1307,101.618,0.00340498,0.481864,20.4574,127.868,-0.228414,0.0,0.0
172,42.75,65.2482,77.7296,139.493,99.1323,101.427,0.00350446,0.475646,20.4496,127.928,-0.210959,0.0,0.0
174,43.25,65.406,77.446,141.157,99.1137,101.83,0.0036001,0.47061,20.4432,127.828,-0.249156,0.0,0.0
176,43.75,65.3422,76.9966,145.658,99.1371,102.763,0.00367757,0.45834,20.4381,127.858,-0.331073,0.0,0.0
178,44.25,64.919,76.5283,146.952,99.1468,102.467,0.00373026,0.4484,20.4356,127.778,-0.303581,0.0,0.0
180,44.75,64.7383,76.5667,149.832,99.1355,102.436,0.00377295,0.435638,20.435,127.818,-0.301854,0.0,0.0
182,45.25,65.1722,75.4577,146.062,99.1476,102.451,0.00377828,0.42106,20.44,127.778,-0.302063,0.0,0.0
184,45.75,64.842,75.1709,144.365,99.152,102.256,0.0037826,0.405255,20.449,127.808,-0.284155,0.0,0.0
186,46.25,64.8939,74.5101,148.157,99.1613,102.353,0.00378609,0.388855,20.4562,127.778,-0.291963,0.0,0.0
188,46.75,64.6919,73.657,143.381,99.152,102.594,0.00372036,0.375571,20.4691,127.778,-0.314517,0.0,0.0
190,47.25,64.5226,73.3073,148.865,99.1737,103.309,0.00366712,0.358653,20.4858,127.768,-0.3765,0.0,0.0
192,47.75,64.1475,72.6169,147.721,99.1822,102.554,0.00357074,0.344949,20.5035,127.738,-0.308163,0.0,0.0
194,48.25,64.0231,71.9293,148.019,99.1902,102.623,0.00349268,0.33163,20.5216,127.778,-0.313566,0.0,0.0
196,48.75,63.7295,71.5015,146.391,99.1854,102.94,0.00337375,0.318845,20.539,127.708,-0.342447,0.0,0.0
198,49.25,63.6096,71.2859,145.532,99.2188,103.254,0.00327741,0.30533,20.5556,127.748,-0.367411,0.0,0.0
200,49.75,63.3232,70.7117,150.314,99.2144,102.775,0.00322303,0.299568,20.5627,127.668,-0.32494,0.0,0.0
202,50.25,63.2207,69.9411,149.927,99.216,103.697,0.00313004,0.288163,20.5814,127.748,-0.407177,0.0,0.0
204,50.75,63.2231,69.9259,148.083,99.2108,102.591,0.00305538,0.277529,20.5966,127.658,-0.308832,0.0,0.0
206,51.25,62.9924,69.1813,148.047,99.2341,103.546,0.00299551,0.26748,20.6129,127.738,-0.392052,0.0,0.0
208,51.75,62.3456,68.5924,150.286,99.2345,102.473,0.0029723,0.258049,20.6279,127.618,-0.29598,0.0,0.0
210,52.25,62.3675,68.1848,145.764,99.243,102.589,0.00295351,0.248853,20.6417,127.708,-0.305675,0.0,0.0
212,52.75,62.2216,67.909,148.81,99.2482,103.172,0.00293828,0.240003,20.653,127.608,-0.357411,0.0,0.0
214,53.25,61.9613,67.8664,155.024,99.2522,103.101,0.00299686,0.232834,20.6637,127.708,-0.350697,0.0,0.0
216,53.75,62.1476,67.2799,148.882,99.2575,102.774,0.00304431,0.223845,20.6738,127.608,-0.320884,0.0,0.0
218,54.25,61.5507,66.6648,147.087,99.2748,103.91,0.00315251,0.216564,20.682,127.688,-0.420559,0.0,0.0
220,54.75,61.4094,66.6776,150.004,99.245,103.446,0.00324016,0.209066,20.6917,127.598,-0.382144,0.0,0.0
222,55.25,61.3915,66.3608,152.591,99.2945,102.924,0.00336998,0.201553,20.6996,127.688,-0.330878,0.0,0.0
224,55.75,61.432,66.0615,150.059,99.2603,103.179,0.00352808,0.195468,20.7091,127.598,-0.35684,0.0,0.0
226,56.25,61.2217,65.6043,145.587,99.3001,103.678,0.00365614,0.187802,20.7168,127.648,-0.39761,0.0,0.0
228,56.75,61.1211,65.1861,145.079,99.2832,102.79,0.00387593,0.181593,20.7252,127.598,-0.319929,0.0,0.0
230,57.25,60.6963,64.5296,146.608,99.3114,103.829,0.00405395,0.174479,20.7339,127.668,-0.410043,0.0,0.0
232,57.75,60.5594,64.3661,149.943,99.2961,103.256,0.00431968,0.168716,20.7428,127.598,-0.360453,0.0,0.0
234,58.25,59.042,63.2517,149.676,99.3114,102.233,0.00453492,0.162574,20.7518,127.678,-0.267233,0.0,0.0
236,58.75,58.9856,62.8031,144.673,99.3042,103.74,0.00482731,0.157599,20.7604,127.618,-0.402773,0.0,0.0
238,59.25,59.3869,62.1391,149.912,99.3368,102.909,0.00506414,0.152788,20.7686,127.678,-0.325629,0.0,0.0
240,59.75,59.4599,62.0915,150.646,99.3303,103.535,0.00525598,0.148188,20.7753,127.578,-0.382131,0.0,0.0
242,60.25,58.574,61.8784,150.881,99.3686,103.576,0.00554008,0.144462,20.7816,128.088,-0.382207,0.0,0.0
244,60.75,58.495,60.899,152.352,99.3622,104.308,0.00577021,0.140361,20.7876,127.848,-0.447729,0.0,0.0
246,61.25,58.1072,61.1911,145.925,99.3875,103.669,0.00602887,0.13704,20.7929,127.468,-0.388736,0.0,0.0
248,61.75,58.333,60.9136,146.822,99.3899,104.2,0.00623839,0.133711,20.7976,127.578,-0.435609,0.0,0.0
250,62.25,58.2498,61.1045,148.963,99.4068,103.173,0.00647143,0.131014,20.8018,127.618,-0.342747,0.0,0.0
252,62.75,58.3132,61.0308,148.331,99.3803,103.567,0.0066602,0.128313,20.8057,127.558,-0.380356,0.0,0.0
254,63.25,58.0467,60.2707,147.805,99.4423,103.542,0.00687266,0.126126,20.8098,127.618,-0.372411,0.0,0.0
256,63.75,58.1187,60.2756,149.935,99.4165,103.855,0.00704474,0.123883,20.8139,127.528,-0.40254,0.0,0.0
258,64.25,57.8142,60.3053,151.277,99.4471,104.249,0.00724118,0.122067,20.8173,127.578,-0.434619,0.0,0.0
260,64.75,57.9767,60.1756,150.301,99.4322,104.096,0.0074003,0.120596,20.8202,127.508,-0.422519,0.0,0.0
262,65.25,57.5817,59.9227,150.9,99.4572,103.488,0.00752918,0.119165,20.8228,127.608,-0.366196,0.0,0.0
264,65.75,57.537,59.8827,144.767,99.4684,103.549,0.00766227,0.117791,20.8249,127.528,-0.370589,0.0,0.0
266,66.25,57.0128,59.6456,147.725,99.4874,103.75,0.00785288,0.116678,20.827,127.588,-0.386663,0.0,0.0
268,66.75,57.2668,59.3403,148.342,99.4817,103.776,0.00790415,0.115648,20.8288,127.508,-0.389541,0.0,0.0
270,67.25,56.7527,59.328,151.107,99.495,103.945,0.00799935,0.1147,20.8302,127.568,-0.403253,0.0,0.0
272,67.75,57.1087,59.2883,150.517,99.4966,104.525,0.00808324,0.113932,20.8322,127.528,-0.45443,0.0,0.0
274,68.25,56.8515,59.4938,150.395,99.5308,103.689,0.00815187,0.113204,20.8338,127.598,-0.377264,0.0,0.0
276,68.75,56.5182,59.1806,148.84,99.5421,102.841,0.00820807,0.112614,20.8352,127.518,-0.300463,0.0,0.0
278,69.25,56.8584,58.6494,147.973,99.5441,103.816,0.0082536,0.111909,20.8362,127.568,-0.387267,0.0,0.0
280,69.75,56.7437,58.8182,150.696,99.5546,103.595,0.00827099,0.111339,20.8373,127.478,-0.366672,0.0,0.0
282,70.25,56.7394,58.6735,145.954,99.5719,104.552,0.00828507,0.11074,20.8385,127.558,-0.449851,0.0,0.0
284,70.75,56.2311,58.5064,144.255,99.5719,103.562,0.00826661,0.110256,20.8393,127.478,-0.362159,0.0,0.0
286,71.25,56.7688,58.0468,149.611,99.584,104.145,0.00825166,0.109803,20.8401,127.538,-0.412719,0.0,0.0
288,71.75,56.2651,58.2673,146.833,99.5957,103.889,0.0082097,0.109436,20.8407,127.488,-0.388956,0.0,0.0
290,72.25,56.4186,57.7403,146.752,99.6186,104.16,0.00817572,0.109093,20.8411,127.548,-0.41088,0.0,0.0
292,72.75,56.6271,58.4856,153.292,99.6327,103.594,0.00812225,0.108816,20.8417,127.478,-0.359388,0.0,0.0
294,73.25,56.2083,58.0795,147.161,99.6335,104.295,0.00807895,0.108559,20.8424,127.508,-0.421447,0.0,0.0
296,73.75,56.2009,58.2,151.277,99.6299,104.125,0.00804387,0.108323,20.843,127.468,-0.406726,0.0,0.0
298,74.25,55.21,57.4677,147.231,99.6484,103.447,0.00798307,0.108131,20.8435,127.468,-0.344865,0.0,0.0
300,74.75,55.831,57.7891,157.84,99.6605,104.46,0.00793381,0.1079,20.8439,127.468,-0.43355,0.0,0.0
302,75.25,55.7659,57.8631,151.745,99.6754,104.198,0.00788226,0.107714,20.8442,127.458,-0.408958,0.0,0.0
304,75.75,55.9928,57.7762,147.142,99.6726,103.96,0.00784051,0.107441,20.8444,127.488,-0.388189,0.0,0.0
306,76.25,56.0174,57.4725,150.963,99.6899,104.576,0.00779714,0.107221,20.8446,127.448,-0.441005,0.0,0.0
308,76.75,55.8505,57.5522,144.278,99.714,103.975,0.00775344,0.107011,20.8448,127.478,-0.385667,0.0,0.0
310,77.25,55.6254,57.0316,145.41,99.7281,104.125,0.00770768,0.106812,20.8449,127.428,-0.397642,0.0,0.0
312,77.75,55.7175,57.4387,149.136,99.7261,104.531,0.00767062,0.106634,20.845,127.458,-0.43374,0.0,0.0
314,78.25,55.9804,57.1309,149.26,99.7366,104.592,0.00763379,0.106477,20.8451,127.388,-0.438102,0.0,0.0
316,78.75,55.5152,56.8303,149.793,99.7684,103.756,0.00759783,0.106325,20.8452,127.468,-0.361213,0.0,0.0
318,79.25,55.124,56.9612,153.368,99.7555,104.28,0.00755645,0.106181,20.8452,127.378,-0.408862,0.0,0.0
320,79.75,55.1476,57.1728,151.602,99.7499,104.317,0.00751191,0.106064,20.8457,127.438,-0.412652,0.0,0.0
322,80.25,55.1759,57.3116,150.727,99.7825,103.455,0.00747583,0.105924,20.8461,127.378,-0.333132,0.0,0.0
324,80.75,55.0345,56.5475,149.992,99.8054,104.475,0.0074262,0.105811,20.8464,127.448,-0.421407,0.0,0.0
326,81.25,54.8988,56.8647,149.266,99.8078,103.848,0.00736764,0.105679,20.8467,127.348,-0.365729,0.0,0.0
328,81.75,55.4706,56.6127,151.489,99.8199,104.697,0.00730934,0.105537,20.8469,127.418,-0.439639,0.0,0.0
330,82.25,55.0007,56.3404,149.056,99.8368,103.846,0.00725232,0.10535,20.8471,127.328,-0.362889,0.0,0.0
332,82.75,55.0301,56.9853,150.055,99.8376,104.308,0.00719799,0.105134,20.8472,127.428,-0.403729,0.0,0.0
334,83.25,54.7413,56.706,149.305,99.8465,103.918,0.00714665,0.104944,20.8473,127.348,-0.368346,0.0,0.0
336,83.75,54.7599,56.1209,149.131,99.8755,103.332,0.00709284,0.104775,20.8474,127.408,-0.313604,0.0,0.0
338,84.25,54.3245,56.7128,146.869,99.8743,103.987,0.00703825,0.104639,20.8479,127.328,-0.371962,0.0,0.0
340,84.75,54.6323,56.6839,150.048,99.8892,104.61,0.00699404,0.104438,20.8483,127.408,-0.425641,0.0,0.0
342,85.25,54.986,56.3064,146.437,99.902,104.294,0.00693373,0.104275,20.8487,127.328,-0.396586,0.0,0.0
344,85.75,54.6409,56.4026,145.278,99.9073,103.94,0.00684914,0.103979,20.8491,127.388,-0.364705,0.0,0.0
346,86.25,54.5582,56.716,151.539,99.9117,103.87,0.00681697,0.103899,20.8492,127.328,-0.358113,0.0,0.0
348,86.75,54.5147,56.5859,145.739,99.9463,103.489,0.00676196,0.103644,20.8493,127.388,-0.321086,0.0,0.0
350,87.25,54.3341,56.7776,148.22,99.9391,104.357,0.00671741,0.103331,20.8495,127.318,-0.398673,0.0,0.0
352,87.75,54.4838,56.3997,149.785,99.9612,104.824,0.00660669,0.103077,20.8496,127.378,-0.437835,0.0,0.0
354,88.25,54.156,56.4909,152.771,99.9648,104.51,0.00651701,0.102871,20.8497,127.298,-0.409853,0.0,0.0
356,88.75,54.0945,55.8838,148.178,99.985,104.587,0.00644437,0.102433,20.8498,127.348,-0.414793,0.0,0.0
358,89.25,54.3068,56.5651,146.818,99.9681,104.555,0.00631618,0.102078,20.8503,127.308,-0.413472,0.0,0.0
360,89.75,54.2533,56.7479,149.776,100.015,104.606,0.00621234,0.101743,20.8511,127.348,-0.413678,0.0,0.0
362,90.25,54.9021,56.8845,148.212,100.013,104.9,0.00611744,0.101429,20.8518,127.268,-0.43966,0.0,0.0
364,90.75,54.0894,56.5306,152.561,100.024,104.695,0.00603084,0.101175,20.8524,127.358,-0.420665,0.0,0.0
366,91.25,54.6077,56.713,151.517,100.026,103.903,0.00596069,0.100863,20.8528,127.308,-0.350563,0.0,0.0
368,91.75,53.9527,56.5391,150.823,100.068,104.135,0.00590387,0.100611,20.8534,127.358,-0.367165,0.0,0.0
370,92.25,54.2111,56.528,145.297,100.053,104.462,0.00585785,0.100407,20.8541,127.298,-0.397519,0.0,0.0
372,92.75,54.1261,56.7984,151.131,100.067,103.861,0.00581929,0.100241,20.8547,127.358,-0.34293,0.0,0.0
374,93.25,54.4175,56.0555,148.167,100.067,104.262,0.00578806,0.100068,20.8551,127.278,-0.378517,0.0,0.0
376,93.75,54.1159,56.1849,146.725,100.089,104.5,0.00575635,0.0998912,20.8555,127.378,-0.397556,0.0,0.0
378,94.25,54.1311,56.2853,148.397,100.089,104.643,0.00573066,0.0997484,20.8558,127.268,-0.410077,0.0,0.0
380,94.75,54.2695,56.0842,149.207,100.13,104.977,0.00570985,0.0995575,20.856,127.348,-0.435733,0.0,0.0
382,95.25,54.0137,56.2967,146.291,100.109,104.822,0.00567762,0.0994028,20.8562,127.298,-0.424003,0.0,0.0
384,95.75,54.135,55.8333,148.228,100.131,105.228,0.00565151,0.0992324,20.8564,127.388,-0.457622,0.0,0.0
386,96.25,53.8979,56.4113,149.668,100.125,104.987,0.00561754,0.0990944,20.8565,127.318,-0.437082,0.0,0.0
388,96.75,54.14,55.6932,150.222,100.147,104.958,0.00559003,0.0989113,20.8566,127.368,-0.432498,0.0,0.0
390,97.25,53.7372,56.3914,147.603,100.169,104.429,0.00556437,0.0986989,20.8567,127.278,-0.383922,0.0,0.0
392,97.75,53.494,55.8435,151.926,100.171,104.721,0.00554056,0.0984239,20.8568,127.328,-0.409415,0.0,0.0
394,98.25,53.9453,56.0371,152.941,100.175,103.863,0.00551789,0.0981086,20.8568,127.228,-0.333253,0.0,0.0
396,98.75,53.8575,55.7386,152.066,100.21,104.787,0.0054965,0.0978532,20.8569,127.328,-0.41163,0.0,0.0
398,99.25,53.7384,55.6272,150.202,100.179,104.712,0.00547918,0.0974358,20.8569,127.218,-0.407896,0.0,0.0
400,99.75,53.6127,55.8801,150.085,100.218,104.695,0.00544466,0.0970978,20.8574,127.268,-0.402784,0.0,0.0
402,100.25,53.051,55.8384,148.614,100.21,105.025,0.00540477,0.0964287,20.8586,127.178,-0.432622,0.0,0.0
404,100.75,53.6316,55.4579,158.37,100.246,105.003,0.0053772,0.0962488,20.8589,127.258,-0.427342,0.0,0.0
406,101.25,53.4169,55.0278,149.646,100.229,105.05,0.00533006,0.095941,20.8594,127.208,-0.433047,0.0,0.0
408,101.75,53.0927,55.6032,149.26,100.243,104.956,0.0052756,0.0952213,20.86,127.278,-0.423393,0.0,0.0
410,102.25,53.1199,55.3103,149.44,100.262,104.392,0.00524883,0.0950277,20.8604,127.228,-0.37201,0.0,0.0
412,102.75,53.3156,55.09,149.905,100.289,104.745,0.00520306,0.0946414,20.8605,127.288,-0.400704,0.0,0.0
414,103.25,53.2012,55.3873,156.331,100.273,104.936,0.00516727,0.0942786,20.8607,127.228,-0.418958,0.0,0.0
416,103.75,53.5247,55.2479,149.536,100.304,105.054,0.00513827,0.093977,20.8609,127.298,-0.426505,0.0,0.0
418,104.25,52.9193,55.0101,150.662,100.317,105.675,0.00512758,0.0937255,20.8611,127.208,-0.47962,0.0,0.0
420,104.75,53.6349,54.8088,148.406,100.311,104.943,0.00511891,0.0935139,20.8612,127.258,-0.416093,0.0,0.0
422,105.25,53.033,55.1146,150.912,100.305,104.656,0.00511957,0.0933354,20.8613,127.178,-0.391331,0.0,0.0
424,105.75,52.7774,55.4579,153.514,100.334,104.629,0.0051201,0.0930557,20.8614,127.258,-0.386278,0.0,0.0
426,106.25,53.3701,55.3434,148.503,100.349,105.215,0.00511925,0.0928292,20.8614,127.178,-0.43644,0.0,0.0
428,106.75,53.2252,55.1192,149.535,100.35,105.39,0.00511856,0.092559,20.8615,127.238,-0.451682,0.0,0.0
430,107.25,53.218,55.2364,150.981,100.366,104.875,0.00511544,0.0922619,20.8615,127.157,-0.405103,0.0,0.0
432,107.75,53.4701,54.9704,150.299,100.377,104.856,0.00511292,0.0920212,20.862,127.248,-0.402424,0.0,0.0
434,108.25,53.3156,55.2127,151.7,100.385,105.325,0.00511088,0.0915415,20.8624,127.188,-0.442763,0.0,0.0
436,108.75,52.675,55.0641,147.16,100.413,104.802,0.00510411,0.0911529,20.8627,127.228,-0.394287,0.0,0.0
438,109.25,52.8826,55.2772,152.726,100.408,105.202,0.00509862,0.0906332,20.8634,127.157,-0.429854,0.0,0.0
440,109.75,53.1918,54.9246,145.413,100.436,104.73,0.00508543,0.0900277,20.8639,127.218,-0.385869,0.0,0.0
442,110.25,53.091,55.388,147.332,100.446,105.125,0.00506687,0.0894349,20.8648,127.147,-0.419623,0.0,0.0
444,110.75,53.0011,54.8569,150.22,100.434,104.945,0.00505184,0.0888625,20.8656,127.208,-0.404926,0.0,0.0
446,111.25,53.1114,55.1719,146.303,100.467,104.791,0.005009,0.0883989,20.8662,127.208,-0.388361,0.0,0.0
448,111.75,52.6166,55.2108,150.495,100.466,104.919,0.0049743,0.0880234,20.8669,127.218,-0.399732,0.0,0.0
450,112.25,53.2855,55.268,150.755,100.464,105.583,0.00494619,0.0876145,20.8676,127.228,-0.458056,0.0,0.0
452,112.75,52.4402,54.7682,147.128,100.468,104.666,0.00488767,0.0872832,20.8686,127.228,-0.377304,0.0,0.0
454,113.25,52.5256,54.988,147.528,100.514,105.135,0.00484027,0.087,20.8698,127.208,-0.414265,0.0,0.0
456,113.75,52.5,54.9059,149.964,100.501,105.421,0.00478657,0.0867705,20.8707,127.168,-0.440576,0.0,0.0
458,114.25,52.426,55.2691,154.509,100.51,104.941,0.00474307,0.0865768,20.8714,127.168,-0.397711,0.0,0.0
460,114.75,52.6042,55.4078,145.484,100.509,105.518,0.00470313,0.0864128,20.872,127.137,-0.448301,0.0,0.0
462,115.25,52.3546,55.2486,150.362,100.553,105.047,0.00466656,0.08628,20.8725,127.188,-0.403021,0.0,0.0
464,115.75,52.9696,54.9841,147.781,100.521,104.937,0.00463693,0.0861275,20.8729,127.147,-0.396298,0.0,0.0
466,116.25,52.6008,55.3701,152.894,100.52,105.191,0.00462186,0.086004,20.8732,127.157,-0.418613,0.0,0.0
468,116.75,52.058,55.0871,148.937,100.545,105.004,0.00460966,0.0858016,20.8735,127.127,-0.399933,0.0,0.0
470,117.25,52.6359,54.6058,153.711,100.569,104.947,0.00460783,0.0855456,20.8737,127.198,-0.392774,0.0,0.0
472,117.75,52.7336,54.7034,149.179,100.559,105.258,0.0046136,0.0852674,20.8739,127.067,-0.420975,0.0,0.0
474,118.25,52.4111,54.8127,149.756,100.579,105.106,0.00462096,0.0849783,20.874,127.137,-0.405726,0.0,0.0
476,118.75,52.8898,54.6994,151.352,100.58,105.31,0.00462934,0.084697,20.8746,127.087,-0.423576,0.0,0.0
478,119.25,53.101,54.7501,148.835,100.58,105.606,0.00463747,0.0844266,20.875,127.127,-0.449416,0.0,0.0
480,119.75,52.7088,55.1652,151.868,100.571,106.026,0.00464527,0.0842076,20.8754,127.067,-0.486907,0.0,0.0
482,120.25,52.3589,54.8266,150.185,100.606,105.247,0.00465024,0.0838808,20.8757,127.147,-0.415687,0.0,0.0
484,120.75,52.5538,54.8815,148.799,100.617,105.467,0.00465306,0.0836161,20.8764,127.087,-0.433902,0.0,0.0
486,121.25,52.8615,54.8462,148.116,100.621,105.37,0.00465534,0.0833569,20.8769,127.137,-0.424975,0.0,0.0
488,121.75,52.5431,54.5404,146.841,100.591,105.363,0.00465208,0.0831469,20.8774,127.087,-0.427239,0.0,0.0
490,122.25,52.6186,54.8493,146.4,100.628,105.222,0.00464945,0.0829611,20.8777,127.147,-0.41148,0.0,0.0
492,122.75,52.4445,54.5108,152.052,100.642,105.79,0.00464731,0.0827964,20.878,127.077,-0.459819,0.0,0.0
494,123.25,52.4766,54.2854,150.995,100.663,105.546,0.0046443,0.0826631,20.8782,127.168,-0.436559,0.0,0.0
496,123.75,52.2296,54.5434,149.806,100.627,105.571,0.00464187,0.0824057,20.8784,127.107,-0.442122,0.0,0.0
498,124.25,52.1443,54.3834,154.139,100.657,105.146,0.00463607,0.0821972,20.8786,127.178,-0.402123,0.0,0.0
500,124.75,52.572,54.2758,152.439,100.632,105.489,0.00463137,0.0818492,20.8787,127.087,-0.434387,0.0,0.0
502,125.25,52.2435,54.3743,150.869,100.677,105.453,0.00461991,0.0815673,20.8793,127.168,-0.42726,0.0,0.0
504,125.75,51.9028,54.2845,149.056,100.663,105.389,0.00461063,0.0812761,20.8802,127.067,-0.42285,0.0,0.0
506,126.25,52.2017,54.297,150.703,100.692,105.039,0.004598,0.0809838,20.8809,127.137,-0.389558,0.0,0.0
508,126.75,51.8071,54.6967,148.232,100.65,105.511,0.00458778,0.0807233,20.8814,127.067,-0.434668,0.0,0.0
510,127.25,51.9548,54.621,148.982,100.685,105.401,0.00458971,0.0804912,20.8819,127.137,-0.421864,0.0,0.0
512,127.75,52.3015,54.4924,148.906,100.697,104.911,0.00459126,0.0802953,20.8823,127.067,-0.377868,0.0,0.0
514,128.25,52.5808,54.3774,152.852,100.714,105.759,0.00461039,0.0801296,20.8826,127.127,-0.450481,0.0,0.0
516,128.75,52.2184,54.7579,149.751,100.687,104.758,0.00462589,0.0799954,20.8828,127.087,-0.365323,0.0,0.0
518,129.25,52.1514,54.3708,154.392,100.712,105.585,0.00463844,0.0798568,20.883,127.168,-0.435492,0.0,0.0
520,129.75,52.0735,54.1885,144.163,100.697,105.616,0.00466137,0.0797445,20.8832,127.077,-0.439549,0.0,0.0
522,130.25,52.0098,54.1609,154.351,100.745,105.525,0.00469144,0.0796536,20.8833,127.127,-0.427247,0.0,0.0
524,130.75,52.4706,54.3468,153.54,100.727,105.476,0.00471445,0.0795054,20.8834,127.067,-0.42463,0.0,0.0
526,131.25,52.4985,54.3252,150.62,100.725,104.883,0.00473188,0.0793853,20.8835,127.127,-0.372796,0.0,0.0
528,131.75,52.3448,54.6075,147.391,100.736,106.357,0.004746,0.0791688,20.8836,127.027,-0.500452,0.0,0.0
530,132.25,52.0058,54.4967,146.336,100.768,104.671,0.00473445,0.0789933,20.8839,127.117,-0.350263,0.0,0.0
532,132.75,52.4896,54.1846,147.292,100.758,105.545,0.0047251,0.0787767,20.8843,126.997,-0.427829,0.0,0.0
534,133.25,51.7597,54.0892,154.589,100.774,105.468,0.00469073,0.0786012,20.8847,127.077,-0.419547,0.0,0.0
536,133.75,51.4725,54.1067,153.925,100.756,105.622,0.00466289,0.0784292,20.885,126.987,-0.434798,0.0,0.0
538,134.25,51.9169,54.282,148.579,100.774,105.474,0.00461738,0.07829,20.8852,127.067,-0.420124,0.0,0.0
540,134.75,51.8558,53.9305,145.045,100.767,105.313,0.00458052,0.0781771,20.8854,126.997,-0.40667,0.0,0.0
542,135.25,51.7228,54.5169,149.559,100.809,105.447,0.00455067,0.0780112,20.8856,127.077,-0.414639,0.0,0.0
544,135.75,52.4756,54.5285,148.861,100.789,104.598,0.00450354,0.0778768,20.8859,126.997,-0.341862,0.0,0.0
546,136.25,51.8598,54.3915,153.074,100.79,105.044,0.00446537,0.0777444,20.8863,127.067,-0.381004,0.0,0.0
548,136.75,52.4524,54.4978,148.563,100.793,105.198,0.00443446,0.077616,20.8867,126.987,-0.394303,0.0,0.0
550,137.25,52.2135,54.713,144.101,100.806,105.853,0.00441578,0.0775119,20.887,127.067,-0.450251,0.0,0.0
552,137.75,52.0767,54.0087,148.647,100.789,105.783,0.00440066,0.0774198,20.8872,126.987,-0.44578,0.0,0.0
554,138.25,51.7708,54.1825,151.033,100.821,105.652,0.00441263,0.0773382,20.8874,127.067,-0.431381,0.0,0.0
556,138.75,52.0673,54.4036,153.585,100.814,105.332,0.00442232,0.0773113,20.8875,127.007,-0.404072,0.0,0.0
558,139.25,52.4146,54.4181,151.372,100.829,105.406,0.00443957,0.0773248,20.8877,127.077,-0.409148,0.0,0.0
560,139.75,52.2757,54.558,148.537,100.828,105.669,0.004462,0.0773357,20.8878,126.997,-0.432225,0.0,0.0
562,140.25,51.5651,55.117,152.736,100.832,105.848,0.00447211,0.0773594,20.8878,127.067,-0.447483,0.0,0.0
564,140.75,52.5269,54.4614,145.544,100.812,105.329,0.00447305,0.0773787,20.8879,126.987,-0.403986,0.0,0.0
566,141.25,51.9539,54.1171,146.652,100.833,105.822,0.00445436,0.0774092,20.888,127.047,-0.445063,0.0,0.0
568,141.75,51.695,54.4395,150.598,100.823,105.756,0.00442172,0.0774339,20.888,127.017,-0.440286,0.0,0.0
570,142.25,51.74,54.5561,149.484,100.836,105.297,0.00439527,0.0774688,20.888,127.027,-0.398971,0.0,0.0
572,142.75,51.7063,54.6318,149.828,100.849,105.808,0.00433438,0.0774971,20.8881,127.017,-0.442409,0.0,0.0
574,143.25,52.1773,54.8281,147.489,100.855,105.653,0.00428506,0.0774965,20.8881,127.017,-0.428343,0.0,0.0
576,143.75,51.8246,54.3187,148.944,100.869,105.782,0.00424511,0.0774748,20.8881,126.997,-0.438295,0.0,0.0
578,144.25,51.5048,54.6478,147.098,100.871,104.42,0.00420766,0.0774572,20.8881,126.997,-0.31867,0.0,0.0
580,144.75,51.8525,54.7376,149.424,100.847,105.11,0.00417732,0.0773983,20.8881,126.997,-0.381603,0.0,0.0
582,145.25,51.7487,54.7972,150.085,100.872,105.477,0.00416039,0.0773505,20.8881,126.987,-0.411449,0.0,0.0
584,145.75,52.239,54.4511,148.713,100.875,105.76,0.00414667,0.0772961,20.8881,126.987,-0.435862,0.0,0.0
586,146.25,51.9586,54.0768,153.725,100.856,105.903,0.00413556,0.077238,20.8882,126.947,-0.450091,0.0,0.0
588,146.75,51.0868,54.5109,149.946,100.903,105.542,0.00412656,0.0771673,20.8882,126.927,-0.414329,0.0,0.0
590,147.25,52.0193,54.4518,147.77,100.866,104.851,0.00411036,0.0770889,20.8882,126.987,-0.357092,0.0,0.0
592,147.75,51.6869,54.707,153.909,100.892,105.998,0.00409724,0.0769941,20.8882,126.927,-0.455081,0.0,0.0
594,148.25,52.0405,54.564,150.109,100.889,105.348,0.00408126,0.076889,20.8882,126.937,-0.398595,0.0,0.0
596,148.75,51.6858,54.9995,146.697,100.886,104.407,0.00406349,0.0767882,20.8882,126.937,-0.31622,0.0,0.0
598,149.25,52.0818,54.5412,152.762,100.913,105.671,0.00404976,0.0766924,20.8882,126.907,-0.42457,0.0,0.0
600,149.75,51.6662,54.923,149.813,100.928,104.933,0.00403925,0.0766148,20.8882,126.967,-0.358728,0.0,0.0
602,150.25,51.8582,54.3132,152.244,100.886,103.48,0.00403074,0.0765677,20.8882,126.887,-0.23392,0.0,0.0
604,150.75,52.1107,54.5908,144.12,100.893,105.147,0.00402384,0.0765436,20.8882,126.957,-0.380618,0.0,0.0
606,151.25,51.8629,54.5743,151.252,100.896,105.245,0.00404243,0.0765241,20.8886,126.857,-0.388916,0.0,0.0
608,151.75,51.8809,54.6726,149.485,100.91,105.167,0.00405749,0.0765232,20.889,126.927,-0.380894,0.0,0.0
610,152.25,51.2269,54.8442,147.115,100.905,105.595,0.00407478,0.0765225,20.889,126.877,-0.418813,0.0,0.0
612,152.75,51.638,54.9532,148.471,100.933,105.508,0.00408878,0.0764325,20.8889,126.987,-0.408571,0.0,0.0
614,153.25,51.5881,54.5951,149.202,100.929,105.563,0.0040874,0.0763596,20.8887,126.927,-0.413716,0.0,0.0
616,153.75,51.7949,54.7858,150.016,100.926,105.501,0.00407482,0.0762457,20.8891,127.037,-0.408586,0.0,0.0
618,154.25,51.7304,54.4432,149.553,100.928,105.439,0.0040372,0.076104,20.8893,126.907,-0.402958,0.0,0.0
620,154.75,51.8407,54.3556,152.704,100.948,105.645,0.00398203,0.0759657,20.8896,126.947,-0.419165,0.0,0.0
622,155.25,51.7778,54.7394,151.502,100.903,105.551,0.00390528,0.0758325,20.8897,126.887,-0.415046,0.0,0.0
624,155.75,51.6912,54.5453,149.46,100.947,105.278,0.00381424,0.0756933,20.8899,126.957,-0.3872,0.0,0.0
626,156.25,51.6003,53.9585,151.674,100.915,105.601,0.00371714,0.0755523,20.89,126.847,-0.418432,0.0,0.0
628,156.75,51.9981,54.0185,151.658,100.943,105.743,0.00361747,0.0754381,20.8905,126.927,-0.428143,0.0,0.0
630,157.25,51.5229,54.3384,152.057,100.933,105.127,0.00353674,0.0753009,20.891,126.877,-0.375247,0.0,0.0
632,157.75,51.3088,54.0261,148.904,100.951,105.709,0.00346735,0.0751898,20.8913,126.947,-0.424449,0.0,0.0
634,158.25,51.9185,54.0862,148.779,100.931,105.37,0.00340754,0.0750998,20.8916,126.877,-0.396696,0.0,0.0
636,158.75,51.9987,54.2815,153.258,100.947,105.907,0.00335909,0.0750269,20.8918,126.937,-0.442119,0.0,0.0
638,159.25,51.9465,54.2504,146.782,100.938,105.625,0.00333253,0.074953,20.892,126.867,-0.418345,0.0,0.0
640,159.75,52.0769,54.4809,148.946,100.975,105.654,0.00332241,0.0748931,20.8923,126.937,-0.41753,0.0,0.0
642,160.25,51.9835,54.1451,144.226,100.957,105.502,0.00331422,0.0748297,20.8925,126.847,-0.4059,0.0,0.0
644,160.75,52.003,54.4086,149.866,100.948,105.075,0.00331392,0.0747784,20.8927,126.917,-0.369342,0.0,0.0
646,161.25,51.8983,54.5567,148.516,100.94,106.084,0.00331368,0.0746177,20.8928,126.817,-0.458121,0.0,0.0
648,161.75,51.8785,54.4025,151.476,100.963,105.824,0.00331348,0.0744875,20.893,126.897,-0.433398,0.0,0.0
650,162.25,51.5499,54.407,151.416,100.954,105.723,0.00331333,0.0742779,20.8931,126.837,-0.425429,0.0,0.0
652,162.75,51.8201,54.3486,151.582,100.972,105.63,0.003317,0.0741081,20.8931,126.927,-0.415705,0.0,0.0
654,163.25,51.6955,54.4655,154.22,100.951,105.499,0.00331998,0.0738961,20.8932,126.857,-0.406145,0.0,0.0
656,163.75,51.2278,55.2146,149.573,100.971,105.849,0.00332773,0.0737245,20.8933,126.917,-0.434866,0.0,0.0
658,164.25,51.7617,54.5721,150.669,100.934,105.738,0.00333881,0.0735854,20.8933,126.867,-0.428521,0.0,0.0
660,164.75,51.7454,54.6022,151.365,100.964,105.657,0.00334779,0.073443,20.8933,126.927,-0.418755,0.0,0.0
662,165.25,51.7148,54.3875,151.634,100.952,105.973,0.00334906,0.0733277,20.8934,126.827,-0.447366,0.0,0.0
664,165.75,52.0027,54.6401,152.64,100.966,105.89,0.00334468,0.0732578,20.8934,126.907,-0.438888,0.0,0.0
666,166.25,51.2669,54.3327,149.171,100.95,105.419,0.00332512,0.0732223,20.8934,126.817,-0.399247,0.0,0.0
668,166.75,51.4196,54.4941,150.258,100.977,106.058,0.00329487,0.0731779,20.8934,126.907,-0.452451,0.0,0.0
670,167.25,51.8934,54.2649,153.431,100.966,106.128,0.0032517,0.0731278,20.8934,126.817,-0.459573,0.0,0.0
672,167.75,51.853,54.0853,150.105,100.964,105.91,0.00319994,0.0730872,20.8934,126.897,-0.440807,0.0,0.0
674,168.25,52.0242,54.0449,152.474,100.955,105.935,0.00314603,0.0730692,20.8934,126.807,-0.443746,0.0,0.0
676,168.75,51.5518,53.9135,150.603,100.949,105.006,0.00309157,0.0730547,20.8934,126.867,-0.36317,0.0,0.0
678,169.25,51.3448,53.5629,146.387,100.954,105.658,0.00304745,0.0730727,20.8934,126.797,-0.41978,0.0,0.0
680,169.75,51.4376,54.1377,151.447,100.964,105.775,0.00301046,0.0730872,20.8935,126.847,-0.42908,0.0,0.0
682,170.25,51.512,54.079,149.192,100.936,105.203,0.00298049,0.0730544,20.8935,126.787,-0.381639,0.0,0.0
684,170.75,51.4604,54.5318,149.626,100.965,105.859,0.00294357,0.0730277,20.8935,126.847,-0.43626,0.0,0.0
686,171.25,51.4582,54.1092,147.767,100.935,105.648,0.00291367,0.0730062,20.8935,126.767,-0.420631,0.0,0.0
688,171.75,51.5697,54.201,149.165,100.95,105.34,0.00288944,0.0728677,20.8935,126.857,-0.392342,0.0,0.0
690,172.25,51.7024,53.8017,152.884,100.935,105.634,0.0028194,0.0727555,20.8935,126.797,-0.41941,0.0,0.0
692,172.75,52.2621,53.8524,148.763,100.971,105.329,0.00276266,0.0726052,20.8935,126.887,-0.389422,0.0,0.0
694,173.25,51.4616,53.9463,146.954,100.932,104.978,0.00269398,0.0724834,20.8934,126.807,-0.362278,0.0,0.0
696,173.75,51.3997,53.9876,151.871,100.95,105.623,0.00263835,0.0723847,20.8932,126.877,-0.417118,0.0,0.0
698,174.25,51.2221,53.8059,149.23,100.948,105.344,0.00258931,0.0723048,20.8931,126.767,-0.392848,0.0,0.0
700,174.75,51.706,54.4702,148.438,100.957,105.643,0.00254599,0.0722088,20.893,126.837,-0.418232,0.0,0.0
702,175.25,51.507,54.092,147.19,100.951,105.447,0.00251356,0.0721028,20.8929,126.757,-0.401563,0.0,0.0
704,175.75,51.5215,54.421,149.882,100.935,105.341,0.00248969,0.0719779,20.8933,126.757,-0.393755,0.0,0.0
706,176.25,51.4085,54.1822,147.082,100.947,105.666,0.00247951,0.0719061,20.8935,126.797,-0.421088,0.0,0.0
708,176.75,51.3134,54.0602,149.788,100.952,105.133,0.00247346,0.0717833,20.8938,126.817,-0.374042,0.0,0.0
710,177.25,51.4279,54.164,147.29,100.937,105.484,0.00247521,0.071669,20.894,126.847,-0.406175,0.0,0.0