File: 01_Data/Nylon_Bourke/STA/N2/10K_min/Nylon_Bourke_STA_N2_10KData_250505_R1.csv
Temp./C,Time/min,DSC/(mW/mg),Mass loss/mg
50.0,0.0,0.915112,-0.0338009
50.5,0.0660048,0.927837,-0.033351
51,0.130321,0.946557,-0.0325661
51.5,0.195226,0.96041,-0.0340578
52,0.259484,0.975423,-0.0339208
52.5,0.323433,0.98298,-0.0351927
53,0.386824,1.00515,-0.034199
53.5,0.448059,1.01419,-0.0341126
54,0.511088,1.03081,-0.0341448
54.5,0.574414,1.04553,-0.0349033
55,0.635527,1.06425,-0.0366585
55.5,0.697623,1.07243,-0.0372174
56,0.756222,1.08914,-0.0385529
56.5,0.817506,1.10118,-0.038246
57,0.87418,1.11387,-0.0372048
57.5,0.936978,1.11826,-0.0400875
58,0.996054,1.13352,-0.038991
58.5,1.05501,1.14619,-0.0400746
59,1.11226,1.16,-0.0398427
59.5,1.1672,1.16782,-0.0388806
60,1.22937,1.17393,-0.0389724
60.5,1.28655,1.18838,-0.0389909
61,1.34388,1.20036,-0.0388452
61.5,1.40047,1.21019,-0.038297
62,1.4563,1.2193,-0.0405398
62.5,1.51447,1.22666,-0.0405095
63,1.56989,1.23679,-0.041826
63.5,1.62559,1.2467,-0.0418377
64,1.68184,1.25599,-0.0433285
64.5,1.73628,1.26666,-0.0413396
65,1.79203,1.27509,-0.0431487
65.5,1.847,1.28702,-0.0431503
66,1.90227,1.29485,-0.0436625
66.5,1.95716,1.30235,-0.0444548
67,2.01071,1.30935,-0.0432479
67.5,2.06447,1.31724,-0.04446
68,2.11967,1.32578,-0.0444444
68.5,2.17376,1.32852,-0.0458724
69,2.22729,1.33606,-0.0465707
69.5,2.28152,1.34406,-0.0457022
70,2.33397,1.3479,-0.0455406
70.5,2.38473,1.35118,-0.047018
71,2.44083,1.35505,-0.0470319
71.5,2.49401,1.35916,-0.0458374
72,2.54744,1.3604,-0.045671
72.5,2.59927,1.36779,-0.04587
73,2.65208,1.37514,-0.0469902
73.5,2.70452,1.3661,-0.0469917
74,2.75636,1.37629,-0.04831
74.5,2.80572,1.36702,-0.0482487
75,2.86224,1.37859,-0.048307
75.5,2.91228,1.3783,-0.0496201
76,2.9647,1.38093,-0.0502396
76.5,3.01791,1.37765,-0.0496128
77,3.07016,1.37742,-0.0500386
77.5,3.12023,1.3785,-0.0496304
78,3.17205,1.37388,-0.0495958
78.5,3.22289,1.38274,-0.0496194
79,3.27487,1.38012,-0.0509408
79.5,3.32505,1.3788,-0.0511293
80,3.37787,1.3772,-0.0515708
80.5,3.42774,1.36906,-0.0520915
81,3.47896,1.37228,-0.0509427
81.5,3.53023,1.37732,-0.0522598
82,3.58071,1.36892,-0.0521874
82.5,3.63162,1.36406,-0.05226
83,3.68281,1.37115,-0.0535019
83.5,3.73241,1.36155,-0.0535804
84,3.78466,1.37305,-0.0525897
84.5,3.83524,1.37269,-0.05242
85,3.88497,1.36709,-0.0538878
85.5,3.93519,1.36852,-0.0561728
86,3.98578,1.36826,-0.05632
86.5,4.03585,1.36075,-0.056051
87,4.08644,1.36863,-0.0555106
87.5,4.13578,1.36327,-0.0551355
88,4.18671,1.3616,-0.0552264
88.5,4.23569,1.35571,-0.0539072
89,4.28562,1.35676,-0.055196
89.5,4.33388,1.36013,-0.0538984
90,4.38495,1.36324,-0.0552199
90.5,4.43426,1.35722,-0.05522
91,4.48418,1.36269,-0.0562193
91.5,4.5325,1.36071,-0.0552328
92,4.58262,1.36784,-0.05522
92.5,4.63054,1.36418,-0.0552191
93,4.6802,1.3584,-0.0552406
93.5,4.72943,1.35664,-0.0552286
94,4.77915,1.36276,-0.0552321
94.5,4.82807,1.35667,-0.05522
95,4.87693,1.35652,-0.05617
95.5,4.92615,1.35525,-0.0575202
96,4.97502,1.35724,-0.05753
96.5,5.02466,1.36177,-0.0575138
97,5.0725,1.36163,-0.057518
97.5,5.12186,1.36661,-0.0564158
98,5.17027,1.36931,-0.05753
98.5,5.2187,1.36227,-0.05753
99,5.26722,1.37361,-0.0575297
99.5,5.31545,1.36861,-0.0588404
100,5.36438,1.37858,-0.058695
100.5,5.41405,1.36772,-0.0575659
101,5.46193,1.36975,-0.0575189
101.5,5.51123,1.37711,-0.0562143
102,5.55946,1.37352,-0.0575294
102.5,5.60758,1.37551,-0.057536
103,5.65403,1.38527,-0.0576296
103.5,5.70237,1.39317,-0.05752
104,5.75261,1.38042,-0.05752
104.5,5.80052,1.38288,-0.0577419
105,5.84828,1.39255,-0.0601652
105.5,5.89842,1.38215,-0.0588063
106,5.94566,1.38903,-0.058417
106.5,5.99516,1.39585,-0.0577196
107,6.04327,1.39621,-0.05753
107.5,6.09135,1.3983,-0.058337
108,6.1402,1.40056,-0.0611517
108.5,6.18716,1.40504,-0.0599576
109,6.23644,1.40797,-0.0569108
109.5,6.28529,1.41388,-0.05698
110,6.33071,1.42251,-0.0569792
110.5,6.38087,1.42006,-0.057222
111,6.42845,1.42228,-0.05698
111.5,6.47853,1.42678,-0.0571036
112,6.52632,1.42605,-0.05829
112.5,6.57311,1.43477,-0.0596409
113,6.61917,1.43138,-0.0589498
113.5,6.67061,1.43938,-0.0589446
114,6.71956,1.44111,-0.0596227
114.5,6.7668,1.44929,-0.0596197
115,6.81427,1.45406,-0.0609314
115.5,6.86252,1.45421,-0.0609298
116,6.90964,1.45608,-0.0595935
116.5,6.9582,1.45944,-0.0595884
117,7.00659,1.47101,-0.060933
117.5,7.05489,1.46966,-0.0596055
118,7.10259,1.47253,-0.0596099
118.5,7.15141,1.48616,-0.0599098
119,7.19826,1.48463,-0.0606002
119.5,7.24702,1.489,-0.06093
120,7.29435,1.49418,-0.0618366
120.5,7.34308,1.49669,-0.06225
121,7.39063,1.50021,-0.06225
121.5,7.43862,1.5115,-0.0609088
122,7.48399,1.5173,-0.0622401
122.5,7.5338,1.52265,-0.0622392
123,7.58363,1.53064,-0.0611338
123.5,7.6317,1.53334,-0.0612806
124,7.67969,1.54431,-0.062247
124.5,7.72702,1.54197,-0.0609278
125,7.774,1.54682,-0.0609299
125.5,7.82233,1.55884,-0.062239
126,7.87106,1.56221,-0.06225
126.5,7.9179,1.57751,-0.06225
127,7.96644,1.58343,-0.0621861
127.5,8.01498,1.59131,-0.0612594
128,8.06257,1.6053,-0.06086
128.5,8.10793,1.62201,-0.0601069
129,8.15879,1.6435,-0.0609206
129.5,8.20621,1.65545,-0.0622506
130,8.25395,1.66693,-0.0635848
130.5,8.30138,1.68947,-0.0622402
131,8.34971,1.70928,-0.06224
131.5,8.39635,1.72822,-0.0617295
132,8.44595,1.74849,-0.0622524
132.5,8.49376,1.75875,-0.06225
133,8.54055,1.77429,-0.06225
133.5,8.58852,1.79987,-0.0622265
134,8.63693,1.8188,-0.063559
134.5,8.68439,1.83018,-0.0625805
135,8.73237,1.85565,-0.0622492
135.5,8.78021,1.86216,-0.0632437
136,8.82778,1.86819,-0.0632377
136.5,8.87451,1.87746,-0.0622203
137,8.92147,1.87633,-0.06225
137.5,8.96981,1.87788,-0.06225
138,9.01811,1.87886,-0.0622504
138.5,9.06564,1.88022,-0.0635459
139,9.11282,1.87722,-0.06356
139.5,9.1595,1.86718,-0.06356
140,9.20712,1.86409,-0.0635472
140.5,9.25329,1.86558,-0.0622406
141,9.29923,1.85388,-0.0622044
141.5,9.3487,1.85321,-0.0609299
142,9.39622,1.852,-0.06093
142.5,9.44268,1.84241,-0.0622314
143,9.49013,1.83926,-0.0622507
143.5,9.53781,1.84038,-0.0635684
144,9.58202,1.82994,-0.06357
144.5,9.63113,1.82502,-0.0639546
145,9.67728,1.82839,-0.06291
145.5,9.72645,1.83244,-0.0629099
146,9.77319,1.82325,-0.0635914
146.5,9.81996,1.82445,-0.0635699
147,9.86725,1.81889,-0.0646462
147.5,9.91372,1.81883,-0.0648781
148,9.96107,1.81659,-0.063559
148.5,10.009,1.82179,-0.06356
149,10.0553,1.82605,-0.06356
149.5,10.1027,1.81377,-0.06356
150,10.1488,1.81359,-0.06356
150.5,10.1962,1.8156,-0.0635507
151,10.2439,1.81439,-0.0622653
151.5,10.291,1.81237,-0.0632401
152,10.3381,1.8153,-0.06258
152.5,10.3851,1.8077,-0.06258
153,10.4313,1.80432,-0.0629551
153.5,10.4775,1.79929,-0.0639
154,10.5267,1.798,-0.0639
154.5,10.5733,1.79813,-0.0638847
155,10.6212,1.79241,-0.06423
155.5,10.6679,1.78481,-0.0652098
156,10.7143,1.78242,-0.0648898
156.5,10.7605,1.78511,-0.0636743
157,10.8078,1.76961,-0.0635702
157.5,10.8557,1.76145,-0.0649056
158,10.903,1.75524,-0.0643807
158.5,10.9486,1.73907,-0.06356
159,10.9965,1.72698,-0.06356
159.5,11.0435,1.71936,-0.06356
160,11.0892,1.69745,-0.0636536
160.5,11.1364,1.68977,-0.0635596
161,11.1844,1.65955,-0.0635599
161.5,11.231,1.64331,-0.0638868
162,11.2749,1.62439,-0.06389
162.5,11.3246,1.59228,-0.0638891
163,11.3704,1.55801,-0.0635904
163.5,11.4173,1.53011,-0.063571
164,11.4647,1.48955,-0.06357
164.5,11.5105,1.45558,-0.06357
165,11.5559,1.40403,-0.06357
165.5,11.6047,1.36995,-0.0635685
166,11.6502,1.33124,-0.0648942
166.5,11.6971,1.29056,-0.06489
167,11.7437,1.2551,-0.06489
167.5,11.7912,1.2445,-0.06489
168,11.8374,1.23151,-0.0648874
168.5,11.8841,1.23032,-0.0648553
169,11.9311,1.24283,-0.06488
169.5,11.9796,1.26724,-0.06488
170,12.0268,1.3004,-0.0648733
170.5,12.0731,1.34355,-0.0627542
171,12.1206,1.38694,-0.0637573
171.5,12.1681,1.42499,-0.0664077
172,12.2162,1.46747,-0.06642
172.5,12.2644,1.51382,-0.06642
173,12.3117,1.55291,-0.0664212
173.5,12.3595,1.59369,-0.0654106
174,12.4072,1.61906,-0.0664203
174.5,12.4547,1.6602,-0.0670751
175,12.5017,1.68491,-0.0670799
175.5,12.5501,1.69701,-0.0658089
176,12.5968,1.72563,-0.06576
176.5,12.644,1.75561,-0.0657606
177,12.6919,1.76556,-0.0644508
177.5,12.7393,1.78357,-0.0644503
178,12.7856,1.8018,-0.0657438
178.5,12.8327,1.81048,-0.06576
179,12.8802,1.82432,-0.06576
179.5,12.9249,1.82747,-0.06576
180,12.9745,1.84088,-0.06576
180.5,13.0218,1.85072,-0.06576
181,13.0697,1.85109,-0.0657155
181.5,13.1159,1.86978,-0.0652404
182,13.1628,1.87061,-0.0640105
182.5,13.2101,1.8778,-0.0653198
183,13.2567,1.88452,-0.0653192
183.5,13.3032,1.88918,-0.0666389
184,13.3518,1.90498,-0.06664
184.5,13.3981,1.91373,-0.06664
185,13.4451,1.9251,-0.06664
185.5,13.4928,1.91507,-0.0667316
186,13.539,1.92473,-0.06796
186.5,13.5865,1.93037,-0.0679628
187,13.6341,1.93384,-0.0658485
187.5,13.6805,1.94264,-0.06532
188,13.7281,1.94821,-0.06532
188.5,13.7745,1.9478,-0.0651999
189,13.8201,1.95369,-0.0653235
189.5,13.868,1.95417,-0.0660365
190,13.9154,1.96226,-0.06598
190.5,13.9637,1.95877,-0.0659972
191,14.0091,1.97096,-0.0651179
191.5,14.0563,1.97572,-0.06598
192,14.104,1.97541,-0.06598
192.5,14.151,1.98139,-0.06598
193,14.1985,1.98583,-0.0659794
193.5,14.2427,1.98447,-0.0642766
194,14.2904,1.98612,-0.0639998
194.5,14.3399,1.99107,-0.0655272
195,14.3863,1.99815,-0.0669729
195.5,14.4334,2.00822,-0.0638408
196,14.4799,2.00668,-0.0665309
196.5,14.5271,2.01089,-0.0677399
197,14.574,2.0092,-0.0677494
197.5,14.622,2.01915,-0.0682823
198,14.6692,2.02196,-0.06774
198.5,14.7161,2.02846,-0.0677389
199,14.7628,2.03273,-0.0687313
199.5,14.8098,2.03649,-0.06873
200,14.8576,2.03837,-0.06873
200.5,14.9046,2.03708,-0.0687013
201,14.9513,2.04221,-0.06873
201.5,14.9989,2.05546,-0.06873
202,15.0456,2.04931,-0.0687239
202.5,15.0933,2.06298,-0.0674111
203,15.1405,2.06315,-0.06741
203.5,15.1872,2.06039,-0.0674115
204,15.2335,2.07693,-0.0660878
204.5,15.2813,2.0805,-0.0673996
205,15.3284,2.08187,-0.0674
205.5,15.3728,2.0877,-0.0673913
206,15.4231,2.08739,-0.0674101
206.5,15.4698,2.09819,-0.0673946
207,15.5166,2.10504,-0.0674001
207.5,15.5638,2.10626,-0.0673997
208,15.6109,2.10675,-0.0684023
208.5,15.6578,2.11494,-0.06839
209,15.7057,2.11792,-0.06839
209.5,15.7518,2.12193,-0.06839
210,15.7996,2.1346,-0.06839
210.5,15.8462,2.13835,-0.06839
211,15.8935,2.14144,-0.06839
211.5,15.9406,2.15097,-0.06839
212,15.988,2.16015,-0.0687211
212.5,16.0353,2.16541,-0.0704103
213,16.0827,2.16656,-0.0693589
213.5,16.1293,2.17228,-0.0697046
214,16.1766,2.17529,-0.0690617
214.5,16.2234,2.18706,-0.06906
215,16.2688,2.19534,-0.06906
215.5,16.3151,2.19402,-0.0690606
216,16.3648,2.20347,-0.0693919
216.5,16.4122,2.21306,-0.0687291
217,16.4589,2.22027,-0.0687298
217.5,16.5073,2.22642,-0.067634
218,16.5538,2.23033,-0.06873
218.5,16.6007,2.24666,-0.06873
219,16.6478,2.25936,-0.06873
219.5,16.6957,2.26497,-0.06873
220,16.7408,2.27567,-0.0687294
220.5,16.7901,2.29121,-0.067432
221,16.8374,2.29915,-0.0674107
221.5,16.8846,2.31399,-0.068711
222,16.9307,2.32119,-0.06873
222.5,16.9786,2.3311,-0.06873
223,17.0255,2.35099,-0.0680132
223.5,17.072,2.35963,-0.0680704
224,17.1192,2.38412,-0.0683948
224.5,17.1665,2.38913,-0.06839
225,17.2132,2.40807,-0.06839
225.5,17.2617,2.42165,-0.0683899
226,17.3084,2.43092,-0.0703734
226.5,17.356,2.4468,-0.0728033
227,17.4039,2.46256,-0.0695829
227.5,17.4481,2.47412,-0.0696
228,17.4982,2.49084,-0.0696
228.5,17.5443,2.50179,-0.0696
229,17.5926,2.52256,-0.0696
229.5,17.6387,2.53673,-0.0696
230,17.6874,2.55188,-0.0696
230.5,17.7328,2.57092,-0.069599
231,17.7798,2.58609,-0.0709181
231.5,17.8281,2.60324,-0.0714908
232,17.8754,2.6273,-0.0760601
232.5,17.9235,2.64189,-0.0729575
233,17.9712,2.6596,-0.0710307
233.5,18.0191,2.68066,-0.07103
234,18.0659,2.70189,-0.07103
234.5,18.1132,2.72484,-0.07103
235,18.1607,2.74202,-0.0710355
235.5,18.2082,2.7573,-0.0697081
236,18.2553,2.78597,-0.0696798
236.5,18.3042,2.80906,-0.0723497
237,18.3504,2.82477,-0.0723501
237.5,18.398,2.84345,-0.0710332
238,18.4453,2.875,-0.07103
238.5,18.4933,2.88773,-0.07103
239,18.5414,2.92297,-0.0714357
239.5,18.5872,2.9434,-0.0721539
240,18.6362,2.97167,-0.07234
240.5,18.684,2.99442,-0.07234
241,18.731,3.01668,-0.0736006
241.5,18.7786,3.03896,-0.0749803
242,18.826,3.057,-0.0736151
242.5,18.8732,3.0676,-0.0723617
243,18.921,3.0833,-0.07234
243.5,18.9685,3.07615,-0.07234
244,19.0159,3.06723,-0.07234
244.5,19.0627,3.0539,-0.0723272
245,19.1093,3.03289,-0.0736596
245.5,19.1562,3.00583,-0.07365
246,19.2038,2.98484,-0.0723502
246.5,19.2504,2.95796,-0.07235
247,19.2967,2.91012,-0.07235
247.5,19.3441,2.87267,-0.0723472
248,19.3911,2.82975,-0.0736998
248.5,19.4378,2.78005,-0.0749797
249,19.4853,2.73868,-0.07498
249.5,19.5298,2.69353,-0.07498
250,19.577,2.64359,-0.0749806
250.5,19.6245,2.60811,-0.0736698
251,19.6717,2.58722,-0.07367
251.5,19.7188,2.56439,-0.07367
252,19.7662,2.54145,-0.0737215
252.5,19.8133,2.53498,-0.0749801
253,19.8602,2.53812,-0.07498
253.5,19.9085,2.5276,-0.07498
254,19.9545,2.52664,-0.07498
254.5,20.0014,2.51743,-0.0749802
255,20.0484,2.49942,-0.0746583
255.5,20.0963,2.47749,-0.0739562
256,20.1426,2.44919,-0.0723499
256.5,20.1892,2.42284,-0.072358
257,20.2374,2.39104,-0.0736695
257.5,20.283,2.35512,-0.07367
258,20.33,2.33994,-0.0736768
258.5,20.3771,2.31989,-0.0749798
259,20.4227,2.30352,-0.07498
259.5,20.4711,2.29446,-0.0749799
260,20.5186,2.29511,-0.076119
260.5,20.5665,2.29172,-0.0756461
261,20.6139,2.29395,-0.0769503
261.5,20.6595,2.27978,-0.07695
262,20.7083,2.27568,-0.07695
262.5,20.7557,2.27684,-0.07695
263,20.8036,2.26992,-0.07695
263.5,20.8502,2.2698,-0.07695
264,20.8976,2.27407,-0.07695
264.5,20.9444,2.27629,-0.07695
265,20.9921,2.28173,-0.07695
265.5,21.0396,2.27456,-0.07695
266,21.0869,2.27508,-0.07695
266.5,21.1357,2.27157,-0.07695
267,21.1816,2.26971,-0.07695
267.5,21.2289,2.27089,-0.07695
268,21.2766,2.28083,-0.07695
268.5,21.324,2.27327,-0.07695
269,21.3705,2.27136,-0.07695
269.5,21.4189,2.27549,-0.07695
270,21.4674,2.27585,-0.07695
270.5,21.5144,2.27875,-0.07695
271,21.5616,2.28365,-0.0773501
271.5,21.609,2.28051,-0.07827
272,21.6563,2.28533,-0.0782701
272.5,21.704,2.28695,-0.0776195
273,21.751,2.28493,-0.0773249
273.5,21.7989,2.28822,-0.0769499
274,21.8471,2.29308,-0.0783249
274.5,21.895,2.29171,-0.0782814
275,21.9419,2.29093,-0.0811903
275.5,21.9874,2.28956,-0.0834248
276,22.0367,2.28813,-0.0779272
276.5,22.0851,2.29375,-0.0756392
277,22.1325,2.29748,-0.0770589
277.5,22.1772,2.29517,-0.07706
278,22.2262,2.28684,-0.0770568
278.5,22.2753,2.2989,-0.0806704
279,22.3225,2.30764,-0.0799512
279.5,22.3701,2.31062,-0.0774991
280,22.4167,2.30624,-0.0775011
280.5,22.4637,2.30077,-0.0765197
281,22.5116,2.30891,-0.07652
281.5,22.5597,2.29461,-0.07652
282,22.6075,2.30286,-0.07652
282.5,22.6548,2.30345,-0.076519
283,22.7023,2.3097,-0.0778272
283.5,22.7499,2.314,-0.0777913
284,22.798,2.31032,-0.07915
284.5,22.8456,2.31029,-0.07915
285,22.8906,2.30661,-0.07915
285.5,22.9407,2.30946,-0.0797805
286,22.9878,2.29891,-0.08047
286.5,23.0356,2.30869,-0.080487
287,23.0835,2.3098,-0.077048
287.5,23.1303,2.30147,-0.0770114
288,23.1789,2.30763,-0.0805337
288.5,23.2256,2.30389,-0.08113
289,23.2727,2.31931,-0.08113
289.5,23.3201,2.30299,-0.08113
290,23.3682,2.3087,-0.08113
290.5,23.415,2.30714,-0.0811326
291,23.4637,2.31232,-0.0798111
291.5,23.51,2.31632,-0.07981
292,23.5589,2.32131,-0.0798036
292.5,23.6054,2.31357,-0.0811263
293,23.6543,2.32273,-0.0817884
293.5,23.7013,2.31924,-0.08179
294,23.7484,2.32122,-0.0814056
294.5,23.7966,2.32342,-0.080473
295,23.8422,2.33127,-0.08047
295.5,23.8894,2.3245,-0.08409
296,23.9385,2.31821,-0.082448
296.5,23.9869,2.32218,-0.0791074
297,24.034,2.31615,-0.0804702
297.5,24.082,2.31298,-0.0804707
298,24.1293,2.32029,-0.0818034
298.5,24.1769,2.3268,-0.0817917
299,24.2244,2.32075,-0.0831103
299.5,24.2725,2.31621,-0.0831116
300,24.3202,2.31135,-0.0818046
300.5,24.3675,2.3226,-0.0827798
301,24.4155,2.31361,-0.08278
301.5,24.463,2.31437,-0.08278
302,24.5102,2.30693,-0.0827905
302.5,24.5561,2.31459,-0.0841095
303,24.6048,2.32073,-0.0824243
303.5,24.6524,2.32349,-0.0808052
304,24.7012,2.32431,-0.082447
304.5,24.7482,2.3181,-0.08366
305,24.795,2.31209,-0.0849193
305.5,24.8426,2.30846,-0.08498
306,24.8909,2.31117,-0.084982
306.5,24.9377,2.31563,-0.08366
307,24.9853,2.31535,-0.08366
307.5,25.0338,2.31716,-0.08366
308,25.0814,2.31974,-0.08366
308.5,25.1287,2.32023,-0.08366
309,25.1771,2.3193,-0.08366
309.5,25.2243,2.31254,-0.08366
310,25.2719,2.31164,-0.08366
310.5,25.3197,2.31133,-0.08366
311,25.3669,2.31552,-0.0836253
311.5,25.4151,2.31507,-0.0853085
312,25.4619,2.31407,-0.08531
312.5,25.51,2.30833,-0.08531
313,25.5573,2.30451,-0.0853763
313.5,25.6051,2.30651,-0.0862899
314,25.653,2.31432,-0.0863074
314.5,25.7013,2.31079,-0.08498
315,25.7491,2.3043,-0.08498
315.5,25.7967,2.30025,-0.08498
316,25.8438,2.30558,-0.08498
316.5,25.8922,2.30148,-0.08498
317,25.9391,2.30565,-0.08498
317.5,25.9873,2.30393,-0.0849801
318,26.0348,2.31081,-0.0862916
318.5,26.0821,2.31067,-0.0862315
319,26.1311,2.30705,-0.0849799
319.5,26.1788,2.29934,-0.0849798
320,26.2263,2.29899,-0.0863791
320.5,26.2735,2.30715,-0.0863915
321,26.3215,2.29915,-0.0877098
321.5,26.3693,2.28985,-0.08771
322,26.4171,2.29367,-0.0877081
322.5,26.465,2.29486,-0.0864004
323,26.5116,2.29428,-0.087714
323.5,26.5613,2.29038,-0.0877101
324,26.6088,2.28676,-0.0890103
324.5,26.6572,2.29444,-0.0890254
325,26.7048,2.30169,-0.0877098
325.5,26.7526,2.29083,-0.08771
326,26.7998,2.28911,-0.08771
326.5,26.848,2.2896,-0.08771
327,26.8955,2.28986,-0.08771
327.5,26.9441,2.29107,-0.0877145
328,26.9924,2.285,-0.08837
328.5,27.0397,2.28542,-0.08837
329,27.0884,2.28702,-0.08837
329.5,27.1365,2.28457,-0.08837
330,27.1841,2.279,-0.08837
330.5,27.2318,2.28652,-0.08837
331,27.278,2.2824,-0.0883706
331.5,27.3262,2.28261,-0.089691
332,27.3756,2.29065,-0.08969
332.5,27.4235,2.28899,-0.08969
333,27.472,2.29769,-0.0903989
333.5,27.521,2.28867,-0.088996
334,27.5681,2.29802,-0.089028
334.5,27.6164,2.30215,-0.0903515
335,27.6643,2.29797,-0.09134
335.5,27.7113,2.29632,-0.0916699
336,27.761,2.30184,-0.0907009
336.5,27.8072,2.29889,-0.0906789
337,27.8575,2.29677,-0.08969
337.5,27.905,2.2996,-0.08969
338,27.953,2.3081,-0.089694
338.5,28.0011,2.30484,-0.0910111
339,28.0488,2.2932,-0.09101
339.5,28.0977,2.29608,-0.0910097
340,28.1448,2.29953,-0.0903782
340.5,28.1917,2.30805,-0.0903457
341,28.2416,2.3076,-0.0916696
341.5,28.2896,2.30995,-0.09167
342,28.3374,2.30676,-0.09167
342.5,28.3848,2.31394,-0.09167
343,28.4331,2.31418,-0.09167
343.5,28.4804,2.3129,-0.0916683
344,28.5296,2.31082,-0.0929781
344.5,28.5775,2.31664,-0.0929798
345,28.6261,2.31215,-0.093615
345.5,28.6714,2.31122,-0.0929899
346,28.7211,2.31712,-0.09299
346.5,28.7688,2.32306,-0.09299
347,28.8183,2.32162,-0.0929772
347.5,28.8652,2.3227,-0.0916706
348,28.9137,2.32906,-0.0922551
348.5,28.9615,2.32906,-0.09298
349,29.0101,2.32703,-0.09298
349.5,29.0584,2.33244,-0.0935871
350,29.1061,2.32804,-0.0942891
350.5,29.1536,2.33188,-0.0956195
351,29.2029,2.33256,-0.0940579
351.5,29.251,2.32681,-0.0931465
352,29.2995,2.33849,-0.0954333
352.5,29.347,2.34831,-0.09562
353,29.3947,2.34019,-0.09562
353.5,29.444,2.33993,-0.09562
354,29.4917,2.33986,-0.0956197
354.5,29.539,2.35027,-0.0969366
355,29.5878,2.35181,-0.09694
355.5,29.6364,2.35471,-0.0966989
356,29.6849,2.36638,-0.09562
356.5,29.732,2.36554,-0.09562
357,29.7813,2.36946,-0.0956298
357.5,29.8292,2.36647,-0.0959498
358,29.8768,2.37498,-0.0969422
358.5,29.9256,2.38232,-0.09694
359,29.974,2.39064,-0.09694
359.5,30.0227,2.3901,-0.09694
360,30.0697,2.39416,-0.0969363
360.5,30.1189,2.39756,-0.0975986
361,30.1679,2.39606,-0.0975999
361.5,30.2158,2.4139,-0.0982675
362,30.2637,2.41159,-0.098581
362.5,30.3122,2.41305,-0.09958
363,30.3599,2.42598,-0.0995802
363.5,30.4087,2.42927,-0.09826
364,30.458,2.43812,-0.09826
364.5,30.5056,2.43908,-0.0982567
365,30.5534,2.44439,-0.0995813
365.5,30.6026,2.4523,-0.09958
366,30.6491,2.4594,-0.100789
366.5,30.6993,2.4649,-0.100846
367,30.7475,2.4708,-0.0997013
367.5,30.7954,2.46901,-0.0995578
368,30.8444,2.49424,-0.09957
368.5,30.8934,2.49874,-0.09957
369,30.9411,2.51296,-0.0995697
369.5,30.9893,2.50788,-0.100572
370,31.038,2.51843,-0.100887
370.5,31.0862,2.53818,-0.10089
371,31.1342,2.54264,-0.100909
371.5,31.1832,2.55505,-0.105956
372,31.2318,2.56019,-0.105921
372.5,31.2795,2.57593,-0.101538
373,31.3283,2.58897,-0.101562
373.5,31.377,2.60287,-0.10254
374,31.4254,2.61499,-0.10254
374.5,31.4737,2.62884,-0.1039
375,31.5223,2.64648,-0.105171
375.5,31.5708,2.66942,-0.10517
376,31.6188,2.68186,-0.10514
376.5,31.6675,2.7046,-0.106821
377,31.717,2.72344,-0.10682
377.5,31.7651,2.74253,-0.10682
378,31.8137,2.77132,-0.105603
378.5,31.8609,2.78097,-0.106144
379,31.9108,2.81153,-0.10682
379.5,31.9596,2.83104,-0.106758
380,32.0089,2.8531,-0.10945
380.5,32.0565,2.87731,-0.10945
381,32.1059,2.91146,-0.10945
381.5,32.1521,2.93638,-0.109446
382,32.203,2.97377,-0.11099
382.5,32.2513,3.00802,-0.111354
383,32.3006,3.05842,-0.11231
383.5,32.3498,3.09295,-0.113641
384,32.3975,3.13041,-0.114941
384.5,32.4464,3.16976,-0.115886
385,32.4957,3.21675,-0.116197
385.5,32.5448,3.26812,-0.117963
386,32.5927,3.31048,-0.119198
386.5,32.6431,3.35542,-0.121044
387,32.6919,3.40174,-0.122382
387.5,32.7408,3.4461,-0.124482
388,32.7896,3.50273,-0.125915
388.5,32.8369,3.53612,-0.125891
389,32.8865,3.58078,-0.127314
389.5,32.9368,3.62994,-0.127567
390,32.9842,3.6824,-0.128881
390.5,33.0346,3.73781,-0.131199
391,33.0831,3.79198,-0.134196
391.5,33.1329,3.86096,-0.135846
392,33.1808,3.91606,-0.137931
392.5,33.2311,3.97504,-0.140303
393,33.2799,4.04233,-0.143372
393.5,33.3287,4.09211,-0.146475
394,33.3779,4.15258,-0.147351
394.5,33.4282,4.21909,-0.150423
395,33.4768,4.2729,-0.154038
395.5,33.5255,4.32747,-0.157664
396,33.5748,4.39683,-0.160489
396.5,33.6245,4.45883,-0.164454
397,33.6732,4.5322,-0.169512
397.5,33.7227,4.60217,-0.173267
398,33.7721,4.66743,-0.179119
398.5,33.82,4.7363,-0.184207
399,33.8705,4.81773,-0.188814
399.5,33.92,4.89943,-0.192543
400,33.9693,4.98347,-0.197945
400.5,34.0187,5.06414,-0.204069
401,34.0684,5.15043,-0.209857
401.5,34.1169,5.23739,-0.215085
402,34.1677,5.32627,-0.224259
402.5,34.2169,5.43615,-0.231189
403,34.2671,5.5437,-0.237415
403.5,34.3144,5.65624,-0.244009
404,34.3664,5.74041,-0.25203
404.5,34.4159,5.81528,-0.259656
405,34.4666,5.91218,-0.269618
405.5,34.5152,6.02749,-0.279549
406,34.5632,6.14923,-0.288813
406.5,34.616,6.29513,-0.300696
407,34.6661,6.4536,-0.312373
407.5,34.7157,6.57759,-0.324433
408,34.7658,6.68374,-0.336117
408.5,34.8157,6.81766,-0.349235
409,34.8675,6.98855,-0.362297
409.5,34.9167,7.12579,-0.37608
410,34.9672,7.28744,-0.391873
410.5,35.0168,7.44969,-0.40834
411,35.0684,7.63006,-0.424982
411.5,35.1196,7.81711,-0.442297
412,35.1711,8.02024,-0.462915
412.5,35.2209,8.21269,-0.483716
413,35.2722,8.39078,-0.50563
413.5,35.3227,8.567,-0.526566
414,35.3749,8.77882,-0.550248
414.5,35.422,8.96226,-0.57194
415,35.4767,9.19102,-0.599035
415.5,35.5277,9.42423,-0.627022
416,35.5793,9.64593,-0.656129
416.5,35.631,9.83061,-0.68615
417,35.6827,10.0864,-0.718412
417.5,35.7332,10.3616,-0.750775
418,35.7853,10.5951,-0.786827
418.5,35.8372,10.8147,-0.823211
419,35.8885,11.0308,-0.861209
419.5,35.9397,11.2877,-0.901668
420,35.992,11.5282,-0.945212
420.5,36.0447,11.82,-0.987656
421,36.0965,12.0241,-1.03606
421.5,36.1483,12.2806,-1.08498
422,36.1992,12.5423,-1.13519
422.5,36.2517,12.7698,-1.18835
423,36.3032,13.0209,-1.24426
423.5,36.3552,13.246,-1.3033
424,36.4069,13.4783,-1.36338
424.5,36.4584,13.6249,-1.42744
425,36.5081,13.7756,-1.48698
425.5,36.5605,14.0235,-1.55481
426,36.6105,14.135,-1.61768
426.5,36.662,14.3249,-1.68872
427,36.7114,14.349,-1.75526
427.5,36.7618,14.5035,-1.83406
428,36.8088,14.5592,-1.90201
428.5,36.8614,14.6101,-1.98361
429,36.9104,14.626,-2.0612
429.5,36.9603,14.6553,-2.13713
430,37.0082,14.583,-2.21391
430.5,37.0561,14.5039,-2.29323
431,37.1048,14.4119,-2.36925
431.5,37.1528,14.3433,-2.45066
432,37.2012,14.174,-2.53092
432.5,37.2468,13.9971,-2.61151
433,37.2942,13.7963,-2.6863
433.5,37.341,13.591,-2.76414
434,37.3871,13.3434,-2.84025
434.5,37.4323,13.0603,-2.91723
435,37.478,12.7608,-2.9902
435.5,37.5233,12.4224,-3.06576
436,37.5676,12.0709,-3.13532
436.5,37.6128,11.6625,-3.20417
437,37.6571,11.242,-3.2748
437.5,37.6996,10.8015,-3.33671
438,37.7427,10.3093,-3.39656
438.5,37.786,9.78818,-3.45687
439,37.8294,9.23948,-3.51636
439.5,37.8712,8.6721,-3.57073
440,37.9133,8.07338,-3.61893
440.5,37.9546,7.49036,-3.66559
441,37.9963,6.88617,-3.70818
441.5,38.039,6.24533,-3.74842
442,38.0794,5.61622,-3.78216
442.5,38.12,4.92052,-3.81293
443,38.1597,4.13572,-3.83879
443.5,38.199,3.29655,-3.86142
444,38.2386,2.52746,-3.87949
444.5,38.2805,1.9185,-3.89348
445,38.3234,1.49145,-3.90138
445.5,38.3679,1.20195,-3.90783
446,38.414,1.01602,-3.91479
446.5,38.4608,0.898081,-3.9167
447,38.5075,0.802619,-3.92017
447.5,38.555,0.740369,-3.92486
448,38.6028,0.706643,-3.92776
448.5,38.6501,0.667894,-3.92871
449,38.7001,0.649689,-3.93009
449.5,38.7474,0.628499,-3.93206
450,38.7954,0.602428,-3.9341
450.5,38.8437,0.596621,-3.93572
451,38.8928,0.586189,-3.93714
451.5,38.9383,0.567934,-3.93846
452,38.9883,0.557665,-3.93846
452.5,39.0384,0.545729,-3.9398
453,39.0869,0.54854,-3.93973
453.5,39.1355,0.528126,-3.94109
454,39.1835,0.525752,-3.94372
454.5,39.2326,0.519644,-3.94409
455,39.2819,0.513012,-3.94301
455.5,39.329,0.509741,-3.94165
456,39.3784,0.503581,-3.94295
456.5,39.4287,0.496272,-3.94427
457,39.4777,0.491341,-3.94427
457.5,39.5257,0.484705,-3.94513
458,39.5747,0.485401,-3.94559
458.5,39.6229,0.489909,-3.94559
459,39.6719,0.47784,-3.94559
459.5,39.7212,0.475207,-3.94588
460,39.7705,0.46833,-3.94691
460.5,39.8186,0.465135,-3.94695
461,39.8681,0.470857,-3.94822
461.5,39.9165,0.46102,-3.94822
462,39.9654,0.457688,-3.94822
462.5,40.0147,0.454701,-3.94822
463,40.0638,0.449539,-3.94822
463.5,40.1132,0.445762,-3.94829
464,40.1614,0.445024,-3.95086
464.5,40.2104,0.437702,-3.95086
465,40.2589,0.432327,-3.95086
465.5,40.3087,0.42469,-3.94955
466,40.3569,0.426943,-3.94954
466.5,40.4064,0.425266,-3.94954
467,40.4548,0.412202,-3.94954
467.5,40.5038,0.412487,-3.94954
468,40.5524,0.415686,-3.95053
468.5,40.5995,0.418426,-3.95185
469,40.6496,0.422231,-3.95186
469.5,40.6986,0.413589,-3.95053
470,40.7492,0.413443,-3.95053
470.5,40.7976,0.408591,-3.95053
471,40.8474,0.415951,-3.95186
471.5,40.8953,0.408294,-3.95185
472,40.9453,0.405005,-3.95053
472.5,40.9933,0.399278,-3.95053
473,41.0423,0.399384,-3.95046
473.5,41.0912,0.402322,-3.95119
474,41.1403,0.402197,-3.95065
474.5,41.1889,0.399179,-3.9502
475,41.2366,0.400606,-3.95023
475.5,41.2874,0.392835,-3.94987
476,41.3367,0.395296,-3.95119
476.5,41.385,0.39895,-3.95221
477,41.4336,0.402515,-3.95251
477.5,41.4849,0.402299,-3.95251
478,41.5327,0.399824,-3.9522
478.5,41.5819,0.401468,-3.95119
479,41.6307,0.405201,-3.95119
479.5,41.6805,0.40762,-3.95249
480,41.7287,0.405598,-3.95349
480.5,41.7781,0.403708,-3.95349
481,41.8278,0.401939,-3.95217
481.5,41.8772,0.402127,-3.95219
482,41.926,0.401999,-3.95151
482.5,41.9755,0.40357,-3.95129
483,42.0242,0.402945,-3.95119
483.5,42.0732,0.399664,-3.95429
484,42.1224,0.402861,-3.95643
484.5,42.1715,0.402839,-3.95281
485,42.2187,0.400061,-3.95152
485.5,42.2703,0.403404,-3.9502
486,42.3186,0.410742,-3.95021
486.5,42.3684,0.406975,-3.9502
487,42.4186,0.403814,-3.94888
487.5,42.4668,0.408113,-3.9502
488,42.5138,0.405181,-3.95152
488.5,42.5663,0.40417,-3.95152
489,42.6158,0.405127,-3.95152
489.5,42.6641,0.401847,-3.95152
490,42.7138,0.403006,-3.95182
490.5,42.7631,0.404403,-3.95283
491,42.8101,0.399441,-3.95154
491.5,42.862,0.402395,-3.95152
492,42.9107,0.394531,-3.94989
492.5,42.9601,0.388936,-3.94889
493,43.0094,0.394721,-3.94972
493.5,43.0586,0.393994,-3.95143
494,43.1093,0.397473,-3.95032
494.5,43.1571,0.396336,-3.95119
495,43.206,0.39118,-3.95119
495.5,43.2562,0.397753,-3.95114
496,43.3049,0.395832,-3.95119
496.5,43.3549,0.395226,-3.95119
497,43.4041,0.396909,-3.95119
497.5,43.4537,0.386825,-3.95119
498,43.5028,0.392707,-3.9505
498.5,43.5521,0.391422,-3.9512
499,43.6009,0.388573,-3.95251
499.5,43.6505,0.393004,-3.95121
500,43.7001,0.391121,-3.95227
500.5,43.7498,0.391404,-3.9525
501,43.7983,0.3902,-3.9525
501.5,43.849,0.385809,-3.95252
502,43.8973,0.392149,-3.95152
502.5,43.946,0.393848,-3.95152
503,43.9952,0.387054,-3.95154
503.5,44.0442,0.384979,-3.95248
504,44.0948,0.38276,-3.95548
504.5,44.1438,0.375964,-3.95174
505,44.1937,0.378499,-3.94968
505.5,44.2423,0.373165,-3.94806
506,44.2916,0.383248,-3.948
506.5,44.3415,0.377431,-3.95057
507,44.3907,0.380208,-3.9527
507.5,44.4393,0.390214,-3.95455
508,44.4892,0.383024,-3.95097
508.5,44.5389,0.383341,-3.94965
509,44.5886,0.39008,-3.94965
509.5,44.637,0.381766,-3.94965
510,44.6861,0.384261,-3.95096
510.5,44.7356,0.384176,-3.95097
511,44.7844,0.381648,-3.95097
511.5,44.8342,0.389257,-3.95097
512,44.8833,0.385214,-3.95097
512.5,44.9332,0.391845,-3.95097
513,44.9805,0.386385,-3.9513
513.5,45.03,0.389082,-3.9513
514,45.0809,0.38934,-3.95131
514.5,45.1311,0.38128,-3.95229
515,45.1798,0.38878,-3.95229
515.5,45.2305,0.384517,-3.95095
516,45.2798,0.389384,-3.95031
516.5,45.3283,0.38392,-3.95031
517,45.3777,0.385131,-3.95031
517.5,45.4288,0.386873,-3.95031
518,45.4766,0.390251,-3.95031
518.5,45.5258,0.384011,-3.95031
519,45.5768,0.384491,-3.95031
519.5,45.6256,0.378327,-3.95031
520,45.6754,0.379676,-3.95031
520.5,45.725,0.377205,-3.95031
521,45.774,0.376108,-3.9503
521.5,45.8231,0.370895,-3.95163
522,45.8734,0.370483,-3.95163
522.5,45.9227,0.367514,-3.95293
523,45.9722,0.367856,-3.95294
523.5,46.0217,0.366223,-3.95294
524,46.0711,0.362715,-3.95294
524.5,46.1207,0.360785,-3.95289
525,46.1705,0.364933,-3.95195
525.5,46.2207,0.357866,-3.95064
526,46.27,0.357209,-3.95064
526.5,46.3201,0.352971,-3.95064
527,46.3693,0.364064,-3.95059
527.5,46.4189,0.35528,-3.95195
528,46.4675,0.355411,-3.95195
528.5,46.5184,0.353014,-3.95195
529,46.5674,0.36033,-3.95195
529.5,46.6179,0.361,-3.95195
530,46.6667,0.354971,-3.95195
530.5,46.7173,0.351904,-3.95195
531,46.7648,0.353313,-3.95159
531.5,46.815,0.354153,-3.95162
532,46.8631,0.352109,-3.95296
532.5,46.915,0.350831,-3.95163
533,46.9651,0.346824,-3.95163
533.5,47.0138,0.347887,-3.95163
534,47.0639,0.347568,-3.95033
534.5,47.1128,0.344061,-3.95031
535,47.1621,0.34393,-3.95031
535.5,47.213,0.342767,-3.9513
536,47.262,0.341513,-3.95132
536.5,47.3114,0.337117,-3.95031
537,47.3613,0.342165,-3.94997
537.5,47.4107,0.351733,-3.95031
538,47.4612,0.341953,-3.95031
538.5,47.5103,0.335734,-3.95163
539,47.5592,0.329275,-3.95165
539.5,47.6099,0.322595,-3.95295
540,47.6589,0.323313,-3.95295
540.5,47.7071,0.323519,-3.95295
541,47.7565,0.320914,-3.95295
541.5,47.8084,0.32455,-3.95295
542,47.8576,0.328075,-3.95295
542.5,47.9067,0.330509,-3.95295
543,47.9564,0.333668,-3.95295
543.5,48.0058,0.334478,-3.95297
544,48.0557,0.332836,-3.95163
544.5,48.1051,0.337375,-3.95123
545,48.155,0.33348,-3.95018
545.5,48.2047,0.333479,-3.94921
546,48.2548,0.334841,-3.94933
546.5,48.3038,0.331828,-3.95052
547,48.3535,0.335602,-3.9519
547.5,48.4036,0.329403,-3.95164
548,48.4531,0.335229,-3.95163
548.5,48.5031,0.336916,-3.95163
549,48.552,0.331615,-3.95163
549.5,48.6022,0.335942,-3.95262
550,48.6519,0.325561,-3.95262
550.5,48.7008,0.32118,-3.95132
551,48.7507,0.319583,-3.94998
551.5,48.8,0.316521,-3.9513
552,48.8501,0.3134,-3.9513
552.5,48.9,0.310028,-3.9513
553,48.9489,0.31243,-3.9513
553.5,48.9985,0.313881,-3.9513
554,49.049,0.30705,-3.95163
554.5,49.0976,0.312081,-3.95163
555,49.1477,0.311109,-3.95297
555.5,49.1988,0.319165,-3.95295
556,49.2473,0.31468,-3.95426
556.5,49.2969,0.31086,-3.95434
557,49.3466,0.313509,-3.95327
557.5,49.3961,0.300374,-3.9529
558,49.4467,0.306911,-3.95426
558.5,49.4959,0.301619,-3.95293
559,49.545,0.298918,-3.95294
559.5,49.5943,0.301252,-3.95426
560,49.6444,0.298583,-3.95426
560.5,49.6943,0.307033,-3.95426
561,49.7436,0.295506,-3.95426
561.5,49.7939,0.301886,-3.95294
562,49.8432,0.300863,-3.95216
562.5,49.8934,0.296152,-3.95163
563,49.9433,0.300748,-3.95163
563.5,49.9933,0.302618,-3.95163
564,50.0422,0.295761,-3.95037
564.5,50.0928,0.29952,-3.95088
565,50.1428,0.306353,-3.95162
565.5,50.1924,0.306373,-3.95294
566,50.2428,0.303791,-3.95426
566.5,50.2935,0.294423,-3.95426
567,50.3434,0.297794,-3.95421
567.5,50.3936,0.296668,-3.95328
568,50.4423,0.294793,-3.95347
568.5,50.4921,0.290812,-3.95427
569,50.5429,0.297185,-3.95295
569.5,50.5924,0.285929,-3.95295
570,50.6421,0.289134,-3.95295
570.5,50.6925,0.290833,-3.95427
571,50.742,0.286744,-3.95427
571.5,50.7926,0.286632,-3.95164
572,50.8423,0.286156,-3.95163
572.5,50.8914,0.288529,-3.95295
573,50.9414,0.279771,-3.95295
573.5,50.9924,0.279569,-3.95295
574,51.0416,0.266642,-3.95427
574.5,51.0916,0.273068,-3.95427
575,51.1425,0.266857,-3.9545
575.5,51.1922,0.265379,-3.9552
576,51.2413,0.26577,-3.95426
576.5,51.2914,0.258145,-3.95426
577,51.3425,0.25907,-3.95426
577.5,51.3892,0.260605,-3.95426
578,51.4419,0.256361,-3.95432
578.5,51.4924,0.259916,-3.9536
579,51.542,0.266807,-3.95361
579.5,51.591,0.254191,-3.95492
580,51.6405,0.240172,-3.95496
580.5,51.6914,0.254784,-3.95494
581,51.7403,0.251251,-3.95492
581.5,51.7901,0.251623,-3.95492
582,51.8403,0.24704,-3.95279
582.5,51.8902,0.242297,-3.95261
583,51.9407,0.241211,-3.95261
583.5,51.9904,0.238681,-3.95301
584,52.0397,0.233093,-3.95505
584.5,52.0893,0.225793,-3.95624
585,52.1392,0.22468,-3.95672
585.5,52.1898,0.219849,-3.95756
586,52.2401,0.219501,-3.95676
586.5,52.2891,0.221368,-3.95492
587,52.3388,0.218331,-3.95492
587.5,52.3894,0.214684,-3.95492
588,52.4394,0.218185,-3.95492
588.5,52.4893,0.215865,-3.95492
589,52.5392,0.213275,-3.95492
589.5,52.5895,0.208961,-3.95492
590,52.6395,0.20062,-3.95441
590.5,52.6888,0.194532,-3.95361
591,52.7397,0.193055,-3.95361
591.5,52.7888,0.191752,-3.95532
592,52.8388,0.190047,-3.95624
592.5,52.8891,0.197491,-3.95623
593,52.9389,0.189174,-3.95491
593.5,52.9886,0.182016,-3.95624
594,53.0388,0.172961,-3.95592
594.5,53.0879,0.179019,-3.95491
595,53.139,0.172243,-3.95393
595.5,53.1886,0.172475,-3.95361
596,53.2397,0.166689,-3.95452
596.5,53.2897,0.164796,-3.95493
597,53.3393,0.16531,-3.95493
597.5,53.3897,0.168145,-3.95495
598,53.4392,0.159081,-3.9536
598.5,53.4892,0.158963,-3.95457
599,53.5391,0.148827,-3.95856
599.5,53.5886,0.151484,-3.95815
600,53.6393,0.145098,-3.9547
600.5,53.6889,0.147844,-3.95339
601,53.74,0.146075,-3.95681
601.5,53.7892,0.149277,-3.96106
602,53.8391,0.149168,-3.95449
602.5,53.8898,0.150327,-3.95294
603,53.9399,0.149682,-3.95294
603.5,53.9891,0.151926,-3.95409
604,54.0397,0.153794,-3.95328
604.5,54.0889,0.147877,-3.95328
605,54.1387,0.141984,-3.95328
605.5,54.1896,0.140256,-3.95328
606,54.2406,0.139334,-3.95328
606.5,54.2909,0.142899,-3.95328
607,54.3411,0.144578,-3.95328
607.5,54.3907,0.144808,-3.95296
608,54.4412,0.14366,-3.95425
608.5,54.4912,0.14892,-3.95426
609,54.5411,0.142595,-3.95426
609.5,54.5912,0.142622,-3.95426
610,54.6414,0.142805,-3.95426
610.5,54.6915,0.140498,-3.95704
611,54.7419,0.146871,-3.95999
611.5,54.7925,0.150985,-3.95496
612,54.8426,0.14617,-3.95444
612.5,54.893,0.1411,-3.95415
613,54.943,0.153103,-3.95415
613.5,54.9916,0.150828,-3.95416
614,55.0428,0.163084,-3.95283
614.5,55.0942,0.158913,-3.95283
615,55.1448,0.156035,-3.95357
615.5,55.1944,0.159413,-3.95415
616,55.244,0.156915,-3.95415
616.5,55.2936,0.15261,-3.95415
617,55.3458,0.157782,-3.95552
617.5,55.3956,0.162238,-3.95513
618,55.4462,0.15528,-3.95382
618.5,55.4967,0.167918,-3.95382
619,55.547,0.164868,-3.9525
619.5,55.5974,0.162398,-3.95312
620,55.6474,0.161379,-3.95283
620.5,55.6985,0.164728,-3.95283
621,55.7483,0.166528,-3.95283
621.5,55.7986,0.173047,-3.95152
622,55.8487,0.166084,-3.95152
622.5,55.8978,0.169241,-3.95152
623,55.9507,0.173366,-3.95183
623.5,56.0007,0.16876,-3.95284
624,56.0517,0.176012,-3.95715
624.5,56.1023,0.177914,-3.95443
625,56.153,0.180334,-3.95174
625.5,56.2048,0.175798,-3.95174
626,56.2546,0.176993,-3.95108
626.5,56.3057,0.177058,-3.95108
627,56.3565,0.177143,-3.95108
627.5,56.4074,0.176429,-3.95223
628,56.4589,0.180849,-3.95306
628.5,56.51,0.184769,-3.95306
629,56.5615,0.183756,-3.95378
629.5,56.6124,0.180043,-3.95372
630,56.662,0.180226,-3.95372
630.5,56.713,0.176847,-3.9524
631,56.7637,0.185908,-3.9524
631.5,56.8145,0.178261,-3.9524
632,56.8657,0.175359,-3.95108
632.5,56.9166,0.174202,-3.95108
633,56.967,0.179023,-3.95108
633.5,57.018,0.175658,-3.95109
634,57.0672,0.168386,-3.9524
634.5,57.1182,0.168572,-3.95108
635,57.1693,0.172832,-3.95108
635.5,57.2195,0.167511,-3.95108
636,57.2694,0.170705,-3.95237
636.5,57.32,0.171849,-3.9524
637,57.3703,0.169369,-3.9524
637.5,57.4219,0.171702,-3.95076
638,57.4713,0.16692,-3.95075
638.5,57.5224,0.164015,-3.95075
639,57.5699,0.161071,-3.95075
639.5,57.6223,0.165219,-3.95075
640,57.6737,0.162842,-3.95075
640.5,57.7226,0.166495,-3.95075
641,57.7736,0.163374,-3.95273
641.5,57.8237,0.1677,-3.95467
642,57.8735,0.162776,-3.9547
642.5,57.9243,0.161521,-3.9547
643,57.9736,0.165759,-3.9547
643.5,58.0241,0.169001,-3.9547
644,58.074,0.165956,-3.9547
644.5,58.1245,0.165097,-3.95441
645,58.1731,0.157843,-3.95208
645.5,58.2249,0.165908,-3.95075
646,58.2724,0.162421,-3.95206
646.5,58.3225,0.161105,-3.952
647,58.3731,0.159125,-3.95338
647.5,58.4257,0.161738,-3.95338
648,58.4747,0.162529,-3.9547
648.5,58.5251,0.164376,-3.9547
649,58.5759,0.167265,-3.9547
649.5,58.6259,0.167924,-3.9547
650,58.6757,0.167238,-3.9547
650.5,58.7263,0.17139,-3.9547
651,58.7765,0.168092,-3.95338
651.5,58.8262,0.176468,-3.95338
652,58.8766,0.171861,-3.95285
652.5,58.9267,0.168277,-3.95075
653,58.9749,0.17596,-3.95075
653.5,59.0272,0.177423,-3.95075
654,59.0773,0.176248,-3.95206
654.5,59.128,0.176588,-3.95239
655,59.1773,0.17485,-3.95239
655.5,59.2288,0.174668,-3.95371
656,59.277,0.173637,-3.95236
656.5,59.3285,0.174621,-3.95233
657,59.3802,0.182344,-3.95371
657.5,59.43,0.18376,-3.9524
658,59.4799,0.184874,-3.9524
658.5,59.5292,0.180083,-3.95241
659,59.5814,0.174055,-3.95306
659.5,59.6324,0.178193,-3.95416
660,59.6832,0.180938,-3.95438
660.5,59.7326,0.178205,-3.95438
661,59.7837,0.179905,-3.95307
661.5,59.8342,0.184671,-3.95219
662,59.8854,0.18349,-3.95306
662.5,59.9354,0.179551,-3.95349
663,59.9868,0.18455,-3.95405
663.5,60.0367,0.182013,-3.95303
664,60.0846,0.188083,-3.95273
664.5,60.1366,0.190721,-3.95273
665,60.1874,0.191401,-3.95208
665.5,60.2382,0.19515,-3.9516
666,60.2891,0.189298,-3.95075
666.5,60.3393,0.196537,-3.95207
667,60.3901,0.192852,-3.95207
667.5,60.4397,0.19587,-3.95207
668,60.4901,0.18437,-3.95207
668.5,60.541,0.191821,-3.95207
669,60.5918,0.194189,-3.95075
669.5,60.6418,0.195791,-3.95075
670,60.6923,0.19621,-3.95125
670.5,60.7433,0.200775,-3.95207
671,60.7933,0.200304,-3.95075
671.5,60.8446,0.200218,-3.95075
672,60.8951,0.206525,-3.95169
672.5,60.9456,0.19709,-3.95174
673,60.9958,0.207468,-3.95055
673.5,61.0463,0.199155,-3.95042
674,61.0977,0.210786,-3.95174
674.5,61.1482,0.202995,-3.95174
675,61.1992,0.204694,-3.95305
675.5,61.2483,0.213541,-3.95299
676,61.2993,0.213298,-3.95437
676.5,61.3504,0.211903,-3.95437
677,61.3991,0.205615,-3.95437
677.5,61.4517,0.206959,-3.95305
678,61.5023,0.207788,-3.95173
678.5,61.5531,0.216632,-3.95173
679,61.6034,0.21514,-3.95044
679.5,61.6551,0.216754,-3.94944
680,61.7064,0.228677,-3.94944
680.5,61.7583,0.221976,-3.95075
681,61.8083,0.227724,-3.95075
681.5,61.8582,0.228972,-3.95075
682,61.9094,0.231942,-3.95077
682.5,61.9601,0.229887,-3.95209
683,62.0116,0.226815,-3.95206
683.5,62.0624,0.225625,-3.95206
684,62.111,0.221331,-3.95338
684.5,62.1641,0.223934,-3.95338
685,62.2146,0.225887,-3.95338
685.5,62.2655,0.228146,-3.9534
686,62.3163,0.226989,-3.95339
686.5,62.367,0.227317,-3.95339
687,62.4172,0.223422,-3.95245
687.5,62.468,0.219607,-3.95207
688,62.5181,0.229972,-3.95207
688.5,62.5701,0.21899,-3.95073
689,62.6192,0.231522,-3.95075
689.5,62.6697,0.221095,-3.95075
690,62.7206,0.219763,-3.95207
690.5,62.7703,0.223015,-3.95207
691,62.8209,0.211917,-3.95339
691.5,62.872,0.217042,-3.95372
692,62.9219,0.206569,-3.95372
692.5,62.973,0.208306,-3.95372
693,63.0225,0.197046,-3.95372
693.5,63.0723,0.196679,-3.95372
694,63.1227,0.19266,-3.95372
694.5,63.1736,0.194816,-3.95372
695,63.2242,0.196745,-3.95372
695.5,63.2728,0.202388,-3.9524
696,63.3243,0.198246,-3.9524
696.5,63.3749,0.198182,-3.95341
697,63.425,0.194317,-3.9524
697.5,63.4763,0.191366,-3.9524
698,63.526,0.186507,-3.9524
698.5,63.5774,0.182871,-3.9524
699,63.6276,0.178863,-3.95372
699.5,63.6772,0.177746,-3.95503
700,63.7274,0.174438,-3.95503
700.5,63.7792,0.17603,-3.95385
701,63.8286,0.169603,-3.9524
701.5,63.8775,0.165865,-3.95125
702,63.9294,0.153282,-3.95108
702.5,63.9785,0.151682,-3.9524
703,64.0298,0.152155,-3.95263
703.5,64.0799,0.150086,-3.95371
704,64.1322,0.145478,-3.95239
704.5,64.1818,0.139773,-3.95239
705,64.2327,0.144097,-3.95239
705.5,64.2831,0.141057,-3.9514
706,64.3332,0.13878,-3.9514
706.5,64.3837,0.132555,-3.95133
707,64.4345,0.137346,-3.95272
707.5,64.4845,0.12607,-3.95272
708,64.5353,0.118328,-3.9527
708.5,64.5861,0.120735,-3.95404
709,64.6348,0.114879,-3.95404
709.5,64.6874,0.120022,-3.95404
710,64.7366,0.117453,-3.9527
710.5,64.7877,0.110163,-3.95204
711,64.8382,0.103511,-3.95009
711.5,64.8894,0.108431,-3.95245
712,64.9395,0.0978812,-3.9524
712.5,64.9897,0.100553,-3.9524
713,65.0375,0.0945944,-3.9524
713.5,65.0911,0.0939707,-3.9524
714,65.141,0.0952113,-3.9524
714.5,65.1919,0.0976084,-3.95272
715,65.2428,0.0897464,-3.95273
715.5,65.2906,0.0853317,-3.95404
716,65.3425,0.0822884,-3.95229
716.5,65.3934,0.0785403,-3.95002
717,65.4436,0.0774258,-3.95009
717.5,65.4935,0.0754868,-3.95068
718,65.5451,0.0769199,-3.95141
718.5,65.5953,0.0619652,-3.95141
719,65.645,0.0659509,-3.95141
719.5,65.6964,0.0604866,-3.95141
720,65.7453,0.0629078,-3.95272
720.5,65.796,0.05543,-3.95358
721,65.8455,0.0499483,-3.95332
721.5,65.8969,0.0460513,-3.95339
722,65.9485,0.0431281,-3.95339
722.5,65.9984,0.0417904,-3.95339
723,66.049,0.0352492,-3.95339
723.5,66.0993,0.0300446,-3.95339
724,66.1494,0.0279793,-3.95339
724.5,66.1996,0.0298207,-3.95271
725,66.2507,0.0328707,-3.95273
725.5,66.3012,0.030608,-3.95167
726,66.3517,0.0243031,-3.95272
726.5,66.403,0.0220729,-3.95273
727,66.4526,0.0195544,-3.95254
727.5,66.502,0.0239958,-3.95223
728,66.5535,0.0162904,-3.95235
728.5,66.6039,0.0113684,-3.95179
729,66.6543,0.00613596,-3.95077
729.5,66.7051,0.00631321,-3.95075
730,66.7554,-0.0037403,-3.95075
730.5,66.8059,0.00155612,-3.95075
731,66.8566,-0.00230802,-3.95076
731.5,66.9066,-0.00542041,-3.95207
732,66.9572,-0.00855273,-3.95207
732.5,67.0081,-0.0136,-3.95076
733,67.0586,-0.0126331,-3.9518
733.5,67.11,-0.0141952,-3.95075
734,67.16,-0.0228287,-3.95075
734.5,67.211,-0.0189718,-3.95075
735,67.2614,-0.0263823,-3.95075
735.5,67.3124,-0.0251113,-3.95075
736,67.3626,-0.0223015,-3.95208
736.5,67.4132,-0.0308183,-3.95207
737,67.4642,-0.0259357,-3.95075
737.5,67.5155,-0.0286602,-3.95075
738,67.5656,-0.0343938,-3.95075
738.5,67.617,-0.0258295,-3.94976
739,67.6675,-0.0291502,-3.94976
739.5,67.7179,-0.033682,-3.94976
740,67.7692,-0.029767,-3.94976
740.5,67.82,-0.0353675,-3.94976
741,67.8701,-0.0362389,-3.95002
741.5,67.9212,-0.0398064,-3.95108
742,67.9723,-0.0414951,-3.95075
742.5,68.0229,-0.03783,-3.95202
743,68.0743,-0.0359094,-3.95212
743.5,68.1247,-0.0378578,-3.95075
744,68.1753,-0.0417005,-3.95075
744.5,68.2258,-0.0401263,-3.95075
745,68.2767,-0.0380802,-3.9522
745.5,68.3271,-0.0483137,-3.95324
746,68.3782,-0.0448238,-3.94973
746.5,68.429,-0.0471121,-3.95006
747,68.4801,-0.0511561,-3.94958
747.5,68.5311,-0.0556471,-3.94922
748,68.5812,-0.0594572,-3.95162
748.5,68.6329,-0.0580683,-3.95597
749,68.6829,-0.0635906,-3.95374
749.5,68.7334,-0.0629375,-3.94895
750,68.7847,-0.0661089,-3.949
750.5,68.8348,-0.0635744,-3.94971
751,68.8856,-0.069614,-3.95031
751.5,68.9374,-0.0775657,-3.95031
752,68.9876,-0.0821911,-3.95031
752.5,69.0378,-0.0812096,-3.95031
753,69.0889,-0.0758208,-3.95129
753.5,69.1396,-0.0779475,-3.95129
754,69.1902,-0.0778921,-3.95145
754.5,69.2406,-0.0886778,-3.95135
755,69.2915,-0.0865234,-3.94866
755.5,69.343,-0.0882998,-3.94866
756,69.3931,-0.0887664,-3.94798
756.5,69.4435,-0.0907703,-3.948
757,69.4935,-0.0965741,-3.94979
757.5,69.5441,-0.0982915,-3.95031
758,69.5951,-0.0989205,-3.9513
758.5,69.6455,-0.0986185,-3.9513
759,69.6971,-0.0983872,-3.9513
759.5,69.7468,-0.0988422,-3.9513
760,69.7975,-0.0982362,-3.9513
760.5,69.8486,-0.0911648,-3.95174
761,69.8985,-0.0967443,-3.95262
761.5,69.9499,-0.102067,-3.95262
762,69.9982,-0.0979828,-3.9513
762.5,70.0496,-0.104709,-3.94998
763,70.1014,-0.104937,-3.94998
763.5,70.1525,-0.108365,-3.95083
764,70.2028,-0.111079,-3.9513
764.5,70.2539,-0.107747,-3.9513
765,70.3051,-0.100925,-3.9513
765.5,70.3547,-0.104307,-3.9513
766,70.4058,-0.106157,-3.95141
766.5,70.4564,-0.102288,-3.95229
767,70.5074,-0.110887,-3.95229
767.5,70.5587,-0.107044,-3.95229
768,70.6083,-0.113348,-3.95098
768.5,70.6596,-0.114001,-3.94965
769,70.7099,-0.111771,-3.94965
769.5,70.7609,-0.109765,-3.94832
770,70.8119,-0.104257,-3.94957
770.5,70.8621,-0.110904,-3.94965
771,70.9103,-0.106417,-3.94981
771.5,70.9625,-0.101149,-3.95097
772,71.013,-0.108836,-3.95144
772.5,71.0642,-0.105359,-3.95261
773,71.1152,-0.100606,-3.95393
773.5,71.1654,-0.0994766,-3.95271
774,71.216,-0.102525,-3.95261
774.5,71.2647,-0.101213,-3.95261
775,71.3172,-0.104911,-3.95261
775.5,71.3681,-0.104892,-3.95261
776,71.4188,-0.100087,-3.95261
776.5,71.4694,-0.10955,-3.9523
777,71.5199,-0.11061,-3.95129
777.5,71.5697,-0.0986655,-3.95129
778,71.6196,-0.0997851,-3.95145
778.5,71.6722,-0.109615,-3.95261
779,71.723,-0.106301,-3.95248
779.5,71.7737,-0.116231,-3.95294
780,71.8247,-0.114503,-3.95261
780.5,71.8756,-0.114037,-3.95126
781,71.9262,-0.12396,-3.9513
781.5,71.9756,-0.119225,-3.9513
782,72.0269,-0.118698,-3.9513
782.5,72.0769,-0.117546,-3.9513
783,72.1283,-0.117296,-3.9513
783.5,72.1791,-0.112811,-3.95126
784,72.2299,-0.117937,-3.9513
784.5,72.2801,-0.122118,-3.9513
785,72.3297,-0.115708,-3.95263
785.5,72.3816,-0.116389,-3.95262
786,72.4334,-0.114556,-3.95262
786.5,72.4832,-0.112704,-3.95262
787,72.535,-0.117768,-3.95261
787.5,72.5852,-0.116797,-3.95163
788,72.6361,-0.121804,-3.95294
788.5,72.6866,-0.115532,-3.95295
789,72.7365,-0.11756,-3.95295
789.5,72.7874,-0.121499,-3.95263
790,72.8379,-0.114356,-3.95262