File: 01_Data/Nylon_Bourke/STA/N2/10K_min/Nylon_Bourke_STA_N2_10KData_250508_R3.csv
Temp./C,Time/min,DSC/(mW/mg),Mass loss/mg
50.0,0.0,0.839511,-0.0130201
50.5,0.0660668,0.861348,-0.0144316
51,0.129777,0.875743,-0.0125589
51.5,0.197696,0.891441,-0.014181
52,0.260806,0.901479,-0.0151126
52.5,0.325656,0.915043,-0.0151095
53,0.390397,0.930964,-0.0145807
53.5,0.452391,0.944881,-0.0153712
54,0.512372,0.95725,-0.0159235
54.5,0.573839,0.97114,-0.016381
55,0.636435,0.981767,-0.0172599
55.5,0.696453,0.996348,-0.0171813
56,0.758322,1.01013,-0.0169804
56.5,0.818738,1.01653,-0.0165022
57,0.877442,1.03319,-0.0172446
57.5,0.937886,1.04675,-0.0172446
58,0.996535,1.05542,-0.0173207
58.5,1.05445,1.06222,-0.0164714
59,1.10863,1.0684,-0.0179293
59.5,1.1727,1.08038,-0.018755
60,1.23093,1.09297,-0.0187618
60.5,1.28886,1.09927,-0.0186628
61,1.34494,1.11043,-0.0180089
61.5,1.40132,1.12141,-0.0191243
62,1.457,1.13288,-0.0199951
62.5,1.51466,1.13975,-0.0199817
63,1.56722,1.15117,-0.0210526
63.5,1.62754,1.15939,-0.0213022
64,1.68151,1.16799,-0.0208078
64.5,1.73679,1.17892,-0.0199684
65,1.793,1.18408,-0.0212928
65.5,1.8477,1.18686,-0.021085
66,1.90266,1.1922,-0.0200105
66.5,1.95723,1.19916,-0.0203054
67,2.01231,1.20583,-0.02129
67.5,2.06645,1.21382,-0.0212897
68,2.12012,1.21973,-0.0212592
68.5,2.17444,1.21997,-0.0220258
69,2.2278,1.22811,-0.0213374
69.5,2.28265,1.23596,-0.0212614
70,2.33425,1.23879,-0.0226147
70.5,2.3878,1.24504,-0.0238901
71,2.44222,1.24833,-0.02261
71.5,2.49344,1.24805,-0.0239438
72,2.54765,1.25026,-0.02261
72.5,2.59702,1.25239,-0.0234614
73,2.65195,1.25018,-0.0227321
73.5,2.70432,1.2533,-0.0239296
74,2.75803,1.26293,-0.0227169
74.5,2.80862,1.261,-0.0229138
75,2.86214,1.26414,-0.0225894
75.5,2.91332,1.25909,-0.024217
76,2.96621,1.26615,-0.02524
76.5,3.01817,1.25667,-0.0245922
77,3.06882,1.26094,-0.0252247
77.5,3.1209,1.25678,-0.0239742
78,3.1718,1.26009,-0.0249789
78.5,3.22334,1.26209,-0.0242484
79,3.27554,1.25984,-0.025234
79.5,3.32711,1.25888,-0.0252541
80,3.37535,1.25933,-0.0265699
80.5,3.42922,1.25858,-0.0252402
81,3.48117,1.25202,-0.0265673
81.5,3.53218,1.25184,-0.0271429
82,3.58381,1.25475,-0.0265685
82.5,3.63446,1.24773,-0.02657
83,3.68499,1.25271,-0.0267531
83.5,3.73635,1.24911,-0.0267884
84,3.78664,1.24588,-0.0278797
84.5,3.83799,1.24882,-0.029191
85,3.88696,1.24984,-0.0296264
85.5,3.93811,1.24696,-0.0288689
86,3.9875,1.25005,-0.0288685
86.5,4.03867,1.24836,-0.0292298
87,4.08724,1.24863,-0.0292099
87.5,4.13866,1.24602,-0.0291996
88,4.18701,1.24586,-0.0305081
88.5,4.23712,1.2397,-0.0303212
89,4.28667,1.244,-0.0305226
89.5,4.33547,1.2415,-0.0305199
90,4.38566,1.24297,-0.0291778
90.5,4.43753,1.24229,-0.0291973
91,4.48655,1.2357,-0.0284655
91.5,4.53518,1.24144,-0.0292
92,4.58634,1.2381,-0.0305292
92.5,4.63399,1.23668,-0.0305216
93,4.68304,1.2439,-0.0291988
93.5,4.73392,1.23707,-0.0285088
94,4.78127,1.23548,-0.0299591
94.5,4.83043,1.2312,-0.0299821
95,4.87943,1.2277,-0.0302885
95.5,4.92777,1.23422,-0.0306447
96,4.97834,1.23464,-0.0293101
96.5,5.02647,1.23065,-0.0304942
97,5.07454,1.22827,-0.03063
97.5,5.12488,1.23418,-0.0306265
98,5.17211,1.22989,-0.0306196
98.5,5.21951,1.23292,-0.03062
99,5.26745,1.2409,-0.0303576
99.5,5.31885,1.23673,-0.0293
100,5.36694,1.23708,-0.030543
100.5,5.41575,1.23452,-0.029577
101,5.46455,1.23739,-0.0303599
101.5,5.5134,1.23358,-0.0306286
102,5.56069,1.2324,-0.031417
102.5,5.60849,1.23592,-0.03063
103,5.65457,1.23748,-0.0306305
103.5,5.70553,1.24249,-0.0292469
104,5.75403,1.24649,-0.0306201
104.5,5.8028,1.24188,-0.03062
105,5.85015,1.24693,-0.03062
105.5,5.89983,1.24886,-0.0309296
106,5.94752,1.24571,-0.0306189
106.5,5.99542,1.24373,-0.0302506
107,6.04242,1.24489,-0.0293104
107.5,6.08962,1.25406,-0.0281879
108,6.14126,1.25207,-0.02931
108.5,6.18963,1.24982,-0.0297691
109,6.23633,1.25224,-0.0319499
109.5,6.28554,1.25228,-0.0306057
110,6.33331,1.25866,-0.03063
110.5,6.38247,1.26279,-0.0317152
111,6.42721,1.2611,-0.0306197
111.5,6.47852,1.25384,-0.0306218
112,6.52535,1.26376,-0.0319366
112.5,6.57338,1.26033,-0.0306275
113,6.62261,1.2634,-0.03062
113.5,6.66926,1.27295,-0.03062
114,6.71799,1.27061,-0.03062
114.5,6.7663,1.27485,-0.029832
115,6.81367,1.2749,-0.0306299
115.5,6.86282,1.27514,-0.0306301
116,6.91088,1.27682,-0.0306194
116.5,6.95759,1.27868,-0.0345619
117,7.00663,1.2834,-0.032412
117.5,7.05505,1.29175,-0.0283284
118,7.10297,1.28944,-0.02832
118.5,7.15008,1.29879,-0.0283121
119,7.20019,1.29599,-0.0296405
119.5,7.24621,1.30101,-0.0292604
120,7.29439,1.29695,-0.02964
120.5,7.34324,1.30269,-0.0296404
121,7.39185,1.3117,-0.0309829
121.5,7.43964,1.31887,-0.0287181
122,7.48709,1.31833,-0.0285149
122.5,7.53515,1.32293,-0.0319906
123,7.58328,1.32521,-0.03195
123.5,7.63217,1.32596,-0.0319499
124,7.67952,1.33895,-0.030778
124.5,7.7264,1.34076,-0.03162
125,7.77552,1.34369,-0.031622
125.5,7.82229,1.35628,-0.0306357
126,7.87045,1.363,-0.0305751
126.5,7.91803,1.37329,-0.0319402
127,7.96628,1.38956,-0.0319731
127.5,8.01476,1.39997,-0.03062
128,8.06182,1.4107,-0.03062
128.5,8.11059,1.42228,-0.0292435
129,8.1563,1.4336,-0.0306509
129.5,8.20475,1.44652,-0.0274244
130,8.25291,1.46747,-0.0258811
130.5,8.29993,1.48583,-0.0306079
131,8.34829,1.51955,-0.0330402
131.5,8.39723,1.51879,-0.031731
132,8.44418,1.53581,-0.03173
132.5,8.49211,1.56037,-0.0317184
133,8.54064,1.57588,-0.0330396
133.5,8.58758,1.58984,-0.0340012
134,8.63525,1.60777,-0.0330372
134.5,8.6839,1.62954,-0.0330318
135,8.73113,1.64053,-0.0317207
135.5,8.77819,1.65001,-0.03172
136,8.82404,1.65969,-0.03172
136.5,8.87194,1.66886,-0.030612
137,8.91812,1.66664,-0.0304
137.5,8.96708,1.66721,-0.0304
138,9.01533,1.66422,-0.0304
138.5,9.06071,1.65985,-0.0303937
139,9.10974,1.65209,-0.0301707
139.5,9.15678,1.65547,-0.03008
140,9.20569,1.64569,-0.03008
140.5,9.2518,1.64194,-0.0300786
141,9.29971,1.63963,-0.0291481
141.5,9.34572,1.63652,-0.0290907
142,9.39315,1.63872,-0.0304122
142.5,9.44041,1.63304,-0.03041
143,9.48745,1.62019,-0.0304101
143.5,9.53195,1.6158,-0.0292049
144,9.58106,1.61936,-0.0303886
144.5,9.62859,1.60897,-0.0304
145,9.67639,1.60401,-0.0304
145.5,9.72284,1.60802,-0.0304
146,9.76973,1.60691,-0.0309725
146.5,9.81804,1.59832,-0.03172
147,9.86596,1.59632,-0.0317202
147.5,9.91267,1.59772,-0.0303611
148,9.95884,1.59884,-0.0304
148.5,10.0073,1.59493,-0.0304
149,10.0534,1.59644,-0.0294315
149.5,10.1003,1.59011,-0.030514
150,10.145,1.59124,-0.03041
150.5,10.1941,1.58994,-0.03041
151,10.241,1.58204,-0.03041
151.5,10.2889,1.58466,-0.03041
152,10.3335,1.58433,-0.0304107
152.5,10.3839,1.57713,-0.0291019
153,10.4299,1.57272,-0.0304099
153.5,10.4778,1.57355,-0.03041
154,10.5251,1.57437,-0.03041
154.5,10.5713,1.56503,-0.0304102
155,10.6191,1.56019,-0.0290471
155.5,10.6647,1.55023,-0.0290901
156,10.7133,1.54738,-0.0304045
156.5,10.7592,1.54406,-0.0304631
157,10.8064,1.53244,-0.0290898
157.5,10.8536,1.51609,-0.02909
158,10.9011,1.50067,-0.02909
158.5,10.9471,1.49265,-0.0290897
159,10.994,1.48174,-0.0304664
159.5,11.0413,1.46738,-0.03041
160,11.088,1.45669,-0.0283435
160.5,11.1358,1.43595,-0.0266738
161,11.1824,1.41836,-0.0287285
161.5,11.2287,1.39259,-0.0298647
162,11.2751,1.36414,-0.0311809
162.5,11.3216,1.34116,-0.03118
163,11.3694,1.30326,-0.0298603
163.5,11.4139,1.27085,-0.02986
164,11.463,1.23664,-0.0297699
164.5,11.5083,1.20013,-0.02712
165,11.556,1.15217,-0.0285406
165.5,11.6018,1.10911,-0.0312995
166,11.6488,1.06938,-0.0313016
166.5,11.6957,1.03994,-0.0302999
167,11.742,1.00143,-0.0295919
167.5,11.7878,0.986414,-0.0290826
168,11.8354,0.968442,-0.0302901
168.5,11.8819,0.972492,-0.03029
169,11.9295,0.982657,-0.0302164
169.5,11.9767,1.00884,-0.02898
170,12.0233,1.04344,-0.02898
170.5,12.0713,1.07776,-0.02898
171,12.1194,1.12612,-0.0289656
171.5,12.1661,1.16819,-0.0293101
172,12.2137,1.21653,-0.02931
172.5,12.2615,1.2509,-0.02931
173,12.3089,1.29389,-0.02931
173.5,12.3577,1.3304,-0.02931
174,12.4038,1.36671,-0.0292074
174.5,12.4515,1.39844,-0.02898
175,12.4996,1.42264,-0.0281574
175.5,12.547,1.4528,-0.0292997
176,12.5949,1.47159,-0.02898
176.5,12.6407,1.48942,-0.0298541
177,12.6885,1.50855,-0.0303
177.5,12.7366,1.52336,-0.0303113
178,12.7835,1.54131,-0.0289805
178.5,12.8295,1.5544,-0.02898
179,12.877,1.56905,-0.02898
179.5,12.9248,1.56977,-0.02898
180,12.9713,1.57737,-0.0289765
180.5,13.0187,1.59405,-0.0302886
181,13.0657,1.60003,-0.0288148
181.5,13.1133,1.60551,-0.02799
182,13.1602,1.6163,-0.0284909
182.5,13.2072,1.62429,-0.02931
183,13.2539,1.62601,-0.02931
183.5,13.3015,1.62901,-0.0279942
184,13.3492,1.63802,-0.0279899
184.5,13.3948,1.63947,-0.0293006
185,13.442,1.63856,-0.0297757
185.5,13.4892,1.65285,-0.03063
186,13.5369,1.65565,-0.0306289
186.5,13.583,1.65961,-0.029601
187,13.6299,1.66212,-0.0299697
187.5,13.6773,1.66412,-0.02997
188,13.7217,1.67001,-0.0299701
188.5,13.7709,1.6718,-0.0306861
189,13.818,1.67181,-0.0306301
189.5,13.8655,1.68255,-0.0296169
190,13.9115,1.6874,-0.0293123
190.5,13.9575,1.69533,-0.0306206
191,14.005,1.69235,-0.0306229
191.5,14.0518,1.69414,-0.0293088
192,14.0978,1.69741,-0.02931
192.5,14.1462,1.70117,-0.0293123
193,14.1922,1.70186,-0.0306196
193.5,14.2393,1.71403,-0.0292824
194,14.2862,1.70737,-0.0306202
194.5,14.3311,1.71272,-0.03062
195,14.3791,1.71561,-0.03062
195.5,14.4253,1.71871,-0.03062
196,14.4738,1.7213,-0.03025
196.5,14.5209,1.72393,-0.02963
197,14.5674,1.72434,-0.0296649
197.5,14.6146,1.72878,-0.0296287
198,14.6613,1.73805,-0.02964
198.5,14.7085,1.73339,-0.02964
199,14.7554,1.73809,-0.02964
199.5,14.8013,1.74713,-0.0296465
200,14.8485,1.74868,-0.0309596
200.5,14.8966,1.74926,-0.0309571
201,14.9423,1.75649,-0.0296391
201.5,14.9895,1.75724,-0.02964
202,15.037,1.75925,-0.02964
202.5,15.0824,1.76026,-0.02964
203,15.1305,1.76391,-0.02964
203.5,15.1777,1.76989,-0.02964
204,15.2247,1.77546,-0.02964
204.5,15.2719,1.78325,-0.02964
205,15.319,1.78944,-0.0297017
205.5,15.365,1.7868,-0.0309601
206,15.4125,1.79665,-0.0309599
206.5,15.4596,1.79597,-0.0297664
207,15.5062,1.79651,-0.02964
207.5,15.5537,1.80262,-0.02964
208,15.6005,1.80194,-0.02964
208.5,15.6471,1.81288,-0.0303585
209,15.6948,1.8158,-0.03095
209.5,15.7415,1.82477,-0.03095
210,15.7885,1.82587,-0.0309492
210.5,15.836,1.83241,-0.0299602
211,15.8807,1.83459,-0.02996
211.5,15.9294,1.8409,-0.0299601
212,15.9772,1.84198,-0.0310808
212.5,16.024,1.84951,-0.03128
213,16.07,1.86055,-0.0312796
213.5,16.1152,1.86188,-0.0301354
214,16.1652,1.86528,-0.0276904
214.5,16.2115,1.87101,-0.0309431
215,16.2593,1.87711,-0.0322691
215.5,16.3063,1.88994,-0.031479
216,16.351,1.9003,-0.0316119
216.5,16.4006,1.9019,-0.0322881
217,16.4477,1.91269,-0.03227
217.5,16.4951,1.92273,-0.03227
218,16.541,1.92945,-0.03227
218.5,16.5891,1.93866,-0.0322598
219,16.6362,1.94423,-0.0312898
219.5,16.6821,1.95414,-0.0323075
220,16.7293,1.97156,-0.03228
220.5,16.7775,1.97976,-0.0322822
221,16.8239,1.99214,-0.0319512
221.5,16.8722,2.00757,-0.03195
222,16.919,2.01165,-0.0319634
222.5,16.9668,2.02493,-0.0306301
223,17.0146,2.03526,-0.0309361
223.5,17.0605,2.04213,-0.031287
224,17.1074,2.05496,-0.0316191
224.5,17.1566,2.0727,-0.0316163
225,17.2025,2.07824,-0.0329325
225.5,17.2495,2.09283,-0.03293
226,17.2973,2.11639,-0.0329309
226.5,17.3452,2.12294,-0.031614
227,17.392,2.13921,-0.03161
227.5,17.4396,2.15681,-0.03161
228,17.487,2.16712,-0.03161
228.5,17.5348,2.18102,-0.031616
229,17.5825,2.19657,-0.0325996
229.5,17.628,2.21747,-0.0326
230,17.6762,2.23319,-0.0326
230.5,17.723,2.24634,-0.0325999
231,17.769,2.26889,-0.0329262
231.5,17.8182,2.27901,-0.03293
232,17.8653,2.3028,-0.0329288
232.5,17.912,2.32401,-0.03326
233,17.9604,2.34285,-0.03326
233.5,18.0072,2.35701,-0.0332598
234,18.0543,2.37764,-0.0345761
234.5,18.1022,2.38759,-0.033597
235,18.1498,2.41371,-0.03359
235.5,18.197,2.43246,-0.03359
236,18.2449,2.45526,-0.03359
236.5,18.292,2.47989,-0.03359
237,18.3398,2.49234,-0.03359
237.5,18.3867,2.52008,-0.03359
238,18.434,2.53803,-0.03359
238.5,18.4823,2.564,-0.03359
239,18.5295,2.58668,-0.03359
239.5,18.5763,2.60587,-0.03359
240,18.6245,2.63398,-0.03359
240.5,18.672,2.66244,-0.03359
241,18.7197,2.68504,-0.0335734
241.5,18.7677,2.70289,-0.0349097
242,18.8152,2.72556,-0.03491
242.5,18.8614,2.73779,-0.0349099
243,18.9085,2.74722,-0.0345801
243.5,18.9571,2.74886,-0.0341261
244,19.0035,2.74679,-0.03392
244.5,19.05,2.72731,-0.03392
245,19.0943,2.71426,-0.03392
245.5,19.1438,2.68519,-0.0338987
246,19.191,2.65297,-0.0352304
246.5,19.2359,2.62806,-0.0342089
247,19.2841,2.58262,-0.03424
247.5,19.3315,2.55232,-0.03424
248,19.3777,2.51168,-0.0342401
248.5,19.4242,2.45961,-0.03556
249,19.4707,2.40685,-0.03556
249.5,19.5181,2.34832,-0.0355506
250,19.5654,2.3129,-0.0368799
250.5,19.6115,2.28419,-0.0354956
251,19.6582,2.25479,-0.03556
251.5,19.7047,2.22165,-0.03556
252,19.7526,2.2171,-0.0355601
252.5,19.7997,2.21006,-0.036752
253,19.8464,2.21219,-0.03688
253.5,19.8936,2.21146,-0.0368808
254,19.9407,2.19661,-0.0355703
254.5,19.9876,2.1951,-0.0368742
255,20.0345,2.18406,-0.0355701
255.5,20.0816,2.15798,-0.0356666
256,20.1278,2.13594,-0.0358942
256.5,20.1752,2.09885,-0.03589
257,20.2221,2.08025,-0.0358372
257.5,20.2693,2.05248,-0.03721
258,20.3157,2.01543,-0.03721
258.5,20.3626,1.99226,-0.03721
259,20.4108,1.97292,-0.03721
259.5,20.4572,1.9626,-0.03721
260,20.504,1.95216,-0.037181
260.5,20.5509,1.94132,-0.0410325
261,20.5987,1.93504,-0.0391795
261.5,20.6448,1.94126,-0.036417
262,20.6923,1.93179,-0.0351308
262.5,20.7399,1.93203,-0.0364327
263,20.7867,1.92876,-0.0364193
263.5,20.8345,1.92164,-0.03645
264,20.8805,1.92697,-0.03645
264.5,20.9288,1.9252,-0.03645
265,20.9766,1.92176,-0.03645
265.5,21.0232,1.91757,-0.03645
266,21.0691,1.91971,-0.03645
266.5,21.1174,1.91517,-0.0366208
267,21.1627,1.915,-0.0390521
267.5,21.2128,1.92087,-0.039069
268,21.2592,1.91737,-0.0384173
268.5,21.3066,1.91269,-0.03842
269,21.3529,1.91079,-0.03842
269.5,21.4013,1.91475,-0.03842
270,21.4486,1.91425,-0.03842
270.5,21.4934,1.91509,-0.03842
271,21.5431,1.91238,-0.03842
271.5,21.5897,1.91351,-0.03842
272,21.6373,1.91465,-0.03842
272.5,21.6865,1.91424,-0.03842
273,21.732,1.92285,-0.03842
273.5,21.7797,1.92421,-0.03842
274,21.8275,1.92053,-0.03842
274.5,21.8748,1.92571,-0.03842
275,21.9211,1.92189,-0.03842
275.5,21.9687,1.92339,-0.0384263
276,22.0162,1.91811,-0.0397421
276.5,22.0637,1.92433,-0.03974
277,22.1101,1.92375,-0.03974
277.5,22.1581,1.92099,-0.03974
278,22.2052,1.91997,-0.03974
278.5,22.2533,1.92349,-0.03974
279,22.301,1.92537,-0.03974
279.5,22.3472,1.92392,-0.0397398
280,22.3949,1.91969,-0.0400703
280.5,22.4424,1.92335,-0.0407201
281,22.4895,1.92127,-0.04072
281.5,22.5372,1.92363,-0.04072
282,22.5837,1.92379,-0.0407201
282.5,22.6322,1.91596,-0.0393648
283,22.679,1.92076,-0.0396857
283.5,22.7272,1.92198,-0.04007
284,22.7738,1.91857,-0.04007
284.5,22.8215,1.9181,-0.04007
285,22.8699,1.92597,-0.0397377
285.5,22.9168,1.92031,-0.03974
286,22.9635,1.92209,-0.03974
286.5,23.0111,1.92203,-0.03974
287,23.0583,1.93058,-0.03974
287.5,23.1056,1.92003,-0.0397404
288,23.1536,1.92008,-0.0385186
288.5,23.2007,1.91827,-0.0387724
289,23.2488,1.9221,-0.04007
289.5,23.2963,1.9206,-0.0410682
290,23.3433,1.9218,-0.0417111
290.5,23.391,1.91514,-0.04171
291,23.4387,1.91743,-0.0417063
291.5,23.4867,1.92102,-0.0420396
292,23.5329,1.91852,-0.04204
292.5,23.5818,1.91416,-0.0420404
293,23.6282,1.91552,-0.0440269
293.5,23.6768,1.90596,-0.0466475
294,23.7243,1.91472,-0.0429523
294.5,23.7724,1.91374,-0.0414904
295,23.8191,1.91249,-0.04149
295.5,23.8672,1.91431,-0.04149
296,23.9153,1.91794,-0.04149
296.5,23.9617,1.91348,-0.04149
297,24.0094,1.90612,-0.04149
297.5,24.0575,1.90605,-0.042174
298,24.1047,1.90417,-0.0415008
298.5,24.1524,1.90028,-0.0421616
299,24.1997,1.9074,-0.0421033
299.5,24.248,1.90468,-0.0444568
300,24.2941,1.90055,-0.04446
300.5,24.3437,1.91207,-0.0444604
301,24.3903,1.90441,-0.043802
301.5,24.4357,1.90172,-0.0437911
302,24.4853,1.89922,-0.0431397
302.5,24.5328,1.9009,-0.04314
303,24.5811,1.90998,-0.04314
303.5,24.6286,1.90508,-0.0440757
304,24.6761,1.90362,-0.04446
304.5,24.7237,1.90334,-0.04446
305,24.7707,1.89815,-0.04446
305.5,24.8194,1.89557,-0.04446
306,24.8656,1.9003,-0.04446
306.5,24.9139,1.9007,-0.04446
307,24.9618,1.89929,-0.04446
307.5,25.0093,1.90187,-0.04446
308,25.0567,1.9044,-0.04446
308.5,25.105,1.90792,-0.0444588
309,25.1521,1.89574,-0.0434726
309.5,25.2002,1.89303,-0.04347
310,25.2459,1.89503,-0.0442568
310.5,25.2959,1.90036,-0.04479
311,25.3441,1.89818,-0.04479
311.5,25.3916,1.89544,-0.04479
312,25.4385,1.89524,-0.0447903
312.5,25.4859,1.89839,-0.0460866
313,25.5342,1.90232,-0.0457695
313.5,25.5821,1.90121,-0.04577
314,25.6297,1.89436,-0.0455014
314.5,25.6775,1.89108,-0.04446
315,25.7249,1.89436,-0.04446
315.5,25.7733,1.89171,-0.044461
316,25.8216,1.89848,-0.046994
316.5,25.8693,1.89173,-0.04709
317,25.9167,1.89707,-0.0470895
317.5,25.9639,1.89243,-0.0457822
318,26.0122,1.89572,-0.04577
318.5,26.0599,1.89823,-0.04577
319,26.1068,1.89667,-0.0466243
319.5,26.1555,1.89173,-0.04709
320,26.2026,1.89461,-0.0470901
320.5,26.2509,1.88648,-0.0457319
321,26.299,1.89107,-0.04577
321.5,26.3465,1.88708,-0.04577
322,26.3957,1.89107,-0.0465005
322.5,26.4419,1.88942,-0.04676
323,26.4889,1.8888,-0.0467592
323.5,26.537,1.88454,-0.0463134
324,26.5854,1.9006,-0.0479018
324.5,26.633,1.90084,-0.0491809
325,26.6818,1.8993,-0.04918
325.5,26.7295,1.90602,-0.0496213
326,26.7766,1.90291,-0.0501679
326.5,26.824,1.91395,-0.05017
327,26.8718,1.90985,-0.05017
327.5,26.9191,1.91136,-0.05017
328,26.9646,1.90602,-0.0501696
328.5,27.0151,1.89749,-0.0495096
329,27.0636,1.89483,-0.0501842
329.5,27.1112,1.89352,-0.05017
330,27.1596,1.88883,-0.05017
330.5,27.2073,1.88156,-0.0501665
331,27.2544,1.88221,-0.0514803
331.5,27.3025,1.87656,-0.0514811
332,27.3505,1.88304,-0.0501656
332.5,27.3987,1.88231,-0.0502769
333,27.4449,1.88202,-0.0511599
333.5,27.4949,1.88025,-0.0509602
334,27.5421,1.88217,-0.0498401
334.5,27.5904,1.88153,-0.0498389
335,27.6377,1.8809,-0.0511602
335.5,27.6859,1.88004,-0.05116
336,27.7336,1.87395,-0.05116
336.5,27.7819,1.87712,-0.05116
337,27.8295,1.87777,-0.05116
337.5,27.8776,1.88305,-0.05116
338,27.9253,1.88428,-0.05116
338.5,27.9728,1.8736,-0.05116
339,28.0183,1.87917,-0.0511598
339.5,28.0688,1.8803,-0.051481
340,28.1176,1.88792,-0.0514915
340.5,28.1658,1.88134,-0.0527992
341,28.2132,1.88257,-0.0528
341.5,28.2605,1.87784,-0.0528
342,28.3093,1.87995,-0.0528011
342.5,28.3569,1.88629,-0.05379
343,28.405,1.89362,-0.05379
343.5,28.4534,1.88689,-0.05379
344,28.5019,1.88825,-0.0537904
344.5,28.5496,1.89453,-0.0544495
345,28.5971,1.89504,-0.05445
345.5,28.6451,1.89677,-0.0544451
346,28.6925,1.89336,-0.0551091
346.5,28.7415,1.89381,-0.05511
347,28.7896,1.89826,-0.05511
347.5,28.8372,1.89277,-0.0551099
348,28.8835,1.89564,-0.0537883
348.5,28.9334,1.89488,-0.05379
349,28.9809,1.89799,-0.05379
349.5,29.03,1.89745,-0.054098
350,29.0767,1.89369,-0.0551093
350.5,29.1261,1.90034,-0.05511
351,29.1743,1.8987,-0.05511
351.5,29.2225,1.89312,-0.05511
352,29.2701,1.90295,-0.05511
352.5,29.3178,1.90148,-0.0551101
353,29.367,1.89703,-0.0563487
353.5,29.4141,1.9112,-0.05643
354,29.462,1.90087,-0.05643
354.5,29.5104,1.90868,-0.05643
355,29.559,1.91066,-0.0564298
355.5,29.6056,1.91049,-0.0567525
356,29.6544,1.91014,-0.05676
356.5,29.7011,1.91161,-0.05676
357,29.7519,1.91558,-0.0567035
357.5,29.799,1.91915,-0.0574099
358,29.8471,1.92022,-0.0585023
358.5,29.8956,1.91429,-0.05873
359,29.9436,1.91733,-0.05873
359.5,29.9922,1.92049,-0.0587308
360,30.0402,1.9305,-0.0590631
360.5,30.0889,1.92979,-0.0580545
361,30.1378,1.93783,-0.0577403
361.5,30.1857,1.93376,-0.0590903
362,30.2329,1.94777,-0.0603816
362.5,30.2813,1.94995,-0.0600475
363,30.3283,1.95514,-0.06005
363.5,30.3788,1.95325,-0.06005
364,30.4266,1.95996,-0.06005
364.5,30.4753,1.96458,-0.0600558
365,30.5231,1.97156,-0.0609433
365.5,30.5718,1.97389,-0.0607091
366,30.6197,1.98101,-0.0593981
366.5,30.6697,1.98828,-0.05939
367,30.7167,1.99077,-0.059415
367.5,30.7638,2.00104,-0.06071
368,30.8135,2.01082,-0.060709
368.5,30.8619,2.01422,-0.0613684
369,30.9095,2.02575,-0.06137
369.5,30.9581,2.03035,-0.0613704
370,31.0066,2.03891,-0.0627038
370.5,31.0548,2.04243,-0.06269
371,31.1027,2.0511,-0.06269
371.5,31.1515,2.07021,-0.06269
372,31.199,2.08273,-0.0626847
372.5,31.2478,2.09024,-0.064006
373,31.2961,2.10624,-0.064
373.5,31.3452,2.11596,-0.0639999
374,31.3937,2.12628,-0.065284
374.5,31.4413,2.13771,-0.06532
375,31.4893,2.14707,-0.06532
375.5,31.5384,2.16304,-0.0653203
376,31.5865,2.1755,-0.0663013
376.5,31.6344,2.19556,-0.0662574
377,31.6838,2.20768,-0.0658441
377.5,31.7316,2.22191,-0.0666396
378,31.7809,2.237,-0.0679598
378.5,31.8296,2.25261,-0.0690383
379,31.8761,2.27163,-0.06927
379.5,31.9266,2.28954,-0.06927
380,31.9752,2.31414,-0.0692799
380.5,32.0227,2.33914,-0.07059
381,32.0721,2.36325,-0.07059
381.5,32.1202,2.38359,-0.0705909
382,32.1696,2.41029,-0.071913
382.5,32.2182,2.44392,-0.0719116
383,32.2664,2.47211,-0.0732236
383.5,32.3156,2.50768,-0.0731257
384,32.3639,2.53928,-0.0732896
384.5,32.4124,2.57189,-0.0758611
385,32.4611,2.60976,-0.0741013
385.5,32.5115,2.65352,-0.0763063
386,32.5594,2.68718,-0.0793597
386.5,32.609,2.73395,-0.0793675
387,32.6578,2.76602,-0.0805631
387.5,32.7065,2.82444,-0.0815019
388,32.7561,2.86662,-0.0833425
388.5,32.8053,2.90716,-0.0853858
389,32.8531,2.95273,-0.0864611
389.5,32.9031,3.00878,-0.0877932
390,32.9515,3.06741,-0.0882972
390.5,33.0011,3.1231,-0.0896539
391,33.0507,3.17386,-0.0911302
391.5,33.0994,3.23119,-0.0925886
392,33.1487,3.28127,-0.0954161
392.5,33.1967,3.33956,-0.0969198
393,33.2461,3.39808,-0.0995322
393.5,33.2952,3.46644,-0.101107
394,33.3437,3.5074,-0.103791
394.5,33.3924,3.56992,-0.107384
395,33.443,3.62215,-0.110825
395.5,33.4919,3.67971,-0.113926
396,33.541,3.74703,-0.117569
396.5,33.5896,3.81194,-0.120654
397,33.6394,3.87511,-0.123812
397.5,33.6887,3.94585,-0.127581
398,33.7373,4.01286,-0.131284
398.5,33.7873,4.08341,-0.135409
399,33.8366,4.15588,-0.138485
399.5,33.8856,4.23549,-0.142519
400,33.9345,4.30603,-0.147086
400.5,33.9842,4.40821,-0.152475
401,34.0348,4.50136,-0.159062
401.5,34.0843,4.59571,-0.164797
402,34.1339,4.68923,-0.171577
402.5,34.182,4.77926,-0.177446
403,34.2328,4.87179,-0.185443
403.5,34.2822,4.96935,-0.191844
404,34.3328,5.08616,-0.199222
404.5,34.3818,5.19633,-0.206747
405,34.4311,5.31191,-0.214596
405.5,34.481,5.42966,-0.22342
406,34.5291,5.55102,-0.233404
406.5,34.5819,5.68861,-0.243085
407,34.6322,5.82079,-0.253357
407.5,34.6821,5.95155,-0.265005
408,34.7316,6.08806,-0.276835
408.5,34.7831,6.22847,-0.289529
409,34.832,6.34277,-0.302388
409.5,34.8818,6.49299,-0.31634
410,34.931,6.66487,-0.331133
410.5,34.9837,6.85737,-0.346418
411,35.0337,7.02216,-0.363082
411.5,35.0818,7.12736,-0.379367
412,35.1353,7.31615,-0.398536
412.5,35.1863,7.51813,-0.416658
413,35.2372,7.72672,-0.436674
413.5,35.2881,7.93107,-0.457476
414,35.3394,8.15028,-0.480839
414.5,35.3919,8.378,-0.505266
415,35.4419,8.59019,-0.529828
415.5,35.4939,8.82164,-0.557472
416,35.5452,9.06265,-0.585219
416.5,35.5967,9.28044,-0.614414
417,35.6489,9.572,-0.647007
417.5,35.7004,9.74819,-0.680055
418,35.7524,10.0416,-0.714739
418.5,35.8024,10.2624,-0.748661
419,35.8557,10.5609,-0.788926
419.5,35.9084,10.8534,-0.830914
420,35.9593,11.0842,-0.872322
420.5,36.0114,11.3415,-0.918018
421,36.064,11.6112,-0.965003
421.5,36.115,11.9316,-1.01296
422,36.1692,12.1543,-1.06566
422.5,36.2209,12.4963,-1.11998
423,36.2706,12.6738,-1.17378
423.5,36.3245,12.9342,-1.23504
424,36.3765,13.2182,-1.29616
424.5,36.4279,13.4174,-1.35984
425,36.4798,13.6258,-1.42601
425.5,36.5303,13.7952,-1.49176
426,36.5811,13.9246,-1.56121
426.5,36.6327,14.0974,-1.63281
427,36.6828,14.22,-1.70571
427.5,36.7343,14.326,-1.78144
428,36.7838,14.3944,-1.85782
428.5,36.8324,14.4325,-1.93378
429,36.8825,14.4865,-2.01453
429.5,36.9311,14.4859,-2.09332
430,36.9806,14.4732,-2.17455
430.5,37.0286,14.3915,-2.25509
431,37.0766,14.3105,-2.33632
431.5,37.1249,14.2055,-2.41927
432,37.1734,14.0487,-2.50116
432.5,37.2206,13.8914,-2.58247
433,37.2662,13.673,-2.66057
433.5,37.3122,13.4321,-2.74043
434,37.3577,13.1575,-2.81841
434.5,37.4031,12.8392,-2.89602
435,37.4475,12.5039,-2.97152
435.5,37.494,12.0972,-3.04805
436,37.5383,11.6851,-3.12067
436.5,37.5802,11.278,-3.18684
437,37.6253,10.809,-3.25631
437.5,37.669,10.3206,-3.32103
438,37.7119,9.81138,-3.38262
438.5,37.7541,9.2682,-3.44193
439,37.7968,8.7147,-3.49974
439.5,37.8388,8.14228,-3.55257
440,37.8807,7.53737,-3.60247
440.5,37.9218,6.91671,-3.64748
441,37.9636,6.26037,-3.68963
441.5,38.0041,5.57782,-3.72704
442,38.0434,4.86894,-3.76019
442.5,38.0841,4.0975,-3.79009
443,38.1239,3.30198,-3.8149
443.5,38.1624,2.51823,-3.83419
444,38.203,1.80293,-3.84955
444.5,38.2447,1.26382,-3.86142
445,38.2879,0.891556,-3.87079
445.5,38.333,0.638792,-3.87542
446,38.3793,0.468311,-3.87901
446.5,38.4262,0.351919,-3.88143
447,38.4728,0.272447,-3.88411
447.5,38.5204,0.213896,-3.88754
448,38.5691,0.170572,-3.88948
448.5,38.6166,0.142375,-3.89141
449,38.6646,0.116323,-3.89234
449.5,38.7125,0.0998677,-3.89401
450,38.7609,0.0847254,-3.89498
450.5,38.8089,0.0685088,-3.8963
451,38.8573,0.049323,-3.89813
451.5,38.9062,0.0352645,-3.89944
452,38.9539,0.0264783,-3.90047
452.5,39.0029,0.0221291,-3.90091
453,39.0511,0.013751,-3.90223
453.5,39.0998,0.00381067,-3.90091
454,39.1476,-0.0057225,-3.90222
454.5,39.1968,-0.0203601,-3.90288
455,39.2448,-0.0231292,-3.90352
455.5,39.2942,-0.0229861,-3.90485
456,39.3408,-0.0307432,-3.90617
456.5,39.391,-0.0389885,-3.90617
457,39.4407,-0.0458462,-3.90484
457.5,39.4886,-0.045109,-3.90522
458,39.5382,-0.0431339,-3.90618
458.5,39.5867,-0.0477081,-3.90618
459,39.6352,-0.0526894,-3.90618
459.5,39.684,-0.0589054,-3.90618
460,39.7332,-0.05751,-3.90618
460.5,39.7818,-0.0642669,-3.90749
461,39.8302,-0.07175,-3.90745
461.5,39.8786,-0.0683227,-3.90815
462,39.9276,-0.0686139,-3.90815
462.5,39.9767,-0.0778394,-3.90815
463,40.0263,-0.0782519,-3.90896
463.5,40.0747,-0.07547,-3.90815
464,40.1231,-0.0782399,-3.90815
464.5,40.172,-0.0828794,-3.90815
465,40.2198,-0.0798672,-3.90859
465.5,40.2693,-0.0863624,-3.90947
466,40.3187,-0.0905962,-3.90947
466.5,40.369,-0.0858247,-3.90947
467,40.4167,-0.0866693,-3.90947
467.5,40.4658,-0.0841415,-3.90947
468,40.515,-0.0865233,-3.90947
468.5,40.5634,-0.0872746,-3.90983
469,40.6122,-0.088942,-3.91114
469.5,40.6615,-0.086286,-3.91112
470,40.7099,-0.0839099,-3.91113
470.5,40.7584,-0.0836252,-3.91211
471,40.8077,-0.0952325,-3.91211
471.5,40.8572,-0.0914301,-3.91211
472,40.9058,-0.0893108,-3.91096
472.5,40.9542,-0.088932,-3.91079
473,41.0003,-0.08349,-3.91071
473.5,41.053,-0.0903065,-3.91079
474,41.1026,-0.0923473,-3.90947
474.5,41.1495,-0.0902293,-3.90991
475,41.1987,-0.0925852,-3.91079
475.5,41.2492,-0.0851692,-3.91211
476,41.2974,-0.0923691,-3.91211
476.5,41.3464,-0.0849705,-3.91143
477,41.3958,-0.0909472,-3.91145
477.5,41.4446,-0.0874355,-3.91145
478,41.493,-0.0881966,-3.91145
478.5,41.54,-0.0911185,-3.91013
479,41.591,-0.0900296,-3.90882
479.5,41.6407,-0.0830666,-3.90881
480,41.6897,-0.0788734,-3.91145
480.5,41.7392,-0.0810324,-3.91145
481,41.789,-0.086049,-3.91014
481.5,41.8374,-0.0902138,-3.91013
482,41.8861,-0.0851923,-3.91013
482.5,41.9353,-0.089691,-3.91112
483,41.9839,-0.0943118,-3.91115
483.5,42.0329,-0.0992391,-3.91013
484,42.082,-0.0967677,-3.91204
484.5,42.1315,-0.0982354,-3.91473
485,42.1811,-0.103366,-3.90992
485.5,42.2297,-0.101959,-3.90751
486,42.2787,-0.103291,-3.90881
486.5,42.3256,-0.101087,-3.90881
487,42.3764,-0.107234,-3.9097
487.5,42.4264,-0.106799,-3.91013
488,42.4753,-0.111275,-3.91013
488.5,42.5244,-0.108563,-3.91013
489,42.5739,-0.111527,-3.91013
489.5,42.6209,-0.110506,-3.91013
490,42.6716,-0.120357,-3.91013
490.5,42.7208,-0.110239,-3.91007
491,42.7699,-0.112948,-3.90914
491.5,42.8184,-0.109436,-3.91012
492,42.868,-0.117531,-3.9104
492.5,42.917,-0.113994,-3.91078
493,42.9669,-0.115651,-3.90947
493.5,43.0158,-0.116301,-3.90947
494,43.065,-0.118921,-3.90947
494.5,43.1136,-0.113362,-3.90947
495,43.1631,-0.116104,-3.90949
495.5,43.2126,-0.115913,-3.90913
496,43.2588,-0.119923,-3.90913
496.5,43.3106,-0.115954,-3.90913
497,43.3601,-0.116147,-3.90913
497.5,43.4097,-0.117341,-3.9091
498,43.4581,-0.118163,-3.90945
498.5,43.5068,-0.123177,-3.90815
499,43.5566,-0.117942,-3.90815
499.5,43.6054,-0.122806,-3.90945
500,43.6548,-0.116703,-3.90946
500.5,43.7044,-0.119724,-3.90967
501,43.7527,-0.114309,-3.91045
501.5,43.8021,-0.11352,-3.91045
502,43.8514,-0.114194,-3.91045
502.5,43.9006,-0.117331,-3.90915
503,43.9496,-0.121744,-3.90913
503.5,43.9988,-0.12088,-3.90913
504,44.0483,-0.124775,-3.90913
504.5,44.0976,-0.118672,-3.90913
505,44.1465,-0.122311,-3.90913
505.5,44.1955,-0.120369,-3.90913
506,44.2455,-0.126627,-3.90954
506.5,44.2939,-0.121458,-3.91387
507,44.3437,-0.124605,-3.90992
507.5,44.3931,-0.119206,-3.90807
508,44.4387,-0.122897,-3.90716
508.5,44.4925,-0.121724,-3.90716
509,44.541,-0.124352,-3.90828
509.5,44.5907,-0.120762,-3.90848
510,44.6392,-0.119057,-3.90848
510.5,44.6888,-0.122145,-3.90886
511,44.7388,-0.115396,-3.91111
511.5,44.7885,-0.116423,-3.91111
512,44.8374,-0.115277,-3.91099
512.5,44.8862,-0.119543,-3.90881
513,44.9359,-0.118998,-3.90881
513.5,44.9857,-0.122891,-3.90881
514,45.0357,-0.121366,-3.90881
514.5,45.084,-0.124971,-3.90881
515,45.1329,-0.128776,-3.90881
515.5,45.1825,-0.131853,-3.90968
516,45.2311,-0.13499,-3.91145
516.5,45.2814,-0.135159,-3.91145
517,45.3304,-0.132927,-3.9111
517.5,45.3804,-0.133633,-3.91014
518,45.43,-0.137981,-3.90913
518.5,45.4794,-0.13854,-3.91045
519,45.5285,-0.141353,-3.91045
519.5,45.577,-0.135151,-3.91045
520,45.6271,-0.140506,-3.91045
520.5,45.6765,-0.144601,-3.90913
521,45.7255,-0.144227,-3.90913
521.5,45.7764,-0.148706,-3.91045
522,45.8239,-0.153086,-3.91013
522.5,45.875,-0.154013,-3.91013
523,45.9241,-0.162955,-3.91013
523.5,45.9731,-0.156484,-3.91013
524,46.023,-0.159905,-3.9098
524.5,46.0731,-0.159889,-3.91009
525,46.1212,-0.161924,-3.9096
525.5,46.1715,-0.169562,-3.90697
526,46.2198,-0.166669,-3.90782
526.5,46.2704,-0.16853,-3.91102
527,46.3187,-0.171722,-3.91134
527.5,46.3692,-0.17802,-3.91134
528,46.4176,-0.170093,-3.91134
528.5,46.4692,-0.176821,-3.91134
529,46.5185,-0.18362,-3.91033
529.5,46.5674,-0.184604,-3.91035
530,46.6172,-0.185762,-3.91035
530.5,46.6665,-0.186531,-3.91035
531,46.7163,-0.19123,-3.91035
531.5,46.7662,-0.194778,-3.91035
532,46.8149,-0.19013,-3.91035
532.5,46.8651,-0.197105,-3.91035
533,46.9137,-0.201734,-3.90834
533.5,46.9622,-0.210427,-3.90812
534,47.0138,-0.207263,-3.91097
534.5,47.0642,-0.209423,-3.91145
535,47.1148,-0.206909,-3.91145
535.5,47.1624,-0.209691,-3.91145
536,47.2145,-0.210577,-3.91145
536.5,47.2638,-0.215834,-3.91013
537,47.3138,-0.216786,-3.91146
537.5,47.3675,-0.214332,-3.91145
538,47.4163,-0.213534,-3.91145
538.5,47.4674,-0.222348,-3.91145
539,47.519,-0.214531,-3.91145
539.5,47.5685,-0.223384,-3.91145
540,47.6193,-0.221633,-3.91145
540.5,47.67,-0.225481,-3.91145
541,47.7222,-0.238394,-3.91145
541.5,47.7716,-0.233577,-3.91145
542,47.8224,-0.235691,-3.91145
542.5,47.8728,-0.240575,-3.90874
543,47.9234,-0.235494,-3.90785
543.5,47.9746,-0.23958,-3.91162
544,48.0257,-0.241549,-3.91379
544.5,48.0753,-0.245665,-3.91374
545,48.1255,-0.245417,-3.91243
545.5,48.1753,-0.247682,-3.91243
546,48.2267,-0.254123,-3.91177
546.5,48.2743,-0.253632,-3.91177
547,48.3265,-0.254391,-3.91177
547.5,48.3766,-0.260935,-3.91177
548,48.4265,-0.261967,-3.91177
548.5,48.4771,-0.268392,-3.91177
549,48.5269,-0.279416,-3.91177
549.5,48.5749,-0.270621,-3.91177
550,48.6267,-0.275487,-3.91038
550.5,48.6768,-0.282345,-3.91045
551,48.726,-0.279476,-3.91045
551.5,48.7759,-0.276887,-3.91045
552,48.8261,-0.281197,-3.91045
552.5,48.8755,-0.279939,-3.91045
553,48.9258,-0.2859,-3.91177
553.5,48.975,-0.29576,-3.91177
554,49.0245,-0.303077,-3.91064
554.5,49.0748,-0.298878,-3.91177
555,49.124,-0.300761,-3.91309
555.5,49.1739,-0.307969,-3.91309
556,49.2238,-0.307723,-3.91309
556.5,49.2721,-0.307242,-3.91177
557,49.3215,-0.315821,-3.91177
557.5,49.3716,-0.320409,-3.91177
558,49.4191,-0.314587,-3.91309
558.5,49.4699,-0.317435,-3.91309
559,49.5196,-0.32089,-3.91309
559.5,49.5689,-0.321143,-3.91309
560,49.6187,-0.327269,-3.91309
560.5,49.6686,-0.325738,-3.91309
561,49.7176,-0.321292,-3.91413
561.5,49.7672,-0.32997,-3.91408
562,49.8166,-0.332118,-3.91408
562.5,49.8653,-0.326728,-3.91393
563,49.9156,-0.328881,-3.91277
563.5,49.9646,-0.329125,-3.91145
564,50.0127,-0.338149,-3.91225
564.5,50.0646,-0.336094,-3.91277
565,50.1137,-0.337086,-3.91277
565.5,50.163,-0.342743,-3.91269
566,50.2129,-0.339608,-3.91145
566.5,50.2626,-0.341914,-3.91145
567,50.3114,-0.341259,-3.91277
567.5,50.3611,-0.342428,-3.91277
568,50.4102,-0.340542,-3.91408
568.5,50.4601,-0.340242,-3.91408
569,50.5098,-0.344255,-3.91409
569.5,50.5594,-0.346931,-3.91276
570,50.6094,-0.342948,-3.91276
570.5,50.6579,-0.343424,-3.91276
571,50.7068,-0.340533,-3.91342
571.5,50.7569,-0.339111,-3.9121
572,50.8071,-0.340549,-3.91211
572.5,50.8569,-0.33455,-3.91345
573,50.9064,-0.345251,-3.91342
573.5,50.9556,-0.343584,-3.91342
574,51.0056,-0.345789,-3.91342
574.5,51.0554,-0.342225,-3.91342
575,51.1044,-0.346023,-3.91342
575.5,51.1544,-0.344358,-3.91342
576,51.2045,-0.336326,-3.91343
576.5,51.2541,-0.337738,-3.91474
577,51.3034,-0.338539,-3.91475
577.5,51.3529,-0.326927,-3.91342
578,51.4014,-0.334929,-3.91355
578.5,51.4522,-0.331342,-3.91474
579,51.5019,-0.334541,-3.91441
579.5,51.5511,-0.332387,-3.91309
580,51.6009,-0.329905,-3.91309
580.5,51.6515,-0.317743,-3.91309
581,51.6995,-0.321293,-3.91307
581.5,51.7501,-0.320347,-3.91408
582,51.8009,-0.317139,-3.91306
582.5,51.8494,-0.312891,-3.90836
583,51.8997,-0.311677,-3.9129
583.5,51.9504,-0.306323,-3.91473
584,51.9988,-0.301261,-3.91474
584.5,52.0493,-0.297807,-3.91429
585,52.0988,-0.301908,-3.9154
585.5,52.1492,-0.293958,-3.91474
586,52.1989,-0.28861,-3.91474
586.5,52.2481,-0.286986,-3.91438
587,52.2987,-0.284881,-3.91342
587.5,52.3476,-0.279905,-3.91343
588,52.3985,-0.271382,-3.91441
588.5,52.4483,-0.269803,-3.91474
589,52.4975,-0.269714,-3.91438
589.5,52.5487,-0.262068,-3.91301
590,52.5974,-0.259712,-3.91441
590.5,52.6477,-0.250153,-3.91364
591,52.6972,-0.252816,-3.91315
591.5,52.747,-0.250109,-3.91238
592,52.7974,-0.238736,-3.91375
592.5,52.8472,-0.240643,-3.91499
593,52.897,-0.235335,-3.91507
593.5,52.9463,-0.227293,-3.91475
594,52.9969,-0.224686,-3.91333
594.5,53.0463,-0.215628,-3.91309
595,53.0958,-0.220022,-3.91309
595.5,53.1459,-0.2159,-3.91309
596,53.1954,-0.207576,-3.91443
596.5,53.2453,-0.20813,-3.91397
597,53.2964,-0.20181,-3.91508
597.5,53.345,-0.198156,-3.91473
598,53.3944,-0.194958,-3.91374
598.5,53.4444,-0.194806,-3.91244
599,53.4913,-0.192731,-3.91357
599.5,53.5446,-0.18181,-3.91506
600,53.5937,-0.183999,-3.91402
600.5,53.6442,-0.183344,-3.91243
601,53.6939,-0.189939,-3.91243
601.5,53.7445,-0.181277,-3.9124
602,53.7947,-0.173819,-3.91309
602.5,53.844,-0.172085,-3.91443
603,53.8938,-0.170143,-3.91447
603.5,53.9434,-0.163308,-3.91309
604,53.992,-0.165098,-3.91309
604.5,54.0432,-0.157397,-3.91309
605,54.0933,-0.163509,-3.91309
605.5,54.1428,-0.157509,-3.91309
606,54.193,-0.162639,-3.91309
606.5,54.2425,-0.14775,-3.91309
607,54.2933,-0.146174,-3.91309
607.5,54.343,-0.142513,-3.91309
608,54.393,-0.145071,-3.91309
608.5,54.4429,-0.142446,-3.91309
609,54.4935,-0.126991,-3.91309
609.5,54.5432,-0.126637,-3.91197
610,54.593,-0.12535,-3.91243
610.5,54.6443,-0.118205,-3.91243
611,54.6946,-0.115092,-3.91243
611.5,54.7433,-0.109446,-3.91243
612,54.7947,-0.100641,-3.9124
612.5,54.8441,-0.103186,-3.9135
613,54.8948,-0.0999331,-3.91474
613.5,54.9448,-0.0893085,-3.91474
614,54.995,-0.0840445,-3.91408
614.5,55.0449,-0.0865453,-3.91407
615,55.0954,-0.0779131,-3.91276
615.5,55.1458,-0.0777417,-3.91276
616,55.1953,-0.0649966,-3.91276
616.5,55.2463,-0.0666916,-3.91375
617,55.2955,-0.061243,-3.91375
617.5,55.3459,-0.0566045,-3.91375
618,55.3963,-0.0581335,-3.91243
618.5,55.446,-0.0536122,-3.91342
619,55.4968,-0.053125,-3.91342
619.5,55.5467,-0.0534524,-3.91342
620,55.5966,-0.0526542,-3.91342
620.5,55.6466,-0.0479202,-3.91342
621,55.6961,-0.0481017,-3.91342
621.5,55.7463,-0.0573294,-3.91342
622,55.7972,-0.056,-3.91342
622.5,55.8465,-0.0529422,-3.91342
623,55.8966,-0.047495,-3.9121
623.5,55.9464,-0.048121,-3.9121
624,55.9971,-0.0433038,-3.91242
624.5,56.0465,-0.0436769,-3.91243
625,56.0965,-0.045542,-3.91243
625.5,56.1465,-0.0425363,-3.91243
626,56.1962,-0.0454517,-3.91276
626.5,56.2462,-0.0464351,-3.91276
627,56.2959,-0.0492969,-3.91276
627.5,56.346,-0.0371778,-3.91276
628,56.3954,-0.0411953,-3.91309
628.5,56.4451,-0.0498945,-3.91309
629,56.4942,-0.0483921,-3.91309
629.5,56.545,-0.0433385,-3.91236
630,56.5951,-0.0468085,-3.91177
630.5,56.6452,-0.0406277,-3.91177
631,56.6947,-0.0435403,-3.91307
631.5,56.7442,-0.0410207,-3.91309
632,56.7951,-0.0322885,-3.91309
632.5,56.8444,-0.0382117,-3.91408
633,56.8943,-0.0348082,-3.91406
633.5,56.9447,-0.0365356,-3.91342
634,56.9952,-0.0313942,-3.91276
634.5,57.0446,-0.0328218,-3.91276
635,57.0941,-0.0313037,-3.91276
635.5,57.1443,-0.031482,-3.91282
636,57.1941,-0.0404516,-3.91277
636.5,57.2437,-0.0334712,-3.91208
637,57.293,-0.037773,-3.91211
637.5,57.3432,-0.0385748,-3.91211
638,57.3939,-0.0388397,-3.91211
638.5,57.4438,-0.0401278,-3.91324
639,57.4938,-0.0414238,-3.91342
639.5,57.5432,-0.0353301,-3.91411
640,57.5927,-0.0364774,-3.91409
640.5,57.6427,-0.0338265,-3.9131
641,57.6924,-0.0300528,-3.9131
641.5,57.7427,-0.0432451,-3.9131
642,57.7917,-0.0412137,-3.9131
642.5,57.842,-0.0469956,-3.9131
643,57.892,-0.0397263,-3.9131
643.5,57.942,-0.0365737,-3.91277
644,57.9925,-0.0369455,-3.91209
644.5,58.0416,-0.0414434,-3.9119
645,58.0896,-0.0436211,-3.91178
645.5,58.1416,-0.0372283,-3.91178
646,58.1911,-0.0323351,-3.91178
646.5,58.241,-0.0387787,-3.91178
647,58.2909,-0.0380392,-3.91243
647.5,58.3408,-0.0351265,-3.91243
648,58.3909,-0.0423762,-3.91243
648.5,58.4418,-0.0342183,-3.91243
649,58.4911,-0.038451,-3.91243
649.5,58.5411,-0.0427627,-3.91376
650,58.5915,-0.0473281,-3.91375
650.5,58.6415,-0.0488506,-3.91375
651,58.6902,-0.0467131,-3.91375
651.5,58.7411,-0.0403174,-3.91375
652,58.7895,-0.0482321,-3.91308
652.5,58.8407,-0.0430256,-3.91276
653,58.8911,-0.0429713,-3.9121
653.5,58.9403,-0.0358267,-3.9121
654,58.9907,-0.0369938,-3.91211
654.5,59.0404,-0.0387316,-3.91677
655,59.0906,-0.0399286,-3.91396
655.5,59.1385,-0.044076,-3.90991
656,59.1906,-0.0457373,-3.9099
656.5,59.2409,-0.0459234,-3.90916
657,59.2907,-0.0431521,-3.90925
657.5,59.3405,-0.0333233,-3.90925
658,59.3905,-0.0323859,-3.90925
658.5,59.4393,-0.0380973,-3.91067
659,59.4896,-0.0431213,-3.91155
659.5,59.5426,-0.035225,-3.91155
660,59.5919,-0.0341867,-3.91155
660.5,59.6427,-0.0364052,-3.91155
661,59.6928,-0.0377308,-3.91089
661.5,59.7433,-0.0381474,-3.91089
662,59.7944,-0.0340527,-3.91089
662.5,59.8442,-0.0314946,-3.9099
663,59.8953,-0.0345474,-3.91025
663.5,59.9463,-0.0253222,-3.91122
664,59.9958,-0.0242698,-3.91122
664.5,60.0462,-0.0317993,-3.91142
665,60.0969,-0.0212843,-3.91485
665.5,60.148,-0.0228243,-3.91105
666,60.199,-0.0182833,-3.90814
666.5,60.2493,-0.0263375,-3.909
667,60.3013,-0.0247068,-3.90925
667.5,60.3507,-0.0271597,-3.90925
668,60.4014,-0.0301609,-3.91057
668.5,60.4514,-0.022801,-3.91057
669,60.5004,-0.0185349,-3.91057
669.5,60.5531,-0.0282915,-3.91057
670,60.6036,-0.0199777,-3.91109
670.5,60.6542,-0.0189948,-3.91189
671,60.7053,-0.0164847,-3.91189
671.5,60.7556,-0.025236,-3.91189
672,60.8059,-0.0191852,-3.91075
672.5,60.8571,-0.022203,-3.90925
673,60.9081,-0.0277411,-3.90925
673.5,60.957,-0.0260016,-3.91014
674,61.0086,-0.0209457,-3.91057
674.5,61.0588,-0.0267192,-3.91057
675,61.1092,-0.029412,-3.91057
675.5,61.1596,-0.0183727,-3.91057
676,61.2104,-0.0335279,-3.91057
676.5,61.2604,-0.0302442,-3.91057
677,61.3108,-0.0257198,-3.91054
677.5,61.3617,-0.0270302,-3.91091
678,61.4114,-0.0259185,-3.90991
678.5,61.462,-0.0368598,-3.90991
679,61.5116,-0.0413399,-3.91017
679.5,61.5604,-0.0384668,-3.91089
680,61.612,-0.0349336,-3.91089
680.5,61.6632,-0.0483205,-3.91125
681,61.7129,-0.040388,-3.9103
681.5,61.7631,-0.0415322,-3.9114
682,61.8129,-0.0421943,-3.91133
682.5,61.8639,-0.0481839,-3.91132
683,61.914,-0.0480424,-3.91001
683.5,61.9636,-0.0582978,-3.91001
684,62.0137,-0.0553265,-3.91133
684.5,62.0649,-0.0555048,-3.91133
685,62.115,-0.057286,-3.91265
685.5,62.1649,-0.0618238,-3.91265
686,62.214,-0.0645169,-3.91266
686.5,62.2651,-0.0597468,-3.91133
687,62.3149,-0.0630654,-3.91133
687.5,62.3658,-0.0605275,-3.91133
688,62.4158,-0.0631527,-3.91133
688.5,62.4656,-0.0607075,-3.91131
689,62.5157,-0.0654075,-3.91265
689.5,62.566,-0.0626113,-3.91265
690,62.6153,-0.0649645,-3.91134
690.5,62.6661,-0.065278,-3.91133
691,62.7169,-0.0677437,-3.91336
691.5,62.7662,-0.0675992,-3.91515
692,62.8165,-0.0704326,-3.91034
692.5,62.8677,-0.0701612,-3.91024
693,62.9172,-0.0734276,-3.90887
693.5,62.9673,-0.0729134,-3.90892
694,63.018,-0.0698461,-3.91058
694.5,63.0689,-0.0765675,-3.91156
695,63.1183,-0.0795903,-3.91156
695.5,63.1684,-0.0801921,-3.91024
696,63.2189,-0.0780656,-3.91024
696.5,63.2689,-0.0854856,-3.91156
697,63.32,-0.0859302,-3.91028
697.5,63.37,-0.0812279,-3.91024
698,63.4198,-0.0885339,-3.91024
698.5,63.4706,-0.0843136,-3.91024
699,63.5204,-0.093579,-3.91024
699.5,63.5715,-0.0902371,-3.91026
700,63.6204,-0.0952682,-3.91156
700.5,63.6722,-0.0877077,-3.91024
701,63.7225,-0.0906197,-3.91396
701.5,63.7733,-0.0873213,-3.91555
702,63.8234,-0.0937807,-3.91019
702.5,63.8747,-0.10167,-3.9087
703,63.9244,-0.0925357,-3.9087
703.5,63.9746,-0.0894813,-3.9087
704,64.0258,-0.100777,-3.90969
704.5,64.0757,-0.0954585,-3.91001
705,64.1258,-0.0989502,-3.91133
705.5,64.1765,-0.099317,-3.91133
706,64.2269,-0.104906,-3.91133
706.5,64.2778,-0.102612,-3.90999
707,64.3278,-0.105457,-3.91001
707.5,64.379,-0.102366,-3.91001
708,64.4287,-0.105027,-3.91133
708.5,64.4806,-0.104745,-3.91101
709,64.5305,-0.113913,-3.911
709.5,64.5808,-0.111292,-3.911
710,64.6307,-0.112948,-3.911
710.5,64.6802,-0.119512,-3.91096
711,64.7311,-0.119713,-3.91133
711.5,64.7824,-0.123902,-3.91133
712,64.8325,-0.118488,-3.91133
712.5,64.8826,-0.131069,-3.91133
713,64.9334,-0.131531,-3.91133
713.5,64.9835,-0.126094,-3.9127
714,65.0345,-0.129071,-3.91265
714.5,65.085,-0.135514,-3.91187
715,65.1358,-0.133099,-3.91067
715.5,65.1848,-0.136396,-3.90999
716,65.2358,-0.136361,-3.91001
716.5,65.2863,-0.131456,-3.91001
717,65.3371,-0.13603,-3.91001
717.5,65.3861,-0.138199,-3.91001
718,65.4374,-0.132275,-3.91001
718.5,65.488,-0.135115,-3.91109
719,65.5383,-0.139357,-3.91101
719.5,65.5886,-0.132036,-3.91101
720,65.6391,-0.135869,-3.91101
720.5,65.689,-0.134791,-3.91101
721,65.7397,-0.138612,-3.91084
721.5,65.7901,-0.136616,-3.912
722,65.8402,-0.140136,-3.91199
722.5,65.8901,-0.140325,-3.91054
723,65.9409,-0.139842,-3.91002
723.5,65.9916,-0.149739,-3.91003
724,66.0422,-0.138736,-3.90969
724.5,66.0911,-0.1465,-3.90969
725,66.1421,-0.151857,-3.90969
725.5,66.1928,-0.153777,-3.90969
726,66.2427,-0.147643,-3.91002
726.5,66.2935,-0.144965,-3.91069
727,66.3433,-0.148681,-3.90944
727.5,66.3932,-0.156399,-3.90816
728,66.4446,-0.157048,-3.91233
728.5,66.4949,-0.157199,-3.91221
729,66.5449,-0.154224,-3.91221
729.5,66.5957,-0.154627,-3.91089
730,66.6462,-0.149803,-3.91221
730.5,66.6963,-0.153904,-3.91349
731,66.7472,-0.154647,-3.91095
731.5,66.7969,-0.149807,-3.90955
732,66.8477,-0.15603,-3.90958
732.5,66.8975,-0.156123,-3.90958
733,66.9476,-0.161259,-3.9109
733.5,66.9968,-0.162507,-3.91089
734,67.0492,-0.157838,-3.9122
734.5,67.0989,-0.15677,-3.91221
735,67.1491,-0.160331,-3.91089
735.5,67.1988,-0.152865,-3.90989
736,67.2501,-0.157245,-3.9099
736.5,67.3007,-0.157214,-3.90994
737,67.3509,-0.163484,-3.90957
737.5,67.4014,-0.165732,-3.90957
738,67.4507,-0.164318,-3.91056
738.5,67.5018,-0.162221,-3.91056
739,67.5525,-0.158678,-3.90925
739.5,67.6031,-0.159647,-3.90925
740,67.6535,-0.16307,-3.91023
740.5,67.7031,-0.164625,-3.91019
741,67.7542,-0.168131,-3.90617
741.5,67.8032,-0.166108,-3.90869
742,67.855,-0.169931,-3.91166
742.5,67.904,-0.16543,-3.91166
743,67.9555,-0.172423,-3.91166
743.5,68.0068,-0.171171,-3.91166
744,68.057,-0.177835,-3.91166
744.5,68.1075,-0.167098,-3.91058
745,68.1583,-0.17782,-3.90903
745.5,68.2093,-0.179168,-3.90903
746,68.2598,-0.182385,-3.91101
746.5,68.3095,-0.182003,-3.91101
747,68.3605,-0.185275,-3.91101
747.5,68.4107,-0.184324,-3.91101
748,68.4614,-0.194632,-3.91132
748.5,68.5119,-0.193723,-3.91146
749,68.5627,-0.193447,-3.911
749.5,68.6136,-0.196625,-3.91101
750,68.6639,-0.204801,-3.91215
750.5,68.7146,-0.196053,-3.91101
751,68.7649,-0.200162,-3.90969
751.5,68.8161,-0.202701,-3.90969
752,68.8661,-0.206979,-3.90969
752.5,68.9162,-0.212135,-3.91035
753,68.9674,-0.210704,-3.91035
753.5,69.016,-0.205949,-3.91035
754,69.0677,-0.206263,-3.90946
754.5,69.1187,-0.211783,-3.90903
755,69.169,-0.208267,-3.90903
755.5,69.2208,-0.20501,-3.90903
756,69.2711,-0.202309,-3.90968
756.5,69.3213,-0.21222,-3.90969
757,69.3721,-0.214539,-3.90967
757.5,69.4241,-0.211462,-3.911
758,69.4742,-0.217329,-3.9133
758.5,69.522,-0.221119,-3.91331
759,69.5747,-0.219605,-3.912
759.5,69.6249,-0.21841,-3.91061
760,69.6759,-0.213859,-3.91067
760.5,69.7267,-0.220842,-3.91067
761,69.7771,-0.218636,-3.91085
761.5,69.8277,-0.219034,-3.91133
762,69.8782,-0.22391,-3.91133
762.5,69.9288,-0.22662,-3.91133
763,69.9792,-0.219533,-3.91092
763.5,70.0297,-0.219533,-3.91067
764,70.0803,-0.219968,-3.90935
764.5,70.1306,-0.215145,-3.90935
765,70.1819,-0.2235,-3.91068
765.5,70.2324,-0.223007,-3.91067
766,70.2823,-0.22287,-3.91067
766.5,70.3329,-0.21666,-3.91067
767,70.3832,-0.223137,-3.91067
767.5,70.4344,-0.2224,-3.91067
768,70.4847,-0.217914,-3.91067
768.5,70.5347,-0.221748,-3.91067
769,70.5851,-0.21797,-3.91067
769.5,70.6358,-0.221136,-3.91067
770,70.6855,-0.219196,-3.91066
770.5,70.7375,-0.221604,-3.90936
771,70.7875,-0.216666,-3.90837
771.5,70.8381,-0.220161,-3.90837
772,70.8889,-0.225113,-3.90969
772.5,70.9396,-0.225279,-3.90988
773,70.9898,-0.217897,-3.91101
773.5,71.0397,-0.221682,-3.91101
774,71.0907,-0.219687,-3.91101
774.5,71.1408,-0.217541,-3.90974
775,71.1923,-0.226585,-3.90969
775.5,71.2424,-0.223466,-3.90969
776,71.2924,-0.226427,-3.9097
776.5,71.3422,-0.226093,-3.91101
777,71.3932,-0.225389,-3.9097
777.5,71.4444,-0.223393,-3.90969
778,71.4946,-0.226,-3.90969
778.5,71.5453,-0.221312,-3.90971
779,71.5951,-0.224258,-3.91101
779.5,71.6458,-0.223677,-3.91123
780,71.6961,-0.234648,-3.91254
780.5,71.7478,-0.225116,-3.91254
781,71.7973,-0.226172,-3.91254
781.5,71.848,-0.233527,-3.91144
782,71.8988,-0.233198,-3.91122
782.5,71.9488,-0.23181,-3.9112
783,71.9986,-0.229288,-3.91123
783.5,72.0511,-0.229756,-3.91311
784,72.101,-0.233595,-3.91729
784.5,72.1517,-0.225832,-3.91069
785,72.2025,-0.235421,-3.90918
785.5,72.2529,-0.231635,-3.90827
786,72.3028,-0.233198,-3.90872
786.5,72.3535,-0.229525,-3.91023
787,72.4049,-0.229782,-3.91023
787.5,72.4554,-0.229319,-3.91023
788,72.5041,-0.226587,-3.91023
788.5,72.5562,-0.225152,-3.91024
789,72.6073,-0.230825,-3.90958
789.5,72.6582,-0.225717,-3.90967
790,72.7087,-0.220423,-3.91089