File: 01_Data/Nylon_Bourke/STA/N2/10K_min/Nylon_Bourke_STA_N2_10KData_250506_R2.csv
Temp./C,Time/min,DSC/(mW/mg),Mass loss/mg
50.0,0.0,0.962591,-0.0229742
50.5,0.0662013,0.975371,-0.0224647
51,0.132617,0.982679,-0.0232742
51.5,0.196788,1.00344,-0.0228922
52,0.261289,1.02103,-0.0235744
52.5,0.326125,1.03432,-0.0250135
53,0.384757,1.05047,-0.0266661
53.5,0.451129,1.06447,-0.0262408
54,0.514177,1.08149,-0.0260389
54.5,0.577425,1.09565,-0.0262419
55,0.633231,1.10517,-0.0261253
55.5,0.698127,1.12168,-0.0273401
56,0.759089,1.13917,-0.0262489
56.5,0.820099,1.1391,-0.0261836
57,0.878916,1.1577,-0.02756
57.5,0.939313,1.17271,-0.0277807
58,0.997541,1.18491,-0.0274882
58.5,1.0574,1.19482,-0.0278564
59,1.11358,1.21129,-0.0289355
59.5,1.17238,1.22651,-0.0287681
60,1.2319,1.23045,-0.0300804
60.5,1.28942,1.23867,-0.0287577
61,1.3453,1.24934,-0.0300844
61.5,1.40431,1.26097,-0.0301134
62,1.46058,1.26805,-0.0300914
62.5,1.51583,1.27404,-0.0299658
63,1.57359,1.27822,-0.0314031
63.5,1.62982,1.29806,-0.0315177
64,1.68528,1.30532,-0.0324566
64.5,1.74155,1.31953,-0.03282
65,1.79535,1.32177,-0.0329255
65.5,1.8515,1.33279,-0.0328294
66,1.90473,1.34335,-0.0321963
66.5,1.95991,1.34988,-0.030429
67,2.01439,1.35136,-0.032283
67.5,2.06846,1.35713,-0.0339444
68,2.12197,1.36529,-0.0343323
68.5,2.17608,1.37206,-0.0349091
69,2.22739,1.37189,-0.0352333
69.5,2.2833,1.38483,-0.0352782
70,2.33714,1.39051,-0.0366104
70.5,2.39022,1.39961,-0.0360694
71,2.44471,1.39788,-0.0352289
71.5,2.49634,1.40553,-0.0352166
72,2.5502,1.40918,-0.0365811
72.5,2.6025,1.41702,-0.0365613
73,2.65538,1.42119,-0.0366026
73.5,2.70813,1.42412,-0.0365609
74,2.75976,1.42255,-0.03656
74.5,2.81386,1.42662,-0.0364654
75,2.86474,1.42872,-0.03656
75.5,2.91391,1.43062,-0.0364043
76,2.96901,1.42871,-0.03656
76.5,3.02137,1.43596,-0.0378709
77,3.07213,1.42815,-0.0391925
77.5,3.12493,1.42177,-0.0378736
78,3.17469,1.42576,-0.0392001
78.5,3.22609,1.42731,-0.0387536
79,3.27783,1.42634,-0.0392016
79.5,3.32885,1.42511,-0.0405015
80,3.38189,1.42947,-0.0398643
80.5,3.43208,1.43371,-0.0405448
81,3.48325,1.43169,-0.04062
81.5,3.53412,1.42739,-0.0406563
82,3.58521,1.42758,-0.04062
82.5,3.6362,1.42912,-0.0406134
83,3.68622,1.42379,-0.0412826
83.5,3.73685,1.42082,-0.0413373
84,3.78756,1.42342,-0.0416108
84.5,3.83814,1.42203,-0.0402883
85,3.88874,1.42207,-0.0405806
85.5,3.93838,1.41445,-0.0441407
86,3.99023,1.41795,-0.0441353
86.5,4.03963,1.41913,-0.0413888
87,4.08977,1.40936,-0.04117
87.5,4.14076,1.41277,-0.0411697
88,4.18996,1.40698,-0.0424901
88.5,4.24012,1.40872,-0.0424898
89,4.28993,1.40969,-0.0429558
89.5,4.33799,1.40944,-0.0424171
90,4.3885,1.40923,-0.0427225
90.5,4.43847,1.40683,-0.0437721
91,4.48721,1.40227,-0.0438088
91.5,4.53694,1.39912,-0.0438471
92,4.58666,1.39636,-0.0437964
92.5,4.63614,1.40533,-0.0451202
93,4.68505,1.3997,-0.04512
93.5,4.73559,1.39979,-0.0451303
94,4.78422,1.39555,-0.0437976
94.5,4.83285,1.40464,-0.0440413
95,4.88335,1.40617,-0.0438
95.5,4.9316,1.40285,-0.0437986
96,4.98047,1.40082,-0.0451166
96.5,5.02959,1.3985,-0.0439361
97,5.07705,1.39737,-0.0438935
97.5,5.12741,1.39259,-0.0428133
98,5.17664,1.39749,-0.0441393
98.5,5.22244,1.4022,-0.0441067
99,5.27404,1.40329,-0.0450566
99.5,5.32234,1.39907,-0.0464469
100,5.3699,1.4065,-0.0451441
100.5,5.42004,1.40018,-0.04512
101,5.46793,1.39729,-0.0451201
101.5,5.51686,1.40463,-0.0442282
102,5.56468,1.40611,-0.0451198
102.5,5.61367,1.40494,-0.04512
103,5.66151,1.40471,-0.0450068
103.5,5.70996,1.40486,-0.0451685
104,5.75931,1.41245,-0.0462083
104.5,5.80708,1.40037,-0.0449015
105,5.85536,1.41002,-0.0449001
105.5,5.9036,1.40973,-0.0452474
106,5.95173,1.41687,-0.0465384
106.5,6.00106,1.41223,-0.0452233
107,6.04724,1.41923,-0.0465493
107.5,6.09858,1.42056,-0.04655
108,6.14669,1.42337,-0.04655
108.5,6.1939,1.43311,-0.0465468
109,6.24157,1.43087,-0.0452387
109.5,6.29123,1.42952,-0.045249
110,6.33954,1.43395,-0.0452368
110.5,6.38742,1.43482,-0.04523
111,6.43564,1.43767,-0.04523
111.5,6.48372,1.43136,-0.0452255
112,6.53211,1.43181,-0.0452327
112.5,6.58033,1.43429,-0.0452301
113,6.62725,1.43779,-0.0465651
113.5,6.67686,1.43505,-0.0465519
114,6.72493,1.44655,-0.0458072
114.5,6.77244,1.4421,-0.0465486
115,6.82124,1.44401,-0.0452361
115.5,6.86702,1.4562,-0.04524
116,6.91717,1.45624,-0.0454767
116.5,6.96484,1.45567,-0.04557
117,7.01302,1.46357,-0.0459298
117.5,7.06074,1.46495,-0.0454131
118,7.11003,1.4694,-0.0464709
118.5,7.15745,1.46729,-0.0465498
119,7.20502,1.47124,-0.047909
119.5,7.25368,1.4693,-0.0467493
120,7.30217,1.47976,-0.0465539
120.5,7.34963,1.48713,-0.0478708
121,7.39524,1.48598,-0.04787
121.5,7.44615,1.49732,-0.04787
122,7.49434,1.49427,-0.0478717
122.5,7.54263,1.50214,-0.0465521
123,7.59037,1.50958,-0.04655
123.5,7.63769,1.51692,-0.04655
124,7.68597,1.51945,-0.0457665
124.5,7.73389,1.53144,-0.0452399
125,7.78122,1.53661,-0.0463607
125.5,7.829,1.54856,-0.04655
126,7.87725,1.5516,-0.0465487
126.5,7.92523,1.56768,-0.0478685
127,7.9729,1.57143,-0.0465317
127.5,8.02194,1.58255,-0.0465499
128,8.06822,1.59615,-0.046869
128.5,8.11621,1.61016,-0.0475463
129,8.16454,1.6254,-0.0475344
129.5,8.21234,1.64085,-0.0477916
130,8.26065,1.65097,-0.0472101
130.5,8.30848,1.67499,-0.0466505
131,8.35622,1.68962,-0.0470637
131.5,8.40296,1.7059,-0.04786
132,8.45151,1.72543,-0.04786
132.5,8.49898,1.74551,-0.04786
133,8.54799,1.76584,-0.0478799
133.5,8.59557,1.77492,-0.0467803
134,8.64292,1.78934,-0.04787
134.5,8.68982,1.81147,-0.0478701
135,8.7388,1.82001,-0.0465443
135.5,8.78671,1.83092,-0.04655
136,8.83497,1.83313,-0.04655
136.5,8.88164,1.84106,-0.04655
137,8.92923,1.84812,-0.04655
137.5,8.97708,1.84564,-0.0463102
138,9.0233,1.84152,-0.0465468
138.5,9.07135,1.8429,-0.0465501
139,9.11936,1.83816,-0.0452288
139.5,9.16764,1.84293,-0.0451934
140,9.21314,1.82064,-0.0476445
140.5,9.26061,1.82371,-0.0478604
141,9.3071,1.81611,-0.0465507
141.5,9.35516,1.81409,-0.0465634
142,9.40245,1.81073,-0.04786
142.5,9.44928,1.80206,-0.04786
143,9.49727,1.80323,-0.0478601
143.5,9.54503,1.79141,-0.0469938
144,9.59119,1.78232,-0.04787
144.5,9.63974,1.77712,-0.04787
145,9.68663,1.77569,-0.04787
145.5,9.7341,1.77953,-0.0478703
146,9.78134,1.77429,-0.0492102
146.5,9.82798,1.77288,-0.0478702
147,9.87435,1.77613,-0.04787
147.5,9.92268,1.76647,-0.04787
148,9.9694,1.7625,-0.0474787
148.5,10.0175,1.75864,-0.04655
149,10.0642,1.76729,-0.0452735
149.5,10.1115,1.76556,-0.0455615
150,10.1587,1.75996,-0.0478692
150.5,10.2042,1.77297,-0.04787
151,10.253,1.76478,-0.0478698
151.5,10.299,1.75922,-0.0478849
152,10.3467,1.75963,-0.04786
152.5,10.3947,1.76449,-0.04786
153,10.4417,1.75866,-0.047528
153.5,10.4883,1.75343,-0.04753
154,10.535,1.75314,-0.0475302
154.5,10.5827,1.75337,-0.0476108
155,10.6299,1.74471,-0.0474945
155.5,10.676,1.73253,-0.0475879
156,10.7235,1.729,-0.04754
156.5,10.7711,1.72468,-0.0481615
157,10.8179,1.71054,-0.0483304
157.5,10.8642,1.70053,-0.0495201
158,10.9109,1.68334,-0.0495195
158.5,10.9586,1.68314,-0.0481987
159,11.0052,1.66474,-0.0482
159.5,11.052,1.6541,-0.0482
160,11.0989,1.64319,-0.0482
160.5,11.1444,1.61659,-0.0481998
161,11.193,1.60014,-0.0472049
161.5,11.2395,1.58123,-0.0485201
162,11.2858,1.56259,-0.04852
162.5,11.3321,1.5291,-0.04852
163,11.3798,1.50387,-0.0481982
163.5,11.4259,1.46658,-0.0495113
164,11.4725,1.43517,-0.0482099
164.5,11.52,1.39623,-0.0482
165,11.5663,1.35277,-0.0482
165.5,11.6097,1.30239,-0.0482773
166,11.6585,1.27208,-0.0478755
166.5,11.706,1.22598,-0.0485294
167,11.7508,1.19902,-0.0475359
167.5,11.7982,1.17064,-0.0481905
168,11.8462,1.1514,-0.0482
168.5,11.893,1.15152,-0.0482
169,11.9398,1.15675,-0.048453
169.5,11.9867,1.17504,-0.0490251
170,12.0342,1.20228,-0.0482
170.5,12.0816,1.24785,-0.0482
171,12.1296,1.29608,-0.0482147
171.5,12.1775,1.33387,-0.0495114
172,12.2247,1.37272,-0.04951
172.5,12.2731,1.4198,-0.0495042
173,12.3199,1.4724,-0.0481199
173.5,12.3681,1.50163,-0.0495139
174,12.4148,1.52987,-0.0481888
174.5,12.4619,1.56322,-0.0485429
175,12.5101,1.59892,-0.04852
175.5,12.5577,1.62569,-0.0495176
176,12.6054,1.6449,-0.0481992
176.5,12.6527,1.67445,-0.0482
177,12.7001,1.68452,-0.0482
177.5,12.7473,1.70244,-0.0482
178,12.7954,1.71778,-0.0481973
178.5,12.8428,1.73131,-0.0495241
179,12.8909,1.74492,-0.0482208
179.5,12.9368,1.74963,-0.0482
180,12.9844,1.76727,-0.0482
180.5,13.0319,1.775,-0.0481599
181,13.0788,1.78088,-0.04951
181.5,13.127,1.79049,-0.04951
182,13.1731,1.79309,-0.04951
182.5,13.2211,1.80373,-0.04951
183,13.2648,1.80996,-0.04951
183.5,13.3139,1.82272,-0.049543
184,13.362,1.82781,-0.0481897
184.5,13.4087,1.82928,-0.0481897
185,13.4532,1.84171,-0.0495321
185.5,13.5024,1.84236,-0.0482472
186,13.5496,1.84661,-0.04819
186.5,13.5968,1.84655,-0.04819
187,13.6441,1.85423,-0.0486399
187.5,13.6912,1.85239,-0.04951
188,13.7384,1.85491,-0.0495103
188.5,13.7854,1.86982,-0.0481901
189,13.8328,1.86689,-0.0481899
189.5,13.8789,1.8803,-0.0488537
190,13.9266,1.87222,-0.0492041
190.5,13.9734,1.88015,-0.04951
191,14.021,1.88849,-0.0493697
191.5,14.067,1.88874,-0.05083
192,14.1142,1.88925,-0.0508301
192.5,14.1609,1.90001,-0.0498012
193,14.2079,1.8956,-0.04985
193.5,14.2557,1.90616,-0.04985
194,14.3026,1.90269,-0.0505457
194.5,14.3492,1.90638,-0.0511601
195,14.3962,1.91862,-0.0511594
195.5,14.4438,1.92083,-0.0508291
196,14.4904,1.91862,-0.05083
196.5,14.5367,1.92986,-0.0508301
197,14.584,1.93118,-0.0495315
197.5,14.6317,1.92937,-0.0495165
198,14.6783,1.94057,-0.0508304
198.5,14.7253,1.94091,-0.05083
199,14.7731,1.94134,-0.05083
199.5,14.8199,1.94551,-0.0507335
200,14.8665,1.94624,-0.0495101
200.5,14.9138,1.9561,-0.04951
201,14.9595,1.95103,-0.0495189
201.5,15.0073,1.95789,-0.0509023
202,15.0545,1.95607,-0.05149
202.5,15.102,1.96283,-0.0514921
203,15.1486,1.96765,-0.0501654
203.5,15.1956,1.97165,-0.0501735
204,15.2426,1.97517,-0.0488478
204.5,15.2889,1.98058,-0.0488308
205,15.3367,1.98216,-0.0501698
205.5,15.3826,1.98673,-0.0501749
206,15.4308,1.9825,-0.0508296
206.5,15.4781,1.99272,-0.049847
207,15.5251,1.99746,-0.0498497
207.5,15.5716,2,-0.0505037
208,15.619,2.00488,-0.0526748
208.5,15.6662,2.00404,-0.0531304
209,15.713,2.00924,-0.0518159
209.5,15.7604,2.01158,-0.0505081
210,15.807,2.01954,-0.0505099
210.5,15.8545,2.02459,-0.0518176
211,15.9015,2.03292,-0.05182
211.5,15.9479,2.03794,-0.0518277
212,15.9962,2.04288,-0.0526328
212.5,16.0418,2.04468,-0.0531418
213,16.0889,2.04756,-0.0518244
213.5,16.1367,2.05302,-0.05182
214,16.185,2.06377,-0.05182
214.5,16.233,2.07463,-0.0518023
215,16.2786,2.08139,-0.0534662
215.5,16.3248,2.08049,-0.05347
216,16.3731,2.09663,-0.05347
216.5,16.42,2.10716,-0.05347
217,16.4676,2.11244,-0.05347
217.5,16.5144,2.11791,-0.05347
218,16.5593,2.13187,-0.0533897
218.5,16.6084,2.13328,-0.05248
219,16.6565,2.14608,-0.05248
219.5,16.7028,2.1472,-0.0524789
220,16.7481,2.16134,-0.0528096
220.5,16.7975,2.17088,-0.0528306
221,16.8449,2.18841,-0.0525573
221.5,16.891,2.19723,-0.0538001
222,16.9377,2.21183,-0.0538376
222.5,16.9855,2.21987,-0.0531703
223,17.033,2.23012,-0.05412
223.5,17.0802,2.24157,-0.05412
224,17.1276,2.25698,-0.0541201
224.5,17.1729,2.2704,-0.0528209
225,17.2219,2.28186,-0.0534041
225.5,17.2666,2.29198,-0.0547551
226,17.316,2.3154,-0.0550964
226.5,17.3644,2.32791,-0.0564302
227,17.4114,2.33847,-0.05643
227.5,17.4571,2.35897,-0.05643
228,17.5058,2.36928,-0.05643
228.5,17.5539,2.38643,-0.0564562
229,17.6,2.40438,-0.0551097
229.5,17.6478,2.42285,-0.05511
230,17.6949,2.43802,-0.05511
230.5,17.7422,2.45904,-0.05511
231,17.7896,2.4728,-0.05511
231.5,17.8371,2.48379,-0.05511
232,17.8826,2.50583,-0.0551101
232.5,17.9317,2.51767,-0.0564298
233,17.9793,2.53654,-0.0577641
233.5,18.0269,2.55106,-0.05775
234,18.0734,2.57859,-0.0577502
234.5,18.1211,2.59431,-0.0563573
235,18.1691,2.60837,-0.05643
235.5,18.2164,2.63335,-0.05643
236,18.2638,2.65595,-0.05643
236.5,18.3087,2.67201,-0.05643
237,18.3559,2.69603,-0.0564306
237.5,18.4065,2.71202,-0.0574199
238,18.453,2.74373,-0.05742
238.5,18.5006,2.76422,-0.05742
239,18.5477,2.78379,-0.05742
239.5,18.5962,2.80927,-0.05742
240,18.6431,2.84118,-0.05742
240.5,18.6902,2.87292,-0.05742
241,18.7381,2.8867,-0.0574256
241.5,18.7855,2.91582,-0.0567604
242,18.8332,2.92505,-0.0563826
242.5,18.8804,2.94399,-0.05643
243,18.927,2.95995,-0.0564288
243.5,18.9753,2.95659,-0.0577551
244,19.0233,2.95012,-0.0588415
244.5,19.0698,2.93981,-0.0577399
245,19.117,2.92336,-0.05774
245.5,19.1636,2.89378,-0.05774
246,19.2106,2.87905,-0.05774
246.5,19.2575,2.83971,-0.05774
247,19.3046,2.79932,-0.05774
247.5,19.3514,2.76609,-0.05774
248,19.398,2.71504,-0.05774
248.5,19.4448,2.66589,-0.0580033
249,19.4915,2.6207,-0.05906
249.5,19.5378,2.57199,-0.05906
250,19.5849,2.52992,-0.05906
250.5,19.6318,2.49614,-0.05906
251,19.6793,2.46012,-0.05906
251.5,19.7259,2.43738,-0.05906
252,19.7738,2.42283,-0.05906
252.5,19.8207,2.41116,-0.05906
253,19.8677,2.4057,-0.05906
253.5,19.9138,2.41196,-0.059067
254,19.9611,2.40083,-0.0603805
254.5,20.0082,2.39662,-0.06038
255,20.055,2.37628,-0.060382
255.5,20.1032,2.345,-0.0577536
256,20.1485,2.32208,-0.0585246
256.5,20.1966,2.28941,-0.060278
257,20.2428,2.26172,-0.061591
257.5,20.2894,2.23766,-0.06159
258,20.3373,2.20979,-0.0615802
258.5,20.3838,2.18439,-0.0625802
259,20.4314,2.173,-0.06258
259.5,20.4784,2.15822,-0.06258
260,20.5246,2.14708,-0.0615804
260.5,20.5723,2.14301,-0.0616
261,20.6168,2.1373,-0.0615853
261.5,20.6676,2.13823,-0.0602795
262,20.714,2.13746,-0.0609238
262.5,20.7609,2.12817,-0.0612695
263,20.8085,2.13143,-0.0615901
263.5,20.8561,2.12706,-0.0623598
264,20.9027,2.12907,-0.0629101
264.5,20.9496,2.13147,-0.0622432
265,20.997,2.13486,-0.06225
265.5,21.044,2.13641,-0.06225
266,21.0912,2.13336,-0.06225
266.5,21.1395,2.13125,-0.06225
267,21.1865,2.12807,-0.0622502
267.5,21.2336,2.12797,-0.0616128
268,21.2799,2.13306,-0.0615903
268.5,21.328,2.13373,-0.0625663
269,21.3749,2.12689,-0.0615997
269.5,21.4227,2.12575,-0.0629096
270,21.4693,2.12655,-0.06291
270.5,21.516,2.13695,-0.06291
271,21.5643,2.1315,-0.06291
271.5,21.6117,2.14084,-0.06291
272,21.6563,2.13845,-0.06291
272.5,21.7034,2.13483,-0.06291
273,21.7533,2.13523,-0.06291
273.5,21.8012,2.13297,-0.062906
274,21.8487,2.13984,-0.0642304
274.5,21.896,2.13749,-0.0622991
275,21.9433,2.14103,-0.0631022
275.5,21.9906,2.13989,-0.0645497
276,22.0372,2.14253,-0.0651819
276.5,22.0867,2.14556,-0.066536
277,22.1337,2.14626,-0.06653
277.5,22.1811,2.14394,-0.06653
278,22.2284,2.14756,-0.06653
278.5,22.2756,2.15634,-0.0665301
279,22.3205,2.15241,-0.0652097
279.5,22.3693,2.15042,-0.06521
280,22.417,2.15179,-0.0652124
280.5,22.4663,2.15403,-0.0647033
281,22.5132,2.14326,-0.06422
281.5,22.5585,2.15201,-0.0642196
282,22.6076,2.14389,-0.0631507
282.5,22.655,2.13025,-0.06456
283,22.7006,2.14012,-0.0645576
283.5,22.75,2.13039,-0.0655409
284,22.7982,2.13804,-0.0657758
284.5,22.846,2.14077,-0.0668599
285,22.8934,2.1454,-0.06686
285.5,22.9403,2.14333,-0.06686
286,22.9885,2.14272,-0.06686
286.5,23.0349,2.1326,-0.06686
287,23.0824,2.14157,-0.06686
287.5,23.1302,2.13657,-0.06686
288,23.1783,2.14495,-0.06686
288.5,23.2254,2.14139,-0.067018
289,23.2734,2.14591,-0.06817
289.5,23.3212,2.14046,-0.06817
290,23.3684,2.14271,-0.0681732
290.5,23.4163,2.14425,-0.0668572
291,23.4639,2.14022,-0.067746
291.5,23.5107,2.13853,-0.06817
292,23.5586,2.13813,-0.06817
292.5,23.6064,2.14562,-0.06817
293,23.6532,2.13742,-0.06817
293.5,23.7005,2.13915,-0.06817
294,23.7492,2.1411,-0.0681115
294.5,23.797,2.14769,-0.0694901
295,23.8433,2.14771,-0.0696903
295.5,23.8918,2.14424,-0.0708099
296,23.9391,2.1419,-0.07081
296.5,23.9859,2.14303,-0.07081
297,24.0343,2.14092,-0.07081
297.5,24.0804,2.13929,-0.0708102
298,24.129,2.13466,-0.0694658
298.5,24.176,2.12726,-0.06949
299,24.2218,2.13747,-0.06949
299.5,24.2722,2.13984,-0.06949
300,24.3183,2.13869,-0.06949
300.5,24.367,2.1365,-0.0708103
301,24.4147,2.14459,-0.0708119
301.5,24.4613,2.13808,-0.0705084
302,24.5093,2.14079,-0.0699411
302.5,24.5573,2.13206,-0.0711399
303,24.6042,2.13424,-0.0713995
303.5,24.6508,2.13676,-0.0718
304,24.6995,2.14429,-0.0718
304.5,24.7467,2.14612,-0.0718
305,24.7949,2.13977,-0.0722273
305.5,24.8428,2.13689,-0.0718
306,24.8906,2.1361,-0.0718
306.5,24.938,2.13781,-0.0718
307,24.9856,2.13145,-0.0718
307.5,25.0331,2.14208,-0.0718
308,25.0783,2.13089,-0.07213
308.5,25.1264,2.13826,-0.07312
309,25.1755,2.13257,-0.0731484
309.5,25.2231,2.14366,-0.0718006
310,25.269,2.13274,-0.074497
310.5,25.317,2.14673,-0.07444
311,25.3639,2.14973,-0.07444
311.5,25.412,2.14529,-0.0744396
312,25.4611,2.15001,-0.0757464
312.5,25.5089,2.14464,-0.0757563
313,25.5568,2.13752,-0.0754346
313.5,25.6042,2.14957,-0.07543
314,25.6521,2.14521,-0.07543
314.5,25.6999,2.13628,-0.0754409
315,25.7476,2.13596,-0.0741191
315.5,25.7957,2.13855,-0.07378
316,25.8435,2.13532,-0.07378
316.5,25.8901,2.14064,-0.07378
317,25.9392,2.13795,-0.07378
317.5,25.9858,2.13158,-0.07378
318,26.0332,2.13296,-0.0737045
318.5,26.0825,2.14044,-0.07345
319,26.1302,2.13428,-0.0734504
319.5,26.1768,2.14497,-0.0747803
320,26.2251,2.15068,-0.07476
320.5,26.2734,2.14886,-0.0747631
321,26.3206,2.16043,-0.0754194
321.5,26.369,2.15523,-0.07542
322,26.4166,2.1544,-0.075476
322.5,26.4645,2.16131,-0.0747694
323,26.5119,2.1571,-0.0760739
323.5,26.5567,2.15408,-0.0757502
324,26.6073,2.15887,-0.0744504
324.5,26.6554,2.15347,-0.0744478
325,26.7026,2.15592,-0.0760908
325.5,26.7512,2.15418,-0.07642
326,26.7987,2.15609,-0.07642
326.5,26.8464,2.16028,-0.07642
327,26.8944,2.15625,-0.0764193
327.5,26.9415,2.1609,-0.0777246
328,26.9904,2.16747,-0.0777362
328.5,27.0376,2.16278,-0.079051
329,27.0855,2.16,-0.0782969
329.5,27.1339,2.16444,-0.07773
330,27.1814,2.15844,-0.07773
330.5,27.2278,2.15737,-0.07773
331,27.2776,2.15475,-0.07773
331.5,27.3246,2.15838,-0.0777299
332,27.3729,2.1487,-0.0764234
332.5,27.4197,2.1439,-0.0764222
333,27.4678,2.13917,-0.0770692
333.5,27.5153,2.1437,-0.0770837
334,27.5633,2.13777,-0.0783798
334.5,27.6116,2.13745,-0.07838
335,27.659,2.13522,-0.0796937
335.5,27.7068,2.13266,-0.0797001
336,27.7546,2.13483,-0.0808351
336.5,27.8013,2.13459,-0.0797034
337,27.8491,2.13385,-0.0796952
337.5,27.8988,2.1297,-0.0783809
338,27.9453,2.13494,-0.0793971
338.5,27.9939,2.13564,-0.0796999
339,28.0425,2.13297,-0.0810107
339.5,28.0904,2.13418,-0.0810254
340,28.1369,2.13599,-0.08003
340.5,28.1851,2.13465,-0.0813512
341,28.2349,2.1196,-0.08135
341.5,28.2823,2.11443,-0.0813511
342,28.3301,2.12453,-0.0826717
342.5,28.3788,2.12025,-0.0839648
343,28.4254,2.11609,-0.08267
343.5,28.4738,2.10626,-0.0828415
344,28.5218,2.12481,-0.0839899
344.5,28.5682,2.12683,-0.08399
345,28.6176,2.13479,-0.0839898
345.5,28.6662,2.13073,-0.0830139
346,28.7135,2.13121,-0.083
346.5,28.7617,2.12908,-0.083
347,28.811,2.1321,-0.0829998
347.5,28.8584,2.13065,-0.0826672
348,28.9066,2.14119,-0.08271
348.5,28.9545,2.14216,-0.08234
349,29.0017,2.14667,-0.08234
349.5,29.0509,2.15255,-0.0819034
350,29.099,2.15119,-0.08135
350.5,29.1465,2.14847,-0.0813503
351,29.1955,2.15184,-0.0839906
351.5,29.2437,2.14829,-0.08399
352,29.2919,2.14741,-0.0839884
352.5,29.3393,2.1538,-0.0853139
353,29.3866,2.15802,-0.0852651
353.5,29.4355,2.15787,-0.0862819
354,29.4838,2.16236,-0.08629
354.5,29.5316,2.16252,-0.08596
355,29.5794,2.16932,-0.0845438
355.5,29.6263,2.1708,-0.0860062
356,29.6753,2.16605,-0.0862896
356.5,29.7245,2.17286,-0.08629
357,29.7709,2.18555,-0.08629
357.5,29.82,2.1813,-0.08629
358,29.8687,2.18591,-0.0842698
358.5,29.9165,2.18037,-0.0846919
359,29.9643,2.18882,-0.0879302
359.5,30.0135,2.18196,-0.0890083
360,30.0601,2.19642,-0.0903744
360.5,30.1091,2.2017,-0.09058
361,30.1575,2.20081,-0.0896617
361.5,30.2049,2.21983,-0.08926
362,30.2533,2.21686,-0.0893159
362.5,30.3016,2.23066,-0.0892625
363,30.3511,2.23049,-0.0892591
363.5,30.3983,2.24515,-0.087947
364,30.4478,2.23873,-0.08794
364.5,30.4957,2.2543,-0.0892968
365,30.5437,2.26073,-0.0906849
365.5,30.5917,2.27033,-0.09069
366,30.64,2.27302,-0.0906977
366.5,30.6892,2.27709,-0.0919993
367,30.7343,2.28861,-0.0906571
367.5,30.786,2.30009,-0.091753
368,30.8338,2.30249,-0.092
368.5,30.8821,2.31594,-0.092
369,30.9297,2.3251,-0.092
369.5,30.9784,2.34095,-0.092
370,31.0265,2.35075,-0.0920004
370.5,31.0742,2.35621,-0.0933072
371,31.1237,2.37221,-0.091998
371.5,31.1701,2.38632,-0.092
372,31.2206,2.3959,-0.092
372.5,31.2682,2.41114,-0.092
373,31.3162,2.4248,-0.092
373.5,31.3649,2.43444,-0.09266
374,31.4146,2.44904,-0.09332
374.5,31.4631,2.46398,-0.094138
375,31.5117,2.49056,-0.0946391
375.5,31.5568,2.50719,-0.0971883
376,31.608,2.53049,-0.0972689
376.5,31.6573,2.54486,-0.0959486
377,31.7048,2.57182,-0.0959487
377.5,31.7545,2.59843,-0.0966854
378,31.8024,2.62258,-0.0978828
378.5,31.851,2.64572,-0.0999129
379,31.8992,2.67071,-0.101241
379.5,31.9463,2.70616,-0.10123
380,31.9979,2.7363,-0.102539
380.5,32.0461,2.76466,-0.102539
381,32.0945,2.80207,-0.103854
381.5,32.1436,2.84128,-0.103931
382,32.1921,2.88369,-0.10386
382.5,32.2409,2.93787,-0.10386
383,32.2895,2.97383,-0.103861
383.5,32.3385,3.01452,-0.105181
384,32.3873,3.05218,-0.103863
384.5,32.4375,3.10332,-0.10386
385,32.4845,3.13438,-0.104905
385.5,32.5326,3.17513,-0.108001
386,32.5832,3.21478,-0.110332
386.5,32.6311,3.27038,-0.111746
387,32.6813,3.31964,-0.113132
387.5,32.7299,3.35,-0.11451
388,32.7791,3.4188,-0.117154
388.5,32.8271,3.46498,-0.118526
389,32.8772,3.52783,-0.120888
389.5,32.9265,3.58888,-0.122425
390,32.9754,3.64356,-0.124102
390.5,33.0225,3.68091,-0.125751
391,33.0743,3.75787,-0.128807
391.5,33.1227,3.79777,-0.130484
392,33.1716,3.85811,-0.133385
392.5,33.2209,3.90462,-0.133784
393,33.2704,3.96407,-0.137833
393.5,33.3204,4.02537,-0.136818
394,33.3685,4.08434,-0.146071
394.5,33.4176,4.15423,-0.151873
395,33.466,4.2276,-0.155379
395.5,33.5162,4.29222,-0.15733
396,33.5651,4.36562,-0.159513
396.5,33.6133,4.4438,-0.162739
397,33.6643,4.52585,-0.167978
397.5,33.7135,4.59086,-0.172495
398,33.7635,4.66746,-0.176097
398.5,33.8125,4.75347,-0.182354
399,33.8619,4.83459,-0.188377
399.5,33.9121,4.91975,-0.19335
400,33.962,5.0202,-0.198352
400.5,34.0108,5.10264,-0.203761
401,34.0614,5.19663,-0.210814
401.5,34.1115,5.29303,-0.217023
402,34.1603,5.40349,-0.224634
402.5,34.2105,5.53496,-0.232063
403,34.2617,5.65758,-0.240078
403.5,34.3106,5.71873,-0.24894
404,34.36,5.81589,-0.257383
404.5,34.4103,5.92917,-0.266636
405,34.4604,6.06798,-0.277449
405.5,34.5116,6.24407,-0.2884
406,34.561,6.38468,-0.297704
406.5,34.6117,6.51049,-0.310059
407,34.6614,6.64178,-0.323199
407.5,34.709,6.78394,-0.335389
408,34.7614,6.96442,-0.347731
408.5,34.8107,7.14954,-0.36149
409,34.8634,7.36849,-0.377471
409.5,34.9144,7.53882,-0.394035
410,34.9658,7.73087,-0.411752
410.5,35.016,7.90308,-0.428661
411,35.0671,8.0815,-0.446672
411.5,35.1176,8.25601,-0.466937
412,35.1686,8.46353,-0.48695
412.5,35.2197,8.70229,-0.508133
413,35.2702,8.86099,-0.529284
413.5,35.3219,9.09195,-0.560736
414,35.3736,9.36455,-0.586093
414.5,35.425,9.6079,-0.614627
415,35.4771,9.88856,-0.644462
415.5,35.5288,10.1396,-0.674298
416,35.5806,10.364,-0.708555
416.5,35.6325,10.6708,-0.741825
417,35.684,10.8888,-0.776424
417.5,35.736,11.1714,-0.814546
418,35.7873,11.3668,-0.85355
418.5,35.8396,11.6638,-0.895901
419,35.8914,11.9275,-0.941538
419.5,35.9451,12.2576,-0.989718
420,35.9971,12.4836,-1.03959
420.5,36.0486,12.7311,-1.08844
421,36.1004,12.9964,-1.13959
421.5,36.1531,13.2984,-1.19594
422,36.2056,13.57,-1.25479
422.5,36.2566,13.7616,-1.31356
423,36.3082,13.9672,-1.37735
423.5,36.3597,14.1925,-1.44245
424,36.4107,14.4139,-1.50844
424.5,36.4615,14.5342,-1.5766
425,36.5134,14.7535,-1.64724
425.5,36.5656,14.9045,-1.72202
426,36.6139,14.9789,-1.79549
426.5,36.6648,15.0633,-1.87415
427,36.7144,15.1079,-1.94805
427.5,36.7638,15.1439,-2.02685
428,36.8108,15.1444,-2.10697
428.5,36.8619,15.1415,-2.18923
429,36.9106,15.0686,-2.26641
429.5,36.9593,14.9978,-2.35254
430,37.0069,14.869,-2.43039
430.5,37.054,14.7332,-2.5127
431,37.1011,14.5652,-2.59191
431.5,37.1489,14.3412,-2.67474
432,37.1948,14.1124,-2.75413
432.5,37.2417,13.8135,-2.83487
433,37.2867,13.4856,-2.90974
433.5,37.3315,13.1702,-2.98976
434,37.3765,12.7698,-3.06383
434.5,37.4207,12.3766,-3.13785
435,37.4642,11.9443,-3.20809
435.5,37.5079,11.4828,-3.27466
436,37.5512,10.9846,-3.33826
436.5,37.5937,10.4885,-3.40162
437,37.6369,9.93346,-3.45864
437.5,37.6789,9.34656,-3.52035
438,37.7207,8.7427,-3.57759
438.5,37.7621,8.10618,-3.62627
439,37.8043,7.41078,-3.67311
439.5,37.8439,6.72798,-3.71371
440,37.8838,6.01494,-3.75121
440.5,37.924,5.23371,-3.78535
441,37.9632,4.399,-3.81197
441.5,38.0021,3.50723,-3.83672
442,38.0406,2.67669,-3.85585
442.5,38.0807,1.97545,-3.87149
443,38.1232,1.43859,-3.88314
443.5,38.1664,1.07084,-3.89217
444,38.2111,0.826752,-3.89888
444.5,38.2571,0.640052,-3.90275
445,38.3036,0.526619,-3.90772
445.5,38.3512,0.441535,-3.91084
446,38.3981,0.383763,-3.91233
446.5,38.4463,0.342207,-3.91593
447,38.4934,0.30781,-3.91826
447.5,38.5416,0.275362,-3.92126
448,38.5898,0.256742,-3.9225
448.5,38.6389,0.231467,-3.92257
449,38.6864,0.219221,-3.9239
449.5,38.735,0.199168,-3.92529
450,38.7837,0.182148,-3.9265
450.5,38.8313,0.175697,-3.92781
451,38.8806,0.158553,-3.92781
451.5,38.9284,0.143295,-3.92914
452,38.9768,0.135015,-3.93045
452.5,39.0255,0.120402,-3.93116
453,39.0742,0.108298,-3.93177
453.5,39.1235,0.106358,-3.93305
454,39.1723,0.095204,-3.93571
454.5,39.2214,0.0818487,-3.93571
455,39.2696,0.0816206,-3.93571
455.5,39.3185,0.0708462,-3.93667
456,39.3681,0.067581,-3.93478
456.5,39.416,0.0719383,-3.93295
457,39.4654,0.0616942,-3.93368
457.5,39.5146,0.0539439,-3.93428
458,39.5623,0.0405937,-3.93428
458.5,39.6126,0.036901,-3.93559
459,39.6612,0.0326165,-3.93714
459.5,39.7101,0.0363175,-3.93824
460,39.7591,0.0341878,-3.93811
460.5,39.808,0.0277677,-3.93692
461,39.8572,0.0289035,-3.93827
461.5,39.9063,0.0201385,-3.93824
462,39.955,0.0230844,-3.93967
462.5,40.0051,0.014574,-3.93967
463,40.053,0.00571066,-3.94076
463.5,40.1019,0.00586318,-3.93952
464,40.1512,0.00623205,-3.93956
464.5,40.2007,0.00330453,-3.93956
465,40.2503,-0.00875248,-3.93956
465.5,40.298,-0.0142274,-3.93956
466,40.3482,-0.0174954,-3.93645
466.5,40.397,-0.0104224,-3.94054
467,40.4465,-0.0222879,-3.94282
467.5,40.495,-0.032759,-3.94285
468,40.5424,-0.0348633,-3.94154
468.5,40.5928,-0.0366012,-3.94151
469,40.6415,-0.0371555,-3.94285
469.5,40.6908,-0.0350279,-3.94285
470,40.7399,-0.0508633,-3.94416
470.5,40.7894,-0.0497159,-3.94416
471,40.838,-0.050011,-3.94416
471.5,40.887,-0.0469559,-3.94467
472,40.9366,-0.0512741,-3.9458
472.5,40.9847,-0.051606,-3.94444
473,41.0339,-0.0490074,-3.94307
473.5,41.083,-0.0619614,-3.94175
474,41.1323,-0.0665497,-3.94176
474.5,41.1805,-0.0685325,-3.94307
475,41.2303,-0.0570687,-3.94307
475.5,41.2793,-0.0613371,-3.94208
476,41.3278,-0.0679876,-3.94208
476.5,41.3778,-0.0693234,-3.9434
477,41.4263,-0.0672693,-3.9434
477.5,41.4761,-0.0736588,-3.94341
478,41.524,-0.0723983,-3.94208
478.5,41.5738,-0.0656057,-3.94208
479,41.6202,-0.0673024,-3.94208
479.5,41.6717,-0.0706119,-3.94175
480,41.7204,-0.0695834,-3.94109
480.5,41.7696,-0.0728156,-3.94109
481,41.8183,-0.0710458,-3.94109
481.5,41.8683,-0.0808556,-3.94109
482,41.9165,-0.0788225,-3.94241
482.5,41.967,-0.076755,-3.94378
483,42.0154,-0.0788977,-3.94505
483.5,42.065,-0.0789526,-3.94505
484,42.1144,-0.0883788,-3.94494
484.5,42.1639,-0.0853389,-3.94504
485,42.2127,-0.0880175,-3.94528
485.5,42.2622,-0.0810341,-3.94511
486,42.3108,-0.0798531,-3.94373
486.5,42.3602,-0.0882348,-3.94373
487,42.4093,-0.086523,-3.94505
487.5,42.4577,-0.0842334,-3.94505
488,42.508,-0.0813409,-3.94505
488.5,42.5567,-0.0866333,-3.94505
489,42.6056,-0.083569,-3.94505
489.5,42.6557,-0.0889548,-3.94505
490,42.7042,-0.0936068,-3.94505
490.5,42.7535,-0.0838971,-3.94515
491,42.8034,-0.084942,-3.94636
491.5,42.852,-0.0915406,-3.94514
492,42.8987,-0.081619,-3.94397
492.5,42.95,-0.0850397,-3.94362
493,42.9999,-0.0923497,-3.9423
493.5,43.0488,-0.101171,-3.9423
494,43.0988,-0.0990188,-3.9423
494.5,43.1466,-0.097928,-3.9423
495,43.1967,-0.102925,-3.94099
495.5,43.2457,-0.102414,-3.94093
496,43.2951,-0.106657,-3.941
496.5,43.3454,-0.104966,-3.94201
497,43.3936,-0.10638,-3.94362
497.5,43.4429,-0.106058,-3.94362
498,43.4931,-0.0960241,-3.94362
498.5,43.5423,-0.0939062,-3.94362
499,43.5902,-0.104839,-3.94363
499.5,43.6406,-0.097162,-3.9423
500,43.6893,-0.0987664,-3.9423
500.5,43.74,-0.0945099,-3.94099
501,43.7882,-0.0954063,-3.94099
501.5,43.8372,-0.0981888,-3.94099
502,43.8867,-0.0929507,-3.94361
502.5,43.9363,-0.0927219,-3.94493
503,43.9865,-0.0944175,-3.94494
503.5,44.0354,-0.102959,-3.94361
504,44.0829,-0.110545,-3.94309
504.5,44.1326,-0.119897,-3.9423
505,44.1833,-0.120344,-3.9423
505.5,44.2326,-0.115715,-3.9423
506,44.2831,-0.119727,-3.9423
506.5,44.3321,-0.119743,-3.94359
507,44.3817,-0.120239,-3.94492
507.5,44.4312,-0.115195,-3.94522
508,44.4805,-0.106034,-3.9446
508.5,44.5296,-0.111194,-3.94441
509,44.5783,-0.116733,-3.94461
509.5,44.6283,-0.113995,-3.94461
510,44.6786,-0.119396,-3.94462
510.5,44.727,-0.117843,-3.9446
511,44.7767,-0.123748,-3.94397
511.5,44.8261,-0.124098,-3.9433
512,44.8746,-0.124317,-3.94195
512.5,44.9254,-0.119316,-3.94131
513,44.9734,-0.132171,-3.94131
513.5,45.0237,-0.129774,-3.94127
514,45.0726,-0.119839,-3.94257
514.5,45.1223,-0.124001,-3.94264
515,45.1716,-0.127374,-3.94394
515.5,45.2207,-0.124759,-3.94525
516,45.2697,-0.124084,-3.94526
516.5,45.3198,-0.133856,-3.94378
517,45.3691,-0.130487,-3.94353
517.5,45.4185,-0.130306,-3.9445
518,45.4677,-0.134955,-3.94381
518.5,45.5172,-0.137348,-3.94384
519,45.5672,-0.138253,-3.94384
519.5,45.6159,-0.134514,-3.94383
520,45.6653,-0.130259,-3.94252
520.5,45.7141,-0.127282,-3.94409
521,45.7638,-0.129504,-3.94587
521.5,45.8144,-0.126809,-3.94846
522,45.8635,-0.125865,-3.94872
522.5,45.9129,-0.125878,-3.94569
523,45.9609,-0.128258,-3.94416
523.5,46.0128,-0.124441,-3.94417
524,46.0612,-0.131476,-3.94417
524.5,46.1101,-0.123625,-3.94417
525,46.1604,-0.121817,-3.94417
525.5,46.2073,-0.121772,-3.9432
526,46.2592,-0.126704,-3.94285
526.5,46.3092,-0.118719,-3.94365
527,46.3578,-0.122018,-3.94285
527.5,46.4081,-0.123077,-3.94285
528,46.4575,-0.120621,-3.94153
528.5,46.5064,-0.115418,-3.94285
529,46.5572,-0.120628,-3.94285
529.5,46.6062,-0.111302,-3.94284
530,46.6554,-0.128558,-3.9445
530.5,46.7047,-0.117848,-3.94294
531,46.7527,-0.112872,-3.94142
531.5,46.8039,-0.116513,-3.94043
532,46.8542,-0.10815,-3.94176
532.5,46.9032,-0.108252,-3.94174
533,46.9537,-0.107676,-3.94305
533.5,47.0026,-0.108955,-3.94425
534,47.0523,-0.105307,-3.94307
534.5,47.1003,-0.111693,-3.943
535,47.149,-0.10714,-3.94438
535.5,47.2012,-0.0985508,-3.94438
536,47.2508,-0.100099,-3.94438
536.5,47.2999,-0.0978908,-3.94438
537,47.3498,-0.10011,-3.94438
537.5,47.3989,-0.0946916,-3.94438
538,47.4494,-0.0895374,-3.94436
538.5,47.4978,-0.0906839,-3.94306
539,47.5474,-0.0966605,-3.94306
539.5,47.5963,-0.0918193,-3.94306
540,47.6468,-0.0947209,-3.94294
540.5,47.6968,-0.0938943,-3.94174
541,47.7458,-0.0896159,-3.94174
541.5,47.7949,-0.0942524,-3.94188
542,47.8451,-0.0922909,-3.94273
542.5,47.8939,-0.0924331,-3.94273
543,47.9425,-0.0845957,-3.94372
543.5,47.9931,-0.0868517,-3.94372
544,48.0426,-0.0914216,-3.94372
544.5,48.0924,-0.0865358,-3.94405
545,48.1417,-0.0833424,-3.94405
545.5,48.1915,-0.0805536,-3.94405
546,48.2412,-0.0836504,-3.94272
546.5,48.2909,-0.0803571,-3.94309
547,48.34,-0.081286,-3.94438
547.5,48.3888,-0.0786927,-3.94531
548,48.4398,-0.0757661,-3.94438
548.5,48.489,-0.0774219,-3.94438
549,48.5376,-0.0806063,-3.94438
549.5,48.5878,-0.0826351,-3.94428
550,48.6374,-0.0832359,-3.94306
550.5,48.6867,-0.0779642,-3.94419
551,48.7364,-0.0798532,-3.94438
551.5,48.7865,-0.0799245,-3.94438
552,48.8358,-0.0764569,-3.94296
552.5,48.8846,-0.0752345,-3.94164
553,48.9343,-0.0900739,-3.94254
553.5,48.9839,-0.0866533,-3.94297
554,49.0339,-0.0840854,-3.94428
554.5,49.083,-0.0854289,-3.94559
555,49.1324,-0.0830567,-3.94636
555.5,49.1824,-0.0854796,-3.94692
556,49.232,-0.0868125,-3.94822
556.5,49.2816,-0.0818385,-3.94827
557,49.3317,-0.0875228,-3.94691
557.5,49.3814,-0.0937693,-3.94625
558,49.431,-0.0888465,-3.94552
558.5,49.4768,-0.0859073,-3.94689
559,49.53,-0.0888075,-3.94574
559.5,49.5774,-0.090946,-3.94559
560,49.6286,-0.0926009,-3.94559
560.5,49.6778,-0.0963267,-3.94428
561,49.7274,-0.0922978,-3.94524
561.5,49.7768,-0.0948878,-3.94526
562,49.826,-0.0959593,-3.94394
562.5,49.8777,-0.0975921,-3.94263
563,49.9264,-0.0901398,-3.94395
563.5,49.9759,-0.0911669,-3.94395
564,50.0247,-0.0927689,-3.94398
564.5,50.0739,-0.0892798,-3.94675
565,50.1237,-0.0902793,-3.94966
565.5,50.173,-0.0828788,-3.94588
566,50.2238,-0.0838706,-3.9446
566.5,50.2724,-0.0873846,-3.9446
567,50.322,-0.0893841,-3.94355
567.5,50.3734,-0.0923198,-3.94361
568,50.4215,-0.0866218,-3.94361
568.5,50.4712,-0.0861975,-3.94422
569,50.5207,-0.0877287,-3.94493
569.5,50.5709,-0.0907388,-3.9449
570,50.6211,-0.0867743,-3.94625
570.5,50.6696,-0.0910209,-3.94494
571,50.7196,-0.0896833,-3.94493
571.5,50.7687,-0.0909078,-3.9461
572,50.8168,-0.100771,-3.94625
572.5,50.8676,-0.098382,-3.94494
573,50.9174,-0.0970156,-3.94625
573.5,50.9675,-0.0968249,-3.94755
574,51.0172,-0.0967347,-3.94757
574.5,51.0654,-0.0995285,-3.94757
575,51.1162,-0.102195,-3.94757
575.5,51.1665,-0.0956478,-3.94757
576,51.2157,-0.0947571,-3.94828
576.5,51.2648,-0.0900498,-3.94889
577,51.315,-0.0893358,-3.95021
577.5,51.3651,-0.0848548,-3.9488
578,51.4139,-0.0893843,-3.94735
578.5,51.4647,-0.0846042,-3.94603
579,51.5139,-0.0958645,-3.94603
579.5,51.5635,-0.08926,-3.94603
580,51.6129,-0.0985556,-3.9452
580.5,51.6635,-0.0859543,-3.94632
581,51.7128,-0.0921838,-3.94793
581.5,51.7633,-0.0997989,-3.95033
582,51.8116,-0.0951663,-3.95032
582.5,51.861,-0.101461,-3.95032
583,51.9115,-0.0857141,-3.95064
583.5,51.9618,-0.0860562,-3.95163
584,52.0104,-0.0887756,-3.95163
584.5,52.0604,-0.0930854,-3.95032
585,52.1101,-0.0741638,-3.9491
585.5,52.1605,-0.0815456,-3.94897
586,52.2102,-0.102616,-3.94937
586.5,52.2595,-0.105194,-3.94593
587,52.3086,-0.0903135,-3.94592
587.5,52.3588,-0.0878574,-3.94662
588,52.4083,-0.091236,-3.94715
588.5,52.4584,-0.0916658,-3.94855
589,52.5083,-0.112273,-3.94724
589.5,52.5587,-0.0970448,-3.94855
590,52.607,-0.0865593,-3.94855
590.5,52.6576,-0.0832479,-3.94852
591,52.7076,-0.0818155,-3.95086
591.5,52.7575,-0.0786584,-3.95087
592,52.8074,-0.0715131,-3.94816
592.5,52.8566,-0.0762068,-3.94691
593,52.9063,-0.0753434,-3.94555
593.5,52.9562,-0.0608588,-3.94559
594,53.0055,-0.0664611,-3.9468
594.5,53.0541,-0.0703084,-3.94691
595,53.1057,-0.061766,-3.94691
595.5,53.1558,-0.0625184,-3.94822
596,53.2059,-0.061295,-3.94823
596.5,53.2551,-0.0692033,-3.94955
597,53.3054,-0.0586712,-3.94834
597.5,53.3541,-0.0580647,-3.94823
598,53.4055,-0.0610855,-3.94823
598.5,53.4555,-0.0628745,-3.94822
599,53.5048,-0.0548068,-3.94691
599.5,53.5549,-0.0437607,-3.94558
600,53.6039,-0.0404303,-3.94559
600.5,53.6543,-0.0451376,-3.94668
601,53.705,-0.0403644,-3.94847
601.5,53.7547,-0.0434063,-3.94845
602,53.804,-0.0430099,-3.94812
602.5,53.853,-0.0438321,-3.94812
603,53.9036,-0.04692,-3.94679
603.5,53.9541,-0.0440725,-3.94713
604,54.0033,-0.0429116,-3.94713
604.5,54.0547,-0.0387547,-3.94845
605,54.1037,-0.0369259,-3.94845
605.5,54.1519,-0.0290276,-3.94715
606,54.2035,-0.0367608,-3.94845
606.5,54.2532,-0.0255325,-3.94845
607,54.3031,-0.0310165,-3.94985
607.5,54.3516,-0.0218263,-3.94845
608,54.4034,-0.0286714,-3.94847
608.5,54.4524,-0.0257732,-3.94911
609,54.503,-0.019129,-3.9491
609.5,54.553,-0.0151435,-3.94645
610,54.6025,-0.00810522,-3.94516
610.5,54.6535,-0.0139019,-3.94516
611,54.7033,-0.0118797,-3.94647
611.5,54.7532,-0.00344601,-3.94647
612,54.8041,-0.0011316,-3.9478
612.5,54.8529,-0.00500291,-3.94911
613,54.9025,-0.00309853,-3.94911
613.5,54.9526,-0.00278005,-3.94909
614,55.0026,-0.000442628,-3.95042
614.5,55.0529,0.00865548,-3.95038
615,55.1031,0.00309037,-3.94715
615.5,55.1529,0.00486499,-3.94516
616,55.2029,0.0115796,-3.94514
616.5,55.2527,0.0104797,-3.94713
617,55.3033,0.0180863,-3.94713
617.5,55.353,0.0091624,-3.9482
618,55.4029,0.0119093,-3.94845
618.5,55.4521,0.0206932,-3.94715
619,55.502,0.0201325,-3.94713
619.5,55.552,0.0165791,-3.94713
620,55.6028,0.0231229,-3.94713
620.5,55.6524,0.0276562,-3.94581
621,55.7008,0.029036,-3.94593
621.5,55.7527,0.0315298,-3.94483
622,55.8018,0.0303251,-3.94483
622.5,55.8523,0.025054,-3.94516
623,55.9012,0.0340487,-3.94511
623.5,55.9525,0.0384329,-3.94647
624,56.0022,0.0377934,-3.94647
624.5,56.0518,0.0437694,-3.94647
625,56.1021,0.0441499,-3.94647
625.5,56.1523,0.039803,-3.94512
626,56.2015,0.0428997,-3.94522
626.5,56.2505,0.0523602,-3.94515
627,56.3015,0.0496079,-3.94648
627.5,56.3522,0.0628486,-3.94647
628,56.4025,0.0542435,-3.9465
628.5,56.4523,0.0539536,-3.94515
629,56.5027,0.0554687,-3.94515
629.5,56.5531,0.0592904,-3.94345
630,56.6029,0.0609544,-3.94176
630.5,56.6529,0.060385,-3.94579
631,56.7028,0.0622531,-3.94779
631.5,56.7538,0.0706162,-3.94665
632,56.8041,0.0672002,-3.94678
632.5,56.8545,0.0663347,-3.94739
633,56.9031,0.0725814,-3.94504
633.5,56.9542,0.0687303,-3.94504
634,57.0044,0.0642175,-3.94504
634.5,57.0552,0.0723497,-3.94636
635,57.1044,0.0666396,-3.94504
635.5,57.1545,0.0572646,-3.94504
636,57.2044,0.0609529,-3.94663
636.5,57.2551,0.0581899,-3.94811
637,57.3028,0.0568493,-3.9482
637.5,57.3551,0.0597592,-3.94953
638,57.4053,0.0662073,-3.94706
638.5,57.4555,0.0688087,-3.94506
639,57.5053,0.0617166,-3.94375
639.5,57.5563,0.062331,-3.94222
640,57.6058,0.0707217,-3.94219
640.5,57.6545,0.0614647,-3.94443
641,57.7063,0.0630611,-3.94631
641.5,57.7559,0.0669018,-3.94625
642,57.806,0.0644669,-3.94625
642.5,57.8541,0.0570688,-3.94624
643,57.9063,0.0647595,-3.94502
643.5,57.9556,0.0651096,-3.94626
644,58.0058,0.0680392,-3.94757
644.5,58.0564,0.071688,-3.9469
645,58.1062,0.0676035,-3.94513
645.5,58.1565,0.0667537,-3.94494
646,58.2073,0.0644738,-3.94494
646.5,58.2569,0.0660042,-3.94494
647,58.3072,0.0607908,-3.94563
647.5,58.3567,0.0595042,-3.94658
648,58.4067,0.0627482,-3.9479
648.5,58.4566,0.0603601,-3.94549
649,58.508,0.0572174,-3.94351
649.5,58.5565,0.0635166,-3.94484
650,58.6069,0.0618405,-3.94615
650.5,58.6571,0.0629482,-3.94748
651,58.7075,0.0594263,-3.94423
651.5,58.7578,0.0623788,-3.94294
652,58.8076,0.0679743,-3.94457
652.5,58.8565,0.0683744,-3.94516
653,58.9078,0.065597,-3.9451
653.5,58.9582,0.0561327,-3.94384
654,59.0073,0.0623263,-3.94384
654.5,59.0577,0.0610442,-3.94384
655,59.1076,0.0692549,-3.94384
655.5,59.1576,0.0622131,-3.94515
656,59.2075,0.0712083,-3.94518
656.5,59.2584,0.0591492,-3.94482
657,59.3075,0.059778,-3.94613
657.5,59.358,0.0612953,-3.94614
658,59.4078,0.062458,-3.94677
658.5,59.4587,0.0608971,-3.94746
659,59.5084,0.0554688,-3.94749
659.5,59.5585,0.0559562,-3.94681
660,59.6092,0.0489065,-3.94811
660.5,59.6597,0.0576452,-3.9481
661,59.7089,0.0612421,-3.9445
661.5,59.7587,0.0540597,-3.9446
662,59.8092,0.0530833,-3.94464
662.5,59.8586,0.0585336,-3.94592
663,59.9085,0.0548715,-3.94622
663.5,59.9597,0.0498813,-3.94691
664,60.0095,0.0607304,-3.94592
664.5,60.0597,0.0517386,-3.94493
665,60.1094,0.05087,-3.94454
665.5,60.1593,0.0497808,-3.94493
666,60.2087,0.0491012,-3.94667
666.5,60.2593,0.0495572,-3.9479
667,60.3098,0.0468213,-3.94792
667.5,60.3576,0.0527076,-3.94774
668,60.4101,0.0492895,-3.945
668.5,60.4606,0.0410462,-3.94241
669,60.5097,0.046164,-3.94364
669.5,60.5602,0.0440456,-3.94372
670,60.6111,0.0464196,-3.94372
670.5,60.6603,0.0472412,-3.94372
671,60.7108,0.0451385,-3.94377
671.5,60.7608,0.0400869,-3.94298
672,60.8113,0.0376262,-3.9423
672.5,60.8613,0.0434076,-3.9423
673,60.9119,0.0363763,-3.9443
673.5,60.9614,0.040834,-3.94669
674,61.0113,0.0341773,-3.94721
674.5,61.0621,0.0349145,-3.94856
675,61.1117,0.0328805,-3.94724
675.5,61.1627,0.0459062,-3.94593
676,61.2124,0.0379042,-3.94658
676.5,61.2628,0.0330708,-3.94658
677,61.3131,0.0387372,-3.94528
677.5,61.3641,0.0406685,-3.94395
678,61.4136,0.0404038,-3.94395
678.5,61.4647,0.0505279,-3.94395
679,61.5146,0.0392721,-3.94548
679.5,61.565,0.0521111,-3.94691
680,61.615,0.0456137,-3.94822
680.5,61.6654,0.0470079,-3.94678
681,61.7158,0.0518819,-3.94383
681.5,61.7669,0.045556,-3.94077
682,61.8167,0.0448795,-3.94285
682.5,61.8677,0.0431503,-3.94373
683,61.9179,0.0505,-3.94373
683.5,61.9671,0.0432649,-3.94373
684,62.0183,0.0372635,-3.94373
684.5,62.0681,0.0313061,-3.94241
685,62.119,0.0390525,-3.94288
685.5,62.1686,0.0462438,-3.94539
686,62.2205,0.039897,-3.948
686.5,62.2696,0.0424822,-3.94933
687,62.3174,0.0379866,-3.94926
687.5,62.3708,0.0431029,-3.94655
688,62.421,0.0350903,-3.94395
688.5,62.4693,0.0353554,-3.9441
689,62.5211,0.0436685,-3.94658
689.5,62.5717,0.0402052,-3.9479
690,62.6219,0.0448755,-3.94658
690.5,62.6727,0.0440312,-3.94569
691,62.7232,0.0482141,-3.94526
691.5,62.7726,0.041139,-3.94525
692,62.8236,0.0491233,-3.94524
692.5,62.8728,0.0519296,-3.9479
693,62.9245,0.0482454,-3.9479
693.5,62.9752,0.0400855,-3.9479
694,63.0249,0.0457801,-3.9479
694.5,63.0758,0.0425635,-3.9479
695,63.1259,0.0472828,-3.94658
695.5,63.176,0.0468206,-3.94526
696,63.2261,0.0462929,-3.94526
696.5,63.2777,0.0376144,-3.94526
697,63.3277,0.0349884,-3.94585
697.5,63.3769,0.0353214,-3.94658
698,63.4289,0.0313966,-3.94526
698.5,63.4797,0.0327081,-3.94527
699,63.5294,0.0352806,-3.94263
699.5,63.5808,0.0364505,-3.94131
700,63.6303,0.0431431,-3.94272
700.5,63.6812,0.043183,-3.94737
701,63.7319,0.0384058,-3.94856
701.5,63.7825,0.0363825,-3.94718
702,63.8322,0.0314395,-3.94724
702.5,63.8837,0.0352843,-3.94691
703,63.9339,0.0368021,-3.94691
703.5,63.9842,0.0351667,-3.94699
704,64.035,0.0334957,-3.94531
704.5,64.0848,0.0300524,-3.94438
705,64.1342,0.0356606,-3.94439
705.5,64.1845,0.0314391,-3.94589
706,64.2371,0.0320589,-3.94758
706.5,64.2875,0.0353523,-3.94757
707,64.3376,0.0335966,-3.94752
707.5,64.3881,0.0256041,-3.94889
708,64.4388,0.0276983,-3.94736
708.5,64.4891,0.0215084,-3.94383
709,64.5396,0.0258275,-3.94097
709.5,64.5909,0.0231001,-3.94209
710,64.6411,0.0209662,-3.9443
710.5,64.6912,0.0171128,-3.94629
711,64.7424,0.0144467,-3.94799
711.5,64.7924,0.017912,-3.948
712,64.8437,0.0177357,-3.94851
712.5,64.8946,0.0112634,-3.94862
713,64.9457,0.0179633,-3.94729
713.5,64.9953,0.0174936,-3.946
714,65.0457,0.0140502,-3.94537
714.5,65.0952,0.00559401,-3.94622
715,65.146,0.0106507,-3.94669
715.5,65.1965,0.00913509,-3.94669
716,65.2471,0.0133577,-3.94669
716.5,65.298,0.0105453,-3.94669
717,65.3486,0.0110244,-3.94532
717.5,65.3992,-0.000872523,-3.94403
718,65.4489,0.00486806,-3.94537
718.5,65.4989,0.0117962,-3.94537
719,65.5492,0.00249881,-3.94537
719.5,65.6005,0.0087329,-3.94537
720,65.6479,0.00450643,-3.9467
720.5,65.7013,0.00358913,-3.94669
721,65.7525,-0.00183233,-3.94669
721.5,65.803,0.00123905,-3.94786
722,65.8536,0.00391358,-3.94801
722.5,65.9033,0.00290125,-3.94801
723,65.9547,0.00551887,-3.94801
723.5,66.0052,0.0121118,-3.94867
724,66.0557,0.000557118,-3.94867
724.5,66.1064,-9.30544e-05,-3.94735
725,66.1566,0.000349441,-3.94867
725.5,66.2075,-0.00284149,-3.94867
726,66.2572,0.00173923,-3.94999
726.5,66.3082,0.00197713,-3.94841
727,66.3577,0.000965682,-3.94568
727.5,66.4095,0.00111335,-3.94233
728,66.4592,0.00451968,-3.94218
728.5,66.5109,0.00140959,-3.94351
729,66.5592,0.00144138,-3.94501
729.5,66.6118,-0.00161814,-3.94667
730,66.6627,0.00280699,-3.948
730.5,66.7129,-0.00177488,-3.948
731,66.7631,0.000563706,-3.948
731.5,66.8136,-0.0133336,-3.948
732,66.8647,-0.00371657,-3.948
732.5,66.9153,-0.00170409,-3.94666
733,66.9653,-0.00779395,-3.94541
733.5,67.0155,-0.00560971,-3.94654
734,67.0655,-0.012316,-3.94537
734.5,67.1169,-0.00769379,-3.94669
735,67.1673,-0.00711775,-3.94669
735.5,67.2185,-0.0137209,-3.94669
736,67.2691,-0.0137233,-3.94669
736.5,67.3196,-0.016378,-3.94669
737,67.3697,-0.0191752,-3.94669
737.5,67.42,-0.0244586,-3.94795
738,67.4706,-0.020627,-3.948
738.5,67.5204,-0.0120317,-3.948
739,67.5727,-0.0179348,-3.948
739.5,67.6225,-0.022453,-3.94669
740,67.6724,-0.0135851,-3.94669
740.5,67.7236,-0.0189787,-3.94669
741,67.7746,-0.0220316,-3.94669
741.5,67.825,-0.0204986,-3.94768
742,67.8761,-0.0241448,-3.94801
742.5,67.9256,-0.0229535,-3.94838
743,67.9764,-0.0280091,-3.9494
743.5,68.0273,-0.0272392,-3.95118
744,68.0774,-0.02525,-3.9513
744.5,68.1288,-0.030773,-3.95056
745,68.1797,-0.0239277,-3.94881
745.5,68.228,-0.0190096,-3.94894
746,68.2807,-0.0293861,-3.94889
746.5,68.3307,-0.0252124,-3.94889
747,68.382,-0.0287147,-3.94889
747.5,68.4324,-0.0361644,-3.94889
748,68.4832,-0.0358297,-3.94889
748.5,68.5336,-0.027882,-3.94819
749,68.5837,-0.0282254,-3.9468
749.5,68.6348,-0.0267886,-3.94624
750,68.6857,-0.0299921,-3.94756
750.5,68.734,-0.0250517,-3.94756
751,68.7865,-0.0301973,-3.94756
751.5,68.8377,-0.0342874,-3.94756
752,68.8886,-0.0289656,-3.94625
752.5,68.9393,-0.031685,-3.94625
753,68.9893,-0.0337574,-3.94625
753.5,69.04,-0.0295453,-3.94618
754,69.0907,-0.0346846,-3.94493
754.5,69.1413,-0.0294754,-3.94493
755,69.1926,-0.0341074,-3.94493
755.5,69.2433,-0.0257562,-3.94625
756,69.2942,-0.0297861,-3.94493
756.5,69.3449,-0.0340054,-3.94493
757,69.3949,-0.0362892,-3.94625
757.5,69.446,-0.0306119,-3.94738
758,69.4955,-0.0348302,-3.94889
758.5,69.5466,-0.0339969,-3.94889
759,69.5966,-0.0252456,-3.94889
759.5,69.6482,-0.0301639,-3.94763
760,69.6966,-0.031833,-3.94625
760.5,69.7481,-0.0388827,-3.94526
761,69.7985,-0.0373183,-3.94526
761.5,69.8496,-0.0307419,-3.94526
762,69.9004,-0.0332303,-3.9462
762.5,69.9506,-0.0314938,-3.9479
763,70.001,-0.0378984,-3.9479
763.5,70.0503,-0.0374633,-3.9479
764,70.0997,-0.0434667,-3.94788
764.5,70.1517,-0.0434267,-3.94724
765,70.2031,-0.0431,-3.94724
765.5,70.2531,-0.0456054,-3.94763
766,70.3038,-0.0438081,-3.9479
766.5,70.3544,-0.0483961,-3.94784
767,70.4045,-0.034322,-3.94713
767.5,70.4552,-0.0306518,-3.94581
768,70.5064,-0.0398285,-3.94589
768.5,70.5545,-0.0322691,-3.94854
769,70.6075,-0.037818,-3.94987
769.5,70.6581,-0.0383594,-3.94978
770,70.7078,-0.0405466,-3.94724
770.5,70.7583,-0.0335392,-3.94724
771,70.8089,-0.0418096,-3.94856
771.5,70.8595,-0.0399606,-3.94853
772,70.9102,-0.0391971,-3.94547
772.5,70.9611,-0.0361104,-3.94548
773,71.0103,-0.0354926,-3.94547
773.5,71.0616,-0.0385815,-3.94548
774,71.1127,-0.0404173,-3.94548
774.5,71.1628,-0.0337244,-3.94679
775,71.213,-0.0411949,-3.94813
775.5,71.2641,-0.0394179,-3.94811
776,71.3145,-0.0421907,-3.94872
776.5,71.3661,-0.0428638,-3.95075
777,71.4155,-0.0416527,-3.95059
777.5,71.4668,-0.0329746,-3.94943
778,71.5164,-0.037225,-3.94943
778.5,71.5678,-0.0413002,-3.94811
779,71.6179,-0.0393198,-3.94811
779.5,71.6686,-0.0409661,-3.9478
780,71.7196,-0.0397166,-3.94779
780.5,71.7698,-0.0442468,-3.94742
781,71.8208,-0.0413463,-3.94459
781.5,71.8716,-0.0380851,-3.94318
782,71.9216,-0.0395779,-3.94463
782.5,71.9723,-0.0359269,-3.94592
783,72.0231,-0.0412236,-3.94731
783.5,72.0732,-0.0406226,-3.94625
784,72.1244,-0.0366643,-3.94885
784.5,72.1751,-0.0357732,-3.94889
785,72.226,-0.0449227,-3.94889
785.5,72.2761,-0.0416743,-3.94889
786,72.326,-0.041098,-3.94933
786.5,72.3776,-0.0336362,-3.94973
787,72.4281,-0.0380982,-3.94889
787.5,72.4787,-0.040406,-3.94851
788,72.5294,-0.0391026,-3.94692
788.5,72.5797,-0.0344166,-3.94658
789,72.6311,-0.0360281,-3.94859
789.5,72.6816,-0.034984,-3.94794
790,72.7328,-0.0377824,-3.94465