File: 01_Data/Polyisocyanurate_Spray_Foam_Insulation/Cone/Polyisocyanurate_Spray_Foam_Insulation_Cone_HF75Scan_241113_R1.csv
Names,Time,Stack TC,Smoke TC,Exh Press,Smoke Comp,Smoke Meas,CO Meter,CO2 Meter,O2 Meter,Sample Mass,Ext Coeff,Start Test,Flame Verif
Chan Gain,,500,500,1,1,1,1,1,1,1,1,1.0,1.0
Offset,,0,0,0.138019,0,0,0,0,0,0,0,0.0,0.0
Gain,,1,1,25.011,12.4314,2004.68,1,1,1,1.00093,0.957506,1.0,1.0
Units,sec,C,C,Pa,%,%,%,%,%,g,/m,,
Baseline,,48.1389,50.8937,159.735,100.146,101.086,0.000820811,0.0419855,20.9462,-445.049,-0.0781555,,
2,0.25,48.2657,50.9599,166.722,100.418,97.2118,0.000508471,0.0414925,20.9492,45.022,0.272514,0.0,0.0
4,0.75,47.8454,50.2871,157.617,100.438,71.9453,0.000521042,0.0414585,20.9492,44.9219,2.80223,0.0,0.0
6,1.25,47.8258,50.4341,142.016,100.419,54.5096,0.000521339,0.041431,20.9491,44.8719,5.13166,0.0,1.0
8,1.75,48.7213,51.9573,139.483,100.44,52.919,0.000521579,0.0414969,20.9491,44.7117,5.38221,0.0,1.0
10,2.25,49.556,52.9213,125.155,100.445,50.3495,0.000523009,0.0415503,20.949,44.4915,5.80065,0.0,1.0
12,2.75,50.1356,54.8367,130.312,100.47,49.9212,0.000524167,0.0416083,20.949,44.3514,5.87445,0.0,1.0
14,3.25,52.1333,56.5257,131.004,100.423,48.7589,0.000530048,0.0416552,20.949,44.1312,6.06847,0.0,1.0
16,3.75,52.9298,58.7997,135.843,100.454,49.6765,0.000534811,0.0416344,20.949,43.881,5.91443,0.0,1.0
18,4.25,54.4475,60.3094,116.547,100.442,46.9235,0.000537434,0.0416176,20.949,43.7909,6.39228,0.0,1.0
20,4.75,56.1582,62.631,132.95,100.457,45.8835,0.000539558,0.0416039,20.949,43.6507,6.58184,0.0,1.0
22,5.25,57.5159,65.0901,124.858,100.464,44.1093,0.000542515,0.0415929,20.949,43.4506,6.91359,0.0,1.0
24,5.75,57.8876,65.7903,128.284,100.475,38.9704,0.00054491,0.0416722,20.9489,43.2804,7.95488,0.0,1.0
26,6.25,59.1732,67.5598,124.322,100.457,39.9492,0.00055921,0.0417364,20.9487,43.1002,7.74506,0.0,1.0
28,6.75,60.1675,68.943,134.646,100.495,38.1139,0.000570794,0.0419664,20.9483,42.9201,8.14325,0.0,1.0
30,7.25,61.4925,71.3413,126.114,100.481,42.1516,0.000580176,0.042313,20.948,42.7299,7.29632,0.0,1.0
32,7.75,62.977,73.0522,121.44,100.481,38.2362,0.000724018,0.0425937,20.9475,42.6098,8.11518,0.0,1.0
34,8.25,64.4161,75.4289,120.45,100.481,36.0338,0.00084053,0.0465722,20.9469,42.4296,8.61344,0.0,1.0
36,8.75,65.5253,77.7723,120.566,100.502,42.7022,0.00140945,0.0531707,20.9464,42.2294,7.18909,0.0,1.0
38,9.25,66.9575,79.1126,121.089,100.488,40.2551,0.00187027,0.0685474,20.946,42.0593,7.68359,0.0,1.0
40,9.75,68.0396,81.1945,124.864,100.509,41.7234,0.00335661,0.0900313,20.9452,41.8591,7.38444,0.0,0.0
42,10.25,69.4348,82.6163,122.676,100.493,38.1751,0.00456055,0.122067,20.9442,41.6689,8.12962,0.0,0.0
44,10.75,70.564,84.3076,121.946,100.516,39.7045,0.00726919,0.161187,20.9433,41.5288,7.80161,0.0,0.0
46,11.25,71.7787,86.1943,122.011,100.494,43.0081,0.00946318,0.211395,20.9196,41.3186,7.12844,0.0,0.0
48,11.75,73.0463,87.9424,120.895,100.519,35.8503,0.012708,0.268731,20.9003,41.1784,8.65953,0.0,0.0
50,12.25,73.7517,89.5261,130.57,100.504,38.1139,0.0166572,0.330171,20.8347,41.0383,8.14404,0.0,0.0
52,12.75,75.3142,90.8355,111.1,100.517,37.3797,0.0210996,0.393437,20.7553,40.8081,8.30841,0.0,0.0
54,13.25,76.1279,92.042,118.955,100.537,33.8926,0.0258173,0.444682,20.6675,40.668,9.13271,0.0,0.0
56,13.75,77.3494,93.9251,118.571,100.542,34.382,0.0296385,0.513979,20.5964,40.4978,9.0127,0.0,0.0
58,14.25,78.5681,95.0874,121.137,100.533,33.7702,0.0365248,0.570109,20.5116,40.3276,9.16267,0.0,0.0
60,14.75,79.0777,96.4434,123.633,100.564,35.8503,0.0421026,0.625457,20.4183,40.1775,8.66324,0.0,0.0
62,15.25,79.4391,97.7575,120.545,100.544,37.9915,0.0488124,0.679183,20.3237,39.9873,8.17434,0.0,0.0
64,15.75,80.8465,99.1273,120.272,100.531,44.354,0.0542474,0.729525,20.2299,39.8072,6.87273,0.0,0.0
66,16.25,81.5731,99.7825,117.885,100.55,39.5822,0.0605564,0.776444,20.1396,39.687,7.83039,0.0,0.0
68,16.75,81.7202,101.114,132.164,100.561,40.3775,0.0656667,0.820584,20.0534,39.597,7.66415,0.0,0.0
70,17.25,82.9011,101.385,130.612,100.554,37.1962,0.0712046,0.86186,19.9702,39.2767,8.35289,0.0,0.0
72,17.75,83.1434,102.407,124.596,100.58,39.2763,0.0756904,0.895293,19.891,39.1666,7.89799,0.0,0.0
74,18.25,83.6529,102.743,127.163,100.546,38.6033,0.0799046,0.931062,19.8267,38.9764,8.04033,0.0,0.0
76,18.75,84.506,103.799,122.761,100.569,37.2574,0.0838406,0.960034,19.7547,38.8362,8.34029,0.0,0.0
78,19.25,85.1415,104.582,122.663,100.575,34.382,0.0872985,0.988762,19.6963,38.7061,9.01539,0.0,0.0
80,19.75,85.9435,105.725,116.885,100.57,37.9915,0.090342,1.01203,19.649,38.556,8.1765,0.0,0.0
82,20.25,86.333,106.663,124.414,100.572,38.6645,0.0928073,1.03088,19.599,38.3958,8.02921,0.0,0.0
84,20.75,87.0286,107.345,123.486,100.595,34.9326,0.0948042,1.05084,19.5584,38.2757,8.88363,0.0,0.0
86,21.25,87.5384,108.085,113.153,100.599,34.382,0.096707,1.06701,19.5256,38.1256,9.01742,0.0,0.0
88,21.75,88.3003,108.861,129.288,100.589,35.8503,0.0985052,1.08011,19.4948,37.9654,8.66533,0.0,0.0
90,22.25,88.9977,109.543,125.529,100.607,34.8103,0.0999617,1.09124,19.4662,37.7652,8.91411,0.0,0.0
92,22.75,89.6509,110.225,123.141,100.593,34.1373,0.101343,1.10026,19.4398,37.6251,9.07694,0.0,0.0
94,23.25,89.5437,111.227,119.525,100.625,36.0338,0.102461,1.10519,19.4155,37.5651,8.62548,0.0,0.0
96,23.75,90.4165,111.436,114.596,100.581,34.7491,0.103317,1.10919,19.3958,37.3749,8.9267,0.0,0.0
98,24.25,90.6677,112.139,116.996,100.608,32.8526,0.104011,1.10772,19.3799,37.2948,9.40034,0.0,0.0
100,24.75,90.9241,112.801,130.703,100.627,37.9915,0.104284,1.10654,19.367,37.0446,8.18128,0.0,0.0
102,25.25,91.4694,113.281,129.497,100.605,36.4009,0.104505,1.10053,19.3565,36.8844,8.5387,0.0,0.0
104,25.75,92.1034,113.883,125.442,100.628,34.382,0.104272,1.09566,19.3499,36.6642,9.01983,0.0,0.0
106,26.25,92.7892,114.247,127.661,100.63,36.768,0.104083,1.09113,19.3462,36.5041,8.45649,0.0,0.0
108,26.75,92.6699,114.828,133.344,100.625,36.1562,0.103731,1.08692,19.3484,36.3739,8.59701,0.0,0.0
110,27.25,93.177,115.543,129.271,100.61,33.5255,0.103268,1.08352,19.355,36.3139,9.23022,0.0,0.0
112,27.75,93.5592,116.224,119.088,100.63,35.6668,0.102892,1.08191,19.3603,36.0637,8.71192,0.0,0.0
114,28.25,94.1456,117.007,127.782,100.611,34.1373,0.102236,1.08061,19.3646,35.9135,9.07843,0.0,0.0
116,28.75,94.5491,117.121,120.957,100.633,35.3609,0.101705,1.07955,19.3681,35.7534,8.78452,0.0,0.0
118,29.25,94.9363,118.466,122.213,100.622,31.5067,0.101143,1.07707,19.371,35.6333,9.75293,0.0,0.0
120,29.75,95.7101,118.86,126.396,100.634,33.9538,0.10057,1.07505,19.3733,35.4131,9.12564,0.0,0.0
122,30.25,96.2562,119.395,129.644,100.634,33.0361,0.100002,1.0715,19.3751,35.1828,9.35577,0.0,0.0
124,30.75,96.7135,119.992,114.404,100.636,32.302,0.0994496,1.06862,19.3814,35.0627,9.54468,0.0,0.0
126,31.25,96.7849,120.312,119.294,100.641,33.6479,0.0989201,1.06481,19.3865,34.8926,9.20219,0.0,0.0
128,31.75,97.415,120.668,119.596,100.643,34.8103,0.0984177,1.06139,19.3906,34.7925,8.91716,0.0,0.0
130,32.25,97.6184,121.069,117.956,100.637,32.669,0.0980108,1.05834,19.394,34.6824,9.44983,0.0,0.0
132,32.75,98.0457,121.451,115.137,100.662,32.8526,0.0975945,1.05587,19.3983,34.5923,9.4049,0.0,0.0
134,33.25,97.8003,121.918,130.172,100.666,31.0784,0.0972574,1.05276,19.4032,34.3821,9.87148,0.0,0.0
136,33.75,98.3874,122.059,126.344,100.647,28.5089,0.0969603,1.05024,19.4073,34.302,10.5947,0.0,0.0
138,34.25,98.5222,122.269,120.38,100.692,27.4689,0.0967197,1.04832,19.4105,34.2119,10.9106,0.0,0.0
140,34.75,98.9971,122.147,138.438,100.661,30.7113,0.0965249,1.04688,19.4131,34.1118,9.97089,0.0,0.0
142,35.25,99.0226,122.151,131.447,100.675,27.5913,0.096378,1.04571,19.4152,33.9717,10.8719,0.0,0.0
144,35.75,98.9712,122.087,127.767,100.659,28.2642,0.0962591,1.04747,19.417,33.8816,10.6681,0.0,0.0
146,36.25,98.5926,121.806,132.168,100.681,32.8526,0.0962181,1.04889,19.4184,33.7915,9.40642,0.0,0.0
148,36.75,98.6265,121.376,132.677,100.687,34.5044,0.0961848,1.0529,19.4195,33.7815,8.9949,0.0,0.0
150,37.25,98.4054,121.177,140.007,100.683,39.4598,0.0962575,1.05614,19.4204,33.7215,7.86744,0.0,0.0
152,37.75,98.2235,120.428,141.875,100.696,46.8623,0.0963163,1.06079,19.4212,33.6714,6.42447,0.0,0.0
154,38.25,97.9956,119.423,142.96,100.703,52.3072,0.0964731,1.06455,19.4185,33.7015,5.50184,0.0,0.0
156,38.75,97.1007,119.136,142.837,100.688,56.4061,0.0966,1.06708,19.4135,33.5413,4.8669,0.0,0.0
158,39.25,96.1747,118.752,139.096,100.705,54.9378,0.0966951,1.06913,19.4095,33.4612,5.08983,0.0,0.0
160,39.75,95.9602,117.598,143.223,100.687,60.505,0.096765,1.06918,19.4045,33.5313,4.27765,0.0,0.0
162,40.25,95.5607,117.078,144.718,100.716,63.3804,0.096711,1.06775,19.4004,33.4212,3.89006,0.0,0.0
164,40.75,95.1662,115.914,148.231,100.682,71.3947,0.0965675,1.0666,19.3971,33.4212,2.88713,0.0,0.0
166,41.25,94.8272,114.735,147.122,100.731,70.7829,0.0964512,1.05921,19.3944,33.4012,2.9635,0.0,0.0
168,41.75,94.4147,113.967,152.913,100.703,79.1031,0.0955964,1.05323,19.3923,33.3711,2.02775,0.0,0.0
170,42.25,93.44,112.876,146.136,100.732,80.082,0.094904,1.04189,19.3905,33.4012,1.92689,0.0,0.0
172,42.75,93.1932,112.604,146.296,100.712,80.1432,0.0938247,1.02686,19.3891,33.3211,1.9188,0.0,0.0
174,43.25,91.9634,111.58,152.143,100.73,80.6326,0.0924838,1.01469,19.3879,33.3211,1.86918,0.0,0.0
176,43.75,91.9472,109.961,153.714,100.724,78.8584,0.0913978,1.00483,19.3931,33.3311,2.05551,0.0,0.0
178,44.25,91.106,109.36,151.945,100.737,81.3667,0.0895894,0.973239,19.3973,33.3311,1.79362,0.0,0.0
180,44.75,90.5801,108.691,150.162,100.729,88.341,0.0872887,0.93916,19.4111,33.3211,1.10222,0.0,0.0
182,45.25,90.1008,107.678,148.007,100.753,82.6515,0.084681,0.90391,19.4224,33.261,1.66333,0.0,0.0
184,45.75,89.4712,106.547,152.71,100.728,87.1174,0.0818989,0.875358,19.4545,33.2811,1.21924,0.0,0.0
186,46.25,88.4804,105.603,155.353,100.751,91.2164,0.0788302,0.83463,19.4806,33.261,0.835065,0.0,0.0
188,46.75,88.1271,104.792,151.691,100.737,88.7693,0.0756108,0.80164,19.53,33.251,1.06224,0.0,0.0
190,47.25,87.921,104.1,155.52,100.757,89.8093,0.0720901,0.759054,19.5701,33.231,0.966114,0.0,0.0
192,47.75,86.8746,103.079,149.478,100.728,90.2987,0.0684166,0.724559,19.6206,33.2711,0.918062,0.0,0.0
194,48.25,86.3921,102.457,152.346,100.768,90.727,0.065441,0.687545,19.6779,33.231,0.881644,0.0,0.0
196,48.75,85.7654,101.391,155.105,100.751,91.0328,0.0617478,0.649399,19.7242,33.221,0.851919,0.0,0.0
198,49.25,85.1195,100.329,152.681,100.761,91.767,0.0576017,0.6185,19.7897,33.221,0.785278,0.0,0.0
200,49.75,84.7311,99.4907,154.673,100.759,92.0117,0.0542433,0.584656,19.8427,33.231,0.762783,0.0,0.0
202,50.25,84.3267,99.0864,152.369,100.777,94.7647,0.0496594,0.549308,19.8966,33.211,0.51665,0.0,0.0
204,50.75,83.4734,98.1118,154.109,100.755,94.1529,0.0459464,0.51564,19.9502,33.201,0.569215,0.0,0.0
206,51.25,82.7383,97.3099,154.833,100.771,93.2352,0.0418008,0.483837,20.0053,33.191,0.65284,0.0,0.0
208,51.75,82.9388,96.639,155.355,100.763,95.1318,0.0384429,0.45435,20.0605,33.181,0.48304,0.0,0.0
210,52.25,81.5593,95.8729,152.919,100.769,95.4988,0.0348301,0.427111,20.1185,33.181,0.451138,0.0,0.0
212,52.75,81.865,94.8759,153.906,100.761,94.6423,0.0319037,0.399207,20.1774,33.191,0.526174,0.0,0.0
214,53.25,81.0059,94.2983,152.513,100.782,95.3153,0.0290962,0.376604,20.2251,33.171,0.468433,0.0,0.0
216,53.75,80.8758,93.62,152.211,100.771,94.7647,0.0264287,0.354756,20.2808,33.1609,0.516145,0.0,0.0
218,54.25,80.4765,92.8623,152.396,100.796,95.4377,0.0239891,0.333874,20.3259,33.171,0.458796,0.0,0.0
220,54.75,79.4377,92.1102,152.902,100.769,95.1318,0.0217622,0.31696,20.3724,33.171,0.483547,0.0,0.0
222,55.25,78.9859,91.8002,156.608,100.783,95.4988,0.0199583,0.298189,20.4101,33.1509,0.452307,0.0,0.0
224,55.75,78.9312,91.4217,154.845,100.776,96.4777,0.0182629,0.282984,20.4407,33.1409,0.366118,0.0,0.0
226,56.25,78.441,90.0205,151.532,100.779,96.9671,0.0166786,0.268526,20.4732,33.1409,0.32387,0.0,0.0
228,56.75,78.1844,90.0066,153.758,100.777,98.5577,0.0152643,0.254887,20.4996,33.1409,0.18702,0.0,0.0
230,57.25,77.7453,89.0188,152.249,100.801,95.7435,0.0140006,0.242311,20.531,33.1309,0.43233,0.0,0.0
232,57.75,77.0006,88.1268,155.093,100.785,96.2941,0.0128744,0.230749,20.5564,33.1009,0.382839,0.0,0.0
234,58.25,76.6352,87.9869,151.102,100.794,97.946,0.0118698,0.220122,20.584,33.1209,0.240742,0.0,0.0
236,58.75,75.695,86.9153,154.816,100.794,96.3553,0.0109847,0.210379,20.6063,33.1109,0.378263,0.0,0.0
238,59.25,74.9704,85.0786,156.565,100.806,96.7224,0.0105736,0.206226,20.6193,33.1109,0.347307,0.0,0.0
240,59.75,74.3254,84.5985,157.021,100.8,97.3953,0.00987068,0.196993,20.6415,33.0909,0.288628,0.0,0.0
242,60.25,74.0481,84.6257,153.693,100.803,97.273,0.00920699,0.189514,20.6622,33.0909,0.299376,0.0,0.0
244,60.75,73.8312,84.0501,153.086,100.801,96.7836,0.00866939,0.182382,20.6814,33.0909,0.341585,0.0,0.0
246,61.25,72.8837,82.9682,153.735,100.793,98.0071,0.00818307,0.175638,20.6986,33.0408,0.235434,0.0,0.0
248,61.75,72.763,82.9683,156.94,100.797,96.7224,0.00778915,0.169278,20.714,33.0308,0.346548,0.0,0.0
250,62.25,72.975,82.4294,153.053,100.816,97.2118,0.00747007,0.163317,20.7264,33.0609,0.305736,0.0,0.0
252,62.75,72.5741,81.4133,156.236,100.799,102.167,0.00715954,0.158489,20.7379,33.1009,-0.113252,0.0,0.0
254,63.25,71.5089,81.2112,149.54,100.802,97.2118,0.00690801,0.1537,20.7484,33.0709,0.304566,0.0,0.0
256,63.75,71.4099,80.6206,157.092,100.824,96.7224,0.00669759,0.149031,20.7569,33.0809,0.348793,0.0,0.0
258,64.25,71.3017,80.3777,157.405,100.799,97.3342,0.00652114,0.144583,20.7673,33.0609,0.293748,0.0,0.0
260,64.75,71.0722,80.1872,154.607,100.822,98.0683,0.00638623,0.140381,20.7757,33.0508,0.232627,0.0,0.0
262,65.25,70.4781,79.5985,154.65,100.816,96.8447,0.00628417,0.136537,20.7847,33.0308,0.33751,0.0,0.0
264,65.75,70.4244,78.8971,153.18,100.825,98.2518,0.00621487,0.133027,20.792,33.0208,0.217176,0.0,0.0
266,66.25,70.2552,78.4682,154.226,100.811,97.2118,0.00617076,0.130184,20.7979,33.0208,0.305388,0.0,0.0
268,66.75,70.192,78.207,157.798,100.805,98.1295,0.00613504,0.127498,20.8057,33.0008,0.225903,0.0,0.0
270,67.25,69.414,77.5763,154.567,100.731,96.6,0.0061362,0.124978,20.8121,33.0008,0.351709,0.0,0.0
272,67.75,69.3806,76.9621,158.295,100.799,96.8447,0.00616425,0.122737,20.8186,32.9808,0.336088,0.0,0.0
274,68.25,69.3669,76.6265,160.41,100.833,97.7012,0.00620639,0.120742,20.824,33.0008,0.265009,0.0,0.0
276,68.75,68.4751,76.5764,155.737,100.808,96.7224,0.006258,0.119126,20.8291,32.9307,0.347465,0.0,0.0
278,69.25,68.4184,76.4906,159.196,100.814,98.5577,0.00629981,0.11747,20.8333,32.9708,0.190149,0.0,0.0
280,69.75,68.045,75.9408,155.412,100.833,96.6612,0.00634709,0.116128,20.8367,32.9407,0.354896,0.0,0.0
282,70.25,68.2114,75.4502,156.548,100.825,97.946,0.00639745,0.115001,20.8399,32.9507,0.243365,0.0,0.0
284,70.75,67.9409,75.6151,156.595,100.827,97.3953,0.00643824,0.114052,20.8425,32.9608,0.29081,0.0,0.0
286,71.25,67.7211,74.7689,157.681,100.813,97.5789,0.00647255,0.113284,20.8451,32.9507,0.273827,0.0,0.0
288,71.75,67.245,74.5686,152.287,100.816,98.3742,0.00650035,0.112782,20.8475,32.9507,0.205963,0.0,0.0
290,72.25,67.5084,74.0403,156.995,100.811,97.8236,0.00651267,0.112376,20.8498,32.9407,0.252695,0.0,0.0
292,72.75,67.0674,73.6908,151.9,100.85,97.1506,0.00652265,0.112153,20.8518,32.9407,0.313867,0.0,0.0
294,73.25,66.9745,73.5674,154.526,100.813,96.9671,0.00651418,0.111973,20.8534,32.9307,0.326653,0.0,0.0
296,73.75,66.7671,73.268,154.55,100.847,97.4565,0.00650731,0.111932,20.8548,32.9207,0.287272,0.0,0.0
298,74.25,66.7331,72.9322,159.341,100.822,100.332,0.00648769,0.1119,20.8558,32.9207,0.0409626,0.0,0.0
300,74.75,66.4124,73.1475,156.866,100.824,97.273,0.00645913,0.111921,20.8567,32.9207,0.301178,0.0,0.0
302,75.25,66.0131,72.8868,154.297,100.805,98.8636,0.00642662,0.111981,20.8574,32.9407,0.163331,0.0,0.0
304,75.75,66.0437,72.8318,156.459,100.825,98.8636,0.00639185,0.11203,20.858,32.8907,0.165039,0.0,0.0
306,76.25,65.7271,71.8709,154.246,100.809,97.3342,0.00636369,0.111994,20.8584,32.9107,0.294633,0.0,0.0
308,76.75,65.3619,71.7488,150.064,100.838,97.0895,0.00633151,0.111965,20.8588,32.9207,0.318209,0.0,0.0
310,77.25,64.9937,71.5562,156.755,100.805,98.5577,0.00629701,0.111917,20.8591,32.8807,0.189328,0.0,0.0
312,77.75,65.3486,71.2197,155.46,100.842,97.3953,0.00626505,0.111857,20.8594,32.8907,0.292105,0.0,0.0
314,78.25,64.9464,71.1419,156.644,100.816,99.6589,0.00623555,0.111809,20.8596,32.8206,0.0969826,0.0,0.0
316,78.75,65.1106,71.151,156.37,100.819,97.0283,0.00621634,0.11183,20.8597,32.8507,0.321924,0.0,0.0
318,79.25,65.0825,70.5738,158.189,100.816,97.5789,0.00620499,0.111887,20.8598,32.8707,0.274111,0.0,0.0
320,79.75,65.0589,70.4825,156.808,100.815,100.638,0.00620718,0.111969,20.8599,32.8807,0.0147616,0.0,0.0
322,80.25,64.9287,70.2229,156.169,100.813,95.56,0.0062192,0.112035,20.86,32.8607,0.449457,0.0,0.0
324,80.75,64.4921,69.7805,155.186,100.815,100.026,0.00622893,0.11218,20.8601,32.8707,0.0659775,0.0,0.0
326,81.25,63.883,69.7285,155.618,100.791,97.7624,0.00625335,0.112297,20.8602,32.8607,0.256242,0.0,0.0
328,81.75,64.15,69.7657,156.343,100.812,96.5389,0.00627313,0.112483,20.8602,32.8306,0.363765,0.0,0.0
330,82.25,64.3977,69.7011,155.208,100.777,97.7012,0.00629679,0.112633,20.8602,32.8406,0.260299,0.0,0.0
332,82.75,63.851,69.0974,155.889,100.808,97.6401,0.00631595,0.112763,20.8603,32.8206,0.268152,0.0,0.0
334,83.25,63.7986,68.803,152.345,100.797,98.0683,0.00633147,0.112876,20.8603,32.8306,0.230478,0.0,0.0
336,83.75,63.8963,68.8665,153.696,100.817,96.9059,0.00633896,0.112967,20.8601,32.8406,0.3323,0.0,0.0
338,84.25,63.363,68.7972,154.126,100.786,97.5789,0.00634502,0.112949,20.8597,32.7806,0.271646,0.0,0.0
340,84.75,63.6498,68.9531,156.52,100.8,98.8024,0.00634993,0.112936,20.8594,32.8406,0.168088,0.0,0.0
342,85.25,63.4226,68.6118,150.456,100.773,96.6,0.0063539,0.112908,20.8592,32.8206,0.355188,0.0,0.0
344,85.75,63.2071,68.6019,157.383,100.8,100.515,0.00636249,0.112872,20.859,32.7906,0.0237164,0.0,0.0
346,86.25,63.7473,67.79,156.437,100.791,98.0071,0.00637426,0.112834,20.8588,32.7806,0.235213,0.0,0.0
348,86.75,63.4447,67.7662,150.011,100.786,98.0071,0.00639385,0.112797,20.8587,32.7506,0.234865,0.0,0.0
350,87.25,63.1989,67.5846,156.408,100.784,96.9671,0.00641876,0.112727,20.859,32.7706,0.324313,0.0,0.0
352,87.75,62.7499,67.6456,157.071,100.755,96.6,0.00644565,0.112634,20.8593,32.7506,0.353733,0.0,0.0
354,88.25,62.6328,67.149,153.005,100.765,98.1907,0.00647346,0.112535,20.8595,32.7506,0.217348,0.0,0.0
356,88.75,62.5657,67.5699,155.634,100.768,97.3342,0.00649531,0.112433,20.8597,32.7506,0.291218,0.0,0.0
358,89.25,62.8337,66.3718,154.491,100.74,101.25,0.00651241,0.112351,20.8598,32.7606,-0.0423392,0.0,0.0
360,89.75,62.43,66.9394,153.145,100.764,97.1506,0.00652626,0.112284,20.8599,32.7506,0.306692,0.0,0.0
362,90.25,62.3037,66.747,156.038,100.767,96.9671,0.00653748,0.11223,20.86,32.7305,0.322827,0.0,0.0
364,90.75,62.4119,66.2543,152.767,100.748,97.2118,0.00654925,0.112186,20.8601,32.7205,0.300139,0.0,0.0
366,91.25,62.2571,66.7079,153.696,100.739,100.148,0.0065612,0.112191,20.8604,32.7205,0.0494167,0.0,0.0
368,91.75,61.9559,66.3781,155.718,100.738,96.4777,0.00659034,0.11223,20.8606,32.7105,0.362955,0.0,0.0
370,92.25,62.0903,66.1039,155.359,100.733,97.8848,0.00663145,0.112262,20.8608,32.7005,0.24093,0.0,0.0
372,92.75,61.6879,65.9572,154.973,100.758,99.0472,0.00668019,0.112288,20.861,32.7005,0.143864,0.0,0.0
374,93.25,61.8544,65.6557,156.053,100.732,97.0895,0.00673357,0.112309,20.8611,32.7005,0.309389,0.0,0.0
376,93.75,61.6497,65.3374,154.325,100.742,97.7012,0.00678286,0.112265,20.8612,32.7005,0.257452,0.0,0.0
378,94.25,60.9187,65.3414,157.066,100.714,98.3742,0.00682823,0.11223,20.8613,32.6605,0.197425,0.0,0.0
380,94.75,61.389,65.4905,156.451,100.723,97.8236,0.00686497,0.112186,20.8614,32.6505,0.245296,0.0,0.0
382,95.25,61.3881,65.1669,155.366,100.723,96.7836,0.00689091,0.112151,20.8614,32.6405,0.335102,0.0,0.0
384,95.75,61.3675,65.5106,152.684,100.71,97.8236,0.00691191,0.112058,20.8615,32.6305,0.24422,0.0,0.0
386,96.25,61.4347,65.4723,157.807,100.723,97.4565,0.00690723,0.111926,20.8615,32.6805,0.276871,0.0,0.0
388,96.75,60.9343,64.6626,159.507,100.704,97.273,0.00690344,0.111707,20.8616,32.6505,0.291185,0.0,0.0
390,97.25,60.9436,65.1072,152.916,100.706,96.5389,0.00690037,0.11143,20.8616,32.6505,0.354974,0.0,0.0
392,97.75,61.1352,65.1546,152.594,100.698,96.4777,0.00685707,0.111205,20.8618,32.7205,0.359571,0.0,0.0
394,98.25,61.0788,65.4003,153.601,100.692,96.0494,0.006822,0.110917,20.8622,32.7105,0.396461,0.0,0.0
396,98.75,61.1633,64.537,153.063,100.697,97.0895,0.00677449,0.110684,20.8628,32.6905,0.306415,0.0,0.0
398,99.25,60.739,64.881,157.941,100.684,97.5789,0.00673599,0.110471,20.8635,32.7105,0.263105,0.0,0.0
400,99.75,61.202,64.6408,154.02,100.685,96.5389,0.00670482,0.110277,20.864,32.6705,0.35317,0.0,0.0
402,100.25,61.0217,64.6892,152.955,100.697,96.7836,0.00667956,0.110049,20.8644,32.6405,0.332919,0.0,0.0
404,100.75,60.9194,64.7736,153.422,100.682,97.8848,0.0066744,0.109799,20.8648,32.6405,0.236626,0.0,0.0
406,101.25,59.5483,62.9197,157.682,100.671,96.8447,0.00667021,0.109573,20.8651,32.6405,0.325491,0.0,0.0
408,101.75,60.5911,64.0574,155.966,100.695,98.1907,0.00668595,0.109368,20.8653,32.5904,0.211496,0.0,0.0
410,102.25,60.9008,64.1961,159.284,100.665,97.5789,0.00669869,0.109211,20.8659,32.5804,0.261554,0.0,0.0
412,102.75,61.8646,65.4696,158.284,100.665,97.0895,0.00672244,0.10909,20.8664,32.5904,0.303787,0.0,0.0
414,103.25,61.9769,65.3627,156.363,100.666,97.3953,0.00675376,0.108992,20.8668,32.6004,0.277431,0.0,0.0
416,103.75,61.3175,65.3468,154.283,100.666,97.8848,0.00677912,0.108943,20.8672,32.5904,0.235297,0.0,0.0
418,104.25,61.7117,65.3682,155.233,100.675,97.3342,0.00683158,0.108904,20.8672,32.6505,0.283435,0.0,0.0
420,104.75,62.0547,65.1499,156.855,100.651,96.4777,0.00687408,0.108808,20.867,32.5904,0.355677,0.0,0.0
422,105.25,61.2923,65.1692,158.553,100.646,98.6189,0.00692127,0.108673,20.8669,32.5804,0.17086,0.0,0.0
424,105.75,61.4478,64.8648,157.138,100.644,97.5177,0.00697099,0.108564,20.8668,32.6004,0.265017,0.0,0.0
426,106.25,61.135,64.4491,155.218,100.657,99.4754,0.00701933,0.108339,20.8667,32.6104,0.0991796,0.0,0.0
428,106.75,60.6796,64.4694,155.03,100.629,97.4565,0.00706576,0.108158,20.867,32.6204,0.269085,0.0,0.0
430,107.25,60.7253,64.3682,156.723,100.625,98.6801,0.00710134,0.107844,20.8673,32.6104,0.163943,0.0,0.0
432,107.75,61.1708,63.6725,154.945,100.623,96.4165,0.00712835,0.10759,20.8676,32.6104,0.358662,0.0,0.0
434,108.25,60.443,64.1311,155.046,100.634,97.3342,0.0071435,0.107189,20.8678,32.5604,0.280016,0.0,0.0
436,108.75,60.6852,63.523,153.797,100.614,96.1718,0.00714972,0.106744,20.8679,32.5604,0.379247,0.0,0.0
438,109.25,60.7749,64.1063,157.706,100.61,97.8848,0.00714804,0.106276,20.868,32.5604,0.230643,0.0,0.0
440,109.75,60.6952,63.5923,153.303,100.574,97.7624,0.00714062,0.105898,20.8681,32.5704,0.238171,0.0,0.0
442,110.25,60.762,63.9438,158.237,100.615,97.4565,0.00713461,0.105335,20.8682,32.5804,0.267914,0.0,0.0
444,110.75,60.4755,63.5333,153.248,100.605,97.5177,0.00711563,0.104879,20.8685,32.5704,0.261756,0.0,0.0
446,111.25,60.6733,63.707,151.278,100.599,98.0071,0.00708756,0.104486,20.869,32.5704,0.2192,0.0,0.0
448,111.75,60.8975,63.6207,157.54,100.583,96.9059,0.0070444,0.104146,20.8693,32.5504,0.312809,0.0,0.0
450,112.25,60.6686,63.3136,154.613,100.602,98.313,0.00700944,0.10387,20.8696,32.5604,0.193344,0.0,0.0
452,112.75,60.4175,63.603,157.159,100.564,98.6189,0.00698113,0.103608,20.8703,32.5504,0.164051,0.0,0.0
454,113.25,60.5766,63.649,155.155,100.585,98.8024,0.00695819,0.103359,20.8708,32.5504,0.150177,0.0,0.0
456,113.75,60.291,63.6979,154.987,100.565,98.4354,0.00691538,0.103158,20.8718,32.5404,0.17976,0.0,0.0
458,114.25,60.7109,63.5605,154.678,100.591,99.8425,0.00688071,0.102769,20.8726,32.5604,0.0627334,0.0,0.0
460,114.75,60.2231,63.7414,157.891,100.582,97.7624,0.00685135,0.102454,20.8733,32.5204,0.238773,0.0,0.0
462,115.25,60.4039,63.0703,160.519,100.562,97.8236,0.00682756,0.101958,20.8738,32.5304,0.231872,0.0,0.0
464,115.75,60.4327,63.1186,153.448,100.545,97.273,0.00681367,0.101556,20.8743,32.5103,0.277853,0.0,0.0
466,116.25,60.164,63.6395,156.932,100.566,98.0071,0.00680724,0.101135,20.8746,32.5103,0.216476,0.0,0.0
468,116.75,60.4119,63.3202,155.568,100.539,98.4966,0.00681144,0.100709,20.8749,32.5003,0.172356,0.0,0.0
470,117.25,59.7216,62.9877,154.688,100.562,98.1907,0.00681768,0.100527,20.875,32.5204,0.200445,0.0,0.0
472,117.75,60.0216,63.2112,156.651,100.522,98.0071,0.00682835,0.100145,20.8752,32.5103,0.212832,0.0,0.0
474,118.25,60.1904,63.1541,155.425,100.557,99.8425,0.00685312,0.0997716,20.8754,32.5103,0.0599134,0.0,0.0
476,118.75,60.1072,63.0903,157.962,100.5,99.2307,0.00688769,0.0994532,20.876,32.4903,0.106752,0.0,0.0
478,119.25,59.8964,63.0047,158.397,100.528,97.7012,0.00692913,0.0991811,20.8764,32.4903,0.239563,0.0,0.0
480,119.75,59.8688,63.0485,159.526,100.498,97.7624,0.0069748,0.0989606,20.8772,32.4903,0.231832,0.0,0.0
482,120.25,59.9149,62.848,151.65,100.524,99.0472,0.0070118,0.0986918,20.8779,32.4903,0.124297,0.0,0.0
484,120.75,59.8153,63.1583,156.122,100.503,98.6189,0.00706605,0.0984741,20.8784,32.4903,0.158948,0.0,0.0
486,121.25,59.924,62.7102,151.003,100.511,100.087,0.00712076,0.0981775,20.8789,32.4803,0.0354548,0.0,0.0
488,121.75,59.7597,62.6709,156.163,100.495,100.026,0.00717476,0.0979372,20.8792,32.4803,0.0392586,0.0,0.0
490,122.25,60.1001,62.5638,159.853,100.497,99.4754,0.00721851,0.0976223,20.8795,32.4703,0.0858424,0.0,0.0
492,122.75,59.8234,62.3337,154.244,100.475,100.454,0.00727185,0.0973672,20.8797,32.4903,0.00169496,0.0,0.0
494,123.25,59.8577,62.3382,154.893,100.483,97.8848,0.00731506,0.0970555,20.8799,32.4803,0.220026,0.0,0.0
496,123.75,59.8749,62.8467,156.107,100.489,100.454,0.00735815,0.0968029,20.8803,32.4703,0.00293118,0.0,0.0
498,124.25,59.6577,62.3005,159.784,100.478,101.8,0.00740032,0.0965984,20.8808,32.4603,-0.109807,0.0,0.0
500,124.75,59.4969,62.146,162.982,100.462,99.2307,0.00743448,0.0963576,20.8812,32.4503,0.10358,0.0,0.0
502,125.25,59.1184,61.9524,155.872,100.458,99.353,0.00746855,0.0961625,20.8815,32.4503,0.092881,0.0,0.0
504,125.75,59.6073,61.9205,155.933,100.453,98.7413,0.00749615,0.0959571,20.8818,32.4603,0.144348,0.0,0.0
506,126.25,59.7314,61.9152,152.36,100.451,99.0472,0.00752322,0.095748,20.882,32.4803,0.118209,0.0,0.0
508,126.75,59.3123,61.6721,158.9,100.44,99.0472,0.0075494,0.0954838,20.8822,32.4403,0.117321,0.0,0.0
510,127.25,59.0406,61.9463,161.283,100.437,101.005,0.00758469,0.0951844,20.8824,32.4503,-0.0473572,0.0,0.0
512,127.75,59.551,61.8703,153.468,100.436,99.8425,0.00761328,0.094776,20.8825,32.4303,0.0497999,0.0,0.0
514,128.25,59.0729,62.0229,147.539,100.434,97.5789,0.00765694,0.094296,20.8828,32.4403,0.242223,0.0,0.0
516,128.75,59.4085,61.6612,156.707,100.423,98.1907,0.0076923,0.0937493,20.8833,32.4203,0.188839,0.0,0.0
518,129.25,59.5154,61.8139,154.912,100.419,99.2919,0.00775044,0.0931644,20.8837,32.3902,0.0947861,0.0,0.0
520,129.75,59.3036,62.3733,158.591,100.4,99.9648,0.00779753,0.0925802,20.884,32.4002,0.0364657,0.0,0.0
522,130.25,59.2357,61.8467,157.02,100.401,98.6189,0.00786006,0.0920076,20.8844,32.4002,0.150446,0.0,0.0
524,130.75,59.0081,61.0921,156.739,100.41,99.353,0.0079107,0.0913782,20.885,32.3902,0.0888517,0.0,0.0
526,131.25,59.4953,61.6394,155.021,100.387,98.8024,0.00795173,0.0907195,20.8855,32.3702,0.133655,0.0,0.0
528,131.75,59.2926,61.4267,153.503,100.366,100.76,0.00801192,0.0901859,20.8863,32.3602,-0.0329172,0.0,0.0
530,132.25,59.4851,61.6381,159.826,100.354,97.8236,0.00806068,0.0894543,20.887,32.3802,0.214489,0.0,0.0
532,132.75,59.2401,61.9031,154.142,100.369,99.2307,0.00810917,0.0888618,20.8878,32.3602,0.0958374,0.0,0.0
534,133.25,58.9946,61.875,155.414,100.37,97.4565,0.00814844,0.0881873,20.8886,32.3502,0.247398,0.0,0.0
536,133.75,59.0363,61.6716,154.927,100.364,100.026,0.00817126,0.087641,20.8893,32.3502,0.0283438,0.0,0.0
538,134.25,58.8545,61.2406,155.757,100.348,101.25,0.00818974,0.0871985,20.8898,32.3502,-0.0751094,0.0,0.0
540,134.75,59.2038,61.4495,153.616,100.359,100.026,0.00819255,0.0866606,20.8903,32.3502,0.0278998,0.0,0.0
542,135.25,58.927,61.4006,157.486,100.341,98.5577,0.00818387,0.086225,20.8906,32.3802,0.150643,0.0,0.0
544,135.75,58.7494,62.027,155.744,100.348,100.148,0.00817685,0.0858721,20.8914,32.3702,0.0167104,0.0,0.0
546,136.25,58.9076,61.5744,155.017,100.344,100.577,0.00817115,0.0854965,20.8919,32.3702,-0.0194459,0.0,0.0
548,136.75,58.4333,61.4592,158.178,100.324,99.353,0.00816911,0.0851924,20.8925,32.3802,0.0816451,0.0,0.0
550,137.25,58.3304,61.1975,158.655,100.296,100.821,0.00816745,0.0848988,20.893,32.3502,-0.0438916,0.0,0.0
552,137.75,58.5568,61.5378,158.806,100.302,98.313,0.00819565,0.0846185,20.8936,32.3302,0.168188,0.0,0.0
554,138.25,58.9833,61.5608,153.787,100.295,98.7413,0.00821849,0.0843128,20.8943,32.3402,0.131174,0.0,0.0
556,138.75,58.7626,61.5738,154.186,100.306,99.5978,0.008237,0.0839945,20.8949,32.3402,0.0595536,0.0,0.0
558,139.25,58.846,61.4846,157.591,100.294,99.2919,0.00827383,0.0837366,20.8954,32.3302,0.084309,0.0,0.0
560,139.75,58.2156,61.1425,159.374,100.273,99.2919,0.00830367,0.0833784,20.8958,32.3402,0.082593,0.0,0.0
562,140.25,58.8616,61.1689,152.231,100.259,99.6589,0.00831498,0.0830882,20.8961,32.3202,0.050424,0.0,0.0
564,140.75,58.9265,61.3095,153.272,100.259,100.087,0.00832414,0.0827188,20.8963,32.3202,0.0143768,0.0,0.0
566,141.25,58.6636,61.1406,156.792,100.251,99.9648,0.00830202,0.0824196,20.8967,32.3502,0.0240159,0.0,0.0
568,141.75,58.19,61.0798,155.921,100.256,99.8425,0.0082841,0.0820728,20.8973,32.3902,0.0347159,0.0,0.0
570,142.25,58.4477,60.9861,153.937,100.243,99.2919,0.00823621,0.0817918,20.8978,32.3102,0.0800505,0.0,0.0
572,142.75,58.2824,60.9506,157.289,100.255,100.454,0.00819742,0.0814598,20.8981,32.2801,-0.0166875,0.0,0.0
574,143.25,58.2218,60.9287,155.935,100.237,99.4754,0.00813009,0.0811908,20.8986,32.18,0.0640312,0.0,0.0
576,143.75,58.5383,60.5771,160.123,100.238,99.5978,0.00807556,0.0808088,20.8993,32.2501,0.0538012,0.0,0.0
578,144.25,58.2434,60.6187,153.574,100.201,99.0472,0.00801985,0.0804995,20.8998,32.3602,0.0973112,0.0,0.0
580,144.75,58.3392,60.3991,153.668,100.217,99.9648,0.00797472,0.0802489,20.9002,32.3502,0.0211859,0.0,0.0
582,145.25,58.4359,60.9656,157.233,100.199,98.6801,0.00793817,0.0797029,20.9005,32.3702,0.128274,0.0,0.0
584,145.75,58.0259,60.7095,156.992,100.206,100.271,0.00793286,0.0792607,20.9008,32.3402,-0.00546064,0.0,0.0
586,146.25,57.9799,60.2578,154.496,100.204,99.9648,0.00795043,0.0788163,20.901,32.3302,0.0201052,0.0,0.0
588,146.75,58.0051,60.7526,156.173,100.214,99.1695,0.00798762,0.0783786,20.9012,32.3502,0.0880225,0.0,0.0
590,147.25,58.0599,60.6587,154.842,100.181,98.5577,0.00803843,0.0780241,20.9018,32.3202,0.137231,0.0,0.0
592,147.75,58.1661,60.6221,155.908,100.186,99.6589,0.00807958,0.0776922,20.9023,32.3001,0.0442879,0.0,0.0
594,148.25,57.7778,60.4649,155.813,100.16,97.273,0.00810592,0.0775508,20.9026,32.3202,0.245657,0.0,0.0
596,148.75,57.5922,60.3603,156.844,100.16,98.7413,0.00817217,0.0770866,20.903,32.2901,0.119824,0.0,0.0
598,149.25,57.7939,60.3131,152.693,100.15,99.5366,0.00819128,0.0769429,20.9031,32.2701,0.0515844,0.0,0.0
600,149.75,57.8884,60.6482,154.322,100.165,98.0683,0.00822394,0.0766503,20.9033,32.2201,0.177676,0.0,0.0
602,150.25,57.9807,60.4027,161.037,100.134,97.5789,0.00824141,0.076371,20.9035,32.2501,0.217121,0.0,0.0
604,150.75,57.7747,60.4054,155.211,100.167,99.7201,0.00825556,0.0761368,20.9041,32.2701,0.0375742,0.0,0.0
606,151.25,58.2694,59.9756,155.134,100.125,100.393,0.00825687,0.0759402,20.9045,32.2901,-0.022416,0.0,0.0
608,151.75,58.3659,60.2072,152.759,100.129,99.5978,0.00824882,0.0757809,20.9049,32.2901,0.0446415,0.0,0.0
610,152.25,57.9016,60.535,154.167,100.105,99.9036,0.00824229,0.0755327,20.9052,32.3302,0.0169113,0.0,0.0
612,152.75,58.2996,60.5455,157.072,100.139,99.4142,0.00820491,0.0753317,20.9055,32.3202,0.060993,0.0,0.0
614,153.25,58.0358,60.6125,154.093,100.111,100.332,0.00817463,0.0750906,20.9057,32.3302,-0.018474,0.0,0.0
616,153.75,58.0318,60.7719,155.312,100.117,100.76,0.00812446,0.0748247,20.9059,32.3402,-0.0538024,0.0,0.0
618,154.25,58.1071,60.5928,156.409,100.083,101.984,0.00808381,0.0745311,20.906,32.3001,-0.158046,0.0,0.0
620,154.75,57.4529,60.1318,159.976,100.099,98.4966,0.00803268,0.0742228,20.9061,32.3802,0.13551,0.0,0.0
622,155.25,58.1336,60.7902,157.444,100.077,99.4754,0.00797487,0.073973,20.9066,32.4703,0.050637,0.0,0.0
624,155.75,57.8866,60.856,161.951,100.086,99.2307,0.00790917,0.0736071,20.907,32.4503,0.0720571,0.0,0.0
626,156.25,57.972,60.6156,153.872,100.065,99.4754,0.00783897,0.0733107,20.9074,32.3902,0.0496178,0.0,0.0
628,156.75,57.8742,60.7427,158.091,100.086,99.4754,0.007772,0.0729963,20.9077,32.3302,0.0514013,0.0,0.0
630,157.25,57.9305,60.7007,155.429,100.065,99.8425,0.00770867,0.0727416,20.9081,32.2701,0.0187137,0.0,0.0
632,157.75,58.1486,61.1531,159.774,100.06,101.005,0.00765737,0.0725353,20.9087,32.2501,-0.0789199,0.0,0.0
634,158.25,57.9271,60.6883,153.055,100.06,100.332,0.00760942,0.0723682,20.9092,32.2401,-0.022772,0.0,0.0
636,158.75,57.859,60.372,149.351,100.067,100.821,0.00757058,0.0722328,20.9095,32.2701,-0.0630708,0.0,0.0
638,159.25,57.862,60.4939,161.737,100.026,99.4754,0.00753912,0.0721232,20.9098,32.2301,0.0464011,0.0,0.0
640,159.75,57.8564,60.3129,157.772,100.047,99.2307,0.00751364,0.0720046,20.9101,32.2301,0.0687775,0.0,0.0
642,160.25,57.7162,60.6325,154.319,100.032,99.7813,0.00750579,0.0719086,20.9104,32.2301,0.0210591,0.0,0.0
644,160.75,57.9003,60.6023,158.509,100.039,98.8024,0.00749943,0.0718152,20.9108,32.2401,0.104434,0.0,0.0
646,161.25,57.8614,60.4638,161.425,100.027,100.087,0.00749294,0.0717254,20.9111,32.2401,-0.0050639,0.0,0.0
648,161.75,57.7882,60.2791,155.767,100.025,99.5366,0.00748646,0.071598,20.9114,32.2301,0.0410772,0.0,0.0
650,162.25,57.8397,60.625,160.368,100.017,97.7624,0.00747785,0.0714454,20.9116,32.2501,0.1915,0.0,0.0
652,162.75,57.72,59.6769,156.276,100.015,99.5978,0.00746785,0.0712436,20.9117,32.2601,0.0351207,0.0,0.0
654,163.25,57.9862,60.0039,154.997,99.9916,101.066,0.00746358,0.0710098,20.9119,32.2601,-0.0897724,0.0,0.0
656,163.75,57.6174,59.8855,159.704,99.9992,98.986,0.00746013,0.0706953,20.912,32.2101,0.0855342,0.0,0.0
658,164.25,57.6883,60.2254,158.325,99.9923,98.4966,0.00746757,0.0703279,20.9121,32.2101,0.126592,0.0,0.0
660,164.75,57.5814,60.1397,156.279,99.9798,98.4354,0.00747359,0.0699132,20.9121,32.18,0.130759,0.0,0.0
662,165.25,57.3372,60.1964,156.437,99.9859,99.4142,0.00748615,0.0694717,20.9122,32.19,0.0481584,0.0,0.0
664,165.75,57.4863,59.7308,151.43,99.987,99.1083,0.00749632,0.0691141,20.9122,32.17,0.0741385,0.0,0.0
666,166.25,57.7222,60.5091,153.319,99.9798,99.7201,0.00750456,0.068587,20.9123,32.15,0.0218451,0.0,0.0
668,166.75,57.9891,60.0454,156.147,99.9772,100.638,0.0075266,0.0681601,20.9125,32.15,-0.0553176,0.0,0.0
670,167.25,57.1737,60.2044,156.601,99.9794,99.2919,0.00754445,0.0677674,20.913,32.14,0.0579607,0.0,0.0
672,167.75,57.2097,60.2909,157.885,99.9783,100.148,0.00757037,0.0674071,20.9133,32.16,-0.0142751,0.0,0.0
674,168.25,57.6148,60.1016,153.548,99.9612,99.9648,0.00760168,0.0671153,20.914,32.1,-0.000303387,0.0,0.0
676,168.75,57.9579,59.6525,158.982,99.9688,99.4754,0.00763176,0.0668345,20.9146,32.14,0.0415574,0.0,0.0
678,169.25,57.77,59.636,153.844,99.9582,100.148,0.00766037,0.066607,20.915,32.12,-0.0159647,0.0,0.0
680,169.75,57.2962,59.9904,158.55,99.9555,100.21,0.00767545,0.0662892,20.9154,32.12,-0.0213173,0.0,0.0
682,170.25,57.0792,59.8528,156.118,99.968,100.148,0.00768039,0.0660319,20.9162,32.13,-0.0151362,0.0,0.0
684,170.75,57.827,59.8849,159.954,99.9521,100.026,0.00766754,0.0656751,20.9168,32.15,-0.0062061,0.0,0.0
686,171.25,57.435,59.9533,160.001,99.9749,98.9248,0.00764197,0.0653861,20.9173,32.17,0.0886863,0.0,0.0
688,171.75,57.7043,59.502,150.796,99.9388,99.0472,0.0076051,0.0651076,20.9176,32.19,0.0752758,0.0,0.0
690,172.25,57.634,60.1296,153.573,99.9582,99.353,0.00756068,0.064882,20.9184,32.19,0.0510022,0.0,0.0
692,172.75,57.4808,59.8041,157.923,99.935,99.8425,0.00752471,0.0645807,20.919,32.2101,0.00778419,0.0,0.0
694,173.25,57.5866,59.8101,154.575,99.9339,100.454,0.00749018,0.0643366,20.9195,32.16,-0.0436198,0.0,0.0
696,173.75,57.2861,60.0132,157.11,99.9415,98.6189,0.00745738,0.0640765,20.9199,32.17,0.111893,0.0,0.0
698,174.25,57.6068,59.6741,154.17,99.9339,99.2307,0.00743753,0.0638097,20.9202,32.17,0.059312,0.0,0.0
700,174.75,57.2096,59.6555,159.268,99.9369,99.1083,0.00742751,0.0634922,20.9205,32.16,0.0699304,0.0,0.0
702,175.25,57.3224,59.832,152.12,99.9423,100.577,0.00742613,0.0631439,20.9207,32.2301,-0.0531429,0.0,0.0
704,175.75,57.4518,59.9269,159.552,99.9073,99.2919,0.00743107,0.0628617,20.9209,32.2401,0.0519028,0.0,0.0
706,176.25,57.3452,59.6153,153.393,99.9149,99.1695,0.00743844,0.062411,20.921,31.8998,0.0628983,0.0,0.0
708,176.75,57.45,59.5651,159.176,99.9024,101.188,0.00744744,0.0620459,20.9216,32.0599,-0.107426,0.0,0.0
710,177.25,57.3374,59.7831,155.987,99.9324,100.148,0.00745473,0.0616171,20.922,31.9498,-0.0181328,0.0,0.0
712,177.75,57.3699,59.5254,155.358,99.9191,101.433,0.00745168,0.0612696,20.9226,32.14,-0.126311,0.0,0.0
714,178.25,57.2608,59.354,152.349,99.9096,98.8636,0.0074492,0.0609587,20.9233,32.2301,0.088399,0.0,0.0