File: 01_Data/Polyisocyanurate_Spray_Foam_Insulation/Cone/Polyisocyanurate_Spray_Foam_Insulation_Cone_HF50Scan_241113_R1.csv
Names,Time,Stack TC,Smoke TC,Exh Press,Smoke Comp,Smoke Meas,CO Meter,CO2 Meter,O2 Meter,Sample Mass,Ext Coeff,Start Test,Flame Verif
Chan Gain,,500,500,1,1,1,1,1,1,1,1,1.0,1.0
Offset,,0,0,0.138019,0,0,0,0,0,0,0,0.0,0.0
Gain,,1,1,25.011,12.0976,1865.13,1,1,1,1.00093,0.957506,1.0,1.0
Units,sec,C,C,Pa,%,%,%,%,%,g,/m,,
Baseline,,38.6546,40.5738,165.204,98.2269,94.0562,0.00047576,0.0409076,20.9505,-442.642,0.365016,,
2,0.25,38.4116,40.4697,165.336,98.0563,92.2661,0.000515428,0.042452,20.9521,47.5244,0.511214,0.0,0.0
4,0.75,37.8032,39.5381,163.502,98.105,65.1725,0.000532863,0.042503,20.9521,46.7737,3.43526,0.0,0.0
6,1.25,37.7507,39.3052,171.562,98.108,78.947,0.000550693,0.0425583,20.952,47.5043,1.82507,0.0,0.0
8,1.75,37.1205,39.4139,154.659,98.1371,72.1167,0.000565136,0.0426031,20.952,47.2941,2.58762,0.0,1.0
10,2.25,37.3118,39.3793,151.626,98.1032,61.9851,0.000562001,0.0426393,20.952,47.2641,3.85628,0.0,1.0
12,2.75,37.9707,40.2338,148.076,98.1338,58.4561,0.000559462,0.0426687,20.9515,47.104,4.35125,0.0,1.0
14,3.25,38.2837,41.3376,141.724,98.095,55.2117,0.000557405,0.0427312,20.9507,47.0239,4.82753,0.0,1.0
16,3.75,39.0617,42.4821,143.786,98.1401,54.7563,0.000523894,0.0428167,20.95,46.9038,4.90094,0.0,1.0
18,4.25,40.2594,43.5268,145.803,98.1371,56.2362,0.00046809,0.0428859,20.9494,46.7636,4.6767,0.0,1.0
20,4.75,40.8019,44.8506,145.11,98.146,52.195,0.000422888,0.042942,20.9489,46.6736,5.30383,0.0,1.0
22,5.25,42.0877,46.0336,132.664,98.1316,50.4874,0.000357909,0.0429874,20.9482,46.5234,5.58197,0.0,1.0
24,5.75,42.7984,47.7001,138.224,98.1604,47.7552,0.000305275,0.043083,20.9475,46.4534,6.05172,0.0,1.0
26,6.25,43.3047,48.7601,143.239,98.132,47.4707,0.000267574,0.0431605,20.9469,46.3032,6.09949,0.0,1.0
28,6.75,43.779,49.4851,133.869,98.1416,47.4707,0.000237036,0.0432619,20.9464,46.2331,6.10031,0.0,1.0
30,7.25,44.6026,50.8548,137.059,98.1253,54.4717,0.000212301,0.043379,20.946,46.093,4.94345,0.0,1.0
32,7.75,45.6191,51.9417,141.448,98.1379,49.9751,0.000240383,0.0434738,20.9457,46.033,5.66817,0.0,1.0
34,8.25,46.3063,53.0552,138.302,98.1257,49.5197,0.00026313,0.0438891,20.9454,45.9229,5.74401,0.0,1.0
36,8.75,47.3733,54.3576,131.858,98.1357,51.2842,0.000359419,0.0442255,20.9452,45.4925,5.45079,0.0,1.0
38,9.25,47.9507,55.592,138.452,98.1124,46.9584,0.000437413,0.0476434,20.945,45.6426,6.18895,0.0,1.0
40,9.75,48.9482,57.1756,134.138,98.1567,48.4952,0.0007414,0.0504119,20.9449,45.4925,5.92226,0.0,1.0
42,10.25,49.0741,58.6328,136.95,98.1349,44.2832,0.00098763,0.0591459,20.9448,45.4324,6.68355,0.0,1.0
44,10.75,50.8253,58.8082,133.601,98.1261,46.503,0.00172391,0.0720627,20.9445,45.3323,6.27196,0.0,1.0
46,11.25,51.4834,60.9163,140.431,98.1272,45.08,0.0023203,0.0927077,20.944,45.2222,6.53308,0.0,1.0
48,11.75,52.4863,62.1917,135.701,98.1416,40.3557,0.00338194,0.118594,20.9384,45.0921,7.46415,0.0,1.0
50,12.25,53.2574,62.663,135.152,98.1342,42.0633,0.00476259,0.149683,20.929,44.982,7.11544,0.0,1.0
52,12.75,53.7805,64.2652,137.884,98.1615,44.1693,0.00718938,0.183974,20.9068,44.8318,6.70744,0.0,1.0
54,13.25,54.0265,65.4905,138.337,98.1427,46.8445,0.00915508,0.221384,20.8756,44.7317,6.21193,0.0,1.0
56,13.75,54.8892,66.0478,132.607,98.1515,44.397,0.0107473,0.260357,20.8504,44.5816,6.6634,0.0,1.0
58,14.25,55.3524,67.4705,125.785,98.143,44.3401,0.0140788,0.291926,20.8115,44.4815,6.67345,0.0,1.0
60,14.75,57.3405,68.0885,136.029,98.1552,41.8356,0.0167774,0.327185,20.7636,44.3614,7.16283,0.0,1.0
62,15.25,57.3479,69.1647,141.286,98.1597,47.1291,0.0189632,0.364466,20.7248,44.2713,6.16251,0.0,0.0
64,15.75,57.8364,70.0033,130.742,98.1678,44.2832,0.0226061,0.394663,20.6681,44.1112,6.68636,0.0,0.0
66,16.25,59.2135,71.1782,141.68,98.1652,40.0142,0.0255568,0.429978,20.6221,43.9911,7.53756,0.0,0.0
68,16.75,59.2943,72.0782,132.349,98.1571,43.2017,0.0290098,0.458583,20.5739,43.911,6.89311,0.0,0.0
70,17.25,59.9939,72.8468,135.863,98.1641,41.4941,0.0318067,0.488708,20.525,43.7909,7.23243,0.0,0.0
72,17.75,60.8683,74.1703,136.119,98.1526,43.1448,0.0349318,0.51311,20.4729,43.6607,6.9038,0.0,0.0
74,18.25,60.9268,74.0546,136.469,98.1585,38.4205,0.0374631,0.538481,20.4196,43.5607,7.87837,0.0,0.0
76,18.75,61.3663,74.8525,145.184,98.1504,43.2017,0.0401684,0.559031,20.3675,43.4405,6.89254,0.0,0.0
78,19.25,62.0208,75.8019,132.462,98.1645,43.2017,0.0423596,0.579916,20.3173,43.2904,6.89374,0.0,0.0
80,19.75,62.6721,76.8451,132.035,98.1567,42.4618,0.0447672,0.596833,20.2722,43.2303,7.03818,0.0,0.0
82,20.25,63.1394,77.0203,137.458,98.1663,41.7787,0.0467173,0.612464,20.2318,43.0602,7.17521,0.0,0.0
84,20.75,63.7272,78.1268,134.821,98.1718,42.0633,0.048658,0.626862,20.1991,42.9901,7.11866,0.0,0.0
86,21.25,64.087,78.4868,134.479,98.1622,44.8524,0.0505548,0.640034,20.1647,42.84,6.57861,0.0,0.0
88,21.75,64.3769,79.0185,128.882,98.1678,45.4785,0.0522928,0.652064,20.1369,42.7699,6.46265,0.0,0.0
90,22.25,65.1498,79.8309,131.662,98.1659,38.0221,0.053882,0.661807,20.1087,42.6298,7.96656,0.0,0.0
92,22.75,65.5232,80.3486,139.402,98.1537,41.4372,0.0553399,0.671842,20.0858,42.5297,7.24308,0.0,0.0
94,23.25,65.6942,81.2729,133.167,98.1777,41.608,0.0566745,0.67997,20.0626,42.4196,7.21059,0.0,0.0
96,23.75,66.0971,81.2294,138.973,98.1818,38.3067,0.0578709,0.687953,20.0437,42.2594,7.90528,0.0,0.0
98,24.25,66.5018,81.4711,126.58,98.1851,39.445,0.0589438,0.694419,20.0236,42.1293,7.6596,0.0,0.0
100,24.75,67.0916,82.5134,140.213,98.18,41.4372,0.0598926,0.699434,20.0074,42.0292,7.24532,0.0,0.0
102,25.25,67.2465,82.9346,132.074,98.201,38.7051,0.0607329,0.703496,19.9942,41.9391,7.82001,0.0,0.0
104,25.75,67.6635,83.5409,137.566,98.1752,40.9249,0.0614135,0.706786,19.9824,41.8691,7.34939,0.0,0.0
106,26.25,67.9988,83.9621,140.193,98.1995,41.6649,0.0619648,0.708408,19.9718,41.769,7.20097,0.0,0.0
108,26.75,68.261,84.1522,139.722,98.1792,42.1772,0.062519,0.709722,19.9632,41.5888,7.09659,0.0,0.0
110,27.25,68.6551,84.4203,141.307,98.184,44.6816,0.0630647,0.710786,19.9573,41.4487,6.61251,0.0,0.0
112,27.75,68.8352,84.7166,131.455,98.1969,40.4696,0.0635067,0.712491,19.9525,41.3686,7.44523,0.0,0.0
114,28.25,69.2225,85.5285,144.189,98.2065,45.137,0.0639304,0.713872,19.9486,41.2585,6.52928,0.0,0.0
116,28.75,69.6696,85.4712,137.933,98.18,44.6247,0.0643327,0.715143,19.9446,41.1484,6.62287,0.0,0.0
118,29.25,69.8707,85.7648,132.525,98.1999,43.0879,0.0646862,0.716309,19.9414,41.0583,6.91893,0.0,0.0
120,29.75,70.1768,85.9243,140.857,98.1888,41.3234,0.0649975,0.717254,19.9383,40.9582,7.26918,0.0,0.0
122,30.25,70.0762,86.4505,141.555,98.2147,42.0064,0.0652609,0.717619,19.9354,40.8481,7.1337,0.0,0.0
124,30.75,70.2369,86.1173,141.731,98.1755,38.5912,0.0654844,0.717915,19.9337,40.728,7.84257,0.0,0.0
126,31.25,70.3914,86.604,136.316,98.2128,39.1604,0.0657426,0.717307,19.9327,40.6079,7.72279,0.0,0.0
128,31.75,70.7669,86.8937,133.135,98.1899,38.6482,0.0658121,0.717143,19.9324,40.5078,7.83143,0.0,0.0
130,32.25,71.0405,87.2184,135.531,98.2084,41.6649,0.0659308,0.716509,19.9319,40.4077,7.20173,0.0,0.0
132,32.75,71.2237,87.2292,133.635,98.1973,41.1526,0.0660007,0.715996,19.9315,40.2576,7.30469,0.0,0.0
134,33.25,71.3428,88.0429,136.759,98.2136,39.8435,0.0660573,0.71507,19.9312,40.1775,7.57761,0.0,0.0
136,33.75,71.5378,88.2517,130.546,98.2102,37.2821,0.0660506,0.714321,19.9312,40.0574,8.13541,0.0,0.0
138,34.25,72.2251,88.4427,141.657,98.215,36.8268,0.0660451,0.712936,19.9313,39.9373,8.23904,0.0,0.0
140,34.75,72.5439,88.7161,129.591,98.2036,40.9819,0.0659871,0.711114,19.9315,39.8272,7.34015,0.0,0.0
142,35.25,72.7578,88.8187,129.03,98.2446,41.4372,0.0658919,0.709638,19.9316,39.7071,7.25084,0.0,0.0
144,35.75,73.0671,89.3951,137.874,98.1873,41.1526,0.0658148,0.706731,19.9317,39.5569,7.30384,0.0,0.0
146,36.25,73.2732,89.5138,131.632,98.2084,36.4283,0.0656475,0.704376,19.9327,39.4869,8.32984,0.0,0.0
148,36.75,73.4016,89.9788,130.99,98.2191,38.2497,0.065512,0.701503,19.9343,39.2867,7.92096,0.0,0.0
150,37.25,73.9214,90.5082,132.24,98.2154,44.2832,0.0653318,0.698308,19.9357,39.2166,6.69043,0.0,0.0
152,37.75,73.7719,90.6981,127.487,98.2158,38.762,0.0651223,0.695193,19.9389,39.0765,7.80893,0.0,0.0
154,38.25,74.2751,91.038,137.994,98.2232,36.9406,0.0649046,0.692197,19.9415,38.9363,8.21381,0.0,0.0
156,38.75,74.653,91.5639,130.193,98.1833,37.9651,0.064685,0.689862,19.9463,38.8563,7.98062,0.0,0.0
158,39.25,74.8854,91.7148,137.704,98.2065,39.7296,0.0644909,0.688052,19.9501,38.6861,7.60105,0.0,0.0
160,39.75,75.0376,91.5628,123.693,98.2088,38.4774,0.064319,0.686758,19.9541,38.586,7.87023,0.0,0.0
162,40.25,75.4325,92.4081,127.518,98.2176,40.6403,0.0641866,0.685864,19.9573,38.4559,7.41164,0.0,0.0
164,40.75,75.8376,93.0743,132.562,98.215,34.9484,0.0640855,0.68514,19.9604,38.3458,8.67875,0.0,0.0
166,41.25,76.0381,93.3811,138.185,98.2158,36.8837,0.0640036,0.684314,19.9629,38.2257,8.22613,0.0,0.0
168,41.75,76.5217,93.7753,134.809,98.2342,36.9406,0.0639733,0.683646,19.9649,38.1256,8.21476,0.0,0.0
170,42.25,76.4095,93.6253,133.368,98.2335,35.5745,0.0639812,0.683676,19.9674,38.0655,8.53119,0.0,0.0
172,42.75,76.9696,93.7952,138.205,98.2232,37.1683,0.0640314,0.684216,19.9694,37.9554,8.1622,0.0,0.0
174,43.25,76.9403,93.7175,145.666,98.2616,33.3547,0.0641114,0.685609,19.9701,37.8553,9.07476,0.0,0.0
176,43.75,76.6732,93.608,149.937,98.2409,35.0053,0.064233,0.687595,19.9708,37.6652,8.66729,0.0,0.0
178,44.25,76.4092,93.7789,135.355,98.2453,31.7609,0.0643827,0.690107,19.9708,37.6051,9.4846,0.0,0.0
180,44.75,77.1443,93.7317,135.086,98.2217,32.0455,0.0645461,0.692952,19.9709,37.495,9.40765,0.0,0.0
182,45.25,76.3041,93.3955,133.451,98.2497,31.4763,0.0647165,0.695792,19.9679,37.3849,9.56058,0.0,0.0
184,45.75,77.148,93.5785,135.085,98.2305,28.175,0.0648787,0.698573,19.9654,37.2848,10.4896,0.0,0.0
186,46.25,77.1675,93.6743,136.095,98.2427,30.4518,0.0650318,0.700825,19.9619,37.2247,9.83792,0.0,0.0
188,46.75,77.2252,94.0148,143.969,98.2431,29.598,0.0651559,0.704217,19.9575,37.0846,10.0768,0.0,0.0
190,47.25,76.9571,93.6038,139.306,98.2305,31.704,0.0653004,0.706965,19.9533,36.9945,9.4984,0.0,0.0
192,47.75,77.2925,93.8531,137.757,98.2324,32.1594,0.0654175,0.710422,19.9493,36.9145,9.37879,0.0,0.0
194,48.25,77.0718,94.1433,139.441,98.2608,33.81,0.0655123,0.714331,19.946,36.8144,8.96081,0.0,0.0
196,48.75,77.4464,93.8878,142.901,98.2305,37.6805,0.0655916,0.715998,19.9446,36.7443,8.04786,0.0,0.0
198,49.25,77.0452,93.5274,141.729,98.2542,40.0712,0.0657273,0.718847,19.9423,36.7043,7.53323,0.0,0.0
200,49.75,77.1765,93.3181,141.287,98.2505,40.3557,0.0658841,0.720756,19.9374,36.6442,7.47347,0.0,0.0
202,50.25,76.9295,93.5408,141.754,98.2457,43.3155,0.0658381,0.720396,19.9361,36.6142,6.87858,0.0,0.0
204,50.75,76.9701,93.2119,142.457,98.2579,42.4048,0.0657595,0.719781,19.934,36.5641,7.0581,0.0,0.0
206,51.25,77.2031,92.7449,142.357,98.2294,44.2263,0.0656958,0.714197,19.9323,36.5041,6.70243,0.0,0.0
208,51.75,76.0831,92.662,142.969,98.2394,51.9104,0.0652589,0.709674,19.931,36.424,5.35774,0.0,0.0
210,52.25,76.1509,91.9949,146.08,98.2313,48.666,0.064905,0.701716,19.9299,36.384,5.89912,0.0,0.0
212,52.75,76.41,91.0977,151.111,98.2302,49.7474,0.0642313,0.69527,19.929,36.3539,5.71442,0.0,0.0
214,53.25,75.438,90.494,153.821,98.2427,53.3333,0.0636856,0.688975,19.9283,36.2839,5.13088,0.0,0.0
216,53.75,75.5038,90.5947,143.867,98.2409,52.5934,0.0630549,0.68291,19.9341,36.2538,5.24807,0.0,0.0
218,54.25,75.3908,89.9704,147.899,98.2331,55.4963,0.0623743,0.677255,19.9446,36.2138,4.79616,0.0,0.0
220,54.75,74.7897,89.6178,148.106,98.2412,57.1469,0.0616668,0.672007,19.9532,36.1938,4.55068,0.0,0.0
222,55.25,74.7973,89.0139,150.859,98.2412,58.6268,0.0609531,0.667757,19.9622,36.1637,4.33594,0.0,0.0
224,55.75,74.0609,88.622,148.548,98.252,59.7083,0.0603751,0.661134,19.9696,36.1537,4.18333,0.0,0.0
226,56.25,73.9012,88.0817,147.909,98.2213,60.9036,0.0596494,0.65577,19.9755,36.1437,4.01423,0.0,0.0
228,56.75,73.7157,87.3146,145.59,98.2412,60.8467,0.0588299,0.651426,19.9808,36.0937,4.02378,0.0,0.0
230,57.25,73.6498,87.2225,153.175,98.2265,64.4326,0.0581662,0.639813,19.9851,36.1037,3.54157,0.0,0.0
232,57.75,73.0109,86.3092,149.288,98.2538,67.677,0.0569301,0.630407,19.9894,36.0837,3.13128,0.0,0.0
234,58.25,72.4128,85.4335,151.349,98.2409,69.1,0.0559288,0.61859,19.9938,36.0737,2.9554,0.0,0.0
236,58.75,72.0325,85.0359,156.966,98.2283,71.4337,0.0545983,0.605241,19.9973,36.0336,2.67535,0.0,0.0
238,59.25,71.9011,84.362,158.939,98.2191,71.6613,0.053053,0.594428,20.006,36.0336,2.64783,0.0,0.0
240,59.75,71.0681,84.1156,153.85,98.2209,74.9626,0.0513326,0.578134,20.013,36.0136,2.2697,0.0,0.0
242,60.25,71.3335,83.6489,156.997,98.2305,74.0519,0.0495172,0.564936,20.0331,35.9836,2.37319,0.0,0.0
244,60.75,70.3455,82.8345,156.153,98.2213,73.5966,0.047521,0.546978,20.0494,36.0036,2.42421,0.0,0.0
246,61.25,70.2018,81.8387,158.546,98.2165,74.0519,0.0454308,0.532432,20.0752,35.9636,2.37199,0.0,0.0
248,61.75,69.7589,81.3229,158.265,98.2276,74.6781,0.0437377,0.513748,20.0961,35.9636,2.30222,0.0,0.0
250,62.25,68.8361,80.4108,158.31,98.2158,75.8164,0.0414231,0.498614,20.1261,35.9435,2.17414,0.0,0.0
252,62.75,69.3674,80.2696,158.636,98.2191,78.6624,0.0395483,0.482381,20.1504,35.9836,1.86491,0.0,0.0
254,63.25,68.7127,79.2627,157.173,98.1981,78.0932,0.0374424,0.465656,20.1701,35.9536,1.92411,0.0,0.0
256,63.75,68.0706,78.8031,152.233,98.2276,80.3131,0.035208,0.448498,20.1969,35.9536,1.69121,0.0,0.0
258,64.25,67.5313,78.5387,160.48,98.2084,79.9715,0.0330227,0.43135,20.2186,35.9536,1.72536,0.0,0.0
260,64.75,67.6245,77.6142,155.663,98.2051,79.9715,0.0309147,0.41746,20.2471,35.9536,1.72508,0.0,0.0
262,65.25,66.8586,76.8405,155.725,98.1914,80.2561,0.0288698,0.400528,20.2702,35.9335,1.69408,0.0,0.0
264,65.75,66.8157,76.4742,163.598,98.1988,79.9146,0.0269099,0.386813,20.2989,35.9435,1.73052,0.0,0.0
266,66.25,65.5796,76.1276,161.654,98.1918,81.6222,0.0250369,0.36971,20.3222,35.9335,1.55235,0.0,0.0
268,66.75,65.4646,75.6676,159.387,98.2154,79.8577,0.0232629,0.355857,20.3472,35.9435,1.73793,0.0,0.0
270,67.25,64.9762,74.8082,162.67,98.2032,81.2807,0.0218259,0.338981,20.3731,35.9335,1.58854,0.0,0.0
272,67.75,65.2561,73.9191,164.159,98.2261,81.9068,0.0201385,0.325311,20.3991,35.9335,1.52605,0.0,0.0
274,68.25,63.9867,73.365,158.552,98.194,80.2561,0.0187718,0.309178,20.4246,35.9435,1.6943,0.0,0.0
276,68.75,64.4686,72.7306,158.629,98.1995,81.3376,0.0174528,0.296111,20.4454,35.9335,1.58235,0.0,0.0
278,69.25,64.4361,73.2169,161.883,98.2047,80.4838,0.0161938,0.285526,20.4713,35.9536,1.67142,0.0,0.0
280,69.75,63.6776,72.2915,163.501,98.2036,80.6546,0.015174,0.271575,20.4923,35.9335,1.65352,0.0,0.0
282,70.25,63.0538,71.1727,161.793,98.1947,80.8822,0.0139314,0.260275,20.5141,35.9135,1.62909,0.0,0.0
284,70.75,61.652,69.9303,162.499,98.1877,79.9146,0.0129249,0.24893,20.5362,35.9335,1.72958,0.0,0.0
286,71.25,61.1669,69.03,160.458,98.1973,81.8499,0.0118532,0.237767,20.5581,35.9335,1.52942,0.0,0.0
288,71.75,60.5567,68.8035,162.653,98.1966,81.9068,0.010985,0.226987,20.5796,35.9536,1.52352,0.0,0.0
290,72.25,59.8178,68.0794,156.524,98.1663,81.9637,0.0100715,0.216692,20.597,35.9536,1.5151,0.0,0.0
292,72.75,59.9438,67.279,154.992,98.1973,82.3622,0.00933148,0.208354,20.6111,35.9536,1.47702,0.0,0.0
294,73.25,59.8598,66.9959,154.196,98.1729,81.793,0.0087321,0.199366,20.6287,35.9435,1.53318,0.0,0.0
296,73.75,59.1741,66.2517,157.775,98.191,82.0776,0.00813249,0.190077,20.6429,35.9435,1.50555,0.0,0.0
298,74.25,58.9452,65.9706,158.707,98.1696,82.4191,0.0075441,0.181265,20.6608,35.9335,1.46885,0.0,0.0
300,74.75,58.6264,65.3342,162.438,98.1726,81.6222,0.00702895,0.172968,20.6753,35.9536,1.5507,0.0,0.0
302,75.25,57.9891,64.9226,161.943,98.1611,82.7037,0.00657698,0.16512,20.6932,35.9135,1.43917,0.0,0.0
304,75.75,58.4274,64.8638,158.751,98.1884,82.0206,0.00619561,0.157749,20.7077,35.9135,1.51116,0.0,0.0
306,76.25,58.6774,64.9406,160.174,98.1504,81.6222,0.00587296,0.151779,20.7242,35.9435,1.54881,0.0,0.0
308,76.75,58.6481,64.964,166.438,98.1637,82.1345,0.00561161,0.14442,20.7376,35.9335,1.49739,0.0,0.0
310,77.25,58.6031,64.4127,163.21,98.1305,81.9637,0.00540059,0.138459,20.7507,35.9335,1.51203,0.0,0.0
312,77.75,57.805,63.6895,159.655,98.1549,80.8253,0.00523025,0.132113,20.7634,35.9335,1.63159,0.0,0.0
314,78.25,58.2458,63.3489,162.431,98.139,82.3622,0.00511021,0.125608,20.7737,35.9135,1.47203,0.0,0.0
316,78.75,57.8,63.0161,162.912,98.1397,81.793,0.00502911,0.120338,20.7839,35.9135,1.53034,0.0,0.0
318,79.25,57.2841,62.6419,159.163,98.1124,81.736,0.00496341,0.114524,20.7937,35.9335,1.53385,0.0,0.0
320,79.75,57.1585,62.4189,159.501,98.1279,82.0776,0.00495567,0.108423,20.804,35.9135,1.50015,0.0,0.0
322,80.25,56.8599,61.9271,160.248,98.1224,83.2729,0.00494939,0.10268,20.8144,35.9135,1.37824,0.0,0.0
324,80.75,56.6308,61.613,160.537,98.1198,80.9961,0.00495828,0.0973083,20.8249,35.9035,1.61086,0.0,0.0
326,81.25,56.3555,61.5572,162.349,98.1205,82.8744,0.00497805,0.0923467,20.8353,35.9135,1.41837,0.0,0.0
328,81.75,56.3191,61.16,158.101,98.1157,81.5653,0.00500938,0.0877784,20.8455,35.8935,1.5517,0.0,0.0
330,82.25,55.8845,60.7005,160.341,98.0884,82.1345,0.00504854,0.0836409,20.8554,35.9135,1.49095,0.0,0.0
332,82.75,55.4541,60.2393,156.963,98.1128,82.4191,0.00511697,0.0798959,20.8642,35.9035,1.46398,0.0,0.0
334,83.25,55.4354,59.8803,157.627,98.0962,84.4682,0.0051724,0.0768625,20.8719,35.8935,1.25629,0.0,0.0
336,83.75,55.1345,59.6964,156.73,98.0917,84.582,0.0052173,0.0736204,20.8781,35.9035,1.2446,0.0,0.0
338,84.25,54.8392,59.4945,163.257,98.064,85.1512,0.00531578,0.0709943,20.8841,35.9035,1.1859,0.0,0.0
340,84.75,54.6934,59.3344,163.162,98.064,84.6389,0.00539556,0.0685402,20.8897,35.9035,1.23658,0.0,0.0
342,85.25,54.8184,58.9325,157.351,98.0518,85.1512,0.00550333,0.0662581,20.8948,35.9035,1.18485,0.0,0.0
344,85.75,54.8304,58.8879,161.061,98.0415,84.9235,0.00559063,0.064188,20.8993,35.9135,1.20646,0.0,0.0
346,86.25,54.434,58.1418,160.038,98.0563,84.582,0.00569565,0.0625112,20.9034,35.9135,1.24157,0.0,0.0
348,86.75,53.9846,58.0466,157.025,98.0341,84.5251,0.00578072,0.0610519,20.9071,35.8935,1.24532,0.0,0.0
350,87.25,54.0869,58.1099,159.952,98.0485,85.8911,0.00587633,0.0597789,20.9106,35.8935,1.1119,0.0,0.0
352,87.75,53.5608,57.5231,162.429,98.0308,87.9972,0.00595377,0.058639,20.9138,35.9035,0.90692,0.0,0.0
354,88.25,53.6519,57.5855,163.549,98.0319,85.1512,0.00603686,0.0576177,20.9164,35.9035,1.18315,0.0,0.0
356,88.75,53.657,57.2213,160.596,98.0201,85.7773,0.00610417,0.0567671,20.9185,35.9135,1.1206,0.0,0.0
358,89.25,53.4569,56.7894,158.75,98.019,85.0943,0.00615868,0.0560572,20.9203,35.9135,1.18766,0.0,0.0
360,89.75,53.2794,56.9612,164.089,98.0016,85.2081,0.00623212,0.0554822,20.9217,35.9035,1.17494,0.0,0.0
362,90.25,53.2913,56.7047,165.391,97.992,85.322,0.00629161,0.0549853,20.9228,35.9035,1.1629,0.0,0.0
364,90.75,53.057,56.0731,157.467,97.9614,84.2405,0.0063398,0.0545549,20.9237,35.8935,1.26742,0.0,0.0
366,91.25,52.8335,56.144,163.922,97.9836,84.2405,0.00643364,0.0542063,20.9244,35.8935,1.26932,0.0,0.0
368,91.75,52.6468,56.1294,159.741,97.9677,84.1836,0.00650965,0.0538501,20.925,35.8835,1.27363,0.0,0.0
370,92.25,52.3334,55.6185,160.747,97.968,83.6713,0.00661589,0.0535616,20.9257,35.9035,1.32493,0.0,0.0
372,92.75,52.0571,55.5415,160.835,97.9488,84.8097,0.00670195,0.0532735,20.9265,35.8935,1.20978,0.0,0.0
374,93.25,52.0914,55.6428,162.94,97.9474,86.5742,0.00681254,0.0529912,20.9272,35.8935,1.0367,0.0,0.0
376,93.75,51.8997,55.0236,161.357,97.933,85.1512,0.00690212,0.0526741,20.9277,35.8835,1.17466,0.0,0.0
378,94.25,51.5436,55.0058,160.203,97.9348,85.5496,0.00701433,0.0524172,20.9281,35.8835,1.13561,0.0,0.0
380,94.75,52.0509,54.7862,162.304,97.9319,85.4358,0.00710522,0.0522013,20.9284,35.8735,1.14655,0.0,0.0
382,95.25,51.7128,54.8625,165.222,97.9237,83.9559,0.00720445,0.0520195,20.9287,35.8535,1.29261,0.0,0.0
384,95.75,51.9485,54.4736,159.332,97.9045,83.6144,0.00730788,0.0518722,20.9289,35.8735,1.3252,0.0,0.0
386,96.25,51.2854,54.4707,162.26,97.9212,84.1836,0.00739165,0.0517141,20.9291,35.8535,1.26964,0.0,0.0
388,96.75,51.1167,54.3294,154.74,97.8883,83.3867,0.00750136,0.0515511,20.9293,35.8635,1.34671,0.0,0.0
390,97.25,51.2745,54.2268,161.669,97.882,83.6713,0.00762789,0.0514191,20.9297,35.8535,1.31755,0.0,0.0
392,97.75,51.1603,53.6737,159,97.8621,85.2081,0.00773039,0.0512531,20.93,35.8735,1.16297,0.0,0.0
394,98.25,50.8195,53.7897,158.712,97.8757,83.5575,0.0078506,0.0511187,20.9303,35.8435,1.32845,0.0,0.0
396,98.75,50.8293,53.629,165.945,97.854,84.8666,0.00798146,0.0510176,20.9306,35.8735,1.19601,0.0,0.0
398,99.25,51.0956,52.9141,156.793,97.8732,85.3789,0.00811387,0.0509427,20.9307,35.8535,1.14711,0.0,0.0
400,99.75,50.7734,53.3042,166.503,97.8377,83.6144,0.0082449,0.050882,20.9309,35.8635,1.31947,0.0,0.0
402,100.25,51.0637,53.3278,156.574,97.841,84.6958,0.00835103,0.0508476,20.931,35.8535,1.21181,0.0,0.0
404,100.75,50.3075,53.3015,161.735,97.8241,85.322,0.0084821,0.0508197,20.9311,35.8635,1.14849,0.0,0.0
406,101.25,50.5681,52.7824,162.607,97.82,83.9559,0.00858827,0.0509004,20.9312,35.8635,1.28371,0.0,0.0
408,101.75,50.3768,53.4827,161.583,97.7953,84.4682,0.00872457,0.0509657,20.9313,35.8435,1.23049,0.0,0.0
410,102.25,50.0525,52.9783,157.531,97.8189,85.6065,0.00883499,0.0511072,20.9313,35.8435,1.12008,0.0,0.0
412,102.75,50.2743,53.0695,163.305,97.7683,84.4682,0.00899807,0.0512218,20.9313,35.8334,1.22818,0.0,0.0
414,103.25,50.255,52.8634,160.754,97.7978,84.8666,0.00913017,0.0513884,20.9314,35.8435,1.19119,0.0,0.0
416,103.75,50.2312,52.4507,155.221,97.7591,83.7851,0.00932781,0.0515233,20.9312,35.8334,1.29558,0.0,0.0
418,104.25,49.9329,52.5181,158.822,97.7875,85.322,0.0094879,0.0516948,20.9308,35.8334,1.14535,0.0,0.0
420,104.75,50.0782,52.2456,160.631,97.7716,84.1266,0.00961757,0.0518896,20.9305,35.8535,1.26249,0.0,0.0
422,105.25,49.6779,51.933,161.376,97.7716,84.4112,0.00984335,0.0520473,20.9303,35.8535,1.23412,0.0,0.0
424,105.75,49.8385,52.2399,161.189,97.7362,86.5173,0.0100262,0.0522637,20.9301,35.8435,1.02409,0.0,0.0
426,106.25,49.798,52.2099,161.27,97.7399,83.7282,0.0102355,0.052439,20.9299,35.8535,1.29964,0.0,0.0
428,106.75,49.3421,51.8239,157.931,97.734,84.1836,0.010405,0.0526991,20.9298,35.8435,1.25357,0.0,0.0
430,107.25,49.6688,51.8445,163.014,97.7473,84.7528,0.0105775,0.0529097,20.9297,35.8334,1.19812,0.0,0.0
432,107.75,49.4647,51.4402,158.33,97.7185,86.005,0.0107172,0.0532125,20.9296,35.8334,1.07245,0.0,0.0
434,108.25,49.2637,51.4568,158.997,97.7115,87.4849,0.0108311,0.0535767,20.9295,35.8134,0.928552,0.0,0.0
436,108.75,49.3553,51.2937,162.462,97.7026,86.1188,0.0109239,0.0540428,20.929,35.8334,1.05998,0.0,0.0
438,109.25,49.7565,51.5024,156.617,97.7081,86.4034,0.010982,0.0545744,20.9286,35.8034,1.03274,0.0,0.0
440,109.75,49.1061,51.4672,162.076,97.6635,87.6556,0.0110136,0.055005,20.9283,35.7934,0.908047,0.0,0.0
442,110.25,49.0027,51.0091,159.91,97.6893,86.8018,0.0110392,0.0556347,20.9281,35.7734,0.992482,0.0,0.0
444,110.75,49.4003,50.8292,166.06,97.6716,89.0217,0.0109728,0.0561447,20.9276,35.7834,0.778859,0.0,0.0
446,111.25,49.3005,51.0546,158.428,97.6553,86.4034,0.010919,0.0567136,20.9271,35.7934,1.0282,0.0,0.0
448,111.75,48.8168,50.7036,162.297,97.6631,87.5418,0.0108754,0.0573146,20.9266,35.7734,0.918931,0.0,0.0
450,112.25,49.0989,50.9388,160.338,97.655,88.5094,0.0107013,0.0578014,20.926,35.7734,0.825902,0.0,0.0
452,112.75,48.6312,50.7761,163.888,97.6428,87.3141,0.0105602,0.0583438,20.9253,35.7634,0.939058,0.0,0.0
454,113.25,48.7848,50.5488,155.831,97.648,87.0864,0.0103542,0.0589163,20.9247,35.7734,0.961432,0.0,0.0
456,113.75,48.434,50.1835,159.351,97.6214,87.4849,0.0101872,0.0594892,20.9243,35.7634,0.920805,0.0,0.0
458,114.25,48.7544,50.5185,158.591,97.6336,87.9402,0.00999006,0.0600515,20.9239,35.7534,0.87825,0.0,0.0
460,114.75,48.4147,50.5541,163.964,97.6025,92.7784,0.00983034,0.0605303,20.9236,35.7634,0.425754,0.0,0.0
462,115.25,48.3941,50.46,160.191,97.6077,88.2248,0.00968198,0.0609392,20.9234,35.7534,0.848889,0.0,0.0
464,115.75,48.987,50.214,160.672,97.5952,88.0541,0.00960973,0.0611136,20.9231,35.7534,0.86408,0.0,0.0
466,116.25,48.5789,50.3582,159.797,97.6133,87.371,0.00948617,0.0614858,20.9225,35.7534,0.931043,0.0,0.0
468,116.75,48.31,50.7133,159.597,97.5904,87.5987,0.00939383,0.0617872,20.922,35.7333,0.907214,0.0,0.0
470,117.25,48.9686,50.1102,163.992,97.5904,88.3387,0.00932989,0.0620907,20.9217,35.7233,0.836564,0.0,0.0
472,117.75,48.8356,50.1543,160.532,97.6258,87.8833,0.00928787,0.0623365,20.9209,35.7434,0.883021,0.0,0.0
474,118.25,48.2688,49.8357,161.356,97.6291,88.4525,0.00925384,0.0626838,20.9203,35.7434,0.829084,0.0,0.0
476,118.75,47.7868,50.1553,160.999,97.6432,87.2003,0.0092446,0.0629652,20.9198,35.7434,0.950047,0.0,0.0
478,119.25,48.1338,50.2962,159.466,97.6542,87.428,0.00925363,0.0631931,20.9194,35.7333,0.929099,0.0,0.0
480,119.75,48.3577,49.386,159.003,97.6963,86.5742,0.00926094,0.0634401,20.9191,35.7434,1.01514,0.0,0.0
482,120.25,48.3783,49.8955,160.21,97.6952,86.4034,0.00927433,0.0636963,20.9189,35.7333,1.03163,0.0,0.0
484,120.75,48.3197,49.5881,165.166,97.7192,85.8342,0.00929191,0.0639039,20.9186,35.7333,1.08921,0.0,0.0
486,121.25,48.1618,49.7708,161.495,97.7395,85.4927,0.00930615,0.064161,20.9184,35.7233,1.12444,0.0,0.0
488,121.75,48.307,49.5304,157.833,97.7425,86.2327,0.00930219,0.0643693,20.9182,35.7133,1.05231,0.0,0.0
490,122.25,47.5958,49.9227,161.022,97.7602,85.3789,0.00929898,0.0645692,20.9181,35.7133,1.13741,0.0,0.0
492,122.75,48.1821,49.6321,162.171,97.7801,88.7371,0.00928742,0.0646692,20.918,35.7233,0.815083,0.0,0.0
494,123.25,47.7629,49.3935,159.917,97.7654,86.0619,0.00926766,0.0649288,20.9178,35.7133,1.07092,0.0,0.0
496,123.75,47.874,49.674,162.049,97.7997,85.8911,0.00923533,0.0650802,20.9178,35.7033,1.09055,0.0,0.0
498,124.25,47.8913,49.5998,160.861,97.8041,86.4034,0.00922063,0.0652184,20.9173,35.7233,1.04099,0.0,0.0
500,124.75,47.8394,49.9365,164.656,97.83,85.6635,0.0091955,0.0652848,20.9171,35.7033,1.11545,0.0,0.0
502,125.25,48.1439,49.3405,163.76,97.8307,88.8509,0.00916355,0.0653982,20.9167,35.6833,0.808658,0.0,0.0
504,125.75,48.1635,49.2249,162.055,97.8551,88.794,0.00913766,0.0654979,20.9164,35.6833,0.816133,0.0,0.0
506,126.25,47.879,49.5334,161.192,97.8499,89.9324,0.00911805,0.0655857,20.9162,35.6833,0.708691,0.0,0.0
508,126.75,47.5107,49.2303,160.671,97.8602,90.1601,0.00910338,0.0656567,20.916,35.6733,0.688342,0.0,0.0
510,127.25,47.6259,48.8515,161.427,97.8636,88.1679,0.00908743,0.0657737,20.9158,35.6833,0.876295,0.0,0.0
512,127.75,48.2004,49.7764,158.23,97.8979,89.7617,0.00907085,0.0658684,20.9157,35.6833,0.728773,0.0,0.0
514,128.25,48.3723,49.2265,159.242,97.8916,87.2003,0.00904657,0.0659451,20.9156,35.6733,0.971392,0.0,0.0
516,128.75,47.7549,49.255,158.619,97.9038,89.9893,0.00901713,0.0660072,20.9155,35.6733,0.708003,0.0,0.0
518,129.25,47.4225,49.6749,158.999,97.8964,89.0217,0.00899328,0.0659982,20.9154,35.6733,0.798172,0.0,0.0
520,129.75,48.3572,49.327,158.397,97.94,88.3387,0.00896109,0.0659909,20.9154,35.6633,0.866602,0.0,0.0
522,130.25,47.5098,49.618,164.664,97.9215,88.9079,0.00893501,0.065985,20.9153,35.6733,0.811073,0.0,0.0
524,130.75,47.8148,49.6658,159.755,97.9392,87.5418,0.00891131,0.0659802,20.9153,35.6733,0.942647,0.0,0.0
526,131.25,47.7457,49.4094,157.81,97.9437,88.7371,0.00888393,0.0660934,20.9152,35.6533,0.82912,0.0,0.0
528,131.75,47.4869,49.1029,167.687,97.9525,88.9079,0.00888334,0.0661425,20.9152,35.6533,0.813732,0.0,0.0
530,132.25,47.464,49.0876,160.664,97.9607,88.111,0.00888234,0.0662265,20.9148,35.6533,0.89005,0.0,0.0
532,132.75,47.6588,49.2536,163.623,97.9854,89.7047,0.00888153,0.066443,20.9144,35.6433,0.741604,0.0,0.0
534,133.25,47.2607,48.9101,166.358,97.9732,87.9972,0.0089019,0.0667519,20.9141,35.6433,0.901984,0.0,0.0
536,133.75,47.6812,49.1559,159.491,97.9799,90.3878,0.00893733,0.0670334,20.9139,35.6333,0.677419,0.0,0.0
538,134.25,47.5334,49.0834,160.382,97.9979,87.9402,0.00898844,0.0672895,20.9137,35.6433,0.909539,0.0,0.0
540,134.75,47.4276,48.7301,163.743,98.0183,87.9972,0.00905001,0.0674892,20.9135,35.6232,0.905845,0.0,0.0
542,135.25,47.3812,48.526,159.049,98.0116,90.2739,0.00911755,0.0676439,20.9134,35.6333,0.690725,0.0,0.0
544,135.75,47.4773,48.6866,165.017,98.0168,88.111,0.00918817,0.0677692,20.9133,35.6333,0.894859,0.0,0.0
546,136.25,46.6646,49.3117,164.472,98.0267,90.5585,0.00925489,0.0678707,20.9132,35.6232,0.665584,0.0,0.0
548,136.75,47.4212,49.0014,160.74,98.0448,89.3063,0.00931751,0.0679529,20.9131,35.6032,0.784088,0.0,0.0
550,137.25,47.7513,48.7607,158.017,98.04,88.6802,0.00936823,0.0680195,20.9131,35.5932,0.842769,0.0,0.0
552,137.75,47.0226,49.192,162.363,98.0448,88.111,0.00939251,0.0680734,20.913,35.6132,0.897264,0.0,0.0
554,138.25,47.5455,48.7354,159.312,98.0423,88.8509,0.00941218,0.0680726,20.913,35.6032,0.826801,0.0,0.0
556,138.75,47.7137,48.983,161.513,98.0537,88.5663,0.00939582,0.0680719,20.913,35.5932,0.854727,0.0,0.0
558,139.25,47.0924,49.0863,162.066,98.0511,88.7371,0.00938256,0.0680088,20.9129,35.5732,0.838328,0.0,0.0
560,139.75,47.8032,48.5079,158.584,98.0489,89.7047,0.00937183,0.0679015,20.9129,35.5732,0.747045,0.0,0.0
562,140.25,47.5324,48.8334,163.93,98.0692,89.8186,0.00930895,0.0678145,20.9133,35.5832,0.738132,0.0,0.0
564,140.75,47.2628,48.7685,161.779,98.0803,88.5663,0.00924241,0.0676996,20.9137,35.5732,0.857004,0.0,0.0
566,141.25,46.786,48.8765,162.911,98.0744,88.5094,0.00917447,0.0676064,20.914,35.5732,0.861898,0.0,0.0
568,141.75,47.0677,48.8934,159.255,98.0976,88.6233,0.00911945,0.0675755,20.9142,35.5832,0.853093,0.0,0.0
570,142.25,47.5154,48.8631,161.944,98.0866,88.6233,0.00905725,0.0675505,20.9144,35.5832,0.852146,0.0,0.0
572,142.75,47.5622,48.7237,159.845,98.0998,88.4525,0.00899101,0.0675302,20.9145,35.5632,0.869483,0.0,0.0
574,143.25,47.1795,48.8415,161.914,98.0958,88.794,0.00893736,0.0675607,20.9146,35.5932,0.836768,0.0,0.0
576,143.75,47.5067,48.6953,163.143,98.1139,87.3141,0.00889187,0.0676276,20.9147,35.5632,0.979483,0.0,0.0
578,144.25,47.0348,49.2586,161.454,98.0862,89.1925,0.00885319,0.0676817,20.915,35.5532,0.798341,0.0,0.0
580,144.75,47.0566,49.0687,163.827,98.1028,88.0541,0.00883473,0.067785,20.9152,35.5732,0.907655,0.0,0.0
582,145.25,47.3362,48.8628,165.426,98.0943,88.5094,0.00883137,0.0678686,20.9149,35.5932,0.863605,0.0,0.0
584,145.75,47.7903,49.0552,164.562,98.1165,89.1925,0.00884289,0.0679661,20.9147,35.5732,0.800934,0.0,0.0
586,146.25,47.3967,49.1335,159.78,98.0917,89.3632,0.00886504,0.068045,20.9146,35.5732,0.78275,0.0,0.0
588,146.75,47.524,48.9288,164.762,98.1301,89.4771,0.00888298,0.0680855,20.9144,35.5932,0.775345,0.0,0.0
590,147.25,47.0833,48.5367,161.849,98.119,89.1925,0.00891244,0.0680972,20.9143,35.6132,0.801155,0.0,0.0
592,147.75,47.439,48.7133,162.92,98.122,88.5663,0.00894973,0.0681066,20.9142,35.6032,0.860576,0.0,0.0
594,148.25,47.4122,48.2734,162.357,98.1113,91.5831,0.00897994,0.0679807,20.9142,35.6032,0.578333,0.0,0.0
596,148.75,47.1555,48.9092,158.703,98.1028,91.4692,0.00900442,0.0678787,20.9141,35.5932,0.588054,0.0,0.0
598,149.25,46.8398,48.7787,162.043,98.1039,88.9648,0.00901745,0.0677515,20.914,35.5932,0.821326,0.0,0.0
600,149.75,46.8481,48.5843,161.349,98.119,89.7047,0.0090219,0.0676485,20.914,35.5732,0.753053,0.0,0.0
602,150.25,47.1291,48.7221,157,98.1054,90.3308,0.00902482,0.0676245,20.914,35.5532,0.693464,0.0,0.0
604,150.75,47.3186,48.4729,158.236,98.1139,87.9402,0.00902658,0.067605,20.9139,35.5432,0.919469,0.0,0.0
606,151.25,47.2307,48.7305,167.783,98.1427,89.0786,0.00903344,0.0676486,20.9139,35.5332,0.813904,0.0,0.0
608,151.75,47.329,48.701,162.015,98.1172,88.4525,0.00904388,0.0676839,20.9139,35.5232,0.870968,0.0,0.0
610,152.25,47.1486,48.5689,165.875,98.0784,89.8755,0.00905233,0.0676977,20.9139,35.5131,0.733603,0.0,0.0
612,152.75,47.3536,48.7992,160.042,98.1094,88.9648,0.00907208,0.0677088,20.9139,35.5131,0.8218,0.0,0.0
614,153.25,47.1853,48.6462,159.409,98.108,89.1355,0.00908807,0.0677179,20.9139,35.5131,0.805568,0.0,0.0
616,153.75,47.2484,48.7108,160.113,98.1201,88.2248,0.00910103,0.0677252,20.9139,35.5131,0.892868,0.0,0.0
618,154.25,46.9645,48.8312,160.144,98.1187,88.3956,0.00911668,0.0677311,20.9139,35.5131,0.876501,0.0,0.0
620,154.75,47.4231,49.3871,160.461,98.0991,88.0541,0.00912936,0.0677437,20.9139,35.5131,0.907338,0.0,0.0
622,155.25,47.6401,49.4417,160.368,98.1124,88.2818,0.0091435,0.0677609,20.9139,35.5031,0.886787,0.0,0.0
624,155.75,47.4643,49.1942,158.825,98.101,87.5987,0.00915496,0.0677601,20.9138,35.5131,0.951044,0.0,0.0
626,156.25,47.3392,49.1218,160.474,98.1094,88.3956,0.00917198,0.0677594,20.9138,35.5031,0.875711,0.0,0.0
628,156.75,47.8211,49.124,159.456,98.1032,87.9972,0.00917924,0.0677903,20.9138,35.5031,0.913118,0.0,0.0
630,157.25,47.4174,49.341,165.553,98.1061,89.4201,0.00919164,0.0678433,20.9138,35.5031,0.778636,0.0,0.0
632,157.75,47.4053,49.5602,164.111,98.0947,87.8264,0.0092017,0.0679252,20.9138,35.4731,0.928705,0.0,0.0
634,158.25,47.6719,48.9179,158.452,98.1109,87.7695,0.00920237,0.0680268,20.9138,35.4831,0.935541,0.0,0.0
636,158.75,47.5361,48.6907,157.658,98.0847,88.7371,0.00919619,0.0681168,20.9138,35.4631,0.841205,0.0,0.0
638,159.25,47.85,48.9186,158.188,98.1013,88.6802,0.00918032,0.0681968,20.9138,35.4831,0.848017,0.0,0.0
640,159.75,47.5355,49.0446,167.28,98.1002,88.7371,0.00915769,0.0682616,20.9138,35.4631,0.842533,0.0,0.0
642,160.25,47.5278,49.0084,164.32,98.098,87.2572,0.00913936,0.068275,20.9138,35.4731,0.983601,0.0,0.0
644,160.75,47.2483,49.0072,159.581,98.0651,88.3387,0.0091123,0.0682507,20.9138,35.4831,0.877327,0.0,0.0
646,161.25,46.8785,48.7492,160.572,98.0736,89.7617,0.0090794,0.0682544,20.9138,35.4531,0.743837,0.0,0.0
648,161.75,47.5778,48.9457,157.303,98.081,90.5585,0.00902334,0.0682889,20.9138,35.4531,0.670233,0.0,0.0
650,162.25,47.3493,49.2657,165.953,98.0921,89.9893,0.00900542,0.0682981,20.9138,35.4631,0.724141,0.0,0.0
652,162.75,47.7637,49.1179,162.245,98.074,90.6154,0.00897478,0.0682397,20.9138,35.4631,0.664355,0.0,0.0
654,163.25,47.4384,48.6668,165.498,98.0814,88.3956,0.00893641,0.0681924,20.9138,35.4531,0.873308,0.0,0.0
656,163.75,47.4144,48.8172,162.366,98.0607,91.3554,0.00889313,0.0681619,20.9138,35.4531,0.594909,0.0,0.0
658,164.25,47.2888,48.9021,157.623,98.0747,88.794,0.00884392,0.0681442,20.9138,35.4431,0.834966,0.0,0.0
660,164.75,47.1831,48.8492,161.44,98.0662,89.4201,0.00880405,0.0681534,20.9138,35.4431,0.775222,0.0,0.0
662,165.25,47.2601,48.7518,160.292,98.0688,87.7695,0.00876791,0.0681819,20.9138,35.4231,0.931938,0.0,0.0
664,165.75,47.3131,48.913,160.642,98.0674,88.6233,0.00873862,0.068205,20.9138,35.4231,0.850501,0.0,0.0
666,166.25,47.6312,49.211,156.419,98.0777,88.8509,0.00871491,0.0682158,20.9138,35.4131,0.829836,0.0,0.0
668,166.75,47.458,49.0862,162.485,98.0463,90.3308,0.00871195,0.0682176,20.9138,35.4131,0.688405,0.0,0.0
670,167.25,47.64,49.0696,158.425,98.0548,90.217,0.0087242,0.0682191,20.9137,35.403,0.699724,0.0,0.0
672,167.75,47.2107,49.1217,163.1,98.0537,88.0541,0.00873411,0.0682202,20.9135,35.383,0.90345,0.0,0.0
674,168.25,47.6567,48.9241,159.02,98.0493,89.0217,0.00878466,0.0682212,20.9136,35.403,0.811275,0.0,0.0
676,168.75,47.5217,49.1513,161.541,98.0197,88.1679,0.0088256,0.0682376,20.9139,35.393,0.889688,0.0,0.0
678,169.25,47.3197,49.1945,158.937,98.0537,89.6478,0.00888972,0.0682649,20.9141,35.393,0.752788,0.0,0.0
680,169.75,47.3521,49.2179,161.781,98.0323,89.0786,0.00894165,0.0683261,20.9139,35.383,0.804452,0.0,0.0
682,170.25,47.4187,48.9193,163.434,98.04,90.2739,0.00900002,0.0684109,20.9137,35.383,0.693161,0.0,0.0
684,170.75,47.2854,48.8402,161.693,98.0123,89.3063,0.00906197,0.0684952,20.9135,35.383,0.781304,0.0,0.0
686,171.25,47.6399,49.0861,163.556,98.0179,89.3063,0.00912765,0.0685776,20.9134,35.393,0.781778,0.0,0.0
688,171.75,47.0613,48.7533,161.644,97.9836,92.323,0.00918084,0.0686521,20.9133,35.383,0.499802,0.0,0.0
690,172.25,47.5051,49.1723,158.001,98.0061,88.8509,0.00921618,0.0687195,20.9132,35.383,0.823701,0.0,0.0
692,172.75,47.2061,48.5688,162.908,97.9717,90.8431,0.00924481,0.068734,20.9131,35.393,0.634516,0.0,0.0
694,173.25,47.001,49.1514,166.749,97.9994,89.0786,0.00924896,0.0687096,20.9131,35.383,0.801636,0.0,0.0
696,173.75,46.9621,49.1171,160.709,97.9802,88.9648,0.0092417,0.0686992,20.9131,35.363,0.810731,0.0,0.0
698,174.25,47.4469,48.7582,163.115,97.9891,88.111,0.0092293,0.0686814,20.913,35.363,0.892486,0.0,0.0
700,174.75,47.5253,48.8771,156.37,97.9477,88.1679,0.00921926,0.0686373,20.913,35.373,0.883517,0.0,0.0
702,175.25,47.5935,49.0549,161.905,97.9865,87.8264,0.00918017,0.0686015,20.9129,35.363,0.919437,0.0,0.0
704,175.75,47.5611,48.8708,160.974,97.9581,87.4849,0.00914851,0.0686617,20.9127,35.353,0.949724,0.0,0.0
706,176.25,47.2907,48.8336,161.772,97.9592,88.7371,0.00911771,0.0687105,20.9126,35.333,0.83045,0.0,0.0
708,176.75,47.5451,49.1147,161.834,97.947,87.8264,0.00909276,0.0687656,20.9125,35.343,0.916051,0.0,0.0
710,177.25,47.4637,48.8576,164.231,97.9352,88.9079,0.00907384,0.0688243,20.9124,35.353,0.812245,0.0,0.0
712,177.75,47.9916,48.5013,159.799,97.9249,88.5663,0.00905852,0.0688273,20.9123,35.343,0.843684,0.0,0.0
714,178.25,47.6135,48.8014,164.527,97.9418,87.9972,0.00904791,0.0688286,20.9123,35.323,0.899293,0.0,0.0
716,178.75,47.5254,49.083,159.036,97.9056,91.1277,0.00902978,0.0687995,20.9122,35.333,0.602576,0.0,0.0
718,179.25,47.1882,48.7899,162.265,97.9134,89.4771,0.00899706,0.0687478,20.9122,35.323,0.756776,0.0,0.0
720,179.75,47.2817,49.0982,160.941,97.8842,88.7371,0.00897055,0.0687137,20.9121,35.313,0.824021,0.0,0.0
722,180.25,47.5623,48.7383,158.791,97.902,87.9402,0.00894569,0.0686932,20.9121,35.313,0.901308,0.0,0.0
724,180.75,47.3341,48.7989,172.126,97.906,89.2494,0.0089225,0.0686765,20.9116,35.3029,0.777541,0.0,0.0
726,181.25,47.1065,48.746,162.194,97.8986,87.9972,0.00890372,0.0686779,20.9113,35.313,0.895588,0.0,0.0
728,181.75,47.4595,48.162,159.521,97.868,87.1434,0.00888783,0.068679,20.911,35.3029,0.97485,0.0,0.0
730,182.25,46.9209,48.5726,160.612,97.8809,87.8264,0.00887435,0.0686721,20.9107,35.323,0.910382,0.0,0.0
732,182.75,47.1543,48.9124,155.978,97.8455,88.3956,0.00885936,0.0686594,20.9105,35.313,0.853082,0.0,0.0
734,183.25,47.2917,49.1187,162.06,97.851,88.5094,0.00884356,0.0686492,20.9104,35.313,0.842748,0.0,0.0
736,183.75,47.2085,48.9514,160.845,97.841,88.1679,0.00883076,0.068537,20.9102,35.3029,0.874363,0.0,0.0
738,184.25,47.5919,48.8985,161.699,97.8455,87.371,0.0087998,0.068446,20.9101,35.2929,0.951001,0.0,0.0
740,184.75,47.0298,49.1608,158.666,97.8086,90.217,0.00877472,0.0683576,20.9101,35.2929,0.678604,0.0,0.0
742,185.25,47.2512,48.934,158.688,97.8056,88.794,0.00873768,0.0682859,20.91,35.3029,0.811885,0.0,0.0
744,185.75,46.847,48.305,159.899,97.7871,88.7371,0.00870767,0.0682427,20.9099,35.2829,0.815685,0.0,0.0
746,186.25,47.2079,48.5526,159.769,97.7761,88.3387,0.00867308,0.0682077,20.9099,35.2929,0.852531,0.0,0.0
748,186.75,47.1862,49.0299,160.634,97.7838,89.1355,0.00864506,0.0681645,20.9098,35.2829,0.777771,0.0,0.0
750,187.25,47.0089,48.7026,164.72,97.7391,88.6802,0.00862236,0.0681295,20.9098,35.2729,0.816952,0.0,0.0
752,187.75,47.2894,48.8114,162.963,97.7491,87.6556,0.00860397,0.0681012,20.9098,35.2729,0.91541,0.0,0.0
754,188.25,47.0125,48.5318,159.126,97.7495,88.6233,0.00858908,0.0680782,20.9098,35.2729,0.823232,0.0,0.0
756,188.75,47.5709,48.9737,161.697,97.7318,89.1355,0.00858474,0.0680596,20.9098,35.2829,0.773299,0.0,0.0
758,189.25,46.9178,48.8882,159.138,97.7233,86.5173,0.00858122,0.0680445,20.9097,35.2929,1.02298,0.0,0.0
760,189.75,47.4017,48.7207,163.838,97.703,87.3141,0.00857837,0.0680323,20.9097,35.2929,0.944232,0.0,0.0