File: 01_Data/Polyisocyanurate_Spray_Foam_Insulation/Cone/Polyisocyanurate_Spray_Foam_Insulation_Cone_HF25Scan_241113_R1.csv
Names,Time,Stack TC,Smoke TC,Exh Press,Smoke Comp,Smoke Meas,CO Meter,CO2 Meter,O2 Meter,Sample Mass,Ext Coeff,Start Test,Flame Verif
Chan Gain,,500,500,1,1,1,1,1,1,1,1,1.0,1.0
Offset,,0,0,0.138019,0,0,0,0,0,0,0,0.0,0.0
Gain,,1,1,25.011,12.0976,1865.13,1,1,1,1.00093,0.957506,1.0,1.0
Units,sec,C,C,Pa,%,%,%,%,%,g,/m,,
Baseline,,33.9747,34.7646,168.557,98.0227,103.939,0.000302438,0.0414252,20.9519,-442.368,-0.491748,,
2,0.25,33.6881,34.3637,168.95,98.0279,105.528,0.000112753,0.0484771,20.9438,48.0649,-0.619248,0.0,0.0
4,0.75,33.1978,33.8308,174.932,98.0087,105.016,0.000152342,0.0485457,20.9435,48.1049,-0.580023,0.0,0.0
6,1.25,32.8891,33.4993,169.336,97.9869,104.39,0.000184409,0.048516,20.9433,48.1249,-0.531663,0.0,0.0
8,1.75,33.1569,33.857,166.191,97.9699,103.764,0.000225332,0.0484152,20.9431,48.1349,-0.48259,0.0,0.0
10,2.25,33.0446,33.7142,170.015,97.9511,102.512,0.000271933,0.0482792,20.9432,48.1149,-0.382227,0.0,0.0
12,2.75,33.1587,34.0997,164.681,97.9333,103.593,0.000318784,0.0481202,20.9432,48.1049,-0.471891,0.0,0.0
14,3.25,32.5452,33.5292,168.628,97.9038,102.682,0.000364928,0.0479914,20.9437,48.0949,-0.400259,0.0,0.0
16,3.75,33.2113,33.6902,166.571,97.9027,101.885,0.000410763,0.047784,20.944,48.0548,-0.334918,0.0,0.0
18,4.25,32.7065,33.6432,161.48,97.8661,101.202,0.000455502,0.047585,20.9443,48.0348,-0.281557,0.0,0.0
20,4.75,33.3138,34.1815,164.253,97.8684,101.43,0.00049239,0.0473958,20.9446,48.0248,-0.300241,0.0,0.0
22,5.25,32.8572,34.495,163.738,97.8429,101.259,0.000522856,0.0472426,20.9448,48.0248,-0.288276,0.0,0.0
24,5.75,32.9302,34.1671,168.667,97.8259,97.9011,0.000547533,0.046986,20.9449,47.9347,-0.0064541,0.0,0.0
26,6.25,33.4729,34.3039,163.63,97.8012,90.9,0.000546707,0.0467782,20.9451,47.7145,0.614619,0.0,1.0
28,6.75,33.0426,34.2916,156.071,97.762,80.7115,0.000527306,0.0466098,20.9452,47.8847,1.60975,0.0,1.0
30,7.25,33.7182,35.0794,151.936,97.7934,78.4347,0.000511591,0.0462673,20.9453,47.6545,1.85278,0.0,1.0
32,7.75,34.4566,35.4957,154.241,97.7731,73.312,0.00046306,0.0459899,20.9456,47.6044,2.41834,0.0,1.0
34,8.25,34.7826,35.9235,155.165,97.7513,70.9214,0.00042375,0.0457358,20.946,47.5544,2.69492,0.0,1.0
36,8.75,35.0178,37.1689,152.117,97.7284,67.9047,0.000364771,0.04553,20.9464,47.4843,3.05804,0.0,1.0
38,9.25,35.8993,37.9198,152.314,97.7351,66.5955,0.000316999,0.0453477,20.9467,47.4243,3.22212,0.0,1.0
40,9.75,36.1507,39.0475,148.951,97.6989,68.8154,0.000264742,0.0451862,20.9469,47.3642,2.9436,0.0,1.0
42,10.25,36.9624,39.9985,153.288,97.6889,69.6122,0.000222415,0.0450398,20.9471,47.3041,2.84604,0.0,1.0
44,10.75,36.9093,40.2176,152.914,97.6793,70.5229,0.000184431,0.0449073,20.9473,47.2141,2.73605,0.0,1.0
46,11.25,36.8626,40.6946,154.354,97.6454,70.466,0.000153664,0.0447923,20.9474,47.114,2.73991,0.0,1.0
48,11.75,38.0023,41.4489,155.34,97.6299,67.9047,0.000136529,0.0446921,20.9475,47.0139,3.04956,0.0,1.0
50,12.25,38.7395,42.0615,149.521,97.6059,59.5945,0.000129656,0.044611,20.948,46.9939,4.14394,0.0,0.0
52,12.75,39.1123,43.7068,150.806,97.5948,68.8154,0.000124089,0.0446041,20.9484,46.9338,2.93465,0.0,0.0
54,13.25,38.6943,44.4087,154.85,97.5689,72.7997,0.000162759,0.0445986,20.9485,46.8737,2.45968,0.0,0.0
56,13.75,39.5638,44.7651,143.546,97.5468,64.4895,0.000194082,0.0468063,20.9484,46.8237,3.47583,0.0,0.0
58,14.25,40.7503,45.2581,148.925,97.5176,67.9616,0.000331958,0.0485946,20.9483,46.7136,3.03286,0.0,0.0
60,14.75,40.8958,45.9854,149.293,97.5128,72.3444,0.000443637,0.0572663,20.9482,46.6335,2.50754,0.0,0.0
62,15.25,41.0443,47.0482,153.403,97.4992,68.3031,0.000810009,0.0642904,20.9482,46.5735,2.98917,0.0,0.0
64,15.75,41.2881,47.0963,151.749,97.4405,66.5386,0.00110677,0.0821669,20.9481,46.4934,3.20394,0.0,0.0
66,16.25,41.8384,48.1992,150.53,97.4464,68.5877,0.00182168,0.0966469,20.9444,46.4333,2.9497,0.0,0.0
68,16.75,42.0477,48.3684,147.789,97.4312,73.5966,0.00240075,0.120832,20.9381,46.4033,2.35637,0.0,0.0
70,17.25,42.9098,48.7875,150.432,97.398,62.8958,0.00367398,0.140423,20.9238,46.2832,3.67319,0.0,0.0
72,17.75,43.0125,49.126,158.858,97.381,67.6201,0.00470529,0.169274,20.904,46.1931,3.0634,0.0,0.0
74,18.25,43.1669,49.7079,146.537,97.3821,64.6033,0.00559295,0.181574,20.8956,46.123,3.44682,0.0,0.0
76,18.75,44.0156,50.703,148.693,97.3448,68.9292,0.00711085,0.202606,20.8611,46.033,2.89923,0.0,0.0
78,19.25,44.2418,51.3724,149.494,97.3316,67.5631,0.00834034,0.228105,20.8332,45.9929,3.06621,0.0,0.0
80,19.75,44.3487,51.2847,152.935,97.3334,62.5543,0.00995012,0.24876,20.8105,45.9128,3.71334,0.0,0.0
82,20.25,44.8825,51.6427,142.53,97.3105,61.3589,0.0118065,0.26887,20.7744,45.8228,3.87341,0.0,0.0
84,20.75,45.5567,52.9674,145.208,97.285,61.3589,0.0136544,0.288203,20.7451,45.7527,3.87122,0.0,0.0
86,21.25,45.4523,52.771,151.619,97.2802,66.8801,0.015461,0.305374,20.7069,45.6926,3.14712,0.0,0.0
88,21.75,46.1803,53.9345,142.519,97.2633,68.36,0.0171544,0.320644,20.6761,45.6226,2.96183,0.0,0.0
90,22.25,46.8003,54.0708,146.551,97.2341,66.0832,0.018733,0.333722,20.6437,45.6226,3.24381,0.0,0.0
92,22.75,46.3884,54.4463,149.782,97.2208,64.831,0.0201385,0.344954,20.6174,45.4925,3.40335,0.0,0.0
94,23.25,46.8008,54.5265,151.858,97.1931,65.2864,0.0213912,0.354052,20.5961,45.4524,3.34217,0.0,0.0
96,23.75,47.0764,55.0558,149.871,97.1913,69.1,0.0224059,0.361421,20.5739,45.3523,2.86518,0.0,0.0
98,24.25,47.0099,55.202,150.251,97.1754,67.5631,0.0233362,0.367877,20.5513,45.2322,3.05272,0.0,0.0
100,24.75,47.3398,55.6027,149.114,97.1444,67.2216,0.0241873,0.373106,20.5304,45.1822,3.0926,0.0,0.0
102,25.25,47.8456,56.2304,149.11,97.1462,64.0341,0.0249315,0.37792,20.5136,45.0821,3.50078,0.0,0.0
104,25.75,47.7828,56.4861,154.504,97.0905,66.9939,0.0255835,0.38182,20.499,45.032,3.11644,0.0,0.0
106,26.25,47.9287,56.61,152.066,97.0591,62.725,0.0261116,0.386211,20.4872,44.952,3.66674,0.0,0.0
108,26.75,48.3437,56.9558,151.038,97.0462,65.4571,0.0266642,0.389768,20.4772,44.8819,3.30752,0.0,0.0
110,27.25,48.7566,57.4387,151.72,97.0399,68.2462,0.0272241,0.393522,20.4687,44.8418,2.95652,0.0,0.0
112,27.75,48.6086,57.6423,149.755,97.0266,64.831,0.0278249,0.397348,20.4618,44.7418,3.38656,0.0,0.0
114,28.25,49.0288,57.771,147.742,97.0137,66.1971,0.0284441,0.400447,20.4545,44.6917,3.2103,0.0,0.0
116,28.75,49.3699,58.2859,151.745,96.9842,68.8723,0.0289456,0.404611,20.4485,44.5516,2.87498,0.0,0.0
118,29.25,49.5383,58.3826,150.898,96.9853,63.3511,0.0296161,0.407983,20.4429,44.5316,3.57693,0.0,0.0
120,29.75,49.8177,58.5536,143.175,96.9528,62.4404,0.0301592,0.411157,20.4376,44.4615,3.69573,0.0,0.0
122,30.25,49.774,58.722,150.221,96.9502,62.3835,0.0307011,0.413727,20.4332,44.3714,3.70317,0.0,0.0
124,30.75,50.0788,59.0961,148.761,96.9262,61.7574,0.0312319,0.415403,20.4267,44.3114,3.78581,0.0,0.0
126,31.25,50.4656,59.602,150.746,96.8786,61.1882,0.0316861,0.416394,20.4214,44.2213,3.85945,0.0,0.0
128,31.75,50.4997,59.9795,150.926,96.8804,62.3266,0.0320758,0.417197,20.4171,44.1412,3.70479,0.0,0.0
130,32.25,50.9202,60.0941,148.465,96.8679,64.148,0.0323915,0.416968,20.4136,44.0711,3.46176,0.0,0.0
132,32.75,51.226,60.1864,149.192,96.8494,64.3187,0.0326212,0.416782,20.4108,44.0111,3.43783,0.0,0.0
134,33.25,51.1883,60.7948,148.527,96.8357,64.4326,0.0328073,0.416339,20.4085,43.931,3.4218,0.0,0.0
136,33.75,51.3198,61.1539,145.558,96.8162,64.6603,0.0329316,0.41598,20.4067,43.8709,3.39047,0.0,0.0
138,34.25,51.5219,61.1183,143.131,96.7929,66.8232,0.0330084,0.416036,20.4052,43.7909,3.11209,0.0,0.0
140,34.75,51.7856,61.4854,149.229,96.7615,62.2127,0.0330683,0.416393,20.404,43.7208,3.70983,0.0,0.0
142,35.25,52.1112,61.8078,149.376,96.7423,62.0989,0.0331148,0.416866,20.403,43.6307,3.72355,0.0,0.0
144,35.75,52.1929,61.9557,148.269,96.7398,62.3266,0.033154,0.417414,20.4022,43.5506,3.69258,0.0,0.0
146,36.25,52.5078,62.2622,152.368,96.7191,65.0587,0.0331871,0.41781,20.4016,43.4806,3.33045,0.0,0.0
148,36.75,52.7153,62.6742,145.443,96.7002,62.8958,0.0332192,0.418087,20.4011,43.4205,3.6128,0.0,0.0
150,37.25,52.5374,62.2121,154.7,96.6785,63.3511,0.0332499,0.418312,20.4006,43.3605,3.55032,0.0,0.0
152,37.75,53.2336,62.7529,156.952,96.6678,66.9939,0.0332938,0.419081,20.4003,43.3204,3.07979,0.0,0.0
154,38.25,53.048,62.6192,151.208,96.6427,61.1882,0.0333464,0.419704,20.3996,43.1903,3.83898,0.0,0.0
156,38.75,52.9625,62.6842,150.926,96.6441,61.9281,0.0333889,0.421032,20.3985,43.1202,3.73814,0.0,0.0
158,39.25,53.0351,62.984,150.957,96.6139,62.3266,0.0334838,0.422848,20.3977,43.0702,3.68165,0.0,0.0
160,39.75,53.7732,63.6549,149.461,96.6102,62.3266,0.0335606,0.424825,20.3971,43.0101,3.68132,0.0,0.0
162,40.25,53.5316,63.378,150.25,96.6046,60.619,0.0336228,0.426883,20.3965,42.9501,3.91417,0.0,0.0
164,40.75,53.3173,63.2812,147.654,96.5998,62.5543,0.0337237,0.42855,20.3961,42.86,3.6498,0.0,0.0
166,41.25,53.8056,63.9717,149.559,96.5618,59.2529,0.0338054,0.430017,20.3938,42.7999,4.10189,0.0,0.0
168,41.75,54.0587,64.1206,150.757,96.5511,57.5454,0.0338952,0.431311,20.392,42.7299,4.34656,0.0,0.0
170,42.25,54.0877,64.0804,150.785,96.5496,57.3177,0.0339891,0.432359,20.3889,42.6098,4.37973,0.0,0.0
172,42.75,54.6944,64.313,151.477,96.5061,59.9929,0.0341001,0.433654,20.385,42.5597,3.9928,0.0,0.0
174,43.25,54.6014,64.4805,153.267,96.5038,58.7976,0.0342215,0.434703,20.3818,42.4997,4.16164,0.0,0.0
176,43.75,54.6301,64.439,149.83,96.4802,60.6759,0.0343542,0.435441,20.3792,42.3695,3.89546,0.0,0.0
178,44.25,54.9134,64.8634,148.695,96.4581,59.4237,0.0344925,0.436038,20.3767,42.2995,4.06869,0.0,0.0
180,44.75,54.8823,65.1922,145.354,96.4311,62.2697,0.0346289,0.435669,20.3746,42.2394,3.67342,0.0,0.0
182,45.25,55.029,64.8702,145.951,96.4123,62.9527,0.0347614,0.43537,20.373,42.1593,3.58015,0.0,0.0
184,45.75,55.3152,65.373,146.829,96.4123,59.8221,0.0348687,0.43424,20.3716,42.0492,4.00857,0.0,0.0
186,46.25,55.5119,65.5641,152.689,96.392,64.2049,0.034989,0.433324,20.3705,41.9892,3.41295,0.0,0.0
188,46.75,55.5237,65.822,152.528,96.4226,64.2618,0.0350864,0.432582,20.3696,41.9191,3.40817,0.0,0.0
190,47.25,55.7587,65.6577,155.157,96.4038,66.0832,0.0351654,0.431982,20.3689,41.8691,3.17178,0.0,0.0
192,47.75,55.7333,66.0873,147.064,96.3839,60.4482,0.0352293,0.432198,20.3684,41.799,3.91865,0.0,0.0
194,48.25,55.567,65.8986,150.05,96.3658,61.0744,0.0353043,0.432373,20.368,41.7189,3.83052,0.0,0.0
196,48.75,55.703,66.3347,152.747,96.3672,64.3757,0.035365,0.432848,20.368,41.6789,3.38848,0.0,0.0
198,49.25,55.9091,66.5907,145.21,96.3576,66.1971,0.0354204,0.433233,20.3681,41.6589,3.1533,0.0,0.0
200,49.75,56.1256,66.2819,147.771,96.3543,60.619,0.0354709,0.433899,20.3684,41.5187,3.89238,0.0,0.0
202,50.25,56.442,66.7148,146.855,96.3492,62.0989,0.0355431,0.434756,20.3687,41.4587,3.68934,0.0,0.0
204,50.75,56.1507,66.3976,144.831,96.3078,65.0587,0.0356298,0.436167,20.3691,41.3586,3.29465,0.0,0.0
206,51.25,56.668,66.9165,144.26,96.306,60.3913,0.035756,0.437953,20.3694,41.2985,3.91977,0.0,0.0
208,51.75,56.3942,67.1896,145.841,96.3041,63.0096,0.0359086,0.4394,20.3692,41.2385,3.56313,0.0,0.0
210,52.25,56.7314,67.3111,149.392,96.2882,64.148,0.0360321,0.441826,20.369,41.1784,3.41135,0.0,0.0
212,52.75,57.1136,67.412,142.71,96.3012,59.3668,0.0361993,0.443791,20.3678,41.0883,4.06306,0.0,0.0
214,53.25,57.169,67.4588,141.912,96.2797,62.725,0.0363348,0.445308,20.3657,41.0283,3.59903,0.0,0.0
216,53.75,57.0097,67.4934,148.898,96.2919,61.3589,0.0364226,0.446536,20.3634,40.9282,3.78503,0.0,0.0
218,54.25,57.5042,67.774,152.497,96.2768,64.4895,0.0364937,0.446715,20.3608,40.8581,3.36576,0.0,0.0
220,54.75,57.4033,67.7434,152.374,96.2749,63.408,0.0364532,0.446124,20.3588,40.7781,3.50764,0.0,0.0
222,55.25,57.4152,67.3867,149.524,96.2583,61.6435,0.0363321,0.445645,20.3571,40.698,3.74324,0.0,0.0
224,55.75,57.3025,67.7113,151.625,96.2646,61.0744,0.036147,0.44351,20.3558,40.6379,3.8217,0.0,0.0
226,56.25,57.563,67.6782,148.79,96.2587,63.0096,0.0359188,0.441781,20.3547,40.5578,3.55917,0.0,0.0
228,56.75,57.7775,68.1591,150.98,96.2727,63.1234,0.0357339,0.439639,20.3538,40.4477,3.54523,0.0,0.0
230,57.25,57.6692,67.7243,151.924,96.2318,66.254,0.035402,0.437905,20.3557,40.4077,3.1351,0.0,0.0
232,57.75,58.1885,68.8536,143.585,96.2369,65.3433,0.0351333,0.436389,20.3572,40.3677,3.25181,0.0,0.0
234,58.25,58.1189,68.9355,143.502,96.2362,63.8634,0.0347975,0.435162,20.3594,40.2676,3.44416,0.0,0.0
236,58.75,58.3908,68.8424,139.464,96.2258,63.5219,0.0345255,0.434498,20.362,40.1775,3.48829,0.0,0.0
238,59.25,58.6081,68.98,150.569,96.2233,64.7741,0.0342908,0.434259,20.3641,40.1375,3.3241,0.0,0.0
240,59.75,58.9947,69.029,155.911,96.2007,60.5621,0.0340878,0.434065,20.3658,40.0274,3.88687,0.0,0.0
242,60.25,58.8402,69.4009,141.412,96.2118,57.4884,0.0339453,0.434464,20.3671,39.9773,4.32531,0.0,0.0
244,60.75,58.3751,68.8995,148.694,96.2081,62.2697,0.0338496,0.434787,20.3682,39.9173,3.65397,0.0,0.0
246,61.25,58.605,69.0878,148.844,96.1989,61.0744,0.0337721,0.435123,20.3691,39.8572,3.81596,0.0,0.0
248,61.75,58.5234,69.4091,147.424,96.1967,61.7005,0.0337093,0.435395,20.3699,39.7671,3.7301,0.0,0.0
250,62.25,58.7073,68.8608,139.883,96.1963,58.8545,0.0337247,0.435615,20.3696,39.7071,4.1267,0.0,0.0
252,62.75,59.128,69.0875,150.49,96.1941,58.7976,0.0337371,0.435164,20.3694,39.627,4.13464,0.0,0.0
254,63.25,58.849,68.9438,146.453,96.1863,57.4315,0.0337516,0.434798,20.3692,39.5169,4.33141,0.0,0.0
256,63.75,58.869,69.3985,145.801,96.1886,55.5532,0.0337632,0.434579,20.369,39.4869,4.61089,0.0,0.0
258,64.25,59.5917,70.1313,150.879,96.1893,62.2697,0.0337682,0.434523,20.3687,39.3968,3.65233,0.0,0.0
260,64.75,59.2966,69.895,150.311,96.186,55.5532,0.0337767,0.435043,20.3684,39.3167,4.61067,0.0,0.0
262,65.25,59.2621,69.8769,151.078,96.2044,58.1715,0.0337912,0.436018,20.368,39.2566,4.22546,0.0,0.0
264,65.75,59.6775,69.6843,141.991,96.1926,59.5375,0.0338097,0.437249,20.3676,39.1766,4.02947,0.0,0.0
266,66.25,59.6537,69.645,148.148,96.2077,53.3903,0.0338316,0.438643,20.3673,39.1365,4.94612,0.0,0.0
268,66.75,59.4901,69.5001,154.138,96.2052,54.301,0.0338554,0.439772,20.3671,39.0364,4.80383,0.0,0.0
270,67.25,59.2181,70.222,142.447,96.217,48.7798,0.0338824,0.440575,20.3669,38.9363,5.70547,0.0,0.0
272,67.75,59.9727,70.2226,146.056,96.197,58.9683,0.033911,0.441225,20.3659,38.8463,4.11054,0.0,0.0
274,68.25,59.6286,70.4073,143.893,96.2048,55.5532,0.0339342,0.441125,20.3651,38.8262,4.61231,0.0,0.0
276,68.75,60.2428,70.6415,150.349,96.2037,55.4963,0.0339446,0.44048,20.3644,38.7362,4.62082,0.0,0.0
278,69.25,59.8731,70.3157,144.367,96.2018,58.0576,0.0339455,0.439957,20.3638,38.6561,4.24169,0.0,0.0
280,69.75,59.8588,70.1422,149.202,96.1838,58.0007,0.0339463,0.437996,20.3634,38.586,4.24835,0.0,0.0
282,70.25,60.2398,70.674,153.961,96.2022,57.773,0.0339035,0.436408,20.363,38.5159,4.28299,0.0,0.0
284,70.75,60.5685,70.8851,149.759,96.2125,57.6592,0.0338689,0.435121,20.3627,38.4759,4.30046,0.0,0.0
286,71.25,60.3128,71.3874,145.362,96.2192,55.667,0.0338409,0.4347,20.3625,38.3858,4.59637,0.0,0.0
288,71.75,60.8318,70.9657,148.15,96.2236,58.6268,0.0338144,0.434919,20.3623,38.3258,4.16164,0.0,0.0
290,72.25,60.3726,71.1057,149.463,96.2244,58.0576,0.0337895,0.435096,20.3622,38.2857,4.24365,0.0,0.0
292,72.75,60.1865,70.5652,145.368,96.2181,57.6023,0.0337693,0.436001,20.3622,38.2057,4.30924,0.0,0.0
294,73.25,60.1114,70.2064,150.902,96.2303,58.4561,0.0337688,0.436734,20.3621,38.1756,4.18672,0.0,0.0
296,73.75,60.9953,71.149,156.696,96.2391,59.196,0.0337684,0.437235,20.3621,38.1156,4.08185,0.0,0.0
298,74.25,60.3892,70.311,144.47,96.2347,58.8545,0.0337782,0.43764,20.3621,38.1156,4.13006,0.0,0.0
300,74.75,60.4555,70.7064,150.733,96.2406,52.6503,0.0337861,0.438341,20.362,38.0555,5.06621,0.0,0.0
302,75.25,60.8659,70.5434,153.257,96.2399,52.6503,0.0338012,0.438909,20.3616,37.9754,5.06614,0.0,0.0
304,75.75,60.2709,70.0515,146.83,96.2306,49.6336,0.0338134,0.440544,20.3612,37.8653,5.56093,0.0,0.0
306,76.25,60.7656,70.549,151.664,96.2583,48.4383,0.0338089,0.441868,20.3609,37.8253,5.76809,0.0,0.0
308,76.75,60.7058,70.2886,155.26,96.2428,56.3501,0.0337922,0.443404,20.3607,37.7652,4.496,0.0,0.0
310,77.25,60.031,70.3232,146.573,96.2509,56.4639,0.0337477,0.445065,20.3605,37.7252,4.47976,0.0,0.0
312,77.75,60.3516,70.371,146.753,96.2635,54.301,0.0336837,0.446411,20.359,37.6952,4.80893,0.0,0.0
314,78.25,60.4901,70.2368,155.857,96.2683,56.6347,0.0335698,0.447219,20.3578,37.6451,4.45591,0.0,0.0
316,78.75,60.4845,70.6848,154.253,96.2587,61.5297,0.0334218,0.447235,20.3556,37.5751,3.75879,0.0,0.0
318,79.25,60.6261,70.3111,156.831,96.286,54.4148,0.033213,0.446672,20.3537,37.5651,4.7933,0.0,0.0
320,79.75,60.5477,70.0884,150.958,96.2635,53.4472,0.0329638,0.445022,20.3522,37.505,4.94204,0.0,0.0
322,80.25,60.3382,70.1199,154.036,96.2941,60.7328,0.0326157,0.442613,20.351,37.4049,3.87137,0.0,0.0
324,80.75,60.4404,69.9742,148.854,96.2871,52.8211,0.0322022,0.440661,20.35,37.3949,5.04307,0.0,0.0
326,81.25,60.5676,70.0624,151.968,96.2971,52.6503,0.0317093,0.436116,20.3493,37.3549,5.07114,0.0,0.0
328,81.75,60.2518,69.6957,149.239,96.3023,54.3579,0.031168,0.432435,20.3512,37.2748,4.80351,0.0,0.0
330,82.25,60.4122,69.7354,149.672,96.3096,56.5777,0.0307295,0.428339,20.3528,37.3348,4.46797,0.0,0.0
332,82.75,60.4532,69.3545,150.86,96.3351,52.7641,0.0303743,0.424019,20.3541,37.2448,5.05631,0.0,0.0
334,83.25,60.0694,69.1997,157.616,96.3388,55.5532,0.0296948,0.420519,20.3572,37.1947,4.624,0.0,0.0
336,83.75,59.8054,69.0351,150.027,96.3359,47.5276,0.0291444,0.417194,20.3616,37.0446,5.93427,0.0,0.0
338,84.25,60.115,69.0111,151.896,96.3347,51.8534,0.0285451,0.414501,20.3658,37.0646,5.20252,0.0,0.0
340,84.75,59.8806,68.9975,157.623,96.3458,54.984,0.0280596,0.412883,20.3699,37.0145,4.71111,0.0,0.0
342,85.25,60.1069,69.1262,154.768,96.3429,59.3099,0.0275718,0.411572,20.3732,37.0446,4.07476,0.0,0.0
344,85.75,59.5727,68.2567,155.836,96.3558,58.1715,0.0269577,0.40941,20.377,36.9445,4.23866,0.0,0.0
346,86.25,59.9333,68.7187,158.51,96.3783,59.5375,0.0267607,0.408828,20.3787,37.0145,4.04567,0.0,0.0
348,86.75,59.7573,68.1622,155.035,96.3728,59.5375,0.0264239,0.406277,20.3816,36.9445,4.04518,0.0,0.0
350,87.25,59.707,68.3058,159.542,96.3802,61.5297,0.026007,0.40421,20.3839,36.8844,3.76938,0.0,0.0
352,87.75,59.5211,67.9242,159.078,96.3772,69.1569,0.0256693,0.401024,20.3859,36.8144,2.78762,0.0,0.0
354,88.25,59.4381,67.8241,158.153,96.3477,71.7752,0.0252206,0.398443,20.3874,36.8744,2.47292,0.0,0.0
356,88.75,59.1031,67.5595,159.041,96.3805,69.1569,0.0248572,0.395806,20.3887,36.8344,2.78791,0.0,0.0
358,89.25,58.79,67.0412,159.065,96.3827,72.4013,0.0245628,0.393177,20.3897,36.8244,2.40303,0.0,0.0
360,89.75,58.7556,66.7918,159.564,96.3879,73.3689,0.0241265,0.391048,20.3931,36.8244,2.29197,0.0,0.0
362,90.25,58.5294,66.4371,155.205,96.4112,72.572,0.0237732,0.38802,20.3959,36.8244,2.38572,0.0,0.0
364,90.75,58.0072,66.1228,158.793,96.4075,77.0687,0.0233556,0.385567,20.3982,36.8043,1.88047,0.0,0.0
366,91.25,58.1694,65.7727,155.782,96.4115,80.5977,0.0230173,0.382693,20.4009,36.7843,1.50477,0.0,0.0
368,91.75,58.0891,65.5843,154.019,96.4012,83.6713,0.0226837,0.379567,20.4031,36.8244,1.18951,0.0,0.0
370,92.25,57.5706,65.0517,160.724,96.4466,86.005,0.0223599,0.37629,20.4048,36.7843,0.962414,0.0,0.0
372,92.75,57.0863,64.5108,159.386,96.4326,88.3387,0.0220625,0.372968,20.4063,36.8244,0.736324,0.0,0.0
374,93.25,57.1866,64.0422,160.427,96.4691,91.3554,0.02179,0.370276,20.4074,36.8144,0.457468,0.0,0.0
376,93.75,56.4142,63.5,165.672,96.4307,91.1277,0.0215692,0.368096,20.4093,36.8244,0.475083,0.0,0.0
378,94.25,56.3745,62.7254,159.168,96.4677,91.2416,0.0213904,0.364341,20.4116,36.8344,0.467812,0.0,0.0
380,94.75,55.8717,62.5598,162.979,96.4891,94.4859,0.02108,0.35951,20.4146,36.8544,0.176204,0.0,0.0
382,95.25,55.8767,62.2897,165.261,96.5134,94.0306,0.0208285,0.35252,20.4181,36.8744,0.2189,0.0,0.0
384,95.75,55.5589,61.6657,161.925,96.5057,95.0551,0.0204652,0.346859,20.4221,36.8944,0.127203,0.0,0.0
386,96.25,55.1052,61.237,164.982,96.509,95.2828,0.0201709,0.339556,20.4264,36.8844,0.107398,0.0,0.0
388,96.75,55.012,60.8662,162.731,96.516,92.4369,0.0199325,0.331196,20.4298,36.8944,0.362703,0.0,0.0
390,97.25,54.3638,60.1482,172.43,96.5456,93.746,0.0194167,0.324424,20.4374,36.8944,0.247153,0.0,0.0
392,97.75,54.134,59.4205,165.026,96.5323,96.8196,0.0189989,0.313222,20.4435,36.9145,-0.0249669,0.0,0.0
394,98.25,53.1069,58.1536,162.784,96.5456,96.8766,0.0183668,0.304148,20.4535,36.9145,-0.0287467,0.0,0.0
396,98.75,52.5235,57.9406,162.611,96.5441,95.2259,0.0178548,0.291402,20.4662,36.8944,0.11547,0.0,0.0
398,99.25,52.1456,57.5168,167.899,96.5825,94.429,0.017097,0.281077,20.4803,36.9044,0.189391,0.0,0.0
400,99.75,52.4745,57.1991,167.291,96.5585,94.5998,0.0164832,0.267588,20.4953,36.8844,0.17213,0.0,0.0
402,100.25,52.5823,57.0261,162.424,96.5928,94.7705,0.0156549,0.256661,20.5134,36.9044,0.159968,0.0,0.0
404,100.75,51.8762,56.7024,161.225,96.5825,94.9982,0.014984,0.242894,20.5334,36.9145,0.138915,0.0,0.0
406,101.25,51.5568,56.2007,165.604,96.6046,94.8275,0.0141291,0.231742,20.5496,36.9245,0.155952,0.0,0.0
408,101.75,51.5308,55.4575,165.217,96.6083,95.2828,0.0134366,0.219809,20.571,36.9145,0.116038,0.0,0.0
410,102.25,51.0535,55.4381,166.518,96.639,95.9089,0.0126819,0.207532,20.5884,36.9145,0.0636903,0.0,0.0
412,102.75,50.6981,54.9479,165.642,96.6342,94.9413,0.0118961,0.197588,20.6111,36.9245,0.148443,0.0,0.0
414,103.25,50.7782,54.5028,163.912,96.6438,97.9011,0.0112596,0.184904,20.6295,36.9245,-0.108569,0.0,0.0
416,103.75,50.3648,53.8947,168.423,96.6829,93.6891,0.0103817,0.174629,20.6445,36.9145,0.264196,0.0,0.0
418,104.25,49.9976,54.0259,167.899,96.6844,94.0875,0.00967059,0.166306,20.6648,36.9245,0.228679,0.0,0.0
420,104.75,50.0296,53.5204,160.939,96.6899,95.2828,0.00895091,0.154539,20.6813,36.9245,0.123128,0.0,0.0
422,105.25,49.9792,53.1674,163.027,96.6958,95.9089,0.00823865,0.145008,20.7026,36.9044,0.0686305,0.0,0.0
424,105.75,49.243,53.1663,163.442,96.7224,95.2259,0.00755478,0.134506,20.7197,36.9145,0.130969,0.0,0.0
426,106.25,49.1472,52.6273,168.322,96.7235,95.3397,0.0069046,0.126,20.7406,36.9145,0.12103,0.0,0.0
428,106.75,48.7541,51.5905,163.181,96.742,94.8844,0.00629862,0.116897,20.7575,36.9245,0.162844,0.0,0.0
430,107.25,49.1401,51.788,161.67,96.7449,94.6567,0.00573637,0.108639,20.7786,36.9145,0.183279,0.0,0.0
432,107.75,48.6442,51.4929,166.35,96.7589,94.9982,0.00549668,0.104699,20.7876,36.9145,0.154248,0.0,0.0
434,108.25,48.4726,51.52,165.139,96.7423,94.3152,0.00498665,0.0979624,20.8074,36.9145,0.213413,0.0,0.0
436,108.75,48.0935,51.0579,167.919,96.7708,94.6567,0.00454591,0.0913185,20.8234,36.9245,0.185522,0.0,0.0
438,109.25,48.142,50.7248,170.575,96.7737,96.7058,0.00400125,0.0859369,20.8389,36.9245,0.00589635,0.0,0.0
440,109.75,47.7113,50.4245,163.711,96.7892,94.7705,0.00385474,0.0805121,20.8516,36.9044,0.177029,0.0,0.0
442,110.25,47.8993,49.8548,163.101,96.8014,94.5998,0.00357728,0.076118,20.8618,36.9145,0.193234,0.0,0.0
444,110.75,47.3588,50.0533,165.655,96.8295,94.3721,0.00332831,0.0721,20.8722,36.8944,0.215907,0.0,0.0
446,111.25,46.8518,49.5251,161.865,96.814,94.8844,0.00310762,0.0684326,20.8807,36.9145,0.169092,0.0,0.0
448,111.75,47.0848,49.3802,168.594,96.832,94.7136,0.00291174,0.0652445,20.8893,36.9044,0.185791,0.0,0.0
450,112.25,46.8189,49.0336,165.346,96.8431,95.5105,0.00275308,0.0624665,20.8963,36.9145,0.11638,0.0,0.0
452,112.75,46.4831,48.6684,162.485,96.8793,95.5674,0.0025785,0.0602162,20.9032,36.9145,0.114515,0.0,0.0
454,113.25,46.3098,48.3917,166.345,96.8871,94.3721,0.0024371,0.0579808,20.9088,36.9145,0.220901,0.0,0.0
456,113.75,46.204,48.3268,163.376,96.8874,94.4859,0.00226786,0.05617,20.9138,36.9145,0.210808,0.0,0.0
458,114.25,46.2908,48.001,166.693,96.8889,96.2505,0.00213078,0.0544823,20.9183,36.9044,0.0555301,0.0,0.0
460,114.75,46.225,47.6401,162.989,96.9188,94.5429,0.0019799,0.0531153,20.922,36.9245,0.208469,0.0,0.0
462,115.25,45.8445,47.736,163.6,96.9229,95.0551,0.00182184,0.0518839,20.9258,36.9145,0.163433,0.0,0.0
464,115.75,45.661,47.7231,166.972,96.9417,97.3319,0.00165665,0.0507749,20.9288,36.8944,-0.0337405,0.0,0.0
466,116.25,45.4473,46.9795,163.565,96.9255,95.6813,0.0014894,0.0498766,20.9313,36.8844,0.108515,0.0,0.0
468,116.75,45.5283,46.9112,168.266,96.9594,95.3397,0.00135394,0.049149,20.9338,36.8844,0.141491,0.0,0.0
470,117.25,45.5952,47.1754,162.701,96.9709,96.1935,0.00124421,0.0483388,20.9358,36.8844,0.0676006,0.0,0.0
472,117.75,44.8638,46.4511,160.165,96.9712,95.6243,0.00111695,0.0476825,20.9374,36.8844,0.117479,0.0,0.0
474,118.25,44.9145,46.4655,167.898,96.9786,95.6243,0.000979323,0.0471045,20.939,36.9044,0.118119,0.0,0.0
476,118.75,44.7792,46.7962,168.296,97.0019,95.5105,0.000864595,0.0465944,20.9403,36.8844,0.130139,0.0,0.0
478,119.25,45.1948,46.1364,167.055,96.9901,95.6813,0.000768742,0.0461503,20.9414,36.8944,0.114112,0.0,0.0
480,119.75,44.6261,45.9392,165.197,97.0388,95.6813,0.00069955,0.0457627,20.9423,36.9145,0.118331,0.0,0.0
482,120.25,44.767,45.9638,167.158,97.0085,95.2259,0.000651109,0.04541,20.943,36.9245,0.155778,0.0,0.0
484,120.75,44.6704,45.3935,165.6,97.0351,96.1366,0.000623577,0.0450895,20.9435,36.9245,0.0781342,0.0,0.0
486,121.25,44.0172,45.7853,169.589,97.0362,95.5674,0.00061181,0.0448299,20.9449,36.9145,0.128106,0.0,0.0
488,121.75,44.3959,45.5554,164.73,97.0617,97.958,0.000612039,0.0445166,20.9459,36.9145,-0.0772085,0.0,0.0
490,122.25,44.5317,44.8323,162.682,97.055,96.2505,0.000621008,0.0442628,20.9468,36.9145,0.0699195,0.0,0.0
492,122.75,44.1292,44.9267,163.787,97.0654,95.1121,0.000636578,0.0439696,20.9478,36.9345,0.170747,0.0,0.0
494,123.25,44.2209,45.2236,166.494,97.0624,95.2828,0.000644052,0.0438908,20.9483,36.9245,0.155424,0.0,0.0
496,123.75,43.8569,45.0954,167.242,97.096,95.6813,0.00066228,0.0436675,20.9487,36.9345,0.123283,0.0,0.0
498,124.25,43.7017,44.9994,164.671,97.0934,95.7382,0.000667184,0.0435879,20.9489,36.9245,0.118065,0.0,0.0
500,124.75,44.183,45.2401,164.798,97.1075,95.2259,0.000673095,0.0434517,20.949,36.9245,0.16434,0.0,0.0
502,125.25,43.55,44.496,163.559,97.0993,95.9089,0.000677884,0.043326,20.9488,36.9245,0.103608,0.0,0.0
504,125.75,43.4888,44.5662,165.749,97.1171,95.5105,0.000673952,0.0432102,20.9487,36.9245,0.140106,0.0,0.0
506,126.25,43.3519,44.2482,163.264,97.14,95.2259,0.000663739,0.0431164,20.9486,36.9044,0.16715,0.0,0.0
508,126.75,43.2922,44.74,168.425,97.1529,97.2181,0.000645709,0.0429816,20.9486,36.9145,-0.00563498,0.0,0.0
510,127.25,43.1839,43.8249,162.176,97.1614,97.4457,0.000622323,0.0428647,20.9485,36.8944,-0.0245482,0.0,0.0
512,127.75,43.08,43.579,166.024,97.1562,94.2583,0.000595577,0.042763,20.9484,36.9044,0.254339,0.0,0.0
514,128.25,42.9578,43.9467,171.308,97.1669,95.852,0.000566891,0.0426961,20.9484,36.9145,0.114436,0.0,0.0
516,128.75,43.2213,43.3227,169.695,97.1942,93.4614,0.000543005,0.0426558,20.9484,36.8844,0.328934,0.0,0.0
518,129.25,42.6469,43.9413,163.368,97.1894,94.8844,0.000523072,0.0426232,20.9488,36.9044,0.201604,0.0,0.0
520,129.75,43.1158,43.5649,164.262,97.2182,96.3074,0.000514079,0.0425968,20.9491,36.9044,0.0790646,0.0,0.0
522,130.25,42.9149,43.5047,166.773,97.2097,95.9659,0.000513231,0.0425754,20.9494,36.9145,0.108168,0.0,0.0
524,130.75,42.7277,43.3674,166.487,97.2219,96.4781,0.000512544,0.042514,20.9496,36.9245,0.0645041,0.0,0.0
526,131.25,42.8307,43.2738,165.628,97.2452,96.4212,0.000536064,0.0424642,20.9498,36.9345,0.0714704,0.0,0.0
528,131.75,42.5699,43.1478,163.729,97.2481,95.6813,0.000576784,0.0424162,20.9499,36.9245,0.13643,0.0,0.0
530,132.25,42.3379,43.2275,166.189,97.2555,97.8442,0.000645662,0.0423703,20.95,36.9145,-0.0506862,0.0,0.0
532,132.75,42.4088,43.2832,162.71,97.2666,96.1935,0.000701453,0.0423022,20.9501,36.9044,0.0931761,0.0,0.0
534,133.25,42.172,43.0163,168.622,97.2754,96.8766,0.000759683,0.0422191,20.9502,36.9245,0.0345125,0.0,0.0
536,133.75,42.2154,43.1171,163.847,97.2607,97.0473,0.000818584,0.0421287,20.9503,36.9245,0.018445,0.0,0.0
538,134.25,42.032,42.8432,161.083,97.3035,97.275,0.000865642,0.0420345,20.9503,36.9345,0.00246174,0.0,0.0
540,134.75,42.0951,42.6853,168.609,97.3013,98.3565,0.000903173,0.0419582,20.9503,36.9145,-0.0905937,0.0,0.0
542,135.25,42.089,42.5582,168.928,97.3275,96.535,0.000933572,0.0418964,20.9504,36.9145,0.0686673,0.0,0.0
544,135.75,41.989,42.5748,159.892,97.312,97.9011,0.000932183,0.0418464,20.9504,36.9245,-0.0506938,0.0,0.0
546,136.25,41.7689,42.6423,166.589,97.3456,95.6813,0.000931058,0.0418793,20.9504,36.9145,0.144844,0.0,0.0
548,136.75,41.3785,42.346,164.788,97.3393,97.7873,0.000911578,0.041906,20.9507,36.9345,-0.0385643,0.0,0.0
550,137.25,41.6734,42.4531,161.767,97.3581,98.0719,0.000895799,0.0419354,20.9511,36.9245,-0.0613484,0.0,0.0
552,137.75,42.1257,42.3073,164.477,97.3729,95.2828,0.000883018,0.0419662,20.9514,36.8944,0.182249,0.0,0.0
554,138.25,42.0923,42.1271,158.721,97.3991,96.8196,0.000875141,0.0419911,20.9517,36.9145,0.0501204,0.0,0.0
556,138.75,41.7721,41.9841,161.932,97.3832,96.0797,0.00086876,0.0419525,20.9519,36.9245,0.113189,0.0,0.0
558,139.25,41.6312,42.429,166.613,97.3903,96.4781,0.000877209,0.0419212,20.9521,36.9245,0.0790349,0.0,0.0
560,139.75,41.5689,42.1518,166.839,97.405,96.3643,0.000884053,0.0418958,20.9522,36.9145,0.0902258,0.0,0.0
562,140.25,41.6332,41.8648,166.323,97.4102,96.7627,0.000889596,0.0418908,20.9523,36.9145,0.0560155,0.0,0.0
564,140.75,41.9115,42.346,164.674,97.4128,95.7382,0.000913902,0.0419006,20.9521,36.9245,0.145645,0.0,0.0
566,141.25,41.4475,41.661,161.467,97.4434,96.8196,0.00093359,0.0419163,20.9516,36.9445,0.0539405,0.0,0.0
568,141.75,41.4992,42.005,167.009,97.4549,96.7627,0.000951493,0.041936,20.9512,36.9345,0.0598667,0.0,0.0
570,142.25,41.3013,41.9283,164.851,97.4619,95.6813,0.000967755,0.0419365,20.9513,36.9245,0.154872,0.0,0.0
572,142.75,41.7027,41.9284,163.916,97.4442,95.9089,0.000973495,0.0419229,20.9514,36.9245,0.133382,0.0,0.0
574,143.25,41.3948,42.2034,165.223,97.4752,97.275,0.000978144,0.0418964,20.9515,36.9245,0.017267,0.0,0.0
576,143.75,41.2574,41.6633,166.903,97.4626,97.6734,0.000972788,0.0418611,20.9516,36.9145,-0.0181474,0.0,0.0
578,144.25,41.1657,41.2884,164.689,97.4877,97.275,0.000960239,0.0418324,20.9516,36.9245,0.018349,0.0,0.0
580,144.75,41.5616,41.7479,166.392,97.4826,96.9904,0.000950075,0.0418335,20.9516,36.9245,0.0425128,0.0,0.0
582,145.25,41.2858,41.5539,168.55,97.5025,96.535,0.00092751,0.0418561,20.9517,36.9145,0.0837559,0.0,0.0
584,145.75,40.8589,41.4392,169.553,97.504,97.6165,0.000896334,0.0418744,20.9519,36.9044,-0.00968827,0.0,0.0
586,146.25,40.986,41.648,165.615,97.5213,96.7058,0.000852504,0.0418536,20.9521,36.9145,0.0705331,0.0,0.0
588,146.75,41.2687,41.3096,166.316,97.5162,96.4781,0.000835784,0.041848,20.9521,36.9145,0.089886,0.0,0.0
590,147.25,40.7022,41.5794,164.181,97.5243,96.2505,0.000804589,0.0418237,20.9522,36.9145,0.11043,0.0,0.0
592,147.75,41.0078,41.4638,164.008,97.5328,97.6165,0.000776978,0.041804,20.9523,36.9345,-0.00720816,0.0,0.0
594,148.25,41.1156,41.464,164.493,97.5605,96.0228,0.000754613,0.0417881,20.9524,36.9345,0.133437,0.0,0.0
596,148.75,41.2626,41.3853,167.14,97.5424,95.5105,0.000736497,0.0417674,20.9524,36.9245,0.176808,0.0,0.0
598,149.25,41.0532,40.8168,166.974,97.5822,97.958,0.000721824,0.0417438,20.9525,36.9145,-0.032283,0.0,0.0
600,149.75,40.8101,41.5056,162.171,97.5793,98.0149,0.000709938,0.0417246,20.9525,36.9145,-0.0374162,0.0,0.0
602,150.25,41.015,41.2377,165.696,97.5985,99.9502,0.000698358,0.0417091,20.9525,36.9245,-0.199985,0.0,0.0
604,150.75,41.1882,41.5215,163.508,97.597,96.4781,0.000687221,0.0416965,20.9526,36.9145,0.096847,0.0,0.0
606,151.25,40.9287,41.3287,162.739,97.6044,99.381,0.000678201,0.0417451,20.9526,36.9245,-0.151508,0.0,0.0
608,151.75,40.383,41.1984,166.09,97.611,98.7549,0.000657296,0.0417845,20.9526,36.9145,-0.0978532,0.0,0.0
610,152.25,40.5722,41.1829,167.536,97.6446,101.487,0.000640362,0.041787,20.9526,36.9145,-0.324176,0.0,0.0
612,152.75,40.4175,40.9101,165.521,97.6269,99.7794,0.000619232,0.041789,20.9526,36.9145,-0.183177,0.0,0.0
614,153.25,40.7094,40.9186,163.609,97.6387,100.235,0.000602116,0.0417752,20.9526,36.9245,-0.220404,0.0,0.0
616,153.75,40.363,40.9026,165.057,97.6502,98.4134,0.000583049,0.04175,20.9526,36.9345,-0.0653903,0.0,0.0
618,154.25,40.6391,41.1407,165.601,97.6557,98.8118,0.000562923,0.0417287,20.9526,36.9145,-0.0988505,0.0,0.0
620,154.75,40.2761,41.284,163.421,97.662,98.2426,0.000540118,0.0417105,20.9527,36.9245,-0.0497882,0.0,0.0
622,155.25,40.785,40.7229,164.209,97.6594,99.7794,0.000515794,0.0416958,20.9527,36.9245,-0.180383,0.0,0.0
624,155.75,40.4025,41.1951,168.546,97.6683,99.0395,0.000494791,0.0416838,20.9527,36.9245,-0.117102,0.0,0.0
626,156.25,40.7566,40.6141,165.894,97.6919,99.0964,0.000476608,0.0416742,20.9526,36.9245,-0.119896,0.0,0.0
628,156.75,40.0819,41.1885,170.358,97.6967,100.064,0.000461881,0.0417105,20.9524,36.9345,-0.201099,0.0,0.0
630,157.25,40.693,40.6385,164.304,97.7044,100.064,0.000462302,0.0417398,20.9523,36.9245,-0.200432,0.0,0.0
632,157.75,40.6717,40.8233,170.027,97.7118,100.747,0.000462644,0.0417791,20.9522,36.9345,-0.256935,0.0,0.0
634,158.25,40.2258,40.4471,163.092,97.717,98.6411,0.00046292,0.0418249,20.9521,36.9345,-0.0790533,0.0,0.0
636,158.75,39.8169,40.4523,161.669,97.7358,99.6087,0.000480443,0.0418619,20.9521,36.9345,-0.159426,0.0,0.0
638,159.25,39.9392,40.2485,164.628,97.7639,97.6165,0.000494636,0.0418478,20.952,36.9445,0.0126714,0.0,0.0
640,159.75,40.1123,40.6399,160.188,97.7499,99.2672,0.000506133,0.0418364,20.952,36.9445,-0.129374,0.0,0.0
642,160.25,40.1718,40.569,168.514,97.7569,99.4379,0.000515445,0.0418713,20.952,36.9245,-0.143207,0.0,0.0
644,160.75,40.3421,40.0297,163.555,97.7646,98.698,0.000516809,0.0418995,20.9519,36.9145,-0.0798064,0.0,0.0
646,161.25,39.971,40.479,169.05,97.7764,99.4948,0.000517914,0.0419224,20.9519,36.9345,-0.146332,0.0,0.0
648,161.75,39.9834,40.4414,163.462,97.7871,100.292,0.000506454,0.0419409,20.9519,36.9145,-0.212415,0.0,0.0
650,162.25,40.0445,40.466,169.061,97.7949,100.007,0.000497171,0.0419559,20.9519,36.8644,-0.187882,0.0,0.0
652,162.75,40.054,40.4695,167.422,97.7853,100.007,0.000489653,0.0419449,20.9519,36.9044,-0.188706,0.0,0.0
654,163.25,40.2212,40.3759,166.964,97.8189,101.715,0.000444056,0.041915,20.9518,36.9245,-0.328021,0.0,0.0
656,163.75,39.7591,39.7211,169.387,97.8122,99.5518,0.000407122,0.0418986,20.9518,36.9145,-0.148061,0.0,0.0
658,164.25,40.2781,40.0218,169.341,97.8023,99.9502,0.000363573,0.0418922,20.9517,36.9145,-0.182465,0.0,0.0
660,164.75,39.7862,40.1184,163.58,97.8196,100.576,0.000316028,0.0418871,20.9517,36.9245,-0.233426,0.0,0.0
662,165.25,40.0271,40.3198,165.291,97.8174,100.178,0.000277516,0.0418829,20.9516,36.9245,-0.200276,0.0,0.0
664,165.75,39.8284,40.1013,164.753,97.8362,99.8933,0.000240482,0.0418795,20.9516,36.9145,-0.174764,0.0,0.0
666,166.25,39.2595,39.8436,163.21,97.8584,99.7794,0.000205229,0.0418768,20.9516,36.9044,-0.163286,0.0,0.0
668,166.75,39.8198,40.2429,166.613,97.8813,99.4379,0.000176673,0.0418746,20.9516,36.9145,-0.132524,0.0,0.0
670,167.25,39.5028,40.0246,166.021,97.8842,99.2103,0.000184373,0.0418728,20.9516,36.9345,-0.113018,0.0,0.0
672,167.75,39.6038,39.8905,166.016,97.8817,100.064,0.00019061,0.0418713,20.9516,36.9245,-0.185212,0.0,0.0
674,168.25,39.4403,40.1547,165.204,97.8927,99.8933,0.000235162,0.0418701,20.9515,36.8944,-0.169916,0.0,0.0
676,168.75,39.6503,40.1387,164.025,97.8953,99.381,0.000271249,0.0418615,20.9515,36.9145,-0.12651,0.0,0.0
678,169.25,39.2557,39.99,165.375,97.9164,99.4948,0.000333841,0.0418475,20.9515,36.9145,-0.134321,0.0,0.0
680,169.75,39.6742,39.8411,165.725,97.933,101.43,0.00038454,0.0418748,20.9515,36.9145,-0.294699,0.0,0.0
682,170.25,39.6818,39.9563,165.023,97.9289,98.9257,0.000435497,0.0419318,20.9515,36.9245,-0.0850567,0.0,0.0
684,170.75,39.477,40.2248,162.952,97.9459,99.6656,0.000476772,0.0420089,20.9515,36.9145,-0.146191,0.0,0.0
686,171.25,39.2649,40.1934,162.945,97.9444,99.8933,0.000503048,0.0420992,20.9515,36.9245,-0.165483,0.0,0.0
688,171.75,39.8874,39.8753,165.5,97.961,100.69,0.00051789,0.0421724,20.9511,36.9245,-0.230794,0.0,0.0
690,172.25,37.4143,37.3946,167.773,97.9389,101.715,0.000529912,0.0422905,20.9507,36.9145,-0.317725,0.0,0.0
692,172.75,37.8774,38.0201,165.436,97.978,102.227,0.000522349,0.0423861,20.9504,36.9245,-0.356565,0.0,0.0
694,173.25,38.1917,38.4435,169.402,97.9839,101.202,0.000516223,0.0424559,20.9502,36.8944,-0.271456,0.0,0.0
696,173.75,38.631,38.8433,165.359,97.9954,101.373,0.000511262,0.0425054,20.95,36.9044,-0.284634,0.0,0.0
698,174.25,38.5518,38.755,162.374,97.968,101.829,0.000507243,0.0425532,20.9499,36.8844,-0.32462,0.0,0.0
700,174.75,38.6281,38.8859,165.929,97.9991,101.544,0.000520052,0.042599,20.9497,36.8944,-0.298454,0.0,0.0
702,175.25,38.4067,38.6722,164.475,97.9876,102.113,0.000530427,0.0426438,20.9496,36.9145,-0.346384,0.0,0.0
704,175.75,38.7665,38.7225,164.565,98.0223,101.544,0.000548591,0.042687,20.9496,36.9245,-0.296461,0.0,0.0
706,176.25,38.2041,38.8837,165.016,98.0171,102.056,0.000572089,0.0427143,20.9495,36.9145,-0.33917,0.0,0.0
708,176.75,38.2296,38.7227,167.198,98.0452,101.658,0.000591773,0.0427294,20.9494,36.9145,-0.303911,0.0,0.0
710,177.25,38.535,38.6169,162.598,98.0445,102.455,0.000608302,0.0427417,20.9494,36.8944,-0.369556,0.0,0.0
712,177.75,38.3545,38.9067,160.016,98.0434,100.235,0.000616485,0.0427369,20.9494,36.9044,-0.185669,0.0,0.0
714,178.25,38.1591,38.6659,164.448,98.0408,102.227,0.000618427,0.042733,20.9493,36.8944,-0.351187,0.0,0.0
716,178.75,38.2041,38.7442,169.361,98.0589,102.398,0.00062,0.0427446,20.9493,36.8644,-0.363656,0.0,0.0
718,179.25,38.2289,39.0162,165.412,98.0651,102.398,0.00061672,0.042754,20.9493,36.8944,-0.363118,0.0,0.0
720,179.75,38.3563,38.6082,165.258,98.0681,100.462,0.000613164,0.042758,20.9493,36.9044,-0.202606,0.0,0.0
722,180.25,38.0628,38.8578,170.102,98.0725,99.0964,0.000608385,0.0427059,20.9493,36.9044,-0.0872336,0.0,0.0
724,180.75,38.4201,38.7022,167.998,98.0718,100.121,0.000605685,0.0426638,20.9493,36.8844,-0.173689,0.0,0.0
726,181.25,38.5005,38.8585,165.088,98.0596,100.804,0.000603498,0.0426297,20.9493,36.9245,-0.231838,0.0,0.0
728,181.75,38.0348,38.7085,165.869,98.1109,99.8364,0.000601727,0.0426021,20.9493,36.9044,-0.146429,0.0,0.0
730,182.25,38.3484,38.7505,169.55,98.0843,99.6087,0.000600292,0.0425503,20.9492,36.8844,-0.129529,0.0,0.0
732,182.75,38.0623,38.6556,158.623,98.1179,98.4703,0.000583063,0.0425083,20.9492,36.9044,-0.0301092,0.0,0.0
734,183.25,38.4571,38.5315,164.556,98.1002,100.804,0.000569109,0.0424744,20.9492,36.9044,-0.22836,0.0,0.0
736,183.75,37.6966,38.7376,160.593,98.1117,99.8933,0.00052199,0.0424468,20.9492,36.9145,-0.151153,0.0,0.0
738,184.25,38.0468,38.3488,170.714,98.1213,101.032,0.000483824,0.0424393,20.9492,36.9145,-0.245507,0.0,0.0
740,184.75,38.1934,38.7275,169.258,98.1523,100.69,0.000415898,0.0424331,20.9492,36.9044,-0.214413,0.0,0.0
742,185.25,37.8851,38.2767,153.408,98.1087,100.064,0.000360878,0.0424281,20.9495,36.8844,-0.165751,0.0,0.0
744,185.75,38.11,38.4803,164.973,98.139,101.146,0.000316311,0.0423932,20.9499,36.9044,-0.253449,0.0,0.0
746,186.25,38.0524,37.8945,166.268,98.1187,102.056,0.000280212,0.0423369,20.9502,36.8944,-0.330474,0.0,0.0
748,186.75,38.1404,38.5607,166.279,98.1489,100.804,0.000233712,0.0422914,20.9502,36.9044,-0.224188,0.0,0.0
750,187.25,38.1198,38.5841,164.669,98.119,100.861,0.000196047,0.0422468,20.95,36.9145,-0.23149,0.0,0.0
752,187.75,38.0594,38.2446,168.042,98.1497,100.747,0.000173974,0.0422037,20.9499,36.9245,-0.219382,0.0,0.0
754,188.25,38.1395,37.9756,164.522,98.1478,100.406,0.000163685,0.0421688,20.9497,36.9245,-0.191018,0.0,0.0
756,188.75,38.1416,38.4284,167.149,98.1574,100.349,0.000155352,0.0421552,20.9496,36.8944,-0.185435,0.0,0.0
758,189.25,37.9855,38.1069,164.425,98.1593,99.5518,0.000165869,0.0421442,20.9496,36.9044,-0.118313,0.0,0.0
760,189.75,38.0026,38.4867,161.996,98.1441,99.7225,0.000174389,0.0421059,20.9495,36.9145,-0.134002,0.0,0.0
762,190.25,37.6111,38.4307,163.482,98.1726,100.975,0.000188692,0.0420748,20.9494,36.9145,-0.236383,0.0,0.0
764,190.75,37.7875,37.9651,171.122,98.1807,100.633,0.000200277,0.0420791,20.9494,36.9145,-0.207232,0.0,0.0
766,191.25,37.8848,38.0836,166.912,98.1777,102.17,0.00020596,0.0420826,20.9494,36.8844,-0.334783,0.0,0.0
768,191.75,37.5734,38.2807,164.546,98.1896,100.064,0.000210563,0.0421009,20.9493,36.8944,-0.158832,0.0,0.0
770,192.25,38.3199,38.3791,164.014,98.1696,103.138,0.00020689,0.0421296,20.9493,36.8944,-0.414649,0.0,0.0
772,192.75,37.8524,38.3502,167.623,98.1973,100.69,0.000203914,0.0421374,20.9493,36.9245,-0.21056,0.0,0.0
774,193.25,37.7057,38.3766,169.324,98.1873,98.9826,0.000201504,0.0421298,20.9493,36.9245,-0.0677514,0.0,0.0
776,193.75,37.6144,38.6237,167.273,98.191,99.6087,0.000200785,0.0421236,20.9493,36.9145,-0.120397,0.0,0.0
778,194.25,37.3555,38.4318,163.937,98.194,100.804,0.000200203,0.0420799,20.9493,36.9245,-0.220335,0.0,0.0
780,194.75,38.0381,38.1474,170.794,98.2176,101.715,0.000215772,0.0420097,20.9493,36.9245,-0.293855,0.0,0.0
782,195.25,37.8863,38.2779,164.134,98.1873,100.633,0.000228382,0.0419528,20.9492,36.9145,-0.206664,0.0,0.0
784,195.75,37.6415,38.4398,169.351,98.2069,101.316,0.000254643,0.0419068,20.9492,36.9145,-0.261805,0.0,0.0
786,196.25,38.3125,38.0712,172.264,98.204,101.43,0.000275915,0.041854,20.9492,36.9245,-0.27149,0.0,0.0
788,196.75,38.2419,38.1478,162.643,98.211,99.8933,0.000297045,0.0417973,20.9492,36.9345,-0.142656,0.0,0.0
790,197.25,37.6807,38.5609,167.642,98.1921,99.7225,0.00031767,0.0417746,20.9492,36.9145,-0.129896,0.0,0.0
792,197.75,37.8832,38.4705,164.924,98.2088,99.8364,0.000333726,0.0417771,20.9492,36.9245,-0.138058,0.0,0.0
794,198.25,37.8496,37.9072,166.602,98.2076,100.064,0.000346146,0.0417791,20.9492,36.9345,-0.157285,0.0,0.0
796,198.75,37.5379,37.8795,162.556,98.194,99.9502,0.000356206,0.041766,20.9492,36.9545,-0.148893,0.0,0.0
798,199.25,37.9289,38.1444,167.443,98.1955,100.121,0.00036559,0.0417555,20.9492,36.9245,-0.163104,0.0,0.0
800,199.75,37.434,38.3251,168.852,98.1962,100.235,0.000373191,0.0417392,20.9492,36.9145,-0.172584,0.0,0.0
802,200.25,37.6404,37.5387,166.563,98.2136,100.178,0.000387799,0.041719,20.9492,36.9245,-0.16633,0.0,0.0
804,200.75,37.6712,38.2601,162.924,98.1984,99.8364,0.000407238,0.0417104,20.9492,36.8944,-0.138942,0.0,0.0
806,201.25,37.6396,38.3379,166.765,98.2272,102.056,0.000430788,0.0417104,20.9492,36.8944,-0.321189,0.0,0.0
808,201.75,37.484,38.4569,166.918,98.1918,99.8933,0.000456887,0.0417026,20.9492,36.8944,-0.144298,0.0,0.0
810,202.25,37.7329,38.2809,165.019,98.1973,100.121,0.000481931,0.0416894,20.9492,36.9044,-0.162945,0.0,0.0
812,202.75,37.105,38.4638,166.311,98.1958,100.349,0.00050573,0.0416864,20.9492,36.8544,-0.18215,0.0,0.0
814,203.25,37.4977,38.4403,167.668,98.2117,100.406,0.000522404,0.041691,20.9492,36.9145,-0.185555,0.0,0.0
816,203.75,37.6682,38.3072,166.617,98.2025,101.316,0.000533568,0.0416637,20.9492,36.9245,-0.262185,0.0,0.0
818,204.25,38.0907,38.1635,169.845,98.2036,99.4948,0.000536107,0.0416138,20.9492,36.9245,-0.109719,0.0,0.0
820,204.75,37.694,38.0583,164.294,98.1899,100.918,0.000532309,0.0415656,20.9492,36.9445,-0.230162,0.0,0.0
822,205.25,37.5753,38.1203,167.399,98.2088,102.455,0.00052273,0.0415196,20.9492,36.9145,-0.355493,0.0,0.0
824,205.75,37.7469,38.1749,164.662,98.1814,100.918,0.00050912,0.0414823,20.9492,36.9145,-0.230889,0.0,0.0
826,206.25,37.5932,37.742,165.512,98.2099,99.6087,0.000498095,0.0414962,20.9492,36.9044,-0.118787,0.0,0.0
828,206.75,37.6018,38.5428,168.148,98.1899,101.032,0.000484225,0.0415075,20.9492,36.9245,-0.239631,0.0,0.0
830,207.25,37.5313,38.0961,160.587,98.2029,100.178,0.000472991,0.0415321,20.9492,36.9345,-0.167245,0.0,0.0
832,207.75,37.8798,38.4489,164.804,98.184,101.942,0.000467141,0.041566,20.9492,36.9145,-0.315508,0.0,0.0
834,208.25,37.3114,38.4029,162.94,98.1992,101.259,0.000465328,0.0415934,20.9492,36.9044,-0.257748,0.0,0.0
836,208.75,37.6847,38.172,168.631,98.184,101.658,0.000463859,0.0416156,20.9492,36.9044,-0.292027,0.0,0.0
838,209.25,37.6156,37.9921,166.294,98.1936,101.772,0.00046267,0.0416336,20.9492,36.9044,-0.300606,0.0,0.0
840,209.75,37.5491,37.8694,162.212,98.1796,103.365,0.000485184,0.0416482,20.9502,36.9044,-0.432318,0.0,0.0
842,210.25,37.559,37.8369,165.278,98.1918,100.519,0.00050342,0.0416159,20.9509,36.8944,-0.196777,0.0,0.0
844,210.75,37.2446,37.5149,170.202,98.1759,101.487,0.000520663,0.0415898,20.9511,36.9044,-0.278602,0.0,0.0
846,211.25,37.3734,38.5711,164.477,98.1836,100.804,0.000526825,0.0415686,20.9512,36.9145,-0.22122,0.0,0.0
848,211.75,37.6465,37.9107,163.458,98.1711,100.406,0.00052479,0.0415514,20.9518,36.9044,-0.189029,0.0,0.0
850,212.25,37.1565,38.1951,161.728,98.1744,102.398,0.00051144,0.0415669,20.9522,36.9145,-0.353763,0.0,0.0
852,212.75,37.3514,38.4717,160.598,98.1689,101.089,0.000490095,0.0415795,20.9526,36.9245,-0.246162,0.0,0.0
854,213.25,37.1351,37.7835,162.243,98.194,99.9502,0.000472805,0.0415819,20.9529,36.9145,-0.148893,0.0,0.0
856,213.75,37.736,37.9364,167.427,98.1733,101.601,0.000465434,0.0415793,20.953,36.9345,-0.288239,0.0,0.0
858,214.25,37.3048,38.3037,162.257,98.1822,101.373,0.00042814,0.0415748,20.9532,36.9345,-0.268638,0.0,0.0
860,214.75,37.6574,37.9277,162.205,98.163,100.747,0.000397932,0.0415417,20.9534,36.9245,-0.218244,0.0,0.0
862,215.25,37.4949,38.0642,162.677,98.1766,101.202,0.000362359,0.041515,20.9535,36.9145,-0.254952,0.0,0.0
864,215.75,37.6621,38.0143,166.858,98.1578,100.804,0.00032965,0.0415227,20.9536,36.9145,-0.22343,0.0,0.0
866,216.25,37.6097,37.5003,166.19,98.146,100.576,0.000299649,0.0415289,20.9537,36.9145,-0.205449,0.0,0.0
868,216.75,37.055,38.2287,170.647,98.1397,101.316,0.000272752,0.0415487,20.9538,36.9044,-0.267554,0.0,0.0
870,217.25,37.5272,37.9675,170.5,98.1549,99.9502,0.000248629,0.0415647,20.9539,36.9145,-0.15224,0.0,0.0