File: 01_Data/Polyisocyanurate_Spray_Foam_Insulation/Cone/Polyisocyanurate_Spray_Foam_Insulation_Cone_HF25Scan_241113_R2.csv
Names,Time,Stack TC,Smoke TC,Exh Press,Smoke Comp,Smoke Meas,CO Meter,CO2 Meter,O2 Meter,Sample Mass,Ext Coeff,Start Test,Flame Verif
Chan Gain,,500,500,1,1,1,1,1,1,1,1,1.0,1.0
Offset,,0,0,0.138019,0,0,0,0,0,0,0,0.0,0.0
Gain,,1,1,25.011,12.0976,1865.13,1,1,1,1.00093,0.957506,1.0,1.0
Units,sec,C,C,Pa,%,%,%,%,%,g,/m,,
Baseline,,29.9937,30.634,168.492,98.1653,114.443,0.000335368,0.0424934,20.9479,-442.256,-1.28832,,
2,0.25,29.5067,30.0541,171.202,96.3754,113.155,0.00051329,0.0431934,20.9468,48.5253,-1.34817,0.0,0.0
4,0.75,28.6574,28.8053,166.525,96.3658,111.903,0.00050739,0.0431322,20.9472,48.5153,-1.25554,0.0,0.0
6,1.25,28.0917,28.6438,166.829,96.3669,111.846,0.00049793,0.0430672,20.9475,48.5053,-1.25117,0.0,0.0
8,1.75,27.6756,28.5633,172.619,96.3698,111.789,0.000491567,0.0430005,20.9478,48.4652,-1.24664,0.0,0.0
10,2.25,27.7763,28.3314,167.961,96.3595,110.31,0.000487583,0.0429466,20.948,48.4953,-1.1356,0.0,0.0
12,2.75,27.5816,28.637,173.029,96.3602,106.439,0.000484356,0.0428587,20.9482,48.4452,-0.835538,0.0,1.0
14,3.25,28.0359,28.5803,156.427,96.3687,94.8275,0.000481743,0.0427876,20.9483,48.1549,0.135415,0.0,1.0
16,3.75,27.6857,28.4955,151.156,96.3791,85.8342,0.000479625,0.0427299,20.9484,48.2951,0.973222,0.0,1.0
18,4.25,28.757,29.4291,153.024,96.3632,83.3867,0.000521173,0.042722,20.9485,48.1649,1.21482,0.0,1.0
20,4.75,29.0425,30.1273,155.426,96.3942,79.1178,0.000554826,0.0427504,20.9487,48.0649,1.65891,0.0,1.0
22,5.25,29.4015,30.9427,155.343,96.3872,80.1992,0.000589247,0.0427734,20.9489,47.9848,1.54427,0.0,1.0
24,5.75,30.0267,32.0768,145.829,96.4093,76.0441,0.000623574,0.0428802,20.9492,47.9147,1.99303,0.0,1.0
26,6.25,30.8753,32.7158,151.214,96.4082,77.4671,0.000649425,0.0429668,20.9497,47.8046,1.83722,0.0,1.0
28,6.75,31.7703,33.7479,154.636,96.4186,79.2885,0.000668606,0.0430516,20.9501,47.7846,1.64292,0.0,1.0
30,7.25,31.9078,34.4118,154.76,96.4215,74.4504,0.000681539,0.0431203,20.95,47.7145,2.172,0.0,1.0
32,7.75,31.3578,34.2886,148.305,96.4296,80.1423,0.000689671,0.0431466,20.9499,47.6645,1.55393,0.0,1.0
34,8.25,31.7242,35.0655,146.875,96.4492,75.9303,0.000696908,0.0431678,20.9499,47.5744,2.00909,0.0,1.0
36,8.75,32.228,35.6345,150.561,96.4588,75.5888,0.000703357,0.0431409,20.9498,47.5143,2.04779,0.0,1.0
38,9.25,33.1119,36.4974,151.154,96.4876,70.8645,0.00070858,0.0431191,20.9498,47.3942,2.59237,0.0,1.0
40,9.75,33.2769,36.9041,150.928,96.4931,70.6368,0.00071281,0.0433261,20.9495,47.3542,2.61988,0.0,1.0
42,10.25,34.2688,38.0711,155.827,96.5127,68.2462,0.000714614,0.0435207,20.9493,47.2541,2.91076,0.0,1.0
44,10.75,34.6066,38.5452,147.345,96.5253,69.783,0.000768548,0.0438534,20.9489,47.174,2.72481,0.0,1.0
46,11.25,35.0378,39.2209,151.671,96.5374,69.2138,0.000857998,0.0479864,20.9486,47.134,2.79466,0.0,0.0
48,11.75,36.4254,40.2262,151.51,96.5481,68.0185,0.0011365,0.0548112,20.9483,46.9939,2.94191,0.0,0.0
50,12.25,36.4143,40.9251,147.467,96.5633,71.1491,0.00154754,0.0669718,20.9481,46.9438,2.56529,0.0,0.0
52,12.75,36.8381,41.8146,150.677,96.6094,68.1323,0.00223387,0.0827912,20.948,46.8537,2.9332,0.0,0.0
54,13.25,37.3612,42.3559,153.328,96.6083,68.9292,0.00310783,0.0956049,20.9444,46.7937,2.83543,0.0,0.0
56,13.75,37.7828,42.92,150.275,96.6249,66.8801,0.00381575,0.122059,20.9384,46.6936,3.09035,0.0,0.0
58,14.25,38.2676,43.6957,148.268,96.6511,69.783,0.00545584,0.143487,20.9249,46.6035,2.73576,0.0,0.0
60,14.75,38.5128,44.3092,142.702,96.6803,71.889,0.00678431,0.171369,20.906,46.5434,2.48856,0.0,0.0
62,15.25,39.1353,44.7079,148.97,96.691,69.9538,0.00884979,0.193953,20.8786,46.4534,2.7187,0.0,0.0
64,15.75,39.7307,45.678,152.417,96.7132,70.8075,0.0105228,0.217178,20.8455,46.3933,2.61873,0.0,0.0
66,16.25,40.0872,46.3269,150.407,96.7416,67.7908,0.0128557,0.24043,20.8074,46.3032,2.98689,0.0,0.0
68,16.75,40.3397,46.5164,151.989,96.7553,66.9939,0.0147453,0.259264,20.7665,46.2031,3.08739,0.0,0.0
70,17.25,40.7201,47.2477,151.719,96.7649,65.0587,0.0162759,0.281453,20.7333,46.1731,3.33442,0.0,0.0
72,17.75,41.056,47.9379,146.529,96.7996,66.937,0.0193811,0.309662,20.6824,46.043,3.09837,0.0,0.0
74,18.25,41.5535,48.4274,149.64,96.8232,67.3924,0.0202165,0.318874,20.6667,45.9729,3.04348,0.0,0.0
76,18.75,41.8254,48.8398,146.842,96.8476,66.8801,0.0229524,0.343446,20.6184,45.8828,3.10968,0.0,0.0
78,19.25,42.6436,49.2823,149.485,96.8623,62.7819,0.0236884,0.351384,20.6039,45.8027,3.64208,0.0,0.0
80,19.75,42.8327,49.9779,146.376,96.8911,60.9036,0.0253763,0.364957,20.5755,45.7127,3.8997,0.0,0.0
82,20.25,43.0025,50.6163,149.892,96.9085,67.1078,0.0267434,0.378854,20.5494,45.6126,3.08642,0.0,0.0
84,20.75,43.3417,50.7181,151.997,96.9461,66.7094,0.0281658,0.39011,20.5238,45.5825,3.1397,0.0,0.0
86,21.25,43.5795,51.2212,148.881,96.9716,64.6603,0.029318,0.401036,20.4988,45.4324,3.40394,0.0,0.0
88,21.75,43.7547,51.7665,142.827,96.989,64.6603,0.0305118,0.409886,20.4761,45.3623,3.40545,0.0,0.0
90,22.25,44.214,52.2824,147.081,96.9871,62.042,0.0314788,0.418234,20.4554,45.2522,3.75247,0.0,0.0
92,22.75,44.4536,52.4026,146.752,97.0174,64.9449,0.032492,0.424997,20.4369,45.2322,3.37102,0.0,0.0
94,23.25,44.5936,52.9798,150.451,97.0502,63.9203,0.0333127,0.431068,20.4202,45.1621,3.50742,0.0,0.0
96,23.75,45.278,53.2879,151.286,97.0761,64.4326,0.0339774,0.436521,20.4066,45.042,3.44262,0.0,0.0
98,24.25,45.5892,53.7742,140.535,97.0901,64.5464,0.0346376,0.440938,20.3957,44.952,3.429,0.0,0.0
100,24.75,45.7577,54.0115,155.656,97.1318,61.8712,0.0352818,0.445321,20.3851,44.8919,3.78815,0.0,0.0
102,25.25,45.8621,54.3889,150.021,97.1713,66.9939,0.03586,0.449597,20.3765,44.8118,3.12343,0.0,0.0
104,25.75,46.2946,54.9505,141.137,97.1713,64.831,0.0363791,0.45306,20.3695,44.7618,3.39907,0.0,0.0
106,26.25,46.6241,55.3372,138.343,97.2263,66.9939,0.0367996,0.455865,20.3621,44.6517,3.12818,0.0,0.0
108,26.75,46.8075,55.5401,142.052,97.2673,66.7094,0.0373707,0.460568,20.3536,44.5416,3.16748,0.0,0.0
110,27.25,47.2223,56.1178,152.216,97.271,65.0587,0.0375781,0.461834,20.3509,44.4915,3.37824,0.0,0.0
112,27.75,47.3368,56.1644,145.214,97.3183,66.0832,0.0379328,0.464873,20.3463,44.3914,3.25108,0.0,0.0
114,28.25,47.8639,56.8937,153.364,97.3655,68.0754,0.0383397,0.467336,20.3412,44.3314,3.0057,0.0,0.0
116,28.75,47.6858,56.9328,146.34,97.4039,66.6524,0.0386694,0.469914,20.3358,44.2113,3.18644,0.0,0.0
118,29.25,47.9893,57.4064,154.051,97.4493,66.6524,0.0390594,0.472527,20.3312,44.1512,3.19035,0.0,0.0
120,29.75,48.3544,57.5305,152.076,97.4634,64.7172,0.0393752,0.474966,20.3273,44.0311,3.43904,0.0,0.0
122,30.25,48.4795,57.7381,146.474,97.5032,63.9203,0.0397365,0.477233,20.3226,43.9911,3.54654,0.0,0.0
124,30.75,48.8451,58.1645,153.008,97.5235,65.9694,0.0400292,0.479231,20.3172,43.891,3.28326,0.0,0.0
126,31.25,49.0272,58.4793,142.676,97.5593,61.302,0.0402662,0.480995,20.3129,43.8209,3.90266,0.0,0.0
128,31.75,49.4184,58.7688,150.714,97.5697,62.725,0.0406012,0.482424,20.3081,43.7108,3.71081,0.0,0.0
130,32.25,49.2786,58.84,147.128,97.6247,64.8879,0.0408725,0.484081,20.3043,43.6607,3.4308,0.0,0.0
132,32.75,49.6815,59.1876,149.467,97.6432,67.0509,0.0412117,0.485423,20.3011,43.5607,3.15698,0.0,0.0
134,33.25,49.7019,59.9273,146.491,97.6782,63.6926,0.0414865,0.486664,20.2986,43.4606,3.59157,0.0,0.0
136,33.75,50.2412,59.7349,150.63,97.7056,60.3913,0.0418243,0.48767,20.2963,43.4005,4.04095,0.0,0.0
138,34.25,50.6376,59.8335,143.687,97.7288,66.1971,0.042098,0.488535,20.2942,43.2904,3.27198,0.0,0.0
140,34.75,50.3412,60.2018,152.02,97.7639,65.7417,0.0423631,0.489281,20.2919,43.2103,3.33297,0.0,0.0
142,35.25,50.5628,60.5623,146.888,97.81,64.0911,0.0424967,0.4896,20.2905,43.1503,3.55052,0.0,0.0
144,35.75,50.7229,60.4383,149.483,97.8148,62.1558,0.0427362,0.490047,20.2882,43.0802,3.80845,0.0,0.0
146,36.25,50.525,60.6363,151.381,97.8639,63.0665,0.0429401,0.49041,20.2864,42.9701,3.6905,0.0,0.0
148,36.75,50.7682,60.9939,157.101,97.8817,70.1814,0.0431053,0.490223,20.2849,42.87,2.7942,0.0,0.0
150,37.25,50.7526,61.1015,145.424,97.9156,65.0018,0.0432076,0.490071,20.2837,42.7599,3.44107,0.0,0.0
152,37.75,51.0539,61.2152,149.021,97.9452,63.8065,0.0432904,0.489989,20.2827,42.6698,3.59949,0.0,0.0
154,38.25,51.8347,61.3665,146.712,97.9743,62.042,0.0433575,0.489958,20.2819,42.6098,3.83753,0.0,0.0
156,38.75,51.5789,61.7108,150.253,98.0031,65.7987,0.0433549,0.489934,20.2815,42.5197,3.34623,0.0,0.0
158,39.25,51.58,62.0137,148.173,98.0423,63.0665,0.0433527,0.490935,20.2814,42.4396,3.70579,0.0,0.0
160,39.75,51.7642,62.12,150.24,98.0666,56.6916,0.043336,0.491746,20.2813,42.3195,4.60293,0.0,0.0
162,40.25,52.2025,62.6477,145.324,98.0792,60.9036,0.0433224,0.493447,20.2812,42.1994,4.00206,0.0,0.0
164,40.75,52.3389,62.6397,154.406,98.0426,63.6926,0.0433234,0.494825,20.2811,42.1393,3.62284,0.0,0.0
166,41.25,52.534,62.784,146.619,98.0939,60.1636,0.0433243,0.496125,20.2811,42.0593,4.106,0.0,0.0
168,41.75,52.5959,63.4723,149.907,98.1201,59.4806,0.0433429,0.497342,20.2797,41.9291,4.20414,0.0,0.0
170,42.25,52.6457,63.0834,148.742,98.1445,66.3109,0.043358,0.497767,20.2773,41.8491,3.2932,0.0,0.0
172,42.75,52.5961,63.4131,140.734,98.1936,58.1715,0.0433913,0.498111,20.2753,41.739,4.39736,0.0,0.0
174,43.25,52.93,63.459,149.733,98.2276,59.4806,0.0434182,0.497617,20.2738,41.6689,4.21333,0.0,0.0
176,43.75,53.4886,63.6734,149.589,98.2209,61.5297,0.0434746,0.497216,20.2725,41.5288,3.92829,0.0,0.0
178,44.25,53.4301,64.1079,149.01,98.2575,63.465,0.0435202,0.496973,20.2715,41.4187,3.67131,0.0,0.0
180,44.75,54.0782,64.3476,145.743,98.2756,61.1313,0.0435572,0.496849,20.2706,41.3286,3.98753,0.0,0.0
182,45.25,53.8861,64.4416,139.885,98.2981,62.5543,0.0437031,0.496749,20.27,41.2285,3.79618,0.0,0.0
184,45.75,54.2693,65.1466,151.438,98.3505,64.0341,0.0438213,0.497567,20.2694,41.1184,3.60426,0.0,0.0
186,46.25,54.3589,65.0464,139.998,98.3435,58.3991,0.0440633,0.499039,20.2691,41.0183,4.37736,0.0,0.0
188,46.75,54.5812,65.6766,140.957,98.3572,59.936,0.0442593,0.500857,20.2688,40.9382,4.16035,0.0,0.0
190,47.25,54.7717,65.6501,145.955,98.4218,63.9203,0.044524,0.502892,20.2687,40.8681,3.62529,0.0,0.0
192,47.75,54.6885,66.1984,143.507,98.4181,63.0665,0.0448338,0.50454,20.2685,40.7781,3.73792,0.0,0.0
194,48.25,55.6802,66.5705,143.768,98.4347,60.8467,0.0451824,0.506892,20.2684,40.6279,4.04031,0.0,0.0
196,48.75,55.7895,66.6866,142.06,98.445,61.0744,0.0455526,0.508796,20.2683,40.6279,4.00982,0.0,0.0
198,49.25,56.4084,67.473,146.001,98.4716,65.2295,0.0458524,0.510339,20.2639,40.4678,3.45926,0.0,0.0
200,49.75,55.9145,68.1008,146.005,98.4879,63.1804,0.0462077,0.512648,20.2603,40.4077,3.72873,0.0,0.0
202,50.25,56.1809,67.8639,145.835,98.5115,62.6112,0.0465968,0.514518,20.2563,40.2776,3.80675,0.0,0.0
204,50.75,56.3087,67.4296,150.567,98.5082,59.9929,0.0469676,0.516761,20.253,40.1975,4.16526,0.0,0.0
206,51.25,56.2437,67.6999,144.671,98.5436,63.3511,0.047318,0.518577,20.2487,40.1575,3.71081,0.0,0.0
208,51.75,56.6824,68.31,152.703,98.5384,62.3835,0.0476018,0.52157,20.2451,40.0474,3.83965,0.0,0.0
210,52.25,56.4138,68.6827,142.369,98.5846,62.8958,0.0479158,0.523993,20.2422,39.9673,3.77489,0.0,0.0
212,52.75,57.4173,68.3182,150.143,98.5669,65.571,0.0482458,0.525957,20.2386,39.8572,3.42352,0.0,0.0
214,53.25,57.2805,67.8042,153.403,98.5731,60.3344,0.0485853,0.530193,20.2357,39.7471,4.12312,0.0,0.0
216,53.75,56.5049,68.4663,148.363,98.5931,69.043,0.0489253,0.534817,20.2315,39.7171,2.99238,0.0,0.0
218,54.25,57.1572,68.3435,147.457,98.5964,62.3835,0.0492926,0.539636,20.2282,39.627,3.84459,0.0,0.0
220,54.75,56.6219,68.0587,145.584,98.6156,60.3344,0.049673,0.54354,20.2229,39.5669,4.12674,0.0,0.0
222,55.25,57.0254,68.8718,141.88,98.6097,55.7239,0.049981,0.548803,20.2186,39.4768,4.79391,0.0,0.0
224,55.75,57.0314,68.1563,146.271,98.6001,60.7328,0.0504199,0.553067,20.2123,39.3767,4.07014,0.0,0.0
226,56.25,56.7032,68.707,139.322,98.6186,57.773,0.0507754,0.558244,20.2048,39.2767,4.49135,0.0,0.0
228,56.75,57.2515,68.5841,144.929,98.6126,55.0409,0.051194,0.562438,20.1968,39.1365,4.89775,0.0,0.0
230,57.25,57.4975,68.7392,137.258,98.6152,59.0253,0.0515331,0.565449,20.1885,39.0464,4.31096,0.0,0.0
232,57.75,57.3297,68.7995,142.533,98.6115,54.7563,0.05182,0.56754,20.1819,38.9864,4.9412,0.0,0.0
234,58.25,57.8168,68.7517,144.202,98.5864,52.5365,0.0520636,0.569234,20.1765,38.8463,5.28666,0.0,0.0
236,58.75,57.439,69.5882,135.334,98.6119,52.6503,0.0522608,0.566264,20.1721,38.8362,5.27065,0.0,0.0
238,59.25,57.6536,69.08,142.015,98.616,55.4393,0.052314,0.563857,20.1686,38.7161,4.83745,0.0,0.0
240,59.75,57.9511,69.8117,146.44,98.6156,59.5375,0.0522613,0.559708,20.1657,38.626,4.23841,0.0,0.0
242,60.25,58.2513,69.6362,146.158,98.6197,56.0085,0.0519613,0.554366,20.1641,38.4859,4.75197,0.0,0.0
244,60.75,58.2353,70.12,140.402,98.6053,58.0576,0.0517183,0.548539,20.1634,38.4359,4.44895,0.0,0.0
246,61.25,58.8578,70.1954,142.053,98.5968,50.6012,0.0513553,0.542467,20.1662,38.3258,5.60278,0.0,0.0
248,61.75,58.7021,70.3105,137.834,98.5839,54.244,0.0509117,0.536666,20.1717,38.3057,5.01779,0.0,0.0
250,62.25,58.8535,70.5252,144.764,98.5827,57.4315,0.0503228,0.531172,20.176,38.2257,4.5381,0.0,0.0
252,62.75,59.0871,70.6027,144.53,98.6016,48.4383,0.0498457,0.526629,20.1861,38.1156,5.97011,0.0,0.0
254,63.25,58.7812,70.3072,144.598,98.6163,54.5856,0.0493144,0.522867,20.1957,38.0255,4.96784,0.0,0.0
256,63.75,58.6115,70.8617,147.557,98.6049,52.9349,0.0488841,0.520425,20.2047,37.9454,5.22477,0.0,0.0
258,64.25,59.3133,70.5412,148.686,98.5887,53.8456,0.0484929,0.518991,20.2119,37.8353,5.08012,0.0,0.0
260,64.75,59.5035,70.4502,148.314,98.592,53.0487,0.048176,0.51783,20.2178,37.7652,5.20563,0.0,0.0
262,65.25,59.0195,71.0366,143.904,98.579,48.4952,0.0479194,0.518829,20.2226,37.7152,5.95832,0.0,0.0
264,65.75,59.5758,70.3996,152.265,98.5558,55.4393,0.0478105,0.519638,20.2264,37.6151,4.83232,0.0,0.0
266,66.25,59.6092,70.6431,146.944,98.5384,51.9104,0.0477223,0.521822,20.2296,37.555,5.38327,0.0,0.0
268,66.75,59.6335,70.7249,145.58,98.544,49.1782,0.0477231,0.524966,20.2321,37.515,5.83786,0.0,0.0
270,67.25,59.7096,70.7642,145.32,98.5325,49.1782,0.0477889,0.528184,20.2315,37.4349,5.83689,0.0,0.0
272,67.75,58.8586,71.0998,150.564,98.5163,54.5286,0.0478712,0.531393,20.2311,37.3849,4.96808,0.0,0.0
274,68.25,59.5198,70.5721,154.275,98.4927,50.4874,0.0479639,0.533992,20.2285,37.2948,5.61282,0.0,0.0
276,68.75,58.86,70.9995,150.648,98.4904,52.4795,0.0479915,0.535839,20.2265,37.2247,5.28758,0.0,0.0
278,69.25,59.3219,70.922,145.556,98.4705,52.5365,0.0479711,0.537335,20.2227,37.1347,5.27678,0.0,0.0
280,69.75,59.2973,70.8157,147.954,98.465,51.2842,0.0478535,0.537651,20.2179,37.1146,5.47893,0.0,0.0
282,70.25,58.7782,70.8634,145.8,98.4292,58.0576,0.0476673,0.537907,20.2139,37.0446,4.43393,0.0,0.0
284,70.75,59.847,69.8154,149.022,98.4413,53.1057,0.0473966,0.53744,20.2107,36.9945,5.18378,0.0,0.0
286,71.25,58.8216,70.5642,155.577,98.4421,59.3099,0.0470695,0.537062,20.2081,36.9044,4.2558,0.0,0.0
288,71.75,58.7894,70.4712,154.27,98.4491,55.0978,0.0468045,0.536755,20.206,36.8043,4.87513,0.0,0.0
290,72.25,59.5992,69.6637,150.521,98.4203,53.4472,0.0464985,0.53559,20.2036,36.8043,5.12814,0.0,0.0
292,72.75,59.4036,69.2985,148.46,98.4221,55.2117,0.0461538,0.535149,20.2029,36.7443,4.85549,0.0,0.0
294,73.25,59.3019,69.2532,144.506,98.4221,54.4148,0.0455644,0.534394,20.2023,36.6742,4.9776,0.0,0.0
296,73.75,58.7956,69.7654,156.517,98.4092,73.2551,0.0449424,0.532246,20.2018,36.6442,2.47933,0.0,0.0
298,74.25,58.5834,69.5165,155.863,98.3819,71.8321,0.0443084,0.530506,20.2013,36.6742,2.64175,0.0,0.0
300,74.75,58.713,68.4569,153.284,98.3634,60.5621,0.0436332,0.52665,20.201,36.6042,4.0736,0.0,0.0
302,75.25,58.3211,68.2505,147.993,98.3638,55.2117,0.0429408,0.522036,20.2016,36.5741,4.85051,0.0,0.0
304,75.75,58.4679,68.7891,149.998,98.3705,54.0164,0.0422272,0.516957,20.2021,36.5641,5.03491,0.0,0.0
306,76.25,58.2297,68.3725,146.727,98.3383,59.0253,0.0415115,0.511357,20.2051,36.474,4.28735,0.0,0.0
308,76.75,58.0942,68.3793,150.001,98.3173,63.6926,0.0409319,0.505484,20.2075,36.424,3.64634,0.0,0.0
310,77.25,57.9967,67.9079,150.64,98.3143,67.8477,0.0401344,0.500726,20.2118,36.3739,3.11529,0.0,0.0
312,77.75,57.6575,67.8262,150.939,98.2929,72.2874,0.0394885,0.493869,20.2173,36.3739,2.58108,0.0,0.0
314,78.25,57.2576,67.7533,153.294,98.2641,71.3767,0.0387672,0.488315,20.2218,36.3139,2.68511,0.0,0.0
316,78.75,57.3525,67.076,158.946,98.2885,79.7439,0.0380048,0.483816,20.2293,36.2939,1.75616,0.0,0.0
318,79.25,57.5229,66.4144,158.673,98.2579,77.8655,0.0373872,0.476134,20.2354,36.2538,1.95375,0.0,0.0
320,79.75,56.6918,66.845,154.705,98.2387,76.6702,0.0366725,0.469913,20.2424,36.2839,2.08204,0.0,0.0
322,80.25,56.6875,66.5339,153.078,98.2154,76.3856,0.0359006,0.463088,20.25,36.2739,2.11129,0.0,0.0
324,80.75,56.4562,65.6992,152.996,98.2143,76.841,0.0349596,0.455953,20.2561,36.2238,2.06127,0.0,0.0
326,81.25,56.3875,65.6723,156.301,98.1899,80.0854,0.0341975,0.448535,20.2645,36.2438,1.71184,0.0,0.0
328,81.75,56.2701,65.3178,158.333,98.1958,86.7449,0.0333891,0.441051,20.2713,36.1637,1.04143,0.0,0.0
330,82.25,55.9759,64.944,157.114,98.1597,88.0541,0.0325625,0.433235,20.2825,36.1938,0.912521,0.0,0.0
332,82.75,55.6246,64.0885,152.175,98.1405,90.217,0.0315176,0.425325,20.2946,36.1237,0.707057,0.0,0.0
334,83.25,55.5112,63.8615,156.019,98.1246,91.9246,0.0306712,0.418021,20.307,36.1738,0.548209,0.0,0.0
336,83.75,55.224,63.5685,160.404,98.1157,92.6076,0.0296469,0.411296,20.3203,36.1237,0.485273,0.0,0.0
338,84.25,54.8941,63.5727,160.422,98.1113,91.8107,0.0288171,0.405342,20.3339,36.1437,0.557479,0.0,0.0
340,84.75,54.7212,62.6452,157.284,98.0925,95.7382,0.0278392,0.400061,20.3473,36.1037,0.204044,0.0,0.0
342,85.25,54.5059,61.8866,157.894,98.0755,96.9904,0.0270471,0.394448,20.3602,36.1037,0.0934445,0.0,0.0
344,85.75,53.658,62.0364,162.784,98.0614,99.4948,0.0264055,0.388699,20.3706,36.1437,-0.121885,0.0,0.0
346,86.25,53.3886,60.9688,160.061,98.0279,99.6087,0.0259089,0.386248,20.3755,36.1437,-0.134367,0.0,0.0
348,86.75,53.4843,60.645,159.427,98.0423,100.349,0.0250595,0.379657,20.3839,36.1637,-0.195297,0.0,0.0
350,87.25,52.4781,60.8479,158.52,98.0142,101.43,0.0241649,0.372159,20.3907,36.1437,-0.287736,0.0,0.0
352,87.75,53.03,59.7851,159.85,98.0098,103.195,0.0232541,0.363581,20.3962,36.1637,-0.432972,0.0,0.0
354,88.25,52.6792,59.6007,158.48,97.9924,102.91,0.0223243,0.354377,20.4006,36.1738,-0.411264,0.0,0.0
356,88.75,51.8891,59.3488,163.722,97.9891,103.479,0.0213983,0.346922,20.4099,36.1938,-0.457876,0.0,0.0
358,89.25,51.4358,58.2942,158.748,97.9618,103.821,0.0206482,0.336623,20.4174,36.1838,-0.487893,0.0,0.0
360,89.75,50.6784,58.3426,160.632,97.9747,104.902,0.0196164,0.32828,20.429,36.1738,-0.573823,0.0,0.0
362,90.25,50.6114,57.0318,162.808,97.9249,103.536,0.0182261,0.312274,20.4495,36.1738,-0.468003,0.0,0.0
364,90.75,50.1174,57.0703,163.916,97.9474,103.935,0.017727,0.307968,20.4582,36.1938,-0.498332,0.0,0.0
366,91.25,50.3229,56.1612,162.837,97.9053,107.122,0.0163539,0.291124,20.4794,36.1938,-0.755658,0.0,0.0
368,91.75,49.4562,55.8922,158.438,97.9337,105.073,0.0158862,0.286593,20.4886,36.1938,-0.590998,0.0,0.0
370,92.25,48.9857,55.0253,168.308,97.8879,105.414,0.0150864,0.276056,20.5042,36.2038,-0.622181,0.0,0.0
372,92.75,49.0751,54.5804,169.408,97.9001,105.073,0.0142443,0.265011,20.5169,36.1938,-0.59388,0.0,0.0
374,93.25,48.1827,54.5499,166.332,97.875,105.984,0.0133874,0.253348,20.5354,36.1938,-0.668519,0.0,0.0
376,93.75,47.0578,52.1278,165.454,97.8809,105.813,0.0125799,0.241456,20.5505,36.1938,-0.654469,0.0,0.0
378,94.25,46.3802,51.4683,169.99,97.8514,107.065,0.0118238,0.231823,20.5626,36.2238,-0.755819,0.0,0.0
380,94.75,46.3158,51.2922,161.238,97.8521,105.699,0.0112113,0.224021,20.5808,36.2338,-0.6479,0.0,0.0
382,95.25,46.0049,50.4268,164.372,97.8326,106.041,0.0105587,0.211161,20.5955,36.2238,-0.676674,0.0,0.0
384,95.75,50.0294,55.0021,165.052,97.8421,105.414,0.00988923,0.198814,20.6137,36.2038,-0.62611,0.0,0.0
386,96.25,50.9891,55.8274,165.68,97.8399,106.097,0.00925711,0.187075,20.6285,36.2238,-0.680546,0.0,0.0
388,96.75,51.5833,56.3185,160.761,97.82,106.951,0.00866423,0.175727,20.65,36.2138,-0.749578,0.0,0.0
390,97.25,51.1931,55.6705,162.473,97.8218,106.61,0.008184,0.16488,20.6675,36.2138,-0.722556,0.0,0.0
392,97.75,50.5053,55.7147,165.551,97.8621,107.52,0.00760227,0.156093,20.686,36.2338,-0.790546,0.0,0.0
394,98.25,50.7733,54.518,161.106,97.8994,108.203,0.00713106,0.145047,20.7049,36.2338,-0.840534,0.0,0.0
396,98.75,50.0247,54.8368,165.767,97.9367,109.342,0.00660547,0.136099,20.7202,36.2038,-0.92524,0.0,0.0
398,99.25,50.5024,54.26,165.168,97.971,108.602,0.00617973,0.128851,20.74,36.1838,-0.865263,0.0,0.0
400,99.75,50.0654,53.9448,165.498,97.9806,107.634,0.00583489,0.119386,20.756,36.2038,-0.789269,0.0,0.0
402,100.25,49.3675,53.4066,165.236,98.0208,106.951,0.00545171,0.111719,20.769,36.1938,-0.732351,0.0,0.0
404,100.75,49.2475,53.1778,162.369,98.0315,108.488,0.00504787,0.104311,20.7848,36.2138,-0.851264,0.0,0.0
406,101.25,49.2632,52.7696,163.482,98.0829,106.496,0.00465884,0.0972319,20.7975,36.2038,-0.691201,0.0,0.0
408,101.75,48.9773,52.4891,165.158,98.1069,107.919,0.004288,0.0908582,20.8131,36.2238,-0.800632,0.0,0.0
410,102.25,48.2487,51.6806,167.57,98.1294,107.634,0.00393573,0.0851197,20.8257,36.2138,-0.776525,0.0,0.0
412,102.75,48.3766,51.5789,165.63,98.1453,106.041,0.00360369,0.0800356,20.8403,36.2238,-0.64987,0.0,0.0
414,103.25,47.956,51.1518,166.442,98.1999,104.674,0.0032915,0.0755251,20.8521,36.2338,-0.53629,0.0,0.0
416,103.75,47.6759,50.6973,158.978,98.1933,106.553,0.0029997,0.0715139,20.8642,36.2238,-0.686242,0.0,0.0
418,104.25,48.1072,50.5513,162.973,98.2335,106.837,0.00273064,0.0679431,20.8741,36.2238,-0.705204,0.0,0.0
420,104.75,47.3889,50.8657,162.655,98.2316,107.236,0.00248328,0.0650507,20.8838,36.2338,-0.736627,0.0,0.0
422,105.25,47.4243,49.6882,163.021,98.2789,106.667,0.00228291,0.0622358,20.8917,36.2338,-0.687887,0.0,0.0
424,105.75,47.0316,49.8475,163.089,98.2715,104.959,0.00207719,0.0599556,20.8985,36.2038,-0.552972,0.0,0.0
426,106.25,46.9894,49.9992,168.088,98.307,105.585,0.00191056,0.0579148,20.9045,36.1938,-0.599898,0.0,0.0
428,106.75,46.9484,49.3907,165.11,98.3217,105.414,0.0017508,0.0560871,20.9093,36.2038,-0.585042,0.0,0.0
430,107.25,46.238,49.3686,159.989,98.3542,106.553,0.00153442,0.0538282,20.9161,36.2238,-0.672484,0.0,0.0
432,107.75,46.3406,49.1179,166.2,98.359,109.342,0.00147621,0.0531276,20.918,36.2238,-0.889096,0.0,0.0
434,108.25,46.4159,48.643,165.184,98.3804,107.862,0.00135062,0.0519296,20.9211,36.2238,-0.772813,0.0,0.0
436,108.75,45.7723,48.5767,163.081,98.3845,106.211,0.00122545,0.0508594,20.9241,36.2238,-0.642935,0.0,0.0
438,109.25,45.6357,48.3832,163.766,98.4266,106.496,0.00107585,0.0499028,20.9265,36.2238,-0.661819,0.0,0.0
440,109.75,46.0685,47.9549,161.789,98.4181,106.268,0.000954683,0.0491279,20.929,36.2238,-0.644568,0.0,0.0
442,110.25,45.8551,48.1886,163.701,98.4591,106.154,0.000834445,0.0483972,20.9311,36.2138,-0.632069,0.0,0.0
444,110.75,45.0697,47.7841,165.889,98.4487,106.553,0.000717172,0.0477976,20.9332,36.2138,-0.664417,0.0,0.0
446,111.25,45.5787,47.2688,160.423,98.4576,109.285,0.000613092,0.0473049,20.9349,36.1938,-0.87631,0.0,0.0
448,111.75,45.3404,47.1242,165.505,98.4646,106.154,0.000520607,0.0469059,20.9367,36.1838,-0.631597,0.0,0.0
450,112.25,45.2831,47.2582,163.122,98.4923,108.374,0.000443748,0.0464943,20.9382,36.1938,-0.803063,0.0,0.0
452,112.75,45.1947,47.1023,163.298,98.4853,107.35,0.000379739,0.0461609,20.9394,36.2038,-0.72388,0.0,0.0
454,113.25,45.0733,46.7551,164.627,98.5045,105.927,0.000327892,0.0457732,20.9404,36.2338,-0.610163,0.0,0.0
456,113.75,44.9217,46.4066,165.097,98.5255,106.781,0.000289141,0.0454591,20.9412,36.2638,-0.675796,0.0,0.0
458,114.25,44.6825,46.4977,165.904,98.5362,106.951,0.000260673,0.0451659,20.9418,36.2438,-0.688304,0.0,0.0
460,114.75,44.5441,45.8049,165.347,98.5355,106.041,0.000248652,0.0448937,20.9423,36.2438,-0.616541,0.0,0.0
462,115.25,44.6042,46.2206,166.904,98.5388,107.179,0.000248848,0.0446576,20.9432,36.2338,-0.705944,0.0,0.0
464,115.75,44.3883,45.9387,163.189,98.5392,106.61,0.000258751,0.0444525,20.9438,36.1738,-0.661189,0.0,0.0
466,116.25,43.8694,45.4779,160.795,98.5536,106.097,0.000275542,0.0442709,20.9444,36.1337,-0.619505,0.0,0.0
468,116.75,43.9745,45.0505,166.974,98.5296,107.065,0.000300843,0.0441098,20.9449,36.1037,-0.697806,0.0,0.0
470,117.25,44.3634,45.2882,164.533,98.5469,107.008,0.000331866,0.0439793,20.9452,36.1537,-0.69186,0.0,0.0
472,117.75,43.7868,45.3713,164.817,98.5399,105.528,0.000356994,0.0438737,20.9455,36.1637,-0.575489,0.0,0.0
474,118.25,43.5464,44.4371,167.787,98.5551,107.748,0.000377348,0.0437586,20.9458,36.1838,-0.749047,0.0,0.0
476,118.75,44.039,44.8962,164.797,98.5432,106.097,0.000422258,0.0436655,20.946,36.2138,-0.620386,0.0,0.0
478,119.25,44.0226,44.3607,162.215,98.5392,107.52,0.000458635,0.0436028,20.9463,36.2438,-0.732634,0.0,0.0
480,119.75,43.6722,44.916,164.485,98.5303,106.439,0.000490568,0.0435521,20.9466,36.2338,-0.648481,0.0,0.0
482,120.25,43.3962,44.4139,164.226,98.5451,110.025,0.000516435,0.043511,20.9466,36.2638,-0.925526,0.0,0.0
484,120.75,42.7388,44.7986,164.397,98.5396,106.837,0.000537387,0.0434189,20.9466,36.2438,-0.679076,0.0,0.0
486,121.25,43.2303,44.3402,164.515,98.5377,108.09,0.00054694,0.0433443,20.9466,36.2238,-0.777106,0.0,0.0
488,121.75,43.2075,43.9446,166.629,98.5366,108.602,0.000554678,0.0432761,20.9467,36.2638,-0.816912,0.0,0.0
490,122.25,42.7722,43.7724,163.495,98.5281,108.033,0.000558344,0.0432139,20.9467,36.2739,-0.7735,0.0,0.0
492,122.75,42.8593,43.867,165.559,98.5159,107.065,0.000558971,0.043148,20.9467,36.2739,-0.69897,0.0,0.0
494,123.25,42.9974,43.7603,161.095,98.5141,106.496,0.000562733,0.0430808,20.9467,36.2638,-0.654356,0.0,0.0
496,123.75,43.0045,43.5288,168.945,98.5115,109.854,0.000568707,0.0430263,20.9467,36.2638,-0.915345,0.0,0.0
498,124.25,42.427,43.3867,163.665,98.4886,110.082,0.000578751,0.042938,20.9467,36.2438,-0.934687,0.0,0.0
500,124.75,42.8627,43.7541,162.454,98.4886,105.414,0.000591572,0.0428665,20.9467,36.2438,-0.570798,0.0,0.0
502,125.25,42.4894,43.3358,168.321,98.462,105.016,0.000609116,0.042838,20.9467,36.2238,-0.541259,0.0,0.0
504,125.75,42.6665,43.2832,168.129,98.4539,103.707,0.000629771,0.0428149,20.9467,36.2538,-0.436589,0.0,0.0
506,126.25,43.2436,43.694,166.239,98.4266,104.504,0.00065171,0.0427815,20.9467,36.2338,-0.503212,0.0,0.0
508,126.75,42.7941,43.9945,163.864,98.4144,103.707,0.000674169,0.0427544,20.9467,36.2338,-0.43996,0.0,0.0
510,127.25,43.041,43.9752,166.888,98.4185,103.365,0.00069236,0.0427558,20.9467,36.2138,-0.411907,0.0,0.0
512,127.75,43.1702,43.7417,162.244,98.4004,103.252,0.000701886,0.0427777,20.9467,36.2138,-0.404196,0.0,0.0
514,128.25,43.0419,43.627,164.161,98.3694,104.845,0.000704915,0.0427955,20.9467,36.1938,-0.535499,0.0,0.0
516,128.75,42.3972,43.601,163.426,98.3409,104.105,0.000707368,0.0428393,20.9467,36.1838,-0.478439,0.0,0.0
518,129.25,42.7492,43.3254,161.458,98.3376,103.991,0.000695751,0.0428748,20.9467,36.1738,-0.469533,0.0,0.0
520,129.75,42.7497,43.3576,160.844,98.3062,103.536,0.000686342,0.0429113,20.9467,36.1738,-0.435356,0.0,0.0
522,130.25,42.7393,43.5318,160.928,98.273,102.853,0.000672539,0.0429478,20.9467,36.1738,-0.382602,0.0,0.0
524,130.75,42.5403,43.0984,164.501,98.2501,103.536,0.000661358,0.0429929,20.9467,36.2038,-0.440151,0.0,0.0
526,131.25,42.3231,43.1234,167.737,98.2265,102.17,0.000655555,0.0430434,20.9467,36.2038,-0.330615,0.0,0.0
528,131.75,42.5361,42.8114,166.798,98.1995,100.292,0.000653783,0.0430842,20.9467,36.2038,-0.177069,0.0,0.0
530,132.25,42.4626,42.6351,163.424,98.1633,101.772,0.000658857,0.0431173,20.9467,36.1838,-0.303196,0.0,0.0
532,132.75,42.0405,42.7563,165.005,98.1615,104.39,0.000668824,0.0431364,20.9467,36.1838,-0.516708,0.0,0.0
534,133.25,42.2995,42.7776,166.242,98.1083,102.682,0.000686665,0.0431449,20.9467,36.2038,-0.38273,0.0,0.0
536,133.75,41.7354,42.6148,164.474,98.112,101.885,0.000709907,0.0431517,20.9467,36.1637,-0.316978,0.0,0.0
538,134.25,41.8603,42.5671,165.21,98.033,101.999,0.000728733,0.0431867,20.9467,36.2038,-0.333124,0.0,0.0
540,134.75,42.051,42.4172,163.63,98.0363,101.999,0.000773693,0.0432151,20.9465,36.2038,-0.332839,0.0,0.0
542,135.25,41.9682,42.2407,165.1,97.9762,102.341,0.000810112,0.0432457,20.9461,36.1838,-0.366071,0.0,0.0
544,135.75,42.4007,42.21,164.037,97.961,101.259,0.000860671,0.0432776,20.9458,36.2038,-0.27814,0.0,0.0
546,136.25,41.826,42.557,161.594,97.9315,102.113,0.000901625,0.0433266,20.9455,36.2138,-0.351195,0.0,0.0
548,136.75,41.672,42.2639,161.722,97.981,103.878,0.000940667,0.0433872,20.9453,36.1838,-0.49085,0.0,0.0
550,137.25,41.7869,41.9186,162.302,97.9389,103.422,0.000977576,0.0434285,20.9451,36.1838,-0.45756,0.0,0.0
552,137.75,41.6551,42.2364,167.066,97.9754,103.65,0.00100251,0.0434551,20.945,36.1938,-0.472896,0.0,0.0
554,138.25,41.8452,42.0616,168.539,97.9799,102.91,0.00102271,0.0434611,20.9449,36.2038,-0.41234,0.0,0.0
556,138.75,41.614,42.1787,165.701,97.9946,102.227,0.00101553,0.043452,20.9448,36.2338,-0.355141,0.0,0.0
558,139.25,42.0649,41.435,165.921,97.974,101.202,0.00100972,0.0434137,20.9447,36.2438,-0.27231,0.0,0.0
560,139.75,41.2992,42.1108,167.158,97.9991,102.113,0.000988065,0.0433547,20.9447,36.2438,-0.345403,0.0,0.0
562,140.25,41.8316,41.8786,164.001,98.0175,103.707,0.000955278,0.043307,20.9446,36.2338,-0.473899,0.0,0.0
564,140.75,41.4817,41.8875,161.706,98.0249,103.195,0.00092872,0.0432684,20.945,36.2338,-0.431675,0.0,0.0
566,141.25,41.5161,41.345,164.936,98.0511,102.796,0.000907209,0.0432223,20.9453,36.2438,-0.396938,0.0,0.0
568,141.75,41.0151,41.624,164.691,98.053,101.829,0.000871556,0.0431851,20.9456,36.2238,-0.317343,0.0,0.0
570,142.25,41.4146,41.2631,158.542,98.053,103.65,0.000826271,0.0431549,20.946,36.2238,-0.466252,0.0,0.0
572,142.75,41.3373,41.6432,166.056,98.0651,102.739,0.00078959,0.0431157,20.9463,36.2238,-0.391084,0.0,0.0
574,143.25,41.412,41.6907,170.594,98.077,103.081,0.000743809,0.043084,20.9465,36.2238,-0.417945,0.0,0.0
576,143.75,41.3123,41.3638,162.468,98.0895,102.682,0.000706726,0.0430583,20.9467,36.2238,-0.384342,0.0,0.0
578,144.25,41.6239,41.7647,163.049,98.0862,106.837,0.000661862,0.0430375,20.9469,36.2338,-0.717809,0.0,0.0
580,144.75,41.2714,41.6454,165.825,98.1194,102.853,0.000625522,0.0429912,20.947,36.2138,-0.395739,0.0,0.0
582,145.25,40.9742,41.4923,164.272,98.1028,103.991,0.000596087,0.0429537,20.9471,36.2138,-0.489613,0.0,0.0
584,145.75,41.1438,41.2816,165.119,98.1549,104.845,0.000572244,0.0428924,20.9472,36.1938,-0.553834,0.0,0.0
586,146.25,41.3391,41.2906,165.444,98.1475,103.821,0.000555403,0.0428148,20.9473,36.2138,-0.471986,0.0,0.0
588,146.75,40.8931,40.9234,167.405,98.1707,104.39,0.000541761,0.0427598,20.9473,36.2138,-0.515918,0.0,0.0
590,147.25,40.8753,41.3616,165.038,98.1667,105.244,0.000531947,0.0427221,20.9474,36.2138,-0.584682,0.0,0.0
592,147.75,41.2096,41.193,162.602,98.1796,104.788,0.000523998,0.0427226,20.9474,36.1938,-0.547157,0.0,0.0
594,148.25,41.3532,41.2139,171.002,98.2047,104.902,0.000517559,0.0427509,20.9474,36.2138,-0.554128,0.0,0.0
596,148.75,41.1053,40.775,161.211,98.2184,104.504,0.000509872,0.0427738,20.9475,36.2138,-0.520999,0.0,0.0
598,149.25,40.7559,41.1196,156.873,98.2051,102.739,0.000503646,0.0427923,20.9475,36.2038,-0.379108,0.0,0.0
600,149.75,40.7185,40.5487,164.757,98.239,103.65,0.000497367,0.0428073,20.9475,36.2038,-0.450328,0.0,0.0
602,150.25,40.8685,40.7048,165.148,98.2375,103.878,0.000492281,0.0427973,20.9475,36.2038,-0.468884,0.0,0.0
604,150.75,41.0404,40.9677,166.101,98.2723,103.821,0.000490765,0.0427691,20.9475,36.2138,-0.461314,0.0,0.0
606,151.25,40.8473,41.1321,166.239,98.2564,103.479,0.00049188,0.0427618,20.9477,36.2138,-0.434997,0.0,0.0
608,151.75,40.6552,41.1461,170.027,98.2844,105.13,0.000499937,0.0427697,20.9478,36.2238,-0.565521,0.0,0.0
610,152.25,41.2933,40.7373,161.093,98.2907,106.211,0.000512902,0.0427762,20.948,36.2138,-0.650945,0.0,0.0
612,152.75,40.5201,40.7475,169.318,98.3114,105.813,0.000523403,0.0428109,20.948,36.2138,-0.617611,0.0,0.0
614,153.25,40.5814,41.1118,162.694,98.3055,104.618,0.000539326,0.0428389,20.9481,36.2238,-0.522695,0.0,0.0
616,153.75,40.5095,41.0035,162.044,98.3236,102.91,0.000552224,0.0428764,20.9482,36.2338,-0.382927,0.0,0.0
618,154.25,40.6014,41.1257,163.94,98.3446,105.813,0.000551547,0.0429067,20.9482,36.2438,-0.614773,0.0,0.0
620,154.75,40.7322,41.2141,166.683,98.3734,104.447,0.000550998,0.0429313,20.9483,36.2338,-0.503173,0.0,0.0
622,155.25,40.6969,40.8424,162.308,98.3538,104.959,0.000550554,0.0429512,20.9483,36.2238,-0.545938,0.0,0.0
624,155.75,40.858,40.7958,165.068,98.3727,104.105,0.000527956,0.0429673,20.9483,36.2438,-0.475728,0.0,0.0
626,156.25,40.588,40.5926,168.461,98.3745,106.724,0.000509651,0.0430392,20.9483,36.2538,-0.6842,0.0,0.0
628,156.75,40.5593,40.8715,164.12,98.4022,104.219,0.000491119,0.0430975,20.9484,36.2238,-0.482386,0.0,0.0
630,157.25,40.7891,40.5981,161.007,98.4044,104.504,0.000476108,0.0431299,20.9484,36.2138,-0.505101,0.0,0.0
632,157.75,40.3403,40.9178,166.679,98.4306,105.813,0.000480007,0.0431562,20.9484,36.1838,-0.607429,0.0,0.0
634,158.25,40.4978,41.0282,163.062,98.4151,104.162,0.000483166,0.0431334,20.9484,36.1738,-0.476695,0.0,0.0
636,158.75,40.7212,40.6818,162.567,98.4476,103.878,0.000515389,0.0431149,20.9484,36.2238,-0.450942,0.0,0.0
638,159.25,40.7131,41.0329,165.046,98.4495,104.618,0.00054149,0.0430922,20.9484,36.2538,-0.510403,0.0,0.0
640,159.75,40.7649,41.0315,166.843,98.445,104.845,0.00059727,0.0430668,20.9484,36.2038,-0.52904,0.0,0.0
642,160.25,40.8885,40.9006,165.455,98.4428,105.699,0.000642453,0.0430462,20.9484,36.2138,-0.597349,0.0,0.0
644,160.75,40.7982,40.5027,164.818,98.4605,104.788,0.000693384,0.0429983,20.9484,36.2138,-0.523156,0.0,0.0
646,161.25,40.7403,40.3811,164.276,98.4653,104.504,0.000747538,0.0429595,20.9484,36.2138,-0.499904,0.0,0.0
648,161.75,40.1611,40.7537,163.224,98.4727,103.65,0.000791403,0.0429574,20.9484,36.2138,-0.430371,0.0,0.0
650,162.25,40.1821,40.3913,165.21,98.4683,104.618,0.000826934,0.0429558,20.9484,36.2038,-0.508797,0.0,0.0
652,162.75,40.6794,40.5612,165.872,98.496,104.447,0.000855713,0.0429544,20.9483,36.2138,-0.492714,0.0,0.0
654,163.25,40.2122,40.8306,162.686,98.5026,103.935,0.000879025,0.0429239,20.9481,36.2038,-0.450852,0.0,0.0
656,163.75,40.4351,40.4124,163.392,98.489,105.073,0.000871907,0.0428992,20.948,36.2238,-0.543512,0.0,0.0
658,164.25,40.4541,40.4026,166.642,98.517,104.959,0.00086614,0.0428792,20.9479,36.2138,-0.532014,0.0,0.0
660,164.75,40.2361,40.7333,165.736,98.5012,105.016,0.00086147,0.0428924,20.9479,36.2038,-0.537922,0.0,0.0
662,165.25,40.0468,40.0529,162.747,98.5063,104.504,0.00081192,0.0429031,20.9475,36.2238,-0.496408,0.0,0.0
664,165.75,40.3112,40.4022,166.756,98.5082,104.105,0.000771784,0.0429412,20.947,36.2138,-0.464167,0.0,0.0
666,166.25,40.2742,40.5743,161.055,98.4838,103.138,0.00071703,0.0429721,20.9465,36.2038,-0.387812,0.0,0.0
668,166.75,39.829,40.4067,165.417,98.5008,104.788,0.000672679,0.042997,20.9462,36.2038,-0.519723,0.0,0.0
670,167.25,40.0951,40.3165,164.533,98.4919,107.179,0.000626873,0.0430173,20.9459,36.2138,-0.709942,0.0,0.0
672,167.75,40.5857,40.3932,171.55,98.4838,103.479,0.00058977,0.0430259,20.9456,36.2038,-0.415578,0.0,0.0
674,168.25,40.0698,40.5428,172.155,98.4823,103.195,0.000560952,0.043026,20.9454,36.2038,-0.392573,0.0,0.0
676,168.75,40.1068,40.1977,166.238,98.4893,105.301,0.00053761,0.0430105,20.9453,36.2138,-0.56166,0.0,0.0
678,169.25,40.0718,40.3053,163.002,98.4724,103.991,0.000518702,0.0429841,20.9452,36.2138,-0.458032,0.0,0.0
680,169.75,39.5072,40.1503,164.852,98.4812,105.984,0.00052439,0.0429627,20.9451,36.1938,-0.616658,0.0,0.0
682,170.25,40.4502,40.3335,168.46,98.4749,104.447,0.000528997,0.0429747,20.945,36.1838,-0.494509,0.0,0.0
684,170.75,39.8042,40.0575,164.593,98.4786,103.479,0.000547697,0.0429845,20.9449,36.2038,-0.416019,0.0,0.0
686,171.25,39.9025,40.3195,166.167,98.4631,105.585,0.000576316,0.0429934,20.9449,36.2138,-0.586566,0.0,0.0
688,171.75,39.9796,40.1039,164.389,98.4543,103.195,0.000609915,0.0430015,20.9448,36.2438,-0.394965,0.0,0.0
690,172.25,40.035,40.4671,169.615,98.4724,104.788,0.000646507,0.0430081,20.9449,36.2338,-0.522147,0.0,0.0
692,172.75,40.3585,39.8369,166.637,98.4221,103.365,0.000678101,0.0430134,20.9451,36.2338,-0.411592,0.0,0.0
694,173.25,39.8496,40.1968,168.501,98.4428,105.528,0.00070545,0.0430177,20.9456,36.2438,-0.583769,0.0,0.0
696,173.75,39.8966,39.9193,160.889,98.4055,103.252,0.000727603,0.0430212,20.946,36.2338,-0.403755,0.0,0.0
698,174.25,39.9621,40.1213,164.432,98.4244,103.935,0.000728224,0.043024,20.9463,36.2338,-0.457528,0.0,0.0
700,174.75,39.9722,40.0435,163.203,98.3978,104.731,0.000728727,0.043041,20.9466,36.2438,-0.523948,0.0,0.0
702,175.25,39.5018,39.7824,168.988,98.4059,104.333,0.00071182,0.0430548,20.9468,36.2438,-0.49124,0.0,0.0
704,175.75,40.2206,40.119,167.5,98.3911,103.764,0.000698126,0.0430737,20.947,36.2538,-0.446553,0.0,0.0
706,176.25,40.1542,39.9328,163.025,98.3922,104.105,0.000687033,0.0430959,20.9472,36.2538,-0.474057,0.0,0.0
708,176.75,40.0339,40.2158,165.707,98.3564,104.788,0.000670631,0.043114,20.9473,36.2338,-0.532041,0.0,0.0
710,177.25,39.7354,40.0084,167.886,98.3439,106.553,0.000657345,0.0431131,20.9474,36.2438,-0.673367,0.0,0.0
712,177.75,40.1845,40.4483,170.279,98.318,105.244,0.000644111,0.0430985,20.9475,36.2438,-0.571741,0.0,0.0
714,178.25,39.8972,40.4309,163.23,98.328,102.967,0.000633391,0.0430789,20.9475,36.2338,-0.387193,0.0,0.0
716,178.75,39.8442,40.0762,165.95,98.2937,104.959,0.000621,0.043056,20.9476,36.2238,-0.551078,0.0,0.0
718,179.25,39.5366,39.9204,166.888,98.2867,103.878,0.000610963,0.0430375,20.9476,36.2238,-0.464687,0.0,0.0
720,179.75,39.5704,40.4559,164.585,98.2604,105.471,0.000607777,0.0430225,20.9476,36.2338,-0.594813,0.0,0.0
722,180.25,39.7851,40.152,163.946,98.263,105.187,0.000605197,0.0430259,20.9477,36.2238,-0.571897,0.0,0.0
724,180.75,39.6453,39.2463,165.184,98.2232,103.991,0.000614234,0.0430425,20.9477,36.2338,-0.479315,0.0,0.0
726,181.25,39.7127,39.9326,170.827,98.2124,103.536,0.000621554,0.043055,20.9477,36.2238,-0.443371,0.0,0.0
728,181.75,39.2925,39.6187,164.67,98.1873,103.935,0.000636594,0.0430642,20.9477,36.2138,-0.477779,0.0,0.0
730,182.25,39.7291,39.6108,165.907,98.1962,102.398,0.000656976,0.0430717,20.9477,36.2038,-0.3519,0.0,0.0
732,182.75,39.5561,39.7427,165.59,98.1582,105.813,0.000673486,0.0430336,20.9477,36.2238,-0.630711,0.0,0.0
734,183.25,39.8035,39.8414,163.888,98.1615,102.796,0.000695325,0.0430028,20.9478,36.1938,-0.387487,0.0,0.0
736,183.75,39.8164,40.0879,166.45,98.1179,104.504,0.000720634,0.0429778,20.9472,36.2138,-0.52959,0.0,0.0
738,184.25,39.4787,39.817,166.071,98.1058,104.219,0.000741134,0.0429429,20.9467,36.2038,-0.507728,0.0,0.0
740,184.75,39.9349,39.7423,161.876,98.0747,104.39,0.000756502,0.0429146,20.9463,36.2138,-0.524135,0.0,0.0
742,185.25,39.6124,40.0462,163.081,98.0555,102.113,0.000764391,0.0429211,20.946,36.2138,-0.340563,0.0,0.0
744,185.75,39.666,40.1801,163.933,98.0397,103.65,0.000766678,0.0429263,20.9457,36.2438,-0.467391,0.0,0.0
746,186.25,39.1879,39.5581,162.637,98.0127,103.422,0.000765274,0.0429453,20.9455,36.2138,-0.45123,0.0,0.0
748,186.75,39.7461,40.0509,168.985,97.9828,105.016,0.000761207,0.0429607,20.9453,36.1938,-0.582237,0.0,0.0
750,187.25,39.4808,40.042,162.886,97.9614,103.252,0.000757913,0.0429731,20.9452,36.2238,-0.44175,0.0,0.0
752,187.75,39.903,40.0987,163.094,97.9496,105.187,0.000755245,0.0429391,20.9451,36.2238,-0.598732,0.0,0.0
754,188.25,39.6952,39.4767,162.273,97.9595,103.308,0.000725877,0.0429115,20.9452,36.2038,-0.446537,0.0,0.0
756,188.75,39.2399,39.6025,164.24,97.8909,103.365,0.00070209,0.0428892,20.9454,36.2138,-0.457053,0.0,0.0
758,189.25,39.7411,39.424,161.697,97.8876,103.422,0.000660577,0.0428711,20.9456,36.2038,-0.461962,0.0,0.0
760,189.75,38.9042,39.6083,161.708,97.8536,102.227,0.000626952,0.0428409,20.9457,36.1938,-0.367238,0.0,0.0
762,190.25,39.1836,39.352,164.067,97.8396,101.829,0.000599716,0.0428026,20.9458,36.2138,-0.335641,0.0,0.0
764,190.75,39.2135,39.655,163.163,97.8263,103.707,0.000548017,0.0427715,20.9461,36.1938,-0.490303,0.0,0.0
766,191.25,39.6785,39.6239,168.672,97.7956,103.195,0.000506141,0.0426875,20.9466,36.2138,-0.451343,0.0,0.0
768,191.75,39.0386,39.6485,164.244,97.8045,104.39,0.000452476,0.0426195,20.947,36.2138,-0.547311,0.0,0.0
770,192.25,39.3544,39.7958,168.298,97.7783,103.195,0.000409008,0.0425721,20.9473,36.2238,-0.452833,0.0,0.0
772,192.75,39.5636,39.0826,167.564,97.727,105.414,0.000361463,0.0425408,20.9475,36.2238,-0.636003,0.0,0.0
774,193.25,39.416,39.3083,164.791,97.7288,102.625,0.000322951,0.0425308,20.9477,36.2338,-0.410629,0.0,0.0
776,193.75,39.5006,39.9222,164.756,97.696,102.512,0.000284357,0.0425367,20.9479,36.2338,-0.40413,0.0,0.0
778,194.25,39.7897,39.233,166.076,97.6727,104.504,0.000253096,0.0425414,20.948,36.2338,-0.567791,0.0,0.0
780,194.75,38.9671,39.3192,170.8,97.6391,103.991,0.000230371,0.0425306,20.9481,36.2438,-0.529407,0.0,0.0
782,195.25,39.0399,39.6209,168.805,97.6428,103.308,0.0002143,0.042514,20.9482,36.2438,-0.47374,0.0,0.0
784,195.75,38.8958,39.3737,166.428,97.5889,102.682,0.000207125,0.0424937,20.9483,36.2438,-0.427319,0.0,0.0
786,196.25,39.2361,39.1921,170.344,97.5867,103.252,0.000206572,0.0424772,20.9483,36.2338,-0.47394,0.0,0.0
788,196.75,38.756,38.97,167.356,97.5656,102.91,0.000206123,0.0424344,20.9484,36.2338,-0.447924,0.0,0.0
790,197.25,39.1485,38.8177,165.924,97.5461,102.682,0.00023538,0.0423998,20.9484,36.2238,-0.431006,0.0,0.0
792,197.75,38.7499,39.0215,167.679,97.501,102.341,0.000259077,0.0424027,20.9484,36.2238,-0.406903,0.0,0.0
794,198.25,39.3192,38.5817,167.648,97.4914,102.455,0.000302973,0.0424329,20.9485,36.2138,-0.417068,0.0,0.0
796,198.75,38.5977,39.1046,165.952,97.4719,101.658,0.000338529,0.0424651,20.9485,36.2238,-0.353172,0.0,0.0
798,199.25,38.498,39.1324,162.44,97.4298,103.024,0.000384629,0.0424982,20.9485,36.2138,-0.468914,0.0,0.0
800,199.75,38.9001,39.4675,163.499,97.4194,103.365,0.000421971,0.0425095,20.9485,36.2138,-0.497602,0.0,0.0
802,200.25,38.9211,38.9013,165.33,97.3799,101.999,0.000458398,0.0425047,20.9485,36.2138,-0.389266,0.0,0.0
804,200.75,39.0738,39.3044,169.599,97.3666,102.227,0.000487904,0.0424931,20.9485,36.1838,-0.409139,0.0,0.0
806,201.25,39.3618,39.0022,166.892,97.3456,102.398,0.00051701,0.0424767,20.9485,36.2138,-0.424974,0.0,0.0
808,201.75,38.6466,39.1581,166.522,97.3164,102.113,0.000545271,0.0424557,20.9485,36.2038,-0.404114,0.0,0.0
810,202.25,38.9746,39.36,165.925,97.2961,103.195,0.000570766,0.0424317,20.9486,36.2038,-0.494353,0.0,0.0
812,202.75,38.8895,38.586,169.316,97.261,102.17,0.00059376,0.0424123,20.9486,36.1938,-0.413575,0.0,0.0
814,203.25,38.9567,38.6895,170.373,97.2308,102.113,0.000612386,0.0424113,20.9486,36.1938,-0.411509,0.0,0.0
816,203.75,38.9297,39.136,164.849,97.2186,102.284,0.00062552,0.0424105,20.9486,36.1938,-0.426596,0.0,0.0
818,204.25,38.3836,39.1106,168.41,97.1802,102.056,0.000634401,0.0424175,20.9486,36.2038,-0.411198,0.0,0.0
820,204.75,38.5153,38.8766,164.355,97.1584,103.308,0.000641595,0.0424302,20.9486,36.2038,-0.51551,0.0,0.0
822,205.25,38.7246,39.0266,163.076,97.1112,103.707,0.000643711,0.0424405,20.949,36.1838,-0.551928,0.0,0.0
824,205.75,38.6156,39.036,167.214,97.0945,102.853,0.000645426,0.0424488,20.9494,36.1738,-0.48393,0.0,0.0
826,206.25,38.6807,38.7945,166.248,97.0694,101.146,0.000646814,0.0424555,20.9496,36.1637,-0.345487,0.0,0.0
828,206.75,38.3716,38.6372,165.078,97.0462,104.674,0.000645337,0.0424169,20.9499,36.1637,-0.635553,0.0,0.0
830,207.25,38.6727,38.7896,163.108,97.0218,102.91,0.000641797,0.0423856,20.9501,36.1838,-0.494871,0.0,0.0
832,207.75,38.2004,39.1309,164.307,97.0045,102.739,0.00063893,0.0423602,20.9502,36.2038,-0.482425,0.0,0.0
834,208.25,38.8219,39.2467,169.3,96.9986,102.227,0.000627954,0.0423397,20.9503,36.2138,-0.440952,0.0,0.0
836,208.75,38.5301,38.7198,169.103,96.9517,102.625,0.000619064,0.042323,20.9504,36.2038,-0.477685,0.0,0.0
838,209.25,38.6869,39.0071,167.422,96.9291,101.544,0.000618043,0.0423096,20.9505,36.2038,-0.390657,0.0,0.0
840,209.75,38.512,39.1767,164.935,96.9044,102.056,0.000617217,0.0422986,20.9506,36.2038,-0.435067,0.0,0.0
842,210.25,38.4348,38.9403,164.298,96.8693,102.853,0.000616547,0.0422821,20.9506,36.2038,-0.503434,0.0,0.0
844,210.75,38.6411,38.7321,165.292,96.8494,102.455,0.000616005,0.0422616,20.9507,36.2138,-0.472563,0.0,0.0
846,211.25,38.4941,38.9251,164.192,96.8247,102.056,0.000646485,0.0422451,20.9505,36.2038,-0.441982,0.0,0.0
848,211.75,38.7693,38.4702,165.572,96.8228,102.284,0.000671174,0.0422759,20.9501,36.1938,-0.460858,0.0,0.0
850,212.25,38.5444,39.1909,169.069,96.7933,102.398,0.000708498,0.0423008,20.9498,36.1938,-0.472764,0.0,0.0
852,212.75,38.5274,38.8219,165.913,96.7874,102.17,0.00073873,0.0423442,20.9496,36.1938,-0.45458,0.0,0.0