File: 01_Data/Polyisocyanurate_Spray_Foam_Insulation/Cone/Polyisocyanurate_Spray_Foam_Insulation_Cone_HF75Scan_241113_R2.csv
Names,Time,Stack TC,Smoke TC,Exh Press,Smoke Comp,Smoke Meas,CO Meter,CO2 Meter,O2 Meter,Sample Mass,Ext Coeff,Start Test,Flame Verif
Chan Gain,,500,500,1,1,1,1,1,1,1,1,1.0,1.0
Offset,,0,0,0.138019,0,0,0,0,0,0,0,0.0,0.0
Gain,,1,1,25.011,12.4314,2004.68,1,1,1,1.00093,0.957506,1.0,1.0
Units,sec,C,C,Pa,%,%,%,%,%,g,/m,,
Baseline,,54.6443,56.4743,158.974,98.7977,99.2179,0.000239213,0.0414949,20.9507,-445.296,-0.0351932,,
2,0.25,52.9154,55.0884,169.791,100.196,100.76,0.000635559,0.0492274,20.9445,43.2804,-0.0471845,0.0,0.0
4,0.75,52.6036,54.3482,151.999,100.177,81.5503,0.000617804,0.0493285,20.9442,43.2003,1.72785,0.0,0.0
6,1.25,52.8417,54.9902,143.384,100.048,60.505,0.000604723,0.0493661,20.944,43.0802,4.22418,0.0,1.0
8,1.75,53.3562,55.7519,132.59,100.05,52.6131,0.000595298,0.0493966,20.9443,43.0802,5.39823,0.0,1.0
10,2.25,54.0183,56.272,133.725,100.234,54.2037,0.000591568,0.0493771,20.9445,42.7299,5.16346,0.0,1.0
12,2.75,55.0051,58.2586,127.433,100.236,45.8223,0.000592059,0.049307,20.9447,42.6698,6.57447,0.0,1.0
14,3.25,56.5422,59.9581,127.277,100.263,40.9893,0.000592457,0.0492013,20.9449,42.4496,7.51294,0.0,1.0
16,3.75,57.7588,62.4772,116.22,100.265,43.4364,0.000597723,0.0491158,20.945,42.2394,7.02608,0.0,1.0
18,4.25,59.0728,64.2315,121.705,100.279,41.3563,0.000601989,0.0489921,20.9451,42.0192,7.43942,0.0,1.0
20,4.75,60.6711,66.2751,119.586,100.281,40.6834,0.000602842,0.0488431,20.9452,41.8491,7.57734,0.0,1.0
22,5.25,62.4259,68.5862,124.176,100.3,42.5187,0.000601191,0.0487224,20.9448,41.749,7.20839,0.0,1.0
24,5.75,63.022,70.0269,120.918,100.305,42.0905,0.000599854,0.0486394,20.9445,41.4387,7.29382,0.0,1.0
26,6.25,64.0298,72.2352,131.754,100.316,40.1328,0.000606188,0.0485722,20.9443,41.3086,7.69472,0.0,1.0
28,6.75,65.6431,73.7466,116.979,100.31,34.0761,0.000611319,0.0486061,20.9441,41.0783,9.06834,0.0,1.0
30,7.25,67.2102,75.8949,122.007,100.349,36.2174,0.000645158,0.0486336,20.9437,40.9182,8.55972,0.0,1.0
32,7.75,68.5465,77.5748,111.519,100.32,37.5633,0.000672569,0.0502501,20.9431,40.688,8.25081,0.0,1.0
34,8.25,69.6363,79.6959,116.718,100.356,36.4621,0.000863437,0.0515595,20.9427,40.5478,8.50377,0.0,1.0
36,8.75,71.1385,81.5213,121.93,100.365,36.095,0.00101804,0.0622415,20.9424,40.2476,8.58945,0.0,1.0
38,9.25,72.2108,83.2113,122.046,100.366,34.382,0.00139719,0.0667953,20.9422,40.2075,8.99795,0.0,0.0
40,9.75,73.7403,85.2575,122.092,100.371,39.2151,0.00204553,0.0880576,20.9416,40.0073,7.89367,0.0,0.0
42,10.25,74.8774,87.2837,114.179,100.395,36.5844,0.00408494,0.12992,20.9408,39.9373,8.4789,0.0,0.0
44,10.75,76.1319,88.2201,120.645,100.381,36.2785,0.00483654,0.141181,20.938,39.697,8.54825,0.0,0.0
46,11.25,77.2138,90.1431,112.873,100.39,40.0716,0.00612178,0.185315,20.9333,39.5569,7.71375,0.0,0.0
48,11.75,78.5196,91.8419,120.501,100.398,36.7068,0.00914916,0.243452,20.9296,39.3868,8.45108,0.0,0.0
50,12.25,79.6957,93.296,117.625,100.416,38.5421,0.013389,0.313653,20.899,39.1666,8.04283,0.0,0.0
52,12.75,80.6772,94.929,121.551,100.414,37.6245,0.0184194,0.391313,20.8743,38.9864,8.24501,0.0,0.0
54,13.25,81.4081,96.1641,108.695,100.43,36.3397,0.0239303,0.454218,20.8022,38.8663,8.53816,0.0,0.0
56,13.75,82.5353,97.2952,127.389,100.434,34.9326,0.0283942,0.534279,20.7439,38.7061,8.87022,0.0,0.0
58,14.25,83.8276,99.0111,118.593,100.45,35.2997,0.0357091,0.599129,20.6966,38.526,8.78372,0.0,0.0
60,14.75,84.7082,100.388,120.715,100.45,34.382,0.0416342,0.651657,20.6184,38.3558,9.00499,0.0,0.0
62,15.25,85.6954,101.522,120.697,100.465,33.6479,0.0464335,0.722498,20.5191,38.1556,9.18752,0.0,0.0
64,15.75,86.1556,102.384,116.95,100.471,32.669,0.0538711,0.77988,20.4052,37.9654,9.43602,0.0,0.0
66,16.25,87.0268,103.261,124.623,100.5,35.055,0.0598955,0.837919,20.2828,37.8453,8.84634,0.0,0.0
68,16.75,87.5564,104.575,113.57,100.49,37.0739,0.0664453,0.88493,20.166,37.6852,8.37524,0.0,0.0
70,17.25,88.2015,105.67,127.47,100.519,35.4221,0.0717506,0.93162,20.0555,37.525,8.76047,0.0,0.0
72,17.75,89.1918,106.25,111.54,100.513,36.2785,0.0772542,0.969439,19.9508,37.3348,8.55929,0.0,0.0
74,18.25,89.8352,107.597,112.731,100.549,36.4009,0.0817122,1.0037,19.8524,37.1447,8.53402,0.0,0.0
76,18.75,90.0518,108.395,130.101,100.531,37.2574,0.0858521,1.03471,19.7727,36.9945,8.33719,0.0,0.0
78,19.25,91.2773,109.819,131.951,100.547,36.5844,0.0896816,1.05982,19.6881,36.9145,8.49162,0.0,0.0
80,19.75,91.9155,110.262,124.234,100.572,35.4832,0.0927836,1.08402,19.6195,36.7043,8.75041,0.0,0.0
82,20.25,92.215,111.027,114.299,100.596,38.0527,0.095597,1.10362,19.558,36.5541,8.16517,0.0,0.0
84,20.75,93.2546,111.916,123.291,100.574,37.2574,0.097876,1.1212,19.5029,36.3239,8.34077,0.0,0.0
86,21.25,93.5925,113.044,123.768,100.613,39.7657,0.0997916,1.13543,19.4552,36.1838,7.79679,0.0,0.0
88,21.75,93.8334,113.742,123.439,100.612,36.2174,0.101343,1.14692,19.4139,36.0837,8.5817,0.0,0.0
90,22.25,94.6424,113.967,130.069,100.631,37.808,0.102592,1.15619,19.3787,35.9636,8.2223,0.0,0.0
92,22.75,95.1555,114.808,111.579,100.615,35.4832,0.103604,1.16213,19.3486,35.7233,8.75396,0.0,0.0
94,23.25,95.8561,115.787,123.467,100.641,36.1562,0.104407,1.16551,19.3242,35.5732,8.59834,0.0,0.0
96,23.75,96.2047,116.178,113.47,100.631,34.0761,0.105056,1.16587,19.3045,35.393,9.09517,0.0,0.0
98,24.25,96.7505,117.187,124.619,100.652,33.0973,0.105567,1.16401,19.2885,35.2529,9.34168,0.0,0.0
100,24.75,97.6868,118.017,122.059,100.653,34.2597,0.105965,1.1625,19.2755,35.1028,9.05186,0.0,0.0
102,25.25,98.1504,118.814,121.714,100.68,34.6879,0.106288,1.15869,19.265,34.8926,8.94977,0.0,0.0
104,25.75,98.4633,119.344,113.377,100.679,35.3609,0.106455,1.15326,19.2565,34.7224,8.78835,0.0,0.0
106,26.25,99.656,120.515,122.6,100.701,33.1585,0.106504,1.14887,19.2562,34.5522,9.33026,0.0,0.0
108,26.75,99.7333,120.969,124.916,100.684,30.8949,0.106544,1.1421,19.2559,34.3721,9.92278,0.0,0.0
110,27.25,100.1,122.116,122.246,100.706,33.1585,0.106319,1.13662,19.2589,34.1319,9.33067,0.0,0.0
112,27.75,100.965,122.733,121.328,100.697,33.4644,0.106136,1.13002,19.2642,34.0318,9.25284,0.0,0.0
114,28.25,101.434,123.69,114.759,100.715,33.2196,0.105669,1.12468,19.2708,33.8716,9.31598,0.0,0.0
116,28.75,102.074,124.31,120.443,100.714,31.3231,0.10529,1.11857,19.2782,33.7715,9.80966,0.0,0.0
118,29.25,102.164,124.451,123.039,100.739,28.9984,0.104973,1.11596,19.2846,33.5813,10.4594,0.0,0.0
120,29.75,102.819,125.454,125.577,100.742,30.0384,0.104432,1.11065,19.2955,33.3111,10.1638,0.0,0.0
122,30.25,103.005,125.835,129.519,100.753,30.0996,0.103762,1.10558,19.3052,33.191,10.1475,0.0,0.0
124,30.75,103.963,126.646,116.689,100.74,32.0573,0.10322,1.10138,19.3139,33.1009,9.61725,0.0,0.0
126,31.25,103.998,126.814,128.376,100.765,29.8549,0.102645,1.09788,19.321,32.9107,10.2171,0.0,0.0
128,31.75,104.604,127.552,129.669,100.764,31.5678,0.10218,1.09505,19.3293,32.8106,9.74844,0.0,0.0
130,32.25,105.174,127.943,114.524,100.784,27.5913,0.101803,1.09541,19.3361,32.6605,10.881,0.0,0.0
132,32.75,105.443,128.371,121.503,100.781,31.1396,0.101579,1.09569,19.3416,32.6004,9.86455,0.0,0.0
134,33.25,105.813,128.379,132.387,100.795,26.0618,0.101397,1.09795,19.346,32.4303,11.3608,0.0,0.0
136,33.75,105.999,128.646,131.091,100.789,30.1607,0.101458,1.10159,19.3496,32.3802,10.1335,0.0,0.0
138,34.25,105.501,128.561,131.537,100.812,28.6925,0.101507,1.10643,19.3525,32.3102,10.5546,0.0,0.0
140,34.75,105.617,128.042,131.61,100.814,32.5467,0.101732,1.11203,19.3548,32.2701,9.49609,0.0,0.0
142,35.25,104.957,127.29,139.471,100.824,40.6834,0.102081,1.11657,19.3519,32.2401,7.62272,0.0,0.0
144,35.75,105.081,127.201,142.838,100.827,43.6811,0.102502,1.12252,19.3496,32.2201,7.0258,0.0,0.0
146,36.25,104.298,126.042,136.082,100.838,51.0224,0.102968,1.12734,19.3436,32.17,5.72193,0.0,0.0
148,36.75,103.682,125.199,144.765,100.858,62.218,0.103346,1.13161,19.335,32.1,4.05742,0.0,0.0
150,37.25,103.293,124.85,142.869,100.841,66.5005,0.103831,1.13506,19.328,32.11,3.49688,0.0,0.0
152,37.75,102.84,123.612,145.174,100.853,75.0654,0.104224,1.13786,19.3184,32.0699,2.48033,0.0,0.0
154,38.25,102.302,122.703,148.446,100.86,77.696,0.104542,1.13827,19.3107,32.12,2.19162,0.0,0.0
156,38.75,101.508,121.383,145.819,100.867,82.5291,0.104708,1.1386,19.3044,32.11,1.68532,0.0,0.0
158,39.25,100.27,120.321,149.124,100.851,83.5079,0.104843,1.137,19.2993,32.09,1.58496,0.0,0.0
160,39.75,99.7023,119.527,149.543,100.864,85.7104,0.104952,1.13402,19.2951,32.09,1.36739,0.0,0.0
162,40.25,99.0029,118.421,149.752,100.877,87.301,0.104402,1.1316,19.2918,32.0699,1.21405,0.0,0.0
164,40.75,98.2853,117.201,152.045,100.864,89.0751,0.103956,1.11944,19.2891,32.0799,1.04394,0.0,0.0
166,41.25,97.7602,116.346,150.539,100.876,92.2564,0.102541,1.10959,19.288,32.0499,0.750241,0.0,0.0
168,41.75,96.8687,114.989,150.362,100.887,91.5834,0.101395,1.08527,19.2882,32.0599,0.812617,0.0,0.0
170,42.25,95.9759,114.019,153.838,100.891,92.5011,0.0995778,1.06557,19.2883,32.0699,0.729254,0.0,0.0
172,42.75,95.2882,113.193,155.087,100.907,92.6846,0.0973061,1.03673,19.2945,32.0499,0.713932,0.0,0.0
174,43.25,94.4179,111.812,150.933,100.894,92.0117,0.0936666,1.00178,19.3101,32.0599,0.774002,0.0,0.0
176,43.75,94.1259,111.255,153.205,100.916,93.3576,0.0907186,0.960881,19.3322,32.0799,0.653863,0.0,0.0
178,44.25,93.4848,109.921,149.556,100.897,94.2141,0.0862185,0.916421,19.3676,32.0699,0.575579,0.0,0.0
180,44.75,92.6296,108.825,148.654,100.919,94.2141,0.0825735,0.868927,19.4119,32.0499,0.577411,0.0,0.0
182,45.25,91.8918,108.256,153.257,100.907,93.5411,0.0782786,0.820123,19.468,32.0599,0.636641,0.0,0.0
184,45.75,90.9386,106.778,154.867,100.917,94.2141,0.0735916,0.780592,19.5317,32.0599,0.577285,0.0,0.0
186,46.25,89.8481,105.511,156.424,100.93,95.6824,0.0697952,0.720065,19.5832,32.0299,0.448439,0.0,0.0
188,46.75,88.7883,104.385,154.431,100.925,96.6,0.0651571,0.671038,19.6249,32.0299,0.367889,0.0,0.0
190,47.25,88.6745,103.789,153.565,100.93,96.1106,0.0599937,0.621039,19.6923,32.0299,0.410963,0.0,0.0
192,47.75,87.6877,102.661,153.908,100.912,95.4377,0.0548435,0.571281,19.7469,32.0499,0.468464,0.0,0.0
194,48.25,87.2455,101.935,156.241,100.926,96.5389,0.0498009,0.524225,19.8238,32.0599,0.373243,0.0,0.0
196,48.75,86.8882,101.034,151.178,100.938,95.6824,0.0476511,0.500965,19.8861,32.0799,0.449103,0.0,0.0
198,49.25,86.2119,100.142,150.844,100.917,96.8447,0.0425004,0.461193,19.931,32.0499,0.345945,0.0,0.0
200,49.75,85.5145,99.6005,155.755,100.932,96.0494,0.0383282,0.41867,20.0078,32.0199,0.416468,0.0,0.0
202,50.25,85.2461,98.848,152.476,100.932,95.3153,0.033981,0.384226,20.0874,32.0199,0.480912,0.0,0.0
204,50.75,84.7777,97.5438,151.452,100.947,94.4588,0.0304596,0.352455,20.1676,31.9999,0.557991,0.0,0.0
206,51.25,84.5693,97.5776,150.688,100.921,95.6212,0.0269627,0.323234,20.2424,32.0699,0.453118,0.0,0.0
208,51.75,83.5634,96.184,152.371,100.956,96.1718,0.0241302,0.296584,20.3119,32.11,0.407764,0.0,0.0
210,52.25,83.2581,96.077,153.446,100.926,95.7435,0.0218359,0.272314,20.3682,32.12,0.442755,0.0,0.0
212,52.75,83.3023,95.6123,156.246,100.935,97.4565,0.0195767,0.252655,20.4278,32.09,0.294569,0.0,0.0
214,53.25,82.1294,94.5422,155.806,100.927,96.1718,0.0177467,0.23179,20.476,32.0499,0.405365,0.0,0.0
216,53.75,81.9143,94.2321,153.535,100.942,96.1718,0.0161583,0.214889,20.5151,32.0599,0.406564,0.0,0.0
218,54.25,81.3545,93.2847,152.543,100.923,95.6824,0.0147763,0.199747,20.5576,32.0199,0.447903,0.0,0.0
220,54.75,81.2305,92.7036,153.784,100.952,95.2541,0.0136346,0.186177,20.5921,32.0199,0.487947,0.0,0.0
222,55.25,80.5515,91.9247,153.987,100.908,95.3153,0.0126896,0.175184,20.6283,32.0099,0.478892,0.0,0.0
224,55.75,80.3153,91.6025,160.033,100.946,96.3553,0.0119242,0.16462,20.6576,31.9999,0.390898,0.0,0.0
226,56.25,79.9674,90.6425,157.187,100.927,95.0094,0.0112784,0.156063,20.6843,31.9698,0.507501,0.0,0.0
228,56.75,79.9682,90.1504,150.493,100.942,95.9883,0.0107554,0.148464,20.7086,31.9798,0.422641,0.0,0.0
230,57.25,79.3652,89.7057,149.231,100.918,95.9271,0.010324,0.142309,20.7306,31.9698,0.426039,0.0,0.0
232,57.75,78.6464,89.0341,157.383,100.933,95.4377,0.0099746,0.137235,20.7505,31.9698,0.470232,0.0,0.0
234,58.25,78.2023,88.6176,154.185,100.937,95.6212,0.00968751,0.133047,20.7667,31.9899,0.454443,0.0,0.0
236,58.75,78.423,87.7816,149.812,100.939,96.3553,0.00945132,0.129765,20.7814,31.9798,0.390331,0.0,0.0
238,59.25,77.6382,87.6855,151.768,100.924,96.9059,0.00925121,0.127208,20.7934,31.9498,0.34124,0.0,0.0
240,59.75,77.538,87.4976,158.13,100.935,95.9271,0.0090812,0.125137,20.8044,31.9398,0.427428,0.0,0.0
242,60.25,77.4768,86.5592,150.707,100.923,96.5389,0.0089435,0.123718,20.8134,31.9398,0.373022,0.0,0.0
244,60.75,76.5161,86.4434,154.516,100.928,95.6824,0.00881911,0.122568,20.8206,31.9298,0.448313,0.0,0.0
246,61.25,77.09,86.1852,152.327,100.898,94.2141,0.0087068,0.121636,20.8264,31.9298,0.575674,0.0,0.0
248,61.75,76.673,85.6843,158.546,100.923,95.3765,0.00861582,0.120922,20.8312,31.8898,0.474766,0.0,0.0
250,62.25,76.3348,84.9304,153.996,100.924,94.6423,0.00852159,0.120379,20.835,31.9098,0.539793,0.0,0.0
252,62.75,76.0652,84.5999,153.231,100.923,96.1106,0.00844526,0.119835,20.838,31.8798,0.410332,0.0,0.0
254,63.25,75.2959,84.1735,152.546,100.905,96.233,0.0083706,0.119302,20.8404,31.8898,0.398161,0.0,0.0
256,63.75,75.8009,83.7727,156.548,100.919,98.1295,0.00829858,0.118869,20.8424,31.8798,0.235444,0.0,0.0
258,64.25,74.9217,83.3072,153.779,100.894,96.3553,0.00822742,0.118474,20.844,31.8798,0.386605,0.0,0.0
260,64.75,74.4655,83.7394,152.452,100.897,96.233,0.00815824,0.118153,20.8457,31.8697,0.397529,0.0,0.0
262,65.25,74.6466,82.5308,152.357,100.879,98.3742,0.0081022,0.117772,20.8471,31.8497,0.211177,0.0,0.0
264,65.75,74.7553,82.3516,155.478,100.906,96.5389,0.00802734,0.117463,20.8482,31.8197,0.371633,0.0,0.0
266,66.25,74.1812,82.4223,153.223,100.867,97.2118,0.0079667,0.117078,20.8491,31.8297,0.31,0.0,0.0
268,66.75,74.0483,81.4923,152.367,100.878,96.7836,0.00787533,0.116643,20.8501,31.8197,0.348,0.0,0.0
270,67.25,73.6909,81.4988,152.548,100.865,97.4565,0.00780132,0.116291,20.8511,31.8297,0.288695,0.0,0.0
272,67.75,73.3737,80.8493,152.39,100.879,97.8848,0.00774137,0.115839,20.8519,31.8197,0.253099,0.0,0.0
274,68.25,73.0616,80.951,155.022,100.854,95.8047,0.00765444,0.115473,20.8526,31.8097,0.431357,0.0,0.0
276,68.75,73.3591,80.457,152.312,100.865,95.4988,0.00758403,0.115177,20.8531,31.7997,0.459134,0.0,0.0
278,69.25,73.0782,79.9786,152.797,100.88,97.0895,0.00752061,0.114937,20.854,31.8097,0.321717,0.0,0.0
280,69.75,72.6427,79.9517,153.342,100.859,96.9059,0.00746923,0.11475,20.8551,31.7997,0.335808,0.0,0.0
282,70.25,72.71,79.366,153.643,100.851,96.233,0.00743657,0.114606,20.856,31.7897,0.393708,0.0,0.0
284,70.75,72.1106,79.6184,156.324,100.851,99.5978,0.00741011,0.114482,20.8568,31.7997,0.105048,0.0,0.0
286,71.25,72.4648,79.4544,156.553,100.843,96.4165,0.00740402,0.114374,20.8574,31.7797,0.377009,0.0,0.0
288,71.75,71.6245,78.4605,154.11,100.848,97.3342,0.00739909,0.114254,20.8579,31.7897,0.297888,0.0,0.0
290,72.25,72.0287,78.7663,152.853,100.846,96.8447,0.00740251,0.114129,20.8582,31.7696,0.340039,0.0,0.0
292,72.75,71.5816,78.3192,153.999,100.838,97.4565,0.00741194,0.114027,20.8586,31.7797,0.286483,0.0,0.0
294,73.25,71.7176,78.0123,154.62,100.83,97.1506,0.00742766,0.113945,20.8588,31.7396,0.312255,0.0,0.0
296,73.75,71.4034,77.8549,152.839,100.826,96.6,0.00744766,0.113878,20.859,31.7496,0.359614,0.0,0.0
298,74.25,71.0993,77.3147,157.633,100.811,97.946,0.00746387,0.113784,20.8592,31.7696,0.242132,0.0,0.0
300,74.75,71.4126,77.7345,157.847,100.814,96.5389,0.00747565,0.113672,20.8593,31.7396,0.363924,0.0,0.0
302,75.25,70.6371,77.0115,149.076,100.825,95.6212,0.00748398,0.113454,20.8599,31.7296,0.445094,0.0,0.0
304,75.75,70.2866,76.5224,151.707,100.828,97.8848,0.0074786,0.113163,20.8603,31.7396,0.248834,0.0,0.0
306,76.25,70.5971,76.5493,153.003,100.8,97.273,0.00746334,0.112926,20.8607,31.7196,0.299123,0.0,0.0
308,76.75,70.2863,76.2218,153.033,100.796,97.7624,0.00745098,0.112569,20.861,31.7296,0.256653,0.0,0.0
310,77.25,69.9613,76.3751,151.358,100.812,97.0283,0.00740772,0.112279,20.8612,31.7296,0.321324,0.0,0.0
312,77.75,70.1685,75.9999,153.001,100.784,96.6612,0.00737268,0.112074,20.8614,31.7196,0.350819,0.0,0.0
314,78.25,69.9693,75.8057,154.095,100.794,97.0895,0.00732258,0.111909,20.8618,31.7396,0.31448,0.0,0.0
316,78.75,69.4496,75.4262,154.063,100.776,96.9671,0.007282,0.111911,20.8623,31.7196,0.323618,0.0,0.0
318,79.25,69.325,75.3918,155.316,100.785,97.273,0.00724019,0.111913,20.8627,31.7096,0.297922,0.0,0.0
320,79.75,69.546,74.5368,151.23,100.744,96.7224,0.00720632,0.111929,20.8631,31.6896,0.342153,0.0,0.0
322,80.25,69.4671,74.8279,151.723,100.784,95.3765,0.00719294,0.111942,20.8633,31.6996,0.46317,0.0,0.0
324,80.75,69.033,74.5827,151.692,100.756,95.6212,0.0071821,0.111977,20.8636,31.6796,0.439371,0.0,0.0
326,81.25,68.9868,74.249,151.289,100.768,97.6401,0.00717332,0.112027,20.8637,31.6495,0.264864,0.0,0.0
328,81.75,69.2252,74.2598,150.365,100.75,97.0283,0.00721478,0.112067,20.8639,31.6395,0.316138,0.0,0.0
330,82.25,69.1383,73.4465,150.978,100.76,98.313,0.00724837,0.112039,20.864,31.6595,0.206509,0.0,0.0
332,82.75,69.1097,73.9324,158.101,100.74,96.0494,0.00736201,0.112016,20.8641,31.6796,0.400479,0.0,0.0
334,83.25,68.7216,73.6986,154.854,100.741,94.7647,0.00739258,0.111877,20.8642,31.6495,0.513677,0.0,0.0
336,83.75,68.6573,73.6555,152.394,100.718,98.313,0.00752226,0.111716,20.8643,31.6595,0.20303,0.0,0.0
338,84.25,68.3067,73.621,153.514,100.762,96.233,0.00760501,0.111633,20.8643,31.6195,0.386247,0.0,0.0
340,84.75,68.3348,73.1744,156.609,100.722,95.7435,0.00764029,0.111598,20.8643,31.6095,0.425752,0.0,0.0
342,85.25,68.0536,72.8749,156.626,100.729,96.6612,0.00771074,0.11113,20.8644,31.6095,0.346233,0.0,0.0
344,85.75,68.2481,72.6531,151.456,100.699,96.8447,0.00777692,0.11075,20.8643,31.6195,0.327769,0.0,0.0
346,86.25,68.2528,72.8346,154.507,100.722,95.6824,0.00781973,0.110231,20.8642,31.6195,0.431153,0.0,0.0
348,86.75,67.7566,72.536,150.976,100.687,94.5812,0.00784468,0.109811,20.8644,31.6195,0.525437,0.0,0.0
350,87.25,67.8338,72.582,151.361,100.704,97.273,0.00786489,0.109244,20.8647,31.6195,0.291185,0.0,0.0
352,87.75,68.0198,72.1806,154.765,100.69,97.8848,0.00784664,0.108784,20.865,31.6195,0.237354,0.0,0.0
354,88.25,67.7728,72.272,153.064,100.694,97.8236,0.00783186,0.108325,20.8652,31.6195,0.242922,0.0,0.0
356,88.75,67.6061,72.1662,152.466,100.675,95.6212,0.00779765,0.107874,20.8654,31.6395,0.432569,0.0,0.0
358,89.25,67.6406,71.786,156.124,100.688,96.233,0.00774992,0.107509,20.8664,31.6195,0.380141,0.0,0.0
360,89.75,67.4908,71.6233,155.926,100.63,95.1318,0.00771126,0.107092,20.8672,31.5995,0.471966,0.0,0.0
362,90.25,67.3491,71.9115,153.709,100.665,96.5389,0.00764923,0.106755,20.8679,31.5895,0.351493,0.0,0.0
364,90.75,67.4412,71.4042,148.204,100.639,96.1718,0.00759899,0.106391,20.8684,31.5695,0.381368,0.0,0.0
366,91.25,67.0096,71.226,153.304,100.659,95.8047,0.00754934,0.106096,20.8689,31.5695,0.415166,0.0,0.0
368,91.75,67.4234,71.4646,153.732,100.644,95.2541,0.00750913,0.105707,20.8692,31.5795,0.46231,0.0,0.0
370,92.25,66.818,71.3686,155.517,100.658,96.4777,0.0074919,0.105391,20.8695,31.5795,0.356247,0.0,0.0
372,92.75,66.865,71.1927,151.443,100.624,97.3342,0.00748456,0.105153,20.8696,31.5795,0.279161,0.0,0.0
374,93.25,66.6635,70.909,154.827,100.633,95.8659,0.00750016,0.104747,20.8701,31.5895,0.407651,0.0,0.0
376,93.75,66.5612,70.9796,156.673,100.596,97.3953,0.00751279,0.10437,20.8706,31.5895,0.271541,0.0,0.0
378,94.25,66.842,70.6622,152.888,100.614,95.3765,0.00754459,0.104022,20.8711,31.5795,0.448994,0.0,0.0
380,94.75,66.51,70.4783,156.737,100.582,97.946,0.00758977,0.10374,20.8715,31.5595,0.223082,0.0,0.0
382,95.25,66.5903,70.4477,152.893,100.604,96.6612,0.00762636,0.10348,20.8718,31.5394,0.335756,0.0,0.0
384,95.75,66.1892,70.3505,149.434,100.572,97.3953,0.00767962,0.103241,20.872,31.5494,0.269577,0.0,0.0
386,96.25,66.3203,70.3219,156.363,100.591,98.1295,0.00774401,0.103047,20.8722,31.5294,0.208088,0.0,0.0
388,96.75,66.249,69.7824,152.733,100.558,95.56,0.00779618,0.102799,20.8724,31.5294,0.428159,0.0,0.0
390,97.25,66.1102,69.895,154.67,100.557,96.0494,0.00789122,0.102514,20.873,31.5294,0.385218,0.0,0.0
392,97.75,66.039,69.7293,153.912,100.562,96.1718,0.00791678,0.102397,20.8732,31.5194,0.374906,0.0,0.0
394,98.25,66.1537,69.8201,154.178,100.545,95.1318,0.00799013,0.102113,20.8738,31.5194,0.464838,0.0,0.0
396,98.75,65.6412,69.6132,154.386,100.547,98.6801,0.00800986,0.102005,20.8739,31.5194,0.157385,0.0,0.0
398,99.25,66.2247,69.2454,156.767,100.532,96.9059,0.00804488,0.10182,20.8742,31.5094,0.308531,0.0,0.0
400,99.75,65.587,69.4913,159.39,100.519,97.3342,0.00807325,0.101614,20.8744,31.5094,0.270416,0.0,0.0
402,100.25,65.6913,69.3854,156.724,100.529,96.1106,0.00810393,0.101398,20.8746,31.4894,0.377494,0.0,0.0
404,100.75,65.4361,69.066,161.421,100.504,95.3153,0.00812879,0.101152,20.8747,31.5094,0.445226,0.0,0.0
406,101.25,65.2643,69.199,156.853,100.505,95.6212,0.00815365,0.100888,20.8751,31.5094,0.41841,0.0,0.0
408,101.75,65.1149,69.059,158.378,100.507,95.1318,0.00817805,0.100674,20.8756,31.4994,0.461636,0.0,0.0
410,102.25,65.2541,68.8283,153.819,100.49,96.233,0.00819781,0.10026,20.876,31.4894,0.363575,0.0,0.0
412,102.75,65.035,68.7516,154.949,100.497,95.6824,0.00822281,0.0999251,20.8763,31.5094,0.412372,0.0,0.0
414,103.25,65.1777,68.7465,154.335,100.478,94.52,0.00824306,0.0994952,20.8765,31.4894,0.513416,0.0,0.0
416,103.75,65.0844,68.7803,154.07,100.47,93.9082,0.00825946,0.0990046,20.8772,31.4894,0.567321,0.0,0.0
418,104.25,65.2847,68.1846,156.318,100.47,95.9883,0.00827275,0.0984964,20.8782,31.4694,0.383311,0.0,0.0
420,104.75,65.3364,68.4772,149.21,100.457,99.7201,0.00828147,0.0979851,20.8789,31.4694,0.0618747,0.0,0.0
422,105.25,65.0631,68.4352,152.153,100.445,96.9671,0.00828669,0.0975709,20.8796,31.4794,0.295969,0.0,0.0
424,105.75,65.4919,68.4167,151.728,100.446,96.6,0.00829227,0.0970231,20.8801,31.4794,0.327888,0.0,0.0
426,106.25,64.5973,67.8894,155.021,100.407,96.0494,0.008298,0.0965793,20.8807,31.4694,0.372661,0.0,0.0
428,106.75,64.8322,68.0125,156.528,100.426,97.7624,0.00830265,0.0960847,20.8813,31.4393,0.225774,0.0,0.0
430,107.25,64.4626,67.7873,156.461,100.413,97.5789,0.00831155,0.0956841,20.8818,31.4293,0.240478,0.0,0.0
432,107.75,64.6267,67.2971,154.719,100.409,95.8047,0.00831876,0.0953596,20.8823,31.4293,0.394278,0.0,0.0
434,108.25,64.3192,67.6694,153.471,100.4,96.4165,0.0083246,0.0948116,20.883,31.3993,0.34002,0.0,0.0
436,108.75,63.9207,67.9052,152.984,100.401,94.3364,0.00831392,0.0943677,20.8837,31.4293,0.523269,0.0,0.0
438,109.25,64.1409,67.8273,151.584,100.398,93.1741,0.00830526,0.0938897,20.8843,31.4293,0.627148,0.0,0.0
440,109.75,64.2241,67.4739,153.49,100.383,92.6846,0.00829825,0.093396,20.8848,31.4193,0.670178,0.0,0.0
442,110.25,63.9267,67.3651,150.878,100.372,93.6635,0.00825534,0.0929961,20.8851,31.4193,0.580986,0.0,0.0
444,110.75,64.2714,67.0016,155.396,100.38,94.1529,0.00822059,0.0924773,20.8855,31.3993,0.537879,0.0,0.0
446,111.25,64.3751,67.484,153.719,100.374,92.134,0.00816934,0.092057,20.8857,31.4093,0.71943,0.0,0.0
448,111.75,64.2566,67.3154,155.404,100.369,95.8047,0.00812783,0.0915826,20.8864,31.4193,0.390945,0.0,0.0
450,112.25,63.5697,67.1912,151.32,100.349,95.6212,0.00807498,0.0910776,20.8871,31.4093,0.405338,0.0,0.0
452,112.75,63.9948,67.0676,156.289,100.346,94.7647,0.00803216,0.0905504,20.8879,31.4093,0.480623,0.0,0.0
454,113.25,64.2078,67.3587,152.528,100.336,94.7035,0.00798467,0.0900169,20.8886,31.4193,0.485284,0.0,0.0
456,113.75,64.2813,67.0249,159.461,100.33,94.3364,0.0079462,0.0895139,20.8891,31.3993,0.517331,0.0,0.0
458,114.25,63.3238,66.7048,155.947,100.33,94.1529,0.00790479,0.0890426,20.8898,31.4193,0.53372,0.0,0.0
460,114.75,63.9163,66.56,155.802,100.327,96.9059,0.00787124,0.0886057,20.8905,31.4093,0.291429,0.0,0.0
462,115.25,63.9945,66.2516,152.547,100.32,94.6423,0.00783937,0.0882023,20.8911,31.3993,0.489378,0.0,0.0
464,115.75,63.7587,66.5049,154.951,100.314,94.2753,0.00782355,0.0880303,20.8916,31.3893,0.521509,0.0,0.0
466,116.25,63.5169,66.4531,157.918,100.293,95.4988,0.00779651,0.0876585,20.8924,31.3893,0.411391,0.0,0.0
468,116.75,63.8151,66.6515,150.653,100.311,94.6423,0.0077746,0.0872874,20.8931,31.3893,0.488584,0.0,0.0
470,117.25,63.8271,66.5185,159.774,100.297,95.0094,0.00776582,0.0869869,20.8938,31.3493,0.454927,0.0,0.0
472,117.75,63.5695,66.5365,154.389,100.327,94.2753,0.00777086,0.086549,20.8944,31.3593,0.522525,0.0,0.0
474,118.25,63.9953,66.3634,155.346,100.336,94.7647,0.00778586,0.0861944,20.8949,31.3392,0.479797,0.0,0.0
476,118.75,63.6378,65.9267,155.463,100.385,94.3364,0.00779801,0.0857875,20.8952,31.3793,0.521935,0.0,0.0
478,119.25,63.2352,66.2031,156.759,100.375,94.2753,0.00782135,0.0854579,20.8958,31.3493,0.526558,0.0,0.0
480,119.75,63.4969,65.9533,152.174,100.421,93.6635,0.0078524,0.0851438,20.8964,31.3593,0.585113,0.0,0.0
482,120.25,63.0904,66.1593,156.572,100.419,94.2753,0.00788363,0.0848468,20.8969,31.3593,0.53024,0.0,0.0
484,120.75,63.4112,66.0352,157.307,100.432,93.847,0.0079144,0.084567,20.8974,31.3593,0.569623,0.0,0.0
486,121.25,63.227,65.7966,154.479,100.448,94.3976,0.00794405,0.0843049,20.8977,31.3593,0.521789,0.0,0.0
488,121.75,63.4095,65.8631,151.043,100.492,93.5411,0.00797232,0.0840219,20.898,31.3493,0.602056,0.0,0.0
490,122.25,63.6146,65.542,150.052,100.482,95.3765,0.00800265,0.0837289,20.8982,31.3593,0.438029,0.0,0.0
492,122.75,63.1903,65.8147,160.632,100.536,94.0917,0.00803391,0.0834917,20.8984,31.3593,0.556438,0.0,0.0
494,123.25,63.0459,66.0883,155.473,100.519,95.1318,0.00805922,0.0832098,20.8985,31.3493,0.462651,0.0,0.0
496,123.75,63.0466,65.4016,152.822,100.565,94.3976,0.00808987,0.0829816,20.8986,31.3493,0.531554,0.0,0.0
498,124.25,63.5354,65.6229,157.197,100.562,93.7859,0.00812382,0.0827338,20.8992,31.3392,0.585943,0.0,0.0
500,124.75,62.8644,65.3547,153.286,100.609,95.4988,0.0081601,0.0824765,20.8996,31.3292,0.437846,0.0,0.0
502,125.25,62.7176,65.8808,158.357,100.591,95.9271,0.00819741,0.0821739,20.8999,31.3392,0.398745,0.0,0.0
504,125.75,62.938,65.8192,154.541,100.607,95.1318,0.00822763,0.0818438,20.9002,31.3292,0.46997,0.0,0.0
506,126.25,62.8743,65.1273,153.074,100.616,95.6212,0.00827395,0.0815765,20.9005,31.3192,0.427694,0.0,0.0
508,126.75,62.7669,65.3879,159.289,100.639,94.52,0.00831148,0.0810914,20.9006,31.3192,0.52685,0.0,0.0
510,127.25,62.5142,65.3904,150.965,100.655,95.9271,0.00835988,0.0806985,20.9008,31.3392,0.404066,0.0,0.0
512,127.75,63.0643,64.9644,158.201,100.652,94.7035,0.00839908,0.0802162,20.9009,31.3493,0.511633,0.0,0.0
514,128.25,62.9666,65.2196,148.089,100.667,94.0917,0.00844499,0.0798256,20.9014,31.3392,0.567367,0.0,0.0
516,128.75,62.7617,65.541,155.09,100.683,96.0494,0.00848895,0.0793303,20.9019,31.3292,0.395701,0.0,0.0
518,129.25,62.5704,65.0628,153.505,100.704,94.7035,0.00853065,0.0789291,20.9025,31.3092,0.516001,0.0,0.0
520,129.75,62.8224,65.1793,150.773,100.734,95.9271,0.00856443,0.0784551,20.9031,31.3092,0.410711,0.0,0.0
522,130.25,62.6275,65.3702,152.939,100.714,95.4988,0.00859179,0.0779371,20.9037,31.2992,0.446582,0.0,0.0
524,130.75,62.5493,64.9556,155.466,100.737,95.2541,0.00861653,0.0775175,20.9041,31.2992,0.470031,0.0,0.0
526,131.25,62.8378,64.9444,158.962,100.748,95.6212,0.00863657,0.0771776,20.9045,31.2792,0.438707,0.0,0.0
528,131.75,62.4124,64.6931,153.071,100.755,94.7647,0.0086528,0.0765004,20.9048,31.2892,0.514816,0.0,0.0
530,132.25,62.6963,64.8667,155.436,100.747,95.56,0.00863635,0.0759518,20.9049,31.2692,0.443987,0.0,0.0
532,132.75,62.1459,64.4743,153.967,100.764,96.1718,0.00862302,0.0754213,20.905,31.2692,0.39181,0.0,0.0
534,133.25,62.2755,64.5875,154.2,100.788,97.0895,0.00859165,0.0749141,20.9052,31.2692,0.313974,0.0,0.0
536,133.75,62.3044,64.5198,151.654,100.773,98.0683,0.00857828,0.0746509,20.9055,31.2792,0.228486,0.0,0.0
538,134.25,61.9485,64.4168,153.814,100.81,97.2118,0.00854127,0.0742008,20.9061,31.3092,0.305229,0.0,0.0
540,134.75,61.6376,64.2504,157.937,100.815,95.4988,0.0085113,0.0738049,20.9068,31.2892,0.454995,0.0,0.0
542,135.25,62.0738,64.5997,154.397,100.792,96.2941,0.00847931,0.073456,20.9073,31.2992,0.383439,0.0,0.0
544,135.75,62.2561,63.9437,154.856,100.816,96.4165,0.00845339,0.0731656,20.9078,31.2792,0.374797,0.0,0.0
546,136.25,61.8183,64.0525,158.684,100.82,99.353,0.0084324,0.0729234,20.9082,31.2892,0.123087,0.0,0.0
548,136.75,61.977,64.0404,152.178,100.847,97.946,0.00840127,0.0727271,20.9087,31.2792,0.245167,0.0,0.0
550,137.25,61.5025,64.2031,158.226,100.838,96.9671,0.00837605,0.0724493,20.9093,31.2892,0.32877,0.0,0.0
552,137.75,61.7618,64.1712,156.718,100.849,97.6401,0.00834278,0.0722242,20.9098,31.2992,0.271628,0.0,0.0
554,138.25,61.6967,64.1001,157.197,100.841,98.0683,0.00830428,0.0719245,20.9103,31.2692,0.234176,0.0,0.0
556,138.75,61.8422,64.1148,158.856,100.841,98.8636,0.00826161,0.0715761,20.9106,31.2392,0.166334,0.0,0.0
558,139.25,61.5762,64.493,157.015,100.84,96.6612,0.00821671,0.0712158,20.9109,31.2091,0.355466,0.0,0.0
560,139.75,61.9494,63.8748,153.279,100.868,97.5789,0.00816482,0.0708535,20.9111,31.2291,0.278408,0.0,0.0
562,140.25,61.7364,64.3904,149.06,100.852,97.946,0.00810881,0.0705601,20.9113,31.2392,0.245545,0.0,0.0
564,140.75,61.7538,63.8398,157.136,100.855,97.8848,0.00805265,0.0701293,20.9114,31.2492,0.251078,0.0,0.0
566,141.25,61.826,64.1374,155.43,100.867,99.7201,0.00799745,0.0697804,20.912,31.2291,0.0960304,0.0,0.0
568,141.75,61.6005,63.9626,155.962,100.865,98.6801,0.00797392,0.0695457,20.9122,31.2392,0.183932,0.0,0.0
570,142.25,61.6914,63.8814,157.685,100.883,98.5577,0.00792599,0.0691444,20.9128,31.2291,0.1959,0.0,0.0
572,142.75,62.0119,63.5084,152.706,100.857,96.2941,0.00788717,0.0686857,20.9136,31.2392,0.388813,0.0,0.0
574,143.25,61.6353,63.8253,155.832,100.855,97.4565,0.00785572,0.0683142,20.9142,31.2191,0.287905,0.0,0.0
576,143.75,61.6281,63.9829,152.573,100.874,96.2941,0.00783025,0.0679742,20.9146,31.2291,0.390234,0.0,0.0
578,144.25,61.5515,63.7445,154.375,100.88,98.4354,0.00780962,0.0676637,20.915,31.2291,0.206081,0.0,0.0
580,144.75,61.5963,63.8057,155.273,100.888,96.7224,0.00779291,0.0674122,20.9153,31.2191,0.354195,0.0,0.0
582,145.25,61.846,63.8755,156.443,100.86,99.1695,0.00777937,0.0670897,20.9156,31.2191,0.141967,0.0,0.0
584,145.75,61.4753,63.8051,152.045,100.855,97.8236,0.00776712,0.0668286,20.916,31.2091,0.256329,0.0,0.0
586,146.25,61.672,63.6114,156.976,100.87,97.946,0.00775721,0.0666092,20.9166,31.1991,0.247094,0.0,0.0
588,146.75,61.3408,63.7866,155.328,100.856,97.946,0.00774513,0.0664245,20.917,31.2091,0.245924,0.0,0.0
590,147.25,61.0215,63.5035,156.1,100.855,96.7224,0.0077317,0.0662515,20.9174,31.1991,0.351384,0.0,0.0
592,147.75,61.4244,63.7572,158.629,100.848,98.1295,0.00771543,0.0660903,20.9177,31.1991,0.229505,0.0,0.0
594,148.25,61.2144,63.2256,153.751,100.838,97.1506,0.00769741,0.0659597,20.9179,31.2091,0.312887,0.0,0.0
596,148.75,61.1457,63.6868,156.444,100.832,98.4966,0.00767539,0.0658242,20.9181,31.2091,0.196851,0.0,0.0
598,149.25,61.4674,63.3343,156.279,100.841,97.5789,0.00765089,0.0657145,20.9187,31.1991,0.276229,0.0,0.0
600,149.75,60.9236,63.2765,153.501,100.816,97.5177,0.00762296,0.065596,20.9192,31.1991,0.279379,0.0,0.0
602,150.25,61.3508,63.5027,151.377,100.817,98.6801,0.00759306,0.0655,20.9196,31.2091,0.179919,0.0,0.0
604,150.75,61.0566,63.5978,156.778,100.788,99.2919,0.00756884,0.0654066,20.9199,31.2191,0.125605,0.0,0.0
606,151.25,61.4352,63.6746,155.62,100.803,98.1295,0.00754115,0.0653169,20.9201,31.2091,0.225777,0.0,0.0
608,151.75,60.8153,62.845,154.521,100.786,98.2518,0.00751144,0.0652443,20.9203,31.2091,0.213888,0.0,0.0
610,152.25,61.0605,63.7367,158.465,100.775,98.4966,0.00748738,0.0651113,20.9205,31.2091,0.19211,0.0,0.0
612,152.75,61.042,63.1947,157.742,100.778,98.4966,0.0074615,0.0650036,20.9206,31.1991,0.192298,0.0,0.0
614,153.25,61.181,63.182,152.538,100.766,98.6801,0.00744053,0.0648422,20.9208,31.1891,0.175714,0.0,0.0
616,153.75,61.522,63.3131,153.174,100.74,98.8024,0.00742611,0.0647115,20.9208,31.1791,0.163155,0.0,0.0
618,154.25,60.5182,63.2816,152.161,100.753,98.8024,0.00741442,0.0646056,20.9209,31.1691,0.164199,0.0,0.0
620,154.75,61.3465,63.0624,154.133,100.74,100.148,0.00740496,0.0644808,20.921,31.1891,0.0494485,0.0,0.0
622,155.25,61.181,62.6386,153.48,100.711,98.6189,0.00741648,0.0643447,20.9211,31.1991,0.176336,0.0,0.0
624,155.75,61.3485,63.3105,157.062,100.688,97.8236,0.00742581,0.0641954,20.9212,31.1891,0.242416,0.0,0.0
626,156.25,61.0241,63.1264,154.032,100.696,98.4966,0.00744617,0.0640393,20.9214,31.1891,0.185466,0.0,0.0
628,156.75,61.1414,62.7638,156.53,100.665,97.8236,0.00746266,0.0638583,20.9215,31.1991,0.240485,0.0,0.0
630,157.25,60.6386,62.4265,154.656,100.665,98.0683,0.00747534,0.0636626,20.9215,31.1891,0.2195,0.0,0.0
632,157.75,60.778,63.1981,153.288,100.637,98.0683,0.00748501,0.063504,20.9216,31.1691,0.217126,0.0,0.0
634,158.25,60.9274,63.1899,155.025,100.627,96.6612,0.00749284,0.0633132,20.9216,31.1691,0.337752,0.0,0.0
636,158.75,60.8529,62.884,154.089,100.608,98.9248,0.0074911,0.0631026,20.9217,31.1491,0.141683,0.0,0.0
638,159.25,60.3704,63.0377,158.286,100.602,98.9248,0.00748242,0.0628695,20.9217,31.1791,0.141207,0.0,0.0
640,159.75,60.6236,62.9133,153.826,100.559,97.8848,0.00746798,0.0626247,20.9218,31.1491,0.226398,0.0,0.0
642,160.25,60.5475,63.0943,153.132,100.574,97.1506,0.00744962,0.0623717,20.9218,31.1491,0.290865,0.0,0.0
644,160.75,60.814,62.7871,155.537,100.535,98.986,0.00743474,0.0621178,20.9218,31.1391,0.130438,0.0,0.0
646,161.25,60.8711,62.7106,155.531,100.532,99.4754,0.00739841,0.0619121,20.9222,31.1491,0.0887576,0.0,0.0
648,161.75,60.943,63.1714,153.873,100.496,98.0683,0.00736897,0.0616566,20.9226,31.1491,0.205402,0.0,0.0
650,162.25,60.2328,62.5189,158.076,100.503,97.8236,0.00733746,0.0614497,20.9233,31.1491,0.226958,0.0,0.0
652,162.75,60.5886,62.5369,155.277,100.452,99.9648,0.00731194,0.0612821,20.9239,31.1591,0.040844,0.0,0.0
654,163.25,60.3526,62.6384,155.2,100.454,98.2518,0.00729894,0.0611464,20.9244,31.1391,0.186147,0.0,0.0
656,163.75,60.5876,62.4855,155.363,100.433,97.273,0.00729198,0.0609684,20.925,31.1291,0.268499,0.0,0.0
658,164.25,60.4648,62.299,150.871,100.407,97.8236,0.00729521,0.0609205,20.9251,31.1391,0.218902,0.0,0.0
660,164.75,60.0889,62.5757,154.644,100.36,98.0071,0.00730072,0.0608075,20.9254,31.1591,0.199285,0.0,0.0
662,165.25,60.3665,62.9612,153.083,100.379,97.4565,0.00730519,0.0606879,20.9256,31.1591,0.24816,0.0,0.0