File: 01_Data/Polyisocyanurate_Spray_Foam_Insulation/Cone/Polyisocyanurate_Spray_Foam_Insulation_Cone_HF50Scan_241113_R2.csv
Names,Time,Stack TC,Smoke TC,Exh Press,Smoke Comp,Smoke Meas,CO Meter,CO2 Meter,O2 Meter,Sample Mass,Ext Coeff,Start Test,Flame Verif
Chan Gain,,500,500,1,1,1,1,1,1,1,1,1.0,1.0
Offset,,0,0,0.138019,0,0,0,0,0,0,0,0.0,0.0
Gain,,1,1,25.011,12.3279,2325.04,1,1,1,1.00093,0.957506,1.0,1.0
Units,sec,C,C,Pa,%,%,%,%,%,g,/m,,
Baseline,,43.7479,45.5618,163.103,99.8505,96.3848,0.000253055,0.0406612,20.9539,-443.043,0.297482,,
2,0.25,42.0437,43.0148,161.992,99.8491,85.2875,0.000493525,0.0474283,20.9489,49.286,1.32398,0.0,0.0
4,0.75,40.7873,42.2637,166.41,99.854,95.0793,0.000489169,0.0477257,20.9486,49.4161,0.411543,0.0,0.0
6,1.25,40.597,42.5603,161.568,99.86,95.6469,0.000485641,0.0478929,20.9479,49.4161,0.362054,0.0,0.0
8,1.75,41.0521,42.3937,164.807,99.863,93.5183,0.000482133,0.0480283,20.9474,49.4361,0.551344,0.0,0.0
10,2.25,40.7911,42.6984,168.384,99.8337,83.088,0.000478707,0.0481225,20.947,49.266,1.54214,0.0,0.0
12,2.75,41.0428,42.7923,155.676,99.8724,78.8307,0.000475931,0.0481848,20.9466,49.3461,1.98717,0.0,1.0
14,3.25,40.3931,42.966,151.657,99.8329,70.1742,0.000473683,0.0481888,20.9463,49.1058,2.96086,0.0,1.0
16,3.75,41.3847,43.1655,160.355,99.8649,63.5045,0.000469912,0.0481501,20.9461,49.0658,3.80238,0.0,1.0
18,4.25,41.6413,43.8415,145.759,99.8374,59.8148,0.000465102,0.0480645,20.9459,48.9757,4.30281,0.0,1.0
20,4.75,42.4631,44.8005,140.555,99.863,61.092,0.000458606,0.0479463,20.9458,48.8756,4.12751,0.0,1.0
22,5.25,43.2196,45.9487,138.451,99.8578,58.6795,0.000451003,0.0478195,20.9457,48.7755,4.46547,0.0,1.0
24,5.75,43.8793,47.1607,137.683,99.8581,55.7704,0.000441595,0.0476889,20.9456,48.6654,4.89258,0.0,1.0
26,6.25,44.7162,48.064,137.463,99.8608,58.3248,0.00043105,0.0475754,20.9455,48.5653,4.51666,0.0,1.0
28,6.75,45.8297,49.922,140.726,99.8706,54.0675,0.000422509,0.0474765,20.9454,48.4552,5.15409,0.0,1.0
30,7.25,45.8274,50.2078,136.377,99.8593,56.9057,0.00041559,0.0473963,20.9454,48.2951,4.72342,0.0,1.0
32,7.75,46.5339,51.2697,136.42,99.863,54.4223,0.000409986,0.0472927,20.9453,48.235,5.09852,0.0,1.0
34,8.25,47.335,52.724,134.766,99.8694,52.9322,0.000418449,0.0471738,20.9453,48.1149,5.33223,0.0,1.0
36,8.75,48.5368,53.8779,133.722,99.8788,52.6484,0.000437006,0.0470775,20.9453,47.9948,5.37818,0.0,0.0
38,9.25,48.7601,54.818,134.036,99.8401,51.0874,0.000452038,0.0470438,20.9452,47.8547,5.62772,0.0,0.0
40,9.75,50.3187,56.7585,134.125,99.8431,46.5463,0.000501301,0.0470164,20.9452,47.6745,6.40985,0.0,0.0
42,10.25,50.993,58.1019,133.553,99.8318,45.5529,0.000541204,0.0469942,20.9452,47.5544,6.5901,0.0,0.0
44,10.75,51.9296,59.678,131.442,99.8074,45.34,0.000573525,0.0530221,20.9452,47.4543,6.62738,0.0,0.0
46,11.25,52.727,60.4717,131.055,99.8352,45.6948,0.000923952,0.0579048,20.9457,47.2841,6.56425,0.0,0.0
48,11.75,53.7106,62.0738,136.843,99.8438,45.9786,0.0012078,0.073906,20.9464,47.164,6.51298,0.0,0.0
50,12.25,54.8989,63.4915,133.594,99.8476,47.3268,0.00202244,0.086867,20.9469,47.0339,6.27056,0.0,0.0
52,12.75,55.7202,64.3884,129.566,99.8743,45.5529,0.0026823,0.117165,20.947,46.9038,6.59367,0.0,0.0
54,13.25,56.4949,65.8462,133.522,99.8694,43.5662,0.00424399,0.141706,20.942,46.8037,6.96781,0.0,0.0
56,13.75,57.6985,67.5996,131.816,99.8427,43.6371,0.00550895,0.171512,20.9335,46.6736,6.95189,0.0,0.0
58,14.25,58.2865,68.7124,130.361,99.8657,42.4309,0.00788929,0.20459,20.9098,46.5134,7.18926,0.0,0.0
60,14.75,59.381,70.4358,126.899,99.8435,46.7591,0.00981737,0.231383,20.8756,46.3433,6.37156,0.0,0.0
62,15.25,60.288,71.4567,126.686,99.8566,46.0496,0.0113791,0.273084,20.8479,46.2532,6.5011,0.0,0.0
64,15.75,61.0796,72.5858,141.719,99.8709,44.7724,0.013183,0.290862,20.8214,46.083,6.73854,0.0,0.0
66,16.25,62.2981,73.756,134.008,99.8593,44.4886,0.0162675,0.329972,20.7761,45.9829,6.79098,0.0,0.0
68,16.75,62.6997,74.7671,124.522,99.8698,43.779,0.0195646,0.369488,20.7394,45.8328,6.9269,0.0,0.0
70,17.25,63.2598,76.04,133.322,99.8781,45.34,0.022954,0.401497,20.6826,45.7127,6.63333,0.0,0.0
72,17.75,64.4268,77.6142,141.586,99.8822,42.289,0.0265505,0.440305,20.6367,45.5925,7.21879,0.0,0.0
74,18.25,65.1062,78.6382,127.848,99.8848,45.2691,0.0302296,0.47174,20.5764,45.4624,6.64705,0.0,0.0
76,18.75,66.0365,79.2718,138.227,99.8627,41.9342,0.0338039,0.50642,20.5275,45.3323,7.28791,0.0,0.0
78,19.25,66.7403,80.3992,129.018,99.8856,43.7081,0.0372339,0.534511,20.4618,45.1822,6.94185,0.0,0.0
80,19.75,66.8508,80.925,127.842,99.8724,43.6371,0.0400122,0.564637,20.4086,45.0921,6.95439,0.0,0.0
82,20.25,67.535,81.8082,129.917,99.8961,43.1405,0.0433892,0.589039,20.3567,44.972,7.05253,0.0,0.0
84,20.75,68.3988,83.2657,126.072,99.8961,43.2114,0.0461247,0.616487,20.3069,44.7918,7.03873,0.0,0.0
86,21.25,68.5844,83.5219,133.565,99.9097,43.5662,0.0491843,0.63872,20.259,44.7117,6.97119,0.0,0.0
88,21.75,69.5687,84.4258,129.037,99.8901,44.4886,0.0516626,0.660412,20.2134,44.5816,6.79357,0.0,0.0
90,22.25,69.8583,85.3369,128.758,99.9229,42.9276,0.05367,0.681297,20.1764,44.4415,7.09633,0.0,0.0
92,22.75,70.6061,85.4173,122.203,99.9067,40.8699,0.0560875,0.698214,20.141,44.2913,7.50754,0.0,0.0
94,23.25,70.9462,86.6933,139.159,99.9315,45.6239,0.0580457,0.717386,20.1073,44.1812,6.58541,0.0,0.0
96,23.75,71.7309,87.5072,138.704,99.895,41.1537,0.0600218,0.732916,20.0738,44.0911,7.44843,0.0,0.0
98,24.25,72.1488,87.9141,130.722,99.9176,42.9276,0.0616224,0.748862,20.0412,43.951,7.09588,0.0,0.0
100,24.75,72.7003,88.5614,126.677,99.9307,39.2379,0.06316,0.761778,20.0097,43.8109,7.85183,0.0,0.0
102,25.25,73.0197,89.0111,135.406,99.9341,41.5085,0.0644055,0.773681,19.9796,43.6708,7.37963,0.0,0.0
104,25.75,73.5649,89.9661,129.192,99.9236,44.2757,0.0655679,0.784619,19.9516,43.5607,6.83667,0.0,0.0
106,26.25,74.0881,90.5001,129.659,99.9481,47.1849,0.0665095,0.794189,19.9256,43.4105,6.30423,0.0,0.0
108,26.75,74.1465,90.8772,129.862,99.9435,44.1338,0.0673509,0.801942,19.9018,43.3004,6.86531,0.0,0.0
110,27.25,74.8663,91.6327,124.723,99.974,42.5728,0.0680324,0.807439,19.88,43.1603,7.17033,0.0,0.0
112,27.75,75.3336,92.4681,136.485,99.9364,48.1073,0.068595,0.811891,19.8619,43.0101,6.14064,0.0,0.0
114,28.25,75.6106,92.6428,131.41,99.9503,42.1471,0.0690602,0.815498,19.8469,42.9401,7.25275,0.0,0.0
116,28.75,76.1179,93.2776,134.031,99.9439,46.4753,0.069437,0.816506,19.8347,42.81,6.43114,0.0,0.0
118,29.25,76.3383,93.981,122.975,99.9797,45.5529,0.0697071,0.817323,19.8248,42.6998,6.60252,0.0,0.0
120,29.75,76.7921,94.1987,136.335,99.962,44.8434,0.0699258,0.817502,19.8168,42.5998,6.7329,0.0,0.0
122,30.25,77.0013,94.8557,130.35,99.98,47.6106,0.0700774,0.817212,19.8103,42.4796,6.23147,0.0,0.0
124,30.75,77.5249,95.0367,134.673,99.9383,44.8434,0.0701773,0.816977,19.805,42.3595,6.73091,0.0,0.0
126,31.25,77.8913,95.3271,131.262,99.9823,44.2048,0.0702581,0.81674,19.8008,42.2294,6.85507,0.0,0.0
128,31.75,78.3449,96.0377,123.288,99.9703,44.5595,0.0702568,0.816548,19.798,42.1193,6.78692,0.0,0.0
130,32.25,78.5227,96.0435,129.619,99.98,44.8434,0.0702557,0.817004,19.7964,42.0092,6.73441,0.0,0.0
132,32.75,78.9641,96.883,133.967,99.962,45.9077,0.070203,0.817373,19.7951,41.8691,6.53588,0.0,0.0
134,33.25,79.0209,96.9397,132.967,99.977,42.5728,0.0701604,0.817672,19.794,41.779,7.17058,0.0,0.0
136,33.75,79.4028,97.4865,128.945,99.962,40.657,0.0701258,0.81841,19.7932,41.6689,7.55605,0.0,0.0
138,34.25,79.8026,97.6204,133.92,99.9823,43.4243,0.0700611,0.819454,19.7923,41.5388,7.0047,0.0,0.0
140,34.75,79.7187,97.9223,128.073,99.9733,41.2247,0.0700087,0.820176,19.7915,41.4187,7.44054,0.0,0.0
142,35.25,80.4253,98.3551,129.311,99.9996,38.9541,0.0699646,0.820649,19.7901,41.2985,7.91859,0.0,0.0
144,35.75,80.4471,98.4297,138.857,99.9909,41.1537,0.0699289,0.820648,19.7884,41.1884,7.45649,0.0,0.0
146,36.25,80.4661,98.4046,140.688,99.9981,39.7346,0.0698999,0.820301,19.7869,41.0783,7.75183,0.0,0.0
148,36.75,80.8411,98.7543,132.852,99.9955,41.7923,0.0698565,0.82002,19.7858,40.9382,7.32754,0.0,0.0
150,37.25,80.81,98.9065,137.842,100.003,41.4375,0.0698213,0.818867,19.7849,40.8381,7.39975,0.0,0.0
152,37.75,81.1029,98.9484,125.675,99.9966,45.1981,0.0697362,0.817098,19.7841,40.708,6.66962,0.0,0.0
154,38.25,81.4127,99.3987,141.753,99.9917,47.1849,0.0696672,0.814585,19.7835,40.6079,6.3079,0.0,0.0
156,38.75,81.4909,99.4518,135.615,100,43.2114,0.0695501,0.811577,19.7837,40.4578,7.04749,0.0,0.0
158,39.25,81.5202,99.4694,135.45,100.006,42.289,0.0694001,0.808554,19.7845,40.3577,7.2292,0.0,0.0
160,39.75,81.5503,99.5244,135.501,99.9988,46.0496,0.0692113,0.805577,19.7851,40.2376,6.51305,0.0,0.0
162,40.25,81.8168,99.534,127.147,100.004,42.36,0.068998,0.802922,19.7887,40.1174,7.21496,0.0,0.0
164,40.75,82.0064,100.222,138.232,100.005,42.1471,0.068907,0.801675,19.7902,39.9973,7.25736,0.0,0.0
166,41.25,82.0249,99.9283,130.857,100.01,41.7923,0.0686175,0.799542,19.7944,39.8572,7.32874,0.0,0.0
168,41.75,82.1135,100.315,136.593,100.012,42.36,0.0683829,0.797205,19.7993,39.7971,7.21559,0.0,0.0
170,42.25,82.7074,100.208,130.82,99.9864,37.6769,0.0681088,0.794766,19.8034,39.647,8.19748,0.0,0.0
172,42.75,82.4474,100.35,132.77,99.9815,40.1604,0.0678867,0.79279,19.807,39.5669,7.66093,0.0,0.0
174,43.25,82.5021,100.848,131.623,100.012,39.0251,0.0677069,0.78921,19.8099,39.4468,7.90434,0.0,0.0
176,43.75,83.128,100.917,139.23,99.9936,40.728,0.0674953,0.786311,19.8127,39.3367,7.54406,0.0,0.0
178,44.25,83.2187,100.921,129.153,100.026,46.0496,0.0673239,0.781495,19.8154,39.2066,6.5153,0.0,0.0
180,44.75,83.1138,100.842,133.674,99.9962,40.0894,0.0671653,0.777594,19.8185,39.1165,7.67702,0.0,0.0
182,45.25,83.0721,101.159,134.15,99.9985,42.36,0.0670368,0.771668,19.8218,38.9764,7.21448,0.0,0.0
184,45.75,82.8081,101.216,126.931,100.023,44.5595,0.0669015,0.766868,19.8256,38.8763,6.79138,0.0,0.0
186,46.25,83.193,101.012,135.079,100.008,44.9853,0.0667919,0.760103,19.8298,38.7562,6.71025,0.0,0.0
188,46.75,83.2137,101.029,133.62,100.033,42.218,0.0666455,0.754624,19.8359,38.626,7.24558,0.0,0.0
190,47.25,83.1784,101.194,135.863,100.007,43.6371,0.066527,0.748935,19.8433,38.5159,6.96568,0.0,0.0
192,47.75,83.2568,100.86,138.162,100.006,42.0761,0.0663571,0.744326,19.8514,38.3658,7.27158,0.0,0.0
194,48.25,83.464,101.269,139.553,99.9966,42.0761,0.0662195,0.74075,19.8598,38.3258,7.27079,0.0,0.0
196,48.75,83.787,101.31,132.602,100.007,44.2757,0.0660195,0.737853,19.868,38.2057,6.84366,0.0,0.0
198,49.25,83.5496,101.021,136.463,99.997,40.0184,0.0658576,0.735506,19.8758,38.1056,7.69196,0.0,0.0
200,49.75,83.153,100.793,139.17,100.005,42.8566,0.0657264,0.733823,19.8822,38.0255,7.11711,0.0,0.0
202,50.25,83.5175,101.143,136.701,99.9958,43.85,0.0655642,0.732459,19.8873,37.8753,6.92389,0.0,0.0
204,50.75,83.606,101.039,137.943,100.009,42.5019,0.065495,0.731537,19.8894,37.8353,7.18728,0.0,0.0
206,51.25,83.612,100.589,134.937,99.9812,43.1405,0.0653596,0.729961,19.8931,37.6551,7.05968,0.0,0.0
208,51.75,83.3937,100.507,139.695,99.9924,41.2956,0.0652344,0.728685,19.8969,37.555,7.42771,0.0,0.0
210,52.25,83.2044,100.66,137.065,99.9921,36.1869,0.0651029,0.726517,19.9,37.505,8.53687,0.0,0.0
212,52.75,83.2553,100.515,139.586,100.013,37.3931,0.0649692,0.724761,19.9025,37.3949,8.26323,0.0,0.0
214,53.25,82.9321,100.185,140.725,99.9902,37.1803,0.0648087,0.721502,19.9045,37.2748,8.30925,0.0,0.0
216,53.75,83.5698,100.007,137.023,100.02,39.096,0.0646315,0.71782,19.9061,37.1847,7.88972,0.0,0.0
218,54.25,83.2771,100.288,140.766,99.9894,38.5994,0.0644212,0.7139,19.9075,37.1146,7.99458,0.0,0.0
220,54.75,83.3452,99.7482,138.166,99.9988,37.535,0.0641907,0.709644,19.9111,37.0246,8.23022,0.0,0.0
222,55.25,83.2851,99.4344,138.229,99.9733,42.36,0.0639254,0.705222,19.9141,36.9245,7.21237,0.0,0.0
224,55.75,82.9539,99.1004,140.796,99.9789,38.2446,0.0636399,0.701641,19.9166,36.8043,8.07125,0.0,0.0
226,56.25,83.131,99.6985,138.322,99.9684,41.7214,0.0634086,0.698741,19.9224,36.7243,7.33954,0.0,0.0
228,56.75,83.2585,98.4921,134.756,99.9879,40.4442,0.0632212,0.69215,19.9272,36.6442,7.60232,0.0,0.0
230,57.25,82.3399,98.8257,140.974,99.971,42.9276,0.0628885,0.686811,19.9311,36.5841,7.10037,0.0,0.0
232,57.75,82.7735,98.9758,141.89,99.9706,45.9786,0.0624562,0.680184,19.9372,36.4841,6.52363,0.0,0.0
234,58.25,82.1367,98.3026,142.663,99.9608,41.4375,0.0619659,0.672744,19.9421,36.404,7.39624,0.0,0.0
236,58.75,82.3035,97.8387,138.188,99.9642,41.5795,0.0614426,0.665053,19.9496,36.3239,7.36781,0.0,0.0
238,59.25,82.5746,98.5731,140.304,99.9304,46.0496,0.0610188,0.657325,19.9557,36.2338,6.5073,0.0,0.0
240,59.75,82.0527,97.6658,141.578,99.9703,47.3268,0.0603456,0.651065,19.9629,36.1637,6.28087,0.0,0.0
242,60.25,82.5407,97.8937,141.211,99.9307,48.2492,0.0598002,0.643572,19.9708,36.1337,6.11543,0.0,0.0
244,60.75,82.3548,97.6156,142.872,99.9718,45.9077,0.0590688,0.637502,19.9822,36.0036,6.5367,0.0,0.0
246,61.25,82.4044,97.4876,135.204,99.9364,46.6172,0.0584763,0.631402,19.996,35.9836,6.4049,0.0,0.0
248,61.75,81.9951,96.6371,140.597,99.9552,46.6172,0.057844,0.626461,20.0072,35.8935,6.40649,0.0,0.0
250,62.25,81.9668,96.3406,140.325,99.9172,47.7525,0.0571947,0.621459,20.0193,35.8034,6.2012,0.0,0.0
252,62.75,81.5393,96.3771,147.498,99.9405,53.0741,0.0565575,0.616506,20.0291,35.7734,5.31572,0.0,0.0
254,63.25,81.1559,96.0836,146.719,99.9266,54.2803,0.0559413,0.612495,20.0388,35.6833,5.1258,0.0,0.0
256,63.75,81.1718,95.8312,145.033,99.9149,52.5065,0.0554421,0.606988,20.0467,35.6132,5.40388,0.0,0.0
258,64.25,81.5405,95.8166,138.474,99.9089,50.4488,0.0548788,0.602528,20.053,35.5732,5.73916,0.0,0.0
260,64.75,81.1797,94.8785,145.481,99.9262,54.777,0.0542795,0.597545,20.0586,35.4931,5.04926,0.0,0.0
262,65.25,80.8026,94.2964,143.224,99.8905,53.7127,0.0536483,0.592274,20.0631,35.4431,5.21106,0.0,0.0
264,65.75,80.2987,94.1602,144.848,99.9165,51.9388,0.0530059,0.586614,20.0698,35.4131,5.49531,0.0,0.0
266,66.25,79.9758,94.0666,146.883,99.8777,55.5575,0.0523059,0.580778,20.0769,35.363,4.92635,0.0,0.0
268,66.75,80.0049,93.3432,148.628,99.9161,57.1185,0.0515772,0.574515,20.084,35.3029,4.69684,0.0,0.0
270,67.25,79.1702,92.9798,149.081,99.8608,57.3314,0.050772,0.568061,20.0898,35.2529,4.66094,0.0,0.0
272,67.75,79.3403,92.7404,146.623,99.8642,60.8791,0.0499262,0.56126,20.0997,35.2129,4.15692,0.0,0.0
274,68.25,79.0735,92.3612,147.422,99.8461,58.8924,0.04902,0.554337,20.1078,35.1428,4.43407,0.0,0.0
276,68.75,78.9594,92.0891,147.448,99.8581,63.0078,0.0480869,0.547215,20.1186,35.0928,3.86776,0.0,0.0
278,69.25,78.8789,91.3606,153.075,99.8502,66.2717,0.0471254,0.540082,20.1274,35.0827,3.44289,0.0,0.0
280,69.75,78.6591,91.0181,150.528,99.8596,67.407,0.0461614,0.534304,20.1389,35.0427,3.30102,0.0,0.0
282,70.25,77.7633,90.3662,148.424,99.8288,68.4713,0.0453806,0.527185,20.1482,34.9927,3.16684,0.0,0.0
284,70.75,77.9507,90.2265,147.232,99.8243,68.6132,0.0444091,0.519224,20.1558,34.9726,3.14907,0.0,0.0
286,71.25,77.2622,89.5677,153.947,99.8137,68.5422,0.0433172,0.512775,20.1667,34.9326,3.15688,0.0,0.0
288,71.75,77.354,89.0741,152.025,99.8171,72.3738,0.0424327,0.502835,20.1755,34.9126,2.7003,0.0,0.0
290,72.25,76.8989,88.8212,143.957,99.79,72.5157,0.0411855,0.494784,20.185,34.8926,2.68157,0.0,0.0
292,72.75,77.0625,88.584,149.959,99.7904,74.5024,0.0401753,0.485958,20.1949,34.8826,2.45458,0.0,0.0
294,73.25,76.8115,87.706,148.483,99.7855,77.0568,0.0391249,0.476735,20.2063,34.8625,2.17102,0.0,0.0
296,73.75,75.8485,87.3073,156.79,99.7806,78.5468,0.0380651,0.467534,20.2186,34.8425,2.00975,0.0,0.0
298,74.25,75.6506,87.1853,146.551,99.7596,78.1211,0.0368255,0.458525,20.233,34.8325,2.05362,0.0,0.0
300,74.75,75.8999,86.8925,150.615,99.7788,80.8884,0.0358214,0.449403,20.2486,34.7925,1.76286,0.0,0.0
302,75.25,75.2219,86.0993,151.674,99.7212,82.7332,0.0345933,0.440373,20.2646,34.7925,1.56861,0.0,0.0
304,75.75,75.0897,85.8028,151.352,99.7599,84.578,0.0335986,0.431218,20.2807,34.7725,1.38664,0.0,0.0
306,76.25,74.7453,85.3545,152.868,99.7359,86.4228,0.0323863,0.422148,20.2965,34.7925,1.20338,0.0,0.0
308,76.75,74.4195,85.0913,150.303,99.7325,85.9971,0.0314042,0.4148,20.3117,34.8025,1.24457,0.0,0.0
310,77.25,74.0812,84.4454,150.736,99.6855,86.068,0.0306088,0.405149,20.3241,34.7825,1.23368,0.0,0.0
312,77.75,73.8109,83.7807,154.548,99.7024,85.5004,0.0293692,0.397331,20.3371,34.7725,1.29069,0.0,0.0
314,78.25,73.387,82.9767,155.611,99.6836,88.4096,0.0283651,0.388727,20.3503,34.7725,1.00808,0.0,0.0
316,78.75,73.3114,83.1108,152.416,99.667,86.139,0.027101,0.379715,20.361,34.7224,1.22521,0.0,0.0
318,79.25,72.8045,82.5826,151.352,99.6403,86.3519,0.0260771,0.372415,20.3724,34.7624,1.20223,0.0,0.0
320,79.75,72.277,81.6682,155.441,99.6429,87.3452,0.0252477,0.363734,20.3841,34.7524,1.10638,0.0,0.0
322,80.25,72.0143,81.4769,155.274,99.6294,88.6934,0.0245759,0.354211,20.3936,34.7324,0.97659,0.0,0.0
324,80.75,71.799,81.1082,153.037,99.6253,89.5448,0.0232798,0.346497,20.4059,34.7424,0.895994,0.0,0.0
326,81.25,71.6032,80.3211,155.699,99.6034,88.9772,0.0220119,0.3367,20.4159,34.7424,0.947567,0.0,0.0
328,81.75,70.7518,79.429,157.095,99.6068,89.1901,0.0207887,0.328764,20.4279,34.7024,0.927782,0.0,0.0
330,82.25,70.9581,79.3945,152.932,99.5775,91.9573,0.0197979,0.318981,20.4411,34.7424,0.668674,0.0,0.0
332,82.75,70.1342,78.7973,154.718,99.5805,93.0926,0.0185103,0.311056,20.455,34.7224,0.565869,0.0,0.0
334,83.25,70.0924,78.4726,160.012,99.5669,94.015,0.0174673,0.302458,20.4692,34.7224,0.481914,0.0,0.0
336,83.75,69.4124,77.7056,155.933,99.5474,95.0793,0.0164387,0.293532,20.4807,34.7624,0.385712,0.0,0.0
338,84.25,69.3993,77.3912,158.672,99.5226,92.8797,0.01544,0.286301,20.4978,34.7224,0.580208,0.0,0.0
340,84.75,68.6871,76.6696,153.071,99.5101,94.2988,0.0146311,0.275713,20.5117,34.7224,0.451802,0.0,0.0
342,85.25,68.7845,76.2258,157.359,99.5109,93.5183,0.0135355,0.267136,20.5259,34.7224,0.521673,0.0,0.0
344,85.75,67.9294,75.4581,159.227,99.4815,94.7955,0.012648,0.257938,20.5401,34.7224,0.405264,0.0,0.0
346,86.25,67.6993,74.953,161.275,99.4925,96.4984,0.0118054,0.248462,20.5516,34.7324,0.256642,0.0,0.0
348,86.75,67.9283,75.0421,157.106,99.503,92.3121,0.0110116,0.239114,20.5683,34.7124,0.630047,0.0,0.0
350,87.25,67.51,74.6032,152.841,99.4571,93.1635,0.0102564,0.230037,20.5819,34.7224,0.549055,0.0,0.0
352,87.75,67.0805,74.2212,163.758,99.4616,92.3121,0.00954361,0.221243,20.5994,34.7324,0.626552,0.0,0.0
354,88.25,66.5429,73.4927,157.236,99.4597,94.015,0.00889201,0.212822,20.6136,34.7624,0.472863,0.0,0.0
356,88.75,66.1703,73.0762,156.782,99.4289,93.6602,0.00829737,0.204539,20.6316,34.7324,0.502012,0.0,0.0
358,89.25,65.8754,72.6071,157.218,99.4281,92.8087,0.00776569,0.196514,20.6462,34.7324,0.578655,0.0,0.0
360,89.75,65.4877,72.0936,157.73,99.3894,94.0859,0.00729001,0.188636,20.6628,34.7324,0.460584,0.0,0.0
362,90.25,64.8554,71.6325,159.704,99.3995,94.2278,0.00687209,0.181015,20.6763,34.7224,0.448782,0.0,0.0
364,90.75,63.8283,70.1735,157.761,99.3698,94.5826,0.00650422,0.174842,20.6892,34.7324,0.414706,0.0,0.0
366,91.25,64.097,69.8491,157.422,99.3792,94.0859,0.00620625,0.166617,20.7016,34.7424,0.459724,0.0,0.0
368,91.75,63.5085,69.5241,158.907,99.3311,93.7312,0.00594893,0.159954,20.7116,34.7324,0.487384,0.0,0.0
370,92.25,62.9171,68.8759,159.702,99.3427,93.6602,0.00572615,0.153058,20.7241,34.7324,0.494731,0.0,0.0
372,92.75,62.3899,68.3741,155.109,99.3224,93.3054,0.00554569,0.146123,20.7342,34.7324,0.524888,0.0,0.0
374,93.25,60.3999,66.2246,163.208,99.3081,94.8664,0.00541973,0.140506,20.7449,34.7424,0.384324,0.0,0.0
376,93.75,60.0248,65.5706,155.979,99.287,93.7312,0.0053177,0.134658,20.7558,34.7624,0.483661,0.0,0.0
378,94.25,60.4424,65.9148,161.339,99.2837,94.5117,0.00529322,0.128753,20.7665,34.7224,0.413725,0.0,0.0
380,94.75,60.4653,65.8175,159.619,99.2724,95.0793,0.00527338,0.122255,20.7768,34.7324,0.362476,0.0,0.0
382,95.25,60.2965,65.5823,156.288,99.2584,96.1436,0.0053257,0.116991,20.7874,34.7624,0.267798,0.0,0.0
384,95.75,60.1473,65.4826,156.686,99.2028,97.5627,0.00536809,0.111259,20.7981,34.7324,0.140019,0.0,0.0
386,96.25,60.1666,64.9729,156.253,99.249,95.7888,0.0054633,0.106615,20.8086,34.7124,0.298053,0.0,0.0
388,96.75,60.0267,65.1177,158.375,99.2009,93.5183,0.00554043,0.101375,20.8188,34.7124,0.495467,0.0,0.0
390,97.25,59.9265,64.2248,158.792,99.1979,94.3697,0.0056372,0.09713,20.8281,34.7124,0.419086,0.0,0.0
392,97.75,59.3158,64.1932,155.266,99.1636,95.0083,0.00571558,0.0929785,20.8368,34.7124,0.359542,0.0,0.0
394,98.25,59.1094,63.8932,157.571,99.1633,94.5826,0.00579044,0.0889738,20.8437,34.7424,0.397231,0.0,0.0
396,98.75,59.3804,63.6185,158.668,99.1471,93.8731,0.00586131,0.0851046,20.8516,34.7324,0.459107,0.0,0.0
398,99.25,59.1708,63.8761,157.052,99.129,94.2278,0.00589152,0.0831589,20.8549,34.7324,0.425894,0.0,0.0
400,99.75,58.509,62.8915,154.548,99.1068,94.6536,0.00595082,0.0798317,20.8615,34.7124,0.386151,0.0,0.0
402,100.25,58.5824,63.1698,158.477,99.0937,93.3054,0.00599885,0.0764252,20.8677,34.6924,0.505524,0.0,0.0
404,100.75,58.5357,62.5306,161.05,99.0263,94.6536,0.00604792,0.073666,20.8737,34.6824,0.379325,0.0,0.0
406,101.25,58.6108,62.6925,163.553,99.0628,94.5117,0.00608768,0.0711349,20.8793,34.7024,0.395021,0.0,0.0
408,101.75,58.0767,61.9695,159.842,99.029,95.7179,0.00613595,0.0688183,20.8839,34.6924,0.285632,0.0,0.0
410,102.25,57.8524,62.7819,156.988,99.0481,96.0017,0.00618952,0.0669418,20.8876,34.6824,0.262391,0.0,0.0
412,102.75,58.0013,61.7529,153.95,98.9928,95.0083,0.00623291,0.0651572,20.8923,34.7024,0.345062,0.0,0.0
414,103.25,57.7995,61.221,158.865,98.997,93.944,0.00626805,0.0634736,20.8961,34.7124,0.440036,0.0,0.0
416,103.75,57.4386,61.7428,159.308,98.9646,94.015,0.00633983,0.0621099,20.8998,34.7124,0.430948,0.0,0.0
418,104.25,57.5617,61.0735,157.814,98.9578,94.5117,0.00639796,0.060887,20.9034,34.6724,0.386116,0.0,0.0
420,104.75,57.0539,60.8187,154.062,98.9247,94.7955,0.00647055,0.0598965,20.9067,34.6724,0.358122,0.0,0.0
422,105.25,57.3327,60.5038,162.416,98.9217,97.066,0.00652935,0.0590864,20.9098,34.6523,0.159059,0.0,0.0
424,105.75,56.7504,60.5866,156.93,98.9025,93.2345,0.00657697,0.0584232,20.9123,34.6423,0.495698,0.0,0.0
426,106.25,56.7568,60.2809,161.915,98.8898,97.9884,0.00665127,0.057886,20.9143,34.6724,0.076904,0.0,0.0
428,106.75,56.7899,59.8864,160.665,98.8623,95.3631,0.00671145,0.0573622,20.9159,34.6924,0.302673,0.0,0.0
430,107.25,56.5322,59.5585,158.677,98.8668,94.2988,0.00679851,0.056938,20.9173,34.7024,0.397324,0.0,0.0
432,107.75,56.313,59.5641,160.99,98.8217,93.8021,0.00689325,0.0565796,20.9184,34.6824,0.437844,0.0,0.0
434,108.25,56.6202,59.2764,162.749,98.8198,95.0083,0.00699179,0.0562892,20.9192,34.6623,0.330366,0.0,0.0
436,108.75,56.2939,59.1975,163.882,98.7784,95.505,0.00707161,0.0560393,20.9199,34.6523,0.283053,0.0,0.0
438,109.25,55.9058,59.1298,159.438,98.7539,94.8664,0.00717722,0.0558369,20.9205,34.6623,0.337323,0.0,0.0
440,109.75,55.9188,58.9389,159.538,98.737,107.354,0.00726276,0.0556286,20.921,34.6523,-0.702811,0.0,0.0
442,110.25,56.102,58.0932,161.173,98.7374,109.838,0.00736408,0.0554599,20.9216,34.6623,-0.894863,0.0,0.0
444,110.75,55.7898,58.436,162.139,98.7062,108.774,0.00744615,0.0553154,20.9223,34.6623,-0.815734,0.0,0.0
446,111.25,56.0817,58.424,153.923,98.6787,108.915,0.007528,0.0551914,20.9228,34.6724,-0.829023,0.0,0.0
448,111.75,55.1191,57.923,159.935,98.6527,110.406,0.0075943,0.055091,20.9233,34.6724,-0.945361,0.0,0.0
450,112.25,55.0043,57.5492,158.689,98.6539,110.193,0.00764801,0.0550816,20.9237,34.6623,-0.929056,0.0,0.0
452,112.75,54.9023,57.7513,160.751,98.6193,111.754,0.00769824,0.055074,20.924,34.6523,-1.05015,0.0,0.0
454,113.25,55.0622,58.0849,159.932,98.6008,108.845,0.00774499,0.0551222,20.9242,34.6423,-0.830181,0.0,0.0
456,113.75,54.8512,57.7669,158.579,98.5688,110.122,0.00778286,0.0552103,20.9244,34.6323,-0.930887,0.0,0.0
458,114.25,54.8626,57.5451,157.135,98.5436,107.425,0.00783021,0.0552816,20.9245,34.6223,-0.724826,0.0,0.0
460,114.75,54.5889,57.452,159.025,98.5384,108.774,0.00786856,0.0553542,20.9245,34.6123,-0.830024,0.0,0.0
462,115.25,54.435,57.8311,157.421,98.5139,109.696,0.00792401,0.055413,20.9245,34.6323,-0.903035,0.0,0.0
464,115.75,54.7243,57.1077,158.329,98.4868,109.128,0.00796892,0.0555788,20.9244,34.6323,-0.861769,0.0,0.0
466,116.25,54.4499,56.9444,157.513,98.4714,108.915,0.00802456,0.0557131,20.9244,34.6423,-0.846686,0.0,0.0
468,116.75,54.2464,56.5939,158.866,98.4496,108.348,0.00806964,0.0558811,20.9244,34.6123,-0.804658,0.0,0.0
470,117.25,54.1662,56.5686,156.521,98.4417,108.703,0.00812284,0.0560171,20.9244,34.6123,-0.83279,0.0,0.0
472,117.75,54.3265,56.796,157.836,98.4022,107.567,0.00816594,0.0561584,20.9244,34.6223,-0.74798,0.0,0.0
474,118.25,54.4509,56.4184,160.781,98.3916,108.348,0.0082227,0.0563008,20.9242,34.6123,-0.809602,0.0,0.0
476,118.75,54.3014,55.9323,157.813,98.3702,108.135,0.00826868,0.0564162,20.9238,34.6123,-0.794916,0.0,0.0
478,119.25,54.5407,56.3979,157.369,98.3758,107.567,0.00830592,0.0567315,20.9235,34.6023,-0.750228,0.0,0.0
480,119.75,53.8177,56.2004,158.667,98.3446,110.122,0.00835504,0.0569869,20.9232,34.6123,-0.950016,0.0,0.0
482,120.25,53.6841,56.1937,161.978,98.3307,106.858,0.00841189,0.0572793,20.923,34.6023,-0.698496,0.0,0.0
484,120.75,53.895,55.6948,159.813,98.307,111.186,0.00848755,0.0575933,20.9228,34.5923,-1.03402,0.0,0.0
486,121.25,53.6884,55.7719,156.268,98.2731,107.284,0.00854883,0.0579178,20.9227,34.6123,-0.736811,0.0,0.0
488,121.75,53.708,55.9002,161.748,98.2844,110.264,0.00861475,0.0582436,20.9226,34.6023,-0.965975,0.0,0.0
490,122.25,53.3108,55.3935,158.805,98.2607,106.432,0.00868278,0.0585933,20.9225,34.5923,-0.670946,0.0,0.0
492,122.75,53.0086,55.1156,158.375,98.2438,106.361,0.0087535,0.0589536,20.9224,34.5923,-0.666792,0.0,0.0
494,123.25,53.0817,55.4391,159.626,98.2197,107.993,0.00882483,0.0592454,20.9215,34.5823,-0.796745,0.0,0.0
496,123.75,53.5253,55.2931,153.551,98.2261,106.219,0.00889279,0.0595559,20.9207,34.5923,-0.65709,0.0,0.0
498,124.25,52.8503,55.326,160.51,98.1734,105.297,0.00895701,0.0598073,20.9201,34.5823,-0.588338,0.0,0.0
500,124.75,52.9012,54.9187,158.105,98.1911,104.587,0.00900902,0.0600422,20.9196,34.5823,-0.530035,0.0,0.0
502,125.25,53.2817,54.7904,159.751,98.1388,106.219,0.00907568,0.0602605,20.9192,34.5723,-0.664556,0.0,0.0
504,125.75,52.6009,54.4579,161.085,98.1554,105.439,0.00912967,0.0604373,20.9189,34.6023,-0.601195,0.0,0.0
506,126.25,52.5225,55.2403,160.774,98.1008,107.213,0.00917341,0.0606584,20.9186,34.6023,-0.745994,0.0,0.0
508,126.75,53.0556,54.4528,160.383,98.1076,105.439,0.00920883,0.0609077,20.9184,34.5923,-0.605284,0.0,0.0
510,127.25,52.711,54.6443,156.792,98.094,107.496,0.00926724,0.0611096,20.9183,34.5623,-0.768779,0.0,0.0
512,127.75,52.7751,54.7992,155.491,98.1091,107.78,0.00931455,0.0613621,20.9182,34.5522,-0.789637,0.0,0.0
514,128.25,52.6052,54.7176,162.715,98.0602,105.935,0.00936321,0.0615666,20.9181,34.5522,-0.648817,0.0,0.0
516,128.75,52.4003,54.4653,157.56,98.0647,106.432,0.00940262,0.0618063,20.918,34.5522,-0.687718,0.0,0.0
518,129.25,52.5338,54.221,164.757,98.0508,105.793,0.00944359,0.0620004,20.9177,34.5723,-0.638362,0.0,0.0
520,129.75,52.3006,54.148,157.01,98.0463,105.793,0.00947678,0.0622318,20.9173,34.5522,-0.638749,0.0,0.0
522,130.25,52.3853,53.7834,162.077,98.0154,106.787,0.00951272,0.0624192,20.917,34.5522,-0.719891,0.0,0.0
524,130.75,52.5371,53.5258,157.198,98.0369,107.496,0.00954182,0.0626303,20.9167,34.5522,-0.773676,0.0,0.0
526,131.25,52.2793,53.9369,156.586,98.0071,106.148,0.00958351,0.0628012,20.9164,34.5623,-0.670222,0.0,0.0
528,131.75,52.0376,54.0273,159.33,98.038,105.013,0.00961727,0.0629694,20.9162,34.5522,-0.577263,0.0,0.0
530,132.25,52.5973,53.9757,152.51,97.9906,104.516,0.0096718,0.0631055,20.9161,34.5422,-0.541505,0.0,0.0
532,132.75,52.5373,53.8725,158.878,97.9974,105.084,0.00971597,0.0632159,20.916,34.5422,-0.586418,0.0,0.0
534,133.25,51.9189,53.3368,156.898,97.9872,106.29,0.00975174,0.0635147,20.9159,34.5022,-0.683151,0.0,0.0
536,133.75,52.168,53.5962,166.676,97.9857,106.503,0.00979983,0.0637568,20.9158,34.5122,-0.700085,0.0,0.0
538,134.25,52.1736,53.2388,162.385,97.9473,107.071,0.00985598,0.0640388,20.9157,34.5022,-0.748021,0.0,0.0
540,134.75,51.669,53.2634,155.872,97.974,106.716,0.00990146,0.0643444,20.9157,34.5022,-0.717854,0.0,0.0
542,135.25,52.1066,53.7454,156.018,97.9624,105.581,0.0099759,0.064592,20.9153,34.5122,-0.629023,0.0,0.0
544,135.75,51.7887,53.3577,161.312,97.9725,106.787,0.0100362,0.0648371,20.9151,34.5122,-0.723566,0.0,0.0
546,136.25,51.5939,53.3931,159.723,97.9372,106.361,0.0101162,0.0650355,20.9149,34.5022,-0.693047,0.0,0.0
548,136.75,51.8718,53.1689,159.32,97.971,106.503,0.0101905,0.065226,20.9147,34.5022,-0.701342,0.0,0.0
550,137.25,51.7978,53.2175,158.935,97.9421,106.006,0.0102594,0.0653803,20.9143,34.4922,-0.664564,0.0,0.0
552,137.75,51.8582,53.2075,156.856,97.9594,104.232,0.0103151,0.0655349,20.9138,34.4822,-0.521342,0.0,0.0
554,138.25,51.0359,52.9792,157.872,97.9466,106.574,0.0103409,0.0656008,20.9136,34.5222,-0.709033,0.0,0.0
556,138.75,51.3126,52.8345,159.178,97.9447,106.219,0.0103957,0.0657913,20.9131,34.5022,-0.681188,0.0,0.0
558,139.25,51.3626,52.9323,155.487,97.9236,108.986,0.0104053,0.0658472,20.913,34.5022,-0.899009,0.0,0.0
560,139.75,51.4662,53.1343,157.9,97.9545,106.787,0.0104216,0.0659662,20.9127,34.5022,-0.725115,0.0,0.0
562,140.25,51.7763,53.1169,165.572,97.9225,106.148,0.0104349,0.0660837,20.9125,34.5122,-0.677479,0.0,0.0
564,140.75,51.1049,52.9215,158.926,97.9308,103.949,0.0104066,0.0661788,20.9124,34.5122,-0.500893,0.0,0.0
566,141.25,51.0339,52.7516,158.869,97.9308,107.284,0.0103838,0.0662708,20.9122,34.4922,-0.766123,0.0,0.0
568,141.75,51.6916,53.0141,160.21,97.9473,106.432,0.0103484,0.0663452,20.9121,34.4822,-0.697777,0.0,0.0
570,142.25,51.5766,52.5738,157.727,97.9454,106.077,0.0103198,0.0664055,20.9121,34.4922,-0.669895,0.0,0.0
572,142.75,51.1107,52.2861,156.609,97.9518,106.574,0.0102979,0.0664544,20.912,34.4722,-0.708581,0.0,0.0
574,143.25,51.1829,52.6378,158.847,97.9451,105.793,0.0102801,0.066494,20.9119,34.4722,-0.647424,0.0,0.0
576,143.75,51.4077,52.7278,156.742,97.962,105.864,0.0102808,0.0666744,20.9119,34.4722,-0.651603,0.0,0.0
578,144.25,51.1899,52.6777,161.407,97.9507,105.439,0.0102948,0.0668206,20.9119,34.4421,-0.618726,0.0,0.0
580,144.75,51.731,53.154,158.052,97.9451,106.077,0.0103199,0.0671469,20.9118,34.4421,-0.669927,0.0,0.0
582,145.25,51.5816,52.5177,157.835,97.9628,106.787,0.0103524,0.0674112,20.9118,34.4221,-0.724405,0.0,0.0
584,145.75,51.4254,52.8205,158.559,97.9601,108.064,0.0103788,0.0677441,20.9118,34.4321,-0.824491,0.0,0.0
586,146.25,51.2455,52.4613,158.099,97.9624,106.219,0.0104184,0.0680137,20.9113,34.4321,-0.679671,0.0,0.0
588,146.75,50.94,52.6943,153.82,97.9801,105.439,0.0104504,0.0682712,20.9105,34.4321,-0.61621,0.0,0.0
590,147.25,51.0229,52.8939,159.582,97.9816,106.574,0.0104764,0.068515,20.9099,34.4221,-0.706033,0.0,0.0
592,147.75,51.3078,52.618,154.899,97.994,105.439,0.0105026,0.0687124,20.9093,34.4121,-0.615017,0.0,0.0
594,148.25,50.8447,52.2478,157.177,98.0034,106.858,0.0105238,0.0688426,20.9089,34.4121,-0.726501,0.0,0.0
596,148.75,50.9884,52.7428,158.933,97.9883,107.284,0.0105371,0.0689481,20.9086,34.4221,-0.761187,0.0,0.0
598,149.25,50.5621,52.6416,156.419,98.0165,108.419,0.0105479,0.0690335,20.9083,34.4221,-0.847182,0.0,0.0
600,149.75,51.2267,52.4216,160.375,98.0184,106.077,0.0105566,0.0690871,20.9081,34.4121,-0.663637,0.0,0.0
602,150.25,51.1816,52.7383,157.604,98.0184,105.864,0.0105611,0.0691164,20.9081,34.4021,-0.646766,0.0,0.0
604,150.75,50.9399,52.3625,160.677,98.0237,107.354,0.0105647,0.0691871,20.9083,34.4121,-0.76371,0.0,0.0
606,151.25,50.9741,52.5104,160.3,98.0515,105.51,0.0105845,0.0692865,20.9085,34.4121,-0.615735,0.0,0.0
608,151.75,50.8967,52.1849,160.931,98.0636,104.516,0.0106006,0.0694453,20.9086,34.4221,-0.535252,0.0,0.0
610,152.25,51.105,52.2897,156.863,98.082,106.574,0.0106448,0.0696443,20.9087,34.4121,-0.697427,0.0,0.0
612,152.75,50.842,52.0464,157.288,98.0655,110.122,0.0106806,0.0698603,20.9088,34.4021,-0.973891,0.0,0.0
614,153.25,50.8627,52.3378,154.328,98.0764,106.503,0.0107447,0.0700845,20.9089,34.4221,-0.692316,0.0,0.0
616,153.75,51.2114,52.7113,153.918,98.0756,106.29,0.0107967,0.0702661,20.9089,34.4121,-0.675577,0.0,0.0
618,154.25,50.8553,52.1345,164.532,98.0948,106.432,0.0108387,0.0703814,20.909,34.4021,-0.68514,0.0,0.0
620,154.75,51.2259,52.3955,163.93,98.088,107.78,0.0108906,0.0704749,20.909,34.3821,-0.791441,0.0,0.0
622,155.25,51.2119,52.3114,156.641,98.1151,105.581,0.0109487,0.0705897,20.9091,34.3821,-0.615937,0.0,0.0
624,155.75,50.8386,52.1836,155.663,98.1125,108.277,0.0110039,0.0707179,20.9091,34.3721,-0.827964,0.0,0.0
626,156.25,50.6959,52.3013,156.744,98.1328,107.354,0.011056,0.0708218,20.909,34.3721,-0.754366,0.0,0.0
628,156.75,50.9121,52.5008,156.86,98.1245,106.787,0.0111003,0.0709951,20.9088,34.3821,-0.710546,0.0,0.0
630,157.25,50.4709,52.0196,161.286,98.1561,107.78,0.0111381,0.0711355,20.9087,34.4021,-0.785612,0.0,0.0
632,157.75,50.7241,52.1364,160.706,98.1471,108.348,0.0111686,0.0713087,20.9087,34.4021,-0.830504,0.0,0.0
634,158.25,51.0074,51.7435,159.106,98.1787,106.361,0.0111934,0.071449,20.9086,34.3721,-0.672358,0.0,0.0
636,158.75,50.1616,51.9694,152.11,98.1874,105.652,0.0112128,0.0715775,20.9086,34.3921,-0.615398,0.0,0.0
638,159.25,50.924,51.5795,157.294,98.205,106.432,0.0112278,0.0716816,20.9083,34.3721,-0.675707,0.0,0.0
640,159.75,50.7345,51.8793,155.655,98.2013,105.793,0.0112387,0.0717362,20.9079,34.3821,-0.625482,0.0,0.0
642,160.25,50.3791,51.8561,157.175,98.2381,107.709,0.0112462,0.0717804,20.9075,34.3621,-0.773066,0.0,0.0
644,160.75,50.5047,51.7855,163.085,98.234,107.922,0.0112523,0.0717849,20.9072,34.3521,-0.790002,0.0,0.0
646,161.25,50.4231,51.7118,154.124,98.2649,107.993,0.011247,0.0717604,20.907,34.3521,-0.792886,0.0,0.0
648,161.75,50.5696,52.1016,157.237,98.2607,106.716,0.0112334,0.071717,20.9068,34.3521,-0.693313,0.0,0.0
650,162.25,50.2777,51.5605,158.765,98.2746,107.496,0.0112094,0.0716608,20.9067,34.3521,-0.753331,0.0,0.0
652,162.75,50.3178,51.762,159.937,98.2697,109.128,0.0111782,0.0716152,20.9066,34.322,-0.880303,0.0,0.0
654,163.25,50.4875,51.7417,157.727,98.3047,107.142,0.0111529,0.0715337,20.9065,34.332,-0.722993,0.0,0.0
656,163.75,50.5391,51.7889,157.854,98.3108,106.716,0.0110961,0.0714677,20.9064,34.322,-0.689038,0.0,0.0
658,164.25,50.4803,52.0382,153.915,98.3401,108.986,0.01105,0.0713595,20.9063,34.322,-0.863363,0.0,0.0
660,164.75,50.5933,52.1378,159.871,98.3217,105.793,0.0109685,0.0712225,20.9063,34.322,-0.615191,0.0,0.0
662,165.25,50.3079,51.7642,159.558,98.3871,108.986,0.0109025,0.071097,20.9062,34.302,-0.859347,0.0,0.0
664,165.75,50.3137,51.7045,159.679,98.3634,108.135,0.0108257,0.0709822,20.9062,34.302,-0.795494,0.0,0.0
666,166.25,50.6891,51.5229,157.778,98.3871,110.476,0.0107634,0.0708579,20.9063,34.292,-0.973402,0.0,0.0
668,166.75,50.5012,52.0427,157.304,98.3931,107.993,0.0107103,0.070729,20.9067,34.272,-0.781928,0.0,0.0
670,167.25,50.7543,51.5821,162.421,98.4364,106.503,0.0106648,0.0706247,20.9072,34.272,-0.661539,0.0,0.0
672,167.75,50.7529,51.4713,160.326,98.4168,107.071,0.0106279,0.0705847,20.9075,34.292,-0.707855,0.0,0.0
674,168.25,50.1904,51.5319,158.571,98.4334,108.206,0.0106241,0.0705524,20.9079,34.292,-0.79503,0.0,0.0
676,168.75,50.1444,52.032,158.513,98.4605,108.348,0.0106209,0.0705966,20.9081,34.292,-0.803727,0.0,0.0
678,169.25,49.8553,51.5444,155.351,98.4714,108.632,0.0106431,0.0706957,20.9083,34.302,-0.82477,0.0,0.0
680,169.75,50.2818,51.1322,158.878,98.4582,106.361,0.010661,0.0708152,20.9085,34.302,-0.648479,0.0,0.0
682,170.25,50.1006,51.6203,158.862,98.5162,107.284,0.0106769,0.0709471,20.9086,34.302,-0.716065,0.0,0.0
684,170.75,49.8995,51.3504,155.343,98.5094,107.709,0.010691,0.0710619,20.9087,34.292,-0.749906,0.0,0.0
686,171.25,49.9225,51.7265,160.21,98.5305,107.142,0.0106942,0.0711618,20.9088,34.292,-0.703728,0.0,0.0
688,171.75,49.8657,51.5205,160.498,98.5271,109.341,0.0106894,0.0712428,20.9089,34.282,-0.874705,0.0,0.0
690,172.25,49.9178,51.125,156.821,98.5677,109.909,0.0106855,0.0713006,20.9085,34.292,-0.914732,0.0,0.0
692,172.75,50.0162,51.5346,156.25,98.5406,107.425,0.010666,0.0713403,20.9081,34.272,-0.725083,0.0,0.0
694,173.25,50.121,50.7425,157.985,98.5914,106.432,0.0106354,0.0713569,20.9078,34.262,-0.642726,0.0,0.0
696,173.75,50.2561,50.7848,159.81,98.5982,107.213,0.0106106,0.0713562,20.9075,34.242,-0.703519,0.0,0.0
698,174.25,50.0294,51.4861,160.664,98.6208,107.213,0.0105906,0.0713556,20.9073,34.2319,-0.701596,0.0,0.0
700,174.75,49.7104,50.8833,158.634,98.6166,107.496,0.0105743,0.0713849,20.9071,34.2319,-0.724153,0.0,0.0
702,175.25,49.7835,51.3977,160.9,98.6414,107.709,0.0105748,0.0714086,20.9069,34.2219,-0.738654,0.0,0.0
704,175.75,49.9906,51.0331,156.056,98.6749,109.199,0.0105875,0.0714278,20.9072,34.2319,-0.851202,0.0,0.0
706,176.25,50.0812,51.3091,160.752,98.6779,107.851,0.0105978,0.0713988,20.9075,34.2119,-0.746607,0.0,0.0
708,176.75,49.5273,51.4368,159.813,98.7197,108.49,0.0106282,0.0713753,20.9077,34.1819,-0.792638,0.0,0.0
710,177.25,49.9974,50.926,158.823,98.7111,107.851,0.0106529,0.0714157,20.9079,34.2019,-0.743789,0.0,0.0
712,177.75,50.5713,51.001,160.643,98.7378,108.774,0.010691,0.0714485,20.908,34.2019,-0.813046,0.0,0.0
714,178.25,49.844,51.3745,157.792,98.7667,107.071,0.010722,0.0715493,20.9081,34.2119,-0.678048,0.0,0.0
716,178.75,49.919,51.18,160.045,98.7675,110.264,0.0107535,0.071631,20.9082,34.242,-0.924795,0.0,0.0
718,179.25,50.5714,51.6387,161.205,98.7972,107.354,0.0107791,0.071727,20.9083,34.252,-0.697692,0.0,0.0
720,179.75,50.0546,51.3559,156.815,98.8013,106.645,0.0108024,0.0718047,20.9083,34.2319,-0.641642,0.0,0.0
722,180.25,49.6214,51.0023,165.441,98.8183,107.567,0.0108212,0.0718527,20.9084,34.242,-0.712539,0.0,0.0
724,180.75,49.7339,50.938,158.407,98.8427,108.206,0.0108378,0.0718917,20.9084,34.1819,-0.760176,0.0,0.0
726,181.25,49.9422,50.8949,157.651,98.8668,107.638,0.0108513,0.0718606,20.9084,34.1819,-0.713953,0.0,0.0
728,181.75,50.2519,50.7386,160.961,98.8781,106.077,0.0108621,0.0717791,20.9084,34.1819,-0.590295,0.0,0.0
730,182.25,49.8806,51.0996,159.007,98.8999,107.213,0.0108619,0.071713,20.9085,34.1819,-0.677855,0.0,0.0
732,182.75,49.9853,51.3226,158.756,98.915,108.277,0.0108616,0.0716447,20.9085,34.2119,-0.759546,0.0,0.0
734,183.25,50.1169,51.0455,157.982,98.9387,107.638,0.0108458,0.0715893,20.9085,34.2019,-0.707851,0.0,0.0
736,183.75,50.1284,50.7335,158.61,98.9721,109.767,0.010833,0.0715445,20.9085,34.2219,-0.869488,0.0,0.0
738,184.25,49.9522,50.8478,162.206,98.9695,106.432,0.0108032,0.0715081,20.9085,34.2119,-0.610577,0.0,0.0
740,184.75,49.7857,50.8314,163.145,98.9902,108.419,0.010779,0.0714787,20.9085,34.1819,-0.76416,0.0,0.0
742,185.25,49.9734,50.7568,157.648,99.0083,107.213,0.0107386,0.0714549,20.9085,34.1919,-0.668658,0.0,0.0
744,185.75,49.4203,51.0891,161.185,99.0015,107.709,0.0107059,0.071389,20.9085,34.1819,-0.708054,0.0,0.0
746,186.25,49.4108,51.0213,160.348,99.0361,107.071,0.0106651,0.0713356,20.9085,34.1519,-0.655172,0.0,0.0
748,186.75,49.6227,50.4737,157.088,99.0534,108.348,0.010632,0.0713072,20.9085,34.1619,-0.7533,0.0,0.0
750,187.25,49.6158,50.7903,155.523,99.0745,108.277,0.0106114,0.0712842,20.9085,34.1719,-0.746011,0.0,0.0
752,187.75,49.6555,50.7968,159.957,99.0812,107.071,0.0106002,0.0712656,20.9083,34.1919,-0.651344,0.0,0.0
754,188.25,49.5721,50.5819,159.96,99.1211,108.206,0.0105912,0.0712654,20.9082,34.2119,-0.736552,0.0,0.0
756,188.75,49.061,50.8902,160.675,99.1381,112.037,0.010602,0.0712653,20.9081,34.2119,-1.02739,0.0,0.0
758,189.25,49.6698,50.7079,158.299,99.1557,108.915,0.0106108,0.0712503,20.908,34.2219,-0.788516,0.0,0.0
760,189.75,49.6463,50.8881,159.265,99.1764,108.845,0.0106205,0.0712381,20.908,34.2119,-0.78129,0.0,0.0
762,190.25,49.0151,50.6004,158.626,99.1832,108.419,0.0106284,0.0712282,20.9079,34.2119,-0.747801,0.0,0.0
764,190.75,49.1464,50.3452,157.504,99.1554,110.689,0.0106374,0.0712203,20.9079,34.1719,-0.92424,0.0,0.0
766,191.25,49.3559,50.4361,154.918,99.2077,111.825,0.0106447,0.0712295,20.9078,34.1519,-1.00552,0.0,0.0
768,191.75,49.5737,50.4293,158.542,99.2389,111.399,0.0106506,0.071251,20.9078,34.1519,-0.970838,0.0,0.0
770,192.25,49.1146,50.7283,162.159,99.155,108.419,0.0106553,0.0712997,20.9078,34.1519,-0.750191,0.0,0.0
772,192.75,49.6137,50.5876,162.798,99.2953,108.277,0.0106657,0.0713674,20.9078,34.1519,-0.72731,0.0,0.0
774,193.25,49.2283,50.6355,160.068,99.3062,107.993,0.0106741,0.0714065,20.9078,34.1319,-0.704343,0.0,0.0
776,193.75,49.4445,50.9052,154.411,99.3232,106.858,0.0106913,0.0714242,20.9077,34.1319,-0.614147,0.0,0.0
778,194.25,49.6783,50.5024,159.657,99.3367,111.186,0.0107052,0.0714384,20.9077,34.1319,-0.946498,0.0,0.0
780,194.75,49.1043,50.4922,161.462,99.3698,109.128,0.0107165,0.0714813,20.9077,34.1419,-0.786802,0.0,0.0
782,195.25,49.5045,50.7406,157.055,99.3758,108.774,0.0107256,0.0715442,20.9077,34.1419,-0.758943,0.0,0.0
784,195.75,49.1506,50.3525,154.888,99.4086,109.341,0.0107512,0.0715951,20.9077,34.1118,-0.799894,0.0,0.0
786,196.25,49.0433,50.798,158.502,99.3867,107.993,0.010772,0.0716531,20.9076,34.1118,-0.697537,0.0,0.0
788,196.75,49.5389,50.5444,161.739,99.4206,110.618,0.0107915,0.0717151,20.9074,34.1018,-0.896418,0.0,0.0
790,197.25,49.5426,50.6859,157.353,99.4213,109.625,0.0108099,0.0717888,20.9073,34.1018,-0.820588,0.0,0.0
792,197.75,49.2102,50.5035,159.442,99.4251,108.135,0.0108247,0.0718696,20.9073,34.0718,-0.705324,0.0,0.0
794,198.25,49.8255,51.1704,158.484,99.433,109.767,0.0108471,0.0719351,20.9074,34.0718,-0.830468,0.0,0.0
796,198.75,49.1459,50.9441,158.696,99.4665,108.703,0.0108653,0.072003,20.9074,34.0518,-0.745802,0.0,0.0
798,199.25,49.7589,50.5411,159.127,99.4563,110.193,0.0108865,0.072058,20.9073,34.0518,-0.861011,0.0,0.0
800,199.75,49.409,50.4923,162.346,99.4849,107.993,0.0109037,0.0721182,20.9069,34.0618,-0.689242,0.0,0.0
802,200.25,49.7109,50.3985,160.293,99.4872,108.632,0.010919,0.0721811,20.9066,34.0618,-0.738571,0.0,0.0
804,200.75,49.1254,50.9715,158.501,99.5226,110.122,0.0109313,0.0723064,20.9064,34.0518,-0.850011,0.0,0.0
806,201.25,48.9071,50.6065,156.525,99.5207,109.98,0.0109426,0.0724078,20.9062,34.0017,-0.839339,0.0,0.0
808,201.75,49.1106,50.6541,161.459,99.5395,109.199,0.0109517,0.0725449,20.9061,34.0418,-0.777932,0.0,0.0
810,202.25,49.2546,50.6332,161.048,99.547,108.49,0.0109591,0.0727052,20.906,34.0418,-0.722544,0.0,0.0
812,202.75,49.212,50.7374,160.431,99.5752,107.78,0.0109847,0.0728351,20.9059,34.0318,-0.66505,0.0,0.0
814,203.25,49.5433,50.2372,159.422,99.5572,109.625,0.0110197,0.0731039,20.9058,34.0318,-0.809122,0.0,0.0
816,203.75,49.149,50.7013,157.833,99.5786,108.774,0.0110611,0.0733218,20.9053,34.0518,-0.741822,0.0,0.0
818,204.25,48.9107,50.4831,154.94,99.5854,108.703,0.0110946,0.0735428,20.9049,34.0318,-0.73577,0.0,0.0
820,204.75,49.1617,50.6467,157.796,99.617,108.277,0.0111426,0.0737219,20.9046,34.0418,-0.700146,0.0,0.0
822,205.25,49.2599,50.7194,157.531,99.5903,110.051,0.0111815,0.073867,20.9043,34.0418,-0.838884,0.0,0.0
824,205.75,49.4275,50.7865,165.745,99.626,109.128,0.0112116,0.0739845,20.9041,34.0418,-0.765174,0.0,0.0
826,206.25,49.481,50.7082,156.802,99.6339,107.922,0.0112465,0.074099,20.9038,34.0318,-0.671153,0.0,0.0
828,206.75,48.9522,49.9656,164.289,99.6497,109.128,0.0112456,0.0741298,20.9038,34.0418,-0.763176,0.0,0.0
830,207.25,49.3777,50.8401,162.066,99.6444,108.561,0.0112441,0.0741276,20.9037,34.0518,-0.719818,0.0,0.0
832,207.75,49.2786,51.1514,161.01,99.6674,108.774,0.0112264,0.0740765,20.9036,34.0318,-0.734336,0.0,0.0
834,208.25,49.2224,50.2311,158.88,99.6738,110.406,0.0111972,0.0740351,20.9035,34.0318,-0.858876,0.0,0.0
836,208.75,49.6304,50.8394,165.218,99.6885,108.845,0.0111736,0.073942,20.9034,34.0218,-0.738038,0.0,0.0
838,209.25,49.1254,50.7648,156.443,99.7212,109.838,0.0111243,0.0738667,20.9034,34.0117,-0.811587,0.0,0.0
840,209.75,49.0222,50.5253,156.589,99.7208,108.348,0.0110573,0.0738213,20.9033,34.0117,-0.696897,0.0,0.0