File: 01_Data/Cotton_Sheet/FTIR/IS/Cotton_Sheet_IS_T_220826_R7.dpt
7497.03,0.02417
7491.25,0.02778
7485.46,0.03457
7479.67,0.02974
7473.89,0.02719
7468.1,0.03229
7462.32,0.02986
7456.53,0.02859
7450.74,0.02866
7444.96,0.03124
7439.17,0.03111
7433.38,0.03393
7427.6,0.02722
7421.81,0.01779
7416.03,0.03339
7410.24,0.03179
7404.45,0.02808
7398.67,0.02748
7392.88,0.02323
7387.09,0.02025
7381.31,0.02233
7375.52,0.02286
7369.74,0.02145
7363.95,0.02085
7358.16,0.02135
7352.38,0.02184
7346.59,0.02577
7340.8,0.02731
7335.02,0.02930
7329.23,0.02459
7323.45,0.02224
7317.66,0.02043
7311.87,0.02344
7306.09,0.02512
7300.3,0.01966
7294.51,0.02652
7288.73,0.02542
7282.94,0.02898
7277.16,0.02770
7271.37,0.02364
7265.58,0.02824
7259.8,0.01946
7254.01,0.03009
7248.22,0.02133
7242.44,0.02753
7236.65,0.02410
7230.87,0.03068
7225.08,0.02172
7219.29,0.02238
7213.51,0.02175
7207.72,0.02929
7201.93,0.03372
7196.15,0.02915
7190.36,0.02449
7184.58,0.02420
7178.79,0.03300
7173,0.02544
7167.22,0.02436
7161.43,0.02682
7155.65,0.02464
7149.86,0.02430
7144.07,0.01792
7138.29,0.03380
7132.5,0.02472
7126.71,0.02340
7120.93,0.02282
7115.14,0.02276
7109.36,0.02417
7103.57,0.02422
7097.78,0.02652
7092,0.02785
7086.21,0.02612
7080.42,0.02454
7074.64,0.02562
7068.85,0.03054
7063.07,0.02908
7057.28,0.01685
7051.49,0.02341
7045.71,0.02162
7039.92,0.02546
7034.13,0.02202
7028.35,0.02681
7022.56,0.02215
7016.78,0.02456
7010.99,0.02054
7005.2,0.02916
6999.42,0.02649
6993.63,0.02675
6987.84,0.02512
6982.06,0.02796
6976.27,0.02842
6970.49,0.02439
6964.7,0.02358
6958.91,0.02778
6953.13,0.02447
6947.34,0.02282
6941.55,0.02572
6935.77,0.02069
6929.98,0.02653
6924.2,0.02649
6918.41,0.02575
6912.62,0.02945
6906.84,0.02570
6901.05,0.02132
6895.26,0.02527
6889.48,0.02612
6883.69,0.02704
6877.91,0.02407
6872.12,0.02780
6866.33,0.02420
6860.55,0.02370
6854.76,0.02496
6848.97,0.02003
6843.19,0.02347
6837.4,0.02705
6831.62,0.02150
6825.83,0.02331
6820.04,0.01858
6814.26,0.02707
6808.47,0.02246
6802.68,0.02317
6796.9,0.02943
6791.11,0.02296
6785.33,0.02350
6779.54,0.02976
6773.75,0.02474
6767.97,0.02488
6762.18,0.02527
6756.39,0.02236
6750.61,0.02693
6744.82,0.02337
6739.04,0.02439
6733.25,0.02546
6727.46,0.02379
6721.68,0.01826
6715.89,0.02098
6710.1,0.02036
6704.32,0.02247
6698.53,0.02215
6692.75,0.01886
6686.96,0.02080
6681.17,0.02411
6675.39,0.02492
6669.6,0.02550
6663.82,0.02143
6658.03,0.02048
6652.24,0.02483
6646.46,0.02186
6640.67,0.01706
6634.88,0.02391
6629.1,0.01824
6623.31,0.02465
6617.53,0.02121
6611.74,0.02266
6605.95,0.01788
6600.17,0.02359
6594.38,0.02356
6588.59,0.02357
6582.81,0.02469
6577.02,0.02554
6571.24,0.02159
6565.45,0.02292
6559.66,0.02646
6553.88,0.02296
6548.09,0.02342
6542.3,0.02286
6536.52,0.02282
6530.73,0.02523
6524.95,0.02678
6519.16,0.02203
6513.37,0.02296
6507.59,0.02383
6501.8,0.02410
6496.01,0.02627
6490.23,0.01830
6484.44,0.02053
6478.66,0.02192
6472.87,0.02444
6467.08,0.02340
6461.3,0.02163
6455.51,0.02446
6449.72,0.02392
6443.94,0.01428
6438.15,0.02206
6432.37,0.02447
6426.58,0.02398
6420.79,0.02409
6415.01,0.02305
6409.22,0.02263
6403.43,0.02294
6397.65,0.02228
6391.86,0.02585
6386.08,0.02378
6380.29,0.01950
6374.5,0.02202
6368.72,0.02248
6362.93,0.02365
6357.14,0.02151
6351.36,0.02346
6345.57,0.02055
6339.79,0.02372
6334,0.02337
6328.21,0.02503
6322.43,0.02380
6316.64,0.01921
6310.85,0.02382
6305.07,0.02281
6299.28,0.02352
6293.5,0.02306
6287.71,0.02006
6281.92,0.02266
6276.14,0.02035
6270.35,0.01986
6264.56,0.02098
6258.78,0.02093
6252.99,0.02480
6247.21,0.02228
6241.42,0.02362
6235.63,0.02092
6229.85,0.02256
6224.06,0.02332
6218.27,0.02061
6212.49,0.02198
6206.7,0.02367
6200.92,0.02305
6195.13,0.02122
6189.34,0.02137
6183.56,0.02418
6177.77,0.02009
6171.98,0.02155
6166.2,0.01952
6160.41,0.02129
6154.63,0.01790
6148.84,0.02195
6143.05,0.02184
6137.27,0.02250
6131.48,0.02276
6125.7,0.02165
6119.91,0.02178
6114.12,0.02201
6108.34,0.02491
6102.55,0.02243
6096.76,0.02236
6090.98,0.02038
6085.19,0.02417
6079.41,0.02314
6073.62,0.02237
6067.83,0.02119
6062.05,0.02313
6056.26,0.02362
6050.47,0.02312
6044.69,0.02076
6038.9,0.02229
6033.12,0.02137
6027.33,0.02183
6021.54,0.02235
6015.76,0.02304
6009.97,0.02141
6004.18,0.02095
5998.4,0.02269
5992.61,0.01879
5986.83,0.02166
5981.04,0.02072
5975.25,0.02334
5969.47,0.02327
5963.68,0.01960
5957.89,0.02298
5952.11,0.02181
5946.32,0.02217
5940.54,0.02269
5934.75,0.02311
5928.96,0.02189
5923.18,0.02126
5917.39,0.01973
5911.6,0.02114
5905.82,0.02141
5900.03,0.02234
5894.25,0.02260
5888.46,0.02241
5882.67,0.02249
5876.89,0.02135
5871.1,0.02104
5865.31,0.02090
5859.53,0.02181
5853.74,0.02471
5847.96,0.02100
5842.17,0.02130
5836.38,0.02351
5830.6,0.02199
5824.81,0.02343
5819.02,0.02289
5813.24,0.02248
5807.45,0.02286
5801.67,0.02162
5795.88,0.02438
5790.09,0.01914
5784.31,0.02116
5778.52,0.02415
5772.73,0.02180
5766.95,0.02237
5761.16,0.01927
5755.38,0.02250
5749.59,0.02166
5743.8,0.02115
5738.02,0.02186
5732.23,0.02145
5726.44,0.02220
5720.66,0.02124
5714.87,0.02277
5709.09,0.02331
5703.3,0.02156
5697.51,0.02150
5691.73,0.02118
5685.94,0.02109
5680.15,0.02010
5674.37,0.02394
5668.58,0.02221
5662.8,0.02057
5657.01,0.02159
5651.22,0.02323
5645.44,0.02287
5639.65,0.02263
5633.87,0.02014
5628.08,0.02310
5622.29,0.02191
5616.51,0.02084
5610.72,0.02146
5604.93,0.02304
5599.15,0.02299
5593.36,0.02216
5587.58,0.02180
5581.79,0.02292
5576,0.02005
5570.22,0.02081
5564.43,0.02155
5558.64,0.02324
5552.86,0.02347
5547.07,0.02161
5541.29,0.02174
5535.5,0.02182
5529.71,0.02334
5523.93,0.02294
5518.14,0.02088
5512.35,0.02245
5506.57,0.02163
5500.78,0.02182
5495,0.02234
5489.21,0.02208
5483.42,0.02027
5477.64,0.02193
5471.85,0.02260
5466.06,0.02254
5460.28,0.02074
5454.49,0.02223
5448.71,0.02185
5442.92,0.02170
5437.13,0.02220
5431.35,0.02101
5425.56,0.02234
5419.77,0.02185
5413.99,0.02241
5408.2,0.02179
5402.42,0.02182
5396.63,0.02018
5390.84,0.01987
5385.06,0.02057
5379.27,0.02187
5373.48,0.02039
5367.7,0.02116
5361.91,0.02084
5356.13,0.02228
5350.34,0.02226
5344.55,0.02020
5338.77,0.02265
5332.98,0.02090
5327.19,0.02280
5321.41,0.02398
5315.62,0.02265
5309.84,0.02342
5304.05,0.02340
5298.26,0.02301
5292.48,0.02161
5286.69,0.02255
5280.9,0.02238
5275.12,0.02255
5269.33,0.02234
5263.55,0.02278
5257.76,0.02329
5251.97,0.02200
5246.19,0.02145
5240.4,0.02235
5234.61,0.02250
5228.83,0.02212
5223.04,0.02240
5217.26,0.02309
5211.47,0.02298
5205.68,0.02119
5199.9,0.02296
5194.11,0.02234
5188.32,0.02202
5182.54,0.02157
5176.75,0.02111
5170.97,0.02280
5165.18,0.02258
5159.39,0.02263
5153.61,0.02301
5147.82,0.02279
5142.03,0.02116
5136.25,0.02220
5130.46,0.02209
5124.68,0.02250
5118.89,0.02216
5113.1,0.02210
5107.32,0.02256
5101.53,0.02231
5095.75,0.02185
5089.96,0.02199
5084.17,0.02243
5078.39,0.02217
5072.6,0.02144
5066.81,0.02218
5061.03,0.02322
5055.24,0.02274
5049.46,0.02255
5043.67,0.02256
5037.88,0.02317
5032.1,0.02327
5026.31,0.02240
5020.52,0.02274
5014.74,0.02227
5008.95,0.02177
5003.17,0.02213
4997.38,0.02274
4991.59,0.02270
4985.81,0.02160
4980.02,0.02273
4974.23,0.02238
4968.45,0.02314
4962.66,0.02245
4956.88,0.02295
4951.09,0.02256
4945.3,0.02272
4939.52,0.02309
4933.73,0.02258
4927.94,0.02173
4922.16,0.02143
4916.37,0.02212
4910.59,0.02445
4904.8,0.02236
4899.01,0.02217
4893.23,0.02221
4887.44,0.02190
4881.65,0.02257
4875.87,0.02131
4870.08,0.02250
4864.3,0.02170
4858.51,0.02222
4852.72,0.02303
4846.94,0.02217
4841.15,0.02248
4835.36,0.02360
4829.58,0.02148
4823.79,0.02178
4818.01,0.02168
4812.22,0.02149
4806.43,0.02167
4800.65,0.02273
4794.86,0.02291
4789.07,0.02218
4783.29,0.02311
4777.5,0.02231
4771.72,0.02217
4765.93,0.02253
4760.14,0.02223
4754.36,0.02297
4748.57,0.02161
4742.78,0.02238
4737,0.02338
4731.21,0.02240
4725.43,0.02200
4719.64,0.02244
4713.85,0.02295
4708.07,0.02286
4702.28,0.02260
4696.49,0.02324
4690.71,0.02319
4684.92,0.02327
4679.14,0.02303
4673.35,0.02256
4667.56,0.02238
4661.78,0.02279
4655.99,0.02324
4650.2,0.02193
4644.42,0.02263
4638.63,0.02252
4632.85,0.02223
4627.06,0.02294
4621.27,0.02315
4615.49,0.02252
4609.7,0.02246
4603.92,0.02252
4598.13,0.02279
4592.34,0.02225
4586.56,0.02168
4580.77,0.02261
4574.98,0.02251
4569.2,0.02301
4563.41,0.02252
4557.63,0.02276
4551.84,0.02278
4546.05,0.02314
4540.27,0.02358
4534.48,0.02257
4528.69,0.02274
4522.91,0.02176
4517.12,0.02222
4511.34,0.02179
4505.55,0.02240
4499.76,0.02170
4493.98,0.02275
4488.19,0.02278
4482.4,0.02246
4476.62,0.02264
4470.83,0.02306
4465.05,0.02258
4459.26,0.02272
4453.47,0.02317
4447.69,0.02211
4441.9,0.02247
4436.11,0.02244
4430.33,0.02210
4424.54,0.02188
4418.76,0.02297
4412.97,0.02318
4407.18,0.02292
4401.4,0.02279
4395.61,0.02310
4389.82,0.02199
4384.04,0.02189
4378.25,0.02261
4372.47,0.02282
4366.68,0.02262
4360.89,0.02297
4355.11,0.02241
4349.32,0.02247
4343.53,0.02246
4337.75,0.02240
4331.96,0.02221
4326.18,0.02255
4320.39,0.02200
4314.6,0.02160
4308.82,0.02246
4303.03,0.02266
4297.24,0.02312
4291.46,0.02202
4285.67,0.02265
4279.89,0.02210
4274.1,0.02278
4268.31,0.02174
4262.53,0.02208
4256.74,0.02268
4250.95,0.02342
4245.17,0.02238
4239.38,0.02216
4233.6,0.02274
4227.81,0.02265
4222.02,0.02273
4216.24,0.02307
4210.45,0.02276
4204.66,0.02298
4198.88,0.02307
4193.09,0.02322
4187.31,0.02244
4181.52,0.02324
4175.73,0.02250
4169.95,0.02229
4164.16,0.02302
4158.37,0.02259
4152.59,0.02330
4146.8,0.02303
4141.02,0.02266
4135.23,0.02230
4129.44,0.02243
4123.66,0.02260
4117.87,0.02265
4112.09,0.02219
4106.3,0.02268
4100.51,0.02276
4094.73,0.02196
4088.94,0.02289
4083.15,0.02252
4077.37,0.02332
4071.58,0.02231
4065.8,0.02297
4060.01,0.02286
4054.22,0.02222
4048.44,0.02230
4042.65,0.02222
4036.86,0.02252
4031.08,0.02236
4025.29,0.02268
4019.51,0.02282
4013.72,0.02258
4007.93,0.02318
4002.15,0.02303
3996.36,0.02279
3990.57,0.02270
3984.79,0.02299
3979,0.02216
3973.22,0.02239
3967.43,0.02239
3961.64,0.02237
3955.86,0.02218
3950.07,0.02260
3944.28,0.02317
3938.5,0.02292
3932.71,0.02261
3926.93,0.02288
3921.14,0.02301
3915.35,0.02270
3909.57,0.02254
3903.78,0.02318
3897.99,0.02254
3892.21,0.02284
3886.42,0.02312
3880.64,0.02303
3874.85,0.02349
3869.06,0.02202
3863.28,0.02295
3857.49,0.02304
3851.7,0.02241
3845.92,0.02307
3840.13,0.02245
3834.35,0.02291
3828.56,0.02353
3822.77,0.02332
3816.99,0.02296
3811.2,0.02258
3805.41,0.02280
3799.63,0.02303
3793.84,0.02260
3788.06,0.02272
3782.27,0.02269
3776.48,0.02278
3770.7,0.02277
3764.91,0.02263
3759.12,0.02323
3753.34,0.02235
3747.55,0.02250
3741.77,0.02294
3735.98,0.02262
3730.19,0.02301
3724.41,0.02246
3718.62,0.02256
3712.83,0.02275
3707.05,0.02262
3701.26,0.02259
3695.48,0.02306
3689.69,0.02194
3683.9,0.02235
3678.12,0.02165
3672.33,0.02177
3666.54,0.02229
3660.76,0.02214
3654.97,0.02200
3649.19,0.02275
3643.4,0.02240
3637.61,0.02196
3631.83,0.02213
3626.04,0.02198
3620.25,0.02224
3614.47,0.02248
3608.68,0.02172
3602.9,0.02208
3597.11,0.02182
3591.32,0.02256
3585.54,0.02165
3579.75,0.02179
3573.97,0.02219
3568.18,0.02167
3562.39,0.02214
3556.61,0.02183
3550.82,0.02112
3545.03,0.02186
3539.25,0.02170
3533.46,0.02140
3527.68,0.02125
3521.89,0.02181
3516.1,0.02135
3510.32,0.02099
3504.53,0.02181
3498.74,0.02221
3492.96,0.02155
3487.17,0.02165
3481.39,0.02070
3475.6,0.02112
3469.81,0.02179
3464.03,0.02058
3458.24,0.02066
3452.45,0.02064
3446.67,0.02120
3440.88,0.02054
3435.1,0.02062
3429.31,0.02022
3423.52,0.02092
3417.74,0.02091
3411.95,0.02051
3406.16,0.02022
3400.38,0.01982
3394.59,0.02056
3388.81,0.02075
3383.02,0.02067
3377.23,0.02096
3371.45,0.02100
3365.66,0.02043
3359.87,0.02093
3354.09,0.02121
3348.3,0.02019
3342.52,0.02035
3336.73,0.01995
3330.94,0.02070
3325.16,0.01981
3319.37,0.02018
3313.58,0.02073
3307.8,0.02034
3302.01,0.02053
3296.23,0.01994
3290.44,0.02063
3284.65,0.02077
3278.87,0.02056
3273.08,0.02016
3267.29,0.01949
3261.51,0.02033
3255.72,0.02049
3249.94,0.02053
3244.15,0.02109
3238.36,0.02004
3232.58,0.02048
3226.79,0.02062
3221,0.02064
3215.22,0.02109
3209.43,0.02064
3203.65,0.02083
3197.86,0.02058
3192.07,0.02100
3186.29,0.02061
3180.5,0.02030
3174.71,0.02039
3168.93,0.02115
3163.14,0.02176
3157.36,0.02070
3151.57,0.02106
3145.78,0.02026
3140,0.02044
3134.21,0.02080
3128.42,0.02052
3122.64,0.02019
3116.85,0.02119
3111.07,0.02067
3105.28,0.02101
3099.49,0.02100
3093.71,0.02083
3087.92,0.02118
3082.14,0.02108
3076.35,0.02072
3070.56,0.02047
3064.78,0.02086
3058.99,0.02144
3053.2,0.02098
3047.42,0.02069
3041.63,0.02109
3035.85,0.02046
3030.06,0.02069
3024.27,0.02075
3018.49,0.02035
3012.7,0.02068
3006.91,0.02028
3001.13,0.02061
2995.34,0.02037
2989.56,0.02025
2983.77,0.01975
2977.98,0.01951
2972.2,0.01936
2966.41,0.01968
2960.62,0.01922
2954.84,0.01947
2949.05,0.01958
2943.27,0.01980
2937.48,0.01997
2931.69,0.02020
2925.91,0.02072
2920.12,0.02030
2914.33,0.02092
2908.55,0.02056
2902.76,0.02102
2896.98,0.02073
2891.19,0.02084
2885.4,0.02079
2879.62,0.02063
2873.83,0.02002
2868.04,0.02016
2862.26,0.02008
2856.47,0.02071
2850.69,0.02104
2844.9,0.02127
2839.11,0.02135
2833.33,0.02149
2827.54,0.02148
2821.75,0.02112
2815.97,0.02124
2810.18,0.02121
2804.4,0.02168
2798.61,0.02142
2792.82,0.02092
2787.04,0.02146
2781.25,0.02130
2775.46,0.02115
2769.68,0.02127
2763.89,0.02112
2758.11,0.02153
2752.32,0.02160
2746.53,0.02138
2740.75,0.02111
2734.96,0.02134
2729.17,0.02134
2723.39,0.02148
2717.6,0.02138
2711.82,0.02151
2706.03,0.02124
2700.24,0.02119
2694.46,0.02142
2688.67,0.02108
2682.88,0.02127
2677.1,0.02157
2671.31,0.02099
2665.53,0.02128
2659.74,0.02145
2653.95,0.02125
2648.17,0.02145
2642.38,0.02135
2636.59,0.02150
2630.81,0.02142
2625.02,0.02140
2619.24,0.02084
2613.45,0.02074
2607.66,0.02115
2601.88,0.02131
2596.09,0.02141
2590.3,0.02128
2584.52,0.02120
2578.73,0.02110
2572.95,0.02163
2567.16,0.02092
2561.37,0.02130
2555.59,0.02130
2549.8,0.02148
2544.02,0.02120
2538.23,0.02161
2532.44,0.02137
2526.66,0.02149
2520.87,0.02102
2515.08,0.02095
2509.3,0.02117
2503.51,0.02130
2497.73,0.02120
2491.94,0.02139
2486.15,0.02055
2480.37,0.02090
2474.58,0.02120
2468.79,0.02085
2463.01,0.02097
2457.22,0.02118
2451.44,0.02124
2445.65,0.02098
2439.86,0.02144
2434.08,0.02129
2428.29,0.02137
2422.5,0.02125
2416.72,0.02146
2410.93,0.02116
2405.15,0.02124
2399.36,0.02120
2393.57,0.02118
2387.79,0.02117
2382,0.02124
2376.21,0.02082
2370.43,0.02144
2364.64,0.02114
2358.86,0.02138
2353.07,0.02157
2347.28,0.02131
2341.5,0.02139
2335.71,0.02112
2329.92,0.02105
2324.14,0.02117
2318.35,0.02082
2312.57,0.02091
2306.78,0.02105
2300.99,0.02095
2295.21,0.02119
2289.42,0.02114
2283.63,0.02138
2277.85,0.02150
2272.06,0.02127
2266.28,0.02101
2260.49,0.02118
2254.7,0.02091
2248.92,0.02112
2243.13,0.02157
2237.34,0.02125
2231.56,0.02105
2225.77,0.02105
2219.99,0.02117
2214.2,0.02102
2208.41,0.02141
2202.63,0.02092
2196.84,0.02114
2191.05,0.02104
2185.27,0.02130
2179.48,0.02083
2173.7,0.02101
2167.91,0.02096
2162.12,0.02130
2156.34,0.02068
2150.55,0.02112
2144.76,0.02090
2138.98,0.02092
2133.19,0.02078
2127.41,0.02117
2121.62,0.02107
2115.83,0.02094
2110.05,0.02079
2104.26,0.02097
2098.47,0.02080
2092.69,0.02083
2086.9,0.02097
2081.12,0.02124
2075.33,0.02100
2069.54,0.02090
2063.76,0.02083
2057.97,0.02067
2052.19,0.02060
2046.4,0.02076
2040.61,0.02095
2034.83,0.02103
2029.04,0.02120
2023.25,0.02067
2017.47,0.02092
2011.68,0.02070
2005.9,0.02064
2000.11,0.02082
1994.32,0.02075
1988.54,0.02069
1982.75,0.02111
1976.96,0.02117
1971.18,0.02101
1965.39,0.02108
1959.61,0.02110
1953.82,0.02087
1948.03,0.02067
1942.25,0.02072
1936.46,0.02109
1930.67,0.02081
1924.89,0.02078
1919.1,0.02069
1913.32,0.02053
1907.53,0.02072
1901.74,0.02048
1895.96,0.02054
1890.17,0.02069
1884.38,0.02079
1878.6,0.02091
1872.81,0.02042
1867.03,0.02051
1861.24,0.02020
1855.45,0.02013
1849.67,0.01993
1843.88,0.01985
1838.09,0.02018
1832.31,0.02060
1826.52,0.02011
1820.74,0.02019
1814.95,0.02002
1809.16,0.01988
1803.38,0.01999
1797.59,0.01977
1791.8,0.01962
1786.02,0.01921
1780.23,0.01913
1774.45,0.01881
1768.66,0.01849
1762.87,0.01809
1757.09,0.01737
1751.3,0.01739
1745.51,0.01779
1739.73,0.01871
1733.94,0.01962
1728.16,0.01999
1722.37,0.02048
1716.58,0.02089
1710.8,0.02090
1705.01,0.02001
1699.22,0.01964
1693.44,0.01912
1687.65,0.01907
1681.87,0.01882
1676.08,0.01854
1670.29,0.01865
1664.51,0.01832
1658.72,0.01848
1652.93,0.01832
1647.15,0.01847
1641.36,0.01847
1635.58,0.01905
1629.79,0.01928
1624,0.01919
1618.22,0.01905
1612.43,0.01887
1606.64,0.01874
1600.86,0.01898
1595.07,0.01885
1589.29,0.01872
1583.5,0.01860
1577.71,0.01853
1571.93,0.01818
1566.14,0.01813
1560.35,0.01835
1554.57,0.01821
1548.78,0.01844
1543,0.01850
1537.21,0.01805
1531.42,0.01804
1525.64,0.01837
1519.85,0.01874
1514.07,0.01893
1508.28,0.01839
1502.49,0.01902
1496.71,0.01862
1490.92,0.01859
1485.13,0.01870
1479.35,0.01849
1473.56,0.01800
1467.78,0.01813
1461.99,0.01838
1456.2,0.01874
1450.42,0.01828
1444.63,0.01843
1438.84,0.01875
1433.06,0.01885
1427.27,0.01880
1421.49,0.01854
1415.7,0.01868
1409.91,0.01854
1404.13,0.01812
1398.34,0.01794
1392.55,0.01755
1386.77,0.01781
1380.98,0.01830
1375.2,0.01788
1369.41,0.01808
1363.62,0.01831
1357.84,0.01803
1352.05,0.01808
1346.26,0.01781
1340.48,0.01780
1334.69,0.01791
1328.91,0.01772
1323.12,0.01740
1317.33,0.01689
1311.55,0.01710
1305.76,0.01726
1299.97,0.01778
1294.19,0.01784
1288.4,0.01799
1282.62,0.01869
1276.83,0.01894
1271.04,0.01934
1265.26,0.01927
1259.47,0.01995
1253.68,0.01998
1247.9,0.02007
1242.11,0.02031
1236.33,0.01993
1230.54,0.01961
1224.75,0.01921
1218.97,0.01898
1213.18,0.01912
1207.39,0.01890
1201.61,0.01815
1195.82,0.01837
1190.04,0.01817
1184.25,0.01794
1178.46,0.01807
1172.68,0.01765
1166.89,0.01789
1161.1,0.01752
1155.32,0.01776
1149.53,0.01756
1143.75,0.01715
1137.96,0.01805
1132.17,0.01815
1126.39,0.01828
1120.6,0.01842
1114.81,0.01891
1109.03,0.01832
1103.24,0.01859
1097.46,0.01832
1091.67,0.01818
1085.88,0.01812
1080.1,0.01922
1074.31,0.01953
1068.52,0.01995
1062.74,0.01958
1056.95,0.01913
1051.17,0.01930
1045.38,0.01902
1039.59,0.01905
1033.81,0.01991
1028.02,0.01871
1022.24,0.01869
1016.45,0.01928
1010.66,0.01975
1004.88,0.02063
999.09,0.02121
993.304,0.02121
987.518,0.02059
981.731,0.02076
975.945,0.02074
970.159,0.02062
964.373,0.02044
958.586,0.01945
952.8,0.02017
947.014,0.01978
941.228,0.01976
935.441,0.01953
929.655,0.01908
923.869,0.01892
918.083,0.01939
912.297,0.01922
906.51,0.01903
900.724,0.01958
894.938,0.01843
889.152,0.01903
883.365,0.01941
877.579,0.01922
871.793,0.01887
866.007,0.01897
860.22,0.01848
854.434,0.01880
848.648,0.01843
842.862,0.01889
837.075,0.01943
831.289,0.01867
825.503,0.01929
819.717,0.01966
813.931,0.01912
808.144,0.01850
802.358,0.01893
796.572,0.01818
790.786,0.01872
784.999,0.01903
779.213,0.01906
773.427,0.01833
767.641,0.01836
761.854,0.01816
756.068,0.01727
750.282,0.01813
744.496,0.01794
738.709,0.01831
732.923,0.01754
727.137,0.01863
721.351,0.01806
715.565,0.01744
709.778,0.01765
703.992,0.01777
698.206,0.01729
692.42,0.01826
686.633,0.01785
680.847,0.01804
675.061,0.01825
669.275,0.01626
663.488,0.01629
657.702,0.01654
651.916,0.01761
646.13,0.01739
640.343,0.01610
634.557,0.01607
628.771,0.01589
622.985,0.01741
617.198,0.01541
611.412,0.01617
605.626,0.01726
599.84,0.01463