File: 01_Data/Memory_Foam_Carpet_Pad/FTIR/IS/Memory_Foam_Carpet_Pad_IS_T_221003_R5.dpt
7497.03,0.02632
7491.25,0.03293
7485.46,0.02502
7479.67,0.02967
7473.89,0.02680
7468.1,0.02605
7462.32,0.02868
7456.53,0.02337
7450.74,0.02684
7444.96,0.03355
7439.17,0.02315
7433.38,0.02830
7427.6,0.02521
7421.81,0.03206
7416.03,0.02327
7410.24,0.02237
7404.45,0.03563
7398.67,0.02300
7392.88,0.03232
7387.09,0.02798
7381.31,0.02660
7375.52,0.01807
7369.74,0.02008
7363.95,0.02719
7358.16,0.02877
7352.38,0.02219
7346.59,0.03013
7340.8,0.02736
7335.02,0.01930
7329.23,0.02160
7323.45,0.02363
7317.66,0.02630
7311.87,0.02765
7306.09,0.02372
7300.3,0.01439
7294.51,0.01933
7288.73,0.02061
7282.94,0.01687
7277.16,0.02547
7271.37,0.02691
7265.58,0.02599
7259.8,0.02894
7254.01,0.02785
7248.22,0.02975
7242.44,0.02660
7236.65,0.02576
7230.87,0.02460
7225.08,0.02394
7219.29,0.02237
7213.51,0.02252
7207.72,0.02632
7201.93,0.02420
7196.15,0.02677
7190.36,0.02532
7184.58,0.02300
7178.79,0.02865
7173,0.02572
7167.22,0.02454
7161.43,0.01912
7155.65,0.01844
7149.86,0.02650
7144.07,0.02596
7138.29,0.02272
7132.5,0.02845
7126.71,0.02381
7120.93,0.02606
7115.14,0.02137
7109.36,0.02875
7103.57,0.02795
7097.78,0.02444
7092,0.02415
7086.21,0.02381
7080.42,0.02391
7074.64,0.01915
7068.85,0.02550
7063.07,0.02037
7057.28,0.02601
7051.49,0.02130
7045.71,0.02327
7039.92,0.02590
7034.13,0.02581
7028.35,0.01944
7022.56,0.02340
7016.78,0.02191
7010.99,0.02735
7005.2,0.02499
6999.42,0.01675
6993.63,0.01934
6987.84,0.02530
6982.06,0.02661
6976.27,0.02644
6970.49,0.02261
6964.7,0.02435
6958.91,0.02314
6953.13,0.02073
6947.34,0.02548
6941.55,0.03043
6935.77,0.02534
6929.98,0.02449
6924.2,0.03079
6918.41,0.02848
6912.62,0.01961
6906.84,0.02169
6901.05,0.02357
6895.26,0.02483
6889.48,0.02340
6883.69,0.02089
6877.91,0.02213
6872.12,0.01947
6866.33,0.02273
6860.55,0.02323
6854.76,0.03132
6848.97,0.02526
6843.19,0.02042
6837.4,0.02255
6831.62,0.02206
6825.83,0.02234
6820.04,0.02658
6814.26,0.02127
6808.47,0.02466
6802.68,0.02707
6796.9,0.02465
6791.11,0.01853
6785.33,0.02186
6779.54,0.02172
6773.75,0.02537
6767.97,0.02189
6762.18,0.02253
6756.39,0.02478
6750.61,0.02373
6744.82,0.02007
6739.04,0.02621
6733.25,0.02872
6727.46,0.02078
6721.68,0.02313
6715.89,0.02066
6710.1,0.02066
6704.32,0.02551
6698.53,0.02146
6692.75,0.02613
6686.96,0.02280
6681.17,0.02548
6675.39,0.02256
6669.6,0.02297
6663.82,0.02620
6658.03,0.03043
6652.24,0.02223
6646.46,0.02281
6640.67,0.02670
6634.88,0.01992
6629.1,0.02388
6623.31,0.02362
6617.53,0.02109
6611.74,0.02041
6605.95,0.02528
6600.17,0.02229
6594.38,0.02417
6588.59,0.01828
6582.81,0.02572
6577.02,0.02133
6571.24,0.02646
6565.45,0.02578
6559.66,0.02503
6553.88,0.02305
6548.09,0.02151
6542.3,0.02522
6536.52,0.01973
6530.73,0.02161
6524.95,0.01922
6519.16,0.02788
6513.37,0.02699
6507.59,0.02248
6501.8,0.02340
6496.01,0.02148
6490.23,0.02179
6484.44,0.02824
6478.66,0.02300
6472.87,0.02325
6467.08,0.02161
6461.3,0.02515
6455.51,0.02320
6449.72,0.02300
6443.94,0.02080
6438.15,0.02272
6432.37,0.02413
6426.58,0.01969
6420.79,0.02081
6415.01,0.02273
6409.22,0.02640
6403.43,0.02549
6397.65,0.02322
6391.86,0.02257
6386.08,0.02032
6380.29,0.02343
6374.5,0.02319
6368.72,0.02219
6362.93,0.02186
6357.14,0.02008
6351.36,0.02361
6345.57,0.02231
6339.79,0.02341
6334,0.02171
6328.21,0.02494
6322.43,0.02325
6316.64,0.02459
6310.85,0.02263
6305.07,0.02053
6299.28,0.02264
6293.5,0.02426
6287.71,0.01719
6281.92,0.01710
6276.14,0.02282
6270.35,0.02357
6264.56,0.02345
6258.78,0.02532
6252.99,0.02571
6247.21,0.02410
6241.42,0.02541
6235.63,0.02167
6229.85,0.02617
6224.06,0.02400
6218.27,0.02250
6212.49,0.02564
6206.7,0.02221
6200.92,0.02194
6195.13,0.02304
6189.34,0.02181
6183.56,0.02269
6177.77,0.02561
6171.98,0.02264
6166.2,0.02017
6160.41,0.02260
6154.63,0.02327
6148.84,0.02288
6143.05,0.02195
6137.27,0.02315
6131.48,0.02522
6125.7,0.02448
6119.91,0.02388
6114.12,0.02273
6108.34,0.02405
6102.55,0.01938
6096.76,0.01938
6090.98,0.02309
6085.19,0.02300
6079.41,0.02214
6073.62,0.02649
6067.83,0.02223
6062.05,0.02316
6056.26,0.02281
6050.47,0.02020
6044.69,0.02295
6038.9,0.02067
6033.12,0.01987
6027.33,0.02148
6021.54,0.02045
6015.76,0.02203
6009.97,0.02137
6004.18,0.02096
5998.4,0.02407
5992.61,0.02461
5986.83,0.01926
5981.04,0.02072
5975.25,0.02324
5969.47,0.02124
5963.68,0.02095
5957.89,0.02432
5952.11,0.02062
5946.32,0.02199
5940.54,0.02100
5934.75,0.02061
5928.96,0.02317
5923.18,0.01974
5917.39,0.02290
5911.6,0.02002
5905.82,0.02283
5900.03,0.02242
5894.25,0.01912
5888.46,0.02084
5882.67,0.02286
5876.89,0.02425
5871.1,0.02309
5865.31,0.02039
5859.53,0.02149
5853.74,0.02412
5847.96,0.02032
5842.17,0.02325
5836.38,0.02090
5830.6,0.02201
5824.81,0.02013
5819.02,0.02031
5813.24,0.02115
5807.45,0.02077
5801.67,0.02343
5795.88,0.02321
5790.09,0.02064
5784.31,0.02091
5778.52,0.02378
5772.73,0.02290
5766.95,0.02089
5761.16,0.02313
5755.38,0.02236
5749.59,0.02203
5743.8,0.02131
5738.02,0.02292
5732.23,0.02301
5726.44,0.02366
5720.66,0.02030
5714.87,0.02232
5709.09,0.01998
5703.3,0.02123
5697.51,0.02120
5691.73,0.02157
5685.94,0.02195
5680.15,0.02035
5674.37,0.02346
5668.58,0.02208
5662.8,0.02383
5657.01,0.02137
5651.22,0.02168
5645.44,0.02092
5639.65,0.02098
5633.87,0.02100
5628.08,0.02091
5622.29,0.02060
5616.51,0.02129
5610.72,0.02350
5604.93,0.02108
5599.15,0.02229
5593.36,0.02110
5587.58,0.02147
5581.79,0.02177
5576,0.02248
5570.22,0.02026
5564.43,0.02064
5558.64,0.02192
5552.86,0.02168
5547.07,0.01996
5541.29,0.02253
5535.5,0.02410
5529.71,0.02281
5523.93,0.02166
5518.14,0.02201
5512.35,0.02133
5506.57,0.02063
5500.78,0.02177
5495,0.02314
5489.21,0.02307
5483.42,0.02278
5477.64,0.02243
5471.85,0.02293
5466.06,0.02075
5460.28,0.02140
5454.49,0.02208
5448.71,0.02119
5442.92,0.02267
5437.13,0.02066
5431.35,0.02069
5425.56,0.02207
5419.77,0.02365
5413.99,0.02060
5408.2,0.02228
5402.42,0.02104
5396.63,0.02201
5390.84,0.02169
5385.06,0.02116
5379.27,0.02225
5373.48,0.02242
5367.7,0.02147
5361.91,0.02267
5356.13,0.02220
5350.34,0.02241
5344.55,0.02180
5338.77,0.02138
5332.98,0.02129
5327.19,0.02285
5321.41,0.02313
5315.62,0.02221
5309.84,0.02101
5304.05,0.02255
5298.26,0.02179
5292.48,0.02318
5286.69,0.02228
5280.9,0.02126
5275.12,0.02223
5269.33,0.02332
5263.55,0.02252
5257.76,0.02251
5251.97,0.02294
5246.19,0.02253
5240.4,0.02064
5234.61,0.02160
5228.83,0.02245
5223.04,0.02275
5217.26,0.02194
5211.47,0.02139
5205.68,0.02146
5199.9,0.02261
5194.11,0.02264
5188.32,0.02198
5182.54,0.02355
5176.75,0.02174
5170.97,0.02247
5165.18,0.02146
5159.39,0.02212
5153.61,0.02193
5147.82,0.02238
5142.03,0.02350
5136.25,0.02298
5130.46,0.02273
5124.68,0.02399
5118.89,0.02251
5113.1,0.02261
5107.32,0.02127
5101.53,0.02264
5095.75,0.02338
5089.96,0.02200
5084.17,0.02271
5078.39,0.02234
5072.6,0.02376
5066.81,0.02255
5061.03,0.02298
5055.24,0.02305
5049.46,0.02131
5043.67,0.02247
5037.88,0.02272
5032.1,0.02317
5026.31,0.02198
5020.52,0.02225
5014.74,0.02252
5008.95,0.02141
5003.17,0.02180
4997.38,0.02237
4991.59,0.02160
4985.81,0.02105
4980.02,0.02225
4974.23,0.02324
4968.45,0.02273
4962.66,0.02206
4956.88,0.02214
4951.09,0.02240
4945.3,0.02252
4939.52,0.02182
4933.73,0.02158
4927.94,0.02265
4922.16,0.02221
4916.37,0.02197
4910.59,0.02134
4904.8,0.02261
4899.01,0.02240
4893.23,0.02129
4887.44,0.02136
4881.65,0.02136
4875.87,0.02225
4870.08,0.02247
4864.3,0.02155
4858.51,0.02276
4852.72,0.02228
4846.94,0.02212
4841.15,0.02215
4835.36,0.02350
4829.58,0.02250
4823.79,0.02243
4818.01,0.02096
4812.22,0.02140
4806.43,0.02172
4800.65,0.02234
4794.86,0.02153
4789.07,0.02170
4783.29,0.02260
4777.5,0.02225
4771.72,0.02202
4765.93,0.02247
4760.14,0.02182
4754.36,0.02276
4748.57,0.02254
4742.78,0.02238
4737,0.02220
4731.21,0.02176
4725.43,0.02150
4719.64,0.02164
4713.85,0.02293
4708.07,0.02241
4702.28,0.02246
4696.49,0.02324
4690.71,0.02237
4684.92,0.02158
4679.14,0.02157
4673.35,0.02206
4667.56,0.02263
4661.78,0.02267
4655.99,0.02223
4650.2,0.02140
4644.42,0.02228
4638.63,0.02177
4632.85,0.02154
4627.06,0.02146
4621.27,0.02150
4615.49,0.02166
4609.7,0.02134
4603.92,0.02209
4598.13,0.02280
4592.34,0.02247
4586.56,0.02191
4580.77,0.02202
4574.98,0.02231
4569.2,0.02145
4563.41,0.02179
4557.63,0.02197
4551.84,0.02236
4546.05,0.02144
4540.27,0.02231
4534.48,0.02127
4528.69,0.02246
4522.91,0.02317
4517.12,0.02212
4511.34,0.02216
4505.55,0.02185
4499.76,0.02226
4493.98,0.02204
4488.19,0.02227
4482.4,0.02244
4476.62,0.02142
4470.83,0.02188
4465.05,0.02188
4459.26,0.02163
4453.47,0.02137
4447.69,0.02169
4441.9,0.02318
4436.11,0.02266
4430.33,0.02254
4424.54,0.02219
4418.76,0.02263
4412.97,0.02243
4407.18,0.02289
4401.4,0.02167
4395.61,0.02182
4389.82,0.02176
4384.04,0.02178
4378.25,0.02267
4372.47,0.02265
4366.68,0.02213
4360.89,0.02200
4355.11,0.02219
4349.32,0.02209
4343.53,0.02281
4337.75,0.02221
4331.96,0.02189
4326.18,0.02275
4320.39,0.02202
4314.6,0.02207
4308.82,0.02271
4303.03,0.02213
4297.24,0.02211
4291.46,0.02270
4285.67,0.02241
4279.89,0.02314
4274.1,0.02282
4268.31,0.02233
4262.53,0.02225
4256.74,0.02175
4250.95,0.02289
4245.17,0.02271
4239.38,0.02209
4233.6,0.02223
4227.81,0.02199
4222.02,0.02260
4216.24,0.02242
4210.45,0.02245
4204.66,0.02257
4198.88,0.02220
4193.09,0.02157
4187.31,0.02276
4181.52,0.02166
4175.73,0.02206
4169.95,0.02164
4164.16,0.02225
4158.37,0.02247
4152.59,0.02210
4146.8,0.02252
4141.02,0.02224
4135.23,0.02277
4129.44,0.02272
4123.66,0.02215
4117.87,0.02286
4112.09,0.02321
4106.3,0.02228
4100.51,0.02202
4094.73,0.02240
4088.94,0.02287
4083.15,0.02258
4077.37,0.02244
4071.58,0.02258
4065.8,0.02213
4060.01,0.02252
4054.22,0.02233
4048.44,0.02219
4042.65,0.02163
4036.86,0.02197
4031.08,0.02166
4025.29,0.02223
4019.51,0.02193
4013.72,0.02242
4007.93,0.02222
4002.15,0.02196
3996.36,0.02242
3990.57,0.02261
3984.79,0.02219
3979,0.02259
3973.22,0.02243
3967.43,0.02220
3961.64,0.02272
3955.86,0.02265
3950.07,0.02272
3944.28,0.02200
3938.5,0.02183
3932.71,0.02268
3926.93,0.02257
3921.14,0.02244
3915.35,0.02238
3909.57,0.02277
3903.78,0.02248
3897.99,0.02228
3892.21,0.02155
3886.42,0.02326
3880.64,0.02221
3874.85,0.02195
3869.06,0.02250
3863.28,0.02284
3857.49,0.02210
3851.7,0.02263
3845.92,0.02279
3840.13,0.02230
3834.35,0.02185
3828.56,0.02223
3822.77,0.02324
3816.99,0.02258
3811.2,0.02275
3805.41,0.02172
3799.63,0.02268
3793.84,0.02224
3788.06,0.02260
3782.27,0.02226
3776.48,0.02251
3770.7,0.02226
3764.91,0.02263
3759.12,0.02221
3753.34,0.02289
3747.55,0.02207
3741.77,0.02171
3735.98,0.02316
3730.19,0.02205
3724.41,0.02234
3718.62,0.02253
3712.83,0.02241
3707.05,0.02233
3701.26,0.02181
3695.48,0.02204
3689.69,0.02194
3683.9,0.02168
3678.12,0.02253
3672.33,0.02251
3666.54,0.02173
3660.76,0.02181
3654.97,0.02229
3649.19,0.02219
3643.4,0.02209
3637.61,0.02183
3631.83,0.02122
3626.04,0.02157
3620.25,0.02161
3614.47,0.02068
3608.68,0.02152
3602.9,0.02184
3597.11,0.02130
3591.32,0.02195
3585.54,0.02245
3579.75,0.02126
3573.97,0.02136
3568.18,0.02128
3562.39,0.02074
3556.61,0.02035
3550.82,0.02066
3545.03,0.02065
3539.25,0.02054
3533.46,0.02102
3527.68,0.02102
3521.89,0.02134
3516.1,0.02111
3510.32,0.02036
3504.53,0.02077
3498.74,0.02063
3492.96,0.02069
3487.17,0.02001
3481.39,0.02084
3475.6,0.02031
3469.81,0.02054
3464.03,0.02067
3458.24,0.02077
3452.45,0.02095
3446.67,0.02050
3440.88,0.02072
3435.1,0.02041
3429.31,0.02093
3423.52,0.02053
3417.74,0.02010
3411.95,0.02011
3406.16,0.02011
3400.38,0.01971
3394.59,0.02103
3388.81,0.02025
3383.02,0.02014
3377.23,0.01959
3371.45,0.02012
3365.66,0.02048
3359.87,0.01993
3354.09,0.02028
3348.3,0.01978
3342.52,0.02053
3336.73,0.02073
3330.94,0.02000
3325.16,0.02042
3319.37,0.02055
3313.58,0.01993
3307.8,0.01969
3302.01,0.01985
3296.23,0.01981
3290.44,0.01975
3284.65,0.01958
3278.87,0.02078
3273.08,0.01996
3267.29,0.01959
3261.51,0.01972
3255.72,0.02001
3249.94,0.02033
3244.15,0.02038
3238.36,0.02108
3232.58,0.02033
3226.79,0.02015
3221,0.02039
3215.22,0.02055
3209.43,0.02100
3203.65,0.02055
3197.86,0.02119
3192.07,0.02036
3186.29,0.02079
3180.5,0.02056
3174.71,0.02072
3168.93,0.02110
3163.14,0.02146
3157.36,0.02066
3151.57,0.02102
3145.78,0.02032
3140,0.02017
3134.21,0.02050
3128.42,0.02022
3122.64,0.02042
3116.85,0.02058
3111.07,0.02123
3105.28,0.02060
3099.49,0.02069
3093.71,0.02022
3087.92,0.02019
3082.14,0.01995
3076.35,0.02022
3070.56,0.02034
3064.78,0.02011
3058.99,0.02035
3053.2,0.02068
3047.42,0.02027
3041.63,0.02036
3035.85,0.02013
3030.06,0.02056
3024.27,0.01991
3018.49,0.02035
3012.7,0.01999
3006.91,0.02053
3001.13,0.02027
2995.34,0.02010
2989.56,0.01975
2983.77,0.01963
2977.98,0.01894
2972.2,0.01840
2966.41,0.01973
2960.62,0.01922
2954.84,0.01936
2949.05,0.01905
2943.27,0.01893
2937.48,0.01949
2931.69,0.01932
2925.91,0.01970
2920.12,0.01986
2914.33,0.02022
2908.55,0.02070
2902.76,0.02019
2896.98,0.02081
2891.19,0.02070
2885.4,0.02021
2879.62,0.02031
2873.83,0.02021
2868.04,0.02037
2862.26,0.01990
2856.47,0.02069
2850.69,0.02064
2844.9,0.02090
2839.11,0.02125
2833.33,0.02105
2827.54,0.02119
2821.75,0.02125
2815.97,0.02117
2810.18,0.02055
2804.4,0.02100
2798.61,0.02093
2792.82,0.02086
2787.04,0.02153
2781.25,0.02105
2775.46,0.02101
2769.68,0.02110
2763.89,0.02072
2758.11,0.02102
2752.32,0.02082
2746.53,0.02111
2740.75,0.02097
2734.96,0.02132
2729.17,0.02118
2723.39,0.02092
2717.6,0.02100
2711.82,0.02123
2706.03,0.02080
2700.24,0.02089
2694.46,0.02109
2688.67,0.02104
2682.88,0.02126
2677.1,0.02095
2671.31,0.02068
2665.53,0.02073
2659.74,0.02042
2653.95,0.02077
2648.17,0.02145
2642.38,0.02110
2636.59,0.02100
2630.81,0.02090
2625.02,0.02065
2619.24,0.02113
2613.45,0.02137
2607.66,0.02122
2601.88,0.02075
2596.09,0.02094
2590.3,0.02102
2584.52,0.02091
2578.73,0.02079
2572.95,0.02120
2567.16,0.02076
2561.37,0.02096
2555.59,0.02102
2549.8,0.02149
2544.02,0.02094
2538.23,0.02111
2532.44,0.02074
2526.66,0.02055
2520.87,0.02142
2515.08,0.02113
2509.3,0.02079
2503.51,0.02098
2497.73,0.02098
2491.94,0.02083
2486.15,0.02110
2480.37,0.02107
2474.58,0.02146
2468.79,0.02067
2463.01,0.02126
2457.22,0.02063
2451.44,0.02082
2445.65,0.02109
2439.86,0.02079
2434.08,0.02074
2428.29,0.02069
2422.5,0.02086
2416.72,0.02093
2410.93,0.02081
2405.15,0.02113
2399.36,0.02052
2393.57,0.02101
2387.79,0.02133
2382,0.02106
2376.21,0.02100
2370.43,0.02133
2364.64,0.02073
2358.86,0.02089
2353.07,0.02081
2347.28,0.02115
2341.5,0.02094
2335.71,0.02098
2329.92,0.02036
2324.14,0.02103
2318.35,0.02124
2312.57,0.02116
2306.78,0.02059
2300.99,0.02075
2295.21,0.02090
2289.42,0.02063
2283.63,0.02107
2277.85,0.02074
2272.06,0.02044
2266.28,0.02092
2260.49,0.02093
2254.7,0.02118
2248.92,0.02070
2243.13,0.02118
2237.34,0.02086
2231.56,0.02091
2225.77,0.02091
2219.99,0.02085
2214.2,0.02102
2208.41,0.02111
2202.63,0.02088
2196.84,0.02071
2191.05,0.02058
2185.27,0.02072
2179.48,0.02046
2173.7,0.02056
2167.91,0.02106
2162.12,0.02069
2156.34,0.02064
2150.55,0.02081
2144.76,0.02071
2138.98,0.02051
2133.19,0.02039
2127.41,0.02090
2121.62,0.02092
2115.83,0.02070
2110.05,0.02084
2104.26,0.02047
2098.47,0.02060
2092.69,0.02055
2086.9,0.02079
2081.12,0.02060
2075.33,0.02053
2069.54,0.02045
2063.76,0.02038
2057.97,0.02068
2052.19,0.02039
2046.4,0.02072
2040.61,0.02083
2034.83,0.02069
2029.04,0.02058
2023.25,0.02062
2017.47,0.02037
2011.68,0.02037
2005.9,0.02053
2000.11,0.02058
1994.32,0.02079
1988.54,0.02084
1982.75,0.02060
1976.96,0.02046
1971.18,0.02036
1965.39,0.02011
1959.61,0.02002
1953.82,0.02076
1948.03,0.02070
1942.25,0.02067
1936.46,0.02042
1930.67,0.02038
1924.89,0.02062
1919.1,0.02062
1913.32,0.02048
1907.53,0.02053
1901.74,0.02053
1895.96,0.02044
1890.17,0.02051
1884.38,0.02026
1878.6,0.02017
1872.81,0.01994
1867.03,0.01993
1861.24,0.01986
1855.45,0.01974
1849.67,0.02003
1843.88,0.02010
1838.09,0.02003
1832.31,0.01989
1826.52,0.01986
1820.74,0.01999
1814.95,0.02003
1809.16,0.01956
1803.38,0.01976
1797.59,0.01941
1791.8,0.01922
1786.02,0.01919
1780.23,0.01885
1774.45,0.01861
1768.66,0.01853
1762.87,0.01809
1757.09,0.01737
1751.3,0.01685
1745.51,0.01761
1739.73,0.01867
1733.94,0.01961
1728.16,0.02040
1722.37,0.02095
1716.58,0.02106
1710.8,0.02057
1705.01,0.01988
1699.22,0.01934
1693.44,0.01897
1687.65,0.01910
1681.87,0.01867
1676.08,0.01827
1670.29,0.01864
1664.51,0.01880
1658.72,0.01873
1652.93,0.01907
1647.15,0.01842
1641.36,0.01800
1635.58,0.01809
1629.79,0.01840
1624,0.01865
1618.22,0.01862
1612.43,0.01848
1606.64,0.01862
1600.86,0.01864
1595.07,0.01860
1589.29,0.01832
1583.5,0.01854
1577.71,0.01872
1571.93,0.01817
1566.14,0.01833
1560.35,0.01837
1554.57,0.01822
1548.78,0.01802
1543,0.01831
1537.21,0.01850
1531.42,0.01861
1525.64,0.01855
1519.85,0.01797
1514.07,0.01853
1508.28,0.01860
1502.49,0.01859
1496.71,0.01838
1490.92,0.01843
1485.13,0.01864
1479.35,0.01823
1473.56,0.01872
1467.78,0.01808
1461.99,0.01842
1456.2,0.01849
1450.42,0.01868
1444.63,0.01873
1438.84,0.01903
1433.06,0.01850
1427.27,0.01838
1421.49,0.01846
1415.7,0.01859
1409.91,0.01837
1404.13,0.01778
1398.34,0.01810
1392.55,0.01804
1386.77,0.01766
1380.98,0.01823
1375.2,0.01806
1369.41,0.01799
1363.62,0.01817
1357.84,0.01796
1352.05,0.01757
1346.26,0.01773
1340.48,0.01790
1334.69,0.01765
1328.91,0.01751
1323.12,0.01694
1317.33,0.01685
1311.55,0.01674
1305.76,0.01703
1299.97,0.01747
1294.19,0.01768
1288.4,0.01811
1282.62,0.01869
1276.83,0.01887
1271.04,0.01905
1265.26,0.01972
1259.47,0.01962
1253.68,0.01989
1247.9,0.02004
1242.11,0.01969
1236.33,0.01927
1230.54,0.01922
1224.75,0.01897
1218.97,0.01880
1213.18,0.01914
1207.39,0.01868
1201.61,0.01884
1195.82,0.01782
1190.04,0.01788
1184.25,0.01795
1178.46,0.01767
1172.68,0.01775
1166.89,0.01741
1161.1,0.01738
1155.32,0.01733
1149.53,0.01756
1143.75,0.01731
1137.96,0.01715
1132.17,0.01808
1126.39,0.01823
1120.6,0.01844
1114.81,0.01897
1109.03,0.01869
1103.24,0.01821
1097.46,0.01786
1091.67,0.01754
1085.88,0.01756
1080.1,0.01946
1074.31,0.01951
1068.52,0.02034
1062.74,0.01944
1056.95,0.02009
1051.17,0.01939
1045.38,0.01923
1039.59,0.01980
1033.81,0.01961
1028.02,0.01852
1022.24,0.01852
1016.45,0.01939
1010.66,0.02052
1004.88,0.02071
999.09,0.02088
993.304,0.02080
987.518,0.02088
981.731,0.02042
975.945,0.02037
970.159,0.02017
964.373,0.02001
958.586,0.01944
952.8,0.01974
947.014,0.01946
941.228,0.01904
935.441,0.01944
929.655,0.01939
923.869,0.01918
918.083,0.01952
912.297,0.01905
906.51,0.01868
900.724,0.01906
894.938,0.01898
889.152,0.01955
883.365,0.01936
877.579,0.01827
871.793,0.01918
866.007,0.01911
860.22,0.01877
854.434,0.02008
848.648,0.01929
842.862,0.01907
837.075,0.01859
831.289,0.01929
825.503,0.01881
819.717,0.01961
813.931,0.01878
808.144,0.01858
802.358,0.01852
796.572,0.01849
790.786,0.01856
784.999,0.01847
779.213,0.01826
773.427,0.01869
767.641,0.01831
761.854,0.01874
756.068,0.01817
750.282,0.01770
744.496,0.01836
738.709,0.01903
732.923,0.01834
727.137,0.01824
721.351,0.01826
715.565,0.01789
709.778,0.01810
703.992,0.01808
698.206,0.01837
692.42,0.01781
686.633,0.01660
680.847,0.01811
675.061,0.01791
669.275,0.01801
663.488,0.01744
657.702,0.01727
651.916,0.01730
646.13,0.01645
640.343,0.01673
634.557,0.01596
628.771,0.01748
622.985,0.01582
617.198,0.01697
611.412,0.01626
605.626,0.01739
599.84,0.01276