File: 01_Data/Nylon_Bourke/STA/N2/30K_min/Nylon_Bourke_STA_N2_30KData_250507_R3.csv
Temp./C,Time/min,DSC/(mW/mg),Mass loss/mg
50.0,0.0,1.66992,-0.0107435
50.5,0.0302139,1.72482,-0.0115223
51,0.0598496,1.78219,-0.00829957
51.5,0.0875855,1.82676,-0.00752613
52,0.118141,1.88499,-0.0108862
52.5,0.146256,1.93891,-0.0140874
53,0.174225,1.98701,-0.0155073
53.5,0.201592,2.03723,-0.0168226
54,0.229029,2.08147,-0.0167668
54.5,0.255528,2.12204,-0.015253
55,0.280439,2.1684,-0.0150519
55.5,0.307624,2.21677,-0.0189558
56,0.333278,2.28096,-0.0211877
56.5,0.358972,2.30289,-0.0178492
57,0.383174,2.348,-0.0156919
57.5,0.407814,2.38743,-0.0142067
58,0.431972,2.42452,-0.0142029
58.5,0.456126,2.47353,-0.0153431
59,0.479741,2.50799,-0.0156135
59.5,0.504126,2.54581,-0.0163485
60,0.527443,2.58908,-0.0160766
60.5,0.550504,2.62206,-0.0133497
61,0.573851,2.67244,-0.0112998
61.5,0.596493,2.70426,-0.0136157
62,0.619471,2.74376,-0.0162092
62.5,0.642038,2.76893,-0.0181492
63,0.663765,2.81342,-0.0189907
63.5,0.686153,2.83704,-0.0194242
64,0.708093,2.87993,-0.0199171
64.5,0.730773,2.90309,-0.0200577
65,0.751996,2.94632,-0.020181
65.5,0.774472,2.97944,-0.0204373
66,0.79569,3.01082,-0.0208072
66.5,0.816786,3.04839,-0.0212319
67,0.838826,3.07813,-0.0206583
67.5,0.860227,3.10823,-0.0201361
68,0.881019,3.13573,-0.0198896
68.5,0.901849,3.16104,-0.0195863
69,0.92196,3.19016,-0.0201419
69.5,0.944096,3.22399,-0.0207816
70,0.964905,3.2456,-0.0211025
70.5,0.985407,3.27855,-0.0216173
71,1.00626,3.31087,-0.0224164
71.5,1.02695,3.33888,-0.0220935
72,1.04739,3.36989,-0.0224209
72.5,1.06823,3.3956,-0.0234464
73,1.08841,3.40814,-0.0226795
73.5,1.10902,3.44118,-0.0236893
74,1.12831,3.45903,-0.0233572
74.5,1.14978,3.48226,-0.0242557
75,1.16958,3.50875,-0.0251908
75.5,1.18965,3.53017,-0.025147
76,1.20928,3.5564,-0.025737
76.5,1.2299,3.56769,-0.0251178
77,1.24952,3.59316,-0.0238232
77.5,1.26924,3.61086,-0.0251615
78,1.28876,3.62748,-0.0260697
78.5,1.30855,3.64814,-0.0255066
79,1.3278,3.66757,-0.026872
79.5,1.34794,3.68252,-0.0261064
80,1.36755,3.70149,-0.0263221
80.5,1.38624,3.71628,-0.0267086
81,1.40569,3.7316,-0.0264174
81.5,1.42529,3.7425,-0.0272537
82,1.4449,3.76657,-0.0273665
82.5,1.46419,3.77799,-0.0270926
83,1.48336,3.79603,-0.0261656
83.5,1.50192,3.80705,-0.0271148
84,1.52018,3.81671,-0.0266113
84.5,1.54073,3.83406,-0.0272689
85,1.55903,3.8473,-0.0280191
85.5,1.57838,3.85979,-0.0281187
86,1.59747,3.8692,-0.0289879
86.5,1.61599,3.88407,-0.0289967
87,1.63432,3.88883,-0.0301772
87.5,1.65347,3.90185,-0.0302739
88,1.67217,3.90915,-0.0315653
88.5,1.69122,3.91714,-0.0308592
89,1.70977,3.92738,-0.0315765
89.5,1.72809,3.92676,-0.030532
90,1.74666,3.94185,-0.0306931
90.5,1.76539,3.9547,-0.0318295
91,1.78358,3.95824,-0.0306349
91.5,1.80201,3.96928,-0.0317987
92,1.81961,3.97212,-0.0319422
92.5,1.83772,3.97793,-0.031781
93,1.85611,3.98483,-0.0319468
93.5,1.87425,3.9967,-0.0321262
94,1.8926,4.00296,-0.0334054
94.5,1.91162,4.00963,-0.0330869
95,1.92957,4.01405,-0.0334309
95.5,1.94787,4.01276,-0.033444
96,1.96521,4.0262,-0.0349768
96.5,1.98372,4.03348,-0.0340651
97,2.00177,4.03699,-0.034743
97.5,2.01917,4.04978,-0.0349136
98,2.03712,4.04733,-0.0349092
98.5,2.05503,4.04913,-0.0349506
99,2.07288,4.04896,-0.0336239
99.5,2.09109,4.05977,-0.034911
100,2.10839,4.06804,-0.0349134
100.5,2.12583,4.067,-0.0348848
101,2.14316,4.07116,-0.034587
101.5,2.16201,4.07727,-0.0345788
102,2.17962,4.07504,-0.034656
102.5,2.19747,4.07854,-0.035915
103,2.21466,4.08031,-0.0348481
103.5,2.23238,4.07885,-0.0350959
104,2.24991,4.07625,-0.0362328
104.5,2.26747,4.08913,-0.0362671
105,2.28538,4.09042,-0.034901
105.5,2.30296,4.09767,-0.0348735
106,2.32033,4.09727,-0.036286
106.5,2.33837,4.09605,-0.0362282
107,2.35555,4.10072,-0.0358938
107.5,2.37319,4.10304,-0.0362883
108,2.39041,4.10699,-0.0362246
108.5,2.40817,4.11289,-0.035617
109,2.42503,4.11168,-0.0349003
109.5,2.4426,4.11128,-0.0361506
110,2.45993,4.11653,-0.0362304
110.5,2.47694,4.12036,-0.036609
111,2.49463,4.11529,-0.0375479
111.5,2.51201,4.12341,-0.0371978
112,2.52911,4.12644,-0.0362114
112.5,2.54665,4.12583,-0.0362313
113,2.56396,4.12658,-0.0362243
113.5,2.58132,4.13323,-0.0373592
114,2.5977,4.13642,-0.0375524
114.5,2.61484,4.14279,-0.0375849
115,2.63284,4.14982,-0.0367703
115.5,2.65016,4.14583,-0.0375476
116,2.6674,4.15872,-0.0375509
116.5,2.68421,4.16249,-0.037538
117,2.70139,4.16985,-0.0387072
117.5,2.71828,4.17868,-0.0388666
118,2.73583,4.18113,-0.0376121
118.5,2.75254,4.18896,-0.0375399
119,2.77006,4.19249,-0.0375491
119.5,2.78697,4.19367,-0.0385516
120,2.80393,4.20556,-0.0388731
120.5,2.82138,4.21325,-0.0376265
121,2.8378,4.22113,-0.038878
121.5,2.85468,4.23451,-0.0388628
122,2.87218,4.23763,-0.03886
122.5,2.88933,4.24466,-0.03886
123,2.90576,4.2518,-0.03886
123.5,2.92276,4.26841,-0.0388598
124,2.93957,4.28628,-0.0388669
124.5,2.95642,4.2984,-0.0392723
125,2.97341,4.31206,-0.0401671
125.5,2.98984,4.32696,-0.0401787
126,3.0071,4.33056,-0.0402061
126.5,3.02357,4.35353,-0.0389722
127,3.04073,4.3697,-0.0388662
127.5,3.0571,4.39544,-0.0388699
128,3.07401,4.41552,-0.0388682
128.5,3.09092,4.43773,-0.0388411
129,3.10747,4.46609,-0.039073
129.5,3.12422,4.49049,-0.0388627
130,3.14105,4.52736,-0.0388598
130.5,3.15767,4.55903,-0.03886
131,3.1743,4.59556,-0.03886
131.5,3.19118,4.63429,-0.03886
132,3.20753,4.67036,-0.03886
132.5,3.22417,4.70756,-0.0388603
133,3.24092,4.74935,-0.0388595
133.5,3.25747,4.77931,-0.0395809
134,3.27415,4.82223,-0.0388069
134.5,3.29081,4.87852,-0.0388584
135,3.30715,4.91569,-0.0388601
135.5,3.32346,4.96339,-0.03886
136,3.33993,5.00482,-0.03886
136.5,3.35688,5.03608,-0.03886
137,3.37346,5.08895,-0.0388587
137.5,3.3897,5.11867,-0.0388682
138,3.4057,5.15755,-0.0393862
138.5,3.42251,5.18836,-0.0388833
139,3.43874,5.21216,-0.03887
139.5,3.45516,5.2435,-0.03887
140,3.47135,5.26268,-0.03887
140.5,3.48761,5.2707,-0.03887
141,3.50374,5.29216,-0.03887
141.5,3.51978,5.31211,-0.0388697
142,3.53632,5.32928,-0.0388696
142.5,3.55249,5.33706,-0.0390506
143,3.56879,5.34291,-0.0402103
143.5,3.58427,5.34799,-0.0401893
144,3.60092,5.35836,-0.0401899
144.5,3.61693,5.36978,-0.04019
145,3.63281,5.36448,-0.04019
145.5,3.64907,5.37748,-0.0401891
146,3.6651,5.38456,-0.040189
146.5,3.68094,5.38577,-0.0392417
147,3.69717,5.38855,-0.0388763
147.5,3.71327,5.38995,-0.0388698
148,3.72875,5.39867,-0.03887
148.5,3.74473,5.40385,-0.03887
149,3.76065,5.39693,-0.0388696
149.5,3.77689,5.40201,-0.0388617
150,3.79267,5.40676,-0.0385207
150.5,3.80863,5.41583,-0.0385377
151,3.82456,5.41689,-0.0385401
151.5,3.84029,5.41368,-0.038552
152,3.85606,5.41876,-0.0390102
152.5,3.87187,5.42098,-0.0388518
153,3.8879,5.42543,-0.0388551
153.5,3.9036,5.42689,-0.0388598
154,3.91967,5.43226,-0.03886
154.5,3.93532,5.43271,-0.03886
155,3.95101,5.4433,-0.03886
155.5,3.9666,5.45258,-0.03886
156,3.98239,5.45376,-0.0388597
156.5,3.99822,5.45091,-0.0388588
157,4.01412,5.46368,-0.0390407
157.5,4.03012,5.46955,-0.0398128
158,4.04599,5.47138,-0.0411957
158.5,4.0616,5.47315,-0.0411734
159,4.07711,5.47884,-0.0411701
159.5,4.09299,5.47945,-0.0411699
160,4.10871,5.47899,-0.0411651
160.5,4.12467,5.48997,-0.0408839
161,4.14027,5.48937,-0.0398317
161.5,4.156,5.4908,-0.0398489
162,4.17178,5.49532,-0.03985
162.5,4.18735,5.50003,-0.03985
163,4.20286,5.49327,-0.03985
163.5,4.2186,5.49509,-0.03985
164,4.23395,5.49056,-0.03985
164.5,4.2499,5.4916,-0.03985
165,4.26533,5.49383,-0.03985
165.5,4.28075,5.49239,-0.03985
166,4.29657,5.49408,-0.03985
166.5,4.31229,5.49415,-0.03985
167,4.32779,5.49114,-0.03985
167.5,4.34324,5.48972,-0.03985
168,4.35917,5.48067,-0.03985
168.5,4.37432,5.47065,-0.03985
169,4.39009,5.46895,-0.0398504
169.5,4.40539,5.46292,-0.0398523
170,4.42109,5.45513,-0.0402842
170.5,4.43653,5.4479,-0.0411901
171,4.45206,5.43629,-0.0411704
171.5,4.46748,5.40906,-0.04117
172,4.48235,5.40973,-0.04117
172.5,4.498,5.39398,-0.04117
173,4.51325,5.36825,-0.04117
173.5,4.52918,5.34651,-0.04117
174,4.54485,5.3281,-0.04117
174.5,4.56017,5.29701,-0.04117
175,4.57572,5.26851,-0.04117
175.5,4.59121,5.24594,-0.0411699
176,4.60661,5.21113,-0.0411699
176.5,4.6217,5.17548,-0.0412025
177,4.63681,5.13762,-0.0400229
177.5,4.65237,5.10007,-0.0398518
178,4.66742,5.05831,-0.0398498
178.5,4.68274,5.01274,-0.03985
179,4.69797,4.94752,-0.03985
179.5,4.7131,4.91133,-0.03985
180,4.72823,4.85622,-0.03985
180.5,4.74317,4.80989,-0.03985
181,4.75842,4.76135,-0.03985
181.5,4.77385,4.70845,-0.03985
182,4.78907,4.65887,-0.03985
182.5,4.8043,4.61108,-0.03985
183,4.81905,4.56629,-0.0398505
183.5,4.834,4.52517,-0.0398671
184,4.84966,4.50193,-0.0403581
184.5,4.86479,4.48094,-0.0405103
185,4.88011,4.46024,-0.0405104
185.5,4.89525,4.46731,-0.04051
186,4.91069,4.47215,-0.04051
186.5,4.92574,4.47803,-0.04051
187,4.94141,4.50259,-0.04051
187.5,4.95645,4.53786,-0.04051
188,4.97196,4.58318,-0.04051
188.5,4.98762,4.61696,-0.04051
189,5.00284,4.6511,-0.04051
189.5,5.0179,4.70459,-0.04051
190,5.03346,4.75459,-0.04051
190.5,5.04913,4.80494,-0.04051
191,5.06425,4.8579,-0.04051
191.5,5.07986,4.92944,-0.04051
192,5.09535,4.97702,-0.04051
192.5,5.11047,5.03701,-0.0405098
193,5.12584,5.09448,-0.040506
193.5,5.14129,5.14549,-0.0402242
194,5.1567,5.2044,-0.0395341
194.5,5.17212,5.26521,-0.0395213
195,5.1873,5.31337,-0.0395201
195.5,5.20269,5.36243,-0.03952
196,5.21789,5.41689,-0.03952
196.5,5.23331,5.46661,-0.03952
197,5.24863,5.51321,-0.03952
197.5,5.26399,5.55654,-0.03952
198,5.27914,5.59761,-0.03952
198.5,5.29429,5.63704,-0.03952
199,5.30953,5.67606,-0.0395199
199.5,5.3249,5.70871,-0.0395197
200,5.33984,5.73952,-0.0395509
200.5,5.35521,5.77665,-0.0407414
201,5.37031,5.81507,-0.0410214
201.5,5.3858,5.84659,-0.0421636
202,5.40076,5.88875,-0.0421615
202.5,5.41605,5.92016,-0.0421601
203,5.4312,5.93912,-0.04216
203.5,5.44627,5.96437,-0.04216
204,5.46157,5.99457,-0.04216
204.5,5.47693,6.0216,-0.04216
205,5.49184,6.04726,-0.04216
205.5,5.50718,6.07796,-0.04216
206,5.52252,6.10065,-0.04216
206.5,5.53736,6.12108,-0.0421601
207,5.5525,6.14409,-0.0421609
207.5,5.56767,6.16429,-0.0421545
208,5.58253,6.19569,-0.0411416
208.5,5.59803,6.21658,-0.0405203
209,5.61328,6.23604,-0.0405083
209.5,5.62785,6.26009,-0.0405099
210,5.64314,6.28089,-0.0405101
210.5,5.65824,6.30513,-0.0405127
211,5.67342,6.33545,-0.0405388
211.5,5.68843,6.34581,-0.0401844
212,5.70351,6.3749,-0.0401807
212.5,5.71815,6.38644,-0.04018
213,5.73383,6.40641,-0.04018
213.5,5.7486,6.43171,-0.04018
214,5.76394,6.45495,-0.04018
214.5,5.77891,6.47051,-0.04018
215,5.79379,6.50041,-0.04018
215.5,5.80898,6.52731,-0.04018
216,5.82325,6.5416,-0.04018
216.5,5.83912,6.56593,-0.04018
217,5.85434,6.58763,-0.0401772
217.5,5.86915,6.61145,-0.0401275
218,5.88468,6.63759,-0.0414695
218.5,5.89942,6.66487,-0.0415023
219,5.91446,6.69249,-0.0415003
219.5,5.92972,6.72192,-0.0415
220,5.9449,6.74495,-0.0415
220.5,5.95955,6.76904,-0.0415
221,5.97461,6.79488,-0.0415
221.5,5.98991,6.83016,-0.0415
222,6.00449,6.86385,-0.0415
222.5,6.0199,6.89626,-0.0415
223,6.03497,6.93275,-0.0415
223.5,6.05006,6.96106,-0.0415
224,6.06478,6.98866,-0.0415
224.5,6.07916,7.01608,-0.0415
225,6.0949,7.06339,-0.0415
225.5,6.11025,7.108,-0.0415
226,6.12539,7.13828,-0.0415
226.5,6.14021,7.19371,-0.0415
227,6.15516,7.23503,-0.0415
227.5,6.17049,7.27553,-0.0415
228,6.18546,7.31445,-0.0415
228.5,6.20041,7.35647,-0.0415
229,6.21544,7.3983,-0.0415
229.5,6.23076,7.44665,-0.0415
230,6.24605,7.4946,-0.0415
230.5,6.26077,7.54169,-0.0415008
231,6.27604,7.59719,-0.0415171
231.5,6.29008,7.65171,-0.0420166
232,6.30521,7.70203,-0.04216
232.5,6.32059,7.75775,-0.0421603
233,6.33653,7.82199,-0.04216
233.5,6.35125,7.88667,-0.0421596
234,6.36639,7.94114,-0.0421585
234.5,6.38141,8.00153,-0.0417085
235,6.39677,8.06184,-0.0408227
235.5,6.41187,8.12266,-0.040839
236,6.42669,8.17469,-0.04084
236.5,6.44202,8.23701,-0.0408401
237,6.45726,8.3003,-0.040841
237.5,6.4725,8.37597,-0.0408296
238,6.48727,8.43449,-0.0415617
238.5,6.50201,8.50053,-0.0414937
239,6.51761,8.57425,-0.0414901
239.5,6.5328,8.64375,-0.04149
240,6.54784,8.70801,-0.04149
240.5,6.56294,8.76313,-0.04149
241,6.57778,8.80796,-0.0414899
241.5,6.59293,8.84713,-0.0414943
242,6.60795,8.87845,-0.04169
242.5,6.62286,8.9044,-0.0428441
243,6.63798,8.92349,-0.0428106
243.5,6.65255,8.93722,-0.0428099
244,6.6677,8.94913,-0.0428094
244.5,6.68234,8.95034,-0.0428035
245,6.69682,8.94457,-0.0424548
245.5,6.71187,8.91665,-0.042211
246,6.72662,8.8868,-0.0414341
246.5,6.74141,8.84639,-0.0414975
247,6.75628,8.78634,-0.0415
247.5,6.77078,8.71649,-0.0415
248,6.78493,8.65149,-0.0415
248.5,6.79983,8.56835,-0.0415
249,6.81433,8.47176,-0.0415
249.5,6.82879,8.38741,-0.0414999
250,6.84325,8.29448,-0.0414965
250.5,6.85798,8.20228,-0.041379
251,6.87231,8.11983,-0.0404936
251.5,6.887,8.03975,-0.0416352
252,6.90171,7.96464,-0.0418252
252.5,6.91603,7.88746,-0.0418297
253,6.93035,7.82787,-0.04183
253.5,6.94523,7.75715,-0.04183
254,6.95984,7.68936,-0.04183
254.5,6.97453,7.63175,-0.04183
255,6.98899,7.57335,-0.04183
255.5,7.00369,7.51366,-0.04183
256,7.01805,7.46439,-0.04183
256.5,7.03267,7.41658,-0.0418292
257,7.04758,7.36826,-0.0418112
257.5,7.06206,7.33503,-0.0426135
258,7.07671,7.29872,-0.0431538
258.5,7.09124,7.26639,-0.0431498
259,7.10584,7.24394,-0.0431491
259.5,7.1208,7.21404,-0.0431342
260,7.13516,7.18633,-0.0426806
260.5,7.14994,7.16494,-0.0418445
261,7.16447,7.14314,-0.0423987
261.5,7.17939,7.12296,-0.0431407
262,7.19416,7.09997,-0.0431528
262.5,7.20895,7.09307,-0.0432803
263,7.22361,7.07934,-0.0444187
263.5,7.23819,7.07227,-0.0444595
264,7.25302,7.06114,-0.0444601
264.5,7.26763,7.04685,-0.04446
265,7.28183,7.03513,-0.04446
265.5,7.29661,7.02188,-0.04446
266,7.31184,7.02876,-0.04446
266.5,7.32585,7.01656,-0.04446
267,7.34055,7.00646,-0.04446
267.5,7.35588,6.99771,-0.04446
268,7.37061,7.00029,-0.04446
268.5,7.3854,6.99037,-0.04446
269,7.40028,6.987,-0.0444603
269.5,7.41514,6.98748,-0.0444668
270,7.42992,6.98463,-0.0446713
270.5,7.44467,6.97941,-0.0451236
271,7.45923,6.97371,-0.0451197
271.5,7.47373,6.97927,-0.04512
272,7.48886,6.98282,-0.04512
272.5,7.50344,6.98349,-0.04512
273,7.51831,6.98543,-0.04512
273.5,7.53286,6.97873,-0.04512
274,7.54762,6.98372,-0.04512
274.5,7.5624,6.98631,-0.04512
275,7.57716,6.98356,-0.04512
275.5,7.59229,6.98558,-0.04512
276,7.60665,6.98312,-0.04512
276.5,7.62163,6.99099,-0.04512
277,7.63625,6.98878,-0.04512
277.5,7.65114,6.99324,-0.04512
278,7.66602,6.99164,-0.04512
278.5,7.68049,6.9909,-0.0451201
279,7.69554,6.99554,-0.0451202
279.5,7.70999,6.99343,-0.0450885
280,7.72502,6.99598,-0.0439297
280.5,7.73971,6.99742,-0.0444833
281,7.75437,6.99287,-0.0444661
281.5,7.76876,6.99454,-0.044587
282,7.78315,6.99671,-0.0457363
282.5,7.79868,6.99981,-0.0457801
283,7.81343,7.00263,-0.0457801
283.5,7.82842,7.00105,-0.0457803
284,7.84285,7.00099,-0.0457844
284.5,7.85765,7.00149,-0.0460351
285,7.87267,6.99956,-0.0471104
285.5,7.8873,7.00222,-0.0471013
286,7.90215,7.0079,-0.0471001
286.5,7.91691,7.00912,-0.0471
287,7.93155,7.01043,-0.0471
287.5,7.94649,7.0121,-0.0471
288,7.96125,7.00942,-0.0470998
288.5,7.97605,7.01418,-0.0470966
289,7.99039,7.01607,-0.0470568
289.5,8.00487,7.01676,-0.0483941
290,8.02039,7.01521,-0.0484135
290.5,8.03504,7.01276,-0.0484103
291,8.04972,7.01443,-0.04841
291.5,8.06476,7.0118,-0.0484093
292,8.07949,7.01281,-0.0483953
292.5,8.09407,7.01269,-0.0478947
293,8.10892,7.01681,-0.047092
293.5,8.12373,7.01027,-0.0470909
294,8.13842,7.00862,-0.0470901
294.5,8.15301,7.01294,-0.04709
295,8.16826,7.01202,-0.04709
295.5,8.18296,7.01473,-0.0470897
296,8.19764,7.01314,-0.0470876
296.5,8.21246,7.00811,-0.0471187
297,8.22711,7.0048,-0.0484424
297.5,8.24214,7.00893,-0.0493937
298,8.25686,7.00951,-0.049404
298.5,8.27169,7.00793,-0.0494003
299,8.28643,7.00928,-0.0494004
299.5,8.30124,7.01086,-0.049412
300,8.31608,7.00589,-0.0497646
300.5,8.33086,7.01065,-0.050734
301,8.34563,7.01167,-0.0507197
301.5,8.36022,6.99811,-0.0507199
302,8.37518,6.99828,-0.05072
302.5,8.38974,6.99948,-0.05072
303,8.40439,6.99486,-0.05072
303.5,8.41941,6.98783,-0.05072
304,8.43428,6.98983,-0.05072
304.5,8.44907,6.9905,-0.05072
305,8.46379,6.98414,-0.05072
305.5,8.47842,6.98528,-0.05072
306,8.49333,6.99349,-0.0507194
306.5,8.50818,7.00006,-0.0507035
307,8.5227,6.99787,-0.0514687
307.5,8.53704,6.99454,-0.0520489
308,8.55178,6.99486,-0.05204
308.5,8.56747,6.99082,-0.05204
309,8.58232,6.99072,-0.05204
309.5,8.59703,6.99029,-0.05204
310,8.61125,6.97753,-0.05204
310.5,8.62626,6.97996,-0.05204
311,8.64151,6.98593,-0.05204
311.5,8.65611,6.98381,-0.0520389
312,8.67105,6.97327,-0.0519894
312.5,8.68618,6.97392,-0.0508017
313,8.70087,6.97432,-0.0507169
313.5,8.71567,6.97332,-0.0516425
314,8.73002,6.97752,-0.0520159
314.5,8.74485,6.98383,-0.0520298
315,8.7599,6.98252,-0.05203
315.5,8.7747,6.9824,-0.05203
316,8.78932,6.98141,-0.0520309
316.5,8.80438,6.98507,-0.052037
317,8.81895,6.97565,-0.0527419
317.5,8.83402,6.97981,-0.0533354
318,8.84873,6.97747,-0.053349
318.5,8.8634,6.98159,-0.05335
319,8.87842,6.97969,-0.05335
319.5,8.89325,6.98019,-0.0533496
320,8.90823,6.98658,-0.0533475
320.5,8.92291,6.98606,-0.0529698
321,8.93786,6.98357,-0.0520247
321.5,8.95261,6.98422,-0.0520386
322,8.96734,6.98111,-0.0520235
322.5,8.98211,6.9724,-0.052583
323,8.99709,6.96601,-0.0526974
323.5,9.01202,6.97752,-0.0527144
324,9.02687,6.97845,-0.0531312
324.5,9.04173,6.97742,-0.0538163
325,9.05637,6.98275,-0.0543674
325.5,9.07132,6.98249,-0.0543503
326,9.08627,6.9812,-0.054349
326.5,9.10132,6.98023,-0.0543126
327,9.11586,6.98542,-0.0554656
327.5,9.13087,6.98512,-0.0556654
328,9.14591,6.99374,-0.0556728
328.5,9.16046,6.98995,-0.0557971
329,9.1755,6.98659,-0.0570229
329.5,9.19047,6.9823,-0.0569817
330,9.20518,6.96089,-0.05698
330.5,9.21986,6.96733,-0.0569727
331,9.23471,6.96688,-0.05759
331.5,9.24954,6.9587,-0.0583147
332,9.26459,6.95371,-0.0583003
332.5,9.27937,6.96077,-0.0582991
333,9.29421,6.96545,-0.0582605
333.5,9.30923,6.9726,-0.0594292
334,9.32416,6.97772,-0.0596159
334.5,9.33915,6.98028,-0.0596201
335,9.35368,6.98476,-0.05962
335.5,9.36892,6.98508,-0.05962
336,9.38353,6.98369,-0.05962
336.5,9.39873,6.97747,-0.05962
337,9.41351,6.98084,-0.0596193
337.5,9.42842,6.97669,-0.0596184
338,9.44342,6.97055,-0.059265
338.5,9.45807,6.96441,-0.0592877
339,9.47313,6.96538,-0.0592909
339.5,9.48798,6.96492,-0.0592965
340,9.50296,6.9651,-0.0582673
340.5,9.51796,6.96033,-0.0582956
341,9.53278,6.96155,-0.0582998
341.5,9.54781,6.96202,-0.0582998
342,9.56239,6.95677,-0.058296
342.5,9.57752,6.95558,-0.0582627
343,9.59253,6.95205,-0.0596349
343.5,9.60729,6.94871,-0.0596136
344,9.62215,6.95512,-0.0596102
344.5,9.63743,6.95417,-0.05961
345,9.65204,6.93847,-0.05961
345.5,9.66733,6.94044,-0.0596098
346,9.68196,6.9381,-0.0596057
346.5,9.69673,6.94729,-0.0595562
347,9.71199,6.93885,-0.0609385
347.5,9.72696,6.9371,-0.060985
348,9.7417,6.93342,-0.059619
348.5,9.75672,6.93306,-0.0596053
349,9.77169,6.93701,-0.0596066
349.5,9.78652,6.93307,-0.0607022
350,9.8013,6.9446,-0.0609255
350.5,9.81664,6.93099,-0.0609298
351,9.83134,6.92309,-0.06093
351.5,9.84628,6.9364,-0.06093
352,9.86145,6.93482,-0.0609299
352.5,9.87654,6.94041,-0.0609286
353,9.89095,6.93694,-0.0609164
353.5,9.90609,6.94583,-0.0619881
354,9.92154,6.93968,-0.062244
354.5,9.93658,6.94447,-0.0622497
355,9.95161,6.94261,-0.06225
355.5,9.96639,6.94598,-0.06225
356,9.9816,6.94183,-0.0622489
356.5,9.99591,6.9414,-0.0622283
357,10.0109,6.94186,-0.0631517
357.5,10.0263,6.949,-0.0635568
358,10.0414,6.94502,-0.0635597
358.5,10.0566,6.94616,-0.06356
359,10.0716,6.95038,-0.06356
359.5,10.0865,6.94763,-0.06356
360,10.1016,6.94451,-0.06356
360.5,10.1165,6.94746,-0.0635599
361,10.1317,6.94568,-0.063559
361.5,10.1469,6.94805,-0.0635837
362,10.1618,6.95282,-0.0641806
362.5,10.1768,6.95689,-0.0635673
363,10.192,6.96143,-0.0635611
363.5,10.2068,6.96084,-0.0635602
364,10.222,6.96311,-0.0635645
364.5,10.237,6.96114,-0.0637697
365,10.2518,6.96317,-0.0648757
365.5,10.2671,6.96469,-0.0648268
366,10.2821,6.96447,-0.0661813
366.5,10.297,6.96661,-0.0661879
367,10.312,6.97169,-0.0672029
367.5,10.3271,6.97737,-0.0675146
368,10.342,6.97885,-0.0675197
368.5,10.3574,6.98255,-0.06752
369,10.3723,6.98814,-0.0675201
369.5,10.3876,7.0002,-0.0675321
370,10.4025,7.00038,-0.0678627
370.5,10.4175,7.00294,-0.068794
371,10.4326,7.00323,-0.0676024
371.5,10.4478,7.01601,-0.0675123
372,10.4627,7.01594,-0.06751
372.5,10.4778,7.03147,-0.06751
373,10.4931,7.04007,-0.06751
373.5,10.508,7.04368,-0.0675089
374,10.5232,7.04858,-0.0674917
374.5,10.5384,7.0563,-0.0684862
375,10.5535,7.06136,-0.0687635
375.5,10.5685,7.06878,-0.0700944
376,10.5837,7.07922,-0.070153
376.5,10.5981,7.08166,-0.0701503
377,10.614,7.09044,-0.0701498
377.5,10.6291,7.09293,-0.0701458
378,10.6439,7.09603,-0.0701044
378.5,10.6593,7.10504,-0.0714974
379,10.6744,7.11932,-0.0714736
379.5,10.6893,7.10783,-0.071467
380,10.7045,7.11037,-0.0713889
380.5,10.7197,7.14781,-0.0741036
381,10.7349,7.17101,-0.0751103
381.5,10.75,7.18718,-0.0761777
382,10.7651,7.18627,-0.0761898
382.5,10.7802,7.18779,-0.0770574
383,10.7955,7.19832,-0.0774949
383.5,10.8107,7.21,-0.0755894
384,10.8259,7.2303,-0.074732
384.5,10.8413,7.24627,-0.0740061
385,10.8563,7.26389,-0.0725929
385.5,10.8717,7.29504,-0.0739777
386,10.8865,7.32106,-0.0739928
386.5,10.9022,7.32986,-0.0739902
387,10.9172,7.33773,-0.07399
387.5,10.9324,7.35048,-0.0739896
388,10.9474,7.3673,-0.0739927
388.5,10.9627,7.38676,-0.0740027
389,10.9776,7.41535,-0.0743148
389.5,10.9934,7.44388,-0.0743277
390,11.0086,7.46888,-0.0743308
390.5,11.0237,7.49174,-0.0743419
391,11.0391,7.52543,-0.075055
391.5,11.0543,7.54613,-0.0756364
392,11.0696,7.58013,-0.0756626
392.5,11.0847,7.6132,-0.0762301
393,11.1002,7.66808,-0.0770571
393.5,11.1153,7.69745,-0.0771746
394,11.1309,7.73073,-0.0785797
394.5,11.1461,7.76542,-0.0786149
395,11.1614,7.81134,-0.0788271
395.5,11.1768,7.85378,-0.0799598
396,11.1922,7.90191,-0.0799293
396.5,11.2073,7.95073,-0.0799235
397,11.2229,7.98791,-0.0812004
397.5,11.2383,8.0352,-0.0822248
398,11.2534,8.08667,-0.0821986
398.5,11.2686,8.14832,-0.0832932
399,11.2845,8.22189,-0.0835371
399.5,11.2998,8.27813,-0.0835341
400,11.3152,8.33575,-0.0841942
400.5,11.3306,8.39668,-0.0848582
401,11.3462,8.47676,-0.084127
401.5,11.3614,8.55035,-0.084576
402,11.3771,8.62601,-0.0848635
402.5,11.3924,8.71044,-0.0848813
403,11.4082,8.8008,-0.0861017
403.5,11.4236,8.89071,-0.0864891
404,11.4391,8.97798,-0.0878402
404.5,11.4546,9.08023,-0.0884945
405,11.4702,9.17167,-0.0895906
405.5,11.4855,9.24803,-0.0908338
406,11.5012,9.34848,-0.0912776
406.5,11.5167,9.44009,-0.0928179
407,11.5323,9.52718,-0.0936767
407.5,11.5484,9.63646,-0.0959453
408,11.5637,9.74159,-0.0962984
408.5,11.5796,9.8504,-0.0973437
409,11.5947,9.96107,-0.0986869
409.5,11.6106,10.0786,-0.0997982
410,11.6263,10.2005,-0.101049
410.5,11.642,10.3415,-0.102805
411,11.6578,10.5,-0.102981
411.5,11.6737,10.6506,-0.103677
412,11.6892,10.7937,-0.105171
412.5,11.705,10.9452,-0.105682
413,11.7209,11.0961,-0.106982
413.5,11.7366,11.2535,-0.109341
414,11.7526,11.4276,-0.111397
414.5,11.7685,11.6127,-0.11465
415,11.7845,11.7867,-0.117494
415.5,11.8003,11.9472,-0.120853
416,11.8162,12.1218,-0.123241
416.5,11.8322,12.3007,-0.126193
417,11.8481,12.4858,-0.128644
417.5,11.8635,12.6855,-0.13179
418,11.8801,12.8918,-0.134858
418.5,11.8959,13.0707,-0.138808
419,11.9122,13.2783,-0.144019
419.5,11.928,13.4719,-0.148158
420,11.9439,13.6681,-0.151902
420.5,11.9596,13.8805,-0.155631
421,11.9755,14.0823,-0.160025
421.5,11.9921,14.3194,-0.165269
422,12.0087,14.5747,-0.169171
422.5,12.0247,14.835,-0.17419
423,12.0411,15.1015,-0.179904
423.5,12.057,15.3612,-0.185912
424,12.0736,15.6387,-0.19161
424.5,12.0896,15.9111,-0.197394
425,12.1062,16.195,-0.204854
425.5,12.1228,16.503,-0.21301
426,12.1392,16.799,-0.220832
426.5,12.1555,17.1188,-0.228053
427,12.172,17.4294,-0.235971
427.5,12.1887,17.7436,-0.245533
428,12.2051,18.0917,-0.255269
428.5,12.2216,18.4536,-0.264621
429,12.2384,18.8269,-0.275433
429.5,12.2546,19.1698,-0.286317
430,12.2716,19.5426,-0.29873
430.5,12.2886,19.9579,-0.310495
431,12.3056,20.3708,-0.322662
431.5,12.3225,20.7984,-0.337095
432,12.3394,21.2179,-0.351643
432.5,12.3561,21.6813,-0.365055
433,12.3732,22.1966,-0.381227
433.5,12.3904,22.6893,-0.400119
434,12.4076,23.1834,-0.417816
434.5,12.4247,23.6313,-0.435014
435,12.442,24.2046,-0.456734
435.5,12.4596,24.8115,-0.480146
436,12.477,25.3594,-0.500484
436.5,12.4941,25.8848,-0.524168
437,12.5119,26.4781,-0.551425
437.5,12.5292,27.067,-0.575768
438,12.5469,27.7279,-0.603975
438.5,12.5649,28.3593,-0.638341
439,12.5826,28.9815,-0.668453
439.5,12.6,29.5383,-0.701294
440,12.6175,30.114,-0.740586
440.5,12.6352,30.6759,-0.774683
441,12.653,31.3464,-0.811501
441.5,12.6704,31.9462,-0.855554
442,12.6882,32.5666,-0.897456
442.5,12.7062,33.2213,-0.941455
443,12.7233,33.7077,-0.989336
443.5,12.7413,34.2845,-1.06084
444,12.7583,34.8313,-1.1193
444.5,12.7763,35.404,-1.16084
445,12.7936,36.0433,-1.21514
445.5,12.8112,36.4917,-1.28966
446,12.8288,36.8883,-1.3508
446.5,12.846,37.3889,-1.41274
447,12.8637,37.8533,-1.47891
447.5,12.8802,38.1029,-1.54248
448,12.8969,38.3962,-1.60858
448.5,12.9137,38.6941,-1.67745
449,12.9307,38.9638,-1.74888
449.5,12.947,39.1375,-1.82008
450,12.9637,39.2785,-1.8958
450.5,12.9799,39.4324,-1.97107
451,12.9961,39.5166,-2.04875
451.5,13.0121,39.541,-2.12664
452,13.0278,39.5062,-2.20324
452.5,13.0432,39.4068,-2.27721
453,13.0588,39.2465,-2.34935
453.5,13.0738,39.0143,-2.41747
454,13.0888,38.7528,-2.48438
454.5,13.1033,38.3871,-2.54892
455,13.1176,38.0022,-2.61559
455.5,13.1319,37.5495,-2.68452
456,13.146,37.0305,-2.75622
456.5,13.1599,36.433,-2.82889
457,13.1731,35.7948,-2.89736
457.5,13.1865,35.115,-2.96444
458,13.2001,34.3974,-3.02946
458.5,13.2132,33.6173,-3.08847
459,13.226,32.8003,-3.14251
459.5,13.2387,31.934,-3.19188
460,13.2516,30.9937,-3.24075
460.5,13.264,30.0553,-3.28667
461,13.2762,29.0647,-3.33164
461.5,13.2879,28.0642,-3.37502
462,13.2999,26.9838,-3.41976
462.5,13.3118,25.8216,-3.46384
463,13.3233,24.6036,-3.50591
463.5,13.3347,23.3628,-3.54481
464,13.346,22.066,-3.58331
464.5,13.3572,20.7446,-3.62007
465,13.3683,19.4113,-3.65424
465.5,13.3793,18.0712,-3.68548
466,13.3904,16.6883,-3.70557
466.5,13.4013,15.3168,-3.72698
467,13.4121,13.9473,-3.7482
467.5,13.423,12.6139,-3.76563
468,13.4343,11.3324,-3.78163
468.5,13.4456,10.1567,-3.79776
469,13.4574,9.05082,-3.81215
469.5,13.4692,8.06932,-3.82438
470,13.4817,7.17196,-3.83603
470.5,13.4943,6.37875,-3.84668
471,13.5069,5.67776,-3.85626
471.5,13.52,5.05207,-3.86467
472,13.5332,4.50405,-3.87168
472.5,13.5469,4.01384,-3.87752
473,13.5605,3.59666,-3.8827
473.5,13.5747,3.21776,-3.88786
474,13.5886,2.90581,-3.89216
474.5,13.6027,2.62923,-3.89623
475,13.6172,2.38581,-3.90002
475.5,13.6316,2.17931,-3.90333
476,13.6464,1.99085,-3.90677
476.5,13.6612,1.83931,-3.90895
477,13.6759,1.70255,-3.91078
477.5,13.6908,1.59606,-3.91293
478,13.7057,1.50605,-3.91454
478.5,13.7207,1.41585,-3.91598
479,13.736,1.34104,-3.91622
479.5,13.751,1.26566,-3.91755
480,13.7664,1.19861,-3.91758
480.5,13.7816,1.14864,-3.91884
481,13.7968,1.1124,-3.91932
481.5,13.8123,1.07635,-3.92133
482,13.8276,1.04017,-3.92132
482.5,13.8429,1.00757,-3.92209
483,13.8581,0.97702,-3.92265
483.5,13.8736,0.956338,-3.92265
484,13.889,0.936758,-3.92265
484.5,13.9047,0.908223,-3.92265
485,13.9204,0.882072,-3.92309
485.5,13.9359,0.872169,-3.9233
486,13.9513,0.858233,-3.92331
486.5,13.9668,0.846488,-3.92332
487,13.9823,0.823516,-3.92368
487.5,13.9979,0.816275,-3.92397
488,14.0135,0.805471,-3.92397
488.5,14.029,0.787034,-3.92391
489,14.0446,0.781511,-3.92524
489.5,14.06,0.768449,-3.92528
490,14.0757,0.755571,-3.92528
490.5,14.0911,0.749597,-3.92533
491,14.1067,0.744378,-3.92464
491.5,14.1224,0.744358,-3.92421
492,14.1379,0.735371,-3.92558
492.5,14.1536,0.721702,-3.92561
493,14.1694,0.719776,-3.92561
493.5,14.185,0.698961,-3.92561
494,14.201,0.697752,-3.92561
494.5,14.2163,0.693603,-3.92561
495,14.2321,0.69349,-3.92561
495.5,14.2478,0.689422,-3.92561
496,14.2633,0.689015,-3.92561
496.5,14.279,0.681903,-3.92561
497,14.2949,0.67676,-3.9257
497.5,14.3105,0.670423,-3.9269
498,14.326,0.659443,-3.92693
498.5,14.3419,0.647398,-3.92693
499,14.3575,0.646376,-3.92693
499.5,14.3731,0.639467,-3.92694
500,14.3888,0.640058,-3.92722
500.5,14.4045,0.632279,-3.92826
501,14.4196,0.626726,-3.92825
501.5,14.4352,0.625163,-3.92825
502,14.4517,0.624232,-3.92824
502.5,14.4668,0.619879,-3.92959
503,14.4831,0.616762,-3.92955
503.5,14.4991,0.617954,-3.92924
504,14.5146,0.612605,-3.92923
504.5,14.5304,0.609862,-3.92923
505,14.546,0.605702,-3.92923
505.5,14.562,0.601311,-3.92924
506,14.5776,0.596114,-3.92975
506.5,14.5936,0.59319,-3.92978
507,14.6088,0.589787,-3.92924
507.5,14.6247,0.58528,-3.92923
508,14.6402,0.581649,-3.92923
508.5,14.6563,0.573743,-3.92923
509,14.6718,0.577588,-3.92923
509.5,14.6878,0.569138,-3.92923
510,14.7035,0.578,-3.92923
510.5,14.7193,0.571178,-3.92923
511,14.7349,0.567916,-3.92923
511.5,14.7505,0.572579,-3.92923
512,14.7665,0.570134,-3.92923
512.5,14.7822,0.564308,-3.92923
513,14.798,0.566281,-3.92923
513.5,14.8137,0.558533,-3.92923
514,14.8296,0.56572,-3.92923
514.5,14.8453,0.557947,-3.92923
515,14.8611,0.55277,-3.92924
515.5,14.8769,0.547858,-3.92957
516,14.8925,0.54036,-3.93121
516.5,14.9084,0.544454,-3.93253
517,14.9241,0.542045,-3.93278
517.5,14.9399,0.536219,-3.93109
518,14.9558,0.538416,-3.9304
518.5,14.9716,0.537479,-3.92922
519,14.9874,0.535212,-3.92915
519.5,15.003,0.527636,-3.92859
520,15.0191,0.522196,-3.92857
520.5,15.0347,0.523866,-3.92857
521,15.0506,0.523746,-3.92857
521.5,15.0663,0.524035,-3.92857
522,15.082,0.517677,-3.92857
522.5,15.0978,0.516731,-3.92857
523,15.1135,0.512475,-3.92857
523.5,15.1294,0.504103,-3.92879
524,15.145,0.502178,-3.92991
524.5,15.1611,0.500167,-3.92989
525,15.1768,0.495197,-3.92991
525.5,15.1925,0.490032,-3.92885
526,15.2084,0.490246,-3.92872
526.5,15.2241,0.486402,-3.92992
527,15.2403,0.488174,-3.92989
527.5,15.256,0.486419,-3.92989
528,15.271,0.481524,-3.92989
528.5,15.2874,0.476626,-3.9299
529,15.3035,0.469338,-3.93033
529.5,15.3194,0.467707,-3.9312
530,15.3353,0.462243,-3.93121
530.5,15.3509,0.454585,-3.93121
531,15.3666,0.456433,-3.93121
531.5,15.3824,0.453748,-3.93112
532,15.3985,0.449705,-3.92993
532.5,15.4141,0.452368,-3.92989
533,15.4302,0.448558,-3.92989
533.5,15.4459,0.431261,-3.92989
534,15.4617,0.425627,-3.92989
534.5,15.4774,0.430073,-3.92989
535,15.4931,0.426216,-3.92989
535.5,15.5093,0.422908,-3.92989
536,15.5252,0.422941,-3.92989
536.5,15.5408,0.421055,-3.93118
537,15.557,0.416844,-3.92985
537.5,15.5726,0.410143,-3.92989
538,15.5886,0.406305,-3.92992
538.5,15.6043,0.3974,-3.92871
539,15.6201,0.398158,-3.92858
539.5,15.6362,0.398736,-3.92858
540,15.6519,0.394713,-3.92858
540.5,15.6679,0.388367,-3.92858
541,15.6836,0.387989,-3.92858
541.5,15.6994,0.380447,-3.92858
542,15.7156,0.370715,-3.92858
542.5,15.7312,0.366641,-3.92858
543,15.7473,0.371673,-3.92858
543.5,15.763,0.372305,-3.92858
544,15.7788,0.363537,-3.92858
544.5,15.7948,0.350968,-3.92858
545,15.8106,0.3498,-3.92858
545.5,15.8263,0.340071,-3.92858
546,15.8425,0.327221,-3.92858
546.5,15.8583,0.325001,-3.92859
547,15.8742,0.323846,-3.92826
547.5,15.8902,0.322372,-3.92825
548,15.906,0.309662,-3.92825
548.5,15.9211,0.305178,-3.92843
549,15.9378,0.297096,-3.92959
549.5,15.9536,0.297157,-3.92956
550,15.9697,0.300435,-3.92956
550.5,15.9852,0.290928,-3.92956
551,16.0013,0.282579,-3.92951
551.5,16.0171,0.2716,-3.93079
552,16.033,0.271692,-3.93088
552.5,16.049,0.262997,-3.93088
553,16.065,0.261334,-3.93088
553.5,16.0807,0.252478,-3.93088
554,16.0967,0.253337,-3.93088
554.5,16.1124,0.249639,-3.93087
555,16.1286,0.24709,-3.93194
555.5,16.1437,0.238665,-3.93218
556,16.1605,0.231715,-3.93219
556.5,16.176,0.232234,-3.93219
557,16.1922,0.226042,-3.93219
557.5,16.2082,0.216928,-3.93219
558,16.224,0.213806,-3.93219
558.5,16.24,0.209347,-3.93218
559,16.2558,0.203422,-3.9308
559.5,16.2717,0.195482,-3.93186
560,16.2876,0.18578,-3.93219
560.5,16.3036,0.183306,-3.9322
561,16.3195,0.18363,-3.9322
561.5,16.3355,0.17597,-3.9322
562,16.3515,0.171224,-3.93222
562.5,16.3674,0.161386,-3.93083
563,16.3832,0.161281,-3.93087
563.5,16.3991,0.158635,-3.93014
564,16.4153,0.149967,-3.92953
564.5,16.4311,0.14796,-3.92885
565,16.4472,0.137233,-3.9288
565.5,16.463,0.132212,-3.92879
566,16.4789,0.133636,-3.93017
566.5,16.4947,0.128319,-3.9314
567,16.5109,0.124018,-3.93244
567.5,16.527,0.119295,-3.93329
568,16.5428,0.117748,-3.93373
568.5,16.5588,0.115159,-3.93374
569,16.5748,0.110571,-3.93374
569.5,16.5908,0.110223,-3.93525
570,16.6069,0.103685,-3.93539
570.5,16.6228,0.0948929,-3.93538
571,16.6388,0.0877758,-3.93538
571.5,16.6548,0.0855465,-3.93538
572,16.671,0.083232,-3.93538
572.5,16.6867,0.0790171,-3.93538
573,16.7027,0.0709046,-3.93538
573.5,16.7186,0.0594566,-3.93538
574,16.7345,0.06096,-3.93401
574.5,16.7506,0.0588719,-3.93406
575,16.7667,0.0522891,-3.93406
575.5,16.7827,0.0480126,-3.93406
576,16.7986,0.0433216,-3.93406
576.5,16.8146,0.0409684,-3.93379
577,16.8307,0.0379411,-3.93274
577.5,16.8468,0.0385816,-3.93272
578,16.8627,0.0260365,-3.93438
578.5,16.8785,0.0295741,-3.93571
579,16.8949,0.0260575,-3.93678
579.5,16.9106,0.0135857,-3.93681
580,16.9267,0.00774651,-3.9367
580.5,16.9428,0.00347786,-3.93586
581,16.9586,-0.00218426,-3.93345
581.5,16.9747,-0.00436698,-3.93337
582,16.9907,-0.0091,-3.9322
582.5,17.0068,-0.00965758,-3.9322
583,17.0226,-0.0163473,-3.9322
583.5,17.0387,-0.01945,-3.9322
584,17.0549,-0.0213558,-3.9322
584.5,17.0707,-0.024622,-3.9322
585,17.0866,-0.0312163,-3.9322
585.5,17.103,-0.0396861,-3.9322
586,17.119,-0.0412508,-3.9322
586.5,17.135,-0.0531487,-3.9322
587,17.1507,-0.0469526,-3.9322
587.5,17.1669,-0.0526037,-3.93225
588,17.1831,-0.0575189,-3.93345
588.5,17.1991,-0.0595496,-3.93351
589,17.2151,-0.0656367,-3.93351
589.5,17.2315,-0.071025,-3.93351
590,17.247,-0.0738344,-3.93351
590.5,17.2629,-0.0700939,-3.93351
591,17.2789,-0.0721024,-3.93351
591.5,17.2956,-0.0762513,-3.93314
592,17.3114,-0.0787668,-3.93286
592.5,17.3271,-0.0786557,-3.93286
593,17.3434,-0.0764237,-3.93286
593.5,17.3593,-0.0773976,-3.93286
594,17.3754,-0.0803982,-3.93286
594.5,17.3922,-0.0792376,-3.93286
595,17.4082,-0.0808644,-3.93286
595.5,17.4244,-0.084848,-3.93286
596,17.4403,-0.0890386,-3.93286
596.5,17.4563,-0.0956851,-3.93286
597,17.4727,-0.0928423,-3.93282
597.5,17.4886,-0.0937559,-3.93319
598,17.5048,-0.093344,-3.93388
598.5,17.5208,-0.0904707,-3.93385
599,17.5369,-0.0848366,-3.93385
599.5,17.5531,-0.0881818,-3.93384
600,17.5693,-0.0929495,-3.93457
600.5,17.5853,-0.0969951,-3.93516
601,17.6015,-0.0981713,-3.93516
601.5,17.6177,-0.0980069,-3.9351
602,17.6339,-0.10559,-3.93389
602.5,17.6499,-0.0992603,-3.93384
603,17.6661,-0.10122,-3.93384
603.5,17.6823,-0.102139,-3.93384
604,17.6986,-0.102736,-3.93384
604.5,17.7144,-0.104334,-3.93384
605,17.7303,-0.101911,-3.93384
605.5,17.7463,-0.098515,-3.93384
606,17.7624,-0.0970859,-3.93384
606.5,17.7792,-0.0947958,-3.93388
607,17.7954,-0.0951855,-3.9352
607.5,17.8115,-0.0932179,-3.93516
608,17.8276,-0.0893866,-3.93516
608.5,17.8438,-0.0968015,-3.93516
609,17.8601,-0.10133,-3.93516
609.5,17.8763,-0.102492,-3.93516
610,17.8924,-0.0986639,-3.93516
610.5,17.9085,-0.101402,-3.93516
611,17.9248,-0.103646,-3.93516
611.5,17.9407,-0.10602,-3.93516
612,17.957,-0.107569,-3.93516
612.5,17.9732,-0.104387,-3.93516
613,17.9893,-0.102072,-3.93514
613.5,18.0054,-0.108809,-3.93586
614,18.0218,-0.107494,-3.93445
614.5,18.0381,-0.102713,-3.9345
615,18.0541,-0.0974392,-3.9345
615.5,18.0704,-0.0986314,-3.9345
616,18.0865,-0.0995819,-3.9345
616.5,18.1027,-0.0987256,-3.93465
617,18.1187,-0.0931972,-3.93583
617.5,18.135,-0.117051,-3.93578
618,18.1513,-0.120054,-3.93481
618.5,18.1677,-0.120453,-3.93483
619,18.1837,-0.129519,-3.93483
619.5,18.2001,-0.113347,-3.93483
620,18.2162,-0.103403,-3.93483
620.5,18.2325,-0.0972543,-3.93483
621,18.2485,-0.101222,-3.93483
621.5,18.2649,-0.0976555,-3.93483
622,18.281,-0.0988549,-3.93483
622.5,18.2973,-0.0879456,-3.93482
623,18.3136,-0.0876018,-3.93599
623.5,18.33,-0.0830146,-3.93739
624,18.3461,-0.080008,-3.93936
624.5,18.3624,-0.0727911,-3.94134
625,18.3783,-0.0633415,-3.94144
625.5,18.3945,-0.0584306,-3.9423
626,18.4105,-0.0572876,-3.9423
626.5,18.4271,-0.0592392,-3.9423
627,18.4434,-0.0530233,-3.94216
627.5,18.4594,-0.0429517,-3.94097
628,18.4757,-0.0446853,-3.94174
628.5,18.4918,-0.0403699,-3.93991
629,18.5082,-0.0322098,-3.93761
629.5,18.5236,-0.035599,-3.93459
630,18.5399,-0.0565047,-3.93177
630.5,18.5563,-0.0526555,-3.93007
631,18.573,-0.0362266,-3.93011
631.5,18.5893,-0.0280855,-3.93011
632,18.6053,-0.0307315,-3.93011
632.5,18.6215,-0.0262061,-3.93012
633,18.638,-0.0481028,-3.9304
633.5,18.6542,-0.0469642,-3.93076
634,18.6705,-0.0501217,-3.93077
634.5,18.6868,-0.041588,-3.93077
635,18.7031,-0.0384354,-3.93077
635.5,18.7192,-0.0406216,-3.93077
636,18.7348,-0.0462597,-3.93077
636.5,18.751,-0.0393647,-3.93072
637,18.7678,-0.0172932,-3.93209
637.5,18.7841,-0.00972121,-3.93209
638,18.8006,-0.00234716,-3.93209
638.5,18.8165,0.00799087,-3.93209
639,18.8329,0.0118757,-3.93209
639.5,18.8493,0.00267996,-3.93209
640,18.8655,0.00160505,-3.93209
640.5,18.8819,0.0103573,-3.93209
641,18.898,0.0187618,-3.93209
641.5,18.914,0.0223637,-3.93209
642,18.9306,0.032432,-3.93209
642.5,18.9469,0.0343233,-3.93209
643,18.9632,0.0306055,-3.93226
643.5,18.9795,0.0275831,-3.93343
644,18.996,0.027729,-3.93341
644.5,19.012,0.045,-3.93341
645,19.0281,0.0390676,-3.93341
645.5,19.0444,0.0418972,-3.93341
646,19.0605,0.0480368,-3.93341
646.5,19.0765,0.0420962,-3.93341
647,19.0933,0.0417512,-3.93341
647.5,19.1095,0.0471314,-3.93341
648,19.1253,0.0542075,-3.93341
648.5,19.1415,0.0635586,-3.93341
649,19.1585,0.0665429,-3.93341
649.5,19.1747,0.0678179,-3.93341
650,19.1909,0.0714225,-3.93341
650.5,19.2073,0.0757255,-3.93341
651,19.2238,0.0801801,-3.93341
651.5,19.24,0.0874878,-3.93341
652,19.2564,0.103956,-3.93341
652.5,19.2726,0.108153,-3.93341
653,19.2889,0.116588,-3.93341
653.5,19.3052,0.117185,-3.93341
654,19.3215,0.119807,-3.93341
654.5,19.3377,0.123453,-3.93341
655,19.3543,0.123789,-3.9331
655.5,19.3703,0.122487,-3.93207
656,19.3868,0.134025,-3.93209
656.5,19.403,0.139692,-3.93208
657,19.4193,0.140391,-3.93215
657.5,19.4355,0.150659,-3.93272
658,19.452,0.149813,-3.9329
658.5,19.4684,0.158636,-3.93527
659,19.4846,0.155575,-3.93538
659.5,19.5011,0.161744,-3.93539
660,19.5175,0.169937,-3.93596
660.5,19.5337,0.163245,-3.9354
661,19.5501,0.170709,-3.93538
661.5,19.5662,0.17708,-3.93538
662,19.5827,0.185511,-3.93538
662.5,19.5988,0.190681,-3.93538
663,19.6152,0.193146,-3.93538
663.5,19.6317,0.191269,-3.93534
664,19.648,0.196988,-3.93672
664.5,19.6642,0.202345,-3.9367
665,19.6806,0.204266,-3.9367
665.5,19.697,0.201825,-3.9367
666,19.7134,0.211385,-3.9367
666.5,19.7297,0.217832,-3.93671
667,19.7462,0.217687,-3.93594
667.5,19.7624,0.216456,-3.93538
668,19.7788,0.228724,-3.93538
668.5,19.7949,0.228269,-3.93538
669,19.8113,0.224115,-3.93538
669.5,19.8275,0.221591,-3.93537
670,19.8439,0.22854,-3.93482
670.5,19.8604,0.235637,-3.93472
671,19.8765,0.239807,-3.93473
671.5,19.8931,0.241449,-3.93391
672,19.9095,0.247117,-3.93341
672.5,19.9257,0.244731,-3.93341
673,19.9423,0.242957,-3.93341
673.5,19.9582,0.243942,-3.93341
674,19.9746,0.246813,-3.93341
674.5,19.9911,0.252092,-3.93341
675,20.0075,0.254202,-3.93341
675.5,20.0236,0.259922,-3.93349
676,20.0402,0.261542,-3.93256
676.5,20.0565,0.261752,-3.93072
677,20.0729,0.26731,-3.93078
677.5,20.0891,0.26941,-3.93248
678,20.1054,0.270235,-3.93399
678.5,20.1219,0.268354,-3.93476
679,20.1383,0.269854,-3.93593
679.5,20.1544,0.275331,-3.93593
680,20.1709,0.267354,-3.93593
680.5,20.1872,0.276841,-3.93593
681,20.2037,0.277167,-3.93593
681.5,20.2202,0.273128,-3.93593
682,20.2366,0.278558,-3.93593
682.5,20.2527,0.282362,-3.93594
683,20.269,0.28011,-3.93539
683.5,20.2854,0.27553,-3.93528
684,20.3018,0.278294,-3.93528
684.5,20.3181,0.281411,-3.93528
685,20.3345,0.281214,-3.93528
685.5,20.3506,0.281239,-3.93528
686,20.3673,0.281767,-3.93528
686.5,20.3838,0.28179,-3.93528
687,20.4001,0.288733,-3.93528
687.5,20.4161,0.288173,-3.93528
688,20.4327,0.287029,-3.93528
688.5,20.4485,0.28813,-3.93528
689,20.4652,0.287519,-3.93528
689.5,20.4813,0.287272,-3.93627
690,20.4977,0.288341,-3.93659
690.5,20.5142,0.286183,-3.93659
691,20.531,0.288728,-3.93658
691.5,20.5474,0.290065,-3.93606
692,20.5639,0.289443,-3.93578
692.5,20.5803,0.29062,-3.93658
693,20.5964,0.296317,-3.93659
693.5,20.6131,0.29928,-3.93659
694,20.6293,0.300673,-3.93659
694.5,20.6458,0.304892,-3.93659
695,20.6621,0.300864,-3.93659
695.5,20.6784,0.30145,-3.93659
696,20.6948,0.30363,-3.93659
696.5,20.7113,0.310599,-3.93659
697,20.7277,0.316686,-3.93659
697.5,20.7439,0.311955,-3.93659
698,20.7605,0.311689,-3.93659
698.5,20.7768,0.314322,-3.93659
699,20.7933,0.3228,-3.93659
699.5,20.8099,0.315855,-3.93659
700,20.826,0.321712,-3.93659
700.5,20.8427,0.318813,-3.93659
701,20.8591,0.319152,-3.93659
701.5,20.8753,0.322788,-3.93657
702,20.8916,0.323083,-3.93522
702.5,20.9083,0.326165,-3.93527
703,20.9247,0.330341,-3.93528
703.5,20.941,0.325226,-3.93411
704,20.9573,0.333807,-3.93395
704.5,20.9736,0.340332,-3.93395
705,20.9903,0.337255,-3.93395
705.5,21.007,0.333675,-3.93395
706,21.0234,0.33279,-3.93395
706.5,21.0397,0.335958,-3.93395
707,21.056,0.342561,-3.93393
707.5,21.0725,0.340283,-3.93499
708,21.0891,0.339344,-3.93527
708.5,21.1056,0.339265,-3.93527
709,21.1219,0.345442,-3.93527
709.5,21.1382,0.345065,-3.93527
710,21.1549,0.345894,-3.93527
710.5,21.1712,0.347542,-3.93528
711,21.1875,0.349558,-3.93598
711.5,21.2042,0.351996,-3.935
712,21.2206,0.346328,-3.93469
712.5,21.2368,0.35318,-3.93528
713,21.2531,0.343451,-3.93527
713.5,21.2699,0.355279,-3.93527
714,21.2863,0.355291,-3.93541
714.5,21.3024,0.353339,-3.93754
715,21.319,0.350053,-3.93972
715.5,21.3357,0.355645,-3.9409
716,21.352,0.358466,-3.94174
716.5,21.3681,0.352302,-3.94048
717,21.3852,0.351731,-3.93835
717.5,21.4016,0.350492,-3.93682
718,21.4181,0.351381,-3.93552
718.5,21.4346,0.36461,-3.9355
719,21.4511,0.367831,-3.93433
719.5,21.4676,0.366633,-3.93418
720,21.4837,0.360728,-3.93439
720.5,21.5003,0.355356,-3.93551
721,21.5169,0.359611,-3.93549
721.5,21.5329,0.356526,-3.93549
722,21.5498,0.361896,-3.93549
722.5,21.5656,0.361198,-3.93549
723,21.5827,0.365531,-3.93549
723.5,21.5994,0.360803,-3.93549
724,21.6158,0.352062,-3.93549
724.5,21.6322,0.351425,-3.9343
725,21.6488,0.357316,-3.93417
725.5,21.6653,0.359981,-3.93416
726,21.6819,0.362225,-3.93509
726.5,21.6983,0.356462,-3.93548
727,21.7149,0.35607,-3.93549
727.5,21.731,0.359667,-3.93549
728,21.7477,0.355501,-3.93549
728.5,21.7639,0.352113,-3.93549
729,21.7806,0.352698,-3.93549
729.5,21.7972,0.344525,-3.9355
730,21.8136,0.34087,-3.93436
730.5,21.83,0.332753,-3.93417
731,21.8465,0.33539,-3.93417
731.5,21.8629,0.343468,-3.93417
732,21.8795,0.343369,-3.93417
732.5,21.896,0.3472,-3.93417
733,21.9123,0.342048,-3.93417
733.5,21.9291,0.338095,-3.93417
734,21.9457,0.334084,-3.93417
734.5,21.9621,0.328488,-3.93417
735,21.9784,0.326942,-3.93417
735.5,21.9951,0.329535,-3.93417
736,22.0117,0.322435,-3.93417
736.5,22.0282,0.322255,-3.93417
737,22.0445,0.322527,-3.93417
737.5,22.0612,0.322204,-3.93417
738,22.0775,0.317288,-3.93417
738.5,22.0945,0.320899,-3.93417
739,22.1108,0.312998,-3.93417
739.5,22.1272,0.314964,-3.93417
740,22.1434,0.321106,-3.93415
740.5,22.1602,0.317549,-3.93314
741,22.1768,0.308923,-3.93318
741.5,22.1933,0.310011,-3.93316
742,22.2099,0.313855,-3.93437
742.5,22.2263,0.31529,-3.9345
743,22.243,0.309727,-3.9345
743.5,22.2593,0.309042,-3.9345
744,22.276,0.311233,-3.9345
744.5,22.2926,0.304289,-3.9345
745,22.3092,0.300654,-3.9345
745.5,22.3257,0.295859,-3.9345
746,22.3421,0.302333,-3.9348
746.5,22.359,0.303302,-3.93581
747,22.3753,0.304857,-3.93582
747.5,22.3918,0.303723,-3.93582
748,22.4084,0.301335,-3.93582
748.5,22.4249,0.296332,-3.93582
749,22.4414,0.285889,-3.93582
749.5,22.4578,0.285041,-3.93582
750,22.4745,0.28228,-3.93581
750.5,22.4911,0.277434,-3.93674
751,22.5078,0.273323,-3.93713
751.5,22.5241,0.268069,-3.93714
752,22.5406,0.265306,-3.93714
752.5,22.5572,0.266069,-3.93714
753,22.5739,0.261787,-3.93714
753.5,22.5905,0.25968,-3.93714
754,22.6068,0.257928,-3.93714
754.5,22.6234,0.261159,-3.93714
755,22.6401,0.258913,-3.93714
755.5,22.6564,0.261394,-3.93714
756,22.673,0.257454,-3.93678
756.5,22.6896,0.250491,-3.93681
757,22.7063,0.247319,-3.93573
757.5,22.7228,0.247018,-3.93549
758,22.7393,0.248432,-3.93554
758.5,22.7557,0.24196,-3.93418
759,22.7725,0.237729,-3.93419
759.5,22.7889,0.232879,-3.9354
760,22.8054,0.240358,-3.93549
760.5,22.8223,0.234623,-3.93549
761,22.8384,0.234002,-3.93549
761.5,22.8554,0.228981,-3.93549
762,22.8711,0.223855,-3.93549
762.5,22.8886,0.225744,-3.93552
763,22.905,0.228925,-3.93412
763.5,22.9217,0.219172,-3.93417
764,22.9381,0.214859,-3.93417
764.5,22.9547,0.206838,-3.93417
765,22.9711,0.21092,-3.93411
765.5,22.9875,0.210969,-3.93343
766,23.0043,0.210563,-3.93417
766.5,23.0206,0.21007,-3.93416
767,23.0374,0.214277,-3.93574
767.5,23.0542,0.213189,-3.93744
768,23.0706,0.212758,-3.93921
768.5,23.0871,0.205627,-3.94065
769,23.1038,0.209819,-3.93956
769.5,23.1202,0.215671,-3.93762
770,23.1369,0.203336,-3.93665
770.5,23.1536,0.205958,-3.93555
771,23.1699,0.208256,-3.93438
771.5,23.1863,0.208177,-3.93439
772,23.2029,0.199332,-3.93439
772.5,23.2195,0.189572,-3.93439
773,23.2363,0.190017,-3.93439
773.5,23.2528,0.188024,-3.93439
774,23.2693,0.186749,-3.93439
774.5,23.286,0.185424,-3.93439
775,23.3027,0.18582,-3.93439
775.5,23.3191,0.185897,-3.93546
776,23.3351,0.182576,-3.93571
776.5,23.3521,0.174812,-3.93571
777,23.3687,0.172442,-3.93678
777.5,23.3853,0.171785,-3.93703
778,23.4021,0.171278,-3.93703
778.5,23.4186,0.170127,-3.93694
779,23.4354,0.172818,-3.93572
779.5,23.4516,0.173344,-3.93571
780,23.4681,0.170455,-3.93571
780.5,23.4846,0.167044,-3.93567
781,23.5013,0.161687,-3.9369
781.5,23.5181,0.166842,-3.93572
782,23.5345,0.167408,-3.93571
782.5,23.5511,0.15764,-3.93571
783,23.5678,0.16148,-3.93571
783.5,23.5843,0.160912,-3.93571
784,23.6009,0.157411,-3.93571
784.5,23.6173,0.162026,-3.93571
785,23.6337,0.156592,-3.93571
785.5,23.6506,0.153667,-3.93571
786,23.6672,0.148816,-3.93571
786.5,23.6838,0.143294,-3.93571
787,23.7004,0.145262,-3.93622
787.5,23.7168,0.142657,-3.93704
788,23.7333,0.134309,-3.93708
788.5,23.7499,0.138455,-3.93567
789,23.7664,0.138339,-3.93571
789.5,23.783,0.13113,-3.93571
790,23.7997,0.124188,-3.93571