File: 01_Data/Nylon_Bourke/STA/N2/30K_min/Nylon_Bourke_STA_N2_30KData_250505_R1.csv
Temp./C,Time/min,DSC/(mW/mg),Mass loss/mg
50.0,0.0,1.60675,-0.0153079
50.5,0.0311213,1.66088,-0.0149332
51,0.0615891,1.71607,-0.0152148
51.5,0.0912895,1.75969,-0.0153034
52,0.120442,1.82168,-0.015267
52.5,0.148133,1.87205,-0.0155614
53,0.176185,1.90677,-0.0155215
53.5,0.203951,1.95195,-0.0148069
54,0.230955,2.00313,-0.0139471
54.5,0.257167,2.04022,-0.0155778
55,0.284115,2.08615,-0.0181268
55.5,0.310021,2.13321,-0.0177048
56,0.335006,2.18472,-0.0182432
56.5,0.360882,2.22277,-0.0182117
57,0.385767,2.25183,-0.018243
57.5,0.41057,2.30596,-0.0181364
58,0.435016,2.34839,-0.0181374
58.5,0.458978,2.3783,-0.019015
59,0.483375,2.42139,-0.0199812
59.5,0.50715,2.46008,-0.0189846
60,0.530136,2.49396,-0.0201604
60.5,0.553563,2.52975,-0.020649
61,0.576986,2.56865,-0.021159
61.5,0.597802,2.60372,-0.0211503
62,0.62236,2.62719,-0.0203099
62.5,0.644837,2.67581,-0.0178618
63,0.667383,2.69853,-0.015191
63.5,0.689809,2.73469,-0.0168463
64,0.711614,2.76746,-0.0197372
64.5,0.733564,2.80525,-0.0231081
65,0.755698,2.83187,-0.0239934
65.5,0.777792,2.87158,-0.0248111
66,0.798684,2.89857,-0.0249588
66.5,0.821123,2.93236,-0.0244661
67,0.842111,2.96211,-0.0244686
67.5,0.862989,2.98628,-0.0249556
68,0.88415,3.02625,-0.025098
68.5,0.904912,3.0443,-0.024162
69,0.926805,3.07774,-0.0241702
69.5,0.94766,3.1076,-0.0236741
70,0.968274,3.13993,-0.0235971
70.5,0.989166,3.16576,-0.0238079
71,1.01048,3.1946,-0.0246636
71.5,1.03096,3.22182,-0.0257096
72,1.05091,3.24333,-0.0255442
72.5,1.07178,3.27349,-0.02532
73,1.09189,3.29835,-0.0256902
73.5,1.11237,3.32113,-0.0262094
74,1.13245,3.34097,-0.0256362
74.5,1.15267,3.36098,-0.0266285
75,1.17268,3.38627,-0.0264767
75.5,1.19303,3.41302,-0.0257759
76,1.21279,3.43166,-0.0272441
76.5,1.23241,3.44953,-0.0276445
77,1.25262,3.4645,-0.0276393
77.5,1.27239,3.49066,-0.0273425
78,1.29197,3.50189,-0.0266267
78.5,1.31112,3.51887,-0.0267605
79,1.33128,3.54043,-0.0269927
79.5,1.35062,3.56359,-0.0271922
80,1.3699,3.56531,-0.0270521
80.5,1.39008,3.58753,-0.0276108
81,1.40932,3.60113,-0.0270711
81.5,1.42836,3.61638,-0.0274334
82,1.44761,3.62237,-0.0285516
82.5,1.46699,3.64337,-0.0299528
83,1.48673,3.65111,-0.0308676
83.5,1.50526,3.66719,-0.0303806
84,1.52396,3.67344,-0.0315275
84.5,1.54355,3.68367,-0.0315319
85,1.56209,3.69797,-0.0313134
85.5,1.58124,3.70671,-0.0314336
86,1.60014,3.71542,-0.0318367
86.5,1.61909,3.7206,-0.0318223
87,1.63768,3.72903,-0.0322184
87.5,1.65638,3.74005,-0.0318344
88,1.67464,3.74676,-0.0331331
88.5,1.69405,3.74726,-0.0324251
89,1.71242,3.75729,-0.0325092
89.5,1.73077,3.76441,-0.0331454
90,1.74906,3.7724,-0.0329037
90.5,1.76781,3.77577,-0.0332827
91,1.78603,3.7838,-0.03323
91.5,1.80361,3.78585,-0.0348789
92,1.82162,3.79526,-0.0351597
92.5,1.84057,3.79628,-0.0349238
93,1.85967,3.79437,-0.0356367
93.5,1.87765,3.79527,-0.0362261
94,1.89565,3.80008,-0.0362289
94.5,1.91344,3.8062,-0.0370776
95,1.93174,3.80065,-0.0362626
95.5,1.95003,3.81372,-0.0362351
96,1.96798,3.81109,-0.0368169
96.5,1.98591,3.80519,-0.0376321
97,2.00415,3.80309,-0.0369845
97.5,2.022,3.80946,-0.0376441
98,2.0396,3.81842,-0.037652
98.5,2.05785,3.82192,-0.0372823
99,2.07544,3.81673,-0.0370148
99.5,2.0931,3.82181,-0.0376404
100,2.11143,3.82384,-0.0377644
100.5,2.12901,3.82589,-0.0376105
101,2.14647,3.82876,-0.037672
101.5,2.16437,3.83244,-0.0385936
102,2.18209,3.83292,-0.0389612
102.5,2.19946,3.83264,-0.0383952
103,2.21756,3.83457,-0.0376603
103.5,2.23513,3.83344,-0.0376494
104,2.25151,3.83374,-0.0377927
104.5,2.26936,3.83696,-0.0380241
105,2.2877,3.8412,-0.037635
105.5,2.30459,3.83525,-0.0388739
106,2.32267,3.83331,-0.0389706
106.5,2.34003,3.83509,-0.0389766
107,2.35796,3.84143,-0.0387951
107.5,2.37503,3.83899,-0.0389779
108,2.39247,3.84178,-0.0389801
108.5,2.40991,3.84079,-0.03898
109,2.42746,3.84724,-0.0389804
109.5,2.44459,3.85592,-0.0389906
110,2.46185,3.85042,-0.0389051
110.5,2.47951,3.84667,-0.0389686
111,2.49687,3.85089,-0.03897
111.5,2.51449,3.85639,-0.0389699
112,2.5316,3.86101,-0.0389647
112.5,2.54889,3.86198,-0.0384461
113,2.56593,3.86257,-0.0376471
113.5,2.58363,3.86876,-0.0376356
114,2.60052,3.865,-0.038587
114.5,2.61777,3.87347,-0.0389509
115,2.63508,3.87373,-0.0381093
115.5,2.65222,3.88005,-0.0378539
116,2.66944,3.88292,-0.0389835
116.5,2.68652,3.88832,-0.0389704
117,2.70371,3.89749,-0.0389678
117.5,2.72065,3.90936,-0.038973
118,2.73816,3.91597,-0.0390165
118.5,2.75476,3.915,-0.0389776
119,2.77223,3.91886,-0.03898
119.5,2.78905,3.92546,-0.0389772
120,2.80589,3.92902,-0.0387297
120.5,2.8227,3.93519,-0.0380078
121,2.84003,3.94064,-0.0379816
121.5,2.85697,3.95006,-0.039167
122,2.87438,3.96136,-0.0392997
122.5,2.89091,3.96663,-0.0393001
123,2.90793,3.98124,-0.0393
123.5,2.92458,3.99624,-0.0393
124,2.94146,4.00629,-0.0393
124.5,2.95879,4.01586,-0.0393001
125,2.97565,4.02342,-0.0392935
125.5,2.99243,4.03698,-0.0390117
126,3.00919,4.05022,-0.0389672
126.5,3.02594,4.06298,-0.03897
127,3.04283,4.08478,-0.0389701
127.5,3.05971,4.10959,-0.0389677
128,3.07637,4.11401,-0.0388504
128.5,3.09344,4.14654,-0.0389956
129,3.10993,4.16832,-0.0389701
129.5,3.12643,4.19981,-0.03897
130,3.14332,4.22098,-0.0389701
130.5,3.15968,4.25217,-0.0389811
131,3.1767,4.27659,-0.0391188
131.5,3.19354,4.3097,-0.0389615
132,3.20981,4.35861,-0.0389706
132.5,3.22665,4.40243,-0.0389699
133,3.24329,4.44399,-0.0389707
133.5,3.26002,4.47957,-0.0391065
134,3.27643,4.52742,-0.04029
134.5,3.29308,4.57312,-0.0402916
135,3.30951,4.60419,-0.04029
135.5,3.32584,4.65219,-0.04029
136,3.34248,4.69898,-0.04029
136.5,3.35816,4.73383,-0.0402901
137,3.375,4.78289,-0.0402882
137.5,3.3921,4.81938,-0.0400677
138,3.40867,4.84845,-0.0389601
138.5,3.4253,4.88039,-0.0389795
139,3.44127,4.90663,-0.0389937
139.5,3.45779,4.92947,-0.0396141
140,3.47378,4.94788,-0.0402775
140.5,3.49009,4.9678,-0.0402768
141,3.50634,4.98286,-0.03969
141.5,3.5225,4.99339,-0.0389805
142,3.53901,5.00747,-0.0390244
142.5,3.55495,5.02111,-0.0403301
143,3.57132,5.02401,-0.0402903
143.5,3.58739,5.03404,-0.0402899
144,3.60325,5.03873,-0.04029
144.5,3.61955,5.04407,-0.0402902
145,3.63518,5.04309,-0.0402802
145.5,3.65174,5.05064,-0.0397865
146,3.66736,5.05836,-0.0401896
146.5,3.68359,5.06079,-0.0409588
147,3.69938,5.06346,-0.0409498
147.5,3.71554,5.07133,-0.04095
148,3.73157,5.0796,-0.0409499
148.5,3.74747,5.07286,-0.0409508
149,3.76342,5.07601,-0.0410126
149.5,3.77927,5.08351,-0.0402724
150,3.7951,5.08064,-0.0402913
150.5,3.81137,5.07955,-0.0402901
151,3.82677,5.08455,-0.04029
151.5,3.84254,5.08393,-0.04029
152,3.85869,5.1001,-0.04029
152.5,3.87465,5.09854,-0.04029
153,3.89054,5.09653,-0.0402902
153.5,3.90597,5.09917,-0.0402919
154,3.92197,5.1011,-0.040173
154.5,3.93809,5.10388,-0.0389225
155,3.95373,5.1064,-0.0401173
155.5,3.96965,5.10734,-0.0402902
156,3.98545,5.1126,-0.0405133
156.5,4.00117,5.12456,-0.0416362
157,4.01728,5.12697,-0.0407404
157.5,4.03288,5.13027,-0.0402922
158,4.04829,5.13507,-0.0402901
158.5,4.0641,5.14163,-0.0402851
159,4.08002,5.14721,-0.0399706
159.5,4.09579,5.13805,-0.0389472
160,4.11135,5.13805,-0.038969
160.5,4.12719,5.14155,-0.0389578
161,4.14301,5.14697,-0.0397915
161.5,4.15862,5.15055,-0.0399609
162,4.17382,5.15547,-0.0399602
162.5,4.19,5.15386,-0.0399575
163,4.20539,5.15764,-0.0399817
163.5,4.22132,5.15688,-0.0402813
164,4.23692,5.16329,-0.0402897
164.5,4.25226,5.16327,-0.04029
165,4.26801,5.15675,-0.0402913
165.5,4.28345,5.14794,-0.0403332
166,4.29927,5.15175,-0.0390328
166.5,4.31453,5.14418,-0.038977
167,4.33008,5.13661,-0.0389797
167.5,4.34578,5.12521,-0.03898
168,4.36126,5.11272,-0.03898
168.5,4.37703,5.10776,-0.03898
169,4.39232,5.10305,-0.03898
169.5,4.40806,5.10272,-0.03898
170,4.42352,5.0979,-0.03898
170.5,4.43858,5.09351,-0.03898
171,4.45408,5.07734,-0.03898
171.5,4.46962,5.06556,-0.03898
172,4.48506,5.04941,-0.03898
172.5,4.50042,5.03041,-0.03898
173,4.51598,5.01349,-0.0389843
173.5,4.53137,4.98302,-0.0391586
174,4.54674,4.95479,-0.040289
174.5,4.56202,4.93276,-0.0402912
175,4.57727,4.9081,-0.0402901
175.5,4.593,4.88046,-0.04029
176,4.60816,4.85126,-0.04029
176.5,4.62299,4.81578,-0.04029
177,4.63869,4.77723,-0.04029
177.5,4.65402,4.73719,-0.04029
178,4.66939,4.69187,-0.04029
178.5,4.68463,4.65091,-0.04029
179,4.69983,4.60889,-0.04029
179.5,4.71488,4.55771,-0.04029
180,4.73,4.51262,-0.04029
180.5,4.74499,4.46724,-0.0402902
181,4.7604,4.41937,-0.0402925
181.5,4.77539,4.37585,-0.0407009
182,4.79047,4.33466,-0.041254
182.5,4.80581,4.29415,-0.0412693
183,4.82087,4.26431,-0.04127
183.5,4.83612,4.23627,-0.04127
184,4.85141,4.22089,-0.04127
184.5,4.86654,4.19804,-0.04127
185,4.88208,4.18234,-0.04127
185.5,4.89697,4.17981,-0.04127
186,4.91229,4.18375,-0.04127
186.5,4.92754,4.19659,-0.0412698
187,4.94265,4.23213,-0.0412581
187.5,4.95836,4.25625,-0.0408577
188,4.97357,4.2955,-0.039954
188.5,4.98869,4.34029,-0.0389679
189,5.00403,4.38768,-0.0389793
189.5,5.01955,4.44424,-0.03898
190,5.03539,4.50063,-0.03898
190.5,5.04963,4.54249,-0.0389798
191,5.06594,4.61027,-0.038978
191.5,5.0812,4.6464,-0.0390413
192,5.09651,4.70948,-0.0403469
192.5,5.1117,4.76847,-0.0402922
193,5.12717,4.81874,-0.04029
193.5,5.14239,4.87559,-0.04029
194,5.15768,4.92452,-0.0402892
194.5,5.17286,4.97829,-0.0402713
195,5.18853,5.03321,-0.0411426
195.5,5.20368,5.08009,-0.0415969
196,5.21914,5.12014,-0.0415995
196.5,5.2342,5.16152,-0.0416002
197,5.24931,5.20086,-0.0416132
197.5,5.26484,5.24257,-0.0420455
198,5.28002,5.28135,-0.0426464
198.5,5.29537,5.32939,-0.0414068
199,5.31044,5.35458,-0.0412807
199.5,5.32567,5.40166,-0.0412802
200,5.3407,5.43803,-0.041292
200.5,5.35617,5.48132,-0.0417362
201,5.37135,5.50917,-0.04259
201.5,5.3863,5.51689,-0.0425892
202,5.40165,5.55205,-0.0425902
202.5,5.41663,5.59481,-0.0425931
203,5.43183,5.63103,-0.0425712
203.5,5.44635,5.65,-0.0412284
204,5.46155,5.68397,-0.0412769
204.5,5.47735,5.71346,-0.0412799
205,5.49262,5.73677,-0.04128
205.5,5.50721,5.74728,-0.04128
206,5.52216,5.77767,-0.04128
206.5,5.53797,5.79631,-0.0412802
207,5.55318,5.81931,-0.0412796
207.5,5.56808,5.84252,-0.0411312
208,5.58346,5.86879,-0.0399174
208.5,5.59848,5.89116,-0.0399588
209,5.61347,5.92387,-0.03996
209.5,5.62844,5.9493,-0.03996
210,5.64363,5.97593,-0.0399597
210.5,5.65879,5.99592,-0.0399573
211,5.67375,6.01158,-0.0399919
211.5,5.68886,6.03276,-0.041338
212,5.70398,6.04407,-0.0412832
212.5,5.71893,6.06275,-0.0412801
213,5.73433,6.1012,-0.04128
213.5,5.7492,6.12655,-0.04128
214,5.76415,6.14011,-0.04128
214.5,5.77932,6.16069,-0.04128
215,5.79433,6.18192,-0.0412803
215.5,5.80929,6.20566,-0.041296
216,5.82463,6.23195,-0.0407264
216.5,5.83949,6.25982,-0.0406207
217,5.85454,6.27566,-0.0406618
217.5,5.8695,6.29775,-0.0409366
218,5.88472,6.3405,-0.0409081
218.5,5.89973,6.36504,-0.0422474
219,5.91461,6.38068,-0.0422754
219.5,5.9297,6.40624,-0.0418145
220,5.9448,6.43331,-0.0416163
220.5,5.95983,6.47083,-0.0416102
221,5.97506,6.50317,-0.04161
221.5,5.98961,6.52564,-0.04161
222,6.00513,6.56539,-0.04161
222.5,6.02002,6.5912,-0.04161
223,6.03514,6.62209,-0.04161
223.5,6.05032,6.66404,-0.04161
224,6.06523,6.70348,-0.04161
224.5,6.08026,6.73773,-0.04161
225,6.09509,6.77207,-0.04161
225.5,6.11055,6.81466,-0.04161
226,6.12562,6.85482,-0.04161
226.5,6.1407,6.89508,-0.04161
227,6.1557,6.93931,-0.04161
227.5,6.17068,6.98414,-0.04161
228,6.18562,7.03318,-0.04161
228.5,6.20053,7.08695,-0.04161
229,6.21576,7.13603,-0.04161
229.5,6.23086,7.17003,-0.04161
230,6.24618,7.22685,-0.04161
230.5,6.26121,7.2882,-0.04161
231,6.27614,7.33819,-0.04161
231.5,6.29108,7.38629,-0.04161
232,6.30624,7.43715,-0.04161
232.5,6.32133,7.50258,-0.0416091
233,6.33659,7.55741,-0.0415954
233.5,6.35139,7.60429,-0.0410777
234,6.36669,7.65819,-0.0402956
234.5,6.38179,7.72169,-0.0402933
235,6.39681,7.78427,-0.0403943
235.5,6.41196,7.85029,-0.0415748
236,6.42711,7.91134,-0.0416103
236.5,6.44196,7.97634,-0.0416095
237,6.45721,8.04616,-0.0415939
237.5,6.47218,8.12004,-0.0410787
238,6.48743,8.19389,-0.0406226
238.5,6.50252,8.26969,-0.0406204
239,6.51784,8.3348,-0.04062
239.5,6.53295,8.40325,-0.04062
240,6.54784,8.45845,-0.04062
240.5,6.56284,8.50684,-0.04062
241,6.57785,8.5473,-0.04062
241.5,6.59294,8.59196,-0.04062
242,6.60773,8.61267,-0.04062
242.5,6.62304,8.63979,-0.0406192
243,6.63756,8.65078,-0.0405845
243.5,6.65267,8.66577,-0.0416533
244,6.66752,8.66712,-0.0429324
244.5,6.68243,8.66279,-0.0429313
245,6.69713,8.64282,-0.0429255
245.5,6.71211,8.61925,-0.0427147
246,6.72654,8.57558,-0.041574
246.5,6.74122,8.51848,-0.0416091
247,6.75592,8.46604,-0.04161
247.5,6.77044,8.39267,-0.04161
248,6.78485,8.30873,-0.04161
248.5,6.79947,8.22354,-0.04161
249,6.81418,8.13101,-0.04161
249.5,6.82864,8.03062,-0.0416099
250,6.84302,7.94787,-0.0416078
250.5,6.85752,7.86024,-0.0415722
251,6.87207,7.77077,-0.0419442
251.5,6.88657,7.68814,-0.0419288
252,6.90091,7.616,-0.0418903
252.5,6.91542,7.54139,-0.0418391
253,6.9301,7.45021,-0.0419271
253.5,6.94458,7.39262,-0.0419298
254,6.9591,7.31656,-0.04193
254.5,6.97389,7.23232,-0.04193
255,6.98799,7.17954,-0.04193
255.5,7.00286,7.11708,-0.04193
256,7.01758,7.06175,-0.04193
256.5,7.03224,7.01482,-0.04193
257,7.04663,6.97999,-0.04193
257.5,7.06132,6.93905,-0.04193
258,7.07608,6.90654,-0.04193
258.5,7.09078,6.87627,-0.04193
259,7.1055,6.84179,-0.04193
259.5,7.11984,6.80989,-0.04193
260,7.13475,6.78914,-0.0419304
260.5,7.14937,6.76624,-0.0419412
261,7.16388,6.74667,-0.0422433
261.5,7.17864,6.73217,-0.043272
262,7.1935,6.71946,-0.04325
262.5,7.20792,6.7005,-0.04325
263,7.22278,6.69105,-0.04325
263.5,7.2374,6.68848,-0.04325
264,7.25219,6.67,-0.04325
264.5,7.26735,6.65893,-0.04325
265,7.28164,6.64954,-0.0432505
265.5,7.29671,6.64666,-0.0432636
266,7.31138,6.64205,-0.0436594
266.5,7.32579,6.6303,-0.0445694
267,7.34092,6.62267,-0.0439717
267.5,7.35575,6.62289,-0.0432688
268,7.37024,6.61931,-0.043261
268.5,7.38491,6.61601,-0.0432601
269,7.39993,6.6128,-0.04326
269.5,7.41488,6.60689,-0.0432604
270,7.42945,6.60489,-0.0432701
270.5,7.44397,6.60332,-0.0435787
271,7.45888,6.6029,-0.0445897
271.5,7.47392,6.61075,-0.0445696
272,7.4885,6.60432,-0.0445699
272.5,7.50343,6.60637,-0.04457
273,7.51812,6.60401,-0.04457
273.5,7.53283,6.60365,-0.04457
274,7.54736,6.60005,-0.04457
274.5,7.56227,6.60815,-0.0445698
275,7.57678,6.60409,-0.0445658
275.5,7.59188,6.6033,-0.0443761
276,7.6064,6.60858,-0.0435835
276.5,7.62135,6.60376,-0.0435909
277,7.63591,6.6069,-0.0435901
277.5,7.65096,6.60303,-0.04359
278,7.66543,6.60724,-0.04359
278.5,7.6802,6.60541,-0.04359
279,7.69519,6.60689,-0.0435902
279.5,7.70979,6.60969,-0.0435945
280,7.72463,6.61445,-0.0437614
280.5,7.73969,6.61804,-0.0448905
281,7.75438,6.6246,-0.044901
281.5,7.76908,6.62032,-0.0449001
282,7.7839,6.60972,-0.0448997
282.5,7.79875,6.6159,-0.0448958
283,7.8135,6.61222,-0.0446276
283.5,7.82808,6.61547,-0.0439197
284,7.8429,6.62206,-0.0439111
284.5,7.85751,6.62005,-0.0439101
285,7.87256,6.61809,-0.04391
285.5,7.88726,6.61839,-0.0439096
286,7.90211,6.61912,-0.0438785
286.5,7.91694,6.61673,-0.0449758
287,7.93168,6.61845,-0.0452221
287.5,7.94669,6.62147,-0.04523
288,7.96124,6.6142,-0.04523
288.5,7.97585,6.61489,-0.04523
289,7.9909,6.61774,-0.0452298
289.5,8.0049,6.61261,-0.045227
290,8.01962,6.61543,-0.0452127
290.5,8.03519,6.61847,-0.0467315
291,8.04999,6.61748,-0.0467729
291.5,8.06483,6.61136,-0.048008
292,8.07983,6.61073,-0.0480893
292.5,8.09458,6.62183,-0.0480901
293,8.10921,6.61457,-0.04809
293.5,8.12382,6.61519,-0.04809
294,8.13899,6.61878,-0.0480901
294.5,8.1537,6.61466,-0.0480898
295,8.16852,6.61234,-0.0480625
295.5,8.18361,6.61743,-0.0491427
296,8.19814,6.61743,-0.0493919
296.5,8.21305,6.6177,-0.0493999
297,8.22785,6.61708,-0.0494
297.5,8.2424,6.61596,-0.0494
298,8.2575,6.61352,-0.0494
298.5,8.27202,6.61346,-0.0494
299,8.28704,6.61094,-0.0494
299.5,8.30183,6.61048,-0.0494
300,8.31658,6.60751,-0.0494
300.5,8.33159,6.60795,-0.0494
301,8.34628,6.6162,-0.0494
301.5,8.36118,6.61286,-0.0493989
302,8.3759,6.61102,-0.0493622
302.5,8.3909,6.60602,-0.0505256
303,8.4056,6.60711,-0.0507148
303.5,8.42056,6.6092,-0.0507201
304,8.4351,6.60659,-0.05072
304.5,8.45022,6.60313,-0.0507202
305,8.46488,6.61224,-0.0507225
305.5,8.47934,6.60924,-0.0507433
306,8.49438,6.61641,-0.050396
306.5,8.50933,6.61605,-0.0503905
307,8.52418,6.61326,-0.0503851
307.5,8.53933,6.61239,-0.0501561
308,8.55396,6.61617,-0.0490666
308.5,8.56855,6.61238,-0.0490688
309,8.58366,6.61117,-0.0490698
309.5,8.59853,6.6067,-0.0490687
310,8.61329,6.60987,-0.0490669
310.5,8.62813,6.61523,-0.0501614
311,8.64297,6.61039,-0.0503843
311.5,8.65769,6.60764,-0.0503897
312,8.67255,6.60613,-0.05039
312.5,8.68721,6.60929,-0.05039
313,8.70221,6.61104,-0.0503898
313.5,8.71733,6.60456,-0.0503861
314,8.73189,6.60876,-0.0503434
314.5,8.74672,6.60478,-0.051706
315,8.76168,6.59399,-0.0517131
315.5,8.77672,6.59918,-0.0517102
316,8.79159,6.60236,-0.05171
316.5,8.8063,6.59929,-0.05171
317,8.82109,6.60215,-0.05171
317.5,8.83596,6.60302,-0.05171
318,8.85066,6.60447,-0.05171
318.5,8.86604,6.60116,-0.05171
319,8.88034,6.60024,-0.05171
319.5,8.89549,6.59943,-0.05171
320,8.9103,6.60374,-0.05171
320.5,8.92501,6.6042,-0.05171
321,8.93997,6.59567,-0.05171
321.5,8.95465,6.59405,-0.05171
322,8.96951,6.59329,-0.05171
322.5,8.98445,6.59067,-0.05171
323,8.99931,6.58423,-0.05171
323.5,9.01394,6.58475,-0.0517095
324,9.029,6.58333,-0.0516728
324.5,9.04394,6.58326,-0.0528121
325,9.05919,6.58771,-0.0530172
325.5,9.07387,6.5919,-0.0530185
326,9.08864,6.59184,-0.0540589
326.5,9.10338,6.59213,-0.0556945
327,9.11858,6.59112,-0.055661
327.5,9.13332,6.59258,-0.05566
328,9.14838,6.58627,-0.0556569
328.5,9.16305,6.58671,-0.055542
329,9.17794,6.58672,-0.0544074
329.5,9.19314,6.57907,-0.0546427
330,9.20796,6.57149,-0.0556739
330.5,9.2229,6.57386,-0.0556613
331,9.23764,6.58335,-0.0556601
331.5,9.25259,6.58227,-0.05566
332,9.26753,6.5727,-0.05566
332.5,9.28224,6.5686,-0.0556591
333,9.29737,6.56799,-0.0556417
333.5,9.31217,6.56657,-0.0565332
334,9.32722,6.5715,-0.0569682
334.5,9.34217,6.57541,-0.0569694
335,9.35702,6.56918,-0.0569664
335.5,9.37195,6.56669,-0.0569249
336,9.38677,6.55972,-0.0582885
336.5,9.40206,6.55916,-0.0582936
337,9.41682,6.56172,-0.0582868
337.5,9.43111,6.56102,-0.0582357
338,9.44623,6.55759,-0.0595814
338.5,9.46113,6.55747,-0.0596124
339,9.4759,6.55761,-0.0596116
339.5,9.49052,6.55236,-0.0596296
340,9.50567,6.5565,-0.0586275
340.5,9.52065,6.55497,-0.0582963
341,9.5357,6.55592,-0.0583545
341.5,9.55093,6.55307,-0.0595311
342,9.56615,6.54842,-0.0596088
342.5,9.58097,6.54702,-0.05961
343,9.59607,6.54988,-0.0596094
343.5,9.61115,6.55288,-0.0596
344,9.6258,6.54779,-0.05928
344.5,9.64099,6.54922,-0.0592778
345,9.65571,6.54792,-0.0592798
345.5,9.67083,6.5463,-0.05928
346,9.68565,6.54901,-0.05928
346.5,9.70078,6.54961,-0.05928
347,9.71552,6.54759,-0.0592776
347.5,9.73062,6.54795,-0.0592328
348,9.74549,6.54899,-0.060529
348.5,9.76052,6.55124,-0.0599261
349,9.7756,6.54949,-0.0599384
349.5,9.79065,6.54851,-0.0599399
350,9.80549,6.54967,-0.05994
350.5,9.82052,6.55397,-0.05994
351,9.83521,6.55118,-0.0599402
351.5,9.85023,6.5482,-0.0599455
352,9.86547,6.54832,-0.0601687
352.5,9.88032,6.54594,-0.0612631
353,9.89558,6.54596,-0.0612607
353.5,9.91045,6.54879,-0.0612432
354,9.9255,6.54892,-0.0621262
354.5,9.9402,6.55064,-0.0625798
355,9.9556,6.54801,-0.0625797
355.5,9.97029,6.54877,-0.06258
356,9.9855,6.55148,-0.06258
356.5,9.99982,6.54784,-0.06258
357,10.0147,6.55702,-0.0625801
357.5,10.0304,6.55272,-0.0625837
358,10.0456,6.55354,-0.0628214
358.5,10.0606,6.55892,-0.0650175
359,10.0754,6.55147,-0.0652069
359.5,10.0906,6.55701,-0.0652099
360,10.1059,6.54848,-0.06521
360.5,10.1206,6.55236,-0.06521
361,10.1358,6.55327,-0.0652113
361.5,10.1508,6.55952,-0.0652241
362,10.1657,6.55789,-0.064178
362.5,10.181,6.55471,-0.063905
363,10.1959,6.56693,-0.0639003
363.5,10.2109,6.57151,-0.0639
364,10.2262,6.57125,-0.0639
364.5,10.2414,6.57409,-0.0638999
365,10.2563,6.57698,-0.0638974
365.5,10.2716,6.57592,-0.0638585
366,10.2859,6.57941,-0.0651605
366.5,10.3008,6.57873,-0.0652118
367,10.3168,6.57904,-0.0652103
367.5,10.3316,6.58294,-0.0652099
368,10.3466,6.58985,-0.0652098
368.5,10.362,6.59805,-0.0652502
369,10.377,6.60474,-0.0664344
369.5,10.392,6.60621,-0.0665279
370,10.4072,6.60538,-0.06653
370.5,10.422,6.6124,-0.06653
371,10.4371,6.6134,-0.06653
371.5,10.4521,6.61676,-0.06653
372,10.4676,6.62151,-0.0665297
372.5,10.4827,6.62608,-0.0665129
373,10.4979,6.62798,-0.0672985
373.5,10.5129,6.63618,-0.0678529
374,10.528,6.63323,-0.0678497
374.5,10.5432,6.6526,-0.06785
375,10.5584,6.65923,-0.0678501
375.5,10.5732,6.66396,-0.0678502
376,10.5884,6.66767,-0.0678291
376.5,10.6036,6.6692,-0.0689243
377,10.6189,6.66715,-0.0691642
377.5,10.6342,6.67696,-0.0691694
378,10.6491,6.68821,-0.0691355
378.5,10.6643,6.69889,-0.0702945
379,10.6793,6.70032,-0.0704769
379.5,10.6947,6.708,-0.0704797
380,10.71,6.72347,-0.0704594
380.5,10.7251,6.73429,-0.0713064
381,10.7405,6.74263,-0.0717983
381.5,10.7557,6.75177,-0.0717996
382,10.7705,6.76307,-0.0717997
382.5,10.7861,6.77487,-0.0717982
383,10.8009,6.787,-0.0718474
383.5,10.8164,6.80113,-0.0731766
384,10.8315,6.81006,-0.0731229
384.5,10.8467,6.82378,-0.0731205
385,10.8623,6.84119,-0.073651
385.5,10.8771,6.85592,-0.0744556
386,10.8927,6.87364,-0.0744403
386.5,10.9075,6.89149,-0.07444
387,10.923,6.90806,-0.0744401
387.5,10.9382,6.92422,-0.074441
388,10.9535,6.94801,-0.0744393
388.5,10.9689,6.96123,-0.0753763
389,10.9839,6.97983,-0.0758445
389.5,10.9993,7.0021,-0.0758478
390,11.0144,7.02967,-0.0769284
390.5,11.0298,7.05752,-0.0771753
391,11.0453,7.09015,-0.0771798
391.5,11.0605,7.10314,-0.07718
392,11.0757,7.13306,-0.07718
392.5,11.0912,7.16507,-0.0771799
393,11.1062,7.19068,-0.0771793
393.5,11.1217,7.21978,-0.0772245
394,11.1369,7.25087,-0.0784583
394.5,11.1527,7.29209,-0.0786143
395,11.1678,7.32614,-0.0793985
395.5,11.1832,7.36681,-0.0800177
396,11.1988,7.40562,-0.0802571
396.5,11.214,7.44299,-0.0813573
397,11.2296,7.49566,-0.0802178
397.5,11.2449,7.53351,-0.0800397
398,11.2603,7.57518,-0.0803739
398.5,11.2758,7.62672,-0.0813681
399,11.2912,7.67359,-0.0813473
399.5,11.3069,7.73417,-0.0813553
400,11.3223,7.79687,-0.0827261
400.5,11.3376,7.85261,-0.0826694
401,11.3532,7.91429,-0.0826587
401.5,11.3686,7.97807,-0.084031
402,11.3842,8.0476,-0.0839965
402.5,11.3999,8.12428,-0.0846039
403,11.4151,8.18693,-0.0855048
403.5,11.4307,8.26635,-0.0856413
404,11.4463,8.35132,-0.0870452
404.5,11.4617,8.42923,-0.0870922
405,11.4774,8.51077,-0.0886007
405.5,11.493,8.59135,-0.0889906
406,11.5087,8.67835,-0.0902586
406.5,11.5241,8.76949,-0.0910838
407,11.5396,8.87188,-0.0919861
407.5,11.5556,8.96643,-0.0937133
408,11.5713,9.06686,-0.0946368
408.5,11.587,9.16753,-0.0955178
409,11.6029,9.28112,-0.0971388
409.5,11.6183,9.3997,-0.0974489
410,11.6341,9.52686,-0.0986878
410.5,11.6499,9.65087,-0.100389
411,11.6657,9.77062,-0.102116
411.5,11.6816,9.89666,-0.104145
412,11.6974,10.0368,-0.106034
412.5,11.713,10.1693,-0.106968
413,11.7289,10.3044,-0.109684
413.5,11.745,10.45,-0.110041
414,11.7601,10.6048,-0.111867
414.5,11.7765,10.769,-0.114043
415,11.7926,10.9464,-0.116409
415.5,11.8087,11.1132,-0.118882
416,11.8246,11.2868,-0.121592
416.5,11.8403,11.4723,-0.124073
417,11.8568,11.6636,-0.126898
417.5,11.8725,11.8622,-0.12913
418,11.8886,12.0718,-0.131888
418.5,11.9052,12.2827,-0.134393
419,11.9208,12.5034,-0.138217
419.5,11.9372,12.7326,-0.141412
420,11.9534,12.9621,-0.145223
420.5,11.9695,13.2025,-0.148496
421,11.9859,13.4442,-0.152554
421.5,12.0022,13.6856,-0.157822
422,12.0179,13.923,-0.163254
422.5,12.0346,14.1812,-0.168512
423,12.051,14.4372,-0.173168
423.5,12.0673,14.7026,-0.178237
424,12.0839,14.985,-0.18402
424.5,12.1002,15.2693,-0.190041
425,12.1172,15.596,-0.196409
425.5,12.1335,15.8869,-0.202663
426,12.1497,16.1656,-0.209747
426.5,12.1668,16.5027,-0.2177
427,12.1836,16.8607,-0.225713
427.5,12.2002,17.2323,-0.233449
428,12.2169,17.6285,-0.242007
428.5,12.2335,17.967,-0.251217
429,12.2503,18.2958,-0.261225
429.5,12.2668,18.6509,-0.271955
430,12.2841,19.0882,-0.283772
430.5,12.3005,19.4943,-0.294991
431,12.3181,19.9279,-0.307542
431.5,12.3352,20.3984,-0.321056
432,12.3522,20.8599,-0.336035
432.5,12.3692,21.2894,-0.351355
433,12.3867,21.8079,-0.367376
433.5,12.404,22.3147,-0.384283
434,12.4216,22.8942,-0.40268
434.5,12.4392,23.502,-0.421835
435,12.4572,24.1196,-0.44325
435.5,12.4745,24.6575,-0.46517
436,12.4919,25.2632,-0.487833
436.5,12.5099,25.9658,-0.513392
437,12.5274,26.4851,-0.539512
437.5,12.5455,27.1372,-0.568066
438,12.5638,27.8606,-0.598666
438.5,12.5816,28.5218,-0.629913
439,12.5995,29.1685,-0.662664
439.5,12.6178,29.8472,-0.698988
440,12.6358,30.5652,-0.736947
440.5,12.6534,31.2011,-0.774181
441,12.6718,31.9257,-0.816478
441.5,12.6894,32.4756,-0.858413
442,12.707,33.1015,-0.900076
442.5,12.725,33.7091,-0.949702
443,12.743,34.3562,-1.02294
443.5,12.7607,34.9067,-1.08726
444,12.7784,35.5053,-1.14199
444.5,12.7963,36.0835,-1.20016
445,12.8139,36.6192,-1.25823
445.5,12.8314,37.1025,-1.31682
446,12.8483,37.5085,-1.3767
446.5,12.8659,38.0047,-1.44252
447,12.8833,38.4491,-1.50934
447.5,12.9002,38.69,-1.57521
448,12.9173,39.121,-1.64476
448.5,12.9341,39.3367,-1.71525
449,12.9505,39.5797,-1.7878
449.5,12.967,39.7403,-1.86317
450,12.9835,39.8797,-1.93925
450.5,12.9999,39.9683,-2.01666
451,13.0161,40.0044,-2.09538
451.5,13.0317,40.0037,-2.17653
452,13.0466,39.8884,-2.25415
452.5,13.0628,39.786,-2.33944
453,13.0781,39.5824,-2.41778
453.5,13.0932,39.3575,-2.49405
454,13.1077,39.0832,-2.56371
454.5,13.1224,38.6705,-2.63159
455,13.1366,38.2074,-2.69527
455.5,13.1505,37.6819,-2.75606
456,13.1641,37.0704,-2.81663
456.5,13.1775,36.3606,-2.87897
457,13.1906,35.6569,-2.94138
457.5,13.2038,34.8639,-3.00432
458,13.2167,34.0152,-3.06881
458.5,13.2294,33.1247,-3.13301
459,13.2423,32.1773,-3.19713
459.5,13.2546,31.2293,-3.25833
460,13.267,30.2366,-3.31732
460.5,13.2791,29.1962,-3.37159
461,13.2911,28.0877,-3.42275
461.5,13.3029,26.9061,-3.46957
462,13.3143,25.6681,-3.51085
462.5,13.3254,24.3853,-3.54732
463,13.3365,23.0153,-3.58053
463.5,13.3472,21.6596,-3.60326
464,13.3582,20.214,-3.62598
464.5,13.3687,18.7965,-3.65153
465,13.3792,17.326,-3.6742
465.5,13.3896,15.8515,-3.69562
466,13.4,14.4096,-3.7175
466.5,13.411,12.9473,-3.74175
467,13.422,11.5983,-3.76246
467.5,13.4331,10.3552,-3.78101
468,13.4445,9.20446,-3.79733
468.5,13.4565,8.13672,-3.81185
469,13.4687,7.18074,-3.82464
469.5,13.4807,6.34357,-3.83541
470,13.4936,5.56433,-3.84514
470.5,13.5064,4.88562,-3.85445
471,13.5196,4.28106,-3.86233
471.5,13.5326,3.77302,-3.86865
472,13.5463,3.29931,-3.87471
472.5,13.5602,2.88679,-3.87942
473,13.5742,2.54875,-3.88379
473.5,13.5878,2.25524,-3.88757
474,13.6027,1.97821,-3.89153
474.5,13.6166,1.76262,-3.89527
475,13.6315,1.57638,-3.8989
475.5,13.6463,1.40102,-3.90119
476,13.661,1.26088,-3.90187
476.5,13.6759,1.14132,-3.90323
477,13.6911,1.03853,-3.90566
477.5,13.7056,0.950831,-3.90739
478,13.7213,0.869421,-3.90917
478.5,13.7361,0.807357,-3.90951
479,13.7513,0.738813,-3.9094
479.5,13.7665,0.685801,-3.91057
480,13.7815,0.642129,-3.91159
480.5,13.7965,0.598958,-3.9124
481,13.8116,0.570002,-3.91416
481.5,13.8275,0.534647,-3.91527
482,13.8429,0.506727,-3.91552
482.5,13.8583,0.487187,-3.91698
483,13.8738,0.470271,-3.9173
483.5,13.8894,0.44937,-3.91851
484,13.9045,0.425402,-3.91883
484.5,13.9201,0.418193,-3.92001
485,13.9357,0.400519,-3.91997
485.5,13.9511,0.388086,-3.92117
486,13.9667,0.378675,-3.92133
486.5,13.9823,0.368328,-3.92133
487,13.9978,0.360386,-3.92128
487.5,14.0134,0.351745,-3.92264
488,14.029,0.346929,-3.92264
488.5,14.0447,0.345897,-3.92264
489,14.06,0.338654,-3.92264
489.5,14.076,0.328742,-3.92242
490,14.0916,0.32487,-3.9213
490.5,14.1071,0.327378,-3.92133
491,14.1227,0.323377,-3.92269
491.5,14.1385,0.318709,-3.92264
492,14.1539,0.319759,-3.92264
492.5,14.1698,0.309405,-3.92273
493,14.1852,0.309192,-3.92392
493.5,14.201,0.307965,-3.92396
494,14.2168,0.307469,-3.92415
494.5,14.2325,0.302367,-3.92494
495,14.2481,0.295678,-3.92495
495.5,14.2636,0.293463,-3.92495
496,14.2795,0.288641,-3.92493
496.5,14.2947,0.287721,-3.9263
497,14.311,0.28828,-3.92627
497.5,14.3267,0.278188,-3.92627
498,14.3424,0.270883,-3.92627
498.5,14.3581,0.279545,-3.92627
499,14.3736,0.278912,-3.92627
499.5,14.3893,0.275492,-3.92627
500,14.4056,0.270972,-3.92624
500.5,14.4209,0.273522,-3.92759
501,14.4368,0.272522,-3.92691
501.5,14.4525,0.268921,-3.92691
502,14.4683,0.266005,-3.92692
502.5,14.4839,0.263738,-3.92692
503,14.4996,0.262741,-3.92692
503.5,14.5155,0.261374,-3.92693
504,14.5312,0.256939,-3.92623
504.5,14.5468,0.2629,-3.92626
505,14.5629,0.260599,-3.92626
505.5,14.5785,0.26054,-3.92626
506,14.5944,0.247994,-3.92626
506.5,14.6101,0.26055,-3.92626
507,14.626,0.257693,-3.92626
507.5,14.6418,0.257673,-3.9263
508,14.6576,0.257494,-3.92751
508.5,14.6735,0.25681,-3.92755
509,14.6894,0.258341,-3.92825
509.5,14.7052,0.258969,-3.92824
510,14.7208,0.249781,-3.92824
510.5,14.7367,0.248348,-3.92824
511,14.7525,0.248036,-3.92824
511.5,14.7683,0.246559,-3.92824
512,14.7839,0.249884,-3.92824
512.5,14.7998,0.247558,-3.92824
513,14.8158,0.248142,-3.92824
513.5,14.8315,0.243764,-3.92825
514,14.8471,0.245806,-3.92894
514.5,14.8635,0.246094,-3.92955
515,14.8792,0.243248,-3.92956
515.5,14.8951,0.243208,-3.92956
516,14.9106,0.247532,-3.92956
516.5,14.927,0.245375,-3.92956
517,14.9425,0.241427,-3.92956
517.5,14.9583,0.242201,-3.92956
518,14.9742,0.237325,-3.92956
518.5,14.99,0.238697,-3.92956
519,15.006,0.239329,-3.92956
519.5,15.0217,0.236745,-3.92956
520,15.0377,0.235552,-3.92956
520.5,15.0536,0.236962,-3.92958
521,15.0695,0.239688,-3.92843
521.5,15.0853,0.242253,-3.92824
522,15.1014,0.237374,-3.92824
522.5,15.1172,0.231379,-3.92824
523,15.1329,0.234429,-3.92824
523.5,15.1489,0.24028,-3.92824
524,15.1648,0.23848,-3.92824
524.5,15.1807,0.249582,-3.92824
525,15.1965,0.247814,-3.92941
525.5,15.2125,0.240836,-3.92956
526,15.2284,0.241794,-3.92956
526.5,15.2444,0.237367,-3.92956
527,15.2603,0.238168,-3.92956
527.5,15.276,0.239359,-3.92956
528,15.2916,0.250896,-3.92955
528.5,15.3077,0.246156,-3.92919
529,15.3238,0.247846,-3.92891
529.5,15.3396,0.255704,-3.9289
530,15.3556,0.251254,-3.92904
530.5,15.3716,0.251409,-3.93025
531,15.3874,0.251666,-3.93022
531.5,15.4034,0.245843,-3.93022
532,15.4191,0.246226,-3.93022
532.5,15.4354,0.259438,-3.93022
533,15.4511,0.260312,-3.93022
533.5,15.4672,0.253402,-3.93022
534,15.483,0.250263,-3.93022
534.5,15.4989,0.251212,-3.93022
535,15.515,0.247117,-3.93022
535.5,15.5308,0.24465,-3.93021
536,15.5466,0.247836,-3.9299
536.5,15.5627,0.255419,-3.92957
537,15.5786,0.260706,-3.92956
537.5,15.5944,0.257458,-3.92956
538,15.6107,0.259311,-3.92956
538.5,15.6262,0.256255,-3.92956
539,15.6426,0.25839,-3.92957
539.5,15.6584,0.25002,-3.92875
540,15.6745,0.252291,-3.92825
540.5,15.6905,0.251952,-3.92825
541,15.7062,0.251641,-3.92825
541.5,15.7223,0.252988,-3.92824
542,15.7384,0.256859,-3.92906
542.5,15.7544,0.251211,-3.92956
543,15.7705,0.251053,-3.92956
543.5,15.7864,0.247443,-3.92956
544,15.8023,0.243773,-3.92956
544.5,15.8185,0.247787,-3.92956
545,15.8342,0.250402,-3.92956
545.5,15.8503,0.252406,-3.92956
546,15.8663,0.248014,-3.92956
546.5,15.8821,0.251713,-3.92959
547,15.8983,0.246754,-3.92917
547.5,15.9144,0.244033,-3.92955
548,15.9303,0.24553,-3.92956
548.5,15.9463,0.242612,-3.92956
549,15.9623,0.244739,-3.92956
549.5,15.9785,0.242793,-3.92956
550,15.9943,0.235489,-3.92956
550.5,16.0106,0.240609,-3.92956
551,16.0265,0.239635,-3.92988
551.5,16.0421,0.235029,-3.93052
552,16.0584,0.226251,-3.93055
552.5,16.0745,0.229504,-3.93133
553,16.0904,0.228469,-3.93185
553.5,16.1067,0.226741,-3.93186
554,16.1226,0.223788,-3.93186
554.5,16.1386,0.229999,-3.93186
555,16.1546,0.232106,-3.93186
555.5,16.1706,0.226719,-3.93186
556,16.1866,0.223428,-3.93186
556.5,16.2025,0.221469,-3.93186
557,16.2188,0.221612,-3.93186
557.5,16.2348,0.226365,-3.93185
558,16.2509,0.216404,-3.93154
558.5,16.2669,0.205285,-3.93055
559,16.2831,0.212672,-3.93055
559.5,16.2991,0.210052,-3.93055
560,16.3151,0.214844,-3.93056
560.5,16.3313,0.220682,-3.93095
561,16.3474,0.222303,-3.93186
561.5,16.3634,0.219027,-3.93187
562,16.3795,0.209572,-3.93187
562.5,16.3957,0.204341,-3.93187
563,16.4119,0.205023,-3.93187
563.5,16.4277,0.210231,-3.93187
564,16.4437,0.208162,-3.93187
564.5,16.4598,0.206758,-3.93187
565,16.4761,0.208239,-3.93191
565.5,16.492,0.204769,-3.93065
566,16.508,0.205188,-3.93055
566.5,16.5244,0.204132,-3.93055
567,16.5403,0.202248,-3.93055
567.5,16.5565,0.20883,-3.93064
568,16.5725,0.208449,-3.93185
568.5,16.5884,0.209368,-3.93187
569,16.6049,0.207984,-3.93187
569.5,16.6208,0.203217,-3.93187
570,16.6368,0.211683,-3.93187
570.5,16.6531,0.206859,-3.93187
571,16.6691,0.210651,-3.93187
571.5,16.685,0.209882,-3.93206
572,16.7011,0.214717,-3.9332
572.5,16.7175,0.211732,-3.93319
573,16.7335,0.212154,-3.93319
573.5,16.749,0.209408,-3.93272
574,16.7652,0.209961,-3.93253
574.5,16.7814,0.21563,-3.93214
575,16.798,0.219101,-3.93188
575.5,16.8142,0.218404,-3.93187
576,16.8306,0.219476,-3.93187
576.5,16.8464,0.2179,-3.93185
577,16.8624,0.223915,-3.93322
577.5,16.8788,0.215904,-3.93318
578,16.8949,0.217068,-3.93318
578.5,16.9112,0.221522,-3.93318
579,16.9276,0.220832,-3.93318
579.5,16.9435,0.22005,-3.93336
580,16.9593,0.222883,-3.93418
580.5,16.9757,0.225966,-3.93417
581,16.992,0.210876,-3.93417
581.5,17.0079,0.217632,-3.93417
582,17.0243,0.221418,-3.93417
582.5,17.0402,0.223357,-3.93417
583,17.0565,0.211117,-3.93417
583.5,17.0728,0.217882,-3.93417
584,17.0889,0.223547,-3.93417
584.5,17.1042,0.215127,-3.93417
585,17.1214,0.214976,-3.93417
585.5,17.1374,0.218362,-3.93412
586,17.1534,0.216109,-3.93549
586.5,17.1696,0.216842,-3.93549
587,17.1858,0.216475,-3.93549
587.5,17.2022,0.221951,-3.93549
588,17.218,0.217702,-3.93481
588.5,17.2343,0.20817,-3.93483
589,17.2506,0.218499,-3.93483
589.5,17.2664,0.213907,-3.93483
590,17.2831,0.215046,-3.93483
590.5,17.2993,0.21064,-3.93483
591,17.3153,0.212582,-3.93483
591.5,17.3317,0.21113,-3.93482
592,17.3477,0.206921,-3.93453
592.5,17.3639,0.208579,-3.93414
593,17.3801,0.207596,-3.93417
593.5,17.3964,0.203853,-3.93417
594,17.4125,0.198334,-3.93417
594.5,17.4287,0.205996,-3.93416
595,17.4448,0.20293,-3.93497
595.5,17.4609,0.196143,-3.93549
596,17.4775,0.200037,-3.93549
596.5,17.4934,0.19057,-3.93549
597,17.5094,0.19218,-3.93549
597.5,17.5257,0.1939,-3.93549
598,17.542,0.191799,-3.93549
598.5,17.5582,0.194469,-3.93429
599,17.5743,0.197815,-3.93417
599.5,17.5907,0.193946,-3.93417
600,17.6067,0.191293,-3.93417
600.5,17.6229,0.193095,-3.93417
601,17.6392,0.185401,-3.93417
601.5,17.6555,0.180713,-3.93417
602,17.6719,0.181829,-3.93417
602.5,17.6879,0.178969,-3.93417
603,17.7045,0.181482,-3.93417
603.5,17.7206,0.178232,-3.93417
604,17.7365,0.177606,-3.93426
604.5,17.7528,0.179874,-3.93548
605,17.7693,0.17695,-3.93549
605.5,17.7855,0.17699,-3.93549
606,17.8017,0.178829,-3.93545
606.5,17.818,0.17858,-3.93423
607,17.834,0.177542,-3.93417
607.5,17.8505,0.172652,-3.93417
608,17.8666,0.175841,-3.93417
608.5,17.8828,0.179667,-3.93437
609,17.8988,0.1781,-3.93551
609.5,17.9152,0.168182,-3.93549
610,17.9314,0.174906,-3.93554
610.5,17.9478,0.173788,-3.93424
611,17.9641,0.168882,-3.93418
611.5,17.9804,0.163365,-3.93418
612,17.9967,0.157102,-3.93418
612.5,18.0129,0.156967,-3.93418
613,18.0292,0.149718,-3.93418
613.5,18.0455,0.144529,-3.93418
614,18.0615,0.141955,-3.93418
614.5,18.0779,0.144665,-3.93418
615,18.0939,0.142555,-3.93418
615.5,18.1105,0.140483,-3.93418
616,18.1269,0.138039,-3.93418
616.5,18.1432,0.135344,-3.93418
617,18.1595,0.140019,-3.93416
617.5,18.1757,0.139253,-3.9351
618,18.1919,0.141193,-3.93548
618.5,18.2079,0.137792,-3.93549
619,18.2243,0.135063,-3.93544
619.5,18.2407,0.140028,-3.93682
620,18.2575,0.13916,-3.9368
620.5,18.2736,0.14389,-3.9368
621,18.2896,0.141198,-3.93685
621.5,18.3059,0.134103,-3.93556
622,18.3224,0.134738,-3.93451
622.5,18.3384,0.133004,-3.93418
623,18.3548,0.128528,-3.93418
623.5,18.3709,0.128728,-3.93416
624,18.3875,0.131628,-3.93522
624.5,18.4037,0.130803,-3.93549
625,18.42,0.130599,-3.93549
625.5,18.436,0.125705,-3.93549
626,18.4523,0.126087,-3.93549
626.5,18.4688,0.127436,-3.93549
627,18.4852,0.119505,-3.93549
627.5,18.5015,0.124596,-3.93549
628,18.5178,0.123218,-3.93549
628.5,18.5338,0.126929,-3.93549
629,18.5502,0.111753,-3.93549
629.5,18.5668,0.121983,-3.93549
630,18.5821,0.118905,-3.93549
630.5,18.5993,0.122627,-3.93548
631,18.6155,0.121257,-3.93512
631.5,18.6317,0.122052,-3.93516
632,18.6481,0.12481,-3.93516
632.5,18.6644,0.125357,-3.93516
633,18.6808,0.124876,-3.93516
633.5,18.6969,0.120845,-3.93516
634,18.7131,0.122372,-3.93516
634.5,18.7295,0.118593,-3.93516
635,18.7461,0.12169,-3.93516
635.5,18.7621,0.120176,-3.93516
636,18.7785,0.123911,-3.93539
636.5,18.795,0.126161,-3.93746
637,18.8114,0.115533,-3.93882
637.5,18.8277,0.112704,-3.93831
638,18.844,0.118134,-3.93805
638.5,18.8606,0.123204,-3.93574
639,18.8765,0.127841,-3.93541
639.5,18.8928,0.124381,-3.93448
640,18.9092,0.123208,-3.9345
640.5,18.9254,0.118783,-3.93454
641,18.9416,0.115743,-3.93326
641.5,18.958,0.119881,-3.93318
642,18.9744,0.122597,-3.93318
642.5,18.9909,0.130458,-3.93318
643,19.0072,0.129748,-3.93318
643.5,19.0234,0.125674,-3.93355
644,19.0395,0.121147,-3.93451
644.5,19.0559,0.123452,-3.9345
645,19.0723,0.121661,-3.9345
645.5,19.0888,0.119544,-3.9345
646,19.1052,0.119979,-3.9345
646.5,19.1214,0.115539,-3.93452
647,19.1376,0.11472,-3.93523
647.5,19.154,0.109949,-3.93449
648,19.1705,0.106238,-3.9345
648.5,19.1865,0.106153,-3.9345
649,19.2028,0.106636,-3.93451
649.5,19.2197,0.115817,-3.93341
650,19.2355,0.110266,-3.93318
650.5,19.2518,0.107478,-3.93318
651,19.2685,0.107144,-3.93369
651.5,19.2848,0.109009,-3.93417
652,19.3008,0.112583,-3.93467
652.5,19.3173,0.116653,-3.93548
653,19.3336,0.117146,-3.93549
653.5,19.3502,0.110163,-3.93549
654,19.3666,0.105736,-3.93549
654.5,19.3828,0.110712,-3.93549
655,19.3994,0.105495,-3.93549
655.5,19.4157,0.10384,-3.93549
656,19.4323,0.0984191,-3.93549
656.5,19.4483,0.097253,-3.93549
657,19.4645,0.0957631,-3.93549
657.5,19.481,0.102241,-3.93549
658,19.4976,0.100051,-3.93549
658.5,19.5138,0.0971981,-3.93549
659,19.5301,0.099717,-3.93549
659.5,19.5459,0.0960586,-3.93549
660,19.5623,0.0895044,-3.93549
660.5,19.5785,0.0871244,-3.93516
661,19.5956,0.0882329,-3.93483
661.5,19.6121,0.0969034,-3.93483
662,19.6285,0.0993309,-3.93483
662.5,19.6451,0.0952993,-3.93483
663,19.6611,0.0933687,-3.93483
663.5,19.6776,0.10181,-3.93483
664,19.694,0.116411,-3.93483
664.5,19.7104,0.107921,-3.9348
665,19.7266,0.104688,-3.93516
665.5,19.743,0.112079,-3.93517
666,19.7593,0.112584,-3.93571
666.5,19.7757,0.113609,-3.93646
667,19.7925,0.105565,-3.93645
667.5,19.8087,0.101946,-3.93588
668,19.8252,0.107227,-3.93581
668.5,19.8415,0.106592,-3.9358
669,19.8579,0.106426,-3.93543
669.5,19.8743,0.106714,-3.93451
670,19.8907,0.107741,-3.9345
670.5,19.9069,0.113757,-3.9345
671,19.9237,0.110204,-3.9345
671.5,19.9401,0.109805,-3.9345
672,19.9564,0.113717,-3.9345
672.5,19.9729,0.117854,-3.9345
673,19.9891,0.113367,-3.9345
673.5,20.0056,0.11596,-3.9345
674,20.022,0.119289,-3.9345
674.5,20.0384,0.121936,-3.9345
675,20.0548,0.126639,-3.9345
675.5,20.071,0.126726,-3.93451
676,20.0874,0.128798,-3.93523
676.5,20.1038,0.129635,-3.9358
677,20.1204,0.133838,-3.93581
677.5,20.1367,0.132801,-3.93581
678,20.1532,0.13784,-3.9358
678.5,20.1699,0.135988,-3.93613
679,20.186,0.141441,-3.93554
679.5,20.2027,0.140742,-3.93483
680,20.219,0.140404,-3.93483
680.5,20.2355,0.13332,-3.93483
681,20.2519,0.135196,-3.93483
681.5,20.2682,0.138971,-3.93483
682,20.2849,0.154771,-3.93483
682.5,20.3015,0.163038,-3.93483
683,20.3175,0.162646,-3.93483
683.5,20.3339,0.15331,-3.93483
684,20.3506,0.153943,-3.93483
684.5,20.367,0.151024,-3.93483
685,20.3833,0.150239,-3.93483
685.5,20.3996,0.142556,-3.93483
686,20.4164,0.14915,-3.93483
686.5,20.4328,0.155219,-3.93484
687,20.4493,0.160919,-3.93568
687.5,20.4656,0.160027,-3.93582
688,20.4822,0.164582,-3.93582
688.5,20.4987,0.167139,-3.93582
689,20.5149,0.169031,-3.93582
689.5,20.5317,0.166293,-3.93582
690,20.548,0.154886,-3.93582
690.5,20.5641,0.152262,-3.93582
691,20.5809,0.158307,-3.93582
691.5,20.5972,0.160587,-3.93653
692,20.6136,0.165431,-3.93714
692.5,20.63,0.164774,-3.93714
693,20.6465,0.166432,-3.93714
693.5,20.6629,0.16292,-3.93714
694,20.6795,0.164002,-3.93714
694.5,20.6961,0.161175,-3.93714
695,20.7124,0.165862,-3.93714
695.5,20.7289,0.168176,-3.93714
696,20.7453,0.160707,-3.93714
696.5,20.7618,0.161427,-3.93714
697,20.7778,0.165022,-3.93714
697.5,20.7948,0.164736,-3.93715
698,20.8111,0.167762,-3.93638
698.5,20.8277,0.168157,-3.93582
699,20.844,0.170521,-3.93582
699.5,20.8608,0.171944,-3.93581
700,20.8772,0.170221,-3.93551
700.5,20.8939,0.173985,-3.93583
701,20.9099,0.174966,-3.93582
701.5,20.9269,0.179035,-3.93582
702,20.9434,0.181615,-3.93582
702.5,20.9599,0.18263,-3.93581
703,20.9761,0.173933,-3.93557
703.5,20.9926,0.178824,-3.93598
704,21.0093,0.184891,-3.9365
704.5,21.0256,0.183375,-3.93616
705,21.0419,0.183276,-3.93618
705.5,21.0584,0.186743,-3.93582
706,21.0751,0.18557,-3.93582
706.5,21.0916,0.191667,-3.93587
707,21.1082,0.193484,-3.93445
707.5,21.1246,0.19517,-3.9345
708,21.1409,0.190804,-3.9345
708.5,21.1575,0.189157,-3.93444
709,21.1742,0.185029,-3.93526
709.5,21.1907,0.19397,-3.93451
710,21.2073,0.187993,-3.93451
710.5,21.2235,0.188814,-3.93451
711,21.2402,0.184039,-3.93451
711.5,21.2566,0.181868,-3.93347
712,21.273,0.183649,-3.93319
712.5,21.2895,0.18969,-3.93319
713,21.3056,0.190705,-3.93319
713.5,21.3227,0.187188,-3.93319
714,21.3395,0.185193,-3.93319
714.5,21.3558,0.186532,-3.93319
715,21.3726,0.193459,-3.93319
715.5,21.3889,0.193457,-3.93319
716,21.4053,0.194813,-3.93319
716.5,21.422,0.194436,-3.93319
717,21.4382,0.193402,-3.93338
717.5,21.455,0.199954,-3.93453
718,21.4715,0.199822,-3.93452
718.5,21.4883,0.202853,-3.93534
719,21.5046,0.196819,-3.93581
719.5,21.5211,0.199524,-3.93582
720,21.5378,0.200556,-3.93582
720.5,21.5542,0.200141,-3.93586
721,21.5708,0.198691,-3.93718
721.5,21.5874,0.19772,-3.93714
722,21.6038,0.19292,-3.93714
722.5,21.6201,0.191939,-3.93747
723,21.6369,0.19049,-3.93831
723.5,21.6535,0.190252,-3.93712
724,21.6701,0.185118,-3.93714
724.5,21.6861,0.189556,-3.93714
725,21.703,0.17889,-3.93716
725.5,21.7198,0.173083,-3.93618
726,21.7362,0.178538,-3.93583
726.5,21.7526,0.167705,-3.93621
727,21.7693,0.170678,-3.93716
727.5,21.7857,0.169773,-3.93714
728,21.8021,0.166534,-3.93714
728.5,21.8187,0.167271,-3.93714
729,21.8351,0.165569,-3.93714
729.5,21.8519,0.163174,-3.93714
730,21.8684,0.160053,-3.93713
730.5,21.8851,0.163801,-3.93669
731,21.9017,0.169274,-3.93583
731.5,21.918,0.156343,-3.93582
732,21.9347,0.155554,-3.93582
732.5,21.9513,0.149795,-3.93556
733,21.9677,0.152197,-3.93447
733.5,21.9843,0.150799,-3.93524
734,22.0009,0.154011,-3.93592
734.5,22.0174,0.150519,-3.93665
735,22.0339,0.149883,-3.93736
735.5,22.0503,0.147324,-3.93803
736,22.0672,0.142238,-3.93824
736.5,22.0836,0.139637,-3.93734
737,22.1003,0.137574,-3.93735
737.5,22.117,0.133781,-3.93735
738,22.1325,0.134615,-3.93735
738.5,22.1494,0.130208,-3.93735
739,22.1665,0.125663,-3.93735
739.5,22.1826,0.124899,-3.93744
740,22.1994,0.116676,-3.93802
740.5,22.216,0.116811,-3.93801
741,22.2325,0.115219,-3.93801
741.5,22.249,0.110296,-3.93801
742,22.2656,0.108598,-3.93801
742.5,22.2823,0.108586,-3.93801
743,22.2983,0.106459,-3.938
743.5,22.3154,0.090923,-3.9375
744,22.3321,0.095726,-3.93669
744.5,22.3486,0.0988506,-3.93659
745,22.3649,0.0926192,-3.93538
745.5,22.3818,0.0924492,-3.93538
746,22.3984,0.0843664,-3.93538
746.5,22.415,0.0810722,-3.93538
747,22.4315,0.082046,-3.93538
747.5,22.4482,0.080096,-3.93538
748,22.4645,0.072499,-3.93538
748.5,22.4809,0.0708696,-3.93536
749,22.4977,0.0665326,-3.93603
749.5,22.5143,0.0640362,-3.93604
750,22.5308,0.0661202,-3.93604
750.5,22.5473,0.0562734,-3.93604
751,22.564,0.0539512,-3.93604
751.5,22.5803,0.0582117,-3.93604
752,22.5969,0.0499392,-3.93604
752.5,22.6137,0.0490085,-3.93605
753,22.6302,0.0453296,-3.93516
753.5,22.6467,0.0417287,-3.93503
754,22.6634,0.0456902,-3.93604
754.5,22.6801,0.0372829,-3.93603
755,22.6966,0.0372658,-3.93603
755.5,22.7132,0.0404879,-3.93572
756,22.7299,0.0383859,-3.93504
756.5,22.7467,0.0318099,-3.93617
757,22.7631,0.0329951,-3.93636
757.5,22.7797,0.0397698,-3.93636
758,22.7962,0.0329243,-3.93636
758.5,22.8128,0.0306521,-3.93636
759,22.8297,0.0302778,-3.93636
759.5,22.8463,0.027793,-3.93634
760,22.8629,0.0319428,-3.93774
760.5,22.8794,0.0299927,-3.93762
761,22.8961,0.0272762,-3.93691
761.5,22.9127,0.0168935,-3.93768
762,22.9293,0.0131524,-3.93768
762.5,22.9458,0.0168956,-3.93768
763,22.9626,0.0149764,-3.93768
763.5,22.9792,0.0140448,-3.93768
764,22.9959,0.0157799,-3.93752
764.5,23.0125,0.0182606,-3.93636
765,23.029,0.0148374,-3.93637
765.5,23.0457,0.0172868,-3.93635
766,23.0618,0.0213623,-3.93513
766.5,23.0781,0.0189076,-3.93505
767,23.0947,0.0140883,-3.93505
767.5,23.1121,0.0107624,-3.93504
768,23.1287,0.0031786,-3.93382
768.5,23.1449,-2.38445e-06,-3.93373
769,23.1618,-0.00371455,-3.93373
769.5,23.1786,-0.00159586,-3.93373
770,23.1951,-0.00110713,-3.93421
770.5,23.2118,-0.00301296,-3.93506
771,23.2286,-0.00472532,-3.93505
771.5,23.2451,-0.00330126,-3.93505
772,23.2619,-0.00281876,-3.93505
772.5,23.2785,-0.00368898,-3.93505
773,23.2953,-0.00896332,-3.93505
773.5,23.3119,-0.0133269,-3.93505
774,23.3286,-0.0138004,-3.93507
774.5,23.3449,-0.00987544,-3.93424
775,23.3618,-0.0162059,-3.93506
775.5,23.3783,-0.0143931,-3.93504
776,23.3951,-0.0153088,-3.93504
776.5,23.4119,-0.0148368,-3.93504
777,23.4287,-0.0143923,-3.93504
777.5,23.445,-0.0137734,-3.93504
778,23.4618,-0.0167669,-3.93504
778.5,23.4785,-0.0199032,-3.93504
779,23.4949,-0.0234549,-3.93506
779.5,23.5112,-0.0241005,-3.93566
780,23.5279,-0.0210014,-3.9357
780.5,23.5448,-0.0263806,-3.9357
781,23.5614,-0.0340863,-3.9357
781.5,23.5783,-0.0292805,-3.9357
782,23.5949,-0.0306293,-3.93579
782.5,23.6116,-0.028804,-3.93705
783,23.6283,-0.0314909,-3.93706
783.5,23.6449,-0.031924,-3.93569
784,23.6615,-0.0306354,-3.93707
784.5,23.6784,-0.0310463,-3.93703
785,23.695,-0.0321507,-3.93703
785.5,23.7116,-0.0310958,-3.93703
786,23.728,-0.0344317,-3.93704
786.5,23.7449,-0.0321275,-3.93622
787,23.7615,-0.0351603,-3.93571
787.5,23.7781,-0.0415623,-3.93571
788,23.7949,-0.0444665,-3.93571
788.5,23.8115,-0.049136,-3.93571
789,23.8284,-0.044259,-3.93571
789.5,23.8453,-0.0440859,-3.93571
790,23.8616,-0.0475283,-3.93569