File: 01_Data/Nylon_Bourke/STA/N2/30K_min/Nylon_Bourke_STA_N2_30KData_250506_R2.csv
Temp./C,Time/min,DSC/(mW/mg),Mass loss/mg
50.0,0.0,1.65808,-0.00835578
50.5,0.0307028,1.69768,-0.0078522
51,0.060974,1.75673,-0.00807437
51.5,0.0901726,1.80967,-0.00902862
52,0.1198,1.87471,-0.00873495
52.5,0.148112,1.9187,-0.00931907
53,0.176358,1.96959,-0.010231
53.5,0.203225,2.01554,-0.00972501
54,0.230322,2.07089,-0.0103191
54.5,0.254513,2.12502,-0.0100478
55,0.282481,2.15923,-0.00950281
55.5,0.30895,2.20632,-0.0105936
56,0.334099,2.24501,-0.00991803
56.5,0.360114,2.29803,-0.0104855
57,0.384469,2.33228,-0.0100406
57.5,0.409615,2.38755,-0.00958553
58,0.433759,2.42974,-0.00933011
58.5,0.457834,2.46372,-0.00888602
59,0.482059,2.50139,-0.00832635
59.5,0.505333,2.55403,-0.008768
60,0.529172,2.58594,-0.00981974
60.5,0.55259,2.63032,-0.0110666
61,0.575448,2.66564,-0.011167
61.5,0.59735,2.70364,-0.00941299
62,0.621269,2.73674,-0.00662819
62.5,0.642344,2.77785,-0.00846515
63,0.666283,2.80276,-0.0122176
63.5,0.687978,2.84002,-0.0144548
64,0.710902,2.8779,-0.0152909
64.5,0.732273,2.91348,-0.0152877
65,0.754155,2.94525,-0.0159887
65.5,0.776804,2.98275,-0.0157572
66,0.798183,3.01032,-0.0153641
66.5,0.819639,3.03575,-0.0152556
67,0.840931,3.07952,-0.0155214
67.5,0.862451,3.10919,-0.0149661
68,0.883392,3.14274,-0.0146468
68.5,0.904296,3.16833,-0.0145276
69,0.925101,3.19824,-0.0143046
69.5,0.946421,3.23549,-0.0142476
70,0.967003,3.26413,-0.0142846
70.5,0.988083,3.29917,-0.0146807
71,1.00828,3.32488,-0.0149761
71.5,1.02923,3.34641,-0.0147037
72,1.04979,3.36867,-0.0164126
72.5,1.07015,3.40793,-0.0157147
73,1.09076,3.43524,-0.0168466
73.5,1.11121,3.45997,-0.0186422
74,1.13105,3.47661,-0.0180004
74.5,1.15166,3.50968,-0.0174822
75,1.1718,3.52861,-0.0186093
75.5,1.19162,3.54953,-0.0189569
76,1.21158,3.57885,-0.01792
76.5,1.23146,3.59842,-0.0177125
77,1.2512,3.62443,-0.0189841
77.5,1.2711,3.64349,-0.0177001
78,1.29077,3.66696,-0.0188696
78.5,1.31096,3.68551,-0.0186767
79,1.33049,3.70416,-0.0187424
79.5,1.34981,3.72924,-0.0185869
80,1.36944,3.74045,-0.0186151
80.5,1.38858,3.74931,-0.020054
81,1.40836,3.77113,-0.0202349
81.5,1.42748,3.77974,-0.0204859
82,1.44708,3.79675,-0.0204334
82.5,1.46606,3.81691,-0.0209487
83,1.4859,3.84131,-0.0204242
83.5,1.50468,3.86388,-0.0210856
84,1.52358,3.86293,-0.0216489
84.5,1.54285,3.88056,-0.0217941
85,1.56147,3.89161,-0.0216442
85.5,1.58069,3.9013,-0.0204236
86,1.59967,3.91278,-0.0215357
86.5,1.61848,3.92372,-0.0207726
87,1.63703,3.93887,-0.0208195
87.5,1.65582,3.95758,-0.021835
88,1.67456,3.96742,-0.0215927
88.5,1.69313,3.97636,-0.0219061
89,1.71169,3.98852,-0.0218531
89.5,1.7302,3.99208,-0.022425
90,1.7487,4.00807,-0.0222193
90.5,1.76723,4.01484,-0.0234796
91,1.78582,4.0332,-0.023507
91.5,1.80412,4.03317,-0.0238351
92,1.8224,4.04711,-0.0236365
92.5,1.84076,4.04889,-0.023557
93,1.85846,4.05823,-0.0248094
93.5,1.87687,4.0661,-0.0248076
94,1.8953,4.06883,-0.0250402
94.5,1.9133,4.07629,-0.0253064
95,1.93111,4.07882,-0.0248127
95.5,1.94971,4.08898,-0.0252389
96,1.96728,4.09717,-0.024764
96.5,1.98477,4.10097,-0.0251253
97,2.00231,4.10353,-0.0261638
97.5,2.02011,4.11191,-0.0252397
98,2.03936,4.1146,-0.0261227
98.5,2.0567,4.12865,-0.0261299
99,2.07467,4.13091,-0.0261402
99.5,2.09251,4.12757,-0.0261322
100,2.11096,4.11776,-0.0261344
100.5,2.12799,4.13574,-0.0266744
101,2.146,4.14161,-0.0261091
101.5,2.16352,4.14445,-0.0261648
102,2.1813,4.15457,-0.024975
102.5,2.19886,4.15301,-0.0261266
103,2.21618,4.15244,-0.0249937
103.5,2.23379,4.15852,-0.0253689
104,2.25177,4.16074,-0.0261294
104.5,2.2692,4.16766,-0.0261297
105,2.28698,4.17412,-0.02613
105.5,2.30442,4.16413,-0.02613
106,2.32192,4.1731,-0.0261309
106.5,2.33941,4.1908,-0.0261169
107,2.35681,4.19508,-0.0274365
107.5,2.37414,4.19127,-0.0260952
108,2.39154,4.19647,-0.0261295
108.5,2.40907,4.19772,-0.0261289
109,2.42657,4.19949,-0.0261898
109.5,2.44385,4.21256,-0.0258879
110,2.46117,4.22457,-0.0244375
110.5,2.47835,4.22273,-0.0229021
111,2.49528,4.23441,-0.0235476
111.5,2.51258,4.23645,-0.0236023
112,2.53046,4.24398,-0.0237977
112.5,2.54766,4.24154,-0.0257864
113,2.5651,4.24148,-0.0270738
113.5,2.58248,4.24813,-0.0278751
114,2.5993,4.25748,-0.0278902
114.5,2.61582,4.26325,-0.0278908
115,2.63381,4.26715,-0.0278566
115.5,2.65111,4.27889,-0.0291879
116,2.66828,4.27541,-0.0292134
116.5,2.68454,4.27893,-0.0292068
117,2.70169,4.28793,-0.0285944
117.5,2.72016,4.29609,-0.0278947
118,2.73675,4.30755,-0.0279011
118.5,2.75357,4.31338,-0.028804
119,2.77096,4.32283,-0.0289354
119.5,2.78798,4.3253,-0.028548
120,2.80511,4.33436,-0.0285397
120.5,2.82191,4.34433,-0.029604
121,2.83926,4.34997,-0.029517
121.5,2.85577,4.3661,-0.0295649
122,2.87314,4.37527,-0.029207
122.5,2.88981,4.37773,-0.0292001
123,2.90636,4.39017,-0.0292062
123.5,2.92273,4.40237,-0.0284668
124,2.9403,4.42034,-0.0278863
124.5,2.9569,4.42636,-0.0278802
125,2.97375,4.44298,-0.027884
125.5,2.9907,4.4568,-0.0281504
126,3.00737,4.48185,-0.0292225
126.5,3.02436,4.49563,-0.0292008
127,3.04113,4.50436,-0.0291997
127.5,3.0579,4.52171,-0.0292003
128,3.07438,4.54728,-0.0291999
128.5,3.09096,4.57274,-0.0292099
129,3.10809,4.60433,-0.0292053
129.5,3.12468,4.6327,-0.0289388
130,3.14118,4.66327,-0.0278713
130.5,3.15776,4.70094,-0.0278896
131,3.17432,4.73013,-0.02789
131.5,3.19092,4.76943,-0.02789
132,3.20781,4.81379,-0.0278894
132.5,3.22476,4.84246,-0.027853
133,3.2412,4.89663,-0.0282134
133.5,3.25725,4.93994,-0.0282207
134,3.27407,4.98192,-0.0282118
134.5,3.29113,5.03014,-0.0291101
135,3.30736,5.08397,-0.0292001
135.5,3.32408,5.12815,-0.0292001
136,3.34073,5.17006,-0.0292
136.5,3.35705,5.21387,-0.0292
137,3.37334,5.25687,-0.0292
137.5,3.38968,5.28036,-0.0292
138,3.40605,5.324,-0.0292002
138.5,3.42233,5.3431,-0.0292195
139,3.43882,5.38135,-0.0282036
139.5,3.45538,5.40074,-0.027884
140,3.47147,5.41865,-0.0290569
140.5,3.48766,5.43267,-0.0292011
141,3.50369,5.45404,-0.029243
141.5,3.52001,5.46509,-0.0278347
142,3.53584,5.49056,-0.0278762
142.5,3.55133,5.49684,-0.0278799
143,3.56827,5.50828,-0.02788
143.5,3.58449,5.51789,-0.02788
144,3.60055,5.52862,-0.02788
144.5,3.61651,5.53459,-0.02788
145,3.63232,5.53047,-0.02788
145.5,3.64833,5.53516,-0.02788
146,3.66451,5.53763,-0.02788
146.5,3.68051,5.55042,-0.02788
147,3.69625,5.53938,-0.02788
147.5,3.71223,5.5551,-0.02788
148,3.72808,5.56098,-0.0278754
148.5,3.74441,5.54997,-0.0276452
149,3.76015,5.55194,-0.0269033
149.5,3.77569,5.56683,-0.0278884
150,3.79172,5.56278,-0.027889
150.5,3.8075,5.56516,-0.0278927
151,3.82351,5.56765,-0.0279488
151.5,3.83958,5.58269,-0.0268894
152,3.8552,5.57888,-0.0269289
152.5,3.87097,5.58973,-0.0265588
153,3.88676,5.59108,-0.0265706
153.5,3.9022,5.59364,-0.0265701
154,3.91826,5.6036,-0.02657
154.5,3.93407,5.60667,-0.02657
155,3.94981,5.61469,-0.02657
155.5,3.96581,5.62043,-0.02657
156,3.98102,5.62665,-0.02657
156.5,3.99705,5.62702,-0.02657
157,4.01295,5.63675,-0.02657
157.5,4.02869,5.63945,-0.02657
158,4.04406,5.65461,-0.02657
158.5,4.0597,5.64425,-0.0265699
159,4.07567,5.65334,-0.0265644
159.5,4.09138,5.65341,-0.0262946
160,4.10699,5.66126,-0.0252279
160.5,4.12269,5.65249,-0.0252487
161,4.13801,5.66156,-0.0252505
161.5,4.15398,5.6634,-0.0252202
162,4.16942,5.66934,-0.0263653
162.5,4.18495,5.67367,-0.0265521
163,4.20065,5.67002,-0.0274747
163.5,4.21616,5.67738,-0.0275529
164,4.23194,5.6838,-0.0279274
164.5,4.24745,5.67851,-0.0278907
165,4.26315,5.67361,-0.0278899
165.5,4.27843,5.67866,-0.0278899
166,4.29411,5.66886,-0.0278997
166.5,4.30938,5.67401,-0.0271585
167,4.32489,5.67502,-0.0265671
167.5,4.34058,5.67197,-0.0265704
168,4.35622,5.66851,-0.02657
168.5,4.3719,5.66161,-0.02657
169,4.38693,5.65987,-0.02657
169.5,4.4018,5.64935,-0.02657
170,4.41746,5.64411,-0.02657
170.5,4.43277,5.63155,-0.02657
171,4.44909,5.61129,-0.02657
171.5,4.46416,5.59582,-0.02657
172,4.47955,5.58732,-0.0265702
172.5,4.49524,5.56768,-0.0265819
173,4.51049,5.54757,-0.0270349
173.5,4.52566,5.51931,-0.0278869
174,4.541,5.5079,-0.0278888
174.5,4.55655,5.48392,-0.02789
175,4.57181,5.44859,-0.0278903
175.5,4.58714,5.42363,-0.0278854
176,4.60244,5.3932,-0.0285014
176.5,4.61746,5.36337,-0.0292068
177,4.63261,5.31891,-0.0291999
177.5,4.64811,5.28921,-0.0292001
178,4.66324,5.24031,-0.0292015
178.5,4.67858,5.20405,-0.0291982
179,4.69363,5.14899,-0.0280547
179.5,4.70796,5.11776,-0.027894
180,4.72311,5.06989,-0.0278901
180.5,4.73879,5.014,-0.02789
181,4.75365,4.96506,-0.0278837
181.5,4.76916,4.91911,-0.0275897
182,4.78404,4.88406,-0.0265485
182.5,4.79926,4.84534,-0.0265704
183,4.81448,4.79487,-0.0265701
183.5,4.82956,4.75739,-0.02657
184,4.84462,4.73704,-0.02657
184.5,4.85974,4.72585,-0.02657
185,4.8752,4.71169,-0.0265699
185.5,4.89012,4.70709,-0.0265687
186,4.90536,4.71821,-0.026569
186.5,4.92067,4.74143,-0.0276997
187,4.9358,4.7457,-0.0278859
187.5,4.95097,4.7852,-0.0279488
188,4.96628,4.83176,-0.0291201
188.5,4.98143,4.87359,-0.0291969
189,4.9968,4.92291,-0.0292
189.5,5.01181,4.97035,-0.029201
190,5.02774,5.02359,-0.0292172
190.5,5.04287,5.08516,-0.0282333
191,5.05782,5.14406,-0.0278945
191.5,5.07304,5.20305,-0.0278904
192,5.08922,5.26191,-0.02789
192.5,5.10384,5.30717,-0.02789
193,5.11968,5.36574,-0.02789
193.5,5.13495,5.41914,-0.02789
194,5.15022,5.47188,-0.02789
194.5,5.16539,5.53031,-0.02789
195,5.18072,5.58707,-0.02789
195.5,5.19605,5.64188,-0.0278901
196,5.21149,5.68359,-0.0278904
196.5,5.22644,5.72712,-0.027878
197,5.24146,5.76601,-0.0288787
197.5,5.25685,5.81342,-0.0292019
198,5.27218,5.85832,-0.02921
198.5,5.28729,5.89999,-0.02921
199,5.30219,5.94199,-0.02921
199.5,5.31754,5.97922,-0.02921
200,5.33267,6.00811,-0.02921
200.5,5.34804,6.05129,-0.02921
201,5.36291,6.09595,-0.02921
201.5,5.37824,6.12714,-0.0292098
202,5.39303,6.15359,-0.0292099
202.5,5.40842,6.1847,-0.0293105
203,5.42295,6.20098,-0.0308086
203.5,5.43852,6.23324,-0.0305966
204,5.45394,6.26957,-0.0307483
204.5,5.46903,6.29708,-0.0306105
205,5.48401,6.31791,-0.0287991
205.5,5.49881,6.33758,-0.0278591
206,5.51434,6.35873,-0.027121
206.5,5.52932,6.37953,-0.0271201
207,5.54427,6.40807,-0.0271069
207.5,5.55975,6.4343,-0.0266299
208,5.574,6.46782,-0.0263108
208.5,5.589,6.48657,-0.0271315
209,5.60458,6.50799,-0.0271203
209.5,5.61967,6.52359,-0.0271203
210,5.63393,6.54585,-0.0271195
210.5,5.64978,6.56517,-0.0276496
211,5.66463,6.58937,-0.0280951
211.5,5.67983,6.6087,-0.0281095
212,5.69485,6.63628,-0.02811
212.5,5.70969,6.65676,-0.02811
213,5.72482,6.68416,-0.02811
213.5,5.7398,6.70651,-0.0281098
214,5.75505,6.73055,-0.0281096
214.5,5.76977,6.75268,-0.0281667
215,5.78495,6.77628,-0.0284245
215.5,5.79962,6.79475,-0.0294122
216,5.81494,6.82028,-0.0302929
216.5,5.83027,6.84797,-0.031025
217,5.84509,6.8712,-0.0312853
217.5,5.86005,6.90013,-0.0313398
218,5.87504,6.92666,-0.0298001
218.5,5.88991,6.96664,-0.0297312
219,5.9049,6.98244,-0.0285585
219.5,5.92019,7.01028,-0.0283376
220,5.93527,7.0473,-0.0284287
220.5,5.94934,7.06398,-0.0295512
221,5.96446,7.10576,-0.0282644
221.5,5.97981,7.13336,-0.0283164
222,5.99537,7.1653,-0.02832
222.5,6.01018,7.20204,-0.0283209
223,6.02512,7.22913,-0.0283236
223.5,6.04035,7.266,-0.0291835
224,6.05522,7.29713,-0.0296275
224.5,6.07029,7.3323,-0.0296395
225,6.08545,7.37687,-0.02964
225.5,6.10025,7.41421,-0.02964
226,6.11529,7.44981,-0.02964
226.5,6.13043,7.49224,-0.02964
227,6.14539,7.54302,-0.02964
227.5,6.16043,7.5897,-0.02964
228,6.17577,7.63909,-0.02964
228.5,6.19064,7.6845,-0.02964
229,6.20554,7.72283,-0.02964
229.5,6.22061,7.77576,-0.02964
230,6.23581,7.83462,-0.02964
230.5,6.25048,7.88911,-0.02964
231,6.2657,7.93445,-0.02964
231.5,6.28073,7.98104,-0.0296399
232,6.29584,8.0324,-0.0296386
232.5,6.31117,8.09254,-0.029628
233,6.32612,8.15212,-0.0306859
233.5,6.34108,8.21198,-0.0309546
234,6.35579,8.27213,-0.0309596
234.5,6.37121,8.3348,-0.03096
235,6.38631,8.40041,-0.03096
235.5,6.40154,8.46395,-0.03096
236,6.41642,8.52361,-0.0309615
236.5,6.43126,8.58027,-0.0310329
237,6.44678,8.66163,-0.0325593
237.5,6.4619,8.73583,-0.031624
238,6.47696,8.79412,-0.032381
238.5,6.49209,8.87024,-0.0323813
239,6.50708,8.93919,-0.032119
239.5,6.52191,9.01014,-0.0306875
240,6.53715,9.05634,-0.0300625
240.5,6.55224,9.12179,-0.0292188
241,6.56711,9.16432,-0.0292446
241.5,6.58208,9.19405,-0.028039
242,6.59721,9.21169,-0.0278834
242.5,6.61188,9.24393,-0.0278799
243,6.62676,9.25838,-0.02788
243.5,6.642,9.26625,-0.02788
244,6.65645,9.2635,-0.02788
244.5,6.67142,9.26001,-0.0278802
245,6.68614,9.25187,-0.0278759
245.5,6.70099,9.21967,-0.0284265
246,6.71572,9.16452,-0.0292213
246.5,6.73044,9.11244,-0.0292008
247,6.74503,9.03849,-0.0292
247.5,6.75936,8.97898,-0.0291999
248,6.77384,8.89409,-0.029199
248.5,6.78831,8.80812,-0.0291908
249,6.80304,8.70874,-0.0306577
249.5,6.81718,8.61226,-0.0326467
250,6.83217,8.51672,-0.0339682
250.5,6.8466,8.42925,-0.0339281
251,6.86036,8.34166,-0.033742
251.5,6.87533,8.25446,-0.0321761
252,6.88982,8.17622,-0.0308544
252.5,6.90459,8.1049,-0.0305291
253,6.9189,8.02344,-0.0305204
253.5,6.9334,7.96076,-0.03052
254,6.9481,7.89747,-0.0305199
254.5,6.96261,7.83399,-0.0305142
255,6.97748,7.77987,-0.0303769
255.5,6.99185,7.72075,-0.0292582
256,7.00649,7.67141,-0.0291882
256.5,7.02134,7.6295,-0.0300574
257,7.03572,7.58728,-0.0301871
257.5,7.05036,7.54889,-0.0301899
258,7.06511,7.51587,-0.03019
258.5,7.07987,7.49383,-0.03019
259,7.0944,7.46224,-0.03019
259.5,7.10912,7.44027,-0.0301901
260,7.12366,7.42164,-0.0301915
260.5,7.1385,7.39787,-0.0301991
261,7.15322,7.3772,-0.0291353
261.5,7.16816,7.36592,-0.028875
262,7.18252,7.35539,-0.0288703
262.5,7.19697,7.34315,-0.02887
263,7.21209,7.32041,-0.02887
263.5,7.22665,7.30186,-0.0288699
264,7.24114,7.30293,-0.0288681
264.5,7.25598,7.29734,-0.0288352
265,7.27082,7.27889,-0.0292136
265.5,7.28554,7.27354,-0.0292
266,7.30047,7.262,-0.029209
266.5,7.31488,7.25507,-0.0294567
267,7.32985,7.26243,-0.0293553
267.5,7.34457,7.25051,-0.0292036
268,7.35911,7.25184,-0.0291999
268.5,7.37379,7.24617,-0.0292
269,7.38869,7.24077,-0.0292
269.5,7.40338,7.23635,-0.0292
270,7.41827,7.23061,-0.0292
270.5,7.43267,7.2194,-0.0292
271,7.44761,7.21321,-0.0292
271.5,7.46229,7.21865,-0.0292
272,7.4769,7.21711,-0.0292
272.5,7.4917,7.21013,-0.0292
273,7.50644,7.2185,-0.0291999
273.5,7.52107,7.21535,-0.0291987
274,7.53622,7.2052,-0.0291817
274.5,7.5509,7.20377,-0.0285762
275,7.56551,7.21032,-0.0288741
275.5,7.58014,7.20722,-0.0298749
276,7.59524,7.20556,-0.0298613
276.5,7.60966,7.21125,-0.0298601
277,7.6245,7.20897,-0.02986
277.5,7.63937,7.19921,-0.02986
278,7.65417,7.20705,-0.02986
278.5,7.66879,7.20884,-0.0298609
279,7.68346,7.20975,-0.0298726
279.5,7.69835,7.20857,-0.0304687
280,7.71305,7.19844,-0.0311707
280.5,7.72784,7.20726,-0.0311735
281,7.74258,7.20511,-0.0309826
281.5,7.75717,7.20405,-0.030974
282,7.77192,7.20536,-0.0318329
282.5,7.78668,7.20092,-0.0318292
283,7.80171,7.20183,-0.0318299
283.5,7.81608,7.20157,-0.03183
284,7.83081,7.19349,-0.03183
284.5,7.84564,7.18927,-0.03183
285,7.86003,7.1932,-0.03183
285.5,7.87484,7.20805,-0.03183
286,7.88982,7.21153,-0.03183
286.5,7.90463,7.2031,-0.0318309
287,7.91952,7.20938,-0.0318579
287.5,7.93442,7.21338,-0.0307651
288,7.949,7.21379,-0.0305257
288.5,7.96373,7.20602,-0.0305201
289,7.97858,7.20409,-0.0305288
289.5,7.99359,7.20249,-0.0299005
290,8.00797,7.20678,-0.0301507
290.5,8.02274,7.21292,-0.0305083
291,8.03764,7.21314,-0.0305197
291.5,8.05248,7.20137,-0.03052
292,8.06705,7.19573,-0.03052
292.5,8.08185,7.20366,-0.03052
293,8.09658,7.20689,-0.03052
293.5,8.11121,7.19828,-0.0305198
294,8.12618,7.20447,-0.0305238
294.5,8.14016,7.19928,-0.0306391
295,8.15522,7.19263,-0.0311363
295.5,8.17018,7.19762,-0.0314802
296,8.18507,7.20032,-0.0307062
296.5,8.19996,7.20237,-0.0305245
297,8.21479,7.20034,-0.0305202
297.5,8.22945,7.19943,-0.03052
298,8.24423,7.19986,-0.03052
298.5,8.2592,7.19422,-0.03052
299,8.27387,7.20032,-0.03052
299.5,8.28889,7.20577,-0.03052
300,8.30342,7.20487,-0.03052
300.5,8.31813,7.20141,-0.0305199
301,8.33289,7.19823,-0.0305234
301.5,8.34789,7.20032,-0.0306918
302,8.36264,7.19779,-0.0318798
302.5,8.37716,7.19953,-0.0318418
303,8.39212,7.20532,-0.03184
303.5,8.4071,7.20495,-0.03184
304,8.42151,7.19898,-0.03184
304.5,8.43652,7.1985,-0.03184
305,8.45106,7.19856,-0.0318399
305.5,8.46611,7.19762,-0.0318398
306,8.48101,7.21156,-0.031884
306.5,8.49529,7.20404,-0.0323999
307,8.51038,7.20397,-0.0318427
307.5,8.52513,7.20993,-0.0318408
308,8.53991,7.20053,-0.0318404
308.5,8.55471,7.199,-0.0318505
309,8.56953,7.19868,-0.0321898
309.5,8.58457,7.20405,-0.0331731
310,8.59894,7.19454,-0.0331598
310.5,8.61388,7.20281,-0.0331599
311,8.62849,7.20388,-0.03316
311.5,8.64339,7.20257,-0.0331606
312,8.65834,7.20435,-0.0331755
312.5,8.67295,7.20514,-0.0323902
313,8.68767,7.20748,-0.0318359
313.5,8.70256,7.20672,-0.0318442
314,8.71712,7.20671,-0.0318991
314.5,8.73218,7.20123,-0.0301846
315,8.74705,7.19962,-0.0301835
315.5,8.76169,7.20304,-0.030135
316,8.77654,7.19615,-0.0317156
316.5,8.79137,7.1982,-0.0319207
317,8.80599,7.19503,-0.033522
317.5,8.82104,7.19333,-0.0334824
318,8.83566,7.20105,-0.034157
318.5,8.85048,7.20596,-0.0347418
319,8.86563,7.20039,-0.0335522
319.5,8.88029,7.19424,-0.0335889
320,8.89516,7.19593,-0.03359
320.5,8.90984,7.19149,-0.03359
321,8.92483,7.19288,-0.0335892
321.5,8.93954,7.19738,-0.0335715
322,8.95455,7.19861,-0.0335484
322.5,8.9692,7.19218,-0.0336201
323,8.98446,7.183,-0.0335955
323.5,8.99902,7.18297,-0.0337417
324,9.01376,7.17714,-0.0351993
324.5,9.02868,7.17177,-0.0365464
325,9.04308,7.18079,-0.0369907
325.5,9.05788,7.17783,-0.0369851
326,9.07264,7.17752,-0.0364348
326.5,9.08807,7.17913,-0.0350216
327,9.10282,7.18155,-0.0337473
327.5,9.11793,7.18512,-0.0335354
328,9.13263,7.18455,-0.0321846
328.5,9.14747,7.18616,-0.0320625
329,9.16239,7.19025,-0.0320437
329.5,9.17712,7.18753,-0.0329006
330,9.19191,7.1858,-0.0333809
330.5,9.20699,7.18059,-0.0333795
331,9.22189,7.17789,-0.0333765
331.5,9.23683,7.17397,-0.0333304
332,9.25173,7.17357,-0.034682
332.5,9.26663,7.17978,-0.0347028
333,9.28147,7.17437,-0.0347011
333.5,9.29633,7.17197,-0.0347143
334,9.3113,7.1682,-0.0352535
334.5,9.32614,7.16989,-0.0360109
335,9.34106,7.17088,-0.0368341
335.5,9.35611,7.1796,-0.0377908
336,9.37097,7.18504,-0.038983
336.5,9.38584,7.18036,-0.0391203
337,9.40074,7.17507,-0.0372123
337.5,9.41558,7.17619,-0.0366743
338,9.4306,7.17022,-0.0354218
338.5,9.44524,7.15938,-0.0354586
339,9.46031,7.15358,-0.03546
339.5,9.47537,7.15581,-0.0354616
340,9.49026,7.15811,-0.0355044
340.5,9.50528,7.15847,-0.0342685
341,9.51996,7.16337,-0.0341424
341.5,9.53494,7.16465,-0.0341398
342,9.54982,7.16041,-0.03414
342.5,9.56465,7.15849,-0.03414
343,9.57958,7.15605,-0.0341399
343.5,9.59467,7.14772,-0.0341374
344,9.60963,7.15243,-0.0340939
344.5,9.6245,7.15147,-0.0354062
345,9.63926,7.14944,-0.0354614
345.5,9.65397,7.15045,-0.0354603
346,9.66904,7.14967,-0.03546
346.5,9.68445,7.15084,-0.03546
347,9.69919,7.14931,-0.03546
347.5,9.71414,7.15917,-0.03546
348,9.72927,7.15989,-0.03546
348.5,9.74391,7.16475,-0.0354604
349,9.75887,7.16308,-0.0354594
349.5,9.77429,7.16409,-0.0359976
350,9.78902,7.16143,-0.0367943
350.5,9.80414,7.16229,-0.0367804
351,9.81908,7.15804,-0.03678
351.5,9.8339,7.15608,-0.0367725
352,9.84866,7.15986,-0.0374088
352.5,9.86364,7.15046,-0.0384873
353,9.87876,7.14476,-0.0387612
353.5,9.89364,7.15159,-0.0387622
354,9.90868,7.16388,-0.0387599
354.5,9.92382,7.16575,-0.0387566
355,9.93844,7.1654,-0.0387467
355.5,9.95346,7.16738,-0.0401083
356,9.96865,7.16702,-0.0400724
356.5,9.98357,7.16508,-0.040056
357,9.99882,7.16954,-0.0395162
357.5,10.0138,7.1684,-0.03876
358,10.0288,7.16747,-0.0387513
358.5,10.0437,7.16397,-0.0387549
359,10.0587,7.16961,-0.0390723
359.5,10.0738,7.15994,-0.0400889
360,10.089,7.15579,-0.0400761
360.5,10.1036,7.14895,-0.0402624
361,10.1185,7.14562,-0.0413863
361.5,10.1337,7.14663,-0.0413911
362,10.1486,7.1456,-0.0413901
362.5,10.1637,7.14808,-0.04139
363,10.179,7.14536,-0.04139
363.5,10.1942,7.14858,-0.0413904
364,10.2088,7.1472,-0.0414045
364.5,10.2239,7.15144,-0.040529
365,10.239,7.14868,-0.0413997
365.5,10.2541,7.15549,-0.0413936
366,10.2689,7.17169,-0.0413903
366.5,10.2842,7.16973,-0.04139
367,10.2992,7.18387,-0.04139
367.5,10.3143,7.18356,-0.0413899
368,10.3293,7.19635,-0.0413888
368.5,10.3443,7.19831,-0.0413781
369,10.3594,7.21101,-0.0423998
369.5,10.3746,7.21166,-0.0423743
370,10.3893,7.21258,-0.0423709
370.5,10.4047,7.22223,-0.0423749
371,10.4197,7.22359,-0.0427209
371.5,10.4346,7.23098,-0.0427025
372,10.4498,7.23114,-0.0427002
372.5,10.4651,7.23021,-0.0427003
373,10.48,7.23828,-0.0426784
373.5,10.4949,7.24776,-0.0435655
374,10.5102,7.25107,-0.0436556
374.5,10.5252,7.25763,-0.0440221
375,10.5404,7.26825,-0.0440194
375.5,10.5549,7.27713,-0.0440202
376,10.57,7.27667,-0.0440246
376.5,10.5851,7.28222,-0.0443199
377,10.6007,7.29683,-0.0453609
377.5,10.6159,7.30674,-0.0453414
378,10.631,7.31568,-0.04534
378.5,10.6461,7.31965,-0.04534
379,10.6605,7.32247,-0.04534
379.5,10.6764,7.33226,-0.0453396
380,10.6913,7.33908,-0.0453375
380.5,10.7067,7.35637,-0.0449533
381,10.7219,7.36613,-0.0452139
381.5,10.7371,7.37169,-0.0453372
382,10.7519,7.38131,-0.0453401
382.5,10.7673,7.39757,-0.0453093
383,10.7823,7.41252,-0.046403
383.5,10.7974,7.41608,-0.0475345
384,10.8127,7.43221,-0.0479685
384.5,10.8278,7.44623,-0.0480476
385,10.8428,7.45828,-0.0484657
385.5,10.858,7.45671,-0.0479757
386,10.8735,7.47825,-0.0479803
386.5,10.8888,7.51063,-0.0479797
387,10.9037,7.52194,-0.0479748
387.5,10.9186,7.53607,-0.0476603
388,10.9344,7.55475,-0.0465153
388.5,10.9492,7.57416,-0.046531
389,10.9645,7.60073,-0.0477396
389.5,10.98,7.61958,-0.0484562
390,10.995,7.63998,-0.048896
390.5,11.0106,7.66113,-0.0488255
391,11.0255,7.69005,-0.0501762
391.5,11.0403,7.70839,-0.0501716
392,11.0558,7.73014,-0.050119
392.5,11.0706,7.75214,-0.0515002
393,11.0863,7.78536,-0.0515974
393.5,11.1017,7.81907,-0.0522222
394,11.117,7.84941,-0.0529312
394.5,11.1323,7.88255,-0.0529197
395,11.1477,7.91518,-0.0528795
395.5,11.1632,7.94667,-0.0540789
396,11.1784,7.98152,-0.054229
396.5,11.1935,8.01955,-0.0542082
397,11.2091,8.06968,-0.0553127
397.5,11.2244,8.1092,-0.055554
398,11.2395,8.15586,-0.0563081
398.5,11.2548,8.19797,-0.0569722
399,11.2701,8.25099,-0.0573857
399.5,11.2858,8.30984,-0.0584051
400,11.3011,8.37122,-0.0583965
400.5,11.3167,8.42745,-0.0591227
401,11.3315,8.49181,-0.0584657
401.5,11.3474,8.55558,-0.0583685
402,11.363,8.62507,-0.0595449
402.5,11.3782,8.70078,-0.0597167
403,11.3936,8.77583,-0.0598061
403.5,11.4095,8.85641,-0.0613093
404,11.4246,8.93159,-0.0622661
404.5,11.4402,9.01822,-0.0629935
405,11.4558,9.09669,-0.0647335
405.5,11.4718,9.18204,-0.0652728
406,11.4871,9.2648,-0.0661621
406.5,11.5023,9.35111,-0.0675655
407,11.5179,9.43749,-0.0679345
407.5,11.5337,9.52322,-0.0692058
408,11.5491,9.60775,-0.0694284
408.5,11.5644,9.70142,-0.0706808
409,11.5805,9.80665,-0.0698983
409.5,11.5953,9.9056,-0.0714339
410,11.6108,10.0059,-0.0719165
410.5,11.6271,10.1288,-0.0731284
411,11.6423,10.2448,-0.0745749
411.5,11.6583,10.3752,-0.0754479
412,11.6743,10.5154,-0.0767398
412.5,11.69,10.6497,-0.0786169
413,11.7058,10.8009,-0.0805912
413.5,11.7217,10.9531,-0.0816699
414,11.7375,11.1081,-0.0824
414.5,11.7537,11.2731,-0.0846353
415,11.7693,11.4289,-0.0870141
415.5,11.7853,11.5929,-0.0899045
416,11.801,11.7701,-0.0929217
416.5,11.8168,11.9484,-0.0955334
417,11.833,12.1355,-0.0973099
417.5,11.8492,12.3365,-0.0996079
418,11.8648,12.5281,-0.102428
418.5,11.881,12.7261,-0.105627
419,11.8972,12.9508,-0.109796
419.5,11.9132,13.1828,-0.113272
420,11.9288,13.4001,-0.117093
420.5,11.9454,13.642,-0.120973
421,11.9615,13.8791,-0.124752
421.5,11.9777,14.1173,-0.12894
422,11.9939,14.3481,-0.134039
422.5,12.0103,14.5845,-0.140085
423,12.0266,14.8354,-0.145825
423.5,12.0426,15.0849,-0.150996
424,12.0588,15.3409,-0.154985
424.5,12.0756,15.6196,-0.161444
425,12.0917,15.8947,-0.167703
425.5,12.1078,16.1888,-0.173957
426,12.1242,16.4753,-0.180548
426.5,12.1409,16.7892,-0.188733
427,12.1573,17.1211,-0.197915
427.5,12.1738,17.4488,-0.206648
428,12.1907,17.8251,-0.214791
428.5,12.2074,18.1714,-0.22415
429,12.2238,18.5284,-0.234687
429.5,12.2405,18.8876,-0.245015
430,12.2577,19.3324,-0.255671
430.5,12.2742,19.7181,-0.268251
431,12.2913,20.1012,-0.282705
431.5,12.3081,20.5262,-0.295874
432,12.3247,21.0085,-0.308289
432.5,12.3424,21.5086,-0.324955
433,12.3597,22.0089,-0.340635
433.5,12.3771,22.4945,-0.356368
434,12.3942,22.9746,-0.375311
434.5,12.4115,23.5289,-0.39703
435,12.4289,24.101,-0.415675
435.5,12.4465,24.6762,-0.435692
436,12.4639,25.2274,-0.460568
436.5,12.4814,25.7996,-0.483934
437,12.4993,26.4635,-0.507768
437.5,12.5166,27.0355,-0.536694
438,12.5344,27.6307,-0.56526
438.5,12.5526,28.3483,-0.593966
439,12.5698,28.9967,-0.628884
439.5,12.5876,29.542,-0.663513
440,12.6056,30.2318,-0.698895
440.5,12.6236,30.9798,-0.743032
441,12.6413,31.6263,-0.782157
441.5,12.6593,32.1521,-0.82101
442,12.6768,32.739,-0.860394
442.5,12.6945,33.3928,-0.908176
443,12.7126,34.1147,-0.96782
443.5,12.73,34.5839,-1.03994
444,12.7475,35.1619,-1.09132
444.5,12.7656,35.774,-1.14811
445,12.7829,36.3133,-1.20476
445.5,12.8005,36.7682,-1.26439
446,12.8178,37.2998,-1.32547
446.5,12.835,37.7198,-1.38792
447,12.8524,38.2132,-1.45307
447.5,12.8691,38.5316,-1.51812
448,12.8858,38.8026,-1.58583
448.5,12.9024,39.0206,-1.65561
449,12.9192,39.3391,-1.72857
449.5,12.9359,39.5429,-1.80373
450,12.9522,39.7284,-1.87883
450.5,12.9684,39.8217,-1.95662
451,12.9845,39.8323,-2.03502
451.5,13.0007,39.8558,-2.11547
452,13.0161,39.8098,-2.19111
452.5,13.0321,39.7184,-2.26862
453,13.0471,39.5422,-2.34055
453.5,13.0622,39.3158,-2.4111
454,13.0769,39.0114,-2.47953
454.5,13.0917,38.6772,-2.54816
455,13.1059,38.2777,-2.61573
455.5,13.1201,37.7898,-2.68677
456,13.134,37.2532,-2.7596
456.5,13.1474,36.6716,-2.83152
457,13.161,36.0083,-2.90285
457.5,13.1743,35.3089,-2.9705
458,13.1877,34.5282,-3.0349
458.5,13.2005,33.724,-3.09342
459,13.2135,32.8765,-3.14922
459.5,13.2261,31.9984,-3.19985
460,13.2386,31.0768,-3.24781
460.5,13.2509,30.136,-3.29362
461,13.2629,29.1357,-3.33889
461.5,13.2749,28.083,-3.38427
462,13.2867,26.9568,-3.42958
462.5,13.2982,25.7623,-3.47388
463,13.3094,24.515,-3.5165
463.5,13.3206,23.1662,-3.55918
464,13.3315,21.812,-3.59935
464.5,13.3425,20.4169,-3.63797
465,13.3533,18.9981,-3.67392
465.5,13.3643,17.544,-3.7054
466,13.3747,16.1397,-3.7296
466.5,13.3856,14.6852,-3.74865
467,13.3962,13.2959,-3.76723
467.5,13.4073,11.9442,-3.78116
468,13.4185,10.6959,-3.79394
468.5,13.4302,9.5359,-3.80689
469,13.4416,8.53398,-3.81943
469.5,13.454,7.58847,-3.83155
470,13.4663,6.76068,-3.84205
470.5,13.4789,6.02865,-3.85097
471,13.4919,5.37385,-3.85866
471.5,13.5051,4.80199,-3.86476
472,13.5182,4.30229,-3.87038
472.5,13.5322,3.86553,-3.87581
473,13.5459,3.49183,-3.88055
473.5,13.56,3.15523,-3.8862
474,13.5739,2.88385,-3.88993
474.5,13.5883,2.64145,-3.89313
475,13.6029,2.4351,-3.89634
475.5,13.6176,2.26809,-3.89902
476,13.6321,2.11707,-3.90158
476.5,13.647,1.99192,-3.90324
477,13.6619,1.88255,-3.90494
477.5,13.6772,1.79987,-3.90656
478,13.6919,1.70871,-3.90782
478.5,13.7071,1.64986,-3.90954
479,13.7223,1.59236,-3.91072
479.5,13.7374,1.548,-3.91022
480,13.7525,1.50866,-3.91135
480.5,13.7672,1.46632,-3.91134
481,13.7824,1.43174,-3.91123
481.5,13.7985,1.40822,-3.91392
482,13.8139,1.38529,-3.91397
482.5,13.8292,1.37249,-3.91467
483,13.8446,1.34703,-3.91541
483.5,13.8602,1.33893,-3.91543
484,13.8755,1.32643,-3.91649
484.5,13.8909,1.31568,-3.91541
485,13.9066,1.29799,-3.91542
485.5,13.922,1.28989,-3.91661
486,13.9374,1.28334,-3.91671
486.5,13.9531,1.26845,-3.91671
487,13.9686,1.25862,-3.91696
487.5,13.984,1.25317,-3.91805
488,14,1.25384,-3.91803
488.5,14.0155,1.24593,-3.91803
489,14.031,1.23673,-3.91803
489.5,14.0465,1.23436,-3.91803
490,14.0621,1.22859,-3.91798
490.5,14.0778,1.22371,-3.9193
491,14.0936,1.21646,-3.91935
491.5,14.109,1.21166,-3.91935
492,14.1247,1.20669,-3.91936
492.5,14.1401,1.20737,-3.91864
493,14.156,1.19941,-3.91837
493.5,14.1717,1.19629,-3.91937
494,14.1874,1.19348,-3.91936
494.5,14.2029,1.18544,-3.91934
495,14.2185,1.18093,-3.92033
495.5,14.2346,1.17478,-3.92066
496,14.2501,1.17443,-3.92067
496.5,14.2659,1.17402,-3.92066
497,14.2816,1.16835,-3.92024
497.5,14.2973,1.16717,-3.91936
498,14.3128,1.16497,-3.91974
498.5,14.3289,1.16748,-3.92069
499,14.3443,1.16316,-3.92067
499.5,14.36,1.15627,-3.9208
500,14.3756,1.14985,-3.92134
500.5,14.3915,1.15407,-3.92171
501,14.4065,1.15507,-3.92198
501.5,14.4231,1.15171,-3.92199
502,14.4387,1.15237,-3.92199
502.5,14.4545,1.14951,-3.92199
503,14.4704,1.15168,-3.92199
503.5,14.4862,1.1504,-3.92199
504,14.5017,1.14578,-3.92199
504.5,14.5176,1.14605,-3.92199
505,14.5334,1.13532,-3.92199
505.5,14.5492,1.132,-3.92199
506,14.5651,1.1363,-3.92199
506.5,14.5806,1.13504,-3.92199
507,14.5967,1.12749,-3.92199
507.5,14.6123,1.12428,-3.92194
508,14.6284,1.12369,-3.92131
508.5,14.6436,1.12519,-3.92133
509,14.6599,1.11478,-3.92132
509.5,14.6756,1.11302,-3.92082
510,14.6914,1.11584,-3.92067
510.5,14.7071,1.11495,-3.92067
511,14.7231,1.11179,-3.92067
511.5,14.7391,1.10984,-3.92067
512,14.7549,1.11433,-3.92067
512.5,14.7706,1.11165,-3.92067
513,14.7866,1.10916,-3.92067
513.5,14.8023,1.10681,-3.92066
514,14.818,1.10225,-3.92159
514.5,14.8337,1.10129,-3.92199
515,14.8497,1.10636,-3.92199
515.5,14.8658,1.10741,-3.92199
516,14.8816,1.10495,-3.92199
516.5,14.8973,1.1016,-3.92199
517,14.913,1.10438,-3.92204
517.5,14.929,1.09372,-3.92301
518,14.9451,1.0991,-3.92298
518.5,14.961,1.09822,-3.92298
519,14.9761,1.09695,-3.92298
519.5,14.9927,1.09434,-3.92298
520,15.0088,1.09339,-3.92365
520.5,15.0246,1.09662,-3.92431
521,15.0404,1.09369,-3.92313
521.5,15.0562,1.08598,-3.92298
522,15.072,1.09004,-3.92298
522.5,15.0881,1.08849,-3.92298
523,15.1044,1.09262,-3.92272
523.5,15.1204,1.08312,-3.92164
524,15.1359,1.08996,-3.92166
524.5,15.1522,1.0978,-3.92166
525,15.1681,1.09573,-3.92166
525.5,15.184,1.08768,-3.92166
526,15.2,1.09218,-3.92166
526.5,15.2159,1.0949,-3.92166
527,15.232,1.08807,-3.92166
527.5,15.2471,1.09578,-3.92166
528,15.2638,1.10147,-3.92166
528.5,15.2801,1.09696,-3.92166
529,15.296,1.1006,-3.92166
529.5,15.3119,1.09913,-3.92166
530,15.3282,1.1013,-3.92166
530.5,15.344,1.09873,-3.92166
531,15.3599,1.10045,-3.92166
531.5,15.3759,1.09979,-3.92165
532,15.3923,1.09973,-3.92115
532.5,15.4084,1.10544,-3.92035
533,15.4242,1.10603,-3.92034
533.5,15.4401,1.10029,-3.92034
534,15.4563,1.10507,-3.92034
534.5,15.4723,1.10782,-3.92034
535,15.4884,1.10812,-3.92034
535.5,15.5042,1.09889,-3.92034
536,15.5204,1.09463,-3.92034
536.5,15.5365,1.09805,-3.92035
537,15.5525,1.10168,-3.92106
537.5,15.5683,1.09397,-3.92164
538,15.5846,1.0977,-3.92165
538.5,15.6002,1.1013,-3.92165
539,15.616,1.10398,-3.92165
539.5,15.6327,1.09233,-3.92165
540,15.649,1.09044,-3.92153
540.5,15.6649,1.0876,-3.9197
541,15.6808,1.07838,-3.91936
541.5,15.6971,1.07938,-3.91936
542,15.7132,1.08275,-3.91935
542.5,15.7293,1.08345,-3.92007
543,15.7452,1.07493,-3.92067
543.5,15.7614,1.07638,-3.92067
544,15.7773,1.07368,-3.92067
544.5,15.7936,1.06998,-3.92067
545,15.8098,1.06852,-3.92067
545.5,15.8256,1.06791,-3.92067
546,15.8417,1.06133,-3.92064
546.5,15.858,1.06102,-3.92101
547,15.8738,1.06624,-3.921
547.5,15.89,1.06806,-3.921
548,15.9059,1.06265,-3.921
548.5,15.922,1.05839,-3.921
549,15.9382,1.04992,-3.921
549.5,15.9542,1.05342,-3.921
550,15.9702,1.0484,-3.921
550.5,15.9864,1.04987,-3.921
551,16.0027,1.05403,-3.921
551.5,16.0188,1.05717,-3.92101
552,16.0349,1.05639,-3.92064
552.5,16.0509,1.04783,-3.92067
553,16.0672,1.05252,-3.92067
553.5,16.0833,1.05263,-3.92067
554,16.0994,1.05585,-3.92067
554.5,16.1155,1.05799,-3.92067
555,16.1316,1.06055,-3.92067
555.5,16.1477,1.05396,-3.92067
556,16.1637,1.05696,-3.92073
556.5,16.1799,1.05308,-3.91943
557,16.1961,1.05331,-3.91999
557.5,16.2115,1.05512,-3.92001
558,16.2277,1.05418,-3.92001
558.5,16.2436,1.04816,-3.92001
559,16.2605,1.05004,-3.92001
559.5,16.2765,1.05525,-3.92001
560,16.2925,1.0499,-3.92001
560.5,16.3088,1.04636,-3.92001
561,16.3248,1.04406,-3.92001
561.5,16.3411,1.04411,-3.92001
562,16.3571,1.0397,-3.92001
562.5,16.3729,1.03688,-3.92004
563,16.3895,1.04546,-3.92033
563.5,16.4054,1.04747,-3.92034
564,16.421,1.05001,-3.92088
564.5,16.437,1.05129,-3.92167
565,16.4531,1.05414,-3.92166
565.5,16.4691,1.04722,-3.92166
566,16.4861,1.04886,-3.92167
566.5,16.5024,1.04238,-3.92061
567,16.5184,1.04485,-3.92067
567.5,16.5344,1.0364,-3.92067
568,16.5506,1.04599,-3.92067
568.5,16.5668,1.04387,-3.92067
569,16.583,1.04754,-3.92067
569.5,16.5985,1.04806,-3.92067
570,16.6143,1.04285,-3.92089
570.5,16.6314,1.04108,-3.92133
571,16.6475,1.04055,-3.92131
571.5,16.6636,1.0431,-3.92193
572,16.6798,1.04488,-3.92199
572.5,16.6958,1.0409,-3.92197
573,16.7122,1.03866,-3.92167
573.5,16.7282,1.04033,-3.92166
574,16.7442,1.04663,-3.92166
574.5,16.7606,1.04274,-3.92166
575,16.7766,1.04038,-3.92164
575.5,16.7927,1.03916,-3.92269
576,16.8092,1.04075,-3.92297
576.5,16.8251,1.04363,-3.92297
577,16.8411,1.04123,-3.92297
577.5,16.8572,1.0417,-3.92297
578,16.8732,1.037,-3.923
578.5,16.8896,1.04175,-3.92422
579,16.9057,1.03186,-3.92429
579.5,16.9218,1.03006,-3.92429
580,16.9379,1.03181,-3.92429
580.5,16.954,1.03562,-3.9243
581,16.9702,1.03058,-3.92348
581.5,16.9866,1.0284,-3.92297
582,17.0025,1.02682,-3.92297
582.5,17.019,1.02299,-3.92275
583,17.0347,1.02566,-3.92232
583.5,17.0509,1.02639,-3.92231
584,17.0671,1.02074,-3.92231
584.5,17.0832,1.01969,-3.92247
585,17.0992,1.01831,-3.92329
585.5,17.1158,1.01674,-3.9233
586,17.1318,1.01417,-3.9233
586.5,17.1479,1.01867,-3.9233
587,17.164,1.01497,-3.9233
587.5,17.1803,1.00884,-3.9233
588,17.1966,1.01197,-3.9233
588.5,17.2127,1.00727,-3.92321
589,17.2287,1.01004,-3.92263
589.5,17.2449,1.00491,-3.92264
590,17.2614,1.00391,-3.92264
590.5,17.2775,1.00347,-3.92264
591,17.2936,1.00299,-3.92264
591.5,17.3097,1.00981,-3.92264
592,17.3258,0.99767,-3.92264
592.5,17.3421,0.996152,-3.92242
593,17.3584,0.989102,-3.92167
593.5,17.3745,0.992031,-3.92166
594,17.3905,0.995399,-3.92166
594.5,17.4067,0.984689,-3.92166
595,17.4228,0.984654,-3.92166
595.5,17.4389,0.984533,-3.92166
596,17.455,0.97972,-3.92166
596.5,17.4711,0.968443,-3.92167
597,17.4876,0.975794,-3.92203
597.5,17.5038,0.976789,-3.92199
598,17.5198,0.978962,-3.92199
598.5,17.5362,0.979842,-3.922
599,17.5525,0.977222,-3.92167
599.5,17.5684,0.968335,-3.92229
600,17.5844,0.969958,-3.92299
600.5,17.6007,0.964633,-3.92298
601,17.6172,0.965032,-3.92298
601.5,17.6333,0.964948,-3.92298
602,17.6497,0.964093,-3.92298
602.5,17.6656,0.960906,-3.92298
603,17.6818,0.956063,-3.92418
603.5,17.6981,0.963824,-3.92429
604,17.7143,0.961412,-3.92393
604.5,17.7307,0.96126,-3.92298
605,17.7467,0.956682,-3.92298
605.5,17.7629,0.961537,-3.92298
606,17.7792,0.958763,-3.92298
606.5,17.7957,0.951386,-3.92298
607,17.8117,0.948595,-3.92298
607.5,17.8278,0.943421,-3.923
608,17.8442,0.941494,-3.92211
608.5,17.8602,0.945204,-3.92164
609,17.8763,0.940521,-3.91986
609.5,17.8928,0.93427,-3.91791
610,17.9087,0.938446,-3.91728
610.5,17.9253,0.931677,-3.91726
611,17.9417,0.928833,-3.91975
611.5,17.9576,0.924602,-3.92201
612,17.9736,0.915672,-3.92383
612.5,17.9899,0.913241,-3.92417
613,18.0059,0.909097,-3.92418
613.5,18.0224,0.899993,-3.92418
614,18.0388,0.893391,-3.92418
614.5,18.0546,0.886048,-3.92418
615,18.0708,0.884334,-3.92418
615.5,18.0872,0.885206,-3.92418
616,18.1036,0.869171,-3.92418
616.5,18.1198,0.862306,-3.92418
617,18.1362,0.861183,-3.92418
617.5,18.1515,0.860121,-3.92418
618,18.1685,0.851891,-3.92418
618.5,18.1847,0.844866,-3.92418
619,18.2012,0.836146,-3.92418
619.5,18.2174,0.836141,-3.92418
620,18.2335,0.832606,-3.92418
620.5,18.2495,0.823487,-3.92439
621,18.2659,0.818256,-3.92452
621.5,18.282,0.81597,-3.92456
622,18.2982,0.818764,-3.92386
622.5,18.3143,0.8131,-3.92359
623,18.331,0.81435,-3.92352
623.5,18.347,0.815887,-3.92352
624,18.3633,0.81183,-3.92352
624.5,18.3794,0.805607,-3.92352
625,18.3956,0.802269,-3.92352
625.5,18.4121,0.797091,-3.92352
626,18.4281,0.796068,-3.92354
626.5,18.4443,0.793545,-3.9232
627,18.4606,0.791358,-3.92319
627.5,18.4768,0.794494,-3.92319
628,18.4934,0.794044,-3.92319
628.5,18.5096,0.789796,-3.92319
629,18.5257,0.792812,-3.92319
629.5,18.5419,0.792306,-3.9232
630,18.5582,0.795912,-3.92181
630.5,18.5744,0.78183,-3.92187
631,18.5906,0.777964,-3.92187
631.5,18.6069,0.779693,-3.92187
632,18.6233,0.787341,-3.92185
632.5,18.6396,0.779598,-3.9229
633,18.6558,0.772878,-3.92286
633.5,18.6721,0.776838,-3.92286
634,18.6884,0.771972,-3.9231
634.5,18.7044,0.767726,-3.92419
635,18.7207,0.768894,-3.92418
635.5,18.7374,0.766439,-3.92418
636,18.7534,0.764783,-3.92418
636.5,18.7698,0.768265,-3.9242
637,18.7858,0.771907,-3.92316
637.5,18.8021,0.771825,-3.92287
638,18.8185,0.768696,-3.92286
638.5,18.8347,0.763782,-3.92286
639,18.8511,0.752321,-3.92286
639.5,18.8675,0.755972,-3.92286
640,18.8837,0.759652,-3.92286
640.5,18.8999,0.759055,-3.92286
641,18.9161,0.753026,-3.92286
641.5,18.9327,0.751814,-3.92286
642,18.9489,0.751417,-3.92286
642.5,18.9653,0.751011,-3.92286
643,18.9816,0.747052,-3.92286
643.5,18.998,0.740037,-3.92286
644,19.0142,0.727985,-3.92292
644.5,19.0304,0.730723,-3.92333
645,19.0468,0.733495,-3.92288
645.5,19.0631,0.727846,-3.92287
646,19.0794,0.725181,-3.92287
646.5,19.0956,0.729008,-3.92287
647,19.1119,0.72501,-3.92287
647.5,19.1283,0.724978,-3.92257
648,19.1445,0.722398,-3.92155
648.5,19.1608,0.720718,-3.92155
649,19.1774,0.711162,-3.92155
649.5,19.1933,0.713868,-3.92155
650,19.2098,0.71514,-3.92155
650.5,19.2263,0.714657,-3.9216
651,19.2423,0.717727,-3.92318
651.5,19.2587,0.714138,-3.92421
652,19.2752,0.714342,-3.92442
652.5,19.2914,0.718344,-3.92562
653,19.3076,0.714275,-3.92566
653.5,19.3241,0.710774,-3.92689
654,19.3403,0.711646,-3.92647
654.5,19.3567,0.715324,-3.92563
655,19.3731,0.714512,-3.92561
655.5,19.3895,0.718621,-3.92546
656,19.4061,0.714082,-3.92522
656.5,19.4219,0.713749,-3.9265
657,19.4383,0.716496,-3.9277
657.5,19.4546,0.715387,-3.92805
658,19.4708,0.706807,-3.92711
658.5,19.4872,0.709229,-3.92505
659,19.5036,0.709413,-3.92365
659.5,19.5199,0.708235,-3.92211
660,19.5365,0.708358,-3.92099
660.5,19.5526,0.715045,-3.92056
661,19.5692,0.71431,-3.92056
661.5,19.5853,0.711929,-3.92056
662,19.6018,0.704289,-3.92056
662.5,19.618,0.703937,-3.92056
663,19.6342,0.710641,-3.9208
663.5,19.6509,0.706622,-3.92189
664,19.6673,0.70999,-3.92188
664.5,19.6835,0.719338,-3.92187
665,19.6997,0.706386,-3.92094
665.5,19.716,0.715231,-3.92056
666,19.7323,0.721669,-3.92056
666.5,19.749,0.721054,-3.92056
667,19.7653,0.714973,-3.92056
667.5,19.7818,0.715814,-3.92056
668,19.798,0.711856,-3.92056
668.5,19.8142,0.716333,-3.92071
669,19.8305,0.720677,-3.92189
669.5,19.8463,0.72275,-3.92187
670,19.8633,0.725844,-3.92187
670.5,19.88,0.726638,-3.9218
671,19.8964,0.718055,-3.92252
671.5,19.9128,0.724047,-3.92253
672,19.9291,0.719793,-3.92253
672.5,19.9455,0.719051,-3.92253
673,19.9619,0.723032,-3.92253
673.5,19.9784,0.721866,-3.92253
674,19.9947,0.721545,-3.92253
674.5,20.0108,0.724268,-3.92253
675,20.0275,0.72644,-3.92253
675.5,20.044,0.725792,-3.92253
676,20.0602,0.727247,-3.92227
676.5,20.0767,0.722067,-3.9212
677,20.0931,0.726288,-3.92125
677.5,20.1095,0.730531,-3.9219
678,20.1259,0.724666,-3.92188
678.5,20.1423,0.72858,-3.92181
679,20.1588,0.728582,-3.92254
679.5,20.1749,0.723404,-3.92254
680,20.1917,0.721866,-3.92219
680.5,20.2078,0.720313,-3.92123
681,20.224,0.719554,-3.92122
681.5,20.2404,0.723372,-3.92122
682,20.257,0.718477,-3.92122
682.5,20.2736,0.71302,-3.92122
683,20.2899,0.717242,-3.92122
683.5,20.3064,0.71449,-3.92122
684,20.3225,0.712628,-3.92122
684.5,20.3384,0.717885,-3.92122
685,20.3549,0.719968,-3.92122
685.5,20.3719,0.721601,-3.92122
686,20.3885,0.718119,-3.92122
686.5,20.4049,0.713737,-3.92122
687,20.421,0.714229,-3.92122
687.5,20.4375,0.708735,-3.92122
688,20.4539,0.706155,-3.92122
688.5,20.4706,0.701395,-3.92122
689,20.4868,0.701872,-3.92122
689.5,20.5032,0.707299,-3.92127
690,20.5198,0.713527,-3.91991
690.5,20.5362,0.704013,-3.9199
691,20.5525,0.705918,-3.9199
691.5,20.5688,0.717299,-3.9199
692,20.5854,0.721295,-3.9199
692.5,20.6018,0.714634,-3.91999
693,20.6181,0.71608,-3.92121
693.5,20.6346,0.70818,-3.92122
694,20.6511,0.713487,-3.92122
694.5,20.6675,0.706215,-3.92122
695,20.6837,0.706474,-3.92122
695.5,20.7002,0.709045,-3.92122
696,20.7168,0.706989,-3.92122
696.5,20.7332,0.704452,-3.92122
697,20.7496,0.702959,-3.92122
697.5,20.7663,0.70336,-3.92122
698,20.7824,0.695398,-3.92122
698.5,20.7988,0.695976,-3.92122
699,20.8152,0.695191,-3.92122
699.5,20.8318,0.695569,-3.92122
700,20.8478,0.693994,-3.92123
700.5,20.8642,0.691418,-3.92172
701,20.8808,0.678439,-3.92252
701.5,20.8976,0.677752,-3.92253
702,20.9142,0.679099,-3.92253
702.5,20.9308,0.677925,-3.92253
703,20.9471,0.678028,-3.92253
703.5,20.9633,0.679726,-3.92184
704,20.9799,0.676231,-3.92121
704.5,20.9962,0.673288,-3.92107
705,21.0127,0.676797,-3.91989
705.5,21.0291,0.673687,-3.9199
706,21.0457,0.660645,-3.9199
706.5,21.0623,0.663417,-3.9199
707,21.079,0.661031,-3.9199
707.5,21.0952,0.662904,-3.9199
708,21.1116,0.65871,-3.9199
708.5,21.1279,0.658487,-3.9199
709,21.1445,0.659817,-3.91984
709.5,21.1609,0.65524,-3.92186
710,21.1773,0.653292,-3.92446
710.5,21.1936,0.648956,-3.92484
711,21.2103,0.648036,-3.92489
711.5,21.2266,0.649575,-3.92288
712,21.2434,0.641991,-3.92296
712.5,21.2597,0.633824,-3.92264
713,21.276,0.625122,-3.92171
713.5,21.2928,0.627137,-3.92134
714,21.3089,0.630654,-3.92161
714.5,21.3255,0.634773,-3.92265
715,21.342,0.622176,-3.92265
715.5,21.3584,0.622877,-3.92246
716,21.3749,0.614738,-3.92132
716.5,21.3913,0.619948,-3.92133
717,21.4081,0.614658,-3.92133
717.5,21.4243,0.608735,-3.92133
718,21.4409,0.608338,-3.92133
718.5,21.4573,0.611017,-3.92134
719,21.474,0.606644,-3.92222
719.5,21.4905,0.598432,-3.92264
720,21.5069,0.591008,-3.92265
720.5,21.5236,0.584815,-3.92282
721,21.54,0.579914,-3.92365
721.5,21.5564,0.572311,-3.92364
722,21.5729,0.572374,-3.92364
722.5,21.5895,0.569337,-3.92364
723,21.606,0.570773,-3.92364
723.5,21.6224,0.563592,-3.92364
724,21.6389,0.558088,-3.92364
724.5,21.6554,0.555718,-3.92364
725,21.6719,0.550285,-3.92413
725.5,21.6884,0.55471,-3.92538
726,21.7052,0.550321,-3.92506
726.5,21.7215,0.545382,-3.92506
727,21.7383,0.5356,-3.92371
727.5,21.7545,0.53179,-3.92295
728,21.7713,0.531497,-3.92139
728.5,21.7879,0.523882,-3.92095
729,21.8043,0.525902,-3.92122
729.5,21.821,0.513737,-3.92122
730,21.8375,0.519932,-3.92122
730.5,21.854,0.51939,-3.92121
731,21.8706,0.512074,-3.92207
731.5,21.8871,0.507215,-3.92253
732,21.9037,0.500929,-3.92253
732.5,21.9201,0.497365,-3.92251
733,21.9368,0.494861,-3.92371
733.5,21.9533,0.488577,-3.92385
734,21.9697,0.483554,-3.92387
734.5,21.9867,0.48097,-3.92467
735,22.003,0.480317,-3.92516
735.5,22.0193,0.481831,-3.92517
736,22.0359,0.479429,-3.92517
736.5,22.0528,0.475085,-3.92517
737,22.0691,0.472176,-3.92514
737.5,22.0857,0.472118,-3.92613
738,22.1021,0.473707,-3.92696
738.5,22.1188,0.467689,-3.92747
739,22.1353,0.465702,-3.92623
739.5,22.152,0.467203,-3.92458
740,22.1687,0.465167,-3.92319
740.5,22.1849,0.471476,-3.92206
741,22.2014,0.466811,-3.92188
741.5,22.2184,0.462004,-3.9214
742,22.2349,0.460026,-3.92043
742.5,22.2515,0.457257,-3.92045
743,22.2679,0.453591,-3.92045
743.5,22.2844,0.448828,-3.92045
744,22.3005,0.448987,-3.92045
744.5,22.3175,0.449109,-3.92045
745,22.3344,0.446065,-3.92045
745.5,22.3509,0.444509,-3.92045
746,22.3673,0.438341,-3.92045
746.5,22.384,0.432731,-3.92045
747,22.4007,0.434784,-3.92058
747.5,22.4171,0.437541,-3.92211
748,22.4338,0.43285,-3.92383
748.5,22.4504,0.431219,-3.92407
749,22.4668,0.427533,-3.92408
749.5,22.4835,0.418689,-3.92275
750,22.4998,0.41616,-3.92195
750.5,22.5167,0.412853,-3.92044
751,22.5333,0.410344,-3.9194
751.5,22.5498,0.401965,-3.91891
752,22.5668,0.405485,-3.91895
752.5,22.5832,0.395022,-3.91959
753,22.5998,0.392015,-3.91956
753.5,22.6163,0.391512,-3.91899
754,22.633,0.387049,-3.91826
754.5,22.6496,0.37801,-3.91825
755,22.6663,0.368364,-3.91825
755.5,22.6826,0.369116,-3.91825
756,22.6993,0.366174,-3.91825
756.5,22.7158,0.363791,-3.91822
757,22.7319,0.357079,-3.91891
757.5,22.7486,0.357668,-3.91892
758,22.765,0.351091,-3.91943
758.5,22.7818,0.350698,-3.92086
759,22.7989,0.343076,-3.92155
759.5,22.8155,0.338695,-3.92153
760,22.8322,0.332878,-3.92254
760.5,22.8482,0.327122,-3.92285
761,22.8652,0.326992,-3.92441
761.5,22.8819,0.320093,-3.92536
762,22.8984,0.309905,-3.92649
762.5,22.9152,0.304618,-3.92476
763,22.9317,0.301486,-3.92336
763.5,22.9481,0.306199,-3.92195
764,22.9649,0.30095,-3.92069
764.5,22.9812,0.291719,-3.91988
765,22.9981,0.289606,-3.91936
765.5,23.0144,0.282181,-3.91974
766,23.031,0.278568,-3.92066
766.5,23.048,0.276432,-3.92067
767,23.0643,0.273153,-3.92067
767.5,23.0809,0.26752,-3.92067
768,23.0974,0.264092,-3.92067
768.5,23.114,0.263789,-3.92067
769,23.1305,0.256282,-3.92065
769.5,23.1471,0.25052,-3.92179
770,23.164,0.250394,-3.92199
770.5,23.1806,0.248725,-3.92199
771,23.1974,0.241835,-3.92199
771.5,23.2137,0.234402,-3.92199
772,23.2304,0.231397,-3.92199
772.5,23.2472,0.226941,-3.92199
773,23.2635,0.230895,-3.92199
773.5,23.28,0.231325,-3.92199
774,23.2964,0.232551,-3.92199
774.5,23.3128,0.23737,-3.92199
775,23.3301,0.23284,-3.92199
775.5,23.3466,0.22207,-3.92133
776,23.3627,0.218159,-3.92067
776.5,23.3798,0.218804,-3.92067
777,23.3965,0.218416,-3.92067
777.5,23.4131,0.216163,-3.92067
778,23.4299,0.21139,-3.92067
778.5,23.4463,0.207559,-3.92067
779,23.4629,0.203191,-3.92067
779.5,23.4798,0.202436,-3.92067
780,23.4964,0.200288,-3.92067
780.5,23.5129,0.198821,-3.92067
781,23.5296,0.201349,-3.92055
781.5,23.546,0.190873,-3.91879
782,23.5628,0.188844,-3.91726
782.5,23.5794,0.1793,-3.91719
783,23.596,0.17397,-3.91941
783.5,23.6127,0.173433,-3.92183
784,23.6294,0.170218,-3.92419
784.5,23.6455,0.167347,-3.92469
785,23.6626,0.165148,-3.92447
785.5,23.6791,0.164104,-3.92452
786,23.6956,0.166841,-3.92573
786.5,23.7124,0.169463,-3.92583
787,23.7291,0.164747,-3.92583
787.5,23.7458,0.156992,-3.92583
788,23.7624,0.14932,-3.92583
788.5,23.7791,0.152244,-3.92583
789,23.7957,0.144219,-3.92583
789.5,23.8124,0.138816,-3.92583
790,23.8292,0.13624,-3.92583