File: 01_Data/Helmet_Tetrahedron/STA/N2/10K_min/Helmet_Tetrahedron_STA_N2_10KData_250512_R3.csv
Temp./C,Time/min,DSC/(mW/mg),Mass loss/mg
35.0,0.0,0.48442,0.00374548
35.5,0.0877786,0.509936,0.00365268
36,0.162965,0.530673,0.003461
36.5,0.245814,0.549713,0.00241683
37,0.321808,0.568723,0.000711641
37.5,0.397158,0.586293,0.00200879
38,0.471457,0.597033,0.00325056
38.5,0.544291,0.618795,0.00323278
39,0.616005,0.627728,0.00194893
39.5,0.681769,0.641203,0.002166
40,0.755539,0.653954,0.00121523
40.5,0.823402,0.656571,0.000163788
41,0.890251,0.677,0.000729023
41.5,0.957851,0.696287,2.63527e-05
42,1.02284,0.702352,-0.000102353
42.5,1.0905,0.710247,-3.00169e-05
43,1.15374,0.717286,0.000626556
43.5,1.21916,0.731093,0.00153898
44,1.28271,0.740366,-0.00010467
44.5,1.34749,0.744832,-0.000723639
45,1.40887,0.754207,-0.000111924
45.5,1.46967,0.770679,-0.000284037
46,1.53251,0.774093,0.000165598
46.5,1.59248,0.791093,8.35427e-06
47,1.65248,0.796554,-4.34953e-05
47.5,1.71507,0.804464,0.00011323
48,1.77427,0.816202,0.000353455
48.5,1.83352,0.821055,0.00132892
49,1.89353,0.825882,0.000658945
49.5,1.95361,0.83985,0.00122917
50,2.01091,0.847981,0.00050881
50.5,2.06917,0.857947,0.00127259
51,2.12768,0.866654,0.000522981
51.5,2.18603,0.880455,-0.00019832
52,2.24149,0.887106,-0.000102195
52.5,2.29965,0.889886,-0.00120677
53,2.35683,0.906844,-0.00168815
53.5,2.41088,0.912797,-0.00288233
54,2.47002,0.923273,-0.00295473
54.5,2.52377,0.934098,-0.00308529
55,2.58096,0.935744,-0.00305087
55.5,2.63705,0.94644,-0.00175143
56,2.69252,0.947428,-0.00195983
56.5,2.74923,0.95409,-0.00301532
57,2.80362,0.959396,-0.00177429
57.5,2.85869,0.967332,-0.0017171
58,2.91004,0.973968,-0.00161532
58.5,2.96655,0.971094,-0.00152993
59,3.02169,0.981198,-0.00286868
59.5,3.07596,0.979561,-0.00187208
60,3.13067,0.984225,-0.0015335
60.5,3.18426,0.987391,-0.00153509
61,3.23769,0.985799,-0.00277528
61.5,3.29053,0.994668,-0.00402589
62,3.34359,0.993894,-0.00294832
62.5,3.39578,0.98868,-0.00296056
63,3.4493,0.994893,-0.00276111
63.5,3.50168,0.992329,-0.00259845
64,3.55581,0.991736,-0.00165682
64.5,3.60601,0.989122,-0.00172281
65,3.6598,0.999206,-0.00248407
65.5,3.7113,0.992618,-0.00319039
66,3.76294,0.998339,-0.00190134
66.5,3.81532,0.996197,-0.00186266
67,3.86618,1.00071,-0.00187115
67.5,3.91902,1.00536,-0.00178088
68,3.97163,1.01199,-0.00316513
68.5,4.02317,1.01212,-0.00299465
69,4.07444,1.00788,-0.00316867
69.5,4.12701,1.01323,-0.00319567
70,4.17717,1.01363,-0.00205198
70.5,4.22853,1.01602,-0.003215
71,4.28158,1.0238,-0.00186455
71.5,4.33125,1.02973,-0.00324802
72,4.38289,1.03225,-0.0018825
72.5,4.42995,1.03035,-0.00315651
73,4.48521,1.03916,-0.0031918
73.5,4.53632,1.04369,-0.0031387
74,4.58595,1.04325,-0.00317963
74.5,4.6373,1.04717,-0.00318434
75,4.68841,1.05566,-0.00284272
75.5,4.73869,1.05646,-0.00277849
76,4.78633,1.05651,-0.00186322
76.5,4.83984,1.05856,-0.00182841
77,4.8916,1.06023,-0.00179775
77.5,4.94192,1.05478,-0.00318846
78,4.99294,1.06091,-0.00211072
78.5,5.04315,1.06346,-0.00320756
79,5.09206,1.06674,-0.00313554
79.5,5.14249,1.0713,-0.0031791
80,5.19329,1.07645,-0.00451395
80.5,5.24391,1.07222,-0.00318388
81,5.29373,1.07893,-0.00428977
81.5,5.34397,1.08412,-0.00319201
82,5.39464,1.08873,-0.00448937
82.5,5.44278,1.0982,-0.00317702
83,5.49343,1.10039,-0.00320391
83.5,5.54454,1.09937,-0.00452331
84,5.59419,1.10503,-0.00306956
84.5,5.64351,1.09883,-0.00307742
85,5.6923,1.11207,-0.00305912
85.5,5.74195,1.10977,-0.00308076
86,5.79056,1.11219,-0.00443449
86.5,5.8414,1.11059,-0.00308115
87,5.89079,1.12424,-0.00416204
87.5,5.94042,1.12242,-0.00440154
88,5.99068,1.12381,-0.00337788
88.5,6.03865,1.12468,-0.0044102
89,6.08826,1.13374,-0.00472577
89.5,6.13731,1.13349,-0.00440097
90,6.1876,1.13465,-0.00519724
90.5,6.23583,1.13632,-0.00440176
91,6.28613,1.14281,-0.00573019
91.5,6.33438,1.1388,-0.0057293
92,6.38264,1.14654,-0.00438603
92.5,6.43188,1.15561,-0.00305657
93,6.48055,1.16051,-0.00403736
93.5,6.52846,1.15264,-0.00439186
94,6.57789,1.15457,-0.00454606
94.5,6.62706,1.16002,-0.00575294
95,6.67546,1.15971,-0.00440002
95.5,6.72446,1.16925,-0.00435414
96,6.77259,1.16852,-0.00571607
96.5,6.82124,1.17379,-0.00437411
97,6.87027,1.17314,-0.00541011
97.5,6.91713,1.1775,-0.00571272
98,6.96738,1.17107,-0.00437815
98.5,7.01483,1.1766,-0.00306503
99,7.064,1.18128,-0.00438857
99.5,7.11213,1.18537,-0.00438975
100,7.16026,1.18211,-0.00363879
100.5,7.20855,1.1854,-0.00439808
101,7.25713,1.19533,-0.00441694
101.5,7.30412,1.20123,-0.00570292
102,7.35241,1.19473,-0.00440069
102.5,7.40073,1.21244,-0.00439005
103,7.44939,1.2054,-0.00433893
103.5,7.49845,1.21398,-0.00450629
104,7.54627,1.21807,-0.00438992
104.5,7.59267,1.21931,-0.00439
105,7.64091,1.22737,-0.00570908
105.5,7.68931,1.22711,-0.00432876
106,7.73819,1.2317,-0.00571267
106.5,7.78685,1.22673,-0.00571028
107,7.83388,1.22718,-0.0063624
107.5,7.88278,1.23332,-0.00628849
108,7.93051,1.23682,-0.0055969
108.5,7.97818,1.2393,-0.00702762
109,8.02641,1.23935,-0.00572397
109.5,8.07437,1.23922,-0.00571005
110,8.12336,1.24582,-0.00573075
110.5,8.17148,1.2475,-0.00567744
111,8.21931,1.24168,-0.00573419
111.5,8.26767,1.24731,-0.00702727
112,8.31629,1.24875,-0.00703095
112.5,8.36422,1.25507,-0.00635663
113,8.41213,1.26017,-0.0058063
113.5,8.46002,1.26398,-0.00701829
114,8.50713,1.26246,-0.00702
114.5,8.55539,1.26267,-0.00701994
115,8.6036,1.26706,-0.0061982
115.5,8.65132,1.27217,-0.00570716
116,8.69955,1.26516,-0.00707391
116.5,8.7469,1.26784,-0.00694087
117,8.7958,1.26496,-0.00637698
117.5,8.84274,1.27055,-0.00703742
118,8.89092,1.26476,-0.00702692
118.5,8.94047,1.2714,-0.00842382
119,8.98717,1.27347,-0.00834992
119.5,9.03559,1.27945,-0.00835
120,9.08307,1.28172,-0.00834877
120.5,9.13058,1.27905,-0.00695577
121,9.17782,1.28399,-0.00834043
121.5,9.22642,1.2796,-0.00834
122,9.27521,1.28787,-0.00834179
122.5,9.32219,1.28746,-0.0085955
123,9.37004,1.28311,-0.00834113
123.5,9.41804,1.28998,-0.00835333
124,9.4658,1.29154,-0.00964994
124.5,9.51356,1.29212,-0.00965013
125,9.56067,1.29286,-0.00867504
125.5,9.60905,1.29259,-0.010003
126,9.65678,1.29187,-0.0113731
126.5,9.70454,1.29867,-0.0113213
127,9.75231,1.29906,-0.0109556
127.5,9.80041,1.29931,-0.00966113
128,9.84765,1.30446,-0.00966
128.5,9.89557,1.31094,-0.00966
129,9.94304,1.31689,-0.00966
129.5,9.99081,1.3127,-0.00966009
130,10.0373,1.3133,-0.00961372
130.5,10.0856,1.31295,-0.00966331
131,10.131,1.31268,-0.00966001
131.5,10.179,1.31501,-0.00961454
132,10.2278,1.31436,-0.010983
132.5,10.2765,1.3216,-0.01098
133,10.3239,1.31894,-0.0109803
133.5,10.3707,1.32298,-0.00957099
134,10.4192,1.3249,-0.0109905
134.5,10.4659,1.32536,-0.01098
135,10.5132,1.32353,-0.01098
135.5,10.5601,1.32413,-0.0109838
136,10.6086,1.33354,-0.0096316
136.5,10.6564,1.32952,-0.0109764
137,10.7036,1.33213,-0.01098
137.5,10.7512,1.32833,-0.0120061
138,10.799,1.33269,-0.0123004
138.5,10.8448,1.33794,-0.0123
139,10.8932,1.34111,-0.0121257
139.5,10.9401,1.33497,-0.0109818
140,10.988,1.3381,-0.01098
140.5,11.0359,1.33033,-0.01098
141,11.0816,1.33854,-0.0109812
141.5,11.1297,1.33949,-0.0122805
142,11.1778,1.34212,-0.0123
142.5,11.2249,1.34674,-0.0109746
143,11.2723,1.33857,-0.0122833
143.5,11.3186,1.34366,-0.01229
144,11.3669,1.33803,-0.0122896
144.5,11.4142,1.34361,-0.0136052
145,11.4609,1.34409,-0.0136104
145.5,11.5083,1.33783,-0.01361
146,11.5558,1.34369,-0.0136093
146.5,11.6023,1.3442,-0.0129282
147,11.6497,1.34832,-0.01295
147.5,11.696,1.34855,-0.012951
148,11.7435,1.35011,-0.0142552
148.5,11.7917,1.34954,-0.0142699
149,11.8387,1.35509,-0.0143241
149.5,11.8859,1.34815,-0.0136182
150,11.9325,1.34715,-0.0149512
150.5,11.9797,1.35358,-0.0149701
151,12.0247,1.3529,-0.0136214
151.5,12.0748,1.36118,-0.01362
152,12.1213,1.36367,-0.01362
152.5,12.169,1.35837,-0.0136119
153,12.2153,1.36058,-0.0149362
153.5,12.2632,1.3572,-0.01493
154,12.3091,1.36775,-0.0149311
154.5,12.3567,1.36509,-0.0162054
155,12.4041,1.36627,-0.014934
155.5,12.4515,1.36586,-0.0149303
156,12.4973,1.37028,-0.0160582
156.5,12.545,1.36632,-0.0162504
157,12.5925,1.36569,-0.0162499
157.5,12.6393,1.36866,-0.0162143
158,12.6852,1.37324,-0.0175734
158.5,12.7341,1.36752,-0.0166833
159,12.7807,1.3755,-0.0162501
159.5,12.8283,1.37662,-0.0162557
160,12.8756,1.37283,-0.0165806
160.5,12.9231,1.37668,-0.0169868
161,12.9703,1.37354,-0.0178896
161.5,13.0162,1.36955,-0.0152477
162,13.0647,1.37767,-0.0155142
162.5,13.1127,1.38054,-0.01658
163,13.1581,1.38016,-0.01658
163.5,13.205,1.37775,-0.0165885
164,13.2505,1.37971,-0.01758
164.5,13.2999,1.37707,-0.0179006
165,13.3473,1.38415,-0.0179
165.5,13.3946,1.38902,-0.0179
166,13.4416,1.38866,-0.0179026
166.5,13.4896,1.38906,-0.0175794
167,13.5362,1.3945,-0.0175846
167.5,13.5822,1.39692,-0.0182289
168,13.6313,1.39567,-0.0185681
168.5,13.6751,1.39842,-0.0185599
169,13.7252,1.39886,-0.0179
169.5,13.7726,1.40499,-0.0178999
170,13.8196,1.41092,-0.0179039
170.5,13.8663,1.41298,-0.0169022
171,13.9132,1.41072,-0.0168893
171.5,13.9606,1.41749,-0.017905
172,14.0064,1.4161,-0.0182327
172.5,14.0527,1.41806,-0.0182389
173,14.1021,1.42095,-0.0195686
173.5,14.1496,1.42002,-0.0195401
174,14.1962,1.41784,-0.0195422
174.5,14.2428,1.41744,-0.0204851
175,14.2898,1.41417,-0.02053
175.5,14.3376,1.42033,-0.02053
176,14.3828,1.41871,-0.02053
176.5,14.4311,1.42465,-0.02053
177,14.4788,1.42286,-0.02053
177.5,14.5272,1.41968,-0.02053
178,14.5729,1.42391,-0.0205298
178.5,14.621,1.42217,-0.0195844
179,14.6678,1.41734,-0.0205108
179.5,14.7155,1.41344,-0.02053
180,14.7611,1.41361,-0.0205297
180.5,14.8093,1.41584,-0.0207351
181,14.8564,1.41125,-0.0223905
181.5,14.9032,1.41047,-0.0221193
182,14.951,1.41518,-0.021848
182.5,14.9977,1.4144,-0.0218491
183,15.0448,1.41899,-0.020908
183.5,15.0923,1.41778,-0.0205411
184,15.1389,1.41742,-0.0215029
184.5,15.1854,1.42009,-0.0218498
185,15.2327,1.41768,-0.0219883
185.5,15.2805,1.42503,-0.0230743
186,15.3279,1.4232,-0.0218523
186.5,15.375,1.41934,-0.0224847
187,15.4209,1.42614,-0.0231595
187.5,15.4695,1.41697,-0.0231601
188,15.5158,1.41903,-0.0231507
188.5,15.563,1.42025,-0.0225058
189,15.6082,1.41891,-0.0234617
189.5,15.6572,1.41781,-0.0238193
190,15.7036,1.41922,-0.023823
190.5,15.7513,1.42271,-0.0248092
191,15.798,1.42127,-0.02481
191.5,15.8432,1.42679,-0.0247828
192,15.8918,1.42429,-0.02514
192.5,15.9387,1.42519,-0.0260097
193,15.9861,1.4278,-0.0264499
193.5,16.033,1.42092,-0.02645
194,16.0797,1.42305,-0.02645
194.5,16.1271,1.42227,-0.02645
195,16.1751,1.42326,-0.02645
195.5,16.2221,1.4266,-0.02645
196,16.2694,1.43058,-0.02645
196.5,16.3154,1.4262,-0.02645
197,16.3626,1.43043,-0.0264501
197.5,16.4098,1.43307,-0.0267242
198,16.4568,1.42564,-0.0277683
198.5,16.504,1.42707,-0.02777
199,16.5504,1.43334,-0.02777
199.5,16.5981,1.43197,-0.02777
200,16.6441,1.42822,-0.02777
200.5,16.6916,1.42705,-0.02777
201,16.7386,1.42849,-0.0277711
201.5,16.7859,1.42898,-0.0287072
202,16.833,1.43416,-0.02909
202.5,16.8788,1.43313,-0.02909
203,16.9266,1.42804,-0.02909
203.5,16.9735,1.42663,-0.0290899
204,17.0174,1.4271,-0.0290559
204.5,17.0676,1.43015,-0.0304147
205,17.1148,1.4289,-0.0304124
205.5,17.1621,1.42745,-0.0310753
206,17.2075,1.43552,-0.0317315
206.5,17.2545,1.42344,-0.03173
207,17.302,1.42904,-0.03173
207.5,17.3493,1.43208,-0.03173
208,17.3955,1.43495,-0.03173
208.5,17.4438,1.43597,-0.0317364
209,17.4904,1.43627,-0.0340203
209.5,17.5365,1.43414,-0.03403
210,17.5846,1.42492,-0.03403
210.5,17.6319,1.43626,-0.03403
211,17.6787,1.4275,-0.03403
211.5,17.7259,1.43325,-0.03403
212,17.7734,1.43825,-0.0340369
212.5,17.8202,1.43072,-0.0343642
213,17.867,1.43497,-0.0356607
213.5,17.9141,1.43878,-0.0356353
214,17.9621,1.43209,-0.037
214.5,18.0076,1.43883,-0.0370004
215,18.0552,1.43629,-0.03766
215.5,18.1025,1.42833,-0.0383095
216,18.1496,1.43302,-0.03831
216.5,18.1966,1.43291,-0.0383075
217,18.2434,1.42883,-0.0410138
217.5,18.2917,1.43247,-0.04095
218,18.3389,1.43084,-0.0409498
218.5,18.3848,1.42524,-0.0409364
219,18.4321,1.43044,-0.0422727
219.5,18.4789,1.42022,-0.04227
220,18.526,1.42779,-0.04227
220.5,18.5729,1.42592,-0.0424517
221,18.6209,1.41883,-0.0435876
221.5,18.6664,1.41703,-0.0449993
222,18.7125,1.41733,-0.0460918
222.5,18.7612,1.41571,-0.0472163
223,18.8084,1.41431,-0.047489
223.5,18.8551,1.41392,-0.0488498
224,18.903,1.40391,-0.04885
224.5,18.9498,1.41278,-0.0488529
225,18.9965,1.39977,-0.050157
225.5,19.0433,1.4018,-0.05017
226,19.0881,1.39739,-0.0501743
226.5,19.1371,1.38873,-0.0514875
227,19.1852,1.38167,-0.0528
227.5,19.2312,1.38195,-0.0528003
228,19.2788,1.37686,-0.0528438
228.5,19.3255,1.37795,-0.054119
229,19.3722,1.3705,-0.0554254
229.5,19.4206,1.36883,-0.0554655
230,19.467,1.3641,-0.0581504
230.5,19.5139,1.36162,-0.058356
231,19.5597,1.35694,-0.0607011
231.5,19.6059,1.35706,-0.0620311
232,19.6557,1.35987,-0.0633669
232.5,19.7026,1.34756,-0.0632458
233,19.7495,1.34271,-0.0647662
233.5,19.7963,1.34325,-0.0659764
234,19.8428,1.3393,-0.0672909
234.5,19.8904,1.33417,-0.0684449
235,19.9357,1.33339,-0.0701671
235.5,19.9833,1.33125,-0.0714608
236,20.0329,1.31522,-0.0714027
236.5,20.0796,1.31862,-0.0743294
237,20.1265,1.32094,-0.0756233
237.5,20.1732,1.31097,-0.0768702
238,20.221,1.30595,-0.0781651
238.5,20.2676,1.29598,-0.0795347
239,20.3148,1.29178,-0.0804381
239.5,20.3623,1.28659,-0.0814987
240,20.4096,1.28178,-0.0833689
240.5,20.4565,1.27464,-0.0845218
241,20.5036,1.25505,-0.0872267
241.5,20.5499,1.25901,-0.0888817
242,20.5984,1.2429,-0.0902735
242.5,20.6445,1.24194,-0.0918302
243,20.6927,1.2331,-0.092785
243.5,20.7392,1.22277,-0.0954737
244,20.7861,1.20847,-0.0979992
244.5,20.8343,1.20413,-0.0995542
245,20.8809,1.19776,-0.101089
245.5,20.9283,1.17802,-0.104064
246,20.9751,1.17363,-0.106049
246.5,21.0223,1.16179,-0.107565
247,21.0675,1.15253,-0.109028
247.5,21.1165,1.14091,-0.110643
248,21.1639,1.12676,-0.11254
248.5,21.2109,1.12053,-0.116536
249,21.2584,1.11941,-0.119901
249.5,21.3058,1.14256,-0.122974
250,21.3532,1.18171,-0.124889
250.5,21.4014,1.27316,-0.127074
251,21.449,1.35229,-0.129786
251.5,21.498,1.43417,-0.134262
252,21.5472,1.50864,-0.137049
252.5,21.594,1.56473,-0.141057
253,21.6419,1.60093,-0.143307
253.5,21.6897,1.63597,-0.147799
254,21.7369,1.66448,-0.152792
254.5,21.785,1.68191,-0.157518
255,21.8314,1.69793,-0.161075
255.5,21.8794,1.69999,-0.165962
256,21.9271,1.711,-0.170293
256.5,21.9749,1.71813,-0.174641
257,22.0213,1.72733,-0.178118
257.5,22.07,1.73869,-0.182488
258,22.1157,1.74026,-0.187453
258.5,22.1642,1.7494,-0.190961
259,22.2121,1.75413,-0.195531
259.5,22.2595,1.75878,-0.198818
260,22.3069,1.76401,-0.203817
260.5,22.3538,1.76913,-0.208531
261,22.401,1.77643,-0.212624
261.5,22.4481,1.7891,-0.217978
262,22.4959,1.7928,-0.222703
262.5,22.5433,1.79361,-0.227329
263,22.5908,1.80881,-0.232187
263.5,22.6379,1.82165,-0.236617
264,22.686,1.82936,-0.242398
264.5,22.7334,1.83813,-0.247915
265,22.7807,1.84085,-0.255443
265.5,22.8265,1.85721,-0.260482
266,22.8759,1.87705,-0.266518
266.5,22.9232,1.88237,-0.271853
267,22.9704,1.89282,-0.277399
267.5,23.0194,1.91136,-0.284544
268,23.066,1.9211,-0.289809
268.5,23.1141,1.93437,-0.296972
269,23.161,1.94319,-0.304229
269.5,23.2083,1.95855,-0.311043
270,23.2549,1.9771,-0.318013
270.5,23.3034,1.99513,-0.324622
271,23.3514,2.01593,-0.332575
271.5,23.3989,2.03164,-0.339261
272,23.4463,2.0485,-0.348183
272.5,23.4941,2.07589,-0.35713
273,23.5415,2.0884,-0.36588
273.5,23.5888,2.10832,-0.37385
274,23.6378,2.13267,-0.382027
274.5,23.685,2.16098,-0.390901
275,23.7326,2.19303,-0.399032
275.5,23.7805,2.20822,-0.408042
276,23.8274,2.23918,-0.417655
276.5,23.8762,2.27012,-0.428234
277,23.9231,2.29694,-0.439042
277.5,23.971,2.33288,-0.449472
278,24.0188,2.35931,-0.459824
278.5,24.0677,2.39865,-0.470417
279,24.1138,2.4329,-0.482034
279.5,24.1604,2.46489,-0.494469
280,24.2101,2.50206,-0.505525
280.5,24.2586,2.54463,-0.518306
281,24.3071,2.58317,-0.531676
281.5,24.3539,2.6243,-0.543888
282,24.4026,2.663,-0.557063
282.5,24.4501,2.71589,-0.56992
283,24.4979,2.75138,-0.585022
283.5,24.5459,2.7985,-0.599842
284,24.5948,2.85248,-0.615506
284.5,24.642,2.90067,-0.630719
285,24.6901,2.94327,-0.646741
285.5,24.7386,2.99372,-0.665536
286,24.7861,3.04796,-0.683286
286.5,24.8338,3.08671,-0.700205
287,24.8823,3.13984,-0.71682
287.5,24.9311,3.18923,-0.736246
288,24.9787,3.22649,-0.755662
288.5,25.0266,3.27957,-0.775916
289,25.0746,3.32322,-0.795475
289.5,25.1232,3.35777,-0.816687
290,25.1709,3.40433,-0.838454
290.5,25.2193,3.42838,-0.862369
291,25.2671,3.45958,-0.885255
291.5,25.3145,3.48939,-0.906972
292,25.3634,3.51486,-0.929806
292.5,25.4087,3.53443,-0.952468
293,25.4584,3.54879,-0.97983
293.5,25.5059,3.55247,-1.00644
294,25.5541,3.56308,-1.03015
294.5,25.6005,3.56737,-1.05457
295,25.6485,3.56353,-1.07957
295.5,25.6952,3.56064,-1.1042
296,25.7433,3.54836,-1.13206
296.5,25.7908,3.53243,-1.15721
297,25.8385,3.51868,-1.18245
297.5,25.8851,3.49678,-1.20899
298,25.933,3.47687,-1.2361
298.5,25.9806,3.46181,-1.26409
299,26.0284,3.44456,-1.29079
299.5,26.0749,3.40676,-1.31619
300,26.1228,3.38118,-1.34232
300.5,26.1711,3.35452,-1.36938
301,26.2176,3.33716,-1.39684
301.5,26.2654,3.30729,-1.42357
302,26.3126,3.28612,-1.45231
302.5,26.3596,3.25788,-1.47762
303,26.4075,3.23522,-1.50466
303.5,26.4552,3.20199,-1.53168
304,26.5007,3.18538,-1.55827
304.5,26.5483,3.14922,-1.58484
305,26.5966,3.11704,-1.61018
305.5,26.6433,3.09321,-1.63544
306,26.6908,3.06397,-1.66142
306.5,26.738,3.03282,-1.68758
307,26.7853,2.9994,-1.71375
307.5,26.8325,2.96456,-1.73749
308,26.8801,2.93847,-1.76181
308.5,26.9274,2.9338,-1.78633
309,26.9732,2.91026,-1.81007
309.5,27.0215,2.88638,-1.8351
310,27.0699,2.88155,-1.85859
310.5,27.1173,2.8473,-1.88072
311,27.1649,2.81811,-1.90248
311.5,27.2123,2.8007,-1.92388
312,27.26,2.77371,-1.94651
312.5,27.3072,2.72991,-1.96737
313,27.3535,2.68923,-1.98701
313.5,27.4017,2.6344,-2.00576
314,27.4486,2.60158,-2.02531
314.5,27.4961,2.55033,-2.04435
315,27.5427,2.51439,-2.06255
315.5,27.59,2.47008,-2.0813
316,27.6351,2.42237,-2.09605
316.5,27.6841,2.37414,-2.11313
317,27.7294,2.32141,-2.12954
317.5,27.7771,2.27621,-2.14529
318,27.8245,2.23613,-2.15976
318.5,27.8727,2.19198,-2.17418
319,27.9207,2.1481,-2.18995
319.5,27.9677,2.09165,-2.20359
320,28.0151,2.05263,-2.2178
320.5,28.0618,2.00514,-2.231
321,28.109,1.97583,-2.24449
321.5,28.1562,1.93809,-2.25857
322,28.2028,1.88151,-2.27007
322.5,28.2507,1.85509,-2.28241
323,28.2987,1.80858,-2.29461
323.5,28.3452,1.78056,-2.30662
324,28.392,1.74362,-2.31607
324.5,28.4401,1.69982,-2.32723
325,28.4871,1.6681,-2.3394
325.5,28.5339,1.63157,-2.35001
326,28.582,1.59047,-2.36152
326.5,28.6298,1.55422,-2.37138
327,28.6774,1.52117,-2.37981
327.5,28.724,1.4819,-2.38936
328,28.7718,1.44885,-2.40005
328.5,28.8194,1.41725,-2.40942
329,28.8668,1.38391,-2.41871
329.5,28.9141,1.3531,-2.42761
330,28.962,1.32543,-2.43595
330.5,29.0095,1.29131,-2.44394
331,29.0563,1.2726,-2.45176
331.5,29.1045,1.23228,-2.46043
332,29.1513,1.20565,-2.46808
332.5,29.1986,1.17576,-2.47573
333,29.2465,1.15714,-2.48309
333.5,29.2928,1.12772,-2.48954
334,29.3414,1.09412,-2.49689
334.5,29.3891,1.07501,-2.50408
335,29.4363,1.0437,-2.51013
335.5,29.484,1.00917,-2.51676
336,29.5318,0.985344,-2.52327
336.5,29.5783,0.964271,-2.5306
337,29.6265,0.948746,-2.53574
337.5,29.6745,0.925285,-2.54149
338,29.7217,0.902038,-2.54696
338.5,29.7702,0.880092,-2.55266
339,29.8165,0.853775,-2.55773
339.5,29.865,0.834605,-2.56308
340,29.9122,0.807891,-2.56966
340.5,29.9604,0.793896,-2.5727
341,30.007,0.772085,-2.57624
341.5,30.0562,0.750768,-2.58073
342,30.104,0.737927,-2.58552
342.5,30.1515,0.714926,-2.58974
343,30.1981,0.697183,-2.5947
343.5,30.2461,0.675559,-2.59948
344,30.2944,0.649023,-2.60282
344.5,30.3412,0.639593,-2.60733
345,30.3894,0.617327,-2.61134
345.5,30.4383,0.595526,-2.61579
346,30.4862,0.586167,-2.61884
346.5,30.5336,0.566576,-2.62034
347,30.5805,0.550883,-2.62512
347.5,30.6292,0.535195,-2.62904
348,30.6767,0.520233,-2.63192
348.5,30.7255,0.513565,-2.63698
349,30.7726,0.502444,-2.64035
349.5,30.82,0.480061,-2.64321
350,30.8687,0.468839,-2.64499
350.5,30.9178,0.459198,-2.64677
351,30.9645,0.446414,-2.64859
351.5,31.012,0.432376,-2.65131
352,31.0605,0.424454,-2.65404
352.5,31.1091,0.408617,-2.65614
353,31.1565,0.408878,-2.65852
353.5,31.2046,0.388479,-2.66082
354,31.2532,0.382667,-2.66357
354.5,31.301,0.376122,-2.66539
355,31.3479,0.370712,-2.66695
355.5,31.397,0.363437,-2.66964
356,31.4449,0.345002,-2.67134
356.5,31.4919,0.35036,-2.6728
357,31.5404,0.343821,-2.6751
357.5,31.5887,0.342318,-2.67749
358,31.6371,0.332111,-2.67923
358.5,31.6852,0.320214,-2.68073
359,31.733,0.330374,-2.68371
359.5,31.7817,0.32161,-2.6852
360,31.829,0.311187,-2.68665
360.5,31.8752,0.308981,-2.68932
361,31.9255,0.309037,-2.69088
361.5,31.9736,0.306766,-2.69114
362,32.0219,0.303857,-2.69245
362.5,32.0701,0.291887,-2.69368
363,32.1177,0.293793,-2.6955
363.5,32.1661,0.295282,-2.69732
364,32.2158,0.287079,-2.69758
364.5,32.2628,0.284122,-2.69991
365,32.3111,0.279592,-2.70155
365.5,32.3599,0.287055,-2.70277
366,32.4071,0.28702,-2.70436
366.5,32.4552,0.283157,-2.7056
367,32.5034,0.280951,-2.70691
367.5,32.552,0.281731,-2.7083
368,32.5999,0.279744,-2.70949
368.5,32.6488,0.28443,-2.71097
369,32.6962,0.290313,-2.71091
369.5,32.7448,0.289106,-2.71203
370,32.7914,0.289494,-2.7122
370.5,32.8414,0.285848,-2.71483
371,32.8886,0.290361,-2.71613
371.5,32.9377,0.290957,-2.7164
372,32.9843,0.290591,-2.71615
372.5,33.0345,0.294213,-2.71746
373,33.0821,0.292971,-2.71866
373.5,33.1306,0.290249,-2.72008
374,33.1791,0.295936,-2.72129
374.5,33.2272,0.297104,-2.72289
375,33.2745,0.296311,-2.72497
375.5,33.3227,0.302556,-2.72561
376,33.3719,0.296468,-2.72567
376.5,33.4204,0.300512,-2.72701
377,33.4679,0.301619,-2.72845
377.5,33.5171,0.307261,-2.72972
378,33.5649,0.303011,-2.73106
378.5,33.6132,0.307253,-2.73315
379,33.6618,0.314007,-2.73498
379.5,33.711,0.314461,-2.73634
380,33.7583,0.312015,-2.73773
380.5,33.8061,0.304484,-2.73722
381,33.8556,0.30873,-2.73766
381.5,33.9037,0.311369,-2.7405
382,33.952,0.316396,-2.74191
382.5,34.0005,0.319203,-2.74331
383,34.0487,0.324385,-2.74455
383.5,34.0981,0.319447,-2.7459
384,34.1454,0.322894,-2.7472
384.5,34.1941,0.320412,-2.74854
385,34.243,0.324766,-2.74974
385.5,34.2909,0.324039,-2.75112
386,34.339,0.327065,-2.75252
386.5,34.3873,0.327473,-2.754
387,34.4352,0.325571,-2.75632
387.5,34.4816,0.329214,-2.75801
388,34.533,0.329227,-2.75951
388.5,34.5818,0.326569,-2.76083
389,34.6282,0.332357,-2.7622
389.5,34.6775,0.331677,-2.76353
390,34.7269,0.33796,-2.76487
390.5,34.7754,0.337011,-2.76655
391,34.8243,0.335978,-2.76902
391.5,34.8718,0.349318,-2.77033
392,34.9203,0.338684,-2.77194
392.5,34.969,0.338135,-2.77334
393,35.0174,0.340126,-2.7762
393.5,35.0656,0.333886,-2.77653
394,35.1143,0.340995,-2.78005
394.5,35.1629,0.340254,-2.78241
395,35.212,0.332505,-2.78234
395.5,35.2605,0.336142,-2.7839
396,35.3087,0.331775,-2.78658
396.5,35.3575,0.330362,-2.7889
397,35.4059,0.333827,-2.79186
397.5,35.4535,0.330214,-2.79432
398,35.5033,0.32965,-2.79577
398.5,35.5519,0.327234,-2.7973
399,35.6004,0.332558,-2.79978
399.5,35.6488,0.325511,-2.80159
400,35.698,0.332369,-2.80474
400.5,35.7456,0.333595,-2.80508
401,35.7947,0.33114,-2.80958
401.5,35.8428,0.328943,-2.81185
402,35.8909,0.317203,-2.81525
402.5,35.9409,0.320025,-2.81816
403,35.9883,0.32066,-2.81985
403.5,36.0376,0.318124,-2.82288
404,36.0854,0.320859,-2.82572
404.5,36.1355,0.316196,-2.82738
405,36.1833,0.314981,-2.82983
405.5,36.2315,0.310827,-2.83254
406,36.2803,0.3087,-2.83585
406.5,36.3286,0.307801,-2.83775
407,36.3773,0.311134,-2.84133
407.5,36.4249,0.310793,-2.84455
408,36.4739,0.302959,-2.84775
408.5,36.5208,0.310056,-2.85082
409,36.5714,0.305184,-2.8541
409.5,36.6199,0.29638,-2.85712
410,36.6684,0.304566,-2.86138
410.5,36.7168,0.298238,-2.86392
411,36.7655,0.291718,-2.86712
411.5,36.8131,0.295909,-2.8701
412,36.8619,0.293944,-2.87405
412.5,36.9112,0.292765,-2.8777
413,36.96,0.283913,-2.88088
413.5,37.0093,0.285189,-2.88262
414,37.0572,0.282385,-2.8857
414.5,37.1058,0.282602,-2.89008
415,37.1543,0.281285,-2.89412
415.5,37.2027,0.277784,-2.9005
416,37.2517,0.279589,-2.9036
416.5,37.3006,0.274266,-2.90576
417,37.3495,0.280127,-2.9088
417.5,37.3978,0.276618,-2.9124
418,37.447,0.282315,-2.91565
418.5,37.4958,0.276816,-2.91961
419,37.5447,0.278289,-2.92424
419.5,37.5924,0.269393,-2.92942
420,37.6414,0.275503,-2.93364
420.5,37.6902,0.270242,-2.93721
421,37.7392,0.273394,-2.9412
421.5,37.7879,0.269468,-2.94611
422,37.8367,0.26759,-2.94928
422.5,37.8848,0.266146,-2.9533
423,37.9338,0.273847,-2.96011
423.5,37.9825,0.272843,-2.9642
424,38.0321,0.271527,-2.96961
424.5,38.0797,0.279665,-2.97424
425,38.1286,0.279166,-2.98007
425.5,38.1782,0.277239,-2.98395
426,38.226,0.281538,-2.98858
426.5,38.2748,0.284819,-2.99341
427,38.3233,0.282997,-2.99816
427.5,38.3723,0.283976,-3.00419
428,38.4198,0.289668,-3.00986
428.5,38.4699,0.293354,-3.01511
429,38.5181,0.299514,-3.01924
429.5,38.5667,0.301711,-3.02532
430,38.6165,0.296662,-3.03121
430.5,38.665,0.295425,-3.03515
431,38.7134,0.303328,-3.0402
431.5,38.7625,0.304134,-3.04582
432,38.8113,0.314055,-3.05142
432.5,38.8602,0.31866,-3.05864
433,38.9092,0.317504,-3.06296
433.5,38.9578,0.320744,-3.06902
434,39.0065,0.331874,-3.07458
434.5,39.0549,0.33034,-3.08034
435,39.1049,0.344678,-3.08673
435.5,39.1516,0.339707,-3.09065
436,39.2022,0.350245,-3.09684
436.5,39.2506,0.356055,-3.10416
437,39.2993,0.353243,-3.1099
437.5,39.3489,0.362996,-3.11738
438,39.3958,0.36861,-3.12197
438.5,39.4463,0.379062,-3.12813
439,39.4951,0.378478,-3.13451
439.5,39.545,0.379932,-3.14032
440,39.5931,0.395264,-3.14702
440.5,39.6422,0.397863,-3.15346
441,39.6914,0.405772,-3.15923
441.5,39.7404,0.407376,-3.16545
442,39.7874,0.416897,-3.17115
442.5,39.8386,0.417879,-3.1777
443,39.8873,0.426421,-3.18332
443.5,39.9356,0.42663,-3.18914
444,39.9857,0.438941,-3.19596
444.5,40.0347,0.447524,-3.20218
445,40.0835,0.452794,-3.20818
445.5,40.1326,0.453608,-3.2154
446,40.1814,0.455922,-3.22126
446.5,40.2297,0.460025,-3.22719
447,40.2784,0.45716,-3.23416
447.5,40.326,0.458661,-3.23805
448,40.377,0.463269,-3.24602
448.5,40.4263,0.471192,-3.2525
449,40.4744,0.472307,-3.257
449.5,40.5249,0.473618,-3.26314
450,40.5722,0.474436,-3.26827
450.5,40.6213,0.486758,-3.27434
451,40.671,0.495188,-3.27857
451.5,40.7185,0.497278,-3.28503
452,40.7694,0.498004,-3.29213
452.5,40.8191,0.49555,-3.29853
453,40.8678,0.492156,-3.30464
453.5,40.9175,0.499103,-3.31074
454,40.9657,0.499823,-3.31583
454.5,41.0143,0.501012,-3.32206
455,41.064,0.497498,-3.32812
455.5,41.113,0.495836,-3.33363
456,41.1618,0.497946,-3.33944
456.5,41.2112,0.490263,-3.34589
457,41.26,0.494831,-3.35181
457.5,41.3089,0.499625,-3.35789
458,41.358,0.498557,-3.36339
458.5,41.4069,0.495913,-3.36941
459,41.4555,0.489878,-3.37607
459.5,41.5048,0.489162,-3.38018
460,41.5538,0.49333,-3.38571
460.5,41.6029,0.495318,-3.39081
461,41.6518,0.497982,-3.39679
461.5,41.6994,0.495814,-3.40254
462,41.748,0.497087,-3.40708
462.5,41.7982,0.49964,-3.41306
463,41.8477,0.499905,-3.41825
463.5,41.8962,0.492205,-3.42238
464,41.9441,0.484892,-3.42793
464.5,41.9944,0.486414,-3.43271
465,42.0438,0.487896,-3.43859
465.5,42.0933,0.487237,-3.44317
466,42.1422,0.487543,-3.45105
466.5,42.1906,0.496679,-3.45546
467,42.2369,0.487257,-3.45887
467.5,42.2896,0.493868,-3.46398
468,42.3387,0.490028,-3.46993
468.5,42.3867,0.495526,-3.47473
469,42.436,0.48567,-3.47856
469.5,42.4857,0.48142,-3.48478
470,42.5349,0.483496,-3.48801
470.5,42.5833,0.480379,-3.49287
471,42.6323,0.470581,-3.49759
471.5,42.6812,0.466346,-3.50227
472,42.7304,0.461956,-3.50659
472.5,42.7789,0.460313,-3.51258
473,42.8294,0.459511,-3.51823
473.5,42.8778,0.461099,-3.52311
474,42.9269,0.458298,-3.52697
474.5,42.9764,0.448888,-3.53247
475,43.0252,0.444693,-3.53676
475.5,43.0741,0.434866,-3.54052
476,43.1241,0.431875,-3.54607
476.5,43.1722,0.431782,-3.54953
477,43.2227,0.422483,-3.55391
477.5,43.2707,0.4152,-3.55792
478,43.3207,0.416795,-3.56206
478.5,43.3687,0.408856,-3.56636
479,43.4183,0.400385,-3.56948
479.5,43.4674,0.386572,-3.57277
480,43.5172,0.387692,-3.57752
480.5,43.5653,0.377224,-3.58134
481,43.6163,0.371711,-3.58503
481.5,43.6639,0.368487,-3.5884
482,43.7132,0.362234,-3.59216
482.5,43.763,0.356422,-3.59585
483,43.8123,0.351638,-3.59896
483.5,43.8612,0.339051,-3.60169
484,43.9099,0.329859,-3.60704
484.5,43.9594,0.324915,-3.61037
485,44.0074,0.311344,-3.61369
485.5,44.0578,0.305233,-3.61657
486,44.1076,0.306967,-3.61939
486.5,44.1571,0.299774,-3.62313
487,44.2052,0.293072,-3.6247
487.5,44.2547,0.287316,-3.62786
488,44.3047,0.276396,-3.62958
488.5,44.3536,0.270899,-3.63333
489,44.403,0.26744,-3.6358
489.5,44.4523,0.262614,-3.63893
490,44.5014,0.256943,-3.64204
490.5,44.5511,0.249482,-3.64526
491,44.5996,0.241915,-3.64711
491.5,44.6495,0.243569,-3.64909
492,44.6991,0.233325,-3.65193
492.5,44.7478,0.232379,-3.65321
493,44.7971,0.223234,-3.6559
493.5,44.8467,0.219792,-3.65693
494,44.8955,0.216457,-3.65757
494.5,44.9445,0.209793,-3.65931
495,44.9937,0.205466,-3.66224
495.5,45.0435,0.197718,-3.66682
496,45.0936,0.200284,-3.66814
496.5,45.1435,0.192783,-3.67114
497,45.1918,0.194014,-3.67352
497.5,45.2417,0.178093,-3.67618
498,45.2912,0.182894,-3.6766
498.5,45.3402,0.176728,-3.67787
499,45.3895,0.166748,-3.6792
499.5,45.4385,0.158243,-3.68045
500,45.4879,0.162205,-3.682
500.5,45.5348,0.150839,-3.68494
501,45.5867,0.15499,-3.68632
501.5,45.6369,0.1495,-3.68707
502,45.6852,0.148063,-3.68826
502.5,45.734,0.140209,-3.69029
503,45.7843,0.136313,-3.69167
503.5,45.8324,0.134181,-3.6931
504,45.8826,0.128199,-3.69436
504.5,45.9323,0.127719,-3.69443
505,45.982,0.12818,-3.69572
505.5,46.0304,0.114793,-3.69709
506,46.0808,0.114511,-3.69797
506.5,46.1295,0.115016,-3.69837
507,46.179,0.115114,-3.69967
507.5,46.2261,0.104159,-3.7014
508,46.2779,0.101586,-3.70315
508.5,46.3273,0.0886371,-3.70389
509,46.3764,0.0908954,-3.7033
509.5,46.4262,0.0846698,-3.70467
510,46.4756,0.090976,-3.70564
510.5,46.523,0.0881572,-3.70594
511,46.574,0.0802696,-3.70725
511.5,46.6234,0.0906947,-3.70859
512,46.6735,0.0776047,-3.70823
512.5,46.7224,0.0853836,-3.70878
513,46.7707,0.0761563,-3.71022
513.5,46.8213,0.0754771,-3.71133
514,46.8704,0.0758405,-3.71222
514.5,46.9209,0.072841,-3.71362
515,46.9687,0.0718878,-3.71362
515.5,47.0191,0.0647034,-3.71362
516,47.0683,0.0666977,-3.71492
516.5,47.1179,0.0672935,-3.7161
517,47.1676,0.0668331,-3.71628
517.5,47.2175,0.064761,-3.71791
518,47.268,0.0676263,-3.71791
518.5,47.3162,0.0585436,-3.71798
519,47.3651,0.0593498,-3.71922
519.5,47.4156,0.0477578,-3.71922
520,47.4654,0.0528247,-3.7199
520.5,47.5141,0.0509924,-3.72054
521,47.5634,0.0465042,-3.72053
521.5,47.6135,0.0463545,-3.72045
522,47.6635,0.0464486,-3.72054
522.5,47.7123,0.0461747,-3.72093
523,47.762,0.0480215,-3.72238
523.5,47.8125,0.0440068,-3.72252
524,47.8606,0.041886,-3.72348
524.5,47.9113,0.0410911,-3.7235
525,47.9606,0.0392343,-3.7235
525.5,48.0102,0.0382019,-3.7235
526,48.0594,0.0406381,-3.72356
526.5,48.1102,0.0447309,-3.72482
527,48.1591,0.0415319,-3.72482
527.5,48.2084,0.0368004,-3.72574
528,48.2589,0.045971,-3.72614
528.5,48.309,0.0374009,-3.72614
529,48.3583,0.037137,-3.72614
529.5,48.4076,0.035266,-3.72615
530,48.4576,0.0345972,-3.72746
530.5,48.507,0.039014,-3.72641
531,48.5567,0.0333742,-3.72647
531.5,48.606,0.0385418,-3.72647
532,48.6557,0.0424316,-3.7265
532.5,48.7051,0.0389634,-3.72779
533,48.7544,0.0351167,-3.72778
533.5,48.8041,0.0384206,-3.72778
534,48.8546,0.0380189,-3.72778
534.5,48.9033,0.0437407,-3.72913
535,48.9534,0.0427997,-3.7291
535.5,49.0029,0.0368799,-3.7291
536,49.0525,0.041609,-3.7291
536.5,49.1022,0.0366557,-3.73049
537,49.1513,0.0358183,-3.73042
537.5,49.2013,0.0367658,-3.73042
538,49.2513,0.0319309,-3.73039
538.5,49.3005,0.033235,-3.73075
539,49.35,0.0330999,-3.73075
539.5,49.4001,0.0338405,-3.73074
540,49.4496,0.0348225,-3.72944
540.5,49.4993,0.0337002,-3.72943
541,49.5478,0.0211347,-3.73003
541.5,49.598,0.0286956,-3.73074
542,49.6474,0.02888,-3.73074
542.5,49.6971,0.0264851,-3.73074
543,49.7472,0.034364,-3.73204
543.5,49.7962,0.0209628,-3.73206
544,49.8463,0.0230679,-3.73206
544.5,49.8949,0.0236908,-3.73206
545,49.9454,0.0160085,-3.73206
545.5,49.9948,0.0235521,-3.73206
546,50.0431,0.0172466,-3.73193
546.5,50.0944,0.0197659,-3.73074
547,50.1436,0.0210799,-3.73074
547.5,50.193,0.0149679,-3.7314
548,50.2429,0.0100432,-3.73273
548.5,50.2924,0.0140197,-3.73272
549,50.3425,0.0101411,-3.73274
549.5,50.3919,0.00901273,-3.73338
550,50.4419,0.0105536,-3.73338
550.5,50.4916,0.00813921,-3.73338
551,50.5413,0.00348164,-3.73338
551.5,50.5907,0.00484413,-3.73337
552,50.6407,-0.00221828,-3.73471
552.5,50.6901,0.00374343,-3.7347
553,50.7396,-0.00285012,-3.73459
553.5,50.7898,-0.00985449,-3.73601
554,50.8393,-0.00824913,-3.73601
554.5,50.889,-0.00959913,-3.7361
555,50.9381,-0.00595272,-3.73469
555.5,50.9887,-0.0141221,-3.73469
556,51.0362,-0.0112978,-3.73469
556.5,51.0875,-0.017351,-3.73469
557,51.1374,-0.0118467,-3.73469
557.5,51.187,-0.0103217,-3.73469
558,51.2368,-0.0116126,-3.73469
558.5,51.2871,-0.00539764,-3.73469
559,51.3357,-0.013079,-3.73469
559.5,51.3862,-0.016709,-3.73543
560,51.4359,-0.0245828,-3.7373
560.5,51.485,-0.0181601,-3.73733
561,51.5349,-0.023286,-3.73732
561.5,51.5848,-0.0185583,-3.73602
562,51.6339,-0.025933,-3.73601
562.5,51.6839,-0.0251784,-3.73613
563,51.7339,-0.026455,-3.73667
563.5,51.7838,-0.0239187,-3.73666
564,51.8328,-0.0256629,-3.73799
564.5,51.8826,-0.0183663,-3.73749
565,51.9323,-0.0217632,-3.73668
565.5,51.9821,-0.023406,-3.73668
566,52.0316,-0.0217192,-3.73668
566.5,52.0816,-0.0210036,-3.73668
567,52.1314,-0.0182162,-3.73668
567.5,52.1814,-0.0151051,-3.73733
568,52.2302,-0.0193678,-3.73733
568.5,52.2795,-0.0174376,-3.73733
569,52.3298,-0.0142319,-3.73733
569.5,52.3803,-0.021681,-3.73759
570,52.4292,-0.0231989,-3.73865
570.5,52.4791,-0.0217961,-3.73865
571,52.5297,-0.0258595,-3.73845
571.5,52.5767,-0.0243444,-3.738
572,52.628,-0.0161122,-3.738
572.5,52.6784,-0.0243342,-3.73731
573,52.7284,-0.0254333,-3.73734
573.5,52.7777,-0.01883,-3.73734
574,52.8277,-0.0227752,-3.73791
574.5,52.8778,-0.028295,-3.73865
575,52.927,-0.0255712,-3.73865
575.5,52.9762,-0.031147,-3.73865
576,53.0273,-0.0244204,-3.73835
576.5,53.0771,-0.0242384,-3.73733
577,53.1266,-0.0357137,-3.73632
577.5,53.1772,-0.029554,-3.73635
578,53.2264,-0.0305618,-3.73632
578.5,53.2772,-0.027654,-3.73899
579,53.3264,-0.0254629,-3.73898
579.5,53.3764,-0.0373743,-3.73756
580,53.4264,-0.0343891,-3.73766
580.5,53.4758,-0.0316287,-3.73865
581,53.5243,-0.036341,-3.74034
581.5,53.5751,-0.0355943,-3.74029
582,53.6261,-0.0436597,-3.73899
582.5,53.6755,-0.0338757,-3.73898
583,53.7247,-0.0488128,-3.73898
583.5,53.7751,-0.0410203,-3.73898
584,53.8254,-0.0374308,-3.73898
584.5,53.8752,-0.0430994,-3.7403
585,53.9243,-0.0416925,-3.7403
585.5,53.9739,-0.0431188,-3.7403
586,54.0246,-0.042855,-3.74166
586.5,54.0746,-0.0462543,-3.74078
587,54.1252,-0.0408733,-3.74162
587.5,54.1759,-0.0564387,-3.74058
588,54.2241,-0.0526533,-3.7403
588.5,54.2747,-0.0570519,-3.7403
589,54.3241,-0.0479526,-3.7403
589.5,54.3749,-0.0425773,-3.7403
590,54.4247,-0.0503545,-3.7403
590.5,54.4745,-0.0540211,-3.7403
591,54.5239,-0.0505908,-3.7403
591.5,54.574,-0.0516456,-3.7403
592,54.6231,-0.0421019,-3.73893
592.5,54.6735,-0.0505622,-3.73898
593,54.7234,-0.0508344,-3.74033
593.5,54.7735,-0.0524841,-3.7403
594,54.8239,-0.0482135,-3.7403
594.5,54.8734,-0.0536898,-3.73929
595,54.9242,-0.0476762,-3.73995
595.5,54.9732,-0.0440546,-3.73996
596,55.0232,-0.0504039,-3.73996
596.5,55.0741,-0.0593154,-3.73996
597,55.1231,-0.0572772,-3.73996
597.5,55.1728,-0.0516563,-3.73995
598,55.2227,-0.0546531,-3.74095
598.5,55.2732,-0.0497924,-3.74095
599,55.3223,-0.0522351,-3.74095
599.5,55.3733,-0.0547767,-3.74123
600,55.4223,-0.057564,-3.74198
600.5,55.4714,-0.0595647,-3.7426
601,55.5222,-0.0560077,-3.74236
601.5,55.5719,-0.0591694,-3.74146
602,55.6219,-0.0609147,-3.74075
602.5,55.6715,-0.063604,-3.74023
603,55.7222,-0.06162,-3.74162
603.5,55.7712,-0.0632916,-3.74025
604,55.8217,-0.0694725,-3.74029
604.5,55.872,-0.0687398,-3.74089
605,55.9218,-0.0745241,-3.74227
605.5,55.9714,-0.0686474,-3.74098
606,56.0216,-0.0749392,-3.74161
606.5,56.0714,-0.0761607,-3.74024
607,56.121,-0.0734824,-3.7403
607.5,56.1709,-0.0745164,-3.74029
608,56.221,-0.0776467,-3.74162
608.5,56.2702,-0.0826859,-3.74161
609,56.3213,-0.0784101,-3.74152
609.5,56.3707,-0.0797681,-3.74293
610,56.4211,-0.0800276,-3.74293
610.5,56.4711,-0.086699,-3.74293
611,56.5214,-0.0867775,-3.74194
611.5,56.5711,-0.0899353,-3.74159
612,56.6211,-0.0928201,-3.74167
612.5,56.6711,-0.0979682,-3.74162
613,56.7208,-0.0936212,-3.74162
613.5,56.7707,-0.0953756,-3.74162
614,56.8214,-0.096202,-3.74138
614.5,56.8707,-0.0877045,-3.74129
615,56.9208,-0.0994337,-3.7413
615.5,56.9707,-0.100689,-3.74259
616,57.0207,-0.0964596,-3.74261
616.5,57.0704,-0.103944,-3.74297
617,57.1206,-0.104213,-3.74294
617.5,57.1707,-0.105989,-3.74279
618,57.2205,-0.103249,-3.74235
618.5,57.2701,-0.10587,-3.74359
619,57.3205,-0.11057,-3.74215
619.5,57.3701,-0.109398,-3.74228
620,57.4195,-0.120281,-3.7422
620.5,57.469,-0.11895,-3.74287
621,57.5194,-0.113414,-3.74293
621.5,57.5704,-0.116787,-3.74293
622,57.6188,-0.111353,-3.74293
622.5,57.6683,-0.113358,-3.74293
623,57.7188,-0.109015,-3.74293
623.5,57.7694,-0.119369,-3.74284
624,57.8181,-0.122839,-3.74161
624.5,57.869,-0.119676,-3.74161
625,57.9189,-0.127218,-3.74233
625.5,57.9686,-0.122239,-3.74289
626,58.0192,-0.121858,-3.74425
626.5,58.0682,-0.124994,-3.74424
627,58.1186,-0.124837,-3.74294
627.5,58.1687,-0.127409,-3.74293
628,58.2181,-0.129581,-3.74293
628.5,58.2684,-0.133968,-3.74293
629,58.3182,-0.127891,-3.74293
629.5,58.3687,-0.133358,-3.74292
630,58.419,-0.131974,-3.74194
630.5,58.4687,-0.131994,-3.74194
631,58.5183,-0.13063,-3.74194
631.5,58.5692,-0.140395,-3.7429
632,58.6187,-0.14207,-3.7429
632.5,58.6689,-0.138275,-3.74326
633,58.7191,-0.141619,-3.74398
633.5,58.7701,-0.142959,-3.74327
634,58.8196,-0.140581,-3.74327
634.5,58.8694,-0.137753,-3.74327
635,58.9201,-0.143202,-3.74327
635.5,58.9705,-0.144882,-3.74327
636,59.0208,-0.14791,-3.74327
636.5,59.0701,-0.147967,-3.74327
637,59.1209,-0.15319,-3.74327
637.5,59.171,-0.147232,-3.74315
638,59.2203,-0.148793,-3.74195
638.5,59.2716,-0.147514,-3.74331
639,59.3215,-0.142041,-3.74328
639.5,59.3718,-0.154652,-3.74457
640,59.4219,-0.150566,-3.74459
640.5,59.4719,-0.149372,-3.744
641,59.5223,-0.155328,-3.74456
641.5,59.5729,-0.148991,-3.74466
642,59.6225,-0.15147,-3.74326
642.5,59.6729,-0.156267,-3.74276
643,59.723,-0.151987,-3.74365
643.5,59.7734,-0.16093,-3.74359
644,59.8247,-0.16264,-3.74359
644.5,59.8745,-0.15756,-3.74359
645,59.9255,-0.164132,-3.74359
645.5,59.976,-0.164478,-3.74359
646,60.0259,-0.163172,-3.74359
646.5,60.0765,-0.166904,-3.74359
647,60.1268,-0.167416,-3.74359
647.5,60.177,-0.164033,-3.74359
648,60.2268,-0.163754,-3.74359
648.5,60.2775,-0.169662,-3.74359
649,60.3277,-0.171521,-3.74359
649.5,60.3792,-0.166516,-3.74326
650,60.4284,-0.163098,-3.74326
650.5,60.4789,-0.167439,-3.74326
651,60.5289,-0.172743,-3.74293
651.5,60.5781,-0.181776,-3.74354
652,60.6294,-0.180454,-3.74425
652.5,60.6794,-0.185556,-3.74425
653,60.7288,-0.182881,-3.74425
653.5,60.7771,-0.18488,-3.74425
654,60.8296,-0.185984,-3.74569
654.5,60.8808,-0.179858,-3.74556
655,60.9305,-0.185954,-3.7455
655.5,60.9802,-0.185431,-3.74557
656,61.0309,-0.189001,-3.74557
656.5,61.0807,-0.187704,-3.74557
657,61.1311,-0.182713,-3.74557
657.5,61.1804,-0.184156,-3.74557
658,61.2313,-0.188251,-3.74579
658.5,61.2824,-0.185877,-3.74689
659,61.332,-0.193821,-3.74552
659.5,61.3813,-0.193306,-3.74558
660,61.432,-0.198643,-3.74424
660.5,61.4823,-0.192943,-3.74424
661,61.5323,-0.196279,-3.74556
661.5,61.5832,-0.198065,-3.74556
662,61.6325,-0.200554,-3.74544
662.5,61.6827,-0.201133,-3.74524
663,61.7337,-0.203376,-3.74524
663.5,61.783,-0.205124,-3.74524
664,61.835,-0.205335,-3.74524
664.5,61.8842,-0.209329,-3.74525
665,61.9351,-0.206481,-3.74652
665.5,61.9842,-0.211708,-3.74523
666,62.0355,-0.213345,-3.74523
666.5,62.0851,-0.213298,-3.74523
667,62.1354,-0.215198,-3.74523
667.5,62.1852,-0.22156,-3.74523
668,62.2364,-0.21561,-3.74655
668.5,62.2863,-0.218348,-3.74655
669,62.3363,-0.214387,-3.74426
669.5,62.3867,-0.219821,-3.74425
670,62.4375,-0.223528,-3.74425
670.5,62.4873,-0.219984,-3.74441
671,62.5371,-0.227116,-3.74557
671.5,62.588,-0.228928,-3.74557
672,62.6373,-0.223269,-3.74688
672.5,62.6879,-0.22107,-3.74688
673,62.7382,-0.215749,-3.74555
673.5,62.7881,-0.217309,-3.74557
674,62.8386,-0.22174,-3.74691
674.5,62.8883,-0.223051,-3.74689
675,62.9387,-0.225726,-3.74689
675.5,62.9884,-0.222127,-3.74689
676,63.0388,-0.228783,-3.74552
676.5,63.0889,-0.221462,-3.74557
677,63.1388,-0.202587,-3.74678
677.5,63.1899,-0.157959,-3.74689
678,63.2403,-0.161635,-3.74689
678.5,63.29,-0.16096,-3.74715
679,63.3386,-0.160675,-3.74821
679.5,63.3903,-0.162491,-3.74821
680,63.4407,-0.163447,-3.74821
680.5,63.4903,-0.166062,-3.74714
681,63.541,-0.163291,-3.74715
681.5,63.5902,-0.167758,-3.74787
682,63.6412,-0.162272,-3.74787
682.5,63.6917,-0.160077,-3.74787
683,63.7417,-0.160128,-3.74786
683.5,63.7913,-0.169264,-3.74753
684,63.8421,-0.160211,-3.74821
684.5,63.8925,-0.164722,-3.74821
685,63.9425,-0.168358,-3.74951
685.5,63.9924,-0.163732,-3.74952
686,64.0431,-0.165861,-3.74952
686.5,64.0937,-0.170998,-3.74952
687,64.1436,-0.174424,-3.75017
687.5,64.1936,-0.169368,-3.74905
688,64.245,-0.169468,-3.74919
688.5,64.2945,-0.171304,-3.74919
689,64.3458,-0.164811,-3.74834
689.5,64.3964,-0.165034,-3.74823
690,64.4454,-0.16873,-3.74787
690.5,64.4962,-0.1702,-3.74786
691,64.5468,-0.168045,-3.7482
691.5,64.5971,-0.173078,-3.7482
692,64.6476,-0.167275,-3.7482
692.5,64.6977,-0.164737,-3.7482
693,64.7477,-0.16703,-3.7482
693.5,64.7989,-0.166716,-3.7482
694,64.8486,-0.174909,-3.74872
694.5,64.8995,-0.176852,-3.74887
695,64.9494,-0.180763,-3.7482
695.5,64.9993,-0.181094,-3.7482
696,65.0478,-0.179682,-3.7482
696.5,65.0986,-0.176933,-3.7482
697,65.1507,-0.179281,-3.7482
697.5,65.201,-0.186044,-3.7482
698,65.2513,-0.187392,-3.7482
698.5,65.3019,-0.187802,-3.7482
699,65.3533,-0.19019,-3.7482
699.5,65.4038,-0.190589,-3.74819
700,65.4539,-0.191763,-3.74952
700.5,65.5014,-0.188437,-3.74952
701,65.555,-0.189142,-3.74952
701.5,65.6053,-0.189691,-3.74958
702,65.6536,-0.191282,-3.74821
702.5,65.705,-0.197919,-3.74821
703,65.7561,-0.187944,-3.74821
703.5,65.8066,-0.194116,-3.74819
704,65.8562,-0.194164,-3.74951
704.5,65.9075,-0.191465,-3.74763
705,65.9584,-0.197979,-3.74689
705.5,66.0087,-0.201087,-3.74689
706,66.0602,-0.199368,-3.74829
706.5,66.1101,-0.196695,-3.74952
707,66.1604,-0.20205,-3.74951
707.5,66.211,-0.207398,-3.7504
708,66.2616,-0.202814,-3.75018
708.5,66.3127,-0.209522,-3.75018
709,66.3627,-0.20693,-3.74898
709.5,66.4137,-0.207184,-3.74888
710,66.4636,-0.209255,-3.7498
710.5,66.5141,-0.212599,-3.74952
711,66.5639,-0.206595,-3.74952
711.5,66.6149,-0.20843,-3.74952
712,66.6651,-0.217932,-3.74985
712.5,66.7165,-0.207827,-3.75089
713,66.7661,-0.215929,-3.75084
713.5,66.8166,-0.219387,-3.75084
714,66.8675,-0.21648,-3.75084
714.5,66.9177,-0.216546,-3.75084
715,66.9677,-0.214573,-3.74953
715.5,67.0189,-0.216926,-3.74952
716,67.0692,-0.219142,-3.74952
716.5,67.1201,-0.22388,-3.74952
717,67.1699,-0.223188,-3.74952
717.5,67.2204,-0.218399,-3.7481
718,67.2688,-0.224008,-3.74951
718.5,67.3214,-0.226611,-3.74951
719,67.3711,-0.228987,-3.75093
719.5,67.4201,-0.227396,-3.75081
720,67.473,-0.229518,-3.74951
720.5,67.523,-0.227604,-3.74951
721,67.5738,-0.22832,-3.74951
721.5,67.6232,-0.229436,-3.74952
722,67.6741,-0.231129,-3.7482
722.5,67.724,-0.229697,-3.7482
723,67.7748,-0.220154,-3.7482
723.5,67.8251,-0.222983,-3.75019
724,67.8759,-0.228953,-3.7505
724.5,67.9257,-0.23154,-3.7505
725,67.9753,-0.23573,-3.75116
725.5,68.0266,-0.229158,-3.75149
726,68.0755,-0.235822,-3.75182
726.5,68.1262,-0.227938,-3.75314
727,68.1775,-0.236826,-3.75314
727.5,68.2274,-0.230512,-3.75314
728,68.2782,-0.234946,-3.75314
728.5,68.3288,-0.234352,-3.75247
729,68.3788,-0.233304,-3.75215
729.5,68.4284,-0.238551,-3.75215
730,68.4791,-0.23844,-3.75085
730.5,68.5284,-0.240874,-3.75216
731,68.5781,-0.238968,-3.75205
731.5,68.6296,-0.234197,-3.75084
732,68.6806,-0.238591,-3.75083
732.5,68.7313,-0.242044,-3.7518
733,68.7795,-0.23456,-3.75183
733.5,68.831,-0.222377,-3.75183
734,68.8822,-0.235742,-3.75183
734.5,68.9317,-0.234238,-3.75183
735,68.9825,-0.238048,-3.75116
735.5,69.0334,-0.23697,-3.75117
736,69.0826,-0.23026,-3.75117
736.5,69.1331,-0.245885,-3.75117
737,69.1836,-0.241052,-3.75117
737.5,69.2341,-0.231,-3.75251
738,69.2847,-0.234431,-3.75249
738.5,69.3356,-0.234921,-3.75149
739,69.3838,-0.231723,-3.7515
739.5,69.4347,-0.235019,-3.75117
740,69.4849,-0.231882,-3.75116