File: 01_Data/Helmet_Tetrahedron/STA/N2/10K_min/Helmet_Tetrahedron_STA_N2_10KData_240226_R1.csv
Temp./C,Time/min,DSC/(mW/mg),Mass loss/mg
60.0,0.0,0.80025,-0.00735664
60.5,0.0601389,0.811932,-0.00695907
61,0.115364,0.815816,-0.00616157
61.5,0.17265,0.819393,-0.00638933
62,0.227614,0.832745,-0.00654174
62.5,0.28289,0.845839,-0.00662037
63,0.337914,0.850903,-0.00657193
63.5,0.392854,0.857002,-0.0053496
64,0.448027,0.857511,-0.00677522
64.5,0.502971,0.86238,-0.00738514
65,0.558232,0.875815,-0.0078877
65.5,0.612559,0.873784,-0.00644351
66,0.663699,0.872424,-0.00713313
66.5,0.719458,0.883361,-0.00667462
67,0.773298,0.887818,-0.00656946
67.5,0.82625,0.890689,-0.00779028
68,0.87936,0.890422,-0.00638704
68.5,0.933808,0.888137,-0.00785334
69,0.985344,0.893898,-0.00738755
69.5,1.03767,0.898553,-0.00771489
70,1.09148,0.903422,-0.00874525
70.5,1.14521,0.900026,-0.00839642
71,1.19778,0.899015,-0.00779963
71.5,1.25058,0.906468,-0.00643617
72,1.30008,0.910592,-0.00802548
72.5,1.35516,0.906351,-0.00647152
73,1.40755,0.912575,-0.00779245
73.5,1.45999,0.919156,-0.00785105
74,1.51265,0.907379,-0.00909847
74.5,1.56658,0.919476,-0.0077866
75,1.61747,0.919651,-0.00776393
75.5,1.66636,0.916627,-0.00787664
76,1.72239,0.923368,-0.00779986
76.5,1.77203,0.930127,-0.00780823
77,1.82563,0.928075,-0.00758733
77.5,1.87676,0.934348,-0.00779004
78,1.92761,0.938754,-0.00781792
78.5,1.97922,0.936343,-0.00778205
79,2.03068,0.943264,-0.00779065
79.5,2.08249,0.94681,-0.00865906
80,2.13379,0.948685,-0.0087741
80.5,2.18432,0.950807,-0.0078095
81,2.23493,0.963679,-0.00778986
81.5,2.28737,0.958182,-0.00837441
82,2.3394,0.957367,-0.00779209
82.5,2.39096,0.956714,-0.00777075
83,2.44051,0.953843,-0.00919361
83.5,2.49247,0.957725,-0.00898363
84,2.54385,0.96405,-0.00911003
84.5,2.59285,0.970564,-0.00910368
85,2.64455,0.967438,-0.0100696
85.5,2.69493,0.96604,-0.0100847
86,2.74566,0.971509,-0.00898532
86.5,2.79564,0.976138,-0.00911383
87,2.84654,0.975718,-0.010408
87.5,2.89617,0.985243,-0.00909711
88,2.9471,0.980174,-0.00910001
88.5,2.99685,0.982867,-0.00909942
89,3.04776,0.990027,-0.00836497
89.5,3.09809,0.990335,-0.00905849
90,3.14735,0.985273,-0.00802527
90.5,3.19711,0.994837,-0.00775858
91,3.24713,0.998071,-0.00889143
91.5,3.29688,1.00107,-0.00911027
92,3.34707,1.00843,-0.00911
92.5,3.39679,1.00546,-0.00911
93,3.44704,1.00752,-0.00910999
93.5,3.49638,1.00922,-0.00911476
94,3.5454,1.01122,-0.0104053
94.5,3.59465,1.02101,-0.0104287
95,3.64445,1.01959,-0.01042
95.5,3.69333,1.02225,-0.0104189
96,3.74346,1.01954,-0.00910839
96.5,3.79202,1.02537,-0.00909737
97,3.84196,1.02186,-0.0104269
97.5,3.89212,1.02505,-0.0104604
98,3.93997,1.02604,-0.0091062
98.5,3.99022,1.03348,-0.0104421
99,4.03951,1.03424,-0.01043
99.5,4.08829,1.04581,-0.0104299
100,4.13782,1.05268,-0.0115777
100.5,4.18675,1.04519,-0.0110911
101,4.23646,1.0477,-0.0103685
101.5,4.28445,1.05097,-0.0104308
102,4.33376,1.05292,-0.0113797
102.5,4.38282,1.05271,-0.01174
103,4.43177,1.05428,-0.0108999
103.5,4.48073,1.056,-0.0107499
104,4.52979,1.05234,-0.0105851
104.5,4.57797,1.05668,-0.0114991
105,4.62789,1.05561,-0.0112705
105.5,4.6763,1.06882,-0.0110799
106,4.72398,1.0743,-0.01108
106.5,4.7729,1.06376,-0.01108
107,4.82101,1.07056,-0.0110794
107.5,4.87154,1.06882,-0.0104857
108,4.92064,1.07038,-0.0104242
108.5,4.969,1.07409,-0.0117393
109,5.01858,1.07301,-0.01174
109.5,5.06683,1.07806,-0.0117401
110,5.11674,1.07601,-0.011688
110.5,5.16455,1.08672,-0.0124156
111,5.21282,1.08064,-0.012079
111.5,5.26196,1.08278,-0.0121272
112,5.31118,1.08984,-0.0130612
112.5,5.36138,1.08627,-0.0120291
113,5.40814,1.08852,-0.0120701
113.5,5.45755,1.09305,-0.01207
114,5.50644,1.08907,-0.0120677
114.5,5.55357,1.09653,-0.0134202
115,5.60312,1.10006,-0.0130627
115.5,5.65196,1.09188,-0.0119328
116,5.69955,1.08782,-0.0117396
116.5,5.74682,1.09718,-0.0117401
117,5.79838,1.10904,-0.0116756
117.5,5.84618,1.10744,-0.0119363
118,5.89383,1.10948,-0.0114201
118.5,5.94335,1.1087,-0.0114195
119,5.99183,1.11332,-0.0117465
119.5,6.04018,1.10876,-0.0117667
120,6.08894,1.11405,-0.0130645
120.5,6.13775,1.11414,-0.01307
121,6.18361,1.12055,-0.01307
121.5,6.23399,1.11706,-0.0130701
122,6.28214,1.11557,-0.0130453
122.5,6.33068,1.12199,-0.0140328
123,6.37921,1.12344,-0.0130615
123.5,6.42645,1.12893,-0.0126026
124,6.47671,1.1273,-0.0123996
124.5,6.52514,1.12329,-0.0123594
125,6.57219,1.12783,-0.0137247
125.5,6.62123,1.12327,-0.0123544
126,6.67061,1.12533,-0.0129768
126.5,6.71719,1.1263,-0.0137189
127,6.7664,1.1265,-0.01372
127.5,6.81372,1.13015,-0.01372
128,6.86276,1.12447,-0.01372
128.5,6.91125,1.12861,-0.0137169
129,6.95965,1.13498,-0.0150933
129.5,7.00745,1.13618,-0.014144
130,7.05627,1.13434,-0.0137222
130.5,7.10402,1.14706,-0.0124252
131,7.15194,1.14054,-0.0134293
131.5,7.20024,1.14286,-0.0137198
132,7.24857,1.13152,-0.01372
132.5,7.29665,1.13842,-0.0137171
133,7.345,1.13818,-0.0127431
133.5,7.39358,1.12737,-0.0131966
134,7.44188,1.14104,-0.0150317
134.5,7.4906,1.14595,-0.01503
135,7.53815,1.14378,-0.0150211
135.5,7.58592,1.14364,-0.0137305
136,7.63544,1.14649,-0.01372
136.5,7.68279,1.14635,-0.0137201
137,7.7313,1.14271,-0.015042
137.5,7.77918,1.14656,-0.0163191
138,7.82659,1.14588,-0.0163491
138.5,7.87552,1.15073,-0.0154419
139,7.92257,1.15009,-0.0157261
139.5,7.97099,1.16134,-0.0163681
140,8.01916,1.15179,-0.0150339
140.5,8.06681,1.1559,-0.0150386
141,8.11475,1.15774,-0.0163661
141.5,8.16184,1.15465,-0.0163601
142,8.21104,1.15164,-0.01636
142.5,8.25869,1.15146,-0.0164611
143,8.30676,1.15249,-0.0165547
143.5,8.35534,1.15565,-0.01636
144,8.40299,1.15785,-0.01636
144.5,8.45111,1.15396,-0.01636
145,8.49643,1.15243,-0.01636
145.5,8.54673,1.15833,-0.0163602
146,8.59406,1.14926,-0.0166806
146.5,8.64265,1.15198,-0.0166929
147,8.68972,1.15193,-0.0173313
147.5,8.73705,1.15758,-0.0173351
148,8.78595,1.15745,-0.0175434
148.5,8.8352,1.1565,-0.01668
149,8.88213,1.15159,-0.0174403
149.5,8.93011,1.15671,-0.0179838
150,8.97751,1.16103,-0.0170131
150.5,9.02557,1.16276,-0.0183838
151,9.07248,1.15727,-0.018324
151.5,9.12093,1.16506,-0.0179984
152,9.16844,1.16407,-0.018
152.5,9.21634,1.16218,-0.0179992
153,9.26335,1.16158,-0.018737
153.5,9.31115,1.16623,-0.0183303
154,9.3587,1.17181,-0.01833
154.5,9.40745,1.16506,-0.0183301
155,9.45429,1.16482,-0.0183354
155.5,9.50213,1.16137,-0.0180003
156,9.54906,1.16851,-0.0180001
156.5,9.59688,1.15992,-0.0179057
157,9.64486,1.16267,-0.0193203
157.5,9.69232,1.16141,-0.01932
158,9.73812,1.16313,-0.0193084
158.5,9.78839,1.16839,-0.018025
159,9.83507,1.16954,-0.0180098
159.5,9.8838,1.16015,-0.0181031
160,9.93085,1.16631,-0.0193201
160.5,9.97823,1.16301,-0.0193786
161,10.027,1.17084,-0.0193166
161.5,10.0713,1.17285,-0.020008
162,10.1206,1.17203,-0.0193197
162.5,10.1695,1.17629,-0.01932
163,10.2162,1.1761,-0.01932
163.5,10.2639,1.17599,-0.01932
164,10.3119,1.17664,-0.01932
164.5,10.3602,1.17474,-0.0193019
165,10.4069,1.17478,-0.0206441
165.5,10.4552,1.17169,-0.02064
166,10.5024,1.17759,-0.02064
166.5,10.5509,1.17291,-0.0206405
167,10.5979,1.18572,-0.0218178
167.5,10.645,1.17829,-0.0219602
168,10.693,1.18393,-0.02196
168.5,10.7413,1.18417,-0.0219789
169,10.7891,1.18113,-0.0209322
169.5,10.8367,1.17785,-0.0209702
170,10.8843,1.17712,-0.0208684
170.5,10.9311,1.17798,-0.0203105
171,10.9789,1.17863,-0.02031
171.5,11.0261,1.18064,-0.0211
172,11.0741,1.18096,-0.0216311
172.5,11.1207,1.18295,-0.0213073
173,11.1701,1.18046,-0.0213
173.5,11.2167,1.18092,-0.0212999
174,11.2649,1.18389,-0.0215028
174.5,11.3117,1.18832,-0.0216302
175,11.3596,1.19144,-0.02163
175.5,11.4069,1.18729,-0.02163
176,11.4543,1.18449,-0.0215894
176.5,11.5022,1.18444,-0.0222201
177,11.5495,1.18624,-0.0226107
177.5,11.596,1.19297,-0.0232956
178,11.645,1.18033,-0.0232699
178.5,11.6928,1.19494,-0.02327
179,11.7401,1.20038,-0.02327
179.5,11.7885,1.19273,-0.0232697
180,11.8357,1.20134,-0.0238811
180.5,11.8823,1.19774,-0.0245888
181,11.9306,1.18992,-0.02459
181.5,11.9772,1.18908,-0.02459
182,12.0261,1.19085,-0.02459
182.5,12.0729,1.19128,-0.0245961
183,12.1197,1.20279,-0.0255654
183.5,12.1688,1.19663,-0.02558
184,12.2152,1.19682,-0.02558
184.5,12.2635,1.19686,-0.0255801
185,12.311,1.19977,-0.0255684
185.5,12.3586,1.19249,-0.0259096
186,12.4053,1.20336,-0.02591
186.5,12.4534,1.19974,-0.02591
187,12.5007,1.19126,-0.0259114
187.5,12.5477,1.19657,-0.0270077
188,12.5959,1.19413,-0.02723
188.5,12.6435,1.19451,-0.02723
189,12.6908,1.19254,-0.02723
189.5,12.7398,1.19299,-0.02723
190,12.7864,1.19674,-0.02723
190.5,12.8335,1.19003,-0.0272219
191,12.8811,1.19004,-0.0281822
191.5,12.929,1.18755,-0.02821
192,12.9768,1.19668,-0.02821
192.5,13.0249,1.19159,-0.0282103
193,13.0714,1.19324,-0.0288827
193.5,13.1193,1.19654,-0.0288822
194,13.1671,1.18903,-0.0301683
194.5,13.2144,1.19204,-0.03018
195,13.2616,1.18842,-0.03018
195.5,13.3094,1.18434,-0.03018
196,13.3561,1.18118,-0.03018
196.5,13.404,1.19743,-0.03018
197,13.4502,1.19429,-0.03018
197.5,13.4996,1.18861,-0.0301548
198,13.546,1.18466,-0.0305096
198.5,13.5945,1.18471,-0.03051
199,13.6421,1.19383,-0.03051
199.5,13.6885,1.19032,-0.0305096
200,13.7358,1.18382,-0.0305924
200.5,13.7843,1.17853,-0.03183
201,13.8307,1.17994,-0.03183
201.5,13.8798,1.18747,-0.03183
202,13.9264,1.1832,-0.0318206
202.5,13.9743,1.17907,-0.03051
203,14.0206,1.17896,-0.0315024
203.5,14.0685,1.17419,-0.0330784
204,14.1172,1.17888,-0.0331506
204.5,14.1618,1.16482,-0.0345162
205,14.2116,1.16991,-0.0344699
205.5,14.2564,1.16345,-0.03447
206,14.3048,1.17051,-0.03447
206.5,14.3517,1.17192,-0.0344595
207,14.4004,1.16549,-0.0357943
207.5,14.449,1.16348,-0.03579
208,14.4954,1.1594,-0.03579
208.5,14.5432,1.16287,-0.0357897
209,14.5905,1.15881,-0.0361273
209.5,14.6371,1.16031,-0.0371329
210,14.6854,1.16451,-0.0384274
210.5,14.7326,1.16349,-0.0384448
211,14.78,1.15952,-0.0402654
211.5,14.8276,1.15774,-0.0404049
212,14.8755,1.14967,-0.0397396
212.5,14.9221,1.15907,-0.0396533
213,14.9706,1.15376,-0.0410604
213.5,15.0175,1.15784,-0.0410575
214,15.0638,1.15331,-0.0423547
214.5,15.112,1.15564,-0.0423751
215,15.1591,1.15403,-0.0436965
215.5,15.2067,1.1522,-0.0436905
216,15.254,1.15774,-0.044187
216.5,15.3018,1.15173,-0.0449962
217,15.349,1.14995,-0.0449999
217.5,15.3961,1.15205,-0.0450087
218,15.4434,1.14848,-0.0463205
218.5,15.4916,1.15086,-0.0474975
219,15.5371,1.14218,-0.0476402
219.5,15.5862,1.14682,-0.0476375
220,15.633,1.14149,-0.0489557
220.5,15.6802,1.14765,-0.0489801
221,15.7262,1.14017,-0.0482978
221.5,15.7755,1.15108,-0.049036
222,15.8228,1.13407,-0.0496041
222.5,15.8706,1.13421,-0.0509385
223,15.9176,1.13844,-0.05093
223.5,15.9654,1.1368,-0.0509318
224,16.0118,1.13852,-0.0522774
224.5,16.0596,1.12361,-0.0522436
225,16.1083,1.1342,-0.0538908
225.5,16.1558,1.12523,-0.0546338
226,16.2023,1.11488,-0.0558801
226.5,16.2491,1.11163,-0.0566894
227,16.297,1.11027,-0.0571944
227.5,16.3446,1.11212,-0.0585196
228,16.3899,1.10535,-0.0589009
228.5,16.4397,1.10829,-0.0601578
229,16.4844,1.10464,-0.0604728
229.5,16.5344,1.08612,-0.0614372
230,16.5811,1.09046,-0.0621096
230.5,16.6292,1.08728,-0.0634496
231,16.6755,1.07818,-0.064775
231.5,16.7247,1.07273,-0.0659381
232,16.7711,1.06786,-0.0674739
232.5,16.8183,1.06908,-0.0677259
233,16.8661,1.06192,-0.0698202
233.5,16.9143,1.05296,-0.0703468
234,16.961,1.0507,-0.0712598
234.5,17.0082,1.05044,-0.0740829
235,17.0557,1.04363,-0.0752993
235.5,17.1033,1.03893,-0.0761752
236,17.1484,1.03467,-0.0761314
236.5,17.1986,1.02576,-0.0773441
237,17.2459,1.02391,-0.0779406
237.5,17.2927,1.01631,-0.0789898
238,17.3394,1.0142,-0.0796365
238.5,17.3882,1.00534,-0.0818793
239,17.4345,1.00475,-0.0832088
239.5,17.4823,1.00515,-0.0846848
240,17.5308,0.994409,-0.085869
240.5,17.5773,0.993835,-0.0872665
241,17.6255,1.00033,-0.0887363
241.5,17.6722,1.01293,-0.0904691
242,17.7212,1.02834,-0.0928479
242.5,17.7686,1.05371,-0.0943194
243,17.8159,1.08635,-0.0965156
243.5,17.8639,1.11998,-0.0981885
244,17.913,1.14643,-0.100117
244.5,17.9596,1.17517,-0.10332
245,18.007,1.20857,-0.104597
245.5,18.0531,1.22169,-0.10746
246,18.103,1.24775,-0.11017
246.5,18.1497,1.26754,-0.111852
247,18.198,1.28305,-0.113693
247.5,18.2464,1.2902,-0.11656
248,18.2941,1.30294,-0.118559
248.5,18.3403,1.3054,-0.122473
249,18.3886,1.3061,-0.126416
249.5,18.4367,1.32122,-0.130074
250,18.4838,1.32633,-0.132291
250.5,18.5312,1.33237,-0.134915
251,18.5787,1.33804,-0.138076
251.5,18.6271,1.34178,-0.141165
252,18.674,1.34745,-0.143851
252.5,18.7212,1.36195,-0.147203
253,18.7691,1.36398,-0.150434
253.5,18.817,1.37517,-0.154088
254,18.8647,1.37647,-0.157213
254.5,18.9108,1.38182,-0.160199
255,18.9599,1.3934,-0.163464
255.5,19.0078,1.40239,-0.167546
256,19.0554,1.41376,-0.169673
256.5,19.1027,1.41443,-0.173558
257,19.1513,1.41185,-0.177698
257.5,19.1975,1.41751,-0.180673
258,19.2459,1.42752,-0.184056
258.5,19.2922,1.43631,-0.189436
259,19.3394,1.44375,-0.193483
259.5,19.3884,1.45117,-0.197747
260,19.4358,1.46073,-0.201558
260.5,19.482,1.4591,-0.206288
261,19.5303,1.47675,-0.210991
261.5,19.5782,1.48834,-0.214666
262,19.6248,1.49903,-0.218941
262.5,19.6734,1.51073,-0.223829
263,19.7206,1.52168,-0.229659
263.5,19.7689,1.52611,-0.234159
264,19.8161,1.53782,-0.239795
264.5,19.8632,1.55035,-0.243913
265,19.9101,1.55776,-0.249619
265.5,19.9587,1.57294,-0.255225
266,20.0047,1.57742,-0.259663
266.5,20.0541,1.58527,-0.265944
267,20.1022,1.60455,-0.27146
267.5,20.1485,1.60888,-0.277452
268,20.1974,1.61917,-0.284326
268.5,20.2427,1.63294,-0.290054
269,20.2921,1.6419,-0.296944
269.5,20.34,1.66087,-0.303779
270,20.387,1.67599,-0.310921
270.5,20.4349,1.68657,-0.316927
271,20.4831,1.69403,-0.32183
271.5,20.5314,1.71326,-0.328815
272,20.5789,1.72487,-0.337688
272.5,20.6266,1.73726,-0.345329
273,20.6733,1.75045,-0.352791
273.5,20.7197,1.76586,-0.360286
274,20.7706,1.78404,-0.367659
274.5,20.8175,1.79881,-0.37655
275,20.8648,1.80972,-0.384146
275.5,20.9116,1.82548,-0.392495
276,20.9602,1.84764,-0.400689
276.5,21.0082,1.8621,-0.410122
277,21.0566,1.87266,-0.419936
277.5,21.1042,1.89732,-0.429048
278,21.1525,1.91125,-0.438611
278.5,21.2,1.92246,-0.449381
279,21.2472,1.93743,-0.458689
279.5,21.2962,1.96625,-0.469201
280,21.3433,1.98281,-0.478764
280.5,21.3924,1.99726,-0.489392
281,21.4397,2.01971,-0.50224
281.5,21.4878,2.04416,-0.514085
282,21.5358,2.05868,-0.523364
282.5,21.5835,2.08379,-0.536839
283,21.631,2.10174,-0.547969
283.5,21.6802,2.11395,-0.56082
284,21.7275,2.1435,-0.573772
284.5,21.7743,2.1648,-0.586397
285,21.824,2.18845,-0.599724
285.5,21.8715,2.2126,-0.61211
286,21.9192,2.23478,-0.62619
286.5,21.9659,2.25345,-0.639962
287,22.0166,2.27906,-0.654828
287.5,22.0648,2.30635,-0.668426
288,22.11,2.33113,-0.682075
288.5,22.1605,2.35861,-0.699072
289,22.2086,2.3833,-0.714077
289.5,22.2552,2.40802,-0.727283
290,22.3053,2.43142,-0.744904
290.5,22.3531,2.45637,-0.761897
291,22.4007,2.47686,-0.778054
291.5,22.4495,2.49476,-0.794942
292,22.4967,2.5227,-0.811737
292.5,22.5457,2.5467,-0.828373
293,22.5946,2.57104,-0.847162
293.5,22.6418,2.59361,-0.866323
294,22.6905,2.61692,-0.884868
294.5,22.7375,2.63683,-0.901024
295,22.7856,2.66333,-0.919041
295.5,22.8339,2.67346,-0.937767
296,22.8817,2.69692,-0.957791
296.5,22.9297,2.72798,-0.976693
297,22.9775,2.7536,-0.995638
297.5,23.0259,2.77455,-1.01506
298,23.0744,2.79237,-1.03559
298.5,23.1225,2.81317,-1.05657
299,23.1705,2.84329,-1.07568
299.5,23.2179,2.86085,-1.09761
300,23.2669,2.89099,-1.11733
300.5,23.3139,2.92747,-1.13605
301,23.3629,2.94678,-1.15933
301.5,23.4107,2.96818,-1.18172
302,23.4588,3.00165,-1.202
302.5,23.5057,3.00209,-1.2233
303,23.555,3.0208,-1.24481
303.5,23.602,3.0333,-1.26536
304,23.6504,3.04375,-1.28739
304.5,23.6971,3.0522,-1.30762
305,23.7458,3.05958,-1.3267
305.5,23.7941,3.05807,-1.34954
306,23.8416,3.05008,-1.37108
306.5,23.8889,3.03219,-1.39133
307,23.9368,3.01259,-1.41129
307.5,23.9835,2.98618,-1.43133
308,24.0312,2.95942,-1.45089
308.5,24.0781,2.92019,-1.47104
309,24.126,2.89145,-1.49031
309.5,24.1736,2.85678,-1.50922
310,24.2206,2.82125,-1.52791
310.5,24.2664,2.77705,-1.54602
311,24.3154,2.73426,-1.56491
311.5,24.3631,2.69048,-1.58299
312,24.4105,2.65036,-1.6
312.5,24.4558,2.60471,-1.61514
313,24.5023,2.56154,-1.63146
313.5,24.5521,2.51623,-1.64874
314,24.5987,2.47805,-1.66442
314.5,24.6456,2.43076,-1.68
315,24.6936,2.39903,-1.69538
315.5,24.7383,2.35473,-1.70847
316,24.7888,2.30552,-1.72406
316.5,24.8358,2.2557,-1.73828
317,24.8829,2.20675,-1.75332
317.5,24.9298,2.17819,-1.76584
318,24.9768,2.12579,-1.77813
318.5,25.0249,2.08345,-1.79097
319,25.072,2.04499,-1.80393
319.5,25.1191,1.98829,-1.8158
320,25.1669,1.94241,-1.82779
320.5,25.2148,1.91418,-1.84045
321,25.2618,1.85705,-1.85132
321.5,25.3088,1.82134,-1.86231
322,25.356,1.76652,-1.87139
322.5,25.4031,1.73168,-1.8815
323,25.4507,1.68483,-1.89272
323.5,25.4976,1.64088,-1.90268
324,25.5457,1.60045,-1.91199
324.5,25.5927,1.5669,-1.92183
325,25.6407,1.51728,-1.9304
325.5,25.6876,1.48847,-1.93973
326,25.7352,1.44528,-1.94863
326.5,25.7831,1.40686,-1.95698
327,25.8302,1.36771,-1.9656
327.5,25.8774,1.32332,-1.97408
328,25.9247,1.2841,-1.98094
328.5,25.9727,1.24868,-1.98814
329,26.0201,1.20714,-1.99685
329.5,26.0673,1.17578,-2.0044
330,26.1154,1.13661,-2.01059
330.5,26.162,1.10209,-2.01634
331,26.2104,1.06389,-2.02405
331.5,26.2579,1.0345,-2.03013
332,26.3047,0.999343,-2.03659
332.5,26.3527,0.964729,-2.0428
333,26.4007,0.930115,-2.04934
333.5,26.4463,0.901351,-2.05576
334,26.4941,0.868324,-2.0604
334.5,26.5418,0.837224,-2.06679
335,26.5902,0.803665,-2.0732
335.5,26.6369,0.777521,-2.07841
336,26.6846,0.73666,-2.08311
336.5,26.7317,0.695204,-2.08766
337,26.7794,0.684303,-2.09148
337.5,26.8267,0.672668,-2.0961
338,26.8741,0.656349,-2.10131
338.5,26.9232,0.634369,-2.10505
339,26.9706,0.622036,-2.11038
339.5,27.0173,0.585122,-2.11531
340,27.066,0.580861,-2.11896
340.5,27.1127,0.550607,-2.12307
341,27.1603,0.544655,-2.12694
341.5,27.2092,0.526813,-2.13093
342,27.2569,0.503783,-2.13403
342.5,27.3049,0.488053,-2.13783
343,27.3516,0.477995,-2.14199
343.5,27.4006,0.461032,-2.14618
344,27.4477,0.452716,-2.14941
344.5,27.4954,0.433087,-2.15329
345,27.5443,0.42391,-2.15514
345.5,27.5923,0.41701,-2.15855
346,27.6398,0.408762,-2.16334
346.5,27.6882,0.390933,-2.1665
347,27.7361,0.393848,-2.16787
347.5,27.7841,0.374577,-2.1708
348,27.8321,0.368317,-2.17364
348.5,27.8806,0.366172,-2.17844
349,27.9273,0.358759,-2.18141
349.5,27.9757,0.348455,-2.18423
350,28.0238,0.348061,-2.18604
350.5,28.0725,0.341984,-2.18859
351,28.1184,0.337625,-2.19109
351.5,28.1682,0.33522,-2.19311
352,28.2165,0.327781,-2.19637
352.5,28.2648,0.323166,-2.20019
353,28.3118,0.321707,-2.20067
353.5,28.3608,0.315601,-2.20421
354,28.4087,0.313464,-2.20726
354.5,28.4565,0.308361,-2.20998
355,28.505,0.304525,-2.21302
355.5,28.5529,0.303851,-2.21446
356,28.6016,0.30831,-2.21738
356.5,28.6493,0.305053,-2.22097
357,28.6976,0.305553,-2.22268
357.5,28.7456,0.303396,-2.22544
358,28.7928,0.3061,-2.22681
358.5,28.8412,0.301855,-2.22903
359,28.8902,0.302435,-2.2312
359.5,28.935,0.305889,-2.23454
360,28.9858,0.302956,-2.23698
360.5,29.0344,0.303771,-2.23935
361,29.0806,0.303009,-2.24134
361.5,29.1304,0.306607,-2.2436
362,29.1764,0.304071,-2.24505
362.5,29.225,0.302656,-2.24838
363,29.2741,0.303588,-2.25117
363.5,29.323,0.307768,-2.25311
364,29.3707,0.311049,-2.25624
364.5,29.419,0.308627,-2.258
365,29.4675,0.311317,-2.26091
365.5,29.5164,0.309172,-2.26404
366,29.5637,0.307492,-2.26661
366.5,29.6128,0.3102,-2.26895
367,29.6614,0.316404,-2.27092
367.5,29.7094,0.316856,-2.27347
368,29.7584,0.314764,-2.27595
368.5,29.8062,0.306498,-2.27893
369,29.8551,0.308232,-2.28078
369.5,29.9028,0.316726,-2.28361
370,29.9515,0.321781,-2.28708
370.5,30.0001,0.320942,-2.29043
371,30.0489,0.315346,-2.29244
371.5,30.097,0.325232,-2.29468
372,30.1457,0.323564,-2.29679
372.5,30.1949,0.333963,-2.29952
373,30.2427,0.330114,-2.30281
373.5,30.2914,0.33454,-2.3059
374,30.3401,0.343418,-2.3081
374.5,30.388,0.341937,-2.31232
375,30.4371,0.346189,-2.31551
375.5,30.4853,0.343924,-2.31721
376,30.5335,0.34724,-2.32036
376.5,30.5829,0.354349,-2.3224
377,30.6302,0.355804,-2.32524
377.5,30.6778,0.355279,-2.32854
378,30.7252,0.352605,-2.33201
378.5,30.7752,0.360196,-2.33555
379,30.8249,0.362523,-2.33881
379.5,30.8726,0.362979,-2.34184
380,30.9211,0.367658,-2.34544
380.5,30.9696,0.368555,-2.34869
381,31.0174,0.371798,-2.35207
381.5,31.0657,0.383444,-2.35384
382,31.1149,0.376072,-2.35805
382.5,31.1634,0.383824,-2.36107
383,31.212,0.383486,-2.36493
383.5,31.2604,0.388188,-2.36882
384,31.3097,0.391289,-2.37278
384.5,31.3579,0.391211,-2.37664
385,31.4061,0.387138,-2.37981
385.5,31.4552,0.388274,-2.38323
386,31.5029,0.391286,-2.38726
386.5,31.5516,0.388703,-2.39082
387,31.6003,0.390047,-2.39567
387.5,31.6481,0.394451,-2.39985
388,31.6962,0.387884,-2.40371
388.5,31.7448,0.389181,-2.40767
389,31.793,0.392033,-2.4115
389.5,31.8421,0.386124,-2.41422
390,31.8908,0.38371,-2.41837
390.5,31.9397,0.386419,-2.42325
391,31.9878,0.383424,-2.4287
391.5,32.0366,0.385036,-2.43177
392,32.0843,0.383017,-2.43508
392.5,32.1334,0.384674,-2.43989
393,32.1828,0.382929,-2.44587
393.5,32.2291,0.383911,-2.44943
394,32.2797,0.385071,-2.45366
394.5,32.3276,0.380954,-2.45727
395,32.3761,0.389419,-2.46189
395.5,32.4244,0.374471,-2.46703
396,32.4725,0.37472,-2.47284
396.5,32.5209,0.372909,-2.47713
397,32.5698,0.36899,-2.48195
397.5,32.6191,0.365366,-2.48633
398,32.6659,0.361807,-2.49127
398.5,32.7161,0.353313,-2.49535
399,32.7651,0.35721,-2.50015
399.5,32.8137,0.350031,-2.50606
400,32.8613,0.345872,-2.50972
400.5,32.9111,0.336216,-2.51535
401,32.9589,0.330292,-2.51974
401.5,33.0065,0.320776,-2.5238
402,33.0564,0.310083,-2.52977
402.5,33.1051,0.306408,-2.53396
403,33.153,0.310545,-2.54075
403.5,33.2017,0.293535,-2.54577
404,33.2499,0.28926,-2.54961
404.5,33.298,0.282015,-2.55388
405,33.3468,0.281719,-2.55989
405.5,33.395,0.275227,-2.56546
406,33.4431,0.266646,-2.57116
406.5,33.4928,0.251403,-2.57575
407,33.5405,0.24539,-2.58089
407.5,33.5895,0.238712,-2.58581
408,33.6375,0.225689,-2.59119
408.5,33.6837,0.222358,-2.59618
409,33.7339,0.202532,-2.60124
409.5,33.7826,0.196061,-2.60556
410,33.8315,0.193651,-2.6101
410.5,33.8795,0.18265,-2.61551
411,33.9283,0.172729,-2.61927
411.5,33.9764,0.161201,-2.62447
412,34.025,0.153535,-2.63
412.5,34.0734,0.145398,-2.63401
413,34.123,0.131821,-2.63883
413.5,34.1713,0.125525,-2.64442
414,34.2189,0.115603,-2.64834
414.5,34.2684,0.099387,-2.65258
415,34.3165,0.0874221,-2.65763
415.5,34.3647,0.0902203,-2.6617
416,34.4143,0.0780039,-2.66704
416.5,34.4631,0.066334,-2.67044
417,34.5118,0.0581898,-2.67529
417.5,34.5598,0.0436472,-2.67981
418,34.609,0.0370121,-2.68361
418.5,34.6572,0.0229127,-2.68879
419,34.7059,0.0222964,-2.69388
419.5,34.7522,0.0147193,-2.69919
420,34.8032,0.00476064,-2.7027
420.5,34.8522,-0.00731385,-2.70725
421,34.9007,-0.00962206,-2.7106
421.5,34.9483,-0.0161566,-2.71402
422,34.9973,-0.0250692,-2.71767
422.5,35.0446,-0.0322141,-2.72184
423,35.0942,-0.03632,-2.72591
423.5,35.1438,-0.0505312,-2.73151
424,35.1926,-0.0553619,-2.73597
424.5,35.2404,-0.0574375,-2.73957
425,35.2904,-0.0615691,-2.74364
425.5,35.3393,-0.0757264,-2.74775
426,35.3874,-0.0833323,-2.74958
426.5,35.4362,-0.0830254,-2.75341
427,35.484,-0.091992,-2.75657
427.5,35.5329,-0.0904838,-2.76247
428,35.5822,-0.101343,-2.76626
428.5,35.6312,-0.102108,-2.77142
429,35.6788,-0.113962,-2.77491
429.5,35.7281,-0.111353,-2.77951
430,35.7765,-0.123732,-2.78354
430.5,35.8256,-0.127402,-2.78726
431,35.8749,-0.135193,-2.79158
431.5,35.9221,-0.130193,-2.79589
432,35.9716,-0.133841,-2.80027
432.5,36.0209,-0.139915,-2.80377
433,36.0667,-0.154075,-2.80627
433.5,36.118,-0.16131,-2.81126
434,36.1667,-0.168206,-2.81667
434.5,36.2151,-0.173856,-2.82047
435,36.2637,-0.175612,-2.82426
435.5,36.3137,-0.177209,-2.82824
436,36.3622,-0.179899,-2.83246
436.5,36.4118,-0.179327,-2.83707
437,36.4601,-0.184216,-2.83998
437.5,36.5075,-0.193383,-2.84352
438,36.5581,-0.19485,-2.84778
438.5,36.6071,-0.194086,-2.85325
439,36.6553,-0.207512,-2.85761
439.5,36.7038,-0.201247,-2.86131
440,36.753,-0.207544,-2.86495
440.5,36.8013,-0.204518,-2.87017
441,36.8502,-0.207662,-2.87351
441.5,36.8983,-0.198716,-2.87804
442,36.948,-0.198211,-2.88398
442.5,36.9973,-0.202565,-2.88884
443,37.0464,-0.20231,-2.89181
443.5,37.0947,-0.198369,-2.89673
444,37.1441,-0.191633,-2.90052
444.5,37.1928,-0.18983,-2.90629
445,37.2424,-0.190921,-2.9117
445.5,37.2903,-0.188167,-2.916
446,37.3393,-0.181091,-2.92089
446.5,37.3877,-0.173144,-2.92543
447,37.4382,-0.172716,-2.92928
447.5,37.485,-0.166635,-2.93464
448,37.5354,-0.164406,-2.9392
448.5,37.5843,-0.1512,-2.94542
449,37.6332,-0.14423,-2.9505
449.5,37.681,-0.134752,-2.9554
450,37.7321,-0.120912,-2.96052
450.5,37.7812,-0.118631,-2.96549
451,37.8308,-0.113297,-2.97098
451.5,37.879,-0.106978,-2.97685
452,37.9283,-0.0932142,-2.98102
452.5,37.9786,-0.0770515,-2.98634
453,38.0272,-0.0724165,-2.99232
453.5,38.0768,-0.0616481,-2.99782
454,38.1255,-0.0583386,-3.00253
454.5,38.1749,-0.0457192,-3.00797
455,38.2239,-0.0351483,-3.0125
455.5,38.2726,-0.0232215,-3.01861
456,38.3223,-0.013666,-3.02578
456.5,38.3718,-0.0169744,-3.0302
457,38.4219,-0.00312983,-3.03489
457.5,38.4699,0.00308646,-3.04033
458,38.5195,0.014266,-3.04608
458.5,38.5697,0.0177217,-3.0513
459,38.6179,0.0279252,-3.05709
459.5,38.6675,0.0383575,-3.06197
460,38.7149,0.0419034,-3.06626
460.5,38.7656,0.0494954,-3.07153
461,38.8157,0.0552754,-3.07687
461.5,38.8645,0.0590465,-3.08236
462,38.9122,0.0620544,-3.08698
462.5,38.9622,0.066338,-3.09314
463,39.0121,0.0644609,-3.09804
463.5,39.06,0.0781252,-3.1034
464,39.1092,0.0801918,-3.10828
464.5,39.1586,0.0751905,-3.11409
465,39.2082,0.0728939,-3.1199
465.5,39.2569,0.0853869,-3.12418
466,39.3068,0.0845984,-3.12945
466.5,39.3554,0.0868937,-3.13171
467,39.4055,0.0864682,-3.13693
467.5,39.4547,0.0841594,-3.14178
468,39.5043,0.0861771,-3.14749
468.5,39.5524,0.0893277,-3.15252
469,39.6014,0.0835905,-3.15594
469.5,39.6511,0.0778304,-3.15981
470,39.699,0.0743394,-3.16506
470.5,39.749,0.0820354,-3.16949
471,39.798,0.0751067,-3.17379
471.5,39.8476,0.0778112,-3.17814
472,39.8962,0.077185,-3.18193
472.5,39.9453,0.0723127,-3.18771
473,39.9957,0.0720964,-3.1927
473.5,40.044,0.0717569,-3.19502
474,40.0927,0.070087,-3.19898
474.5,40.1426,0.0757083,-3.20299
475,40.19,0.071149,-3.20788
475.5,40.24,0.0619817,-3.21207
476,40.2899,0.0695932,-3.21549
476.5,40.3385,0.0623144,-3.21983
477,40.3886,0.0614298,-3.2244
477.5,40.4368,0.0599147,-3.22783
478,40.4853,0.0593374,-3.23102
478.5,40.5355,0.0515965,-3.23446
479,40.5841,0.054821,-3.23769
479.5,40.6338,0.0512099,-3.24126
480,40.6835,0.0445488,-3.24527
480.5,40.7321,0.0410517,-3.24933
481,40.781,0.032744,-3.25194
481.5,40.8297,0.0394054,-3.25526
482,40.8782,0.0321106,-3.25871
482.5,40.9283,0.0342825,-3.26183
483,40.9767,0.0248724,-3.26545
483.5,41.0254,0.0333802,-3.26914
484,41.0748,0.0160843,-3.27084
484.5,41.1235,0.0238172,-3.27493
485,41.1734,0.0133683,-3.27647
485.5,41.222,0.0107205,-3.27963
486,41.2711,0.0130501,-3.28136
486.5,41.3203,0.00969087,-3.28401
487,41.3697,0.00766911,-3.28493
487.5,41.4184,0.00678525,-3.28804
488,41.4669,-0.00192379,-3.291
488.5,41.5171,-0.00694353,-3.2937
489,41.5661,-0.00939652,-3.29657
489.5,41.6151,-0.0110712,-3.29792
490,41.6638,-0.0100467,-3.30116
490.5,41.7135,-0.016565,-3.30446
491,41.7623,-0.00957229,-3.30649
491.5,41.8124,-0.017908,-3.30873
492,41.862,-0.0229154,-3.31081
492.5,41.9086,-0.015778,-3.31288
493,41.9601,-0.0207982,-3.31411
493.5,42.0074,-0.0205461,-3.31548
494,42.0588,-0.0173504,-3.31767
494.5,42.1072,-0.0229117,-3.31967
495,42.1571,-0.0239769,-3.32084
495.5,42.2061,-0.0250492,-3.32258
496,42.2559,-0.01961,-3.32528
496.5,42.3041,-0.0224827,-3.32565
497,42.3535,-0.031831,-3.32697
497.5,42.4029,-0.037259,-3.32859
498,42.4499,-0.0364123,-3.3316
498.5,42.4993,-0.0367081,-3.33334
499,42.55,-0.0319748,-3.33467
499.5,42.5993,-0.0395619,-3.33595
500,42.6492,-0.0438643,-3.3375
500.5,42.6987,-0.0483841,-3.33867
501,42.7473,-0.0445544,-3.34003
501.5,42.7973,-0.0420183,-3.34158
502,42.8454,-0.0425406,-3.34277
502.5,42.8954,-0.045893,-3.34421
503,42.9434,-0.0414723,-3.34551
503.5,42.9936,-0.0465945,-3.3471
504,43.0426,-0.0435785,-3.34933
504.5,43.0916,-0.0425571,-3.34948
505,43.1415,-0.0504203,-3.35084
505.5,43.1915,-0.0470538,-3.35082
506,43.2394,-0.0485995,-3.35211
506.5,43.2894,-0.0420055,-3.35296
507,43.3381,-0.0465073,-3.35466
507.5,43.3879,-0.0458681,-3.35505
508,43.436,-0.0407764,-3.35513
508.5,43.487,-0.046448,-3.35604
509,43.5364,-0.0459354,-3.35739
509.5,43.5852,-0.0456476,-3.3587
510,43.6337,-0.0417078,-3.35895
510.5,43.6835,-0.0442497,-3.35998
511,43.7326,-0.0456685,-3.36133
511.5,43.7827,-0.0433022,-3.36251
512,43.8325,-0.0465578,-3.36267
512.5,43.881,-0.0487769,-3.36396
513,43.9306,-0.0475182,-3.36398
513.5,43.9801,-0.0498322,-3.36528
514,44.029,-0.0529177,-3.36527
514.5,44.0772,-0.0481988,-3.3666
515,44.1267,-0.0501919,-3.36658
515.5,44.1771,-0.0448614,-3.36792
516,44.2252,-0.0432131,-3.36864
516.5,44.2756,-0.0479141,-3.36922
517,44.3238,-0.0434188,-3.37055
517.5,44.3746,-0.0435579,-3.37187
518,44.4232,-0.051767,-3.37187
518.5,44.4728,-0.0487066,-3.37352
519,44.5211,-0.0473299,-3.37352
519.5,44.5715,-0.049386,-3.37352
520,44.6211,-0.049244,-3.3739
520.5,44.6684,-0.0452795,-3.37519
521,44.7206,-0.0431321,-3.37612
521.5,44.7698,-0.0441705,-3.37603
522,44.8185,-0.0479107,-3.37747
522.5,44.8676,-0.0436133,-3.37835
523,44.9176,-0.0423202,-3.37747
523.5,44.9665,-0.0396455,-3.37747
524,45.0153,-0.0413561,-3.37952
524.5,45.0652,-0.0392824,-3.3801
525,45.1146,-0.0411474,-3.3801
525.5,45.164,-0.0409217,-3.38143
526,45.2133,-0.0465188,-3.3814
526.5,45.2628,-0.0380011,-3.38008
527,45.3118,-0.0412294,-3.38141
527.5,45.3616,-0.0448123,-3.38138
528,45.4095,-0.0380251,-3.38274
528.5,45.4609,-0.0374399,-3.38274
529,45.5094,-0.0427506,-3.38274
529.5,45.5589,-0.0333454,-3.38274
530,45.6085,-0.0364892,-3.38402
530.5,45.658,-0.0394137,-3.38435
531,45.7081,-0.0332917,-3.38537
531.5,45.7574,-0.0278013,-3.38537
532,45.8072,-0.0287093,-3.38466
532.5,45.8568,-0.0288873,-3.38455
533,45.9066,-0.0196635,-3.3857
533.5,45.955,-0.0246945,-3.38572
534,46.0055,-0.0257292,-3.38837
534.5,46.0546,-0.0169481,-3.38834
535,46.1034,-0.0141,-3.38718
535.5,46.1537,-0.0100256,-3.38702
536,46.2035,-0.0142286,-3.38702
536.5,46.2524,-0.0154931,-3.38832
537,46.3031,-0.0095131,-3.38832
537.5,46.3525,-0.00820067,-3.38866
538,46.4024,-0.0119952,-3.38914
538.5,46.4514,-0.0058879,-3.38998
539,46.5008,-0.0145167,-3.38996
539.5,46.5484,-0.00743301,-3.39097
540,46.6,-0.00522014,-3.39097
540.5,46.6492,-0.00293742,-3.39129
541,46.6972,-0.0055306,-3.39126
541.5,46.7478,0.000328874,-3.39262
542,46.7988,-0.00195686,-3.39262
542.5,46.848,0.00558617,-3.39262
543,46.8974,0.00659119,-3.39394
543.5,46.945,0.00796445,-3.39393
544,46.997,0.00738133,-3.39524
544.5,47.0464,0.0062893,-3.39458
545,47.0958,0.0115212,-3.39395
545.5,47.1454,0.0157531,-3.39394
546,47.1943,0.00803582,-3.39394
546.5,47.2452,0.0096697,-3.39394
547,47.2937,0.0145058,-3.39394
547.5,47.3442,0.0111106,-3.39528
548,47.3938,0.0177623,-3.39558
548.5,47.4433,0.0142125,-3.39591
549,47.4928,0.0138118,-3.39721
549.5,47.5415,0.0168152,-3.39597
550,47.5921,0.0150161,-3.39591
550.5,47.6405,0.0164741,-3.39591
551,47.6897,0.0139441,-3.39592
551.5,47.7406,0.011218,-3.39827
552,47.7886,0.0161072,-3.39821
552.5,47.8388,0.0181596,-3.39821
553,47.8887,0.0163038,-3.39821
553.5,47.9385,0.0174081,-3.39821
554,47.9887,0.0150819,-3.3985
554.5,48.0374,0.0144508,-3.39822
555,48.0849,0.0186003,-3.39822
555.5,48.1367,0.01525,-3.3983
556,48.186,0.014841,-3.40038
556.5,48.2356,0.0177126,-3.40085
557,48.2847,0.0121926,-3.40085
557.5,48.3321,0.016567,-3.40085
558,48.3849,0.0120835,-3.40085
558.5,48.4343,0.00494827,-3.39949
559,48.4838,0.00884791,-3.39954
559.5,48.5321,0.00558412,-3.39954
560,48.583,0.0105921,-3.40082
560.5,48.6321,0.00824047,-3.40151
561,48.681,0.0090998,-3.40151
561.5,48.7319,0.0110639,-3.40246
562,48.7804,0.00901074,-3.4025
562.5,48.8303,0.00629473,-3.40248
563,48.8801,0.0146447,-3.40219
563.5,48.9293,0.014019,-3.4015
564,48.9789,0.000952222,-3.40288
564.5,49.0288,-0.000658098,-3.40283
565,49.0791,0.00349054,-3.40381
565.5,49.1282,0.00507838,-3.40382
566,49.1772,-0.000409981,-3.40512
566.5,49.2272,0.00242294,-3.40514
567,49.2767,-0.00219957,-3.40449
567.5,49.3273,-0.00192764,-3.40382
568,49.3764,-0.000738471,-3.40382
568.5,49.4261,0.0017842,-3.40382
569,49.475,-0.00179452,-3.40382
569.5,49.5241,0.00351159,-3.40448
570,49.5747,-0.000495477,-3.40448
570.5,49.6224,0.00387541,-3.40441
571,49.6718,0.0013794,-3.40513
571.5,49.7211,0.00542426,-3.4058
572,49.7733,0.00111899,-3.40645
572.5,49.823,0.00323938,-3.40648
573,49.872,0.00660422,-3.40612
573.5,49.9222,0.000969188,-3.40612
574,49.9722,0.00418701,-3.40612
574.5,50.0211,0.00333855,-3.40612
575,50.0707,0.00351349,-3.40741
575.5,50.1195,-0.00637264,-3.40744
576,50.1706,-0.0028724,-3.40744
576.5,50.2205,-0.00762312,-3.40744
577,50.2699,0.00225282,-3.4075
577.5,50.3188,0.000876699,-3.40767
578,50.3685,0.00583846,-3.40759
578.5,50.4183,-0.00126766,-3.40744
579,50.4685,0.00355537,-3.40744
579.5,50.5178,-0.000345846,-3.40854
580,50.5676,-0.00260983,-3.40843
580.5,50.6184,-0.00161211,-3.40975
581,50.6642,-0.00207856,-3.40974
581.5,50.716,0.00198415,-3.40845
582,50.7653,-0.00124924,-3.40842
582.5,50.8156,-0.00437161,-3.40984
583,50.8653,-0.00784542,-3.40974
583.5,50.9153,-0.00927024,-3.40841
584,50.9641,0.00555941,-3.40842
584.5,51.0137,-0.00172673,-3.40841
585,51.0642,-0.00426236,-3.40974
585.5,51.1124,-0.00847779,-3.40974
586,51.163,-0.000485438,-3.41106
586.5,51.2125,-0.00582562,-3.41106
587,51.2597,-0.00879839,-3.41106
587.5,51.3107,-0.0100015,-3.41106
588,51.3616,-0.00735186,-3.40882
588.5,51.4115,-0.0116409,-3.40876
589,51.4608,-0.0130457,-3.41017
589.5,51.5102,-0.00363009,-3.41139
590,51.5601,-0.00667473,-3.41139
590.5,51.6094,-0.0111694,-3.41139
591,51.6589,-0.00593185,-3.41152
591.5,51.7092,-0.0088815,-3.4114
592,51.758,-0.0115378,-3.41259
592.5,51.8083,-0.00863429,-3.41271
593,51.8572,-0.00879294,-3.41271
593.5,51.9072,-0.00885758,-3.41271
594,51.9566,-0.011797,-3.41271
594.5,52.0069,-0.0175346,-3.41402
595,52.0561,-0.0164436,-3.41403
595.5,52.1049,-0.0193721,-3.41272
596,52.1548,-0.0189209,-3.41271
596.5,52.2046,-0.0252145,-3.41271
597,52.2546,-0.0205933,-3.4137
597.5,52.3044,-0.022913,-3.41403
598,52.3537,-0.0291001,-3.41403
598.5,52.4026,-0.0232548,-3.41403
599,52.4524,-0.0298305,-3.41403
599.5,52.503,-0.0361059,-3.41535
600,52.552,-0.0309753,-3.41535
600.5,52.6024,-0.0342566,-3.41527
601,52.6488,-0.0358843,-3.41403
601.5,52.7012,-0.0404727,-3.41403
602,52.7503,-0.0397938,-3.41434
602.5,52.7999,-0.0413358,-3.41535
603,52.8498,-0.044844,-3.41668
603.5,52.8994,-0.041691,-3.41667
604,52.9467,-0.0401841,-3.41536
604.5,52.998,-0.0476998,-3.41535
605,53.049,-0.0426804,-3.41535
605.5,53.0976,-0.0522523,-3.41535
606,53.1477,-0.0515026,-3.41529
606.5,53.1979,-0.056778,-3.41666
607,53.2476,-0.0562602,-3.41666
607.5,53.2969,-0.0674906,-3.41666
608,53.3456,-0.0653399,-3.41666
608.5,53.3971,-0.0638216,-3.41666
609,53.447,-0.0708794,-3.41667
609.5,53.4952,-0.0720758,-3.41798
610,53.5455,-0.0714117,-3.41798
610.5,53.5959,-0.0756257,-3.41798
611,53.6455,-0.0772886,-3.41717
611.5,53.6957,-0.0802914,-3.41732
612,53.7462,-0.0735707,-3.41733
612.5,53.7956,-0.087384,-3.41865
613,53.8456,-0.0817889,-3.41964
613.5,53.8951,-0.0837408,-3.41831
614,53.9444,-0.0820402,-3.41831
614.5,53.9948,-0.0870569,-3.41831
615,54.0442,-0.0924565,-3.41962
615.5,54.0952,-0.0905964,-3.41962
616,54.144,-0.0859736,-3.41962
616.5,54.1914,-0.0941205,-3.41962
617,54.2436,-0.0888796,-3.41962
617.5,54.2936,-0.0935317,-3.41962
618,54.3427,-0.0959048,-3.41962
618.5,54.3929,-0.094747,-3.41961
619,54.4426,-0.0973806,-3.41888
619.5,54.493,-0.0977858,-3.42028
620,54.542,-0.100881,-3.42028
620.5,54.5903,-0.0997085,-3.42053
621,54.6416,-0.0992493,-3.42126
621.5,54.6923,-0.106024,-3.42127
622,54.7417,-0.111434,-3.42256
622.5,54.7918,-0.120828,-3.42259
623,54.8415,-0.119044,-3.42262
623.5,54.8911,-0.116278,-3.42226
624,54.9419,-0.123272,-3.42337
624.5,54.991,-0.123352,-3.42259
625,55.0409,-0.127154,-3.42259
625.5,55.0901,-0.126049,-3.42259
626,55.1398,-0.125148,-3.42259
626.5,55.1906,-0.129075,-3.42249
627,55.2401,-0.137507,-3.4239
627.5,55.2905,-0.134007,-3.4239
628,55.3397,-0.13189,-3.4239
628.5,55.3896,-0.133177,-3.4239
629,55.4397,-0.134865,-3.42349
629.5,55.4895,-0.139748,-3.42258
630,55.5388,-0.138021,-3.42253
630.5,55.589,-0.138629,-3.42424
631,55.6379,-0.145061,-3.42423
631.5,55.6886,-0.148805,-3.42497
632,55.7384,-0.151874,-3.42489
632.5,55.7887,-0.157595,-3.42489
633,55.8378,-0.155697,-3.42489
633.5,55.8879,-0.162663,-3.42489
634,55.9379,-0.165429,-3.42357
634.5,55.9873,-0.163143,-3.42431
635,56.0372,-0.164338,-3.42424
635.5,56.0872,-0.174816,-3.42424
636,56.1375,-0.167623,-3.42425
636.5,56.1855,-0.172217,-3.42556
637,56.235,-0.170081,-3.42556
637.5,56.2863,-0.177474,-3.42556
638,56.3364,-0.166512,-3.42556
638.5,56.3866,-0.173941,-3.42556
639,56.4364,-0.175533,-3.42569
639.5,56.486,-0.176555,-3.42687
640,56.5361,-0.182954,-3.42687
640.5,56.5862,-0.190963,-3.42687
641,56.6367,-0.188642,-3.4265
641.5,56.6862,-0.1896,-3.42654
642,56.7366,-0.187397,-3.42654
642.5,56.7856,-0.194897,-3.42654
643,56.8361,-0.200887,-3.42654
643.5,56.886,-0.196778,-3.42654
644,56.935,-0.196752,-3.42654
644.5,56.9842,-0.201746,-3.42705
645,57.0357,-0.197693,-3.42687
645.5,57.0859,-0.199368,-3.42687
646,57.1359,-0.202028,-3.4276
646.5,57.1838,-0.206802,-3.42819
647,57.2368,-0.206271,-3.42819
647.5,57.287,-0.210036,-3.42819
648,57.3367,-0.212632,-3.4296
648.5,57.3866,-0.211138,-3.42984
649,57.4352,-0.209905,-3.42943
649.5,57.485,-0.212,-3.42919
650,57.5346,-0.21071,-3.42951
650.5,57.5862,-0.214691,-3.42951
651,57.6368,-0.208721,-3.4291
651.5,57.6869,-0.213189,-3.42987
652,57.7367,-0.218685,-3.42983
652.5,57.7864,-0.209693,-3.42983
653,57.8364,-0.218892,-3.42983
653.5,57.8859,-0.213977,-3.42983
654,57.9367,-0.224851,-3.42911
654.5,57.9861,-0.223276,-3.42917
655,58.0366,-0.215073,-3.42917
655.5,58.086,-0.220727,-3.43056
656,58.1352,-0.221749,-3.43049
656.5,58.186,-0.21912,-3.43049
657,58.2346,-0.220831,-3.43049
657.5,58.2856,-0.228505,-3.43181
658,58.3353,-0.230095,-3.43181
658.5,58.3862,-0.223989,-3.43181
659,58.4357,-0.229884,-3.43181
659.5,58.4841,-0.22643,-3.43181
660,58.5358,-0.224645,-3.43223
660.5,58.5857,-0.231057,-3.43313
661,58.6353,-0.228152,-3.43317
661.5,58.6861,-0.229023,-3.4328
662,58.735,-0.228426,-3.43315
662.5,58.785,-0.226664,-3.4338
663,58.8351,-0.231099,-3.43379
663.5,58.8861,-0.229931,-3.43255
664,58.936,-0.227358,-3.43247
664.5,58.986,-0.232067,-3.43247
665,59.0362,-0.226718,-3.43247
665.5,59.0862,-0.230665,-3.43278
666,59.137,-0.226965,-3.43277
666.5,59.1876,-0.235663,-3.43411
667,59.2353,-0.237273,-3.43411
667.5,59.2867,-0.236284,-3.43419
668,59.3376,-0.239869,-3.4328
668.5,59.3872,-0.242715,-3.4328
669,59.4379,-0.24366,-3.43518
669.5,59.4881,-0.243263,-3.4351
670,59.5387,-0.243318,-3.4351
670.5,59.5895,-0.243295,-3.4351
671,59.639,-0.242028,-3.4351
671.5,59.6894,-0.241271,-3.4351
672,59.7399,-0.238116,-3.4356
672.5,59.7909,-0.24095,-3.43642
673,59.841,-0.239797,-3.43642
673.5,59.8914,-0.240013,-3.43511
674,59.9415,-0.239369,-3.43511
674.5,59.9919,-0.239059,-3.43528
675,60.0421,-0.246205,-3.43642
675.5,60.0924,-0.245737,-3.43642
676,60.143,-0.240618,-3.43642
676.5,60.1932,-0.24128,-3.43642
677,60.243,-0.242286,-3.43741
677.5,60.295,-0.23965,-3.43875
678,60.3433,-0.242058,-3.43873
678.5,60.3948,-0.243802,-3.43742
679,60.4453,-0.252598,-3.43741
679.5,60.4958,-0.245121,-3.43741
680,60.5452,-0.244385,-3.43872
680.5,60.5957,-0.243236,-3.43873
681,60.6456,-0.253193,-3.43873
681.5,60.6963,-0.254118,-3.43873
682,60.746,-0.252071,-3.43873
682.5,60.7977,-0.250689,-3.43873
683,60.847,-0.251853,-3.43873
683.5,60.8979,-0.255445,-3.43939
684,60.9467,-0.255095,-3.44001
684.5,60.998,-0.258838,-3.44033
685,61.0489,-0.259169,-3.44037
685.5,61.0986,-0.25946,-3.43935
686,61.1484,-0.259902,-3.43937
686.5,61.1995,-0.258579,-3.44071
687,61.2493,-0.260444,-3.44078
687.5,61.2994,-0.265531,-3.43938
688,61.3504,-0.26182,-3.43938
688.5,61.3999,-0.261199,-3.43932
689,61.4498,-0.267416,-3.44007
689.5,61.5002,-0.265014,-3.44266
690,61.5514,-0.265022,-3.44258
690.5,61.6008,-0.261614,-3.44136
691,61.6518,-0.262509,-3.44136
691.5,61.7018,-0.261915,-3.44136
692,61.7525,-0.257951,-3.44136
692.5,61.8017,-0.261409,-3.44136
693,61.8527,-0.266437,-3.44094
693.5,61.9034,-0.267759,-3.4407
694,61.9536,-0.267733,-3.4407
694.5,62.0054,-0.270226,-3.44168
695,62.0546,-0.277039,-3.44169
695.5,62.1055,-0.272686,-3.44169
696,62.1556,-0.270797,-3.44171
696.5,62.206,-0.275192,-3.44202
697,62.2566,-0.272258,-3.442
697.5,62.3066,-0.278128,-3.44272
698,62.3565,-0.278178,-3.44268
698.5,62.4074,-0.276747,-3.44268
699,62.4585,-0.276114,-3.44268
699.5,62.5095,-0.276818,-3.44268
700,62.5592,-0.280683,-3.44269
700.5,62.6096,-0.279491,-3.44332
701,62.6595,-0.284772,-3.44333
701.5,62.7102,-0.279035,-3.44333
702,62.7589,-0.283496,-3.44234
702.5,62.8107,-0.285203,-3.44268
703,62.8616,-0.287089,-3.44338
703.5,62.9122,-0.292626,-3.44334
704,62.9634,-0.28974,-3.44334
704.5,63.0133,-0.2906,-3.44334
705,63.0634,-0.28738,-3.44334
705.5,63.1142,-0.297397,-3.44334
706,63.1642,-0.297451,-3.44334
706.5,63.2152,-0.300563,-3.44335
707,63.2653,-0.296939,-3.444
707.5,63.3158,-0.288258,-3.44532
708,63.3668,-0.298076,-3.44532
708.5,63.4166,-0.297395,-3.44532
709,63.4672,-0.30105,-3.44488
709.5,63.5181,-0.296319,-3.444
710,63.5693,-0.295173,-3.444
710.5,63.6196,-0.298798,-3.444
711,63.6691,-0.29381,-3.44537
711.5,63.7203,-0.30108,-3.44532
712,63.7705,-0.299602,-3.44665
712.5,63.8192,-0.305104,-3.44664
713,63.8711,-0.302874,-3.44657
713.5,63.9209,-0.308179,-3.44565
714,63.9717,-0.309763,-3.44563
714.5,64.0224,-0.31434,-3.44783
715,64.0705,-0.309413,-3.44828
715.5,64.1223,-0.303074,-3.44827
716,64.174,-0.303344,-3.44729
716.5,64.2218,-0.301024,-3.44729
717,64.2741,-0.307253,-3.44693
717.5,64.3248,-0.313982,-3.44828
718,64.3759,-0.314523,-3.44828
718.5,64.4264,-0.31525,-3.44803
719,64.4771,-0.314253,-3.44701
719.5,64.5277,-0.31003,-3.44696
720,64.5787,-0.310809,-3.44696
720.5,64.629,-0.320048,-3.44696
721,64.6796,-0.312764,-3.44797
721.5,64.73,-0.31909,-3.44926
722,64.7807,-0.321853,-3.44795
722.5,64.8322,-0.326153,-3.44795
723,64.8822,-0.325841,-3.44795
723.5,64.9327,-0.321872,-3.44794
724,64.984,-0.324977,-3.44926
724.5,65.0346,-0.333274,-3.44926
725,65.0869,-0.329276,-3.44926
725.5,65.1366,-0.331113,-3.44926
726,65.1866,-0.33689,-3.44926
726.5,65.2376,-0.335569,-3.44926
727,65.2879,-0.330682,-3.44926
727.5,65.3393,-0.334359,-3.44926
728,65.3902,-0.345327,-3.44926
728.5,65.4407,-0.345009,-3.44852
729,65.4917,-0.343702,-3.44969
729.5,65.5421,-0.338088,-3.44959
730,65.5929,-0.339846,-3.44959
730.5,65.6429,-0.34874,-3.44838
731,65.6943,-0.341455,-3.44795
731.5,65.7451,-0.354119,-3.44794
732,65.795,-0.342972,-3.44827
732.5,65.8453,-0.346451,-3.44827
733,65.896,-0.357525,-3.44827
733.5,65.9471,-0.356371,-3.44828
734,65.9975,-0.358569,-3.44958
734.5,66.0491,-0.359202,-3.4483
735,66.0991,-0.355407,-3.44828
735.5,66.1492,-0.361569,-3.44957
736,66.1999,-0.363731,-3.4496
736.5,66.2516,-0.35921,-3.44991
737,66.3017,-0.361545,-3.44992
737.5,66.3529,-0.367803,-3.45123
738,66.4033,-0.374489,-3.45124
738.5,66.4539,-0.37012,-3.45124
739,66.5043,-0.366407,-3.45124
739.5,66.5545,-0.37733,-3.45124
740,66.6063,-0.37534,-3.45124