File: 01_Data/Helmet_Tetrahedron/STA/N2/10K_min/Helmet_Tetrahedron_STA_N2_10KData_250513_R4.csv
Temp./C,Time/min,DSC/(mW/mg),Mass loss/mg
35.0,0.0,0.615219,-0.020511
35.5,0.0690817,0.620456,-0.0197783
36,0.135725,0.633176,-0.0193549
36.5,0.204941,0.643497,-0.0190883
37,0.265872,0.660829,-0.0177479
37.5,0.336142,0.66776,-0.0188668
38,0.402258,0.686352,-0.0189767
38.5,0.46581,0.694077,-0.0204228
39,0.530498,0.698916,-0.021791
39.5,0.595772,0.709289,-0.0222619
40,0.657738,0.717094,-0.0219577
40.5,0.722757,0.72617,-0.020487
41,0.782117,0.738638,-0.0216437
41.5,0.844355,0.744094,-0.0216462
42,0.905087,0.753993,-0.0216932
42.5,0.962842,0.757198,-0.0223336
43,1.02785,0.75853,-0.0230881
43.5,1.08887,0.764856,-0.0216903
44,1.14754,0.765341,-0.0231579
44.5,1.20834,0.782164,-0.0233089
45,1.26688,0.786474,-0.0227943
45.5,1.3273,0.800288,-0.0233109
46,1.38364,0.806013,-0.0235976
46.5,1.44112,0.819715,-0.0222027
47,1.49982,0.827066,-0.0218291
47.5,1.55862,0.832182,-0.0204829
48,1.61573,0.839351,-0.0218129
48.5,1.66976,0.845764,-0.0218204
49,1.72815,0.851393,-0.0217919
49.5,1.78603,0.859038,-0.0222621
50,1.84295,0.871797,-0.0218584
50.5,1.89824,0.874308,-0.021956
51,1.95519,0.88093,-0.0219715
51.5,2.01008,0.884163,-0.0233366
52,2.06602,0.898765,-0.0232889
52.5,2.12205,0.910086,-0.0239777
53,2.17775,0.916381,-0.0241539
53.5,2.23378,0.924077,-0.0219496
54,2.28765,0.930941,-0.0225258
54.5,2.34121,0.940494,-0.0207554
55,2.39608,0.953641,-0.0216851
55.5,2.45151,0.956595,-0.0209091
56,2.50434,0.960582,-0.021975
56.5,2.55821,0.963516,-0.0233876
57,2.61342,0.969675,-0.0233442
57.5,2.66582,0.977317,-0.0231203
58,2.72,0.98055,-0.022646
58.5,2.77228,0.987875,-0.0219582
59,2.82694,0.988097,-0.0229438
59.5,2.87739,0.985741,-0.0219581
60,2.92974,0.992302,-0.0222256
60.5,2.98382,0.992317,-0.0219071
61,3.03683,0.979456,-0.0219713
61.5,3.08785,0.986319,-0.0232754
62,3.14084,0.993443,-0.0233439
62.5,3.19261,0.990691,-0.0233129
63,3.24463,0.985127,-0.0225562
63.5,3.2977,0.987442,-0.0231216
64,3.34898,0.979975,-0.0232091
64.5,3.40061,0.988354,-0.0230656
65,3.45203,0.988433,-0.0244062
65.5,3.50365,0.99119,-0.0243667
66,3.55509,0.996305,-0.0230614
66.5,3.60696,0.991686,-0.0240691
67,3.65664,0.992843,-0.0227396
67.5,3.70804,0.997853,-0.0230723
68,3.75913,1.00299,-0.0230579
68.5,3.81001,1.00512,-0.0244174
69,3.86029,1.00819,-0.0231716
69.5,3.91208,1.00779,-0.0243882
70,3.96253,1.00909,-0.0244756
70.5,4.01212,1.00947,-0.0244563
71,4.06477,1.0065,-0.024434
71.5,4.11553,1.01691,-0.0253424
72,4.16741,1.01621,-0.0243168
72.5,4.21732,1.02702,-0.0243662
73,4.26724,1.01929,-0.024378
73.5,4.31781,1.0212,-0.0250586
74,4.3688,1.02966,-0.0250316
74.5,4.4178,1.03423,-0.024374
75,4.46867,1.03312,-0.0230719
75.5,4.51916,1.03405,-0.0230501
76,4.56907,1.03882,-0.0230793
76.5,4.61628,1.04254,-0.0230529
77,4.66572,1.04303,-0.0243749
77.5,4.71991,1.05265,-0.0258604
78,4.77022,1.05298,-0.025607
78.5,4.82033,1.05368,-0.0256862
79,4.87093,1.05714,-0.0270089
79.5,4.92084,1.06321,-0.0270171
80,4.9707,1.06254,-0.0256014
80.5,5.02036,1.06732,-0.0258034
81,5.06898,1.07326,-0.0260895
81.5,5.11988,1.07596,-0.0254243
82,5.16892,1.07841,-0.026791
82.5,5.21806,1.08283,-0.0267139
83,5.26796,1.08262,-0.0268575
83.5,5.3169,1.09026,-0.0254708
84,5.3677,1.0927,-0.02547
84.5,5.41759,1.09421,-0.02547
85,5.46818,1.09609,-0.025987
85.5,5.51547,1.09037,-0.026779
86,5.56441,1.0975,-0.0277967
86.5,5.61502,1.09277,-0.0269166
87,5.6623,1.09387,-0.0281122
87.5,5.71325,1.10055,-0.0267856
88,5.76216,1.10144,-0.0267981
88.5,5.81077,1.10102,-0.0258323
89,5.85908,1.10011,-0.0263923
89.5,5.9088,1.10124,-0.0271099
90,5.95906,1.10521,-0.0267325
90.5,6.00705,1.11,-0.02678
91,6.05516,1.10676,-0.0267787
91.5,6.10424,1.11065,-0.0255067
92,6.15411,1.11914,-0.026886
92.5,6.20145,1.12058,-0.0254698
93,6.25054,1.12128,-0.0255067
93.5,6.30032,1.12796,-0.0242266
94,6.34838,1.1228,-0.0254702
94.5,6.39733,1.12672,-0.0247529
95,6.44503,1.13078,-0.0254721
95.5,6.49383,1.13755,-0.0255023
96,6.54259,1.13624,-0.0254678
96.5,6.59139,1.13732,-0.02547
97,6.63885,1.1413,-0.0254674
97.5,6.68727,1.14279,-0.0254703
98,6.73467,1.14937,-0.0254217
98.5,6.78396,1.15043,-0.0271438
99,6.83266,1.14865,-0.0281097
99.5,6.88182,1.16311,-0.028036
100,6.92973,1.15851,-0.0281054
100.5,6.97729,1.15649,-0.0281
101,7.02625,1.16271,-0.0281
101.5,7.07452,1.17103,-0.0281013
102,7.12177,1.16899,-0.0295453
102.5,7.16979,1.1727,-0.0307378
103,7.21822,1.17407,-0.0307384
103.5,7.26731,1.18141,-0.0294289
104,7.3153,1.18473,-0.0298564
104.5,7.36418,1.17924,-0.0294267
105,7.41138,1.18979,-0.02943
105.5,7.46095,1.19175,-0.0294292
106,7.50775,1.19354,-0.0307245
106.5,7.55625,1.19306,-0.0294199
107,7.60469,1.19146,-0.02946
107.5,7.65146,1.19911,-0.028096
108,7.70032,1.20147,-0.0281183
108.5,7.74949,1.20897,-0.0285646
109,7.79619,1.20174,-0.0287604
109.5,7.84449,1.21056,-0.0287597
110,7.89284,1.20891,-0.0300552
110.5,7.94115,1.20867,-0.0312352
111,7.98982,1.21403,-0.0314002
111.5,8.03439,1.21099,-0.0314
112,8.08455,1.21386,-0.031396
112.5,8.13176,1.21615,-0.0323697
113,8.18053,1.21712,-0.03238
113.5,8.22917,1.2257,-0.0323822
114,8.27848,1.22291,-0.0317424
114.5,8.32445,1.23207,-0.0315958
115,8.37292,1.22075,-0.0320637
115.5,8.42072,1.22748,-0.0320596
116,8.46921,1.2258,-0.0327255
116.5,8.51664,1.23199,-0.0320599
117,8.56346,1.23811,-0.0320599
117.5,8.61285,1.23649,-0.0317263
118,8.66066,1.23639,-0.0309281
118.5,8.70924,1.2422,-0.0320588
119,8.75709,1.24471,-0.0320688
119.5,8.8059,1.24951,-0.0293868
120,8.85358,1.25199,-0.02942
120.5,8.89987,1.2525,-0.0294223
121,8.94618,1.25439,-0.0307199
121.5,8.99644,1.25486,-0.0307412
122,9.04399,1.25866,-0.0320377
122.5,9.09198,1.25565,-0.032059
123,9.13914,1.25296,-0.0333676
123.5,9.18704,1.24802,-0.0334242
124,9.23557,1.25306,-0.0346883
124.5,9.28256,1.25022,-0.0346897
125,9.3304,1.25628,-0.0353445
125.5,9.37553,1.26074,-0.03535
126,9.42579,1.26807,-0.0353501
126.5,9.47409,1.26299,-0.0349132
127,9.52195,1.26194,-0.0340408
127.5,9.56914,1.26798,-0.034055
128,9.61691,1.27149,-0.0346941
128.5,9.66506,1.2684,-0.0351339
129,9.71212,1.26957,-0.0360096
129.5,9.75948,1.26662,-0.0354716
130,9.80635,1.26633,-0.0360547
130.5,9.85424,1.26344,-0.0360099
131,9.90234,1.26914,-0.0360748
131.5,9.95012,1.27344,-0.0346887
132,9.99692,1.27511,-0.03469
132.5,10.0449,1.28159,-0.03469
133,10.0924,1.27944,-0.03469
133.5,10.137,1.27086,-0.0346614
134,10.1882,1.28337,-0.0333723
134.5,10.2352,1.28197,-0.0320982
135,10.283,1.28972,-0.0333722
135.5,10.3313,1.28314,-0.0334027
136,10.3779,1.29043,-0.0325307
136.5,10.4261,1.29244,-0.0333854
137,10.4724,1.29279,-0.0362113
137.5,10.5195,1.29494,-0.0378015
138,10.5665,1.29092,-0.0378703
138.5,10.6147,1.29639,-0.0378499
139,10.6618,1.29981,-0.0365621
139.5,10.7094,1.29847,-0.0365656
140,10.7567,1.30802,-0.0352398
140.5,10.8038,1.3045,-0.0352399
141,10.8518,1.30693,-0.035284
141.5,10.8956,1.30164,-0.0345985
142,10.946,1.305,-0.0339384
142.5,10.993,1.31391,-0.0352418
143,11.0409,1.31181,-0.0365766
143.5,11.0875,1.30196,-0.0369852
144,11.1348,1.3133,-0.0381972
144.5,11.1821,1.30574,-0.0395232
145,11.2287,1.30782,-0.03952
145.5,11.2746,1.31349,-0.0395255
146,11.3216,1.31475,-0.0388833
146.5,11.3708,1.31105,-0.0388721
147,11.4177,1.31329,-0.0398474
147.5,11.4648,1.30982,-0.03985
148,11.5115,1.31416,-0.03985
148.5,11.56,1.32111,-0.0398409
149,11.6068,1.31609,-0.0385305
149.5,11.6535,1.32141,-0.0384985
150,11.7011,1.32949,-0.0388248
150.5,11.749,1.32848,-0.0388602
151,11.7957,1.32613,-0.03886
151.5,11.842,1.31662,-0.03886
152,11.8898,1.32401,-0.0388596
152.5,11.9364,1.32002,-0.0401872
153,11.9837,1.32501,-0.041477
153.5,12.0311,1.31928,-0.0415007
154,12.0774,1.32307,-0.0428276
154.5,12.125,1.32983,-0.0414906
155,12.1719,1.3304,-0.04149
155.5,12.2192,1.32583,-0.04149
156,12.2671,1.32554,-0.04149
156.5,12.3119,1.33709,-0.0414918
157,12.3603,1.33224,-0.0400962
157.5,12.4079,1.32175,-0.0401801
158,12.455,1.33056,-0.0402273
158.5,12.502,1.33101,-0.0415135
159,12.5495,1.34304,-0.0428746
159.5,12.596,1.33744,-0.0415001
160,12.6433,1.33751,-0.0415
160.5,12.6911,1.34578,-0.0414994
161,12.7394,1.34279,-0.0422294
161.5,12.7863,1.35311,-0.0434863
162,12.8327,1.35306,-0.0424966
162.5,12.8796,1.35266,-0.0421595
163,12.9272,1.34897,-0.0421587
163.5,12.9741,1.34076,-0.042852
164,13.0209,1.34246,-0.0428219
164.5,13.0688,1.35548,-0.0440706
165,13.1158,1.35451,-0.0431394
165.5,13.1629,1.35859,-0.0432573
166,13.211,1.35715,-0.0444597
166.5,13.2567,1.36199,-0.0444732
167,13.3047,1.36382,-0.0457659
167.5,13.3515,1.36777,-0.0456886
168,13.3982,1.3717,-0.0457683
168.5,13.447,1.37346,-0.0458776
169,13.4934,1.37997,-0.0470986
169.5,13.5402,1.38337,-0.0471
170,13.5881,1.38734,-0.0471002
170.5,13.6348,1.39339,-0.0459361
171,13.6818,1.38547,-0.0445163
171.5,13.7298,1.38926,-0.0445257
172,13.7762,1.39749,-0.0431501
172.5,13.8232,1.40666,-0.04315
173,13.8706,1.40658,-0.04315
173.5,13.9183,1.40308,-0.04315
174,13.9652,1.40727,-0.0431505
174.5,14.0118,1.39658,-0.0442694
175,14.0584,1.3951,-0.0454506
175.5,14.1065,1.39777,-0.04545
176,14.1539,1.39641,-0.0454549
176.5,14.2009,1.40574,-0.0441344
177,14.2474,1.4066,-0.0441374
177.5,14.2949,1.39893,-0.0444569
178,14.3414,1.40688,-0.0457841
178.5,14.3892,1.40374,-0.04578
179,14.4359,1.40312,-0.0458069
179.5,14.4836,1.40472,-0.0470988
180,14.5298,1.40429,-0.0471
180.5,14.5779,1.40439,-0.0471
181,14.6244,1.40227,-0.0471
181.5,14.6713,1.40348,-0.0471
182,14.7189,1.40812,-0.0471002
182.5,14.7649,1.40558,-0.0466636
183,14.8114,1.401,-0.0461103
183.5,14.8601,1.3971,-0.0461083
184,14.9082,1.39541,-0.0457835
184.5,14.954,1.40026,-0.0457754
185,15.0005,1.39514,-0.0471085
185.5,15.0464,1.40012,-0.0470997
186,15.0946,1.39747,-0.0457999
186.5,15.1405,1.39359,-0.0457355
187,15.1883,1.40017,-0.0484047
187.5,15.2348,1.39527,-0.0497511
188,15.2811,1.39609,-0.0497365
188.5,15.3294,1.40324,-0.0510937
189,15.3768,1.40071,-0.0510404
189.5,15.4238,1.40353,-0.0497295
190,15.4714,1.39951,-0.04973
190.5,15.5171,1.39842,-0.0497301
191,15.5649,1.39885,-0.0502469
191.5,15.6127,1.40004,-0.0510493
192,15.6589,1.4076,-0.0510463
192.5,15.7062,1.39939,-0.0523674
193,15.7532,1.39284,-0.05237
193.5,15.7994,1.39933,-0.05237
194,15.8472,1.40544,-0.05237
194.5,15.894,1.40443,-0.05237
195,15.9402,1.40745,-0.0523639
195.5,15.9881,1.4005,-0.0530152
196,16.0326,1.399,-0.05303
196.5,16.0818,1.40553,-0.05303
197,16.1284,1.40584,-0.05303
197.5,16.175,1.41235,-0.05303
198,16.2231,1.40435,-0.05303
198.5,16.2696,1.39578,-0.05303
199,16.3171,1.40115,-0.05303
199.5,16.3633,1.40739,-0.0532266
200,16.4103,1.40589,-0.0535387
200.5,16.4562,1.40367,-0.0526913
201,16.5044,1.40795,-0.05269
201.5,16.5519,1.4043,-0.0526866
202,16.5975,1.40712,-0.0540609
202.5,16.6441,1.40419,-0.0540104
203,16.6925,1.3999,-0.0546387
203.5,16.7389,1.39546,-0.0549621
204,16.7862,1.39925,-0.0556152
204.5,16.8331,1.39947,-0.05664
205,16.8803,1.40636,-0.05662
205.5,16.9272,1.406,-0.0573005
206,16.975,1.39977,-0.0572702
206.5,17.021,1.40023,-0.0586187
207,17.068,1.39598,-0.05862
207.5,17.1149,1.39921,-0.05864
208,17.161,1.40662,-0.0599401
208.5,17.2082,1.39932,-0.0599449
209,17.2556,1.39678,-0.0586124
209.5,17.3027,1.39417,-0.05862
210,17.3502,1.39428,-0.058618
210.5,17.3963,1.39304,-0.0599303
211,17.4442,1.4011,-0.0620606
211.5,17.4909,1.3985,-0.0625814
212,17.5384,1.39538,-0.0613117
212.5,17.5851,1.39588,-0.0625819
213,17.6318,1.38827,-0.06258
213.5,17.6774,1.39095,-0.0629829
214,17.727,1.39219,-0.064539
214.5,17.7726,1.38866,-0.06455
215,17.8201,1.38702,-0.06455
215.5,17.8679,1.38682,-0.0645442
216,17.9135,1.39799,-0.0635547
216.5,17.9614,1.39552,-0.064233
217,18.0088,1.38256,-0.0655333
217.5,18.0559,1.3885,-0.0681917
218,18.1027,1.39138,-0.0694975
218.5,18.1476,1.39133,-0.070796
219,18.1977,1.39463,-0.07212
219.5,18.2453,1.39456,-0.0720935
220,18.2908,1.38999,-0.0734182
220.5,18.3387,1.38315,-0.07213
221,18.3848,1.38606,-0.07213
221.5,18.4326,1.38526,-0.0721752
222,18.4807,1.38685,-0.0736442
222.5,18.527,1.38391,-0.0734603
223,18.5746,1.38402,-0.0734498
223.5,18.6216,1.38135,-0.0734518
224,18.6687,1.37871,-0.0747498
224.5,18.7166,1.37564,-0.07477
225,18.763,1.37836,-0.07477
225.5,18.8097,1.36487,-0.0754258
226,18.8564,1.36821,-0.0773924
226.5,18.9042,1.36551,-0.0797162
227,18.9509,1.35488,-0.0813477
227.5,18.9977,1.35647,-0.0817752
228,19.0439,1.35682,-0.0826684
228.5,19.0918,1.35001,-0.0854619
229,19.1392,1.34621,-0.0853041
229.5,19.1867,1.34352,-0.0877289
230,19.2338,1.33996,-0.0895181
230.5,19.2804,1.3321,-0.0911141
231,19.3274,1.32735,-0.0910547
231.5,19.3746,1.32286,-0.092349
232,19.421,1.32299,-0.0933178
232.5,19.4682,1.31734,-0.0933199
233,19.5152,1.31862,-0.0933131
233.5,19.5629,1.31025,-0.0933986
234,19.6092,1.31333,-0.0939325
234.5,19.657,1.30924,-0.0949936
235,19.704,1.30477,-0.0963663
235.5,19.7514,1.29478,-0.098997
236,19.7978,1.2922,-0.101093
236.5,19.8443,1.28052,-0.102714
237,19.8923,1.28347,-0.104227
237.5,19.939,1.27678,-0.106974
238,19.986,1.26731,-0.108346
238.5,20.0329,1.26591,-0.109619
239,20.0803,1.25477,-0.111167
239.5,20.1266,1.25591,-0.11263
240,20.174,1.25054,-0.114465
240.5,20.2217,1.2303,-0.116594
241,20.2682,1.22697,-0.118006
241.5,20.3152,1.22462,-0.11933
242,20.3628,1.21394,-0.120962
242.5,20.4093,1.21005,-0.122403
243,20.4563,1.20444,-0.125018
243.5,20.5034,1.19115,-0.126385
244,20.5504,1.1821,-0.128229
244.5,20.5985,1.17173,-0.131054
245,20.6448,1.16504,-0.13242
245.5,20.691,1.15743,-0.133998
246,20.7387,1.14918,-0.136956
246.5,20.7861,1.13729,-0.137831
247,20.8333,1.13067,-0.139747
247.5,20.8805,1.11254,-0.14282
248,20.9275,1.10404,-0.145811
248.5,20.9731,1.09587,-0.14886
249,21.0214,1.09243,-0.151566
249.5,21.0685,1.10052,-0.15377
250,21.1141,1.1374,-0.158103
250.5,21.1649,1.22237,-0.161608
251,21.2127,1.31869,-0.164884
251.5,21.2614,1.40883,-0.168775
252,21.3072,1.47734,-0.172633
252.5,21.3551,1.53529,-0.175037
253,21.4053,1.56918,-0.178271
253.5,21.4532,1.60824,-0.182299
254,21.5002,1.63508,-0.186841
254.5,21.5481,1.65014,-0.191518
255,21.5952,1.66429,-0.195159
255.5,21.6431,1.68014,-0.20243
256,21.691,1.67472,-0.20726
256.5,21.7383,1.68312,-0.210678
257,21.7836,1.68846,-0.213979
257.5,21.8302,1.70131,-0.21841
258,21.8807,1.70951,-0.222103
258.5,21.9279,1.71235,-0.227546
259,21.9749,1.71838,-0.233906
259.5,22.0231,1.71659,-0.239869
260,22.0706,1.72022,-0.24262
260.5,22.1176,1.72962,-0.246339
261,22.1648,1.73823,-0.251348
261.5,22.2126,1.74699,-0.25788
262,22.2599,1.74947,-0.263911
262.5,22.3081,1.75448,-0.269466
263,22.3559,1.76019,-0.275032
263.5,22.402,1.77245,-0.278495
264,22.4501,1.77745,-0.283492
264.5,22.4971,1.79217,-0.28889
265,22.5454,1.80637,-0.296162
265.5,22.5926,1.80673,-0.302467
266,22.6396,1.82332,-0.307997
266.5,22.6874,1.83263,-0.312855
267,22.735,1.84786,-0.318891
267.5,22.7824,1.86617,-0.32657
268,22.8294,1.87001,-0.333546
268.5,22.8773,1.89937,-0.340868
269,22.925,1.90804,-0.347342
269.5,22.9724,1.92462,-0.353289
270,23.02,1.94121,-0.362342
270.5,23.0683,1.95902,-0.370558
271,23.1151,1.97796,-0.379576
271.5,23.1628,1.99649,-0.388625
272,23.2102,2.01184,-0.396365
272.5,23.2576,2.03281,-0.404134
273,23.3053,2.05564,-0.411974
273.5,23.354,2.08316,-0.421431
274,23.401,2.10018,-0.430189
274.5,23.4485,2.1198,-0.441051
275,23.4966,2.14416,-0.44978
275.5,23.545,2.18151,-0.458341
276,23.5923,2.20198,-0.469122
276.5,23.6402,2.23381,-0.477671
277,23.6868,2.26278,-0.486283
277.5,23.7357,2.30033,-0.497179
278,23.7841,2.33318,-0.509831
278.5,23.8313,2.37228,-0.521999
279,23.88,2.4053,-0.53363
279.5,23.9277,2.43965,-0.546438
280,23.9753,2.48199,-0.559132
280.5,24.0231,2.53313,-0.571117
281,24.0719,2.5744,-0.584959
281.5,24.1195,2.61782,-0.597887
282,24.1685,2.66633,-0.612724
282.5,24.216,2.72064,-0.626891
283,24.2641,2.77112,-0.643116
283.5,24.3116,2.82138,-0.659643
284,24.3603,2.87859,-0.676098
284.5,24.4089,2.93432,-0.692877
285,24.4574,2.98784,-0.710494
285.5,24.5058,3.04139,-0.72894
286,24.5527,3.0997,-0.746954
286.5,24.6022,3.16317,-0.766369
287,24.6497,3.21756,-0.785394
287.5,24.699,3.27508,-0.805576
288,24.7462,3.31821,-0.827084
288.5,24.7949,3.36954,-0.849534
289,24.843,3.41749,-0.870953
289.5,24.8913,3.4615,-0.893974
290,24.9385,3.49859,-0.91589
290.5,24.9872,3.54013,-0.941537
291,25.0364,3.57529,-0.966536
291.5,25.0839,3.60804,-0.990096
292,25.1308,3.6188,-1.0138
292.5,25.1788,3.63612,-1.04042
293,25.2273,3.65195,-1.06694
293.5,25.2734,3.6547,-1.09385
294,25.3215,3.66064,-1.12116
294.5,25.3692,3.65686,-1.14682
295,25.4176,3.64376,-1.17688
295.5,25.4651,3.62077,-1.20376
296,25.512,3.60484,-1.23137
296.5,25.5587,3.57488,-1.25865
297,25.606,3.53719,-1.28509
297.5,25.6542,3.49877,-1.31245
298,25.7,3.45687,-1.33973
298.5,25.748,3.41432,-1.3674
299,25.7951,3.37397,-1.39399
299.5,25.842,3.34053,-1.42005
300,25.8886,3.28928,-1.44627
300.5,25.9369,3.24499,-1.47319
301,25.9824,3.20185,-1.5015
301.5,26.0305,3.16358,-1.52955
302,26.0776,3.11631,-1.55649
302.5,26.1244,3.09446,-1.58301
303,26.1718,3.0325,-1.60796
303.5,26.2186,3.0029,-1.6311
304,26.2664,2.96709,-1.65727
304.5,26.3128,2.93187,-1.6813
305,26.3611,2.89659,-1.70645
305.5,26.4078,2.86549,-1.72946
306,26.4541,2.83094,-1.75231
306.5,26.5011,2.79362,-1.77546
307,26.5494,2.74834,-1.80011
307.5,26.596,2.71232,-1.82282
308,26.6442,2.67679,-1.84717
308.5,26.6916,2.6476,-1.86859
309,26.7376,2.68889,-1.8897
309.5,26.7868,2.72007,-1.91446
310,26.8342,2.68468,-1.93674
310.5,26.8815,2.66056,-1.95678
311,26.9293,2.62808,-1.97618
311.5,26.9765,2.58875,-1.99394
312,27.0242,2.55061,-2.01352
312.5,27.0708,2.50785,-2.03322
313,27.1185,2.46728,-2.05052
313.5,27.1657,2.42635,-2.06734
314,27.2122,2.37552,-2.08397
314.5,27.2599,2.34193,-2.09989
315,27.307,2.30362,-2.11523
315.5,27.3537,2.26082,-2.13129
316,27.4008,2.22074,-2.14584
316.5,27.4475,2.17538,-2.15964
317,27.4952,2.14969,-2.17369
317.5,27.5423,2.10733,-2.18751
318,27.5891,2.0599,-2.20252
318.5,27.6376,2.02747,-2.21738
319,27.6838,1.98874,-2.23019
319.5,27.7317,1.96171,-2.24215
320,27.7789,1.91974,-2.25441
320.5,27.8247,1.88565,-2.26697
321,27.8729,1.85414,-2.28042
321.5,27.9205,1.81796,-2.29446
322,27.9671,1.78036,-2.30553
322.5,28.0144,1.73975,-2.31558
323,28.0618,1.70498,-2.32779
323.5,28.1087,1.67836,-2.33931
324,28.1565,1.63806,-2.35054
324.5,28.2035,1.61297,-2.36122
325,28.2517,1.56857,-2.37125
325.5,28.2979,1.54555,-2.37946
326,28.346,1.51198,-2.38868
326.5,28.3934,1.47784,-2.39953
327,28.4407,1.44155,-2.40928
327.5,28.4881,1.40923,-2.41877
328,28.5345,1.37744,-2.42608
328.5,28.5824,1.34579,-2.43388
329,28.6299,1.31996,-2.44208
329.5,28.6769,1.29082,-2.45064
330,28.7241,1.26156,-2.45975
330.5,28.7726,1.23542,-2.46849
331,28.8197,1.20076,-2.47593
331.5,28.867,1.17371,-2.48388
332,28.9155,1.14668,-2.49178
332.5,28.9624,1.11525,-2.49728
333,29.0098,1.09075,-2.505
333.5,29.0576,1.06203,-2.51155
334,29.1044,1.04089,-2.51856
334.5,29.1519,1.01794,-2.52477
335,29.1995,0.987991,-2.52932
335.5,29.2473,0.969371,-2.53497
336,29.2944,0.941811,-2.54126
336.5,29.3426,0.921189,-2.54773
337,29.3905,0.894014,-2.55369
337.5,29.4377,0.866421,-2.56036
338,29.4853,0.851614,-2.56684
338.5,29.5333,0.823264,-2.5723
339,29.5801,0.80378,-2.57628
339.5,29.6282,0.782329,-2.58141
340,29.6763,0.757306,-2.58688
340.5,29.7237,0.733502,-2.59155
341,29.7714,0.72354,-2.59714
341.5,29.8186,0.68976,-2.6031
342,29.8671,0.678561,-2.60905
342.5,29.9134,0.664281,-2.61282
343,29.9629,0.648673,-2.61641
343.5,30.01,0.627981,-2.62157
344,30.0581,0.606729,-2.6251
344.5,30.1054,0.594201,-2.62827
345,30.1535,0.580632,-2.63158
345.5,30.2009,0.557827,-2.63524
346,30.2497,0.543911,-2.63859
346.5,30.2973,0.519242,-2.64243
347,30.3446,0.511515,-2.64647
347.5,30.3937,0.49794,-2.64924
348,30.441,0.480334,-2.65043
348.5,30.4873,0.468751,-2.65287
349,30.5369,0.460789,-2.65568
349.5,30.5839,0.437662,-2.65855
350,30.6319,0.429272,-2.6604
350.5,30.6793,0.415069,-2.66314
351,30.7278,0.3995,-2.66784
351.5,30.7755,0.391429,-2.67147
352,30.8236,0.368273,-2.67273
352.5,30.8708,0.366334,-2.67541
353,30.9184,0.350882,-2.67735
353.5,30.967,0.343377,-2.68004
354,31.0147,0.331785,-2.68289
354.5,31.0642,0.329666,-2.68232
355,31.1101,0.312291,-2.68447
355.5,31.1587,0.315026,-2.6859
356,31.2068,0.299668,-2.68816
356.5,31.2559,0.285981,-2.69062
357,31.3038,0.27847,-2.69352
357.5,31.3524,0.27558,-2.69619
358,31.3995,0.276469,-2.6981
358.5,31.4491,0.273638,-2.69832
359,31.4962,0.262986,-2.70244
359.5,31.5454,0.263255,-2.70395
360,31.5928,0.261781,-2.70525
360.5,31.6402,0.258487,-2.70697
361,31.6884,0.253746,-2.70819
361.5,31.7384,0.254805,-2.70901
362,31.7851,0.236613,-2.70889
362.5,31.8327,0.240903,-2.70998
363,31.8818,0.240693,-2.71181
363.5,31.93,0.245198,-2.71305
364,31.9777,0.235841,-2.71441
364.5,32.0262,0.234429,-2.71436
365,32.0746,0.236544,-2.71562
365.5,32.1213,0.228586,-2.71663
366,32.1705,0.228659,-2.71701
366.5,32.2179,0.236366,-2.71831
367,32.2653,0.228773,-2.72015
367.5,32.315,0.22883,-2.72229
368,32.3638,0.228287,-2.72453
368.5,32.4123,0.230537,-2.72737
369,32.4603,0.23063,-2.72846
369.5,32.5086,0.234693,-2.72904
370,32.556,0.231562,-2.7304
370.5,32.6044,0.239013,-2.7304
371,32.6534,0.237486,-2.7317
371.5,32.7014,0.234923,-2.73311
372,32.7502,0.245878,-2.73305
372.5,32.7977,0.241543,-2.73434
373,32.8459,0.247709,-2.73661
373.5,32.8945,0.235971,-2.73853
374,32.9428,0.2384,-2.73887
374.5,32.9893,0.248521,-2.7394
375,33.0384,0.247707,-2.74119
375.5,33.0882,0.245193,-2.74118
376,33.1362,0.249951,-2.74249
376.5,33.1847,0.254518,-2.74392
377,33.2336,0.24985,-2.74522
377.5,33.2815,0.245528,-2.74568
378,33.3306,0.258807,-2.74758
378.5,33.3777,0.260584,-2.74874
379,33.4274,0.254243,-2.75059
379.5,33.4755,0.25629,-2.75188
380,33.5233,0.259227,-2.75296
380.5,33.5719,0.262471,-2.75373
381,33.6211,0.260352,-2.75476
381.5,33.6687,0.260515,-2.75472
382,33.7163,0.257627,-2.75588
382.5,33.7654,0.273452,-2.7572
383,33.8138,0.270623,-2.75831
383.5,33.8627,0.268846,-2.75842
384,33.9113,0.270209,-2.76087
384.5,33.9596,0.275454,-2.76246
385,34.0079,0.275675,-2.76376
385.5,34.057,0.278299,-2.76519
386,34.1046,0.283417,-2.76625
386.5,34.1532,0.275707,-2.76689
387,34.2015,0.2833,-2.76793
387.5,34.2505,0.274657,-2.7679
388,34.2983,0.281845,-2.76937
388.5,34.347,0.280868,-2.77203
389,34.3947,0.285681,-2.77367
389.5,34.4436,0.284884,-2.77644
390,34.4932,0.28483,-2.77898
390.5,34.5409,0.286543,-2.78029
391,34.5894,0.284588,-2.78035
391.5,34.6383,0.28764,-2.78273
392,34.6862,0.291753,-2.78473
392.5,34.7349,0.282244,-2.78631
393,34.7835,0.292561,-2.78668
393.5,34.8329,0.292604,-2.78943
394,34.8814,0.290684,-2.79068
394.5,34.9287,0.296331,-2.79335
395,34.9781,0.295292,-2.79633
395.5,35.0268,0.288245,-2.79925
396,35.076,0.292406,-2.80138
396.5,35.1243,0.286475,-2.80298
397,35.1704,0.284439,-2.80441
397.5,35.2212,0.288752,-2.80732
398,35.2695,0.286568,-2.81104
398.5,35.318,0.289517,-2.81275
399,35.3665,0.287611,-2.81515
399.5,35.416,0.288296,-2.81704
400,35.4643,0.294187,-2.81858
400.5,35.5124,0.290927,-2.82047
401,35.5613,0.289433,-2.82141
401.5,35.6093,0.290546,-2.82369
402,35.6571,0.288939,-2.82483
402.5,35.7066,0.291952,-2.82953
403,35.7549,0.288469,-2.83258
403.5,35.804,0.294161,-2.83543
404,35.8529,0.291498,-2.83805
404.5,35.8994,0.287,-2.84008
405,35.9504,0.295257,-2.84181
405.5,35.9982,0.291162,-2.84443
406,36.047,0.292615,-2.8458
406.5,36.096,0.286404,-2.84718
407,36.1444,0.285183,-2.84914
407.5,36.1932,0.292733,-2.8534
408,36.2418,0.290471,-2.85532
408.5,36.2906,0.293328,-2.85733
409,36.3391,0.291811,-2.86105
409.5,36.3863,0.290281,-2.86486
410,36.4355,0.285337,-2.86811
410.5,36.4847,0.294405,-2.87174
411,36.5336,0.285789,-2.87543
411.5,36.5811,0.287056,-2.87881
412,36.6309,0.284337,-2.88214
412.5,36.6786,0.274091,-2.88638
413,36.7266,0.277679,-2.8897
413.5,36.7763,0.280062,-2.89433
414,36.8248,0.275532,-2.89642
414.5,36.8733,0.272438,-2.89955
415,36.9214,0.277191,-2.90358
415.5,36.9706,0.270174,-2.90801
416,37.0197,0.260678,-2.91251
416.5,37.0679,0.270875,-2.9164
417,37.1166,0.267208,-2.92121
417.5,37.165,0.266743,-2.92433
418,37.2127,0.268045,-2.9273
418.5,37.262,0.263482,-2.93223
419,37.3108,0.255772,-2.93703
419.5,37.3598,0.259608,-2.94018
420,37.4072,0.263183,-2.94363
420.5,37.4569,0.269078,-2.94887
421,37.5054,0.270141,-2.95538
421.5,37.5543,0.266957,-2.95922
422,37.6036,0.262317,-2.96159
422.5,37.6518,0.266391,-2.96428
423,37.7003,0.258547,-2.96733
423.5,37.7494,0.268241,-2.97374
424,37.7976,0.270422,-2.97812
424.5,37.8465,0.26519,-2.98169
425,37.8949,0.265946,-2.98646
425.5,37.944,0.27171,-2.99083
426,37.9926,0.277941,-2.99477
426.5,38.0416,0.275275,-3.00066
427,38.0901,0.273833,-3.00667
427.5,38.1395,0.285147,-3.01356
428,38.1881,0.281241,-3.01996
428.5,38.2375,0.289706,-3.02482
429,38.2859,0.291817,-3.02948
429.5,38.3353,0.291204,-3.03463
430,38.3842,0.292995,-3.04098
430.5,38.4312,0.299078,-3.04363
431,38.4811,0.309497,-3.04879
431.5,38.5307,0.312082,-3.05462
432,38.579,0.316266,-3.05886
432.5,38.6285,0.32006,-3.06477
433,38.6771,0.330258,-3.07014
433.5,38.7251,0.325344,-3.07619
434,38.7748,0.331458,-3.08187
434.5,38.8244,0.340973,-3.08897
435,38.8734,0.344847,-3.09593
435.5,38.9227,0.347063,-3.10018
436,38.9716,0.354185,-3.10625
436.5,39.0207,0.360605,-3.11187
437,39.0698,0.367617,-3.118
437.5,39.1186,0.376823,-3.12385
438,39.167,0.383277,-3.12985
438.5,39.2156,0.385881,-3.13545
439,39.2652,0.387877,-3.14062
439.5,39.3135,0.403424,-3.1461
440,39.3606,0.398841,-3.15248
440.5,39.4124,0.407985,-3.15845
441,39.4607,0.413328,-3.16318
441.5,39.5101,0.427114,-3.16944
442,39.5588,0.42636,-3.17535
442.5,39.608,0.43042,-3.18235
443,39.6575,0.440079,-3.18939
443.5,39.7063,0.439852,-3.1964
444,39.7554,0.449378,-3.20402
444.5,39.8042,0.455178,-3.21073
445,39.8534,0.462171,-3.21804
445.5,39.9008,0.465648,-3.22362
446,39.9504,0.47232,-3.22899
446.5,39.9995,0.477792,-3.23334
447,40.0489,0.479634,-3.23875
447.5,40.0973,0.483272,-3.24456
448,40.1473,0.487205,-3.25015
448.5,40.1958,0.497978,-3.25867
449,40.2442,0.503641,-3.26475
449.5,40.2936,0.510204,-3.27172
450,40.3424,0.507356,-3.2759
450.5,40.3916,0.513894,-3.28231
451,40.4391,0.520807,-3.28836
451.5,40.4903,0.522846,-3.29389
452,40.5387,0.522862,-3.30019
452.5,40.5866,0.531149,-3.30592
453,40.6369,0.530456,-3.30938
453.5,40.6864,0.531974,-3.31322
454,40.7351,0.536551,-3.32159
454.5,40.7839,0.536416,-3.3281
455,40.8327,0.537792,-3.33401
455.5,40.8825,0.538667,-3.3384
456,40.9317,0.538971,-3.34421
456.5,40.9801,0.537517,-3.34888
457,41.0296,0.546892,-3.35545
457.5,41.0782,0.541457,-3.36031
458,41.1263,0.539443,-3.36663
458.5,41.177,0.537592,-3.37452
459,41.2247,0.536828,-3.38041
459.5,41.2731,0.536795,-3.38573
460,41.3236,0.529678,-3.39048
460.5,41.3724,0.524942,-3.39507
461,41.4217,0.532285,-3.40068
461.5,41.4709,0.519228,-3.40664
462,41.5194,0.531701,-3.41248
462.5,41.568,0.523954,-3.41748
463,41.6176,0.537938,-3.42299
463.5,41.6665,0.538427,-3.42707
464,41.7153,0.537336,-3.43331
464.5,41.7646,0.532114,-3.43721
465,41.8137,0.527158,-3.44144
465.5,41.8633,0.527676,-3.44688
466,41.9129,0.520593,-3.45298
466.5,41.962,0.524135,-3.45918
467,42.0079,0.518196,-3.46511
467.5,42.0594,0.518707,-3.47003
468,42.1084,0.513525,-3.4719
468.5,42.1575,0.509564,-3.47679
469,42.2074,0.522416,-3.4814
469.5,42.2561,0.513552,-3.48534
470,42.3051,0.510274,-3.49087
470.5,42.3538,0.51091,-3.49603
471,42.4031,0.511291,-3.50244
471.5,42.4528,0.50016,-3.50802
472,42.5007,0.496227,-3.51158
472.5,42.5506,0.493821,-3.51517
473,42.5999,0.484905,-3.51947
473.5,42.6485,0.486826,-3.52429
474,42.6975,0.48443,-3.52857
474.5,42.7464,0.485243,-3.53235
475,42.7961,0.484433,-3.53824
475.5,42.8454,0.480018,-3.5426
476,42.8939,0.471724,-3.54725
476.5,42.9438,0.462479,-3.5514
477,42.9929,0.461444,-3.55559
477.5,43.0417,0.463142,-3.55748
478,43.091,0.462217,-3.56147
478.5,43.1368,0.452482,-3.56598
479,43.1895,0.445167,-3.57098
479.5,43.2382,0.445792,-3.57643
480,43.2871,0.42868,-3.58069
480.5,43.3365,0.428794,-3.5844
481,43.3852,0.430693,-3.58772
481.5,43.4327,0.422336,-3.59055
482,43.4839,0.428118,-3.59422
482.5,43.5331,0.424131,-3.59729
483,43.5828,0.407956,-3.59957
483.5,43.6311,0.403446,-3.60274
484,43.68,0.404876,-3.60749
484.5,43.7299,0.403488,-3.60917
485,43.7785,0.397737,-3.61394
485.5,43.8278,0.393813,-3.61847
486,43.877,0.386087,-3.62231
486.5,43.9262,0.384073,-3.62499
487,43.9756,0.380207,-3.62624
487.5,44.0249,0.374287,-3.62824
488,44.0738,0.377716,-3.6302
488.5,44.1239,0.370004,-3.63408
489,44.1724,0.368222,-3.63824
489.5,44.2214,0.369719,-3.63919
490,44.2705,0.364676,-3.64375
490.5,44.3202,0.359018,-3.64692
491,44.3688,0.356091,-3.64968
491.5,44.419,0.349067,-3.65093
492,44.4683,0.349532,-3.65223
492.5,44.5166,0.353204,-3.65324
493,44.5657,0.337491,-3.65632
493.5,44.6155,0.335782,-3.65829
494,44.6645,0.333562,-3.66042
494.5,44.7132,0.329893,-3.6613
495,44.7625,0.339658,-3.66241
495.5,44.8125,0.325928,-3.66386
496,44.8608,0.325819,-3.66706
496.5,44.9102,0.320844,-3.67172
497,44.9601,0.317189,-3.67553
497.5,45.0087,0.318354,-3.67782
498,45.0585,0.307738,-3.67858
498.5,45.1066,0.305222,-3.682
499,45.1565,0.303483,-3.68419
499.5,45.2066,0.301288,-3.6842
500,45.2551,0.297356,-3.68545
500.5,45.3048,0.304668,-3.68681
501,45.354,0.297701,-3.68683
501.5,45.4035,0.296043,-3.68581
502,45.4523,0.298689,-3.68759
502.5,45.5016,0.296905,-3.69155
503,45.5519,0.295862,-3.69299
503.5,45.6013,0.298414,-3.6944
504,45.6503,0.293232,-3.69554
504.5,45.7002,0.295703,-3.69718
505,45.7496,0.292051,-3.69962
505.5,45.7991,0.288556,-3.70142
506,45.8481,0.287327,-3.70138
506.5,45.8983,0.287892,-3.70008
507,45.9469,0.285318,-3.70144
507.5,45.996,0.285032,-3.70144
508,46.0465,0.288385,-3.70275
508.5,46.0958,0.285603,-3.70538
509,46.1447,0.285162,-3.70729
509.5,46.1956,0.284312,-3.70947
510,46.244,0.282818,-3.70943
510.5,46.294,0.273294,-3.70816
511,46.3429,0.279651,-3.70891
511.5,46.3927,0.277355,-3.70944
512,46.4418,0.271142,-3.71079
512.5,46.4909,0.277072,-3.71336
513,46.5407,0.272846,-3.7134
513.5,46.5906,0.268944,-3.71471
514,46.6402,0.269512,-3.71348
514.5,46.6893,0.270539,-3.71228
515,46.7382,0.270888,-3.71197
515.5,46.7879,0.274209,-3.71197
516,46.837,0.27085,-3.71199
516.5,46.8862,0.271523,-3.71065
517,46.9361,0.270782,-3.71065
517.5,46.9846,0.269526,-3.71345
518,47.036,0.275093,-3.71604
518.5,47.0854,0.273017,-3.71727
519,47.1347,0.281106,-3.71866
519.5,47.1829,0.274752,-3.71868
520,47.2326,0.275522,-3.71735
520.5,47.2825,0.274613,-3.71725
521,47.3324,0.279823,-3.71863
521.5,47.3815,0.279527,-3.72035
522,47.4319,0.274609,-3.72018
522.5,47.4811,0.284144,-3.72301
523,47.5294,0.284346,-3.72394
523.5,47.5796,0.280023,-3.72265
524,47.6299,0.288073,-3.72262
524.5,47.6786,0.291195,-3.72254
525,47.7281,0.291597,-3.72262
525.5,47.7773,0.296312,-3.72262
526,47.8268,0.295835,-3.7226
526.5,47.8769,0.294361,-3.72394
527,47.9241,0.296316,-3.72524
527.5,47.9758,0.29752,-3.72659
528,48.0252,0.300244,-3.72785
528.5,48.0746,0.295447,-3.7286
529,48.124,0.297101,-3.72792
529.5,48.1728,0.300304,-3.72657
530,48.2237,0.294437,-3.72726
530.5,48.2731,0.30926,-3.72789
531,48.322,0.310608,-3.72789
531.5,48.3716,0.316593,-3.72823
532,48.4189,0.311057,-3.72713
532.5,48.4706,0.307921,-3.72581
533,48.5213,0.311588,-3.72581
533.5,48.5699,0.315397,-3.7271
534,48.6199,0.314005,-3.72908
534.5,48.6696,0.31546,-3.7291
535,48.7186,0.316523,-3.72775
535.5,48.7677,0.317017,-3.72641
536,48.818,0.312744,-3.72509
536.5,48.8672,0.317338,-3.72649
537,48.916,0.316992,-3.7278
537.5,48.9657,0.315447,-3.72933
538,49.0154,0.321156,-3.73041
538.5,49.0656,0.316539,-3.7304
539,49.1147,0.315371,-3.72826
539.5,49.1641,0.32685,-3.7278
540,49.2139,0.324366,-3.72778
540.5,49.2639,0.327196,-3.72777
541,49.314,0.326622,-3.72909
541.5,49.3625,0.329458,-3.73044
542,49.4131,0.328207,-3.73173
542.5,49.4622,0.334513,-3.73336
543,49.5121,0.326538,-3.73437
543.5,49.5604,0.336198,-3.73437
544,49.6116,0.333622,-3.73437
544.5,49.6603,0.335409,-3.73437
545,49.7104,0.333065,-3.73306
545.5,49.7608,0.328706,-3.73305
546,49.8096,0.343664,-3.73305
546.5,49.8601,0.333638,-3.73305
547,49.9096,0.341494,-3.73305
547.5,49.9593,0.340707,-3.73305
548,50.0094,0.33989,-3.73448
548.5,50.0591,0.335385,-3.73437
549,50.1086,0.345202,-3.73437
549.5,50.1561,0.340241,-3.73437
550,50.2058,0.345152,-3.7343
550.5,50.2568,0.342783,-3.73305
551,50.3073,0.35312,-3.73305
551.5,50.3576,0.3506,-3.73305
552,50.4065,0.346316,-3.73587
552.5,50.4556,0.350716,-3.73579
553,50.5064,0.344601,-3.73517
553.5,50.5556,0.35566,-3.73447
554,50.6062,0.353628,-3.73512
554.5,50.6556,0.354147,-3.73645
555,50.7058,0.351594,-3.73645
555.5,50.7556,0.359216,-3.73529
556,50.8056,0.359136,-3.73515
556.5,50.8551,0.359286,-3.73382
557,50.9043,0.353679,-3.73228
557.5,50.9544,0.349523,-3.73096
558,51.0028,0.354904,-3.73138
558.5,51.0533,0.354142,-3.73298
559,51.1033,0.358676,-3.73294
559.5,51.1528,0.356064,-3.73329
560,51.2025,0.360494,-3.73327
560.5,51.2504,0.362103,-3.73326
561,51.3018,0.361083,-3.73426
561.5,51.3522,0.357032,-3.73426
562,51.4017,0.3608,-3.73479
562.5,51.4503,0.359546,-3.73558
563,51.5012,0.365137,-3.73687
563.5,51.5501,0.361509,-3.73735
564,51.5998,0.361761,-3.73818
564.5,51.6503,0.363908,-3.73907
565,51.7,0.35481,-3.73685
565.5,51.7497,0.358829,-3.73529
566,51.7997,0.363021,-3.73393
566.5,51.8489,0.363994,-3.73393
567,51.8984,0.369046,-3.73441
567.5,51.9463,0.359337,-3.7346
568,51.9984,0.356773,-3.7339
568.5,52.0483,0.363498,-3.73397
569,52.0978,0.365691,-3.73391
569.5,52.148,0.365779,-3.73622
570,52.1977,0.355381,-3.73776
570.5,52.2452,0.355373,-3.73913
571,52.2965,0.355118,-3.7391
571.5,52.3481,0.34859,-3.73776
572,52.3974,0.351217,-3.73655
572.5,52.4475,0.342966,-3.73645
573,52.4974,0.343592,-3.7364
573.5,52.5458,0.341658,-3.73777
574,52.5968,0.345241,-3.7391
574.5,52.6449,0.337483,-3.73943
575,52.6961,0.334254,-3.73942
575.5,52.7448,0.342798,-3.73809
576,52.7956,0.334467,-3.73836
576.5,52.8453,0.325323,-3.73845
577,52.8934,0.323569,-3.73943
577.5,52.945,0.327791,-3.73807
578,52.9947,0.323741,-3.73942
578.5,53.0446,0.323775,-3.73809
579,53.0945,0.320116,-3.73799
579.5,53.1452,0.323328,-3.73667
580,53.1945,0.316674,-3.73666
580.5,53.2436,0.313521,-3.73799
581,53.2937,0.320079,-3.73929
581.5,53.3437,0.315805,-3.73935
582,53.3936,0.314496,-3.73799
582.5,53.4425,0.311242,-3.73976
583,53.4932,0.317283,-3.73997
583.5,53.5426,0.309789,-3.73997
584,53.5929,0.298738,-3.73867
584.5,53.643,0.299821,-3.73936
585,53.6922,0.302993,-3.73865
585.5,53.7425,0.300393,-3.73865
586,53.7925,0.306437,-3.73865
586.5,53.8418,0.302645,-3.73733
587,53.8929,0.308218,-3.73858
587.5,53.9427,0.30169,-3.73996
588,53.992,0.299596,-3.73994
588.5,54.0419,0.295306,-3.73998
589,54.0923,0.298766,-3.73942
589.5,54.142,0.294191,-3.73862
590,54.1916,0.292032,-3.73996
590.5,54.2424,0.290489,-3.73983
591,54.2922,0.28932,-3.74128
591.5,54.3416,0.282867,-3.74128
592,54.3929,0.282246,-3.74096
592.5,54.4422,0.276978,-3.74063
593,54.4922,0.278512,-3.74062
593.5,54.5418,0.278143,-3.74082
594,54.592,0.270569,-3.74085
594.5,54.6422,0.277681,-3.73953
595,54.6915,0.280013,-3.7398
595.5,54.7422,0.2774,-3.74085
596,54.7912,0.27673,-3.74063
596.5,54.8411,0.269588,-3.73953
597,54.8907,0.268426,-3.73957
597.5,54.9411,0.2612,-3.7373
598,54.9895,0.26808,-3.73689
598.5,55.0408,0.258479,-3.73689
599,55.0914,0.256772,-3.73823
599.5,55.1406,0.259764,-3.73953
600,55.1912,0.252873,-3.74054
600.5,55.2414,0.246007,-3.74085
601,55.2904,0.249206,-3.74085
601.5,55.341,0.240816,-3.74085
602,55.3911,0.240022,-3.74106
602.5,55.4406,0.236863,-3.74085
603,55.4908,0.232804,-3.74085
603.5,55.5401,0.236851,-3.74085
604,55.5898,0.229436,-3.74085
604.5,55.6407,0.225147,-3.73951
605,55.6901,0.219005,-3.73821
605.5,55.7405,0.218944,-3.73688
606,55.79,0.215,-3.73785
606.5,55.8402,0.212215,-3.73788
607,55.8891,0.213968,-3.73952
607.5,55.9396,0.211127,-3.74085
608,55.9889,0.204147,-3.74224
608.5,56.0394,0.203524,-3.74216
609,56.0896,0.190105,-3.73955
609.5,56.1404,0.190076,-3.73953
610,56.1899,0.199981,-3.73953
610.5,56.2399,0.195134,-3.74036
611,56.2894,0.191849,-3.74053
611.5,56.3401,0.191346,-3.7419
612,56.3893,0.188515,-3.74335
612.5,56.44,0.186566,-3.74348
613,56.4894,0.179129,-3.74215
613.5,56.5392,0.175363,-3.74215
614,56.5905,0.172772,-3.7395
614.5,56.6391,0.160002,-3.73952
615,56.6902,0.160938,-3.73952
615.5,56.7394,0.158273,-3.73952
616,56.7896,0.161588,-3.73951
616.5,56.8398,0.150787,-3.74086
617,56.8893,0.14987,-3.74215
617.5,56.9393,0.148962,-3.74216
618,56.9904,0.146369,-3.74129
618.5,57.0397,0.144276,-3.73955
619,57.09,0.142667,-3.7382
619.5,57.1414,0.138473,-3.73818
620,57.1899,0.141262,-3.73953
620.5,57.2395,0.141129,-3.73813
621,57.2902,0.138412,-3.73916
621.5,57.3395,0.132892,-3.73953
622,57.3901,0.144025,-3.74008
622.5,57.4393,0.132931,-3.74085
623,57.4895,0.135205,-3.74167
623.5,57.5393,0.127147,-3.74183
624,57.5891,0.132999,-3.74151
624.5,57.6391,0.130136,-3.74052
625,57.689,0.124689,-3.74052
625.5,57.7405,0.125595,-3.74052
626,57.7888,0.116254,-3.74053
626.5,57.84,0.120443,-3.74184
627,57.8897,0.117687,-3.74184
627.5,57.94,0.111983,-3.7427
628,57.9899,0.115051,-3.74184
628.5,58.0399,0.109954,-3.74183
629,58.0908,0.109936,-3.74183
629.5,58.139,0.115691,-3.74178
630,58.1902,0.10939,-3.74084
630.5,58.2396,0.105796,-3.74085
631,58.2907,0.107025,-3.74085
631.5,58.3411,0.102283,-3.74227
632,58.3912,0.101696,-3.74217
632.5,58.4407,0.0981247,-3.74217
633,58.4919,0.0950543,-3.74116
633.5,58.5418,0.102421,-3.74118
634,58.5913,0.0951324,-3.74117
634.5,58.6417,0.0908381,-3.74216
635,58.692,0.0938148,-3.74164
635.5,58.7419,0.0910314,-3.74247
636,58.792,0.0893554,-3.74249
636.5,58.8416,0.0856278,-3.74379
637,58.8923,0.0877301,-3.74381
637.5,58.941,0.0891022,-3.74257
638,58.9916,0.0857599,-3.74249
638.5,59.0427,0.0839738,-3.74249
639,59.0919,0.0909352,-3.74249
639.5,59.1425,0.0815723,-3.74112
640,59.1921,0.0812736,-3.74118
640.5,59.2413,0.0843784,-3.73986
641,59.2926,0.0780379,-3.74061
641.5,59.3426,0.0749317,-3.7412
642,59.3915,0.0711778,-3.74117
642.5,59.4421,0.0780279,-3.74247
643,59.4926,0.0744018,-3.74249
643.5,59.5424,0.0700496,-3.74249
644,59.5923,0.0709864,-3.74249
644.5,59.6425,0.0715257,-3.74249
645,59.6924,0.0683105,-3.74249
645.5,59.7432,0.0656805,-3.74233
646,59.7937,0.0625694,-3.74216
646.5,59.8439,0.0552241,-3.74188
647,59.894,0.0725888,-3.74193
647.5,59.9425,0.0634187,-3.74216
648,59.9944,0.0660389,-3.74216
648.5,60.0443,0.0575147,-3.74349
649,60.0949,0.0638187,-3.74348
649.5,60.1448,0.0639276,-3.7438
650,60.1942,0.058566,-3.74366
650.5,60.2447,0.0563906,-3.742
651,60.2931,0.0611469,-3.74014
651.5,60.3446,0.0649649,-3.73986
652,60.3956,0.0604886,-3.73986
652.5,60.4448,0.0577697,-3.73986
653,60.4952,0.058584,-3.73986
653.5,60.5436,0.0570836,-3.73855
654,60.5955,0.0629729,-3.73986
654.5,60.6464,0.0601432,-3.74092
655,60.6961,0.0530507,-3.74085
655.5,60.7459,0.0580061,-3.7425
656,60.7952,0.0503056,-3.7425
656.5,60.8454,0.0552089,-3.7425
657,60.897,0.0605171,-3.74381
657.5,60.9467,0.0538272,-3.74381
658,60.9972,0.056034,-3.74388
658.5,61.0466,0.0458979,-3.74216
659,61.0969,0.0438313,-3.74254
659.5,61.1473,0.0789281,-3.7425
660,61.1978,0.0993336,-3.74414
660.5,61.249,0.0985362,-3.74544
661,61.2981,0.0970556,-3.7454
661.5,61.3483,0.0916255,-3.7455
662,61.3983,0.102075,-3.74546
662.5,61.4481,0.0972906,-3.74412
663,61.4997,0.095402,-3.74318
663.5,61.5493,0.0947645,-3.74287
664,61.5991,0.0880903,-3.7425
664.5,61.6488,0.082619,-3.74151
665,61.6998,0.0802746,-3.74282
665.5,61.7496,0.0757169,-3.74282
666,61.7993,0.0803618,-3.74282
666.5,61.8495,0.0763746,-3.74379
667,61.8985,0.0708442,-3.74413
667.5,61.9498,0.0774683,-3.74282
668,62.0005,0.0754008,-3.74303
668.5,62.05,0.0778336,-3.74282
669,62.1001,0.0778149,-3.74274
669.5,62.1488,0.0703801,-3.74414
670,62.2006,0.0697681,-3.74414
670.5,62.2509,0.0637281,-3.74414
671,62.3002,0.0608681,-3.74414
671.5,62.3513,0.0566029,-3.74407
672,62.4011,0.0548413,-3.74281
672.5,62.4513,0.0516333,-3.74151
673,62.5007,0.0510759,-3.74013
673.5,62.5514,0.0440999,-3.73995
674,62.6013,0.0452862,-3.74085
674.5,62.6512,0.0392995,-3.74085
675,62.7013,0.0348406,-3.74217
675.5,62.7522,0.0326734,-3.74373
676,62.8027,0.0286442,-3.7448
676.5,62.8522,0.023154,-3.74533
677,62.9025,0.0247584,-3.74478
677.5,62.9521,0.0198567,-3.74389
678,63.0029,0.0242312,-3.74381
678.5,63.0531,0.0214885,-3.74381
679,63.1032,0.0160469,-3.74242
679.5,63.1533,0.0219001,-3.74217
680,63.2031,0.0176792,-3.74089
680.5,63.2535,0.0220835,-3.74042
681,63.3036,0.0222527,-3.73951
681.5,63.354,0.0209385,-3.73956
682,63.4039,0.0217534,-3.73953
682.5,63.4534,0.0274005,-3.74045
683,63.5042,0.0264435,-3.74052
683.5,63.5543,0.0225922,-3.74052
684,63.6051,0.0122926,-3.74052
684.5,63.6558,0.0057684,-3.74052
685,63.7054,0.0120837,-3.74052
685.5,63.7553,0.00875067,-3.74052
686,63.8062,0.00759651,-3.74084
686.5,63.8564,-0.000837826,-3.74216
687,63.9066,-0.0052615,-3.74315
687.5,63.9566,-0.00136559,-3.7449
688,64.0074,0.00205137,-3.74489
688.5,64.0573,0.00251688,-3.74337
689,64.1078,-0.00167119,-3.74255
689.5,64.1594,-0.0023809,-3.74238
690,64.2091,-0.00452451,-3.74381
690.5,64.2589,-0.00194085,-3.74488
691,64.3092,-0.00346482,-3.74502
691.5,64.3592,-0.00722941,-3.74605
692,64.4096,-0.00978946,-3.74638
692.5,64.46,-0.0132033,-3.74498
693,64.5105,-0.000844487,-3.74239
693.5,64.5616,-0.00282043,-3.74236
694,64.6118,-0.00827895,-3.74106
694.5,64.662,-0.00499249,-3.74207
695,64.7132,-0.00732571,-3.74238
695.5,64.7617,-0.0153809,-3.74373
696,64.814,-0.0155227,-3.7437
696.5,64.8647,-0.0141904,-3.74246
697,64.9152,-0.0220469,-3.74237
697.5,64.9647,-0.0205901,-3.74502
698,65.0148,-0.0208887,-3.74502
698.5,65.0654,-0.026314,-3.74496
699,65.1165,-0.0265862,-3.746
699.5,65.1659,-0.0259283,-3.746
700,65.2167,-0.0312179,-3.746
700.5,65.2672,-0.0314373,-3.74678
701,65.3175,-0.0370453,-3.74732
701.5,65.3682,-0.0327354,-3.74732
702,65.4187,-0.0367747,-3.74503
702.5,65.4683,-0.0338339,-3.74502
703,65.5194,-0.0311003,-3.74464
703.5,65.5701,-0.0319876,-3.7446
704,65.6209,-0.0379922,-3.74321
704.5,65.6703,-0.0419374,-3.74326
705,65.7208,-0.039649,-3.74326
705.5,65.7705,-0.0426775,-3.74326
706,65.8217,-0.0451228,-3.74326
706.5,65.8713,-0.0553273,-3.74326
707,65.9212,-0.0522969,-3.74326
707.5,65.9721,-0.0471389,-3.74326
708,66.023,-0.0475126,-3.74326
708.5,66.0722,-0.0553863,-3.74326
709,66.123,-0.0553918,-3.74311
709.5,66.1729,-0.0490735,-3.74193
710,66.224,-0.0586659,-3.74326
710.5,66.2747,-0.0575732,-3.74194
711,66.3242,-0.0585385,-3.74194
711.5,66.3746,-0.0538256,-3.74194
712,66.4238,-0.0587317,-3.74194
712.5,66.4738,-0.0617112,-3.74194
713,66.5256,-0.0554066,-3.74194
713.5,66.5763,-0.0633654,-3.74325
714,66.6243,-0.0608976,-3.74458
714.5,66.6765,-0.0645222,-3.74457
715,66.7275,-0.0689193,-3.7459
715.5,66.7765,-0.0644282,-3.7459
716,66.828,-0.0663807,-3.7459
716.5,66.8781,-0.0669285,-3.74555
717,66.9285,-0.0728569,-3.74559
717.5,66.9791,-0.0689887,-3.74425
718,67.0278,-0.0644568,-3.74428
718.5,67.0785,-0.0688638,-3.74322
719,67.1303,-0.0738645,-3.74458
719.5,67.1802,-0.0764469,-3.74529
720,67.2303,-0.0758143,-3.7459
720.5,67.2813,-0.0722178,-3.7459
721,67.3325,-0.0705153,-3.7459
721.5,67.3821,-0.0635941,-3.7459
722,67.4335,-0.0730871,-3.7459
722.5,67.4831,-0.0688713,-3.74719
723,67.5344,-0.071265,-3.74755
723.5,67.5847,-0.0747043,-3.74754
724,67.6343,-0.0786536,-3.74754
724.5,67.6845,-0.0733078,-3.74754
725,67.7336,-0.0706967,-3.74754
725.5,67.7868,-0.0834331,-3.74622
726,67.8363,-0.0736825,-3.74496
726.5,67.8874,-0.0765805,-3.74489
727,67.938,-0.0735056,-3.7462
727.5,67.9879,-0.0800835,-3.74757
728,68.0386,-0.0786223,-3.74754
728.5,68.0874,-0.0758133,-3.74754
729,68.1389,-0.0852474,-3.74885
729.5,68.1896,-0.0816213,-3.74824
730,68.2406,-0.0798631,-3.74679
730.5,68.2908,-0.0870533,-3.74492
731,68.3415,-0.0872272,-3.74491
731.5,68.3914,-0.0906079,-3.74645
732,68.4423,-0.0859299,-3.74634
732.5,68.4927,-0.0848052,-3.74904
733,68.543,-0.078883,-3.74897
733.5,68.5931,-0.0806148,-3.74897
734,68.6426,-0.0814319,-3.74713
734.5,68.6942,-0.0749817,-3.74633
735,68.7458,-0.0704263,-3.74503
735.5,68.7959,-0.0694428,-3.74406
736,68.8462,-0.0666827,-3.74369
736.5,68.8963,-0.0695524,-3.74403
737,68.9473,-0.0721137,-3.74403
737.5,68.9978,-0.0678188,-3.7461
738,69.0489,-0.0681153,-3.74633
738.5,69.0993,-0.0718854,-3.74612
739,69.1498,-0.0700041,-3.74502
739.5,69.1999,-0.0748915,-3.74529
740,69.2513,-0.0727307,-3.74499