File: 01_Data/Helmet_Tetrahedron/STA/N2/10K_min/Helmet_Tetrahedron_STA_N2_10KData_250527_R5.csv
Temp./C,Time/min,DSC/(mW/mg),Mass loss/mg
35.0,0.0,0.662368,-0.021124
35.5,0.0683541,0.678085,-0.0211194
36,0.137308,0.685815,-0.0205034
36.5,0.203746,0.700089,-0.0217004
37,0.270062,0.712616,-0.0216029
37.5,0.336364,0.728163,-0.022454
38,0.400455,0.734637,-0.0225276
38.5,0.465865,0.73875,-0.0223414
39,0.529851,0.758967,-0.0223645
39.5,0.594318,0.764181,-0.0215905
40,0.659882,0.769995,-0.0223365
40.5,0.719471,0.777313,-0.0215265
41,0.781915,0.786059,-0.0225655
41.5,0.843289,0.78841,-0.022641
42,0.90594,0.804432,-0.0223038
42.5,0.967562,0.810352,-0.0227857
43,1.02235,0.829372,-0.025579
43.5,1.08728,0.823532,-0.0242817
44,1.14684,0.827423,-0.0241618
44.5,1.20535,0.830901,-0.0229419
45,1.26322,0.845773,-0.0240424
45.5,1.32306,0.851347,-0.0244004
46,1.38226,0.862843,-0.0244715
46.5,1.43621,0.867595,-0.0244289
47,1.49827,0.874453,-0.0253406
47.5,1.55535,0.882983,-0.0234594
48,1.61272,0.890638,-0.0234267
48.5,1.67164,0.900108,-0.0229553
49,1.72814,0.901441,-0.0236691
49.5,1.78636,0.915461,-0.0242264
50,1.84161,0.910545,-0.024259
50.5,1.89812,0.92966,-0.0248908
51,1.9533,0.945099,-0.0256391
51.5,2.01035,0.949497,-0.0249327
52,2.06805,0.957796,-0.0259295
52.5,2.12233,0.965166,-0.0254739
53,2.17747,0.964018,-0.0255266
53.5,2.23172,0.978032,-0.0256923
54,2.28674,0.980744,-0.0255462
54.5,2.3416,0.981305,-0.0255895
55,2.3968,0.994799,-0.0255404
55.5,2.45053,1.00327,-0.0255415
56,2.50468,1.00299,-0.0255739
56.5,2.55821,1.00996,-0.0254868
57,2.61145,1.01621,-0.0246877
57.5,2.66433,1.02208,-0.0255873
58,2.71758,1.01629,-0.0255883
58.5,2.77218,1.02433,-0.026481
59,2.82546,1.02933,-0.0254606
59.5,2.87812,1.0248,-0.0265598
60,2.92968,1.02486,-0.026874
60.5,2.98473,1.02975,-0.0268036
61,3.03596,1.03208,-0.0268696
61.5,3.08834,1.03403,-0.0267762
62,3.13972,1.03886,-0.0268103
62.5,3.19201,1.04631,-0.0255194
63,3.24505,1.03471,-0.0267902
63.5,3.29692,1.0383,-0.0254184
64,3.34813,1.03535,-0.0267762
64.5,3.40127,1.0357,-0.0271445
65,3.44874,1.04423,-0.0259909
65.5,3.50389,1.04156,-0.0268002
66,3.55374,1.04241,-0.0267044
66.5,3.60598,1.04874,-0.0267988
67,3.65771,1.05539,-0.027158
67.5,3.70691,1.04786,-0.0267971
68,3.759,1.04888,-0.0266818
68.5,3.80946,1.04255,-0.0274162
69,3.86123,1.04767,-0.0267933
69.5,3.91081,1.05035,-0.0256896
70,3.96134,1.05628,-0.026839
70.5,4.0136,1.05655,-0.0268795
71,4.06415,1.05692,-0.0267899
71.5,4.11329,1.0583,-0.0267822
72,4.16112,1.05704,-0.0274639
72.5,4.21641,1.06604,-0.0267908
73,4.26736,1.06181,-0.0276157
73.5,4.31668,1.06735,-0.0273654
74,4.36693,1.06898,-0.0279791
74.5,4.41622,1.0654,-0.0280922
75,4.46733,1.07627,-0.0272273
75.5,4.51866,1.07721,-0.0281109
76,4.56507,1.08075,-0.0268023
76.5,4.61804,1.08626,-0.0275632
77,4.66851,1.08481,-0.0268279
77.5,4.7187,1.08392,-0.0276985
78,4.76952,1.09596,-0.0282158
78.5,4.81881,1.08852,-0.0273859
79,4.86871,1.09704,-0.0267935
79.5,4.919,1.09892,-0.026739
80,4.96765,1.10147,-0.0281103
80.5,5.01851,1.10094,-0.028113
81,5.06797,1.10714,-0.0275584
81.5,5.1171,1.10417,-0.0281103
82,5.1673,1.11083,-0.0281303
82.5,5.21715,1.10831,-0.0281128
83,5.26603,1.111,-0.02811
83.5,5.31613,1.11929,-0.028101
84,5.36643,1.10964,-0.0284437
84.5,5.41491,1.11619,-0.029756
85,5.46375,1.11671,-0.0297621
85.5,5.51371,1.12681,-0.0294322
86,5.56227,1.12769,-0.0293851
86.5,5.6125,1.12659,-0.02943
87,5.66201,1.13471,-0.0284108
87.5,5.71203,1.13992,-0.0279882
88,5.7592,1.13461,-0.0294249
88.5,5.80695,1.13784,-0.0293711
89,5.85884,1.13939,-0.0294301
89.5,5.90666,1.15334,-0.0294284
90,5.9563,1.14673,-0.0304194
90.5,6.00525,1.14896,-0.0294304
91,6.05357,1.14992,-0.029432
91.5,6.10211,1.15759,-0.0296479
92,6.15181,1.15936,-0.0300736
92.5,6.19995,1.1567,-0.0307399
93,6.24938,1.16273,-0.030682
93.5,6.29796,1.1608,-0.0296092
94,6.34705,1.16828,-0.03075
94.5,6.39535,1.16792,-0.032003
95,6.44471,1.17823,-0.0320702
95.5,6.49342,1.1684,-0.0321043
96,6.54119,1.17855,-0.0307195
96.5,6.59012,1.17727,-0.0307771
97,6.63744,1.19035,-0.03074
97.5,6.68712,1.18967,-0.0311708
98,6.73441,1.19055,-0.0320596
98.5,6.78282,1.18872,-0.0320559
99,6.83184,1.19028,-0.0328247
99.5,6.88086,1.19086,-0.03206
100,6.92645,1.20107,-0.0334248
100.5,6.97525,1.20237,-0.0327204
101,7.02411,1.20468,-0.0320636
101.5,7.0731,1.20593,-0.032253
102,7.1199,1.20588,-0.0320512
102.5,7.16856,1.20982,-0.0333823
103,7.21779,1.20802,-0.0333656
103.5,7.26535,1.2115,-0.03239
104,7.31328,1.20821,-0.03239
104.5,7.36006,1.22108,-0.0323902
105,7.40923,1.22284,-0.0322718
105.5,7.45712,1.22587,-0.0333461
106,7.50495,1.22823,-0.0333746
106.5,7.55334,1.23174,-0.032061
107,7.60197,1.22725,-0.0329398
107.5,7.6476,1.23293,-0.0322376
108,7.69755,1.24006,-0.0320796
108.5,7.74587,1.23759,-0.0333799
109,7.79366,1.24774,-0.03338
109.5,7.84146,1.24523,-0.033365
110,7.88902,1.23946,-0.0321371
110.5,7.93767,1.2502,-0.0333784
111,7.98523,1.25685,-0.0333847
111.5,8.03168,1.25412,-0.0347013
112,8.07792,1.25348,-0.0347
112.5,8.12739,1.267,-0.0347001
113,8.17623,1.25596,-0.034677
113.5,8.2232,1.26023,-0.0360199
114,8.27315,1.26761,-0.0358273
114.5,8.32083,1.26601,-0.0359688
115,8.36873,1.26459,-0.0345875
115.5,8.41675,1.26863,-0.0346901
116,8.46546,1.268,-0.0346893
116.5,8.51315,1.27335,-0.0360328
117,8.55987,1.27651,-0.0360098
117.5,8.60829,1.27383,-0.0360264
118,8.65563,1.27273,-0.0353598
118.5,8.70444,1.27725,-0.0353522
119,8.75268,1.27894,-0.0367374
119.5,8.79977,1.28378,-0.036021
120,8.84803,1.28148,-0.0360242
120.5,8.89491,1.28487,-0.03604
121,8.94351,1.28728,-0.0360199
121.5,8.992,1.29102,-0.0360208
122,9.0391,1.2951,-0.0373016
122.5,9.08693,1.29263,-0.03733
123,9.13477,1.29533,-0.0373301
123.5,9.18211,1.30014,-0.0369396
124,9.23052,1.29419,-0.0368458
124.5,9.27816,1.29753,-0.0373305
125,9.32332,1.29591,-0.03733
125.5,9.37333,1.29704,-0.03733
126,9.4199,1.30158,-0.03733
126.5,9.46848,1.29965,-0.03733
127,9.51733,1.30147,-0.0373225
127.5,9.56394,1.30115,-0.0363023
128,9.61196,1.3045,-0.0373383
128.5,9.6593,1.30533,-0.0373311
129,9.70675,1.30966,-0.0383576
129.5,9.75458,1.30545,-0.037339
130,9.80231,1.31029,-0.03734
130.5,9.84877,1.30726,-0.0373685
131,9.89731,1.30959,-0.0399387
131.5,9.94535,1.31379,-0.03996
132,9.9928,1.31607,-0.0385881
132.5,10.0396,1.32381,-0.0399863
133,10.0883,1.32041,-0.03997
133.5,10.1351,1.31818,-0.0399674
134,10.1833,1.31804,-0.0413141
134.5,10.2301,1.32414,-0.0406284
135,10.2769,1.32704,-0.0406315
135.5,10.323,1.32638,-0.0399436
136,10.3713,1.3259,-0.0399643
136.5,10.4174,1.33292,-0.0413065
137,10.4646,1.33296,-0.04129
137.5,10.5143,1.33429,-0.04129
138,10.5619,1.33069,-0.04129
138.5,10.6084,1.32991,-0.041291
139,10.6566,1.32822,-0.0423654
139.5,10.7037,1.33417,-0.0426697
140,10.7519,1.33298,-0.0412792
140.5,10.7982,1.3386,-0.0401594
141,10.8456,1.34709,-0.0350035
141.5,10.8938,1.33965,-0.0372561
142,10.9405,1.34546,-0.0388849
142.5,10.9877,1.35186,-0.0370755
143,11.0354,1.35039,-0.0423884
143.5,11.0825,1.34099,-0.0471935
144,11.1291,1.34197,-0.0472201
144.5,11.177,1.35111,-0.0472191
145,11.224,1.36226,-0.045881
145.5,11.272,1.35715,-0.0459952
146,11.3189,1.36168,-0.0446521
146.5,11.3657,1.35962,-0.0458895
147,11.4136,1.35799,-0.0453824
147.5,11.4606,1.36043,-0.0459709
148,11.5074,1.36304,-0.0458899
148.5,11.5535,1.37281,-0.04589
149,11.602,1.37298,-0.0458899
149.5,11.6484,1.37924,-0.0459323
150,11.6956,1.38204,-0.0445517
150.5,11.7425,1.38056,-0.0447945
151,11.7903,1.37987,-0.0446511
151.5,11.8365,1.37797,-0.0465379
152,11.8841,1.38724,-0.0465534
152.5,11.9302,1.38623,-0.0452579
153,11.979,1.39136,-0.0452413
153.5,12.025,1.38906,-0.0461625
154,12.0722,1.38977,-0.0472194
154.5,12.1203,1.39223,-0.0459288
155,12.1665,1.3888,-0.0459497
155.5,12.215,1.38944,-0.0455746
156,12.2587,1.39316,-0.0457247
156.5,12.308,1.40915,-0.0420869
157,12.3525,1.40061,-0.0441046
157.5,12.4015,1.40036,-0.0468222
158,12.4471,1.40989,-0.0480968
158.5,12.4965,1.40248,-0.0482418
159,12.5436,1.41216,-0.0514507
159.5,12.5907,1.40974,-0.0524677
160,12.6379,1.41171,-0.0503365
160.5,12.6848,1.4155,-0.047683
161,12.7319,1.41562,-0.0477598
161.5,12.7797,1.41726,-0.0477595
162,12.8249,1.41898,-0.0464254
162.5,12.8735,1.42033,-0.0477605
163,12.919,1.42192,-0.0494236
163.5,12.9672,1.42157,-0.0494082
164,13.0136,1.42476,-0.0500922
164.5,13.0605,1.42941,-0.0500659
165,13.1073,1.42382,-0.0510887
165.5,13.1548,1.4362,-0.0513818
166,13.2017,1.4325,-0.0513931
166.5,13.2493,1.43323,-0.0500656
167,13.2931,1.4277,-0.0535175
167.5,13.3425,1.4253,-0.0544689
168,13.3894,1.42988,-0.0508566
168.5,13.4366,1.427,-0.0509786
169,13.4837,1.43001,-0.0496286
169.5,13.5307,1.43089,-0.0496263
170,13.5761,1.43094,-0.050985
170.5,13.6241,1.43429,-0.0509431
171,13.6705,1.42934,-0.0522673
171.5,13.7197,1.43533,-0.0522551
172,13.7666,1.43012,-0.0536401
172.5,13.8139,1.42956,-0.05358
173,13.8581,1.42851,-0.05358
173.5,13.9062,1.43461,-0.0535743
174,13.9548,1.43601,-0.0522694
174.5,14.0021,1.43421,-0.05227
175,14.0485,1.43298,-0.0522728
175.5,14.0962,1.44183,-0.0535574
176,14.143,1.44396,-0.0535036
176.5,14.1906,1.44005,-0.0490085
177,14.2369,1.43517,-0.0509952
177.5,14.2846,1.4413,-0.055773
178,14.3314,1.43424,-0.0567466
178.5,14.3793,1.43649,-0.0570074
179,14.4253,1.43711,-0.0567606
179.5,14.4739,1.43488,-0.056751
180,14.52,1.43793,-0.0535865
180.5,14.5671,1.44278,-0.0493535
181,14.6145,1.43742,-0.0538435
181.5,14.6614,1.44196,-0.0587151
182,14.7068,1.42899,-0.0587408
182.5,14.7547,1.42706,-0.0574376
183,14.8026,1.42955,-0.0577629
183.5,14.8499,1.4298,-0.057752
184,14.8973,1.43112,-0.0577927
184.5,14.9442,1.43067,-0.05776
185,14.9914,1.43667,-0.0577573
185.5,15.0394,1.43123,-0.0590816
186,15.084,1.43041,-0.05907
186.5,15.1316,1.43122,-0.0590686
187,15.1798,1.42498,-0.0580477
187.5,15.2263,1.42594,-0.0577501
188,15.2719,1.42513,-0.0583646
188.5,15.3203,1.42342,-0.0605025
189,15.3666,1.41889,-0.0603899
189.5,15.4149,1.42058,-0.0603919
190,15.4598,1.41,-0.0590629
190.5,15.5079,1.41474,-0.05907
191,15.5558,1.4176,-0.0590715
191.5,15.6023,1.41753,-0.0603961
192,15.6499,1.41293,-0.0618243
192.5,15.6956,1.42649,-0.0617099
193,15.7424,1.41404,-0.0617108
193.5,15.7899,1.42433,-0.0626993
194,15.8368,1.425,-0.0640069
194.5,15.8834,1.42396,-0.0626965
195,15.9301,1.42343,-0.0627
195.5,15.9786,1.42885,-0.0627
196,16.0251,1.42303,-0.0627
196.5,16.0719,1.42473,-0.0626972
197,16.1189,1.42014,-0.0630195
197.5,16.1656,1.42086,-0.06303
198,16.2118,1.42188,-0.0630381
198.5,16.2591,1.41825,-0.06404
199,16.307,1.4168,-0.064343
199.5,16.3541,1.4171,-0.06434
200,16.4003,1.41426,-0.06434
200.5,16.447,1.4219,-0.06434
201,16.4942,1.41022,-0.06434
201.5,16.541,1.40923,-0.0650704
202,16.5872,1.40573,-0.0646679
202.5,16.6351,1.40842,-0.0659704
203,16.6822,1.40776,-0.0651248
203.5,16.7292,1.40799,-0.0649861
204,16.7763,1.40652,-0.0664007
204.5,16.8228,1.39694,-0.0676308
205,16.8704,1.40367,-0.0676301
205.5,16.9162,1.40345,-0.0675683
206,16.9641,1.40095,-0.0689513
206.5,17.0083,1.40095,-0.0702444
207,17.0576,1.40175,-0.0702702
207.5,17.1043,1.39913,-0.0702168
208,17.1517,1.3923,-0.0692796
208.5,17.1992,1.39888,-0.06928
209,17.2455,1.40073,-0.0692818
209.5,17.2934,1.3923,-0.0705858
210,17.34,1.39744,-0.0705995
210.5,17.3871,1.39136,-0.0707263
211,17.4343,1.39443,-0.0719201
211.5,17.4806,1.38607,-0.07192
212,17.5281,1.39345,-0.07192
212.5,17.5742,1.39192,-0.071921
213,17.6217,1.38321,-0.0732604
213.5,17.6685,1.38765,-0.0731968
214,17.7155,1.3887,-0.0745404
214.5,17.7628,1.38672,-0.07454
215,17.8103,1.38438,-0.0758707
215.5,17.8569,1.37656,-0.0768621
216,17.9051,1.37749,-0.0755122
216.5,17.951,1.3755,-0.0758669
217,17.9981,1.36934,-0.0776962
217.5,18.0455,1.36634,-0.0784998
218,18.0918,1.36483,-0.0784882
218.5,18.1366,1.36608,-0.0798233
219,18.1854,1.36937,-0.07982
219.5,18.2307,1.36524,-0.0798216
220,18.2808,1.36031,-0.0808941
220.5,18.3275,1.35756,-0.0824341
221,18.375,1.35304,-0.0824404
221.5,18.4215,1.35434,-0.0837725
222,18.4689,1.34686,-0.0837647
222.5,18.5149,1.35185,-0.0851318
223,18.5623,1.3486,-0.0847643
223.5,18.6094,1.33902,-0.0867478
224,18.6563,1.34635,-0.0871311
224.5,18.7034,1.34139,-0.0881592
225,18.7496,1.3365,-0.0881109
225.5,18.7963,1.32921,-0.0908039
226,18.8444,1.32917,-0.0917001
226.5,18.8917,1.33446,-0.0921167
227,18.9388,1.32408,-0.0934417
227.5,18.9854,1.32506,-0.0947503
228,19.0328,1.3235,-0.0954822
228.5,19.0796,1.32188,-0.0960693
229,19.127,1.31526,-0.0961889
229.5,19.1742,1.3164,-0.097476
230,19.2204,1.31602,-0.10002
230.5,19.2683,1.3176,-0.101316
231,19.3154,1.31777,-0.101331
231.5,19.3631,1.30896,-0.102462
232,19.4088,1.30933,-0.101707
232.5,19.4573,1.31153,-0.104059
233,19.5032,1.31348,-0.107245
233.5,19.5504,1.31095,-0.107726
234,19.5968,1.31181,-0.108546
234.5,19.6436,1.32011,-0.110195
235,19.6909,1.33779,-0.111545
235.5,19.7391,1.36107,-0.11188
236,19.7877,1.38914,-0.114394
236.5,19.8348,1.43126,-0.115153
237,19.8831,1.46214,-0.117912
237.5,19.9301,1.49855,-0.119699
238,19.9774,1.5343,-0.12282
238.5,20.0267,1.57047,-0.124186
239,20.0728,1.58677,-0.127204
239.5,20.1202,1.59921,-0.129024
240,20.1674,1.61469,-0.132297
240.5,20.2149,1.62475,-0.13417
241,20.2624,1.61775,-0.136637
241.5,20.3083,1.63558,-0.139317
242,20.356,1.63767,-0.141469
242.5,20.4046,1.64037,-0.143709
243,20.4506,1.6507,-0.147166
243.5,20.4984,1.64142,-0.148763
244,20.5449,1.64509,-0.152029
244.5,20.5916,1.65294,-0.154903
245,20.6395,1.65095,-0.15687
245.5,20.6872,1.65713,-0.159689
246,20.734,1.65893,-0.162231
246.5,20.7806,1.66247,-0.166196
247,20.829,1.66653,-0.169165
247.5,20.8754,1.67186,-0.172969
248,20.923,1.67211,-0.175851
248.5,20.9698,1.67326,-0.178094
249,21.0176,1.68015,-0.180764
249.5,21.0654,1.67351,-0.183765
250,21.1123,1.6848,-0.186769
250.5,21.1601,1.6904,-0.188977
251,21.2062,1.68706,-0.192666
251.5,21.2538,1.70059,-0.19645
252,21.3013,1.70738,-0.199353
252.5,21.3482,1.70807,-0.204254
253,21.3961,1.71005,-0.207864
253.5,21.4431,1.71659,-0.211899
254,21.491,1.72467,-0.21479
254.5,21.538,1.73179,-0.218111
255,21.5848,1.74668,-0.223141
255.5,21.6317,1.75159,-0.226372
256,21.6805,1.7611,-0.231371
256.5,21.7277,1.76549,-0.233781
257,21.7743,1.78181,-0.238451
257.5,21.8222,1.78964,-0.242208
258,21.8696,1.79792,-0.245825
258.5,21.9169,1.80012,-0.252704
259,21.9646,1.81003,-0.2575
259.5,22.0114,1.82046,-0.259838
260,22.0591,1.83034,-0.264163
260.5,22.1058,1.84721,-0.269486
261,22.1537,1.85036,-0.27562
261.5,22.201,1.86273,-0.281381
262,22.2487,1.87003,-0.28581
262.5,22.2956,1.88724,-0.291068
263,22.3418,1.89524,-0.296467
263.5,22.3902,1.90565,-0.303772
264,22.4371,1.92626,-0.309152
264.5,22.4864,1.92832,-0.315439
265,22.5332,1.94535,-0.3201
265.5,22.5809,1.94512,-0.327773
266,22.6281,1.9673,-0.334302
266.5,22.6759,1.98385,-0.340747
267,22.7234,2.0005,-0.347314
267.5,22.7706,2.02027,-0.354902
268,22.8181,2.03169,-0.359937
268.5,22.8654,2.04013,-0.368676
269,22.9141,2.05938,-0.375731
269.5,22.9615,2.08756,-0.38339
270,23.0086,2.10737,-0.391278
270.5,23.0562,2.11207,-0.399933
271,23.1042,2.13414,-0.407219
271.5,23.1515,2.15637,-0.415246
272,23.1984,2.18109,-0.423641
272.5,23.2472,2.20121,-0.432906
273,23.2948,2.2132,-0.442112
273.5,23.3417,2.2464,-0.451665
274,23.3898,2.25964,-0.460762
274.5,23.4379,2.28687,-0.470499
275,23.4849,2.31154,-0.480326
275.5,23.5342,2.33424,-0.491346
276,23.5794,2.36288,-0.501771
276.5,23.6278,2.37931,-0.512884
277,23.6755,2.4093,-0.524696
277.5,23.7241,2.44099,-0.535746
278,23.7727,2.4627,-0.547123
278.5,23.8195,2.48835,-0.559294
279,23.8676,2.50749,-0.57229
279.5,23.9155,2.5545,-0.58517
280,23.9632,2.57959,-0.598428
280.5,24.0119,2.61198,-0.611359
281,24.0597,2.63337,-0.624446
281.5,24.1056,2.66992,-0.638471
282,24.1556,2.70349,-0.654282
282.5,24.2018,2.73629,-0.666947
283,24.2504,2.76529,-0.682981
283.5,24.2987,2.80531,-0.698177
284,24.3458,2.82557,-0.715213
284.5,24.394,2.8712,-0.732512
285,24.443,2.90342,-0.749434
285.5,24.4913,2.93898,-0.76637
286,24.5382,2.97212,-0.783885
286.5,24.586,3.01307,-0.803183
287,24.6343,3.03948,-0.823018
287.5,24.6819,3.0863,-0.841818
288,24.7295,3.11611,-0.85951
288.5,24.7772,3.15009,-0.879273
289,24.8261,3.18208,-0.90006
289.5,24.873,3.20891,-0.921182
290,24.9226,3.24516,-0.943409
290.5,24.9694,3.27647,-0.963987
291,25.0172,3.30667,-0.987129
291.5,25.0654,3.35154,-1.00924
292,25.1128,3.40937,-1.03297
292.5,25.1612,3.43874,-1.05826
293,25.2084,3.41942,-1.08184
293.5,25.2561,3.3875,-1.10571
294,25.3036,3.39129,-1.12843
294.5,25.351,3.37703,-1.1535
295,25.3984,3.35373,-1.17799
295.5,25.4429,3.3599,-1.2025
296,25.4935,3.3526,-1.22877
296.5,25.5412,3.37541,-1.25334
297,25.5887,3.37077,-1.27868
297.5,25.6368,3.37187,-1.30534
298,25.6833,3.37116,-1.32987
298.5,25.7315,3.37356,-1.35572
299,25.7783,3.36599,-1.38167
299.5,25.8262,3.35829,-1.40892
300,25.874,3.34051,-1.4366
300.5,25.9215,3.32904,-1.46236
301,25.9686,3.30054,-1.48926
301.5,26.0164,3.28766,-1.51404
302,26.0632,3.26996,-1.5398
302.5,26.111,3.25066,-1.56746
303,26.159,3.21906,-1.59447
303.5,26.2055,3.19182,-1.62023
304,26.2528,3.16298,-1.64502
304.5,26.3006,3.12895,-1.67064
305,26.3471,3.10199,-1.69417
305.5,26.395,3.06564,-1.71795
306,26.4424,3.0335,-1.74091
306.5,26.4891,3.00229,-1.76381
307,26.5365,2.96449,-1.78674
307.5,26.5848,2.92349,-1.81012
308,26.631,2.87985,-1.83191
308.5,26.6783,2.8454,-1.85151
309,26.7262,2.80899,-1.87213
309.5,26.7729,2.7629,-1.89349
310,26.8206,2.72464,-1.91304
310.5,26.8679,2.68234,-1.93189
311,26.9138,2.63465,-1.95047
311.5,26.9619,2.59089,-1.96908
312,27.009,2.55286,-1.98589
312.5,27.0558,2.50387,-2.00318
313,27.1031,2.46167,-2.01851
313.5,27.15,2.43394,-2.03485
314,27.1984,2.38528,-2.0504
314.5,27.2447,2.34909,-2.06628
315,27.2925,2.31216,-2.07988
315.5,27.3359,2.27925,-2.09383
316,27.3854,2.23571,-2.10805
316.5,27.4326,2.20038,-2.12191
317,27.4808,2.15894,-2.13721
317.5,27.5278,2.12174,-2.14872
318,27.5753,2.08895,-2.16258
318.5,27.6218,2.05065,-2.17303
319,27.6702,2.01559,-2.18493
319.5,27.7177,1.97867,-2.19856
320,27.7651,1.94114,-2.21029
320.5,27.812,1.90745,-2.22266
321,27.859,1.87956,-2.23344
321.5,27.904,1.84457,-2.2436
322,27.9534,1.81136,-2.25448
322.5,28.0014,1.78249,-2.26417
323,28.0487,1.75399,-2.27438
323.5,28.0962,1.71413,-2.28527
324,28.1441,1.68198,-2.29435
324.5,28.1897,1.6613,-2.30386
325,28.2375,1.63253,-2.31475
325.5,28.2848,1.60564,-2.32424
326,28.3323,1.57383,-2.33029
326.5,28.3801,1.5441,-2.33993
327,28.4275,1.51444,-2.3479
327.5,28.4751,1.48496,-2.35568
328,28.5222,1.45765,-2.36291
328.5,28.5697,1.43616,-2.37164
329,28.6171,1.402,-2.37867
329.5,28.6647,1.3732,-2.38708
330,28.7119,1.34563,-2.39477
330.5,28.7588,1.31456,-2.40154
331,28.8063,1.29092,-2.40837
331.5,28.8544,1.26348,-2.41463
332,28.9016,1.24267,-2.42141
332.5,28.9496,1.21372,-2.42844
333,28.9972,1.18015,-2.43572
333.5,29.044,1.1549,-2.44146
334,29.0919,1.13163,-2.44596
334.5,29.1388,1.10877,-2.45243
335,29.1861,1.07621,-2.45874
335.5,29.2338,1.05784,-2.46454
336,29.2814,1.03178,-2.46983
336.5,29.328,1.00829,-2.47406
337,29.3773,0.979683,-2.48055
337.5,29.424,0.95152,-2.4851
338,29.4725,0.937248,-2.49022
338.5,29.5201,0.901403,-2.49399
339,29.5677,0.879515,-2.49871
339.5,29.6149,0.851561,-2.50486
340,29.6633,0.842693,-2.50907
340.5,29.7111,0.816187,-2.51263
341,29.7583,0.790029,-2.51625
341.5,29.8065,0.773255,-2.52174
342,29.8539,0.752155,-2.52602
342.5,29.9019,0.72908,-2.53081
343,29.9503,0.714672,-2.53317
343.5,29.9975,0.689096,-2.53655
344,30.0448,0.67963,-2.53967
344.5,30.0937,0.655306,-2.54522
345,30.1401,0.628887,-2.54851
345.5,30.1882,0.611517,-2.55131
346,30.2372,0.608691,-2.5543
346.5,30.2836,0.591795,-2.55696
347,30.332,0.582787,-2.56021
347.5,30.38,0.561401,-2.56346
348,30.4271,0.551638,-2.56674
348.5,30.4748,0.538704,-2.57003
349,30.5227,0.518939,-2.5714
349.5,30.5712,0.509542,-2.57458
350,30.6185,0.503245,-2.57628
350.5,30.6666,0.487639,-2.57891
351,30.7149,0.469211,-2.58089
351.5,30.7629,0.465988,-2.58394
352,30.8105,0.45356,-2.58595
352.5,30.858,0.448259,-2.58882
353,30.9065,0.43133,-2.5913
353.5,30.9541,0.422593,-2.59156
354,31.0024,0.416466,-2.59445
354.5,31.0498,0.412743,-2.59633
355,31.0983,0.403858,-2.59779
355.5,31.1464,0.396937,-2.60091
356,31.1956,0.388064,-2.60095
356.5,31.2426,0.37855,-2.60466
357,31.2903,0.377646,-2.60624
357.5,31.339,0.374103,-2.60774
358,31.387,0.365695,-2.60972
358.5,31.4356,0.358437,-2.61109
359,31.4831,0.363463,-2.61231
359.5,31.5315,0.353288,-2.61372
360,31.5791,0.347533,-2.61536
360.5,31.6272,0.345598,-2.61663
361,31.6764,0.345521,-2.6182
361.5,31.7222,0.338977,-2.61952
362,31.7731,0.337189,-2.62085
362.5,31.8207,0.330672,-2.6222
363,31.8694,0.331197,-2.62349
363.5,31.917,0.326912,-2.62561
364,31.9653,0.328292,-2.62776
364.5,32.0135,0.329464,-2.62837
365,32.0616,0.32299,-2.6292
365.5,32.1095,0.326561,-2.6306
366,32.1573,0.330216,-2.63185
366.5,32.2073,0.322239,-2.63316
367,32.253,0.321013,-2.63315
367.5,32.3003,0.319174,-2.63439
368,32.3501,0.324449,-2.63583
368.5,32.3994,0.330472,-2.63711
369,32.4469,0.329852,-2.63852
369.5,32.4957,0.334573,-2.63984
370,32.5441,0.332886,-2.64116
370.5,32.5919,0.327498,-2.64251
371,32.6396,0.334079,-2.64402
371.5,32.6872,0.334855,-2.64522
372,32.7369,0.336877,-2.64654
372.5,32.7828,0.33855,-2.64784
373,32.8329,0.336265,-2.64832
373.5,32.8811,0.340518,-2.64917
374,32.93,0.339569,-2.65049
374.5,32.9782,0.334817,-2.6507
375,33.0263,0.344828,-2.65182
375.5,33.075,0.347018,-2.65311
376,33.1227,0.34808,-2.65603
376.5,33.171,0.341058,-2.65712
377,33.2199,0.34765,-2.65843
377.5,33.2682,0.350095,-2.65985
378,33.3167,0.351805,-2.66119
378.5,33.3652,0.352648,-2.66246
379,33.4142,0.354509,-2.66373
379.5,33.4624,0.355107,-2.66419
380,33.511,0.350101,-2.66518
380.5,33.5585,0.361816,-2.66656
381,33.6048,0.364044,-2.66784
381.5,33.6561,0.358372,-2.66915
382,33.7039,0.358167,-2.67046
382.5,33.7527,0.357579,-2.67181
383,33.8005,0.360893,-2.67318
383.5,33.8487,0.360083,-2.67515
384,33.896,0.36265,-2.6769
384.5,33.9463,0.361501,-2.67927
385,33.9946,0.365678,-2.68058
385.5,34.0442,0.358727,-2.68214
386,34.0915,0.37135,-2.68315
386.5,34.14,0.372993,-2.68444
387,34.1887,0.367992,-2.68585
387.5,34.2366,0.371255,-2.68723
388,34.2848,0.370206,-2.68736
388.5,34.3336,0.370984,-2.68922
389,34.3824,0.370108,-2.69199
389.5,34.4305,0.378775,-2.69436
390,34.4793,0.375884,-2.69704
390.5,34.5278,0.377395,-2.69867
391,34.5767,0.378841,-2.70161
391.5,34.6244,0.371952,-2.70245
392,34.6722,0.377985,-2.70395
392.5,34.7217,0.373996,-2.7054
393,34.77,0.375352,-2.70613
393.5,34.8192,0.377032,-2.70728
394,34.8671,0.371178,-2.7091
394.5,34.9151,0.371743,-2.71152
395,34.9638,0.373416,-2.71297
395.5,35.0133,0.372304,-2.71611
396,35.0613,0.369344,-2.71759
396.5,35.1093,0.374499,-2.72003
397,35.1584,0.376169,-2.72285
397.5,35.2071,0.36378,-2.72531
398,35.2561,0.365563,-2.72756
398.5,35.3032,0.358904,-2.72935
399,35.3528,0.36692,-2.73184
399.5,35.4007,0.365185,-2.73365
400,35.4489,0.366158,-2.73483
400.5,35.4977,0.36973,-2.73699
401,35.5469,0.365165,-2.74014
401.5,35.5953,0.363169,-2.74259
402,35.643,0.357227,-2.74423
402.5,35.6903,0.358229,-2.74716
403,35.738,0.359946,-2.74963
403.5,35.7885,0.360478,-2.75126
404,35.8376,0.35517,-2.75476
404.5,35.8861,0.359465,-2.75811
405,35.9346,0.35236,-2.75987
405.5,35.9829,0.34932,-2.76332
406,36.032,0.35077,-2.76589
406.5,36.0809,0.350159,-2.76923
407,36.1293,0.346458,-2.77026
407.5,36.1771,0.346202,-2.77259
408,36.2247,0.350915,-2.77426
408.5,36.2743,0.341837,-2.77775
409,36.3227,0.340715,-2.78062
409.5,36.3721,0.34171,-2.78376
410,36.4201,0.347893,-2.78655
410.5,36.4694,0.341078,-2.78933
411,36.5158,0.335471,-2.792
411.5,36.5664,0.336117,-2.79512
412,36.6146,0.324972,-2.79833
412.5,36.6636,0.328222,-2.80221
413,36.7122,0.319084,-2.80501
413.5,36.7606,0.320519,-2.80849
414,36.81,0.327138,-2.81175
414.5,36.8584,0.322724,-2.81535
415,36.9078,0.322527,-2.81898
415.5,36.9537,0.314994,-2.82239
416,37.0039,0.312811,-2.82565
416.5,37.0539,0.311682,-2.8292
417,37.1024,0.308638,-2.83258
417.5,37.1507,0.303277,-2.83723
418,37.2,0.304815,-2.8403
418.5,37.2489,0.306876,-2.84485
419,37.2987,0.309233,-2.84849
419.5,37.3457,0.302115,-2.85286
420,37.3959,0.298313,-2.85628
420.5,37.4437,0.302361,-2.85992
421,37.4934,0.291631,-2.86354
421.5,37.5419,0.290395,-2.86795
422,37.5902,0.293019,-2.8721
422.5,37.6403,0.294092,-2.87609
423,37.6892,0.290842,-2.88047
423.5,37.7377,0.292586,-2.88419
424,37.7865,0.291574,-2.88907
424.5,37.8348,0.286262,-2.89419
425,37.8828,0.290516,-2.8981
425.5,37.9332,0.285817,-2.90248
426,37.9813,0.294166,-2.9068
426.5,38.0308,0.297345,-2.91268
427,38.0797,0.293421,-2.91817
427.5,38.1292,0.296579,-2.92274
428,38.1772,0.294669,-2.92784
428.5,38.2254,0.29536,-2.9323
429,38.2746,0.296091,-2.93712
429.5,38.324,0.294847,-2.94297
430,38.3718,0.303608,-2.94719
430.5,38.4194,0.306031,-2.9521
431,38.4701,0.300365,-2.95831
431.5,38.519,0.305957,-2.96206
432,38.5677,0.311778,-2.96936
432.5,38.6177,0.319868,-2.97564
433,38.6649,0.313199,-2.98046
433.5,38.715,0.312931,-2.98716
434,38.762,0.316418,-2.99146
434.5,38.8125,0.315739,-2.99849
435,38.861,0.317292,-3.00327
435.5,38.911,0.323208,-3.00999
436,38.9583,0.32383,-3.01573
436.5,39.0076,0.325705,-3.02242
437,39.0562,0.329613,-3.02862
437.5,39.1062,0.339277,-3.03398
438,39.1551,0.335358,-3.03942
438.5,39.2038,0.338764,-3.04636
439,39.2531,0.330399,-3.05213
439.5,39.3019,0.335521,-3.06117
440,39.3503,0.34324,-3.06714
440.5,39.3994,0.347526,-3.07364
441,39.4479,0.35416,-3.08017
441.5,39.4968,0.358707,-3.08762
442,39.5463,0.364048,-3.09393
442.5,39.5946,0.369751,-3.1006
443,39.6444,0.371341,-3.10811
443.5,39.6923,0.375087,-3.1139
444,39.7398,0.380874,-3.12045
444.5,39.7904,0.384382,-3.12771
445,39.8394,0.388376,-3.13466
445.5,39.8883,0.386553,-3.14124
446,39.937,0.397286,-3.14778
446.5,39.9852,0.405849,-3.15361
447,40.0354,0.413964,-3.16098
447.5,40.0815,0.42001,-3.16705
448,40.1332,0.427967,-3.1737
448.5,40.1816,0.431482,-3.18144
449,40.2307,0.436002,-3.1866
449.5,40.28,0.438704,-3.19596
450,40.329,0.446281,-3.20593
450.5,40.3777,0.462373,-3.20681
451,40.4273,0.457539,-3.21285
451.5,40.4754,0.461989,-3.21895
452,40.5254,0.46888,-3.22643
452.5,40.574,0.472998,-3.23211
453,40.6232,0.482679,-3.2371
453.5,40.6722,0.483355,-3.24615
454,40.7217,0.48838,-3.25099
454.5,40.7704,0.480635,-3.25754
455,40.8197,0.490445,-3.26408
455.5,40.8689,0.502721,-3.27193
456,40.917,0.499544,-3.27829
456.5,40.9655,0.499954,-3.28405
457,41.0139,0.499321,-3.28941
457.5,41.0645,0.495556,-3.29671
458,41.1128,0.494051,-3.30243
458.5,41.1626,0.500467,-3.30829
459,41.2109,0.51042,-3.31421
459.5,41.2604,0.510734,-3.32096
460,41.3107,0.511964,-3.32677
460.5,41.3591,0.505255,-3.33414
461,41.4074,0.503837,-3.33951
461.5,41.457,0.51022,-3.34465
462,41.5058,0.508452,-3.35106
462.5,41.5551,0.49814,-3.35834
463,41.6045,0.503256,-3.36456
463.5,41.6532,0.506329,-3.36768
464,41.7032,0.513445,-3.37486
464.5,41.751,0.506343,-3.38052
465,41.8007,0.490561,-3.38599
465.5,41.8497,0.492483,-3.3925
466,41.8987,0.496104,-3.39681
466.5,41.9475,0.482041,-3.40262
467,41.9965,0.479614,-3.4069
467.5,42.0466,0.482848,-3.41288
468,42.0958,0.485966,-3.41934
468.5,42.1445,0.479221,-3.42332
469,42.1927,0.481434,-3.42856
469.5,42.2414,0.467015,-3.43391
470,42.2921,0.467196,-3.43994
470.5,42.3416,0.462371,-3.4439
471,42.3902,0.463038,-3.44715
471.5,42.4391,0.452619,-3.4513
472,42.4885,0.459291,-3.4564
472.5,42.5384,0.453356,-3.46157
473,42.5873,0.45043,-3.46565
473.5,42.6357,0.433452,-3.47126
474,42.6847,0.442961,-3.47577
474.5,42.7346,0.43627,-3.48044
475,42.7837,0.431872,-3.48487
475.5,42.8318,0.425822,-3.4884
476,42.8819,0.417912,-3.49291
476.5,42.9307,0.412298,-3.49743
477,42.9796,0.41208,-3.50186
477.5,43.029,0.412301,-3.50651
478,43.078,0.403444,-3.51026
478.5,43.1278,0.407615,-3.51557
479,43.1769,0.399332,-3.52004
479.5,43.226,0.385878,-3.5224
480,43.2752,0.399014,-3.52665
480.5,43.3237,0.387097,-3.52958
481,43.3737,0.382258,-3.53376
481.5,43.4232,0.379903,-3.53806
482,43.4708,0.370217,-3.54107
482.5,43.5203,0.356365,-3.54507
483,43.5698,0.352168,-3.54821
483.5,43.6194,0.355139,-3.55211
484,43.667,0.346452,-3.55611
484.5,43.718,0.350529,-3.55733
485,43.7675,0.348218,-3.56022
485.5,43.8148,0.339551,-3.56426
486,43.8654,0.341036,-3.56904
486.5,43.9146,0.341138,-3.57051
487,43.9644,0.328556,-3.57433
487.5,44.0131,0.325134,-3.57806
488,44.0634,0.315086,-3.58059
488.5,44.1123,0.306828,-3.58371
489,44.1604,0.306643,-3.58707
489.5,44.211,0.302483,-3.59043
490,44.2603,0.301589,-3.59221
490.5,44.3097,0.292179,-3.59419
491,44.3586,0.293248,-3.59549
491.5,44.4076,0.283501,-3.60058
492,44.4566,0.276905,-3.60283
492.5,44.5058,0.270073,-3.60419
493,44.5554,0.264797,-3.60724
493.5,44.6052,0.261142,-3.60867
494,44.6535,0.258323,-3.61061
494.5,44.703,0.247536,-3.61287
495,44.7529,0.250328,-3.61641
495.5,44.802,0.247749,-3.61695
496,44.8515,0.238218,-3.62025
496.5,44.9008,0.237011,-3.62175
497,44.9501,0.234011,-3.62363
497.5,44.9988,0.219691,-3.62616
498,45.0481,0.21344,-3.62743
498.5,45.095,0.216744,-3.62876
499,45.1465,0.212843,-3.6301
499.5,45.1938,0.210792,-3.63155
500,45.2456,0.21523,-3.63283
500.5,45.294,0.210445,-3.63414
501,45.3435,0.212648,-3.63565
501.5,45.3938,0.205836,-3.63799
502,45.4427,0.204934,-3.63801
502.5,45.4918,0.19976,-3.63945
503,45.5413,0.202641,-3.64068
503.5,45.5911,0.189888,-3.64248
504,45.6396,0.185716,-3.64488
504.5,45.6891,0.188888,-3.6462
505,45.7388,0.188133,-3.64741
505.5,45.7883,0.188112,-3.64744
506,45.8379,0.190441,-3.64853
506.5,45.8864,0.186982,-3.64989
507,45.9361,0.18836,-3.65116
507.5,45.9855,0.173894,-3.65151
508,46.0349,0.176324,-3.65248
508.5,46.0844,0.170921,-3.65377
509,46.1337,0.17389,-3.6548
509.5,46.1834,0.165039,-3.65562
510,46.2325,0.163264,-3.65644
510.5,46.2818,0.164918,-3.65774
511,46.3313,0.162031,-3.65778
511.5,46.3807,0.158987,-3.65901
512,46.4304,0.162316,-3.66039
512.5,46.4796,0.156908,-3.66151
513,46.5291,0.158977,-3.66137
513.5,46.578,0.157371,-3.66131
514,46.627,0.158447,-3.66193
514.5,46.6769,0.146359,-3.66335
515,46.7264,0.14835,-3.66335
515.5,46.7749,0.141875,-3.66464
516,46.8234,0.148895,-3.66466
516.5,46.8741,0.149097,-3.66489
517,46.9223,0.147546,-3.66597
517.5,46.9742,0.141977,-3.66629
518,47.0232,0.138397,-3.66763
518.5,47.0721,0.134491,-3.66758
519,47.1226,0.141135,-3.66895
519.5,47.1716,0.152465,-3.6703
520,47.221,0.148051,-3.66901
520.5,47.2699,0.14816,-3.66894
521,47.3195,0.15159,-3.6705
521.5,47.369,0.155726,-3.67158
522,47.4189,0.153644,-3.67235
522.5,47.4684,0.154819,-3.67224
523,47.5184,0.159502,-3.67224
523.5,47.5679,0.160608,-3.67311
524,47.6168,0.160104,-3.67356
524.5,47.6669,0.163218,-3.67356
525,47.7163,0.165761,-3.67356
525.5,47.7658,0.162185,-3.67309
526,47.816,0.157404,-3.67421
526.5,47.8652,0.163181,-3.67421
527,47.9142,0.159077,-3.67421
527.5,47.9636,0.16258,-3.6744
528,48.0143,0.155271,-3.67421
528.5,48.0641,0.162885,-3.67421
529,48.113,0.159595,-3.67467
529.5,48.1625,0.169861,-3.67553
530,48.212,0.161372,-3.67622
530.5,48.2604,0.167033,-3.67758
531,48.3105,0.15766,-3.67751
531.5,48.3604,0.158425,-3.67823
532,48.4084,0.156699,-3.67712
532.5,48.4588,0.157221,-3.67715
533,48.5096,0.160487,-3.67816
533.5,48.5594,0.160903,-3.68043
534,48.6089,0.161652,-3.67908
534.5,48.6575,0.158228,-3.67805
535,48.7078,0.164196,-3.67871
535.5,48.7581,0.162004,-3.67915
536,48.8077,0.166805,-3.67915
536.5,48.8568,0.16453,-3.67958
537,48.9076,0.162069,-3.68016
537.5,48.956,0.154254,-3.67949
538,49.0062,0.156157,-3.68049
538.5,49.0552,0.160993,-3.68114
539,49.1046,0.156494,-3.68146
539.5,49.1548,0.154732,-3.68146
540,49.2045,0.15775,-3.68146
540.5,49.2542,0.157232,-3.6821
541,49.3034,0.155352,-3.68345
541.5,49.3529,0.156735,-3.68276
542,49.4036,0.15366,-3.68297
542.5,49.4524,0.153515,-3.68412
543,49.5031,0.158517,-3.68344
543.5,49.5528,0.164749,-3.68344
544,49.6026,0.156265,-3.68471
544.5,49.6519,0.161406,-3.68409
545,49.7017,0.156946,-3.68408
545.5,49.751,0.154829,-3.68541
546,49.8011,0.160077,-3.68541
546.5,49.8513,0.156451,-3.68541
547,49.9013,0.159599,-3.6851
547.5,49.95,0.156094,-3.68509
548,49.9995,0.158997,-3.68545
548.5,50.05,0.156299,-3.68542
549,50.0997,0.153573,-3.68542
549.5,50.1491,0.163053,-3.68674
550,50.1988,0.160015,-3.68673
550.5,50.2479,0.15762,-3.68673
551,50.298,0.156663,-3.68673
551.5,50.3486,0.15749,-3.68673
552,50.3979,0.155678,-3.68683
552.5,50.4481,0.151677,-3.68805
553,50.4977,0.149749,-3.68806
553.5,50.5478,0.155483,-3.68936
554,50.5973,0.158069,-3.68818
554.5,50.6467,0.153472,-3.68805
555,50.6947,0.155187,-3.68805
555.5,50.7472,0.161453,-3.68838
556,50.7966,0.154346,-3.68838
556.5,50.8464,0.151571,-3.68838
557,50.897,0.150287,-3.68838
557.5,50.9465,0.150425,-3.68838
558,50.996,0.148893,-3.68973
558.5,51.0462,0.147611,-3.68971
559,51.0955,0.14684,-3.69101
559.5,51.1449,0.142552,-3.69101
560,51.195,0.138617,-3.691
560.5,51.2451,0.142535,-3.68969
561,51.2949,0.136999,-3.68838
561.5,51.3447,0.136362,-3.68838
562,51.3951,0.13486,-3.68969
562.5,51.4445,0.13879,-3.69102
563,51.4947,0.136665,-3.69232
563.5,51.5446,0.127649,-3.69173
564,51.594,0.128754,-3.69108
564.5,51.6445,0.12254,-3.6897
565,51.6946,0.126731,-3.69101
565.5,51.744,0.130406,-3.69101
566,51.7944,0.128569,-3.69109
566.5,51.8445,0.118316,-3.6897
567,51.8934,0.117925,-3.69101
567.5,51.9436,0.105559,-3.69102
568,51.9934,0.109953,-3.69134
568.5,52.0437,0.105777,-3.69134
569,52.0935,0.10147,-3.69134
569.5,52.1429,0.0909323,-3.69134
570,52.1939,0.0944197,-3.69134
570.5,52.2432,0.0921434,-3.69134
571,52.2926,0.0932896,-3.69148
571.5,52.3424,0.0873933,-3.69266
572,52.3931,0.0792285,-3.69266
572.5,52.4427,0.0808117,-3.69266
573,52.4922,0.0815167,-3.69266
573.5,52.5419,0.080867,-3.69166
574,52.5923,0.0743772,-3.69167
574.5,52.6421,0.0811506,-3.69167
575,52.6917,0.0690745,-3.69302
575.5,52.7411,0.0643935,-3.69298
576,52.7905,0.0627075,-3.69298
576.5,52.8414,0.0580167,-3.69298
577,52.8911,0.0552801,-3.69298
577.5,52.9414,0.0592885,-3.69275
578,52.99,0.0487757,-3.69197
578.5,53.0412,0.0440885,-3.69166
579,53.0908,0.047887,-3.69167
579.5,53.1412,0.0473008,-3.69297
580,53.1898,0.0406014,-3.69298
580.5,53.24,0.0488931,-3.69292
581,53.2904,0.0406351,-3.6943
581.5,53.3399,0.0420903,-3.6943
582,53.3895,0.0473303,-3.6943
582.5,53.4395,0.04043,-3.69297
583,53.4898,0.0396104,-3.69298
583.5,53.5391,0.0354474,-3.69441
584,53.5889,0.0327893,-3.6943
584.5,53.6383,0.0273699,-3.6943
585,53.6895,0.0334244,-3.6943
585.5,53.7386,0.0280642,-3.6943
586,53.7891,0.0255622,-3.69395
586.5,53.8387,0.0263334,-3.69295
587,53.8882,0.0259869,-3.69299
587.5,53.9372,0.021755,-3.69299
588,53.9877,0.019423,-3.69415
588.5,54.0377,0.0189946,-3.69431
589,54.0873,0.0149892,-3.69431
589.5,54.1371,0.0109337,-3.69431
590,54.1868,0.00349648,-3.6936
590.5,54.2364,0.00975256,-3.69365
591,54.2864,0.00896414,-3.69365
591.5,54.3357,0.00934145,-3.69365
592,54.3858,0.00975942,-3.69365
592.5,54.4347,0.0106967,-3.69366
593,54.4847,0.0043728,-3.69497
593.5,54.5354,0.00990767,-3.69497
594,54.5851,0.0111945,-3.69498
594.5,54.6348,0.00556015,-3.69431
595,54.684,0.00125506,-3.69517
595.5,54.7342,-0.00396058,-3.6943
596,54.7841,-0.00285509,-3.69421
596.5,54.8339,-0.00342421,-3.69562
597,54.8831,0.00252836,-3.6956
597.5,54.932,0.00288833,-3.6943
598,54.9816,0.000647706,-3.6943
598.5,55.0324,0.00473232,-3.6943
599,55.0819,0.0018955,-3.69424
599.5,55.1325,0.00199002,-3.69331
600,55.1827,-0.00270918,-3.69399
600.5,55.2321,-0.00206358,-3.69562
601,55.2824,0.00229986,-3.69562
601.5,55.3319,-0.000851298,-3.69561
602,55.3817,0.00295955,-3.69695
602.5,55.4325,0.00654689,-3.69679
603,55.4813,0.00261489,-3.69562
603.5,55.5315,0.00533609,-3.69491
604,55.5816,-0.00291498,-3.6943
604.5,55.6297,0.00148827,-3.69532
605,55.6802,-0.00107554,-3.69636
605.5,55.7301,-0.00443666,-3.69661
606,55.7797,0.00423909,-3.69661
606.5,55.8322,0.00520602,-3.69661
607,55.8817,0.00342197,-3.69661
607.5,55.9317,-0.00268169,-3.69661
608,55.9817,0.000608287,-3.69661
608.5,56.032,0.004134,-3.69661
609,56.0827,0.00811795,-3.69596
609.5,56.1314,0.00573908,-3.6955
610,56.1821,0.00621448,-3.69594
610.5,56.232,0.0102156,-3.69641
611,56.2816,0.0091784,-3.69662
611.5,56.3329,0.00114555,-3.69528
612,56.382,0.00595771,-3.69646
612.5,56.4319,0.00708499,-3.69661
613,56.4824,0.00118168,-3.69661
613.5,56.5328,0.00314798,-3.69661
614,56.5824,0.00383291,-3.69661
614.5,56.6332,-0.00546003,-3.69775
615,56.6833,0.00353127,-3.69663
615.5,56.7335,0.00552079,-3.69661
616,56.7824,0.000612317,-3.69774
616.5,56.8338,-0.001376,-3.6979
617,56.883,0.00297961,-3.69661
617.5,56.9338,0.00581998,-3.69661
618,56.9839,0.00722704,-3.69795
618.5,57.0337,0.00105514,-3.69794
619,57.0838,-0.000382716,-3.69695
619.5,57.1344,4.19206e-05,-3.69694
620,57.1845,0.000415252,-3.69694
620.5,57.2324,0.0108263,-3.69694
621,57.2851,0.00871964,-3.69694
621.5,57.3349,0.0125055,-3.69694
622,57.3857,0.0089285,-3.69694
622.5,57.4354,0.00212776,-3.69826
623,57.4851,0.00751562,-3.69826
623.5,57.5354,0.0152668,-3.69826
624,57.586,0.0145493,-3.69826
624.5,57.6367,0.0199455,-3.69826
625,57.6867,0.0212165,-3.69826
625.5,57.736,0.0137958,-3.69694
626,57.7866,0.00857165,-3.69692
626.5,57.8363,0.00832173,-3.69826
627,57.8869,0.00572262,-3.69826
627.5,57.9367,0.0132567,-3.69826
628,57.9871,0.01715,-3.69728
628.5,58.0371,0.0145711,-3.69727
629,58.0877,0.0183236,-3.69727
629.5,58.1375,0.0176742,-3.69858
630,58.1879,0.022284,-3.69727
630.5,58.2371,0.0201239,-3.69725
631,58.2866,0.0218456,-3.69859
631.5,58.3379,0.0203219,-3.69859
632,58.3885,0.0235125,-3.69823
632.5,58.4389,0.0307189,-3.69826
633,58.4892,0.0249385,-3.69826
633.5,58.5378,0.0223782,-3.69825
634,58.5887,0.0273794,-3.70533
634.5,58.6385,0.0201718,-3.69954
635,58.6885,0.034589,-3.69748
635.5,58.7395,0.0265602,-3.69608
636,58.7891,0.0266192,-3.69544
636.5,58.8392,0.0298572,-3.69552
637,58.8891,0.0312009,-3.69682
637.5,58.9396,0.033902,-3.6995
638,58.9889,0.034403,-3.69957
638.5,59.0388,0.0364921,-3.69957
639,59.0901,0.0440526,-3.69957
639.5,59.14,0.0381746,-3.69957
640,59.191,0.0421259,-3.69957
640.5,59.241,0.0396428,-3.69957
641,59.2906,0.0433448,-3.69957
641.5,59.3409,0.0444893,-3.69957
642,59.3908,0.0402671,-3.69957
642.5,59.4407,0.0418395,-3.69957
643,59.4909,0.0490999,-3.69957
643.5,59.5392,0.0459209,-3.69958
644,59.592,0.0409826,-3.69957
644.5,59.6419,0.0436614,-3.69957
645,59.6906,0.0473529,-3.69957
645.5,59.7419,0.0465089,-3.69957
646,59.7926,0.0532527,-3.69852
646.5,59.842,0.0491838,-3.69858
647,59.8925,0.0484992,-3.69858
647.5,59.9425,0.0552304,-3.69926
648,59.9929,0.0506047,-3.6999
648.5,60.0428,0.0468284,-3.6999
649,60.0913,0.0553816,-3.69983
649.5,60.143,0.0468915,-3.70085
650,60.1925,0.0598521,-3.70122
650.5,60.2427,0.0548681,-3.70127
651,60.2927,0.055632,-3.70519
651.5,60.3434,0.0691515,-3.70259
652,60.3931,0.056452,-3.69874
652.5,60.4415,0.0538279,-3.69881
653,60.4935,0.0597263,-3.6983
653.5,60.5449,0.0669306,-3.69749
654,60.594,0.0671204,-3.69882
654.5,60.6444,0.0671674,-3.69881
655,60.6946,0.0657965,-3.69878
655.5,60.7441,0.0708473,-3.69978
656,60.7946,0.0639948,-3.70078
656.5,60.8429,0.0681199,-3.70075
657,60.8944,0.0716345,-3.69946
657.5,60.9451,0.0740359,-3.69946
658,60.9949,0.0749907,-3.7011
658.5,61.046,0.0702682,-3.70143
659,61.0959,0.0703503,-3.70144
659.5,61.1453,0.0799414,-3.70144
660,61.1951,0.0690203,-3.70012
660.5,61.2454,0.0717163,-3.70012
661,61.2956,0.0685685,-3.69941
661.5,61.3462,0.076716,-3.69946
662,61.3959,0.0785604,-3.70078
662.5,61.446,0.0741336,-3.70078
663,61.4969,0.0777509,-3.70078
663.5,61.5466,0.0678638,-3.70178
664,61.5956,0.0802402,-3.70076
664.5,61.6471,0.0816465,-3.70045
665,61.697,0.0885108,-3.70114
665.5,61.7484,0.083518,-3.70045
666,61.7986,0.0826502,-3.70045
666.5,61.8481,0.0813066,-3.70044
667,61.8982,0.091658,-3.70178
667.5,61.9493,0.0820093,-3.70177
668,62.0003,0.0836161,-3.70177
668.5,62.0497,0.078867,-3.70177
669,62.0981,0.0809446,-3.70177
669.5,62.1503,0.0839826,-3.70177
670,62.2013,0.0824038,-3.70177
670.5,62.2517,0.0923482,-3.7004
671,62.3023,0.0902479,-3.70045
671.5,62.3522,0.0915116,-3.70045
672,62.4026,0.094468,-3.70045
672.5,62.4538,0.0935728,-3.7018
673,62.5037,0.0954398,-3.70177
673.5,62.5539,0.090482,-3.70177
674,62.6041,0.0995224,-3.70177
674.5,62.6556,0.0908339,-3.70177
675,62.7051,0.0931807,-3.70177
675.5,62.7555,0.0922173,-3.70154
676,62.8061,0.094723,-3.7011
676.5,62.8561,0.0956006,-3.70242
677,62.9064,0.0953608,-3.70241
677.5,62.9566,0.0938911,-3.70167
678,63.0073,0.0896553,-3.70077
678.5,63.0584,0.0996056,-3.70178
679,63.1079,0.0942074,-3.70309
679.5,63.1587,0.0927989,-3.7021
680,63.2087,0.0918819,-3.70176
680.5,63.2598,0.0938564,-3.70177
681,63.3096,0.0958196,-3.70177
681.5,63.3593,0.0888107,-3.70177
682,63.4109,0.0945678,-3.70175
682.5,63.4602,0.0988966,-3.70045
683,63.5099,0.0949857,-3.70045
683.5,63.5606,0.10005,-3.70045
684,63.6108,0.095503,-3.70065
684.5,63.6611,0.0885786,-3.70231
685,63.7105,0.0969725,-3.70244
685.5,63.7615,0.0927752,-3.70179
686,63.812,0.0925704,-3.70177
686.5,63.8627,0.088821,-3.70177
687,63.9133,0.0918591,-3.70177
687.5,63.962,0.0957952,-3.70177
688,64.0136,0.0938796,-3.70177
688.5,64.0635,0.0903694,-3.70177
689,64.114,0.0930939,-3.7031
689.5,64.1646,0.0989017,-3.70309
690,64.2157,0.0955784,-3.70309
690.5,64.2654,0.097682,-3.70276
691,64.3151,0.0893443,-3.70243
691.5,64.3649,0.089294,-3.70243
692,64.4161,0.0934185,-3.70243
692.5,64.4668,0.0979721,-3.70243
693,64.5178,0.0910471,-3.70114
693.5,64.5682,0.0886182,-3.7019
694,64.6181,0.086624,-3.70197
694.5,64.6687,0.0880764,-3.70308
695,64.7186,0.0796276,-3.70308
695.5,64.7689,0.0842682,-3.70308
696,64.8188,0.0861233,-3.70308
696.5,64.8698,0.0806573,-3.70244
697,64.9199,0.07961,-3.70242
697.5,64.9703,0.0824123,-3.70242
698,65.0209,0.0844589,-3.70242
698.5,65.0715,0.0815999,-3.70241
699,65.1214,0.0816033,-3.70306
699.5,65.1711,0.0803841,-3.70311
700,65.2209,0.0789187,-3.70256
700.5,65.2727,0.0790921,-3.70308
701,65.3238,0.0718716,-3.70308
701.5,65.3736,0.0711231,-3.70308
702,65.4239,0.074562,-3.70308
702.5,65.4751,0.071902,-3.70309
703,65.5254,0.0783018,-3.70177
703.5,65.5761,0.0734831,-3.70177
704,65.6259,0.0733757,-3.70177
704.5,65.6768,0.0693997,-3.70177
705,65.7272,0.0728102,-3.70383
705.5,65.7781,0.0717048,-3.70375
706,65.8284,0.0731558,-3.70374
706.5,65.8784,0.0711643,-3.70244
707,65.9296,0.0696703,-3.70243
707.5,65.9801,0.0711879,-3.70327
708,66.0298,0.0670065,-3.70301
708.5,66.0809,0.0675868,-3.70309
709,66.1311,0.0681974,-3.70309
709.5,66.1816,0.0689641,-3.70285
710,66.2319,0.0610048,-3.70342
710.5,66.2825,0.0641359,-3.70342
711,66.3322,0.0726877,-3.70342
711.5,66.3828,0.0738895,-3.70342
712,66.4344,0.0725853,-3.70342
712.5,66.4843,0.079415,-3.70275
713,66.5356,0.0741381,-3.70276
713.5,66.5854,0.0719499,-3.70309
714,66.6356,0.0716405,-3.70309
714.5,66.6859,0.0754859,-3.70309
715,66.7366,0.077049,-3.70309
715.5,66.7875,0.0761658,-3.70362
716,66.8381,0.0774275,-3.7044
716.5,66.8889,0.0792639,-3.70374
717,66.9398,0.0840448,-3.70374
717.5,66.9888,0.0834332,-3.70374
718,67.0389,0.0794805,-3.70374
718.5,67.091,0.0869356,-3.70374
719,67.1407,0.0921324,-3.70374
719.5,67.1919,0.0969056,-3.70374
720,67.2414,0.0971245,-3.70374
720.5,67.2926,0.103973,-3.70409
721,67.3429,0.109423,-3.70407
721.5,67.3932,0.110691,-3.70407
722,67.4451,0.10562,-3.70407
722.5,67.4955,0.111783,-3.70357
723,67.5448,0.116771,-3.70273
723.5,67.5957,0.115824,-3.70374
724,67.6459,0.122368,-3.70375
724.5,67.6962,0.115565,-3.70407
725,67.7468,0.12329,-3.70407
725.5,67.7978,0.124251,-3.70407
726,67.8478,0.131992,-3.70505
726.5,67.8983,0.136278,-3.70374
727,67.9478,0.137693,-3.70374
727.5,67.998,0.135976,-3.70384
728,68.0489,0.135538,-3.70506
728.5,68.0993,0.133646,-3.70506
729,68.1498,0.142449,-3.70506
729.5,68.1999,0.139053,-3.7051
730,68.251,0.14361,-3.70473
730.5,68.3007,0.140024,-3.70573
731,68.3514,0.145529,-3.70549
731.5,68.4008,0.143037,-3.70474
732,68.452,0.149782,-3.70409
732.5,68.5026,0.1448,-3.70341
733,68.5521,0.15169,-3.70474
733.5,68.6034,0.142639,-3.70466
734,68.6537,0.148728,-3.70605
734.5,68.7037,0.153437,-3.70605
735,68.754,0.155884,-3.70605
735.5,68.8048,0.167111,-3.70605
736,68.8559,0.162188,-3.70605
736.5,68.9056,0.169121,-3.7054
737,68.956,0.172378,-3.70541
737.5,69.0071,0.178149,-3.70476
738,69.0575,0.177018,-3.70474
738.5,69.1077,0.178333,-3.70472
739,69.1598,0.173462,-3.70509
739.5,69.2096,0.184529,-3.70401
740,69.2604,0.174574,-3.70407