File: 01_Data/Helmet_Tetrahedron/STA/N2/10K_min/Helmet_Tetrahedron_STA_N2_10KData_250508_R2.csv
Temp./C,Time/min,DSC/(mW/mg),Mass loss/mg
35.0,0.0,0.492876,-0.0210597
35.5,0.0887478,0.504795,-0.0177379
36,0.179551,0.526243,-0.0172
36.5,0.262639,0.552301,-0.0169897
37,0.344476,0.561654,-0.0168149
37.5,0.425732,0.578432,-0.0152684
38,0.503283,0.597652,-0.00774517
38.5,0.581008,0.606764,-0.0111926
39,0.648169,0.627755,-0.0154814
39.5,0.727425,0.640263,-0.0185715
40,0.801938,0.642054,-0.0178397
40.5,0.873151,0.660683,-0.0134401
41,0.944431,0.672143,-0.0102775
41.5,1.01308,0.684295,-0.0122533
42,1.08035,0.697235,-0.0120096
42.5,1.14853,0.702898,-0.0121293
43,1.21533,0.71167,-0.0105177
43.5,1.28196,0.720597,-0.0109306
44,1.3466,0.738503,-0.0113323
44.5,1.40781,0.739875,-0.0121846
45,1.47564,0.753439,-0.0112648
45.5,1.54077,0.760133,-0.0107566
46,1.60212,0.767263,-0.0108231
46.5,1.66424,0.764852,-0.00916118
47,1.72565,0.79145,-0.00925811
47.5,1.78692,0.799012,-0.00920522
48,1.84981,0.798323,-0.00887664
48.5,1.90885,0.813794,-0.00914917
49,1.97055,0.820281,-0.00822799
49.5,2.03011,0.836315,-0.00830207
50,2.08899,0.837586,-0.00818559
50.5,2.14953,0.843635,-0.00932016
51,2.20723,0.857768,-0.00931837
51.5,2.26344,0.863175,-0.00939296
52,2.32385,0.868321,-0.00942451
52.5,2.38268,0.880751,-0.00977906
53,2.44167,0.885323,-0.0094389
53.5,2.49682,0.896302,-0.00946978
54,2.55493,0.904509,-0.00945395
54.5,2.61241,0.917083,-0.00943676
55,2.66738,0.918054,-0.00941031
55.5,2.72343,0.926886,-0.00945621
56,2.77969,0.935153,-0.00944811
56.5,2.83449,0.945178,-0.00954887
57,2.89129,0.94382,-0.00913576
57.5,2.9479,0.947822,-0.00949808
58,3.0037,0.953971,-0.00942943
58.5,3.05453,0.95607,-0.00872651
59,3.11186,0.959828,-0.00813009
59.5,3.16592,0.966887,-0.00807635
60,3.22096,0.967588,-0.00751628
60.5,3.27443,0.966172,-0.00695707
61,3.32707,0.97309,-0.00781039
61.5,3.38217,0.97241,-0.00680971
62,3.43278,0.971788,-0.00571026
62.5,3.48751,0.97358,-0.00533435
63,3.53934,0.974249,-0.00570645
63.5,3.59441,0.970191,-0.00696561
64,3.64627,0.97391,-0.00755481
64.5,3.69928,0.973218,-0.0069725
65,3.74854,0.974715,-0.00704097
65.5,3.80365,0.982023,-0.00698285
66,3.85721,0.979461,-0.00839756
66.5,3.90898,0.983361,-0.00700941
67,3.96195,0.979323,-0.00703902
67.5,4.01347,0.980714,-0.00686564
68,4.06447,0.984693,-0.00702075
68.5,4.11662,0.986721,-0.00563413
69,4.16813,0.987383,-0.0053398
69.5,4.21962,0.996716,-0.0073767
70,4.27126,0.994645,-0.00944181
70.5,4.32394,0.991708,-0.00596346
71,4.37498,0.995278,-0.00717513
71.5,4.42773,0.995262,-0.00608149
72,4.47733,1.00763,-0.00534818
72.5,4.52903,1.01478,-0.00600851
73,4.58037,1.0132,-0.00592343
73.5,4.63242,1.01706,-0.00593411
74,4.68251,1.01514,-0.0103171
74.5,4.73324,1.01725,-0.00968535
75,4.78383,1.01856,-0.00691213
75.5,4.83569,1.02989,-0.00558526
76,4.88499,1.02926,-0.00560003
76.5,4.9337,1.04013,-0.0056005
77,4.98708,1.03791,-0.00680397
77.5,5.03851,1.04376,-0.00681499
78,5.0894,1.04511,-0.00692394
78.5,5.13889,1.04682,-0.0063899
79,5.18965,1.05455,-0.00692097
79.5,5.24031,1.05272,-0.00592333
80,5.28817,1.05569,-0.00686266
80.5,5.34001,1.05699,-0.00559211
81,5.39238,1.06013,-0.00692512
81.5,5.44282,1.06389,-0.00688375
82,5.49199,1.06591,-0.0069257
82.5,5.54235,1.07057,-0.00689525
83,5.5925,1.07521,-0.00690815
83.5,5.64255,1.06977,-0.00690155
84,5.69221,1.08092,-0.00690215
84.5,5.74192,1.08207,-0.00691069
85,5.7916,1.0843,-0.00799548
85.5,5.83899,1.09014,-0.0117987
86,5.89175,1.08773,-0.00863939
86.5,5.94107,1.09357,-0.00779963
87,5.99064,1.09665,-0.00685914
87.5,6.03678,1.10155,-0.00648012
88,6.0894,1.10264,-0.00701917
88.5,6.13795,1.10998,-0.00640007
89,6.18744,1.10297,-0.00778705
89.5,6.23646,1.11395,-0.00648671
90,6.28656,1.11771,-0.00648497
90.5,6.33537,1.11674,-0.00777588
91,6.38391,1.12082,-0.00691382
91.5,6.43414,1.12442,-0.0064783
92,6.48224,1.12395,-0.00782851
92.5,6.5304,1.12801,-0.00922176
93,6.58067,1.13094,-0.00921988
93.5,6.6283,1.1297,-0.00804788
94,6.67637,1.13192,-0.00859922
94.5,6.72564,1.13336,-0.00921847
95,6.77422,1.14482,-0.00803488
95.5,6.82273,1.145,-0.00790976
96,6.87053,1.14995,-0.00891686
96.5,6.92075,1.1532,-0.0075769
97,6.96844,1.15902,-0.00758009
97.5,7.01715,1.1584,-0.00754875
98,7.0649,1.1566,-0.00790599
98.5,7.11377,1.15892,-0.00746214
99,7.16159,1.16058,-0.00756999
99.5,7.20976,1.16456,-0.00757514
100,7.25806,1.16963,-0.00655037
100.5,7.30758,1.17751,-0.00649691
101,7.35575,1.17142,-0.00660669
101.5,7.40411,1.17311,-0.00658998
102,7.45156,1.17947,-0.00789941
102.5,7.50117,1.1809,-0.00657551
103,7.54783,1.18419,-0.00791706
103.5,7.59561,1.18654,-0.00790999
104,7.64456,1.19134,-0.00790981
104.5,7.69249,1.19079,-0.00660364
105,7.7409,1.1879,-0.00660135
105.5,7.78938,1.19448,-0.00788885
106,7.83712,1.19501,-0.00733146
106.5,7.88556,1.19417,-0.00790093
107,7.93413,1.20247,-0.00791552
107.5,7.98267,1.2001,-0.00920953
108,8.02928,1.19984,-0.00922002
108.5,8.07894,1.20527,-0.00921961
109,8.12663,1.21268,-0.00790354
109.5,8.17444,1.21455,-0.00922693
110,8.22137,1.21929,-0.00922993
110.5,8.26921,1.21638,-0.00787668
111,8.31806,1.21736,-0.00791631
111.5,8.36599,1.2217,-0.00689676
112,8.41519,1.22228,-0.00789899
112.5,8.46234,1.23514,-0.00928019
113,8.50981,1.23207,-0.00921987
113.5,8.55827,1.23395,-0.00921992
114,8.60521,1.2357,-0.00916036
114.5,8.65479,1.23786,-0.00958777
115,8.70395,1.23664,-0.00921975
115.5,8.7509,1.23856,-0.00923192
116,8.79869,1.24214,-0.0124137
116.5,8.84683,1.24148,-0.00981577
117,8.89483,1.24654,-0.00856653
117.5,8.9433,1.24547,-0.00856813
118,8.98841,1.24903,-0.00955425
118.5,9.03888,1.2494,-0.00823887
119,9.08628,1.25749,-0.00823003
119.5,9.13452,1.2534,-0.00818538
120,9.18283,1.25434,-0.00955312
120.5,9.23157,1.25881,-0.00955331
121,9.27617,1.26288,-0.0101663
121.5,9.32562,1.25941,-0.00946841
122,9.3745,1.26483,-0.00955011
122.5,9.42165,1.26262,-0.00955
123,9.47032,1.26042,-0.00955
123.5,9.51811,1.26905,-0.00956153
124,9.56538,1.26957,-0.00947614
124.5,9.61207,1.27455,-0.00954309
125,9.66031,1.26893,-0.00954198
125.5,9.70768,1.2672,-0.0103786
126,9.75639,1.27955,-0.00955135
126.5,9.8034,1.27689,-0.00955
127,9.85098,1.27763,-0.00955
127.5,9.89801,1.28276,-0.00955017
128,9.94658,1.28574,-0.00938294
128.5,9.99431,1.2868,-0.00956163
129,10.042,1.28876,-0.0108574
129.5,10.0898,1.28936,-0.00954797
130,10.1366,1.28418,-0.00954978
130.5,10.1844,1.28506,-0.00971294
131,10.2319,1.28877,-0.0108671
131.5,10.2789,1.28784,-0.0121891
132,10.3268,1.28884,-0.0121879
132.5,10.3757,1.29476,-0.0109233
133,10.4228,1.2971,-0.01087
133.5,10.469,1.28705,-0.0108701
134,10.5174,1.29115,-0.0107165
134.5,10.5624,1.29435,-0.0106321
135,10.6131,1.29312,-0.0105399
135.5,10.6596,1.29884,-0.01054
136,10.7064,1.29923,-0.0105072
136.5,10.7543,1.29583,-0.0111913
137,10.8016,1.30052,-0.0111784
137.5,10.8488,1.3014,-0.0121859
138,10.8965,1.30611,-0.01218
138.5,10.9434,1.31609,-0.0121799
139,10.9912,1.30455,-0.0121604
139.5,11.0373,1.30981,-0.0135014
140,11.0857,1.3188,-0.0135816
140.5,11.1316,1.31983,-0.0121898
141,11.1804,1.3123,-0.01219
141.5,11.2288,1.31436,-0.01219
142,11.2753,1.31939,-0.012196
142.5,11.3221,1.32203,-0.0125379
143,11.3695,1.32154,-0.01252
143.5,11.417,1.3132,-0.01252
144,11.4635,1.3212,-0.01252
144.5,11.5097,1.32374,-0.01252
145,11.558,1.32061,-0.01252
145.5,11.6049,1.32447,-0.0125175
146,11.6522,1.32971,-0.013831
146.5,11.6991,1.32754,-0.0135787
147,11.743,1.33025,-0.0141641
147.5,11.7937,1.33032,-0.0141602
148,11.8402,1.33474,-0.0141874
148.5,11.887,1.3336,-0.012837
149,11.9347,1.33743,-0.012946
149.5,11.9811,1.33519,-0.0134998
150,12.0279,1.33161,-0.013625
150.5,12.0756,1.33588,-0.0135046
151,12.1197,1.34325,-0.01351
151.5,12.1694,1.34176,-0.01351
152,12.2168,1.34486,-0.01351
152.5,12.2635,1.34043,-0.0135099
153,12.3089,1.33932,-0.013473
153.5,12.3579,1.34522,-0.0148306
154,12.4048,1.34444,-0.014868
154.5,12.4527,1.34643,-0.0135138
155,12.4997,1.34718,-0.0148133
155.5,12.5448,1.34771,-0.0148196
156,12.5936,1.35527,-0.014403
156.5,12.6399,1.35975,-0.0154657
157,12.6871,1.35481,-0.0148153
157.5,12.7339,1.35547,-0.01482
158,12.782,1.35871,-0.01482
158.5,12.8282,1.36063,-0.01482
159,12.8754,1.35702,-0.01482
159.5,12.9213,1.36351,-0.0148191
160,12.9691,1.36218,-0.016425
160.5,13.0149,1.36411,-0.016479
161,13.0642,1.36106,-0.0168021
161.5,13.1104,1.3669,-0.0155119
162,13.1576,1.37758,-0.0154894
162.5,13.2041,1.38035,-0.0158131
163,13.2512,1.3801,-0.0164592
163.5,13.2984,1.37826,-0.0168021
164,13.3455,1.38294,-0.0167941
164.5,13.3921,1.38459,-0.018113
165,13.4397,1.37794,-0.018109
165.5,13.4866,1.37544,-0.0168602
166,13.5329,1.382,-0.0167899
166.5,13.5799,1.3799,-0.01679
167,13.6271,1.38342,-0.01679
167.5,13.674,1.38286,-0.0167904
168,13.7219,1.38175,-0.0168168
168.5,13.7689,1.3865,-0.0167836
169,13.8163,1.37818,-0.0168
169.5,13.8631,1.38917,-0.0168261
170,13.9104,1.38514,-0.0177917
170.5,13.9562,1.37917,-0.01779
171,14.004,1.38535,-0.0177914
171.5,14.0498,1.38384,-0.0165276
172,14.0975,1.38352,-0.0164698
172.5,14.145,1.3878,-0.0164681
173,14.1911,1.39249,-0.0171154
173.5,14.2362,1.38944,-0.0181179
174,14.2864,1.38923,-0.0184407
174.5,14.3327,1.38815,-0.0186877
175,14.3797,1.39028,-0.0199217
175.5,14.4267,1.38351,-0.0217175
176,14.4738,1.38511,-0.0192167
176.5,14.5202,1.38804,-0.0184319
177,14.5684,1.39229,-0.01844
177.5,14.6145,1.38583,-0.0184399
178,14.6612,1.3834,-0.01844
178.5,14.7085,1.38718,-0.0173174
179,14.7558,1.38927,-0.0192415
179.5,14.8018,1.38678,-0.0197602
180,14.849,1.39127,-0.0197604
180.5,14.8956,1.3902,-0.0207587
181,14.9438,1.39392,-0.01976
181.5,14.9909,1.38786,-0.01976
182,15.0372,1.38347,-0.01976
182.5,15.0838,1.37723,-0.01976
183,15.1313,1.38727,-0.019761
183.5,15.1781,1.39283,-0.0203704
184,15.2257,1.38861,-0.0202903
184.5,15.2725,1.38693,-0.0197597
185,15.317,1.38809,-0.0197602
185.5,15.3651,1.3821,-0.0196542
186,15.4127,1.38303,-0.0210799
186.5,15.4599,1.38774,-0.0210799
187,15.5067,1.38711,-0.0211817
187.5,15.5532,1.38676,-0.0211873
188,15.6016,1.38325,-0.0210699
188.5,15.6479,1.39399,-0.02107
189,15.6949,1.39086,-0.02107
189.5,15.7404,1.38359,-0.0210676
190,15.7893,1.3815,-0.0223578
190.5,15.8347,1.39,-0.0223904
191,15.882,1.38628,-0.0230209
191.5,15.9282,1.37962,-0.0238268
192,15.9754,1.3818,-0.0227324
192.5,16.0223,1.38715,-0.0227287
193,16.0687,1.37117,-0.0240158
193.5,16.1166,1.37861,-0.0233823
194,16.1642,1.38341,-0.02338
194.5,16.2103,1.377,-0.02338
195,16.2575,1.37753,-0.0233822
195.5,16.3048,1.37806,-0.023243
196,16.3513,1.37976,-0.02339
196.5,16.3993,1.37922,-0.02339
197,16.4445,1.38128,-0.0234182
197.5,16.4926,1.37784,-0.0246971
198,16.5392,1.37884,-0.0247
198.5,16.5869,1.38518,-0.0247
199,16.6337,1.38294,-0.0246846
199.5,16.6806,1.38096,-0.0260254
200,16.7271,1.39056,-0.0257951
200.5,16.7734,1.38627,-0.0243717
201,16.8206,1.38484,-0.02437
201.5,16.8666,1.38737,-0.02437
202,16.9148,1.37612,-0.0243713
202.5,16.9617,1.3765,-0.0255915
203,17.009,1.38931,-0.0256917
203.5,17.0556,1.38401,-0.0267878
204,17.1,1.38741,-0.0266801
204.5,17.1502,1.37886,-0.0266801
205,17.1959,1.38158,-0.0280328
205.5,17.2435,1.38658,-0.0279999
206,17.2901,1.38554,-0.028
206.5,17.3372,1.38936,-0.028
207,17.3823,1.38495,-0.0279676
207.5,17.4317,1.38411,-0.0266907
208,17.4787,1.37704,-0.0283416
208.5,17.5247,1.37738,-0.0294254
209,17.5722,1.37872,-0.0296511
209.5,17.6198,1.38262,-0.030944
210,17.6665,1.38168,-0.030951
210.5,17.7132,1.38322,-0.0317731
211,17.7596,1.38806,-0.0322697
211.5,17.8065,1.38804,-0.03227
212,17.8536,1.38285,-0.03227
212.5,17.9013,1.37809,-0.03227
213,17.9476,1.37562,-0.0324533
213.5,17.9951,1.37013,-0.0329291
214,18.0405,1.3734,-0.0329
214.5,18.0887,1.38004,-0.034724
215,18.1353,1.37631,-0.03491
215.5,18.1818,1.37773,-0.0349094
216,18.2289,1.37417,-0.0362181
216.5,18.2758,1.37034,-0.03623
217,18.3238,1.37414,-0.03623
217.5,18.3708,1.37748,-0.03623
218,18.4181,1.3635,-0.0372815
218.5,18.4643,1.36966,-0.0375406
219,18.5117,1.36617,-0.0375366
219.5,18.5588,1.3621,-0.0389222
220,18.6053,1.36903,-0.0395953
220.5,18.6529,1.36593,-0.039212
221,18.6998,1.35989,-0.0401812
221.5,18.7463,1.36582,-0.0401798
222,18.7942,1.35712,-0.0414208
222.5,18.8407,1.34847,-0.0418307
223,18.8878,1.34566,-0.0429729
223.5,18.9344,1.3422,-0.0431503
224,18.9818,1.34338,-0.0431529
224.5,19.0292,1.34324,-0.0450141
225,19.0759,1.33376,-0.0450842
225.5,19.1236,1.32924,-0.0454049
226,19.1701,1.32447,-0.0467694
226.5,19.2166,1.3213,-0.0467696
227,19.2639,1.31904,-0.0469754
227.5,19.3105,1.31052,-0.0480908
228,19.3566,1.31637,-0.0493952
228.5,19.4056,1.31455,-0.0494564
229,19.4527,1.30331,-0.0507183
229.5,19.4995,1.30769,-0.050939
230,19.5459,1.29836,-0.052404
230.5,19.5939,1.29114,-0.0532695
231,19.6409,1.28565,-0.0550227
231.5,19.6874,1.2843,-0.0561495
232,19.7342,1.28276,-0.0563288
232.5,19.7791,1.27441,-0.0583255
233,19.8285,1.27448,-0.0582332
233.5,19.8763,1.25998,-0.0596155
234,19.9225,1.26105,-0.0606863
234.5,19.9706,1.25597,-0.0609283
235,20.017,1.25646,-0.0622524
235.5,20.0642,1.24738,-0.0635637
236,20.1112,1.24361,-0.06488
236.5,20.1584,1.23992,-0.0661761
237,20.2066,1.23181,-0.0670665
237.5,20.2526,1.22571,-0.0675082
238,20.2997,1.22079,-0.0687631
238.5,20.3469,1.21587,-0.0702711
239,20.3937,1.2063,-0.0710921
239.5,20.4407,1.19946,-0.0724498
240,20.4884,1.1935,-0.0731445
240.5,20.536,1.18149,-0.0751875
241,20.5824,1.18005,-0.0777474
241.5,20.6297,1.17338,-0.0790659
242,20.6768,1.15575,-0.0803642
242.5,20.7248,1.15968,-0.0818139
243,20.7712,1.15329,-0.0842
243.5,20.819,1.13759,-0.0847184
244,20.8652,1.13051,-0.0886449
244.5,20.9133,1.12475,-0.0902285
245,20.961,1.11242,-0.0915587
245.5,21.0075,1.08733,-0.0928828
246,21.0552,1.08343,-0.0955181
246.5,21.1019,1.06981,-0.0973012
247,21.1485,1.06197,-0.0988117
247.5,21.1944,1.04645,-0.100984
248,21.2407,1.03661,-0.104152
248.5,21.2883,1.03312,-0.105625
249,21.3377,1.0263,-0.109014
249.5,21.3839,1.04241,-0.11027
250,21.4323,1.07607,-0.111068
250.5,21.4811,1.14851,-0.11373
251,21.5296,1.2407,-0.116013
251.5,21.5766,1.30102,-0.119415
252,21.6251,1.3935,-0.124185
252.5,21.6733,1.44758,-0.127111
253,21.7217,1.48305,-0.131034
253.5,21.7689,1.51262,-0.134177
254,21.8161,1.54446,-0.13794
254.5,21.8654,1.56333,-0.141881
255,21.9124,1.57406,-0.146794
255.5,21.9595,1.58326,-0.150316
256,22.0069,1.59564,-0.154727
256.5,22.0543,1.60202,-0.160019
257,22.1018,1.60888,-0.163375
257.5,22.1493,1.61342,-0.165999
258,22.1973,1.61799,-0.169695
258.5,22.2434,1.61953,-0.174128
259,22.2888,1.63023,-0.178781
259.5,22.3386,1.62923,-0.181913
260,22.3861,1.63532,-0.187014
260.5,22.4339,1.64163,-0.191248
261,22.481,1.65213,-0.196271
261.5,22.5276,1.65915,-0.200614
262,22.576,1.65669,-0.20506
262.5,22.6237,1.66045,-0.210046
263,22.6704,1.66818,-0.214101
263.5,22.719,1.674,-0.220183
264,22.7663,1.68945,-0.224034
264.5,22.8137,1.69301,-0.22909
265,22.8613,1.71227,-0.234717
265.5,22.9075,1.71886,-0.240041
266,22.9554,1.73095,-0.244662
266.5,23.004,1.73697,-0.250287
267,23.0496,1.75035,-0.257005
267.5,23.0985,1.75866,-0.263623
268,23.1468,1.78122,-0.269935
268.5,23.1939,1.78139,-0.276144
269,23.2413,1.80146,-0.283361
269.5,23.2889,1.80559,-0.290179
270,23.3362,1.82657,-0.296735
270.5,23.3834,1.83612,-0.30199
271,23.4316,1.86128,-0.309092
271.5,23.4794,1.88406,-0.316491
272,23.5253,1.89922,-0.325707
272.5,23.5744,1.90694,-0.334702
273,23.6211,1.9336,-0.340653
273.5,23.6696,1.95667,-0.346419
274,23.7176,1.97658,-0.353538
274.5,23.7648,1.99208,-0.361086
275,23.8094,2.01434,-0.369292
275.5,23.8601,2.03962,-0.379626
276,23.9084,2.06715,-0.387802
276.5,23.9556,2.09197,-0.397264
277,24.0031,2.12492,-0.410818
277.5,24.052,2.14991,-0.418915
278,24.0998,2.17405,-0.428518
278.5,24.1475,2.21271,-0.43785
279,24.1954,2.24286,-0.44874
279.5,24.2432,2.2738,-0.460716
280,24.2904,2.31262,-0.471934
280.5,24.3394,2.34734,-0.48521
281,24.3866,2.3857,-0.497806
281.5,24.4359,2.4266,-0.511869
282,24.4833,2.46305,-0.523468
282.5,24.5314,2.50595,-0.536239
283,24.577,2.53632,-0.549105
283.5,24.6255,2.59268,-0.565142
284,24.6742,2.6341,-0.580082
284.5,24.7249,2.67856,-0.595922
285,24.7723,2.72141,-0.6112
285.5,24.8203,2.76343,-0.627304
286,24.8679,2.80664,-0.645133
286.5,24.9162,2.859,-0.661347
287,24.9649,2.90387,-0.679245
287.5,25.0137,2.9394,-0.698332
288,25.0607,2.97829,-0.717424
288.5,25.1079,3.01471,-0.736775
289,25.1564,3.05809,-0.757603
289.5,25.2048,3.1019,-0.777641
290,25.2527,3.12675,-0.798554
290.5,25.3006,3.16459,-0.819913
291,25.3484,3.19607,-0.84251
291.5,25.3968,3.22264,-0.865137
292,25.444,3.24109,-0.887512
292.5,25.4919,3.26439,-0.909668
293,25.5402,3.28443,-0.934543
293.5,25.5876,3.28917,-0.959213
294,25.635,3.29445,-0.984834
294.5,25.6831,3.29692,-1.00802
295,25.7287,3.30256,-1.03237
295.5,25.7784,3.30196,-1.05935
296,25.8258,3.29072,-1.08648
296.5,25.8738,3.27746,-1.11169
297,25.9206,3.26258,-1.13873
297.5,25.9679,3.25143,-1.16429
298,26.0156,3.22621,-1.19026
298.5,26.0634,3.21344,-1.21656
299,26.1102,3.19797,-1.24228
299.5,26.1584,3.1788,-1.26985
300,26.2053,3.14948,-1.29622
300.5,26.2521,3.13481,-1.32318
301,26.2994,3.11081,-1.3495
301.5,26.3464,3.09267,-1.37711
302,26.3947,3.05979,-1.40575
302.5,26.4414,3.04881,-1.43166
303,26.4883,3.02008,-1.45816
303.5,26.5368,3.0061,-1.48575
304,26.5832,2.98032,-1.51372
304.5,26.6316,2.94503,-1.54124
305,26.679,2.92938,-1.56671
305.5,26.726,2.89894,-1.59336
306,26.7727,2.8681,-1.61983
306.5,26.8191,2.83618,-1.64631
307,26.8686,2.82165,-1.67401
307.5,26.9157,2.79661,-1.70044
308,26.9626,2.76661,-1.72513
308.5,27.0109,2.73891,-1.75209
309,27.0586,2.73745,-1.77687
309.5,27.1063,2.70615,-1.80177
310,27.1536,2.72936,-1.82577
310.5,27.2012,2.71383,-1.85016
311,27.2489,2.68879,-1.87276
311.5,27.2958,2.64702,-1.89636
312,27.3432,2.60564,-1.91729
312.5,27.39,2.5589,-1.93951
313,27.4382,2.50037,-1.96062
313.5,27.4841,2.4559,-1.98194
314,27.5319,2.4103,-2.00084
314.5,27.5795,2.36742,-2.01883
315,27.6266,2.30183,-2.03814
315.5,27.6743,2.25393,-2.05628
316,27.722,2.21113,-2.07358
316.5,27.7681,2.16754,-2.09118
317,27.8164,2.11741,-2.10802
317.5,27.8633,2.06833,-2.12551
318,27.9096,2.04,-2.14057
318.5,27.9576,1.99497,-2.15532
319,28.0033,1.94681,-2.16953
319.5,28.052,1.9044,-2.18457
320,28.0987,1.86329,-2.19859
320.5,28.1461,1.83078,-2.21253
321,28.1945,1.77897,-2.22672
321.5,28.241,1.74344,-2.23938
322,28.2881,1.69925,-2.25248
322.5,28.3347,1.65877,-2.26437
323,28.3825,1.62066,-2.27741
323.5,28.4301,1.57111,-2.29075
324,28.4766,1.53719,-2.30187
324.5,28.5247,1.50871,-2.31262
325,28.573,1.46831,-2.32316
325.5,28.6194,1.42873,-2.33399
326,28.6676,1.39701,-2.34489
326.5,28.7147,1.35962,-2.35556
327,28.7613,1.32703,-2.36616
327.5,28.8095,1.28389,-2.37528
328,28.8562,1.24959,-2.38494
328.5,28.9045,1.22415,-2.39532
329,28.952,1.1745,-2.40412
329.5,28.9987,1.14613,-2.41422
330,29.0471,1.1167,-2.42243
330.5,29.0951,1.08158,-2.43154
331,29.1406,1.05253,-2.43969
331.5,29.1894,1.01909,-2.44746
332,29.2365,0.982166,-2.45416
332.5,29.2847,0.962096,-2.46153
333,29.3313,0.939092,-2.46859
333.5,29.3797,0.903263,-2.47475
334,29.4269,0.873861,-2.48262
334.5,29.4747,0.850444,-2.4898
335,29.5221,0.828475,-2.49632
335.5,29.5689,0.80481,-2.50264
336,29.6161,0.772051,-2.50904
336.5,29.6646,0.747874,-2.51508
337,29.713,0.720649,-2.52242
337.5,29.7604,0.694393,-2.52778
338,29.8084,0.673253,-2.53488
338.5,29.8562,0.656578,-2.54002
339,29.9036,0.627718,-2.54313
339.5,29.9489,0.603107,-2.54842
340,29.9979,0.574075,-2.55388
340.5,30.0467,0.559167,-2.56011
341,30.0939,0.530421,-2.56406
341.5,30.1416,0.5178,-2.56884
342,30.1891,0.501413,-2.57338
342.5,30.2369,0.47024,-2.57809
343,30.2852,0.450687,-2.58262
343.5,30.3327,0.420246,-2.58483
344,30.3801,0.405729,-2.58891
344.5,30.4284,0.391269,-2.59415
345,30.4758,0.373833,-2.5971
345.5,30.5236,0.361834,-2.59967
346,30.5712,0.353049,-2.60372
346.5,30.6187,0.326252,-2.60762
347,30.6675,0.307217,-2.61
347.5,30.7148,0.301661,-2.61349
348,30.7623,0.279096,-2.61662
348.5,30.8108,0.265427,-2.62026
349,30.8581,0.261568,-2.62297
349.5,30.9043,0.246094,-2.62601
350,30.9544,0.22595,-2.6287
350.5,31.0015,0.210735,-2.63118
351,31.0501,0.197078,-2.63434
351.5,31.0971,0.186756,-2.63578
352,31.1458,0.171684,-2.63857
352.5,31.1935,0.161199,-2.64069
353,31.2419,0.159487,-2.64215
353.5,31.2901,0.144143,-2.64426
354,31.3376,0.133248,-2.64762
354.5,31.3857,0.116661,-2.65062
355,31.434,0.110089,-2.65612
355.5,31.4811,0.106181,-2.65435
356,31.529,0.100323,-2.65519
356.5,31.5779,0.0886329,-2.65534
357,31.6263,0.0867172,-2.65769
357.5,31.6739,0.0814036,-2.65944
358,31.7217,0.0777329,-2.66083
358.5,31.7705,0.079517,-2.66295
359,31.8181,0.0708931,-2.66568
359.5,31.8672,0.0634993,-2.66785
360,31.9151,0.0624154,-2.66941
360.5,31.9626,0.0572091,-2.66966
361,32.0098,0.0544215,-2.67061
361.5,32.0586,0.0451803,-2.67333
362,32.1065,0.0424907,-2.67571
362.5,32.1548,0.0412095,-2.67752
363,32.2038,0.0367496,-2.67903
363.5,32.2495,0.0302241,-2.68055
364,32.3006,0.0338512,-2.68189
364.5,32.3485,0.0396107,-2.6819
365,32.3959,0.0367151,-2.68322
365.5,32.4442,0.0393882,-2.68321
366,32.4929,0.0314866,-2.68452
366.5,32.5399,0.0314606,-2.68576
367,32.5884,0.031503,-2.68786
367.5,32.6373,0.0303473,-2.68982
368,32.6854,0.0295907,-2.68978
368.5,32.7339,0.0294135,-2.69107
369,32.7821,0.0263298,-2.69108
369.5,32.8313,0.028139,-2.69379
370,32.8786,0.0286602,-2.69505
370.5,32.9273,0.0312694,-2.69638
371,32.9751,0.02561,-2.69701
371.5,33.0241,0.0347669,-2.69768
372,33.0722,0.0320976,-2.69913
372.5,33.1201,0.0353015,-2.70011
373,33.168,0.0357796,-2.70036
373.5,33.2169,0.0356967,-2.70304
374,33.2652,0.0417711,-2.70465
374.5,33.3133,0.0416054,-2.7059
375,33.361,0.0381487,-2.70724
375.5,33.4094,0.0374526,-2.70775
376,33.458,0.0336401,-2.70855
376.5,33.5065,0.0393195,-2.70988
377,33.5553,0.0444852,-2.70979
377.5,33.6033,0.0508004,-2.71101
378,33.6517,0.0449657,-2.71252
378.5,33.7003,0.0413468,-2.71378
379,33.7487,0.0470667,-2.71398
379.5,33.7974,0.0420401,-2.71551
380,33.8454,0.0544408,-2.71665
380.5,33.8937,0.0521196,-2.71799
381,33.9418,0.0548212,-2.72055
381.5,33.9906,0.0578711,-2.72052
382,34.0383,0.0539633,-2.72175
382.5,34.0876,0.064541,-2.72381
383,34.136,0.0622855,-2.72602
383.5,34.1844,0.0615569,-2.72689
384,34.2332,0.0619838,-2.72809
384.5,34.2811,0.0661468,-2.72898
385,34.3301,0.0625942,-2.73029
385.5,34.3787,0.0667653,-2.73161
386,34.4268,0.0624177,-2.73294
386.5,34.4754,0.0702072,-2.73368
387,34.5236,0.073951,-2.73514
387.5,34.5724,0.0720333,-2.73648
388,34.6202,0.0682708,-2.73706
388.5,34.6688,0.0689122,-2.73888
389,34.7175,0.0756441,-2.74046
389.5,34.766,0.077648,-2.74225
390,34.8126,0.071046,-2.74367
390.5,34.8634,0.0792342,-2.74477
391,34.9113,0.0761906,-2.74687
391.5,34.9597,0.0704023,-2.75008
392,35.0084,0.0737746,-2.75143
392.5,35.056,0.0725798,-2.75267
393,35.1054,0.0750858,-2.75461
393.5,35.1531,0.0730233,-2.755
394,35.202,0.0756576,-2.75642
394.5,35.2504,0.0763903,-2.75897
395,35.299,0.0781465,-2.76131
395.5,35.347,0.0785,-2.7637
396,35.3958,0.0732491,-2.76662
396.5,35.4438,0.0708341,-2.76836
397,35.4915,0.0704279,-2.77016
397.5,35.5409,0.0763191,-2.77231
398,35.5891,0.0803548,-2.77471
398.5,35.6385,0.0823574,-2.77594
399,35.6861,0.075724,-2.77751
399.5,35.7346,0.074936,-2.78074
400,35.7838,0.0761232,-2.78272
400.5,35.8318,0.0742315,-2.78518
401,35.8809,0.0728455,-2.78814
401.5,35.9292,0.0680904,-2.78942
402,35.9774,0.0683484,-2.79114
402.5,36.026,0.0673512,-2.79405
403,36.0735,0.0658867,-2.79751
403.5,36.1228,0.0639146,-2.80051
404,36.1722,0.0590565,-2.80275
404.5,36.2199,0.0587295,-2.80599
405,36.2686,0.0631354,-2.80759
405.5,36.3175,0.0551918,-2.81064
406,36.3654,0.0498882,-2.81302
406.5,36.4138,0.0484097,-2.81577
407,36.4625,0.0454574,-2.82047
407.5,36.5111,0.0444849,-2.82361
408,36.5596,0.0403906,-2.82543
408.5,36.6095,0.041001,-2.82882
409,36.6572,0.0468343,-2.83091
409.5,36.7059,0.0446235,-2.83463
410,36.754,0.0380436,-2.83798
410.5,36.803,0.0432024,-2.84081
411,36.852,0.0377527,-2.84378
411.5,36.8996,0.0366968,-2.84629
412,36.9489,0.0417971,-2.8492
412.5,36.9969,0.036388,-2.85311
413,37.0466,0.0363816,-2.85644
413.5,37.0948,0.0391039,-2.86033
414,37.143,0.0311533,-2.86379
414.5,37.1921,0.0327871,-2.86785
415,37.2413,0.0314416,-2.87078
415.5,37.2904,0.0318319,-2.87373
416,37.3382,0.028602,-2.87713
416.5,37.387,0.0257815,-2.88161
417,37.4357,0.0294236,-2.88616
417.5,37.484,0.0271664,-2.88935
418,37.5333,0.0239605,-2.894
418.5,37.5818,0.0291075,-2.89681
419,37.6305,0.0277285,-2.90236
419.5,37.6796,0.0246028,-2.90654
420,37.7285,0.0247079,-2.91051
420.5,37.777,0.0269773,-2.91435
421,37.825,0.0264926,-2.91863
421.5,37.8745,0.0273407,-2.9228
422,37.923,0.0197966,-2.92761
422.5,37.9719,0.021243,-2.93233
423,38.02,0.0327413,-2.93597
423.5,38.0692,0.0376831,-2.93974
424,38.1181,0.0328216,-2.94437
424.5,38.1659,0.0290416,-2.95031
425,38.2149,0.0351136,-2.95531
425.5,38.2638,0.0342386,-2.95871
426,38.3128,0.0355307,-2.96462
426.5,38.3619,0.0423577,-2.96933
427,38.4096,0.0437795,-2.97339
427.5,38.4597,0.0408629,-2.97946
428,38.5084,0.0490891,-2.98349
428.5,38.557,0.0504293,-2.98943
429,38.604,0.0490516,-2.99583
429.5,38.655,0.0522231,-3.00119
430,38.7038,0.0603892,-3.00678
430.5,38.752,0.0592714,-3.01044
431,38.802,0.0502941,-3.01641
431.5,38.8498,0.0589085,-3.02097
432,38.8983,0.0658547,-3.02624
432.5,38.9478,0.0673281,-3.03174
433,38.9966,0.0807079,-3.03847
433.5,39.0441,0.078635,-3.04502
434,39.0944,0.0821689,-3.0504
434.5,39.1418,0.0855504,-3.05592
435,39.1896,0.0897714,-3.06227
435.5,39.2407,0.0957241,-3.0674
436,39.2899,0.100027,-3.07353
436.5,39.3379,0.104939,-3.07925
437,39.387,0.106011,-3.0853
437.5,39.4355,0.124752,-3.09165
438,39.484,0.126449,-3.09672
438.5,39.5324,0.128189,-3.10249
439,39.582,0.135013,-3.10881
439.5,39.6307,0.14019,-3.11548
440,39.68,0.14686,-3.12045
440.5,39.7288,0.154291,-3.1275
441,39.777,0.159244,-3.1325
441.5,39.8255,0.157378,-3.13905
442,39.8728,0.161844,-3.14561
442.5,39.9222,0.173668,-3.15002
443,39.9726,0.184069,-3.15685
443.5,40.0215,0.182846,-3.16218
444,40.0707,0.186092,-3.16848
444.5,40.1187,0.197312,-3.17365
445,40.1685,0.203572,-3.17993
445.5,40.2177,0.215166,-3.18593
446,40.2663,0.206477,-3.19258
446.5,40.3161,0.217732,-3.19859
447,40.3644,0.214827,-3.20717
447.5,40.413,0.221484,-3.21184
448,40.4634,0.225359,-3.21593
448.5,40.5117,0.230332,-3.21995
449,40.5603,0.237937,-3.22561
449.5,40.6092,0.250634,-3.23162
450,40.6582,0.255485,-3.23817
450.5,40.7072,0.255495,-3.24508
451,40.7561,0.249403,-3.25035
451.5,40.8055,0.254449,-3.25755
452,40.8543,0.250861,-3.26298
452.5,40.9036,0.252264,-3.26937
453,40.9528,0.246228,-3.2743
453.5,41.0012,0.250413,-3.2802
454,41.0503,0.248936,-3.28559
454.5,41.0995,0.246281,-3.29216
455,41.1478,0.2472,-3.29851
455.5,41.1978,0.249396,-3.30386
456,41.2469,0.245482,-3.30893
456.5,41.2949,0.243068,-3.31448
457,41.3441,0.243093,-3.32047
457.5,41.3931,0.236057,-3.32662
458,41.4425,0.238302,-3.33059
458.5,41.4914,0.236513,-3.33688
459,41.5402,0.228306,-3.34223
459.5,41.5902,0.225978,-3.34729
460,41.6385,0.227608,-3.35336
460.5,41.6876,0.231217,-3.35865
461,41.7358,0.217796,-3.364
461.5,41.7857,0.227606,-3.36835
462,41.8341,0.229414,-3.37456
462.5,41.8838,0.234754,-3.37954
463,41.9297,0.227349,-3.38468
463.5,41.9818,0.22165,-3.39039
464,42.0295,0.223746,-3.39628
464.5,42.0797,0.214045,-3.40126
465,42.1289,0.210451,-3.40719
465.5,42.1777,0.208402,-3.41202
466,42.2262,0.218899,-3.41736
466.5,42.2761,0.215067,-3.42311
467,42.3247,0.218906,-3.42835
467.5,42.3739,0.210803,-3.43322
468,42.4225,0.20431,-3.43678
468.5,42.4719,0.200228,-3.4409
469,42.5216,0.20005,-3.44724
469.5,42.5695,0.20447,-3.45142
470,42.6189,0.207462,-3.45702
470.5,42.6685,0.202037,-3.46211
471,42.7169,0.195523,-3.46618
471.5,42.7662,0.190105,-3.47066
472,42.8162,0.185014,-3.47528
472.5,42.8647,0.185733,-3.48013
473,42.9141,0.177452,-3.48589
473.5,42.9618,0.177525,-3.4909
474,43.013,0.171085,-3.49413
474.5,43.062,0.16769,-3.49935
475,43.1107,0.159426,-3.50302
475.5,43.1589,0.152041,-3.50831
476,43.2078,0.153543,-3.51177
476.5,43.2578,0.153616,-3.51575
477,43.3069,0.150087,-3.51983
477.5,43.3558,0.146769,-3.52392
478,43.4057,0.139691,-3.52867
478.5,43.4547,0.13234,-3.53177
479,43.5045,0.135819,-3.53644
479.5,43.5531,0.121442,-3.54073
480,43.6031,0.118374,-3.544
480.5,43.6507,0.113659,-3.54648
481,43.7003,0.113048,-3.54918
481.5,43.7493,0.103373,-3.55416
482,43.7983,0.0942579,-3.55752
482.5,43.8481,0.0945779,-3.56231
483,43.8966,0.0903088,-3.56511
483.5,43.9464,0.0781299,-3.56817
484,43.9954,0.0775397,-3.57122
484.5,44.0436,0.0721804,-3.5758
485,44.0934,0.0707043,-3.57833
485.5,44.143,0.0645711,-3.58057
486,44.1928,0.0616406,-3.58445
486.5,44.2414,0.0617307,-3.58837
487,44.2899,0.0556512,-3.59187
487.5,44.3392,0.0576152,-3.59424
488,44.3886,0.0543186,-3.59568
488.5,44.4379,0.05624,-3.59913
489,44.4874,0.0510876,-3.60285
489.5,44.5368,0.0439937,-3.60532
490,44.5856,0.0440909,-3.60725
490.5,44.6355,0.0362932,-3.61042
491,44.6846,0.03218,-3.61248
491.5,44.7333,0.019425,-3.61401
492,44.7816,0.0174097,-3.61705
492.5,44.8325,0.0178425,-3.61895
493,44.8808,0.00700336,-3.62081
493.5,44.9302,0.00628193,-3.62447
494,44.9802,0.0051919,-3.62663
494.5,45.0291,-0.0159606,-3.62811
495,45.0779,-0.0100032,-3.62947
495.5,45.1269,-0.0117348,-3.63239
496,45.177,-0.0234452,-3.63446
496.5,45.2262,-0.0203138,-3.63572
497,45.2752,-0.0257238,-3.63815
497.5,45.3251,-0.0305643,-3.64374
498,45.3741,-0.0357718,-3.64104
498.5,45.4237,-0.0349697,-3.64256
499,45.4721,-0.0353838,-3.64413
499.5,45.5229,-0.0356233,-3.64463
500,45.5718,-0.0403339,-3.647
500.5,45.6212,-0.0462555,-3.64841
501,45.67,-0.0497818,-3.6497
501.5,45.7191,-0.0525651,-3.65234
502,45.7696,-0.0527438,-3.65251
502.5,45.8183,-0.0586508,-3.65368
503,45.8676,-0.0583328,-3.65591
503.5,45.9168,-0.0549013,-3.65889
504,45.966,-0.0603103,-3.6602
504.5,46.0149,-0.0701916,-3.662
505,46.0641,-0.0633471,-3.66332
505.5,46.1145,-0.0739155,-3.66315
506,46.1631,-0.0718245,-3.66356
506.5,46.2138,-0.0706259,-3.665
507,46.2605,-0.079524,-3.66489
507.5,46.3091,-0.0691729,-3.66618
508,46.3603,-0.0707644,-3.66751
508.5,46.4095,-0.0648003,-3.66885
509,46.4603,-0.0699909,-3.67008
509.5,46.5089,-0.0720707,-3.67009
510,46.5579,-0.0718855,-3.67276
510.5,46.6073,-0.0652297,-3.67375
511,46.6562,-0.0647058,-3.67284
511.5,46.7058,-0.0650694,-3.67412
512,46.7549,-0.0589845,-3.67543
512.5,46.8047,-0.0632479,-3.67674
513,46.855,-0.055407,-3.67796
513.5,46.904,-0.0607947,-3.67707
514,46.9535,-0.0584074,-3.67839
514.5,46.9995,-0.0587866,-3.67838
515,47.0523,-0.0563473,-3.67839
515.5,47.1002,-0.065647,-3.67964
516,47.151,-0.0593409,-3.68102
516.5,47.1992,-0.0522457,-3.68104
517,47.2498,-0.0498842,-3.68233
517.5,47.2983,-0.0556359,-3.68233
518,47.3481,-0.0554835,-3.68233
518.5,47.3977,-0.055038,-3.6824
519,47.4477,-0.0565659,-3.68707
519.5,47.496,-0.0463275,-3.68525
520,47.5467,-0.0467972,-3.68419
520.5,47.5951,-0.0473332,-3.68365
521,47.6453,-0.040909,-3.68358
521.5,47.693,-0.0439729,-3.68496
522,47.7423,-0.0387512,-3.68504
522.5,47.7942,-0.041949,-3.68628
523,47.8428,-0.0366481,-3.68628
523.5,47.8921,-0.0415532,-3.68629
524,47.9423,-0.0358486,-3.6876
524.5,47.9921,-0.0326711,-3.6876
525,48.0409,-0.0452419,-3.6876
525.5,48.0907,-0.0436152,-3.68892
526,48.1403,-0.0286082,-3.68892
526.5,48.1902,-0.033259,-3.68889
527,48.2397,-0.0358367,-3.69089
527.5,48.2881,-0.0284159,-3.69089
528,48.3381,-0.0302452,-3.69089
528.5,48.3879,-0.019566,-3.68997
529,48.4355,-0.0239048,-3.68957
529.5,48.4871,-0.0275195,-3.69173
530,48.5362,-0.0267277,-3.69221
530.5,48.5861,-0.0176892,-3.69221
531,48.6343,-0.00357601,-3.69342
531.5,48.685,-0.0155109,-3.69353
532,48.7341,-0.00449756,-3.69232
532.5,48.784,-0.00591246,-3.69221
533,48.8339,-0.00415551,-3.69247
533.5,48.8825,-3.06123e-05,-3.69484
534,48.9322,-0.000596946,-3.69485
534.5,48.9815,0.00767733,-3.69352
535,49.0322,0.00629228,-3.69353
535.5,49.0814,0.00608307,-3.69453
536,49.1311,0.0082472,-3.69473
536.5,49.1809,0.00615167,-3.69473
537,49.2295,0.0108185,-3.69473
537.5,49.28,0.013396,-3.69474
538,49.3294,0.013489,-3.69604
538.5,49.3789,0.0142014,-3.69605
539,49.4284,0.0123192,-3.69605
539.5,49.4764,0.0217199,-3.69607
540,49.5281,0.0173023,-3.69557
540.5,49.578,0.0232588,-3.69638
541,49.6275,0.02207,-3.69638
541.5,49.6776,0.02901,-3.6967
542,49.7269,0.0202355,-3.69674
542.5,49.7763,0.0322758,-3.69803
543,49.8266,0.0316933,-3.69803
543.5,49.8756,0.0280411,-3.69803
544,49.9257,0.0321971,-3.69803
544.5,49.9754,0.0369303,-3.69803
545,50.0245,0.0403335,-3.69803
545.5,50.0742,0.0336845,-3.69803
546,50.1238,0.0345343,-3.69802
546.5,50.172,0.0406509,-3.69737
547,50.222,0.0373986,-3.69737
547.5,50.2731,0.0357973,-3.69798
548,50.3229,0.0418913,-3.69803
548.5,50.3718,0.0358647,-3.69803
549,50.4208,0.0377346,-3.69803
549.5,50.4705,0.0338026,-3.69803
550,50.5218,0.0426326,-3.69934
550.5,50.5711,0.0426665,-3.69935
551,50.6199,0.0386008,-3.69927
551.5,50.6704,0.0413429,-3.69869
552,50.7202,0.038358,-3.69869
552.5,50.7692,0.0461283,-3.69869
553,50.8195,0.0427555,-3.70004
553.5,50.8683,0.0485718,-3.70001
554,50.9184,0.0490939,-3.70001
554.5,50.9683,0.0473486,-3.70001
555,51.0178,0.0447311,-3.70001
555.5,51.0674,0.0541171,-3.70001
556,51.1171,0.0521189,-3.70001
556.5,51.1671,0.0542833,-3.69963
557,51.2163,0.0474283,-3.69967
557.5,51.2656,0.0489036,-3.69968
558,51.3149,0.0449796,-3.69968
558.5,51.365,0.047523,-3.69968
559,51.4148,0.0479606,-3.69968
559.5,51.4647,0.0518129,-3.70033
560,51.5134,0.0471219,-3.70034
560.5,51.5644,0.0393594,-3.70034
561,51.6137,0.049262,-3.70034
561.5,51.6635,0.0522033,-3.70002
562,51.7135,0.0477125,-3.70001
562.5,51.7627,0.0575732,-3.70034
563,51.8126,0.0527213,-3.70033
563.5,51.8619,0.0503965,-3.69966
564,51.9108,0.0532737,-3.70098
564.5,51.9614,0.0572055,-3.70132
565,52.0111,0.058073,-3.70132
565.5,52.0609,0.0563856,-3.70229
566,52.1107,0.0554715,-3.70231
566.5,52.1604,0.0590522,-3.70231
567,52.2093,0.059746,-3.70231
567.5,52.2599,0.0589032,-3.70231
568,52.3089,0.0527087,-3.70231
568.5,52.3592,0.060437,-3.70265
569,52.4093,0.0637239,-3.70345
569.5,52.4588,0.0663636,-3.70264
570,52.5085,0.0622713,-3.70262
570.5,52.5583,0.0592142,-3.70191
571,52.6077,0.06591,-3.7033
571.5,52.6568,0.0612749,-3.7033
572,52.7076,0.0645298,-3.7033
572.5,52.7566,0.0696332,-3.70211
573,52.807,0.0693854,-3.70199
573.5,52.8576,0.0757191,-3.70264
574,52.907,0.0721685,-3.70264
574.5,52.9566,0.0745403,-3.70263
575,53.0059,0.0710987,-3.70328
575.5,53.0558,0.07877,-3.7033
576,53.106,0.0761075,-3.7033
576.5,53.1563,0.0740855,-3.7033
577,53.2056,0.077006,-3.70273
577.5,53.2548,0.0827123,-3.70265
578,53.3048,0.0770516,-3.70265
578.5,53.3547,0.0772267,-3.70265
579,53.4049,0.082525,-3.70265
579.5,53.4556,0.0865149,-3.70368
580,53.5046,0.0856831,-3.70363
580.5,53.5544,0.0915436,-3.70363
581,53.6039,0.085221,-3.70373
581.5,53.6535,0.0855067,-3.70233
582,53.7036,0.0814787,-3.70322
582.5,53.7534,0.0822516,-3.70362
583,53.8028,0.0789544,-3.70362
583.5,53.8533,0.0774527,-3.70362
584,53.9021,0.0827982,-3.70361
584.5,53.9528,0.0858634,-3.70231
585,54.0026,0.0925071,-3.70231
585.5,54.0524,0.0885873,-3.70251
586,54.1014,0.0827949,-3.70362
586.5,54.1516,0.0862237,-3.70231
587,54.2024,0.0862212,-3.70363
587.5,54.2511,0.0914384,-3.70363
588,54.3007,0.0922771,-3.70228
588.5,54.352,0.089137,-3.70227
589,54.4009,0.0909834,-3.70363
589.5,54.4512,0.0859529,-3.70363
590,54.5017,0.0821716,-3.70363
590.5,54.5502,0.0837259,-3.70192
591,54.6006,0.0923508,-3.70165
591.5,54.6511,0.0889962,-3.70165
592,54.7002,0.0888286,-3.70336
592.5,54.7507,0.0819014,-3.70428
593,54.7997,0.0861063,-3.70561
593.5,54.8497,0.0820017,-3.70561
594,54.9004,0.0822432,-3.7056
594.5,54.9504,0.0847439,-3.70429
595,54.9994,0.0897273,-3.70429
595.5,55.0498,0.0791033,-3.70429
596,55.1004,0.0773713,-3.70429
596.5,55.151,0.0788262,-3.70429
597,55.1996,0.0809316,-3.70429
597.5,55.25,0.0866955,-3.70463
598,55.2991,0.0822235,-3.70462
598.5,55.3506,0.0785793,-3.70586
599,55.4002,0.0791336,-3.70804
599.5,55.4503,0.084159,-3.70514
600,55.5002,0.0833261,-3.70407
600.5,55.5509,0.0779414,-3.70344
601,55.6005,0.0862085,-3.70275
601.5,55.6507,0.082829,-3.70407
602,55.6971,0.073968,-3.70407
602.5,55.7504,0.0718946,-3.70407
603,55.8001,0.0720141,-3.70407
603.5,55.8514,0.0684785,-3.70407
604,55.9003,0.0652819,-3.70407
604.5,55.9508,0.0723875,-3.70501
605,56.0009,0.0652618,-3.70538
605.5,56.0518,0.0665967,-3.70538
606,56.1019,0.0615818,-3.70538
606.5,56.1514,0.0583211,-3.70538
607,56.2014,0.0535508,-3.70533
607.5,56.2493,0.0465862,-3.70604
608,56.2987,0.0423031,-3.70604
608.5,56.3503,0.0333551,-3.70604
609,56.4011,0.0236686,-3.70604
609.5,56.4522,0.0235978,-3.70472
610,56.5002,0.00941745,-3.70472
610.5,56.5517,0.0117204,-3.70472
611,56.6009,0.00517711,-3.70472
611.5,56.651,-0.00415136,-3.70472
612,56.6986,-0.0157641,-3.70475
612.5,56.7506,-0.0160452,-3.70571
613,56.8,-0.0204528,-3.70571
613.5,56.8501,-0.0231901,-3.70571
614,56.9006,-0.0302162,-3.70573
614.5,56.9508,-0.0278094,-3.70439
615,57.0007,-0.0249718,-3.70534
615.5,57.0503,-0.0340991,-3.7044
616,57.1005,-0.0359897,-3.7044
616.5,57.1504,-0.0359879,-3.7044
617,57.2,-0.0358983,-3.7044
617.5,57.2501,-0.0391293,-3.7044
618,57.2995,-0.0352398,-3.7044
618.5,57.3493,-0.0312394,-3.7044
619,57.3992,-0.0284197,-3.70569
619.5,57.4498,-0.0355076,-3.7057
620,57.4991,-0.0360302,-3.70572
620.5,57.5496,-0.0365886,-3.70572
621,57.599,-0.0345585,-3.70572
621.5,57.6491,-0.0337958,-3.70571
622,57.6977,-0.0362793,-3.70414
622.5,57.7482,-0.0375246,-3.70374
623,57.7985,-0.0384683,-3.70374
623.5,57.8488,-0.0337619,-3.70506
624,57.8988,-0.0280376,-3.70506
624.5,57.9483,-0.0290619,-3.70506
625,57.9968,-0.0269159,-3.70506
625.5,58.0484,-0.0303955,-3.70536
626,58.0979,-0.0296854,-3.70439
626.5,58.1478,-0.0245291,-3.7044
627,58.1977,-0.030751,-3.70435
627.5,58.2474,-0.0270447,-3.70572
628,58.2966,-0.0256674,-3.70572
628.5,58.3473,-0.021448,-3.70572
629,58.3958,-0.0294023,-3.70786
629.5,58.4471,-0.0302608,-3.70802
630,58.497,-0.0369279,-3.7067
630.5,58.5465,-0.0392324,-3.7067
631,58.5964,-0.0348699,-3.70669
631.5,58.6465,-0.0325151,-3.70538
632,58.6969,-0.0403079,-3.70406
632.5,58.7461,-0.0443377,-3.70406
633,58.796,-0.04262,-3.70452
633.5,58.8458,-0.038885,-3.70505
634,58.8957,-0.0429593,-3.7063
634.5,58.9455,-0.053661,-3.70637
635,58.9953,-0.0507316,-3.70637
635.5,59.0452,-0.0551956,-3.70637
636,59.0956,-0.0561765,-3.70637
636.5,59.1451,-0.0559225,-3.70637
637,59.1952,-0.0615436,-3.70637
637.5,59.2455,-0.0611509,-3.70637
638,59.295,-0.0630159,-3.70637
638.5,59.3448,-0.0675593,-3.70637
639,59.3951,-0.0626812,-3.70635
639.5,59.4453,-0.0618472,-3.70702
640,59.4951,-0.0671925,-3.70703
640.5,59.5446,-0.0704421,-3.70822
641,59.5952,-0.0731327,-3.70835
641.5,59.6446,-0.0724066,-3.70835
642,59.6949,-0.0749665,-3.70835
642.5,59.7447,-0.0821047,-3.7094
643,59.7953,-0.0857377,-3.71077
643.5,59.845,-0.0879743,-3.70947
644,59.8944,-0.0965971,-3.70945
644.5,59.9451,-0.0964375,-3.70946
645,59.9943,-0.0961466,-3.70944
645.5,60.0446,-0.096887,-3.70887
646,60.0946,-0.0971356,-3.70846
646.5,60.1446,-0.105941,-3.70846
647,60.1942,-0.104683,-3.70937
647.5,60.245,-0.111113,-3.70847
648,60.2949,-0.112005,-3.70847
648.5,60.3445,-0.120435,-3.70714
649,60.3956,-0.123091,-3.70714
649.5,60.4456,-0.115339,-3.70844
650,60.4959,-0.119223,-3.70977
650.5,60.5453,-0.116431,-3.7097
651,60.5946,-0.116882,-3.70747
651.5,60.6454,-0.121802,-3.70747
652,60.6961,-0.128813,-3.70742
652.5,60.7458,-0.124728,-3.70878
653,60.7959,-0.121779,-3.70878
653.5,60.8469,-0.128806,-3.70878
654,60.8963,-0.120705,-3.70749
654.5,60.9472,-0.123936,-3.70747
655,60.9978,-0.123485,-3.70747
655.5,61.0466,-0.123089,-3.70747
656,61.0971,-0.126585,-3.70747
656.5,61.1472,-0.128423,-3.70747
657,61.197,-0.132558,-3.70747
657.5,61.2479,-0.132411,-3.70747
658,61.2982,-0.136881,-3.70945
658.5,61.3479,-0.129338,-3.70944
659,61.3982,-0.13469,-3.70944
659.5,61.4478,-0.137899,-3.70952
660,61.4983,-0.133792,-3.70813
660.5,61.5488,-0.137144,-3.70813
661,61.5991,-0.14088,-3.70813
661.5,61.6489,-0.138372,-3.70813
662,61.6992,-0.138451,-3.70813
662.5,61.7494,-0.142692,-3.70812
663,61.7998,-0.13893,-3.70945
663.5,61.8478,-0.139686,-3.70945
664,61.9005,-0.145813,-3.70913
664.5,61.9497,-0.135386,-3.70912
665,62.0005,-0.143652,-3.70912
665.5,62.0497,-0.144204,-3.70874
666,62.1007,-0.143141,-3.70813
666.5,62.1507,-0.142656,-3.70813
667,62.201,-0.141146,-3.70813
667.5,62.2517,-0.148436,-3.70681
668,62.3012,-0.14641,-3.7078
668.5,62.3517,-0.149609,-3.70813
669,62.402,-0.141217,-3.70813
669.5,62.4523,-0.150249,-3.70813
670,62.502,-0.146182,-3.70813
670.5,62.5516,-0.153627,-3.70945
671,62.6013,-0.159662,-3.71009
671.5,62.6514,-0.162198,-3.70945
672,62.702,-0.168454,-3.70945
672.5,62.7526,-0.166215,-3.70945
673,62.8028,-0.162006,-3.70951
673.5,62.8534,-0.17453,-3.71076
674,62.9035,-0.166703,-3.71076
674.5,62.9532,-0.168919,-3.71076
675,63.0039,-0.171965,-3.70934
675.5,63.0532,-0.172303,-3.70945
676,63.1049,-0.17071,-3.70945
676.5,63.1543,-0.174404,-3.70947
677,63.2045,-0.181454,-3.71076
677.5,63.2552,-0.180773,-3.71004
678,63.3049,-0.177541,-3.70944
678.5,63.3555,-0.183516,-3.70944
679,63.4056,-0.184185,-3.70938
679.5,63.4562,-0.188638,-3.7101
680,63.5059,-0.193521,-3.7101
680.5,63.5563,-0.198204,-3.71146
681,63.6067,-0.202462,-3.71143
681.5,63.6567,-0.20206,-3.7101
682,63.707,-0.2053,-3.70869
682.5,63.7574,-0.210663,-3.70977
683,63.8073,-0.20941,-3.70977
683.5,63.858,-0.199298,-3.70977
684,63.9084,-0.203787,-3.70977
684.5,63.9589,-0.195763,-3.70977
685,64.0073,-0.205222,-3.70977
685.5,64.0595,-0.210639,-3.70977
686,64.1098,-0.209838,-3.70977
686.5,64.16,-0.209003,-3.70976
687,64.21,-0.21167,-3.70917
687.5,64.2601,-0.206715,-3.70879
688,64.3102,-0.206627,-3.70879
688.5,64.3608,-0.214878,-3.70879
689,64.4119,-0.216351,-3.70879
689.5,64.4621,-0.218624,-3.70879
690,64.5131,-0.215596,-3.7088
690.5,64.5622,-0.225248,-3.71011
691,64.6126,-0.22687,-3.71011
691.5,64.6633,-0.223957,-3.71011
692,64.7139,-0.2286,-3.71016
692.5,64.7634,-0.223146,-3.70879
693,64.8144,-0.228652,-3.7088
693.5,64.8643,-0.23042,-3.7101
694,64.9122,-0.239425,-3.71011
694.5,64.9647,-0.229928,-3.71011
695,65.0148,-0.226172,-3.7109
695.5,65.0666,-0.180531,-3.71058
696,65.1169,-0.168124,-3.71011
696.5,65.1666,-0.168009,-3.70881
697,65.2167,-0.167464,-3.70911
697.5,65.2675,-0.173602,-3.70906
698,65.3177,-0.177404,-3.71011
698.5,65.3677,-0.177594,-3.71009
699,65.4187,-0.168046,-3.70912
699.5,65.4667,-0.168365,-3.70912
700,65.519,-0.172579,-3.70912
700.5,65.57,-0.165481,-3.70936
701,65.6201,-0.175256,-3.71009
701.5,65.6696,-0.180173,-3.70911
702,65.7202,-0.173323,-3.71045
702.5,65.7703,-0.178188,-3.71171
703,65.8189,-0.177061,-3.71078
703.5,65.8715,-0.179158,-3.71076
704,65.9216,-0.172091,-3.71076
704.5,65.9718,-0.177775,-3.71075
705,66.0222,-0.17623,-3.7135
705.5,66.0729,-0.180395,-3.71308
706,66.1235,-0.181234,-3.71065
706.5,66.1735,-0.188864,-3.71054
707,66.2246,-0.189035,-3.71054
707.5,66.2747,-0.191321,-3.71054
708,66.326,-0.18742,-3.71054
708.5,66.3754,-0.187147,-3.71054
709,66.4254,-0.180276,-3.71051
709.5,66.4763,-0.195432,-3.71186
710,66.5262,-0.194851,-3.71186
710.5,66.5777,-0.187376,-3.71186
711,66.6283,-0.198642,-3.71186
711.5,66.6787,-0.198584,-3.71186
712,66.7287,-0.205879,-3.71243
712.5,66.7786,-0.206346,-3.71153
713,66.8285,-0.209381,-3.71153
713.5,66.8787,-0.211695,-3.71153
714,66.9295,-0.215149,-3.71153
714.5,66.979,-0.212256,-3.71153
715,67.0294,-0.21093,-3.71154
715.5,67.0799,-0.214797,-3.71219
716,67.1303,-0.218424,-3.71219
716.5,67.181,-0.229817,-3.71218
717,67.2323,-0.230096,-3.7135
717.5,67.2821,-0.228129,-3.7135
718,67.3335,-0.223245,-3.7135
718.5,67.3828,-0.224893,-3.71217
719,67.4334,-0.229793,-3.71219
719.5,67.4847,-0.22838,-3.71219
720,67.5349,-0.230132,-3.71219
720.5,67.5848,-0.227688,-3.71235
721,67.6357,-0.232405,-3.71351
721.5,67.6854,-0.226197,-3.71198
722,67.7362,-0.226645,-3.71087
722.5,67.787,-0.227723,-3.71085
723,67.837,-0.232851,-3.71155
723.5,67.8874,-0.229861,-3.71285
724,67.9384,-0.233946,-3.71285
724.5,67.9885,-0.237821,-3.71152
725,68.0409,-0.231451,-3.71153
725.5,68.0914,-0.236778,-3.71153
726,68.1408,-0.238113,-3.71153
726.5,68.1921,-0.231649,-3.71152
727,68.2434,-0.233307,-3.71252
727.5,68.2935,-0.22645,-3.71252
728,68.3438,-0.230426,-3.71252
728.5,68.3945,-0.230287,-3.71252
729,68.4453,-0.23491,-3.71253
729.5,68.4955,-0.235794,-3.7112
730,68.5467,-0.243697,-3.7112
730.5,68.5972,-0.238748,-3.7112
731,68.6477,-0.242753,-3.71121
731.5,68.698,-0.239144,-3.71153
732,68.7485,-0.246314,-3.71154
732.5,68.7988,-0.246403,-3.71087
733,68.8501,-0.244886,-3.71186
733.5,68.9005,-0.251412,-3.71186
734,68.9515,-0.243393,-3.71233
734.5,69.0016,-0.245056,-3.71319
735,69.0515,-0.248832,-3.71234
735.5,69.1017,-0.247276,-3.71219
736,69.1521,-0.2467,-3.71219
736.5,69.2034,-0.255505,-3.71219
737,69.2541,-0.248011,-3.71227
737.5,69.304,-0.258576,-3.71253
738,69.3542,-0.256333,-3.7113
738.5,69.4049,-0.253221,-3.71153
739,69.456,-0.261319,-3.71253
739.5,69.506,-0.259689,-3.71253
740,69.5567,-0.252992,-3.71253