File: 01_Data/Helmet_Buckle/STA/N2/10K_min/Helmet_Buckle_STA_N2_10KData_250303_R1.csv
Temp./C,Time/min,DSC/(mW/mg),Mass loss/mg
60.0,0.0,0.854671,0.00830314
60.4,0.0546069,0.862221,0.00741959
60.8,0.106473,0.878134,0.00779727
61.2,0.15639,0.888454,0.00830158
61.6,0.209072,0.903737,0.00833825
62,0.255464,0.912915,0.00847943
62.4,0.310422,0.927923,0.00759649
62.8,0.361592,0.937859,0.00708857
63.2,0.409223,0.958407,0.00720454
63.6,0.459954,0.963665,0.00806547
64,0.509145,0.974876,0.00736971
64.4,0.558056,0.985998,0.00672744
64.8,0.605692,0.999649,0.00676245
65.2,0.655222,1.01005,0.00746788
65.6,0.703744,1.01448,0.00906902
66,0.750045,1.01542,0.00856329
66.4,0.79807,1.02492,0.00955954
66.8,0.846746,1.0228,0.00976691
67.2,0.89352,1.03024,0.00824607
67.6,0.941267,1.03086,0.0082096
68,0.987604,1.02802,0.00818341
68.4,1.03369,1.02829,0.00893183
68.8,1.08059,1.03277,0.0097326
69.2,1.1266,1.02475,0.0097677
69.6,1.17125,1.02784,0.00833035
70,1.21916,1.02116,0.00990569
70.4,1.26198,1.01376,0.00847667
70.8,1.30844,1.01258,0.00846679
71.2,1.35335,1.0094,0.00858937
71.6,1.39959,1.00303,0.00862996
72,1.44446,0.996905,0.00848244
72.4,1.48811,0.995485,0.00712432
72.8,1.53379,0.989937,0.00704123
73.2,1.57647,0.98828,0.00672158
73.6,1.62304,0.993696,0.00715162
74,1.66446,0.988799,0.00745999
74.4,1.71247,0.98116,0.0066884
74.8,1.75665,0.985495,0.00581681
75.2,1.80077,0.994136,0.007168
75.6,1.84412,0.991318,0.00753632
76,1.88936,0.992812,0.00721671
76.4,1.93162,0.989131,0.00716133
76.8,1.97611,0.996173,0.00606472
77.2,2.01904,0.996841,0.00699743
77.6,2.06228,0.997739,0.00592079
78,2.10463,1.00108,0.00597877
78.4,2.14951,1.00775,0.00593733
78.8,2.19225,1.01312,0.00724253
79.2,2.23412,1.01783,0.00594008
79.6,2.27892,1.02291,0.00651619
80,2.3216,1.02686,0.00590763
80.4,2.36459,1.03344,0.00673502
80.8,2.4069,1.03059,0.00731688
81.2,2.45045,1.04001,0.00714973
81.6,2.49115,1.0445,0.00830522
82,2.53352,1.04883,0.0072216
82.4,2.57576,1.05221,0.00720539
82.8,2.61795,1.05852,0.00724942
83.2,2.66102,1.05942,0.00725771
83.6,2.70218,1.06919,0.0069271
84,2.74447,1.06514,0.00725722
84.4,2.78646,1.07414,0.00725112
84.8,2.82722,1.07934,0.00753198
85.2,2.86887,1.09397,0.00725062
85.6,2.9108,1.09414,0.00608867
86,2.95303,1.09109,0.00593232
86.4,2.99297,1.10881,0.00552184
86.8,3.03577,1.11023,0.00592017
87.2,3.07817,1.11392,0.00588805
87.6,3.11857,1.12026,0.00628096
88,3.16008,1.11844,0.00593016
88.4,3.20084,1.12819,0.00555749
88.8,3.24186,1.12725,0.00460989
89.2,3.283,1.13035,0.00460665
89.6,3.32246,1.13767,0.00585703
90,3.36359,1.14214,0.00520798
90.4,3.40393,1.14291,0.00499647
90.8,3.44483,1.14866,0.00461444
91.2,3.48347,1.15365,0.00595869
91.6,3.52625,1.161,0.0046286
92,3.56327,1.16594,0.00519533
92.4,3.60621,1.16798,0.00645143
92.8,3.64712,1.18037,0.00693492
93.2,3.68753,1.17568,0.00590642
93.6,3.72797,1.1804,0.00579966
94,3.76702,1.18631,0.00592825
94.4,3.80795,1.19523,0.00453181
94.8,3.84713,1.19045,0.00461949
95.2,3.88777,1.20268,0.0046199
95.6,3.92815,1.20422,0.00461355
96,3.9674,1.20763,0.00459943
96.4,4.00489,1.21562,0.00461123
96.8,4.04686,1.22332,0.00590689
97.2,4.08713,1.22351,0.00606879
97.6,4.12704,1.22611,0.00462635
98,4.16655,1.23761,0.00460824
98.4,4.20718,1.24181,0.00551527
98.8,4.24686,1.24476,0.00679934
99.2,4.28534,1.25227,0.00621739
99.6,4.32526,1.2559,0.00593713
100,4.36585,1.26409,0.00725375
100.4,4.40494,1.26742,0.00725001
100.8,4.44286,1.26987,0.00860295
101.2,4.48337,1.26714,0.00725835
101.6,4.52299,1.26913,0.00724948
102,4.56127,1.27563,0.00838302
102.4,4.6004,1.28509,0.00723855
102.8,4.63879,1.28776,0.00723975
103.2,4.67896,1.29027,0.00716804
103.6,4.71684,1.2968,0.00827277
104,4.75603,1.30171,0.00692117
104.4,4.79862,1.29601,0.00696226
104.8,4.83679,1.31001,0.00558382
105.2,4.87518,1.30355,0.00593119
105.6,4.91542,1.3096,0.0059296
106,4.95353,1.31516,0.0057441
106.4,4.99306,1.31417,0.00592485
106.8,5.03309,1.32895,0.00489276
107.2,5.07232,1.32778,0.00452166
107.6,5.11088,1.33338,0.00592811
108,5.15031,1.32809,0.00592999
108.4,5.18892,1.34159,0.00593
108.8,5.22599,1.33809,0.00593
109.2,5.26394,1.34045,0.00592996
109.6,5.30401,1.34156,0.0059254
110,5.34482,1.34296,0.00728359
110.4,5.38518,1.34867,0.00724318
110.8,5.42243,1.35122,0.00723997
111.2,5.46138,1.35354,0.00724097
111.6,5.50012,1.35886,0.00757618
112,5.54013,1.36443,0.00855944
112.4,5.57841,1.36938,0.00708902
112.8,5.61738,1.36775,0.00751982
113.2,5.65565,1.37791,0.00642317
113.6,5.69498,1.37651,0.00603973
114,5.73332,1.37566,0.00471024
114.4,5.77289,1.37833,0.00472017
114.8,5.81206,1.38561,0.00472
115.2,5.85025,1.38089,0.00472
115.6,5.88573,1.38491,0.00472002
116,5.92713,1.38923,0.00472892
116.4,5.96745,1.40163,0.00608511
116.8,6.00676,1.40797,0.00603055
117.2,6.0448,1.39627,0.00604317
117.6,6.08402,1.40791,0.00604457
118,6.12228,1.40901,0.00653094
118.4,6.15974,1.40685,0.00736321
118.8,6.19889,1.40942,0.00736002
119.2,6.23732,1.40988,0.00736
119.6,6.27607,1.41417,0.00736
120,6.31539,1.41927,0.00735999
120.4,6.35315,1.42046,0.00736098
120.8,6.39321,1.43097,0.00825097
121.2,6.43119,1.43566,0.007751
121.6,6.46915,1.43188,0.00736884
122,6.50811,1.43684,0.00735996
122.4,6.54731,1.44088,0.00732138
122.8,6.58486,1.44989,0.00734911
123.2,6.62391,1.44403,0.00623381
123.6,6.66385,1.45078,0.00603309
124,6.70138,1.45673,0.00487488
124.4,6.74014,1.45856,0.00613536
124.8,6.77849,1.47017,0.00536103
125.2,6.81649,1.46272,0.00481168
125.6,6.85535,1.46471,0.00604227
126,6.89378,1.46939,0.00603999
126.4,6.93117,1.47191,0.00604003
126.8,6.97029,1.47292,0.00604346
127.2,7.00858,1.47716,0.00501811
127.6,7.04705,1.48463,0.00471787
128,7.08442,1.47945,0.00572434
128.4,7.12381,1.48165,0.00604007
128.8,7.16263,1.48191,0.00604
129.2,7.19979,1.49154,0.00604
129.6,7.23807,1.48315,0.00603933
130,7.27688,1.4865,0.00654474
130.4,7.31578,1.49439,0.00701835
130.8,7.35413,1.49012,0.00734808
131.2,7.39238,1.49156,0.00732115
131.6,7.42909,1.50074,0.00598519
132,7.46869,1.49838,0.00609798
132.4,7.50693,1.49457,0.00603999
132.8,7.54511,1.49265,0.00603673
133.2,7.58338,1.50687,0.00474711
133.6,7.62171,1.50331,0.00472063
134,7.6598,1.50845,0.00472254
134.4,7.696,1.51416,0.00373276
134.8,7.73584,1.51353,0.00339925
135.2,7.77471,1.51148,0.00409972
135.6,7.81222,1.51358,0.00342239
136,7.84997,1.51659,0.00340958
136.4,7.8888,1.51922,0.00334064
136.8,7.92718,1.51942,0.00471445
137.2,7.96518,1.52593,0.00471999
137.6,8.00058,1.52415,0.00471999
138,8.0398,1.53605,0.00471842
138.4,8.08036,1.52609,0.00544698
138.8,8.1175,1.53334,0.00589493
139.2,8.15645,1.5421,0.00471759
139.6,8.19385,1.54368,0.00471851
140,8.23128,1.54087,0.0060241
140.4,8.26786,1.54067,0.00603995
140.8,8.30712,1.5412,0.00603966
141.2,8.34614,1.54972,0.00654529
141.6,8.38319,1.54708,0.00736562
142,8.42194,1.55011,0.00638797
142.4,8.45964,1.55163,0.00637008
142.8,8.49634,1.55259,0.00637
143.2,8.53556,1.56083,0.00637
143.6,8.57453,1.5594,0.00636999
144,8.60868,1.56311,0.00637713
144.4,8.64959,1.5614,0.00705579
144.8,8.68709,1.56129,0.00702718
145.2,8.7263,1.56624,0.00670567
145.6,8.761,1.57101,0.00671311
146,8.80046,1.56589,0.00583257
146.4,8.83921,1.57127,0.00602858
146.8,8.87643,1.58161,0.00602054
147.2,8.91472,1.57783,0.00699452
147.6,8.95204,1.58033,0.00635845
148,8.99023,1.58449,0.00635998
148.4,9.02825,1.58361,0.00636028
148.8,9.06642,1.59128,0.00580812
149.2,9.10405,1.58927,0.00504531
149.6,9.14148,1.58631,0.00625165
150,9.17882,1.59874,0.00719546
150.4,9.21678,1.60029,0.00589726
150.8,9.25492,1.60163,0.00713528
151.2,9.29263,1.59511,0.00714008
151.6,9.33029,1.60402,0.00714023
152,9.36889,1.6043,0.00717436
152.4,9.40548,1.60849,0.00583013
152.8,9.44268,1.60495,0.00582002
153.2,9.48038,1.61182,0.00582
153.6,9.51789,1.60993,0.00582046
154,9.5563,1.61354,0.00589367
154.4,9.59441,1.61838,0.00450575
154.8,9.63083,1.6194,0.00579986
155.2,9.66977,1.61866,0.00580981
155.6,9.70729,1.61879,0.00573562
156,9.74505,1.62357,0.00449504
156.4,9.78249,1.62588,0.00450003
156.8,9.82064,1.62685,0.0045
157.2,9.85861,1.63305,0.0045005
157.6,9.89623,1.62774,0.00401535
158,9.93488,1.63095,0.00417971
158.4,9.97185,1.63198,0.00450216
158.8,10.0096,1.63477,0.00588387
159.2,10.0469,1.63311,0.0058205
159.6,10.0848,1.63742,0.00582
160,10.123,1.63267,0.00582
160.4,10.1607,1.63855,0.00582
160.8,10.199,1.63868,0.00581999
161.2,10.2376,1.64258,0.00581882
161.6,10.276,1.64603,0.00443601
162,10.3129,1.65195,0.00449986
162.4,10.3521,1.65931,0.00388731
162.8,10.39,1.65048,0.00413212
163.2,10.4264,1.65261,0.00450154
163.6,10.4646,1.65027,0.00450016
164,10.5009,1.65422,0.00321164
164.4,10.5391,1.66145,0.0045463
164.8,10.5774,1.66263,0.00456276
165.2,10.6157,1.66155,0.00319055
165.6,10.6522,1.66577,0.0031901
166,10.6911,1.66571,0.00321287
166.4,10.7282,1.66818,0.0045095
166.8,10.7663,1.66594,0.00450004
167.2,10.8032,1.66828,0.0045
167.6,10.8431,1.66596,0.00450065
168,10.8798,1.67454,0.00579362
168.4,10.9179,1.67703,0.00581986
168.8,10.9551,1.67246,0.00582
169.2,10.9922,1.67445,0.00581865
169.6,11.0308,1.67525,0.00521627
170,11.0688,1.67422,0.00445758
170.4,11.1058,1.6775,0.00317533
170.8,11.1444,1.67861,0.00318008
171.2,11.1829,1.67253,0.00315507
171.6,11.2197,1.67745,0.00448569
172,11.2572,1.6842,0.00449993
172.4,11.2955,1.68899,0.00450026
172.8,11.3329,1.68772,0.0033808
173.2,11.3707,1.68997,0.00449287
173.6,11.4083,1.69658,0.00449994
174,11.4471,1.69349,0.0045
174.4,11.485,1.69168,0.0045
174.8,11.523,1.69302,0.00449987
175.2,11.5596,1.69949,0.00448265
175.6,11.5974,1.70664,0.00318849
176,11.6353,1.70564,0.00319
176.4,11.6728,1.70729,0.00319219
176.8,11.7108,1.69985,0.00218747
177.2,11.7487,1.70646,0.00186318
177.6,11.7863,1.7073,0.00315894
178,11.8248,1.71173,0.00317996
178.4,11.8621,1.71336,0.00318066
178.8,11.8993,1.71219,0.00343906
179.2,11.9372,1.71332,0.00450381
179.6,11.9758,1.71947,0.00449211
180,12.0134,1.72191,0.00318553
180.4,12.0492,1.7229,0.00318025
180.8,12.0888,1.72792,0.00318874
181.2,12.1261,1.72943,0.00454683
181.6,12.1639,1.72528,0.00450017
182,12.2013,1.72121,0.0030692
182.4,12.2388,1.72402,0.00317944
182.8,12.2771,1.72446,0.00318
183.2,12.3155,1.72261,0.00318002
183.6,12.3526,1.72311,0.00317649
184,12.3893,1.71945,0.00447399
184.4,12.4276,1.72652,0.00449986
184.8,12.4654,1.72636,0.0045002
185.2,12.5027,1.72909,0.00411428
185.6,12.5411,1.72985,0.00310458
186,12.5756,1.73503,0.00450759
186.4,12.6155,1.7296,0.00450997
186.8,12.6542,1.73066,0.00449984
187.2,12.6914,1.73748,0.00312133
187.6,12.7291,1.73966,0.00318951
188,12.7681,1.73524,0.00315669
188.4,12.8047,1.74314,0.00449585
188.8,12.8426,1.74385,0.0045001
189.2,12.8809,1.74406,0.0045
189.6,12.9179,1.73865,0.0045
190,12.9566,1.7373,0.0045
190.4,12.9937,1.74757,0.00450003
190.8,13.0312,1.74953,0.00450573
191.2,13.0677,1.74628,0.00320668
191.6,13.1059,1.75052,0.00318001
192,13.1427,1.7485,0.0031801
192.4,13.1801,1.74763,0.00320907
192.8,13.2176,1.75203,0.00284777
193.2,13.2565,1.74835,0.00284999
193.6,13.2925,1.75107,0.00285
194,13.3314,1.75536,0.00284822
194.4,13.3685,1.75209,0.00259929
194.8,13.4059,1.75395,0.00197818
195.2,13.4443,1.7604,0.00251858
195.6,13.4821,1.76769,0.00110476
196,13.5195,1.76233,0.00120949
196.4,13.558,1.76755,0.00121003
196.8,13.5933,1.76527,0.00120884
197.2,13.6338,1.76479,0.00154314
197.6,13.6721,1.76917,0.00153489
198,13.7097,1.7688,0.00279038
198.4,13.7468,1.77294,0.00285968
198.8,13.7841,1.77244,0.00292924
199.2,13.823,1.7677,0.00186424
199.6,13.8598,1.77565,0.0018693
200,13.8971,1.78447,0.00187813
200.4,13.9363,1.78227,0.00296153
200.8,13.9735,1.78406,0.00285975
201.2,14.0113,1.79062,0.00285981
201.6,14.0483,1.79123,0.00283085
202,14.086,1.78567,0.0031916
202.4,14.1244,1.78607,0.00329482
202.8,14.1624,1.79605,0.00187101
203.2,14.1993,1.78554,0.00187402
203.6,14.237,1.78184,0.000825653
204,14.2744,1.79168,0.000882668
204.4,14.3135,1.79702,0.000880019
204.8,14.35,1.80189,0.000880133
205.2,14.3875,1.80072,0.00088117
205.6,14.4256,1.79132,0.000555112
206,14.4641,1.80167,0.000550402
206.4,14.5014,1.805,0.00129585
206.8,14.539,1.80744,0.000224798
207.2,14.5767,1.80732,0.000220304
207.6,14.615,1.80785,0.000488028
208,14.6522,1.81204,0.00146365
208.4,14.6895,1.8122,0.00284624
208.8,14.727,1.81743,0.00284999
209.2,14.7649,1.81123,0.00284998
209.6,14.8029,1.81484,0.00285406
210,14.8405,1.82303,0.00156644
210.4,14.8785,1.8238,0.00156636
210.8,14.9161,1.82269,0.00158081
211.2,14.9545,1.82855,0.00154
211.6,14.9916,1.82536,0.000100103
212,15.0286,1.82067,0.000219526
212.4,15.0663,1.82325,0.000217657
212.8,15.1047,1.82846,0.00125743
213.2,15.1414,1.82815,0.000240217
213.6,15.1806,1.82879,0.000220133
214,15.2183,1.83662,0.000220077
214.4,15.2553,1.83966,0.000224524
214.8,15.2934,1.84244,0.00153548
215.2,15.3307,1.84629,0.00153988
215.6,15.3686,1.85079,0.00154
216,15.4041,1.85321,0.00154
216.4,15.4436,1.85886,0.00154008
216.8,15.4811,1.85644,0.0029264
217.2,15.5198,1.86427,0.00425774
217.6,15.5582,1.86442,0.00294174
218,15.5942,1.85999,0.00285
218.4,15.6312,1.85645,0.00285
218.8,15.6696,1.86228,0.00285
219.2,15.7091,1.86239,0.00285
219.6,15.7461,1.86481,0.00285404
220,15.7839,1.86949,0.00218686
220.4,15.8224,1.86483,0.00285143
220.8,15.8595,1.87742,0.00286714
221.2,15.8977,1.87268,0.000581304
221.6,15.9347,1.8803,0.00055009
222,15.972,1.88445,0.00055015
222.4,16.0102,1.8865,0.000581137
222.8,16.0478,1.88342,0.00187421
223.2,16.0844,1.89196,0.00188189
223.6,16.1232,1.90132,0.00158259
224,16.1593,1.90657,0.00180555
224.4,16.198,1.9116,0.00307276
224.8,16.2364,1.90989,0.00359743
225.2,16.2751,1.91066,0.00303307
225.6,16.3128,1.92397,0.00155606
226,16.3502,1.93216,0.00286745
226.4,16.3877,1.94048,0.00285222
226.8,16.4261,1.93416,0.0015509
227.2,16.4636,1.94175,0.00153932
227.6,16.5012,1.94882,0.00284278
228,16.5388,1.94494,0.000316633
228.4,16.5771,1.94223,0.000109526
228.8,16.6148,1.95051,0.000106883
229.2,16.6529,1.95543,-0.00155824
229.6,16.6905,1.95525,-0.00253683
230,16.7278,1.95724,-0.00132146
230.4,16.7653,1.96221,-0.00120988
230.8,16.8039,1.96757,-0.00122016
231.2,16.8412,1.97453,0.000100783
231.6,16.8796,1.97678,3.32675e-05
232,16.9167,1.98226,-0.0012149
232.4,16.9553,1.9834,-0.00113972
232.8,16.9933,1.98865,0.000109505
233.2,17.0308,1.99303,0.000109989
233.6,17.0691,1.99385,0.00011
234,17.107,2.00261,0.00011
234.4,17.1447,2.00926,0.00011
234.8,17.1809,2.01418,0.000109999
235.2,17.2197,2.01401,0.000109866
235.6,17.2582,2.01654,8.73282e-05
236,17.2957,2.02671,0.000765933
236.4,17.3328,2.03122,0.000713077
236.8,17.3689,2.03293,-0.000544637
237.2,17.4077,2.03408,-0.00053993
237.6,17.4447,2.03963,-0.000538237
238,17.4827,2.04451,0.000123469
238.4,17.5217,2.04677,0.000110144
238.8,17.5593,2.05252,0.000110001
239.2,17.5984,2.05519,0.000109999
239.6,17.6358,2.05661,0.000109889
240,17.6729,2.06903,9.4304e-05
240.4,17.7114,2.06678,-0.001339
240.8,17.7489,2.08019,-0.000788232
241.2,17.7874,2.07978,-0.00101878
241.6,17.8248,2.08557,-0.000987637
242,17.8629,2.10108,-0.00135413
242.4,17.901,2.10792,-0.00131997
242.8,17.9391,2.12571,-0.00131999
243.2,17.9763,2.13822,-0.00131791
243.6,18.0145,2.1458,-0.00182728
244,18.0523,2.16102,-0.00194336
244.4,18.0917,2.18442,-0.00132051
244.8,18.1287,2.20098,-0.00132002
245.2,18.1682,2.22411,-0.00132
245.6,18.2059,2.24767,-0.00132
246,18.2439,2.2642,-0.00132
246.4,18.2796,2.28462,-0.00132
246.8,18.32,2.31998,-0.00132
247.2,18.3582,2.35363,-0.00132
247.6,18.3968,2.3862,-0.00131983
248,18.435,2.42306,-0.00130871
248.4,18.4734,2.46484,-0.0026568
248.8,18.5113,2.50838,-0.00136861
249.2,18.5503,2.56488,-0.00141056
249.6,18.589,2.62451,-2.83358e-06
250,18.6252,2.69496,-0.0012953
250.4,18.666,2.78321,-0.000341875
250.8,18.705,2.88021,-0.000330028
251.2,18.7449,2.983,-0.000330075
251.6,18.7834,3.10475,-0.000333244
252,18.8231,3.24112,-0.00163539
252.4,18.8625,3.3888,-0.0016417
252.8,18.9023,3.52015,-0.00129751
253.2,18.9418,3.64413,-0.00130912
253.6,18.981,3.77989,-0.000913112
254,19.0205,3.9037,-0.00120704
254.4,19.0602,4.02546,-0.00147103
254.8,19.0982,4.1386,-0.00330284
255.2,19.1394,4.25085,-0.00329005
255.6,19.1747,4.3416,-0.00329
256,19.217,4.45741,-0.00329
256.4,19.2558,4.55512,-0.00328903
256.8,19.2944,4.65945,-0.00319658
257.2,19.3351,4.75395,-0.0013156
257.6,19.3741,4.86489,-0.00132002
258,19.4131,4.98641,-0.00131889
258.4,19.4523,5.10032,-0.00112304
258.8,19.4922,5.22818,2.90045e-06
259.2,19.5306,5.34699,1.74288e-06
259.6,19.5697,5.48,-0.00132183
260,19.6085,5.60959,-0.00131383
260.4,19.6483,5.73027,-0.000632756
260.8,19.6898,5.84172,-0.000659883
261.2,19.7286,5.95227,-0.000659839
261.6,19.7685,6.02903,-0.000612365
262,19.8061,6.07183,-0.00161519
262.4,19.8447,6.06238,-0.00306945
262.8,19.8801,5.90075,-0.00196189
263.2,19.9141,5.59336,-0.00198001
263.6,19.9475,5.09833,-0.00197994
264,19.9802,4.5749,-0.00196861
264.4,20.012,4.10239,-0.000633948
264.8,20.0467,3.68475,-0.00066021
265.2,20.0803,3.36231,-0.000660002
265.6,20.1147,3.08782,-0.000659979
266,20.15,2.86018,-0.000659351
266.4,20.1863,2.67584,-0.00283152
266.8,20.2213,2.53605,-0.00329918
267.2,20.2569,2.42126,-0.0033
267.6,20.2948,2.32625,-0.00330018
268,20.3306,2.23869,-0.00276387
268.4,20.3679,2.18339,-0.00198064
268.8,20.4033,2.14399,-0.00198322
269.2,20.4423,2.09406,-0.000955032
269.6,20.4786,2.06404,-0.000991245
270,20.5181,2.03851,-0.0012312
270.4,20.5549,2.01669,-0.00198233
270.8,20.5919,1.99842,-0.00326792
271.2,20.6292,1.9875,-0.00328981
271.6,20.6671,1.97759,-0.00328897
272,20.7046,1.9649,-0.00382572
272.4,20.7417,1.96369,-0.00292661
272.8,20.7808,1.95559,-0.00295981
273.2,20.8183,1.95545,-0.00296079
273.6,20.8558,1.94856,-0.00302444
274,20.8933,1.9496,-0.00427804
274.4,20.9305,1.94851,-0.00427996
274.8,20.9689,1.95364,-0.00428
275.2,21.0066,1.94664,-0.00428
275.6,21.0438,1.93943,-0.00428
276,21.0817,1.94228,-0.00428
276.4,21.1201,1.94574,-0.00428
276.8,21.158,1.94469,-0.00428
277.2,21.1954,1.93591,-0.00428
277.6,21.2324,1.94224,-0.00428
278,21.27,1.94054,-0.00428
278.4,21.3083,1.94481,-0.00428
278.8,21.3454,1.94978,-0.00427923
279.2,21.3835,1.95177,-0.00391384
279.6,21.4228,1.94282,-0.00362159
280,21.4602,1.94194,-0.00362025
280.4,21.4986,1.94202,-0.00366108
280.8,21.5362,1.94281,-0.00309889
281.2,21.5725,1.94547,-0.00363275
281.6,21.6116,1.94282,-0.00498813
282,21.6494,1.9467,-0.00494019
282.4,21.6876,1.94109,-0.00494
282.8,21.7253,1.94011,-0.00494
283.2,21.7639,1.93538,-0.00493999
283.6,21.8021,1.93551,-0.00493904
284,21.8396,1.93241,-0.00357878
284.4,21.8779,1.93249,-0.00361989
284.8,21.9135,1.93905,-0.00362006
285.2,21.9534,1.9333,-0.00363229
285.6,21.9909,1.94662,-0.00498624
286,22.0289,1.93249,-0.00494012
286.4,22.0672,1.93783,-0.00494
286.8,22.1042,1.93791,-0.00629844
287.2,22.1426,1.93552,-0.00626034
287.6,22.1816,1.94206,-0.00626525
288,22.2188,1.93882,-0.00515042
288.4,22.2563,1.94537,-0.00460737
288.8,22.2931,1.94926,-0.00464606
289.2,22.3311,1.93313,-0.00535867
289.6,22.3693,1.94308,-0.00527056
290,22.4074,1.94531,-0.00526999
290.4,22.4454,1.94611,-0.00527049
290.8,22.4834,1.95159,-0.00615235
291.2,22.5214,1.95183,-0.0065802
291.6,22.5599,1.95088,-0.00658
292,22.598,1.9454,-0.00658039
292.4,22.6358,1.94314,-0.00617187
292.8,22.6736,1.94928,-0.0052676
293.2,22.7111,1.9495,-0.00529676
293.6,22.7496,1.94649,-0.00691213
294,22.7865,1.94904,-0.00756802
294.4,22.8251,1.9476,-0.00757199
294.8,22.8627,1.95166,-0.0065872
295.2,22.9011,1.954,-0.00659351
295.6,22.9398,1.95571,-0.00550222
296,22.9779,1.94581,-0.00527118
296.4,23.0149,1.95391,-0.00527
296.8,23.0543,1.95344,-0.00527
297.2,23.0923,1.94863,-0.0052698
297.6,23.1309,1.95514,-0.00522075
298,23.1681,1.95083,-0.00625498
298.4,23.2055,1.94742,-0.00626002
298.8,23.2439,1.94393,-0.00625742
299.2,23.2824,1.94576,-0.0075511
299.6,23.3198,1.94581,-0.00751666
300,23.3592,1.95395,-0.00885459
300.4,23.3959,1.95002,-0.00756711
300.8,23.4353,1.94717,-0.00756999
301.2,23.4732,1.94065,-0.00757
301.6,23.5106,1.93937,-0.00757107
302,23.5504,1.93795,-0.00780583
302.4,23.5856,1.94405,-0.00889543
302.8,23.6257,1.94499,-0.00817487
303.2,23.6626,1.95134,-0.00756935
303.6,23.7021,1.94522,-0.00757002
304,23.7404,1.94252,-0.00757602
304.4,23.7778,1.94151,-0.00825009
304.8,23.8161,1.93243,-0.00822382
305.2,23.8539,1.934,-0.00691404
305.6,23.893,1.93807,-0.00690952
306,23.9307,1.94548,-0.0065525
306.4,23.9694,1.9336,-0.00634288
306.8,24.0066,1.94267,-0.00691816
307.2,24.0455,1.94204,-0.00691194
307.6,24.0827,1.94562,-0.00874388
308,24.1208,1.94056,-0.00922106
308.4,24.1586,1.9425,-0.00922001
308.8,24.1973,1.94277,-0.00922
309.2,24.2363,1.94849,-0.00922
309.6,24.2734,1.94674,-0.00922003
310,24.3112,1.94977,-0.00922828
310.4,24.3503,1.94501,-0.00954135
310.8,24.388,1.94859,-0.00954996
311.2,24.4259,1.95387,-0.00955058
311.6,24.464,1.95993,-0.0108535
312,24.5029,1.95935,-0.0108696
312.4,24.539,1.95589,-0.01087
312.8,24.5792,1.95675,-0.01087
313.2,24.6176,1.95554,-0.01087
313.6,24.6551,1.95757,-0.01087
314,24.6926,1.96256,-0.0108702
314.4,24.7305,1.95753,-0.0116542
314.8,24.7697,1.96179,-0.0118583
315.2,24.8074,1.95641,-0.01186
315.6,24.8465,1.95896,-0.01186
316,24.8837,1.96817,-0.01186
316.4,24.9223,1.96029,-0.01186
316.8,24.9603,1.95967,-0.01186
317.2,24.9985,1.95768,-0.0118613
317.6,25.0364,1.95659,-0.0120173
318,25.0755,1.95956,-0.0131773
318.4,25.1139,1.96655,-0.0118702
318.8,25.1517,1.95619,-0.0118605
319.2,25.1898,1.96394,-0.0118601
319.6,25.2284,1.96846,-0.011898
320,25.267,1.95608,-0.0135385
320.4,25.3045,1.96668,-0.0135002
320.8,25.342,1.9625,-0.0135
321.2,25.3807,1.9705,-0.0134998
321.6,25.4195,1.96777,-0.013471
322,25.4573,1.9661,-0.014344
322.4,25.4958,1.96521,-0.0148188
322.8,25.5346,1.96919,-0.0148133
323.2,25.5724,1.96701,-0.0161312
323.6,25.611,1.97337,-0.0161339
324,25.6489,1.9665,-0.0150906
324.4,25.6876,1.97736,-0.0148439
324.8,25.7254,1.9696,-0.0161397
325.2,25.7638,1.96641,-0.0161395
325.6,25.8025,1.97751,-0.0157349
326,25.8403,1.98098,-0.0147433
326.4,25.8787,1.98246,-0.0161188
326.8,25.9167,1.98712,-0.0166554
327.2,25.9552,1.98835,-0.0174493
327.6,25.9932,1.99597,-0.0174188
328,26.0311,1.98833,-0.018437
328.4,26.0701,1.98052,-0.01844
328.8,26.1084,1.98609,-0.01844
329.2,26.1468,1.98823,-0.0184401
329.6,26.1848,1.98282,-0.0184315
330,26.224,1.99169,-0.0171191
330.4,26.2619,1.98625,-0.01712
330.8,26.2997,1.98296,-0.0171207
331.2,26.3387,1.98798,-0.0172585
331.6,26.3768,1.99284,-0.0174494
332,26.415,1.98977,-0.0187728
332.4,26.4544,1.99072,-0.0187696
332.8,26.4911,1.99852,-0.01877
333.2,26.5298,2.0014,-0.01877
333.6,26.5682,2.00616,-0.0187713
334,26.6072,2.00488,-0.0189908
334.4,26.645,2.01746,-0.0200903
334.8,26.684,2.01783,-0.02009
335.2,26.7223,2.01781,-0.0200898
335.6,26.7604,2.01902,-0.0200223
336,26.7989,2.02801,-0.0213983
336.4,26.8376,2.02644,-0.0214099
336.8,26.8759,2.02678,-0.0214098
337.2,26.9139,2.03534,-0.0219343
337.6,26.9513,2.03685,-0.0228334
338,26.9916,2.03631,-0.0230828
338.4,27.029,2.03543,-0.022722
338.8,27.0676,2.03631,-0.02272
339.2,27.1059,2.0358,-0.0227193
339.6,27.145,2.03643,-0.0249752
340,27.1846,2.04303,-0.0253604
340.4,27.2211,2.05469,-0.0253608
340.8,27.2584,2.06277,-0.0255605
341.2,27.2989,2.06414,-0.0266756
341.6,27.3378,2.06749,-0.0279188
342,27.3754,2.07198,-0.0290726
342.4,27.4146,2.07764,-0.02931
342.8,27.4521,2.08043,-0.0293103
343.2,27.4901,2.08934,-0.0294108
343.6,27.5288,2.09338,-0.0303035
344,27.5675,2.09152,-0.0302826
344.4,27.6066,2.10304,-0.0289674
344.8,27.6446,2.1042,-0.02898
345.2,27.683,2.11109,-0.02898
345.6,27.7218,2.12499,-0.02898
346,27.7602,2.13004,-0.02898
346.4,27.7987,2.1358,-0.0289795
346.8,27.837,2.14249,-0.0289167
347.2,27.876,2.14881,-0.029069
347.6,27.9136,2.15519,-0.0289826
348,27.9516,2.16534,-0.0302641
348.4,27.9908,2.17136,-0.0317272
348.8,28.0296,2.1784,-0.0329471
349.2,28.0681,2.18548,-0.0329367
349.6,28.1068,2.19738,-0.0351959
350,28.144,2.20118,-0.0355685
350.4,28.1832,2.20982,-0.0368856
350.8,28.2217,2.22235,-0.0370438
351.2,28.2601,2.2352,-0.0382171
351.6,28.2988,2.24877,-0.0384451
352,28.3367,2.25989,-0.0390823
352.4,28.3756,2.27091,-0.0396962
352.8,28.4148,2.28059,-0.040669
353.2,28.4529,2.28918,-0.0409499
353.6,28.4914,2.3061,-0.0409122
354,28.5301,2.31335,-0.0421784
354.4,28.5668,2.3316,-0.0435351
354.8,28.6063,2.34643,-0.0455894
355.2,28.6437,2.35034,-0.0475346
355.6,28.6838,2.36557,-0.046429
356,28.7229,2.37918,-0.0461628
356.4,28.7606,2.38395,-0.0474939
356.8,28.7992,2.40259,-0.0503596
357.2,28.8375,2.41842,-0.05181
357.6,28.8763,2.43495,-0.0517881
358,28.9157,2.44315,-0.0528354
358.4,28.9542,2.46177,-0.0531357
358.8,28.9927,2.47081,-0.0548924
359.2,29.0303,2.47888,-0.0567406
359.6,29.0696,2.49495,-0.058798
360,29.1075,2.51084,-0.0595585
360.4,29.1462,2.51654,-0.0617174
360.8,29.1836,2.53664,-0.063058
361.2,29.2235,2.55086,-0.0631544
361.6,29.2619,2.556,-0.064479
362,29.3012,2.56632,-0.0644746
362.4,29.3392,2.56828,-0.0657605
362.8,29.3757,2.58667,-0.0665531
363.2,29.4147,2.58649,-0.0664642
363.6,29.456,2.59026,-0.0682485
364,29.4943,2.6068,-0.0705936
364.4,29.5327,2.61029,-0.0720333
364.8,29.5708,2.62232,-0.073761
365.2,29.6101,2.64066,-0.0761532
365.6,29.6472,2.64918,-0.0776727
366,29.6874,2.65904,-0.0789515
366.4,29.7259,2.68402,-0.0803361
366.8,29.7658,2.69418,-0.0817046
367.2,29.8029,2.70086,-0.083636
367.6,29.8413,2.71564,-0.0861633
368,29.8808,2.73088,-0.0886354
368.4,29.9206,2.73329,-0.0904919
368.8,29.9573,2.74738,-0.0923464
369.2,29.9969,2.77046,-0.0947279
369.6,30.0356,2.78398,-0.0963349
370,30.0753,2.80723,-0.0978866
370.4,30.1128,2.82628,-0.0995693
370.8,30.1537,2.8438,-0.102367
371.2,30.1906,2.8606,-0.104044
371.6,30.2306,2.86643,-0.106783
372,30.2695,2.87304,-0.108766
372.4,30.3075,2.88138,-0.111466
372.8,30.347,2.8879,-0.114384
373.2,30.3851,2.89024,-0.117147
373.6,30.4236,2.90094,-0.119969
374,30.4631,2.92102,-0.12253
374.4,30.5017,2.93869,-0.124057
374.8,30.5411,2.95555,-0.127341
375.2,30.5788,2.97515,-0.130006
375.6,30.6179,2.99562,-0.132812
376,30.6574,3.01433,-0.135673
376.4,30.6964,3.03343,-0.13922
376.8,30.7349,3.05729,-0.1421
377.2,30.7737,3.07353,-0.144646
377.6,30.8124,3.09701,-0.147605
378,30.852,3.1246,-0.152181
378.4,30.8906,3.14017,-0.154532
378.8,30.9279,3.16562,-0.157612
379.2,30.969,3.17295,-0.163394
379.6,31.0075,3.19372,-0.167577
380,31.0465,3.22099,-0.172746
380.4,31.0862,3.25186,-0.176505
380.8,31.1247,3.32185,-0.179337
381.2,31.1641,3.35489,-0.18366
381.6,31.2026,3.36774,-0.187985
382,31.2412,3.38587,-0.194244
382.4,31.2804,3.41239,-0.198086
382.8,31.3193,3.43848,-0.201817
383.2,31.3596,3.45684,-0.20544
383.6,31.3977,3.48474,-0.209808
384,31.4367,3.51966,-0.215083
384.4,31.4764,3.54511,-0.219732
384.8,31.5132,3.56446,-0.22422
385.2,31.5536,3.60283,-0.230043
385.6,31.5927,3.62873,-0.235701
386,31.6312,3.64117,-0.239817
386.4,31.6718,3.69249,-0.245994
386.8,31.7094,3.72637,-0.251024
387.2,31.7491,3.73335,-0.258408
387.6,31.7873,3.75308,-0.264017
388,31.8269,3.771,-0.269298
388.4,31.8656,3.79957,-0.276294
388.8,31.9054,3.83973,-0.282221
389.2,31.9438,3.871,-0.28802
389.6,31.9835,3.89235,-0.296248
390,32.0212,3.95808,-0.301731
390.4,32.0611,3.99406,-0.308512
390.8,32.1004,4.00337,-0.315034
391.2,32.1387,4.03198,-0.322473
391.6,32.1778,4.05113,-0.328494
392,32.2168,4.07067,-0.335717
392.4,32.256,4.1083,-0.342468
392.8,32.295,4.13659,-0.34943
393.2,32.3343,4.16643,-0.357803
393.6,32.3727,4.19962,-0.365103
394,32.4124,4.21958,-0.37327
394.4,32.4494,4.25394,-0.380222
394.8,32.4889,4.26908,-0.390049
395.2,32.5289,4.29823,-0.398419
395.6,32.5685,4.32582,-0.407147
396,32.6068,4.35054,-0.41615
396.4,32.6459,4.37444,-0.426245
396.8,32.6854,4.44372,-0.435212
397.2,32.7243,4.46157,-0.444145
397.6,32.7633,4.48087,-0.452095
398,32.8028,4.51586,-0.461695
398.4,32.8407,4.52868,-0.471337
398.8,32.8802,4.54742,-0.480249
399.2,32.9189,4.57473,-0.490418
399.6,32.9588,4.60753,-0.499543
400,32.9975,4.63466,-0.509172
400.4,33.0366,4.65961,-0.519
400.8,33.0736,4.66034,-0.5289
401.2,33.1145,4.70218,-0.540832
401.6,33.153,4.72124,-0.550989
402,33.1928,4.74259,-0.562052
402.4,33.2319,4.76711,-0.573635
402.8,33.2707,4.79094,-0.58393
403.2,33.3098,4.80555,-0.595976
403.6,33.3485,4.82056,-0.606044
404,33.3876,4.84111,-0.618242
404.4,33.4268,4.87058,-0.628302
404.8,33.4656,4.87862,-0.638998
405.2,33.505,4.92348,-0.650909
405.6,33.5434,4.91096,-0.663145
406,33.583,4.93635,-0.674572
406.4,33.6216,4.95297,-0.686435
406.8,33.6609,4.9597,-0.699053
407.2,33.7003,4.98944,-0.711116
407.6,33.7389,5.01284,-0.723617
408,33.7771,5.0476,-0.736414
408.4,33.816,5.037,-0.749387
408.8,33.8552,5.05332,-0.76228
409.2,33.8948,5.05939,-0.77496
409.6,33.9329,5.07084,-0.78823
410,33.9733,5.10436,-0.801654
410.4,34.0122,5.10504,-0.813462
410.8,34.0505,5.12196,-0.827697
411.2,34.0889,5.12585,-0.840143
411.6,34.129,5.15512,-0.854233
412,34.1674,5.13906,-0.867819
412.4,34.2059,5.1359,-0.882286
412.8,34.2451,5.14667,-0.895448
413.2,34.2852,5.21274,-0.909714
413.6,34.3241,5.21033,-0.925667
414,34.3629,5.21141,-0.940368
414.4,34.4017,5.21083,-0.954035
414.8,34.4402,5.21049,-0.9681
415.2,34.4797,5.27179,-0.984055
415.6,34.5189,5.30055,-0.999272
416,34.5579,5.30915,-1.01461
416.4,34.5964,5.29079,-1.03079
416.8,34.6362,5.31581,-1.04878
417.2,34.6745,5.3319,-1.06358
417.6,34.7141,5.33483,-1.07936
418,34.7537,5.34929,-1.09459
418.4,34.7936,5.35656,-1.11089
418.8,34.8305,5.3614,-1.12782
419.2,34.8709,5.36632,-1.14545
419.6,34.9093,5.36868,-1.1621
420,34.9484,5.36217,-1.17843
420.4,34.9872,5.39196,-1.19535
420.8,35.0263,5.39065,-1.21299
421.2,35.0647,5.39784,-1.22946
421.6,35.1037,5.39822,-1.24752
422,35.1426,5.4007,-1.26464
422.4,35.1823,5.3951,-1.28222
422.8,35.2205,5.396,-1.2991
423.2,35.2598,5.39179,-1.31618
423.6,35.2988,5.38743,-1.33446
424,35.3381,5.38561,-1.35252
424.4,35.3771,5.38522,-1.37095
424.8,35.4158,5.37902,-1.38939
425.2,35.454,5.37442,-1.40685
425.6,35.4931,5.37463,-1.42645
426,35.5315,5.36669,-1.44474
426.4,35.5701,5.36295,-1.46286
426.8,35.6098,5.35712,-1.4816
427.2,35.6484,5.34794,-1.50009
427.6,35.6874,5.34768,-1.51885
428,35.7264,5.34238,-1.53847
428.4,35.765,5.33451,-1.55786
428.8,35.804,5.33126,-1.5776
429.2,35.8427,5.31775,-1.59636
429.6,35.8813,5.32059,-1.61531
430,35.9202,5.31429,-1.63413
430.4,35.9598,5.31436,-1.65472
430.8,35.9977,5.30683,-1.67277
431.2,36.037,5.29936,-1.69304
431.6,36.0736,5.2924,-1.71291
432,36.1141,5.28084,-1.73589
432.4,36.1536,5.27261,-1.75592
432.8,36.1912,5.25685,-1.77597
433.2,36.2309,5.25123,-1.79748
433.6,36.2699,5.23857,-1.81812
434,36.3077,5.22314,-1.83888
434.4,36.3472,5.21092,-1.86103
434.8,36.3864,5.1942,-1.88301
435.2,36.4243,5.18134,-1.90423
435.6,36.4631,5.16564,-1.92443
436,36.5021,5.14186,-1.94357
436.4,36.5404,5.1255,-1.9649
436.8,36.5804,5.11068,-1.98674
437.2,36.6179,5.08191,-2.00826
437.6,36.6573,5.05702,-2.02962
438,36.6941,5.03856,-2.04848
438.4,36.7358,5.01833,-2.07175
438.8,36.7738,4.99215,-2.09227
439.2,36.8106,4.96293,-2.11184
439.6,36.8513,4.93244,-2.1358
440,36.8893,4.9073,-2.15857
440.4,36.9284,4.86231,-2.17872
440.8,36.9672,4.83843,-2.19967
441.2,37.0063,4.79732,-2.22149
441.6,37.0446,4.76285,-2.24308
442,37.0834,4.72893,-2.26451
442.4,37.1213,4.69544,-2.28529
442.8,37.1598,4.6565,-2.30712
443.2,37.197,4.62501,-2.32616
443.6,37.2369,4.59358,-2.34763
444,37.2757,4.54787,-2.36917
444.4,37.3142,4.50807,-2.38976
444.8,37.3528,4.47813,-2.41096
445.2,37.3904,4.43778,-2.43263
445.6,37.4283,4.40216,-2.45278
446,37.4688,4.35547,-2.4743
446.4,37.5067,4.31449,-2.49568
446.8,37.5463,4.26241,-2.51544
447.2,37.5834,4.21498,-2.53419
447.6,37.6222,4.16777,-2.55735
448,37.661,4.11279,-2.57767
448.4,37.6992,4.06526,-2.59649
448.8,37.7375,4.01691,-2.61637
449.2,37.7763,3.96073,-2.63565
449.6,37.8148,3.91193,-2.65462
450,37.8538,3.85809,-2.67506
450.4,37.8922,3.80583,-2.69425
450.8,37.9304,3.74183,-2.71497
451.2,37.9693,3.68376,-2.73513
451.6,38.0074,3.62035,-2.7538
452,38.0454,3.57369,-2.77314
452.4,38.0843,3.50074,-2.79148
452.8,38.1223,3.44125,-2.80924
453.2,38.161,3.39506,-2.82651
453.6,38.1993,3.32673,-2.84528
454,38.239,3.26374,-2.86329
454.4,38.2767,3.20426,-2.88128
454.8,38.3146,3.13984,-2.89872
455.2,38.3537,3.0866,-2.91577
455.6,38.3918,3.0288,-2.93342
456,38.4308,2.96996,-2.95205
456.4,38.4685,2.89973,-2.968
456.8,38.5061,2.84869,-2.98443
457.2,38.5458,2.78954,-3.00056
457.6,38.5836,2.732,-3.01687
458,38.6224,2.65718,-3.03253
458.4,38.6606,2.6082,-3.04803
458.8,38.7002,2.55464,-3.06452
459.2,38.7383,2.50397,-3.07994
459.6,38.7762,2.45358,-3.09451
460,38.8142,2.39632,-3.10839
460.4,38.8538,2.33941,-3.12379
460.8,38.8922,2.28856,-3.13827
461.2,38.9301,2.23334,-3.15341
461.6,38.9683,2.19457,-3.16715
462,39.0077,2.1418,-3.18193
462.4,39.0442,2.0912,-3.19479
462.8,39.0845,2.05148,-3.20894
463.2,39.1228,1.99914,-3.22234
463.6,39.1618,1.96387,-3.23495
464,39.2011,1.91485,-3.24968
464.4,39.2389,1.86349,-3.26081
464.8,39.2782,1.83582,-3.27286
465.2,39.3166,1.78206,-3.28669
465.6,39.3548,1.74739,-3.299
466,39.3942,1.70566,-3.31072
466.4,39.4333,1.66986,-3.32143
466.8,39.4713,1.63129,-3.33341
467.2,39.51,1.58876,-3.34475
467.6,39.5474,1.55742,-3.35607
468,39.5871,1.52445,-3.36725
468.4,39.6261,1.48035,-3.37978
468.8,39.6642,1.4417,-3.39035
469.2,39.7035,1.40435,-3.39976
469.6,39.743,1.36747,-3.40986
470,39.7807,1.34769,-3.41749
470.4,39.8191,1.31054,-3.42798
470.8,39.8587,1.27834,-3.43879
471.2,39.8981,1.25357,-3.44712
471.6,39.937,1.21992,-3.45622
472,39.9763,1.18065,-3.46591
472.4,40.0148,1.15551,-3.47522
472.8,40.0539,1.12134,-3.4864
473.2,40.0933,1.09955,-3.49606
473.6,40.1312,1.06831,-3.50301
474,40.1702,1.0416,-3.5117
474.4,40.2088,1.01554,-3.51873
474.8,40.2485,1.00046,-3.52723
475.2,40.2855,0.967161,-3.53393
475.6,40.3262,0.938159,-3.54256
476,40.3655,0.907936,-3.54958
476.4,40.4046,0.885931,-3.55689
476.8,40.4437,0.864501,-3.56378
477.2,40.4819,0.831472,-3.56969
477.6,40.5213,0.821664,-3.57699
478,40.5603,0.796579,-3.58264
478.4,40.6,0.771442,-3.58883
478.8,40.637,0.746846,-3.5953
479.2,40.6779,0.726766,-3.60187
479.6,40.7169,0.700753,-3.60711
480,40.7557,0.692548,-3.61085
480.4,40.7942,0.670019,-3.61855
480.8,40.8341,0.635338,-3.62337
481.2,40.8736,0.631366,-3.6277
481.6,40.9124,0.613433,-3.63309
482,40.9507,0.595605,-3.63696
482.4,40.9904,0.57548,-3.64176
482.8,41.0294,0.566135,-3.64597
483.2,41.0684,0.546703,-3.65122
483.6,41.1077,0.532793,-3.65777
484,41.1467,0.513445,-3.66266
484.4,41.186,0.496388,-3.66447
484.8,41.2252,0.488823,-3.66655
485.2,41.2641,0.464655,-3.66947
485.6,41.3034,0.455638,-3.67379
486,41.3429,0.443235,-3.67748
486.4,41.3819,0.421526,-3.68097
486.8,41.4209,0.408802,-3.68384
487.2,41.4585,0.394041,-3.68729
487.6,41.4995,0.384014,-3.69173
488,41.5378,0.367855,-3.69429
488.4,41.577,0.362611,-3.6976
488.8,41.6167,0.342343,-3.70111
489.2,41.6551,0.331903,-3.70341
489.6,41.6944,0.317395,-3.70583
490,41.7339,0.306131,-3.70868
490.4,41.7735,0.2926,-3.71091
490.8,41.8125,0.276838,-3.71193
491.2,41.8514,0.26574,-3.71364
491.6,41.891,0.248468,-3.71719
492,41.9298,0.231254,-3.71894
492.4,41.9698,0.217339,-3.71922
492.8,42.0077,0.204179,-3.72065
493.2,42.0473,0.196078,-3.72124
493.6,42.0869,0.187492,-3.72393
494,42.1266,0.179421,-3.72445
494.4,42.1655,0.173307,-3.72502
494.8,42.2051,0.16141,-3.72532
495.2,42.2439,0.153734,-3.72655
495.6,42.2826,0.144284,-3.72792
496,42.3223,0.136912,-3.72932
496.4,42.3622,0.140772,-3.72932
496.8,42.4008,0.136218,-3.7305
497.2,42.4408,0.124393,-3.73064
497.6,42.4805,0.127221,-3.73099
498,42.5191,0.120417,-3.73195
498.4,42.5589,0.118263,-3.73197
498.8,42.5987,0.116824,-3.73334
499.2,42.6373,0.110782,-3.7346
499.6,42.6768,0.11389,-3.73459
500,42.7164,0.109537,-3.73543
500.4,42.7551,0.10718,-3.73461
500.8,42.7954,0.103915,-3.73459
501.2,42.8343,0.100808,-3.73459
501.6,42.8742,0.0976156,-3.73459
502,42.9113,0.090837,-3.73459
502.4,42.9524,0.0780416,-3.7351
502.8,42.9918,0.0745404,-3.73591
503.2,43.0305,0.0669255,-3.73591
503.6,43.0697,0.0829013,-3.73591
504,43.1094,0.0761734,-3.73591
504.4,43.1484,0.0758696,-3.73591
504.8,43.1882,0.0730591,-3.73595
505.2,43.2279,0.0765798,-3.73723
505.6,43.2672,0.0775506,-3.73722
506,43.3069,0.0750589,-3.73722
506.4,43.3455,0.0684468,-3.73821
506.8,43.3858,0.0635688,-3.73854
507.2,43.4253,0.0643364,-3.73774
507.6,43.464,0.0601223,-3.73722
508,43.5037,0.0731057,-3.73855
508.4,43.5426,0.0683013,-3.73854
508.8,43.5823,0.070075,-3.73854
509.2,43.6216,0.0727571,-3.73854
509.6,43.6606,0.0660615,-3.73854
510,43.7012,0.0671443,-3.73854
510.4,43.739,0.065283,-3.73857
510.8,43.7798,0.0644863,-3.73821
511.2,43.8191,0.056089,-3.73821
511.6,43.8588,0.0517054,-3.73821
512,43.8985,0.0520202,-3.73821
512.4,43.9375,0.0515383,-3.73822
512.8,43.9775,0.0454615,-3.73987
513.2,44.016,0.0485683,-3.74052
513.6,44.0535,0.0427409,-3.74011
514,44.0953,0.0548382,-3.73902
514.4,44.1355,0.0503972,-3.73777
514.8,44.1744,0.0442764,-3.74083
515.2,44.2154,0.0408289,-3.74139
515.6,44.2541,0.0437226,-3.73973
516,44.2924,0.0318455,-3.73976
516.4,44.3322,0.0383102,-3.73975
516.8,44.3721,0.0296208,-3.73837
517.2,44.4116,0.0274883,-3.73843
517.6,44.4509,0.0332024,-3.73843
518,44.4898,0.0233565,-3.73781
518.4,44.5295,0.0343043,-3.73838
518.8,44.569,0.0279282,-3.73973
519.2,44.6087,0.0286585,-3.73975
519.6,44.6485,0.0248134,-3.73976
520,44.6875,0.0219555,-3.73873
520.4,44.7284,0.0263737,-3.74008
520.8,44.7644,0.0205992,-3.74008
521.2,44.8067,0.0301148,-3.74008
521.6,44.846,0.0228896,-3.74111
522,44.885,0.0211162,-3.74272
522.4,44.9241,0.014393,-3.74272
522.8,44.9623,0.0254314,-3.74174
523.2,45.003,0.0228027,-3.7414
523.6,45.0435,0.024071,-3.74009
524,45.0826,0.0237481,-3.74008
524.4,45.1199,0.021409,-3.74008
524.8,45.1617,0.0184683,-3.7401
525.2,45.2005,0.0178677,-3.74141
525.6,45.2403,0.0106922,-3.7414
526,45.2802,0.0128687,-3.74129
526.4,45.3197,0.0102843,-3.74271
526.8,45.3586,0.00961567,-3.74295
527.2,45.399,0.00119409,-3.74403
527.6,45.4381,0.00851462,-3.74335
528,45.4777,0.000497442,-3.74272
528.4,45.5166,0.00253973,-3.74274
528.8,45.5567,0.00736795,-3.7414
529.2,45.5962,0.0102822,-3.74139
529.6,45.6355,-0.0021713,-3.74245
530,45.6746,0.00315475,-3.74271
530.4,45.7144,-0.000677885,-3.74117
530.8,45.7517,0.000703644,-3.73986
531.2,45.7939,0.0047164,-3.73985
531.6,45.8325,6.37163e-05,-3.73985
532,45.8705,0.00662433,-3.73986
532.4,45.9116,-0.00402578,-3.74121
532.8,45.9509,0.000265438,-3.74118
533.2,45.9905,-0.00312556,-3.74222
533.6,46.0306,0.00265181,-3.7438
534,46.0692,-0.00173702,-3.74381
534.4,46.1093,0.000674858,-3.74381
534.8,46.1463,-0.00296746,-3.74381
535.2,46.1878,-0.000220497,-3.74381
535.6,46.2269,0.00651962,-3.7439
536,46.2659,0.00300727,-3.74058
536.4,46.306,0.00295038,-3.7399
536.8,46.3457,0.00745464,-3.74138
537.2,46.3853,0.00606019,-3.7426
537.6,46.4253,0.00179026,-3.7426
538,46.4641,0.00623104,-3.7426
538.4,46.504,0.0075655,-3.7439
538.8,46.5415,0.00263369,-3.74392
539.2,46.5829,0.000635744,-3.74392
539.6,46.6222,0.00274698,-3.74392
540,46.6618,-0.00239553,-3.74392
540.4,46.7015,-0.00642808,-3.74392
540.8,46.7411,-0.0155967,-3.74391
541.2,46.7794,-0.00785514,-3.74242
541.6,46.8205,-0.00951816,-3.74371
542,46.8592,-0.00927028,-3.74401
542.4,46.8994,-0.0098553,-3.74386
542.8,46.9383,-0.0110343,-3.74522
543.2,46.9781,-0.0139946,-3.7452
543.6,47.0174,-0.0133322,-3.74391
544,47.0568,-0.015299,-3.74391
544.4,47.0963,-0.0118974,-3.74391
544.8,47.1355,-0.00579817,-3.74391
545.2,47.1759,-0.00343183,-3.74391
545.6,47.2146,-0.0153732,-3.74389
546,47.2539,-0.0146905,-3.74196
546.4,47.2945,-0.00723036,-3.74195
546.8,47.3333,-0.00465072,-3.74195
547.2,47.37,-0.00308675,-3.7431
547.6,47.4102,-0.00701453,-3.74326
548,47.4512,-0.00143317,-3.7437
548.4,47.4918,-0.0101898,-3.74424
548.8,47.531,-0.0154303,-3.74424
549.2,47.5707,-0.0119627,-3.74424
549.6,47.6096,-0.0173615,-3.74556
550,47.6485,-0.0161034,-3.74477
550.4,47.6893,-0.0255413,-3.74421
550.8,47.729,-0.0116972,-3.74554
551.2,47.7673,-0.0224957,-3.74556
551.6,47.808,-0.022559,-3.74628
552,47.8479,-0.0244664,-3.74622
552.4,47.8877,-0.0304138,-3.74622
552.8,47.9266,-0.0277594,-3.7449
553.2,47.9661,-0.0271811,-3.74359
553.6,48.0066,-0.0302124,-3.74359
554,48.0465,-0.039576,-3.7454
554.4,48.0866,-0.03906,-3.74556
554.8,48.1262,-0.0360971,-3.74556
555.2,48.1658,-0.0377874,-3.74512
555.6,48.2057,-0.0415031,-3.74424
556,48.2456,-0.0435291,-3.74424
556.4,48.2853,-0.0437259,-3.74424
556.8,48.3251,-0.0445202,-3.74424
557.2,48.3653,-0.0420417,-3.74491
557.6,48.4029,-0.0337802,-3.74492
558,48.4437,-0.0468351,-3.74622
558.4,48.4815,-0.0379393,-3.74673
558.8,48.5233,-0.0401419,-3.74676
559.2,48.5617,-0.0506855,-3.74556
559.6,48.6006,-0.0451295,-3.74605
560,48.641,-0.0406994,-3.74754
560.4,48.6818,-0.036618,-3.74754
560.8,48.7208,-0.036062,-3.74754
561.2,48.761,-0.0441338,-3.74754
561.6,48.8014,-0.04409,-3.74754
562,48.8405,-0.036448,-3.74754
562.4,48.881,-0.0378251,-3.74822
562.8,48.9208,-0.041385,-3.74839
563.2,48.9602,-0.0436818,-3.74742
563.6,48.9986,-0.0435702,-3.74621
564,49.04,-0.0432579,-3.74625
564.4,49.0805,-0.051944,-3.74755
564.8,49.1177,-0.041378,-3.74754
565.2,49.1574,-0.0491056,-3.74896
565.6,49.1994,-0.0482587,-3.74886
566,49.2389,-0.0515334,-3.74871
566.4,49.2783,-0.0543204,-3.74753
566.8,49.3178,-0.0564868,-3.74754
567.2,49.3568,-0.0551204,-3.74754
567.6,49.3971,-0.0555969,-3.74754
568,49.4368,-0.0607327,-3.74754
568.4,49.4763,-0.0572079,-3.74756
568.8,49.5172,-0.0557933,-3.74685
569.2,49.5572,-0.0596474,-3.74755
569.6,49.5961,-0.0637903,-3.74755
570,49.6338,-0.0647241,-3.74755
570.4,49.6748,-0.0719695,-3.7479
570.8,49.7149,-0.0651986,-3.7482
571.2,49.7545,-0.067063,-3.7482
571.6,49.7944,-0.0724747,-3.7482
572,49.8348,-0.0729685,-3.7482
572.4,49.8737,-0.0805093,-3.7482
572.8,49.9147,-0.0792572,-3.74817
573.2,49.9533,-0.0779339,-3.74754
573.6,49.9937,-0.0799108,-3.74755
574,50.0335,-0.0808317,-3.74885
574.4,50.0729,-0.0942332,-3.74879
574.8,50.1129,-0.0961401,-3.74919
575.2,50.1524,-0.0914016,-3.74919
575.6,50.1925,-0.0917611,-3.74919
576,50.2317,-0.0939292,-3.74919
576.4,50.2716,-0.0906708,-3.74919
576.8,50.3115,-0.0911178,-3.74984
577.2,50.3516,-0.0956791,-3.74984
577.6,50.3916,-0.0964669,-3.74984
578,50.431,-0.0987712,-3.74984
578.4,50.4719,-0.0919484,-3.74984
578.8,50.5091,-0.0998907,-3.74899
579.2,50.5505,-0.101725,-3.74722
579.6,50.5907,-0.103674,-3.7472
580,50.6298,-0.0993645,-3.74851
580.4,50.6702,-0.0966729,-3.74853
580.8,50.7097,-0.0950318,-3.74853
581.2,50.7497,-0.100292,-3.74853
581.6,50.7902,-0.101153,-3.74853
582,50.8296,-0.106332,-3.74903
582.4,50.8679,-0.102264,-3.74985
582.8,50.9087,-0.0966298,-3.74985
583.2,50.9492,-0.0932538,-3.74985
583.6,50.9883,-0.0985324,-3.74984
584,51.0286,-0.0957571,-3.75125
584.4,51.0681,-0.102945,-3.751
584.8,51.1081,-0.109164,-3.74996
585.2,51.1473,-0.0993887,-3.74994
585.6,51.1873,-0.0979363,-3.74863
586,51.2281,-0.108005,-3.74864
586.4,51.2667,-0.106984,-3.74918
586.8,51.3061,-0.104564,-3.75127
587.2,51.3466,-0.0994781,-3.75129
587.6,51.3864,-0.104939,-3.75255
588,51.4265,-0.107368,-3.75043
588.4,51.4662,-0.09885,-3.74996
588.8,51.5055,-0.10452,-3.74996
589.2,51.5457,-0.103471,-3.74996
589.6,51.5854,-0.110652,-3.74996
590,51.6251,-0.120328,-3.74996