File: 01_Data/Helmet_Buckle/STA/N2/10K_min/Helmet_Buckle_STA_N2_10KData_250307_R4.csv
Temp./C,Time/min,DSC/(mW/mg),Mass loss/mg
60.0,0.0,0.867177,-0.0178519
60.5,0.0635742,0.894585,-0.0179466
61,0.129604,0.911423,-0.018115
61.5,0.194351,0.925475,-0.0181613
62,0.252621,0.941185,-0.0175949
62.5,0.320091,0.956068,-0.018072
63,0.383349,0.975555,-0.0169163
63.5,0.446052,0.981198,-0.0163451
64,0.506147,0.994544,-0.0178191
64.5,0.565389,1.01142,-0.0189518
65,0.628121,1.02496,-0.0192523
65.5,0.689285,1.03657,-0.0193373
66,0.7469,1.04272,-0.0193381
66.5,0.808129,1.04529,-0.0192423
67,0.86584,1.05417,-0.0203062
67.5,0.926164,1.05512,-0.0177659
68,0.983923,1.05257,-0.0191917
68.5,1.04223,1.04599,-0.0191618
69,1.10086,1.0498,-0.0190892
69.5,1.15733,1.04077,-0.0205549
70,1.21421,1.04492,-0.0189577
70.5,1.27174,1.03096,-0.0179821
71,1.32868,1.02617,-0.0177102
71.5,1.38563,1.01971,-0.0180637
72,1.4419,1.01565,-0.01903
72.5,1.49759,1.00081,-0.0190263
73,1.55499,0.989545,-0.0202859
73.5,1.60939,0.989248,-0.0203513
74,1.66476,0.981777,-0.0190111
74.5,1.71999,0.984665,-0.0189558
75,1.7747,0.979593,-0.0198724
75.5,1.83012,0.984448,-0.0204218
76,1.88683,0.984857,-0.0191198
76.5,1.93974,0.98061,-0.0193036
77,1.99454,0.994973,-0.0192099
77.5,2.04954,1.00153,-0.0191957
78,2.10347,1.00056,-0.0192184
78.5,2.15839,1.00906,-0.0204911
79,2.21216,1.00842,-0.0192588
79.5,2.26635,1.01808,-0.0205282
80,2.31975,1.02326,-0.0206666
80.5,2.37357,1.02949,-0.0192111
81,2.42546,1.03287,-0.0179776
81.5,2.47906,1.04948,-0.0192074
82,2.53252,1.04933,-0.0191954
82.5,2.58497,1.06064,-0.0192658
83,2.63659,1.06572,-0.0191942
83.5,2.69005,1.06525,-0.0192061
84,2.74421,1.07886,-0.019942
84.5,2.79521,1.08407,-0.0191963
85,2.8475,1.08622,-0.0178098
85.5,2.90073,1.09476,-0.0192102
86,2.95194,1.1004,-0.0203126
86.5,3.00492,1.10543,-0.0207285
87,3.05526,1.11511,-0.0205339
87.5,3.10689,1.11946,-0.0192051
88,3.15849,1.12964,-0.0205026
88.5,3.21066,1.13266,-0.0204848
89,3.26204,1.14892,-0.0218403
89.5,3.31292,1.14757,-0.0215609
90,3.36272,1.15797,-0.0211816
90.5,3.41436,1.15619,-0.0205482
91,3.46472,1.16988,-0.019962
91.5,3.51619,1.18249,-0.0205241
92,3.56707,1.17547,-0.0218511
92.5,3.61789,1.18514,-0.0207936
93,3.66694,1.1898,-0.021842
93.5,3.71777,1.1973,-0.0219397
94,3.76757,1.20206,-0.0217332
94.5,3.81767,1.20743,-0.0205286
95,3.86845,1.21441,-0.0217061
95.5,3.9193,1.21427,-0.0218498
96,3.96886,1.22082,-0.0223447
96.5,4.01907,1.22428,-0.0218542
97,4.06874,1.23016,-0.0205193
97.5,4.11752,1.23564,-0.0219579
98,4.16944,1.24077,-0.0218407
98.5,4.21798,1.24448,-0.0227612
99,4.26734,1.25412,-0.021852
99.5,4.3173,1.2621,-0.0217986
100,4.36666,1.26248,-0.0205648
100.5,4.4158,1.26946,-0.0192558
101,4.46602,1.27953,-0.0205296
101.5,4.51394,1.28288,-0.020532
102,4.56448,1.28623,-0.0192071
102.5,4.61424,1.29054,-0.020503
103,4.66292,1.29544,-0.0205245
103.5,4.71193,1.29919,-0.0192098
104,4.76163,1.2942,-0.0196772
104.5,4.80915,1.30889,-0.0214812
105,4.85966,1.31001,-0.0218482
105.5,4.90717,1.30809,-0.023215
106,4.95802,1.32688,-0.0218647
106.5,5.00588,1.32958,-0.0231407
107,5.05551,1.32527,-0.023168
107.5,5.104,1.32482,-0.0218455
108,5.15306,1.33116,-0.0218095
108.5,5.2034,1.33249,-0.0205213
109,5.25042,1.3433,-0.01922
109.5,5.30121,1.34741,-0.0192825
110,5.34995,1.34396,-0.0194215
110.5,5.39849,1.35432,-0.0192096
111,5.44724,1.35779,-0.0203788
111.5,5.49626,1.36364,-0.0205273
112,5.54447,1.36596,-0.0192271
112.5,5.59185,1.3782,-0.0192094
113,5.64262,1.37465,-0.0187282
113.5,5.69122,1.37731,-0.0192281
114,5.7397,1.38226,-0.0191999
114.5,5.78723,1.39,-0.0192006
115,5.83552,1.39548,-0.0191606
115.5,5.8854,1.39368,-0.019209
116,5.9339,1.39762,-0.019204
116.5,5.98332,1.40458,-0.0205291
117,6.03163,1.40567,-0.0205311
117.5,6.07899,1.40702,-0.021844
118,6.12804,1.40964,-0.020802
118.5,6.17622,1.41252,-0.0208815
119,6.22459,1.41333,-0.0205199
119.5,6.27335,1.41627,-0.0205067
120,6.32282,1.42823,-0.0192101
120.5,6.3704,1.42357,-0.0192078
121,6.41933,1.42706,-0.0205321
121.5,6.46772,1.43489,-0.0205292
122,6.51628,1.43286,-0.0195728
122.5,6.56429,1.43561,-0.0190936
123,6.61146,1.43901,-0.017681
123.5,6.66105,1.44765,-0.0192098
124,6.70884,1.44661,-0.0192102
124.5,6.75694,1.45933,-0.0190512
125,6.80493,1.45384,-0.0192477
125.5,6.85396,1.45729,-0.0205194
126,6.90252,1.45958,-0.02052
126.5,6.94993,1.46629,-0.020522
127,6.99756,1.46256,-0.0216779
127.5,7.04486,1.46992,-0.0231603
128,7.09457,1.47078,-0.02316
128.5,7.14202,1.47126,-0.02316
129,7.19084,1.47072,-0.0231479
129.5,7.23851,1.47031,-0.0217915
130,7.2872,1.48204,-0.0205221
130.5,7.33497,1.48486,-0.0218821
131,7.3833,1.48572,-0.0205271
131.5,7.43021,1.48164,-0.0210341
132,7.47879,1.49006,-0.0200085
132.5,7.52537,1.48271,-0.0192842
133,7.57533,1.49501,-0.0188794
133.5,7.62281,1.49855,-0.0192048
134,7.66998,1.49795,-0.0187721
134.5,7.71611,1.50408,-0.0178907
135,7.76658,1.5058,-0.0178943
135.5,7.81396,1.50514,-0.0185443
136,7.86135,1.50785,-0.01855
136.5,7.90858,1.51348,-0.0185934
137,7.95685,1.51504,-0.0198689
137.5,8.00599,1.51891,-0.01987
138,8.05338,1.52631,-0.01987
138.5,8.10036,1.53019,-0.0198485
139,8.14888,1.5212,-0.0185338
139.5,8.19634,1.52644,-0.018536
140,8.24402,1.53826,-0.0171967
140.5,8.29073,1.53876,-0.01723
141,8.3381,1.54327,-0.0177011
141.5,8.38698,1.54589,-0.0185495
142,8.43455,1.54987,-0.0192081
142.5,8.48244,1.55352,-0.0185481
143,8.52949,1.55263,-0.0185514
143.5,8.5764,1.55568,-0.0198727
144,8.62515,1.56123,-0.0198699
144.5,8.67168,1.56249,-0.0198713
145,8.71868,1.56759,-0.0211632
145.5,8.76615,1.5661,-0.02119
146,8.81471,1.57122,-0.0211899
146.5,8.86221,1.56911,-0.020891
147,8.91029,1.57486,-0.0198706
147.5,8.95748,1.57795,-0.0198844
148,9.00414,1.58052,-0.0192093
148.5,9.05262,1.58059,-0.0194102
149,9.099,1.57988,-0.0187271
149.5,9.14692,1.58426,-0.0194249
150,9.19397,1.58542,-0.0185501
150.5,9.24053,1.58866,-0.0185497
151,9.28831,1.5946,-0.0197505
151.5,9.33614,1.59808,-0.0189193
152,9.38313,1.59809,-0.0184919
152.5,9.43049,1.59454,-0.0198584
153,9.47814,1.60585,-0.0212313
153.5,9.52561,1.6062,-0.0218092
154,9.57194,1.60871,-0.02217
154.5,9.61876,1.61358,-0.020872
155,9.66652,1.61337,-0.02085
155.5,9.71418,1.62126,-0.0208497
156,9.7619,1.61887,-0.0202524
156.5,9.80911,1.6172,-0.0195405
157,9.85646,1.62465,-0.0196304
157.5,9.90348,1.61892,-0.0182199
158,9.94791,1.62167,-0.0182392
158.5,9.99787,1.62168,-0.01988
159,10.0459,1.62009,-0.0185643
159.5,10.0931,1.62766,-0.0198553
160,10.1402,1.62921,-0.0187533
160.5,10.187,1.63883,-0.0185483
161,10.2345,1.63088,-0.0179402
161.5,10.281,1.63275,-0.0188791
162,10.3292,1.6359,-0.01888
162.5,10.3772,1.63809,-0.0188801
163,10.4244,1.63918,-0.0194905
163.5,10.4714,1.64966,-0.0201901
164,10.5182,1.6509,-0.0201899
164.5,10.5655,1.64908,-0.020224
165,10.6132,1.64941,-0.0215117
165.5,10.6601,1.6448,-0.0221593
166,10.7072,1.65091,-0.0221705
166.5,10.7544,1.65861,-0.0220271
167,10.8022,1.66105,-0.0208497
167.5,10.8489,1.66164,-0.0208426
168,10.8967,1.6645,-0.0198711
168.5,10.945,1.66321,-0.0198761
169,10.9917,1.66851,-0.0195442
169.5,11.0386,1.66784,-0.0184105
170,11.086,1.66696,-0.0182198
170.5,11.1332,1.67223,-0.0182199
171,11.1807,1.67248,-0.0181396
171.5,11.2279,1.67849,-0.0188789
172,11.2752,1.68035,-0.0187531
172.5,11.3212,1.67342,-0.0182204
173,11.3694,1.67291,-0.01822
173.5,11.4168,1.68081,-0.0182201
174,11.4641,1.67907,-0.0187752
174.5,11.5113,1.68199,-0.0195259
175,11.5566,1.68508,-0.0208749
175.5,11.6068,1.68444,-0.0221536
176,11.6529,1.68931,-0.020854
176.5,11.7018,1.6818,-0.0208386
177,11.7466,1.68093,-0.0198646
177.5,11.7949,1.68697,-0.0197702
178,11.8426,1.69136,-0.0198635
178.5,11.8899,1.68989,-0.0210657
179,11.9372,1.69369,-0.0209485
179.5,11.9838,1.69438,-0.0211689
180,12.0306,1.69612,-0.0211899
180.5,12.0788,1.6949,-0.0211826
181,12.1253,1.69788,-0.0225183
181.5,12.1727,1.70046,-0.02251
182,12.22,1.7001,-0.0225093
182.5,12.2671,1.69745,-0.0212183
183,12.3137,1.69868,-0.02119
183.5,12.3618,1.69681,-0.0211831
184,12.4081,1.70467,-0.0221189
184.5,12.4554,1.70728,-0.0219678
185,12.5033,1.70606,-0.0215099
185.5,12.5503,1.69953,-0.0215032
186,12.5954,1.70523,-0.021166
186.5,12.6452,1.70668,-0.0198828
187,12.6924,1.70669,-0.0198732
187.5,12.7392,1.70394,-0.0211791
188,12.7861,1.6977,-0.0198274
188.5,12.8345,1.70513,-0.0211824
189,12.8805,1.70617,-0.0210132
189.5,12.9282,1.71091,-0.0184755
190,12.9747,1.71832,-0.018552
190.5,13.0226,1.71309,-0.0205341
191,13.0697,1.72249,-0.0205301
191.5,13.1171,1.71927,-0.0204463
192,13.1641,1.7233,-0.0195385
192.5,13.2117,1.71817,-0.0205349
193,13.2584,1.72169,-0.0205396
193.5,13.3049,1.72885,-0.0208786
194,13.3527,1.72413,-0.0212138
194.5,13.3996,1.72591,-0.0218498
195,13.4464,1.73088,-0.021657
195.5,13.4941,1.73063,-0.0205307
196,13.5421,1.72733,-0.0205296
196.5,13.589,1.73437,-0.0192266
197,13.6361,1.7379,-0.0192132
197.5,13.6834,1.73824,-0.0178616
198,13.7308,1.74398,-0.0178899
198.5,13.7778,1.74196,-0.0178894
199,13.8253,1.74131,-0.0180339
199.5,13.8721,1.74167,-0.01921
200,13.9198,1.75126,-0.0194463
200.5,13.9661,1.75348,-0.0205183
201,14.0143,1.75645,-0.0205343
201.5,14.062,1.75439,-0.0201894
202,14.1084,1.75101,-0.0201901
202.5,14.156,1.75945,-0.0201586
203,14.2031,1.76326,-0.021511
203.5,14.2508,1.77013,-0.0214853
204,14.2974,1.76241,-0.0215195
204.5,14.3439,1.76286,-0.0215129
205,14.393,1.77461,-0.0202
205.5,14.4397,1.77011,-0.0202
206,14.4858,1.77491,-0.0201738
206.5,14.5333,1.77522,-0.0215168
207,14.58,1.77265,-0.02152
207.5,14.6282,1.78389,-0.0215201
208,14.6742,1.78424,-0.0215082
208.5,14.7227,1.78702,-0.0215196
209,14.7706,1.78622,-0.0223327
209.5,14.8176,1.7879,-0.0215209
210,14.8647,1.7914,-0.02152
210.5,14.9117,1.78989,-0.0215195
211,14.9579,1.7955,-0.0202494
211.5,15.0049,1.7916,-0.0214181
212,15.0525,1.7913,-0.0201899
212.5,15.0996,1.79252,-0.02019
213,15.1486,1.79962,-0.0201858
213.5,15.1949,1.80534,-0.0215608
214,15.2412,1.8135,-0.0208721
214.5,15.2895,1.813,-0.0215206
215,15.3367,1.81337,-0.021973
215.5,15.384,1.81677,-0.02283
216,15.4317,1.82545,-0.02283
216.5,15.479,1.82435,-0.02283
217,15.5269,1.82202,-0.0228302
217.5,15.5727,1.83056,-0.0227903
218,15.6196,1.83363,-0.0218699
218.5,15.6667,1.83027,-0.0218498
219,15.7149,1.84223,-0.0219078
219.5,15.7625,1.84185,-0.0205299
220,15.8099,1.84824,-0.0205295
220.5,15.8564,1.84137,-0.0208801
221,15.9036,1.86002,-0.0215103
221.5,15.9512,1.86216,-0.0215144
222,15.998,1.86516,-0.0215921
222.5,16.0445,1.86584,-0.02152
223,16.0927,1.86531,-0.0221264
223.5,16.1403,1.8693,-0.0227992
224,16.1878,1.87727,-0.0228212
224.5,16.2342,1.87303,-0.0223858
225,16.2824,1.88142,-0.0214998
225.5,16.3286,1.88623,-0.0195532
226,16.3778,1.88966,-0.01954
226.5,16.4239,1.887,-0.0195398
227,16.4709,1.89487,-0.02092
227.5,16.5191,1.90222,-0.0208501
228,16.5658,1.91022,-0.02085
228.5,16.6134,1.91324,-0.02085
229,16.6617,1.91268,-0.0208429
229.5,16.7086,1.91331,-0.0201885
230,16.7563,1.92582,-0.0214984
230.5,16.8028,1.92526,-0.0214736
231,16.8501,1.92301,-0.0217039
231.5,16.898,1.9354,-0.0215095
232,16.9452,1.9416,-0.0215107
232.5,16.9928,1.94225,-0.0221871
233,17.0395,1.95286,-0.0228304
233.5,17.0869,1.95236,-0.0238517
234,17.1342,1.96439,-0.0241397
234.5,17.1822,1.97176,-0.0238173
235,17.2303,1.97104,-0.0224658
235.5,17.2773,1.97522,-0.0215264
236,17.3243,1.98072,-0.0221727
236.5,17.371,1.98852,-0.02217
237,17.4189,1.99216,-0.0218458
237.5,17.4664,1.99519,-0.02184
238,17.5138,2.00174,-0.02184
238.5,17.5613,2.00765,-0.0218395
239,17.609,2.01498,-0.0214806
239.5,17.6565,2.0299,-0.0215101
240,17.7033,2.0335,-0.0215098
240.5,17.7505,2.04241,-0.020154
241,17.7988,2.04982,-0.0201196
241.5,17.845,2.06089,-0.0215106
242,17.8927,2.07524,-0.02151
242.5,17.9396,2.09374,-0.02151
243,17.9877,2.10625,-0.02151
243.5,18.0362,2.13212,-0.0215097
244,18.0838,2.14868,-0.0217341
244.5,18.1313,2.1722,-0.02152
245,18.178,2.19599,-0.0215136
245.5,18.227,2.22026,-0.0241502
246,18.2742,2.25058,-0.02414
246.5,18.3231,2.2899,-0.0241399
247,18.3703,2.32681,-0.0227876
247.5,18.4184,2.37601,-0.0228301
248,18.4665,2.43123,-0.0228267
248.5,18.5116,2.46638,-0.0214984
249,18.5621,2.54018,-0.02151
249.5,18.6114,2.62517,-0.02151
250,18.6594,2.71209,-0.0214452
250.5,18.7081,2.81778,-0.0202044
251,18.758,2.95882,-0.0188819
251.5,18.8059,3.12154,-0.01888
252,18.8556,3.32279,-0.01888
252.5,18.9057,3.51594,-0.01888
253,18.9553,3.71877,-0.0188809
253.5,19.0056,3.90859,-0.0198117
254,19.0548,4.10179,-0.0201998
254.5,19.1041,4.28021,-0.0202214
255,19.1544,4.44754,-0.0215085
255.5,19.204,4.60475,-0.02151
256,19.2532,4.74089,-0.0215086
256.5,19.3029,4.87127,-0.0195603
257,19.3523,4.9998,-0.0188799
257.5,19.4009,5.12306,-0.01888
258,19.4505,5.25994,-0.01888
258.5,19.4996,5.40573,-0.0188769
259,19.5483,5.55441,-0.0195014
259.5,19.5987,5.70879,-0.0214155
260,19.6481,5.84706,-0.0220564
260.5,19.6969,5.9788,-0.0234268
261,19.7466,6.07283,-0.0233799
261.5,19.794,6.12867,-0.02338
262,19.8416,6.07209,-0.02338
262.5,19.8868,5.8043,-0.02338
263,19.9279,5.26028,-0.02338
263.5,19.9683,4.6044,-0.02338
264,20.0095,3.97525,-0.0233814
264.5,20.0523,3.47141,-0.0220172
265,20.0941,3.07664,-0.0220977
265.5,20.1379,2.77791,-0.0233878
266,20.1838,2.53605,-0.0220604
266.5,20.2291,2.35588,-0.0220612
267,20.2746,2.23479,-0.0227899
267.5,20.3202,2.12728,-0.022822
268,20.3664,2.06639,-0.0213724
268.5,20.4136,2.00666,-0.0220592
269,20.4604,1.97326,-0.0220571
269.5,20.5078,1.92911,-0.0234325
270,20.554,1.90475,-0.0233907
270.5,20.6008,1.88818,-0.0220579
271,20.6483,1.87223,-0.02206
271.5,20.6957,1.8607,-0.02206
272,20.7429,1.85087,-0.02206
272.5,20.7906,1.84924,-0.02206
273,20.8377,1.83907,-0.0220009
273.5,20.886,1.84197,-0.0207522
274,20.9328,1.83346,-0.02075
274.5,20.9793,1.82104,-0.0207502
275,21.0281,1.8269,-0.0203156
275.5,21.0748,1.8156,-0.0200895
276,21.1222,1.82009,-0.0200695
276.5,21.1693,1.82162,-0.0214001
277,21.2169,1.82336,-0.0214
277.5,21.2629,1.81435,-0.0214
278,21.3132,1.81451,-0.0200547
278.5,21.3603,1.82332,-0.0200897
279,21.4071,1.826,-0.0200901
279.5,21.4551,1.82192,-0.020027
280,21.4999,1.82384,-0.0214364
280.5,21.5509,1.82008,-0.0200879
281,21.5975,1.82589,-0.0200882
281.5,21.6453,1.82203,-0.0215669
282,21.6931,1.82074,-0.0220602
282.5,21.7404,1.82208,-0.0206818
283,21.7879,1.81474,-0.02075
283.5,21.836,1.81594,-0.0207484
284,21.8835,1.81798,-0.0195569
284.5,21.9316,1.81358,-0.0194299
285,21.9789,1.81781,-0.01943
285.5,22.0255,1.82187,-0.01943
286,22.0746,1.819,-0.0194984
286.5,22.1215,1.81283,-0.0207454
287,22.1693,1.81408,-0.0213986
287.5,22.2167,1.80936,-0.0220101
288,22.2644,1.8085,-0.0233833
288.5,22.3116,1.80141,-0.02338
289,22.3576,1.79968,-0.02338
289.5,22.4073,1.80436,-0.0233798
290,22.4554,1.80786,-0.022861
290.5,22.5032,1.80495,-0.0220609
291,22.5508,1.80497,-0.02206
291.5,22.5986,1.80471,-0.0220573
292,22.6458,1.80892,-0.0207707
292.5,22.6937,1.80008,-0.0207734
293,22.7413,1.80745,-0.0220684
293.5,22.7888,1.80157,-0.0221742
294,22.8375,1.80947,-0.0207496
294.5,22.8841,1.80958,-0.0195364
295,22.933,1.81159,-0.0194298
295.5,22.9804,1.80803,-0.0207871
296,23.0277,1.81388,-0.0207499
296.5,23.0749,1.80562,-0.02075
297,23.1212,1.80853,-0.02075
297.5,23.1713,1.80784,-0.0207662
298,23.2193,1.81506,-0.0217349
298.5,23.2665,1.80967,-0.0217411
299,23.3143,1.80726,-0.0204337
299.5,23.3626,1.80934,-0.0204172
300,23.4101,1.8035,-0.0191295
300.5,23.4582,1.8038,-0.0191023
301,23.5051,1.80348,-0.0187774
301.5,23.5548,1.80152,-0.01877
302,23.6016,1.80532,-0.0187701
302.5,23.649,1.80358,-0.0187202
303,23.6978,1.79617,-0.0211484
303.5,23.7447,1.79848,-0.0227328
304,23.7928,1.80284,-0.0253459
304.5,23.8413,1.80449,-0.0253253
305,23.889,1.80901,-0.024029
305.5,23.9368,1.80861,-0.0227319
306,23.9849,1.81025,-0.0226084
306.5,24.0338,1.81199,-0.0217313
307,24.0802,1.80175,-0.0217302
307.5,24.1289,1.80087,-0.0215937
308,24.1746,1.8101,-0.0228371
308.5,24.2244,1.81207,-0.0244589
309,24.2719,1.82045,-0.0247
309.5,24.3207,1.81509,-0.0246946
310,24.3662,1.8048,-0.0260569
310.5,24.4139,1.80817,-0.0273285
311,24.4646,1.80439,-0.0273294
311.5,24.5104,1.80083,-0.0265122
312,24.5595,1.80109,-0.0246382
312.5,24.6073,1.80211,-0.024718
313,24.656,1.80586,-0.0259989
313.5,24.704,1.79823,-0.0274382
314,24.7516,1.79797,-0.02744
314.5,24.7999,1.79882,-0.027437
315,24.8471,1.80281,-0.0261492
315.5,24.8958,1.79867,-0.02613
316,24.941,1.79904,-0.02613
316.5,24.9914,1.80465,-0.0261343
317,25.0395,1.79566,-0.0268095
317.5,25.0877,1.80068,-0.0277755
318,25.1357,1.80054,-0.02777
318.5,25.1835,1.80386,-0.02777
319,25.2314,1.80396,-0.02777
319.5,25.2794,1.80803,-0.02777
320,25.3273,1.80574,-0.02777
320.5,25.3761,1.80944,-0.027781
321,25.4239,1.81181,-0.0286314
321.5,25.4717,1.81681,-0.0280962
322,25.5203,1.81811,-0.0294235
322.5,25.5678,1.81748,-0.0295303
323,25.6162,1.80997,-0.0264631
323.5,25.6654,1.81341,-0.0263355
324,25.7121,1.81469,-0.0262303
324.5,25.76,1.8165,-0.027778
325,25.8082,1.81604,-0.0290201
325.5,25.8569,1.81397,-0.0289506
326,25.9047,1.8107,-0.0300775
326.5,25.9525,1.81659,-0.0300877
327,26.0012,1.81725,-0.0290886
327.5,26.0491,1.81935,-0.0304677
328,26.0976,1.82021,-0.0303999
328.5,26.1451,1.81675,-0.0304
329,26.1939,1.82293,-0.0303981
329.5,26.2409,1.82324,-0.0317094
330,26.2891,1.82703,-0.0300907
330.5,26.3371,1.83708,-0.0293964
331,26.3852,1.84468,-0.0299
331.5,26.4344,1.83383,-0.0314215
332,26.4818,1.83829,-0.032719
332.5,26.5305,1.84444,-0.0352649
333,26.5782,1.84465,-0.0353502
333.5,26.6276,1.85605,-0.0353487
334,26.6746,1.8568,-0.0340356
334.5,26.7229,1.8568,-0.0327109
335,26.7717,1.85926,-0.0336898
335.5,26.8175,1.85592,-0.032711
336,26.8682,1.85777,-0.0317249
336.5,26.9159,1.87183,-0.0321677
337,26.9649,1.87209,-0.034606
337.5,27.013,1.87333,-0.0334618
338,27.0613,1.87176,-0.0328039
338.5,27.1083,1.87572,-0.0333455
339,27.1579,1.88233,-0.0363037
339.5,27.2058,1.8805,-0.0375841
340,27.2546,1.88262,-0.0389705
340.5,27.3021,1.8795,-0.03897
341,27.3507,1.89348,-0.0389701
341.5,27.3981,1.89324,-0.0388254
342,27.4476,1.90476,-0.0402798
342.5,27.496,1.9135,-0.0402896
343,27.5446,1.90844,-0.0415885
343.5,27.593,1.92227,-0.0416
344,27.6409,1.91611,-0.0416
344.5,27.6894,1.91579,-0.0415992
345,27.7375,1.92615,-0.0429626
345.5,27.786,1.92944,-0.0442512
346,27.8346,1.93943,-0.04424
346.5,27.8824,1.93665,-0.0442398
347,27.9307,1.94398,-0.0425239
347.5,27.9791,1.95584,-0.0424934
348,28.0282,1.95332,-0.0438957
348.5,28.0766,1.96008,-0.0452346
349,28.125,1.97139,-0.0466015
349.5,28.1732,1.97321,-0.0478521
350,28.2221,1.98433,-0.0484804
350.5,28.27,1.99381,-0.0491731
351,28.3188,2.00117,-0.0505073
351.5,28.3656,2.00979,-0.0505006
352,28.4147,2.01386,-0.0518001
352.5,28.4633,2.04169,-0.0516517
353,28.5128,2.04544,-0.0505001
353.5,28.5608,2.05219,-0.0510051
354,28.6084,2.06668,-0.0518101
354.5,28.6575,2.07708,-0.0522067
355,28.7062,2.09134,-0.051756
355.5,28.7553,2.10546,-0.0531211
356,28.8043,2.13088,-0.0557648
356.5,28.8518,2.13423,-0.0570793
357,28.901,2.15579,-0.0562864
357.5,28.9501,2.16891,-0.057044
358,28.9982,2.19,-0.0583855
358.5,29.0471,2.21171,-0.0597267
359,29.0953,2.23841,-0.0611308
359.5,29.1444,2.25463,-0.0623048
360,29.1927,2.26463,-0.0649999
360.5,29.2406,2.28986,-0.0668968
361,29.2902,2.30666,-0.0681808
361.5,29.3395,2.32849,-0.0695579
362,29.3871,2.34251,-0.0709343
362.5,29.4355,2.35983,-0.0722121
363,29.4843,2.36907,-0.0722097
363.5,29.5332,2.38307,-0.0722695
364,29.5818,2.39576,-0.0735055
364.5,29.6307,2.40238,-0.0748716
365,29.6794,2.41776,-0.0762224
365.5,29.7271,2.42877,-0.077826
366,29.7763,2.43652,-0.0810703
366.5,29.8256,2.44639,-0.0841565
367,29.8734,2.44518,-0.0872024
367.5,29.9223,2.45211,-0.0884833
368,29.9709,2.46208,-0.0914342
368.5,30.0193,2.46994,-0.0930182
369,30.0678,2.47633,-0.0941101
369.5,30.1164,2.48177,-0.0955204
370,30.163,2.48579,-0.096954
370.5,30.2147,2.49633,-0.0999079
371,30.263,2.50901,-0.1018
371.5,30.3124,2.51325,-0.102877
372,30.3593,2.53423,-0.10313
372.5,30.4078,2.53514,-0.106429
373,30.4576,2.54956,-0.107639
373.5,30.505,2.5687,-0.110515
374,30.5546,2.56809,-0.113578
374.5,30.6023,2.59306,-0.116866
375,30.652,2.59436,-0.119722
375.5,30.7008,2.62135,-0.121869
376,30.7495,2.64281,-0.123372
376.5,30.7987,2.66368,-0.126321
377,30.847,2.67068,-0.130559
377.5,30.8954,2.67687,-0.133798
378,30.944,2.67743,-0.137583
378.5,30.994,2.68974,-0.141984
379,31.0422,2.69386,-0.144564
379.5,31.0903,2.70691,-0.146114
380,31.1398,2.72703,-0.149025
380.5,31.1887,2.7492,-0.152228
381,31.2378,2.76461,-0.155919
381.5,31.2864,2.78196,-0.159364
382,31.3342,2.80032,-0.162667
382.5,31.3844,2.8228,-0.168574
383,31.4327,2.84012,-0.17303
383.5,31.4813,2.8641,-0.179606
384,31.5304,2.88678,-0.184624
384.5,31.5797,2.90671,-0.190831
385,31.6295,2.92853,-0.1943
385.5,31.6789,2.94447,-0.197921
386,31.7278,2.96703,-0.202371
386.5,31.7757,2.98412,-0.207086
387,31.8257,3.01393,-0.212929
387.5,31.8732,3.0309,-0.217555
388,31.9227,3.06553,-0.223529
388.5,31.9714,3.09962,-0.229325
389,32.0205,3.14401,-0.235294
389.5,32.0697,3.18704,-0.244664
390,32.1191,3.20906,-0.251909
390.5,32.1678,3.23733,-0.259513
391,32.2152,3.26216,-0.266293
391.5,32.2659,3.29384,-0.274475
392,32.3153,3.32487,-0.280337
392.5,32.3651,3.35451,-0.286797
393,32.4132,3.37786,-0.293921
393.5,32.4625,3.42112,-0.299636
394,32.5108,3.45199,-0.308131
394.5,32.5612,3.4856,-0.315013
395,32.6107,3.52882,-0.322383
395.5,32.6592,3.56786,-0.331055
396,32.7084,3.58646,-0.340529
396.5,32.7572,3.60793,-0.348776
397,32.8062,3.64601,-0.358331
397.5,32.8556,3.67093,-0.367571
398,32.9049,3.7064,-0.377153
398.5,32.9532,3.73323,-0.387058
399,33.0037,3.77564,-0.397145
399.5,33.0526,3.79246,-0.408727
400,33.1019,3.82473,-0.420808
400.5,33.1506,3.85298,-0.429975
401,33.2003,3.89576,-0.439784
401.5,33.2491,3.91702,-0.451782
402,33.2985,3.95463,-0.462851
402.5,33.3474,3.98732,-0.474238
403,33.3977,4.02689,-0.486223
403.5,33.4465,4.04211,-0.497609
404,33.496,4.07628,-0.50766
404.5,33.5441,4.10601,-0.519152
405,33.5945,4.14055,-0.532179
405.5,33.6431,4.17339,-0.542546
406,33.6929,4.20419,-0.557893
406.5,33.7412,4.24215,-0.571232
407,33.7912,4.26677,-0.583356
407.5,33.8393,4.30434,-0.596369
408,33.8887,4.33505,-0.610932
408.5,33.9383,4.35751,-0.625618
409,33.9878,4.37864,-0.641425
409.5,34.0372,4.42911,-0.656456
410,34.0859,4.45505,-0.670217
410.5,34.1347,4.48649,-0.684444
411,34.184,4.52036,-0.701241
411.5,34.2325,4.55109,-0.716116
412,34.2828,4.57702,-0.731639
412.5,34.3322,4.61852,-0.746258
413,34.3813,4.65779,-0.763053
413.5,34.4306,4.69415,-0.781853
414,34.4796,4.72438,-0.798694
414.5,34.5285,4.72733,-0.815284
415,34.5749,4.75014,-0.831006
415.5,34.6269,4.78046,-0.850675
416,34.6755,4.7946,-0.869221
416.5,34.7259,4.81899,-0.886565
417,34.7749,4.84407,-0.904465
417.5,34.8239,4.84743,-0.924101
418,34.8723,4.87901,-0.943574
418.5,34.9216,4.90132,-0.962433
419,34.9711,4.93037,-0.981973
419.5,35.0193,4.94349,-0.999867
420,35.0695,4.97029,-1.0204
420.5,35.1185,4.99742,-1.04195
421,35.168,5.02967,-1.06369
421.5,35.2179,5.04951,-1.08497
422,35.2669,5.07441,-1.10801
422.5,35.3153,5.09596,-1.12876
423,35.3657,5.1232,-1.15186
423.5,35.4144,5.15049,-1.17542
424,35.4639,5.17198,-1.19861
424.5,35.5125,5.19786,-1.22348
425,35.5623,5.21906,-1.24677
425.5,35.6118,5.24093,-1.27075
426,35.6604,5.26902,-1.29567
426.5,35.7095,5.28216,-1.32306
427,35.7579,5.29624,-1.34752
427.5,35.8078,5.30979,-1.3732
428,35.8545,5.32568,-1.3969
428.5,35.905,5.34272,-1.42159
429,35.9561,5.34781,-1.45009
429.5,36.0047,5.35736,-1.47514
430,36.054,5.37159,-1.50195
430.5,36.1035,5.37605,-1.52992
431,36.153,5.3783,-1.55915
431.5,36.2002,5.38753,-1.58575
432,36.2506,5.37891,-1.61178
432.5,36.3005,5.38437,-1.6411
433,36.3489,5.37645,-1.67001
433.5,36.3981,5.36562,-1.6998
434,36.4462,5.35988,-1.72803
434.5,36.4957,5.34615,-1.75867
435,36.5447,5.33862,-1.79067
435.5,36.5928,5.3093,-1.82174
436,36.6428,5.28621,-1.85236
436.5,36.6916,5.27183,-1.88237
437,36.7403,5.24112,-1.91465
437.5,36.7889,5.20801,-1.94565
438,36.8375,5.18281,-1.97522
438.5,36.8866,5.14694,-2.00449
439,36.9348,5.11123,-2.03362
439.5,36.9837,5.06742,-2.06419
440,37.0328,5.03062,-2.09651
440.5,37.0814,4.99282,-2.12569
441,37.1291,4.94134,-2.1566
441.5,37.1779,4.89529,-2.18907
442,37.2264,4.84954,-2.21898
442.5,37.275,4.79657,-2.25056
443,37.3234,4.74618,-2.27907
443.5,37.3719,4.69365,-2.30997
444,37.4195,4.63067,-2.33934
444.5,37.4682,4.58231,-2.37046
445,37.5165,4.51421,-2.40189
445.5,37.5648,4.45081,-2.43144
446,37.6131,4.39058,-2.46115
446.5,37.6614,4.32868,-2.49055
447,37.7099,4.25933,-2.52074
447.5,37.757,4.19287,-2.54961
448,37.8055,4.12038,-2.57834
448.5,37.8536,4.05191,-2.60717
449,37.9014,3.96997,-2.63601
449.5,37.9492,3.8919,-2.66553
450,37.9978,3.80778,-2.69236
450.5,38.0463,3.73278,-2.71809
451,38.0942,3.65946,-2.74528
451.5,38.1419,3.57204,-2.77239
452,38.1906,3.49288,-2.80052
452.5,38.2383,3.41497,-2.82601
453,38.2847,3.32884,-2.85029
453.5,38.3346,3.24294,-2.87867
454,38.383,3.1633,-2.90378
454.5,38.4309,3.06667,-2.93002
455,38.4788,2.98873,-2.95443
455.5,38.5266,2.91439,-2.97632
456,38.5748,2.82833,-3.0005
456.5,38.6214,2.74604,-3.02508
457,38.6717,2.65463,-3.05009
457.5,38.7169,2.58112,-3.07081
458,38.7666,2.49925,-3.09418
458.5,38.8164,2.42344,-3.11695
459,38.864,2.33293,-3.13865
459.5,38.9124,2.25761,-3.16042
460,38.9598,2.17043,-3.17863
460.5,39.0089,2.08978,-3.1988
461,39.0569,2.01806,-3.21841
461.5,39.1042,1.95384,-3.23982
462,39.1536,1.87638,-3.26124
462.5,39.2019,1.806,-3.27902
463,39.2505,1.72781,-3.29657
463.5,39.2985,1.66288,-3.31281
464,39.3467,1.59169,-3.33171
464.5,39.3956,1.53277,-3.34905
465,39.4438,1.45989,-3.36529
465.5,39.49,1.40037,-3.3794
466,39.541,1.34362,-3.39919
466.5,39.5892,1.27719,-3.41401
467,39.638,1.21713,-3.4305
467.5,39.6853,1.16284,-3.44571
468,39.7351,1.11356,-3.46132
468.5,39.7844,1.05436,-3.47502
469,39.8322,0.997476,-3.48807
469.5,39.8809,0.945662,-3.50032
470,39.9286,0.8996,-3.51538
470.5,39.9776,0.851974,-3.52783
471,40.0275,0.807904,-3.5417
471.5,40.0753,0.753888,-3.55312
472,40.1241,0.717226,-3.56242
472.5,40.173,0.677118,-3.57396
473,40.2217,0.626952,-3.58513
473.5,40.2706,0.591373,-3.59649
474,40.3191,0.542751,-3.60729
474.5,40.3691,0.513102,-3.61527
475,40.4165,0.477409,-3.62439
475.5,40.4654,0.435443,-3.63389
476,40.5152,0.404399,-3.64336
476.5,40.563,0.370344,-3.65231
477,40.6124,0.344243,-3.661
477.5,40.6615,0.301215,-3.66899
478,40.7104,0.281042,-3.67442
478.5,40.7593,0.246964,-3.68271
479,40.8076,0.224952,-3.68362
479.5,40.8573,0.202138,-3.69358
480,40.9067,0.168669,-3.7032
480.5,40.9557,0.143955,-3.70847
481,41.0043,0.128997,-3.71176
481.5,41.0532,0.10135,-3.7176
482,41.1036,0.0841828,-3.72194
482.5,41.1514,0.0656518,-3.72718
483,41.2007,0.0464178,-3.73073
483.5,41.2502,0.0241947,-3.73445
484,41.2985,3.80143e-05,-3.73917
484.5,41.3479,-0.0149674,-3.74295
485,41.3973,-0.0308488,-3.74702
485.5,41.4468,-0.0500498,-3.75033
486,41.4953,-0.0623946,-3.75487
486.5,41.5459,-0.0705195,-3.75784
487,41.5954,-0.0900418,-3.76322
487.5,41.6433,-0.108633,-3.76459
488,41.6938,-0.121213,-3.76451
488.5,41.742,-0.137999,-3.76479
489,41.7922,-0.156777,-3.7711
489.5,41.8414,-0.162426,-3.77452
490,41.8911,-0.176281,-3.77753
490.5,41.9406,-0.181649,-3.77847
491,41.9903,-0.193924,-3.77873
491.5,42.0394,-0.210472,-3.77883
492,42.0888,-0.220262,-3.77878
492.5,42.1383,-0.225477,-3.77971
493,42.1874,-0.234742,-3.78016
493.5,42.2367,-0.248438,-3.78219
494,42.2866,-0.252121,-3.78424
494.5,42.3349,-0.258834,-3.78698
495,42.3848,-0.269698,-3.78835
495.5,42.4341,-0.259801,-3.7884
496,42.4839,-0.272496,-3.78959
496.5,42.5331,-0.278409,-3.78959
497,42.5838,-0.277739,-3.78829
497.5,42.6331,-0.277517,-3.78938
498,42.6819,-0.283735,-3.78959
498.5,42.7319,-0.282827,-3.79089
499,42.7812,-0.289917,-3.79091
499.5,42.8308,-0.29743,-3.79086
500,42.8808,-0.311531,-3.79109
500.5,42.9297,-0.324739,-3.78834
501,42.979,-0.321057,-3.78532
501.5,43.0287,-0.321633,-3.78563
502,43.0786,-0.317273,-3.78712
502.5,43.128,-0.310384,-3.79057
503,43.178,-0.322726,-3.79274
503.5,43.2271,-0.332359,-3.79131
504,43.2762,-0.3222,-3.78884
504.5,43.326,-0.330122,-3.78728
505,43.3758,-0.330704,-3.78946
505.5,43.426,-0.331418,-3.79226
506,43.4761,-0.334237,-3.79441
506.5,43.5249,-0.342428,-3.79462
507,43.5747,-0.335063,-3.79541
507.5,43.6224,-0.337775,-3.7965
508,43.6717,-0.33845,-3.79508
508.5,43.7246,-0.343815,-3.79438
509,43.7743,-0.348684,-3.79244
509.5,43.8221,-0.344959,-3.79244
510,43.8731,-0.347861,-3.79343
510.5,43.9224,-0.348379,-3.79343
511,43.9725,-0.353252,-3.79344
511.5,44.0232,-0.350112,-3.79605
512,44.0719,-0.353094,-3.79547
512.5,44.1208,-0.360681,-3.79538
513,44.1712,-0.356743,-3.79716
513.5,44.2208,-0.360643,-3.79913
514,44.2705,-0.357096,-3.80033
514.5,44.3217,-0.360885,-3.79542
515,44.3709,-0.359223,-3.79376
515.5,44.4198,-0.355783,-3.79244
516,44.4703,-0.363556,-3.79295
516.5,44.5193,-0.36078,-3.79507
517,44.5706,-0.369228,-3.79713
517.5,44.6195,-0.360761,-3.79549
518,44.6693,-0.35854,-3.79166
518.5,44.7197,-0.356306,-3.79302
519,44.7684,-0.36004,-3.79168
519.5,44.8187,-0.365306,-3.79167
520,44.869,-0.35401,-3.79167
520.5,44.9182,-0.359628,-3.79167
521,44.9684,-0.354134,-3.79222
521.5,45.0176,-0.348443,-3.7935
522,45.0679,-0.349463,-3.79362
522.5,45.1179,-0.349017,-3.79233
523,45.1681,-0.355247,-3.79233
523.5,45.218,-0.356754,-3.79244
524,45.2667,-0.354291,-3.7911
524.5,45.3171,-0.354685,-3.78969
525,45.3663,-0.350507,-3.78998
525.5,45.4165,-0.353774,-3.7928
526,45.4663,-0.350462,-3.79463
526.5,45.5156,-0.348344,-3.79464
527,45.5664,-0.346275,-3.79464
527.5,45.6156,-0.343544,-3.79537
528,45.6651,-0.346698,-3.79509
528.5,45.7146,-0.342853,-3.79398
529,45.7644,-0.346217,-3.79398
529.5,45.8157,-0.342961,-3.79291
530,45.8649,-0.346822,-3.79299
530.5,45.9141,-0.345384,-3.79299
531,45.9642,-0.346766,-3.7941
531.5,46.0144,-0.350134,-3.79431
532,46.0633,-0.348325,-3.79431
532.5,46.1134,-0.353289,-3.79431
533,46.1634,-0.357073,-3.79417
533.5,46.214,-0.358167,-3.7943
534,46.2631,-0.356973,-3.7943
534.5,46.313,-0.345536,-3.7943
535,46.3628,-0.349472,-3.7943
535.5,46.4129,-0.34699,-3.79429
536,46.4627,-0.3449,-3.79562
536.5,46.5123,-0.345498,-3.79574
537,46.5629,-0.348126,-3.79562
537.5,46.6128,-0.35403,-3.79562
538,46.6622,-0.357861,-3.79466
538.5,46.7127,-0.353284,-3.7943
539,46.7623,-0.352546,-3.79332
539.5,46.8124,-0.352388,-3.79266
540,46.8614,-0.344944,-3.79266
540.5,46.9129,-0.35387,-3.7933
541,46.9617,-0.347386,-3.79331
541.5,47.0122,-0.348759,-3.79246
542,47.0628,-0.350578,-3.79233
542.5,47.112,-0.353581,-3.79233
543,47.1622,-0.353488,-3.79233
543.5,47.2122,-0.354402,-3.79293
544,47.2618,-0.351862,-3.79365
544.5,47.3121,-0.351665,-3.79233
545,47.3599,-0.347751,-3.79233
545.5,47.412,-0.350899,-3.79199
546,47.4613,-0.352684,-3.79201
546.5,47.5115,-0.350319,-3.79312
547,47.561,-0.360751,-3.79299
547.5,47.6115,-0.354193,-3.79346
548,47.6602,-0.352068,-3.7943
548.5,47.7105,-0.358603,-3.7943
549,47.7603,-0.358653,-3.79429
549.5,47.8103,-0.357202,-3.7956
550,47.8602,-0.358779,-3.79464
550.5,47.9109,-0.356584,-3.79427
551,47.9605,-0.358491,-3.79431
551.5,48.0104,-0.363864,-3.79412
552,48.0595,-0.362011,-3.79437
552.5,48.11,-0.360558,-3.79431
553,48.1605,-0.3556,-3.79431
553.5,48.2103,-0.364408,-3.79431
554,48.2597,-0.368215,-3.79431
554.5,48.3102,-0.371815,-3.79431
555,48.3599,-0.368641,-3.79544
555.5,48.4095,-0.365108,-3.79626
556,48.459,-0.368211,-3.79498
556.5,48.5086,-0.363432,-3.79496
557,48.5586,-0.372005,-3.79496
557.5,48.6077,-0.373798,-3.79496
558,48.6592,-0.368696,-3.79496
558.5,48.7083,-0.36886,-3.79496
559,48.7581,-0.367498,-3.79496
559.5,48.8084,-0.372056,-3.79597
560,48.8559,-0.379351,-3.79688
560.5,48.9072,-0.376818,-3.79727
561,48.9569,-0.37584,-3.79723
561.5,49.0075,-0.37763,-3.79463
562,49.0566,-0.379231,-3.79463
562.5,49.1069,-0.376607,-3.79459
563,49.1562,-0.379516,-3.79595
563.5,49.206,-0.382661,-3.79595
564,49.2555,-0.389669,-3.79595
564.5,49.3056,-0.384784,-3.79595
565,49.3552,-0.392874,-3.79595
565.5,49.4062,-0.395254,-3.79595
566,49.4537,-0.396333,-3.79595
566.5,49.5046,-0.394456,-3.79595
567,49.5554,-0.391643,-3.79737
567.5,49.6052,-0.393318,-3.79787
568,49.6542,-0.393754,-3.79859
568.5,49.7049,-0.39191,-3.79729
569,49.754,-0.385718,-3.79727
569.5,49.8043,-0.396035,-3.79602
570,49.8538,-0.387547,-3.79729
570.5,49.9049,-0.394537,-3.79727
571,49.9555,-0.395478,-3.79594
571.5,50.0042,-0.392793,-3.79595
572,50.0543,-0.39355,-3.79595
572.5,50.1043,-0.391764,-3.79596
573,50.1548,-0.390279,-3.79695
573.5,50.2041,-0.388906,-3.79753
574,50.2537,-0.393119,-3.79826
574.5,50.3039,-0.392693,-3.79826
575,50.3543,-0.382843,-3.79696
575.5,50.4035,-0.392519,-3.7969
576,50.4547,-0.391996,-3.79596
576.5,50.504,-0.388573,-3.79596
577,50.5542,-0.393298,-3.79596
577.5,50.6037,-0.390562,-3.79596
578,50.654,-0.390194,-3.79727
578.5,50.7047,-0.395244,-3.79727
579,50.7518,-0.399969,-3.79725
579.5,50.8041,-0.40096,-3.7963
580,50.855,-0.40155,-3.79498
580.5,50.9041,-0.407138,-3.79627
581,50.955,-0.410965,-3.79498
581.5,51.0045,-0.408605,-3.79496
582,51.0547,-0.413996,-3.79631
582.5,51.104,-0.413867,-3.7976
583,51.1533,-0.420959,-3.79752
583.5,51.2039,-0.412902,-3.79762
584,51.2541,-0.423515,-3.79891
584.5,51.3024,-0.420495,-3.79892
585,51.3509,-0.425146,-3.79762
585.5,51.4006,-0.423423,-3.79766
586,51.4527,-0.422953,-3.79585
586.5,51.5027,-0.429957,-3.79628
587,51.5524,-0.428657,-3.79627
587.5,51.6034,-0.430679,-3.79736
588,51.6519,-0.427707,-3.79568
588.5,51.7019,-0.434388,-3.79529
589,51.752,-0.435291,-3.79529
589.5,51.8016,-0.436372,-3.79523
590,51.8528,-0.443944,-3.79596
590.5,51.9017,-0.446619,-3.79728
591,51.9518,-0.44538,-3.79859
591.5,52.0022,-0.451964,-3.80011
592,52.0506,-0.455532,-3.79802
592.5,52.1018,-0.457212,-3.79634
593,52.1515,-0.459993,-3.7964
593.5,52.2014,-0.467419,-3.79771
594,52.2522,-0.464883,-3.79771
594.5,52.3026,-0.46414,-3.79639
595,52.353,-0.462193,-3.79672
595.5,52.4024,-0.46689,-3.79771
596,52.4527,-0.46393,-3.7977
596.5,52.5023,-0.470057,-3.79771
597,52.5531,-0.473838,-3.79771
597.5,52.6025,-0.46922,-3.79771
598,52.6529,-0.474536,-3.79771
598.5,52.7034,-0.473024,-3.79903
599,52.7542,-0.479983,-3.79771
599.5,52.8042,-0.476074,-3.79769
600,52.8541,-0.486614,-3.79639
600.5,52.9045,-0.484577,-3.79639
601,52.9554,-0.485952,-3.79708
601.5,53.0051,-0.489726,-3.79705
602,53.0548,-0.492139,-3.79705
602.5,53.1052,-0.490343,-3.79705
603,53.155,-0.495037,-3.79705
603.5,53.205,-0.502006,-3.79705
604,53.2555,-0.501614,-3.79779
604.5,53.3055,-0.506283,-3.79771
605,53.3549,-0.510142,-3.79806
605.5,53.4056,-0.506821,-3.80034
606,53.4554,-0.505037,-3.80038
606.5,53.5057,-0.507432,-3.79902
607,53.5557,-0.508627,-3.79928
607.5,53.6063,-0.50886,-3.80033
608,53.6559,-0.505903,-3.79903
608.5,53.7058,-0.516347,-3.79902
609,53.7561,-0.515352,-3.79902
609.5,53.8072,-0.524644,-3.79902
610,53.8571,-0.516416,-3.79902
610.5,53.9066,-0.515303,-3.799
611,53.9573,-0.519479,-3.79903
611.5,54.0073,-0.513183,-3.79878
612,54.0573,-0.518322,-3.79904
612.5,54.1074,-0.518687,-3.80165
613,54.1581,-0.521536,-3.80034
613.5,54.2084,-0.514092,-3.80034
614,54.2583,-0.513433,-3.80034
614.5,54.3095,-0.514406,-3.80034
615,54.3592,-0.522971,-3.80034
615.5,54.4094,-0.516458,-3.80163
616,54.4597,-0.521354,-3.80166
616.5,54.5097,-0.524789,-3.80168
617,54.5593,-0.517232,-3.80265
617.5,54.6098,-0.527115,-3.80265
618,54.661,-0.526242,-3.80285
618.5,54.7115,-0.523432,-3.80397
619,54.7618,-0.529033,-3.80269
619.5,54.8111,-0.524045,-3.80168
620,54.8614,-0.5219,-3.80033
620.5,54.9113,-0.528082,-3.79925
621,54.962,-0.534813,-3.79848
621.5,55.0123,-0.527091,-3.7998
622,55.0621,-0.51965,-3.80112
622.5,55.1124,-0.525694,-3.80112
623,55.1626,-0.52553,-3.80144
623.5,55.2132,-0.524582,-3.80112
624,55.263,-0.53006,-3.80111
624.5,55.3144,-0.529729,-3.80111
625,55.3635,-0.531708,-3.80112
625.5,55.4131,-0.529379,-3.80308
626,55.4641,-0.542127,-3.80311
626.5,55.5148,-0.534539,-3.80442
627,55.5649,-0.535235,-3.80441
627.5,55.6153,-0.528205,-3.8044
628,55.6654,-0.532973,-3.80117
628.5,55.7152,-0.533013,-3.79724
629,55.7654,-0.531177,-3.7961
629.5,55.8158,-0.533837,-3.79605
630,55.8673,-0.530213,-3.79829
630.5,55.9153,-0.533337,-3.79868
631,55.9673,-0.526854,-3.80023
631.5,56.0166,-0.529752,-3.80155
632,56.0653,-0.520105,-3.80155
632.5,56.1183,-0.52789,-3.80156
633,56.1684,-0.523929,-3.80089
633.5,56.2192,-0.532553,-3.80148
634,56.2695,-0.535883,-3.80155
634.5,56.3199,-0.532983,-3.8006
635,56.3692,-0.535008,-3.80024
635.5,56.4207,-0.535193,-3.80024
636,56.4712,-0.535226,-3.80018
636.5,56.5215,-0.54259,-3.80155
637,56.5705,-0.53656,-3.80155
637.5,56.6216,-0.54187,-3.80155
638,56.6716,-0.541581,-3.80023
638.5,56.7222,-0.540038,-3.80096
639,56.7727,-0.53785,-3.80155
639.5,56.8228,-0.539468,-3.80286
640,56.873,-0.534162,-3.80417
640.5,56.9235,-0.535063,-3.80549
641,56.9729,-0.530995,-3.80473
641.5,57.0244,-0.531525,-3.80552
642,57.0751,-0.535411,-3.80419
642.5,57.1258,-0.534749,-3.80421
643,57.1756,-0.531707,-3.80264
643.5,57.226,-0.531841,-3.80128
644,57.2766,-0.532453,-3.80088
644.5,57.3268,-0.533721,-3.80144
645,57.3776,-0.533669,-3.80144
645.5,57.4291,-0.523945,-3.80144
646,57.4793,-0.525432,-3.80145
646.5,57.5285,-0.518546,-3.80276
647,57.5793,-0.522011,-3.8022
647.5,57.6298,-0.521615,-3.80249
648,57.6801,-0.520709,-3.80309
648.5,57.7293,-0.51478,-3.80298
649,57.7811,-0.522416,-3.80139
649.5,57.8322,-0.515944,-3.80144
650,57.8819,-0.517532,-3.80144
650.5,57.933,-0.518555,-3.80281
651,57.9826,-0.516295,-3.80276
651.5,58.0331,-0.516327,-3.80279
652,58.0822,-0.516054,-3.80458
652.5,58.1342,-0.512139,-3.80472
653,58.1842,-0.515932,-3.80343
653.5,58.2333,-0.51173,-3.80211
654,58.2854,-0.506667,-3.80079
654.5,58.3363,-0.507832,-3.80076
655,58.3857,-0.5141,-3.8021
655.5,58.4362,-0.51112,-3.8021
656,58.4861,-0.515461,-3.8021
656.5,58.537,-0.518781,-3.8021
657,58.5869,-0.517245,-3.80311
657.5,58.6352,-0.517728,-3.80346
658,58.6883,-0.516032,-3.8054
658.5,58.7384,-0.521948,-3.80539
659,58.7888,-0.523958,-3.80539
659.5,58.8394,-0.525194,-3.80539
660,58.889,-0.524304,-3.80537
660.5,58.9399,-0.517109,-3.80408
661,58.9901,-0.515949,-3.80408
661.5,59.0405,-0.518599,-3.80408
662,59.091,-0.52053,-3.80408
662.5,59.1403,-0.521157,-3.80409
663,59.1909,-0.517792,-3.8054
663.5,59.2414,-0.518662,-3.8054
664,59.2921,-0.517626,-3.8054
664.5,59.3402,-0.522031,-3.80495
665,59.393,-0.524467,-3.80408
665.5,59.4445,-0.534194,-3.80408
666,59.493,-0.529675,-3.80542
666.5,59.5437,-0.526881,-3.80415
667,59.5948,-0.533127,-3.80539
667.5,59.6455,-0.529322,-3.80525
668,59.6953,-0.527001,-3.80671
668.5,59.7459,-0.519875,-3.80671
669,59.7971,-0.519713,-3.80671
669.5,59.847,-0.511604,-3.80597
670,59.8977,-0.516381,-3.80572
670.5,59.9477,-0.514776,-3.80572
671,59.9987,-0.514612,-3.80563
671.5,60.0489,-0.518597,-3.8077
672,60.0987,-0.522645,-3.8077
672.5,60.1499,-0.513076,-3.8077
673,60.1995,-0.520064,-3.8077
673.5,60.2508,-0.519131,-3.80796
674,60.3008,-0.519823,-3.80704
674.5,60.3511,-0.525684,-3.80705
675,60.401,-0.526214,-3.80968
675.5,60.4507,-0.533478,-3.80976
676,60.5006,-0.535974,-3.80704
676.5,60.5516,-0.535077,-3.80656
677,60.602,-0.533737,-3.80679
677.5,60.6531,-0.544424,-3.80572
678,60.7027,-0.534955,-3.80572
678.5,60.7538,-0.537146,-3.80572
679,60.8041,-0.53487,-3.80704
679.5,60.8541,-0.536321,-3.80704
680,60.9041,-0.543388,-3.80974
680.5,60.9552,-0.546069,-3.80971
681,61.0056,-0.548219,-3.80707
681.5,61.0559,-0.546731,-3.80704
682,61.1059,-0.550821,-3.80704
682.5,61.1557,-0.552415,-3.80704
683,61.2071,-0.551306,-3.80571
683.5,61.2569,-0.553945,-3.8063
684,61.3077,-0.550223,-3.80572
684.5,61.3583,-0.554988,-3.80704
685,61.4077,-0.5461,-3.80835
685.5,61.4578,-0.537965,-3.80835
686,61.5078,-0.537097,-3.80835
686.5,61.5591,-0.53903,-3.80835
687,61.6094,-0.542673,-3.80829
687.5,61.6611,-0.540406,-3.80968
688,61.7109,-0.537786,-3.80872
688.5,61.7622,-0.538772,-3.80869
689,61.8119,-0.528456,-3.80869
689.5,61.8621,-0.533395,-3.80866
690,61.9122,-0.537285,-3.80902
690.5,61.9628,-0.533975,-3.80902
691,62.0134,-0.529706,-3.80902
691.5,62.0637,-0.536,-3.80767
692,62.1138,-0.525046,-3.80654
692.5,62.1648,-0.532004,-3.80491
693,62.2151,-0.537413,-3.80494
693.5,62.2668,-0.537212,-3.80628
694,62.3166,-0.539315,-3.80627
694.5,62.3674,-0.53703,-3.80704
695,62.4174,-0.538269,-3.80696
695.5,62.4681,-0.536434,-3.80768
696,62.5188,-0.542555,-3.81023
696.5,62.5691,-0.536713,-3.81138
697,62.6199,-0.5378,-3.81157
697.5,62.671,-0.536284,-3.81023
698,62.7215,-0.534957,-3.81154
698.5,62.772,-0.529534,-3.81155
699,62.8218,-0.526841,-3.81155
699.5,62.8736,-0.529596,-3.80996
700,62.9247,-0.530861,-3.80816
700.5,62.9749,-0.524381,-3.80715
701,63.0263,-0.528667,-3.80715
701.5,63.0763,-0.524685,-3.80848
702,63.1266,-0.529727,-3.80847
702.5,63.1754,-0.532548,-3.80847
703,63.2276,-0.530711,-3.80964
703.5,63.2784,-0.532248,-3.81011
704,63.3287,-0.535845,-3.80882
704.5,63.3787,-0.511532,-3.80877
705,63.4303,-0.511077,-3.80748
705.5,63.4804,-0.508197,-3.80748
706,63.531,-0.515272,-3.80748
706.5,63.5819,-0.507321,-3.80748
707,63.6306,-0.514878,-3.80748
707.5,63.6834,-0.510451,-3.80748
708,63.7311,-0.51844,-3.8088
708.5,63.7824,-0.512737,-3.8088
709,63.8353,-0.517016,-3.8088
709.5,63.8853,-0.514657,-3.8088
710,63.9356,-0.512661,-3.8088
710.5,63.9864,-0.508136,-3.81014
711,64.0357,-0.510977,-3.81012
711.5,64.0877,-0.510877,-3.81012
712,64.1355,-0.519056,-3.81012
712.5,64.1871,-0.521056,-3.81012
713,64.2369,-0.522678,-3.81013
713.5,64.289,-0.529692,-3.80882
714,64.3392,-0.53294,-3.80781
714.5,64.3899,-0.533837,-3.80781
715,64.4406,-0.534518,-3.80912
715.5,64.4882,-0.537478,-3.80913
716,64.5402,-0.528288,-3.80905
716.5,64.5908,-0.533701,-3.81052
717,64.6417,-0.532277,-3.80913
717.5,64.6921,-0.532692,-3.80913
718,64.7437,-0.530226,-3.8078
718.5,64.7926,-0.536513,-3.80782
719,64.8433,-0.535475,-3.80648
719.5,64.894,-0.537501,-3.80648
720,64.9451,-0.538161,-3.80792
720.5,64.9954,-0.532705,-3.80926
721,65.0466,-0.544933,-3.80929
721.5,65.0969,-0.547154,-3.80792
722,65.1472,-0.542722,-3.80792
722.5,65.1985,-0.541664,-3.80792
723,65.248,-0.54475,-3.80792
723.5,65.2985,-0.54689,-3.80792
724,65.3497,-0.547599,-3.80806
724.5,65.4002,-0.547352,-3.80676
725,65.4508,-0.547133,-3.80791
725.5,65.5005,-0.558882,-3.80791
726,65.5519,-0.55089,-3.80655
726.5,65.6022,-0.554763,-3.8066
727,65.653,-0.55297,-3.80765
727.5,65.7023,-0.551599,-3.80891
728,65.7549,-0.556856,-3.80891
728.5,65.8051,-0.550969,-3.80952
729,65.8572,-0.55046,-3.80825
729.5,65.9065,-0.551546,-3.80689
730,65.9571,-0.56104,-3.80556
730.5,66.0076,-0.566023,-3.80561
731,66.058,-0.571851,-3.80561
731.5,66.1089,-0.572268,-3.8077
732,66.1601,-0.564296,-3.80825
732.5,66.2101,-0.559672,-3.80821
733,66.2608,-0.563564,-3.80957
733.5,66.3121,-0.570055,-3.80957
734,66.3623,-0.559373,-3.80957
734.5,66.4124,-0.561608,-3.80988
735,66.462,-0.57405,-3.81089
735.5,66.5141,-0.56444,-3.81089
736,66.5648,-0.571831,-3.8109
736.5,66.6153,-0.564307,-3.8122
737,66.6647,-0.567431,-3.81355
737.5,66.7169,-0.57454,-3.81352
738,66.7674,-0.570609,-3.81351
738.5,66.8171,-0.57313,-3.81222
739,66.8682,-0.569152,-3.81088
739.5,66.9186,-0.573814,-3.81089
740,66.9682,-0.571398,-3.81085