File: 01_Data/Helmet_Buckle/STA/N2/10K_min/Helmet_Buckle_STA_N2_10KData_250529_R5.csv
Temp./C,Time/min,DSC/(mW/mg),Mass loss/mg
40.0,0.0,0.803316,-0.0565488
40.5,0.0693688,0.828559,-0.056851
41,0.136623,0.85356,-0.0564589
41.5,0.204425,0.873022,-0.055453
42,0.271008,0.884874,-0.0567169
42.5,0.335378,0.901142,-0.0575035
43,0.39975,0.918576,-0.0583697
43.5,0.464526,0.94317,-0.0592021
44,0.529745,0.953742,-0.0587164
44.5,0.59103,0.974603,-0.0579516
45,0.655204,0.987151,-0.0574369
45.5,0.714662,1.0014,-0.059307
46,0.777876,1.02379,-0.0605454
46.5,0.838321,1.03868,-0.0604856
47,0.896004,1.04689,-0.060723
47.5,0.960387,1.06077,-0.06069
48,1.02071,1.07677,-0.0618325
48.5,1.07988,1.08461,-0.0617927
49,1.14074,1.10254,-0.0618043
49.5,1.19877,1.11897,-0.0604703
50,1.25867,1.12429,-0.0632441
50.5,1.31901,1.1445,-0.0632317
51,1.37634,1.14944,-0.0632215
51.5,1.43248,1.15422,-0.0632839
52,1.49129,1.17296,-0.0626293
52.5,1.5485,1.17948,-0.0645805
53,1.60569,1.1924,-0.0644719
53.5,1.66389,1.19759,-0.0644716
54,1.71504,1.21422,-0.0646104
54.5,1.77619,1.22947,-0.0659365
55,1.83262,1.2335,-0.0662803
55.5,1.88948,1.23748,-0.0671897
56,1.94431,1.25264,-0.0658047
56.5,1.9996,1.25971,-0.0658692
57,2.05492,1.27485,-0.0659298
57.5,2.10701,1.28152,-0.0658863
58,2.16504,1.28653,-0.0671775
58.5,2.21542,1.29874,-0.0657895
59,2.2735,1.30368,-0.0681498
59.5,2.32809,1.30888,-0.0686046
60,2.38116,1.31972,-0.0698334
60.5,2.43563,1.31932,-0.0711175
61,2.49003,1.32521,-0.0697973
61.5,2.54442,1.34283,-0.0698441
62,2.59601,1.34062,-0.0711893
62.5,2.65096,1.34006,-0.0711079
63,2.70218,1.34645,-0.0706079
63.5,2.75526,1.34944,-0.0712364
64,2.80695,1.34924,-0.0721319
64.5,2.86053,1.35328,-0.0779676
65,2.91382,1.3568,-0.0801515
65.5,2.96581,1.36165,-0.0734491
66,3.01857,1.35957,-0.0685016
66.5,3.06794,1.36812,-0.0687387
67,3.12145,1.36825,-0.0699739
67.5,3.17338,1.37336,-0.0712782
68,3.22661,1.37345,-0.0740637
68.5,3.27722,1.3757,-0.0742091
69,3.32848,1.37031,-0.0742084
69.5,3.37961,1.3738,-0.0743065
70,3.4313,1.36918,-0.0742329
70.5,3.48312,1.37214,-0.0755289
71,3.53394,1.37004,-0.0744327
71.5,3.58523,1.376,-0.075616
72,3.63828,1.3705,-0.0748437
72.5,3.68485,1.36684,-0.0766727
73,3.73845,1.36961,-0.0772904
73.5,3.7872,1.37409,-0.078573
74,3.83937,1.37118,-0.0782791
74.5,3.89056,1.36774,-0.0793325
75,3.94116,1.36683,-0.0783049
75.5,3.99245,1.3695,-0.0793098
76,4.04232,1.36906,-0.0789416
76.5,4.09398,1.36752,-0.0796012
77,4.14543,1.36041,-0.0795793
77.5,4.19472,1.35891,-0.0803758
78,4.24668,1.36127,-0.0795989
78.5,4.29602,1.36009,-0.0782977
79,4.34401,1.36129,-0.0795898
79.5,4.39788,1.36667,-0.0782568
80,4.44672,1.36122,-0.0795944
80.5,4.49813,1.36145,-0.078599
81,4.54815,1.365,-0.0799308
81.5,4.59836,1.36402,-0.07993
82,4.64705,1.37308,-0.0799671
82.5,4.69799,1.37196,-0.0812477
83,4.74715,1.37099,-0.0809195
83.5,4.79617,1.36972,-0.0809133
84,4.84703,1.36659,-0.0818069
84.5,4.89708,1.36888,-0.0821978
85,4.94707,1.37587,-0.0822287
85.5,4.9968,1.37405,-0.0809697
86,5.04707,1.38185,-0.0802515
86.5,5.09478,1.3813,-0.0802669
87,5.14467,1.38354,-0.0815682
87.5,5.1932,1.38866,-0.082026
88,5.2441,1.39041,-0.0815796
88.5,5.29299,1.39365,-0.0815709
89,5.34209,1.39142,-0.0815882
89.5,5.39118,1.4047,-0.0802439
90,5.44088,1.41324,-0.0802501
90.5,5.48874,1.40988,-0.0813448
91,5.5401,1.41584,-0.0815892
91.5,5.58696,1.41513,-0.0825708
92,5.63737,1.42648,-0.0815584
92.5,5.68751,1.43008,-0.0828514
93,5.73507,1.4335,-0.0815829
93.5,5.78398,1.43665,-0.0815434
94,5.83323,1.43856,-0.0815702
94.5,5.88222,1.448,-0.081556
95,5.93055,1.45382,-0.081358
95.5,5.97927,1.4416,-0.0815698
96,6.02818,1.44983,-0.0829596
96.5,6.07608,1.45119,-0.0828899
97,6.12522,1.4531,-0.082874
97.5,6.1744,1.45863,-0.0815964
98,6.22087,1.45092,-0.0827841
98.5,6.27084,1.45091,-0.0815702
99,6.31812,1.44793,-0.0815831
99.5,6.36724,1.44825,-0.0828813
100,6.41526,1.44271,-0.0815658
100.5,6.4636,1.4461,-0.0819261
101,6.51247,1.44478,-0.0828901
101.5,6.56077,1.43855,-0.08289
102,6.60839,1.4336,-0.081644
102.5,6.65568,1.43209,-0.0825731
103,6.70368,1.43148,-0.0828905
103.5,6.75179,1.42721,-0.0827541
104,6.8005,1.43051,-0.0828893
104.5,6.84878,1.42343,-0.0828835
105,6.89598,1.41957,-0.0834347
105.5,6.94477,1.41366,-0.0828904
106,6.99213,1.41522,-0.0828869
106.5,7.04055,1.41045,-0.0818516
107,7.08911,1.40838,-0.08157
107.5,7.13738,1.40231,-0.0815658
108,7.18468,1.40252,-0.0828962
108.5,7.2337,1.40524,-0.0822584
109,7.28235,1.40543,-0.0818991
109.5,7.32946,1.40167,-0.0829049
110,7.37432,1.40567,-0.08281
110.5,7.42472,1.40729,-0.0829713
111,7.47351,1.405,-0.0828873
111.5,7.52004,1.41251,-0.0842243
112,7.56957,1.41239,-0.0842124
112.5,7.61581,1.40154,-0.0828921
113,7.66426,1.40975,-0.0818601
113.5,7.71225,1.4133,-0.0821105
114,7.76116,1.41253,-0.082895
114.5,7.80846,1.42218,-0.0842107
115,7.85703,1.41901,-0.08421
115.5,7.90348,1.42113,-0.08421
116,7.95188,1.4221,-0.0842149
116.5,8.00076,1.42937,-0.0832477
117,8.04783,1.43577,-0.08358
117.5,8.09499,1.43903,-0.0845312
118,8.14406,1.44492,-0.0842082
118.5,8.19226,1.44809,-0.0834281
119,8.23975,1.45313,-0.0842102
119.5,8.28739,1.45369,-0.0842148
120,8.33585,1.45536,-0.0828855
120.5,8.3838,1.45513,-0.0842184
121,8.42914,1.45974,-0.0842089
121.5,8.48008,1.46384,-0.0848678
122,8.52727,1.46334,-0.08487
122.5,8.57532,1.46169,-0.0848805
123,8.62257,1.46731,-0.0835447
123.5,8.67118,1.46692,-0.0836645
124,8.71776,1.47244,-0.083523
124.5,8.76635,1.47132,-0.0841995
125,8.81498,1.47532,-0.0842
125.5,8.86109,1.48641,-0.0842
126,8.90867,1.48772,-0.0842026
126.5,8.95668,1.48037,-0.082853
127,9.00472,1.48688,-0.0842134
127.5,9.05191,1.48855,-0.0841355
128,9.10023,1.49135,-0.0838947
128.5,9.14828,1.50087,-0.0832571
129,9.19513,1.49728,-0.084209
129.5,9.24304,1.4965,-0.0842063
130,9.28985,1.49777,-0.0855655
130.5,9.33757,1.50355,-0.08553
131,9.38499,1.50954,-0.0855298
131.5,9.43379,1.5153,-0.0840606
132,9.48015,1.5175,-0.0842101
132.5,9.52916,1.50683,-0.084215
133,9.57521,1.51957,-0.0830177
133.5,9.62371,1.52189,-0.0841163
134,9.67086,1.52179,-0.0833572
134.5,9.71748,1.52845,-0.0785744
135,9.76675,1.52987,-0.0775107
135.5,9.81322,1.53596,-0.0783788
136,9.86114,1.5246,-0.0821216
136.5,9.90734,1.53248,-0.0833811
137,9.95597,1.53244,-0.0881186
137.5,10.0037,1.53573,-0.0894724
138,10.0506,1.53528,-0.0904339
138.5,10.0985,1.54105,-0.08915
139,10.1455,1.54375,-0.0879964
139.5,10.194,1.5528,-0.0878576
140,10.2403,1.54266,-0.0868436
140.5,10.288,1.55416,-0.0868486
141,10.3358,1.54873,-0.0868398
141.5,10.383,1.55777,-0.0869131
142,10.4302,1.56104,-0.0855194
142.5,10.4763,1.56164,-0.0848287
143,10.5255,1.56625,-0.0842099
143.5,10.5735,1.57539,-0.0842097
144,10.6199,1.57763,-0.0855727
144.5,10.6663,1.58114,-0.0855302
145,10.713,1.58538,-0.08553
145.5,10.7616,1.58556,-0.0855406
146,10.8083,1.58941,-0.0855286
146.5,10.8558,1.59188,-0.0855299
147,10.9008,1.59463,-0.08553
147.5,10.95,1.59783,-0.0855299
148,10.9978,1.60185,-0.0849982
148.5,11.0449,1.60324,-0.0841327
149,11.0911,1.60362,-0.0855512
149.5,11.1385,1.60801,-0.0868391
150,11.1863,1.60874,-0.0867509
150.5,11.2335,1.60685,-0.0877795
151,11.2812,1.61683,-0.0864706
151.5,11.3278,1.61953,-0.08651
152,11.375,1.62309,-0.0865104
152.5,11.4211,1.6243,-0.086411
153,11.4695,1.61587,-0.085531
153.5,11.5162,1.62269,-0.0851936
154,11.5625,1.62252,-0.0862285
154.5,11.611,1.63078,-0.0865212
155,11.6577,1.63236,-0.0852708
155.5,11.7044,1.63418,-0.0865102
156,11.7516,1.64147,-0.0862447
156.5,11.7988,1.63632,-0.0852005
157,11.8462,1.64196,-0.0864533
157.5,11.893,1.64334,-0.0865291
158,11.94,1.64677,-0.0858637
158.5,11.9876,1.65128,-0.0865128
159,12.0347,1.64509,-0.08651
159.5,12.0809,1.64954,-0.0865109
160,12.129,1.65326,-0.0872677
160.5,12.1757,1.65279,-0.0878296
161,12.2208,1.66345,-0.0858956
161.5,12.2704,1.6617,-0.0797269
162,12.3165,1.65728,-0.0772972
162.5,12.3635,1.66158,-0.0785064
163,12.4106,1.66027,-0.0800004
163.5,12.4573,1.66625,-0.0824035
164,12.5056,1.66811,-0.0826605
164.5,12.5516,1.66701,-0.0838784
165,12.5993,1.66681,-0.08388
165.5,12.6457,1.67425,-0.0849368
166,12.6936,1.67539,-0.0907633
166.5,12.7398,1.67335,-0.0947409
167,12.788,1.68203,-0.0938742
167.5,12.8343,1.68343,-0.0921864
168,12.8824,1.68285,-0.0906348
168.5,12.9286,1.68882,-0.0906846
169,12.9761,1.68878,-0.0906545
169.5,13.0225,1.69267,-0.0893728
170,13.0696,1.68903,-0.0893699
170.5,13.1168,1.69071,-0.0880099
171,13.1638,1.69382,-0.0870296
171.5,13.2103,1.69727,-0.0868128
172,13.2577,1.7022,-0.0875257
172.5,13.3061,1.69908,-0.0867308
173,13.3518,1.70404,-0.0867316
173.5,13.3995,1.70144,-0.0879814
174,13.4466,1.69685,-0.0880531
174.5,13.493,1.7038,-0.0866939
175,13.54,1.70515,-0.08674
175.5,13.5874,1.70261,-0.08674
176,13.6349,1.70569,-0.08674
176.5,13.6824,1.71141,-0.08674
177,13.7284,1.70992,-0.0864941
177.5,13.7762,1.71578,-0.0854212
178,13.8238,1.71059,-0.08542
178.5,13.8687,1.71697,-0.0854201
179,13.9171,1.7156,-0.0860749
179.5,13.9644,1.71728,-0.0867299
180,14.0117,1.72075,-0.0867398
180.5,14.0593,1.72182,-0.0857402
181,14.105,1.72657,-0.0857399
181.5,14.1524,1.73274,-0.0856452
182,14.1998,1.72932,-0.0867243
182.5,14.247,1.73208,-0.0867298
183,14.2921,1.72927,-0.0867731
183.5,14.3412,1.72805,-0.0857495
184,14.3878,1.73586,-0.0857399
184.5,14.4355,1.74235,-0.0857334
185,14.4826,1.7322,-0.0866401
185.5,14.5285,1.73495,-0.0864001
186,14.5759,1.74436,-0.0864
186.5,14.6236,1.7424,-0.0863969
187,14.6711,1.74443,-0.0909068
187.5,14.7173,1.74917,-0.0877243
188,14.7644,1.75564,-0.085538
188.5,14.8111,1.75698,-0.08553
189,14.8548,1.7613,-0.0855297
189.5,14.9045,1.76391,-0.0855226
190,14.9529,1.76248,-0.0899524
190.5,14.9996,1.76581,-0.0874823
191,15.0471,1.75919,-0.0850751
191.5,15.0926,1.77019,-0.0850898
192,15.14,1.7755,-0.0851276
192.5,15.1865,1.77287,-0.0864108
193,15.233,1.77278,-0.0860799
193.5,15.2809,1.77298,-0.0853754
194,15.3264,1.7817,-0.0863993
194.5,15.3754,1.77879,-0.0864
195,15.4214,1.77105,-0.0863489
195.5,15.4678,1.77331,-0.0877206
196,15.5145,1.78303,-0.08772
196.5,15.5616,1.78428,-0.08772
197,15.609,1.78535,-0.0877197
197.5,15.6564,1.78787,-0.0870203
198,15.7031,1.78652,-0.0870601
198.5,15.7501,1.79077,-0.0870598
199,15.7967,1.79279,-0.0865517
199.5,15.8448,1.7957,-0.0863942
200,15.8913,1.79227,-0.0877163
200.5,15.9378,1.79767,-0.0877203
201,15.9848,1.79638,-0.0872051
201.5,16.0315,1.80099,-0.0863997
202,16.0786,1.79599,-0.0868009
202.5,16.1251,1.80074,-0.087725
203,16.1723,1.8071,-0.0870838
203.5,16.2186,1.80481,-0.0867411
204,16.2662,1.81193,-0.08674
204.5,16.3131,1.81112,-0.08674
205,16.3606,1.81563,-0.087765
205.5,16.4078,1.81424,-0.0880504
206,16.4522,1.82087,-0.08805
206.5,16.5007,1.81271,-0.08805
207,16.5481,1.82027,-0.08805
207.5,16.5961,1.81396,-0.0880817
208,16.642,1.81913,-0.0877206
208.5,16.6895,1.82392,-0.0877196
209,16.7354,1.82707,-0.0875384
209.5,16.7832,1.83551,-0.0877209
210,16.8305,1.83609,-0.08772
210.5,16.8776,1.84198,-0.0877196
211,16.9243,1.84382,-0.0891208
211.5,16.9711,1.84532,-0.0890331
212,17.0183,1.84821,-0.0876615
212.5,17.0652,1.85729,-0.0890433
213,17.113,1.85204,-0.0890386
213.5,17.1595,1.85409,-0.087728
214,17.2072,1.8602,-0.0877401
214.5,17.2541,1.86904,-0.0890376
215,17.301,1.86281,-0.0882408
215.5,17.348,1.86322,-0.0877221
216,17.3963,1.86409,-0.0890273
216.5,17.4406,1.87153,-0.08904
217,17.489,1.87511,-0.0890373
217.5,17.537,1.87987,-0.087728
218,17.5853,1.88115,-0.0877778
218.5,17.631,1.88105,-0.0889709
219,17.6781,1.88398,-0.0877189
219.5,17.7254,1.8855,-0.08772
220,17.7732,1.8876,-0.08772
220.5,17.82,1.88808,-0.08772
221,17.8674,1.89804,-0.0877196
221.5,17.9142,1.9036,-0.0877844
222,17.9614,1.90597,-0.0890303
222.5,18.0085,1.91165,-0.08903
223,18.0538,1.91349,-0.08903
223.5,18.103,1.91877,-0.08903
224,18.1499,1.92362,-0.0890294
224.5,18.1973,1.91913,-0.0894538
225,18.2429,1.93485,-0.0900203
225.5,18.2916,1.93364,-0.09002
226,18.3398,1.94024,-0.0899824
226.5,18.3855,1.94199,-0.0903495
227,18.4332,1.94713,-0.0903411
227.5,18.4808,1.9504,-0.0890513
228,18.5279,1.95593,-0.08904
228.5,18.5754,1.95831,-0.0890304
229,18.6211,1.9649,-0.0887079
229.5,18.6691,1.96878,-0.08871
230,18.7165,1.97818,-0.08871
230.5,18.7626,1.98026,-0.0887088
231,18.8105,1.98977,-0.0900372
231.5,18.8579,2.00019,-0.09003
232,18.905,2.00715,-0.0900306
232.5,18.9517,2.01001,-0.0898283
233,18.9991,2.02272,-0.0890401
233.5,19.0462,2.02326,-0.0890401
234,19.0928,2.03057,-0.0893779
234.5,19.141,2.03715,-0.0902406
235,19.1868,2.04291,-0.0890378
235.5,19.2351,2.04963,-0.0904644
236,19.281,2.04139,-0.0916718
236.5,19.3301,2.04655,-0.09167
237,19.377,2.06562,-0.0916559
237.5,19.4245,2.06965,-0.0890739
238,19.4709,2.07204,-0.08904
238.5,19.5195,2.08249,-0.0890362
239,19.566,2.08572,-0.0890298
239.5,19.6115,2.09679,-0.0890485
240,19.6605,2.10207,-0.0903723
240.5,19.7074,2.11035,-0.0860744
241,19.7544,2.12155,-0.0863846
241.5,19.8018,2.12681,-0.0904442
242,19.85,2.14183,-0.0916748
242.5,19.8935,2.15724,-0.0916462
243,19.9439,2.16815,-0.0903514
243.5,19.9913,2.18348,-0.0903502
244,20.0393,2.20326,-0.0903562
244.5,20.0857,2.22496,-0.085931
245,20.1341,2.24624,-0.0853959
245.5,20.181,2.26623,-0.091361
246,20.2295,2.2973,-0.09134
246.5,20.2758,2.32079,-0.09134
247,20.3249,2.3622,-0.0912622
247.5,20.3723,2.40007,-0.0920242
248,20.4193,2.45761,-0.0913486
248.5,20.4664,2.49556,-0.091347
249,20.5131,2.55476,-0.0900499
249.5,20.5638,2.62255,-0.0899642
250,20.6118,2.71815,-0.0913509
250.5,20.6604,2.82684,-0.09135
251,20.7092,2.96752,-0.0913499
251.5,20.7582,3.13834,-0.0906769
252,20.8077,3.33129,-0.0906564
252.5,20.8566,3.51683,-0.0913489
253,20.9064,3.69867,-0.0911376
253.5,20.9573,3.88857,-0.0906898
254,21.0071,4.04784,-0.0911875
254.5,21.0548,4.20426,-0.0913405
255,21.1043,4.34621,-0.09134
255.5,21.1525,4.47931,-0.09134
256,21.201,4.60772,-0.0913374
256.5,21.2512,4.72589,-0.0916514
257,21.2991,4.84606,-0.0903494
257.5,21.3491,4.99095,-0.09035
258,21.3978,5.12706,-0.0903583
258.5,21.4471,5.27932,-0.0906823
259,21.497,5.442,-0.09068
259.5,21.5468,5.61213,-0.09068
260,21.5966,5.78545,-0.0906801
260.5,21.6461,5.93499,-0.0906414
261,21.694,6.06892,-0.0913926
261.5,21.7422,6.16747,-0.0900165
262,21.7915,6.19191,-0.0900281
262.5,21.8366,6.05277,-0.0913455
263,21.8769,5.66568,-0.0913369
263.5,21.9196,4.97601,-0.092341
264,21.9604,4.31857,-0.0923297
264.5,22.0009,3.77761,-0.0922628
265,22.0435,3.34445,-0.0910069
265.5,22.0851,3.01917,-0.0910074
266,22.1312,2.74749,-0.0923759
266.5,22.1757,2.5479,-0.0923307
267,22.2211,2.39409,-0.0909334
267.5,22.2675,2.28918,-0.0910098
268,22.3127,2.20069,-0.09101
268.5,22.3592,2.1313,-0.0910115
269,22.4057,2.09018,-0.0912723
269.5,22.4525,2.04769,-0.092664
270,22.4996,2.02761,-0.0926724
270.5,22.5455,1.99999,-0.0916706
271,22.5933,1.97973,-0.09167
271.5,22.6389,1.96181,-0.0916851
272,22.6872,1.95388,-0.0929893
272.5,22.7335,1.94697,-0.09299
273,22.7811,1.94142,-0.09299
273.5,22.8255,1.93667,-0.09299
274,22.8753,1.9346,-0.0929901
274.5,22.922,1.92984,-0.0929674
275,22.9693,1.92849,-0.09332
275.5,23.0174,1.92777,-0.0933207
276,23.0641,1.92125,-0.0946335
276.5,23.1117,1.92663,-0.0946037
277,23.1579,1.92733,-0.0923427
277.5,23.2059,1.93239,-0.09234
278,23.2536,1.93005,-0.09234
278.5,23.2989,1.92907,-0.0923396
279,23.3484,1.93064,-0.0927274
279.5,23.3949,1.92649,-0.0949612
280,23.4433,1.94062,-0.0949501
280.5,23.4905,1.9334,-0.0935459
281,23.5372,1.9334,-0.0923417
281.5,23.5862,1.93358,-0.09234
282,23.632,1.93343,-0.09234
282.5,23.6802,1.93714,-0.0923359
283,23.7283,1.93732,-0.0925933
283.5,23.7751,1.92738,-0.0939804
284,23.8227,1.93013,-0.09398
284.5,23.8714,1.9312,-0.0939771
285,23.9182,1.93274,-0.0953575
285.5,23.9657,1.93215,-0.0952999
286,24.013,1.9389,-0.0953
286.5,24.0602,1.93202,-0.0953006
287,24.1079,1.93503,-0.0950478
287.5,24.1554,1.93023,-0.0939823
288,24.2028,1.9378,-0.095404
288.5,24.2503,1.94501,-0.0963154
289,24.2983,1.93341,-0.0963213
289.5,24.3451,1.92981,-0.0949688
290,24.3919,1.92775,-0.0936552
290.5,24.44,1.93109,-0.0936913
291,24.4872,1.93445,-0.0963091
291.5,24.5348,1.93425,-0.0962799
292,24.582,1.93808,-0.09628
292.5,24.6298,1.93499,-0.09628
293,24.677,1.93592,-0.096298
293.5,24.7257,1.93146,-0.0963481
294,24.7729,1.93537,-0.0962899
294.5,24.8204,1.94084,-0.09629
295,24.868,1.93602,-0.09629
295.5,24.9153,1.94035,-0.0962942
296,24.9631,1.93919,-0.0949632
296.5,25.0103,1.93321,-0.0949723
297,25.0589,1.94574,-0.0956255
297.5,25.106,1.93489,-0.0956253
298,25.1539,1.9376,-0.096626
298.5,25.2012,1.92995,-0.0969313
299,25.2491,1.94237,-0.0982382
299.5,25.2962,1.9424,-0.098156
300,25.3438,1.93324,-0.096832
300.5,25.3913,1.94041,-0.09683
301,25.439,1.9417,-0.09683
301.5,25.4868,1.9389,-0.09683
302,25.5352,1.93663,-0.0968312
302.5,25.5822,1.93299,-0.0975564
303,25.6308,1.9374,-0.09749
303.5,25.6781,1.93651,-0.0975032
304,25.7252,1.94352,-0.0987975
304.5,25.7731,1.94009,-0.0980148
305,25.8195,1.94554,-0.0974916
305.5,25.8675,1.94597,-0.0981501
306,25.9162,1.94155,-0.09815
306.5,25.9634,1.94366,-0.0981519
307,26.0112,1.94873,-0.0994447
307.5,26.0552,1.9448,-0.0994702
308,26.1057,1.94572,-0.098882
308.5,26.1538,1.94246,-0.0981592
309,26.2016,1.94208,-0.0991292
309.5,26.2501,1.94453,-0.09914
310,26.2965,1.95205,-0.09914
310.5,26.3448,1.94186,-0.09914
311,26.3907,1.94455,-0.09914
311.5,26.4401,1.94869,-0.0991402
312,26.4876,1.96051,-0.100495
312.5,26.5349,1.95168,-0.101331
313,26.5834,1.94997,-0.100483
313.5,26.6311,1.95197,-0.10045
314,26.6784,1.95432,-0.10045
314.5,26.726,1.95764,-0.10045
315,26.7738,1.96003,-0.10045
315.5,26.82,1.95992,-0.100392
316,26.8686,1.96132,-0.0991397
316.5,26.9168,1.96388,-0.0998817
317,26.9653,1.96268,-0.100713
317.5,27.0135,1.96463,-0.101769
318,27.0603,1.97125,-0.10177
318.5,27.1088,1.9678,-0.101772
319,27.1552,1.97018,-0.101445
319.5,27.2038,1.96559,-0.10145
320,27.2521,1.96139,-0.102744
320.5,27.299,1.9713,-0.10276
321,27.3478,1.97156,-0.10276
321.5,27.3953,1.9743,-0.10276
322,27.4427,1.97831,-0.10276
322.5,27.4915,1.97589,-0.10276
323,27.5382,1.97695,-0.101907
323.5,27.5862,1.98055,-0.103079
324,27.6336,1.98003,-0.10404
324.5,27.6824,1.97665,-0.1044
325,27.7302,1.97026,-0.1044
325.5,27.7777,1.97636,-0.1044
326,27.8231,1.97992,-0.1044
326.5,27.8734,1.98781,-0.1044
327,27.9219,1.99586,-0.1044
327.5,27.9702,1.99832,-0.1044
328,28.0172,1.99492,-0.1044
328.5,28.064,2.00179,-0.104396
329,28.1119,1.9964,-0.10337
329.5,28.1609,2.00074,-0.104732
330,28.2085,2.00823,-0.106159
330.5,28.2568,1.99779,-0.107488
331,28.3037,2.00491,-0.107481
331.5,28.3531,2.00604,-0.108447
332,28.4006,2.00567,-0.108816
332.5,28.4481,2.01207,-0.107482
333,28.4951,2.01948,-0.10748
333.5,28.5445,2.01128,-0.10747
334,28.5922,2.01485,-0.109823
334.5,28.6403,2.02353,-0.10979
335,28.688,2.0206,-0.10979
335.5,28.7356,2.0229,-0.109812
336,28.7844,2.0283,-0.111099
336.5,28.8327,2.03024,-0.1111
337,28.8793,2.04173,-0.1111
337.5,28.9293,2.03622,-0.11242
338,28.9768,2.0434,-0.11242
338.5,29.0233,2.04383,-0.112421
339,29.0723,2.04713,-0.113611
339.5,29.1202,2.05371,-0.11374
340,29.1686,2.06355,-0.11374
340.5,29.216,2.0654,-0.11374
341,29.2646,2.06839,-0.113628
341.5,29.3128,2.07836,-0.11506
342,29.3615,2.07866,-0.115066
342.5,29.4093,2.08659,-0.115391
343,29.4572,2.08629,-0.115859
343.5,29.5049,2.0976,-0.116699
344,29.553,2.09206,-0.11666
344.5,29.6012,2.098,-0.118023
345,29.65,2.10658,-0.118024
345.5,29.6978,2.11263,-0.117663
346,29.7456,2.12266,-0.118554
346.5,29.7942,2.12477,-0.118681
347,29.8418,2.12877,-0.119544
347.5,29.8898,2.13026,-0.120016
348,29.9388,2.14673,-0.121311
348.5,29.9873,2.15318,-0.122251
349,30.0347,2.15804,-0.12364
349.5,30.0827,2.17488,-0.12398
350,30.1321,2.1853,-0.123971
350.5,30.1796,2.19322,-0.12527
351,30.2281,2.20612,-0.12628
351.5,30.2759,2.2201,-0.126257
352,30.3228,2.23239,-0.127628
352.5,30.3723,2.24715,-0.127542
353,30.421,2.25079,-0.128893
353.5,30.4695,2.26377,-0.128889
354,30.5175,2.27693,-0.130205
354.5,30.5651,2.29764,-0.130206
355,30.6143,2.30497,-0.131578
355.5,30.6622,2.31401,-0.131751
356,30.7099,2.33506,-0.133223
356.5,30.7596,2.3435,-0.134165
357,30.8083,2.35936,-0.135486
357.5,30.8557,2.37554,-0.136771
358,30.9041,2.38208,-0.138069
358.5,30.9524,2.40045,-0.13941
359,31.0012,2.40119,-0.140851
359.5,31.05,2.41192,-0.144202
360,31.0973,2.42189,-0.147759
360.5,31.146,2.43855,-0.145238
361,31.1944,2.43906,-0.144599
361.5,31.2422,2.44548,-0.14587
362,31.2889,2.46577,-0.14788
362.5,31.3387,2.46949,-0.149182
363,31.3876,2.47644,-0.150451
363.5,31.4351,2.49379,-0.150808
364,31.4835,2.49516,-0.152708
364.5,31.5316,2.50069,-0.157658
365,31.5801,2.51923,-0.165452
365.5,31.628,2.52803,-0.158625
366,31.6769,2.53077,-0.156034
366.5,31.7256,2.53634,-0.158892
367,31.7749,2.54873,-0.160464
367.5,31.8223,2.56097,-0.16369
368,31.8707,2.5664,-0.166113
368.5,31.9194,2.59095,-0.16677
369,31.9682,2.58768,-0.168978
369.5,32.0165,2.60829,-0.171428
370,32.0644,2.62382,-0.173129
370.5,32.1124,2.64176,-0.174606
371,32.1609,2.64763,-0.17672
371.5,32.2098,2.67297,-0.179391
372,32.2587,2.6887,-0.181203
372.5,32.3065,2.6953,-0.183976
373,32.355,2.71142,-0.185226
373.5,32.4032,2.77092,-0.187451
374,32.4527,2.79607,-0.189495
374.5,32.5013,2.80704,-0.191105
375,32.5494,2.83839,-0.19399
375.5,32.5985,2.85406,-0.19654
376,32.6473,2.88258,-0.199064
376.5,32.6957,2.89956,-0.201752
377,32.7445,2.9144,-0.203666
377.5,32.7929,2.93857,-0.208025
378,32.8416,2.95308,-0.209764
378.5,32.8893,2.97809,-0.211767
379,32.9379,2.9975,-0.215672
379.5,32.9876,3.02878,-0.218351
380,33.036,3.04216,-0.221753
380.5,33.084,3.06141,-0.225844
381,33.1335,3.09072,-0.230577
381.5,33.1819,3.11622,-0.233618
382,33.2304,3.15131,-0.238139
382.5,33.2794,3.17475,-0.24163
383,33.3286,3.19726,-0.244287
383.5,33.3765,3.21389,-0.248193
384,33.4252,3.24381,-0.251805
384.5,33.474,3.2709,-0.256294
385,33.5225,3.29797,-0.261629
385.5,33.5716,3.32547,-0.265465
386,33.6198,3.34729,-0.269975
386.5,33.6688,3.38001,-0.274083
387,33.7183,3.40692,-0.27806
387.5,33.7676,3.41048,-0.282668
388,33.8156,3.42968,-0.288055
388.5,33.8638,3.4638,-0.291934
389,33.9134,3.51954,-0.297276
389.5,33.962,3.53946,-0.304452
390,34.0112,3.56419,-0.310749
390.5,34.0594,3.58351,-0.31737
391,34.1093,3.6222,-0.327411
391.5,34.1576,3.64439,-0.330182
392,34.2069,3.67228,-0.333565
392.5,34.2553,3.6952,-0.340389
393,34.3045,3.71617,-0.346481
393.5,34.3527,3.74027,-0.353525
394,34.4008,3.78539,-0.360143
394.5,34.4504,3.79858,-0.367335
395,34.5004,3.85979,-0.374747
395.5,34.5497,3.9032,-0.381761
396,34.5977,3.91804,-0.389316
396.5,34.6466,3.93895,-0.397251
397,34.6962,3.9618,-0.404772
397.5,34.7448,3.99505,-0.412541
398,34.7927,4.01924,-0.420593
398.5,34.8421,4.06087,-0.428536
399,34.8913,4.08683,-0.437685
399.5,34.9401,4.10624,-0.445769
400,34.9889,4.14341,-0.453965
400.5,35.0394,4.16126,-0.46362
401,35.0878,4.21671,-0.472918
401.5,35.1352,4.22957,-0.482557
402,35.1851,4.26031,-0.491302
402.5,35.2345,4.27925,-0.500988
403,35.2822,4.3203,-0.511302
403.5,35.3316,4.33449,-0.521608
404,35.3809,4.36796,-0.531907
404.5,35.4299,4.3954,-0.54153
405,35.4785,4.41461,-0.550546
405.5,35.5278,4.44307,-0.565574
406,35.5771,4.46082,-0.575599
406.5,35.6255,4.48844,-0.58318
407,35.6746,4.50689,-0.594748
407.5,35.7228,4.55041,-0.60641
408,35.7722,4.56801,-0.618939
408.5,35.82,4.59192,-0.630136
409,35.87,4.60991,-0.643159
409.5,35.9186,4.6323,-0.654272
410,35.9677,4.66704,-0.666872
410.5,36.0173,4.69616,-0.678836
411,36.0663,4.71191,-0.692949
411.5,36.1143,4.74544,-0.706082
412,36.1627,4.75506,-0.718636
412.5,36.2114,4.77616,-0.731277
413,36.2598,4.80508,-0.744473
413.5,36.31,4.82623,-0.76112
414,36.3578,4.83604,-0.774737
414.5,36.4069,4.85646,-0.788219
415,36.4564,4.87705,-0.80131
415.5,36.5051,4.89361,-0.816863
416,36.5516,4.91578,-0.831955
416.5,36.6025,4.92823,-0.848028
417,36.6505,4.95081,-0.862023
417.5,36.6998,4.97904,-0.877108
418,36.749,4.99407,-0.894585
418.5,36.7985,5.02314,-0.909977
419,36.8479,5.03175,-0.92629
419.5,36.8956,5.05782,-0.942559
420,36.9436,5.07492,-0.958941
420.5,36.9936,5.09172,-0.975897
421,37.0431,5.11327,-0.992718
421.5,37.0918,5.13942,-1.01176
422,37.1414,5.15484,-1.02951
422.5,37.19,5.18235,-1.04823
423,37.2396,5.19575,-1.06649
423.5,37.2881,5.22332,-1.08365
424,37.3371,5.24391,-1.10166
424.5,37.3856,5.25524,-1.12132
425,37.4356,5.27836,-1.13986
425.5,37.4836,5.29746,-1.15885
426,37.5338,5.32157,-1.18125
426.5,37.5827,5.3427,-1.20204
427,37.6321,5.35673,-1.22222
427.5,37.6815,5.37466,-1.24317
428,37.73,5.39633,-1.26378
428.5,37.7796,5.41256,-1.28441
429,37.8288,5.43584,-1.30694
429.5,37.8774,5.44614,-1.32729
430,37.9269,5.47443,-1.35272
430.5,37.9756,5.49302,-1.37505
431,38.0251,5.50217,-1.39935
431.5,38.0746,5.52431,-1.42143
432,38.1232,5.53928,-1.44442
432.5,38.1723,5.5523,-1.46846
433,38.2216,5.57435,-1.49344
433.5,38.2701,5.58789,-1.5206
434,38.3197,5.60465,-1.54392
434.5,38.3691,5.60679,-1.5692
435,38.4175,5.6236,-1.59516
435.5,38.4674,5.63771,-1.62142
436,38.5167,5.64853,-1.64793
436.5,38.5652,5.65398,-1.67374
437,38.6134,5.65903,-1.70181
437.5,38.6621,5.67428,-1.72815
438,38.7116,5.67619,-1.75686
438.5,38.7597,5.68623,-1.78177
439,38.8098,5.68154,-1.81117
439.5,38.8581,5.68681,-1.84027
440,38.9046,5.68277,-1.86807
440.5,38.9564,5.67859,-1.89958
441,39.0058,5.67042,-1.92828
441.5,39.0532,5.67258,-1.95626
442,39.1035,5.67416,-1.98777
442.5,39.152,5.67,-2.01748
443,39.2012,5.66385,-2.04793
443.5,39.2494,5.6447,-2.07801
444,39.2977,5.62475,-2.10844
444.5,39.3466,5.60805,-2.13977
445,39.3963,5.58594,-2.16934
445.5,39.4446,5.55765,-2.19883
446,39.4924,5.52754,-2.22857
446.5,39.5421,5.50309,-2.26103
447,39.5903,5.46649,-2.29372
447.5,39.6389,5.42576,-2.32256
448,39.6868,5.3919,-2.35238
448.5,39.7348,5.35241,-2.38294
449,39.7843,5.3026,-2.41614
449.5,39.8329,5.26246,-2.44676
450,39.8816,5.20583,-2.47684
450.5,39.9303,5.15818,-2.50859
451,39.9782,5.09646,-2.53917
451.5,40.0271,5.03775,-2.57091
452,40.0754,4.97548,-2.59989
452.5,40.124,4.91897,-2.62873
453,40.1713,4.86076,-2.65785
453.5,40.2199,4.78633,-2.69047
454,40.2683,4.71629,-2.72008
454.5,40.3171,4.64477,-2.74933
455,40.3649,4.56755,-2.77709
455.5,40.4116,4.49182,-2.80552
456,40.4618,4.40635,-2.83527
456.5,40.5092,4.31394,-2.86456
457,40.5569,4.22008,-2.89138
457.5,40.6053,4.12685,-2.91975
458,40.653,4.02818,-2.94632
458.5,40.7007,3.92714,-2.97275
459,40.7485,3.81813,-2.99979
459.5,40.7976,3.71854,-3.02562
460,40.8451,3.62477,-3.05061
460.5,40.8928,3.53388,-3.07616
461,40.941,3.4282,-3.10023
461.5,40.9883,3.3354,-3.12578
462,41.0365,3.23586,-3.14927
462.5,41.0843,3.11585,-3.17185
463,41.132,3.02742,-3.19554
463.5,41.1803,2.92672,-3.21912
464,41.2275,2.82389,-3.24299
464.5,41.2756,2.72959,-3.26196
465,41.3248,2.63269,-3.28305
465.5,41.3731,2.52684,-3.30633
466,41.4185,2.43787,-3.3274
466.5,41.4677,2.36228,-3.34261
467,41.5159,2.26744,-3.3604
467.5,41.5636,2.1818,-3.37866
468,41.6122,2.10467,-3.39845
468.5,41.6607,2.01593,-3.41755
469,41.7081,1.93312,-3.43398
469.5,41.7564,1.85823,-3.45102
470,41.8048,1.79444,-3.46589
470.5,41.8535,1.72277,-3.48124
471,41.9005,1.66213,-3.49726
471.5,41.9499,1.59157,-3.51111
472,41.9978,1.53351,-3.52486
472.5,42.047,1.47112,-3.53903
473,42.0946,1.41113,-3.55863
473.5,42.1432,1.36181,-3.56811
474,42.1912,1.30455,-3.5851
474.5,42.24,1.25551,-3.59049
475,42.2882,1.20549,-3.59808
475.5,42.3367,1.15479,-3.60928
476,42.3847,1.11238,-3.61982
476.5,42.433,1.07064,-3.63106
477,42.4818,1.01894,-3.64082
477.5,42.5304,0.978631,-3.65217
478,42.58,0.933958,-3.66131
478.5,42.6279,0.907899,-3.67017
479,42.6764,0.860974,-3.67842
479.5,42.7257,0.824498,-3.68612
480,42.7728,0.800128,-3.69387
480.5,42.823,0.765074,-3.70089
481,42.8717,0.729475,-3.70816
481.5,42.9217,0.700715,-3.71636
482,42.9693,0.67591,-3.72239
482.5,43.0183,0.644876,-3.73023
483,43.0651,0.626795,-3.73497
483.5,43.1165,0.592345,-3.74042
484,43.165,0.573197,-3.74583
484.5,43.2141,0.547242,-3.75073
485,43.2635,0.522115,-3.75565
485.5,43.3117,0.496431,-3.76035
486,43.3592,0.475849,-3.76509
486.5,43.4101,0.455846,-3.76866
487,43.4601,0.429135,-3.77225
487.5,43.5089,0.417635,-3.7767
488,43.5581,0.395834,-3.78067
488.5,43.6081,0.378247,-3.78439
489,43.6562,0.370862,-3.78662
489.5,43.7055,0.353264,-3.78693
490,43.7541,0.339846,-3.79054
490.5,43.8044,0.316255,-3.79316
491,43.8525,0.305522,-3.79649
491.5,43.9015,0.287026,-3.79864
492,43.9499,0.278854,-3.79991
492.5,44.0006,0.261265,-3.80134
493,44.0505,0.246611,-3.80264
493.5,44.0999,0.239722,-3.80445
494,44.1482,0.229884,-3.80574
494.5,44.1983,0.218308,-3.80573
495,44.2477,0.204086,-3.80706
495.5,44.2955,0.199852,-3.80835
496,44.3458,0.198257,-3.80972
496.5,44.3959,0.191062,-3.81099
497,44.4444,0.187285,-3.81099
497.5,44.4944,0.19089,-3.81233
498,44.5436,0.18025,-3.81111
498.5,44.5928,0.177965,-3.81238
499,44.6423,0.178971,-3.813
499.5,44.692,0.181468,-3.813
500,44.7414,0.17516,-3.8143
500.5,44.7909,0.175443,-3.8143
501,44.8399,0.178714,-3.8143
501.5,44.8902,0.170578,-3.81561
502,44.94,0.173122,-3.81429
502.5,44.9895,0.167539,-3.81429
503,45.0384,0.160178,-3.81429
503.5,45.0877,0.155918,-3.81425
504,45.1384,0.153594,-3.81561
504.5,45.1866,0.157308,-3.81561
505,45.237,0.161667,-3.81561
505.5,45.286,0.156672,-3.81697
506,45.334,0.155828,-3.81693
506.5,45.3843,0.155345,-3.81693
507,45.4342,0.153536,-3.81693
507.5,45.4836,0.154759,-3.81693
508,45.5318,0.154644,-3.81692
508.5,45.5828,0.154575,-3.81558
509,45.63,0.151076,-3.81561
509.5,45.6818,0.144281,-3.81481
510,45.73,0.149801,-3.81462
510.5,45.781,0.148497,-3.81468
511,45.8297,0.151057,-3.81594
511.5,45.8788,0.149475,-3.81594
512,45.9302,0.147089,-3.81597
512.5,45.9786,0.149041,-3.81692
513,46.0276,0.14261,-3.81692
513.5,46.0775,0.139261,-3.81692
514,46.1264,0.139181,-3.81692
514.5,46.1765,0.136107,-3.81699
515,46.2264,0.128018,-3.81561
515.5,46.2747,0.132046,-3.81564
516,46.3223,0.133854,-3.81693
516.5,46.3728,0.135471,-3.81772
517,46.424,0.137249,-3.81686
517.5,46.4736,0.134127,-3.81692
518,46.5229,0.136584,-3.81692
518.5,46.5733,0.133298,-3.81689
519,46.6219,0.12947,-3.81824
519.5,46.6722,0.126925,-3.81824
520,46.722,0.131293,-3.81824
520.5,46.7693,0.136638,-3.82223
521,46.8198,0.137972,-3.82089
521.5,46.871,0.137019,-3.81769
522,46.9198,0.131276,-3.81671
522.5,46.9696,0.125071,-3.81671
523,47.0185,0.132619,-3.81671
523.5,47.0684,0.136545,-3.81671
524,47.118,0.131911,-3.81867
524.5,47.1675,0.122105,-3.81868
525,47.2176,0.124709,-3.81868
525.5,47.2654,0.132958,-3.81868
526,47.3157,0.125918,-3.81868
526.5,47.3651,0.134322,-3.81868
527,47.4152,0.128144,-3.8187
527.5,47.4645,0.130559,-3.81935
528,47.5145,0.123676,-3.81866
528.5,47.5643,0.120862,-3.81673
529,47.6141,0.130706,-3.81826
529.5,47.6626,0.129869,-3.81934
530,47.7131,0.131377,-3.81934
530.5,47.7628,0.133213,-3.81936
531,47.8114,0.132409,-3.81803
531.5,47.8614,0.12994,-3.81804
532,47.9109,0.12803,-3.81939
532.5,47.9602,0.126078,-3.82066
533,48.0103,0.122872,-3.82065
533.5,48.0595,0.117543,-3.81934
534,48.1078,0.124803,-3.81934
534.5,48.1587,0.112908,-3.81934
535,48.2088,0.125053,-3.81933
535.5,48.2583,0.127444,-3.81998
536,48.3074,0.121042,-3.82061
536.5,48.3579,0.121584,-3.82066
537,48.4072,0.123691,-3.82066
537.5,48.4565,0.125504,-3.82067
538,48.5059,0.122066,-3.82132
538.5,48.5556,0.113879,-3.82132
539,48.6057,0.126592,-3.82132
539.5,48.6556,0.120506,-3.82132
540,48.7053,0.115849,-3.82116
540.5,48.7545,0.116451,-3.82001
541,48.804,0.117667,-3.82001
541.5,48.8533,0.118117,-3.82001
542,48.9027,0.119615,-3.82002
542.5,48.9529,0.119829,-3.82067
543,49.0028,0.119141,-3.82076
543.5,49.0523,0.109424,-3.82296
544,49.1018,0.117496,-3.82296
544.5,49.1521,0.105935,-3.82296
545,49.2014,0.116375,-3.82296
545.5,49.249,0.114071,-3.82072
546,49.2975,0.125537,-3.81748
546.5,49.3499,0.119829,-3.82214
547,49.3996,0.124662,-3.82374
547.5,49.4497,0.121085,-3.82374
548,49.499,0.115783,-3.82374
548.5,49.5487,0.119124,-3.82376
549,49.5985,0.118433,-3.82242
549.5,49.6482,0.118773,-3.82077
550,49.6975,0.115564,-3.8165
550.5,49.7479,0.108,-3.82783
551,49.7976,0.110754,-3.82562
551.5,49.8473,0.112296,-3.82232
552,49.8975,0.112308,-3.82231
552.5,49.9471,0.11302,-3.82363
553,49.996,0.109509,-3.82363
553.5,50.0437,0.115986,-3.82363
554,50.0958,0.113361,-3.82363
554.5,50.1461,0.111845,-3.82234
555,50.1958,0.110011,-3.82233
555.5,50.2454,0.111247,-3.82297
556,50.2953,0.114057,-3.82297
556.5,50.3452,0.111285,-3.82297
557,50.3948,0.103985,-3.82297
557.5,50.4449,0.107286,-3.82294
558,50.4951,0.113571,-3.82363
558.5,50.5445,0.111498,-3.82363
559,50.595,0.109881,-3.82363
559.5,50.6452,0.101591,-3.82311
560,50.6943,0.0971362,-3.82362
560.5,50.7449,0.106108,-3.82452
561,50.7945,0.107682,-3.82484
561.5,50.8435,0.108289,-3.82363
562,50.8931,0.104177,-3.82381
562.5,50.9429,0.110359,-3.82494
563,50.9927,0.0986815,-3.82494
563.5,51.0415,0.107485,-3.82494
564,51.0926,0.103663,-3.82494
564.5,51.1422,0.100262,-3.82434
565,51.1925,0.0952043,-3.82363
565.5,51.2431,0.096695,-3.82363
566,51.2913,0.105476,-3.82492
566.5,51.3428,0.104057,-3.82494
567,51.3912,0.110699,-3.8236
567.5,51.4412,0.0986676,-3.82365
568,51.4917,0.097679,-3.8223
568.5,51.5417,0.0988564,-3.82228
569,51.5907,0.0970507,-3.82362
569.5,51.6414,0.0942214,-3.82362
570,51.6903,0.0840513,-3.82362
570.5,51.7403,0.0904129,-3.82362
571,51.7901,0.0960339,-3.82362
571.5,51.8384,0.0958838,-3.82362
572,51.8902,0.0948562,-3.82479
572.5,51.9399,0.0796128,-3.82597
573,51.9901,0.08553,-3.82557
573.5,52.0388,0.0858513,-3.82494
574,52.0901,0.0790446,-3.82494
574.5,52.1383,0.0803,-3.82494
575,52.1895,0.0810154,-3.82496
575.5,52.2385,0.0740684,-3.82362
576,52.2892,0.0786339,-3.82357
576.5,52.339,0.068633,-3.82504
577,52.3886,0.0689524,-3.82495
577.5,52.4393,0.0650326,-3.82626
578,52.4892,0.0565084,-3.82626
578.5,52.5393,0.057974,-3.82626
579,52.5897,0.0547749,-3.82492
579.5,52.6392,0.0589198,-3.82494
580,52.6882,0.057999,-3.82394
580.5,52.7392,0.0509405,-3.82395
581,52.7891,0.0542222,-3.82395
581.5,52.8396,0.0523324,-3.82393
582,52.889,0.0525274,-3.82593
582.5,52.9385,0.0541553,-3.82627
583,52.9894,0.0502907,-3.82494
583.5,53.0392,0.054961,-3.82494
584,53.0884,0.0522282,-3.82494
584.5,53.1386,0.0573248,-3.82493
585,53.1882,0.0553861,-3.82659
585.5,53.2389,0.0478016,-3.82759
586,53.2885,0.0427641,-3.82622
586.5,53.339,0.0377398,-3.82626
587,53.3886,0.0327838,-3.82626
587.5,53.4392,0.0374391,-3.82626
588,53.4886,0.0424869,-3.82626
588.5,53.5388,0.0403707,-3.82626
589,53.5883,0.0361211,-3.82523
589.5,53.6385,0.0373719,-3.82528
590,53.6892,0.0266388,-3.82528
590.5,53.7387,0.0312307,-3.82528
591,53.7892,0.0360093,-3.82559
591.5,53.8384,0.0359574,-3.82659
592,53.8882,0.031096,-3.82659
592.5,53.9366,0.0216852,-3.82659
593,53.9877,0.0297579,-3.82659
593.5,54.038,0.033175,-3.82659
594,54.0889,0.0251739,-3.82659
594.5,54.1391,0.0176222,-3.82659
595,54.1885,0.0307792,-3.82659
595.5,54.2394,0.0209653,-3.82759
596,54.2886,0.0189778,-3.82758
596.5,54.3395,0.0128422,-3.82626
597,54.3884,0.00572756,-3.82626
597.5,54.4388,0.0114908,-3.82692
598,54.4896,0.00686098,-3.82692
598.5,54.54,0.010759,-3.82692
599,54.5865,0.00814754,-3.82692
599.5,54.6401,-0.0012945,-3.82691
600,54.6893,0.00273129,-3.82758
600.5,54.7397,-0.000235413,-3.82758
601,54.7897,0.00548666,-3.82628
601.5,54.8385,0.00100197,-3.82626
602,54.8894,-0.000173004,-3.82626
602.5,54.939,-0.000245909,-3.82755
603,54.9889,-0.000193977,-3.82791
603.5,55.0398,-0.00854669,-3.82791
604,55.0896,-0.0160361,-3.82791
604.5,55.139,-0.0105458,-3.82692
605,55.1898,-0.0153689,-3.82692
605.5,55.2395,-0.0162534,-3.82824
606,55.2884,-0.0163457,-3.82706
606.5,55.3376,-0.0217479,-3.82688
607,55.39,-0.0214938,-3.82758
607.5,55.4393,-0.0199844,-3.82758
608,55.4899,-0.0187431,-3.82758
608.5,55.539,-0.0185932,-3.82758
609,55.5879,-0.019462,-3.82758
609.5,55.6393,-0.0265049,-3.82758
610,55.6903,-0.0222707,-3.82895
610.5,55.7401,-0.0185577,-3.8289
611,55.7888,-0.0201851,-3.8289
611.5,55.8393,-0.0202249,-3.8289
612,55.8887,-0.0189031,-3.8289
612.5,55.9392,-0.0279345,-3.8289
613,55.9889,-0.0244796,-3.8289
613.5,56.0391,-0.0218599,-3.83021
614,56.0884,-0.0279652,-3.83021
614.5,56.1387,-0.0211772,-3.83021
615,56.1881,-0.0217649,-3.83021
615.5,56.2381,-0.0285858,-3.83021
616,56.289,-0.0315644,-3.82886
616.5,56.3386,-0.0289004,-3.82889
617,56.3883,-0.039453,-3.82889
617.5,56.4381,-0.0290816,-3.83029
618,56.4888,-0.032064,-3.83021
618.5,56.5377,-0.0339863,-3.83152
619,56.5886,-0.0348064,-3.83154
619.5,56.6374,-0.0301709,-3.83021
620,56.6861,-0.0333525,-3.83021
620.5,56.7383,-0.0317094,-3.8292
621,56.7885,-0.0317488,-3.82922
621.5,56.8386,-0.0323139,-3.82922
622,56.8891,-0.039058,-3.82922
622.5,56.9386,-0.0307195,-3.82922
623,56.9891,-0.0313349,-3.82922
623.5,57.0394,-0.0334546,-3.83054
624,57.09,-0.0266815,-3.82922
624.5,57.1398,-0.0311876,-3.8302
625,57.1889,-0.0267236,-3.83021
625.5,57.2397,-0.0314228,-3.83021
626,57.2895,-0.0258698,-3.82988
626.5,57.3405,-0.0258542,-3.82988
627,57.3903,-0.0182016,-3.82988
627.5,57.44,-0.0192692,-3.82922
628,57.49,-0.0274866,-3.82919
628.5,57.5399,-0.0199813,-3.82889
629,57.5907,-0.0129015,-3.83022
629.5,57.6411,-0.0150671,-3.82946
630,57.6907,-0.0189399,-3.82923
630.5,57.7412,-0.017595,-3.82923
631,57.7908,-0.0172318,-3.82922
631.5,57.8407,-0.0119518,-3.83021
632,57.8912,-0.0100696,-3.8301
632.5,57.9413,-0.013274,-3.8289
633,57.9914,-0.0128222,-3.82997
633.5,58.0421,-0.00805971,-3.82989
634,58.0917,-0.00774365,-3.82989
634.5,58.1398,-0.00358637,-3.82989
635,58.1924,-0.0120394,-3.82987
635.5,58.2431,-0.0121149,-3.82858
636,58.2925,-0.00272211,-3.82997
636.5,58.3429,-0.0140024,-3.83022
637,58.3926,-0.00180536,-3.82906
637.5,58.4434,-0.0061858,-3.83021
638,58.4934,-0.00778341,-3.83022
638.5,58.5442,-0.00946199,-3.83152
639,58.5946,-0.00255876,-3.83153
639.5,58.6439,0.00342041,-3.83094
640,58.6944,0.00635935,-3.83053
640.5,58.7441,0.0163795,-3.83021
641,58.7948,0.0111321,-3.83161
641.5,58.8444,0.0143764,-3.83153
642,58.895,0.0126484,-3.83114
642.5,58.9454,0.00879152,-3.83087
643,58.9951,0.0158693,-3.83087
643.5,59.0458,0.0160463,-3.83087
644,59.0964,0.0147827,-3.83087
644.5,59.1454,0.0221575,-3.83072
645,59.1967,0.0189434,-3.83219
645.5,59.2469,0.0178212,-3.83219
646,59.297,0.0281424,-3.83219
646.5,59.3474,0.0230164,-3.83219
647,59.3982,0.0289237,-3.83219
647.5,59.4469,0.0392368,-3.83154
648,59.4988,0.042291,-3.83086
648.5,59.5493,0.041403,-3.83186
649,59.5986,0.0509862,-3.83219
649.5,59.6482,0.0562384,-3.83219
650,59.6991,0.050356,-3.83155
650.5,59.7496,0.05347,-3.83087
651,59.7998,0.0588421,-3.83087
651.5,59.8499,0.0597748,-3.83219
652,59.9009,0.0650003,-3.83298
652.5,59.9512,0.062831,-3.83218
653,60.0007,0.0703479,-3.8335
653.5,60.0509,0.0698817,-3.83345
654,60.101,0.0741748,-3.83219
654.5,60.1513,0.0740099,-3.83219
655,60.2015,0.0825431,-3.83219
655.5,60.2525,0.0836063,-3.83219
656,60.3007,0.0840219,-3.83275
656.5,60.3522,0.0804584,-3.83218
657,60.4026,0.0826266,-3.83218
657.5,60.452,0.0829663,-3.83219
658,60.503,0.0818776,-3.83323
658.5,60.5534,0.0875043,-3.83416
659,60.6033,0.0873961,-3.8332
659.5,60.6524,0.0908621,-3.83284
660,60.7039,0.0962521,-3.83284
660.5,60.7541,0.0935442,-3.83284
661,60.8038,0.0901716,-3.8332
661.5,60.8549,0.0960528,-3.83181
662,60.9044,0.0951827,-3.83326
662.5,60.9523,0.100161,-3.83318
663,61.0028,0.101395,-3.83319
663.5,61.0556,0.104011,-3.83314
664,61.1058,0.0985996,-3.83317
664.5,61.1558,0.105173,-3.83317
665,61.2051,0.104895,-3.83317
665.5,61.2561,0.116031,-3.83317
666,61.3065,0.117332,-3.83317
666.5,61.357,0.110622,-3.83317
667,61.4074,0.118604,-3.83317
667.5,61.457,0.124194,-3.83239
668,61.5069,0.125306,-3.83318
668.5,61.5569,0.127044,-3.83285
669,61.6075,0.130848,-3.83285
669.5,61.6578,0.132197,-3.83285
670,61.7075,0.132465,-3.83285
670.5,61.7586,0.130474,-3.83285
671,61.8081,0.129263,-3.83285
671.5,61.8568,0.137061,-3.83319
672,61.9068,0.137785,-3.83318
672.5,61.9596,0.132264,-3.83318
673,62.0094,0.139119,-3.83186
673.5,62.0587,0.144137,-3.83186
674,62.1092,0.150816,-3.83217
674.5,62.1604,0.146112,-3.83318
675,62.2103,0.147645,-3.83314
675.5,62.2595,0.145843,-3.83252
676,62.3108,0.145116,-3.83252
676.5,62.3596,0.14324,-3.83252
677,62.4101,0.149495,-3.83252
677.5,62.4602,0.15003,-3.83252
678,62.5105,0.150341,-3.83327
678.5,62.5617,0.150339,-3.83383
679,62.611,0.155438,-3.83383
679.5,62.6617,0.153353,-3.83383
680,62.7117,0.152431,-3.83244
680.5,62.7611,0.156088,-3.83251
681,62.8129,0.158706,-3.83345
681.5,62.8624,0.157005,-3.83483
682,62.9135,0.162875,-3.8335
682.5,62.9637,0.157497,-3.8335
683,63.0134,0.165871,-3.83349
683.5,63.0642,0.162049,-3.83483
684,63.1122,0.168111,-3.8348
684.5,63.1643,0.171128,-3.8335
685,63.2142,0.163644,-3.8335
685.5,63.267,0.165399,-3.8335
686,63.3163,0.174443,-3.8335
686.5,63.3667,0.17481,-3.8335
687,63.4167,0.179691,-3.83348
687.5,63.4673,0.17726,-3.83418
688,63.5168,0.184633,-3.83415
688.5,63.5685,0.184709,-3.83385
689,63.6191,0.183741,-3.83351
689.5,63.6695,0.191245,-3.83351
690,63.7199,0.189258,-3.83219