File: 01_Data/Helmet_Buckle/STA/N2/10K_min/Helmet_Buckle_STA_N2_10KData_250304_R2.csv
Temp./C,Time/min,DSC/(mW/mg),Mass loss/mg
60.0,0.0,0.858814,-0.0304931
60.4,0.0518884,0.870779,-0.0279989
60.8,0.103018,0.878234,-0.0279818
61.2,0.156155,0.891696,-0.0280843
61.6,0.207631,0.9071,-0.0293153
62,0.257488,0.922194,-0.0278033
62.4,0.307839,0.928441,-0.0262114
62.8,0.354758,0.947166,-0.0256703
63.2,0.40846,0.961379,-0.0255063
63.6,0.458283,0.97306,-0.0251909
64,0.507079,0.985472,-0.0260321
64.4,0.555473,0.992578,-0.02738
64.8,0.604837,1.00275,-0.0274454
65.2,0.653264,1.00881,-0.0287365
65.6,0.700878,1.02451,-0.0299643
66,0.749048,1.02179,-0.0303189
66.4,0.797175,1.0339,-0.0289487
66.8,0.843771,1.03702,-0.0289191
67.2,0.890664,1.04877,-0.0289545
67.6,0.937175,1.0449,-0.0290794
68,0.984199,1.05649,-0.030029
68.4,1.03051,1.05175,-0.0288552
68.8,1.07651,1.046,-0.0291059
69.2,1.12362,1.05142,-0.0290454
69.6,1.17113,1.05503,-0.0287337
70,1.21461,1.05146,-0.0285672
70.4,1.26072,1.05471,-0.0293547
70.8,1.30496,1.04454,-0.0305203
71.2,1.35226,1.0351,-0.0293803
71.6,1.39708,1.03516,-0.0292645
72,1.44146,1.03335,-0.0278921
72.4,1.48561,1.02048,-0.0293355
72.8,1.5318,1.0259,-0.0309688
73.2,1.57531,1.02343,-0.0317225
73.6,1.61823,1.02582,-0.0314331
74,1.6643,1.02497,-0.0306842
74.4,1.70543,1.02206,-0.0309461
74.8,1.75369,1.02031,-0.0300484
75.2,1.79564,1.01806,-0.0292702
75.6,1.83883,1.01313,-0.0304845
76,1.88403,1.01556,-0.0305256
76.4,1.92834,1.01308,-0.0332293
76.8,1.97113,1.01595,-0.033161
77.2,2.01565,1.01507,-0.0320868
77.6,2.05793,1.0169,-0.0318933
78,2.10159,1.02631,-0.0305163
78.4,2.14464,1.03431,-0.029809
78.8,2.18655,1.0293,-0.0314268
79.2,2.22872,1.03059,-0.031099
79.6,2.27264,1.02925,-0.0320468
80,2.3154,1.0401,-0.0320638
80.4,2.35861,1.04252,-0.0308041
80.8,2.3998,1.04214,-0.0307409
81.2,2.44034,1.05061,-0.0321715
81.6,2.48257,1.05118,-0.031502
82,2.52598,1.05379,-0.0326369
82.4,2.56858,1.06069,-0.0334206
82.8,2.61179,1.07205,-0.0348014
83.2,2.65289,1.07625,-0.0335053
83.6,2.69493,1.07756,-0.0335819
84,2.73734,1.08084,-0.0322103
84.4,2.7777,1.07909,-0.0321554
84.8,2.81846,1.08867,-0.0321905
85.2,2.86134,1.09532,-0.0321378
85.6,2.90355,1.10486,-0.0328669
86,2.94488,1.10426,-0.0321722
86.4,2.98562,1.11726,-0.0336068
86.8,3.02701,1.12304,-0.0337606
87.2,3.06797,1.12639,-0.0337102
87.6,3.11099,1.13121,-0.03371
88,3.1501,1.13716,-0.03371
88.4,3.19102,1.14162,-0.0337098
88.8,3.23229,1.14775,-0.0350026
89.2,3.27124,1.14832,-0.0335442
89.6,3.31474,1.14924,-0.0335591
90,3.35475,1.15133,-0.0335889
90.4,3.39511,1.15659,-0.0333105
90.8,3.43633,1.16124,-0.0322698
91.2,3.47609,1.1658,-0.0336335
91.6,3.51707,1.17367,-0.0322922
92,3.5571,1.17714,-0.0315558
92.4,3.59811,1.18409,-0.0322809
92.8,3.63709,1.18819,-0.0323418
93.2,3.67662,1.1938,-0.0319868
93.6,3.71747,1.2008,-0.0319507
94,3.75844,1.206,-0.03202
94.4,3.79842,1.21089,-0.0313119
94.8,3.83781,1.21197,-0.0318103
95.2,3.87725,1.21672,-0.0327008
95.6,3.91714,1.22733,-0.0340039
96,3.95802,1.22632,-0.0340318
96.4,3.99762,1.2291,-0.0337874
96.8,4.03875,1.23198,-0.0349914
97.2,4.07854,1.23276,-0.0350005
97.6,4.11684,1.2336,-0.0350006
98,4.15714,1.23974,-0.0337083
98.4,4.19586,1.24795,-0.03371
98.8,4.23549,1.24618,-0.0337229
99.2,4.2756,1.26172,-0.0344636
99.6,4.31479,1.26332,-0.0336954
100,4.35537,1.26681,-0.0336986
100.4,4.39338,1.27127,-0.0335214
100.8,4.43334,1.28205,-0.0337023
101.2,4.47312,1.28052,-0.03371
101.6,4.51216,1.28331,-0.0346466
102,4.54694,1.28963,-0.0346157
102.4,4.58701,1.29456,-0.0348938
102.8,4.62675,1.30121,-0.0339565
103.2,4.66828,1.30152,-0.0348143
103.6,4.70799,1.30832,-0.035019
104,4.74614,1.31432,-0.03502
104.4,4.78664,1.3233,-0.0350259
104.8,4.82502,1.32114,-0.0349896
105.2,4.86448,1.32371,-0.0350215
105.6,4.90113,1.33173,-0.0342754
106,4.94153,1.33636,-0.0337107
106.4,4.98158,1.33567,-0.03499
106.8,5.02052,1.34231,-0.0350295
107.2,5.06042,1.34731,-0.0350225
107.6,5.09744,1.34927,-0.0346979
108,5.13824,1.34916,-0.0356655
108.4,5.17653,1.3528,-0.0350339
108.8,5.21562,1.35589,-0.035622
109.2,5.25384,1.36099,-0.0349274
109.6,5.29316,1.36212,-0.0360065
110,5.3331,1.36401,-0.03601
110.4,5.37125,1.36622,-0.03601
110.8,5.41052,1.36916,-0.0360098
111.2,5.45028,1.38093,-0.0346733
111.6,5.48779,1.37885,-0.0346894
112,5.52672,1.3874,-0.0350579
112.4,5.56593,1.39069,-0.034572
112.8,5.60503,1.39989,-0.0350298
113.2,5.64311,1.39995,-0.0350332
113.6,5.68207,1.40771,-0.0377601
114,5.72029,1.40416,-0.0365449
114.4,5.76069,1.41275,-0.0360843
114.8,5.79878,1.41275,-0.0348104
115.2,5.8371,1.41186,-0.0348249
115.6,5.87381,1.41876,-0.036134
116,5.91458,1.42255,-0.0361199
116.4,5.95403,1.43199,-0.0361066
116.8,5.99268,1.42904,-0.0347885
117.2,6.03241,1.43004,-0.0361936
117.6,6.07019,1.4354,-0.0361203
118,6.10838,1.43379,-0.0361209
118.4,6.14784,1.43667,-0.0362632
118.8,6.18671,1.437,-0.0363003
119.2,6.22493,1.43422,-0.0374215
119.6,6.2641,1.44255,-0.0374388
120,6.30299,1.44978,-0.0373006
120.4,6.34032,1.4505,-0.0361194
120.8,6.38033,1.44482,-0.0361181
121.2,6.41803,1.45096,-0.0348086
121.6,6.45711,1.45375,-0.0347787
122,6.49374,1.45523,-0.0361191
122.4,6.53338,1.45621,-0.03612
122.8,6.57286,1.45642,-0.0361194
123.2,6.61064,1.46409,-0.0360983
123.6,6.6482,1.4678,-0.0348056
124,6.6885,1.47424,-0.0348086
124.4,6.72456,1.4727,-0.0361917
124.8,6.76489,1.47644,-0.0361196
125.2,6.80306,1.47786,-0.0361408
125.6,6.84155,1.47359,-0.0374358
126,6.87892,1.47636,-0.0361337
126.4,6.91817,1.4779,-0.0368579
126.8,6.9574,1.48578,-0.0363402
127.2,6.995,1.48894,-0.0361214
127.6,7.03263,1.48905,-0.037433
128,7.07102,1.48972,-0.0374397
128.4,7.10959,1.49298,-0.0374512
128.8,7.14917,1.49566,-0.0361218
129.2,7.18776,1.4979,-0.03612
129.6,7.22609,1.49924,-0.03612
130,7.26541,1.50779,-0.0361198
130.4,7.30099,1.50383,-0.036112
130.8,7.3418,1.51111,-0.0347946
131.2,7.3789,1.50738,-0.035153
131.6,7.41635,1.51135,-0.0361574
132,7.45573,1.51766,-0.0383422
132.4,7.49381,1.51604,-0.0387582
132.8,7.53163,1.52256,-0.038718
133.2,7.5676,1.51914,-0.0393061
133.6,7.6075,1.51401,-0.038787
134,7.64501,1.52917,-0.0374506
134.4,7.68476,1.52715,-0.0374399
134.8,7.72206,1.53334,-0.0374304
135.2,7.76112,1.53356,-0.0361261
135.6,7.79887,1.53268,-0.0360831
136,7.83751,1.53584,-0.0374248
136.4,7.87564,1.53452,-0.0360267
136.8,7.91299,1.542,-0.0361179
137.2,7.9514,1.54699,-0.0368183
137.6,7.99008,1.54532,-0.0367816
138,8.02436,1.54804,-0.0370842
138.4,8.06589,1.54978,-0.0367657
138.8,8.10295,1.55469,-0.0361046
139.2,8.1422,1.56008,-0.03612
139.6,8.17952,1.55649,-0.0361514
140,8.21769,1.55521,-0.037285
140.4,8.25562,1.56078,-0.036106
140.8,8.29421,1.5636,-0.0358211
141.2,8.33049,1.56544,-0.0361202
141.6,8.36982,1.56381,-0.0361175
142,8.40739,1.57253,-0.0348616
142.4,8.44552,1.57201,-0.036133
142.8,8.48389,1.57822,-0.0374752
143.2,8.52135,1.57557,-0.0367603
143.6,8.55957,1.58394,-0.0380779
144,8.59756,1.58946,-0.0374932
144.4,8.63401,1.58963,-0.0374406
144.8,8.67369,1.59316,-0.03744
145.2,8.7118,1.58685,-0.0382023
145.6,8.74896,1.59667,-0.0387604
146,8.7874,1.60028,-0.03876
146.4,8.82506,1.5931,-0.03876
146.8,8.86294,1.59755,-0.038755
147.2,8.90142,1.60044,-0.0384449
147.6,8.93836,1.59708,-0.0381028
148,8.97708,1.59933,-0.0381028
148.4,9.01459,1.59813,-0.037732
148.8,9.05,1.60112,-0.0377701
149.2,9.08662,1.59741,-0.0375393
149.6,9.12725,1.60391,-0.0380828
150,9.16502,1.60575,-0.0374099
150.4,9.20367,1.60447,-0.0387571
150.8,9.24073,1.61637,-0.03876
151.2,9.27867,1.61168,-0.0375288
151.6,9.31664,1.61855,-0.0374389
152,9.35379,1.62466,-0.03817
152.4,9.39198,1.61745,-0.0374536
152.8,9.42991,1.61693,-0.03744
153.2,9.46588,1.61423,-0.0375007
153.6,9.50535,1.61775,-0.0361201
154,9.54304,1.62587,-0.0361334
154.4,9.58133,1.62849,-0.0374279
154.8,9.61868,1.6303,-0.0367997
155.2,9.65431,1.62857,-0.0367801
155.6,9.69394,1.63083,-0.036778
156,9.73188,1.63316,-0.0380914
156.4,9.76827,1.6322,-0.0391395
156.8,9.80426,1.6384,-0.0394177
157.2,9.84415,1.6352,-0.0393672
157.6,9.88219,1.64673,-0.0390522
158,9.92018,1.63792,-0.0390807
158.4,9.95733,1.64132,-0.0377721
158.8,9.9962,1.64431,-0.0378163
159.2,10.0333,1.64401,-0.0364599
159.6,10.0714,1.64307,-0.0377649
160,10.109,1.65071,-0.0377698
160.4,10.1466,1.64914,-0.03777
160.8,10.1838,1.64538,-0.0377706
161.2,10.221,1.648,-0.0377401
161.6,10.2591,1.65583,-0.039416
162,10.2966,1.65248,-0.0411933
162.4,10.3353,1.65383,-0.0411702
162.8,10.3719,1.65402,-0.04117
163.2,10.4103,1.65747,-0.04117
163.6,10.4486,1.65902,-0.0411694
164,10.4854,1.66395,-0.0408776
164.4,10.5225,1.65955,-0.0398469
164.8,10.5613,1.65694,-0.0398213
165.2,10.5993,1.66254,-0.0411593
165.6,10.6358,1.66838,-0.0397104
166,10.6756,1.66731,-0.0397497
166.4,10.7097,1.66463,-0.0400325
166.8,10.75,1.66772,-0.0410731
167.2,10.7878,1.67225,-0.0397212
167.6,10.8259,1.66931,-0.0403563
168,10.8637,1.67408,-0.0410597
168.4,10.8983,1.6786,-0.04106
168.8,10.9382,1.67326,-0.0410656
169.2,10.9759,1.6774,-0.0397849
169.6,11.0137,1.68038,-0.0397401
170,11.0522,1.67622,-0.03974
170.4,11.0893,1.6777,-0.039741
170.8,11.1272,1.68992,-0.0399633
171.2,11.1645,1.68407,-0.0410633
171.6,11.202,1.67694,-0.04106
172,11.2386,1.68382,-0.0410583
172.4,11.2779,1.6735,-0.0426222
172.8,11.3152,1.68239,-0.0430383
173.2,11.354,1.69107,-0.0430782
173.6,11.3907,1.69729,-0.041726
174,11.4283,1.70195,-0.041728
174.4,11.4663,1.69479,-0.0405997
174.8,11.5043,1.69907,-0.0407161
175.2,11.5414,1.70164,-0.039401
175.6,11.5807,1.70481,-0.0394294
176,11.6172,1.70041,-0.040792
176.4,11.6556,1.69815,-0.0407448
176.8,11.6936,1.69234,-0.0398163
177.2,11.7315,1.70648,-0.0391166
177.6,11.7683,1.70408,-0.0392025
178,11.8063,1.70437,-0.0398141
178.4,11.8424,1.7095,-0.0405231
178.8,11.8799,1.70769,-0.0391884
179.2,11.9202,1.71462,-0.0391997
179.6,11.958,1.71289,-0.0391983
180,11.9949,1.71847,-0.0387341
180.4,12.0328,1.71518,-0.039213
180.8,12.0681,1.71556,-0.0383704
181.2,12.1082,1.71675,-0.0378807
181.6,12.1439,1.72477,-0.0379762
182,12.1829,1.72433,-0.0391917
182.4,12.221,1.72835,-0.0391881
182.8,12.2593,1.72466,-0.0386247
183.2,12.2964,1.72592,-0.0382026
183.6,12.3339,1.73242,-0.0382
184,12.3715,1.72513,-0.0382
184.4,12.409,1.73271,-0.038193
184.8,12.4466,1.72627,-0.0394994
185.2,12.4818,1.7318,-0.0395215
185.6,12.5214,1.731,-0.0407903
186,12.5593,1.73523,-0.0413264
186.4,12.5969,1.73497,-0.0421604
186.8,12.6351,1.73117,-0.04216
187.2,12.6723,1.73975,-0.04216
187.6,12.7098,1.73569,-0.0421585
188,12.7483,1.73787,-0.0416495
188.4,12.7852,1.73793,-0.0408462
188.8,12.8229,1.74078,-0.0396537
189.2,12.861,1.73956,-0.0395279
189.6,12.8983,1.7444,-0.0408252
190,12.936,1.7403,-0.0408596
190.4,12.9733,1.74033,-0.0395578
190.8,13.011,1.74451,-0.0398211
191.2,13.0491,1.74505,-0.040844
191.6,13.0871,1.74636,-0.0409056
192,13.125,1.74835,-0.0421661
192.4,13.1619,1.75064,-0.0421602
192.8,13.1993,1.74491,-0.0421532
193.2,13.2371,1.74201,-0.0431409
193.6,13.2743,1.74623,-0.0431131
194,13.312,1.75049,-0.0421642
194.4,13.3501,1.74984,-0.0411612
194.8,13.3877,1.74456,-0.04084
195.2,13.4252,1.74531,-0.0408343
195.6,13.4624,1.74932,-0.0421538
196,13.5005,1.74959,-0.0431157
196.4,13.5369,1.74695,-0.0424812
196.8,13.5755,1.74988,-0.0437625
197.2,13.6133,1.75301,-0.0434893
197.6,13.6503,1.75613,-0.0421559
198,13.687,1.75565,-0.040827
198.4,13.7266,1.75648,-0.0408399
198.8,13.7637,1.75649,-0.04084
199.2,13.7999,1.7618,-0.04084
199.6,13.8379,1.76201,-0.04084
200,13.8762,1.77124,-0.04084
200.4,13.914,1.76879,-0.0408423
200.8,13.9512,1.77219,-0.0422132
201.2,13.9875,1.77822,-0.0414228
201.6,14.027,1.77725,-0.0422271
202,14.0636,1.78119,-0.0421604
202.4,14.1025,1.77944,-0.0421563
202.8,14.1395,1.7953,-0.0408843
203.2,14.1749,1.7905,-0.0419283
203.6,14.215,1.79308,-0.0421595
204,14.2521,1.78275,-0.0421776
204.4,14.2908,1.79059,-0.0414997
204.8,14.3276,1.79501,-0.0414994
205.2,14.3657,1.791,-0.0401184
205.6,14.4012,1.78941,-0.0401908
206,14.4406,1.79528,-0.041493
206.4,14.4798,1.79971,-0.0423493
206.8,14.5159,1.80538,-0.0428197
207.2,14.5535,1.80407,-0.0427974
207.6,14.5913,1.81403,-0.0415005
208,14.6286,1.81102,-0.0415003
208.4,14.6672,1.81639,-0.04159
208.8,14.7051,1.81898,-0.0401821
209.2,14.7426,1.82256,-0.0401785
209.6,14.7801,1.82724,-0.0404942
210,14.8177,1.82864,-0.0401781
210.4,14.8544,1.82493,-0.0401796
210.8,14.8923,1.82107,-0.0401261
211.2,14.9304,1.8241,-0.0401788
211.6,14.968,1.83404,-0.0401799
212,15.0054,1.8333,-0.0401053
212.4,15.0434,1.83297,-0.0414931
212.8,15.0804,1.83323,-0.0415013
213.2,15.1192,1.84399,-0.042172
213.6,15.1556,1.84435,-0.0435186
214,15.1939,1.84928,-0.0435014
214.4,15.2309,1.84778,-0.0447919
214.8,15.2696,1.85768,-0.0447896
215.2,15.3077,1.85648,-0.0440344
215.6,15.3452,1.86238,-0.0433424
216,15.3827,1.86571,-0.042726
216.4,15.421,1.86016,-0.0427103
216.8,15.4573,1.86524,-0.0416265
217.2,15.4952,1.86309,-0.0414013
217.6,15.5324,1.87087,-0.0414
218,15.5715,1.87353,-0.0414
218.4,15.6088,1.87011,-0.0414005
218.8,15.6465,1.87753,-0.0417017
219.2,15.6851,1.88295,-0.0427129
219.6,15.7218,1.88509,-0.0427083
220,15.7604,1.88365,-0.0433935
220.4,15.7972,1.88248,-0.0440221
220.8,15.836,1.8896,-0.0440389
221.2,15.8727,1.89671,-0.0453406
221.6,15.9106,1.90437,-0.0453407
222,15.9483,1.90531,-0.0439985
222.4,15.9861,1.90658,-0.0434475
222.8,16.0234,1.9077,-0.0427093
223.2,16.063,1.90816,-0.0427101
223.6,16.0992,1.90893,-0.0427073
224,16.136,1.91106,-0.043788
224.4,16.1749,1.91746,-0.0437658
224.8,16.2124,1.91665,-0.042382
225.2,16.2502,1.92441,-0.0423802
225.6,16.2874,1.9227,-0.0434477
226,16.3266,1.92402,-0.0440934
226.4,16.363,1.93562,-0.0436532
226.8,16.4019,1.93936,-0.0450196
227.2,16.4386,1.94072,-0.04502
227.6,16.4775,1.93846,-0.0450121
228,16.5141,1.94183,-0.0463033
228.4,16.5528,1.94939,-0.0463313
228.8,16.5897,1.95261,-0.0457781
229.2,16.6277,1.95148,-0.0435949
229.6,16.6657,1.95694,-0.0423798
230,16.7012,1.96207,-0.0423797
230.4,16.7412,1.96384,-0.0433654
230.8,16.7796,1.96979,-0.0427043
231.2,16.817,1.97039,-0.0427098
231.6,16.8541,1.97854,-0.04271
232,16.8924,1.97458,-0.04271
232.4,16.9295,1.98065,-0.04271
232.8,16.9675,1.97006,-0.0428747
233.2,17.0055,1.98941,-0.0442351
233.6,17.0424,1.99051,-0.0453421
234,17.0788,1.99691,-0.04534
234.4,17.1168,2.00081,-0.04534
234.8,17.1566,1.99922,-0.04534
235.2,17.1943,2.01269,-0.04534
235.6,17.2314,2.00923,-0.04534
236,17.2703,2.00825,-0.04534
236.4,17.3079,2.00834,-0.04534
236.8,17.346,2.00472,-0.0453399
237.2,17.3822,2.00623,-0.0453317
237.6,17.4205,2.01507,-0.0440165
238,17.458,2.02064,-0.0440182
238.4,17.4958,2.02481,-0.0434453
238.8,17.5341,2.03013,-0.042711
239.2,17.5722,2.04091,-0.0440821
239.6,17.6099,2.04811,-0.0453392
240,17.6472,2.04884,-0.0453399
240.4,17.6855,2.05343,-0.04534
240.8,17.7231,2.0577,-0.0453398
241.2,17.7601,2.06824,-0.0453436
241.6,17.7984,2.08362,-0.046687
242,17.8358,2.09488,-0.0466603
242.4,17.8738,2.10257,-0.04666
242.8,17.9124,2.11354,-0.04666
243.2,17.9509,2.1293,-0.0466618
243.6,17.988,2.13531,-0.0453215
244,18.027,2.15251,-0.0453486
244.4,18.0638,2.16692,-0.0451468
244.8,18.1032,2.18786,-0.0440257
245.2,18.1397,2.21516,-0.0440301
245.6,18.1786,2.236,-0.0440527
246,18.2171,2.26238,-0.0450064
246.4,18.2547,2.28645,-0.0453553
246.8,18.2929,2.3175,-0.0453638
247.2,18.3312,2.35609,-0.0466608
247.6,18.3695,2.39289,-0.04666
248,18.4082,2.42984,-0.0466652
248.4,18.4463,2.48346,-0.0473407
248.8,18.4848,2.5274,-0.0462328
249.2,18.5229,2.59003,-0.0457377
249.6,18.5622,2.65641,-0.0446863
250,18.6005,2.74393,-0.0450617
250.4,18.6371,2.83249,-0.0460124
250.8,18.6792,2.95544,-0.0460129
251.2,18.718,3.07797,-0.0449888
251.6,18.7582,3.22857,-0.0450406
252,18.7968,3.37539,-0.0446886
252.4,18.838,3.53556,-0.04469
252.8,18.8768,3.67432,-0.0446872
253.2,18.9162,3.81396,-0.0432793
253.6,18.9558,3.9383,-0.0433697
254,18.9948,4.06541,-0.04337
254.4,19.0336,4.18721,-0.0433695
254.8,19.074,4.3055,-0.0432902
255.2,19.1124,4.41254,-0.0446902
255.6,19.1515,4.51442,-0.0446863
256,19.1915,4.62574,-0.0443665
256.4,19.2308,4.73058,-0.0443603
256.8,19.2699,4.83198,-0.0443542
257.2,19.3086,4.94183,-0.0456799
257.6,19.349,5.05839,-0.0456833
258,19.3884,5.1983,-0.0443733
258.4,19.4275,5.32023,-0.0443601
258.8,19.4677,5.45826,-0.044363
259.2,19.5065,5.5921,-0.0430603
259.6,19.5457,5.7368,-0.0430401
260,19.5862,5.8687,-0.04304
260.4,19.6242,5.97451,-0.04304
260.8,19.6652,6.09287,-0.043037
261.2,19.7044,6.18435,-0.0437703
261.6,19.7422,6.21916,-0.0448565
262,19.7807,6.16645,-0.0456734
262.4,19.8157,5.97411,-0.0462224
262.8,19.8498,5.58184,-0.0463298
263.2,19.8822,5.05275,-0.0463335
263.6,19.914,4.50257,-0.0469791
264,19.9457,4.01987,-0.0455584
264.4,19.9799,3.60828,-0.0460023
264.8,20.0125,3.28545,-0.0459993
265.2,20.0493,3.00901,-0.0459949
265.6,20.0825,2.79331,-0.0446816
266,20.1185,2.60242,-0.04468
266.4,20.1548,2.46485,-0.04468
266.8,20.1897,2.3478,-0.0446806
267.2,20.2274,2.26083,-0.0446695
267.6,20.2643,2.18109,-0.0459778
268,20.3016,2.12424,-0.0443655
268.4,20.3387,2.07698,-0.0430404
268.8,20.3753,2.04059,-0.0444391
269.2,20.4133,2.00218,-0.0446189
269.6,20.4501,1.97747,-0.0456701
270,20.4877,1.96168,-0.045675
270.4,20.5257,1.9467,-0.0446891
270.8,20.5629,1.9336,-0.0443337
271.2,20.6004,1.92041,-0.045671
271.6,20.6379,1.9155,-0.0455107
272,20.6757,1.89798,-0.0443437
272.4,20.7115,1.90248,-0.04435
272.8,20.7509,1.90226,-0.0443501
273.2,20.7877,1.89449,-0.0443239
273.6,20.8264,1.89605,-0.0430807
274,20.8642,1.89606,-0.0417674
274.4,20.9021,1.88638,-0.0419094
274.8,20.9399,1.88352,-0.0447995
275.2,20.978,1.88794,-0.0461371
275.6,21.0155,1.88487,-0.0460092
276,21.0534,1.88198,-0.0454605
276.4,21.0914,1.87616,-0.0460978
276.8,21.1297,1.88206,-0.0447912
277.2,21.1671,1.88213,-0.0447901
277.6,21.2045,1.88817,-0.0447966
278,21.2428,1.88381,-0.0437055
278.4,21.2805,1.88325,-0.0438202
278.8,21.3188,1.88379,-0.0451421
279.2,21.3566,1.8845,-0.0447983
279.6,21.3952,1.88057,-0.0448
280,21.4329,1.88245,-0.0448001
280.4,21.4709,1.8809,-0.0448042
280.8,21.5086,1.88768,-0.0458077
281.2,21.5458,1.88976,-0.0457804
281.6,21.5841,1.88667,-0.04578
282,21.6213,1.88325,-0.0457797
282.4,21.6602,1.87995,-0.0457549
282.8,21.6982,1.89354,-0.0471009
283.2,21.7356,1.88956,-0.0470993
283.6,21.7736,1.891,-0.0469394
284,21.8118,1.8912,-0.0457917
284.4,21.8501,1.88431,-0.0444859
284.8,21.8881,1.88918,-0.0442776
285.2,21.9257,1.89432,-0.0419546
285.6,21.9632,1.88669,-0.0413341
286,22.0021,1.89001,-0.0417259
286.4,22.0386,1.89051,-0.0430342
286.8,22.078,1.88762,-0.043102
287.2,22.1152,1.88965,-0.0437013
287.6,22.1534,1.88663,-0.0439047
288,22.1908,1.88995,-0.0443559
288.4,22.2293,1.89162,-0.0455092
288.8,22.2668,1.8974,-0.04568
289.2,22.3051,1.89085,-0.04568
289.6,22.3433,1.89572,-0.0456798
290,22.3814,1.89321,-0.0451991
290.4,22.4194,1.89546,-0.0425005
290.8,22.4572,1.8952,-0.0411367
291.2,22.4953,1.89756,-0.0443337
291.6,22.5339,1.89563,-0.0461983
292,22.5708,1.90329,-0.0462299
292.4,22.6089,1.89476,-0.04623
292.8,22.6463,1.89836,-0.0462304
293.2,22.6853,1.89506,-0.047438
293.6,22.7225,1.89316,-0.0475437
294,22.7606,1.89747,-0.048196
294.4,22.7991,1.8925,-0.0481899
294.8,22.836,1.88673,-0.04819
295.2,22.8751,1.8906,-0.04819
295.6,22.9121,1.88985,-0.0481903
296,22.9516,1.88353,-0.0477351
296.4,22.9894,1.88722,-0.0468793
296.8,23.0273,1.88993,-0.0468802
297.2,23.0655,1.88996,-0.0469307
297.6,23.1041,1.89287,-0.0455739
298,23.141,1.8826,-0.0455603
298.4,23.1796,1.88858,-0.0455419
298.8,23.2175,1.89488,-0.0468785
299.2,23.256,1.89274,-0.04688
299.6,23.2947,1.89243,-0.0470325
300,23.332,1.89127,-0.0482057
300.4,23.3696,1.88844,-0.048182
300.8,23.4078,1.88365,-0.0488592
301.2,23.4457,1.8907,-0.04886
301.6,23.485,1.8935,-0.04886
302,23.522,1.89385,-0.04886
302.4,23.5607,1.88869,-0.04886
302.8,23.5977,1.89141,-0.04886
303.2,23.6363,1.89772,-0.0488627
303.6,23.6742,1.88749,-0.0479045
304,23.7118,1.89205,-0.0478703
304.4,23.7511,1.89523,-0.04787
304.8,23.7891,1.8957,-0.04787
305.2,23.8274,1.89054,-0.04787
305.6,23.8643,1.89108,-0.0478716
306,23.9033,1.88982,-0.0484988
306.4,23.9409,1.89596,-0.0491904
306.8,23.9789,1.89672,-0.04919
307.2,24.0177,1.90372,-0.0491899
307.6,24.0552,1.89929,-0.0494837
308,24.0933,1.8931,-0.0508793
308.4,24.1314,1.89406,-0.0508256
308.8,24.1694,1.90105,-0.0495387
309.2,24.2085,1.89598,-0.0495201
309.6,24.2457,1.89754,-0.0495221
310,24.2836,1.90755,-0.0485424
310.4,24.3218,1.91159,-0.0502125
310.8,24.36,1.91439,-0.0505083
311.2,24.3964,1.91033,-0.0508316
311.6,24.4344,1.90855,-0.0508306
312,24.4753,1.90344,-0.0502765
312.4,24.5136,1.90877,-0.0495077
312.8,24.5509,1.90771,-0.04951
313.2,24.5883,1.90813,-0.04951
313.6,24.6271,1.91322,-0.04951
314,24.6653,1.91618,-0.0495097
314.4,24.7033,1.91384,-0.0494748
314.8,24.7415,1.91389,-0.0518978
315.2,24.7791,1.90915,-0.0539032
315.6,24.8171,1.9142,-0.0530861
316,24.856,1.91878,-0.0512955
316.4,24.894,1.91795,-0.0504926
316.8,24.9315,1.92194,-0.0495054
317.2,24.9682,1.91884,-0.0508056
317.6,25.008,1.92417,-0.0508297
318,25.0458,1.91585,-0.050786
318.4,25.0847,1.91742,-0.0521319
318.8,25.1221,1.91209,-0.0529837
319.2,25.1606,1.91897,-0.0534696
319.6,25.2001,1.927,-0.05347
320,25.2374,1.91827,-0.05347
320.4,25.2758,1.90844,-0.05347
320.8,25.3137,1.91107,-0.0534697
321.2,25.3525,1.91579,-0.0534219
321.6,25.3902,1.91666,-0.0544608
322,25.4288,1.91817,-0.0544686
322.4,25.4673,1.91432,-0.0547819
322.8,25.5057,1.91637,-0.05479
323.2,25.5439,1.91794,-0.05479
323.6,25.5828,1.91431,-0.05479
324,25.6199,1.91178,-0.05479
324.4,25.6591,1.91803,-0.0547904
324.8,25.697,1.92467,-0.0548235
325.2,25.7333,1.9299,-0.0534708
325.6,25.7728,1.92178,-0.0543056
326,25.8116,1.92451,-0.0551436
326.4,25.8476,1.92612,-0.0555851
326.8,25.8887,1.92823,-0.0564312
327.2,25.9267,1.92972,-0.0567519
327.6,25.9646,1.92673,-0.0577518
328,26.0038,1.92703,-0.0577501
328.4,26.0421,1.92466,-0.0577602
328.8,26.0797,1.9248,-0.0590176
329.2,26.1194,1.93412,-0.0603677
329.6,26.1562,1.93709,-0.06038
330,26.1945,1.93533,-0.06038
330.4,26.2332,1.94655,-0.0603828
330.8,26.2715,1.94478,-0.061757
331.2,26.31,1.94307,-0.0616986
331.6,26.3487,1.94505,-0.0614759
332,26.387,1.94909,-0.0603891
332.4,26.4261,1.94992,-0.06039
332.8,26.4635,1.95532,-0.0604102
333.2,26.5023,1.95322,-0.0616625
333.6,26.5408,1.95751,-0.0629995
334,26.5785,1.95986,-0.0637879
334.4,26.6174,1.96328,-0.0625109
334.8,26.6568,1.96759,-0.0612593
335.2,26.6936,1.96484,-0.06126
335.6,26.7331,1.96083,-0.0612543
336,26.7685,1.96424,-0.0625041
336.4,26.8069,1.97872,-0.0632152
336.8,26.8478,1.98349,-0.0638883
337.2,26.8861,1.9889,-0.0638786
337.6,26.9244,1.98334,-0.0635795
338,26.9625,1.98598,-0.06357
338.4,27.0012,1.99216,-0.063569
338.8,27.0385,1.99468,-0.0633761
339.2,27.0778,2.00388,-0.0629245
339.6,27.1161,2.00688,-0.064254
340,27.1544,2.0137,-0.0635526
340.4,27.1928,2.01433,-0.0638009
340.8,27.2316,2.01839,-0.063842
341.2,27.2689,2.029,-0.0639006
341.6,27.3079,2.02312,-0.0640694
342,27.3463,2.03241,-0.0663644
342.4,27.3849,2.04078,-0.0665748
342.8,27.4224,2.04946,-0.0665012
343.2,27.4613,2.05169,-0.0665285
343.6,27.5001,2.0612,-0.0679586
344,27.5381,2.06566,-0.0692033
344.4,27.577,2.07891,-0.0692793
344.8,27.6153,2.08562,-0.06928
345.2,27.6533,2.08989,-0.06928
345.6,27.6913,2.09559,-0.0692799
346,27.7305,2.10922,-0.0692724
346.4,27.7676,2.1091,-0.0712688
346.8,27.8076,2.11203,-0.0731161
347.2,27.8445,2.12293,-0.0732186
347.6,27.8842,2.13445,-0.0731299
348,27.9222,2.13983,-0.0745385
348.4,27.9609,2.14855,-0.0745399
348.8,27.9992,2.16046,-0.0748082
349.2,28.0374,2.17928,-0.0762973
349.6,28.0769,2.18329,-0.075869
350,28.1133,2.19754,-0.0761101
350.4,28.153,2.21076,-0.0765381
350.8,28.1915,2.22729,-0.0764952
351.2,28.2306,2.24889,-0.0778612
351.6,28.2689,2.24014,-0.0804019
352,28.3076,2.25827,-0.0819102
352.4,28.3456,2.272,-0.0833571
352.8,28.3834,2.28347,-0.0860027
353.2,28.4235,2.29577,-0.0858762
353.6,28.4627,2.30784,-0.0872769
354,28.5008,2.31781,-0.087523
354.4,28.5382,2.32804,-0.0872812
354.8,28.5775,2.33781,-0.0880182
355.2,28.6167,2.35138,-0.0886268
355.6,28.655,2.36405,-0.0899192
356,28.6934,2.37804,-0.0908451
356.4,28.7317,2.38583,-0.0920322
356.8,28.7702,2.39405,-0.0946533
357.2,28.8092,2.39474,-0.0956808
357.6,28.8478,2.41003,-0.096912
358,28.8867,2.41694,-0.0979952
358.4,28.9252,2.43023,-0.099347
358.8,28.9641,2.4356,-0.100404
359.2,29.0016,2.45179,-0.101092
359.6,29.0407,2.46124,-0.102581
360,29.0793,2.46551,-0.104351
360.4,29.1186,2.48185,-0.105474
360.8,29.1573,2.49696,-0.106967
361.2,29.1958,2.51167,-0.108146
361.6,29.2339,2.51745,-0.108305
362,29.2725,2.53581,-0.110577
362.4,29.3112,2.54117,-0.111108
362.8,29.3478,2.55913,-0.109546
363.2,29.3878,2.57126,-0.10957
363.6,29.4252,2.57759,-0.109608
364,29.4645,2.58922,-0.111155
364.4,29.504,2.60192,-0.112983
364.8,29.5419,2.60705,-0.118077
365.2,29.5813,2.63149,-0.123195
365.6,29.6198,2.64254,-0.124614
366,29.6588,2.65789,-0.124645
366.4,29.6968,2.67747,-0.12568
366.8,29.7354,2.67219,-0.125929
367.2,29.774,2.69269,-0.125929
367.6,29.8131,2.69807,-0.127501
368,29.8515,2.71647,-0.132879
368.4,29.8906,2.73793,-0.137961
368.8,29.93,2.75118,-0.140198
369.2,29.9698,2.77555,-0.14282
369.6,30.0077,2.79247,-0.14314
370,30.0461,2.80065,-0.143145
370.4,30.0846,2.8187,-0.145816
370.8,30.1235,2.85334,-0.146602
371.2,30.1621,2.87792,-0.14991
371.6,30.1993,2.88434,-0.153903
372,30.2398,2.89396,-0.158723
372.4,30.2784,2.91817,-0.161962
372.8,30.3178,2.94004,-0.164853
373.2,30.3567,2.94889,-0.16807
373.6,30.3953,2.98058,-0.168552
374,30.4341,2.99468,-0.171178
374.4,30.4731,3.00784,-0.173407
374.8,30.5128,3.03277,-0.178369
375.2,30.5496,3.05384,-0.181457
375.6,30.5892,3.06587,-0.183467
376,30.6291,3.08811,-0.187457
376.4,30.6673,3.10715,-0.190602
376.8,30.7063,3.12991,-0.192182
377.2,30.7452,3.15524,-0.195561
377.6,30.7839,3.18188,-0.199414
378,30.8233,3.20521,-0.203835
378.4,30.8619,3.24673,-0.207267
378.8,30.9007,3.25053,-0.210236
379.2,30.9396,3.2524,-0.213049
379.6,30.9779,3.30431,-0.218255
380,31.0175,3.33528,-0.222852
380.4,31.0568,3.33693,-0.227341
380.8,31.0933,3.35994,-0.232866
381.2,31.1313,3.37248,-0.237034
381.6,31.1732,3.39568,-0.241133
382,31.2113,3.41831,-0.245928
382.4,31.2513,3.43889,-0.250818
382.8,31.2892,3.47012,-0.254967
383.2,31.3285,3.49208,-0.259755
383.6,31.367,3.50751,-0.264951
384,31.4072,3.53307,-0.27054
384.4,31.4458,3.5692,-0.273853
384.8,31.4847,3.60097,-0.278442
385.2,31.5233,3.62715,-0.283609
385.6,31.5622,3.65633,-0.290713
386,31.6021,3.69052,-0.295227
386.4,31.6403,3.71396,-0.300178
386.8,31.6796,3.74556,-0.307214
387.2,31.7189,3.77989,-0.314811
387.6,31.7581,3.80365,-0.321861
388,31.7966,3.82387,-0.328456
388.4,31.8357,3.84633,-0.334744
388.8,31.8747,3.88065,-0.341822
389.2,31.9138,3.90597,-0.347493
389.6,31.9531,3.92846,-0.35449
390,31.9922,3.96248,-0.359634
390.4,32.0321,3.98882,-0.366782
390.8,32.0713,4.02637,-0.376295
391.2,32.1062,4.05671,-0.384322
391.6,32.1489,4.07556,-0.393682
392,32.1874,4.10934,-0.400295
392.4,32.2265,4.13152,-0.408017
392.8,32.2657,4.1574,-0.413306
393.2,32.3044,4.18504,-0.421831
393.6,32.3436,4.20712,-0.430925
394,32.3826,4.23355,-0.436821
394.4,32.4216,4.26877,-0.444682
394.8,32.4606,4.27527,-0.451554
395.2,32.4999,4.32024,-0.460083
395.6,32.5394,4.34553,-0.469383
396,32.5779,4.3638,-0.478376
396.4,32.6165,4.37617,-0.486445
396.8,32.6559,4.40515,-0.495165
397.2,32.6946,4.42674,-0.50422
397.6,32.7345,4.46236,-0.514197
398,32.773,4.48845,-0.523379
398.4,32.8123,4.51118,-0.5336
398.8,32.8512,4.53582,-0.545099
399.2,32.8898,4.55617,-0.55678
399.6,32.929,4.57394,-0.565579
400,32.9678,4.60325,-0.574434
400.4,33.0072,4.62533,-0.583595
400.8,33.0463,4.64771,-0.594293
401.2,33.0849,4.67417,-0.605736
401.6,33.1238,4.69853,-0.61676
402,33.1629,4.71349,-0.628201
402.4,33.2024,4.74221,-0.639789
402.8,33.2404,4.75317,-0.649923
403.2,33.2809,4.77447,-0.660705
403.6,33.317,4.79783,-0.671528
404,33.3583,4.81919,-0.683113
404.4,33.397,4.83453,-0.694229
404.8,33.4371,4.85116,-0.706109
405.2,33.4753,4.86031,-0.715447
405.6,33.5143,4.88046,-0.727691
406,33.5536,4.90811,-0.741012
406.4,33.5925,4.92205,-0.756086
406.8,33.6314,4.9406,-0.768017
407.2,33.6702,4.94721,-0.7802
407.6,33.7078,4.98383,-0.792217
408,33.747,4.98706,-0.804753
408.4,33.7873,5.00964,-0.818195
408.8,33.8268,5.02325,-0.831894
409.2,33.8658,5.03855,-0.845078
409.6,33.9048,5.05606,-0.857842
410,33.9433,5.06754,-0.871053
410.4,33.9825,5.0925,-0.885104
410.8,34.0221,5.1007,-0.899367
411.2,34.0614,5.11043,-0.912897
411.6,34.0996,5.12247,-0.927086
412,34.1385,5.13677,-0.940376
412.4,34.1775,5.14938,-0.953653
412.8,34.2156,5.15083,-0.967057
413.2,34.2555,5.1718,-0.980457
413.6,34.2929,5.18616,-0.995538
414,34.3334,5.19788,-1.01254
414.4,34.3725,5.20862,-1.02753
414.8,34.411,5.21333,-1.04226
415.2,34.45,5.23877,-1.05688
415.6,34.4888,5.23716,-1.07064
416,34.5283,5.25179,-1.08674
416.4,34.5667,5.25172,-1.10374
416.8,34.6062,5.25389,-1.1197
417.2,34.6441,5.25594,-1.13503
417.6,34.6835,5.25521,-1.15091
418,34.7223,5.26091,-1.16659
418.4,34.7614,5.2626,-1.18402
418.8,34.8004,5.26435,-1.19977
419.2,34.8396,5.26665,-1.21634
419.6,34.8787,5.26445,-1.23236
420,34.9168,5.27353,-1.2479
420.4,34.9558,5.27089,-1.26599
420.8,34.9939,5.26251,-1.28392
421.2,35.0335,5.26643,-1.30117
421.6,35.0721,5.2737,-1.31904
422,35.1111,5.27525,-1.33601
422.4,35.151,5.27046,-1.35417
422.8,35.1898,5.26676,-1.37142
423.2,35.2262,5.27572,-1.38719
423.6,35.2673,5.26812,-1.40656
424,35.305,5.27133,-1.42434
424.4,35.3445,5.26167,-1.44138
424.8,35.3838,5.26751,-1.45945
425.2,35.4229,5.2698,-1.47807
425.6,35.4623,5.27172,-1.4974
426,35.5006,5.27238,-1.51548
426.4,35.54,5.27064,-1.53479
426.8,35.5792,5.27365,-1.55507
427.2,35.6177,5.2755,-1.57386
427.6,35.6564,5.27577,-1.59468
428,35.6947,5.26762,-1.61335
428.4,35.7332,5.26319,-1.63208
428.8,35.7731,5.26549,-1.65222
429.2,35.8114,5.25476,-1.67172
429.6,35.8504,5.25103,-1.69159
430,35.8892,5.25079,-1.71151
430.4,35.9288,5.24851,-1.73263
430.8,35.968,5.2515,-1.75328
431.2,36.0066,5.24494,-1.77427
431.6,36.0447,5.24094,-1.79423
432,36.0842,5.23443,-1.81396
432.4,36.1237,5.23591,-1.83552
432.8,36.1623,5.2239,-1.8565
433.2,36.2013,5.22836,-1.87796
433.6,36.2396,5.21953,-1.89891
434,36.2796,5.20745,-1.92107
434.4,36.3181,5.19904,-1.94297
434.8,36.3576,5.19325,-1.96556
435.2,36.3948,5.1811,-1.98437
435.6,36.4348,5.16965,-2.0068
436,36.473,5.14446,-2.02779
436.4,36.5125,5.13419,-2.05108
436.8,36.5491,5.11703,-2.07232
437.2,36.5889,5.09784,-2.09523
437.6,36.6284,5.07502,-2.11775
438,36.6667,5.04718,-2.13991
438.4,36.7051,5.0255,-2.16256
438.8,36.7449,5.01211,-2.1854
439.2,36.7829,4.98423,-2.20791
439.6,36.8216,4.9544,-2.23073
440,36.8599,4.92285,-2.25246
440.4,36.8993,4.8924,-2.27537
440.8,36.937,4.8626,-2.29822
441.2,36.9767,4.83109,-2.32099
441.6,37.0151,4.80626,-2.34475
442,37.0535,4.75992,-2.36713
442.4,37.0921,4.7455,-2.38908
442.8,37.1309,4.70843,-2.41213
443.2,37.1694,4.67483,-2.43428
443.6,37.2064,4.62557,-2.45585
444,37.2472,4.59752,-2.48054
444.4,37.2848,4.55989,-2.50237
444.8,37.3221,4.52034,-2.5234
445.2,37.362,4.46975,-2.54663
445.6,37.4013,4.42487,-2.56853
446,37.4392,4.37505,-2.5901
446.4,37.478,4.32353,-2.61096
446.8,37.5163,4.28128,-2.63349
447.2,37.5555,4.22998,-2.65428
447.6,37.5935,4.17719,-2.67551
448,37.6322,4.12782,-2.69733
448.4,37.6704,4.07892,-2.7177
448.8,37.7092,4.02394,-2.73975
449.2,37.7475,3.96995,-2.76012
449.6,37.7861,3.91372,-2.77999
450,37.825,3.85839,-2.80028
450.4,37.861,3.79619,-2.8191
450.8,37.9005,3.74934,-2.83989
451.2,37.9389,3.67474,-2.85982
451.6,37.9769,3.62373,-2.87967
452,38.016,3.5576,-2.90013
452.4,38.0538,3.48455,-2.91855
452.8,38.0933,3.41835,-2.9369
453.2,38.1317,3.34165,-2.95675
453.6,38.1691,3.28463,-2.97354
454,38.2075,3.21747,-2.99184
454.4,38.246,3.15659,-3.00988
454.8,38.2824,3.09569,-3.02732
455.2,38.3228,3.01981,-3.04756
455.6,38.3616,2.9622,-3.06555
456,38.3973,2.89845,-3.08251
456.4,38.4379,2.83792,-3.10066
456.8,38.4759,2.78048,-3.11734
457.2,38.515,2.70865,-3.13498
457.6,38.5535,2.64661,-3.15112
458,38.5915,2.59025,-3.16578
458.4,38.6305,2.52284,-3.18286
458.8,38.6687,2.47418,-3.19957
459.2,38.7067,2.42182,-3.21593
459.6,38.7433,2.35436,-3.22846
460,38.7832,2.29739,-3.24398
460.4,38.8225,2.24552,-3.25828
460.8,38.8609,2.18918,-3.27293
461.2,38.899,2.13854,-3.28615
461.6,38.9376,2.08061,-3.29841
462,38.9763,2.03119,-3.31326
462.4,39.0157,1.97955,-3.32941
462.8,39.0535,1.9314,-3.34371
463.2,39.0913,1.88288,-3.35754
463.6,39.1297,1.83381,-3.37015
464,39.1685,1.79188,-3.38353
464.4,39.2078,1.74022,-3.39778
464.8,39.2458,1.69603,-3.41225
465.2,39.2846,1.65723,-3.42626
465.6,39.3239,1.61276,-3.43896
466,39.3619,1.56263,-3.45129
466.4,39.4004,1.53016,-3.46254
466.8,39.4397,1.48673,-3.47343
467.2,39.4777,1.44754,-3.48392
467.6,39.5162,1.41445,-3.49605
468,39.555,1.38422,-3.5061
468.4,39.593,1.34508,-3.51734
468.8,39.632,1.31471,-3.52823
469.2,39.6722,1.27758,-3.53757
469.6,39.7104,1.24626,-3.54698
470,39.7491,1.2171,-3.55811
470.4,39.788,1.17482,-3.56893
470.8,39.8266,1.14751,-3.57884
471.2,39.8649,1.1204,-3.58872
471.6,39.9044,1.0875,-3.59765
472,39.9435,1.0534,-3.60588
472.4,39.9819,1.01798,-3.61528
472.8,40.0198,0.99243,-3.62389
473.2,40.0601,0.958296,-3.63142
473.6,40.099,0.936122,-3.64096
474,40.1386,0.9145,-3.64934
474.4,40.1748,0.883683,-3.65565
474.8,40.2167,0.855817,-3.66433
475.2,40.255,0.822138,-3.6708
475.6,40.2933,0.801802,-3.67809
476,40.332,0.780143,-3.68502
476.4,40.3714,0.747942,-3.69278
476.8,40.4091,0.728303,-3.69991
477.2,40.4497,0.701687,-3.70634
477.6,40.4858,0.686039,-3.71296
478,40.5265,0.661755,-3.7192
478.4,40.5665,0.648659,-3.72733
478.8,40.6052,0.623914,-3.73206
479.2,40.6447,0.605081,-3.73793
479.6,40.6843,0.584336,-3.74292
480,40.7227,0.574736,-3.74848
480.4,40.7616,0.556419,-3.75377
480.8,40.7991,0.539799,-3.75976
481.2,40.8401,0.52278,-3.7638
481.6,40.8793,0.503197,-3.76888
482,40.9169,0.492154,-3.77493
482.4,40.9575,0.47172,-3.77959
482.8,40.9969,0.464597,-3.78443
483.2,41.036,0.447382,-3.78816
483.6,41.0742,0.429507,-3.79154
484,41.1142,0.412998,-3.79666
484.4,41.1527,0.388644,-3.80128
484.8,41.1917,0.379409,-3.80509
485.2,41.2314,0.36825,-3.80884
485.6,41.2703,0.356357,-3.81177
486,41.3103,0.328431,-3.81476
486.4,41.3488,0.308585,-3.81738
486.8,41.3874,0.297579,-3.8211
487.2,41.4275,0.278273,-3.82527
487.6,41.467,0.267087,-3.82829
488,41.5055,0.257231,-3.82971
488.4,41.5451,0.243439,-3.83084
488.8,41.5841,0.217518,-3.83394
489.2,41.624,0.21103,-3.8361
489.6,41.6615,0.204613,-3.83871
490,41.7018,0.197643,-3.8415
490.4,41.7407,0.182067,-3.84386
490.8,41.7799,0.164818,-3.84553
491.2,41.8194,0.15738,-3.8484
491.6,41.8585,0.147364,-3.84969
492,41.8973,0.13147,-3.85122
492.4,41.9361,0.120583,-3.85272
492.8,41.9768,0.114026,-3.85584
493.2,42.0164,0.101778,-3.8568
493.6,42.055,0.0920658,-3.85897
494,42.0939,0.0802843,-3.85919
494.4,42.1331,0.0692971,-3.86062
494.8,42.1727,0.0545608,-3.8615
495.2,42.2127,0.0490377,-3.86191
495.6,42.252,0.0579244,-3.86336
496,42.2907,0.040005,-3.86336
496.4,42.3301,0.0419545,-3.863
496.8,42.3691,0.0441348,-3.86205
497.2,42.4089,0.0398725,-3.8623
497.6,42.448,0.0323314,-3.86337
498,42.4866,0.0354791,-3.86376
498.4,42.5261,0.0240582,-3.86469
498.8,42.5665,0.0240127,-3.86469
499.2,42.6058,0.0304446,-3.86468
499.6,42.6445,0.0311484,-3.86621
500,42.6841,0.0258966,-3.86739
500.4,42.7237,0.0165947,-3.866
500.8,42.7627,0.0162677,-3.866
501.2,42.8024,0.0128666,-3.866
501.6,42.8413,-0.00187317,-3.866
502,42.8804,-0.0073661,-3.86731
502.4,42.9196,-0.0196797,-3.86732
502.8,42.9595,-0.0224368,-3.86733
503.2,42.9987,-0.0198492,-3.86601
503.6,43.0382,-0.0194362,-3.866
504,43.0778,-0.0184836,-3.8665
504.4,43.1169,-0.0232465,-3.86699
504.8,43.1565,-0.0121041,-3.86713
505.2,43.1965,-0.00759666,-3.86864
505.6,43.2358,-0.0147019,-3.86861
506,43.2749,-0.0120814,-3.86732
506.4,43.3134,-0.00726674,-3.86743
506.8,43.3519,-0.0168558,-3.86865
507.2,43.3929,-0.014212,-3.86864
507.6,43.4327,-0.00937158,-3.86864
508,43.472,-0.0115637,-3.87002
508.4,43.5114,-0.0221798,-3.86996
508.8,43.5496,-0.0191342,-3.86996
509.2,43.5903,-0.0289048,-3.86979
509.6,43.629,-0.0282588,-3.86864
510,43.6682,-0.0338429,-3.86726
510.4,43.7091,-0.0330053,-3.86666
510.8,43.7474,-0.0359235,-3.86666
511.2,43.7875,-0.0377949,-3.86667
511.6,43.8269,-0.0396847,-3.86934
512,43.8664,-0.0321757,-3.86929
512.4,43.9057,-0.026683,-3.86929
512.8,43.9455,-0.0293706,-3.86929
513.2,43.9842,-0.0279786,-3.86922
513.6,44.0241,-0.0294459,-3.86995
514,44.0636,-0.0335379,-3.86993
514.4,44.1026,-0.0385908,-3.86945
514.8,44.1421,-0.035345,-3.86996
515.2,44.1814,-0.0338487,-3.87087
515.6,44.2215,-0.0286486,-3.87127
516,44.2608,-0.0260619,-3.87127
516.4,44.2998,-0.0270246,-3.87127
516.8,44.3393,-0.0268864,-3.87188
517.2,44.3791,-0.0266722,-3.87226
517.6,44.419,-0.0365729,-3.87121
518,44.4585,-0.0272046,-3.87094
518.4,44.4977,-0.0255327,-3.87094
518.8,44.5363,-0.0333879,-3.87071
519.2,44.5761,-0.0305849,-3.86962
519.6,44.6154,-0.0377681,-3.86962
520,44.6558,-0.0352399,-3.86958
520.4,44.6956,-0.0352845,-3.86996
520.8,44.7341,-0.0413369,-3.87143
521.2,44.774,-0.0349966,-3.87139
521.6,44.8135,-0.0342446,-3.87019
522,44.8532,-0.0371393,-3.87006
522.4,44.892,-0.0313567,-3.87015
522.8,44.9314,-0.03078,-3.87138
523.2,44.9714,-0.0277671,-3.87138
523.6,45.0113,-0.0391182,-3.87138
524,45.0504,-0.0354315,-3.87138
524.4,45.0892,-0.0420749,-3.87138
524.8,45.1269,-0.0428343,-3.87007
525.2,45.1688,-0.0510363,-3.87094
525.6,45.2081,-0.0536602,-3.8714
526,45.2472,-0.0475445,-3.87007
526.4,45.287,-0.0479394,-3.86995
526.8,45.3275,-0.0501762,-3.87138
527.2,45.3666,-0.0478096,-3.87001
527.6,45.4054,-0.0480014,-3.8701
528,45.4451,-0.0468544,-3.87138
528.4,45.4843,-0.0483915,-3.87139
528.8,45.5234,-0.052605,-3.87012
529.2,45.563,-0.0506424,-3.87007
529.6,45.6034,-0.0407588,-3.87127
530,45.6426,-0.0365463,-3.87138
530.4,45.683,-0.0386834,-3.87138
530.8,45.7216,-0.0422655,-3.87138
531.2,45.7608,-0.042226,-3.87159
531.6,45.8006,-0.0391987,-3.87271
532,45.8408,-0.0382516,-3.87269
532.4,45.8802,-0.0339064,-3.87269
532.8,45.9201,-0.0433518,-3.87269
533.2,45.9586,-0.0374485,-3.87265
533.6,45.9985,-0.0409207,-3.87138
534,46.0382,-0.0357034,-3.87138
534.4,46.0771,-0.0406187,-3.87138
534.8,46.1179,-0.0384501,-3.87268
535.2,46.1575,-0.0384891,-3.874
535.6,46.1969,-0.0535956,-3.87401
536,46.2355,-0.0530019,-3.87401
536.4,46.275,-0.0557856,-3.87401
536.8,46.315,-0.0590865,-3.87387
537.2,46.3544,-0.0641301,-3.8727
537.6,46.3944,-0.0605368,-3.87269
538,46.434,-0.0554912,-3.87391
538.4,46.4735,-0.053491,-3.87402
538.8,46.513,-0.0525573,-3.87272
539.2,46.5524,-0.0625016,-3.8727
539.6,46.593,-0.0639314,-3.8727
540,46.6313,-0.068218,-3.8727
540.4,46.6715,-0.0653373,-3.8727
540.8,46.7112,-0.0610847,-3.87269
541.2,46.7501,-0.0693105,-3.87135
541.6,46.7898,-0.0734834,-3.87138
542,46.8295,-0.067842,-3.873
542.4,46.8692,-0.0639473,-3.87402
542.8,46.907,-0.0639177,-3.87399
543.2,46.9479,-0.0660478,-3.87401
543.6,46.9878,-0.062741,-3.87401
544,47.0284,-0.0679681,-3.87483
544.4,47.0675,-0.0682515,-3.87531
544.8,47.1057,-0.0684371,-3.87525
545.2,47.1452,-0.0693227,-3.87534
545.6,47.1854,-0.0670788,-3.8741
546,47.2256,-0.072587,-3.87373
546.4,47.2652,-0.0786486,-3.8727
546.8,47.304,-0.0828389,-3.87254
547.2,47.3431,-0.0854721,-3.87302
547.6,47.3836,-0.0824194,-3.87304
548,47.4226,-0.0774141,-3.87451
548.4,47.4606,-0.0849466,-3.87426
548.8,47.5019,-0.0884627,-3.87412
549.2,47.5419,-0.0935125,-3.8728
549.6,47.5807,-0.0800691,-3.87282
550,47.6211,-0.0877551,-3.87416
550.4,47.6605,-0.0882441,-3.87413
550.8,47.6998,-0.0890013,-3.87543
551.2,47.7392,-0.0866156,-3.87541
551.6,47.7788,-0.0917811,-3.87413
552,47.8187,-0.086461,-3.87413
552.4,47.8579,-0.0897471,-3.87413
552.8,47.8977,-0.0898294,-3.87413
553.2,47.9367,-0.0915554,-3.87379
553.6,47.977,-0.0927341,-3.87281
554,48.0159,-0.0898551,-3.87281
554.4,48.0554,-0.092577,-3.87281
554.8,48.0931,-0.0985303,-3.87281
555.2,48.1325,-0.0960451,-3.87301
555.6,48.1747,-0.0980974,-3.87413
556,48.2129,-0.106634,-3.87413
556.4,48.253,-0.0969087,-3.87418
556.8,48.2924,-0.105539,-3.87282
557.2,48.3318,-0.103197,-3.87316
557.6,48.3717,-0.102574,-3.87425
558,48.4103,-0.103228,-3.87445
558.4,48.4503,-0.100192,-3.87445
558.8,48.4903,-0.0984836,-3.87457
559.2,48.5305,-0.108754,-3.87345
559.6,48.57,-0.113142,-3.87346
560,48.6097,-0.118408,-3.87347
560.4,48.6489,-0.115539,-3.87479
560.8,48.6882,-0.110692,-3.87479
561.2,48.7279,-0.107139,-3.87612
561.6,48.7671,-0.1024,-3.8761
562,48.8071,-0.0979259,-3.87605
562.4,48.8472,-0.109899,-3.87349
562.8,48.8864,-0.103184,-3.87346
563.2,48.9254,-0.104021,-3.87283
563.6,48.9659,-0.103443,-3.87215
564,49.0057,-0.111274,-3.87215
564.4,49.0446,-0.106707,-3.87341
564.8,49.0849,-0.111311,-3.87346
565.2,49.1215,-0.103192,-3.87346
565.6,49.1637,-0.088688,-3.87346
566,49.2037,-0.100523,-3.87346
566.4,49.2432,-0.098842,-3.87346
566.8,49.2836,-0.107916,-3.87346
567.2,49.3211,-0.106934,-3.87346
567.6,49.3624,-0.113968,-3.87461
568,49.4023,-0.112025,-3.8748
568.4,49.4416,-0.112673,-3.87343
568.8,49.4805,-0.11265,-3.87379
569.2,49.5206,-0.1145,-3.87379
569.6,49.5602,-0.103356,-3.87379
570,49.5997,-0.104365,-3.87377
570.4,49.6392,-0.111235,-3.87511
570.8,49.6792,-0.113218,-3.87511
571.2,49.7194,-0.101711,-3.87511
571.6,49.7588,-0.110514,-3.87645
572,49.7989,-0.110419,-3.87646
572.4,49.8385,-0.109065,-3.87511
572.8,49.8779,-0.112877,-3.87511
573.2,49.9169,-0.122578,-3.87404
573.6,49.9569,-0.120982,-3.8738
574,49.9962,-0.122019,-3.8738
574.4,50.0368,-0.123517,-3.8738
574.8,50.0756,-0.125399,-3.87353
575.2,50.1154,-0.126274,-3.87313
575.6,50.1559,-0.12942,-3.87334
576,50.1957,-0.131622,-3.87454
576.4,50.2347,-0.136209,-3.87513
576.8,50.2747,-0.13491,-3.87643
577.2,50.3143,-0.134756,-3.87648
577.6,50.3535,-0.133494,-3.87776
578,50.3933,-0.132191,-3.87775
578.4,50.4329,-0.131031,-3.87775
578.8,50.473,-0.135117,-3.87775
579.2,50.5125,-0.139596,-3.87775
579.6,50.5526,-0.140598,-3.87677
580,50.592,-0.133828,-3.87574
580.4,50.6327,-0.132619,-3.87501
580.8,50.6712,-0.133648,-3.87492
581.2,50.7116,-0.13719,-3.87407
581.6,50.7513,-0.138918,-3.87534
582,50.7904,-0.137212,-3.87534
582.4,50.8312,-0.134565,-3.87534
582.8,50.8713,-0.1365,-3.87534
583.2,50.911,-0.142764,-3.87528
583.6,50.9508,-0.142784,-3.87736
584,50.9905,-0.138524,-3.87771
584.4,51.0304,-0.14135,-3.87633
584.8,51.0706,-0.141618,-3.87632
585.2,51.1106,-0.141707,-3.87474
585.6,51.1494,-0.138583,-3.87199
586,51.1897,-0.142348,-3.87062
586.4,51.2303,-0.138337,-3.87061
586.8,51.2687,-0.134371,-3.87197
587.2,51.3088,-0.132949,-3.87325
587.6,51.3486,-0.135859,-3.87324
588,51.3893,-0.136519,-3.8755
588.4,51.4293,-0.132577,-3.87555
588.8,51.4679,-0.136347,-3.87555
589.2,51.5071,-0.141669,-3.87555
589.6,51.547,-0.140074,-3.87555
590,51.588,-0.145456,-3.87555