File: 01_Data/Helmet_Buckle/STA/N2/10K_min/Helmet_Buckle_STA_N2_10KData_250306_R3.csv
Temp./C,Time/min,DSC/(mW/mg),Mass loss/mg
60.0,0.0,0.91738,-0.0100317
60.5,0.0677351,0.933589,-0.0108748
61,0.131459,0.957452,-0.0130775
61.5,0.196207,0.972235,-0.0129892
62,0.26012,0.991759,-0.0049509
62.5,0.326196,1.00736,-0.00800464
63,0.38793,1.02312,-0.0108108
63.5,0.450457,1.03003,-0.014261
64,0.512047,1.04483,-0.0148956
64.5,0.573973,1.05483,-0.0130525
65,0.634054,1.07311,-0.0106023
65.5,0.694722,1.0815,-0.0122425
66,0.756076,1.09107,-0.0121734
66.5,0.814715,1.10555,-0.0116507
67,0.873692,1.10053,-0.0112518
67.5,0.932669,1.09867,-0.0146111
68,0.990056,1.09325,-0.0131599
68.5,1.04633,1.09993,-0.0103594
69,1.10596,1.08604,-0.0107731
69.5,1.16188,1.08,-0.0107006
70,1.22231,1.07697,-0.00969613
70.5,1.27802,1.07006,-0.00963336
71,1.33698,1.06338,-0.0101895
71.5,1.39179,1.0575,-0.0127503
72,1.44774,1.04212,-0.0127499
72.5,1.50214,1.04034,-0.0135755
73,1.55763,1.0506,-0.015286
73.5,1.61608,1.04383,-0.0157863
74,1.67065,1.03772,-0.0130735
74.5,1.72479,1.04262,-0.0128783
75,1.78031,1.03365,-0.0126251
75.5,1.83283,1.03987,-0.01263
76,1.89132,1.04079,-0.0126361
76.5,1.94608,1.04451,-0.01109
77,1.99887,1.04611,-0.00830018
77.5,2.05431,1.05265,-0.0091642
78,2.10801,1.06252,-0.0124148
78.5,2.16178,1.06604,-0.0148189
79,2.21618,1.06571,-0.0181394
79.5,2.27092,1.07519,-0.0180711
80,2.32461,1.08076,-0.015251
80.5,2.37371,1.08481,-0.015223
81,2.43032,1.09159,-0.0151143
81.5,2.48423,1.09414,-0.0146897
82,2.53745,1.10135,-0.0112764
82.5,2.58957,1.10729,-0.0101195
83,2.64156,1.11964,-0.0102484
83.5,2.69618,1.11894,-0.0144918
84,2.74702,1.12233,-0.0146225
84.5,2.80066,1.12575,-0.0165354
85,2.85146,1.14179,-0.0162525
85.5,2.90382,1.14621,-0.0172611
86,2.95513,1.15281,-0.0133345
86.5,3.00669,1.15631,-0.0119137
87,3.05876,1.16677,-0.0144767
87.5,3.11156,1.17297,-0.0152108
88,3.16348,1.18303,-0.0158214
88.5,3.21447,1.17738,-0.017112
89,3.26514,1.19208,-0.0154675
89.5,3.31511,1.19512,-0.013493
90,3.36585,1.20356,-0.01252
90.5,3.41736,1.21051,-0.0125206
91,3.46782,1.21953,-0.01357
91.5,3.51827,1.22239,-0.0131616
92,3.56937,1.23753,-0.0138284
92.5,3.62026,1.23889,-0.0152615
93,3.67114,1.24528,-0.0138951
93.5,3.72008,1.25465,-0.0154151
94,3.77182,1.26528,-0.0153699
94.5,3.82131,1.27157,-0.0153701
95,3.87166,1.27573,-0.0158597
95.5,3.92219,1.28836,-0.0138999
96,3.9715,1.28551,-0.011898
96.5,4.02112,1.28781,-0.0117246
97,4.07187,1.30139,-0.010864
97.5,4.12112,1.30501,-0.0121832
98,4.17044,1.30863,-0.013702
98.5,4.2195,1.31918,-0.0133595
99,4.26924,1.32978,-0.0113695
99.5,4.31882,1.33412,-0.0106508
100,4.36828,1.34495,-0.0114945
100.5,4.41659,1.34658,-0.0132691
101,4.46597,1.35753,-0.0126194
101.5,4.51608,1.3577,-0.0151593
102,4.56588,1.36644,-0.0155116
102.5,4.61205,1.37511,-0.0169923
103,4.66358,1.37777,-0.0204372
103.5,4.70953,1.38259,-0.0204481
104,4.76251,1.39025,-0.018981
104.5,4.80819,1.39591,-0.0176808
105,4.86082,1.39855,-0.0162935
105.5,4.90879,1.4023,-0.0141514
106,4.95659,1.41424,-0.0123066
106.5,5.00713,1.41419,-0.0122997
107,5.05577,1.41261,-0.013098
107.5,5.10503,1.42392,-0.0127984
108,5.15359,1.42243,-0.0138213
108.5,5.20173,1.42272,-0.0166724
109,5.25091,1.43366,-0.0166874
109.5,5.30013,1.43411,-0.0165184
110,5.34883,1.43872,-0.0180173
110.5,5.39637,1.44627,-0.0166889
111,5.44576,1.46134,-0.0166439
111.5,5.49518,1.46256,-0.0153896
112,5.54236,1.46083,-0.0153784
112.5,5.59114,1.4632,-0.0140243
113,5.63975,1.4678,-0.0153379
113.5,5.68836,1.47288,-0.0162172
114,5.73775,1.47464,-0.0171866
114.5,5.78497,1.48376,-0.0194398
115,5.83416,1.48134,-0.0183723
115.5,5.88259,1.4885,-0.0178444
116,5.93107,1.49397,-0.0182369
116.5,5.9803,1.50065,-0.0197585
117,6.02804,1.51218,-0.0197236
117.5,6.07662,1.5058,-0.0183668
118,6.12561,1.50678,-0.0196621
118.5,6.17338,1.51478,-0.0183589
119,6.22094,1.51353,-0.0163582
119.5,6.2704,1.51828,-0.0163611
120,6.3175,1.51804,-0.0175763
120.5,6.36725,1.51418,-0.0170182
121,6.41402,1.52591,-0.0157928
121.5,6.46321,1.52862,-0.0156999
122,6.511,1.52791,-0.0156998
122.5,6.55978,1.53127,-0.0170508
123,6.60843,1.53725,-0.0171484
123.5,6.65608,1.53943,-0.0158197
124,6.70459,1.54675,-0.0159787
124.5,6.7533,1.54654,-0.0171377
125,6.80187,1.54255,-0.015811
125.5,6.85002,1.55011,-0.0161182
126,6.89718,1.55285,-0.0158099
126.5,6.94546,1.55586,-0.015801
127,6.99263,1.56454,-0.0144899
127.5,7.04128,1.56025,-0.0159009
128,7.09001,1.57327,-0.0185401
128.5,7.13695,1.57349,-0.0198655
129,7.18617,1.57116,-0.0172542
129.5,7.23256,1.5808,-0.017991
130,7.28154,1.5778,-0.0172092
130.5,7.32966,1.58314,-0.0169658
131,7.37677,1.58811,-0.0172168
131.5,7.42546,1.58797,-0.0185559
132,7.47287,1.59885,-0.0175651
132.5,7.52126,1.59637,-0.0175507
133,7.56879,1.60159,-0.0162498
133.5,7.61567,1.60718,-0.0159204
134,7.66431,1.61395,-0.01714
134.5,7.71207,1.6082,-0.0185484
135,7.76013,1.60927,-0.0172521
135.5,7.80504,1.60738,-0.0172398
136,7.85563,1.61819,-0.0172319
136.5,7.90256,1.61923,-0.0172474
137,7.95139,1.62027,-0.0158975
137.5,7.99754,1.62493,-0.0146149
138,8.04571,1.62742,-0.015925
138.5,8.09465,1.62958,-0.0172257
139,8.14185,1.63448,-0.0171223
139.5,8.18848,1.63699,-0.0183397
140,8.23752,1.6353,-0.0162526
140.5,8.28471,1.63684,-0.0164801
141,8.33275,1.63475,-0.0171907
141.5,8.37945,1.64088,-0.0149115
142,8.42745,1.6401,-0.0132512
142.5,8.47491,1.64498,-0.0105134
143,8.52201,1.64984,-0.0113255
143.5,8.5696,1.65142,-0.0103967
144,8.61697,1.65375,-0.0117534
144.5,8.66537,1.6572,-0.0108252
145,8.71287,1.66445,-0.0104256
145.5,8.75959,1.66455,-0.0120289
146,8.80617,1.66132,-0.0132631
146.5,8.85414,1.66467,-0.0132811
147,8.90049,1.66882,-0.0149216
147.5,8.94898,1.6664,-0.0167888
148,8.99711,1.67707,-0.0154289
148.5,9.04476,1.67471,-0.0155054
149,9.09113,1.67708,-0.0197998
149.5,9.13851,1.6777,-0.0255353
150,9.18646,1.6806,-0.0285504
150.5,9.23298,1.67567,-0.028453
151,9.28122,1.67733,-0.0271969
151.5,9.32773,1.68378,-0.0254824
152,9.37556,1.69199,-0.0221181
152.5,9.42335,1.69701,-0.019081
153,9.46975,1.69804,-0.0162893
153.5,9.51578,1.69889,-0.0131787
154,9.56542,1.70884,-0.0118944
154.5,9.61157,1.71094,-0.00929547
155,9.65948,1.70988,-0.00900816
155.5,9.70692,1.71901,-0.0123031
156,9.75357,1.71406,-0.0150075
156.5,9.79989,1.71846,-0.0164285
157,9.84768,1.71483,-0.0178544
157.5,9.89529,1.72253,-0.0162489
158,9.94221,1.71984,-0.0154568
158.5,9.98873,1.72533,-0.0159581
159,10.0366,1.72758,-0.0156528
159.5,10.0839,1.72982,-0.0174658
160,10.1304,1.73038,-0.017474
160.5,10.1775,1.7282,-0.0201621
161,10.2237,1.73548,-0.0230403
161.5,10.2694,1.73459,-0.0234448
162,10.32,1.73666,-0.0219413
162.5,10.3687,1.7337,-0.0204596
163,10.4143,1.73979,-0.0195837
163.5,10.4614,1.74618,-0.0204267
164,10.5081,1.74279,-0.019104
164.5,10.5556,1.74751,-0.0191185
165,10.603,1.75365,-0.0190995
165.5,10.6516,1.75545,-0.0191108
166,10.699,1.75091,-0.0177801
166.5,10.7456,1.74967,-0.0169853
167,10.793,1.76044,-0.0164716
167.5,10.84,1.76086,-0.0172011
168,10.8866,1.76437,-0.01713
168.5,10.9346,1.76927,-0.01713
169,10.982,1.7686,-0.0171629
169.5,11.0273,1.76243,-0.0190882
170,11.0758,1.76315,-0.0190984
170.5,11.1242,1.76503,-0.0204226
171,11.1711,1.76904,-0.0201441
171.5,11.2187,1.76475,-0.0188682
172,11.2667,1.76834,-0.0190407
172.5,11.3125,1.77448,-0.0191093
173,11.3603,1.77705,-0.0191157
173.5,11.4082,1.78139,-0.0218069
174,11.4547,1.78026,-0.0230885
174.5,11.503,1.78466,-0.0245211
175,11.5505,1.78227,-0.0248108
175.5,11.5974,1.78573,-0.0227524
176,11.6451,1.78353,-0.0207583
176.5,11.69,1.78414,-0.0200056
177,11.7387,1.78618,-0.018261
177.5,11.7859,1.7854,-0.0195242
178,11.834,1.78831,-0.0215135
178.5,11.8802,1.80432,-0.0207351
179,11.9275,1.80334,-0.0185519
179.5,11.9753,1.79449,-0.0187693
180,12.0222,1.7969,-0.0207584
180.5,12.0703,1.80139,-0.021925
181,12.1172,1.80956,-0.0188824
181.5,12.1657,1.80351,-0.0175664
182,12.2119,1.80604,-0.0166991
182.5,12.2599,1.80493,-0.0136909
183,12.3073,1.81163,-0.0157055
183.5,12.3537,1.81285,-0.0190673
184,12.4011,1.80782,-0.0204192
184.5,12.448,1.80619,-0.0255228
185,12.4956,1.80671,-0.0271754
185.5,12.5429,1.81212,-0.0213741
186,12.5906,1.81634,-0.0172121
186.5,12.6374,1.81953,-0.01625
187,12.685,1.81925,-0.0162499
187.5,12.7325,1.82624,-0.0163608
188,12.7793,1.82515,-0.0118013
188.5,12.8257,1.82658,-0.0074588
189,12.8731,1.82832,-0.00829261
189.5,12.9205,1.8277,-0.0172834
190,12.9676,1.82818,-0.0217636
190.5,13.0151,1.82789,-0.0262296
191,13.0621,1.83144,-0.0277707
191.5,13.109,1.82635,-0.0268961
192,13.1561,1.83106,-0.020725
192.5,13.2038,1.83656,-0.0170581
193,13.25,1.84176,-0.0176621
193.5,13.2966,1.8397,-0.0188819
194,13.3451,1.83777,-0.01666
194.5,13.3917,1.84667,-0.0152758
195,13.4401,1.85049,-0.0142109
195.5,13.4864,1.84399,-0.0161454
196,13.5325,1.84541,-0.0205772
196.5,13.5793,1.84502,-0.0205399
197,13.6275,1.84276,-0.02
197.5,13.6751,1.84445,-0.0192387
198,13.7223,1.84668,-0.0194635
198.5,13.7698,1.85695,-0.0205156
199,13.8156,1.85901,-0.0194611
199.5,13.8632,1.85106,-0.0192097
200,13.9105,1.8568,-0.0206389
200.5,13.9575,1.85538,-0.0191743
201,14.0048,1.84996,-0.0192333
201.5,14.0516,1.85786,-0.0208202
202,14.0998,1.86046,-0.0235498
202.5,14.1462,1.8561,-0.024963
203,14.192,1.85955,-0.0275818
203.5,14.2414,1.85856,-0.028285
204,14.2868,1.86296,-0.0285893
204.5,14.3347,1.86232,-0.0297505
205,14.3824,1.86308,-0.0288591
205.5,14.4307,1.87326,-0.0191653
206,14.477,1.87913,-0.0136386
206.5,14.5239,1.88,-0.0156024
207,14.5716,1.87798,-0.0188293
207.5,14.6185,1.88078,-0.0224136
208,14.6657,1.88362,-0.0225709
208.5,14.714,1.89176,-0.0217391
209,14.7604,1.89595,-0.0200165
209.5,14.8074,1.90358,-0.0171153
210,14.8554,1.89497,-0.0183028
210.5,14.9015,1.90832,-0.0175801
211,14.9491,1.9086,-0.0179478
211.5,14.9974,1.90551,-0.0191483
212,15.045,1.91511,-0.0223717
212.5,15.091,1.912,-0.0224125
213,15.1385,1.91397,-0.0224114
213.5,15.186,1.91136,-0.0227991
214,15.2316,1.91156,-0.0250997
214.5,15.2803,1.92811,-0.0267243
215,15.3279,1.92807,-0.0280609
215.5,15.3748,1.93405,-0.0229135
216,15.4215,1.93489,-0.0196633
216.5,15.4686,1.93494,-0.0226154
217,15.5166,1.93558,-0.026375
217.5,15.5629,1.94128,-0.0250799
218,15.6097,1.94722,-0.0250158
218.5,15.658,1.94543,-0.0204339
219,15.705,1.95223,-0.0175629
219.5,15.7522,1.95315,-0.0161607
220,15.7994,1.95663,-0.0147947
220.5,15.8469,1.97033,-0.0148097
221,15.8947,1.96725,-0.0169012
221.5,15.942,1.97436,-0.0206021
222,15.9895,1.97756,-0.0237063
222.5,16.0371,1.97907,-0.0252501
223,16.0834,1.9832,-0.0239498
223.5,16.1307,1.99349,-0.023887
224,16.1799,1.99967,-0.0193792
224.5,16.2257,1.99737,-0.0176417
225,16.2732,2.00261,-0.0208815
225.5,16.3203,2.00948,-0.0253324
226,16.3676,2.01258,-0.0296754
226.5,16.4133,2.01887,-0.0292711
227,16.4636,2.02421,-0.0249074
227.5,16.5105,2.02445,-0.0237355
228,16.5584,2.02811,-0.0263541
228.5,16.6052,2.03122,-0.0286362
229,16.6526,2.04201,-0.0253702
229.5,16.7002,2.04646,-0.0249691
230,16.7482,2.05144,-0.0249193
230.5,16.7951,2.05672,-0.0239312
231,16.8429,2.06245,-0.022978
231.5,16.8888,2.07085,-0.0217401
232,16.9357,2.0721,-0.0204194
232.5,16.985,2.08118,-0.0188949
233,17.0316,2.08529,-0.0202622
233.5,17.0788,2.0839,-0.0202153
234,17.1257,2.09946,-0.0215192
234.5,17.1731,2.10262,-0.0236461
235,17.2215,2.10722,-0.0259158
235.5,17.266,2.11529,-0.0255826
236,17.3154,2.11773,-0.0231526
236.5,17.3622,2.12061,-0.023174
237,17.4108,2.12054,-0.0217879
237.5,17.4585,2.13669,-0.02185
238,17.506,2.13974,-0.0218671
238.5,17.5525,2.15349,-0.0279396
239,17.6004,2.16058,-0.0312375
239.5,17.6472,2.16681,-0.0275269
240,17.6947,2.17154,-0.0256399
240.5,17.7435,2.19023,-0.0258084
241,17.791,2.19292,-0.0271251
241.5,17.8376,2.20287,-0.0284655
242,17.8859,2.21477,-0.0281173
242.5,17.9327,2.22661,-0.026987
243,17.9809,2.24588,-0.0271233
243.5,18.0278,2.26132,-0.0257566
244,18.0757,2.27539,-0.0257795
244.5,18.1239,2.30009,-0.0270981
245,18.1712,2.32527,-0.0258004
245.5,18.2181,2.34929,-0.0258001
246,18.2657,2.39006,-0.0258091
246.5,18.3128,2.42566,-0.0225693
247,18.3605,2.45808,-0.0208545
247.5,18.4087,2.48955,-0.0216845
248,18.4582,2.54628,-0.0236075
248.5,18.5046,2.5955,-0.024962
249,18.5521,2.65732,-0.0249302
249.5,18.6018,2.72383,-0.0258727
250,18.6498,2.81004,-0.0262321
250.5,18.6987,2.90778,-0.0248812
251,18.748,3.03735,-0.0234503
251.5,18.7962,3.18197,-0.026028
252,18.8466,3.36643,-0.02635
252.5,18.8946,3.54133,-0.0263485
253,18.9462,3.73652,-0.0264831
253.5,18.9952,3.9252,-0.0264499
254,19.0458,4.11177,-0.0229599
254.5,19.095,4.28486,-0.022294
255,19.1442,4.45783,-0.020846
255.5,19.1938,4.60985,-0.019546
256,19.2426,4.74443,-0.0206755
256.5,19.2913,4.87266,-0.0249231
257,19.3409,4.99068,-0.0284138
257.5,19.39,5.11557,-0.0299155
258,19.4386,5.239,-0.0268129
258.5,19.4879,5.37257,-0.0252753
259,19.5368,5.50054,-0.024532
259.5,19.5851,5.62631,-0.0245752
260,19.6355,5.76577,-0.0249704
260.5,19.6846,5.89083,-0.0263183
261,19.7341,6.00134,-0.0270003
261.5,19.7789,6.09071,-0.0281096
262,19.8301,6.15108,-0.0295274
262.5,19.8782,6.10748,-0.02953
263,19.9227,5.85891,-0.02953
263.5,19.964,5.35131,-0.02953
264,20.0048,4.68169,-0.0295295
264.5,20.0454,4.0799,-0.0299345
265,20.0878,3.59358,-0.0308614
265.5,20.1303,3.21891,-0.0321706
266,20.1742,2.94031,-0.0321727
266.5,20.2187,2.70974,-0.0308029
267,20.2648,2.53903,-0.0308501
267.5,20.309,2.41398,-0.0295148
268,20.357,2.3171,-0.0282488
268.5,20.3999,2.24559,-0.0255747
269,20.4483,2.18841,-0.02558
269.5,20.4952,2.1475,-0.0255797
270,20.5419,2.11809,-0.0256339
270.5,20.5897,2.089,-0.0255807
271,20.6368,2.07412,-0.0255801
271.5,20.6835,2.06777,-0.0255595
272,20.7304,2.04659,-0.0254936
272.5,20.7785,2.04473,-0.0269161
273,20.8253,2.03651,-0.0282179
273.5,20.8723,2.03864,-0.0268287
274,20.9202,2.03282,-0.0269001
274.5,20.9672,2.02966,-0.0268998
275,21.0153,2.02545,-0.0263042
275.5,21.0619,2.02668,-0.0255909
276,21.1079,2.02626,-0.0270163
276.5,21.1582,2.02692,-0.0286786
277,21.2044,2.01639,-0.030043
277.5,21.2523,2.0179,-0.0300271
278,21.2999,2.01359,-0.030959
278.5,21.3484,2.01085,-0.0309691
279,21.3962,2.0098,-0.0322673
279.5,21.4428,2.0092,-0.0322801
280,21.4904,2.01347,-0.0322416
280.5,21.5378,2.0046,-0.0309596
281,21.5855,2.00618,-0.0309601
281.5,21.6324,2.00613,-0.031755
282,21.6808,2.01043,-0.0322797
282.5,21.7278,2.01293,-0.0309554
283,21.7753,2.01276,-0.0309698
283.5,21.8226,2.01377,-0.0322645
284,21.8709,2.0131,-0.0312421
284.5,21.9183,2.01625,-0.0308562
285,21.9664,2.01807,-0.0294307
285.5,22.013,2.01688,-0.0279952
286,22.0616,2.01657,-0.0293583
286.5,22.1094,2.01156,-0.0293199
287,22.1563,2.01112,-0.02932
287.5,22.2042,2.01929,-0.0293232
288,22.2514,2.01444,-0.0292149
288.5,22.2993,2.0209,-0.0293101
289,22.3468,2.01724,-0.0293085
289.5,22.3941,2.01687,-0.0277986
290,22.4402,2.0138,-0.0264591
290.5,22.4874,2.01227,-0.0277108
291,22.5384,2.01556,-0.0297891
291.5,22.5851,2.01522,-0.0299283
292,22.632,2.00468,-0.0299648
292.5,22.6809,2.01293,-0.0300774
293,22.728,2.00969,-0.027946
293.5,22.7761,2.00729,-0.0282214
294,22.8229,2.00629,-0.0269001
294.5,22.8714,2.01065,-0.0284396
295,22.9192,2.01136,-0.0300443
295.5,22.9661,2.0088,-0.0326121
296,23.0144,2.00673,-0.0312853
296.5,23.0617,2.00029,-0.0312904
297,23.1094,2.0049,-0.0307207
297.5,23.1568,2.00715,-0.0295907
298,23.2047,2.00013,-0.0289801
298.5,23.2529,2.00779,-0.0289331
299,23.3002,2.00789,-0.0301652
299.5,23.3475,2.00817,-0.0316176
300,23.3962,2.00195,-0.0312846
300.5,23.4426,2.00019,-0.0299694
301,23.4907,2.00454,-0.0296473
301.5,23.5383,2.00361,-0.0296427
302,23.5862,1.99621,-0.0286602
302.5,23.6341,2.00216,-0.0305296
303,23.682,1.99103,-0.0324617
303.5,23.7303,1.99481,-0.0337999
304,23.7754,1.98704,-0.034152
304.5,23.8251,1.98756,-0.0314096
305,23.8732,1.98921,-0.0311799
305.5,23.9203,1.99669,-0.0311845
306,23.9686,1.99591,-0.0329813
306.5,24.0168,1.99785,-0.0361085
307,24.0653,1.98338,-0.0387759
307.5,24.1121,1.98612,-0.0400563
308,24.1611,1.98772,-0.0395794
308.5,24.2075,1.98535,-0.0369717
309,24.2561,1.98312,-0.0370001
309.5,24.304,1.98893,-0.0374237
310,24.3515,1.98981,-0.0367694
310.5,24.4,1.98823,-0.0353631
311,24.4485,1.98619,-0.0330336
311.5,24.495,1.9839,-0.0330511
312,24.544,1.99231,-0.0340117
312.5,24.5913,1.99267,-0.0356843
313,24.6397,1.98657,-0.0377678
313.5,24.6872,1.99007,-0.0376599
314,24.7351,1.98958,-0.03766
314.5,24.7827,1.9892,-0.0376338
315,24.8314,1.99373,-0.0363413
315.5,24.8782,1.99094,-0.0357209
316,24.9273,1.99364,-0.0350412
316.5,24.975,1.99639,-0.0363278
317,25.0239,1.99792,-0.0376655
317.5,25.0709,1.99365,-0.0380836
318,25.1183,1.9928,-0.0386499
318.5,25.1667,1.9948,-0.0386501
319,25.2147,1.99289,-0.0391932
319.5,25.2627,1.99646,-0.0386778
320,25.3106,1.99944,-0.038799
320.5,25.3591,1.99843,-0.0392995
321,25.4067,2.00101,-0.0392557
321.5,25.4526,1.99706,-0.0393134
322,25.5009,2.00306,-0.037315
322.5,25.5509,1.99236,-0.0366696
323,25.5992,1.98966,-0.0373237
323.5,25.6476,2.00494,-0.0379903
324,25.6954,2.00026,-0.0379941
324.5,25.7433,2.00362,-0.0379978
325,25.7905,2.00269,-0.0407354
325.5,25.8393,2.00789,-0.0419493
326,25.887,2.00472,-0.043296
326.5,25.9356,2.0009,-0.0432885
327,25.9839,2.00895,-0.0445732
327.5,26.0311,2.00795,-0.045893
328,26.0792,2.00909,-0.0458817
328.5,26.1282,2.01184,-0.045884
329,26.1746,2.00888,-0.0458743
329.5,26.2243,2.01557,-0.0432703
330,26.272,2.01571,-0.0433086
330.5,26.3203,2.01937,-0.0419958
331,26.369,2.02269,-0.040835
331.5,26.4166,2.02291,-0.0419662
332,26.4638,2.01787,-0.0424041
332.5,26.5128,2.0252,-0.0442868
333,26.5606,2.02272,-0.0451855
333.5,26.6074,2.01864,-0.0452098
334,26.6569,2.01526,-0.048002
334.5,26.7051,2.02349,-0.0504314
335,26.7535,2.02813,-0.0500896
335.5,26.8022,2.03237,-0.0502783
336,26.8499,2.03737,-0.0502081
336.5,26.8974,2.03887,-0.0507346
337,26.946,2.03709,-0.053028
337.5,26.9947,2.04621,-0.0539027
338,27.0429,2.0457,-0.051764
338.5,27.091,2.05387,-0.0514903
339,27.1394,2.05804,-0.0514657
339.5,27.187,2.05826,-0.0501154
340,27.2351,2.06068,-0.0503204
340.5,27.2834,2.06195,-0.053139
341,27.3318,2.0669,-0.0552605
341.5,27.3799,2.07269,-0.0566541
342,27.4286,2.07457,-0.0566468
342.5,27.477,2.08559,-0.0590398
343,27.5253,2.08519,-0.0627961
343.5,27.5738,2.08716,-0.0625175
344,27.6215,2.09239,-0.0599177
344.5,27.6688,2.0907,-0.05709
345,27.7186,2.10524,-0.0557712
345.5,27.7673,2.10954,-0.0544198
346,27.8152,2.12467,-0.0544601
346.5,27.8635,2.12193,-0.05446
347,27.9128,2.13002,-0.0544695
347.5,27.9595,2.13002,-0.0567377
348,28.0079,2.1335,-0.0602402
348.5,28.0571,2.14603,-0.0629926
349,28.1057,2.15505,-0.0625064
349.5,28.1531,2.15719,-0.0610284
350,28.2024,2.16504,-0.0624733
350.5,28.2501,2.18747,-0.06247
351,28.2999,2.19137,-0.0624802
351.5,28.3478,2.19542,-0.0638753
352,28.3959,2.2005,-0.0631318
352.5,28.4444,2.21811,-0.0643659
353,28.4943,2.22525,-0.0672651
353.5,28.5422,2.23318,-0.0694914
354,28.5902,2.24379,-0.070836
354.5,28.6396,2.25708,-0.0725061
355,28.6882,2.27219,-0.0730103
355.5,28.7338,2.27895,-0.073006
356,28.7823,2.30128,-0.0717072
356.5,28.8331,2.31626,-0.0716865
357,28.8814,2.3356,-0.0717277
357.5,28.9297,2.34818,-0.0716662
358,28.9788,2.37141,-0.0746966
358.5,29.0272,2.38628,-0.0759698
359,29.0735,2.40452,-0.0759734
359.5,29.1247,2.41969,-0.0772168
360,29.1733,2.44288,-0.0813121
360.5,29.2221,2.4665,-0.0814701
361,29.2709,2.48331,-0.0815277
361.5,29.3197,2.50618,-0.0804356
362,29.3689,2.53025,-0.0814562
362.5,29.4166,2.55125,-0.0827861
363,29.4656,2.56889,-0.0831045
363.5,29.514,2.59202,-0.0845284
364,29.5629,2.60324,-0.0896171
364.5,29.6105,2.6233,-0.0940323
365,29.6595,2.64336,-0.0963607
365.5,29.7082,2.66294,-0.0999942
366,29.7563,2.65804,-0.102105
366.5,29.8037,2.68445,-0.104527
367,29.8526,2.69545,-0.106311
367.5,29.9011,2.70875,-0.110879
368,29.9507,2.72465,-0.112089
368.5,29.999,2.72903,-0.113457
369,30.0472,2.74129,-0.114833
369.5,30.0964,2.75558,-0.117065
370,30.1438,2.75999,-0.119239
370.5,30.1926,2.76908,-0.122774
371,30.2421,2.78515,-0.124313
371.5,30.2905,2.80227,-0.124532
372,30.3385,2.81348,-0.125571
372.5,30.3869,2.82632,-0.126482
373,30.4334,2.84698,-0.129412
373.5,30.483,2.86879,-0.133024
374,30.5328,2.87737,-0.135917
374.5,30.5813,2.88378,-0.138548
375,30.6295,2.88644,-0.141893
375.5,30.6786,2.8963,-0.145933
376,30.727,2.89704,-0.148042
376.5,30.7737,2.90481,-0.151095
377,30.8238,2.91631,-0.154471
377.5,30.8724,2.92501,-0.157722
378,30.9216,2.94356,-0.159297
378.5,30.9699,2.95989,-0.162675
379,31.0183,2.9738,-0.165912
379.5,31.0668,2.99478,-0.167834
380,31.1139,3.01338,-0.173274
380.5,31.164,3.03195,-0.178038
381,31.2123,3.03227,-0.181407
381.5,31.2623,3.04792,-0.18466
382,31.3093,3.05003,-0.18915
382.5,31.3581,3.05893,-0.193449
383,31.4083,3.08204,-0.199497
383.5,31.4564,3.09069,-0.203849
384,31.5045,3.11971,-0.207289
384.5,31.5537,3.13352,-0.220883
385,31.6035,3.18385,-0.229871
385.5,31.6523,3.26824,-0.236861
386,31.7007,3.30534,-0.247104
386.5,31.7501,3.32788,-0.249867
387,31.7988,3.35846,-0.25503
387.5,31.8454,3.3852,-0.261199
388,31.8966,3.42011,-0.267611
388.5,31.9462,3.45471,-0.268893
389,31.9952,3.48321,-0.273163
389.5,32.0445,3.52501,-0.27689
390,32.0925,3.54965,-0.283209
390.5,32.1422,3.57719,-0.303031
391,32.1912,3.61153,-0.308228
391.5,32.2407,3.64723,-0.319893
392,32.29,3.68627,-0.33128
392.5,32.3392,3.72504,-0.335304
393,32.3874,3.76192,-0.336753
393.5,32.4367,3.78141,-0.342865
394,32.4861,3.81167,-0.353952
394.5,32.5353,3.83589,-0.358751
395,32.5833,3.86603,-0.367828
395.5,32.6326,3.88688,-0.377657
396,32.6818,3.92012,-0.391224
396.5,32.7313,3.94685,-0.402411
397,32.7803,3.99849,-0.410449
397.5,32.8306,4.04342,-0.420643
398,32.8791,4.06372,-0.432567
398.5,32.9272,4.08522,-0.444997
399,32.9764,4.12516,-0.454023
399.5,33.0258,4.13703,-0.463436
400,33.0746,4.18028,-0.472516
400.5,33.1246,4.22556,-0.482838
401,33.1731,4.26117,-0.491933
401.5,33.2213,4.2752,-0.503534
402,33.2713,4.30102,-0.514606
402.5,33.3199,4.33939,-0.525447
403,33.3684,4.37235,-0.537793
403.5,33.4191,4.39374,-0.552309
404,33.4663,4.42277,-0.565421
404.5,33.5156,4.45048,-0.576695
405,33.5651,4.47118,-0.588562
405.5,33.6147,4.51574,-0.602808
406,33.6637,4.55331,-0.618284
406.5,33.713,4.59324,-0.630717
407,33.7625,4.58192,-0.649781
407.5,33.8118,4.62737,-0.666904
408,33.8612,4.68309,-0.683251
408.5,33.9107,4.70722,-0.697286
409,33.96,4.75726,-0.709243
409.5,34.01,4.78438,-0.723633
410,34.0591,4.80694,-0.735976
410.5,34.1077,4.83749,-0.751488
411,34.1584,4.85204,-0.768503
411.5,34.2074,4.88242,-0.785104
412,34.257,4.92192,-0.802329
412.5,34.3058,4.95653,-0.818766
413,34.3544,4.99586,-0.837994
413.5,34.4061,5.0333,-0.861033
414,34.4539,5.05843,-0.879392
414.5,34.5041,5.07962,-0.893745
415,34.5539,5.10655,-0.90828
415.5,34.6033,5.13541,-0.927588
416,34.6528,5.1628,-0.947604
416.5,34.7021,5.18061,-0.965492
417,34.751,5.19293,-0.984532
417.5,34.8,5.21836,-1.00348
418,34.8507,5.2415,-1.02296
418.5,34.8994,5.27029,-1.04305
419,34.9497,5.28713,-1.06372
419.5,34.9987,5.3057,-1.08468
420,35.0472,5.3328,-1.10893
420.5,35.0973,5.35407,-1.13246
421,35.1467,5.37607,-1.15721
421.5,35.1958,5.39401,-1.18396
422,35.2454,5.41627,-1.20189
422.5,35.2948,5.43285,-1.22585
423,35.345,5.45658,-1.24929
423.5,35.3936,5.46553,-1.27166
424,35.4432,5.48069,-1.29337
424.5,35.4921,5.49623,-1.31877
425,35.5411,5.50905,-1.33837
425.5,35.5911,5.525,-1.36274
426,35.6397,5.54055,-1.38649
426.5,35.6891,5.54842,-1.41217
427,35.738,5.55303,-1.43952
427.5,35.7872,5.55517,-1.46457
428,35.837,5.56215,-1.4918
428.5,35.8857,5.57148,-1.52026
429,35.9347,5.57512,-1.54877
429.5,35.9841,5.56936,-1.57555
430,36.033,5.56414,-1.60194
430.5,36.0818,5.56562,-1.62939
431,36.1317,5.55695,-1.65651
431.5,36.1795,5.55458,-1.68267
432,36.2294,5.54236,-1.71014
432.5,36.2785,5.53621,-1.7412
433,36.327,5.51352,-1.77097
433.5,36.3758,5.50535,-1.79833
434,36.4243,5.48279,-1.82625
434.5,36.4742,5.46047,-1.85702
435,36.5221,5.43102,-1.88555
435.5,36.5713,5.40722,-1.91372
436,36.6197,5.37909,-1.94395
436.5,36.6684,5.34931,-1.97377
437,36.7177,5.30606,-2.00689
437.5,36.7659,5.27121,-2.03821
438,36.8141,5.23816,-2.06584
438.5,36.8627,5.19204,-2.0917
439,36.9109,5.15877,-2.11991
439.5,36.9597,5.11302,-2.1511
440,37.0088,5.06534,-2.18493
440.5,37.056,5.0205,-2.21378
441,37.1031,4.96838,-2.24321
441.5,37.1535,4.91863,-2.27293
442,37.2015,4.86996,-2.30044
442.5,37.2474,4.80241,-2.32804
443,37.2989,4.75192,-2.35601
443.5,37.3474,4.68362,-2.38393
444,37.3955,4.62255,-2.4122
444.5,37.4437,4.56572,-2.43983
445,37.4923,4.49646,-2.46752
445.5,37.5405,4.43573,-2.49483
446,37.5892,4.35751,-2.52413
446.5,37.6375,4.29425,-2.55634
447,37.6851,4.21767,-2.58579
447.5,37.7335,4.1422,-2.61721
448,37.7818,4.07417,-2.64293
448.5,37.8302,3.99148,-2.66915
449,37.8762,3.91828,-2.69383
449.5,37.9266,3.83841,-2.72277
450,37.9738,3.76865,-2.74828
450.5,38.0224,3.68749,-2.77192
451,38.0698,3.60194,-2.79561
451.5,38.1189,3.52142,-2.82285
452,38.167,3.44018,-2.84722
452.5,38.2145,3.36064,-2.8686
453,38.2625,3.27878,-2.89077
453.5,38.3112,3.19993,-2.91562
454,38.3587,3.11892,-2.94248
454.5,38.407,3.03806,-2.96852
455,38.4562,2.95523,-2.9912
455.5,38.5039,2.86837,-3.01084
456,38.5515,2.8009,-3.02819
456.5,38.6006,2.72377,-3.04689
457,38.6483,2.6427,-3.06618
457.5,38.6968,2.56582,-3.091
458,38.7451,2.48135,-3.11897
458.5,38.793,2.4151,-3.13992
459,38.8414,2.35189,-3.16084
459.5,38.8913,2.26141,-3.1805
460,38.9361,2.1834,-3.19994
460.5,38.9866,2.12405,-3.22057
461,39.0354,2.06774,-3.24021
461.5,39.0843,2.00955,-3.25771
462,39.1325,1.9556,-3.27283
462.5,39.1814,1.89529,-3.28998
463,39.2298,1.84023,-3.30809
463.5,39.2787,1.77,-3.32512
464,39.3269,1.7052,-3.34251
464.5,39.3758,1.65896,-3.35668
465,39.4241,1.60773,-3.37291
465.5,39.4729,1.56487,-3.39024
466,39.5217,1.49312,-3.40789
466.5,39.5697,1.44931,-3.4213
467,39.6194,1.39215,-3.43272
467.5,39.6674,1.34251,-3.4459
468,39.7168,1.28965,-3.46051
468.5,39.7647,1.23566,-3.47318
469,39.8132,1.19968,-3.48565
469.5,39.8623,1.1466,-3.50118
470,39.9112,1.10663,-3.51576
470.5,39.9603,1.07373,-3.53185
471,40.0094,1.01828,-3.54603
471.5,40.058,0.975721,-3.55797
472,40.1067,0.942304,-3.56938
472.5,40.1554,0.898809,-3.57991
473,40.2032,0.858346,-3.58874
473.5,40.2533,0.817648,-3.59697
474,40.3021,0.774162,-3.60616
474.5,40.3512,0.740854,-3.61551
475,40.4001,0.70506,-3.62434
475.5,40.449,0.669044,-3.63409
476,40.4978,0.631833,-3.64342
476.5,40.5464,0.620117,-3.65283
477,40.5943,0.58126,-3.66128
477.5,40.644,0.537215,-3.67134
478,40.6927,0.516979,-3.67893
478.5,40.74,0.48989,-3.68546
479,40.79,0.460813,-3.68928
479.5,40.8397,0.428213,-3.69295
480,40.8889,0.409941,-3.6988
480.5,40.9382,0.384895,-3.70486
481,40.9866,0.359387,-3.71204
481.5,41.0355,0.339192,-3.72055
482,41.0841,0.319476,-3.72676
482.5,41.1341,0.288029,-3.73172
483,41.1827,0.278146,-3.73437
483.5,41.2321,0.252748,-3.7358
484,41.2805,0.236424,-3.73735
484.5,41.3303,0.213239,-3.74061
485,41.3793,0.194715,-3.74461
485.5,41.4281,0.176009,-3.75137
486,41.4772,0.156384,-3.75685
486.5,41.5267,0.144368,-3.76368
487,41.5763,0.118237,-3.76985
487.5,41.6254,0.109482,-3.77132
488,41.6745,0.0798613,-3.77421
488.5,41.724,0.0679837,-3.77306
489,41.7731,0.0585675,-3.77479
489.5,41.8222,0.0504294,-3.77508
490,41.8716,0.0282803,-3.77377
490.5,41.9208,0.0196701,-3.77393
491,41.9701,0.00464927,-3.78003
491.5,42.0191,-0.0113513,-3.78412
492,42.069,-0.0277599,-3.78465
492.5,42.1172,-0.0366488,-3.78469
493,42.1676,-0.0516532,-3.78911
493.5,42.2189,-0.0581515,-3.79199
494,42.2667,-0.0687568,-3.79332
494.5,42.3155,-0.068647,-3.79128
495,42.367,-0.0833565,-3.7896
495.5,42.4152,-0.0856986,-3.79216
496,42.4641,-0.0866567,-3.79221
496.5,42.5144,-0.0898628,-3.78978
497,42.563,-0.0953901,-3.79019
497.5,42.6118,-0.104532,-3.7898
498,42.6616,-0.103917,-3.78983
498.5,42.7112,-0.108559,-3.79274
499,42.7611,-0.108827,-3.79397
499.5,42.8108,-0.124064,-3.79256
500,42.8597,-0.14126,-3.79266
500.5,42.9096,-0.146296,-3.79395
501,42.9591,-0.147774,-3.79476
501.5,43.009,-0.143785,-3.80015
502,43.0586,-0.142607,-3.80503
502.5,43.1079,-0.147171,-3.80286
503,43.1586,-0.147369,-3.79834
503.5,43.2069,-0.152662,-3.79213
504,43.2566,-0.156748,-3.79035
504.5,43.3042,-0.159622,-3.79384
505,43.3562,-0.159457,-3.79639
505.5,43.4051,-0.157756,-3.79639
506,43.4555,-0.159235,-3.79508
506.5,43.5043,-0.161335,-3.79645
507,43.5541,-0.171158,-3.79708
507.5,43.6036,-0.16996,-3.79653
508,43.6531,-0.176349,-3.79772
508.5,43.703,-0.174099,-3.79909
509,43.7491,-0.178596,-3.79926
509.5,43.8016,-0.175471,-3.79926
510,43.8518,-0.174712,-3.802
510.5,43.901,-0.183175,-3.80418
511,43.9495,-0.189316,-3.8042
511.5,44.0003,-0.192114,-3.8042
512,44.0496,-0.189357,-3.80267
512.5,44.0993,-0.193227,-3.80004
513,44.1485,-0.19746,-3.80177
513.5,44.1984,-0.202595,-3.80391
514,44.2482,-0.209915,-3.80225
514.5,44.2976,-0.20755,-3.79622
515,44.3473,-0.207956,-3.7951
515.5,44.3962,-0.213744,-3.79684
516,44.4464,-0.217642,-3.79826
516.5,44.4962,-0.215517,-3.799
517,44.5463,-0.210491,-3.79795
517.5,44.5949,-0.215041,-3.80014
518,44.6441,-0.220273,-3.80188
518.5,44.694,-0.217573,-3.79926
519,44.7435,-0.219732,-3.79864
519.5,44.7933,-0.219332,-3.80012
520,44.8434,-0.221625,-3.80145
520.5,44.8928,-0.218614,-3.80151
521,44.9424,-0.21595,-3.7979
521.5,44.9916,-0.213741,-3.80133
522,45.0415,-0.21766,-3.80372
522.5,45.0908,-0.219464,-3.80778
523,45.1405,-0.218887,-3.80707
523.5,45.1898,-0.218849,-3.80705
524,45.2401,-0.22207,-3.80778
524.5,45.2873,-0.223254,-3.80703
525,45.3384,-0.228844,-3.80544
525.5,45.3881,-0.222233,-3.80098
526,45.438,-0.222914,-3.79802
526.5,45.4879,-0.227675,-3.79673
527,45.5363,-0.222676,-3.79761
527.5,45.5862,-0.223324,-3.79944
528,45.6359,-0.223597,-3.80441
528.5,45.6858,-0.230688,-3.8066
529,45.735,-0.228363,-3.80716
529.5,45.7854,-0.229459,-3.81117
530,45.8332,-0.229648,-3.81566
530.5,45.8836,-0.227393,-3.81856
531,45.931,-0.245851,-3.81688
531.5,45.9826,-0.23579,-3.81572
532,46.0317,-0.23258,-3.81022
532.5,46.0818,-0.270045,-3.80538
533,46.132,-0.305004,-3.80131
533.5,46.1809,-0.31459,-3.79968
534,46.2284,-0.320036,-3.7983
534.5,46.2801,-0.307276,-3.79957
535,46.3302,-0.315466,-3.80466
535.5,46.3794,-0.326817,-3.80455
536,46.4288,-0.346841,-3.80221
536.5,46.4795,-0.356057,-3.80102
537,46.5286,-0.362313,-3.80484
537.5,46.5786,-0.366178,-3.80779
538,46.6285,-0.374268,-3.80692
538.5,46.6775,-0.371946,-3.80654
539,46.7277,-0.371043,-3.80621
539.5,46.7779,-0.374875,-3.80763
540,46.827,-0.379966,-3.80625
540.5,46.8763,-0.38229,-3.80759
541,46.9265,-0.37767,-3.8076
541.5,46.9765,-0.381893,-3.80463
542,47.027,-0.386493,-3.80084
542.5,47.0763,-0.38525,-3.80455
543,47.1264,-0.322527,-3.80518
543.5,47.1755,-0.290456,-3.80387
544,47.2254,-0.283943,-3.80387
544.5,47.2754,-0.269084,-3.80281
545,47.3257,-0.266335,-3.8057
545.5,47.3748,-0.25389,-3.8067
546,47.4243,-0.263065,-3.80435
546.5,47.4752,-0.266987,-3.80455
547,47.5243,-0.27047,-3.81054
547.5,47.5741,-0.278965,-3.81647
548,47.6244,-0.280885,-3.81343
548.5,47.6732,-0.274517,-3.80673
549,47.7235,-0.273039,-3.80225
549.5,47.7733,-0.276463,-3.80102
550,47.8232,-0.279853,-3.80466
550.5,47.873,-0.282539,-3.80464
551,47.9228,-0.278786,-3.80736
551.5,47.9731,-0.284603,-3.80712
552,48.0221,-0.268203,-3.8056
552.5,48.0722,-0.273528,-3.80596
553,48.1222,-0.281874,-3.81475
553.5,48.1726,-0.275084,-3.8165
554,48.2223,-0.281794,-3.81015
554.5,48.2722,-0.276852,-3.80366
555,48.3218,-0.271827,-3.8047
555.5,48.3717,-0.272054,-3.80948
556,48.4224,-0.343365,-3.81149
556.5,48.4713,-0.355445,-3.81299
557,48.5216,-0.373451,-3.80926
557.5,48.5718,-0.375782,-3.80608
558,48.6209,-0.375753,-3.80529
558.5,48.6712,-0.376123,-3.80652
559,48.7213,-0.379241,-3.80662
559.5,48.7706,-0.376796,-3.80526
560,48.8202,-0.378562,-3.80395
560.5,48.8702,-0.373651,-3.80721
561,48.92,-0.376561,-3.81025
561.5,48.9699,-0.358924,-3.81034
562,49.02,-0.365961,-3.80901
562.5,49.0695,-0.368394,-3.80903
563,49.1185,-0.360792,-3.80739
563.5,49.1688,-0.37015,-3.80695
564,49.2181,-0.371733,-3.80737
564.5,49.2681,-0.381976,-3.80869
565,49.3181,-0.374565,-3.80869
565.5,49.3656,-0.380818,-3.8087
566,49.4177,-0.327914,-3.80873
566.5,49.4676,-0.301674,-3.81179
567,49.5176,-0.285323,-3.81009
567.5,49.5674,-0.276497,-3.8065
568,49.6167,-0.272849,-3.80515
568.5,49.667,-0.277656,-3.80452
569,49.7161,-0.276413,-3.80582
569.5,49.7658,-0.275029,-3.80716
570,49.817,-0.268293,-3.80609
570.5,49.8665,-0.270396,-3.80716
571,49.9151,-0.272265,-3.80556
571.5,49.9663,-0.266286,-3.80694
572,50.0158,-0.271507,-3.80704
572.5,50.0656,-0.261554,-3.80824
573,50.1156,-0.262523,-3.80962
573.5,50.1651,-0.263193,-3.80858
574,50.2152,-0.259975,-3.80624
574.5,50.2648,-0.259988,-3.80329
575,50.3153,-0.263811,-3.80789
575.5,50.3641,-0.265442,-3.81202
576,50.4161,-0.266505,-3.81534
576.5,50.465,-0.271903,-3.81814
577,50.5153,-0.263939,-3.81514
577.5,50.5663,-0.264009,-3.81663
578,50.6154,-0.261534,-3.82103
578.5,50.6661,-0.266769,-3.81792
579,50.7154,-0.272057,-3.81376
579.5,50.7659,-0.271723,-3.81096
580,50.8154,-0.2715,-3.80535
580.5,50.8647,-0.270401,-3.80788
581,50.9147,-0.267389,-3.80987
581.5,50.963,-0.355996,-3.81392
582,51.0148,-0.374951,-3.81154
582.5,51.0655,-0.388798,-3.8163
583,51.1155,-0.403484,-3.81523
583.5,51.1647,-0.409214,-3.8095
584,51.2145,-0.404192,-3.8069
584.5,51.2631,-0.410106,-3.80373
585,51.315,-0.391722,-3.80374
585.5,51.3658,-0.338601,-3.80506
586,51.4164,-0.315001,-3.80771
586.5,51.4667,-0.299726,-3.8077
587,51.5175,-0.223423,-3.81117
587.5,51.5671,-0.193692,-3.81517
588,51.616,-0.245309,-3.81646
588.5,51.6649,-0.249847,-3.81409
589,51.7155,-0.270415,-3.81154
589.5,51.7651,-0.313555,-3.80813
590,51.8137,-0.362833,-3.8031
590.5,51.8652,-0.380108,-3.80013
591,51.9146,-0.393076,-3.80756
591.5,51.9649,-0.413783,-3.81561
592,52.0152,-0.403464,-3.81588
592.5,52.0643,-0.414274,-3.81335
593,52.1151,-0.418081,-3.81039
593.5,52.1661,-0.417323,-3.80902
594,52.215,-0.422196,-3.81095
594.5,52.2656,-0.374132,-3.81852
595,52.3159,-0.336295,-3.81981
595.5,52.3661,-0.31745,-3.8166
596,52.4162,-0.304401,-3.80968
596.5,52.4667,-0.304387,-3.80639
597,52.5165,-0.305943,-3.80404
597.5,52.5663,-0.305114,-3.8067
598,52.6169,-0.304394,-3.81503
598.5,52.6667,-0.304554,-3.81807
599,52.7159,-0.305177,-3.81507
599.5,52.7675,-0.310495,-3.81243
600,52.8166,-0.313251,-3.8111
600.5,52.8675,-0.308848,-3.80936
601,52.9171,-0.310466,-3.81179
601.5,52.9676,-0.314246,-3.81464
602,53.0182,-0.318219,-3.81386
602.5,53.0674,-0.313471,-3.8131
603,53.1177,-0.317094,-3.81375
603.5,53.168,-0.316651,-3.81076
604,53.2188,-0.312528,-3.81087
604.5,53.2679,-0.316275,-3.8132
605,53.3185,-0.311542,-3.81125
605.5,53.3682,-0.309529,-3.80897
606,53.4195,-0.228673,-3.80749
606.5,53.4684,-0.216407,-3.80966
607,53.5193,-0.20583,-3.81371
607.5,53.5684,-0.205517,-3.81351
608,53.6195,-0.206608,-3.81228
608.5,53.67,-0.197121,-3.81052
609,53.7192,-0.287022,-3.80918
609.5,53.7686,-0.305361,-3.80891
610,53.8171,-0.32962,-3.80694
610.5,53.8675,-0.333767,-3.80701
611,53.9195,-0.329762,-3.81034
611.5,53.9697,-0.265621,-3.81045
612,54.02,-0.237649,-3.81638
612.5,54.0704,-0.216459,-3.82268
613,54.1206,-0.224848,-3.82107
613.5,54.1708,-0.31127,-3.81669
614,54.222,-0.323586,-3.813
614.5,54.2716,-0.326106,-3.80945
615,54.3221,-0.334733,-3.80782
615.5,54.3721,-0.335142,-3.81157
616,54.4225,-0.337717,-3.81351
616.5,54.4715,-0.342238,-3.81422
617,54.5217,-0.445783,-3.81817
617.5,54.572,-0.472835,-3.82139
618,54.6222,-0.484528,-3.82598
618.5,54.6724,-0.497204,-3.81956
619,54.7222,-0.512085,-3.81617
619.5,54.7718,-0.514445,-3.81452
620,54.8239,-0.432,-3.81322
620.5,54.8742,-0.423141,-3.81146
621,54.9247,-0.403858,-3.80843
621.5,54.975,-0.304725,-3.81297
622,55.025,-0.347884,-3.81672
622.5,55.0746,-0.357224,-3.81726
623,55.1253,-0.440064,-3.81726
623.5,55.1758,-0.471626,-3.81858
624,55.2254,-0.480688,-3.817
624.5,55.2744,-0.441561,-3.81267
625,55.325,-0.416583,-3.81072
625.5,55.3764,-0.402209,-3.80825
626,55.4264,-0.398608,-3.8099
626.5,55.4758,-0.395736,-3.81117
627,55.526,-0.394979,-3.81092
627.5,55.5762,-0.388588,-3.81175
628,55.6277,-0.397289,-3.81382
628.5,55.6776,-0.395901,-3.81646
629,55.7273,-0.400325,-3.81792
629.5,55.778,-0.401935,-3.81739
630,55.8286,-0.409001,-3.81485
630.5,55.8783,-0.461084,-3.81388
631,55.9294,-0.492491,-3.81492
631.5,55.9792,-0.505718,-3.81468
632,56.0305,-0.480503,-3.81414
632.5,56.0802,-0.439705,-3.81513
633,56.1308,-0.420974,-3.81527
633.5,56.1818,-0.488129,-3.81289
634,56.2318,-0.506593,-3.81298
634.5,56.2822,-0.522594,-3.81281
635,56.332,-0.53313,-3.81565
635.5,56.3829,-0.544693,-3.81594
636,56.4319,-0.555749,-3.81449
636.5,56.483,-0.551293,-3.81595
637,56.5337,-0.557072,-3.8159
637.5,56.5837,-0.550929,-3.81449
638,56.6345,-0.548947,-3.81319
638.5,56.6845,-0.500806,-3.81463
639,56.7352,-0.466751,-3.81591
639.5,56.7854,-0.451844,-3.81595
640,56.8365,-0.439007,-3.81673
640.5,56.8868,-0.444565,-3.81726
641,56.9365,-0.437252,-3.81726
641.5,56.9865,-0.436943,-3.81726
642,57.0371,-0.443372,-3.81724
642.5,57.085,-0.526843,-3.82026
643,57.1376,-0.547304,-3.819
643.5,57.1887,-0.559702,-3.81908
644,57.2387,-0.570213,-3.82074
644.5,57.2894,-0.576101,-3.82238
645,57.3389,-0.577462,-3.82307
645.5,57.3897,-0.57662,-3.82309
646,57.4407,-0.58603,-3.81873
646.5,57.4897,-0.588285,-3.81458
647,57.5396,-0.589066,-3.81339
647.5,57.5909,-0.589393,-3.8108
648,57.6404,-0.584725,-3.81154
648.5,57.6911,-0.574474,-3.8121
649,57.7411,-0.60757,-3.81315
649.5,57.7918,-0.624029,-3.81616
650,57.8421,-0.634666,-3.81616
650.5,57.8926,-0.643061,-3.81848
651,57.9421,-0.645364,-3.82015
651.5,57.9926,-0.644624,-3.81968
652,58.0424,-0.653316,-3.8188
652.5,58.0921,-0.645361,-3.8201
653,58.1434,-0.558105,-3.81877
653.5,58.1939,-0.534886,-3.82084
654,58.2442,-0.591758,-3.82335
654.5,58.2937,-0.604034,-3.82193
655,58.344,-0.614063,-3.8233
655.5,58.3935,-0.619594,-3.82395
656,58.4439,-0.620731,-3.82359
656.5,58.4937,-0.62769,-3.82234
657,58.5448,-0.623608,-3.8162
657.5,58.5943,-0.62769,-3.81275
658,58.6448,-0.632164,-3.81277
658.5,58.6956,-0.633714,-3.8154
659,58.7456,-0.559313,-3.81719
659.5,58.7962,-0.527885,-3.81989
660,58.846,-0.524776,-3.8176
660.5,58.8961,-0.51796,-3.8173
661,58.9463,-0.514467,-3.81595
661.5,58.9966,-0.510542,-3.8174
662,59.0468,-0.588007,-3.81972
662.5,59.0976,-0.622886,-3.82189
663,59.1474,-0.6326,-3.82272
663.5,59.1974,-0.640688,-3.8224
664,59.2447,-0.650006,-3.81053
664.5,59.2975,-0.653017,-3.81421
665,59.3478,-0.647731,-3.82098
665.5,59.3982,-0.653111,-3.82873
666,59.4491,-0.660528,-3.82821
666.5,59.4982,-0.660271,-3.82551
667,59.5498,-0.649236,-3.82121
667.5,59.5997,-0.661419,-3.81704
668,59.6502,-0.65735,-3.81885
668.5,59.6998,-0.661589,-3.81877
669,59.7499,-0.652438,-3.81736
669.5,59.7999,-0.660455,-3.81733
670,59.852,-0.660893,-3.81857
670.5,59.9022,-0.660073,-3.81869
671,59.9513,-0.656623,-3.81999
671.5,60.003,-0.662227,-3.82133
672,60.0513,-0.661362,-3.81999
672.5,60.1031,-0.658393,-3.82138
673,60.1538,-0.664459,-3.82159
673.5,60.204,-0.659298,-3.82265
674,60.2545,-0.660635,-3.82125
674.5,60.3042,-0.665488,-3.81864
675,60.3552,-0.664235,-3.8178
675.5,60.4053,-0.673175,-3.8178
676,60.4558,-0.664309,-3.81923
676.5,60.5052,-0.611219,-3.82023
677,60.5565,-0.566898,-3.82022
677.5,60.6072,-0.55493,-3.8204
678,60.6564,-0.604572,-3.82043
678.5,60.7093,-0.540378,-3.81915
679,60.76,-0.535155,-3.81812
679.5,60.8096,-0.527228,-3.81715
680,60.8601,-0.535777,-3.81717
680.5,60.911,-0.552422,-3.81714
681,60.9612,-0.5694,-3.81664
681.5,61.0119,-0.569486,-3.81565
682,61.0617,-0.569537,-3.81942
682.5,61.1123,-0.569794,-3.82235
683,61.1643,-0.566981,-3.82252
683.5,61.2151,-0.551762,-3.82252
684,61.2666,-0.555624,-3.82323
684.5,61.3168,-0.554467,-3.82284
685,61.3679,-0.559107,-3.82635
685.5,61.4178,-0.566863,-3.8267
686,61.4682,-0.574354,-3.82661
686.5,61.5184,-0.580042,-3.82382
687,61.5692,-0.591465,-3.8235
687.5,61.6197,-0.597531,-3.82053
688,61.6694,-0.595256,-3.82059
688.5,61.7216,-0.582243,-3.82062
689,61.7717,-0.585069,-3.82192
689.5,61.8218,-0.580563,-3.82367
690,61.8725,-0.583182,-3.82363
690.5,61.9224,-0.586852,-3.82228
691,61.9743,-0.582147,-3.82084
691.5,62.0238,-0.583586,-3.81956
692,62.0744,-0.585194,-3.81729
692.5,62.1243,-0.583325,-3.81572
693,62.1747,-0.591164,-3.80918
693.5,62.2258,-0.588333,-3.80737
694,62.2754,-0.592075,-3.80853
694.5,62.3258,-0.585046,-3.81713
695,62.3771,-0.586003,-3.82597
695.5,62.4263,-0.579462,-3.82948
696,62.4771,-0.578813,-3.83264
696.5,62.5278,-0.574268,-3.83391
697,62.5781,-0.571253,-3.82622
697.5,62.6283,-0.570625,-3.82736
698,62.6788,-0.56494,-3.82508
698.5,62.7295,-0.573858,-3.82237
699,62.7761,-0.587569,-3.82091
699.5,62.8292,-0.607564,-3.82077
700,62.8797,-0.616447,-3.82172
700.5,62.9299,-0.61977,-3.82274
701,62.9802,-0.619875,-3.82049
701.5,63.0305,-0.629304,-3.81869
702,63.0801,-0.629843,-3.81854
702.5,63.1312,-0.630275,-3.82134
703,63.1817,-0.61768,-3.82326
703.5,63.2327,-0.61846,-3.82507
704,63.2826,-0.613024,-3.82538
704.5,63.3333,-0.591944,-3.82599
705,63.3844,-0.589369,-3.82589
705.5,63.4339,-0.588311,-3.82415
706,63.4847,-0.584113,-3.82547
706.5,63.5352,-0.581699,-3.82918
707,63.5851,-0.578494,-3.82834
707.5,63.6353,-0.569175,-3.82441
708,63.6861,-0.574938,-3.82297
708.5,63.7369,-0.565276,-3.82022
709,63.7869,-0.572137,-3.82278
709.5,63.8351,-0.564021,-3.82387
710,63.8873,-0.567179,-3.82446
710.5,63.9377,-0.569087,-3.82058
711,63.9884,-0.53999,-3.8187
711.5,64.0384,-0.543201,-3.81947
712,64.0884,-0.534866,-3.82233
712.5,64.139,-0.534338,-3.82377
713,64.1893,-0.536267,-3.82149
713.5,64.2387,-0.531495,-3.81939
714,64.289,-0.529216,-3.81945
714.5,64.339,-0.518435,-3.81946
715,64.3898,-0.521472,-3.82183
715.5,64.4407,-0.524334,-3.82417
716,64.4908,-0.537085,-3.82381
716.5,64.5414,-0.530901,-3.82372
717,64.5921,-0.541151,-3.82482
717.5,64.6422,-0.563536,-3.82452
718,64.6936,-0.56643,-3.82784
718.5,64.7424,-0.572132,-3.83035
719,64.7932,-0.570218,-3.82709
719.5,64.844,-0.574042,-3.82253
720,64.8953,-0.576269,-3.82119
720.5,64.9458,-0.567807,-3.81876
721,64.9956,-0.557893,-3.82308
721.5,65.0466,-0.553778,-3.82758
722,65.0964,-0.56579,-3.8263
722.5,65.1477,-0.562783,-3.8264
723,65.1982,-0.569409,-3.82326
723.5,65.2488,-0.565949,-3.8212
724,65.2989,-0.574729,-3.82143
724.5,65.3498,-0.576892,-3.82516
725,65.3996,-0.572183,-3.82555
725.5,65.4503,-0.573657,-3.8279
726,65.5007,-0.57176,-3.82654
726.5,65.5513,-0.578905,-3.82535
727,65.6008,-0.580956,-3.82264
727.5,65.6499,-0.57613,-3.82264
728,65.7024,-0.591502,-3.82264
728.5,65.7512,-0.588922,-3.82153
729,65.8039,-0.592735,-3.82332
729.5,65.8543,-0.595977,-3.82535
730,65.9043,-0.589385,-3.82395
730.5,65.9541,-0.583839,-3.82396
731,66.0057,-0.534462,-3.82525
731.5,66.0549,-0.531566,-3.82787
732,66.1054,-0.549694,-3.8279
732.5,66.1559,-0.549048,-3.8279
733,66.2071,-0.551765,-3.82521
733.5,66.2562,-0.553196,-3.82298
734,66.3073,-0.556294,-3.8212
734.5,66.3553,-0.585202,-3.82109
735,66.4053,-0.637089,-3.8211
735.5,66.4568,-0.618552,-3.81815
736,66.5075,-0.616686,-3.81693
736.5,66.5561,-0.622808,-3.81693
737,66.6088,-0.627103,-3.81983
737.5,66.6597,-0.623437,-3.82267
738,66.71,-0.609371,-3.82567
738.5,66.7612,-0.600741,-3.82832
739,66.8113,-0.593929,-3.83266
739.5,66.8622,-0.595405,-3.83261
740,66.913,-0.588328,-3.83262