File: 01_Data/Fiber_Reinforced_Helmet_Shell/STA/N2/10K_min/Fiber_Reinforced_Helmet_Shell_STA_N2_10KData_250430_R4.csv
Temp./C,Time/min,DSC/(mW/mg),Mass loss/mg
60.0,0.0,0.492027,-0.0206431
60.5,0.065478,0.489056,-0.0192123
61,0.129977,0.496707,-0.0190052
61.5,0.194102,0.503978,-0.020569
62,0.253977,0.511951,-0.0200123
62.5,0.318836,0.521359,-0.0209375
63,0.379546,0.522514,-0.019913
63.5,0.443146,0.528641,-0.0220043
64,0.505387,0.534947,-0.0205924
64.5,0.565691,0.54267,-0.0215664
65,0.621991,0.552049,-0.0208407
65.5,0.682362,0.551427,-0.0222037
66,0.744138,0.553221,-0.0222222
66.5,0.801639,0.56197,-0.0207718
67,0.861853,0.568305,-0.0207701
67.5,0.921203,0.572435,-0.0208263
68,0.978677,0.576145,-0.0209606
68.5,1.03622,0.580183,-0.0196507
69,1.09404,0.585389,-0.0183576
69.5,1.15195,0.580969,-0.0197664
70,1.20926,0.589767,-0.0197255
70.5,1.26721,0.595431,-0.0191104
71,1.3224,0.594525,-0.0198531
71.5,1.37927,0.592855,-0.0212193
72,1.43447,0.595563,-0.0212749
72.5,1.48986,0.598843,-0.0220129
73,1.54679,0.597425,-0.0226115
73.5,1.60166,0.605219,-0.0222444
74,1.65603,0.60817,-0.0225983
74.5,1.7129,0.613163,-0.0212906
75,1.76689,0.617289,-0.022572
75.5,1.8208,0.611635,-0.0212905
76,1.87553,0.611008,-0.0210274
76.5,1.92939,0.615659,-0.0223639
77,1.98405,0.621874,-0.0219278
77.5,2.03866,0.625448,-0.021301
78,2.09242,0.627612,-0.022086
78.5,2.14682,0.63073,-0.0240182
79,2.19942,0.630909,-0.0225637
79.5,2.25338,0.634096,-0.0226201
80,2.30894,0.640788,-0.0225391
80.5,2.35927,0.640301,-0.0239309
81,2.413,0.648159,-0.0239125
81.5,2.46544,0.645776,-0.0236523
82,2.5193,0.656896,-0.0231902
82.5,2.57063,0.6452,-0.0228708
83,2.62335,0.653906,-0.0225183
83.5,2.67507,0.655182,-0.0239327
84,2.72888,0.660296,-0.0231984
84.5,2.77948,0.658384,-0.0238885
85,2.83159,0.656506,-0.0239318
85.5,2.8833,0.656031,-0.0252508
86,2.93459,0.65646,-0.0238644
86.5,2.98747,0.656476,-0.0239449
87,3.0385,0.663591,-0.0225755
87.5,3.09065,0.658712,-0.0239323
88,3.1424,0.673026,-0.0248739
88.5,3.1926,0.663413,-0.0244691
89,3.24299,0.668019,-0.0238698
89.5,3.29383,0.674848,-0.0239153
90,3.34573,0.67018,-0.0239595
90.5,3.39478,0.678568,-0.0252378
91,3.4461,0.685682,-0.0253888
91.5,3.49711,0.686918,-0.0255877
92,3.5462,0.686925,-0.02558
92.5,3.5974,0.693786,-0.0255812
93,3.64732,0.699796,-0.0252496
93.5,3.69823,0.70267,-0.0255875
94,3.74747,0.701649,-0.0238467
94.5,3.79833,0.695143,-0.0245471
95,3.84694,0.698459,-0.0246253
95.5,3.89743,0.703492,-0.02416
96,3.94738,0.709807,-0.0241576
96.5,3.99645,0.703172,-0.0251434
97,4.04668,0.702671,-0.0264695
97.5,4.09532,0.707652,-0.0265143
98,4.14589,0.709565,-0.0257042
98.5,4.19495,0.70956,-0.0251448
99,4.24505,0.706037,-0.0264631
99.5,4.29378,0.713766,-0.026132
100,4.34297,0.720426,-0.0264311
100.5,4.39213,0.71685,-0.0264481
101,4.44073,0.716357,-0.0250692
101.5,4.49042,0.714814,-0.0251395
102,4.53939,0.719841,-0.0265548
102.5,4.58872,0.727839,-0.026458
103,4.63689,0.728514,-0.0251385
103.5,4.68645,0.732248,-0.0262243
104,4.73473,0.726058,-0.0260783
104.5,4.78326,0.728734,-0.0255208
105,4.83101,0.731471,-0.02645
105.5,4.88116,0.729843,-0.026979
106,4.93018,0.738479,-0.0276951
106.5,4.97896,0.736204,-0.0275485
107,5.0271,0.732515,-0.0264524
107.5,5.07659,0.738167,-0.02646
108,5.12473,0.739302,-0.02646
108.5,5.17356,0.742837,-0.02646
109,5.22237,0.741502,-0.0264576
109.5,5.26814,0.745382,-0.0277377
110,5.31619,0.734521,-0.0288498
110.5,5.3673,0.739602,-0.029092
111,5.41744,0.741343,-0.0290898
111.5,5.46532,0.744247,-0.0291813
112,5.51362,0.744855,-0.0304099
112.5,5.56021,0.743205,-0.0304108
113,5.61079,0.746414,-0.0290662
113.5,5.65875,0.746502,-0.0277242
114,5.70716,0.745892,-0.0271177
114.5,5.75454,0.752412,-0.0286097
115,5.80386,0.745637,-0.0296829
115.5,5.85239,0.750289,-0.0290729
116,5.90093,0.748718,-0.0288698
116.5,5.94905,0.753601,-0.0288701
117,5.9961,0.750649,-0.028831
117.5,6.044,0.751245,-0.0298773
118,6.093,0.750232,-0.0308221
118.5,6.13908,0.750467,-0.0305228
119,6.18894,0.755259,-0.0318253
119.5,6.23734,0.756384,-0.0311115
120,6.28539,0.757993,-0.032494
120.5,6.33533,0.757662,-0.0324901
121,6.38218,0.753531,-0.0310981
121.5,6.43054,0.758252,-0.0298616
122,6.48007,0.768032,-0.02986
122.5,6.52661,0.761187,-0.0298494
123,6.5748,0.76104,-0.0295223
123.5,6.62332,0.759466,-0.028869
124,6.67092,0.760614,-0.0281859
124.5,6.71884,0.76589,-0.0282126
125,6.7685,0.762956,-0.0295063
125.5,6.81537,0.761798,-0.0293729
126,6.86376,0.764759,-0.0301896
126.5,6.91139,0.76107,-0.0301906
127,6.96026,0.761302,-0.0313447
127.5,7.00697,0.763722,-0.0315103
128,7.05486,0.762718,-0.0311594
128.5,7.10412,0.768855,-0.0312632
129,7.15123,0.762827,-0.0301906
129.5,7.19844,0.767006,-0.0305571
130,7.24699,0.762737,-0.0328271
130.5,7.29507,0.767758,-0.0328303
131,7.34258,0.765072,-0.0326153
131.5,7.38873,0.751228,-0.03151
132,7.43689,0.761245,-0.0318703
132.5,7.48486,0.764445,-0.0328202
133,7.53357,0.766125,-0.0333673
133.5,7.58069,0.77006,-0.0328211
134,7.62705,0.765102,-0.0327596
134.5,7.67521,0.766143,-0.0341414
135,7.72287,0.770224,-0.0341571
135.5,7.77031,0.776483,-0.0324843
136,7.81851,0.770297,-0.0325
136.5,7.86568,0.773099,-0.0330396
137,7.91418,0.770551,-0.0338202
137.5,7.96103,0.771417,-0.03382
138,8.00833,0.76977,-0.0338349
138.5,8.0561,0.777003,-0.034807
139,8.10397,0.773573,-0.0352059
139.5,8.15138,0.76655,-0.0380418
140,8.19805,0.772806,-0.0383238
140.5,8.24622,0.766912,-0.0349897
141,8.29375,0.766995,-0.0329398
141.5,8.33991,0.7732,-0.0329427
142,8.38891,0.770364,-0.0342213
142.5,8.43598,0.775944,-0.03425
143,8.48292,0.771581,-0.03425
143.5,8.53142,0.773743,-0.03425
144,8.57806,0.771023,-0.0342501
144.5,8.62481,0.766527,-0.0342233
145,8.67229,0.773947,-0.0356781
145.5,8.71987,0.768097,-0.0362479
146,8.76715,0.771339,-0.037
146.5,8.81449,0.772138,-0.0369997
147,8.86148,0.770874,-0.0369576
147.5,8.90851,0.77423,-0.0371356
148,8.95721,0.772617,-0.0373201
148.5,9.00439,0.766366,-0.0374857
149,9.0492,0.764036,-0.0388959
149.5,9.09861,0.76069,-0.0421177
150,9.14658,0.765672,-0.0405851
150.5,9.19222,0.765953,-0.0386755
151,9.23998,0.768721,-0.037651
151.5,9.28789,0.775119,-0.037647
152,9.3346,0.775205,-0.0389572
152.5,9.38258,0.774899,-0.0386379
153,9.42834,0.766142,-0.0386401
153.5,9.47548,0.769755,-0.0373395
154,9.52369,0.772621,-0.0386274
154.5,9.57054,0.769797,-0.0386412
155,9.61785,0.76834,-0.0396378
155.5,9.66577,0.770901,-0.0412329
156,9.71075,0.77633,-0.0451548
156.5,9.75927,0.768804,-0.0424816
157,9.80597,0.76974,-0.0414907
157.5,9.8541,0.767053,-0.0414217
158,9.90034,0.774822,-0.0401813
158.5,9.94775,0.772779,-0.04018
159,9.99618,0.766669,-0.0401804
159.5,10.0431,0.776925,-0.0407003
160,10.0895,0.784032,-0.0411698
160.5,10.1368,0.785566,-0.0415336
161,10.1855,0.787132,-0.0415038
161.5,10.231,0.788521,-0.0405018
162,10.2784,0.780605,-0.0418937
162.5,10.3256,0.784505,-0.0411217
163,10.3731,0.78789,-0.04051
163.5,10.4201,0.79156,-0.04051
164,10.4671,0.793211,-0.0405096
164.5,10.5147,0.791382,-0.0404863
165,10.5612,0.790197,-0.0431659
165.5,10.6091,0.797428,-0.0444676
166,10.6561,0.791436,-0.0444701
166.5,10.7041,0.790593,-0.0447602
167,10.7496,0.799717,-0.04578
167.5,10.7972,0.801781,-0.04697
168,10.8445,0.801295,-0.0471
168.5,10.891,0.806095,-0.0470852
169,10.9387,0.807524,-0.0457806
169.5,10.9864,0.803283,-0.0457786
170,11.0329,0.813954,-0.0470867
170.5,11.0811,0.815431,-0.0471
171,11.1278,0.819094,-0.0470969
171.5,11.1753,0.819814,-0.0481088
172,11.2219,0.828116,-0.0480899
172.5,11.2691,0.830214,-0.04809
173,11.3166,0.830511,-0.0480901
173.5,11.364,0.84092,-0.0478904
174,11.4108,0.837272,-0.0467896
174.5,11.458,0.837537,-0.04677
175,11.5049,0.840884,-0.04677
175.5,11.5526,0.838418,-0.04677
176,11.5993,0.847754,-0.04677
176.5,11.647,0.841547,-0.04677
177,11.6947,0.85416,-0.0467558
177.5,11.7408,0.851969,-0.048352
178,11.7888,0.853016,-0.0484129
178.5,11.8347,0.857652,-0.04841
179,11.8822,0.862574,-0.04841
179.5,11.9287,0.863614,-0.04841
180,11.9767,0.858542,-0.04841
180.5,12.0239,0.860282,-0.0483788
181,12.0704,0.858776,-0.0497333
181.5,12.117,0.865028,-0.0497298
182,12.1647,0.872592,-0.0500106
182.5,12.2114,0.876134,-0.0503902
183,12.2588,0.873415,-0.05039
183.5,12.3046,0.881992,-0.05039
184,12.3528,0.884382,-0.05039
184.5,12.4006,0.886239,-0.05039
185,12.4484,0.893493,-0.05039
185.5,12.4941,0.890094,-0.05039
186,12.5411,0.887497,-0.0503969
186.5,12.589,0.885247,-0.0503909
187,12.6359,0.886872,-0.0510971
187.5,12.6813,0.888101,-0.0517004
188,12.7304,0.892958,-0.0525426
188.5,12.7762,0.895187,-0.0530197
189,12.8237,0.894837,-0.0530236
189.5,12.8702,0.893986,-0.0516103
190,12.9178,0.89978,-0.0530199
190.5,12.9651,0.901654,-0.0518425
191,13.0121,0.902438,-0.0517097
191.5,13.0592,0.894124,-0.0517148
192,13.1055,0.906088,-0.0530207
192.5,13.1533,0.905104,-0.0530199
193,13.2003,0.905982,-0.0530426
193.5,13.2474,0.91616,-0.0540107
194,13.2933,0.917071,-0.05401
194.5,13.3386,0.917533,-0.0540322
195,13.388,0.923567,-0.0553284
195.5,13.4355,0.928732,-0.055416
196,13.4829,0.927193,-0.0540094
196.5,13.5269,0.930367,-0.0540143
197,13.5767,0.928663,-0.0549936
197.5,13.623,0.930585,-0.055417
198,13.6711,0.930758,-0.0556972
198.5,13.7169,0.936185,-0.0566508
199,13.765,0.944744,-0.05665
199.5,13.8106,0.941543,-0.05665
200,13.8588,0.950337,-0.0566424
200.5,13.9055,0.942607,-0.0579654
201,13.9528,0.946619,-0.05796
201.5,13.9998,0.950598,-0.05796
202,14.0463,0.943293,-0.05796
202.5,14.0941,0.953725,-0.05796
203,14.1407,0.960825,-0.05796
203.5,14.1883,0.96646,-0.0579598
204,14.2354,0.962932,-0.056606
204.5,14.2822,0.967929,-0.056637
205,14.3291,0.953643,-0.0584373
205.5,14.3753,0.966846,-0.059279
206,14.4239,0.969634,-0.05928
206.5,14.4712,0.974156,-0.05928
207,14.5195,0.966618,-0.0592801
207.5,14.5656,0.980294,-0.0592448
208,14.6113,0.975025,-0.0602715
208.5,14.6604,0.9767,-0.06027
209,14.7063,0.982139,-0.06027
209.5,14.7532,0.980115,-0.0602752
210,14.7998,0.983723,-0.0633889
210.5,14.8484,0.985638,-0.0623858
211,14.8948,0.989168,-0.0593563
211.5,14.9426,0.987203,-0.060378
212,14.9889,0.993775,-0.0617067
212.5,15.0367,0.997489,-0.0617
213,15.0831,0.991441,-0.0616978
213.5,15.1306,0.995562,-0.0630827
214,15.1776,1.00002,-0.0630199
214.5,15.2252,1.00662,-0.06302
215,15.2715,0.998648,-0.0630205
215.5,15.3189,1.00407,-0.0635684
216,15.3662,0.998842,-0.0643259
216.5,15.4129,0.996608,-0.0643301
217,15.4603,1.00101,-0.0643295
217.5,15.5069,1.01175,-0.0659889
218,15.5536,1.01308,-0.0662822
218.5,15.6018,1.00873,-0.0672988
219,15.648,1.0079,-0.0673
219.5,15.6959,1.01096,-0.0672998
220,15.7419,1.01048,-0.0676673
220.5,15.7903,1.0129,-0.0682897
221,15.8365,1.00627,-0.06829
221.5,15.8839,1.01119,-0.06829
222,15.9315,1.00748,-0.06829
222.5,15.9793,1.0068,-0.0682888
223,16.0259,1.00348,-0.0695764
223.5,16.0728,1.01033,-0.0696099
224,16.1203,1.00968,-0.0699324
224.5,16.1672,1.01263,-0.06993
225,16.2139,1.01114,-0.06993
225.5,16.2616,1.00361,-0.0699512
226,16.3089,1.00782,-0.071258
226.5,16.3557,1.01701,-0.07191
227,16.403,1.01672,-0.0725557
227.5,16.4495,1.00354,-0.0725465
228,16.4962,1.00991,-0.0738896
228.5,16.5439,1.00151,-0.07389
229,16.589,1.0101,-0.07389
229.5,16.639,1.00767,-0.07389
230,16.6868,1.00487,-0.0738906
230.5,16.7333,1.0077,-0.0749368
231,16.7804,1.01141,-0.0765203
231.5,16.8277,1.00981,-0.0752043
232,16.8754,1.00749,-0.075223
232.5,16.922,1.00677,-0.0765064
233,16.9683,1.00722,-0.0779102
233.5,17.0166,1.00593,-0.077178
234,17.0637,1.0135,-0.0764935
234.5,17.111,1.01351,-0.0758428
235,17.158,1.0172,-0.07586
235.5,17.2054,1.01724,-0.0758598
236,17.2531,1.02489,-0.0761022
236.5,17.3013,1.01916,-0.077169
237,17.3468,1.02096,-0.0773219
237.5,17.3939,1.0225,-0.079747
238,17.4392,1.02159,-0.07981
238.5,17.4881,1.02538,-0.0798096
239,17.5349,1.02871,-0.0811445
239.5,17.5832,1.03224,-0.0814587
240,17.6301,1.03343,-0.0828306
240.5,17.6775,1.03088,-0.0837595
241,17.724,1.03866,-0.08376
241.5,17.7714,1.02883,-0.08376
242,17.8192,1.03717,-0.0837695
242.5,17.8658,1.0345,-0.0862827
243,17.9132,1.04043,-0.0864046
243.5,17.9604,1.03315,-0.0850675
244,18.0077,1.04031,-0.0864151
244.5,18.0562,1.04936,-0.0865946
245,18.1018,1.04907,-0.0889319
245.5,18.1496,1.05424,-0.0894927
246,18.1974,1.06053,-0.0903498
246.5,18.244,1.058,-0.0904321
247,18.2907,1.0642,-0.0916654
247.5,18.3379,1.06863,-0.0929886
248,18.3863,1.06888,-0.0929992
248.5,18.4331,1.07003,-0.0942978
249,18.4795,1.07982,-0.0943101
249.5,18.5273,1.07774,-0.0950929
250,18.5747,1.07944,-0.0962858
250.5,18.6205,1.08546,-0.0966271
251,18.6685,1.09414,-0.0979203
251.5,18.7168,1.09131,-0.0992589
252,18.7637,1.09885,-0.100156
252.5,18.8109,1.09794,-0.100561
253,18.858,1.09868,-0.101873
253.5,18.9067,1.10115,-0.101868
254,18.9535,1.10174,-0.103233
254.5,19.0001,1.09755,-0.103679
255,19.0477,1.10491,-0.108683
255.5,19.0946,1.104,-0.106758
256,19.1433,1.11209,-0.106345
256.5,19.1902,1.11576,-0.106609
257,19.2366,1.11867,-0.108428
257.5,19.2843,1.11028,-0.109175
258,19.3314,1.11365,-0.110818
258.5,19.3797,1.11246,-0.11189
259,19.4255,1.1132,-0.111928
259.5,19.4735,1.10915,-0.114586
260,19.5211,1.11133,-0.114629
260.5,19.568,1.10697,-0.115822
261,19.6162,1.10481,-0.117119
261.5,19.6622,1.11002,-0.118579
262,19.7103,1.10152,-0.121111
262.5,19.7581,1.09397,-0.122411
263,19.8054,1.10138,-0.123722
263.5,19.8511,1.09826,-0.125149
264,19.8998,1.09554,-0.126453
264.5,19.947,1.09344,-0.127781
265,19.9924,1.09162,-0.129131
265.5,20.0414,1.09149,-0.130396
266,20.0884,1.08783,-0.131862
266.5,20.136,1.0825,-0.133193
267,20.1844,1.07381,-0.134572
267.5,20.231,1.07891,-0.137099
268,20.2782,1.07699,-0.13844
268.5,20.3255,1.06761,-0.139868
269,20.3721,1.06681,-0.140696
269.5,20.4199,1.06837,-0.142581
270,20.4666,1.07147,-0.144811
270.5,20.5145,1.06623,-0.145515
271,20.5625,1.05907,-0.147749
271.5,20.6097,1.05915,-0.149142
272,20.657,1.05761,-0.151263
272.5,20.7038,1.05512,-0.153255
273,20.7512,1.05401,-0.155991
273.5,20.7993,1.04982,-0.159137
274,20.8471,1.04833,-0.16052
274.5,20.8935,1.04566,-0.16187
275,20.9416,1.04353,-0.164831
275.5,20.9889,1.04428,-0.166431
276,21.0356,1.03858,-0.167701
276.5,21.083,1.02909,-0.170214
277,21.1309,1.02536,-0.172299
277.5,21.1789,1.0161,-0.173655
278,21.2245,1.01707,-0.175456
278.5,21.273,1.01813,-0.177919
279,21.3203,1.009,-0.180374
279.5,21.3673,1.01102,-0.182602
280,21.4144,1.01107,-0.183901
280.5,21.4617,1.00364,-0.186534
281,21.5096,1.00269,-0.189623
281.5,21.5573,0.994121,-0.192661
282,21.6031,0.999628,-0.195335
282.5,21.6525,0.990018,-0.197251
283,21.6996,0.996335,-0.199922
283.5,21.747,0.993511,-0.202001
284,21.7951,0.989986,-0.204272
284.5,21.8426,0.987074,-0.206057
285,21.8907,0.984477,-0.209173
285.5,21.9385,0.977609,-0.212455
286,21.9873,0.969524,-0.216092
286.5,22.035,0.966188,-0.221298
287,22.0813,0.962845,-0.221859
287.5,22.1299,0.958956,-0.224507
288,22.1784,0.962591,-0.228356
288.5,22.2251,0.953475,-0.229618
289,22.2723,0.94131,-0.233648
289.5,22.3202,0.942307,-0.238173
290,22.3673,0.938665,-0.242461
290.5,22.4162,0.929563,-0.245759
291,22.464,0.916397,-0.250186
291.5,22.5111,0.905752,-0.2533
292,22.5568,0.89842,-0.25727
292.5,22.606,0.876799,-0.26244
293,22.6525,0.857567,-0.266754
293.5,22.7005,0.825215,-0.27098
294,22.7482,0.800289,-0.27577
294.5,22.7948,0.757767,-0.279668
295,22.8434,0.740709,-0.285156
295.5,22.8899,0.713697,-0.290422
296,22.9365,0.68617,-0.294766
296.5,22.9835,0.665948,-0.301145
297,23.0309,0.663939,-0.306354
297.5,23.0787,0.640061,-0.311842
298,23.1252,0.626659,-0.316808
298.5,23.1741,0.624989,-0.321876
299,23.2211,0.629719,-0.327152
299.5,23.2693,0.645402,-0.332742
300,23.3166,0.648278,-0.337326
300.5,23.3654,0.662308,-0.343468
301,23.4121,0.67605,-0.347715
301.5,23.4596,0.685176,-0.352871
302,23.5064,0.697796,-0.359366
302.5,23.5548,0.710903,-0.365986
303,23.6023,0.728589,-0.367959
303.5,23.6506,0.744436,-0.372392
304,23.6983,0.764503,-0.375467
304.5,23.7463,0.770643,-0.379525
305,23.794,0.783804,-0.382521
305.5,23.8406,0.792198,-0.386536
306,23.8895,0.805515,-0.390985
306.5,23.9369,0.8141,-0.39477
307,23.9846,0.81521,-0.397856
307.5,24.0326,0.829173,-0.400023
308,24.0802,0.838805,-0.404101
308.5,24.1279,0.846153,-0.406531
309,24.175,0.846298,-0.40942
309.5,24.2237,0.855779,-0.411614
310,24.2714,0.864012,-0.416188
310.5,24.317,0.86055,-0.417828
311,24.3672,0.866559,-0.419358
311.5,24.4154,0.871013,-0.423142
312,24.4619,0.881813,-0.425454
312.5,24.5105,0.88426,-0.428019
313,24.5583,0.885879,-0.429589
313.5,24.6058,0.891036,-0.434074
314,24.6535,0.892936,-0.43663
314.5,24.7024,0.901522,-0.438158
315,24.7488,0.901753,-0.440464
315.5,24.7972,0.903716,-0.442571
316,24.8451,0.906546,-0.444251
316.5,24.8929,0.907099,-0.447197
317,24.9407,0.9139,-0.44997
317.5,24.9882,0.917186,-0.45131
318,25.0358,0.914604,-0.453058
318.5,25.0838,0.914908,-0.455944
319,25.1314,0.93127,-0.458916
319.5,25.1799,0.924637,-0.460654
320,25.2276,0.923357,-0.461831
320.5,25.2748,0.929641,-0.464799
321,25.3233,0.929175,-0.467744
321.5,25.3698,0.929332,-0.469751
322,25.4189,0.936463,-0.472011
322.5,25.4669,0.936581,-0.474631
323,25.5139,0.944998,-0.476156
323.5,25.5622,0.946095,-0.479166
324,25.6091,0.94463,-0.480611
324.5,25.6574,0.947907,-0.481418
325,25.7057,0.944986,-0.48415
325.5,25.7536,0.951791,-0.48761
326,25.802,0.953915,-0.489783
326.5,25.849,0.956035,-0.491786
327,25.8972,0.963971,-0.49434
327.5,25.9452,0.960993,-0.49636
328,25.9912,0.961974,-0.49907
328.5,26.0419,0.964543,-0.500638
329,26.0894,0.967778,-0.503002
329.5,26.1377,0.969482,-0.506121
330,26.1853,0.962566,-0.508033
330.5,26.2333,0.970322,-0.51382
331,26.2817,0.979036,-0.514564
331.5,26.3291,0.973356,-0.513529
332,26.3771,0.976664,-0.516066
332.5,26.4249,0.978618,-0.517359
333,26.4737,0.979484,-0.518662
333.5,26.5214,0.97304,-0.521715
334,26.5671,0.974667,-0.524383
334.5,26.6177,0.982971,-0.526249
335,26.6665,0.979421,-0.528472
335.5,26.7137,0.972839,-0.5303
336,26.7622,0.973125,-0.534182
336.5,26.8095,0.97925,-0.536181
337,26.8587,0.977687,-0.537622
337.5,26.9064,0.976236,-0.539139
338,26.9548,0.973343,-0.54042
338.5,27.0021,0.979482,-0.541337
339,27.0486,0.973494,-0.542199
339.5,27.0984,0.973714,-0.545513
340,27.1468,0.97323,-0.548493
340.5,27.1955,0.98079,-0.552472
341,27.2423,0.969244,-0.554573
341.5,27.2905,0.97132,-0.557059
342,27.3385,0.971659,-0.560016
342.5,27.3868,0.973728,-0.562754
343,27.4347,0.970591,-0.564798
343.5,27.4824,0.974631,-0.567137
344,27.5307,0.966516,-0.571195
344.5,27.5785,0.971536,-0.572836
345,27.6276,0.964977,-0.574064
345.5,27.6746,0.96895,-0.575742
346,27.7221,0.966628,-0.57743
346.5,27.7702,0.96616,-0.578864
347,27.8186,0.963105,-0.581814
347.5,27.867,0.966175,-0.583259
348,27.9147,0.967974,-0.586265
348.5,27.9637,0.965396,-0.589213
349,28.0116,0.962749,-0.591376
349.5,28.0597,0.962394,-0.592453
350,28.1072,0.965799,-0.59242
350.5,28.1557,0.966648,-0.593759
351,28.2043,0.966853,-0.595692
351.5,28.2516,0.965772,-0.598083
352,28.3,0.965879,-0.6015
352.5,28.3482,0.962079,-0.60414
353,28.3968,0.961435,-0.605734
353.5,28.444,0.960522,-0.607368
354,28.4916,0.96919,-0.610469
354.5,28.5409,0.958522,-0.613048
355,28.5889,0.957734,-0.614324
355.5,28.6373,0.959548,-0.616443
356,28.6853,0.961706,-0.62062
356.5,28.7333,0.959732,-0.623317
357,28.7816,0.956549,-0.623486
357.5,28.8293,0.959944,-0.626296
358,28.8779,0.953145,-0.62817
358.5,28.9257,0.955013,-0.629408
359,28.9743,0.954953,-0.631296
359.5,29.0227,0.951548,-0.632655
360,29.0704,0.957188,-0.633497
360.5,29.1192,0.955262,-0.634664
361,29.1671,0.961232,-0.637163
361.5,29.2153,0.97343,-0.639258
362,29.2628,0.964603,-0.640688
362.5,29.3124,0.961643,-0.643397
363,29.3597,0.960666,-0.646706
363.5,29.4082,0.960244,-0.650177
364,29.4572,0.959342,-0.653324
364.5,29.5047,0.966614,-0.65683
365,29.5529,0.963126,-0.660189
365.5,29.6004,0.967764,-0.662534
366,29.6485,0.97368,-0.666169
366.5,29.6979,0.971143,-0.667682
367,29.7466,0.971913,-0.670053
367.5,29.7951,0.968696,-0.672015
368,29.8431,0.967034,-0.67404
368.5,29.8914,0.96981,-0.675013
369,29.9402,0.96849,-0.676868
369.5,29.9868,0.971683,-0.679733
370,30.0369,0.972132,-0.682576
370.5,30.0845,0.98052,-0.685778
371,30.1337,0.972878,-0.687824
371.5,30.1816,0.979647,-0.690148
372,30.2302,0.985472,-0.693069
372.5,30.2786,0.98008,-0.696268
373,30.3249,0.978983,-0.696709
373.5,30.3755,0.977699,-0.699573
374,30.4222,0.977293,-0.703283
374.5,30.4694,0.981846,-0.70485
375,30.5197,0.985075,-0.70684
375.5,30.568,0.983595,-0.707652
376,30.6175,0.982999,-0.710298
376.5,30.6654,0.989639,-0.713472
377,30.7137,0.98876,-0.718123
377.5,30.7604,0.993032,-0.7199
378,30.8104,0.992407,-0.72416
378.5,30.8593,0.99384,-0.727394
379,30.9076,0.989243,-0.731847
379.5,30.9559,0.998002,-0.735692
380,31.0046,1.00012,-0.738595
380.5,31.0532,1.00281,-0.741426
381,31.1015,0.998602,-0.745116
381.5,31.1495,1.00979,-0.747016
382,31.1981,1.00761,-0.750466
382.5,31.2461,1.00899,-0.753811
383,31.2941,1.01082,-0.756682
383.5,31.3436,1.02205,-0.7582
384,31.3911,1.01622,-0.761143
384.5,31.4404,1.0277,-0.763733
385,31.489,1.03452,-0.768239
385.5,31.5372,1.03301,-0.771533
386,31.586,1.03008,-0.775798
386.5,31.6347,1.02846,-0.778768
387,31.6829,1.03599,-0.781473
387.5,31.7313,1.03805,-0.786811
388,31.7802,1.04107,-0.789941
388.5,31.8287,1.0396,-0.793553
389,31.8771,1.04752,-0.798541
389.5,31.925,1.04713,-0.802352
390,31.9743,1.05359,-0.806169
390.5,32.0227,1.0536,-0.804328
391,32.0717,1.05784,-0.812384
391.5,32.1207,1.06338,-0.820321
392,32.1677,1.0672,-0.823994
392.5,32.2165,1.07104,-0.826204
393,32.2654,1.08081,-0.829275
393.5,32.3139,1.07779,-0.833392
394,32.3624,1.07908,-0.838442
394.5,32.411,1.08453,-0.842774
395,32.4596,1.08521,-0.847814
395.5,32.508,1.09339,-0.85168
396,32.5564,1.09465,-0.850729
396.5,32.6054,1.09822,-0.855152
397,32.6532,1.10402,-0.865531
397.5,32.7029,1.11194,-0.869771
398,32.7505,1.11088,-0.874277
398.5,32.7999,1.11163,-0.878916
399,32.8483,1.1243,-0.882768
399.5,32.8964,1.11891,-0.888025
400,32.9455,1.11956,-0.892379
400.5,32.9939,1.13375,-0.897159
401,33.0433,1.12795,-0.901714
401.5,33.0913,1.13323,-0.907054
402,33.1397,1.13365,-0.912283
402.5,33.1887,1.13684,-0.917174
403,33.2373,1.13409,-0.920689
403.5,33.2854,1.13531,-0.925253
404,33.3348,1.13843,-0.931582
404.5,33.384,1.13399,-0.936627
405,33.4329,1.13703,-0.942833
405.5,33.4813,1.14224,-0.947764
406,33.5297,1.13783,-0.953235
406.5,33.579,1.13755,-0.958804
407,33.6275,1.13943,-0.963356
407.5,33.6757,1.13558,-0.969537
408,33.7247,1.13577,-0.978436
408.5,33.7734,1.13684,-0.98315
409,33.8216,1.1343,-0.984834
409.5,33.8713,1.12859,-0.990756
410,33.9194,1.13585,-0.993755
410.5,33.9681,1.13561,-0.999777
411,34.0168,1.12234,-1.00474
411.5,34.065,1.11806,-1.01019
412,34.1137,1.12441,-1.01583
412.5,34.1626,1.10916,-1.0205
413,34.2117,1.1116,-1.02609
413.5,34.2605,1.10842,-1.03209
414,34.3087,1.10143,-1.03738
414.5,34.3578,1.09965,-1.04244
415,34.4059,1.09952,-1.04837
415.5,34.4545,1.08855,-1.05283
416,34.5027,1.07712,-1.05714
416.5,34.5522,1.07035,-1.06331
417,34.601,1.07234,-1.06915
417.5,34.6502,1.05893,-1.07468
418,34.6988,1.0495,-1.08009
418.5,34.7465,1.03661,-1.08572
419,34.7959,1.04184,-1.09124
419.5,34.8441,1.02927,-1.0954
420,34.8932,1.01999,-1.09986
420.5,34.9415,1.01324,-1.10503
421,34.9909,1.00537,-1.10953
421.5,35.0386,0.996717,-1.11466
422,35.087,0.976453,-1.11775
422.5,35.137,0.972231,-1.1227
423,35.1855,0.960927,-1.12833
423.5,35.2336,0.949023,-1.13403
424,35.2823,0.944402,-1.13871
424.5,35.3292,0.93532,-1.14294
425,35.3808,0.926562,-1.14756
425.5,35.4286,0.927835,-1.15197
426,35.4776,0.908821,-1.15482
426.5,35.5257,0.903767,-1.15964
427,35.5717,0.894509,-1.16385
427.5,35.6206,0.894248,-1.16749
428,35.6713,0.879963,-1.17087
428.5,35.7185,0.86816,-1.1757
429,35.7698,0.86013,-1.17891
429.5,35.8185,0.845933,-1.18217
430,35.8665,0.848823,-1.18546
430.5,35.915,0.840146,-1.18947
431,35.964,0.819767,-1.1931
431.5,36.012,0.814835,-1.19845
432,36.0616,0.802675,-1.20238
432.5,36.1097,0.796873,-1.20465
433,36.1594,0.786342,-1.20776
433.5,36.2069,0.783798,-1.2109
434,36.2567,0.768818,-1.21571
434.5,36.3056,0.757423,-1.21908
435,36.3547,0.752146,-1.22287
435.5,36.403,0.751493,-1.22512
436,36.4512,0.738075,-1.22837
436.5,36.499,0.731585,-1.23151
437,36.549,0.724376,-1.23519
437.5,36.5982,0.711831,-1.2382
438,36.6472,0.715253,-1.23956
438.5,36.6953,0.704794,-1.24212
439,36.7442,0.697361,-1.24477
439.5,36.7934,0.691107,-1.24807
440,36.8422,0.682024,-1.25103
440.5,36.8917,0.670698,-1.2537
441,36.9398,0.666671,-1.25647
441.5,36.9869,0.663437,-1.25936
442,37.0372,0.647139,-1.2608
442.5,37.0873,0.647876,-1.26249
443,37.1356,0.645419,-1.26446
443.5,37.1837,0.628589,-1.26673
444,37.233,0.629848,-1.26784
444.5,37.2806,0.626068,-1.26835
445,37.33,0.613084,-1.26998
445.5,37.3779,0.611992,-1.27291
446,37.4264,0.605201,-1.27332
446.5,37.4772,0.605325,-1.27622
447,37.5256,0.594556,-1.27891
447.5,37.5738,0.589765,-1.28027
448,37.623,0.58891,-1.28343
448.5,37.6723,0.577796,-1.28492
449,37.7216,0.577417,-1.28682
449.5,37.7692,0.56842,-1.28729
450,37.8196,0.563464,-1.29155
450.5,37.868,0.562518,-1.2928
451,37.9168,0.556264,-1.29407
451.5,37.968,0.554766,-1.29422
452,38.016,0.55008,-1.29558
452.5,38.0664,0.545357,-1.29569
453,38.115,0.547609,-1.29698
453.5,38.1638,0.543029,-1.29748
454,38.2127,0.536853,-1.30018
454.5,38.2625,0.535458,-1.30281
455,38.3109,0.532947,-1.30411
455.5,38.3597,0.526752,-1.30278
456,38.409,0.53019,-1.30279
456.5,38.4575,0.520523,-1.30422
457,38.507,0.523773,-1.30548
457.5,38.5553,0.516635,-1.30831
458,38.6045,0.52055,-1.31103
458.5,38.6525,0.517941,-1.31232
459,38.7019,0.509831,-1.31389
459.5,38.7513,0.50834,-1.31541
460,38.8006,0.51128,-1.31532
460.5,38.8491,0.509648,-1.31672
461,38.8979,0.50511,-1.31806
461.5,38.9472,0.507049,-1.31801
462,38.9961,0.504988,-1.31938
462.5,39.0449,0.501445,-1.32134
463,39.0944,0.501335,-1.32255
463.5,39.1434,0.496697,-1.32332
464,39.192,0.497479,-1.32422
464.5,39.2409,0.498532,-1.32463
465,39.2907,0.488881,-1.32601
465.5,39.3392,0.487005,-1.32594
466,39.3886,0.480795,-1.32727
466.5,39.4377,0.481592,-1.32857
467,39.4871,0.485744,-1.33011
467.5,39.5356,0.483679,-1.33167
468,39.5849,0.487783,-1.33056
468.5,39.6333,0.487842,-1.33055
469,39.6833,0.493283,-1.3332
469.5,39.7327,0.487229,-1.33449
470,39.7822,0.483071,-1.33585
470.5,39.8325,0.48062,-1.33604
471,39.8803,0.484074,-1.33695
471.5,39.9289,0.480017,-1.33585
472,39.9784,0.47534,-1.33713
472.5,40.0281,0.467409,-1.33847
473,40.0763,0.475776,-1.33977
473.5,40.1264,0.468028,-1.34094
474,40.1762,0.463103,-1.34142
474.5,40.2249,0.457667,-1.34123
475,40.2743,0.468187,-1.34242
475.5,40.3231,0.465843,-1.34371
476,40.3731,0.463569,-1.34373
476.5,40.4212,0.462354,-1.34506
477,40.4706,0.464859,-1.34503
477.5,40.5198,0.460037,-1.34637
478,40.5702,0.453843,-1.3464
478.5,40.6184,0.452011,-1.34769
479,40.6668,0.44828,-1.34901
479.5,40.7172,0.451077,-1.34991
480,40.7666,0.448544,-1.35034
480.5,40.8157,0.449139,-1.35013
481,40.8653,0.446122,-1.35139
481.5,40.9141,0.442571,-1.35034
482,40.9637,0.438725,-1.35032
482.5,41.0129,0.433937,-1.35158
483,41.062,0.432621,-1.35165
483.5,41.112,0.431128,-1.35257
484,41.1604,0.433184,-1.35474
484.5,41.21,0.430912,-1.35556
485,41.2598,0.424537,-1.35691
485.5,41.3094,0.431719,-1.35835
486,41.3584,0.428356,-1.35724
486.5,41.408,0.430565,-1.35857
487,41.4567,0.427942,-1.3612
487.5,41.5057,0.430811,-1.36141
488,41.5555,0.42044,-1.36382
488.5,41.605,0.417679,-1.36383
489,41.652,0.428967,-1.36524
489.5,41.7038,0.433206,-1.36515
490,41.7519,0.432039,-1.36549
490.5,41.8018,0.430843,-1.36616
491,41.8513,0.429983,-1.3651
491.5,41.901,0.427747,-1.36519
492,41.9507,0.428877,-1.36644
492.5,42.0003,0.428819,-1.36777
493,42.0502,0.4265,-1.36778
493.5,42.0985,0.42032,-1.36782
494,42.1477,0.422158,-1.36778
494.5,42.1976,0.422041,-1.36839
495,42.2465,0.422865,-1.36909
495.5,42.2973,0.425671,-1.36909
496,42.3459,0.425677,-1.37016
496.5,42.3948,0.424118,-1.37173
497,42.4456,0.418028,-1.37102
497.5,42.4947,0.427671,-1.37172
498,42.5434,0.424428,-1.37201
498.5,42.5939,0.417185,-1.37305
499,42.6426,0.415079,-1.37305
499.5,42.6926,0.418047,-1.37441
500,42.7426,0.417827,-1.37325
500.5,42.7913,0.407887,-1.37435
501,42.8392,0.40947,-1.37437
501.5,42.8903,0.405684,-1.3749
502,42.9395,0.398486,-1.37569
502.5,42.9899,0.40398,-1.37721
503,43.0382,0.404032,-1.37767
503.5,43.0875,0.403258,-1.37682
504,43.1348,0.40486,-1.37635
504.5,43.1871,0.398346,-1.37634
505,43.2365,0.394456,-1.37765
505.5,43.2861,0.39106,-1.37897
506,43.3354,0.401097,-1.37898
506.5,43.3848,0.392624,-1.37898
507,43.4341,0.386426,-1.37994
507.5,43.4831,0.389819,-1.3803
508,43.5332,0.392525,-1.38057
508.5,43.5801,0.382084,-1.38162
509,43.6309,0.383128,-1.38163
509.5,43.681,0.381386,-1.38425
510,43.7308,0.385092,-1.38435
510.5,43.7793,0.385222,-1.38557
511,43.8285,0.376821,-1.38625
511.5,43.8786,0.376774,-1.38689
512,43.9275,0.373185,-1.38689
512.5,43.9758,0.37648,-1.38765
513,44.0263,0.366808,-1.38817
513.5,44.0762,0.372546,-1.38689
514,44.1252,0.376236,-1.38689
514.5,44.1752,0.370983,-1.38704
515,44.2244,0.36532,-1.3882
515.5,44.2733,0.366528,-1.38917
516,44.3236,0.360052,-1.38916
516.5,44.3711,0.360645,-1.38909
517,44.4216,0.361875,-1.3882
517.5,44.472,0.360648,-1.39084
518,44.5197,0.362746,-1.39092
518.5,44.5704,0.353883,-1.39092
519,44.618,0.36023,-1.39018
519.5,44.6695,0.360685,-1.38952
520,44.7182,0.359549,-1.38952
520.5,44.7681,0.35797,-1.38952
521,44.8185,0.357682,-1.39083
521.5,44.8671,0.352021,-1.39201
522,44.9168,0.355627,-1.39215
522.5,44.9676,0.350942,-1.39309
523,45.017,0.347553,-1.39477
523.5,45.064,0.352693,-1.3974
524,45.1161,0.339203,-1.39743
524.5,45.1655,0.344228,-1.39807
525,45.2144,0.340833,-1.39939
525.5,45.2645,0.340881,-1.39811
526,45.3142,0.340706,-1.39808
526.5,45.3638,0.33944,-1.398
527,45.4131,0.339107,-1.39808
527.5,45.463,0.335252,-1.39821
528,45.5128,0.334695,-1.39676
528.5,45.5621,0.335935,-1.39813
529,45.6122,0.329224,-1.39851
529.5,45.6614,0.326828,-1.3994
530,45.7107,0.321359,-1.39889
530.5,45.761,0.323792,-1.39934
531,45.8101,0.327824,-1.40071
531.5,45.8602,0.325501,-1.40071
532,45.9097,0.325587,-1.40117
532.5,45.9592,0.329007,-1.40072
533,46.0086,0.323708,-1.39979
533.5,46.058,0.32404,-1.40006
534,46.108,0.32333,-1.40006
534.5,46.158,0.317152,-1.40002
535,46.208,0.320142,-1.40139
535.5,46.2575,0.322915,-1.40204
536,46.3065,0.32504,-1.4033
536.5,46.3561,0.321067,-1.40336
537,46.4067,0.321272,-1.40335
537.5,46.4565,0.323071,-1.40335
538,46.5051,0.314751,-1.40335
538.5,46.5546,0.318451,-1.40564
539,46.6046,0.30949,-1.40588
539.5,46.6547,0.310306,-1.40501
540,46.7047,0.314471,-1.40598
540.5,46.7538,0.313878,-1.40598
541,46.803,0.31118,-1.40732
541.5,46.8527,0.300959,-1.40731
542,46.9032,0.294929,-1.40731
542.5,46.9524,0.302925,-1.40752
543,47.0022,0.307513,-1.40862
543.5,47.0519,0.305721,-1.40862
544,47.1014,0.308678,-1.40863
544.5,47.1496,0.302331,-1.41135
545,47.1998,0.304807,-1.41275
545.5,47.251,0.303403,-1.41143
546,47.3007,0.304186,-1.41144
546.5,47.3509,0.304678,-1.40759
547,47.4003,0.310463,-1.40888
547.5,47.4512,0.30266,-1.41157
548,47.5,0.304465,-1.41291
548.5,47.5501,0.304101,-1.41303
549,47.5995,0.301655,-1.41356
549.5,47.65,0.301772,-1.41488
550,47.6999,0.307821,-1.41488
550.5,47.7495,0.300761,-1.41488
551,47.7991,0.296918,-1.41491
551.5,47.8487,0.293848,-1.41455
552,47.8983,0.30946,-1.41588
552.5,47.948,0.307204,-1.41587
553,47.999,0.308632,-1.41587
553.5,48.0492,0.306478,-1.41587
554,48.0979,0.304863,-1.41718
554.5,48.1473,0.301931,-1.41718
555,48.1957,0.294968,-1.41751
555.5,48.247,0.297515,-1.41751
556,48.2961,0.299219,-1.41737
556.5,48.3459,0.299554,-1.41751
557,48.3954,0.30039,-1.41751
557.5,48.4464,0.294588,-1.41751
558,48.4955,0.295523,-1.41883
558.5,48.5449,0.296217,-1.41883
559,48.5952,0.291611,-1.41896
559.5,48.6443,0.290135,-1.42015
560,48.6945,0.295956,-1.42015
560.5,48.7449,0.294273,-1.42015
561,48.7939,0.293616,-1.42009
561.5,48.844,0.2968,-1.42147
562,48.893,0.290026,-1.42274
562.5,48.9425,0.295225,-1.42278
563,48.9928,0.287401,-1.42278
563.5,49.0419,0.280467,-1.42278
564,49.092,0.292331,-1.42415
564.5,49.1417,0.290558,-1.4241
565,49.1914,0.28262,-1.42303
565.5,49.2408,0.281062,-1.42276
566,49.2911,0.285168,-1.4241
566.5,49.341,0.281634,-1.42409
567,49.39,0.282174,-1.42542
567.5,49.4404,0.283565,-1.42536
568,49.4903,0.282673,-1.42541
568.5,49.5398,0.277436,-1.42541
569,49.5899,0.280293,-1.42541
569.5,49.6385,0.277169,-1.42542
570,49.6887,0.284439,-1.42673
570.5,49.738,0.286713,-1.42783
571,49.788,0.285278,-1.42772
571.5,49.8379,0.288056,-1.42904
572,49.8873,0.28273,-1.42904
572.5,49.9373,0.285489,-1.42904
573,49.9866,0.286565,-1.43038
573.5,50.0373,0.284531,-1.43038
574,50.0861,0.282403,-1.43035
574.5,50.136,0.284998,-1.43036
575,50.1859,0.279375,-1.43036
575.5,50.2356,0.291254,-1.43166
576,50.2857,0.287803,-1.43168
576.5,50.3348,0.281179,-1.43168
577,50.3851,0.284971,-1.43168
577.5,50.4356,0.277467,-1.43239
578,50.485,0.285101,-1.4317
578.5,50.535,0.280435,-1.43168
579,50.5841,0.28098,-1.43168
579.5,50.6342,0.284206,-1.43168
580,50.6844,0.280491,-1.4328
580.5,50.7341,0.276864,-1.433
581,50.7834,0.271668,-1.433
581.5,50.8341,0.282388,-1.433
582,50.883,0.276826,-1.43304
582.5,50.9334,0.270426,-1.43374
583,50.9835,0.272904,-1.43365
583.5,51.0337,0.275996,-1.4338
584,51.0836,0.276098,-1.43465
584.5,51.1339,0.278232,-1.43498
585,51.1829,0.273622,-1.43629
585.5,51.2332,0.281088,-1.43495
586,51.2825,0.280181,-1.43493
586.5,51.3336,0.280379,-1.4376
587,51.3838,0.277962,-1.43761
587.5,51.4327,0.274283,-1.43727
588,51.4825,0.261457,-1.43728
588.5,51.533,0.272412,-1.43661
589,51.5819,0.268451,-1.43796
589.5,51.6324,0.263611,-1.43793
590,51.6823,0.263522,-1.43934
590.5,51.7327,0.261869,-1.43925
591,51.7826,0.266345,-1.43925
591.5,51.8321,0.261467,-1.43925
592,51.8816,0.256945,-1.43925
592.5,51.9314,0.257765,-1.4399
593,51.9823,0.257319,-1.44189
593.5,52.0316,0.262851,-1.44189
594,52.0816,0.254558,-1.44189
594.5,52.1321,0.252522,-1.44187
595,52.1812,0.251053,-1.44191
595.5,52.2317,0.254502,-1.44288
596,52.283,0.258308,-1.44288
596.5,52.3326,0.255146,-1.44168
597,52.3811,0.246387,-1.44287
597.5,52.4316,0.237518,-1.44155
598,52.4813,0.246169,-1.44155
598.5,52.5313,0.241961,-1.44023
599,52.5812,0.243499,-1.44022
599.5,52.6316,0.238359,-1.44288
600,52.6812,0.237998,-1.44287
600.5,52.7321,0.229749,-1.44155
601,52.782,0.220315,-1.44156
601.5,52.8314,0.221209,-1.44221
602,52.8818,0.223263,-1.44221
602.5,52.9324,0.222886,-1.44355
603,52.9813,0.219855,-1.44254
603.5,53.032,0.224028,-1.44254
604,53.0812,0.212735,-1.44394
604.5,53.13,0.210451,-1.44387
605,53.1801,0.206931,-1.44518
605.5,53.23,0.208578,-1.44518
606,53.2796,0.206426,-1.4465
606.5,53.3296,0.208402,-1.4465
607,53.3807,0.201085,-1.44778
607.5,53.4302,0.202378,-1.4478
608,53.4797,0.200637,-1.44465
608.5,53.5303,0.203189,-1.44576
609,53.5801,0.192422,-1.44802
609.5,53.6316,0.195439,-1.44556
610,53.6813,0.198927,-1.44529
610.5,53.7308,0.196808,-1.44529
611,53.7819,0.19335,-1.44463
611.5,53.8309,0.189136,-1.44463
612,53.8813,0.191969,-1.44464
612.5,53.9311,0.192539,-1.4424
613,53.9807,0.190477,-1.44705
613.5,54.0313,0.187957,-1.44894
614,54.0816,0.181586,-1.45022
614.5,54.1309,0.179589,-1.45022
615,54.1813,0.181798,-1.44893
615.5,54.231,0.169528,-1.4489
616,54.2813,0.177474,-1.4476
616.5,54.3302,0.170023,-1.4476
617,54.3818,0.1721,-1.44777
617.5,54.4319,0.173417,-1.44891
618,54.4816,0.17702,-1.44891
618.5,54.5318,0.168747,-1.44891
619,54.5816,0.167743,-1.44902
619.5,54.6318,0.164732,-1.45023
620,54.6813,0.16138,-1.44879
620.5,54.7314,0.168879,-1.44891
621,54.782,0.16305,-1.44891
621.5,54.8321,0.163342,-1.44894
622,54.882,0.17109,-1.44892
622.5,54.9319,0.158546,-1.44891
623,54.981,0.155362,-1.44855
623.5,55.0316,0.159057,-1.44858
624,55.0822,0.155254,-1.44856
624.5,55.1323,0.158333,-1.4509
625,55.182,0.158724,-1.45089
625.5,55.2312,0.157598,-1.44982
626,55.2816,0.147667,-1.4499
626.5,55.3317,0.159552,-1.4499
627,55.3816,0.153667,-1.4499
627.5,55.4311,0.153968,-1.4499
628,55.4817,0.151591,-1.4499
628.5,55.5318,0.151209,-1.4499
629,55.5814,0.156384,-1.44989
629.5,55.6314,0.156048,-1.45007
630,55.6795,0.161288,-1.44946
630.5,55.7301,0.155564,-1.44946
631,55.7805,0.154831,-1.44946
631.5,55.8298,0.154677,-1.44841
632,55.8807,0.153321,-1.44848
632.5,55.9311,0.151968,-1.44845
633,55.9782,0.156949,-1.44979
633.5,56.0283,0.160831,-1.44974
634,56.0799,0.158072,-1.4511
634.5,56.1308,0.161851,-1.4511
635,56.1811,0.160339,-1.45247
635.5,56.2285,0.158905,-1.45242
636,56.2806,0.156318,-1.45243
636.5,56.332,0.152038,-1.45374
637,56.3805,0.146691,-1.45239
637.5,56.4308,0.14347,-1.45242
638,56.4815,0.147587,-1.45242
638.5,56.5314,0.149159,-1.45241
639,56.5796,0.145777,-1.45144
639.5,56.6314,0.145472,-1.45144
640,56.6821,0.14251,-1.45273
640.5,56.7314,0.145428,-1.45276
641,56.7818,0.13827,-1.45276
641.5,56.8324,0.127196,-1.45243
642,56.8816,0.130048,-1.45243
642.5,56.9321,0.128745,-1.45243
643,56.9821,0.115714,-1.45243
643.5,57.0328,0.117405,-1.45506
644,57.083,0.116732,-1.45506
644.5,57.1324,0.108135,-1.45506
645,57.1831,0.10408,-1.45375
645.5,57.2332,0.097205,-1.45375
646,57.2839,0.0942196,-1.45467
646.5,57.3333,0.0971995,-1.45508
647,57.3836,0.0929915,-1.45375
647.5,57.4329,0.0953193,-1.45418
648,57.4838,0.0940515,-1.45503
648.5,57.5343,0.0902311,-1.45374
649,57.5838,0.0847613,-1.45446
649.5,57.634,0.0849463,-1.4544
650,57.6838,0.0722288,-1.45447
650.5,57.734,0.0684221,-1.45243
651,57.784,0.0713956,-1.45242
651.5,57.8343,0.0757441,-1.45379
652,57.884,0.0793395,-1.45505
652.5,57.9342,0.0678138,-1.45506
653,57.9846,0.0653482,-1.45506
653.5,58.0346,0.0558155,-1.4561
654,58.0846,0.0630284,-1.45605
654.5,58.1351,0.0656968,-1.45475
655,58.1852,0.0551794,-1.45473
655.5,58.2355,0.0515942,-1.45473
656,58.2849,0.0499808,-1.45505
656.5,58.3356,0.0473399,-1.45506
657,58.3857,0.0458925,-1.45506
657.5,58.4357,0.0425688,-1.45504
658,58.4852,0.0419278,-1.4551
658.5,58.5352,0.0414133,-1.45638
659,58.5847,0.0398295,-1.45534
659.5,58.6323,0.039038,-1.45507
660,58.6849,0.0328823,-1.4544
660.5,58.736,0.0316985,-1.4544
661,58.7855,0.0259086,-1.45578
661.5,58.8343,0.013366,-1.45572
662,58.8855,0.0253595,-1.45572
662.5,58.9356,0.024819,-1.45572
663,58.9853,0.0157939,-1.45572
663.5,59.0358,0.0123156,-1.45572
664,59.0832,0.00671584,-1.45572
664.5,59.1356,0.00363123,-1.45572
665,59.1863,0.00383191,-1.45572
665.5,59.2359,-0.00173677,-1.45823
666,59.2869,-0.00433376,-1.45835
666.5,59.3363,-0.00919915,-1.45835
667,59.3833,-0.0123044,-1.45835
667.5,59.435,-0.0170963,-1.45822
668,59.4856,-0.013616,-1.45933
668.5,59.5354,-0.0155182,-1.45788
669,59.5851,-0.0252873,-1.45649
669.5,59.6373,-0.0233156,-1.45649
670,59.6862,-0.0259438,-1.45781
670.5,59.7354,-0.0265139,-1.45783
671,59.7876,-0.0332044,-1.45649
671.5,59.8373,-0.0356825,-1.45505
672,59.8868,-0.0384557,-1.45377
672.5,59.9377,-0.0358331,-1.45384
673,59.9865,-0.0348641,-1.45418
673.5,60.0356,-0.038453,-1.45413
674,60.0872,-0.0380999,-1.4555
674.5,60.1363,-0.04897,-1.45642
675,60.1872,-0.0555682,-1.45685
675.5,60.2378,-0.0508541,-1.45682
676,60.2864,-0.0568007,-1.45682
676.5,60.3379,-0.0606542,-1.45682
677,60.3877,-0.0606415,-1.45682
677.5,60.4351,-0.0650271,-1.45813
678,60.4878,-0.078121,-1.45814
678.5,60.5383,-0.0802265,-1.45816
679,60.5872,-0.076101,-1.45873
679.5,60.6373,-0.0740961,-1.45814
680,60.6881,-0.0758315,-1.45814
680.5,60.7377,-0.0824045,-1.4581
681,60.7879,-0.0859084,-1.45912
681.5,60.8382,-0.0913589,-1.45785
682,60.8876,-0.103535,-1.4578
682.5,60.9359,-0.0960068,-1.45648
683,60.9885,-0.105233,-1.45648
683.5,61.0368,-0.100584,-1.45648
684,61.0886,-0.0984124,-1.4578
684.5,61.1382,-0.099952,-1.45782
685,61.1892,-0.106242,-1.45648
685.5,61.2391,-0.111304,-1.45649
686,61.2889,-0.111476,-1.45747
686.5,61.3394,-0.110694,-1.45747
687,61.3901,-0.10924,-1.45747
687.5,61.4401,-0.112915,-1.45779
688,61.4902,-0.118992,-1.45783
688.5,61.5405,-0.12041,-1.45879
689,61.5919,-0.11323,-1.45879
689.5,61.6412,-0.117101,-1.45879
690,61.691,-0.122229,-1.45744
690.5,61.7416,-0.1265,-1.4578
691,61.7903,-0.12995,-1.4578
691.5,61.8425,-0.133774,-1.4578
692,61.8918,-0.127502,-1.4578
692.5,61.943,-0.137474,-1.4565
693,61.9932,-0.134639,-1.45649
693.5,62.0435,-0.144561,-1.45677
694,62.0929,-0.141149,-1.45898
694.5,62.1433,-0.138589,-1.45912
695,62.1933,-0.142716,-1.45912
695.5,62.2443,-0.145733,-1.45912
696,62.2943,-0.150555,-1.45912
696.5,62.3441,-0.156257,-1.46041
697,62.3952,-0.153465,-1.46043
697.5,62.4457,-0.158484,-1.46043
698,62.4954,-0.159263,-1.46043
698.5,62.5451,-0.167452,-1.46013
699,62.5951,-0.167867,-1.45865
699.5,62.6464,-0.167419,-1.45688
700,62.6956,-0.170076,-1.4565
700.5,62.7458,-0.1734,-1.45768
701,62.7975,-0.175078,-1.45912
701.5,62.8472,-0.185652,-1.45774
702,62.8979,-0.187941,-1.4578
702.5,62.9468,-0.187849,-1.45781
703,62.9966,-0.191425,-1.45912
703.5,63.0465,-0.192798,-1.45912
704,63.098,-0.195545,-1.46043
704.5,63.1479,-0.196888,-1.46044
705,63.1981,-0.20979,-1.46044
705.5,63.248,-0.210548,-1.46044
706,63.299,-0.206031,-1.46044
706.5,63.3488,-0.208314,-1.46082
707,63.399,-0.210731,-1.46176
707.5,63.4487,-0.222707,-1.45948
708,63.4989,-0.209038,-1.45948
708.5,63.5498,-0.212792,-1.46044
709,63.5996,-0.210512,-1.46044
709.5,63.6509,-0.216263,-1.4604
710,63.7017,-0.226554,-1.46183
710.5,63.7504,-0.2303,-1.46176
711,63.8011,-0.229994,-1.46175
711.5,63.8516,-0.219885,-1.46045
712,63.9016,-0.222264,-1.46042
712.5,63.9521,-0.215276,-1.46079
713,64.0028,-0.219527,-1.46057
713.5,64.0506,-0.220321,-1.46109
714,64.1031,-0.223083,-1.46109
714.5,64.1536,-0.220529,-1.46109
715,64.2042,-0.22434,-1.46073
715.5,64.2546,-0.217688,-1.46076
716,64.3045,-0.225085,-1.46078
716.5,64.3537,-0.220209,-1.46046
717,64.4063,-0.236025,-1.46175
717.5,64.4556,-0.239104,-1.46044
718,64.5063,-0.23158,-1.46046
718.5,64.5553,-0.234759,-1.46043
719,64.6059,-0.238659,-1.46044
719.5,64.6568,-0.239876,-1.46044
720,64.7067,-0.24637,-1.46044
720.5,64.7573,-0.244019,-1.46044
721,64.8078,-0.245299,-1.46175
721.5,64.8579,-0.245305,-1.46176
722,64.9088,-0.253181,-1.46176
722.5,64.9588,-0.251769,-1.4628
723,65.009,-0.250813,-1.46143
723.5,65.0596,-0.254946,-1.46143
724,65.1093,-0.252432,-1.46143
724.5,65.1596,-0.260412,-1.46251
725,65.2098,-0.252675,-1.46275
725.5,65.2613,-0.259396,-1.46275
726,65.3112,-0.252724,-1.46277
726.5,65.3609,-0.24994,-1.46291
727,65.4103,-0.253806,-1.46309
727.5,65.4626,-0.24604,-1.46143
728,65.5132,-0.253068,-1.4628
728.5,65.5625,-0.25013,-1.46274
729,65.6125,-0.255222,-1.46274
729.5,65.6629,-0.251562,-1.46403
730,65.714,-0.253294,-1.46406
730.5,65.7644,-0.248039,-1.46406
731,65.8149,-0.252387,-1.46406
731.5,65.865,-0.245856,-1.46406
732,65.9154,-0.249263,-1.46406
732.5,65.9658,-0.253974,-1.46376
733,66.0163,-0.251605,-1.46307
733.5,66.0668,-0.255718,-1.46438
734,66.1166,-0.245,-1.46438
734.5,66.168,-0.247866,-1.46572
735,66.2181,-0.242874,-1.4657
735.5,66.2683,-0.240205,-1.46636
736,66.3184,-0.244111,-1.46637
736.5,66.3689,-0.245672,-1.46543
737,66.4203,-0.249641,-1.46505
737.5,66.4707,-0.240038,-1.46505
738,66.5213,-0.241003,-1.46429
738.5,66.5719,-0.239353,-1.46373
739,66.6226,-0.244569,-1.46373
739.5,66.6727,-0.244981,-1.46501
740,66.7216,-0.243072,-1.46505