File: 01_Data/Fiber_Reinforced_Helmet_Shell/STA/N2/10K_min/Fiber_Reinforced_Helmet_Shell_STA_N2_10KData_240404_R2.csv
Temp./C,Time/min,DSC/(mW/mg),Mass loss/mg
60.0,0.0,0.618103,-0.00508622
60.5,0.056036,0.632211,-0.00530799
61,0.110646,0.636303,-0.00380312
61.5,0.169912,0.648654,-0.0037983
62,0.225334,0.660855,-0.00390882
62.5,0.279678,0.654119,-0.00399491
63,0.336627,0.66542,-0.00393206
63.5,0.391015,0.68138,-0.00439919
64,0.445237,0.678793,-0.00532742
64.5,0.49969,0.690265,-0.00427872
65,0.551662,0.682224,-0.00546117
65.5,0.60701,0.69685,-0.00488891
66,0.660326,0.701499,-0.00612585
66.5,0.71374,0.694434,-0.00537013
67,0.767688,0.693915,-0.00650974
67.5,0.818391,0.688124,-0.00668592
68,0.873007,0.683594,-0.0067
68.5,0.924312,0.678916,-0.00669926
69,0.978685,0.679133,-0.00615499
69.5,1.03246,0.680621,-0.00537933
70,1.08339,0.672932,-0.00671426
70.5,1.13717,0.668476,-0.00595342
71,1.18945,0.679233,-0.00603933
71.5,1.24176,0.679597,-0.00478803
72,1.2935,0.679464,-0.00586741
72.5,1.34551,0.679976,-0.00703819
73,1.40067,0.685769,-0.00802038
73.5,1.45169,0.684088,-0.00802419
74,1.5031,0.685516,-0.00780501
74.5,1.55529,0.696433,-0.00715889
75,1.60674,0.689325,-0.00668967
75.5,1.65858,0.690867,-0.00777651
76,1.70997,0.692086,-0.00686152
76.5,1.76289,0.691546,-0.00805823
77,1.8128,0.697084,-0.00933875
77.5,1.86453,0.705556,-0.00934255
78,1.91613,0.70715,-0.0106438
78.5,1.96856,0.717106,-0.010587
79,2.01942,0.723099,-0.0106504
79.5,2.06968,0.713861,-0.00999335
80,2.12182,0.72423,-0.00952946
80.5,2.17484,0.719207,-0.01065
81,2.22548,0.718128,-0.0106497
81.5,2.27492,0.725267,-0.0110597
82,2.32514,0.728682,-0.0106492
82.5,2.37522,0.734701,-0.0119461
83,2.42731,0.737832,-0.01196
83.5,2.47822,0.747303,-0.0119606
84,2.52888,0.745655,-0.0133473
84.5,2.58043,0.743031,-0.0119699
85,2.62753,0.747946,-0.0119513
85.5,2.67941,0.760133,-0.0132928
86,2.73027,0.748803,-0.0119239
86.5,2.78054,0.769263,-0.0119712
87,2.83254,0.768142,-0.013292
87.5,2.88113,0.75978,-0.01329
88,2.93119,0.766605,-0.0132868
88.5,2.98238,0.767494,-0.0146039
89,3.03175,0.775033,-0.0146
89.5,3.08224,0.78115,-0.0145936
90,3.13255,0.776051,-0.0132809
90.5,3.18028,0.787753,-0.0137256
91,3.23062,0.794342,-0.0145996
91.5,3.28018,0.790111,-0.0140567
92,3.33046,0.798019,-0.0146004
92.5,3.38072,0.799667,-0.0146
93,3.43038,0.796189,-0.0146093
93.5,3.47944,0.810789,-0.0159112
94,3.52948,0.805273,-0.0163874
94.5,3.5778,0.807513,-0.0161811
95,3.62771,0.810858,-0.0152601
95.5,3.67566,0.808235,-0.01526
96,3.72522,0.809687,-0.0152659
96.5,3.77439,0.81624,-0.01655
97,3.82204,0.823681,-0.0156666
97.5,3.87371,0.830238,-0.0169087
98,3.92133,0.832285,-0.0169101
98.5,3.9709,0.826134,-0.0168381
99,4.02003,0.832146,-0.0182305
99.5,4.06853,0.826752,-0.01823
100,4.11888,0.835703,-0.01823
100.5,4.16579,0.83494,-0.01823
101,4.21474,0.834773,-0.0182239
101.5,4.2647,0.845193,-0.0195453
102,4.31403,0.850391,-0.0195139
102.5,4.36146,0.843745,-0.0192102
103,4.41097,0.839343,-0.0192082
103.5,4.45753,0.842661,-0.0203962
104,4.50782,0.851759,-0.0192119
104.5,4.55576,0.842058,-0.01921
105,4.60364,0.842445,-0.01921
105.5,4.65424,0.842242,-0.0192324
106,4.70238,0.85721,-0.0205304
106.5,4.75176,0.849761,-0.02053
107,4.80026,0.851393,-0.02053
107.5,4.84782,0.860486,-0.02053
108,4.89771,0.858964,-0.0205293
108.5,4.9448,0.847245,-0.0219192
109,4.99301,0.851646,-0.0218499
109.5,5.04387,0.861673,-0.0205307
110,5.09085,0.856213,-0.0205297
110.5,5.14078,0.861183,-0.0211975
111,5.18726,0.862485,-0.0218496
111.5,5.23733,0.863399,-0.0218088
112,5.28651,0.865781,-0.0220909
112.5,5.33585,0.862209,-0.0234903
113,5.38229,0.858301,-0.02349
113.5,5.43226,0.86503,-0.0234906
114,5.48024,0.861789,-0.0248005
114.5,5.52632,0.864233,-0.0240954
115,5.57604,0.862726,-0.02415
115.5,5.62705,0.859507,-0.02415
116,5.67395,0.858235,-0.0241499
116.5,5.72301,0.860063,-0.0241766
117,5.77204,0.863595,-0.0248202
117.5,5.8197,0.859681,-0.0254707
118,5.86864,0.860404,-0.0254712
118.5,5.9176,0.866964,-0.0264725
119,5.96568,0.857464,-0.0267802
119.5,6.01344,0.863843,-0.02678
120,6.06185,0.870075,-0.0267795
120.5,6.11181,0.858432,-0.0261437
121,6.15903,0.859716,-0.0275473
121.5,6.20845,0.866711,-0.0274399
122,6.25681,0.86339,-0.02744
122.5,6.30528,0.8675,-0.02744
123,6.3504,0.869882,-0.02744
123.5,6.40047,0.86222,-0.02744
124,6.45004,0.860438,-0.02744
124.5,6.49793,0.863319,-0.02744
125,6.54615,0.853792,-0.0274384
125.5,6.59515,0.854622,-0.0287641
126,6.64172,0.859104,-0.0287817
126.5,6.68985,0.863581,-0.0297625
127,6.7384,0.860415,-0.0284351
127.5,6.78692,0.865141,-0.02844
128,6.83457,0.860066,-0.02844
128.5,6.88311,0.868502,-0.02844
129,6.93151,0.851576,-0.0293124
129.5,6.97909,0.853792,-0.0294304
130,7.02716,0.85974,-0.0294067
130.5,7.07528,0.855841,-0.0297647
131,7.12275,0.851994,-0.0292336
131.5,7.17128,0.855551,-0.0297499
132,7.22054,0.861791,-0.02975
132.5,7.26753,0.860296,-0.02975
133,7.3155,0.852066,-0.0297472
133.5,7.36311,0.858279,-0.0304111
134,7.41125,0.862179,-0.0311518
134.5,7.45757,0.867837,-0.0300817
135,7.50812,0.862716,-0.03008
135.5,7.5553,0.858508,-0.03008
136,7.6037,0.857768,-0.03008
136.5,7.65203,0.866082,-0.030085
137,7.6994,0.859769,-0.0320068
137.5,7.74811,0.862329,-0.03206
138,7.797,0.859395,-0.03206
138.5,7.8433,0.858882,-0.03206
139,7.89198,0.865844,-0.03206
139.5,7.94046,0.859175,-0.0320601
140,7.98748,0.851785,-0.0320629
140.5,8.03626,0.862525,-0.0332743
141,8.08266,0.855947,-0.03305
141.5,8.13093,0.85654,-0.0330501
142,8.17903,0.865088,-0.0329219
142.5,8.22711,0.858403,-0.0320611
143,8.27453,0.856367,-0.0320597
143.5,8.32321,0.856144,-0.0325325
144,8.37005,0.868415,-0.0333697
144.5,8.41781,0.862887,-0.03337
145,8.46609,0.866423,-0.0333704
145.5,8.51426,0.859975,-0.0337222
146,8.56102,0.861395,-0.0347098
146.5,8.60924,0.860002,-0.0356815
147,8.65842,0.858903,-0.03568
147.5,8.70552,0.860915,-0.03568
148,8.75291,0.86441,-0.0356802
148.5,8.80011,0.863362,-0.0346786
149,8.84833,0.862755,-0.034789
149.5,8.89618,0.858138,-0.03601
150,8.94328,0.863099,-0.0360107
150.5,8.99113,0.868905,-0.0373474
151,9.03909,0.85597,-0.0375389
151.5,9.08662,0.867971,-0.0383518
152,9.1341,0.866172,-0.0373299
152.5,9.18184,0.867707,-0.0366471
153,9.22928,0.867199,-0.0363396
153.5,9.27812,0.866253,-0.0363401
154,9.32458,0.863578,-0.0365831
154.5,9.37301,0.860856,-0.0373297
155,9.4194,0.873965,-0.0376854
155.5,9.4673,0.867568,-0.03765
156,9.5154,0.868819,-0.037649
156.5,9.56319,0.870735,-0.0366201
157,9.61083,0.867101,-0.03765
157.5,9.65783,0.867048,-0.0376177
158,9.70361,0.875265,-0.0383181
158.5,9.75461,0.876581,-0.0386701
159,9.80147,0.871669,-0.0386401
159.5,9.84903,0.872767,-0.0386394
160,9.89599,0.873466,-0.039955
160.5,9.94356,0.884822,-0.03996
161,9.99165,0.877145,-0.0399623
161.5,10.0388,0.876172,-0.0389535
162,10.0862,0.87306,-0.03897
162.5,10.1342,0.877653,-0.03897
163,10.1826,0.873301,-0.03897
163.5,10.2295,0.880135,-0.03897
164,10.2768,0.874924,-0.0389719
164.5,10.3233,0.872553,-0.0397142
165,10.3717,0.876571,-0.0399627
165.5,10.4207,0.880475,-0.0399592
166,10.4671,0.890594,-0.0402924
166.5,10.5145,0.882593,-0.04029
167,10.5621,0.880182,-0.0402917
167.5,10.61,0.87956,-0.0415837
168,10.6578,0.880554,-0.0416
168.5,10.7052,0.881946,-0.0416
169,10.7526,0.884994,-0.0415861
169.5,10.7997,0.886074,-0.0403042
170,10.8471,0.882734,-0.0409036
170.5,10.8947,0.894411,-0.0412706
171,10.9424,0.889012,-0.0425968
171.5,10.9885,0.896442,-0.04259
172,11.038,0.889469,-0.04259
172.5,11.0853,0.88962,-0.0425903
173,11.1318,0.900941,-0.0426661
173.5,11.1805,0.888942,-0.0415521
174,11.2277,0.899596,-0.04293
174.5,11.2761,0.901048,-0.0429053
175,11.3235,0.899309,-0.043238
175.5,11.3704,0.906893,-0.0432497
176,11.4177,0.904681,-0.0424186
176.5,11.4657,0.907687,-0.0419388
177,11.513,0.913379,-0.0433351
177.5,11.561,0.914993,-0.0432599
178,11.6084,0.916797,-0.0432596
178.5,11.6555,0.917161,-0.0434502
179,11.7029,0.916928,-0.0449656
179.5,11.7496,0.919653,-0.0458894
180,11.7978,0.920211,-0.0456354
180.5,11.8453,0.917763,-0.0445809
181,11.8925,0.917723,-0.04458
181.5,11.9399,0.926078,-0.04458
182,11.9878,0.936148,-0.04458
182.5,12.0346,0.936806,-0.04458
183,12.0824,0.930712,-0.0445798
183.5,12.1293,0.934916,-0.0448133
184,12.1766,0.943785,-0.0465232
184.5,12.2256,0.937448,-0.0452431
185,12.2698,0.946157,-0.0452399
185.5,12.3191,0.944646,-0.0461145
186,12.3668,0.948964,-0.0465507
186.5,12.414,0.942951,-0.04655
187,12.4621,0.935254,-0.04655
187.5,12.5085,0.952582,-0.04655
188,12.5549,0.951943,-0.04655
188.5,12.6033,0.945524,-0.04655
189,12.651,0.954573,-0.04655
189.5,12.6973,0.954973,-0.0466262
190,12.7435,0.956243,-0.0478685
190.5,12.7925,0.960135,-0.0481666
191,12.8403,0.956442,-0.049713
191.5,12.888,0.970899,-0.0493204
192,12.9352,0.955416,-0.04852
192.5,12.9813,0.969693,-0.04852
193,13.03,0.969351,-0.0485048
193.5,13.0773,0.973287,-0.0495368
194,13.1255,0.967751,-0.0508286
194.5,13.1711,0.970045,-0.05083
195,13.2197,0.980647,-0.05083
195.5,13.2674,0.981324,-0.05083
196,13.3143,0.987823,-0.05083
196.5,13.3627,0.982746,-0.05083
197,13.4102,0.992957,-0.05083
197.5,13.458,0.995048,-0.05083
198,13.5052,1.00385,-0.05083
198.5,13.5533,0.997871,-0.05083
199,13.6016,0.996181,-0.05083
199.5,13.6482,1.00204,-0.0508274
200,13.6955,1.00324,-0.0512396
200.5,13.7419,1.01097,-0.0524801
201,13.7892,1.00883,-0.0524801
201.5,13.8374,1.00853,-0.0524267
202,13.8852,1.0221,-0.0538036
202.5,13.9324,1.01626,-0.0538
203,13.9806,1.02332,-0.0538
203.5,14.0277,1.01932,-0.0538
204,14.0753,1.02773,-0.0538001
204.5,14.1232,1.03679,-0.0537911
205,14.1707,1.04233,-0.0554438
205.5,14.2182,1.03961,-0.0554146
206,14.2659,1.03797,-0.0564335
206.5,14.3134,1.04375,-0.05643
207,14.3614,1.05057,-0.05643
207.5,14.4088,1.06348,-0.0564317
208,14.4565,1.05664,-0.057743
208.5,14.5033,1.06875,-0.0590564
209,14.5518,1.06771,-0.0590577
209.5,14.5984,1.07391,-0.060419
210,14.6459,1.07923,-0.0603799
210.5,14.6932,1.08196,-0.06038
211,14.741,1.09558,-0.06038
211.5,14.7881,1.09233,-0.06038
212,14.8366,1.10584,-0.0603908
212.5,14.884,1.10518,-0.0616931
213,14.9318,1.11248,-0.0617012
213.5,14.9793,1.11927,-0.0630257
214,15.0275,1.12789,-0.0643397
214.5,15.0745,1.13831,-0.06434
215,15.1217,1.14404,-0.0643582
215.5,15.1699,1.15179,-0.0656508
216,15.2173,1.16352,-0.0656483
216.5,15.2638,1.16231,-0.0673644
217,15.3117,1.17494,-0.0682795
217.5,15.36,1.19307,-0.0682828
218,15.4068,1.19476,-0.0695769
218.5,15.4548,1.19289,-0.0696698
219,15.5025,1.20745,-0.0709203
219.5,15.5501,1.2193,-0.0709134
220,15.5985,1.22012,-0.0722363
220.5,15.6461,1.23926,-0.0721748
221,15.6927,1.25726,-0.0735499
221.5,15.7408,1.27072,-0.07355
222,15.7883,1.28031,-0.0735639
222.5,15.8365,1.29402,-0.0748554
223,15.884,1.30592,-0.074771
223.5,15.9321,1.31235,-0.0774964
224,15.9789,1.33372,-0.0774949
224.5,16.027,1.34559,-0.0787925
225,16.0752,1.34625,-0.0801494
225.5,16.1221,1.36299,-0.0814663
226,16.1707,1.37777,-0.0827794
226.5,16.2177,1.3945,-0.0830065
227,16.2632,1.39927,-0.0840869
227.5,16.3134,1.41744,-0.08541
228,16.3605,1.43993,-0.0853163
228.5,16.4087,1.44376,-0.0867317
229,16.4556,1.46714,-0.0878976
229.5,16.5028,1.48503,-0.0880491
230,16.5518,1.49917,-0.0893633
230.5,16.6007,1.51477,-0.090666
231,16.648,1.53147,-0.0907708
231.5,16.6952,1.54829,-0.0933149
232,16.7444,1.55487,-0.0947097
232.5,16.7913,1.57561,-0.0959781
233,16.8391,1.57821,-0.0973739
233.5,16.887,1.59375,-0.0986883
234,16.9339,1.6105,-0.0987003
234.5,16.9828,1.62343,-0.100133
235,17.0288,1.63845,-0.101478
235.5,17.0785,1.64527,-0.102844
236,17.1263,1.66982,-0.104706
236.5,17.1737,1.6757,-0.105471
237,17.2216,1.6823,-0.107269
237.5,17.2697,1.70166,-0.108751
238,17.3166,1.70502,-0.11021
238.5,17.3648,1.72421,-0.1116
239,17.4128,1.72539,-0.114759
239.5,17.4577,1.73159,-0.116495
240,17.5079,1.74102,-0.116842
240.5,17.5555,1.73927,-0.119809
241,17.6039,1.74258,-0.121146
241.5,17.6509,1.74127,-0.123165
242,17.6985,1.73414,-0.124487
242.5,17.7461,1.72871,-0.125933
243,17.7943,1.72111,-0.128105
243.5,17.8414,1.71444,-0.13068
244,17.8883,1.70654,-0.131661
244.5,17.9358,1.69258,-0.133004
245,17.9833,1.69086,-0.134922
245.5,18.0312,1.66752,-0.136285
246,18.0793,1.64212,-0.139226
246.5,18.126,1.63752,-0.140931
247,18.1722,1.6221,-0.142873
247.5,18.2202,1.60869,-0.1451
248,18.2692,1.58846,-0.147144
248.5,18.3163,1.58643,-0.149067
249,18.3637,1.57345,-0.152157
249.5,18.4093,1.54877,-0.153604
250,18.4589,1.5362,-0.155466
250.5,18.5032,1.52291,-0.157577
251,18.5541,1.50471,-0.160267
251.5,18.6008,1.49147,-0.162378
252,18.6482,1.47024,-0.165217
252.5,18.6951,1.45464,-0.166992
253,18.7428,1.43379,-0.170528
253.5,18.7887,1.42773,-0.172559
254,18.8384,1.40529,-0.173821
254.5,18.8857,1.38971,-0.17581
255,18.9334,1.38008,-0.178086
255.5,18.9791,1.36837,-0.179743
256,19.0276,1.35494,-0.182847
256.5,19.0757,1.34732,-0.184499
257,19.1237,1.33097,-0.187354
257.5,19.1696,1.31849,-0.190406
258,19.2182,1.32006,-0.192986
258.5,19.2662,1.30931,-0.195839
259,19.3135,1.29067,-0.197271
259.5,19.3603,1.28288,-0.198933
260,19.4084,1.27243,-0.202227
260.5,19.4548,1.26905,-0.20538
261,19.5037,1.26445,-0.208652
261.5,19.5506,1.25876,-0.210772
262,19.5983,1.25248,-0.212845
262.5,19.646,1.2407,-0.213912
263,19.693,1.23539,-0.217588
263.5,19.7409,1.22566,-0.222729
264,19.7892,1.23057,-0.225668
264.5,19.8371,1.22634,-0.227967
265,19.8821,1.22507,-0.230206
265.5,19.9304,1.21198,-0.233023
266,19.9799,1.20982,-0.235502
266.5,20.0276,1.19448,-0.239072
267,20.0745,1.19507,-0.242473
267.5,20.1217,1.19633,-0.245196
268,20.1691,1.20186,-0.248723
268.5,20.2182,1.18956,-0.251801
269,20.2648,1.17812,-0.255796
269.5,20.3119,1.17636,-0.260223
270,20.3591,1.17535,-0.262475
270.5,20.4077,1.16416,-0.2663
271,20.4545,1.14963,-0.271112
271.5,20.5021,1.13794,-0.274652
272,20.5496,1.13547,-0.278414
272.5,20.5978,1.12116,-0.28259
273,20.645,1.10217,-0.287267
273.5,20.693,1.07424,-0.29136
274,20.7396,1.05369,-0.295104
274.5,20.7866,1.03313,-0.299065
275,20.8352,1.00297,-0.303465
275.5,20.882,0.979671,-0.307603
276,20.9293,0.950469,-0.311618
276.5,20.9764,0.931535,-0.317019
277,21.0247,0.897624,-0.320893
277.5,21.0705,0.860494,-0.325445
278,21.1191,0.841883,-0.329609
278.5,21.1659,0.816119,-0.334754
279,21.2135,0.787665,-0.339808
279.5,21.2613,0.756245,-0.343287
280,21.3078,0.737202,-0.347987
280.5,21.355,0.699265,-0.353375
281,21.4029,0.674097,-0.35755
281.5,21.4503,0.65663,-0.362805
282,21.4976,0.627275,-0.368647
282.5,21.546,0.611967,-0.37251
283,21.5927,0.59818,-0.377191
283.5,21.6403,0.585308,-0.381591
284,21.6871,0.572993,-0.385334
284.5,21.7351,0.555053,-0.389784
285,21.7834,0.5614,-0.394262
285.5,21.8313,0.539959,-0.399051
286,21.8784,0.541991,-0.403196
286.5,21.9271,0.547388,-0.40767
287,21.9731,0.543184,-0.412739
287.5,22.0215,0.553653,-0.416357
288,22.0696,0.549168,-0.418962
288.5,22.1176,0.553427,-0.422567
289,22.1657,0.560932,-0.425871
289.5,22.2106,0.561015,-0.430381
290,22.2617,0.56481,-0.434534
290.5,22.307,0.569419,-0.436212
291,22.3562,0.578449,-0.439402
291.5,22.4046,0.580101,-0.442982
292,22.4508,0.5831,-0.444741
292.5,22.4997,0.586346,-0.448204
293,22.547,0.593177,-0.450963
293.5,22.5955,0.589776,-0.454069
294,22.6411,0.594918,-0.455636
294.5,22.6918,0.605192,-0.458342
295,22.739,0.606146,-0.459829
295.5,22.7866,0.612926,-0.461336
296,22.8339,0.609309,-0.464525
296.5,22.8831,0.618681,-0.466925
297,22.9296,0.613862,-0.470337
297.5,22.9781,0.619285,-0.471649
298,23.0259,0.628618,-0.47392
298.5,23.0731,0.628522,-0.476241
299,23.1218,0.63336,-0.47899
299.5,23.1682,0.635416,-0.480658
300,23.2155,0.641829,-0.48212
300.5,23.264,0.642898,-0.483901
301,23.3127,0.641608,-0.4851
301.5,23.36,0.651122,-0.487495
302,23.4093,0.648986,-0.488965
302.5,23.457,0.658421,-0.491609
303,23.5048,0.655048,-0.493298
303.5,23.5525,0.644129,-0.494574
304,23.6,0.653054,-0.495866
304.5,23.648,0.658406,-0.497864
305,23.6966,0.656667,-0.500404
305.5,23.7438,0.658711,-0.501705
306,23.7921,0.655292,-0.503394
306.5,23.8399,0.659141,-0.505082
307,23.8879,0.663934,-0.506319
307.5,23.9353,0.654039,-0.507613
308,23.9846,0.652636,-0.509689
308.5,24.0315,0.657214,-0.512255
309,24.0766,0.668885,-0.513553
309.5,24.1271,0.662527,-0.514956
310,24.1751,0.650757,-0.516576
310.5,24.2229,0.663029,-0.517959
311,24.2713,0.66388,-0.520271
311.5,24.319,0.654645,-0.521353
312,24.3679,0.659145,-0.522925
312.5,24.4147,0.663198,-0.52435
313,24.4622,0.657631,-0.525794
313.5,24.51,0.65748,-0.528058
314,24.5588,0.657921,-0.529676
314.5,24.6074,0.657318,-0.531123
315,24.6548,0.65446,-0.532633
315.5,24.703,0.647062,-0.53387
316,24.7508,0.654888,-0.535378
316.5,24.7992,0.660949,-0.536854
317,24.8469,0.649177,-0.537841
317.5,24.8959,0.652018,-0.540573
318,24.9444,0.647428,-0.542984
318.5,24.9911,0.649654,-0.544305
319,25.0389,0.647768,-0.544296
319.5,25.0877,0.648883,-0.545743
320,25.1349,0.646277,-0.545109
320.5,25.1828,0.646594,-0.54705
321,25.2313,0.647656,-0.549513
321.5,25.2792,0.648831,-0.552507
322,25.3271,0.641712,-0.552537
322.5,25.3761,0.638458,-0.553924
323,25.4229,0.636245,-0.555167
323.5,25.4711,0.647469,-0.55536
324,25.5195,0.637461,-0.556606
324.5,25.5671,0.633681,-0.558162
325,25.616,0.627774,-0.560648
325.5,25.6631,0.633721,-0.561547
326,25.7121,0.62894,-0.563201
326.5,25.7606,0.628966,-0.564519
327,25.8081,0.626344,-0.565818
327.5,25.8567,0.625083,-0.566781
328,25.9047,0.628103,-0.568703
328.5,25.9526,0.620604,-0.57006
329,26.0008,0.621585,-0.572752
329.5,26.0482,0.627453,-0.574679
330,26.0968,0.621859,-0.575916
330.5,26.1446,0.62435,-0.577119
331,26.1928,0.623082,-0.578633
331.5,26.2414,0.635759,-0.581043
332,26.2895,0.608558,-0.583797
332.5,26.3361,0.615129,-0.585405
333,26.3855,0.609256,-0.586902
333.5,26.4339,0.611436,-0.588222
334,26.4824,0.615503,-0.589548
334.5,26.5308,0.610041,-0.590928
335,26.5793,0.606726,-0.593509
335.5,26.6271,0.607103,-0.595333
336,26.6747,0.601693,-0.596546
336.5,26.723,0.60763,-0.598232
337,26.7713,0.596957,-0.599362
337.5,26.8204,0.601573,-0.601565
338,26.8685,0.598288,-0.602993
338.5,26.9162,0.6,-0.605445
339,26.9642,0.597765,-0.607704
339.5,27.0128,0.595248,-0.61007
340,27.0607,0.58895,-0.612135
340.5,27.1089,0.585156,-0.612548
341,27.1571,0.587472,-0.61475
341.5,27.2053,0.581072,-0.616078
342,27.2535,0.589262,-0.617875
342.5,27.3013,0.583495,-0.620682
343,27.3498,0.585286,-0.622989
343.5,27.3977,0.571602,-0.624563
344,27.4476,0.579882,-0.625772
344.5,27.4952,0.575278,-0.628696
345,27.5445,0.587127,-0.630361
345.5,27.5919,0.581333,-0.631824
346,27.6396,0.579879,-0.633358
346.5,27.6881,0.576055,-0.635018
347,27.7362,0.571964,-0.637377
347.5,27.7822,0.572637,-0.638818
348,27.8332,0.577035,-0.6417
348.5,27.8816,0.573103,-0.643039
349,27.9293,0.57372,-0.644565
349.5,27.978,0.564278,-0.645869
350,28.0261,0.572445,-0.64721
350.5,28.0722,0.564939,-0.650083
351,28.1225,0.572284,-0.652387
351.5,28.1713,0.563199,-0.654683
352,28.2197,0.562387,-0.656056
352.5,28.2675,0.570912,-0.657616
353,28.3167,0.563842,-0.660419
353.5,28.3641,0.563989,-0.662233
354,28.413,0.565555,-0.664747
354.5,28.4609,0.55076,-0.666519
355,28.5101,0.561345,-0.669325
355.5,28.5591,0.554385,-0.670959
356,28.6068,0.549327,-0.672618
356.5,28.6546,0.558357,-0.673864
357,28.7031,0.561647,-0.676386
357.5,28.7527,0.562745,-0.677695
358,28.8003,0.56481,-0.681433
358.5,28.8485,0.571294,-0.682825
359,28.8969,0.564605,-0.68581
359.5,28.9453,0.565915,-0.688257
360,28.9941,0.557344,-0.690642
360.5,29.0422,0.564388,-0.692759
361,29.0904,0.563025,-0.695068
361.5,29.1387,0.566199,-0.698404
362,29.1875,0.562278,-0.699992
362.5,29.2366,0.564194,-0.702423
363,29.2837,0.56242,-0.706044
363.5,29.3337,0.559917,-0.70816
364,29.3798,0.55256,-0.710712
364.5,29.4302,0.548437,-0.714401
365,29.4779,0.542224,-0.71752
365.5,29.5269,0.551511,-0.719491
366,29.5753,0.558166,-0.723059
366.5,29.6239,0.556954,-0.725491
367,29.672,0.55895,-0.729133
367.5,29.7208,0.554924,-0.732315
368,29.7689,0.557834,-0.734944
368.5,29.8175,0.559614,-0.738612
369,29.8659,0.549607,-0.741044
369.5,29.9146,0.561904,-0.742919
370,29.963,0.557836,-0.746481
370.5,30.0108,0.558671,-0.750576
371,30.0596,0.558928,-0.752601
371.5,30.1072,0.565126,-0.755214
372,30.1566,0.566376,-0.758496
372.5,30.2049,0.569429,-0.761351
373,30.2538,0.564208,-0.764839
373.5,30.3019,0.562947,-0.768657
374,30.3485,0.571355,-0.772558
374.5,30.3966,0.576625,-0.776096
375,30.4474,0.575338,-0.779706
375.5,30.4935,0.575737,-0.782781
376,30.5439,0.566442,-0.785792
376.5,30.5899,0.566997,-0.790469
377,30.6408,0.567146,-0.795827
377.5,30.6894,0.571281,-0.799793
378,30.7382,0.563342,-0.802103
378.5,30.7862,0.578728,-0.806326
379,30.8347,0.571499,-0.811139
379.5,30.8835,0.584008,-0.815041
380,30.9311,0.578061,-0.818877
380.5,30.9797,0.585447,-0.823667
381,31.028,0.580238,-0.826826
381.5,31.0772,0.585545,-0.833016
382,31.1252,0.578694,-0.836711
382.5,31.1739,0.583062,-0.839933
383,31.222,0.592858,-0.84393
383.5,31.2704,0.601778,-0.84904
384,31.3192,0.596991,-0.854178
384.5,31.3679,0.592872,-0.857685
385,31.4163,0.588608,-0.861822
385.5,31.4646,0.590507,-0.86592
386,31.5133,0.599093,-0.870828
386.5,31.5608,0.606219,-0.875189
387,31.6105,0.596832,-0.8808
387.5,31.659,0.601542,-0.88575
388,31.7076,0.613701,-0.890997
388.5,31.7564,0.604441,-0.896028
389,31.8042,0.60998,-0.900362
389.5,31.8544,0.607786,-0.905749
390,31.9017,0.615538,-0.910097
390.5,31.9504,0.616133,-0.914692
391,31.9985,0.606917,-0.919213
391.5,32.047,0.615947,-0.924182
392,32.0952,0.607036,-0.929392
392.5,32.1448,0.620443,-0.934272
393,32.1939,0.619883,-0.939403
393.5,32.2417,0.612071,-0.943682
394,32.2886,0.615164,-0.950008
394.5,32.3389,0.605852,-0.954642
395,32.388,0.606499,-0.960288
395.5,32.4369,0.605863,-0.964408
396,32.485,0.604932,-0.969775
396.5,32.5335,0.613764,-0.974928
397,32.5827,0.606606,-0.980006
397.5,32.6316,0.60454,-0.984616
398,32.6796,0.602411,-0.989962
398.5,32.7288,0.592883,-0.99402
399,32.7774,0.603213,-0.999459
399.5,32.8263,0.592781,-1.00404
400,32.8748,0.594995,-1.0093
400.5,32.9236,0.585839,-1.01391
401,32.9727,0.590058,-1.0193
401.5,33.021,0.588708,-1.02389
402,33.0696,0.584063,-1.02881
402.5,33.117,0.585303,-1.03386
403,33.1673,0.568113,-1.03915
403.5,33.2161,0.573072,-1.04438
404,33.2654,0.574624,-1.04867
404.5,33.3139,0.583578,-1.0546
405,33.3628,0.566862,-1.0596
405.5,33.4128,0.569815,-1.06487
406,33.4604,0.568927,-1.06842
406.5,33.5095,0.55846,-1.07262
407,33.5579,0.565639,-1.07823
407.5,33.6067,0.558141,-1.08308
408,33.6558,0.560026,-1.08804
408.5,33.7044,0.551155,-1.09409
409,33.7528,0.551876,-1.09782
409.5,33.8025,0.551852,-1.1037
410,33.8508,0.548103,-1.10749
410.5,33.8992,0.541947,-1.11156
411,33.9485,0.539114,-1.11639
411.5,33.9981,0.546858,-1.11976
412,34.0466,0.536065,-1.12412
412.5,34.096,0.533407,-1.12799
413,34.1443,0.532663,-1.13276
413.5,34.1913,0.531003,-1.13476
414,34.2427,0.536306,-1.14037
414.5,34.291,0.521172,-1.14371
415,34.3402,0.525549,-1.14727
415.5,34.3893,0.525875,-1.15059
416,34.4376,0.524795,-1.15561
416.5,34.487,0.518694,-1.16021
417,34.5352,0.526277,-1.16409
417.5,34.5855,0.523568,-1.16752
418,34.6338,0.528832,-1.17125
418.5,34.6827,0.532073,-1.17454
419,34.7319,0.512478,-1.17832
419.5,34.7804,0.521418,-1.18069
420,34.8289,0.524402,-1.18334
420.5,34.8792,0.529612,-1.18754
421,34.9276,0.51979,-1.19145
421.5,34.9755,0.527195,-1.19488
422,35.0253,0.529457,-1.19939
422.5,35.075,0.523012,-1.20201
423,35.1236,0.531985,-1.20374
423.5,35.1722,0.534549,-1.20607
424,35.2212,0.531289,-1.20944
424.5,35.2704,0.527728,-1.21322
425,35.3184,0.53144,-1.21691
425.5,35.3688,0.53563,-1.21949
426,35.4174,0.541261,-1.22412
426.5,35.4669,0.541272,-1.22674
427,35.5155,0.548463,-1.22944
427.5,35.5644,0.538451,-1.23226
428,35.6137,0.536086,-1.23522
428.5,35.6606,0.549101,-1.2365
429,35.7109,0.544622,-1.23799
429.5,35.7612,0.549429,-1.24159
430,35.8093,0.555182,-1.24429
430.5,35.8591,0.548949,-1.24612
431,35.9081,0.543568,-1.24737
431.5,35.9571,0.546819,-1.24867
432,36.006,0.549341,-1.25012
432.5,36.055,0.552545,-1.25149
433,36.1048,0.540194,-1.25285
433.5,36.1541,0.554259,-1.25432
434,36.2032,0.553781,-1.25559
434.5,36.2511,0.553131,-1.25683
435,36.3006,0.563958,-1.25812
435.5,36.3499,0.561065,-1.25864
436,36.3985,0.559975,-1.25944
436.5,36.4487,0.556068,-1.26024
437,36.4986,0.558881,-1.2612
437.5,36.5472,0.567695,-1.26121
438,36.5961,0.563303,-1.26298
438.5,36.6462,0.562975,-1.26383
439,36.6956,0.560267,-1.26544
439.5,36.7434,0.561327,-1.26649
440,36.7934,0.564156,-1.26689
440.5,36.8416,0.564544,-1.26938
441,36.8917,0.573235,-1.26847
441.5,36.9407,0.572712,-1.26941
442,36.9907,0.571827,-1.27077
442.5,37.0405,0.5799,-1.27185
443,37.0892,0.583389,-1.27319
443.5,37.1371,0.574448,-1.27415
444,37.1871,0.577169,-1.2747
444.5,37.2367,0.591187,-1.27599
445,37.2862,0.581298,-1.2747
445.5,37.3352,0.588257,-1.27601
446,37.384,0.582104,-1.27628
446.5,37.435,0.5812,-1.27646
447,37.4836,0.590265,-1.27639
447.5,37.5327,0.58884,-1.27733
448,37.5821,0.588136,-1.27865
448.5,37.6305,0.583557,-1.27986
449,37.6815,0.587677,-1.27861
449.5,37.7308,0.577108,-1.27996
450,37.78,0.593579,-1.28104
450.5,37.8302,0.583749,-1.28124
451,37.879,0.586193,-1.2826
451.5,37.9278,0.590758,-1.28394
452,37.9776,0.584334,-1.28491
452.5,38.028,0.59102,-1.28621
453,38.0777,0.593086,-1.28753
453.5,38.1274,0.594675,-1.28791
454,38.1762,0.589255,-1.28918
454.5,38.2252,0.594265,-1.28936
455,38.2749,0.597837,-1.29186
455.5,38.3241,0.597572,-1.29315
456,38.3738,0.598745,-1.29316
456.5,38.4233,0.607897,-1.29445
457,38.4713,0.604624,-1.29566
457.5,38.5223,0.60167,-1.29768
458,38.5729,0.600778,-1.29807
458.5,38.6215,0.603584,-1.29971
459,38.6718,0.594063,-1.29972
459.5,38.7208,0.596674,-1.30244
460,38.7709,0.593269,-1.30232
460.5,38.8205,0.590234,-1.3037
461,38.8693,0.593447,-1.30498
461.5,38.9195,0.580447,-1.30499
462,38.9681,0.58726,-1.30501
462.5,39.0186,0.583715,-1.30764
463,39.0681,0.584161,-1.30848
463.5,39.1178,0.595146,-1.30895
464,39.1667,0.57944,-1.31039
464.5,39.2167,0.584023,-1.30895
465,39.2652,0.572216,-1.31027
465.5,39.3153,0.578553,-1.31158
466,39.3637,0.580011,-1.3129
466.5,39.4136,0.57509,-1.3129
467,39.4608,0.569692,-1.31281
467.5,39.5127,0.577412,-1.31422
468,39.5619,0.574763,-1.31547
468.5,39.6119,0.562363,-1.31555
469,39.6596,0.563834,-1.31765
469.5,39.7108,0.555975,-1.31783
470,39.7606,0.552157,-1.31783
470.5,39.8106,0.570315,-1.31918
471,39.8599,0.555361,-1.31915
471.5,39.9094,0.552771,-1.32048
472,39.9582,0.544385,-1.32008
472.5,40.0086,0.545341,-1.32145
473,40.0571,0.544701,-1.32279
473.5,40.1074,0.542319,-1.32409
474,40.1572,0.548984,-1.32411
474.5,40.2068,0.554622,-1.32674
475,40.2564,0.55107,-1.32673
475.5,40.3054,0.537052,-1.32601
476,40.3548,0.54928,-1.32673
476.5,40.4058,0.535576,-1.32691
477,40.454,0.540839,-1.32804
477.5,40.5038,0.545437,-1.32935
478,40.5532,0.549307,-1.32936
478.5,40.6029,0.547955,-1.32936
479,40.653,0.53596,-1.33068
479.5,40.7001,0.540546,-1.33199
480,40.7504,0.537928,-1.332
480.5,40.8012,0.541284,-1.33339
481,40.8513,0.536014,-1.33465
481.5,40.9015,0.538398,-1.33463
482,40.9512,0.537155,-1.33595
482.5,41,0.537437,-1.33635
483,41.0495,0.531315,-1.33727
483.5,41.0999,0.530896,-1.33716
484,41.1493,0.532247,-1.33859
484.5,41.1991,0.538675,-1.33972
485,41.25,0.52974,-1.3399
485.5,41.2982,0.531442,-1.3399
486,41.3488,0.528441,-1.34101
486.5,41.3988,0.524992,-1.34122
487,41.448,0.533044,-1.34124
487.5,41.4973,0.539226,-1.34256
488,41.5476,0.524264,-1.34386
488.5,41.5977,0.518291,-1.34386
489,41.6479,0.522724,-1.34522
489.5,41.6971,0.525714,-1.34517
490,41.7453,0.525467,-1.34517
490.5,41.7972,0.515827,-1.34519
491,41.8459,0.507771,-1.34649
491.5,41.896,0.50308,-1.34712
492,41.9458,0.510951,-1.34781
492.5,41.9961,0.508412,-1.34774
493,42.0455,0.503103,-1.34913
493.5,42.0952,0.49911,-1.34913
494,42.1447,0.50224,-1.34913
494.5,42.1958,0.497279,-1.35001
495,42.2449,0.496471,-1.35044
495.5,42.2948,0.492815,-1.35299
496,42.3443,0.494587,-1.35311
496.5,42.3937,0.481913,-1.35175
497,42.4443,0.476978,-1.35186
497.5,42.4941,0.473365,-1.35308
498,42.543,0.481242,-1.3544
498.5,42.593,0.473532,-1.3544
499,42.6412,0.461254,-1.35504
499.5,42.6928,0.467608,-1.35571
500,42.7425,0.46006,-1.35701
500.5,42.792,0.456219,-1.35701
501,42.8413,0.46266,-1.35812
501.5,42.8917,0.464207,-1.35962
502,42.9415,0.450267,-1.35964
502.5,42.9904,0.451832,-1.36098
503,43.041,0.456465,-1.3623
503.5,43.0907,0.453318,-1.36098
504,43.1406,0.45687,-1.3623
504.5,43.1911,0.449496,-1.3631
505,43.241,0.451204,-1.36362
505.5,43.2911,0.449543,-1.36359
506,43.3394,0.453677,-1.36494
506.5,43.3893,0.462588,-1.3644
507,43.4401,0.450129,-1.36559
507.5,43.4894,0.453999,-1.36496
508,43.5397,0.445616,-1.36625
508.5,43.5864,0.452141,-1.36625
509,43.6392,0.455604,-1.36625
509.5,43.6887,0.44981,-1.36762
510,43.7387,0.446914,-1.36887
510.5,43.7864,0.454167,-1.36959
511,43.8387,0.45373,-1.36887
511.5,43.8886,0.454274,-1.36883
512,43.9388,0.448041,-1.37016
512.5,43.9878,0.454597,-1.37152
513,44.0378,0.448237,-1.37267
513.5,44.0882,0.457681,-1.37152
514,44.1375,0.460973,-1.37173
514.5,44.1879,0.464018,-1.37248
515,44.2379,0.452024,-1.37251
515.5,44.2877,0.451682,-1.37377
516,44.3374,0.457315,-1.37383
516.5,44.3866,0.455081,-1.37511
517,44.4369,0.455611,-1.37514
517.5,44.4882,0.463579,-1.37514
518,44.5365,0.45464,-1.37514
518.5,44.5868,0.452228,-1.37637
519,44.637,0.455115,-1.37646
519.5,44.687,0.457103,-1.3779
520,44.737,0.457158,-1.3778
520.5,44.7846,0.462071,-1.3804
521,44.8368,0.460803,-1.38042
521.5,44.8865,0.471122,-1.37905
522,44.9364,0.469861,-1.3791
522.5,44.9864,0.465212,-1.37976
523,45.036,0.470566,-1.38041
523.5,45.086,0.473053,-1.38041
524,45.1361,0.463493,-1.38148
524.5,45.1861,0.462712,-1.38176
525,45.2352,0.479159,-1.38173
525.5,45.2862,0.478863,-1.38199
526,45.3355,0.472229,-1.38305
526.5,45.386,0.484927,-1.38308
527,45.4356,0.474324,-1.38437
527.5,45.4861,0.49262,-1.38436
528,45.5352,0.484492,-1.38575
528.5,45.5844,0.4753,-1.38502
529,45.635,0.472983,-1.38502
529.5,45.6843,0.482769,-1.38502
530,45.7342,0.481872,-1.38639
530.5,45.7828,0.471661,-1.38634
531,45.8341,0.485689,-1.38766
531.5,45.8844,0.485429,-1.38766
532,45.9343,0.478454,-1.38897
532.5,45.9817,0.475983,-1.38899
533,46.034,0.47417,-1.39029
533.5,46.0843,0.468349,-1.39029
534,46.1344,0.467176,-1.3903
534.5,46.1847,0.466406,-1.3916
535,46.2336,0.467353,-1.39098
535.5,46.2841,0.468934,-1.39227
536,46.3337,0.468461,-1.39227
536.5,46.3838,0.471072,-1.39225
537,46.434,0.471438,-1.39418
537.5,46.4848,0.468843,-1.39424
538,46.5338,0.464973,-1.39424
538.5,46.584,0.465152,-1.39559
539,46.6335,0.467113,-1.39556
539.5,46.6832,0.476809,-1.39624
540,46.733,0.468465,-1.39553
540.5,46.783,0.46797,-1.39556
541,46.8326,0.470638,-1.39652
541.5,46.8835,0.462189,-1.39752
542,46.9339,0.462117,-1.39809
542.5,46.9834,0.473418,-1.39951
543,47.0333,0.459718,-1.39984
543.5,47.0841,0.45899,-1.39984
544,47.1337,0.450761,-1.40022
544.5,47.1831,0.457066,-1.40083
545,47.2333,0.453921,-1.40116
545.5,47.2837,0.444824,-1.40116
546,47.3333,0.443139,-1.40116
546.5,47.384,0.433822,-1.40251
547,47.4332,0.445686,-1.40249
547.5,47.4837,0.433387,-1.40379
548,47.5333,0.435724,-1.40379
548.5,47.5836,0.437818,-1.40511
549,47.6327,0.434814,-1.40511
549.5,47.6836,0.428012,-1.40511
550,47.733,0.432095,-1.40478
550.5,47.7836,0.433882,-1.4061
551,47.8336,0.435346,-1.4061
551.5,47.8826,0.432913,-1.4061
552,47.9327,0.425966,-1.40742
552.5,47.9825,0.423726,-1.40873
553,48.0331,0.4167,-1.40873
553.5,48.0843,0.415272,-1.40873
554,48.1332,0.410179,-1.40874
554.5,48.1817,0.413636,-1.41005
555,48.2319,0.40856,-1.41005
555.5,48.2829,0.402474,-1.41137
556,48.3326,0.398503,-1.41269
556.5,48.3828,0.402689,-1.41269
557,48.4331,0.394724,-1.41269
557.5,48.4836,0.397564,-1.41269
558,48.5338,0.388231,-1.41373
558.5,48.5836,0.378524,-1.414
559,48.6339,0.387422,-1.414
559.5,48.6833,0.385314,-1.41402
560,48.7348,0.377544,-1.41532
560.5,48.7845,0.366409,-1.41666
561,48.8342,0.364659,-1.41534
561.5,48.8848,0.363306,-1.41565
562,48.9348,0.367512,-1.41599
562.5,48.9851,0.367107,-1.41599
563,49.0342,0.365805,-1.41731
563.5,49.0853,0.354505,-1.41731
564,49.135,0.355961,-1.41747
564.5,49.1856,0.352403,-1.41862
565,49.2353,0.358289,-1.41898
565.5,49.2857,0.344912,-1.41909
566,49.3361,0.343481,-1.42022
566.5,49.3859,0.34788,-1.42126
567,49.4366,0.341735,-1.42126
567.5,49.486,0.339723,-1.42126
568,49.5365,0.346693,-1.42261
568.5,49.5864,0.339563,-1.42257
569,49.6369,0.344334,-1.42257
569.5,49.6872,0.330591,-1.42246
570,49.7368,0.338505,-1.42257
570.5,49.7875,0.344373,-1.42257
571,49.839,0.328434,-1.42399
571.5,49.888,0.326087,-1.42514
572,49.9384,0.322025,-1.42522
572.5,49.989,0.324943,-1.42651
573,50.0391,0.319462,-1.42655
573.5,50.089,0.314851,-1.4269
574,50.1397,0.313802,-1.42784
574.5,50.1892,0.316387,-1.42843
575,50.2393,0.318181,-1.42916
575.5,50.2894,0.31543,-1.42848
576,50.3393,0.316621,-1.42886
576.5,50.39,0.307653,-1.42952
577,50.4392,0.308453,-1.43051
577.5,50.4903,0.308549,-1.43048
578,50.5404,0.299802,-1.43146
578.5,50.588,0.306666,-1.43279
579,50.6408,0.302414,-1.43278
579.5,50.6919,0.304921,-1.43146
580,50.7414,0.301431,-1.43276
580.5,50.7905,0.299014,-1.4341
581,50.8409,0.300049,-1.43274
581.5,50.8906,0.287269,-1.434
582,50.9414,0.288815,-1.4341
582.5,50.9909,0.282693,-1.4341
583,51.0431,0.290322,-1.43543
583.5,51.0915,0.290052,-1.43542
584,51.1418,0.285141,-1.43542
584.5,51.1917,0.28881,-1.43629
585,51.2416,0.289111,-1.43673
585.5,51.2912,0.284186,-1.43673
586,51.3419,0.275069,-1.43675
586.5,51.3921,0.277049,-1.43805
587,51.4423,0.27859,-1.43805
587.5,51.4924,0.275164,-1.43899
588,51.5423,0.268069,-1.43937
588.5,51.5932,0.273995,-1.43937
589,51.6424,0.263764,-1.43937
589.5,51.6919,0.250995,-1.43937
590,51.743,0.257138,-1.44036
590.5,51.7933,0.257186,-1.44069
591,51.8429,0.25709,-1.44069
591.5,51.8939,0.25323,-1.44103
592,51.9423,0.252783,-1.442
592.5,51.9934,0.239596,-1.44234
593,52.0447,0.233342,-1.44233
593.5,52.0943,0.239726,-1.44243
594,52.1453,0.240404,-1.44332
594.5,52.1953,0.250985,-1.44326
595,52.2457,0.24254,-1.44318
595.5,52.2959,0.240206,-1.44332
596,52.3462,0.231225,-1.44333
596.5,52.3958,0.230379,-1.44366
597,52.4464,0.229253,-1.44431
597.5,52.4968,0.228312,-1.44431
598,52.5468,0.227922,-1.44431
598.5,52.597,0.227641,-1.44463
599,52.6478,0.2216,-1.44593
599.5,52.6978,0.207339,-1.44594
600,52.7482,0.205176,-1.44727
600.5,52.7976,0.209106,-1.44727
601,52.8487,0.203229,-1.44727
601.5,52.8992,0.202823,-1.44595
602,52.9493,0.203571,-1.44595
602.5,52.9987,0.20647,-1.44595
603,53.05,0.200248,-1.44713
603.5,53.0996,0.194319,-1.44727
604,53.1502,0.184515,-1.44727
604.5,53.1993,0.190348,-1.44723
605,53.2485,0.190967,-1.44996
605.5,53.2984,0.185095,-1.44859
606,53.3504,0.190235,-1.44859
606.5,53.4002,0.183712,-1.44859
607,53.4507,0.175788,-1.44859
607.5,53.5009,0.169849,-1.44859
608,53.5512,0.173095,-1.44994
608.5,53.6009,0.166172,-1.44991
609,53.6513,0.162342,-1.44991
609.5,53.7021,0.162952,-1.44991
610,53.7514,0.172457,-1.44991
610.5,53.802,0.1619,-1.45055
611,53.852,0.166222,-1.45048
611.5,53.9034,0.164243,-1.44959
612,53.9535,0.160754,-1.4499
612.5,54.0035,0.161325,-1.44993
613,54.0542,0.167092,-1.45198
613.5,54.1046,0.150781,-1.45254
614,54.1538,0.164105,-1.45254
614.5,54.2046,0.165128,-1.45252
615,54.2552,0.164935,-1.45189
615.5,54.3059,0.170501,-1.45188
616,54.3548,0.169558,-1.45286
616.5,54.4072,0.159136,-1.45287
617,54.4555,0.154193,-1.45287
617.5,54.5068,0.155826,-1.45316
618,54.5586,0.166987,-1.45385
618.5,54.6094,0.161064,-1.45378
619,54.6591,0.1541,-1.45505
619.5,54.7103,0.156011,-1.45517
620,54.7608,0.148899,-1.45517
620.5,54.811,0.155739,-1.45517
621,54.8612,0.146868,-1.45517
621.5,54.912,0.15037,-1.45517
622,54.9626,0.140451,-1.45517
622.5,55.0136,0.154516,-1.45517
623,55.0636,0.142416,-1.45517
623.5,55.1142,0.142836,-1.45484
624,55.1644,0.133488,-1.45619
624.5,55.2161,0.128743,-1.45616
625,55.2666,0.123841,-1.45616
625.5,55.3168,0.12398,-1.45616
626,55.3688,0.12214,-1.45616
626.5,55.4185,0.109469,-1.45744
627,55.4698,0.113909,-1.45876
627.5,55.5205,0.10799,-1.45881
628,55.57,0.0932622,-1.45615
628.5,55.6203,0.0912815,-1.45616
629,55.6714,0.0848908,-1.45617
629.5,55.7223,0.0767291,-1.45715
630,55.7714,0.0587069,-1.45749
630.5,55.8234,0.0430348,-1.45817
631,55.873,0.0435458,-1.45879
631.5,55.9236,0.0245129,-1.45879
632,55.9752,0.0246996,-1.45879
632.5,56.0256,0.0134387,-1.45879
633,56.0766,0.0078774,-1.45823
633.5,56.1265,0.00557362,-1.45748
634,56.1755,-0.00483714,-1.45748
634.5,56.2273,-0.0121506,-1.45745
635,56.278,-0.017219,-1.45781
635.5,56.3297,-0.0279599,-1.45782
636,56.3796,-0.0290905,-1.45912
636.5,56.4303,-0.0312921,-1.45912
637,56.4815,-0.0484161,-1.45783
637.5,56.5316,-0.056491,-1.45781
638,56.5831,-0.0492344,-1.45781
638.5,56.6331,-0.0526067,-1.45781
639,56.6832,-0.0612443,-1.45881
639.5,56.7346,-0.0715154,-1.4588
640,56.7851,-0.073552,-1.4588
640.5,56.8354,-0.0751183,-1.4588
641,56.8861,-0.0810883,-1.4588
641.5,56.9372,-0.0761543,-1.4588
642,56.9883,-0.0902377,-1.4588
642.5,57.0382,-0.0901001,-1.45886
643,57.0894,-0.093397,-1.46012
643.5,57.1399,-0.0859399,-1.46012
644,57.1902,-0.0911073,-1.46012
644.5,57.2416,-0.10158,-1.46109
645,57.2914,-0.112152,-1.46111
645.5,57.343,-0.103275,-1.4612
646,57.3937,-0.108254,-1.45979
646.5,57.4444,-0.10849,-1.45981
647,57.4952,-0.111075,-1.46078
647.5,57.5462,-0.116355,-1.46115
648,57.5973,-0.119971,-1.46111
648.5,57.648,-0.13357,-1.46111
649,57.698,-0.123846,-1.46248
649.5,57.7479,-0.127904,-1.46243
650,57.7998,-0.130818,-1.4611
650.5,57.8516,-0.129504,-1.4611
651,57.9025,-0.133774,-1.4611
651.5,57.9534,-0.140402,-1.4611
652,58.0043,-0.134912,-1.46243
652.5,58.0544,-0.144831,-1.46374
653,58.1053,-0.145244,-1.46234
653.5,58.1574,-0.146693,-1.46242
654,58.2087,-0.143111,-1.46242
654.5,58.2592,-0.147726,-1.46238
655,58.3106,-0.142475,-1.46374
655.5,58.3616,-0.141954,-1.46374
656,58.4124,-0.145992,-1.46374
656.5,58.4632,-0.142568,-1.46374
657,58.5144,-0.156877,-1.46374
657.5,58.5652,-0.150839,-1.46278
658,58.6167,-0.144629,-1.46275
658.5,58.6674,-0.149107,-1.46353
659,58.7182,-0.163252,-1.46408
659.5,58.7699,-0.157581,-1.46342
660,58.8207,-0.158427,-1.46341
660.5,58.8721,-0.157998,-1.46473
661,58.9233,-0.159055,-1.46472
661.5,58.9745,-0.154725,-1.46472
662,59.0253,-0.158469,-1.46472
662.5,59.0766,-0.15783,-1.46472
663,59.1271,-0.165609,-1.46436
663.5,59.1782,-0.171925,-1.4644
664,59.2281,-0.165704,-1.46569
664.5,59.2787,-0.172471,-1.46571
665,59.3313,-0.164761,-1.46484
665.5,59.3819,-0.163534,-1.46472
666,59.4338,-0.164571,-1.46472
666.5,59.4852,-0.168209,-1.46472
667,59.5346,-0.166594,-1.46472
667.5,59.5863,-0.162012,-1.46472
668,59.6374,-0.157863,-1.46472
668.5,59.6882,-0.160617,-1.46472
669,59.7406,-0.162918,-1.46495
669.5,59.7912,-0.166726,-1.46538
670,59.8426,-0.164902,-1.46538
670.5,59.8934,-0.165686,-1.46538
671,59.9445,-0.16274,-1.46538
671.5,59.9954,-0.168152,-1.46538
672,60.0473,-0.168254,-1.46538
672.5,60.0981,-0.165958,-1.46538
673,60.1495,-0.160011,-1.46538
673.5,60.2012,-0.159892,-1.46538
674,60.253,-0.164968,-1.46506
674.5,60.3033,-0.150865,-1.46572
675,60.3545,-0.160944,-1.46572
675.5,60.4061,-0.157273,-1.46571
676,60.4576,-0.154057,-1.46705
676.5,60.5078,-0.151249,-1.46704
677,60.5602,-0.152301,-1.46704
677.5,60.6095,-0.144482,-1.46628
678,60.6609,-0.148207,-1.4658
678.5,60.7126,-0.1493,-1.46703
679,60.764,-0.14558,-1.467
679.5,60.8143,-0.148162,-1.46572
680,60.8662,-0.152221,-1.46572
680.5,60.9167,-0.142043,-1.46582
681,60.968,-0.143598,-1.46638
681.5,61.0188,-0.132614,-1.46638
682,61.0709,-0.132914,-1.46752
682.5,61.1216,-0.128842,-1.46769
683,61.173,-0.127757,-1.46769
683.5,61.2238,-0.128911,-1.46769
684,61.275,-0.126824,-1.46769
684.5,61.3258,-0.125644,-1.46702
685,61.377,-0.136129,-1.46736
685.5,61.4284,-0.11963,-1.46735
686,61.4788,-0.115714,-1.46683
686.5,61.5304,-0.12481,-1.46769
687,61.5815,-0.113127,-1.46769
687.5,61.6316,-0.110362,-1.46769
688,61.6823,-0.105286,-1.46769
688.5,61.734,-0.104352,-1.4677
689,61.7855,-0.0976338,-1.46637
689.5,61.8356,-0.0918205,-1.46637
690,61.8852,-0.085367,-1.46637
690.5,61.9365,-0.101856,-1.46637
691,61.9888,-0.092589,-1.46637
691.5,62.0395,-0.0767037,-1.46637
692,62.0911,-0.0851086,-1.46637
692.5,62.1416,-0.0777297,-1.46637
693,62.1925,-0.0837194,-1.46635
693.5,62.2437,-0.0745626,-1.46769
694,62.2954,-0.0705192,-1.46769
694.5,62.3457,-0.0696773,-1.46767
695,62.3963,-0.0783939,-1.46802
695.5,62.4482,-0.0764296,-1.46802
696,62.4983,-0.0731074,-1.46802
696.5,62.5485,-0.0754379,-1.46802
697,62.6012,-0.0711163,-1.46802
697.5,62.6516,-0.0663382,-1.46802
698,62.7018,-0.0825663,-1.46802
698.5,62.7533,-0.0768925,-1.4687
699,62.8047,-0.071055,-1.46901
699.5,62.8554,-0.0916308,-1.46901
700,62.9059,-0.0819137,-1.46899
700.5,62.9572,-0.0842997,-1.46769
701,63.0082,-0.0760926,-1.46769
701.5,63.0579,-0.0874964,-1.46769
702,63.1095,-0.0894472,-1.469
702.5,63.1606,-0.0903886,-1.46901
703,63.2097,-0.0863409,-1.47017
703.5,63.2612,-0.087708,-1.469
704,63.3127,-0.0875944,-1.469
704.5,63.3626,-0.0900412,-1.46802
705,63.4149,-0.102228,-1.46802
705.5,63.4639,-0.0982126,-1.46858
706,63.5153,-0.0944582,-1.46999
706.5,63.5657,-0.105515,-1.46999
707,63.6169,-0.0959189,-1.46999
707.5,63.6686,-0.0957533,-1.4693
708,63.7194,-0.103113,-1.46868
708.5,63.7698,-0.113742,-1.46868
709,63.8207,-0.113429,-1.46972
709.5,63.8706,-0.118822,-1.46967
710,63.9214,-0.126785,-1.46968
710.5,63.9733,-0.123924,-1.47
711,64.0238,-0.130443,-1.47
711.5,64.075,-0.130954,-1.47
712,64.1254,-0.135582,-1.46955
712.5,64.176,-0.14928,-1.47066
713,64.2272,-0.133765,-1.46933
713.5,64.2778,-0.140929,-1.46934
714,64.3286,-0.139595,-1.4693
714.5,64.3783,-0.141303,-1.47066
715,64.4295,-0.143856,-1.47066
715.5,64.4816,-0.148154,-1.47066
716,64.5318,-0.146211,-1.47068
716.5,64.583,-0.153077,-1.47
717,64.6337,-0.155931,-1.47066
717.5,64.6844,-0.150042,-1.47069
718,64.7353,-0.151879,-1.47099
718.5,64.7837,-0.144771,-1.47099
719,64.8367,-0.148399,-1.47099
719.5,64.8872,-0.135892,-1.47099
720,64.9385,-0.147678,-1.47099
720.5,64.9896,-0.152402,-1.47099
721,65.0404,-0.14714,-1.47099
721.5,65.0913,-0.147764,-1.47128
722,65.1417,-0.149294,-1.47132
722.5,65.1925,-0.150822,-1.47132
723,65.2438,-0.158191,-1.47132
723.5,65.2939,-0.151276,-1.47131
724,65.3449,-0.160092,-1.47164
724.5,65.3952,-0.147526,-1.47165
725,65.4455,-0.154786,-1.47065
725.5,65.4975,-0.16117,-1.47065
726,65.5483,-0.154743,-1.47195
726.5,65.5995,-0.157566,-1.47194
727,65.6506,-0.171491,-1.47253
727.5,65.7009,-0.171029,-1.47131
728,65.7513,-0.174739,-1.47134
728.5,65.8032,-0.178254,-1.47263
729,65.8533,-0.179525,-1.47263
729.5,65.9028,-0.180719,-1.47263
730,65.9549,-0.176034,-1.47263
730.5,66.0058,-0.172816,-1.47263
731,66.0568,-0.172849,-1.47198
731.5,66.1058,-0.17292,-1.47122
732,66.1582,-0.166107,-1.47197
732.5,66.2097,-0.180308,-1.47197
733,66.2609,-0.179151,-1.47197
733.5,66.3122,-0.173838,-1.47197
734,66.3624,-0.184977,-1.47197
734.5,66.4137,-0.18365,-1.47197
735,66.4637,-0.175015,-1.47197
735.5,66.5139,-0.180083,-1.4733
736,66.5652,-0.185985,-1.47329
736.5,66.6168,-0.186618,-1.47329
737,66.6678,-0.189056,-1.47329
737.5,66.7185,-0.192984,-1.47329
738,66.7702,-0.196434,-1.47329
738.5,66.8207,-0.193025,-1.47329
739,66.8708,-0.201374,-1.47329
739.5,66.9213,-0.197292,-1.4739
740,66.973,-0.203181,-1.47393