File: 01_Data/Fiber_Reinforced_Helmet_Shell/STA/N2/10K_min/Fiber_Reinforced_Helmet_Shell_STA_N2_10KData_240125_R1.csv
Temp./C,Time/min,DSC/(mW/mg),Mass loss/mg
60.0,0.0,0.586408,-0.0149413
60.5,0.0554636,0.594459,-0.0149257
61,0.112894,0.605744,-0.0148914
61.5,0.169905,0.60555,-0.0149483
62,0.224717,0.599779,-0.0152218
62.5,0.279157,0.607802,-0.0160565
63,0.333347,0.615507,-0.0148417
63.5,0.389057,0.627347,-0.0148928
64,0.443207,0.627007,-0.0156756
64.5,0.495527,0.629935,-0.0163057
65,0.551208,0.627967,-0.0176626
65.5,0.603505,0.627509,-0.0173417
66,0.656927,0.625728,-0.01603
66.5,0.714244,0.634347,-0.0165173
67,0.767458,0.626399,-0.0163533
67.5,0.820031,0.629695,-0.0171746
68,0.872544,0.631861,-0.0163608
68.5,0.925245,0.63054,-0.0176684
69,0.977778,0.624379,-0.0176614
69.5,1.0311,0.630298,-0.0176741
70,1.08366,0.62878,-0.0165824
70.5,1.13681,0.624949,-0.0174313
71,1.18872,0.637217,-0.0174068
71.5,1.24104,0.63303,-0.01767
72,1.29436,0.639189,-0.01767
72.5,1.34588,0.638874,-0.0176765
73,1.3989,0.642969,-0.0163432
73.5,1.45029,0.648874,-0.017676
74,1.50325,0.65315,-0.0175616
74.5,1.55443,0.650494,-0.0176801
75,1.60617,0.65363,-0.01768
75.5,1.65931,0.661456,-0.0191367
76,1.70938,0.658136,-0.0204179
76.5,1.76147,0.66076,-0.0189889
77,1.81282,0.665196,-0.0176632
77.5,1.86475,0.668905,-0.0189898
78,1.91556,0.667124,-0.01899
78.5,1.96664,0.668696,-0.0203135
79,2.0175,0.680408,-0.02031
79.5,2.0694,0.682851,-0.0203119
80,2.11964,0.681045,-0.0215837
80.5,2.17129,0.695692,-0.0216215
81,2.22333,0.692979,-0.0202911
81.5,2.27333,0.691844,-0.0203082
82,2.32394,0.701616,-0.021489
82.5,2.37488,0.69522,-0.0206407
83,2.42583,0.693861,-0.020596
83.5,2.47665,0.696632,-0.0219604
84,2.52627,0.704709,-0.02196
84.5,2.57424,0.700583,-0.02196
85,2.62647,0.707749,-0.0219616
85.5,2.67734,0.714733,-0.0229437
86,2.7262,0.715457,-0.0230268
86.5,2.77789,0.71739,-0.02163
87,2.82538,0.715134,-0.0229642
87.5,2.87884,0.72948,-0.02294
88,2.92918,0.73085,-0.0229399
88.5,2.97775,0.732372,-0.023065
89,3.0275,0.728792,-0.02426
89.5,3.07823,0.732863,-0.02426
90,3.12833,0.72778,-0.0242597
90.5,3.17823,0.729235,-0.0255634
91,3.22581,0.725761,-0.0255799
91.5,3.27609,0.737299,-0.0258537
92,3.32561,0.739627,-0.0245172
92.5,3.37336,0.736829,-0.0255781
93,3.42521,0.745896,-0.02558
93.5,3.47431,0.745208,-0.02558
94,3.52291,0.745795,-0.02558
94.5,3.57344,0.750644,-0.02558
95,3.62307,0.747607,-0.0255801
95.5,3.67204,0.752709,-0.0255032
96,3.72042,0.75721,-0.0268898
96.5,3.77072,0.755888,-0.0255948
97,3.81876,0.75769,-0.0255699
97.5,3.86823,0.758519,-0.0269212
98,3.91675,0.767033,-0.02689
98.5,3.9647,0.765163,-0.0268897
99,4.01201,0.770814,-0.0283186
99.5,4.06248,0.761739,-0.0282098
100,4.11267,0.762778,-0.02821
100.5,4.16072,0.766088,-0.0282057
101,4.20925,0.76596,-0.0291937
101.5,4.25866,0.764989,-0.0295306
102,4.30834,0.764843,-0.0295303
102.5,4.35649,0.765803,-0.0294231
103,4.40219,0.771521,-0.0300178
103.5,4.45299,0.7695,-0.0298598
104,4.50196,0.772047,-0.0298603
104.5,4.55122,0.773595,-0.0308921
105,4.59802,0.782712,-0.03118
105.5,4.64699,0.777817,-0.03118
106,4.69401,0.771583,-0.03118
106.5,4.74461,0.77618,-0.03118
107,4.7928,0.773479,-0.03118
107.5,4.84105,0.776056,-0.03118
108,4.89003,0.7759,-0.0311801
108.5,4.9374,0.782711,-0.031198
109,4.98738,0.77868,-0.0308687
109.5,5.03578,0.778969,-0.0321613
110,5.08361,0.778952,-0.03217
110.5,5.1327,0.778555,-0.0321491
111,5.18072,0.787542,-0.0316536
111.5,5.22907,0.782027,-0.0321801
112,5.27606,0.784751,-0.0316914
112.5,5.32552,0.777654,-0.0308442
113,5.37396,0.779707,-0.0321826
113.5,5.42308,0.780394,-0.0321304
114,5.46998,0.779549,-0.0329608
114.5,5.51924,0.781534,-0.0344699
115,5.56737,0.789078,-0.03447
115.5,5.61564,0.791201,-0.0344698
116,5.66479,0.782163,-0.0347792
116.5,5.71259,0.790538,-0.0348031
117,5.76149,0.790006,-0.0348161
117.5,5.80932,0.78068,-0.0361157
118,5.85814,0.794075,-0.03612
118.5,5.90676,0.787727,-0.0362803
119,5.95488,0.796169,-0.0357807
119.5,6.00298,0.790463,-0.035743
120,6.05043,0.789516,-0.0371139
120.5,6.09975,0.786268,-0.0357851
121,6.14624,0.789312,-0.0357625
121.5,6.19493,0.793007,-0.0364511
122,6.24378,0.795342,-0.0364361
122.5,6.29237,0.788811,-0.0371116
123,6.33946,0.788034,-0.0371095
123.5,6.38754,0.793568,-0.0361834
124,6.43616,0.791514,-0.0357835
124.5,6.48447,0.796314,-0.0371061
125,6.53213,0.787006,-0.0371
125.5,6.57949,0.794581,-0.0371
126,6.62709,0.789856,-0.0371
126.5,6.67606,0.788619,-0.0370998
127,6.72269,0.789565,-0.0372524
127.5,6.77138,0.781478,-0.0374571
128,6.81934,0.790112,-0.0387468
128.5,6.86633,0.786329,-0.03875
129,6.91529,0.785296,-0.03875
129.5,6.96226,0.785594,-0.0387507
130,7.01149,0.792998,-0.0396419
130.5,7.0588,0.790898,-0.0400701
131,7.10741,0.788231,-0.0397595
131.5,7.15501,0.789758,-0.0397404
132,7.20244,0.796759,-0.039312
132.5,7.25014,0.792394,-0.0387496
133,7.29784,0.793521,-0.038747
133.5,7.34687,0.792743,-0.0400632
134,7.39472,0.794185,-0.04006
134.5,7.44218,0.786222,-0.04006
135,7.49022,0.788783,-0.04006
135.5,7.53902,0.795657,-0.04006
136,7.58587,0.790513,-0.04006
136.5,7.63403,0.79803,-0.0400773
137,7.68177,0.789943,-0.0394074
137.5,7.72903,0.795239,-0.03941
138,7.77669,0.79397,-0.03941
138.5,7.82533,0.788977,-0.03941
139,7.87296,0.791092,-0.0394355
139.5,7.92015,0.793317,-0.0407285
140,7.96994,0.790611,-0.0400426
140.5,8.01599,0.789541,-0.0400699
141,8.06443,0.794172,-0.04007
141.5,8.11157,0.792596,-0.0400713
142,8.15943,0.796149,-0.0413085
142.5,8.20732,0.792849,-0.0413901
143,8.25471,0.790391,-0.04139
143.5,8.30309,0.794954,-0.04139
144,8.3504,0.793845,-0.04139
144.5,8.39823,0.795217,-0.04139
145,8.44563,0.792552,-0.04139
145.5,8.49314,0.790985,-0.04139
146,8.53924,0.793256,-0.04139
146.5,8.58867,0.795617,-0.0413895
147,8.6367,0.793904,-0.0428124
147.5,8.68299,0.790302,-0.0427099
148,8.73085,0.786045,-0.04271
148.5,8.77916,0.792742,-0.0427199
149,8.82637,0.788659,-0.0439871
149.5,8.87392,0.780478,-0.0433552
150,8.92104,0.787142,-0.0434477
150.5,8.96893,0.780688,-0.0420498
151,9.01672,0.787843,-0.0421171
151.5,9.064,0.786007,-0.0433583
152,9.11178,0.783921,-0.04336
152.5,9.15874,0.780845,-0.04336
153,9.20679,0.783087,-0.0433539
153.5,9.25461,0.788074,-0.0440111
154,9.30257,0.787632,-0.0446842
154.5,9.34844,0.788257,-0.04468
155,9.39679,0.790137,-0.0446801
155.5,9.44536,0.794643,-0.0444363
156,9.49283,0.78738,-0.0443502
156.5,9.54022,0.790354,-0.0450498
157,9.58763,0.785997,-0.0456699
157.5,9.63523,0.797092,-0.04567
158,9.68318,0.800672,-0.04567
158.5,9.73084,0.790326,-0.04567
159,9.77721,0.799002,-0.04567
159.5,9.8256,0.793943,-0.0456796
160,9.8714,0.797103,-0.0469903
160.5,9.91897,0.795973,-0.0469708
161,9.96666,0.797806,-0.0456713
161.5,10.0144,0.79954,-0.0456698
162,10.0626,0.799976,-0.0457138
162.5,10.1085,0.799315,-0.0469904
163,10.157,0.79511,-0.0469895
163.5,10.2045,0.799572,-0.0474075
164,10.2523,0.797107,-0.0482998
164.5,10.2992,0.80726,-0.0483
165,10.3481,0.808689,-0.0483
165.5,10.3956,0.806416,-0.0483
166,10.4439,0.810795,-0.0483
166.5,10.4905,0.80424,-0.0483001
167,10.5375,0.813976,-0.0483092
167.5,10.585,0.820841,-0.0489402
168,10.6334,0.814051,-0.04896
168.5,10.6811,0.814411,-0.04896
169,10.7285,0.813994,-0.04896
169.5,10.7772,0.811616,-0.0489608
170,10.826,0.814963,-0.0485357
170.5,10.8728,0.812365,-0.0482994
171,10.9209,0.822472,-0.0484266
171.5,10.9687,0.817972,-0.0492886
172,11.0159,0.821602,-0.0492942
172.5,11.0633,0.817682,-0.0510489
173,11.1109,0.819255,-0.0509399
173.5,11.1589,0.820764,-0.05094
174,11.206,0.821518,-0.050926
174.5,11.2537,0.823568,-0.0519259
175,11.3015,0.827068,-0.053247
175.5,11.3491,0.823702,-0.05325
176,11.3966,0.827039,-0.05325
176.5,11.4435,0.836811,-0.0532166
177,11.4911,0.838167,-0.051932
177.5,11.5385,0.834781,-0.05193
178,11.5861,0.831535,-0.05193
178.5,11.6325,0.837329,-0.0519315
179,11.6823,0.836196,-0.052906
179.5,11.7287,0.838946,-0.0542224
180,11.777,0.834316,-0.05423
180.5,11.824,0.843734,-0.054234
181,11.8716,0.848081,-0.0528538
181.5,11.9192,0.84863,-0.05291
182,11.9671,0.847046,-0.05291
182.5,12.0144,0.851307,-0.05291
183,12.0626,0.851983,-0.05291
183.5,12.1101,0.85314,-0.0534748
184,12.1571,0.855264,-0.0538999
184.5,12.204,0.86297,-0.0538782
185,12.2503,0.859077,-0.0550498
185.5,12.2974,0.860016,-0.0555498
186,12.3442,0.858403,-0.05555
186.5,12.3938,0.865421,-0.05555
187,12.4409,0.860839,-0.0555499
187.5,12.4883,0.865108,-0.0559278
188,12.5356,0.863844,-0.0568691
188.5,12.5829,0.870346,-0.05687
189,12.6311,0.861595,-0.05687
189.5,12.6782,0.864832,-0.05687
190,12.7266,0.871762,-0.05687
190.5,12.7731,0.872918,-0.05687
191,12.8203,0.876774,-0.05687
191.5,12.8678,0.875228,-0.05687
192,12.9157,0.880909,-0.0569507
192.5,12.9616,0.883767,-0.0555492
193,13.0102,0.882436,-0.0555945
193.5,13.0574,0.891173,-0.0565389
194,13.1039,0.890858,-0.0565412
194.5,13.1512,0.889214,-0.057263
195,13.1998,0.895152,-0.0575439
195.5,13.2475,0.895155,-0.0575302
196,13.2937,0.893145,-0.0575366
196.5,13.3413,0.89601,-0.0582294
197,13.3881,0.902512,-0.0588426
197.5,13.4364,0.898769,-0.0595097
198,13.4852,0.905456,-0.05951
198.5,13.5299,0.909729,-0.05951
199,13.5769,0.91327,-0.05951
199.5,13.6268,0.914586,-0.0595108
200,13.6738,0.917421,-0.0602142
200.5,13.7218,0.922399,-0.0601597
201,13.7695,0.921926,-0.0602157
201.5,13.818,0.930778,-0.0608196
202,13.8641,0.927867,-0.0609746
202.5,13.913,0.938911,-0.0621295
203,13.9592,0.940468,-0.06213
203.5,14.0068,0.944504,-0.06213
204,14.0546,0.948642,-0.06213
204.5,14.1015,0.953159,-0.0621308
205,14.1494,0.957239,-0.063457
205.5,14.1966,0.959794,-0.06411
206,14.2439,0.960213,-0.0641112
206.5,14.292,0.967334,-0.0650843
207,14.3398,0.968783,-0.0660888
207.5,14.3872,0.976145,-0.0661031
208,14.4354,0.978605,-0.0667538
208.5,14.4819,0.982294,-0.06675
209,14.5298,0.98489,-0.0667498
209.5,14.5779,0.996909,-0.0668766
210,14.6245,0.992368,-0.0683878
210.5,14.6734,0.998101,-0.0692516
211,14.7211,1.01077,-0.0697105
211.5,14.768,1.01361,-0.0697101
212,14.816,1.02308,-0.0706646
212.5,14.8636,1.01961,-0.0706635
213,14.9113,1.03234,-0.0710294
213.5,14.9568,1.04045,-0.0712424
214,15.0061,1.04612,-0.0723492
214.5,15.0544,1.05939,-0.0723439
215,15.1016,1.06911,-0.0739623
215.5,15.1467,1.07254,-0.0738914
216,15.197,1.0789,-0.076635
216.5,15.245,1.09742,-0.0770025
217,15.2936,1.0948,-0.077949
217.5,15.3395,1.11151,-0.0779504
218,15.3881,1.11791,-0.0789316
218.5,15.4354,1.13152,-0.0792693
219,15.4839,1.14071,-0.0797994
219.5,15.532,1.15264,-0.08058
220,15.5795,1.16004,-0.0805655
220.5,15.6266,1.1695,-0.0818968
221,15.6752,1.17941,-0.0825812
221.5,15.7227,1.19508,-0.0831224
222,15.7708,1.20307,-0.0858375
222.5,15.8172,1.21826,-0.0858498
223,15.8654,1.22862,-0.0865718
223.5,15.9142,1.23889,-0.0884659
224,15.961,1.24833,-0.0897972
224.5,16.0094,1.26798,-0.091121
225,16.0569,1.27167,-0.0897858
225.5,16.1042,1.29189,-0.0910651
226,16.1529,1.2994,-0.0910488
226.5,16.2008,1.31207,-0.0924269
227,16.248,1.32882,-0.0937495
227.5,16.2951,1.34157,-0.0938538
228,16.343,1.35369,-0.0955797
228.5,16.3907,1.36341,-0.0968292
229,16.4396,1.38097,-0.0975924
229.5,16.4865,1.39495,-0.0981311
230,16.5336,1.41146,-0.0995227
230.5,16.5818,1.42479,-0.101767
231,16.6289,1.44328,-0.103181
231.5,16.6773,1.44973,-0.104522
232,16.7251,1.46471,-0.105184
232.5,16.7713,1.47593,-0.107054
233,16.819,1.48659,-0.108718
233.5,16.8675,1.50268,-0.109971
234,16.9142,1.51104,-0.111042
234.5,16.9619,1.52672,-0.112911
235,17.01,1.53494,-0.114255
235.5,17.0579,1.5355,-0.114173
236,17.1052,1.53873,-0.11543
236.5,17.1532,1.54962,-0.118578
237,17.2008,1.54798,-0.120844
237.5,17.249,1.55557,-0.122609
238,17.2949,1.55933,-0.124206
238.5,17.3413,1.56664,-0.12657
239,17.3908,1.56247,-0.128584
239.5,17.4394,1.56583,-0.129874
240,17.4861,1.55487,-0.131152
240.5,17.5324,1.5431,-0.13341
241,17.5794,1.53844,-0.135001
241.5,17.6273,1.53132,-0.136674
242,17.6755,1.51369,-0.13802
242.5,17.7223,1.51147,-0.139454
243,17.768,1.49665,-0.140738
243.5,17.8172,1.48483,-0.143564
244,17.8653,1.46512,-0.146192
244.5,17.9129,1.45451,-0.147315
245,17.9604,1.43362,-0.149849
245.5,18.0075,1.42881,-0.151943
246,18.055,1.40752,-0.153588
246.5,18.1022,1.39989,-0.154858
247,18.1499,1.38649,-0.156823
247.5,18.197,1.36452,-0.15928
248,18.2446,1.35564,-0.160683
248.5,18.2916,1.33861,-0.16314
249,18.3396,1.32717,-0.165018
249.5,18.3872,1.31646,-0.166555
250,18.4346,1.29872,-0.16856
250.5,18.4821,1.28875,-0.17117
251,18.5293,1.27053,-0.174222
251.5,18.5774,1.25507,-0.17589
252,18.6258,1.23691,-0.177339
252.5,18.6724,1.2289,-0.181121
253,18.7199,1.21662,-0.18299
253.5,18.7679,1.20404,-0.18432
254,18.8145,1.18296,-0.186908
254.5,18.8619,1.17507,-0.189381
255,18.9089,1.16657,-0.191618
255.5,18.9576,1.16085,-0.193338
256,19.0044,1.15277,-0.195524
256.5,19.0517,1.13952,-0.197988
257,19.1003,1.13799,-0.19911
257.5,19.1473,1.1338,-0.201366
258,19.1943,1.12909,-0.202874
258.5,19.2423,1.12427,-0.207139
259,19.2896,1.1123,-0.209718
259.5,19.3377,1.10925,-0.211858
260,19.3846,1.10724,-0.213318
260.5,19.4331,1.10426,-0.216696
261,19.481,1.10495,-0.219729
261.5,19.5279,1.0967,-0.221213
262,19.5755,1.08504,-0.223511
262.5,19.624,1.09374,-0.226297
263,19.6708,1.08417,-0.229365
263.5,19.7182,1.07949,-0.232629
264,19.7659,1.07256,-0.234729
264.5,19.8138,1.06623,-0.237976
265,19.8623,1.06703,-0.242328
265.5,19.9094,1.07074,-0.244801
266,19.9578,1.0643,-0.247397
266.5,20.0047,1.06392,-0.249491
267,20.053,1.06486,-0.253615
267.5,20.1003,1.06422,-0.257868
268,20.1482,1.06229,-0.260196
268.5,20.1958,1.05275,-0.263431
269,20.2444,1.05922,-0.266189
269.5,20.2916,1.04823,-0.269842
270,20.3388,1.05015,-0.274079
270.5,20.3871,1.04582,-0.278299
271,20.4347,1.04149,-0.281649
271.5,20.4839,1.0364,-0.286273
272,20.5295,1.03463,-0.289756
272.5,20.5776,1.02182,-0.294468
273,20.6255,1.00693,-0.299333
273.5,20.6735,1.00217,-0.303704
274,20.7209,0.982832,-0.308189
274.5,20.769,0.969103,-0.311485
275,20.8159,0.944187,-0.315465
275.5,20.8639,0.920777,-0.320936
276,20.9106,0.891707,-0.325292
276.5,20.9592,0.870711,-0.32896
277,21.0063,0.852954,-0.333533
277.5,21.0543,0.83334,-0.339543
278,21.1016,0.812264,-0.343326
278.5,21.1474,0.779986,-0.347166
279,21.1942,0.762408,-0.353336
279.5,21.2426,0.736065,-0.358626
280,21.2905,0.722643,-0.362998
280.5,21.3388,0.690265,-0.368809
281,21.3864,0.669912,-0.371708
281.5,21.4339,0.655751,-0.376745
282,21.4811,0.63502,-0.382609
282.5,21.5297,0.618268,-0.386465
283,21.5777,0.59871,-0.391533
283.5,21.6249,0.59276,-0.395507
284,21.6728,0.591434,-0.401079
284.5,21.7201,0.571265,-0.405984
285,21.7687,0.571538,-0.409873
285.5,21.8159,0.560754,-0.415709
286,21.8638,0.568775,-0.419605
286.5,21.9122,0.564891,-0.423519
287,21.96,0.557964,-0.42773
287.5,22.0071,0.552785,-0.429703
288,22.0558,0.558157,-0.434805
288.5,22.1041,0.567782,-0.439739
289,22.1521,0.570014,-0.44352
289.5,22.1991,0.567815,-0.447049
290,22.2469,0.566802,-0.450171
290.5,22.293,0.577535,-0.452728
291,22.3415,0.577222,-0.455925
291.5,22.39,0.584498,-0.459709
292,22.4383,0.588033,-0.46187
292.5,22.487,0.592162,-0.464767
293,22.5349,0.594304,-0.466885
293.5,22.5829,0.597283,-0.469179
294,22.6315,0.600092,-0.47067
294.5,22.6787,0.598971,-0.473398
295,22.7269,0.60437,-0.476849
295.5,22.7749,0.613392,-0.479447
296,22.8229,0.609264,-0.481062
296.5,22.8708,0.614422,-0.483782
297,22.9159,0.618003,-0.485705
297.5,22.9658,0.620184,-0.488282
298,23.0137,0.635536,-0.490086
298.5,23.0628,0.626783,-0.492623
299,23.1076,0.633063,-0.494199
299.5,23.1579,0.626782,-0.496769
300,23.206,0.626935,-0.498072
300.5,23.2546,0.631334,-0.499296
301,23.3017,0.634729,-0.501039
301.5,23.349,0.638445,-0.503647
302,23.3981,0.634936,-0.505442
302.5,23.4455,0.636655,-0.506977
303,23.494,0.63543,-0.508241
303.5,23.5414,0.633878,-0.510324
304,23.5893,0.639603,-0.512478
304.5,23.6378,0.633555,-0.513799
305,23.6859,0.644844,-0.515284
305.5,23.734,0.650243,-0.517684
306,23.7821,0.645614,-0.519034
306.5,23.8283,0.64729,-0.521029
307,23.8765,0.644368,-0.522351
307.5,23.9252,0.642716,-0.525115
308,23.9732,0.642198,-0.527331
308.5,24.0213,0.641985,-0.528778
309,24.0679,0.644127,-0.530149
309.5,24.1181,0.639172,-0.53167
310,24.1662,0.643079,-0.534627
310.5,24.2134,0.638125,-0.535947
311,24.2612,0.64077,-0.537412
311.5,24.3102,0.644047,-0.538725
312,24.3582,0.637116,-0.539368
312.5,24.4068,0.636473,-0.541551
313,24.4555,0.639389,-0.542748
313.5,24.5036,0.63915,-0.545095
314,24.5517,0.643925,-0.547327
314.5,24.5988,0.638022,-0.549526
315,24.6462,0.647963,-0.55129
315.5,24.695,0.647886,-0.553046
316,24.7431,0.642956,-0.554218
316.5,24.7911,0.644652,-0.555907
317,24.8395,0.65086,-0.556611
317.5,24.8871,0.64835,-0.558254
318,24.9351,0.647266,-0.560947
318.5,24.9834,0.64384,-0.56323
319,25.0323,0.641764,-0.564536
319.5,25.0805,0.645247,-0.566524
320,25.1279,0.643072,-0.568779
320.5,25.1764,0.642231,-0.57039
321,25.2246,0.642824,-0.571639
321.5,25.2717,0.642761,-0.572968
322,25.3204,0.644378,-0.574461
322.5,25.3671,0.643761,-0.575858
323,25.4166,0.637348,-0.578716
323.5,25.4653,0.636014,-0.581182
324,25.5143,0.632849,-0.582581
324.5,25.5619,0.634932,-0.584108
325,25.6098,0.630993,-0.586352
325.5,25.6582,0.635511,-0.58789
326,25.7069,0.627687,-0.589317
326.5,25.7548,0.626105,-0.589677
327,25.801,0.628726,-0.590977
327.5,25.8504,0.6301,-0.593588
328,25.8994,0.619522,-0.596483
328.5,25.9477,0.630036,-0.597996
329,25.9958,0.623012,-0.599327
329.5,26.0443,0.62126,-0.599975
330,26.0916,0.622179,-0.601414
330.5,26.1401,0.628355,-0.602646
331,26.1889,0.623945,-0.604069
331.5,26.2363,0.623981,-0.607044
332,26.285,0.625817,-0.609562
332.5,26.3323,0.619931,-0.609453
333,26.3807,0.619056,-0.610792
333.5,26.4294,0.614676,-0.612223
334,26.4767,0.611021,-0.61542
334.5,26.5251,0.607673,-0.617374
335,26.5738,0.613318,-0.617374
335.5,26.6213,0.609173,-0.619078
336,26.6696,0.607914,-0.621377
336.5,26.7176,0.598211,-0.622643
337,26.766,0.601431,-0.624087
337.5,26.8141,0.601931,-0.625339
338,26.862,0.601888,-0.627163
338.5,26.91,0.606278,-0.628478
339,26.9583,0.598403,-0.630388
339.5,27.0059,0.598102,-0.631497
340,27.0546,0.59287,-0.633362
340.5,27.103,0.595663,-0.635066
341,27.1506,0.59572,-0.636298
341.5,27.2,0.589738,-0.637717
342,27.2479,0.592029,-0.639153
342.5,27.2955,0.593245,-0.641143
343,27.3443,0.587437,-0.643456
343.5,27.3923,0.583815,-0.64481
344,27.4412,0.592741,-0.647376
344.5,27.4891,0.599127,-0.649262
345,27.5373,0.584497,-0.65078
345.5,27.5847,0.581235,-0.653459
346,27.6333,0.581347,-0.654681
346.5,27.6817,0.581576,-0.654832
347,27.7289,0.582941,-0.656803
347.5,27.7791,0.581994,-0.65901
348,27.8271,0.584598,-0.661342
348.5,27.8755,0.580816,-0.664071
349,27.9241,0.578674,-0.665731
349.5,27.9719,0.578313,-0.666984
350,28.0203,0.578571,-0.668362
350.5,28.069,0.57596,-0.66994
351,28.117,0.576109,-0.672533
351.5,28.1656,0.57626,-0.673848
352,28.214,0.576368,-0.675031
352.5,28.2625,0.577883,-0.678474
353,28.3107,0.576968,-0.678252
353.5,28.3602,0.578356,-0.6813
354,28.408,0.574532,-0.683389
354.5,28.4569,0.57318,-0.686566
355,28.5049,0.580298,-0.686978
355.5,28.5531,0.581362,-0.689524
356,28.6016,0.577029,-0.690755
356.5,28.6493,0.574575,-0.692108
357,28.6975,0.581876,-0.695247
357.5,28.7467,0.580024,-0.697328
358,28.7942,0.576599,-0.699265
358.5,28.8427,0.582133,-0.701629
359,28.894,0.590375,-0.703598
359.5,28.9427,0.577783,-0.705871
360,28.9911,0.585044,-0.707864
360.5,29.0394,0.589903,-0.711089
361,29.0889,0.584617,-0.712897
361.5,29.1374,0.585282,-0.716334
362,29.1864,0.590368,-0.717579
362.5,29.2351,0.589388,-0.72084
363,29.2837,0.577642,-0.7221
363.5,29.3323,0.591831,-0.725282
364,29.3812,0.587689,-0.727614
364.5,29.4313,0.591091,-0.730422
365,29.4793,0.592292,-0.732256
365.5,29.5284,0.600107,-0.734781
366,29.5765,0.599736,-0.737231
366.5,29.6254,0.601267,-0.739997
367,29.6737,0.600755,-0.744619
367.5,29.7226,0.603431,-0.746731
368,29.7715,0.601359,-0.74909
368.5,29.8178,0.601854,-0.752126
369,29.8691,0.605711,-0.755335
369.5,29.918,0.606083,-0.759068
370,29.9651,0.610756,-0.762256
370.5,30.0158,0.60693,-0.764746
371,30.0642,0.608117,-0.76744
371.5,30.1133,0.604527,-0.769488
372,30.1612,0.607702,-0.773461
372.5,30.2097,0.609881,-0.776828
373,30.2579,0.606326,-0.779541
373.5,30.3069,0.606536,-0.783311
374,30.3555,0.611793,-0.787445
374.5,30.4046,0.616058,-0.791729
375,30.4531,0.60782,-0.795291
375.5,30.5016,0.613598,-0.799189
376,30.5507,0.615382,-0.80217
376.5,30.5996,0.61743,-0.805214
377,30.6485,0.615258,-0.809451
377.5,30.6967,0.620564,-0.813505
378,30.7457,0.62793,-0.817132
378.5,30.7949,0.626353,-0.821261
379,30.8438,0.618013,-0.825028
379.5,30.8919,0.624838,-0.828694
380,30.9393,0.620951,-0.832611
380.5,30.9884,0.620329,-0.837223
381,31.0373,0.617882,-0.841526
381.5,31.0863,0.624005,-0.845767
382,31.1335,0.61724,-0.849372
382.5,31.1828,0.621653,-0.853778
383,31.2314,0.620362,-0.858699
383.5,31.2802,0.62093,-0.862708
384,31.3285,0.620817,-0.867342
384.5,31.3781,0.613111,-0.874529
385,31.4271,0.613311,-0.879057
385.5,31.4753,0.611378,-0.882394
386,31.524,0.612606,-0.887781
386.5,31.574,0.609376,-0.893534
387,31.6219,0.602115,-0.896836
387.5,31.6703,0.602484,-0.901525
388,31.7209,0.601279,-0.907713
388.5,31.7692,0.606161,-0.911782
389,31.8186,0.600729,-0.917285
389.5,31.8673,0.597554,-0.922539
390,31.9157,0.600464,-0.927589
390.5,31.9652,0.593994,-0.932343
391,32.013,0.596323,-0.938655
391.5,32.0613,0.578663,-0.944347
392,32.1111,0.577912,-0.949215
392.5,32.1591,0.571587,-0.954987
393,32.2078,0.570511,-0.960653
393.5,32.2585,0.560192,-0.965272
394,32.3063,0.556346,-0.970475
394.5,32.3564,0.555926,-0.976412
395,32.4049,0.548983,-0.982919
395.5,32.4526,0.534761,-0.987522
396,32.4999,0.535913,-0.99235
396.5,32.5516,0.534032,-0.999225
397,32.6007,0.524155,-1.00413
397.5,32.6494,0.517315,-1.01094
398,32.6956,0.510046,-1.01704
398.5,32.747,0.498263,-1.02092
399,32.7946,0.494029,-1.02601
399.5,32.8439,0.489357,-1.03216
400,32.8935,0.477824,-1.03809
400.5,32.9418,0.465184,-1.0442
401,32.9905,0.459101,-1.05021
401.5,33.0389,0.446535,-1.05585
402,33.0877,0.436263,-1.06143
402.5,33.137,0.428574,-1.06667
403,33.1849,0.430001,-1.07302
403.5,33.2328,0.414791,-1.07799
404,33.2829,0.40502,-1.08364
404.5,33.3316,0.395182,-1.08958
405,33.3802,0.389819,-1.09546
405.5,33.4299,0.380131,-1.10098
406,33.4786,0.365438,-1.10568
406.5,33.5268,0.361984,-1.11023
407,33.5747,0.352896,-1.11557
407.5,33.6243,0.340379,-1.1219
408,33.6733,0.331738,-1.12642
408.5,33.7226,0.330999,-1.13237
409,33.7715,0.322278,-1.13828
409.5,33.8206,0.312255,-1.14392
410,33.868,0.3029,-1.1493
410.5,33.9177,0.299149,-1.15487
411,33.9662,0.292502,-1.15958
411.5,34.0152,0.283271,-1.16582
412,34.0637,0.278972,-1.1694
412.5,34.1123,0.273446,-1.17418
413,34.1617,0.261106,-1.17909
413.5,34.2098,0.256535,-1.18453
414,34.2588,0.258029,-1.18778
414.5,34.3067,0.248538,-1.19413
415,34.3569,0.242737,-1.19985
415.5,34.4051,0.239746,-1.20305
416,34.4545,0.234817,-1.20811
416.5,34.5032,0.237365,-1.21243
417,34.5514,0.223989,-1.2157
417.5,34.5981,0.223738,-1.22001
418,34.6487,0.219103,-1.22498
418.5,34.6995,0.222885,-1.2279
419,34.7474,0.215363,-1.23163
419.5,34.7967,0.208292,-1.23632
420,34.8453,0.208353,-1.2408
420.5,34.8947,0.196925,-1.24541
421,34.9436,0.195674,-1.24823
421.5,34.9918,0.189547,-1.2515
422,35.0412,0.200102,-1.25636
422.5,35.0906,0.196709,-1.25972
423,35.1392,0.190684,-1.26286
423.5,35.1889,0.188999,-1.26624
424,35.2374,0.186103,-1.26889
424.5,35.2852,0.184642,-1.27163
425,35.3348,0.184006,-1.27507
425.5,35.3842,0.181376,-1.27915
426,35.4335,0.180541,-1.2811
426.5,35.482,0.1773,-1.28442
427,35.5311,0.167605,-1.28505
427.5,35.5808,0.175376,-1.28799
428,35.6307,0.176322,-1.29123
428.5,35.6793,0.180921,-1.29337
429,35.7281,0.177259,-1.2962
429.5,35.7771,0.181378,-1.2991
430,35.8257,0.179695,-1.30028
430.5,35.8749,0.180564,-1.30353
431,35.9245,0.180675,-1.30598
431.5,35.9745,0.183435,-1.3089
432,36.0233,0.182287,-1.30897
432.5,36.0711,0.182264,-1.31063
433,36.1203,0.186695,-1.3134
433.5,36.1695,0.185175,-1.31503
434,36.2177,0.189987,-1.31734
434.5,36.2692,0.183618,-1.31924
435,36.3172,0.182779,-1.32057
435.5,36.3675,0.189663,-1.3219
436,36.4172,0.181673,-1.3232
436.5,36.4654,0.180091,-1.32412
437,36.515,0.17399,-1.3249
437.5,36.5621,0.184801,-1.32626
438,36.6133,0.186311,-1.32863
438.5,36.6636,0.183638,-1.33011
439,36.7124,0.189125,-1.33153
439.5,36.7609,0.181884,-1.33222
440,36.8113,0.195148,-1.33384
440.5,36.8607,0.194393,-1.33535
441,36.9094,0.194134,-1.33852
441.5,36.9594,0.194208,-1.33955
442,37.0093,0.198352,-1.34089
442.5,37.0591,0.194027,-1.34224
443,37.1075,0.189266,-1.34222
443.5,37.1569,0.19588,-1.34276
444,37.2064,0.19628,-1.34352
444.5,37.2552,0.189185,-1.34486
445,37.3054,0.19551,-1.34615
445.5,37.3555,0.197068,-1.34747
446,37.404,0.195652,-1.34878
446.5,37.4533,0.195096,-1.35007
447,37.503,0.194889,-1.35007
447.5,37.5527,0.193542,-1.3516
448,37.603,0.193117,-1.35286
448.5,37.6512,0.197011,-1.35289
449,37.7006,0.197878,-1.35417
449.5,37.7505,0.204698,-1.35552
450,37.7995,0.199471,-1.35681
450.5,37.849,0.198513,-1.35774
451,37.8977,0.200508,-1.35743
451.5,37.9476,0.197112,-1.35813
452,37.9976,0.191124,-1.36042
452.5,38.0465,0.20016,-1.36044
453,38.0961,0.206227,-1.36175
453.5,38.1441,0.197445,-1.36306
454,38.1947,0.194847,-1.36438
454.5,38.2438,0.195943,-1.36459
455,38.293,0.191634,-1.36538
455.5,38.3418,0.188924,-1.36566
456,38.3916,0.187143,-1.36703
456.5,38.4413,0.184708,-1.36767
457,38.4904,0.187609,-1.36974
457.5,38.5406,0.182102,-1.37098
458,38.59,0.176257,-1.37234
458.5,38.6397,0.174358,-1.37227
459,38.6884,0.16811,-1.37231
459.5,38.7377,0.165008,-1.37324
460,38.7884,0.159464,-1.37361
460.5,38.8375,0.162643,-1.37488
461,38.8867,0.155991,-1.37677
461.5,38.9359,0.157719,-1.37756
462,38.9855,0.151702,-1.37886
462.5,39.0347,0.145695,-1.37872
463,39.0851,0.142277,-1.38036
463.5,39.1338,0.139978,-1.38021
464,39.1839,0.137198,-1.38162
464.5,39.233,0.133867,-1.38162
465,39.2822,0.134412,-1.38157
465.5,39.3315,0.129782,-1.38289
466,39.3792,0.127866,-1.38426
466.5,39.4301,0.123882,-1.38434
467,39.48,0.112972,-1.38557
467.5,39.5291,0.10993,-1.38691
468,39.5792,0.112538,-1.38796
468.5,39.6282,0.108718,-1.38841
469,39.6779,0.105135,-1.3892
469.5,39.7253,0.101796,-1.39063
470,39.7773,0.102077,-1.39062
470.5,39.8258,0.0949121,-1.39193
471,39.8764,0.0950122,-1.39196
471.5,39.9261,0.0935438,-1.39326
472,39.9743,0.0879959,-1.39456
472.5,40.0251,0.0855102,-1.39454
473,40.0718,0.0929411,-1.39589
473.5,40.1235,0.0850377,-1.39718
474,40.1725,0.0815249,-1.39721
474.5,40.2228,0.083771,-1.39674
475,40.272,0.0804797,-1.39788
475.5,40.3208,0.0759677,-1.39918
476,40.3712,0.0783868,-1.40047
476.5,40.4212,0.0734764,-1.40182
477,40.4706,0.0686086,-1.40182
477.5,40.5203,0.0631911,-1.40349
478,40.5704,0.0593462,-1.40347
478.5,40.6191,0.0649295,-1.40453
479,40.6684,0.0598614,-1.40478
479.5,40.7179,0.0614432,-1.4061
480,40.7685,0.0536676,-1.4061
480.5,40.8174,0.0510963,-1.4061
481,40.8662,0.0520065,-1.40756
481.5,40.9166,0.0504418,-1.40885
482,40.9657,0.0427146,-1.40885
482.5,41.0154,0.0444794,-1.41014
483,41.0659,0.0388068,-1.40883
483.5,41.115,0.040901,-1.41017
484,41.1653,0.0364636,-1.41109
484.5,41.2135,0.036357,-1.41247
485,41.2639,0.0327058,-1.41383
485.5,41.3139,0.0341712,-1.41379
486,41.363,0.0296782,-1.41378
486.5,41.4133,0.0314099,-1.4151
487,41.4623,0.0271053,-1.41646
487.5,41.5118,0.0314986,-1.41642
488,41.5616,0.0218104,-1.41783
488.5,41.6088,0.015656,-1.41774
489,41.6608,0.0202886,-1.41915
489.5,41.7104,0.0108016,-1.42019
490,41.7594,0.0145925,-1.42035
490.5,41.8089,0.00537775,-1.42169
491,41.8593,0.00464899,-1.42169
491.5,41.9093,0.00217126,-1.42287
492,41.9576,-0.000350053,-1.42235
492.5,42.0072,-0.00499174,-1.4227
493,42.0576,-0.00668865,-1.42302
493.5,42.107,-0.0134784,-1.42302
494,42.1571,-0.0100726,-1.42435
494.5,42.2073,-0.0157648,-1.42429
495,42.2562,-0.0206304,-1.42561
495.5,42.3061,-0.02506,-1.42697
496,42.3555,-0.0269449,-1.42697
496.5,42.4055,-0.0250567,-1.42696
497,42.4537,-0.0313316,-1.4283
497.5,42.5036,-0.032188,-1.42828
498,42.5535,-0.0367566,-1.42961
498.5,42.6043,-0.0481363,-1.43057
499,42.6538,-0.048586,-1.43092
499.5,42.7037,-0.0513134,-1.43231
500,42.7532,-0.0553961,-1.43369
500.5,42.8032,-0.0501028,-1.43355
501,42.8525,-0.0575251,-1.43355
501.5,42.9023,-0.0548288,-1.43287
502,42.952,-0.0571578,-1.43307
502.5,43.0015,-0.0572565,-1.43421
503,43.0488,-0.0616921,-1.43425
503.5,43.0987,-0.0602195,-1.43553
504,43.1501,-0.0641015,-1.43683
504.5,43.2001,-0.0728422,-1.43688
505,43.2499,-0.0669963,-1.43699
505.5,43.2991,-0.0671061,-1.4375
506,43.3487,-0.0656248,-1.4375
506.5,43.3993,-0.0726863,-1.43882
507,43.4493,-0.0683655,-1.43882
507.5,43.5,-0.0731238,-1.43994
508,43.5484,-0.0760483,-1.44014
508.5,43.5987,-0.0691942,-1.4416
509,43.6482,-0.0789156,-1.44245
509.5,43.696,-0.0768966,-1.44238
510,43.7475,-0.0807242,-1.44409
510.5,43.7977,-0.0840022,-1.44368
511,43.8481,-0.0894031,-1.44277
511.5,43.8976,-0.0859057,-1.44409
512,43.9474,-0.0869832,-1.44409
512.5,43.9964,-0.088976,-1.44541
513,44.0457,-0.0851534,-1.4454
513.5,44.0962,-0.0908983,-1.44672
514,44.1461,-0.0961738,-1.44642
514.5,44.1971,-0.0962921,-1.44778
515,44.2461,-0.0976345,-1.44705
515.5,44.2976,-0.100839,-1.44705
516,44.3465,-0.103287,-1.44705
516.5,44.3965,-0.113298,-1.44836
517,44.4461,-0.112806,-1.4496
517.5,44.4962,-0.116626,-1.44961
518,44.5459,-0.111449,-1.45101
518.5,44.5969,-0.119736,-1.45226
519,44.6457,-0.122207,-1.45232
519.5,44.695,-0.125857,-1.45232
520,44.7445,-0.126639,-1.45232
520.5,44.7959,-0.130075,-1.45369
521,44.8457,-0.132642,-1.45381
521.5,44.8961,-0.136198,-1.45496
522,44.945,-0.144348,-1.45497
522.5,44.9956,-0.148942,-1.45627
523,45.046,-0.151667,-1.45588
523.5,45.0946,-0.151833,-1.45726
524,45.1448,-0.154155,-1.45726
524.5,45.1954,-0.1537,-1.4559
525,45.2447,-0.154961,-1.45711
525.5,45.2947,-0.153785,-1.45768
526,45.3446,-0.161443,-1.45825
526.5,45.3948,-0.16205,-1.45927
527,45.4444,-0.165031,-1.45956
527.5,45.4939,-0.159917,-1.4598
528,45.5456,-0.162583,-1.45959
528.5,45.5947,-0.168912,-1.46087
529,45.6441,-0.169528,-1.46088
529.5,45.6946,-0.170114,-1.46087
530,45.7444,-0.170835,-1.46321
530.5,45.7941,-0.161278,-1.46319
531,45.8436,-0.173537,-1.46321
531.5,45.8936,-0.167909,-1.4645
532,45.9447,-0.163304,-1.46579
532.5,45.9944,-0.168,-1.46582
533,46.0444,-0.170634,-1.46616
533.5,46.0946,-0.170752,-1.46714
534,46.1455,-0.173517,-1.46785
534.5,46.1957,-0.17064,-1.46846
535,46.2458,-0.1728,-1.46706
535.5,46.2961,-0.182568,-1.46846
536,46.3456,-0.175984,-1.46922
536.5,46.3958,-0.181116,-1.47075
537,46.4456,-0.183209,-1.47076
537.5,46.4966,-0.178876,-1.47111
538,46.5462,-0.181809,-1.47077
538.5,46.5963,-0.183732,-1.47077
539,46.6456,-0.189745,-1.47208
539.5,46.6965,-0.191023,-1.47209
540,46.7454,-0.189083,-1.47266
540.5,46.7955,-0.191416,-1.47341
541,46.8458,-0.187993,-1.47341
541.5,46.8966,-0.195356,-1.47471
542,46.9462,-0.196736,-1.47473
542.5,46.9953,-0.192268,-1.47341
543,47.0458,-0.191433,-1.47471
543.5,47.0956,-0.193973,-1.47472
544,47.1454,-0.195667,-1.47612
544.5,47.1961,-0.191476,-1.47735
545,47.2466,-0.195175,-1.47869
545.5,47.2966,-0.199142,-1.47802
546,47.3467,-0.199709,-1.47802
546.5,47.3973,-0.205318,-1.47934
547,47.4472,-0.207636,-1.47933
547.5,47.4975,-0.208448,-1.47961
548,47.5468,-0.202365,-1.48065
548.5,47.5964,-0.206505,-1.48147
549,47.6463,-0.208049,-1.48197
549.5,47.6978,-0.213807,-1.48197
550,47.7459,-0.2103,-1.48197
550.5,47.7981,-0.207599,-1.48197
551,47.8456,-0.215102,-1.48329
551.5,47.8979,-0.213504,-1.48328
552,47.9464,-0.21201,-1.48395
552.5,47.9973,-0.213766,-1.48391
553,48.048,-0.222232,-1.48526
553.5,48.0988,-0.216606,-1.48526
554,48.148,-0.219582,-1.48526
554.5,48.1962,-0.22236,-1.48658
555,48.2462,-0.22829,-1.48776
555.5,48.2978,-0.230315,-1.4879
556,48.3487,-0.230607,-1.48921
556.5,48.3987,-0.230382,-1.48924
557,48.4483,-0.228655,-1.49053
557.5,48.4982,-0.237912,-1.49152
558,48.5491,-0.2377,-1.49185
558.5,48.5989,-0.230579,-1.49185
559,48.6471,-0.238393,-1.49216
559.5,48.6994,-0.240885,-1.49315
560,48.7499,-0.245273,-1.49316
560.5,48.7999,-0.249087,-1.49352
561,48.8503,-0.246437,-1.49382
561.5,48.8995,-0.245131,-1.4938
562,48.9501,-0.243172,-1.49488
562.5,49.0003,-0.25145,-1.49445
563,49.0504,-0.252419,-1.49669
563.5,49.1003,-0.248197,-1.4958
564,49.151,-0.246728,-1.49577
564.5,49.2015,-0.24701,-1.49711
565,49.2515,-0.246464,-1.49713
565.5,49.3011,-0.256086,-1.49843
566,49.3517,-0.251071,-1.49843
566.5,49.4019,-0.244138,-1.49844
567,49.4519,-0.245942,-1.49974
567.5,49.5017,-0.251587,-1.49975
568,49.5522,-0.237352,-1.49975
568.5,49.6011,-0.250323,-1.49917
569,49.6522,-0.247054,-1.49975
569.5,49.703,-0.247235,-1.50077
570,49.7537,-0.252128,-1.50106
570.5,49.8037,-0.248719,-1.50106
571,49.8534,-0.249537,-1.50107
571.5,49.9042,-0.255343,-1.50368
572,49.9529,-0.260569,-1.5037
572.5,50.0036,-0.253079,-1.50497
573,50.0539,-0.262458,-1.50502
573.5,50.1047,-0.258695,-1.50535
574,50.1555,-0.259376,-1.50469
574.5,50.2055,-0.262241,-1.50504
575,50.2551,-0.262775,-1.50717
575.5,50.3059,-0.267607,-1.50878
576,50.3557,-0.267784,-1.50797
576.5,50.4063,-0.263527,-1.50765
577,50.4563,-0.264088,-1.50783
577.5,50.5068,-0.270759,-1.50897
578,50.5575,-0.273208,-1.50895
578.5,50.6074,-0.269307,-1.51029
579,50.6555,-0.274979,-1.51029
579.5,50.7079,-0.27412,-1.51029
580,50.7573,-0.275857,-1.5116
580.5,50.8083,-0.273353,-1.5116
581,50.858,-0.274849,-1.5116
581.5,50.9085,-0.285061,-1.51243
582,50.9602,-0.283156,-1.51226
582.5,51.0098,-0.281217,-1.51237
583,51.0602,-0.283386,-1.51358
583.5,51.11,-0.290337,-1.51358
584,51.16,-0.288387,-1.5149
584.5,51.2108,-0.294139,-1.5149
585,51.2605,-0.286626,-1.51491
585.5,51.3115,-0.297581,-1.5156
586,51.3616,-0.296546,-1.51556
586.5,51.4109,-0.294542,-1.51556
587,51.4617,-0.296678,-1.51689
587.5,51.5128,-0.305813,-1.51654
588,51.5633,-0.305716,-1.51788
588.5,51.6132,-0.308752,-1.51785
589,51.6629,-0.306909,-1.51688
589.5,51.714,-0.307796,-1.51825
590,51.7645,-0.315697,-1.51819
590.5,51.8148,-0.31784,-1.51951
591,51.8658,-0.321547,-1.51951
591.5,51.9152,-0.319103,-1.52058
592,51.9657,-0.326459,-1.5211
592.5,52.017,-0.332881,-1.5214
593,52.065,-0.326701,-1.52347
593.5,52.117,-0.326966,-1.52343
594,52.1674,-0.335605,-1.52215
594.5,52.218,-0.325749,-1.52313
595,52.2684,-0.333031,-1.52413
595.5,52.3181,-0.332585,-1.52445
596,52.3688,-0.330449,-1.52381
596.5,52.4201,-0.323674,-1.52445
597,52.4687,-0.3233,-1.52445
597.5,52.5208,-0.318532,-1.52445
598,52.5695,-0.322197,-1.52445
598.5,52.6214,-0.326972,-1.52445
599,52.6712,-0.31727,-1.52505
599.5,52.7215,-0.318595,-1.52578
600,52.7725,-0.321339,-1.5261
600.5,52.8228,-0.328186,-1.5261
601,52.8732,-0.321942,-1.5261
601.5,52.9232,-0.326179,-1.52609
602,52.9737,-0.325849,-1.52608
602.5,53.0242,-0.328816,-1.52577
603,53.0742,-0.320611,-1.52571
603.5,53.1244,-0.332255,-1.52643
604,53.1747,-0.325595,-1.52737
604.5,53.2253,-0.331955,-1.52742
605,53.2757,-0.32372,-1.52743
605.5,53.325,-0.331416,-1.5281
606,53.3747,-0.333512,-1.52802
606.5,53.426,-0.330512,-1.52887
607,53.4766,-0.332339,-1.53046
607.5,53.5271,-0.330681,-1.53038
608,53.5785,-0.343989,-1.53039
608.5,53.629,-0.347372,-1.53003
609,53.6795,-0.343921,-1.53005
609.5,53.7298,-0.342683,-1.53005
610,53.7808,-0.345924,-1.53092
610.5,53.8309,-0.345284,-1.53137
611,53.881,-0.352933,-1.53193
611.5,53.932,-0.34863,-1.53201
612,53.9823,-0.346672,-1.53031
612.5,54.033,-0.347589,-1.53105
613,54.0829,-0.348341,-1.53225
613.5,54.1342,-0.344477,-1.53227
614,54.1843,-0.346225,-1.53356
614.5,54.2348,-0.350574,-1.53365
615,54.2845,-0.349161,-1.53224
615.5,54.3366,-0.353286,-1.53224
616,54.387,-0.355152,-1.53359
616.5,54.4376,-0.361812,-1.53356
617,54.4878,-0.366899,-1.53305
617.5,54.5362,-0.36744,-1.53356
618,54.5885,-0.373089,-1.53356
618.5,54.6397,-0.378767,-1.53356
619,54.6902,-0.376903,-1.5337
619.5,54.7403,-0.384632,-1.53488
620,54.7914,-0.391724,-1.53488
620.5,54.8394,-0.391265,-1.53488
621,54.8916,-0.396333,-1.53488
621.5,54.9412,-0.396179,-1.53488
622,54.9933,-0.398447,-1.53614
622.5,55.0417,-0.398159,-1.53619
623,55.0935,-0.405818,-1.53619
623.5,55.1442,-0.404215,-1.53619
624,55.1944,-0.407014,-1.53618
624.5,55.2462,-0.410295,-1.53759
625,55.2964,-0.412501,-1.5362
625.5,55.3466,-0.408924,-1.5362
626,55.3973,-0.405968,-1.5362
626.5,55.4479,-0.410485,-1.53752
627,55.4987,-0.415907,-1.53753
627.5,55.5495,-0.413743,-1.53653
628,55.6001,-0.4171,-1.53653
628.5,55.6503,-0.417116,-1.53653
629,55.701,-0.424972,-1.53743
629.5,55.7517,-0.433403,-1.53785
630,55.8016,-0.43311,-1.53785
630.5,55.8538,-0.433983,-1.53785
631,55.9036,-0.432678,-1.53785
631.5,55.9546,-0.437682,-1.53666
632,56.0051,-0.435676,-1.53784
632.5,56.0561,-0.441009,-1.53877
633,56.1061,-0.437659,-1.53916
633.5,56.1579,-0.438001,-1.53916
634,56.2078,-0.44332,-1.54048
634.5,56.2594,-0.448005,-1.53983
635,56.3079,-0.447413,-1.53982
635.5,56.3605,-0.445329,-1.53982
636,56.411,-0.448964,-1.53982
636.5,56.4623,-0.459397,-1.53982
637,56.5136,-0.45462,-1.53982
637.5,56.5639,-0.461163,-1.53983
638,56.6145,-0.463674,-1.53999
638.5,56.6652,-0.468412,-1.53949
639,56.7155,-0.47485,-1.54006
639.5,56.7668,-0.464868,-1.54048
640,56.8178,-0.477733,-1.54048
640.5,56.8687,-0.479954,-1.5418
641,56.9187,-0.475576,-1.5418
641.5,56.97,-0.478009,-1.5418
642,57.0198,-0.481384,-1.54073
642.5,57.0705,-0.483131,-1.54081
643,57.1217,-0.475709,-1.54081
643.5,57.1727,-0.478629,-1.54086
644,57.2229,-0.484969,-1.54211
644.5,57.2733,-0.484204,-1.54313
645,57.3249,-0.488426,-1.54311
645.5,57.3756,-0.49357,-1.54311
646,57.4264,-0.482797,-1.54311
646.5,57.4766,-0.492505,-1.54311
647,57.5277,-0.490777,-1.54308
647.5,57.5782,-0.489338,-1.54278
648,57.6286,-0.497063,-1.54266
648.5,57.6797,-0.496335,-1.54179
649,57.7306,-0.493481,-1.5428
649.5,57.7811,-0.493357,-1.54418
650,57.832,-0.494565,-1.54415
650.5,57.8833,-0.494258,-1.54294
651,57.9327,-0.500374,-1.54311
651.5,57.9844,-0.501616,-1.5443
652,58.0353,-0.499222,-1.54443
652.5,58.0859,-0.508337,-1.54311
653,58.1352,-0.505611,-1.54441
653.5,58.1883,-0.504865,-1.54443
654,58.2385,-0.503388,-1.54443
654.5,58.2903,-0.500332,-1.54575
655,58.3403,-0.508516,-1.54574
655.5,58.3888,-0.514191,-1.54574
656,58.442,-0.508335,-1.54574
656.5,58.4922,-0.517426,-1.54574
657,58.5434,-0.523897,-1.54574
657.5,58.5931,-0.522498,-1.54574
658,58.6424,-0.527753,-1.54574
658.5,58.6956,-0.533303,-1.54574
659,58.7467,-0.531156,-1.54607
659.5,58.7971,-0.525101,-1.54607
660,58.8475,-0.524516,-1.54706
660.5,58.8984,-0.521655,-1.54703
661,58.9495,-0.526786,-1.54578
661.5,58.9992,-0.524199,-1.54608
662,59.0506,-0.523512,-1.54608
662.5,59.1018,-0.513611,-1.54608
663,59.1521,-0.52124,-1.54608
663.5,59.2024,-0.52297,-1.54608
664,59.2536,-0.517685,-1.54734
664.5,59.3041,-0.520366,-1.54867
665,59.355,-0.5176,-1.5474
665.5,59.4063,-0.512489,-1.5474
666,59.4566,-0.518571,-1.5474
666.5,59.5066,-0.511932,-1.54825
667,59.5577,-0.500409,-1.54871
667.5,59.6091,-0.511425,-1.5474
668,59.6591,-0.51171,-1.5474
668.5,59.7105,-0.5023,-1.54881
669,59.7612,-0.505413,-1.54872
669.5,59.8116,-0.503597,-1.54872
670,59.8616,-0.506901,-1.54872
670.5,59.9132,-0.506015,-1.54872
671,59.9638,-0.50653,-1.54887
671.5,60.0149,-0.500471,-1.54938
672,60.0655,-0.503267,-1.55003
672.5,60.117,-0.502133,-1.54865
673,60.1679,-0.50126,-1.54871
673.5,60.2189,-0.504382,-1.54871
674,60.2687,-0.502705,-1.54871
674.5,60.3199,-0.513423,-1.55003
675,60.3704,-0.511668,-1.55003
675.5,60.4218,-0.502471,-1.55003
676,60.4717,-0.508053,-1.55001
676.5,60.523,-0.507866,-1.54871
677,60.5729,-0.507463,-1.54871
677.5,60.6256,-0.497757,-1.54882
678,60.6754,-0.502454,-1.55091
678.5,60.7268,-0.509222,-1.55107
679,60.7755,-0.500093,-1.54886
679.5,60.8264,-0.49701,-1.54969
680,60.8795,-0.493762,-1.5497
680.5,60.928,-0.489079,-1.5497
681,60.9794,-0.484336,-1.54973
681.5,61.0319,-0.481701,-1.55003
682,61.0824,-0.474928,-1.55003
682.5,61.1335,-0.477338,-1.55003
683,61.1845,-0.476987,-1.55108
683.5,61.2356,-0.465744,-1.55234
684,61.2849,-0.470815,-1.55233
684.5,61.3378,-0.466949,-1.55102
685,61.3883,-0.462689,-1.55135
685.5,61.4399,-0.459849,-1.55135
686,61.4888,-0.456589,-1.55236
686.5,61.54,-0.456529,-1.55233
687,61.5921,-0.457296,-1.55098
687.5,61.6435,-0.450192,-1.55102
688,61.6947,-0.451399,-1.55102
688.5,61.7452,-0.453429,-1.55102
689,61.7962,-0.456081,-1.55102
689.5,61.8464,-0.457167,-1.55102
690,61.8984,-0.45718,-1.55102
690.5,61.949,-0.459826,-1.55098
691,62.0006,-0.460179,-1.5496
691.5,62.0513,-0.454859,-1.55069
692,62.1025,-0.454909,-1.55069
692.5,62.1535,-0.447959,-1.55071
693,62.2023,-0.456487,-1.55135
693.5,62.2555,-0.454078,-1.55135
694,62.3072,-0.451719,-1.55169
694.5,62.3567,-0.457377,-1.55168
695,62.4077,-0.45906,-1.55168
695.5,62.4593,-0.461501,-1.55167
696,62.5096,-0.460837,-1.55267
696.5,62.561,-0.46117,-1.552
697,62.6124,-0.462824,-1.55324
697.5,62.6636,-0.464208,-1.55333
698,62.7142,-0.455619,-1.55333
698.5,62.7652,-0.457956,-1.55333
699,62.8166,-0.461699,-1.55333
699.5,62.8672,-0.460661,-1.55333
700,62.9179,-0.464237,-1.55333
700.5,62.9684,-0.463869,-1.55333
701,63.0202,-0.45838,-1.55333
701.5,63.0708,-0.458237,-1.55333
702,63.1208,-0.459309,-1.55467
702.5,63.1729,-0.451313,-1.55464
703,63.2233,-0.455425,-1.55464
703.5,63.2747,-0.455994,-1.55459
704,63.3245,-0.450457,-1.55464
704.5,63.3766,-0.45649,-1.55431
705,63.4272,-0.449764,-1.55431
705.5,63.4788,-0.450291,-1.55455
706,63.5292,-0.449355,-1.55464
706.5,63.5805,-0.448008,-1.55464
707,63.6314,-0.449946,-1.55574
707.5,63.6824,-0.456165,-1.55464
708,63.7334,-0.451284,-1.55465
708.5,63.7844,-0.444777,-1.55498
709,63.8354,-0.44824,-1.55595
709.5,63.8859,-0.441456,-1.55596
710,63.9375,-0.436714,-1.55596
710.5,63.9879,-0.434611,-1.55595
711,64.037,-0.435423,-1.55563
711.5,64.0898,-0.431878,-1.55563
712,64.1407,-0.426559,-1.55562
712.5,64.1921,-0.423653,-1.55495
713,64.2436,-0.431546,-1.5553
713.5,64.2937,-0.412175,-1.5553
714,64.3443,-0.412167,-1.5553
714.5,64.3962,-0.401487,-1.55664
715,64.4469,-0.412196,-1.55661
715.5,64.4976,-0.409244,-1.55661
716,64.5488,-0.412474,-1.55594
716.5,64.6013,-0.408215,-1.55596
717,64.6523,-0.405253,-1.55596
717.5,64.7029,-0.400319,-1.55596
718,64.7549,-0.395176,-1.55483
718.5,64.8061,-0.390652,-1.55602
719,64.8564,-0.379808,-1.55596
719.5,64.9079,-0.385648,-1.55596
720,64.96,-0.382731,-1.55596
720.5,65.0098,-0.380224,-1.55596
721,65.0617,-0.374494,-1.55596
721.5,65.1128,-0.379329,-1.55727
722,65.164,-0.378166,-1.55608
722.5,65.215,-0.378079,-1.55664
723,65.2663,-0.367696,-1.55723
723.5,65.3179,-0.374149,-1.55683
724,65.3689,-0.374971,-1.55596
724.5,65.4196,-0.371862,-1.55596
725,65.4712,-0.375729,-1.55736
725.5,65.5223,-0.369725,-1.55728
726,65.5738,-0.369694,-1.55728
726.5,65.6249,-0.371387,-1.55612
727,65.6758,-0.368504,-1.55733
727.5,65.7264,-0.374776,-1.55728
728,65.7785,-0.366363,-1.5586
728.5,65.8293,-0.36632,-1.55902
729,65.8803,-0.366479,-1.55991
729.5,65.9318,-0.355052,-1.55991
730,65.9826,-0.351883,-1.55867
730.5,66.0335,-0.35589,-1.55859
731,66.0845,-0.348243,-1.55859
731.5,66.1365,-0.344097,-1.55859
732,66.1877,-0.340782,-1.55859
732.5,66.2386,-0.338131,-1.55859
733,66.2889,-0.331486,-1.55859
733.5,66.3404,-0.336435,-1.55859
734,66.3914,-0.336246,-1.55859
734.5,66.441,-0.327204,-1.55989
735,66.4938,-0.323711,-1.55991
735.5,66.5447,-0.325967,-1.55991
736,66.5967,-0.324696,-1.55967
736.5,66.6476,-0.316849,-1.55859
737,66.6984,-0.310407,-1.55793
737.5,66.7494,-0.316106,-1.55793
738,66.8013,-0.316857,-1.55788
738.5,66.8522,-0.307533,-1.55925
739,66.9038,-0.306672,-1.55925
739.5,66.9551,-0.30801,-1.55925
740,67.0062,-0.31248,-1.55925