File: 01_Data/Fiber_Reinforced_Helmet_Shell/STA/N2/10K_min/Fiber_Reinforced_Helmet_Shell_STA_N2_10KData_250501_R5.csv
Temp./C,Time/min,DSC/(mW/mg),Mass loss/mg
60.0,0.0,0.421293,-0.00598822
60.5,0.065258,0.431241,-0.00492353
61,0.129646,0.431702,-0.00621473
61.5,0.192604,0.441094,-0.00510633
62,0.255931,0.44945,-0.00462361
62.5,0.317248,0.453113,-0.00449426
63,0.381162,0.457792,-0.00465288
63.5,0.437786,0.460274,-0.00712253
64,0.503162,0.467972,-0.00713307
64.5,0.563944,0.474296,-0.00720769
65,0.624008,0.487706,-0.00854874
65.5,0.684015,0.490326,-0.00841693
66,0.74279,0.49428,-0.00835457
66.5,0.800381,0.496978,-0.00769683
67,0.860193,0.497417,-0.00715363
67.5,0.917351,0.506989,-0.0071693
68,0.976449,0.512179,-0.00673398
68.5,1.03484,0.50634,-0.00573638
69,1.09067,0.515687,-0.00583281
69.5,1.14974,0.519565,-0.00711302
70,1.20597,0.526245,-0.00723452
70.5,1.2619,0.521895,-0.007188
71,1.31991,0.530327,-0.00582779
71.5,1.37621,0.525714,-0.00456714
72,1.43114,0.539383,-0.00439164
72.5,1.48713,0.536197,-0.00577769
73,1.54325,0.546426,-0.00593582
73.5,1.59895,0.54592,-0.00582094
74,1.6546,0.544909,-0.00440885
74.5,1.70772,0.547669,-0.0058208
75,1.7588,0.552789,-0.00568999
75.5,1.81626,0.557557,-0.00606554
76,1.87215,0.55744,-0.00594627
76.5,1.92657,0.559502,-0.00580348
77,1.98091,0.558837,-0.00667905
77.5,2.03596,0.561787,-0.00726116
78,2.08978,0.563421,-0.0073308
78.5,2.14221,0.569844,-0.00857676
79,2.19595,0.56925,-0.0083213
79.5,2.24887,0.565652,-0.00714455
80,2.30238,0.569166,-0.0071419
80.5,2.35572,0.569906,-0.00739137
81,2.40569,0.576642,-0.00711414
81.5,2.45852,0.574509,-0.00646904
82,2.51341,0.577541,-0.0070321
82.5,2.56816,0.577352,-0.00712654
83,2.61949,0.578464,-0.00712625
83.5,2.67173,0.581871,-0.00716416
84,2.72188,0.588226,-0.0085213
84.5,2.7772,0.593609,-0.00713488
85,2.82723,0.594095,-0.00845589
85.5,2.8799,0.594691,-0.00892661
86,2.93073,0.594962,-0.00845915
86.5,2.98228,0.595663,-0.00981026
87,3.03358,0.60736,-0.00853846
87.5,3.08612,0.608465,-0.00853503
88,3.13715,0.599553,-0.00713008
88.5,3.1881,0.61184,-0.00811962
89,3.23815,0.606122,-0.00850717
89.5,3.28967,0.611546,-0.00851293
90,3.33838,0.613198,-0.00845249
90.5,3.39042,0.613614,-0.00887806
91,3.43972,0.620967,-0.00877924
91.5,3.49003,0.622081,-0.00977268
92,3.54122,0.615729,-0.00970104
92.5,3.59148,0.625666,-0.00969299
93,3.64309,0.626184,-0.00844827
93.5,3.69333,0.62585,-0.00747274
94,3.74136,0.628429,-0.00747092
94.5,3.79227,0.631655,-0.00859992
95,3.84161,0.623812,-0.00878037
95.5,3.89138,0.624314,-0.00871847
96,3.94001,0.631842,-0.0100823
96.5,3.98927,0.628221,-0.00878298
97,4.03928,0.626869,-0.00794301
97.5,4.08908,0.635938,-0.00845973
98,4.13994,0.631564,-0.00978937
98.5,4.18758,0.636302,-0.00973091
99,4.23663,0.631255,-0.0101156
99.5,4.28775,0.634335,-0.0101
100,4.33535,0.636889,-0.0104934
100.5,4.38473,0.634628,-0.0110856
101,4.43371,0.642832,-0.00980354
101.5,4.48323,0.64293,-0.00978993
102,4.53244,0.642539,-0.0110992
102.5,4.58094,0.645233,-0.0111179
103,4.63131,0.648021,-0.00977797
103.5,4.67918,0.644346,-0.0110338
104,4.72795,0.647567,-0.0111026
104.5,4.77525,0.646484,-0.00971619
105,4.82511,0.648316,-0.0110909
105.5,4.87443,0.654051,-0.0110787
106,4.92278,0.651147,-0.0104353
106.5,4.97147,0.653224,-0.0115322
107,5.02019,0.657644,-0.0111012
107.5,5.06872,0.657447,-0.0105686
108,5.11798,0.656527,-0.0111002
108.5,5.16557,0.660784,-0.0111
109,5.21437,0.660884,-0.0110953
109.5,5.26358,0.658967,-0.0124095
110,5.31151,0.657588,-0.01241
110.5,5.35948,0.659843,-0.0124093
111,5.40952,0.656132,-0.0110928
111.5,5.45848,0.667097,-0.0120137
112,5.50602,0.665361,-0.0124383
112.5,5.55481,0.660098,-0.0110754
113,5.60247,0.661377,-0.00979473
113.5,5.65035,0.663385,-0.0110828
114,5.69981,0.666693,-0.0110863
114.5,5.74798,0.661296,-0.0124476
115,5.79525,0.670082,-0.01241
115.5,5.84552,0.664367,-0.0123965
116,5.89263,0.659377,-0.0133851
116.5,5.94128,0.664508,-0.0128702
117,5.99001,0.665502,-0.013295
117.5,6.03805,0.657469,-0.0137306
118,6.08664,0.655758,-0.0137144
118.5,6.13379,0.658938,-0.0124251
119,6.18272,0.664601,-0.01241
119.5,6.2312,0.664124,-0.012404
120,6.27954,0.66367,-0.0130668
120.5,6.3273,0.652913,-0.0125628
121,6.37598,0.655561,-0.0124094
121.5,6.42401,0.661414,-0.0137291
122,6.46944,0.660222,-0.01373
122.5,6.51944,0.663773,-0.0137299
123,6.56822,0.660992,-0.0140645
123.5,6.61574,0.662971,-0.0143809
124,6.66478,0.666185,-0.0153575
124.5,6.71219,0.665097,-0.0153974
125,6.7601,0.664399,-0.015374
125.5,6.80802,0.669308,-0.01537
126,6.85641,0.661328,-0.0153697
126.5,6.90441,0.662631,-0.0145283
127,6.95113,0.665426,-0.0154035
127.5,6.99974,0.664485,-0.0153799
128,7.04783,0.665087,-0.015381
128.5,7.09562,0.658772,-0.0172674
129,7.14352,0.657024,-0.0188809
129.5,7.18928,0.668117,-0.016909
130,7.23811,0.671343,-0.0156569
130.5,7.28596,0.663205,-0.0142796
131,7.33408,0.663505,-0.0145304
131.5,7.38094,0.666796,-0.0155926
132,7.42947,0.66056,-0.016922
132.5,7.47737,0.662853,-0.017027
133,7.52576,0.660706,-0.0162644
133.5,7.57317,0.66074,-0.016944
134,7.6208,0.66454,-0.0169784
134.5,7.66918,0.660387,-0.0182852
135,7.71584,0.665291,-0.0182647
135.5,7.76311,0.66188,-0.0182302
136,7.81135,0.662709,-0.0181419
136.5,7.85824,0.652788,-0.0169094
137,7.90627,0.655244,-0.0169098
137.5,7.95431,0.660061,-0.0182118
138,8.0017,0.656868,-0.0182295
138.5,8.04907,0.65392,-0.0196474
139,8.09735,0.650082,-0.0195527
139.5,8.14432,0.650387,-0.0181823
140,8.19238,0.650962,-0.0182303
140.5,8.23875,0.656205,-0.0180779
141,8.28665,0.654815,-0.0178999
141.5,8.33381,0.652636,-0.0178999
142,8.37927,0.646627,-0.0177863
142.5,8.42785,0.647742,-0.0192105
143,8.47556,0.649136,-0.01921
143.5,8.52399,0.652608,-0.01921
144,8.57095,0.646683,-0.0192099
144.5,8.61802,0.648841,-0.0206385
145,8.6654,0.644133,-0.0192172
145.5,8.71292,0.647258,-0.0205463
146,8.75964,0.646163,-0.0205393
146.5,8.80698,0.655375,-0.0219598
147,8.85448,0.653294,-0.0218599
147.5,8.90168,0.652565,-0.02186
148,8.94826,0.655711,-0.0218595
148.5,8.99605,0.658679,-0.0206589
149,9.04425,0.6567,-0.0205373
149.5,9.09098,0.657124,-0.0215045
150,9.13871,0.652238,-0.0215201
150.5,9.18497,0.656002,-0.02152
151,9.23347,0.662588,-0.0215158
151.5,9.27995,0.654555,-0.0218513
152,9.3281,0.657205,-0.021851
152.5,9.37526,0.654577,-0.0231398
153,9.42106,0.658203,-0.0231699
153.5,9.46908,0.656452,-0.02317
154,9.51614,0.655574,-0.0231986
154.5,9.5627,0.647059,-0.0226013
155,9.61008,0.649397,-0.0238303
155.5,9.65855,0.654368,-0.0239127
156,9.70603,0.653369,-0.0221802
156.5,9.75335,0.652962,-0.02218
157,9.79945,0.650634,-0.0221801
157.5,9.84686,0.660586,-0.0221131
158,9.89443,0.655594,-0.0235158
158.5,9.94191,0.648897,-0.0248059
159,9.98834,0.659381,-0.0248197
159.5,10.0358,0.655873,-0.024914
160,10.0825,0.655274,-0.0261302
160.5,10.1291,0.663028,-0.0267795
161,10.1772,0.660324,-0.0274499
161.5,10.2242,0.662609,-0.0272025
162,10.2707,0.664023,-0.0261309
162.5,10.318,0.661465,-0.0263799
163,10.3658,0.66524,-0.0274492
163.5,10.4134,0.668448,-0.02745
164,10.4606,0.670163,-0.0274482
164.5,10.5077,0.671632,-0.0284329
165,10.5557,0.675008,-0.0284399
165.5,10.6027,0.680209,-0.0284871
166,10.6504,0.678249,-0.0277807
166.5,10.6967,0.678549,-0.02778
167,10.7449,0.683737,-0.0278096
167.5,10.7922,0.679461,-0.0287767
168,10.8389,0.683545,-0.0300821
168.5,10.8874,0.690993,-0.0300212
169,10.9337,0.698477,-0.0290718
169.5,10.9809,0.704237,-0.0289768
170,11.0279,0.704881,-0.0301377
170.5,11.075,0.69961,-0.0287697
171,11.1227,0.701749,-0.02877
171.5,11.1692,0.705713,-0.02877
172,11.2164,0.70308,-0.02877
172.5,11.2625,0.701064,-0.02877
173,11.3108,0.706027,-0.0287705
173.5,11.3578,0.714033,-0.0296237
174,11.4058,0.707657,-0.0301055
174.5,11.454,0.712925,-0.0310785
175,11.5004,0.718717,-0.03107
175.5,11.546,0.71652,-0.0310945
176,11.5935,0.717493,-0.0310542
176.5,11.641,0.714707,-0.03107
177,11.6871,0.727123,-0.03107
177.5,11.7354,0.72897,-0.0310686
178,11.7825,0.741045,-0.0302899
178.5,11.8288,0.735552,-0.0307477
179,11.8753,0.736591,-0.03075
179.5,11.9241,0.741337,-0.03075
180,11.9706,0.741734,-0.03075
180.5,12.018,0.740512,-0.0307505
181,12.0651,0.744311,-0.0311127
181.5,12.1105,0.745878,-0.0323697
182,12.1591,0.74158,-0.03239
182.5,12.2065,0.748464,-0.03239
183,12.2533,0.736067,-0.0324041
183.5,12.3016,0.739821,-0.0336866
184,12.348,0.736519,-0.0336803
184.5,12.3948,0.740533,-0.0337129
185,12.4418,0.742562,-0.0337122
185.5,12.4894,0.746128,-0.0327693
186,12.5368,0.749451,-0.033699
186.5,12.5827,0.755628,-0.0336868
187,12.6292,0.75304,-0.0346898
187.5,12.6786,0.756053,-0.0333731
188,12.7243,0.764427,-0.0336955
188.5,12.7716,0.758327,-0.0342538
189,12.8201,0.759727,-0.03404
189.5,12.8666,0.759616,-0.0340398
190,12.914,0.765748,-0.0342649
190.5,12.9596,0.769553,-0.0353598
191,13.0075,0.767381,-0.03536
191.5,13.0545,0.777811,-0.03536
192,13.103,0.773329,-0.03536
192.5,13.146,0.775286,-0.0352425
193,13.1962,0.77918,-0.0340411
193.5,13.2437,0.784493,-0.0353655
194,13.291,0.790102,-0.0353604
194.5,13.3376,0.790396,-0.0353593
195,13.3831,0.790569,-0.0366767
195.5,13.4306,0.793241,-0.0379879
196,13.4791,0.79213,-0.0379892
196.5,13.5252,0.79292,-0.0393334
197,13.573,0.795999,-0.0392999
197.5,13.6194,0.802308,-0.0393
198,13.6666,0.796523,-0.0393
198.5,13.7141,0.803594,-0.0393009
199,13.7607,0.800323,-0.0400875
199.5,13.8077,0.810955,-0.040622
200,13.8551,0.811205,-0.0394223
200.5,13.9018,0.815612,-0.0406202
201,13.9487,0.820028,-0.0406201
201.5,13.9955,0.820874,-0.0392543
202,14.0423,0.823368,-0.0393098
202.5,14.088,0.826619,-0.0408643
203,14.1377,0.827811,-0.041288
203.5,14.1851,0.832639,-0.0396041
204,14.231,0.838379,-0.0383202
204.5,14.2786,0.837885,-0.03832
205,14.3252,0.829984,-0.0383401
205.5,14.3724,0.828136,-0.0399506
206,14.4198,0.834117,-0.0409591
206.5,14.4661,0.826583,-0.040962
207,14.5135,0.832721,-0.0422387
207.5,14.5608,0.82283,-0.0435794
208,14.6079,0.838701,-0.04358
208.5,14.655,0.838825,-0.0435829
209,14.702,0.842304,-0.04227
209.5,14.7487,0.844065,-0.0434461
210,14.7973,0.847341,-0.0435842
210.5,14.8432,0.851797,-0.042934
211,14.8899,0.850006,-0.0422677
211.5,14.9378,0.848131,-0.0422678
212,14.9855,0.84933,-0.0450106
212.5,15.0321,0.847314,-0.0448999
213,15.0764,0.848488,-0.044897
213.5,15.1259,0.856311,-0.0435934
214,15.1737,0.862163,-0.04359
214.5,15.2206,0.860671,-0.0435918
215,15.2669,0.869812,-0.0445943
215.5,15.3142,0.860668,-0.0445684
216,15.3623,0.867654,-0.0458644
216.5,15.4088,0.862792,-0.0458903
217,15.4566,0.865565,-0.0459022
217.5,15.5032,0.870266,-0.0468471
218,15.5499,0.866629,-0.0475394
218.5,15.5969,0.873866,-0.0501259
219,15.6446,0.868015,-0.0501702
219.5,15.6918,0.87098,-0.0508549
220,15.7395,0.878762,-0.0535517
220.5,15.7839,0.880763,-0.0503077
221,15.834,0.874547,-0.0517727
221.5,15.8803,0.879196,-0.050405
222,15.9274,0.884252,-0.0517224
222.5,15.9761,0.887943,-0.05172
223,16.0222,0.886351,-0.0517203
223.5,16.069,0.888686,-0.051732
224,16.117,0.890876,-0.0503768
224.5,16.1639,0.886303,-0.0490803
225,16.2102,0.885794,-0.04908
225.5,16.2577,0.893691,-0.0490798
226,16.3054,0.898308,-0.0491061
226.5,16.352,0.895863,-0.049411
227,16.3985,0.904029,-0.050704
227.5,16.4466,0.901754,-0.0517934
228,16.4945,0.903399,-0.05172
228.5,16.5417,0.911048,-0.0517224
229,16.5885,0.912292,-0.0529283
229.5,16.6359,0.907321,-0.0530294
230,16.6826,0.905827,-0.0543212
230.5,16.7302,0.908616,-0.0556593
231,16.7771,0.903587,-0.05568
231.5,16.8244,0.905195,-0.0555971
232,16.8713,0.902846,-0.05566
232.5,16.9189,0.907424,-0.0556599
233,16.9658,0.902532,-0.0569856
233.5,17.0128,0.906167,-0.057143
234,17.0605,0.913946,-0.0582981
234.5,17.1076,0.914783,-0.0583
235,17.1545,0.908769,-0.0583001
235.5,17.203,0.910633,-0.0582636
236,17.2488,0.912789,-0.0596191
236.5,17.2965,0.919247,-0.05962
237,17.3443,0.914695,-0.0596209
237.5,17.3912,0.914162,-0.0606886
238,17.4373,0.911772,-0.0622494
238.5,17.4848,0.914444,-0.06225
239,17.5321,0.915737,-0.06225
239.5,17.5798,0.913314,-0.0622512
240,17.6268,0.911049,-0.0643996
240.5,17.6722,0.918202,-0.0655572
241,17.7208,0.910583,-0.0649289
241.5,17.7692,0.913383,-0.0650501
242,17.815,0.91546,-0.0675321
242.5,17.8631,0.919155,-0.06753
243,17.9102,0.917147,-0.0675239
243.5,17.957,0.921075,-0.0688506
244,18.0047,0.925473,-0.0688692
244.5,18.0528,0.928933,-0.0674673
245,18.0987,0.930285,-0.0688387
245.5,18.1455,0.934864,-0.0709518
246,18.195,0.928316,-0.0714699
246.5,18.2412,0.934179,-0.0714755
247,18.2886,0.938274,-0.0727952
247.5,18.3357,0.933926,-0.072728
248,18.3807,0.943117,-0.0735095
248.5,18.43,0.945077,-0.0728059
249,18.4775,0.94234,-0.0741215
249.5,18.5246,0.952545,-0.0764937
250,18.5726,0.956265,-0.0768878
250.5,18.6191,0.94925,-0.0780601
251,18.6659,0.949753,-0.0780556
251.5,18.7138,0.951754,-0.0797443
252,18.7594,0.950342,-0.0816648
252.5,18.8085,0.960717,-0.0820062
253,18.8568,0.964248,-0.0834431
253.5,18.9036,0.964154,-0.0848344
254,18.9507,0.964647,-0.084758
254.5,18.998,0.957323,-0.0860958
255,19.0461,0.958471,-0.0870932
255.5,19.0934,0.963295,-0.0871176
256,19.1409,0.95915,-0.088263
256.5,19.1888,0.959838,-0.0897001
257,19.2351,0.961077,-0.0911014
257.5,19.2818,0.957863,-0.0912394
258,19.33,0.956845,-0.0923216
258.5,19.3773,0.963593,-0.0936408
259,19.424,0.959407,-0.0950049
259.5,19.4712,0.96118,-0.0957995
260,19.5196,0.965287,-0.0962989
260.5,19.5667,0.967875,-0.0984397
261,19.6141,0.972719,-0.100463
261.5,19.6599,0.956701,-0.101865
262,19.7078,0.957111,-0.10437
262.5,19.7556,0.954911,-0.107324
263,19.8037,0.959218,-0.10727
263.5,19.8515,0.961311,-0.107246
264,19.8982,0.962862,-0.109273
264.5,19.9452,0.953133,-0.111485
265,19.9928,0.953186,-0.113252
265.5,20.0402,0.953573,-0.114592
266,20.0873,0.948284,-0.115941
266.5,20.1348,0.949365,-0.117288
267,20.1821,0.945436,-0.118675
267.5,20.2294,0.944808,-0.12022
268,20.2769,0.94093,-0.121535
268.5,20.3255,0.932932,-0.124189
269,20.372,0.932929,-0.126091
269.5,20.42,0.926056,-0.127876
270,20.4678,0.922919,-0.129339
270.5,20.515,0.925281,-0.131374
271,20.5619,0.918163,-0.13175
271.5,20.6095,0.919323,-0.131775
272,20.6569,0.920577,-0.13305
272.5,20.7055,0.914158,-0.13469
273,20.7523,0.910212,-0.137443
273.5,20.7996,0.904632,-0.138759
274,20.8468,0.904413,-0.14118
274.5,20.8951,0.904598,-0.143105
275,20.9423,0.896474,-0.145581
275.5,20.9907,0.893306,-0.14688
276,21.037,0.890835,-0.148968
276.5,21.0844,0.887776,-0.151579
277,21.1324,0.883054,-0.155387
277.5,21.1796,0.880846,-0.157645
278,21.2269,0.876213,-0.159632
278.5,21.2739,0.877063,-0.162311
279,21.3224,0.877051,-0.165681
279.5,21.3699,0.879021,-0.166985
280,21.4173,0.879225,-0.168428
280.5,21.4645,0.865412,-0.169856
281,21.511,0.860966,-0.172613
281.5,21.5594,0.861847,-0.174462
282,21.6068,0.861857,-0.177513
282.5,21.6538,0.861553,-0.179374
283,21.7015,0.853717,-0.181641
283.5,21.7487,0.850326,-0.183733
284,21.7964,0.842241,-0.18531
284.5,21.8409,0.839193,-0.187743
285,21.8914,0.841169,-0.191374
285.5,21.9388,0.842316,-0.194534
286,21.9843,0.835691,-0.198092
286.5,22.0315,0.829369,-0.203258
287,22.0812,0.823335,-0.206243
287.5,22.1288,0.825641,-0.208664
288,22.1757,0.820948,-0.211492
288.5,22.2241,0.812796,-0.215585
289,22.2712,0.808942,-0.218364
289.5,22.3188,0.811723,-0.220953
290,22.3657,0.80517,-0.223629
290.5,22.4135,0.798965,-0.228348
291,22.461,0.793617,-0.231007
291.5,22.5082,0.788772,-0.234609
292,22.5558,0.77641,-0.237779
292.5,22.6021,0.766031,-0.241984
293,22.6494,0.750665,-0.246394
293.5,22.6975,0.729716,-0.253191
294,22.745,0.712317,-0.256761
294.5,22.793,0.680489,-0.26127
295,22.8399,0.660543,-0.265423
295.5,22.8864,0.634362,-0.271237
296,22.9334,0.604975,-0.276483
296.5,22.9816,0.579978,-0.282244
297,23.0281,0.547814,-0.28634
297.5,23.0755,0.544578,-0.292225
298,23.1231,0.529029,-0.297376
298.5,23.1703,0.52585,-0.303368
299,23.2166,0.525358,-0.309785
299.5,23.266,0.532039,-0.314814
300,23.3133,0.531966,-0.321278
300.5,23.361,0.533499,-0.326404
301,23.4093,0.550947,-0.33112
301.5,23.4564,0.558217,-0.335825
302,23.504,0.583,-0.341266
302.5,23.5519,0.590902,-0.345693
303,23.5991,0.603727,-0.350325
303.5,23.6474,0.61806,-0.354164
304,23.6952,0.631341,-0.359226
304.5,23.7432,0.640252,-0.362595
305,23.7896,0.64574,-0.366837
305.5,23.8392,0.656759,-0.370744
306,23.8869,0.668063,-0.375706
306.5,23.9336,0.677726,-0.379622
307,23.9829,0.684399,-0.383183
307.5,24.0297,0.691172,-0.385486
308,24.0781,0.69795,-0.388522
308.5,24.1255,0.705405,-0.391277
309,24.1733,0.711235,-0.394991
309.5,24.2211,0.717159,-0.400274
310,24.2695,0.717949,-0.400391
310.5,24.3175,0.719848,-0.403712
311,24.3644,0.724889,-0.405971
311.5,24.412,0.72951,-0.408493
312,24.4603,0.73296,-0.410706
312.5,24.5084,0.737518,-0.413904
313,24.556,0.742143,-0.416826
313.5,24.6027,0.743507,-0.419615
314,24.6507,0.746642,-0.421317
314.5,24.6988,0.753095,-0.422636
315,24.7472,0.748765,-0.425931
315.5,24.7951,0.754394,-0.428482
316,24.8435,0.754902,-0.431708
316.5,24.8907,0.763168,-0.433489
317,24.9382,0.760842,-0.435294
317.5,24.9859,0.77149,-0.437733
318,25.0343,0.767289,-0.442199
318.5,25.0814,0.772613,-0.444663
319,25.1298,0.779704,-0.446053
319.5,25.1779,0.7781,-0.447592
320,25.2254,0.778676,-0.450497
320.5,25.2746,0.790747,-0.452148
321,25.3215,0.788932,-0.454594
321.5,25.3689,0.786608,-0.456262
322,25.4173,0.796092,-0.458964
322.5,25.4647,0.797699,-0.460464
323,25.5125,0.800721,-0.463405
323.5,25.5605,0.795365,-0.464951
324,25.6089,0.800737,-0.468025
324.5,25.6572,0.79752,-0.470642
325,25.7029,0.810281,-0.472445
325.5,25.7529,0.806502,-0.47377
326,25.8001,0.812486,-0.476703
326.5,25.8477,0.807899,-0.478209
327,25.8957,0.812119,-0.480982
327.5,25.9434,0.809356,-0.484149
328,25.9916,0.812135,-0.485762
328.5,26.0394,0.814854,-0.488538
329,26.0861,0.813514,-0.489859
329.5,26.1349,0.819772,-0.491102
330,26.183,0.813435,-0.494097
330.5,26.2307,0.821485,-0.495849
331,26.2784,0.812745,-0.497377
331.5,26.3268,0.813803,-0.501082
332,26.3757,0.816738,-0.502328
332.5,26.4223,0.821657,-0.505142
333,26.4702,0.821806,-0.507987
333.5,26.5188,0.818755,-0.510281
334,26.5665,0.818053,-0.511641
334.5,26.6147,0.818279,-0.513045
335,26.6622,0.82103,-0.515334
335.5,26.7106,0.822563,-0.517629
336,26.7591,0.816221,-0.521031
336.5,26.8072,0.815231,-0.521304
337,26.8549,0.810792,-0.523781
337.5,26.9032,0.809203,-0.524745
338,26.9517,0.81291,-0.527499
338.5,26.9994,0.822426,-0.528836
339,27.0472,0.813501,-0.531782
339.5,27.0928,0.808872,-0.533324
340,27.1438,0.814177,-0.536062
340.5,27.1919,0.811723,-0.538937
341,27.2399,0.808768,-0.540682
341.5,27.2869,0.810319,-0.542135
342,27.3351,0.817052,-0.545208
342.5,27.384,0.80877,-0.547797
343,27.4317,0.801946,-0.549563
343.5,27.4805,0.804697,-0.552345
344,27.529,0.800402,-0.555381
344.5,27.5759,0.795007,-0.557591
345,27.6245,0.800672,-0.559992
345.5,27.673,0.796622,-0.561196
346,27.7208,0.799227,-0.562513
346.5,27.7686,0.802281,-0.563944
347,27.8162,0.791576,-0.566058
347.5,27.8638,0.794021,-0.568108
348,27.913,0.787298,-0.569738
348.5,27.9607,0.78729,-0.571535
349,28.0069,0.789492,-0.574169
349.5,28.0568,0.789025,-0.577138
350,28.1051,0.790384,-0.579183
350.5,28.1534,0.786922,-0.582056
351,28.2013,0.7854,-0.584057
351.5,28.25,0.782879,-0.585363
352,28.2977,0.790494,-0.58669
352.5,28.3461,0.783365,-0.588016
353,28.3937,0.786207,-0.589586
353.5,28.4426,0.785578,-0.592411
354,28.491,0.785806,-0.593683
354.5,28.5385,0.782687,-0.596391
355,28.587,0.783213,-0.600269
355.5,28.6332,0.786322,-0.603049
356,28.6831,0.779723,-0.603444
356.5,28.7306,0.772686,-0.605389
357,28.7793,0.779666,-0.607876
357.5,28.8277,0.778328,-0.609224
358,28.8759,0.7763,-0.61093
358.5,28.9237,0.781376,-0.611736
359,28.9722,0.775492,-0.612361
359.5,29.0201,0.78496,-0.616957
360,29.0662,0.784284,-0.619781
360.5,29.1166,0.782474,-0.62251
361,29.1648,0.783723,-0.626287
361.5,29.2121,0.779188,-0.62754
362,29.2604,0.786734,-0.629518
362.5,29.3093,0.784842,-0.631033
363,29.3576,0.783925,-0.633857
363.5,29.4056,0.778186,-0.635472
364,29.4531,0.785852,-0.636214
364.5,29.5023,0.783924,-0.639272
365,29.5503,0.784472,-0.641347
365.5,29.5989,0.784039,-0.644182
366,29.6473,0.784475,-0.646431
366.5,29.695,0.784365,-0.649204
367,29.7448,0.78915,-0.650767
367.5,29.7911,0.785482,-0.652397
368,29.8389,0.785816,-0.653989
368.5,29.8867,0.779576,-0.656994
369,29.9372,0.786884,-0.660031
369.5,29.9848,0.786173,-0.662456
370,30.0343,0.793165,-0.664993
370.5,30.0823,0.789278,-0.668293
371,30.1319,0.794953,-0.671251
371.5,30.1799,0.797368,-0.673135
372,30.2267,0.792848,-0.676667
372.5,30.277,0.797248,-0.678477
373,30.3248,0.79939,-0.681679
373.5,30.3732,0.797903,-0.685079
374,30.4212,0.802862,-0.687272
374.5,30.4684,0.798763,-0.688683
375,30.5195,0.801417,-0.689992
375.5,30.568,0.797464,-0.691958
376,30.6159,0.79291,-0.696299
376.5,30.6649,0.799335,-0.699479
377,30.7117,0.80632,-0.703647
377.5,30.7617,0.793651,-0.706539
378,30.8075,0.79894,-0.709722
378.5,30.8583,0.802008,-0.713003
379,30.9065,0.800617,-0.716261
379.5,30.9552,0.802909,-0.718913
380,31.0042,0.80624,-0.722346
380.5,31.0526,0.81018,-0.726348
381,31.1009,0.808539,-0.728732
381.5,31.1496,0.812752,-0.731919
382,31.1981,0.814761,-0.733982
382.5,31.247,0.816607,-0.737716
383,31.2951,0.825903,-0.741305
383.5,31.3433,0.821931,-0.745095
384,31.3912,0.823103,-0.746925
384.5,31.4404,0.820199,-0.751091
385,31.4892,0.827605,-0.756193
385.5,31.5381,0.82848,-0.757956
386,31.5855,0.83248,-0.760836
386.5,31.6347,0.837713,-0.764623
387,31.683,0.834989,-0.767074
387.5,31.7317,0.845919,-0.76996
388,31.7803,0.844785,-0.775156
388.5,31.8288,0.852517,-0.778784
389,31.8776,0.85023,-0.782637
389.5,31.9262,0.852248,-0.786885
390,31.9743,0.853046,-0.790955
390.5,32.0212,0.854817,-0.794175
391,32.0711,0.857061,-0.798305
391.5,32.1194,0.867061,-0.802525
392,32.1688,0.866103,-0.806126
392.5,32.2166,0.864656,-0.809774
393,32.2657,0.871365,-0.813639
393.5,32.3141,0.874751,-0.81674
394,32.3633,0.876687,-0.822448
394.5,32.4118,0.879572,-0.826837
395,32.4602,0.884162,-0.830728
395.5,32.5093,0.888124,-0.836121
396,32.5575,0.891163,-0.841087
396.5,32.606,0.888066,-0.845716
397,32.655,0.902905,-0.849853
397.5,32.7031,0.895978,-0.853692
398,32.7521,0.899416,-0.858615
398.5,32.8011,0.908624,-0.863414
399,32.8479,0.906771,-0.868353
399.5,32.8973,0.911282,-0.87292
400,32.9465,0.918235,-0.87694
400.5,32.9948,0.910783,-0.881971
401,33.0442,0.910883,-0.887474
401.5,33.0925,0.914255,-0.892586
402,33.1416,0.911657,-0.89705
402.5,33.1879,0.907025,-0.901943
403,33.2391,0.907155,-0.907014
403.5,33.2852,0.910672,-0.912418
404,33.3347,0.91164,-0.917282
404.5,33.3838,0.909398,-0.922054
405,33.433,0.912524,-0.927103
405.5,33.4815,0.908982,-0.932282
406,33.5306,0.912474,-0.938245
406.5,33.5786,0.911743,-0.941586
407,33.6276,0.913598,-0.946759
407.5,33.6759,0.909123,-0.952086
408,33.7245,0.902407,-0.958312
408.5,33.7727,0.899328,-0.966083
409,33.8221,0.904647,-0.972079
409.5,33.871,0.901486,-0.97726
410,33.9183,0.896031,-0.982036
410.5,33.9676,0.893954,-0.987417
411,34.0158,0.894115,-0.991769
411.5,34.0647,0.890106,-0.999254
412,34.1126,0.884181,-1.00476
412.5,34.162,0.886758,-1.01038
413,34.2103,0.869344,-1.01494
413.5,34.2591,0.875796,-1.01936
414,34.3076,0.865,-1.02474
414.5,34.356,0.869433,-1.03026
415,34.4051,0.861045,-1.03549
415.5,34.4534,0.858855,-1.04046
416,34.5017,0.849961,-1.0459
416.5,34.551,0.842756,-1.05162
417,34.6,0.835003,-1.05749
417.5,34.6485,0.826027,-1.06158
418,34.6979,0.817073,-1.06638
418.5,34.7461,0.813517,-1.07168
419,34.7949,0.805503,-1.07787
419.5,34.8422,0.805102,-1.08377
420,34.8917,0.794756,-1.08872
420.5,34.9412,0.796327,-1.09304
421,34.9889,0.781121,-1.09748
421.5,35.0384,0.775944,-1.10208
422,35.0865,0.763992,-1.1048
422.5,35.1354,0.753739,-1.10992
423,35.1845,0.748922,-1.11573
423.5,35.234,0.74018,-1.12163
424,35.2827,0.725394,-1.12595
424.5,35.3287,0.718031,-1.13529
425,35.3796,0.716061,-1.1384
425.5,35.4276,0.704826,-1.13926
426,35.4774,0.69944,-1.14133
426.5,35.5254,0.688706,-1.14649
427,35.5752,0.678337,-1.15118
427.5,35.6239,0.666476,-1.15589
428,35.6704,0.658509,-1.16073
428.5,35.7208,0.648848,-1.16464
429,35.7703,0.640575,-1.16985
429.5,35.819,0.630364,-1.17303
430,35.8673,0.623942,-1.1765
430.5,35.9157,0.607043,-1.18076
431,35.9647,0.603698,-1.1846
431.5,36.0137,0.596775,-1.18883
432,36.0618,0.58892,-1.19434
432.5,36.1116,0.584753,-1.19704
433,36.1594,0.573035,-1.20138
433.5,36.2078,0.564552,-1.20351
434,36.255,0.553263,-1.20663
434.5,36.3055,0.541803,-1.20977
435,36.3544,0.537703,-1.21263
435.5,36.4042,0.524789,-1.21495
436,36.4522,0.520808,-1.21779
436.5,36.5008,0.508414,-1.22005
437,36.5497,0.50037,-1.22182
437.5,36.5986,0.496144,-1.22463
438,36.6478,0.48936,-1.22775
438.5,36.6963,0.477978,-1.23082
439,36.7457,0.475807,-1.23303
439.5,36.7943,0.466047,-1.23585
440,36.8419,0.461551,-1.23921
440.5,36.8923,0.448827,-1.2412
441,36.9406,0.439399,-1.24411
441.5,36.9895,0.435594,-1.2454
442,37.038,0.43021,-1.24755
442.5,37.0866,0.424793,-1.25192
443,37.1366,0.413253,-1.25413
443.5,37.1856,0.403251,-1.25622
444,37.2334,0.399894,-1.2587
444.5,37.2832,0.388149,-1.26088
445,37.3321,0.389506,-1.26217
445.5,37.3804,0.381024,-1.26355
446,37.4294,0.374661,-1.26461
446.5,37.4789,0.378792,-1.26525
447,37.5275,0.375618,-1.2677
447.5,37.5757,0.3664,-1.26995
448,37.6257,0.358151,-1.27155
448.5,37.6749,0.354821,-1.27331
449,37.7238,0.344685,-1.27528
449.5,37.7715,0.344034,-1.27613
450,37.82,0.333765,-1.27836
450.5,37.8703,0.328013,-1.28086
451,37.9176,0.325887,-1.28379
451.5,37.969,0.319804,-1.28258
452,38.018,0.321928,-1.28391
452.5,38.0666,0.317788,-1.28523
453,38.1155,0.318148,-1.28737
453.5,38.1642,0.31236,-1.29056
454,38.2134,0.309976,-1.29244
454.5,38.2627,0.305766,-1.29276
455,38.3116,0.298227,-1.29379
455.5,38.3613,0.303256,-1.29378
456,38.4101,0.299496,-1.29438
456.5,38.4591,0.293306,-1.29566
457,38.5076,0.2883,-1.29697
457.5,38.5565,0.282929,-1.29829
458,38.6058,0.272732,-1.29961
458.5,38.6554,0.278275,-1.30101
459,38.7032,0.270158,-1.30224
459.5,38.7535,0.268855,-1.30389
460,38.8027,0.266818,-1.30642
460.5,38.8509,0.26245,-1.3074
461,38.8989,0.263694,-1.3087
461.5,38.9502,0.260481,-1.30489
462,38.9989,0.256503,-1.30726
462.5,39.0475,0.247771,-1.31061
463,39.0957,0.252572,-1.31252
463.5,39.1464,0.238609,-1.31242
464,39.1946,0.244937,-1.31285
464.5,39.2441,0.239917,-1.31409
465,39.2939,0.240166,-1.31543
465.5,39.3422,0.238595,-1.31541
466,39.3897,0.238853,-1.31673
466.5,39.4409,0.231573,-1.31818
467,39.4905,0.23606,-1.32069
467.5,39.5398,0.231247,-1.31976
468,39.5886,0.235767,-1.32069
468.5,39.6377,0.225316,-1.32089
469,39.6873,0.221721,-1.322
469.5,39.7368,0.215207,-1.32217
470,39.786,0.219325,-1.32199
470.5,39.8346,0.215211,-1.32332
471,39.8841,0.216679,-1.32333
471.5,39.9333,0.21662,-1.32432
472,39.983,0.218062,-1.32612
472.5,40.0295,0.211554,-1.32752
473,40.0814,0.206059,-1.32979
473.5,40.1303,0.208839,-1.33111
474,40.1802,0.20557,-1.33167
474.5,40.2284,0.204388,-1.33167
475,40.278,0.2036,-1.33168
475.5,40.3277,0.205102,-1.33061
476,40.3767,0.198608,-1.33199
476.5,40.4256,0.207042,-1.33332
477,40.4746,0.206512,-1.33258
477.5,40.5251,0.200192,-1.33233
478,40.5741,0.197025,-1.33195
478.5,40.6235,0.195586,-1.33366
479,40.6723,0.199197,-1.33467
479.5,40.7217,0.196494,-1.33606
480,40.7701,0.192583,-1.3374
480.5,40.8196,0.199303,-1.33872
481,40.8682,0.192436,-1.33995
481.5,40.9184,0.193665,-1.34107
482,40.9679,0.186704,-1.34265
482.5,41.0171,0.195567,-1.34264
483,41.0663,0.190562,-1.34397
483.5,41.1156,0.188791,-1.3434
484,41.1657,0.186885,-1.34336
484.5,41.2147,0.184745,-1.34158
485,41.2635,0.183389,-1.34411
485.5,41.3113,0.187662,-1.34635
486,41.3624,0.179233,-1.34748
486.5,41.4121,0.179573,-1.3476
487,41.4606,0.17818,-1.34881
487.5,41.5102,0.167312,-1.35012
488,41.5601,0.165596,-1.35019
488.5,41.6094,0.164632,-1.3488
489,41.6584,0.17066,-1.34881
489.5,41.7081,0.172849,-1.34946
490,41.7565,0.165367,-1.34946
490.5,41.8065,0.166845,-1.35014
491,41.8564,0.162875,-1.35227
491.5,41.9048,0.158928,-1.35353
492,41.955,0.15343,-1.35357
492.5,42.0038,0.15849,-1.3534
493,42.053,0.155685,-1.35483
493.5,42.1029,0.157618,-1.35482
494,42.1527,0.146283,-1.35757
494.5,42.1999,0.139682,-1.35747
495,42.2508,0.149716,-1.35747
495.5,42.3002,0.150022,-1.35879
496,42.3503,0.145795,-1.35879
496.5,42.3991,0.149474,-1.35879
497,42.4478,0.1386,-1.35875
497.5,42.4984,0.141533,-1.36138
498,42.5469,0.138239,-1.36274
498.5,42.5966,0.140371,-1.36274
499,42.6459,0.129015,-1.36265
499.5,42.6948,0.132601,-1.36272
500,42.7449,0.130183,-1.36274
500.5,42.794,0.133278,-1.36141
501,42.8428,0.134389,-1.36142
501.5,42.8927,0.122033,-1.36141
502,42.9419,0.124394,-1.36286
502.5,42.9906,0.117511,-1.36332
503,43.0402,0.11825,-1.3651
503.5,43.0896,0.119919,-1.36551
504,43.1403,0.117125,-1.36555
504.5,43.1893,0.11634,-1.36548
505,43.2385,0.118841,-1.36612
505.5,43.2869,0.115266,-1.36615
506,43.3372,0.114666,-1.36746
506.5,43.3856,0.117583,-1.36877
507,43.4355,0.113755,-1.36878
507.5,43.4851,0.112587,-1.36799
508,43.5338,0.112876,-1.36826
508.5,43.584,0.116207,-1.36877
509,43.6319,0.112947,-1.36877
509.5,43.6824,0.11869,-1.36877
510,43.7318,0.121726,-1.36748
510.5,43.7826,0.116396,-1.36928
511,43.831,0.106972,-1.37254
511.5,43.8813,0.1088,-1.37522
512,43.9289,0.105205,-1.37522
512.5,43.9776,0.100422,-1.37394
513,44.0292,0.101677,-1.37515
513.5,44.0787,0.100908,-1.37658
514,44.1276,0.106292,-1.37657
514.5,44.1769,0.103815,-1.37544
515,44.2272,0.109165,-1.37525
515.5,44.2773,0.0949531,-1.37525
516,44.3264,0.0905622,-1.37525
516.5,44.3762,0.089662,-1.37663
517,44.4258,0.0910506,-1.37657
517.5,44.4751,0.0844387,-1.37793
518,44.525,0.0803974,-1.37821
518.5,44.5752,0.0785081,-1.37876
519,44.6241,0.0826546,-1.37953
519.5,44.6743,0.0831982,-1.37952
520,44.7229,0.0811283,-1.38085
520.5,44.7725,0.069263,-1.38085
521,44.822,0.0742465,-1.38168
521.5,44.8718,0.076365,-1.38085
522,44.922,0.0772907,-1.38085
522.5,44.9718,0.0724755,-1.38092
523,45.0211,0.0702369,-1.38051
523.5,45.0703,0.0718109,-1.38869
524,45.12,0.0702321,-1.38464
524.5,45.1697,0.0661967,-1.38152
525,45.2193,0.0655815,-1.38261
525.5,45.2689,0.0691233,-1.38261
526,45.3181,0.0563567,-1.38392
526.5,45.3677,0.0608474,-1.38393
527,45.418,0.0606129,-1.38261
527.5,45.4675,0.0587533,-1.38392
528,45.5164,0.0543359,-1.38393
528.5,45.5665,0.0432085,-1.38529
529,45.6156,0.0448076,-1.38525
529.5,45.6658,0.0465218,-1.38525
530,45.7141,0.0528741,-1.38679
530.5,45.762,0.0505461,-1.39235
531,45.8135,0.0466451,-1.38778
531.5,45.8629,0.0420743,-1.38611
532,45.9126,0.0457874,-1.38745
532.5,45.9632,0.0408934,-1.3874
533,46.0129,0.0437867,-1.39008
533.5,46.062,0.0477054,-1.39008
534,46.1109,0.0377814,-1.39009
534.5,46.1615,0.0388013,-1.39004
535,46.2115,0.0330251,-1.39007
535.5,46.2601,0.0404963,-1.39007
536,46.3099,0.0362048,-1.39113
536.5,46.3592,0.0359792,-1.39271
537,46.4088,0.041337,-1.39271
537.5,46.4586,0.0351181,-1.39271
538,46.5083,0.0342607,-1.39194
538.5,46.5579,0.0357893,-1.39173
539,46.6071,0.0395009,-1.39303
539.5,46.6571,0.031849,-1.39304
540,46.7067,0.0315306,-1.39416
540.5,46.7559,0.0225961,-1.39436
541,46.8068,0.0230236,-1.39429
541.5,46.8561,0.0249717,-1.39567
542,46.9053,0.023489,-1.39567
542.5,46.9544,0.0219599,-1.39542
543,47.0054,0.0256188,-1.39666
543.5,47.0551,0.0243458,-1.39666
544,47.104,0.0256648,-1.39555
544.5,47.1547,0.0231082,-1.39666
545,47.203,0.0270817,-1.39798
545.5,47.2539,0.0225144,-1.3988
546,47.3029,0.0202381,-1.3993
546.5,47.3532,0.019034,-1.40062
547,47.4035,0.0236717,-1.39981
547.5,47.4535,0.0275767,-1.40093
548,47.5024,0.0297577,-1.40002
548.5,47.5526,0.0243857,-1.39962
549,47.6025,0.029838,-1.39962
549.5,47.6514,0.0310595,-1.39962
550,47.7014,0.0317586,-1.40094
550.5,47.7519,0.0285826,-1.40189
551,47.8012,0.0241755,-1.40358
551.5,47.8511,0.0229658,-1.40358
552,47.9012,0.027195,-1.40314
552.5,47.9508,0.0181065,-1.40227
553,47.999,0.0176258,-1.40358
553.5,48.0502,0.0196409,-1.40488
554,48.1003,0.0136711,-1.40489
554.5,48.1504,0.0160372,-1.40489
555,48.1977,0.0103737,-1.40489
555.5,48.2493,0.00301182,-1.40489
556,48.2998,0.0150032,-1.40624
556.5,48.3489,0.0180865,-1.40623
557,48.3991,0.0183627,-1.40303
557.5,48.4487,0.0111537,-1.40684
558,48.4968,0.00508764,-1.4083
558.5,48.5489,0.00526836,-1.4083
559,48.5984,0.0106181,-1.40829
559.5,48.6488,0.00729597,-1.41039
560,48.6983,0.00476107,-1.41507
560.5,48.7479,0.00678814,-1.41029
561,48.797,0.000552384,-1.40882
561.5,48.8483,0.00253431,-1.41017
562,48.8979,-0.000321109,-1.40881
562.5,48.9487,0.00641137,-1.40681
563,48.9974,-0.00424721,-1.4101
563.5,49.0475,0.00326571,-1.41351
564,49.0966,-0.00267012,-1.41433
564.5,49.1471,-0.00733425,-1.41433
565,49.1966,-0.00805264,-1.41426
565.5,49.2465,-0.00209107,-1.41304
566,49.2941,-0.00652467,-1.41171
566.5,49.3465,-0.0185932,-1.41161
567,49.3966,-0.0158045,-1.41373
567.5,49.4457,-0.00891515,-1.41367
568,49.4955,-0.0149679,-1.41499
568.5,49.5453,-0.0110455,-1.41499
569,49.5946,-0.011607,-1.41366
569.5,49.6448,-0.0195748,-1.41499
570,49.6942,-0.0140397,-1.41499
570.5,49.7441,-0.016998,-1.41434
571,49.7932,-0.025142,-1.41434
571.5,49.8439,-0.0236977,-1.41446
572,49.8934,-0.0232077,-1.41634
572.5,49.9433,-0.0262275,-1.41767
573,49.9928,-0.0230322,-1.41828
573.5,50.043,-0.0254375,-1.41828
574,50.0932,-0.0230461,-1.41848
574.5,50.1426,-0.0364095,-1.4196
575,50.1931,-0.0295797,-1.4196
575.5,50.2426,-0.0239725,-1.4196
576,50.2929,-0.0243661,-1.41959
576.5,50.3425,-0.0247456,-1.42031
577,50.3919,-0.0227275,-1.41961
577.5,50.4425,-0.0246723,-1.41964
578,50.4918,-0.0260414,-1.42093
578.5,50.5417,-0.0259405,-1.42093
579,50.5916,-0.0306035,-1.4206
579.5,50.6419,-0.0250791,-1.4206
580,50.6904,-0.0226545,-1.4206
580.5,50.7409,-0.0242055,-1.42058
581,50.7903,-0.0198072,-1.42192
581.5,50.8411,-0.0200179,-1.42704
582,50.8912,-0.0181322,-1.42714
582.5,50.9404,-0.0178529,-1.42189
583,50.9902,-0.0240943,-1.42192
583.5,51.0397,-0.0189704,-1.42191
584,51.0883,-0.0264957,-1.42191
584.5,51.1391,-0.0231744,-1.42325
585,51.1891,-0.024143,-1.42323
585.5,51.2397,-0.0282699,-1.42425
586,51.2891,-0.0256547,-1.42422
586.5,51.3387,-0.0291647,-1.42455
587,51.3887,-0.0312148,-1.42455
587.5,51.4392,-0.030474,-1.42455
588,51.4889,-0.0283018,-1.42455
588.5,51.5382,-0.0322518,-1.42455
589,51.5883,-0.027477,-1.42455
589.5,51.638,-0.0327327,-1.42317
590,51.6884,-0.0388916,-1.42431
590.5,51.7385,-0.0400529,-1.42548
591,51.7881,-0.0456614,-1.42586
591.5,51.8371,-0.0396284,-1.42588
592,51.889,-0.0430678,-1.42718
592.5,51.9384,-0.0547436,-1.42718
593,51.988,-0.0512455,-1.42718
593.5,52.0374,-0.0550229,-1.4272
594,52.0876,-0.0515899,-1.42785
594.5,52.1382,-0.0540833,-1.42915
595,52.1881,-0.0530401,-1.42916
595.5,52.2386,-0.0507889,-1.42916
596,52.2881,-0.0547804,-1.42915
596.5,52.3385,-0.0579946,-1.4285
597,52.3882,-0.0601744,-1.4285
597.5,52.4388,-0.0637949,-1.4285
598,52.4889,-0.0710436,-1.4285
598.5,52.5381,-0.0681178,-1.42881
599,52.5879,-0.0749799,-1.42882
599.5,52.6382,-0.0773355,-1.42882
600,52.6884,-0.0749324,-1.43146
600.5,52.7378,-0.0863958,-1.43146
601,52.788,-0.0829797,-1.43028
601.5,52.8389,-0.0897202,-1.43015
602,52.8881,-0.0919754,-1.43146
602.5,52.9359,-0.0967326,-1.43218
603,52.988,-0.0990217,-1.43278
603.5,53.0391,-0.109568,-1.43278
604,53.0886,-0.101829,-1.43409
604.5,53.1384,-0.108316,-1.43667
605,53.1893,-0.119038,-1.43621
605.5,53.2395,-0.118459,-1.43335
606,53.2895,-0.120212,-1.43321
606.5,53.339,-0.124977,-1.43321
607,53.3882,-0.128395,-1.43455
607.5,53.4392,-0.131026,-1.43453
608,53.4892,-0.123329,-1.43453
608.5,53.5387,-0.122065,-1.43453
609,53.5884,-0.131962,-1.43453
609.5,53.6373,-0.125582,-1.43453
610,53.6892,-0.133557,-1.43552
610.5,53.7396,-0.134143,-1.43585
611,53.7885,-0.135055,-1.43453
611.5,53.8392,-0.131763,-1.43454
612,53.8886,-0.13185,-1.43454
612.5,53.9391,-0.140971,-1.43351
613,53.9895,-0.139107,-1.43322
613.5,54.0394,-0.143476,-1.43322
614,54.0887,-0.147199,-1.43322
614.5,54.1387,-0.150748,-1.43322
615,54.189,-0.146506,-1.43322
615.5,54.2391,-0.147249,-1.43322
616,54.2884,-0.146267,-1.43421
616.5,54.3389,-0.152763,-1.43422
617,54.3894,-0.154031,-1.43553
617.5,54.4394,-0.151977,-1.43553
618,54.4889,-0.153064,-1.43554
618.5,54.5388,-0.158994,-1.43454
619,54.5887,-0.147602,-1.43516
619.5,54.6378,-0.154928,-1.43585
620,54.6893,-0.158738,-1.43714
620.5,54.7383,-0.15876,-1.43715
621,54.7891,-0.155517,-1.43778
621.5,54.8388,-0.160279,-1.43683
622,54.8891,-0.169348,-1.43717
622.5,54.9393,-0.173188,-1.43717
623,54.9901,-0.173249,-1.43717
623.5,55.0391,-0.18246,-1.43849
624,55.0896,-0.174028,-1.43849
624.5,55.1405,-0.181622,-1.43849
625,55.1898,-0.1847,-1.4385
625.5,55.2396,-0.18383,-1.43783
626,55.29,-0.1899,-1.43783
626.5,55.3387,-0.185437,-1.43734
627,55.3906,-0.191309,-1.43697
627.5,55.4412,-0.191373,-1.43783
628,55.4896,-0.18928,-1.44074
628.5,55.541,-0.200324,-1.44252
629,55.5909,-0.204232,-1.44165
629.5,55.6409,-0.200952,-1.43952
630,55.6909,-0.20113,-1.43453
630.5,55.7404,-0.198498,-1.43684
631,55.7906,-0.198601,-1.43747
631.5,55.8405,-0.209249,-1.43981
632,55.891,-0.211918,-1.44531
632.5,55.9395,-0.213005,-1.43936
633,55.9907,-0.214858,-1.43643
633.5,56.0403,-0.223877,-1.4364
634,56.0914,-0.223819,-1.43772
634.5,56.1411,-0.218065,-1.43772
635,56.1911,-0.225763,-1.43902
635.5,56.2412,-0.238688,-1.43903
636,56.2906,-0.229174,-1.43903
636.5,56.3408,-0.23704,-1.43903
637,56.3918,-0.233237,-1.439
637.5,56.4411,-0.236342,-1.44002
638,56.4905,-0.236139,-1.43991
638.5,56.5409,-0.238119,-1.43873
639,56.5913,-0.237941,-1.44001
639.5,56.641,-0.249378,-1.43969
640,56.6913,-0.250903,-1.43969
640.5,56.7415,-0.247424,-1.43974
641,56.792,-0.244233,-1.44254
641.5,56.8412,-0.246169,-1.44018
642,56.8913,-0.246744,-1.43942
642.5,56.942,-0.2516,-1.43937
643,56.9915,-0.246852,-1.43926
643.5,57.0425,-0.247494,-1.43805
644,57.0924,-0.248398,-1.43805
644.5,57.1415,-0.250511,-1.43805
645,57.1923,-0.255447,-1.43805
645.5,57.242,-0.255355,-1.43923
646,57.2926,-0.256659,-1.43956
646.5,57.3423,-0.260081,-1.44428
647,57.392,-0.260445,-1.44416
647.5,57.4425,-0.26141,-1.44086
648,57.4916,-0.265425,-1.43922
648.5,57.5428,-0.264289,-1.44057
649,57.5924,-0.266402,-1.44057
649.5,57.6434,-0.27427,-1.44058
650,57.6932,-0.277918,-1.44057
650.5,57.7424,-0.277733,-1.44057
651,57.7932,-0.280748,-1.44057
651.5,57.8431,-0.281659,-1.44056
652,57.8928,-0.28061,-1.44024
652.5,57.9429,-0.283174,-1.44024
653,57.9942,-0.28194,-1.44024
653.5,58.0428,-0.295073,-1.44024
654,58.094,-0.294713,-1.44168
654.5,58.1432,-0.301305,-1.44156
655,58.1938,-0.303053,-1.44156
655.5,58.2443,-0.306357,-1.44156
656,58.2937,-0.305427,-1.44025
656.5,58.3436,-0.304849,-1.4409
657,58.3933,-0.306857,-1.44104
657.5,58.4439,-0.306049,-1.44256
658,58.4943,-0.313766,-1.44255
658.5,58.5439,-0.317413,-1.44302
659,58.5915,-0.321083,-1.44351
659.5,58.6449,-0.327559,-1.44387
660,58.6932,-0.325024,-1.44387
660.5,58.7447,-0.33178,-1.44361
661,58.7949,-0.328788,-1.44189
661.5,58.8446,-0.339481,-1.44174
662,58.8948,-0.339896,-1.44123
662.5,58.9449,-0.340946,-1.44155
663,58.9949,-0.346838,-1.44252
663.5,59.0444,-0.346665,-1.44299
664,59.0946,-0.355747,-1.44321
664.5,59.1454,-0.355646,-1.44321
665,59.1954,-0.353595,-1.44323
665.5,59.2457,-0.357439,-1.44304
666,59.2959,-0.365592,-1.44314
666.5,59.3459,-0.365776,-1.44386
667,59.3958,-0.371622,-1.44386
667.5,59.4458,-0.378289,-1.44386
668,59.4957,-0.38279,-1.44286
668.5,59.5468,-0.38237,-1.44287
669,59.5966,-0.384984,-1.44287
669.5,59.6466,-0.384917,-1.44422
670,59.6967,-0.389038,-1.44421
670.5,59.7468,-0.392184,-1.44452
671,59.797,-0.409358,-1.44453
671.5,59.8475,-0.3995,-1.44453
672,59.8967,-0.404135,-1.44453
672.5,59.9472,-0.406539,-1.44453
673,59.9951,-0.404663,-1.44453
673.5,60.0454,-0.412407,-1.44388
674,60.097,-0.419319,-1.44321
674.5,60.1484,-0.415638,-1.44347
675,60.1978,-0.420856,-1.44453
675.5,60.2482,-0.423564,-1.44453
676,60.299,-0.426425,-1.44581
676.5,60.3488,-0.429103,-1.44631
677,60.399,-0.430266,-1.44649
677.5,60.4491,-0.43646,-1.44716
678,60.4997,-0.436967,-1.44715
678.5,60.548,-0.444385,-1.44862
679,60.6007,-0.442859,-1.44914
679.5,60.6507,-0.443933,-1.44787
680,60.7007,-0.445955,-1.4465
680.5,60.752,-0.450926,-1.44562
681,60.8018,-0.456027,-1.44519
681.5,60.8517,-0.451491,-1.44693
682,60.9027,-0.460447,-1.4475
682.5,60.9523,-0.460969,-1.44348
683,61.0032,-0.465682,-1.44452
683.5,61.0534,-0.461512,-1.44452
684,61.1032,-0.471196,-1.44317
684.5,61.1537,-0.46332,-1.44321
685,61.2044,-0.470498,-1.44321
685.5,61.2539,-0.482057,-1.44347
686,61.3035,-0.480024,-1.44439
686.5,61.3551,-0.487873,-1.4459
687,61.4049,-0.485219,-1.44716
687.5,61.4552,-0.495843,-1.44709
688,61.5055,-0.492403,-1.44848
688.5,61.5559,-0.494149,-1.44848
689,61.6069,-0.492699,-1.44848
689.5,61.6561,-0.499389,-1.44817
690,61.7066,-0.503257,-1.44823
690.5,61.7575,-0.511388,-1.44683
691,61.8071,-0.512608,-1.44683
691.5,61.8578,-0.517314,-1.44683
692,61.9084,-0.515412,-1.44716
692.5,61.958,-0.530952,-1.44578
693,62.0088,-0.520491,-1.44716
693.5,62.0595,-0.523011,-1.44584
694,62.11,-0.531633,-1.44584
694.5,62.1598,-0.534135,-1.44584
695,62.2099,-0.539775,-1.4472
695.5,62.2603,-0.539003,-1.44668
696,62.3118,-0.539388,-1.44585
696.5,62.361,-0.542804,-1.44696
697,62.4118,-0.546014,-1.44716
697.5,62.4625,-0.55106,-1.4483
698,62.5126,-0.555892,-1.44847
698.5,62.5635,-0.559522,-1.44847
699,62.6129,-0.561164,-1.44844
699.5,62.6636,-0.56422,-1.4488
700,62.7138,-0.57039,-1.44777
700.5,62.7626,-0.572447,-1.44647
701,62.8145,-0.570718,-1.44617
701.5,62.8655,-0.579086,-1.44617
702,62.9128,-0.580576,-1.44617
702.5,62.9649,-0.580582,-1.44617
703,63.0154,-0.591374,-1.44789
703.5,63.0655,-0.587022,-1.44881
704,63.116,-0.596147,-1.44881
704.5,63.1663,-0.595962,-1.44881
705,63.2172,-0.601278,-1.44881
705.5,63.2672,-0.600539,-1.44881
706,63.3179,-0.605047,-1.44881
706.5,63.3686,-0.611831,-1.44881
707,63.4164,-0.612872,-1.44881
707.5,63.4696,-0.611842,-1.44749
708,63.5191,-0.618903,-1.44749
708.5,63.5702,-0.625732,-1.44749
709,63.6199,-0.630418,-1.44749
709.5,63.6706,-0.627193,-1.44749
710,63.7217,-0.628958,-1.44749
710.5,63.7713,-0.626064,-1.44626
711,63.8219,-0.62552,-1.44617
711.5,63.8723,-0.62822,-1.44735
712,63.9232,-0.627954,-1.44745
712.5,63.9733,-0.628696,-1.45222
713,64.0247,-0.63487,-1.45144
713.5,64.0746,-0.636074,-1.44793
714,64.1246,-0.632051,-1.44793
714.5,64.1748,-0.641007,-1.44793
715,64.226,-0.644145,-1.44921
715.5,64.2757,-0.646664,-1.44957
716,64.3265,-0.644903,-1.44957
716.5,64.3774,-0.649309,-1.44829
717,64.4282,-0.642836,-1.44826
717.5,64.4791,-0.636922,-1.44821
718,64.5296,-0.644084,-1.4479
718.5,64.5797,-0.64078,-1.44792
719,64.6298,-0.64487,-1.44792
719.5,64.681,-0.646531,-1.44792
720,64.7314,-0.645455,-1.4479
720.5,64.782,-0.652791,-1.44859
721,64.8328,-0.644901,-1.44989
721.5,64.8831,-0.653382,-1.44988
722,64.9314,-0.647808,-1.44858
722.5,64.9831,-0.649926,-1.44858
723,65.0343,-0.651383,-1.44858
723.5,65.0854,-0.649344,-1.44858
724,65.1361,-0.645786,-1.44858
724.5,65.1862,-0.65561,-1.44986
725,65.2364,-0.660385,-1.4496
725.5,65.2871,-0.663167,-1.44953
726,65.3374,-0.653282,-1.44923
726.5,65.3879,-0.656844,-1.44993
727,65.4384,-0.655461,-1.44958
727.5,65.4888,-0.651634,-1.44958
728,65.5394,-0.657384,-1.44958
728.5,65.5897,-0.657407,-1.44976
729,65.64,-0.658802,-1.45022
729.5,65.691,-0.663773,-1.44991
730,65.7415,-0.657298,-1.44991
730.5,65.7916,-0.658658,-1.45121
731,65.8418,-0.66244,-1.44991
731.5,65.8926,-0.657942,-1.44991
732,65.9437,-0.648918,-1.44989
732.5,65.9946,-0.654417,-1.44859
733,66.0447,-0.654805,-1.44859
733.5,66.0946,-0.655181,-1.44859
734,66.1454,-0.652811,-1.44783
734.5,66.1961,-0.66131,-1.44891
735,66.2464,-0.655904,-1.44891
735.5,66.2973,-0.650325,-1.44949
736,66.3482,-0.650716,-1.45091
736.5,66.3983,-0.653781,-1.45155
737,66.4479,-0.646019,-1.45155
737.5,66.4992,-0.646595,-1.45155
738,66.55,-0.642219,-1.45155
738.5,66.6004,-0.633109,-1.45155
739,66.6508,-0.641408,-1.45057
739.5,66.7019,-0.640068,-1.45056
740,66.7522,-0.639903,-1.45168