File: 01_Data/Fiber_Reinforced_Helmet_Shell/STA/N2/10K_min/Fiber_Reinforced_Helmet_Shell_STA_N2_10KData_250429_R3.csv
Temp./C,Time/min,DSC/(mW/mg),Mass loss/mg
60.0,0.0,0.466216,-0.0190242
60.5,0.0601753,0.479521,-0.0197816
61,0.124884,0.483781,-0.0187717
61.5,0.192631,0.482731,-0.0193087
62,0.255628,0.500184,-0.0189722
62.5,0.318593,0.50822,-0.0202505
63,0.379958,0.512882,-0.020216
63.5,0.44233,0.522497,-0.0202023
64,0.504833,0.532607,-0.0198575
64.5,0.56434,0.529619,-0.0195824
65,0.624837,0.529233,-0.0196288
65.5,0.683752,0.534315,-0.0198768
66,0.744067,0.547149,-0.0205429
66.5,0.805469,0.546499,-0.0204138
67,0.862097,0.555458,-0.0200642
67.5,0.920702,0.564646,-0.0201889
68,0.978152,0.568887,-0.018731
68.5,1.03678,0.578279,-0.0186246
69,1.09512,0.578522,-0.0186558
69.5,1.1526,0.579644,-0.0186789
70,1.20913,0.58191,-0.0186317
70.5,1.26319,0.594442,-0.018657
71,1.32151,0.590325,-0.0186462
71.5,1.37896,0.590263,-0.0186461
72,1.43589,0.603008,-0.0199855
72.5,1.4911,0.599502,-0.0200038
73,1.54518,0.606746,-0.0200162
73.5,1.60206,0.613063,-0.0212998
74,1.65657,0.617422,-0.0212911
74.5,1.71351,0.618403,-0.0200395
75,1.76642,0.623919,-0.0199296
75.5,1.8217,0.618662,-0.0204901
76,1.8778,0.618381,-0.021333
76.5,1.93036,0.616703,-0.0214995
77,1.98475,0.624232,-0.0215169
77.5,2.03874,0.633903,-0.0215068
78,2.09348,0.631165,-0.0218399
78.5,2.14717,0.638874,-0.0216331
79,2.20028,0.63749,-0.0216281
79.5,2.2536,0.637449,-0.0229433
80,2.30719,0.64246,-0.0226577
80.5,2.35928,0.647162,-0.0229327
81,2.4136,0.644696,-0.0228597
81.5,2.46558,0.645692,-0.0218716
82,2.51796,0.650375,-0.0215191
82.5,2.56789,0.651475,-0.0216052
83,2.62297,0.651986,-0.0203386
83.5,2.676,0.656017,-0.0218722
84,2.72837,0.662439,-0.0234233
84.5,2.7785,0.662943,-0.02338
85,2.83317,0.666524,-0.02338
85.5,2.88293,0.667692,-0.0233625
86,2.93627,0.668263,-0.0223957
86.5,2.98801,0.67413,-0.0223798
87,3.03856,0.679378,-0.0227438
87.5,3.09009,0.673049,-0.0233824
88,3.14244,0.685661,-0.022474
88.5,3.19215,0.687436,-0.0234529
89,3.24432,0.689018,-0.0220603
89.5,3.29441,0.693629,-0.0215967
90,3.34263,0.691193,-0.0220396
90.5,3.39564,0.701668,-0.0224242
91,3.44459,0.703455,-0.0238275
91.5,3.49658,0.708252,-0.0238215
92,3.54745,0.709557,-0.0251552
92.5,3.598,0.707407,-0.0242739
93,3.64746,0.708551,-0.0238914
93.5,3.69758,0.719001,-0.0234876
94,3.74851,0.715365,-0.0237102
94.5,3.7985,0.715857,-0.023489
95,3.84758,0.716369,-0.0234592
95.5,3.89731,0.721106,-0.0248142
96,3.94906,0.723374,-0.0238639
96.5,3.99847,0.72678,-0.02349
97,4.04754,0.726764,-0.0234533
97.5,4.09413,0.732676,-0.024759
98,4.14556,0.731344,-0.0247946
98.5,4.19596,0.733734,-0.0234309
99,4.24525,0.737773,-0.0248081
99.5,4.29423,0.735419,-0.0235595
100,4.34432,0.743483,-0.0237911
100.5,4.39259,0.747303,-0.0243863
101,4.44176,0.744567,-0.02481
101.5,4.49152,0.745029,-0.0247337
102,4.53989,0.750556,-0.0260636
102.5,4.58894,0.741499,-0.0261198
103,4.63938,0.745713,-0.0261198
103.5,4.68581,0.746724,-0.024836
104,4.73717,0.746292,-0.0261045
104.5,4.78536,0.761434,-0.0261378
105,4.8335,0.755842,-0.02613
105.5,4.8826,0.755703,-0.02613
106,4.93062,0.755995,-0.0261297
106.5,4.98013,0.757325,-0.0275109
107,5.02841,0.76,-0.0274492
107.5,5.07805,0.75942,-0.0261378
108,5.12719,0.763487,-0.0261322
108.5,5.17474,0.759949,-0.0270976
109,5.22405,0.772327,-0.0261464
109.5,5.27298,0.772634,-0.02612
110,5.31958,0.776203,-0.0261195
110.5,5.36987,0.774135,-0.0266594
111,5.41811,0.781627,-0.028062
111.5,5.46682,0.777257,-0.0287007
112,5.51587,0.774965,-0.0300867
112.5,5.56411,0.776633,-0.0287565
113,5.61275,0.77339,-0.02876
113.5,5.66078,0.77806,-0.0287619
114,5.70938,0.781511,-0.0296932
114.5,5.75858,0.78129,-0.0287604
115,5.80618,0.780249,-0.0287405
115.5,5.85505,0.780571,-0.028769
116,5.90168,0.785625,-0.0276557
116.5,5.95168,0.788087,-0.0287534
117,6.00067,0.786681,-0.0274036
117.5,6.048,0.788186,-0.028106
118,6.09629,0.79438,-0.0281487
118.5,6.14431,0.795653,-0.0280971
119,6.19312,0.798433,-0.0292783
119.5,6.24013,0.801784,-0.0283856
120,6.2893,0.801788,-0.0288368
120.5,6.33725,0.800562,-0.0307754
121,6.38596,0.795792,-0.030729
121.5,6.43263,0.804132,-0.0320749
122,6.48196,0.799075,-0.0314841
122.5,6.52987,0.807506,-0.0307299
123,6.57798,0.802289,-0.0307277
123.5,6.62621,0.795281,-0.032053
124,6.6726,0.800265,-0.03205
124.5,6.72164,0.802823,-0.0320384
125,6.76847,0.803062,-0.0307391
125.5,6.81842,0.809555,-0.0307225
126,6.86584,0.802116,-0.0320493
126.5,6.91294,0.804691,-0.0321095
127,6.96094,0.801813,-0.0307212
127.5,7.00899,0.80123,-0.0307281
128,7.05747,0.807306,-0.0311388
128.5,7.10459,0.805124,-0.0333732
129,7.15193,0.801092,-0.0319126
129.5,7.20029,0.807651,-0.0302995
130,7.24768,0.806961,-0.0319803
130.5,7.2954,0.809814,-0.0333011
131,7.34323,0.802827,-0.0330602
131.5,7.39073,0.804166,-0.0319412
132,7.43862,0.801145,-0.0316018
132.5,7.48661,0.798551,-0.0316093
133,7.53574,0.796496,-0.0329254
133.5,7.5825,0.80271,-0.0329608
134,7.63027,0.807565,-0.031093
134.5,7.67846,0.807889,-0.0327592
135,7.723,0.810274,-0.0328223
135.5,7.77122,0.809545,-0.0337862
136,7.82045,0.807562,-0.0337785
136.5,7.86536,0.80452,-0.0341395
137,7.91494,0.799897,-0.03414
137.5,7.96287,0.806442,-0.0340728
138,8.01071,0.807856,-0.0354633
138.5,8.05813,0.803989,-0.035462
139,8.10561,0.81236,-0.0354248
139.5,8.15266,0.813528,-0.0354602
140,8.20091,0.816173,-0.03546
140.5,8.24812,0.815636,-0.0354436
141,8.29511,0.814046,-0.0363062
141.5,8.34266,0.811628,-0.036452
142,8.39059,0.817628,-0.037745
142.5,8.43836,0.807139,-0.0377644
143,8.4853,0.813935,-0.0364351
143.5,8.5329,0.819854,-0.0364586
144,8.57973,0.815346,-0.0357797
144.5,8.62613,0.811298,-0.0357799
145,8.67394,0.814378,-0.0366674
145.5,8.72135,0.811594,-0.0371
146,8.76938,0.814929,-0.0371011
146.5,8.81551,0.817636,-0.0364385
147,8.86373,0.827837,-0.03644
147.5,8.91076,0.820381,-0.0364398
148,8.95817,0.815043,-0.0378751
148.5,9.0048,0.818481,-0.0377665
149,9.05242,0.822941,-0.036431
149.5,9.09958,0.814247,-0.0371741
150,9.14653,0.81455,-0.0377355
150.5,9.19435,0.814562,-0.0419443
151,9.24104,0.81357,-0.0396606
151.5,9.28913,0.818849,-0.0370506
152,9.33371,0.815073,-0.0371001
152.5,9.38292,0.813968,-0.0370986
153,9.43075,0.812068,-0.0384636
153.5,9.47847,0.819268,-0.038406
154,9.52507,0.816233,-0.0410523
154.5,9.57162,0.814275,-0.0402163
155,9.61928,0.815603,-0.03973
155.5,9.66573,0.80846,-0.0397298
156,9.71409,0.819277,-0.0408112
156.5,9.76102,0.814876,-0.0410636
157,9.80719,0.819138,-0.0410607
157.5,9.85492,0.821809,-0.04106
158,9.90311,0.826479,-0.04106
158.5,9.94921,0.827189,-0.04106
159,9.9967,0.828688,-0.0421378
159.5,10.0427,0.834963,-0.0423716
160,10.0903,0.827692,-0.0429407
160.5,10.1383,0.83781,-0.0423699
161,10.1852,0.838974,-0.0412573
161.5,10.2321,0.836804,-0.0410498
162,10.2775,0.840347,-0.0410507
162.5,10.3227,0.846089,-0.0423612
163,10.374,0.840865,-0.0423455
163.5,10.4199,0.846614,-0.0436907
164,10.4674,0.847439,-0.0438836
164.5,10.513,0.852182,-0.04501
165,10.5595,0.846426,-0.04501
165.5,10.6097,0.856831,-0.0450094
166,10.6567,0.862902,-0.0440115
166.5,10.7037,0.862138,-0.044014
167,10.7514,0.864008,-0.0453461
167.5,10.7955,0.86179,-0.04534
168,10.8437,0.864364,-0.04534
168.5,10.8908,0.869809,-0.04534
169,10.938,0.881936,-0.0453401
169.5,10.9854,0.874662,-0.0453522
170,11.0336,0.88414,-0.047639
170.5,11.0804,0.888184,-0.0479701
171,11.1286,0.896764,-0.0479718
171.5,11.1755,0.894316,-0.0492991
172,11.2226,0.903677,-0.0494047
172.5,11.2705,0.903456,-0.0479692
173,11.3164,0.907854,-0.0479331
173.5,11.3645,0.905824,-0.0492908
174,11.4106,0.915632,-0.04929
174.5,11.4588,0.922315,-0.04929
175,11.5056,0.920462,-0.0478795
175.5,11.5526,0.917047,-0.0479688
176,11.5995,0.925726,-0.0472421
176.5,11.6467,0.933424,-0.0479698
177,11.694,0.933615,-0.0479717
177.5,11.7407,0.921791,-0.0490396
178,11.7863,0.928616,-0.0506767
178.5,11.8359,0.937217,-0.05061
179,11.8826,0.937241,-0.0506122
179.5,11.9289,0.937629,-0.0493091
180,11.9768,0.943106,-0.0492921
180.5,12.0247,0.942183,-0.0519113
181,12.0708,0.945627,-0.05192
181.5,12.1171,0.950969,-0.0519254
182,12.1651,0.948876,-0.0509468
182.5,12.2122,0.954468,-0.0523722
183,12.2601,0.947607,-0.05236
183.5,12.3068,0.951936,-0.05236
184,12.3535,0.949162,-0.05236
184.5,12.3999,0.957643,-0.05236
185,12.4464,0.958024,-0.0523583
185.5,12.4951,0.965602,-0.0537045
186,12.541,0.967686,-0.0546998
186.5,12.5881,0.972314,-0.0536809
187,12.6359,0.975971,-0.05368
187.5,12.6826,0.975991,-0.0536802
188,12.7291,0.974471,-0.053692
188.5,12.7743,0.980117,-0.053664
189,12.8238,0.990661,-0.0536799
189.5,12.8711,0.99363,-0.05368
190,12.9181,0.99138,-0.0536797
190.5,12.9653,0.997721,-0.0549599
191,13.0127,0.990911,-0.0550004
191.5,13.0589,0.988591,-0.055
192,13.1077,0.992315,-0.0550001
192.5,13.1538,0.999128,-0.0549346
193,13.2007,1.00681,-0.0559824
193.5,13.2487,1.00299,-0.05599
194,13.2949,0.995659,-0.0559901
194.5,13.3417,1.00282,-0.0558676
195,13.3891,1.00572,-0.0559799
195.5,13.4368,1.0116,-0.05598
196,13.4837,1.01129,-0.0559818
196.5,13.5303,1.01721,-0.0546572
197,13.5772,1.025,-0.0550529
197.5,13.6244,1.02877,-0.0559803
198,13.6705,1.02759,-0.057287
198.5,13.7192,1.0277,-0.0573
199,13.7652,1.0269,-0.0573011
199.5,13.8128,1.02679,-0.0582259
200,13.8608,1.03814,-0.0586202
200.5,13.9069,1.03945,-0.05862
201,13.9538,1.04168,-0.05862
201.5,13.9991,1.04296,-0.0586208
202,14.0489,1.04994,-0.0572991
202.5,14.0954,1.0554,-0.056194
203,14.1423,1.05602,-0.0559762
203.5,14.1899,1.05589,-0.0573054
204,14.2372,1.06278,-0.0572952
204.5,14.2841,1.06295,-0.0599362
205,14.33,1.0592,-0.059929
205.5,14.3777,1.06589,-0.0612423
206,14.4242,1.06431,-0.0625978
206.5,14.4723,1.06903,-0.0625701
207,14.5195,1.07578,-0.06257
207.5,14.5652,1.0718,-0.0612493
208,14.6128,1.07215,-0.06125
208.5,14.6597,1.07649,-0.06125
209,14.7075,1.07922,-0.0615089
209.5,14.7537,1.08207,-0.0615802
210,14.802,1.08577,-0.06158
210.5,14.8496,1.08221,-0.0615675
211,14.8962,1.09583,-0.0625736
211.5,14.9435,1.08525,-0.06257
212,14.99,1.09115,-0.06257
212.5,15.0366,1.09734,-0.0625685
213,15.0837,1.09459,-0.061478
213.5,15.1317,1.09044,-0.0625592
214,15.1782,1.10253,-0.0610357
214.5,15.2262,1.09374,-0.0617552
215,15.2717,1.09195,-0.0624811
215.5,15.3202,1.09483,-0.0652105
216,15.3674,1.0915,-0.06521
216.5,15.4139,1.09591,-0.06521
217,15.4601,1.09354,-0.0652138
217.5,15.5085,1.09795,-0.0658727
218,15.5557,1.10101,-0.0665377
218.5,15.6024,1.10851,-0.0684277
219,15.649,1.11226,-0.0691499
219.5,15.6964,1.1133,-0.06915
220,15.7434,1.1067,-0.0691667
220.5,15.7908,1.11468,-0.0714442
221,15.8373,1.11201,-0.0714599
221.5,15.8824,1.11808,-0.07146
222,15.9315,1.11928,-0.071477
222.5,15.9786,1.12101,-0.0701523
223,16.0261,1.12121,-0.0701501
223.5,16.0728,1.12778,-0.0701072
224,16.1203,1.12208,-0.0714617
224.5,16.1671,1.12676,-0.07146
225,16.2144,1.13183,-0.0714509
225.5,16.2619,1.13396,-0.0727819
226,16.3083,1.13363,-0.0714632
226.5,16.3561,1.13284,-0.0714639
227,16.4027,1.13417,-0.0708244
227.5,16.4506,1.13887,-0.069482
228,16.4976,1.14497,-0.0729918
228.5,16.5453,1.14563,-0.073
229,16.5918,1.14312,-0.073
229.5,16.6399,1.14697,-0.073
230,16.6847,1.15253,-0.0730142
230.5,16.7337,1.15,-0.0739865
231,16.7808,1.1512,-0.0743497
231.5,16.8274,1.15132,-0.0756411
232,16.874,1.15539,-0.0756422
232.5,16.9212,1.1581,-0.0768158
233,16.969,1.15521,-0.0782684
233.5,17.0168,1.1609,-0.0788701
234,17.064,1.16262,-0.0789303
234.5,17.1111,1.1727,-0.0789127
235,17.1575,1.17971,-0.0795924
235.5,17.2045,1.16984,-0.0796439
236,17.2521,1.16792,-0.0809079
236.5,17.3,1.16812,-0.0809073
237,17.3466,1.17335,-0.0822654
237.5,17.3942,1.17509,-0.0808852
238,17.4403,1.18012,-0.0809
238.5,17.4882,1.17465,-0.0809038
239,17.5355,1.1785,-0.0795513
239.5,17.5823,1.1829,-0.0807738
240,17.629,1.18121,-0.0822347
240.5,17.6769,1.18969,-0.0822198
241,17.7247,1.18126,-0.0815274
241.5,17.771,1.19449,-0.0809105
242,17.8192,1.18965,-0.0825591
242.5,17.8649,1.1915,-0.0835757
243,17.9127,1.20443,-0.0842988
243.5,17.9594,1.1973,-0.0858369
244,18.0081,1.20141,-0.0875953
244.5,18.0542,1.19915,-0.0888539
245,18.1019,1.19959,-0.0899089
245.5,18.15,1.2018,-0.089941
246,18.1956,1.21047,-0.0922671
246.5,18.244,1.20946,-0.0924477
247,18.2915,1.2135,-0.0938602
247.5,18.3376,1.21172,-0.0941258
248,18.3859,1.21225,-0.0941902
248.5,18.4326,1.21968,-0.0941664
249,18.4804,1.21926,-0.0955244
249.5,18.5259,1.21857,-0.0986276
250,18.575,1.22487,-0.0973239
250.5,18.6223,1.22717,-0.0960501
251,18.6688,1.2219,-0.0985348
251.5,18.7166,1.22486,-0.0988318
252,18.7641,1.23033,-0.0989099
252.5,18.8107,1.24009,-0.0989575
253,18.8576,1.23934,-0.100232
253.5,18.9049,1.23907,-0.101558
254,18.9524,1.23891,-0.102208
254.5,19.0002,1.23598,-0.10297
255,19.0475,1.24425,-0.105497
255.5,19.0932,1.24677,-0.106977
256,19.1419,1.24676,-0.108349
256.5,19.189,1.254,-0.109657
257,19.2364,1.25503,-0.109652
257.5,19.2839,1.25286,-0.110395
258,19.3312,1.25754,-0.111446
258.5,19.3787,1.25276,-0.111648
259,19.4256,1.2519,-0.113006
259.5,19.4739,1.25435,-0.113159
260,19.5203,1.2497,-0.117056
260.5,19.5676,1.2547,-0.118715
261,19.6154,1.25548,-0.121597
261.5,19.6622,1.25484,-0.121517
262,19.7096,1.25706,-0.122841
262.5,19.7574,1.25491,-0.122853
263,19.8048,1.25435,-0.12411
263.5,19.8516,1.25433,-0.127025
264,19.8992,1.24841,-0.128225
264.5,19.9463,1.24247,-0.128606
265,19.9942,1.23891,-0.129882
265.5,20.0411,1.24131,-0.131169
266,20.089,1.24117,-0.133774
266.5,20.1349,1.23661,-0.133866
267,20.1832,1.23836,-0.135146
267.5,20.2303,1.23904,-0.136453
268,20.278,1.23372,-0.137721
268.5,20.3261,1.22908,-0.138988
269,20.373,1.22311,-0.139309
269.5,20.4199,1.22089,-0.141862
270,20.4676,1.22341,-0.145171
270.5,20.5148,1.21219,-0.148242
271,20.5627,1.20838,-0.151208
271.5,20.6092,1.21109,-0.152608
272,20.657,1.20464,-0.15445
272.5,20.7047,1.19945,-0.156033
273,20.7522,1.19669,-0.15844
273.5,20.7989,1.19218,-0.159918
274,20.8469,1.19423,-0.162586
274.5,20.8937,1.18158,-0.163892
275,20.9411,1.1852,-0.165227
275.5,20.9883,1.1763,-0.166562
276,21.0356,1.1787,-0.167081
276.5,21.0823,1.17699,-0.170073
277,21.129,1.17437,-0.171782
277.5,21.1775,1.16962,-0.175699
278,21.2253,1.17198,-0.17922
278.5,21.2727,1.1623,-0.182056
279,21.3202,1.15638,-0.18344
279.5,21.3663,1.15716,-0.183445
280,21.4151,1.15612,-0.185698
280.5,21.4598,1.15027,-0.18787
281,21.51,1.15123,-0.191956
281.5,21.5574,1.14701,-0.192637
282,21.6044,1.14132,-0.195473
282.5,21.652,1.14162,-0.198813
283,21.6988,1.13986,-0.200415
283.5,21.7465,1.1378,-0.202944
284,21.7938,1.14219,-0.206096
284.5,21.8412,1.13198,-0.209434
285,21.8878,1.13074,-0.21081
285.5,21.9353,1.12425,-0.214009
286,21.9834,1.12298,-0.218066
286.5,22.0309,1.12513,-0.222605
287,22.0776,1.1111,-0.224533
287.5,22.1257,1.10841,-0.22715
288,22.1728,1.10666,-0.229321
288.5,22.2211,1.11176,-0.233532
289,22.2667,1.10117,-0.237541
289.5,22.3161,1.08968,-0.238143
290,22.3638,1.07588,-0.242517
290.5,22.4102,1.07778,-0.245664
291,22.4584,1.07288,-0.248319
291.5,22.5062,1.07055,-0.254726
292,22.5544,1.04998,-0.259496
292.5,22.6002,1.04352,-0.264093
293,22.6475,1.0257,-0.268842
293.5,22.6944,1.00181,-0.273735
294,22.741,0.970399,-0.278938
294.5,22.7897,0.94151,-0.282822
295,22.8344,0.923953,-0.287585
295.5,22.8839,0.88957,-0.291292
296,22.9314,0.869813,-0.295442
296.5,22.9782,0.844986,-0.299759
297,23.0262,0.837694,-0.304061
297.5,23.0733,0.817985,-0.309193
298,23.121,0.817378,-0.314864
298.5,23.1688,0.812047,-0.315191
299,23.2158,0.810119,-0.325162
299.5,23.2631,0.81333,-0.335868
300,23.311,0.826504,-0.343482
300.5,23.3591,0.833935,-0.346659
301,23.4066,0.854369,-0.349971
301.5,23.4541,0.863492,-0.353534
302,23.502,0.880486,-0.356657
302.5,23.5497,0.892537,-0.362648
303,23.5981,0.910595,-0.36747
303.5,23.6457,0.930641,-0.371539
304,23.6937,0.939312,-0.375982
304.5,23.7421,0.953366,-0.380069
305,23.7896,0.956913,-0.384217
305.5,23.8362,0.978647,-0.386691
306,23.8844,0.981294,-0.391715
306.5,23.9327,0.99229,-0.394263
307,23.9803,1.00308,-0.397612
307.5,24.0287,1.0157,-0.40017
308,24.0758,1.02491,-0.402828
308.5,24.1241,1.02753,-0.407037
309,24.1715,1.02795,-0.411272
309.5,24.2192,1.03149,-0.414189
310,24.2675,1.03472,-0.415671
310.5,24.3148,1.04241,-0.41862
311,24.3628,1.04867,-0.420296
311.5,24.4107,1.05074,-0.423414
312,24.4583,1.05594,-0.426506
312.5,24.5061,1.06031,-0.427944
313,24.5517,1.06153,-0.429572
313.5,24.6018,1.06889,-0.433848
314,24.6487,1.07102,-0.435428
314.5,24.6968,1.06466,-0.437611
315,24.7452,1.07036,-0.439592
315.5,24.7925,1.08598,-0.442417
316,24.8411,1.08554,-0.44507
316.5,24.8881,1.08071,-0.444363
317,24.9367,1.08326,-0.446007
317.5,24.9842,1.09478,-0.4489
318,25.0315,1.09812,-0.450438
318.5,25.0795,1.10245,-0.45044
319,25.1275,1.1094,-0.455902
319.5,25.1763,1.11216,-0.46086
320,25.2239,1.1138,-0.463217
320.5,25.2702,1.11495,-0.46448
321,25.3198,1.1233,-0.46448
321.5,25.3661,1.12367,-0.466626
322,25.4157,1.12467,-0.471383
322.5,25.4626,1.12647,-0.474706
323,25.5098,1.13225,-0.477219
323.5,25.5583,1.13228,-0.479892
324,25.6066,1.13002,-0.482423
324.5,25.6536,1.13785,-0.483928
325,25.7015,1.14339,-0.485159
325.5,25.7494,1.13989,-0.487321
326,25.7979,1.14749,-0.488147
326.5,25.8458,1.14546,-0.490837
327,25.8929,1.14891,-0.49305
327.5,25.9395,1.15509,-0.49687
328,25.9891,1.14911,-0.500467
328.5,26.0359,1.15494,-0.503278
329,26.0854,1.15847,-0.504964
329.5,26.1308,1.15584,-0.506915
330,26.1797,1.16049,-0.506998
330.5,26.2291,1.1575,-0.507965
331,26.2775,1.16349,-0.510483
331.5,26.3258,1.15648,-0.512354
332,26.3734,1.15742,-0.514014
332.5,26.4221,1.16375,-0.516724
333,26.4698,1.16104,-0.519078
333.5,26.5171,1.16581,-0.523175
334,26.5654,1.16321,-0.526536
334.5,26.6128,1.15196,-0.527847
335,26.6609,1.15592,-0.530335
335.5,26.7098,1.16211,-0.53222
336,26.7576,1.15749,-0.533459
336.5,26.8048,1.15941,-0.533551
337,26.8532,1.15921,-0.534789
337.5,26.9012,1.15827,-0.537518
338,26.9496,1.16998,-0.53925
338.5,26.9959,1.16707,-0.541094
339,27.0457,1.16921,-0.544659
339.5,27.0915,1.16677,-0.548247
340,27.1411,1.17265,-0.549664
340.5,27.1884,1.16644,-0.547916
341,27.2362,1.16356,-0.550645
341.5,27.2861,1.17408,-0.55609
342,27.3322,1.16516,-0.558866
342.5,27.379,1.16576,-0.560776
343,27.4309,1.17134,-0.562202
343.5,27.4789,1.17121,-0.565132
344,27.5268,1.1734,-0.566686
344.5,27.5736,1.16743,-0.565407
345,27.6214,1.16366,-0.567653
345.5,27.6705,1.17044,-0.573234
346,27.7181,1.15749,-0.575999
346.5,27.7657,1.16388,-0.578129
347,27.8139,1.16873,-0.580565
347.5,27.8626,1.16348,-0.58184
348,27.9109,1.16929,-0.581813
348.5,27.9584,1.15756,-0.583727
349,28.006,1.16547,-0.585729
349.5,28.0547,1.16558,-0.587308
350,28.1031,1.16268,-0.587368
350.5,28.1509,1.15956,-0.591691
351,28.1985,1.1663,-0.595977
351.5,28.2482,1.16374,-0.598206
352,28.2953,1.15808,-0.599251
352.5,28.3428,1.16328,-0.602052
353,28.3912,1.16254,-0.602503
353.5,28.4397,1.1646,-0.60557
354,28.4873,1.1665,-0.608671
354.5,28.5358,1.16573,-0.612349
355,28.5842,1.17039,-0.616852
355.5,28.6331,1.16157,-0.618333
356,28.6803,1.16992,-0.618464
356.5,28.7289,1.16435,-0.619244
357,28.777,1.1672,-0.618096
357.5,28.8253,1.1647,-0.619541
358,28.8733,1.16379,-0.622849
358.5,28.9213,1.16586,-0.624881
359,28.9693,1.16123,-0.628383
359.5,29.0176,1.16919,-0.630105
360,29.0657,1.16798,-0.632523
360.5,29.1146,1.16886,-0.633826
361,29.1616,1.17387,-0.636831
361.5,29.2111,1.16821,-0.638143
362,29.2589,1.17334,-0.63948
362.5,29.3068,1.17655,-0.641655
363,29.3554,1.17652,-0.644755
363.5,29.4036,1.17593,-0.647054
364,29.4516,1.17937,-0.649708
364.5,29.5006,1.17427,-0.652544
365,29.5486,1.17676,-0.655205
365.5,29.5974,1.17507,-0.658415
366,29.6447,1.18563,-0.66115
366.5,29.6928,1.18541,-0.662712
367,29.7416,1.17878,-0.665513
367.5,29.7893,1.17357,-0.667452
368,29.838,1.17754,-0.669389
368.5,29.8864,1.17899,-0.670874
369,29.9348,1.17981,-0.67419
369.5,29.9818,1.17896,-0.677547
370,30.0315,1.18342,-0.678791
370.5,30.0791,1.18256,-0.681719
371,30.128,1.18262,-0.683808
371.5,30.1773,1.19113,-0.687486
372,30.2252,1.18899,-0.689579
372.5,30.273,1.19112,-0.692888
373,30.3227,1.19301,-0.695019
373.5,30.3702,1.20186,-0.69756
374,30.419,1.20086,-0.699816
374.5,30.4672,1.20408,-0.702092
375,30.5152,1.20433,-0.705598
375.5,30.5638,1.20458,-0.707357
376,30.6126,1.20603,-0.711281
376.5,30.6604,1.20811,-0.714491
377,30.7098,1.21551,-0.717984
377.5,30.7576,1.21363,-0.721368
378,30.8063,1.21684,-0.725175
378.5,30.8541,1.21856,-0.726649
379,30.9026,1.22329,-0.729379
379.5,30.9506,1.22545,-0.731238
380,30.9993,1.22793,-0.731779
380.5,31.0478,1.23166,-0.740183
381,31.0961,1.22923,-0.743751
381.5,31.1449,1.23968,-0.744949
382,31.192,1.23959,-0.747316
382.5,31.2413,1.23247,-0.749325
383,31.2895,1.2402,-0.7531
383.5,31.3379,1.24418,-0.756605
384,31.3864,1.24725,-0.761274
384.5,31.4351,1.24842,-0.764215
385,31.4828,1.25304,-0.768631
385.5,31.5319,1.26093,-0.771732
386,31.5798,1.26401,-0.775408
386.5,31.6282,1.26501,-0.778716
387,31.677,1.26621,-0.781978
387.5,31.7252,1.27448,-0.783771
388,31.7741,1.27017,-0.788343
388.5,31.8223,1.27653,-0.791653
389,31.8717,1.28328,-0.794959
389.5,31.9199,1.28796,-0.796909
390,31.9674,1.29537,-0.800449
390.5,32.0162,1.29514,-0.805369
391,32.0644,1.2941,-0.80975
391.5,32.1133,1.3001,-0.814521
392,32.1612,1.30306,-0.816819
392.5,32.2094,1.3027,-0.821161
393,32.258,1.30843,-0.826611
393.5,32.3075,1.31779,-0.831229
394,32.356,1.32148,-0.835819
394.5,32.4041,1.32038,-0.839953
395,32.4525,1.33402,-0.844134
395.5,32.5016,1.32686,-0.848978
396,32.55,1.32854,-0.85295
396.5,32.5983,1.33672,-0.85576
397,32.6471,1.33677,-0.85874
397.5,32.6955,1.34299,-0.859155
398,32.7442,1.34217,-0.868283
398.5,32.793,1.345,-0.873915
399,32.8418,1.34975,-0.88013
399.5,32.8903,1.34365,-0.885788
400,32.939,1.35014,-0.891389
400.5,32.9868,1.35381,-0.894423
401,33.0366,1.35303,-0.899712
401.5,33.0849,1.35243,-0.904286
402,33.1329,1.35401,-0.90774
402.5,33.1821,1.35922,-0.912719
403,33.2285,1.35886,-0.917136
403.5,33.2785,1.36396,-0.920984
404,33.3274,1.35898,-0.927003
404.5,33.3764,1.36,-0.932534
405,33.425,1.36809,-0.93512
405.5,33.4735,1.3631,-0.940119
406,33.5223,1.35971,-0.946187
406.5,33.5719,1.36283,-0.952942
407,33.6193,1.35781,-0.95761
407.5,33.6677,1.35813,-0.963259
408,33.7169,1.36091,-0.971966
408.5,33.7653,1.35549,-0.975507
409,33.8138,1.35258,-0.978767
409.5,33.8624,1.3562,-0.982799
410,33.9106,1.34853,-0.987163
410.5,33.9596,1.34474,-0.992441
411,34.0088,1.34297,-0.99753
411.5,34.0562,1.3368,-1.00318
412,34.1055,1.34357,-1.00932
412.5,34.1542,1.33839,-1.01618
413,34.2036,1.33293,-1.02267
413.5,34.2513,1.33285,-1.02877
414,34.3001,1.32176,-1.03293
414.5,34.3485,1.31351,-1.03756
415,34.3978,1.31162,-1.04205
415.5,34.4464,1.30382,-1.04525
416,34.495,1.30224,-1.05069
416.5,34.5436,1.29439,-1.05652
417,34.5911,1.28637,-1.06167
417.5,34.6404,1.28608,-1.06759
418,34.6889,1.27435,-1.0712
418.5,34.7377,1.26577,-1.07817
419,34.786,1.25916,-1.08344
419.5,34.8349,1.25767,-1.0883
420,34.8836,1.24498,-1.09235
420.5,34.9315,1.24253,-1.09616
421,34.9807,1.23553,-1.10101
421.5,35.0284,1.23334,-1.1061
422,35.0764,1.23425,-1.11258
422.5,35.1264,1.22248,-1.1177
423,35.1753,1.21181,-1.12189
423.5,35.2243,1.1991,-1.12849
424,35.2724,1.19331,-1.13277
424.5,35.3217,1.18455,-1.13616
425,35.3699,1.17155,-1.14079
425.5,35.4184,1.16452,-1.14602
426,35.4677,1.16094,-1.15027
426.5,35.5158,1.14518,-1.15494
427,35.5643,1.13831,-1.15755
427.5,35.6131,1.13303,-1.16157
428,35.6622,1.13017,-1.16545
428.5,35.7113,1.12235,-1.16865
429,35.7585,1.10399,-1.1719
429.5,35.8087,1.09889,-1.17563
430,35.8575,1.09108,-1.17956
430.5,35.9066,1.0851,-1.18511
431,35.955,1.07964,-1.18984
431.5,36.0032,1.07637,-1.19427
432,36.0524,1.0661,-1.19619
432.5,36.1,1.05889,-1.19845
433,36.1497,1.05065,-1.20137
433.5,36.1984,1.03952,-1.20376
434,36.2443,1.04662,-1.20685
434.5,36.2952,1.02985,-1.21303
435,36.3443,1.01269,-1.21684
435.5,36.3912,1.01534,-1.22042
436,36.4402,1.00698,-1.22175
436.5,36.4906,1.00545,-1.22481
437,36.5397,0.990338,-1.22507
437.5,36.5882,0.986381,-1.22508
438,36.6377,0.983264,-1.22635
438.5,36.6857,0.967678,-1.22955
439,36.7342,0.962263,-1.23575
439.5,36.7832,0.95092,-1.24327
440,36.8325,0.948398,-1.24682
440.5,36.8811,0.943618,-1.24724
441,36.9301,0.93843,-1.24728
441.5,36.9784,0.925483,-1.25017
442,37.026,0.924419,-1.25261
442.5,37.0745,0.912076,-1.2548
443,37.1246,0.905736,-1.25736
443.5,37.174,0.898577,-1.25912
444,37.2227,0.892652,-1.26248
444.5,37.2716,0.882612,-1.2639
445,37.3183,0.879937,-1.26673
445.5,37.3688,0.881086,-1.2681
446,37.4183,0.873319,-1.26808
446.5,37.4644,0.869372,-1.2704
447,37.5147,0.866431,-1.27418
447.5,37.5644,0.858774,-1.27583
448,37.6124,0.859998,-1.27814
448.5,37.6616,0.853086,-1.27973
449,37.7109,0.846148,-1.28111
449.5,37.7594,0.834172,-1.28115
450,37.8082,0.833995,-1.28238
450.5,37.857,0.835824,-1.28371
451,37.9067,0.828062,-1.28438
451.5,37.9547,0.825678,-1.28563
452,38.0041,0.820406,-1.28698
452.5,38.0523,0.820838,-1.28833
453,38.1015,0.817592,-1.2896
453.5,38.1513,0.81617,-1.29093
454,38.2006,0.810916,-1.2923
454.5,38.2497,0.808742,-1.29435
455,38.2983,0.804029,-1.29837
455.5,38.3475,0.806906,-1.3014
456,38.3964,0.803781,-1.30225
456.5,38.4456,0.799889,-1.30355
457,38.4946,0.802877,-1.30288
457.5,38.543,0.797435,-1.30331
458,38.5914,0.795723,-1.30357
458.5,38.6398,0.787926,-1.30488
459,38.6899,0.787154,-1.30609
459.5,38.7397,0.785755,-1.3074
460,38.7885,0.785717,-1.30868
460.5,38.837,0.778164,-1.31001
461,38.8863,0.782028,-1.31001
461.5,38.9354,0.782126,-1.31005
462,38.9844,0.779196,-1.31187
462.5,39.0349,0.778491,-1.3138
463,39.0836,0.778696,-1.31548
463.5,39.1319,0.767798,-1.31679
464,39.182,0.771036,-1.31803
464.5,39.2316,0.771503,-1.31979
465,39.2806,0.762218,-1.32112
465.5,39.3271,0.763747,-1.32246
466,39.3773,0.759386,-1.32246
466.5,39.427,0.764906,-1.32376
467,39.4765,0.756418,-1.32376
467.5,39.5253,0.756416,-1.32511
468,39.5748,0.764965,-1.32504
468.5,39.6243,0.75707,-1.32639
469,39.6735,0.752341,-1.32639
469.5,39.7223,0.752933,-1.32737
470,39.7714,0.746668,-1.3287
470.5,39.8203,0.745425,-1.33
471,39.87,0.753881,-1.33133
471.5,39.9191,0.745118,-1.33155
472,39.9687,0.749328,-1.33282
472.5,40.017,0.745686,-1.33287
473,40.0664,0.747585,-1.33287
473.5,40.116,0.74319,-1.33288
474,40.1659,0.739973,-1.33479
474.5,40.2138,0.743082,-1.33776
475,40.2631,0.7473,-1.33779
475.5,40.312,0.743446,-1.33704
476,40.3618,0.743825,-1.33704
476.5,40.4096,0.741066,-1.33704
477,40.4597,0.74345,-1.3377
477.5,40.5092,0.737681,-1.33901
478,40.5584,0.740031,-1.33902
478.5,40.607,0.742802,-1.34038
479,40.656,0.732362,-1.34179
479.5,40.7054,0.731299,-1.34408
480,40.754,0.734874,-1.34475
480.5,40.8038,0.734827,-1.34429
481,40.8528,0.730503,-1.34431
481.5,40.9011,0.734285,-1.34396
482,40.9517,0.726707,-1.34397
482.5,41.0004,0.731906,-1.34537
483,41.0503,0.725135,-1.34538
483.5,41.0971,0.726575,-1.34677
484,41.1484,0.728968,-1.35018
484.5,41.1969,0.723502,-1.3501
485,41.2468,0.722181,-1.35142
485.5,41.2957,0.723881,-1.35274
486,41.3457,0.720991,-1.3532
486.5,41.3942,0.722064,-1.3534
487,41.4435,0.721841,-1.3534
487.5,41.4928,0.715825,-1.35112
488,41.5415,0.713441,-1.35263
488.5,41.592,0.721564,-1.35602
489,41.641,0.718288,-1.35746
489.5,41.6894,0.717977,-1.35746
490,41.7389,0.712929,-1.35746
490.5,41.7885,0.712792,-1.35859
491,41.838,0.717387,-1.3588
491.5,41.8875,0.720651,-1.35966
492,41.9368,0.71759,-1.35878
492.5,41.9857,0.714946,-1.3589
493,42.0343,0.715376,-1.36007
493.5,42.0832,0.713229,-1.35973
494,42.134,0.707439,-1.36049
494.5,42.1827,0.71158,-1.36271
495,42.232,0.71386,-1.36273
495.5,42.2809,0.710612,-1.36403
496,42.3303,0.710866,-1.36416
496.5,42.3803,0.709778,-1.36415
497,42.4292,0.704534,-1.36415
497.5,42.4784,0.709249,-1.36415
498,42.5277,0.711135,-1.36415
498.5,42.5756,0.707223,-1.36415
499,42.6263,0.716495,-1.36513
499.5,42.6759,0.710274,-1.36642
500,42.7248,0.703612,-1.36741
500.5,42.7747,0.696316,-1.36846
501,42.8228,0.69022,-1.36974
501.5,42.8732,0.68912,-1.37108
502,42.9226,0.693491,-1.37107
502.5,42.9721,0.697011,-1.3724
503,43.0216,0.692229,-1.37156
503.5,43.0715,0.691258,-1.37412
504,43.1197,0.689172,-1.36756
504.5,43.1688,0.697353,-1.36313
505,43.2188,0.689514,-1.37178
505.5,43.2683,0.686478,-1.3768
506,43.3175,0.684765,-1.378
506.5,43.3667,0.682829,-1.37934
507,43.4168,0.681445,-1.37655
507.5,43.4655,0.68028,-1.37513
508,43.515,0.679382,-1.37779
508.5,43.5646,0.685106,-1.37915
509,43.6138,0.687655,-1.3749
509.5,43.663,0.68645,-1.37219
510,43.713,0.682201,-1.37151
510.5,43.761,0.685851,-1.37152
511,43.8109,0.68333,-1.37275
511.5,43.8615,0.682264,-1.37553
512,43.9106,0.682653,-1.38019
512.5,43.9601,0.673089,-1.38255
513,44.0106,0.668071,-1.38337
513.5,44.0589,0.668933,-1.38217
514,44.1091,0.668081,-1.3801
514.5,44.1581,0.668518,-1.37941
515,44.2075,0.669004,-1.37941
515.5,44.2565,0.66647,-1.37941
516,44.3064,0.668003,-1.37941
516.5,44.3568,0.6669,-1.37941
517,44.4063,0.667239,-1.38037
517.5,44.456,0.665829,-1.38088
518,44.5051,0.662313,-1.38357
518.5,44.5546,0.660307,-1.38479
519,44.604,0.665113,-1.38471
519.5,44.6535,0.660846,-1.38611
520,44.7031,0.659085,-1.38611
520.5,44.7517,0.660263,-1.38711
521,44.8016,0.665758,-1.3871
521.5,44.8516,0.666311,-1.38702
522,44.9014,0.668489,-1.38579
522.5,44.9511,0.66913,-1.38709
523,45.0012,0.671149,-1.3884
523.5,45.051,0.667083,-1.38981
524,45.099,0.665868,-1.38844
524.5,45.1483,0.665121,-1.38842
525,45.1985,0.663038,-1.38713
525.5,45.2481,0.658076,-1.38622
526,45.2975,0.64281,-1.38611
526.5,45.3477,0.642271,-1.38769
527,45.3969,0.650636,-1.39015
527.5,45.4462,0.647109,-1.39154
528,45.4963,0.650103,-1.39284
528.5,45.5451,0.648137,-1.39292
529,45.5947,0.651687,-1.39149
529.5,45.6448,0.659031,-1.39151
530,45.6939,0.64749,-1.39149
530.5,45.7441,0.648288,-1.39282
531,45.7938,0.638188,-1.39278
531.5,45.8429,0.63258,-1.39314
532,45.8931,0.628163,-1.39314
532.5,45.9429,0.629071,-1.39313
533,45.9924,0.626445,-1.39179
533.5,46.0413,0.627234,-1.39281
534,46.0898,0.635094,-1.39218
534.5,46.1397,0.638544,-1.39168
535,46.1897,0.630014,-1.39308
535.5,46.2389,0.623717,-1.39539
536,46.2881,0.619085,-1.4013
536.5,46.3387,0.62756,-1.39889
537,46.3883,0.617167,-1.39619
537.5,46.4366,0.613977,-1.39522
538,46.4858,0.620724,-1.39662
538.5,46.5364,0.632239,-1.39654
539,46.5866,0.622274,-1.39517
539.5,46.6358,0.627246,-1.39511
540,46.6855,0.615,-1.39511
540.5,46.7352,0.621588,-1.39564
541,46.784,0.622267,-1.39643
541.5,46.8336,0.620298,-1.39898
542,46.8835,0.615067,-1.40175
542.5,46.9322,0.605349,-1.4017
543,46.9825,0.606892,-1.40165
543.5,47.0319,0.615182,-1.40302
544,47.0817,0.607297,-1.40163
544.5,47.1308,0.605569,-1.4017
545,47.1817,0.606844,-1.4017
545.5,47.2304,0.611563,-1.40174
546,47.2803,0.609287,-1.40381
546.5,47.3308,0.601273,-1.40511
547,47.3796,0.602201,-1.40624
547.5,47.4295,0.605952,-1.40576
548,47.4792,0.605877,-1.40576
548.5,47.5283,0.606503,-1.40567
549,47.5778,0.614255,-1.40707
549.5,47.6277,0.611278,-1.4084
550,47.6772,0.608275,-1.40971
550.5,47.7279,0.611939,-1.40897
551,47.7764,0.60387,-1.4084
551.5,47.8264,0.606895,-1.40972
552,47.8736,0.609829,-1.41099
552.5,47.9238,0.606924,-1.40975
553,47.9755,0.613871,-1.40971
553.5,48.0253,0.605648,-1.40971
554,48.0749,0.605256,-1.40971
554.5,48.1243,0.605222,-1.40972
555,48.1742,0.599486,-1.41102
555.5,48.224,0.602695,-1.41103
556,48.2735,0.604828,-1.41232
556.5,48.323,0.605087,-1.41371
557,48.3735,0.600341,-1.41366
557.5,48.4208,0.604552,-1.41499
558,48.4722,0.605199,-1.41625
558.5,48.5216,0.596387,-1.4183
559,48.572,0.601985,-1.41623
559.5,48.6212,0.613254,-1.41419
560,48.6711,0.60787,-1.41289
560.5,48.7211,0.605978,-1.41268
561,48.7702,0.603156,-1.41114
561.5,48.8208,0.596281,-1.41114
562,48.8699,0.607355,-1.41114
562.5,48.9201,0.60857,-1.4125
563,48.9699,0.617454,-1.41273
563.5,49.0197,0.608358,-1.41595
564,49.0688,0.605923,-1.4208
564.5,49.1183,0.608914,-1.41664
565,49.1693,0.611367,-1.4153
565.5,49.219,0.612675,-1.41466
566,49.2683,0.610923,-1.41621
566.5,49.3185,0.608,-1.41751
567,49.3683,0.605537,-1.41863
567.5,49.4176,0.610072,-1.41762
568,49.4681,0.615648,-1.41768
568.5,49.5179,0.613322,-1.41893
569,49.5675,0.60903,-1.41893
569.5,49.6174,0.61017,-1.42026
570,49.667,0.605346,-1.42025
570.5,49.7162,0.606478,-1.4203
571,49.7656,0.606143,-1.42255
571.5,49.8159,0.603608,-1.42516
572,49.8664,0.604926,-1.42239
572.5,49.9161,0.600848,-1.42242
573,49.9635,0.600918,-1.42157
573.5,50.0157,0.606492,-1.42102
574,50.0654,0.607435,-1.42164
574.5,50.1152,0.601391,-1.42242
575,50.1641,0.603367,-1.42258
575.5,50.2155,0.597975,-1.42256
576,50.2647,0.601424,-1.42256
576.5,50.3145,0.594636,-1.42341
577,50.3648,0.584403,-1.42496
577.5,50.4141,0.585674,-1.4252
578,50.4631,0.580909,-1.42641
578.5,50.5141,0.582772,-1.42652
579,50.5643,0.587165,-1.42781
579.5,50.6136,0.59032,-1.42783
580,50.6638,0.585177,-1.42783
580.5,50.7132,0.5813,-1.42783
581,50.7621,0.584296,-1.42768
581.5,50.8118,0.577213,-1.42936
582,50.8613,0.582206,-1.43091
582.5,50.9125,0.582883,-1.43024
583,50.9621,0.580665,-1.42788
583.5,51.0116,0.57911,-1.42794
584,51.0634,0.581001,-1.428
584.5,51.1126,0.584795,-1.42794
585,51.1615,0.575894,-1.42794
585.5,51.2132,0.580964,-1.42893
586,51.2631,0.588061,-1.42893
586.5,51.3132,0.570483,-1.42887
587,51.3632,0.571575,-1.42832
587.5,51.413,0.56947,-1.43052
588,51.4629,0.563115,-1.43336
588.5,51.5123,0.564525,-1.43452
589,51.5617,0.562455,-1.43275
589.5,51.6117,0.560881,-1.43156
590,51.6612,0.553874,-1.43156
590.5,51.7122,0.557047,-1.4302
591,51.7614,0.557793,-1.43165
591.5,51.8107,0.557599,-1.43316
592,51.8616,0.550576,-1.43409
592.5,51.9113,0.553764,-1.43402
593,51.961,0.549581,-1.4328
593.5,52.0105,0.543864,-1.43208
594,52.0611,0.538065,-1.43241
594.5,52.1102,0.539884,-1.43237
595,52.16,0.541055,-1.43376
595.5,52.2094,0.534104,-1.43407
596,52.2598,0.530068,-1.43408
596.5,52.3097,0.527159,-1.43419
597,52.3595,0.527121,-1.43541
597.5,52.4089,0.521155,-1.43408
598,52.4587,0.51658,-1.43407
598.5,52.509,0.517461,-1.43541
599,52.5598,0.518235,-1.43541
599.5,52.6085,0.524557,-1.43477
600,52.6588,0.518346,-1.43606
600.5,52.7088,0.512448,-1.43612
601,52.7584,0.513333,-1.43414
601.5,52.8082,0.508251,-1.4327
602,52.8585,0.512087,-1.4354
602.5,52.9074,0.51499,-1.43534
603,52.9579,0.505503,-1.43479
603.5,53.0074,0.5049,-1.43472
604,53.0578,0.503974,-1.43375
604.5,53.1076,0.506895,-1.43376
605,53.158,0.502305,-1.43372
605.5,53.2074,0.498093,-1.43442
606,53.2573,0.492269,-1.43581
606.5,53.3079,0.489082,-1.43693
607,53.3565,0.486486,-1.43704
607.5,53.4069,0.480139,-1.43848
608,53.4552,0.476201,-1.43977
608.5,53.5063,0.475355,-1.43978
609,53.557,0.474136,-1.43947
609.5,53.6072,0.482676,-1.43947
610,53.6567,0.478915,-1.43947
610.5,53.7066,0.468183,-1.43879
611,53.7571,0.465789,-1.43899
611.5,53.8069,0.456092,-1.44014
612,53.8564,0.465069,-1.43881
612.5,53.9064,0.465709,-1.43881
613,53.9563,0.472668,-1.43866
613.5,54.0072,0.463656,-1.44144
614,54.0561,0.45435,-1.44284
614.5,54.1066,0.447587,-1.44274
615,54.1559,0.450897,-1.44145
615.5,54.2059,0.463451,-1.44009
616,54.2566,0.456564,-1.44055
616.5,54.3063,0.452884,-1.44145
617,54.3561,0.458936,-1.44138
617.5,54.4066,0.44816,-1.44276
618,54.4563,0.447093,-1.44276
618.5,54.5053,0.442799,-1.44276
619,54.556,0.436702,-1.44276
619.5,54.6056,0.43859,-1.44276
620,54.656,0.435445,-1.44276
620.5,54.7053,0.430727,-1.44101
621,54.755,0.422433,-1.44013
621.5,54.8053,0.430846,-1.44013
622,54.8554,0.43168,-1.44013
622.5,54.9048,0.416917,-1.44013
623,54.9546,0.423093,-1.44013
623.5,55.005,0.418405,-1.44152
624,55.0552,0.411759,-1.44147
624.5,55.1039,0.4055,-1.44282
625,55.1535,0.4118,-1.4445
625.5,55.2055,0.409894,-1.44603
626,55.2557,0.406615,-1.44629
626.5,55.3047,0.414393,-1.44638
627,55.3531,0.404619,-1.44638
627.5,55.4057,0.406827,-1.44638
628,55.4551,0.405474,-1.44638
628.5,55.5051,0.408721,-1.44509
629,55.5549,0.398561,-1.44506
629.5,55.6048,0.390385,-1.4436
630,55.6546,0.390141,-1.44225
630.5,55.7049,0.383299,-1.44321
631,55.7552,0.384969,-1.44512
631.5,55.8053,0.384921,-1.44506
632,55.8546,0.386547,-1.44506
632.5,55.9046,0.387132,-1.44293
633,55.955,0.389091,-1.44243
633.5,56.0054,0.392284,-1.44233
634,56.0555,0.382601,-1.44245
634.5,56.1046,0.381428,-1.44111
635,56.1558,0.372311,-1.44111
635.5,56.2056,0.376526,-1.44245
636,56.2561,0.385427,-1.4439
636.5,56.3062,0.381692,-1.44655
637,56.3555,0.377614,-1.44772
637.5,56.4056,0.380827,-1.44671
638,56.4558,0.380632,-1.44668
638.5,56.5048,0.378973,-1.44671
639,56.5552,0.371357,-1.44633
639.5,56.6063,0.372807,-1.44539
640,56.6559,0.359849,-1.44539
640.5,56.7055,0.36112,-1.44677
641,56.7566,0.349355,-1.44694
641.5,56.8068,0.350486,-1.44835
642,56.856,0.349413,-1.44737
642.5,56.9056,0.336642,-1.44737
643,56.9556,0.339403,-1.44598
643.5,57.0062,0.338114,-1.44463
644,57.0562,0.331665,-1.44398
644.5,57.1062,0.329279,-1.44343
645,57.1554,0.326284,-1.44701
645.5,57.2059,0.323052,-1.44746
646,57.2556,0.324348,-1.44692
646.5,57.3057,0.318618,-1.44594
647,57.356,0.314665,-1.44594
647.5,57.406,0.308499,-1.44594
648,57.4556,0.304385,-1.44594
648.5,57.5045,0.306642,-1.44465
649,57.5563,0.300405,-1.44406
649.5,57.6061,0.29759,-1.44331
650,57.6558,0.294455,-1.44465
650.5,57.7065,0.286672,-1.44595
651,57.7568,0.283662,-1.44639
651.5,57.8056,0.276104,-1.44594
652,57.8562,0.277203,-1.4473
652.5,57.9063,0.27616,-1.44659
653,57.956,0.273065,-1.44737
653.5,58.006,0.261993,-1.44737
654,58.0563,0.265977,-1.44737
654.5,58.1065,0.257243,-1.44889
655,58.1567,0.252674,-1.44892
655.5,58.2066,0.247644,-1.45023
656,58.2566,0.241962,-1.45023
656.5,58.3061,0.238564,-1.44884
657,58.3563,0.24077,-1.44879
657.5,58.4067,0.244582,-1.44759
658,58.4557,0.233774,-1.44873
658.5,58.5059,0.229541,-1.44891
659,58.5564,0.219992,-1.44885
659.5,58.606,0.224681,-1.45023
660,58.6565,0.219444,-1.45023
660.5,58.705,0.212888,-1.44887
661,58.7562,0.212948,-1.44891
661.5,58.8038,0.204168,-1.44877
662,58.8536,0.19991,-1.44758
662.5,58.9054,0.196369,-1.44627
663,58.9554,0.19633,-1.44627
663.5,59.0065,0.186993,-1.44627
664,59.0553,0.190179,-1.44627
664.5,59.106,0.180509,-1.4463
665,59.1567,0.176673,-1.44759
665.5,59.2062,0.181207,-1.44759
666,59.2572,0.176737,-1.44641
666.5,59.3068,0.172733,-1.44759
667,59.3569,0.170796,-1.44759
667.5,59.407,0.165002,-1.44759
668,59.4563,0.158022,-1.44761
668.5,59.5076,0.149854,-1.45016
669,59.5572,0.149792,-1.45191
669.5,59.6068,0.137541,-1.45186
670,59.6565,0.131677,-1.45057
670.5,59.7074,0.13148,-1.45053
671,59.7573,0.12805,-1.44795
671.5,59.8062,0.122824,-1.44792
672,59.857,0.118621,-1.44792
672.5,59.9078,0.119248,-1.44874
673,59.9574,0.111823,-1.44924
673.5,60.0074,0.109736,-1.44924
674,60.0578,0.106545,-1.44918
674.5,60.1075,0.0970451,-1.45056
675,60.1573,0.0893979,-1.45152
675.5,60.2074,0.0946589,-1.45159
676,60.2574,0.0845017,-1.45088
676.5,60.3069,0.0733937,-1.45095
677,60.3577,0.0617191,-1.44807
677.5,60.4076,0.0561447,-1.44638
678,60.4579,0.0548574,-1.44621
678.5,60.507,0.0497572,-1.4476
679,60.5577,0.0412601,-1.4489
679.5,60.6079,0.0359513,-1.44891
680,60.6578,0.0360362,-1.45023
680.5,60.7078,0.037979,-1.45152
681,60.7576,0.020375,-1.45338
681.5,60.8086,0.0202105,-1.45594
682,60.8587,0.0132787,-1.45598
682.5,60.9095,0.011594,-1.45355
683,60.9582,0.00672457,-1.45176
683.5,61.0093,0.00147062,-1.45176
684,61.0599,0.000959665,-1.45044
684.5,61.1098,-0.0113585,-1.45044
685,61.1599,-0.00864532,-1.45179
685.5,61.2096,-0.0182182,-1.45307
686,61.2598,-0.0243159,-1.45176
686.5,61.3098,-0.0244894,-1.45175
687,61.3603,-0.0295112,-1.45309
687.5,61.4105,-0.0347349,-1.45225
688,61.4606,-0.0429763,-1.45209
688.5,61.5099,-0.0490072,-1.4521
689,61.5609,-0.0453036,-1.45341
689.5,61.6118,-0.0594099,-1.45319
690,61.6622,-0.0696642,-1.45337
690.5,61.7129,-0.0743558,-1.45308
691,61.7629,-0.0782776,-1.45308
691.5,61.8131,-0.0801885,-1.45308
692,61.8635,-0.085827,-1.45312
692.5,61.914,-0.0881558,-1.45176
693,61.9647,-0.0997322,-1.4513
693.5,62.0157,-0.102901,-1.45045
694,62.0654,-0.108053,-1.45039
694.5,62.1161,-0.111531,-1.45177
695,62.1668,-0.110428,-1.45312
695.5,62.2162,-0.121936,-1.45308
696,62.2661,-0.130116,-1.45312
696.5,62.3151,-0.135447,-1.45439
697,62.367,-0.135705,-1.45328
697.5,62.4167,-0.143052,-1.45309
698,62.4676,-0.147055,-1.45308
698.5,62.5182,-0.155473,-1.45306
699,62.5679,-0.152372,-1.45176
699.5,62.6192,-0.158552,-1.45308
700,62.6694,-0.170585,-1.45308
700.5,62.7187,-0.171583,-1.45308
701,62.7692,-0.167925,-1.45308
701.5,62.8193,-0.178154,-1.45277
702,62.87,-0.180229,-1.45176
702.5,62.9193,-0.185784,-1.45176
703,62.9706,-0.182743,-1.45313
703.5,63.0204,-0.190452,-1.45455
704,63.0706,-0.185749,-1.45318
704.5,63.1206,-0.194443,-1.45451
705,63.1711,-0.198958,-1.45451
705.5,63.2211,-0.18854,-1.45451
706,63.2723,-0.203115,-1.45313
706.5,63.3209,-0.206327,-1.45352
707,63.3716,-0.214931,-1.45318
707.5,63.422,-0.215378,-1.45461
708,63.4712,-0.215622,-1.45591
708.5,63.5232,-0.2279,-1.45602
709,63.5736,-0.229047,-1.45472
709.5,63.6234,-0.238391,-1.45209
710,63.6735,-0.239933,-1.45067
710.5,63.7242,-0.240939,-1.45198
711,63.7738,-0.244804,-1.4511
711.5,63.8241,-0.242616,-1.4509
712,63.8749,-0.251704,-1.45346
712.5,63.9248,-0.260117,-1.45479
713,63.9755,-0.257805,-1.45616
713.5,64.026,-0.261566,-1.45616
714,64.0769,-0.258878,-1.45616
714.5,64.1262,-0.266177,-1.45616
715,64.1767,-0.26739,-1.45506
715.5,64.226,-0.268736,-1.45485
716,64.2782,-0.270947,-1.45352
716.5,64.3284,-0.271917,-1.45352
717,64.3785,-0.279378,-1.45216
717.5,64.4292,-0.285336,-1.45403
718,64.4795,-0.287212,-1.4567
718.5,64.5295,-0.293465,-1.4567
719,64.5804,-0.300634,-1.4567
719.5,64.631,-0.298683,-1.45537
720,64.6805,-0.301164,-1.45439
720.5,64.7312,-0.307125,-1.45439
721,64.7811,-0.310644,-1.45439
721.5,64.8323,-0.31224,-1.45461
722,64.8825,-0.31443,-1.45572
722.5,64.9337,-0.315492,-1.45703
723,64.9833,-0.320316,-1.45732
723.5,65.0333,-0.326607,-1.45736
724,65.0841,-0.328886,-1.4542
724.5,65.1345,-0.325553,-1.45292
725,65.1842,-0.33257,-1.45165
725.5,65.2348,-0.330406,-1.45162
726,65.2848,-0.33435,-1.45034
726.5,65.3356,-0.336239,-1.45145
727,65.3858,-0.344697,-1.45226
727.5,65.4349,-0.345809,-1.4551
728,65.4859,-0.348716,-1.45539
728.5,65.5364,-0.351337,-1.45505
729,65.5864,-0.354171,-1.45613
729.5,65.6367,-0.355036,-1.45564
730,65.6868,-0.357237,-1.457
730.5,65.7366,-0.361084,-1.45577
731,65.7873,-0.36469,-1.4544
731.5,65.8376,-0.361673,-1.45308
732,65.8875,-0.366594,-1.45308
732.5,65.938,-0.37368,-1.45466
733,65.9887,-0.373266,-1.45572
733.5,66.0384,-0.378094,-1.45541
734,66.0888,-0.374761,-1.45538
734.5,66.1394,-0.377972,-1.4557
735,66.19,-0.383903,-1.45722
735.5,66.24,-0.388327,-1.45802
736,66.2912,-0.390103,-1.45802
736.5,66.3415,-0.386514,-1.45802
737,66.3922,-0.392378,-1.45695
737.5,66.4423,-0.38872,-1.4567
738,66.4925,-0.386527,-1.45544
738.5,66.5427,-0.387435,-1.45372
739,66.5931,-0.391983,-1.45265
739.5,66.6436,-0.40218,-1.45393
740,66.6946,-0.399978,-1.45526