File: 01_Data/PEVA/FTIR/IS/PEVA_0.18_IS_Trans_S_240819_R10.dpt
7496.91,0.95013
7491.12,0.93249
7485.33,0.93386
7479.55,0.92414
7473.76,0.93169
7467.98,0.92754
7462.19,0.94390
7456.4,0.93442
7450.62,0.92892
7444.83,0.93847
7439.04,0.94015
7433.26,0.93818
7427.47,0.93387
7421.69,0.93741
7415.9,0.94343
7410.11,0.93895
7404.33,0.92901
7398.54,0.92203
7392.76,0.93259
7386.97,0.93858
7381.18,0.93988
7375.4,0.91306
7369.61,0.91927
7363.83,0.92009
7358.04,0.92762
7352.25,0.91872
7346.47,0.92909
7340.68,0.92641
7334.89,0.91226
7329.11,0.91742
7323.32,0.92209
7317.54,0.91597
7311.75,0.93250
7305.96,0.91727
7300.18,0.92720
7294.39,0.94032
7288.61,0.92863
7282.82,0.91705
7277.03,0.94470
7271.25,0.93084
7265.46,0.92340
7259.67,0.93129
7253.89,0.91742
7248.1,0.91483
7242.32,0.92271
7236.53,0.92186
7230.74,0.92392
7224.96,0.92182
7219.17,0.92451
7213.39,0.91003
7207.6,0.92309
7201.81,0.91805
7196.03,0.91015
7190.24,0.91328
7184.45,0.91853
7178.67,0.90242
7172.88,0.91614
7167.1,0.90331
7161.31,0.91074
7155.52,0.91094
7149.74,0.91551
7143.95,0.91916
7138.17,0.91396
7132.38,0.92068
7126.59,0.91393
7120.81,0.91529
7115.02,0.91459
7109.23,0.92732
7103.45,0.91298
7097.66,0.92447
7091.88,0.91287
7086.09,0.92112
7080.3,0.91580
7074.52,0.92222
7068.73,0.91338
7062.95,0.91551
7057.16,0.90841
7051.37,0.92044
7045.59,0.92649
7039.8,0.91733
7034.02,0.92071
7028.23,0.91587
7022.44,0.90989
7016.66,0.92660
7010.87,0.92583
7005.08,0.91564
6999.3,0.91648
6993.51,0.92845
6987.73,0.92630
6981.94,0.92123
6976.15,0.92116
6970.37,0.91600
6964.58,0.91445
6958.8,0.91705
6953.01,0.91623
6947.22,0.91533
6941.44,0.91221
6935.65,0.91895
6929.86,0.91475
6924.08,0.91526
6918.29,0.91496
6912.51,0.91945
6906.72,0.91520
6900.93,0.91878
6895.15,0.92479
6889.36,0.92794
6883.58,0.92149
6877.79,0.92201
6872,0.92413
6866.22,0.91882
6860.43,0.92649
6854.64,0.92666
6848.86,0.92449
6843.07,0.93174
6837.29,0.92716
6831.5,0.92624
6825.71,0.92756
6819.93,0.92056
6814.14,0.93130
6808.36,0.92693
6802.57,0.92309
6796.78,0.92996
6791,0.92597
6785.21,0.93110
6779.43,0.93006
6773.64,0.93034
6767.85,0.93544
6762.07,0.93577
6756.28,0.92212
6750.49,0.93067
6744.71,0.93904
6738.92,0.92490
6733.14,0.93502
6727.35,0.93355
6721.56,0.93449
6715.78,0.92777
6709.99,0.93423
6704.21,0.93357
6698.42,0.93614
6692.63,0.93029
6686.85,0.93075
6681.06,0.93191
6675.27,0.93254
6669.49,0.92852
6663.7,0.93234
6657.92,0.92611
6652.13,0.94551
6646.34,0.93965
6640.56,0.93215
6634.77,0.93728
6628.99,0.93193
6623.2,0.92879
6617.41,0.93220
6611.63,0.93466
6605.84,0.94039
6600.05,0.92979
6594.27,0.93336
6588.48,0.94258
6582.7,0.92858
6576.91,0.92857
6571.12,0.93085
6565.34,0.93242
6559.55,0.94102
6553.77,0.93228
6547.98,0.92871
6542.19,0.92804
6536.41,0.93749
6530.62,0.92896
6524.84,0.93037
6519.05,0.93690
6513.26,0.93569
6507.48,0.92856
6501.69,0.93161
6495.9,0.93351
6490.12,0.93486
6484.33,0.92960
6478.55,0.92827
6472.76,0.92875
6466.97,0.93126
6461.19,0.93554
6455.4,0.93400
6449.62,0.93060
6443.83,0.93485
6438.04,0.93669
6432.26,0.93355
6426.47,0.93586
6420.68,0.93239
6414.9,0.92897
6409.11,0.93210
6403.33,0.94116
6397.54,0.93228
6391.75,0.93578
6385.97,0.93809
6380.18,0.93523
6374.4,0.93879
6368.61,0.92926
6362.82,0.93499
6357.04,0.93084
6351.25,0.93098
6345.46,0.92900
6339.68,0.93505
6333.89,0.93321
6328.11,0.93330
6322.32,0.93743
6316.53,0.93347
6310.75,0.93725
6304.96,0.93030
6299.18,0.93122
6293.39,0.92816
6287.6,0.93583
6281.82,0.93596
6276.03,0.93422
6270.24,0.93210
6264.46,0.93430
6258.67,0.93161
6252.89,0.93539
6247.1,0.93049
6241.31,0.93867
6235.53,0.93595
6229.74,0.93451
6223.96,0.93172
6218.17,0.93150
6212.38,0.93286
6206.6,0.92703
6200.81,0.93158
6195.03,0.92978
6189.24,0.93190
6183.45,0.93761
6177.67,0.93021
6171.88,0.93235
6166.09,0.93349
6160.31,0.93009
6154.52,0.93135
6148.74,0.92931
6142.95,0.92853
6137.16,0.92987
6131.38,0.92801
6125.59,0.93138
6119.81,0.93003
6114.02,0.92858
6108.23,0.92777
6102.45,0.92561
6096.66,0.92286
6090.87,0.92644
6085.09,0.92733
6079.3,0.92431
6073.52,0.92717
6067.73,0.92514
6061.94,0.92494
6056.16,0.92199
6050.37,0.92273
6044.59,0.92218
6038.8,0.91977
6033.01,0.92253
6027.23,0.91688
6021.44,0.91959
6015.65,0.91694
6009.87,0.91705
6004.08,0.92097
5998.3,0.91392
5992.51,0.92049
5986.72,0.92186
5980.94,0.91705
5975.15,0.91994
5969.37,0.91606
5963.58,0.91387
5957.79,0.91286
5952.01,0.91098
5946.22,0.91110
5940.44,0.90975
5934.65,0.90700
5928.86,0.90447
5923.08,0.90700
5917.29,0.90701
5911.5,0.90771
5905.72,0.90455
5899.93,0.90271
5894.15,0.89811
5888.36,0.89831
5882.57,0.88969
5876.79,0.88748
5871,0.87860
5865.22,0.87122
5859.43,0.86033
5853.64,0.85265
5847.86,0.84500
5842.07,0.83717
5836.28,0.82764
5830.5,0.81737
5824.71,0.81008
5818.93,0.80658
5813.14,0.79528
5807.35,0.78705
5801.57,0.77643
5795.78,0.76491
5790,0.74922
5784.21,0.73194
5778.42,0.71585
5772.64,0.71835
5766.85,0.74687
5761.06,0.77873
5755.28,0.80358
5749.49,0.82079
5743.71,0.83241
5737.92,0.84208
5732.13,0.84443
5726.35,0.85049
5720.56,0.85335
5714.78,0.85321
5708.99,0.84712
5703.2,0.84498
5697.42,0.84075
5691.63,0.83611
5685.84,0.82753
5680.06,0.82478
5674.27,0.81852
5668.49,0.81243
5662.7,0.80840
5656.91,0.82036
5651.13,0.83602
5645.34,0.84686
5639.56,0.85341
5633.77,0.85772
5627.98,0.86212
5622.2,0.86372
5616.41,0.86594
5610.63,0.86991
5604.84,0.87297
5599.05,0.87162
5593.27,0.87480
5587.48,0.87158
5581.69,0.87307
5575.91,0.87049
5570.12,0.87049
5564.34,0.86848
5558.55,0.87043
5552.76,0.86713
5546.98,0.87143
5541.19,0.86953
5535.41,0.86898
5529.62,0.87249
5523.83,0.87264
5518.05,0.87103
5512.26,0.86923
5506.47,0.86944
5500.69,0.86756
5494.9,0.86705
5489.12,0.86953
5483.33,0.87661
5477.54,0.87222
5471.76,0.87298
5465.97,0.87269
5460.19,0.87322
5454.4,0.87785
5448.61,0.87644
5442.83,0.87233
5437.04,0.87727
5431.25,0.87439
5425.47,0.87845
5419.68,0.88320
5413.9,0.87609
5408.11,0.88350
5402.32,0.88788
5396.54,0.88235
5390.75,0.88624
5384.97,0.88456
5379.18,0.88682
5373.39,0.88546
5367.61,0.89215
5361.82,0.89194
5356.04,0.89218
5350.25,0.88826
5344.46,0.88603
5338.68,0.88403
5332.89,0.89223
5327.1,0.89073
5321.32,0.89918
5315.53,0.89553
5309.75,0.89551
5303.96,0.89489
5298.17,0.89939
5292.39,0.89454
5286.6,0.89331
5280.82,0.89518
5275.03,0.89894
5269.24,0.89628
5263.46,0.89091
5257.67,0.89739
5251.88,0.89533
5246.1,0.88896
5240.31,0.89771
5234.53,0.89839
5228.74,0.89512
5222.95,0.89528
5217.17,0.89646
5211.38,0.89908
5205.6,0.89294
5199.81,0.89852
5194.02,0.89983
5188.24,0.89733
5182.45,0.89628
5176.66,0.89814
5170.88,0.89825
5165.09,0.89504
5159.31,0.89585
5153.52,0.89619
5147.73,0.89871
5141.95,0.89957
5136.16,0.90043
5130.38,0.90117
5124.59,0.90097
5118.8,0.90097
5113.02,0.90126
5107.23,0.90069
5101.45,0.89967
5095.66,0.90122
5089.87,0.90133
5084.09,0.90345
5078.3,0.90326
5072.51,0.90517
5066.73,0.90266
5060.94,0.90392
5055.16,0.90400
5049.37,0.90402
5043.58,0.90501
5037.8,0.90575
5032.01,0.90330
5026.23,0.90405
5020.44,0.90389
5014.65,0.90545
5008.87,0.90294
5003.08,0.90356
4997.29,0.90193
4991.51,0.90174
4985.72,0.89972
4979.94,0.90085
4974.15,0.90161
4968.36,0.89949
4962.58,0.89976
4956.79,0.89975
4951.01,0.90237
4945.22,0.90414
4939.43,0.90294
4933.65,0.90438
4927.86,0.90498
4922.07,0.90509
4916.29,0.90572
4910.5,0.90536
4904.72,0.90463
4898.93,0.90447
4893.14,0.90597
4887.36,0.90402
4881.57,0.90391
4875.79,0.90484
4870,0.90589
4864.21,0.90505
4858.43,0.90480
4852.64,0.90590
4846.85,0.90574
4841.07,0.90683
4835.28,0.90588
4829.5,0.90700
4823.71,0.90725
4817.92,0.90641
4812.14,0.90854
4806.35,0.90810
4800.57,0.90933
4794.78,0.90968
4788.99,0.90850
4783.21,0.90733
4777.42,0.90892
4771.64,0.90878
4765.85,0.90790
4760.06,0.90722
4754.28,0.90877
4748.49,0.90775
4742.7,0.91006
4736.92,0.90794
4731.13,0.90844
4725.35,0.90710
4719.56,0.90834
4713.77,0.90798
4707.99,0.90840
4702.2,0.90721
4696.42,0.90539
4690.63,0.90349
4684.84,0.90161
4679.06,0.89771
4673.27,0.89751
4667.48,0.89918
4661.7,0.90189
4655.91,0.90473
4650.13,0.90520
4644.34,0.90755
4638.55,0.90753
4632.77,0.90847
4626.98,0.90755
4621.2,0.90904
4615.41,0.90894
4609.62,0.90911
4603.84,0.90973
4598.05,0.90809
4592.26,0.90787
4586.48,0.90846
4580.69,0.90873
4574.91,0.90713
4569.12,0.90655
4563.33,0.90800
4557.55,0.90646
4551.76,0.90631
4545.98,0.90532
4540.19,0.90460
4534.4,0.90199
4528.62,0.89996
4522.83,0.89912
4517.05,0.89761
4511.26,0.89519
4505.47,0.89382
4499.69,0.89109
4493.9,0.88721
4488.11,0.88309
4482.33,0.88102
4476.54,0.87791
4470.76,0.87308
4464.97,0.86749
4459.18,0.86099
4453.4,0.85416
4447.61,0.84542
4441.83,0.83431
4436.04,0.82612
4430.25,0.81712
4424.47,0.81153
4418.68,0.80479
4412.89,0.79429
4407.11,0.78247
4401.32,0.76813
4395.54,0.75192
4389.75,0.73355
4383.96,0.71448
4378.18,0.69309
4372.39,0.66906
4366.61,0.64429
4360.82,0.61408
4355.03,0.57102
4349.25,0.51153
4343.46,0.44469
4337.67,0.39375
4331.89,0.34687
4326.1,0.27972
4320.32,0.28433
4314.53,0.44173
4308.74,0.54978
4302.96,0.59545
4297.17,0.60901
4291.39,0.60342
4285.6,0.59054
4279.81,0.57521
4274.03,0.55236
4268.24,0.51334
4262.46,0.45455
4256.67,0.38566
4250.88,0.36306
4245.1,0.45278
4239.31,0.51983
4233.52,0.53241
4227.74,0.51676
4221.95,0.49916
4216.17,0.49904
4210.38,0.50406
4204.59,0.49260
4198.81,0.46829
4193.02,0.45166
4187.24,0.45054
4181.45,0.45406
4175.66,0.45808
4169.88,0.46207
4164.09,0.46681
4158.3,0.47033
4152.52,0.47337
4146.73,0.47828
4140.95,0.48316
4135.16,0.48891
4129.37,0.49396
4123.59,0.49753
4117.8,0.49950
4112.02,0.50094
4106.23,0.50062
4100.44,0.50160
4094.66,0.50939
4088.87,0.53058
4083.08,0.55454
4077.3,0.57205
4071.51,0.58391
4065.73,0.59258
4059.94,0.60055
4054.15,0.60729
4048.37,0.61420
4042.58,0.62103
4036.8,0.62824
4031.01,0.63200
4025.22,0.63334
4019.44,0.64259
4013.65,0.66653
4007.86,0.68241
4002.08,0.68836
3996.29,0.68912
3990.51,0.68773
3984.72,0.68598
3978.93,0.68303
3973.15,0.68327
3967.36,0.69139
3961.58,0.69681
3955.79,0.70075
3950,0.69841
3944.22,0.69955
3938.43,0.70254
3932.65,0.69322
3926.86,0.68989
3921.07,0.68885
3915.29,0.68883
3909.5,0.69526
3903.71,0.68253
3897.93,0.69200
3892.14,0.69147
3886.36,0.69431
3880.57,0.69417
3874.78,0.69701
3869,0.69607
3863.21,0.70432
3857.43,0.71091
3851.64,0.70325
3845.85,0.72072
3840.07,0.70535
3834.28,0.71269
3828.49,0.72026
3822.71,0.71226
3816.92,0.71297
3811.14,0.73022
3805.35,0.72680
3799.56,0.73096
3793.78,0.75119
3787.99,0.75513
3782.21,0.75468
3776.42,0.76107
3770.63,0.75674
3764.85,0.76125
3759.06,0.75830
3753.27,0.74940
3747.49,0.74385
3741.7,0.75489
3735.92,0.74421
3730.13,0.76033
3724.34,0.75697
3718.56,0.76580
3712.77,0.75288
3706.99,0.75734
3701.2,0.75397
3695.41,0.74913
3689.63,0.72367
3683.84,0.74059
3678.06,0.72625
3672.27,0.71970
3666.48,0.72875
3660.7,0.72640
3654.91,0.70888
3649.12,0.67564
3643.34,0.69397
3637.55,0.70895
3631.77,0.71164
3625.98,0.71455
3620.19,0.70610
3614.41,0.68909
3608.62,0.66506
3602.84,0.66337
3597.05,0.70637
3591.26,0.75597
3585.48,0.77412
3579.69,0.79128
3573.9,0.79767
3568.12,0.78748
3562.33,0.79831
3556.55,0.80962
3550.76,0.80979
3544.97,0.80688
3539.19,0.81678
3533.4,0.81885
3527.62,0.81250
3521.83,0.81726
3516.04,0.82250
3510.26,0.81775
3504.47,0.81408
3498.68,0.81600
3492.9,0.81458
3487.11,0.80531
3481.33,0.79099
3475.54,0.76750
3469.75,0.72452
3463.97,0.67602
3458.18,0.65393
3452.4,0.66463
3446.61,0.69323
3440.82,0.73226
3435.04,0.76398
3429.25,0.78297
3423.47,0.79178
3417.68,0.79879
3411.89,0.80560
3406.11,0.80579
3400.32,0.80538
3394.53,0.80361
3388.75,0.80128
3382.96,0.79715
3377.18,0.79447
3371.39,0.79438
3365.6,0.79575
3359.82,0.79844
3354.03,0.80562
3348.25,0.80977
3342.46,0.81076
3336.67,0.81312
3330.89,0.81536
3325.1,0.81551
3319.31,0.81663
3313.53,0.81765
3307.74,0.81890
3301.96,0.81840
3296.17,0.81670
3290.38,0.81741
3284.6,0.81695
3278.81,0.81549
3273.03,0.81483
3267.24,0.81416
3261.45,0.81241
3255.67,0.81077
3249.88,0.81060
3244.09,0.80574
3238.31,0.80335
3232.52,0.80291
3226.74,0.79671
3220.95,0.79314
3215.16,0.78881
3209.38,0.78256
3203.59,0.77705
3197.81,0.77092
3192.02,0.76679
3186.23,0.75930
3180.45,0.75493
3174.66,0.75086
3168.87,0.74410
3163.09,0.73888
3157.3,0.73394
3151.52,0.72694
3145.73,0.72083
3139.94,0.71497
3134.16,0.70497
3128.37,0.69359
3122.59,0.67960
3116.8,0.66336
3111.01,0.64380
3105.23,0.61976
3099.44,0.58495
3093.66,0.54388
3087.87,0.50648
3082.08,0.48054
3076.3,0.46023
3070.51,0.44000
3064.72,0.41612
3058.94,0.39181
3053.15,0.36410
3047.37,0.33345
3041.58,0.30061
3035.79,0.26499
3030.01,0.23187
3024.22,0.20253
3018.44,0.17849
3012.65,0.15991
3006.86,0.14214
3001.08,0.11834
2995.29,0.09032
2989.5,0.06070
2983.72,0.03351
2977.93,0.01351
2972.15,0.00291
2966.36,0.00059
2960.57,0.00057
2954.79,0.00046
2949,0.00051
2943.22,0.00038
2937.43,0.00026
2931.64,0.00070
2925.86,0.00062
2920.07,0.00029
2914.28,0.00057
2908.5,0.00029
2902.71,0.00073
2896.93,0.00049
2891.14,0.00075
2885.35,0.00063
2879.57,0.00031
2873.78,0.00071
2868,0.00012
2862.21,0.00058
2856.42,0.00048
2850.64,0.00051
2844.85,0.00028
2839.07,0.00010
2833.28,0.00056
2827.49,0.00245
2821.71,0.00875
2815.92,0.01978
2810.13,0.03556
2804.35,0.05580
2798.56,0.08002
2792.78,0.10958
2786.99,0.14341
2781.2,0.17925
2775.42,0.21161
2769.63,0.23497
2763.85,0.25108
2758.06,0.26371
2752.27,0.27331
2746.49,0.27715
2740.7,0.27737
2734.91,0.28275
2729.13,0.29370
2723.34,0.30855
2717.56,0.32289
2711.77,0.33532
2705.98,0.34544
2700.2,0.34949
2694.41,0.34302
2688.63,0.32771
2682.84,0.31636
2677.05,0.30994
2671.27,0.30827
2665.48,0.31295
2659.69,0.32178
2653.91,0.33133
2648.12,0.33985
2642.34,0.34318
2636.55,0.34508
2630.76,0.35929
2624.98,0.38500
2619.19,0.40984
2613.41,0.43294
2607.62,0.45625
2601.83,0.47722
2596.05,0.49535
2590.26,0.51802
2584.47,0.54305
2578.69,0.56575
2572.9,0.58565
2567.12,0.60507
2561.33,0.61953
2555.54,0.62755
2549.76,0.63599
2543.97,0.65254
2538.19,0.66060
2532.4,0.65537
2526.61,0.65892
2520.83,0.67528
2515.04,0.68945
2509.26,0.69951
2503.47,0.70393
2497.68,0.70163
2491.9,0.69986
2486.11,0.69739
2480.32,0.69124
2474.54,0.68890
2468.75,0.70598
2462.97,0.72229
2457.18,0.73369
2451.39,0.74655
2445.61,0.75516
2439.82,0.75655
2434.04,0.75625
2428.25,0.75553
2422.46,0.74555
2416.68,0.73586
2410.89,0.73978
2405.1,0.74331
2399.32,0.74187
2393.53,0.74335
2387.75,0.74603
2381.96,0.73978
2376.17,0.72209
2370.39,0.70648
2364.6,0.68763
2358.82,0.66898
2353.03,0.66372
2347.24,0.65850
2341.46,0.63613
2335.67,0.63121
2329.88,0.63183
2324.1,0.63965
2318.31,0.65358
2312.53,0.66880
2306.74,0.68400
2300.95,0.69616
2295.17,0.70774
2289.38,0.72074
2283.6,0.72783
2277.81,0.72840
2272.02,0.73549
2266.24,0.74635
2260.45,0.74818
2254.67,0.74981
2248.88,0.75674
2243.09,0.76415
2237.31,0.77601
2231.52,0.79002
2225.73,0.79520
2219.95,0.79235
2214.16,0.79233
2208.38,0.79326
2202.59,0.78722
2196.8,0.77665
2191.02,0.76953
2185.23,0.76281
2179.45,0.75402
2173.66,0.74841
2167.87,0.74632
2162.09,0.74154
2156.3,0.73667
2150.51,0.73951
2144.73,0.75058
2138.94,0.76220
2133.16,0.77324
2127.37,0.78573
2121.58,0.79098
2115.8,0.79058
2110.01,0.79479
2104.23,0.79762
2098.44,0.79445
2092.65,0.79220
2086.87,0.79418
2081.08,0.79197
2075.29,0.78505
2069.51,0.78333
2063.72,0.77915
2057.94,0.76991
2052.15,0.75998
2046.36,0.75366
2040.58,0.74067
2034.79,0.72661
2029.01,0.71511
2023.22,0.69956
2017.43,0.69205
2011.65,0.72911
2005.86,0.76333
2000.08,0.77783
1994.29,0.78305
1988.5,0.79388
1982.72,0.80183
1976.93,0.79809
1971.14,0.79476
1965.36,0.79216
1959.57,0.78850
1953.79,0.78150
1948,0.78215
1942.21,0.77804
1936.43,0.77828
1930.64,0.77585
1924.86,0.77134
1919.07,0.75960
1913.28,0.75144
1907.5,0.73994
1901.71,0.72655
1895.92,0.70760
1890.14,0.71078
1884.35,0.72282
1878.57,0.71595
1872.78,0.70273
1866.99,0.68913
1861.21,0.69626
1855.42,0.69744
1849.64,0.69876
1843.85,0.68749
1838.06,0.68073
1832.28,0.66277
1826.49,0.63922
1820.7,0.61961
1814.92,0.59883
1809.13,0.57667
1803.35,0.55128
1797.56,0.51508
1791.77,0.47499
1785.99,0.43846
1780.2,0.38778
1774.42,0.33059
1768.63,0.23157
1762.84,0.12879
1757.06,0.05078
1751.27,0.00862
1745.48,0.00062
1739.7,0.00033
1733.91,0.00137
1728.13,0.00071
1722.34,0.01284
1716.55,0.07403
1710.77,0.15316
1704.98,0.19952
1699.2,0.20698
1693.41,0.26756
1687.62,0.34899
1681.84,0.44201
1676.05,0.48483
1670.27,0.50776
1664.48,0.52910
1658.69,0.52863
1652.91,0.49720
1647.12,0.47935
1641.33,0.55499
1635.55,0.59661
1629.76,0.63389
1623.98,0.63972
1618.19,0.64436
1612.4,0.65848
1606.62,0.66051
1600.83,0.65752
1595.05,0.65412
1589.26,0.65358
1583.47,0.64733
1577.69,0.62963
1571.9,0.62088
1566.11,0.60515
1560.33,0.58579
1554.54,0.58450
1548.76,0.58491
1542.97,0.55633
1537.18,0.55454
1531.4,0.54628
1525.61,0.52390
1519.83,0.50144
1514.04,0.49078
1508.25,0.45799
1502.47,0.43559
1496.68,0.39060
1490.89,0.34021
1485.11,0.24672
1479.32,0.11156
1473.54,0.00533
1467.75,0.00023
1461.96,0.00044
1456.18,0.00081
1450.39,0.00480
1444.61,0.00958
1438.82,0.01195
1433.03,0.02335
1427.25,0.06613
1421.46,0.13683
1415.68,0.21815
1409.89,0.26759
1404.1,0.28566
1398.32,0.26150
1392.53,0.18312
1386.74,0.07717
1380.96,0.01128
1375.17,0.00101
1369.39,0.00028
1363.6,0.00246
1357.81,0.01351
1352.03,0.03873
1346.24,0.11902
1340.46,0.22102
1334.67,0.30708
1328.88,0.32442
1323.1,0.29646
1317.31,0.24479
1311.52,0.19361
1305.74,0.15996
1299.95,0.14032
1294.17,0.12687
1288.38,0.10648
1282.59,0.07660
1276.81,0.04332
1271.02,0.01576
1265.24,0.00241
1259.45,0.00027
1253.66,0.00046
1247.88,0.00039
1242.09,0.00040
1236.3,0.00071
1230.52,0.00036
1224.73,0.00027
1218.95,0.00390
1213.16,0.01765
1207.37,0.04855
1201.59,0.09023
1195.8,0.13050
1190.02,0.16516
1184.23,0.19086
1178.44,0.20723
1172.66,0.22045
1166.87,0.22256
1161.09,0.20874
1155.3,0.17881
1149.51,0.14483
1143.73,0.13469
1137.94,0.13146
1132.15,0.12203
1126.37,0.12021
1120.58,0.13185
1114.8,0.14595
1109.01,0.15755
1103.22,0.16208
1097.44,0.15644
1091.65,0.14310
1085.87,0.12589
1080.08,0.10939
1074.29,0.09505
1068.51,0.08220
1062.72,0.07583
1056.93,0.06649
1051.15,0.04543
1045.36,0.02908
1039.58,0.02489
1033.79,0.01396
1028,0.00328
1022.22,0.00050
1016.43,0.00170
1010.65,0.02048
1004.86,0.08304
999.073,0.15747
993.287,0.20693
987.501,0.23250
981.715,0.23441
975.929,0.21476
970.142,0.18314
964.356,0.15218
958.57,0.14182
952.784,0.15249
946.998,0.17326
941.212,0.18021
935.426,0.18990
929.64,0.27747
923.853,0.38673
918.067,0.43780
912.281,0.45836
906.495,0.47490
900.709,0.48413
894.923,0.47980
889.137,0.48644
883.35,0.50058
877.564,0.50090
871.778,0.49612
865.992,0.50341
860.206,0.51946
854.42,0.52975
848.634,0.55391
842.847,0.57296
837.061,0.58258
831.275,0.60063
825.489,0.62163
819.703,0.61454
813.917,0.59745
808.131,0.58800
802.344,0.57039
796.558,0.56618
790.772,0.60054
784.986,0.62725
779.2,0.60580
773.414,0.58477
767.628,0.58249
761.842,0.56509
756.055,0.52882
750.269,0.49295
744.483,0.42664
738.697,0.30802
732.911,0.10203
727.125,0.01107
721.339,0.00289
715.552,0.04961
709.766,0.27225
703.98,0.47630
698.194,0.62329
692.408,0.70717
686.622,0.72712
680.836,0.76594
675.049,0.76877
669.263,0.72256
663.477,0.74964
657.691,0.73403
651.905,0.65330
646.119,0.57452
640.333,0.57762
634.546,0.57020
628.76,0.49102
622.974,0.54520
617.188,0.52061
611.402,0.27113
605.616,0.27118
599.83,0.52216