File: 01_Data/PEVA/FTIR/IS/PEVA_0.18_IS_Trans_T_240819_R1.dpt
7496.91,0.00800
7491.12,0.02733
7485.33,0.00648
7479.55,0.02188
7473.76,0.00994
7467.98,0.02970
7462.19,0.02478
7456.4,0.03768
7450.62,0.02289
7444.83,0.01778
7439.04,0.01105
7433.26,0.02970
7427.47,-0.00141
7421.69,0.03227
7415.9,0.01618
7410.11,0.01010
7404.33,0.02438
7398.54,0.01766
7392.76,0.02313
7386.97,0.04089
7381.18,0.01498
7375.4,0.02351
7369.61,0.02853
7363.83,0.01615
7358.04,0.02539
7352.25,0.02752
7346.47,0.00773
7340.68,0.02194
7334.89,0.00862
7329.11,0.02174
7323.32,0.02358
7317.54,0.00170
7311.75,0.00791
7305.96,0.03465
7300.18,0.00474
7294.39,0.02472
7288.61,0.01789
7282.82,0.01285
7277.03,0.02028
7271.25,0.00644
7265.46,0.01481
7259.67,0.02556
7253.89,0.00623
7248.1,0.00902
7242.32,0.01153
7236.53,0.02470
7230.74,0.01250
7224.96,0.02306
7219.17,0.01181
7213.39,0.01873
7207.6,0.03075
7201.81,0.01223
7196.03,0.00671
7190.24,0.01111
7184.45,0.02028
7178.67,0.02180
7172.88,0.00313
7167.1,0.02591
7161.31,0.03572
7155.52,0.01617
7149.74,0.01143
7143.95,0.02741
7138.17,0.00859
7132.38,0.01490
7126.59,0.01972
7120.81,0.01950
7115.02,0.02081
7109.23,0.02005
7103.45,0.02465
7097.66,-0.00640
7091.88,0.02354
7086.09,0.01574
7080.3,0.01473
7074.52,0.01312
7068.73,0.00871
7062.95,0.03572
7057.16,0.00791
7051.37,0.01452
7045.59,0.00962
7039.8,0.00294
7034.02,0.01669
7028.23,0.00778
7022.44,0.00877
7016.66,0.03350
7010.87,0.00734
7005.08,0.01769
6999.3,0.01465
6993.51,0.02780
6987.73,0.00619
6981.94,0.00812
6976.15,0.01373
6970.37,0.01983
6964.58,0.00346
6958.8,0.01093
6953.01,0.01119
6947.22,0.01053
6941.44,0.00533
6935.65,0.01877
6929.86,0.00562
6924.08,0.02384
6918.29,0.01609
6912.51,0.01283
6906.72,0.01586
6900.93,0.01958
6895.15,0.00932
6889.36,0.01563
6883.58,0.00470
6877.79,0.00965
6872,0.00878
6866.22,0.01550
6860.43,-0.00265
6854.64,0.01914
6848.86,0.00764
6843.07,0.01514
6837.29,0.00771
6831.5,0.01230
6825.71,0.00636
6819.93,0.02033
6814.14,0.00401
6808.36,0.00974
6802.57,0.01802
6796.78,0.01053
6791,0.01244
6785.21,0.01231
6779.43,0.02109
6773.64,0.00613
6767.85,0.01203
6762.07,0.00868
6756.28,0.01786
6750.49,0.00506
6744.71,0.00593
6738.92,0.01986
6733.14,0.00904
6727.35,0.01733
6721.56,0.01064
6715.78,0.01256
6709.99,0.02217
6704.21,0.01335
6698.42,0.00356
6692.63,0.00547
6686.85,0.01825
6681.06,0.00317
6675.27,0.00635
6669.49,0.01050
6663.7,0.01215
6657.92,0.00872
6652.13,0.00292
6646.34,0.00620
6640.56,0.00066
6634.77,0.01175
6628.99,0.01123
6623.2,-0.00047
6617.41,0.00458
6611.63,0.00951
6605.84,0.01285
6600.05,0.01142
6594.27,0.00797
6588.48,0.01444
6582.7,0.01116
6576.91,0.00976
6571.12,0.01468
6565.34,0.01033
6559.55,0.00056
6553.77,0.00988
6547.98,0.00999
6542.19,0.00679
6536.41,0.00044
6530.62,0.01500
6524.84,0.01472
6519.05,0.00513
6513.26,0.01437
6507.48,0.01015
6501.69,0.00947
6495.9,0.00765
6490.12,0.00053
6484.33,0.01322
6478.55,0.01198
6472.76,0.00598
6466.97,0.01205
6461.19,0.00909
6455.4,0.00481
6449.62,0.01229
6443.83,0.01418
6438.04,0.00688
6432.26,0.00936
6426.47,0.00911
6420.68,0.01328
6414.9,0.00933
6409.11,0.00465
6403.33,-0.00164
6397.54,0.01215
6391.75,0.00670
6385.97,0.01247
6380.18,0.01073
6374.4,0.00174
6368.61,0.00854
6362.82,0.00836
6357.04,0.00546
6351.25,0.00573
6345.46,0.01336
6339.68,0.00527
6333.89,0.00168
6328.11,0.00107
6322.32,0.00928
6316.53,0.01183
6310.75,0.00647
6304.96,0.00767
6299.18,0.00651
6293.39,0.01031
6287.6,-0.00039
6281.82,0.00893
6276.03,0.00710
6270.24,-0.00092
6264.46,0.00523
6258.67,0.01519
6252.89,0.00671
6247.1,0.00948
6241.31,0.00438
6235.53,0.00857
6229.74,0.00930
6223.96,0.01036
6218.17,0.00553
6212.38,0.01024
6206.6,0.01569
6200.81,0.00464
6195.03,0.00450
6189.24,0.00432
6183.45,0.00936
6177.67,0.00692
6171.88,0.00283
6166.09,0.01016
6160.31,0.00794
6154.52,0.00780
6148.74,0.00503
6142.95,0.00384
6137.16,0.00965
6131.38,0.00696
6125.59,0.00410
6119.81,0.00956
6114.02,0.00752
6108.23,0.00539
6102.45,0.00448
6096.66,0.00731
6090.87,0.00852
6085.09,0.00193
6079.3,0.01348
6073.52,0.00367
6067.73,0.01092
6061.94,0.00680
6056.16,0.00751
6050.37,0.00806
6044.59,0.00855
6038.8,0.00526
6033.01,0.00701
6027.23,0.00813
6021.44,0.00161
6015.65,0.00062
6009.87,0.00843
6004.08,0.00805
5998.3,0.00257
5992.51,0.00290
5986.72,0.00660
5980.94,0.00350
5975.15,0.00437
5969.37,0.00694
5963.58,0.00764
5957.79,0.00198
5952.01,0.00346
5946.22,0.00861
5940.44,0.00671
5934.65,0.00177
5928.86,0.00701
5923.08,0.00731
5917.29,0.00260
5911.5,0.00544
5905.72,0.00788
5899.93,0.00368
5894.15,0.00559
5888.36,0.00499
5882.57,0.00677
5876.79,0.00404
5871,0.00166
5865.22,0.00433
5859.43,0.00850
5853.64,0.00376
5847.86,0.00806
5842.07,0.00527
5836.28,0.00339
5830.5,0.00548
5824.71,0.00645
5818.93,0.00713
5813.14,0.00690
5807.35,0.00333
5801.57,0.00510
5795.78,0.00410
5790,0.00096
5784.21,0.00573
5778.42,0.00301
5772.64,0.00760
5766.85,0.00156
5761.06,0.00781
5755.28,0.00603
5749.49,0.00063
5743.71,0.00255
5737.92,0.00602
5732.13,0.00431
5726.35,0.00394
5720.56,0.00243
5714.78,0.00576
5708.99,0.00271
5703.2,0.00916
5697.42,0.00234
5691.63,0.00634
5685.84,0.00212
5680.06,0.00251
5674.27,0.00621
5668.49,0.00196
5662.7,0.00477
5656.91,0.00540
5651.13,0.00340
5645.34,0.00598
5639.56,0.00613
5633.77,0.00084
5627.98,0.00117
5622.2,0.00521
5616.41,0.00653
5610.63,0.00502
5604.84,0.00735
5599.05,0.00453
5593.27,0.00069
5587.48,0.00190
5581.69,0.00205
5575.91,0.00425
5570.12,0.00352
5564.34,0.00593
5558.55,0.00154
5552.76,0.00423
5546.98,0.00622
5541.19,0.00259
5535.41,0.00242
5529.62,0.00431
5523.83,0.00060
5518.05,0.00671
5512.26,0.00474
5506.47,0.00148
5500.69,0.00314
5494.9,0.00399
5489.12,0.00274
5483.33,0.00338
5477.54,0.00677
5471.76,0.00084
5465.97,0.00461
5460.19,0.00310
5454.4,0.00200
5448.61,0.00248
5442.83,0.00370
5437.04,0.00223
5431.25,0.00272
5425.47,0.00555
5419.68,0.00444
5413.9,0.00110
5408.11,0.00793
5402.32,0.00468
5396.54,0.00241
5390.75,0.00196
5384.97,0.00315
5379.18,0.00693
5373.39,0.00495
5367.61,-0.00064
5361.82,0.00309
5356.04,0.00147
5350.25,0.00060
5344.46,0.00026
5338.68,0.00729
5332.89,-0.00022
5327.1,0.00257
5321.32,0.00412
5315.53,0.00173
5309.75,0.00220
5303.96,0.00528
5298.17,0.00116
5292.39,0.00188
5286.6,-0.00050
5280.82,0.00471
5275.03,0.00252
5269.24,0.00286
5263.46,0.00328
5257.67,0.00060
5251.88,0.00145
5246.1,0.00287
5240.31,0.00525
5234.53,0.00074
5228.74,0.00274
5222.95,0.00252
5217.17,0.00321
5211.38,0.00190
5205.6,0.00296
5199.81,0.00185
5194.02,0.00364
5188.24,0.00520
5182.45,0.00312
5176.66,0.00330
5170.88,0.00254
5165.09,0.00335
5159.31,0.00206
5153.52,0.00333
5147.73,0.00455
5141.95,0.00252
5136.16,0.00170
5130.38,0.00142
5124.59,0.00293
5118.8,0.00184
5113.02,0.00192
5107.23,0.00334
5101.45,0.00268
5095.66,0.00279
5089.87,-0.00027
5084.09,0.00419
5078.3,0.00113
5072.51,0.00145
5066.73,0.00288
5060.94,0.00353
5055.16,0.00174
5049.37,0.00156
5043.58,0.00261
5037.8,0.00211
5032.01,0.00209
5026.23,0.00259
5020.44,0.00411
5014.65,0.00201
5008.87,0.00046
5003.08,0.00158
4997.29,0.00376
4991.51,0.00341
4985.72,0.00075
4979.94,0.00209
4974.15,0.00241
4968.36,0.00250
4962.58,0.00213
4956.79,0.00074
4951.01,0.00006
4945.22,0.00195
4939.43,0.00186
4933.65,0.00105
4927.86,0.00250
4922.07,0.00278
4916.29,0.00152
4910.5,0.00200
4904.72,0.00135
4898.93,0.00323
4893.14,0.00363
4887.36,0.00306
4881.57,0.00006
4875.79,0.00193
4870,0.00096
4864.21,0.00089
4858.43,0.00073
4852.64,0.00241
4846.85,0.00195
4841.07,0.00288
4835.28,0.00133
4829.5,0.00202
4823.71,0.00125
4817.92,0.00160
4812.14,0.00288
4806.35,0.00073
4800.57,0.00273
4794.78,0.00315
4788.99,0.00278
4783.21,0.00307
4777.42,0.00158
4771.64,0.00145
4765.85,0.00172
4760.06,0.00195
4754.28,0.00259
4748.49,0.00218
4742.7,0.00204
4736.92,0.00178
4731.13,0.00186
4725.35,0.00115
4719.56,0.00002
4713.77,0.00132
4707.99,0.00100
4702.2,0.00166
4696.42,0.00233
4690.63,0.00037
4684.84,0.00070
4679.06,0.00125
4673.27,0.00118
4667.48,0.00217
4661.7,0.00151
4655.91,0.00374
4650.13,0.00143
4644.34,0.00145
4638.55,0.00204
4632.77,0.00227
4626.98,0.00149
4621.2,0.00146
4615.41,0.00276
4609.62,0.00096
4603.84,-0.00053
4598.05,0.00242
4592.26,0.00086
4586.48,0.00108
4580.69,0.00107
4574.91,0.00233
4569.12,0.00130
4563.33,0.00167
4557.55,0.00174
4551.76,0.00120
4545.98,0.00039
4540.19,0.00169
4534.4,0.00296
4528.62,0.00256
4522.83,0.00077
4517.05,0.00176
4511.26,0.00138
4505.47,0.00144
4499.69,0.00268
4493.9,0.00160
4488.11,0.00150
4482.33,0.00331
4476.54,0.00122
4470.76,0.00302
4464.97,0.00101
4459.18,0.00151
4453.4,0.00243
4447.61,0.00285
4441.83,0.00157
4436.04,0.00120
4430.25,0.00199
4424.47,0.00192
4418.68,0.00105
4412.89,0.00238
4407.11,0.00178
4401.32,0.00220
4395.54,0.00024
4389.75,0.00108
4383.96,0.00190
4378.18,0.00262
4372.39,0.00206
4366.61,0.00133
4360.82,0.00105
4355.03,0.00149
4349.25,0.00047
4343.46,0.00139
4337.67,0.00265
4331.89,0.00053
4326.1,0.00214
4320.32,0.00137
4314.53,0.00042
4308.74,0.00168
4302.96,0.00054
4297.17,0.00218
4291.39,0.00058
4285.6,0.00109
4279.81,0.00157
4274.03,0.00221
4268.24,0.00184
4262.46,0.00223
4256.67,0.00150
4250.88,0.00200
4245.1,0.00241
4239.31,0.00176
4233.52,0.00194
4227.74,0.00222
4221.95,0.00102
4216.17,0.00249
4210.38,0.00249
4204.59,0.00189
4198.81,0.00117
4193.02,0.00207
4187.24,0.00098
4181.45,0.00158
4175.66,0.00101
4169.88,0.00212
4164.09,0.00058
4158.3,0.00125
4152.52,0.00043
4146.73,0.00144
4140.95,0.00021
4135.16,0.00272
4129.37,0.00232
4123.59,0.00042
4117.8,0.00141
4112.02,0.00233
4106.23,0.00153
4100.44,0.00155
4094.66,0.00057
4088.87,0.00106
4083.08,0.00144
4077.3,0.00131
4071.51,0.00199
4065.73,0.00085
4059.94,0.00076
4054.15,0.00117
4048.37,0.00102
4042.58,0.00157
4036.8,0.00175
4031.01,0.00020
4025.22,0.00153
4019.44,0.00161
4013.65,0.00017
4007.86,0.00150
4002.08,0.00182
3996.29,0.00164
3990.51,0.00081
3984.72,0.00115
3978.93,0.00065
3973.15,0.00116
3967.36,0.00133
3961.58,0.00063
3955.79,0.00223
3950,0.00149
3944.22,0.00184
3938.43,0.00042
3932.65,0.00217
3926.86,0.00126
3921.07,0.00149
3915.29,0.00067
3909.5,0.00084
3903.71,0.00246
3897.93,0.00100
3892.14,0.00146
3886.36,0.00184
3880.57,0.00220
3874.78,0.00112
3869,0.00143
3863.21,0.00013
3857.43,0.00169
3851.64,0.00315
3845.85,0.00082
3840.07,0.00303
3834.28,0.00117
3828.49,0.00074
3822.71,0.00112
3816.92,0.00157
3811.14,0.00089
3805.35,0.00138
3799.56,0.00211
3793.78,0.00014
3787.99,0.00092
3782.21,0.00109
3776.42,0.00048
3770.63,0.00246
3764.85,0.00195
3759.06,0.00020
3753.27,0.00172
3747.49,0.00120
3741.7,0.00210
3735.92,0.00249
3730.13,0.00176
3724.34,0.00166
3718.56,0.00123
3712.77,0.00172
3706.99,0.00152
3701.2,0.00113
3695.41,0.00162
3689.63,0.00231
3683.84,0.00074
3678.06,0.00207
3672.27,0.00287
3666.48,0.00099
3660.7,0.00176
3654.91,0.00110
3649.12,0.00215
3643.34,0.00094
3637.55,0.00103
3631.77,0.00180
3625.98,0.00109
3620.19,0.00058
3614.41,0.00078
3608.62,0.00060
3602.84,0.00266
3597.05,0.00037
3591.26,0.00065
3585.48,0.00063
3579.69,0.00233
3573.9,0.00082
3568.12,0.00057
3562.33,0.00070
3556.55,0.00156
3550.76,0.00112
3544.97,0.00082
3539.19,0.00093
3533.4,0.00115
3527.62,0.00137
3521.83,0.00270
3516.04,0.00096
3510.26,0.00175
3504.47,0.00190
3498.68,0.00089
3492.9,0.00100
3487.11,0.00129
3481.33,0.00153
3475.54,0.00165
3469.75,0.00156
3463.97,0.00126
3458.18,0.00090
3452.4,0.00182
3446.61,0.00193
3440.82,0.00205
3435.04,0.00120
3429.25,0.00179
3423.47,0.00118
3417.68,0.00248
3411.89,0.00121
3406.11,0.00156
3400.32,0.00073
3394.53,0.00101
3388.75,0.00286
3382.96,0.00215
3377.18,0.00306
3371.39,0.00205
3365.6,0.00067
3359.82,0.00130
3354.03,0.00114
3348.25,0.00266
3342.46,0.00095
3336.67,0.00142
3330.89,0.00162
3325.1,0.00040
3319.31,0.00173
3313.53,0.00092
3307.74,0.00066
3301.96,0.00163
3296.17,0.00026
3290.38,0.00072
3284.6,0.00129
3278.81,0.00073
3273.03,0.00102
3267.24,0.00097
3261.45,-0.00017
3255.67,0.00216
3249.88,0.00149
3244.09,0.00202
3238.31,0.00295
3232.52,0.00211
3226.74,0.00186
3220.95,0.00089
3215.16,0.00035
3209.38,0.00123
3203.59,0.00122
3197.81,0.00259
3192.02,0.00170
3186.23,0.00317
3180.45,0.00126
3174.66,0.00132
3168.87,0.00153
3163.09,0.00227
3157.3,0.00073
3151.52,0.00040
3145.73,0.00151
3139.94,0.00193
3134.16,0.00152
3128.37,0.00138
3122.59,0.00100
3116.8,0.00186
3111.01,0.00085
3105.23,0.00017
3099.44,0.00090
3093.66,0.00075
3087.87,0.00091
3082.08,0.00082
3076.3,0.00097
3070.51,0.00110
3064.72,0.00078
3058.94,0.00051
3053.15,0.00033
3047.37,0.00063
3041.58,0.00046
3035.79,0.00141
3030.01,0.00106
3024.22,0.00086
3018.44,0.00064
3012.65,0.00086
3006.86,0.00035
3001.08,0.00066
2995.29,0.00109
2989.5,0.00083
2983.72,0.00111
2977.93,0.00041
2972.15,0.00096
2966.36,0.00050
2960.57,0.00066
2954.79,0.00046
2949,0.00109
2943.22,0.00086
2937.43,0.00075
2931.64,0.00036
2925.86,0.00136
2920.07,0.00079
2914.28,0.00098
2908.5,0.00102
2902.71,0.00059
2896.93,0.00089
2891.14,0.00040
2885.35,0.00156
2879.57,0.00059
2873.78,0.00140
2868,0.00091
2862.21,0.00110
2856.42,0.00052
2850.64,0.00132
2844.85,0.00079
2839.07,0.00100
2833.28,0.00139
2827.49,0.00058
2821.71,0.00121
2815.92,-0.00018
2810.13,0.00092
2804.35,0.00081
2798.56,0.00107
2792.78,0.00040
2786.99,0.00021
2781.2,0.00050
2775.42,0.00050
2769.63,0.00095
2763.85,0.00164
2758.06,0.00076
2752.27,0.00056
2746.49,0.00025
2740.7,0.00078
2734.91,0.00048
2729.13,0.00116
2723.34,0.00066
2717.56,0.00088
2711.77,0.00052
2705.98,0.00033
2700.2,0.00043
2694.41,0.00039
2688.63,0.00090
2682.84,0.00048
2677.05,0.00074
2671.27,0.00011
2665.48,0.00041
2659.69,0.00061
2653.91,0.00065
2648.12,0.00101
2642.34,0.00063
2636.55,0.00040
2630.76,0.00079
2624.98,0.00075
2619.19,0.00030
2613.41,0.00071
2607.62,0.00052
2601.83,0.00081
2596.05,0.00051
2590.26,0.00036
2584.47,0.00036
2578.69,0.00096
2572.9,0.00101
2567.12,0.00049
2561.33,0.00070
2555.54,0.00017
2549.76,0.00072
2543.97,0.00019
2538.19,0.00040
2532.4,0.00066
2526.61,0.00125
2520.83,0.00088
2515.04,0.00037
2509.26,0.00077
2503.47,0.00104
2497.68,0.00017
2491.9,0.00018
2486.11,0.00077
2480.32,0.00037
2474.54,0.00041
2468.75,0.00083
2462.97,0.00062
2457.18,0.00064
2451.39,0.00080
2445.61,0.00080
2439.82,0.00085
2434.04,0.00045
2428.25,0.00064
2422.46,0.00062
2416.68,0.00074
2410.89,0.00041
2405.1,0.00012
2399.32,0.00040
2393.53,0.00047
2387.75,0.00013
2381.96,0.00079
2376.17,0.00024
2370.39,0.00099
2364.6,0.00098
2358.82,0.00108
2353.03,0.00097
2347.24,0.00084
2341.46,0.00080
2335.67,0.00130
2329.88,0.00112
2324.1,0.00056
2318.31,0.00080
2312.53,0.00091
2306.74,0.00083
2300.95,0.00031
2295.17,0.00134
2289.38,0.00060
2283.6,0.00055
2277.81,0.00057
2272.02,0.00110
2266.24,0.00076
2260.45,0.00020
2254.67,0.00020
2248.88,0.00023
2243.09,0.00028
2237.31,0.00017
2231.52,0.00044
2225.73,0.00038
2219.95,0.00035
2214.16,0.00070
2208.38,0.00018
2202.59,0.00066
2196.8,0.00050
2191.02,0.00063
2185.23,0.00050
2179.45,0.00118
2173.66,0.00051
2167.87,0.00043
2162.09,0.00043
2156.3,0.00083
2150.51,0.00023
2144.73,0.00065
2138.94,-0.00022
2133.16,0.00110
2127.37,0.00082
2121.58,0.00064
2115.8,0.00028
2110.01,0.00052
2104.23,0.00123
2098.44,-0.00006
2092.65,0.00049
2086.87,0.00066
2081.08,0.00033
2075.29,0.00050
2069.51,0.00002
2063.72,0.00121
2057.94,0.00026
2052.15,0.00043
2046.36,0.00078
2040.58,0.00075
2034.79,0.00046
2029.01,0.00078
2023.22,0.00097
2017.43,0.00040
2011.65,0.00028
2005.86,0.00036
2000.08,0.00088
1994.29,0.00048
1988.5,0.00051
1982.72,0.00096
1976.93,0.00026
1971.14,0.00072
1965.36,0.00042
1959.57,-0.00002
1953.79,0.00071
1948,0.00090
1942.21,0.00021
1936.43,0.00013
1930.64,0.00049
1924.86,0.00107
1919.07,0.00059
1913.28,0.00057
1907.5,0.00041
1901.71,0.00020
1895.92,0.00036
1890.14,0.00074
1884.35,0.00028
1878.57,0.00062
1872.78,0.00046
1866.99,0.00073
1861.21,0.00050
1855.42,0.00022
1849.64,0.00044
1843.85,0.00080
1838.06,0.00073
1832.28,0.00047
1826.49,0.00081
1820.7,0.00059
1814.92,0.00076
1809.13,0.00061
1803.35,0.00025
1797.56,0.00045
1791.77,0.00128
1785.99,0.00037
1780.2,0.00069
1774.42,0.00098
1768.63,0.00061
1762.84,0.00048
1757.06,0.00038
1751.27,0.00101
1745.48,-0.00035
1739.7,0.00122
1733.91,0.00061
1728.13,0.00035
1722.34,0.00059
1716.55,0.00182
1710.77,0.00053
1704.98,0.00069
1699.2,0.00031
1693.41,0.00097
1687.62,0.00115
1681.84,0.00067
1676.05,0.00077
1670.27,0.00033
1664.48,0.00021
1658.69,0.00115
1652.91,0.00285
1647.12,0.00091
1641.33,0.00037
1635.55,0.00148
1629.76,0.00018
1623.98,0.00121
1618.19,0.00089
1612.4,0.00034
1606.62,0.00031
1600.83,0.00067
1595.05,0.00060
1589.26,0.00032
1583.47,0.00084
1577.69,0.00063
1571.9,0.00146
1566.11,0.00017
1560.33,0.00089
1554.54,0.00100
1548.76,0.00043
1542.97,0.00026
1537.18,0.00057
1531.4,0.00126
1525.61,0.00090
1519.83,0.00160
1514.04,0.00036
1508.25,0.00101
1502.47,0.00071
1496.68,0.00014
1490.89,0.00051
1485.11,0.00062
1479.32,0.00048
1473.54,0.00059
1467.75,0.00062
1461.96,0.00019
1456.18,0.00126
1450.39,0.00029
1444.61,0.00078
1438.82,0.00106
1433.03,0.00064
1427.25,0.00030
1421.46,0.00031
1415.68,0.00158
1409.89,0.00061
1404.1,0.00062
1398.32,0.00028
1392.53,0.00094
1386.74,0.00034
1380.96,0.00046
1375.17,0.00041
1369.39,0.00052
1363.6,0.00076
1357.81,0.00073
1352.03,0.00022
1346.24,0.00065
1340.46,-0.00013
1334.67,0.00054
1328.88,0.00059
1323.1,0.00142
1317.31,0.00068
1311.52,0.00085
1305.74,0.00047
1299.95,0.00038
1294.17,0.00033
1288.38,0.00058
1282.59,0.00007
1276.81,0.00105
1271.02,0.00040
1265.24,0.00030
1259.45,0.00081
1253.66,0.00076
1247.88,0.00042
1242.09,0.00111
1236.3,0.00033
1230.52,0.00065
1224.73,0.00034
1218.95,0.00013
1213.16,0.00090
1207.37,0.00059
1201.59,0.00045
1195.8,0.00024
1190.02,0.00054
1184.23,0.00096
1178.44,0.00046
1172.66,0.00074
1166.87,0.00054
1161.09,0.00052
1155.3,0.00083
1149.51,0.00072
1143.73,0.00074
1137.94,0.00115
1132.15,0.00024
1126.37,0.00203
1120.58,0.00018
1114.8,0.00031
1109.01,0.00021
1103.22,0.00121
1097.44,0.00175
1091.65,0.00160
1085.87,0.00119
1080.08,-0.00008
1074.29,0.00080
1068.51,0.00200
1062.72,0.00091
1056.93,0.00149
1051.15,0.00153
1045.36,0.00120
1039.58,0.00148
1033.79,0.00113
1028,0.00130
1022.22,0.00139
1016.43,0.00127
1010.65,0.00073
1004.86,0.00104
999.073,0.00086
993.287,0.00078
987.501,0.00086
981.715,0.00103
975.929,0.00124
970.142,0.00159
964.356,0.00129
958.57,0.00143
952.784,0.00085
946.998,0.00076
941.212,0.00049
935.426,0.00089
929.64,0.00052
923.853,0.00130
918.067,0.00122
912.281,0.00022
906.495,0.00110
900.709,0.00121
894.923,0.00008
889.137,0.00171
883.35,0.00124
877.564,0.00130
871.778,0.00064
865.992,0.00107
860.206,0.00158
854.42,0.00018
848.634,0.00133
842.847,0.00118
837.061,0.00075
831.275,0.00085
825.489,0.00104
819.703,0.00043
813.917,0.00193
808.131,0.00185
802.344,0.00129
796.558,0.00049
790.772,0.00117
784.986,0.00204
779.2,0.00122
773.414,0.00138
767.628,0.00254
761.842,0.00135
756.055,0.00192
750.269,0.00198
744.483,0.00112
738.697,0.00102
732.911,0.00086
727.125,0.00160
721.339,0.00112
715.552,0.00140
709.766,0.00138
703.98,0.00012
698.194,0.00167
692.408,0.00109
686.622,0.00154
680.836,0.00171
675.049,0.00072
669.263,0.00096
663.477,0.00182
657.691,0.00162
651.905,0.00064
646.119,0.00387
640.333,0.00168
634.546,0.00204
628.76,0.00181
622.974,0.00333
617.188,0.00255
611.402,0.00236
605.616,0.00602
599.83,0.00146