File: 01_Data/PEVA/FTIR/IS/PEVA_0.26_IS_Trans_S_240819_R5.dpt
7496.91,0.92674
7491.12,0.91535
7485.33,0.93694
7479.55,0.93016
7473.76,0.95141
7467.98,0.93818
7462.19,0.91871
7456.4,0.91653
7450.62,0.91740
7444.83,0.92926
7439.04,0.91417
7433.26,0.92049
7427.47,0.91895
7421.69,0.94147
7415.9,0.91331
7410.11,0.92463
7404.33,0.91204
7398.54,0.92457
7392.76,0.91053
7386.97,0.92291
7381.18,0.90643
7375.4,0.91412
7369.61,0.92219
7363.83,0.91974
7358.04,0.91460
7352.25,0.90795
7346.47,0.88698
7340.68,0.88806
7334.89,0.90154
7329.11,0.90001
7323.32,0.91375
7317.54,0.90688
7311.75,0.90586
7305.96,0.89532
7300.18,0.90606
7294.39,0.91104
7288.61,0.90540
7282.82,0.90844
7277.03,0.90568
7271.25,0.91340
7265.46,0.90839
7259.67,0.90934
7253.89,0.89913
7248.1,0.89752
7242.32,0.89474
7236.53,0.89368
7230.74,0.88348
7224.96,0.89235
7219.17,0.89533
7213.39,0.89789
7207.6,0.89336
7201.81,0.89108
7196.03,0.89952
7190.24,0.90706
7184.45,0.89644
7178.67,0.90571
7172.88,0.91505
7167.1,0.90716
7161.31,0.88894
7155.52,0.90900
7149.74,0.90259
7143.95,0.90082
7138.17,0.90745
7132.38,0.90038
7126.59,0.89847
7120.81,0.89290
7115.02,0.89779
7109.23,0.90354
7103.45,0.89646
7097.66,0.90606
7091.88,0.90315
7086.09,0.90797
7080.3,0.91557
7074.52,0.90262
7068.73,0.89973
7062.95,0.89975
7057.16,0.90777
7051.37,0.90454
7045.59,0.90255
7039.8,0.91170
7034.02,0.90320
7028.23,0.89822
7022.44,0.90215
7016.66,0.90560
7010.87,0.91468
7005.08,0.90527
6999.3,0.90173
6993.51,0.90657
6987.73,0.90801
6981.94,0.90236
6976.15,0.91763
6970.37,0.91326
6964.58,0.90722
6958.8,0.90715
6953.01,0.91369
6947.22,0.91084
6941.44,0.90883
6935.65,0.91143
6929.86,0.92229
6924.08,0.91254
6918.29,0.90209
6912.51,0.90353
6906.72,0.91100
6900.93,0.90244
6895.15,0.90803
6889.36,0.91371
6883.58,0.91758
6877.79,0.90650
6872,0.90051
6866.22,0.91470
6860.43,0.91784
6854.64,0.91008
6848.86,0.91275
6843.07,0.91059
6837.29,0.91769
6831.5,0.91063
6825.71,0.91701
6819.93,0.92036
6814.14,0.92151
6808.36,0.91479
6802.57,0.91526
6796.78,0.90854
6791,0.92294
6785.21,0.91228
6779.43,0.91909
6773.64,0.92308
6767.85,0.91913
6762.07,0.93230
6756.28,0.92433
6750.49,0.91547
6744.71,0.91855
6738.92,0.90933
6733.14,0.91931
6727.35,0.92065
6721.56,0.92752
6715.78,0.92091
6709.99,0.91448
6704.21,0.91786
6698.42,0.91714
6692.63,0.92798
6686.85,0.92364
6681.06,0.91887
6675.27,0.92213
6669.49,0.91293
6663.7,0.91714
6657.92,0.91932
6652.13,0.92165
6646.34,0.92441
6640.56,0.92897
6634.77,0.92519
6628.99,0.91242
6623.2,0.92080
6617.41,0.91922
6611.63,0.92211
6605.84,0.92092
6600.05,0.91530
6594.27,0.92168
6588.48,0.92202
6582.7,0.92403
6576.91,0.91535
6571.12,0.91999
6565.34,0.92534
6559.55,0.92298
6553.77,0.91924
6547.98,0.92051
6542.19,0.92801
6536.41,0.92232
6530.62,0.92614
6524.84,0.92539
6519.05,0.93070
6513.26,0.92581
6507.48,0.91970
6501.69,0.92805
6495.9,0.92972
6490.12,0.92374
6484.33,0.92496
6478.55,0.91649
6472.76,0.91753
6466.97,0.92241
6461.19,0.91905
6455.4,0.92140
6449.62,0.91859
6443.83,0.91857
6438.04,0.92322
6432.26,0.92418
6426.47,0.92653
6420.68,0.91997
6414.9,0.92754
6409.11,0.92723
6403.33,0.92199
6397.54,0.92624
6391.75,0.92629
6385.97,0.92609
6380.18,0.92701
6374.4,0.93566
6368.61,0.92733
6362.82,0.92475
6357.04,0.92900
6351.25,0.92613
6345.46,0.92766
6339.68,0.92877
6333.89,0.91868
6328.11,0.92300
6322.32,0.92276
6316.53,0.92161
6310.75,0.92672
6304.96,0.92573
6299.18,0.92664
6293.39,0.92408
6287.6,0.92575
6281.82,0.92581
6276.03,0.92749
6270.24,0.92004
6264.46,0.91846
6258.67,0.92385
6252.89,0.92297
6247.1,0.92376
6241.31,0.91929
6235.53,0.92320
6229.74,0.92002
6223.96,0.92134
6218.17,0.92396
6212.38,0.92434
6206.6,0.92318
6200.81,0.91701
6195.03,0.92193
6189.24,0.92397
6183.45,0.92170
6177.67,0.91859
6171.88,0.91998
6166.09,0.91938
6160.31,0.91960
6154.52,0.92149
6148.74,0.92119
6142.95,0.91749
6137.16,0.91977
6131.38,0.92140
6125.59,0.92004
6119.81,0.91984
6114.02,0.92299
6108.23,0.91354
6102.45,0.91278
6096.66,0.91530
6090.87,0.91010
6085.09,0.90915
6079.3,0.90900
6073.52,0.90412
6067.73,0.90431
6061.94,0.89752
6056.16,0.89154
6050.37,0.88925
6044.59,0.88785
6038.8,0.88340
6033.01,0.87983
6027.23,0.88025
6021.44,0.87575
6015.65,0.87125
6009.87,0.87732
6004.08,0.87543
5998.3,0.87950
5992.51,0.88970
5986.72,0.88701
5980.94,0.89388
5975.15,0.89393
5969.37,0.89599
5963.58,0.89210
5957.79,0.89207
5952.01,0.89028
5946.22,0.88808
5940.44,0.88282
5934.65,0.87697
5928.86,0.87080
5923.08,0.86363
5917.29,0.85616
5911.5,0.85355
5905.72,0.84851
5899.93,0.84013
5894.15,0.83052
5888.36,0.82325
5882.57,0.81296
5876.79,0.80593
5871,0.79802
5865.22,0.78573
5859.43,0.78039
5853.64,0.76605
5847.86,0.75431
5842.07,0.74344
5836.28,0.73065
5830.5,0.72025
5824.71,0.71975
5818.93,0.72293
5813.14,0.73572
5807.35,0.74933
5801.57,0.76089
5795.78,0.77382
5790,0.78538
5784.21,0.79761
5778.42,0.80620
5772.64,0.80932
5766.85,0.81458
5761.06,0.81380
5755.28,0.81544
5749.49,0.81040
5743.71,0.81078
5737.92,0.80879
5732.13,0.80793
5726.35,0.80951
5720.56,0.81057
5714.78,0.80931
5708.99,0.81234
5703.2,0.80918
5697.42,0.81072
5691.63,0.81435
5685.84,0.81815
5680.06,0.82401
5674.27,0.82549
5668.49,0.83341
5662.7,0.83404
5656.91,0.83586
5651.13,0.83711
5645.34,0.84010
5639.56,0.84561
5633.77,0.84521
5627.98,0.85025
5622.2,0.85150
5616.41,0.85249
5610.63,0.85419
5604.84,0.85582
5599.05,0.85657
5593.27,0.85830
5587.48,0.86000
5581.69,0.86432
5575.91,0.86538
5570.12,0.86230
5564.34,0.86751
5558.55,0.86859
5552.76,0.86655
5546.98,0.86639
5541.19,0.87057
5535.41,0.86609
5529.62,0.86868
5523.83,0.86927
5518.05,0.86758
5512.26,0.86998
5506.47,0.86657
5500.69,0.86726
5494.9,0.86076
5489.12,0.86117
5483.33,0.87139
5477.54,0.86206
5471.76,0.86666
5465.97,0.86011
5460.19,0.85780
5454.4,0.86670
5448.61,0.85847
5442.83,0.85453
5437.04,0.86387
5431.25,0.86234
5425.47,0.87223
5419.68,0.88095
5413.9,0.85627
5408.11,0.86493
5402.32,0.87753
5396.54,0.87123
5390.75,0.87265
5384.97,0.86903
5379.18,0.87530
5373.39,0.87479
5367.61,0.88323
5361.82,0.87981
5356.04,0.87548
5350.25,0.86947
5344.46,0.86161
5338.68,0.86175
5332.89,0.87679
5327.1,0.87597
5321.32,0.89141
5315.53,0.88741
5309.75,0.88514
5303.96,0.88861
5298.17,0.88928
5292.39,0.88678
5286.6,0.88639
5280.82,0.88728
5275.03,0.89198
5269.24,0.88416
5263.46,0.87143
5257.67,0.88305
5251.88,0.88056
5246.1,0.86752
5240.31,0.88814
5234.53,0.88673
5228.74,0.88181
5222.95,0.88217
5217.17,0.88680
5211.38,0.89071
5205.6,0.87501
5199.81,0.89233
5194.02,0.89091
5188.24,0.88894
5182.45,0.88903
5176.66,0.89066
5170.88,0.88807
5165.09,0.89094
5159.31,0.89021
5153.52,0.88925
5147.73,0.89328
5141.95,0.89252
5136.16,0.89237
5130.38,0.89314
5124.59,0.89540
5118.8,0.89376
5113.02,0.89370
5107.23,0.89320
5101.45,0.89503
5095.66,0.89318
5089.87,0.89406
5084.09,0.89572
5078.3,0.89644
5072.51,0.89478
5066.73,0.89721
5060.94,0.89722
5055.16,0.89778
5049.37,0.89669
5043.58,0.89746
5037.8,0.90011
5032.01,0.89881
5026.23,0.89965
5020.44,0.90032
5014.65,0.89858
5008.87,0.89962
5003.08,0.89876
4997.29,0.89929
4991.51,0.90033
4985.72,0.89948
4979.94,0.89960
4974.15,0.90137
4968.36,0.90110
4962.58,0.90110
4956.79,0.90176
4951.01,0.90146
4945.22,0.90008
4939.43,0.90047
4933.65,0.90256
4927.86,0.90190
4922.07,0.89992
4916.29,0.89971
4910.5,0.90075
4904.72,0.90146
4898.93,0.90242
4893.14,0.89980
4887.36,0.89952
4881.57,0.89977
4875.79,0.90115
4870,0.90146
4864.21,0.89941
4858.43,0.90020
4852.64,0.90003
4846.85,0.90014
4841.07,0.90022
4835.28,0.90037
4829.5,0.90037
4823.71,0.90041
4817.92,0.90061
4812.14,0.89972
4806.35,0.90028
4800.57,0.89892
4794.78,0.89728
4788.99,0.89732
4783.21,0.89675
4777.42,0.89578
4771.64,0.89698
4765.85,0.89900
4760.06,0.89957
4754.28,0.89932
4748.49,0.89840
4742.7,0.89870
4736.92,0.89609
4731.13,0.89355
4725.35,0.88922
4719.56,0.88446
4713.77,0.88131
4707.99,0.88004
4702.2,0.87664
4696.42,0.86895
4690.63,0.86304
4684.84,0.85894
4679.06,0.86123
4673.27,0.86815
4667.48,0.87216
4661.7,0.87399
4655.91,0.87389
4650.13,0.87517
4644.34,0.87227
4638.55,0.86534
4632.77,0.86020
4626.98,0.86288
4621.2,0.87044
4615.41,0.87711
4609.62,0.88145
4603.84,0.88240
4598.05,0.88171
4592.26,0.88074
4586.48,0.87850
4580.69,0.87872
4574.91,0.87637
4569.12,0.87938
4563.33,0.88274
4557.55,0.88499
4551.76,0.88573
4545.98,0.88456
4540.19,0.88423
4534.4,0.88356
4528.62,0.88144
4522.83,0.88048
4517.05,0.87832
4511.26,0.87500
4505.47,0.87345
4499.69,0.86837
4493.9,0.86147
4488.11,0.85583
4482.33,0.85062
4476.54,0.84750
4470.76,0.84345
4464.97,0.83997
4459.18,0.83109
4453.4,0.82153
4447.61,0.80701
4441.83,0.79096
4436.04,0.77036
4430.25,0.74613
4424.47,0.72061
4418.68,0.69354
4412.89,0.66655
4407.11,0.64134
4401.32,0.62367
4395.54,0.61461
4389.75,0.60940
4383.96,0.59442
4378.18,0.56756
4372.39,0.53797
4366.61,0.50390
4360.82,0.46909
4355.03,0.43716
4349.25,0.40966
4343.46,0.38139
4337.67,0.35653
4331.89,0.34903
4326.1,0.37289
4320.32,0.40887
4314.53,0.44417
4308.74,0.46479
4302.96,0.47510
4297.17,0.47988
4291.39,0.47843
4285.6,0.47353
4279.81,0.46950
4274.03,0.47004
4268.24,0.47415
4262.46,0.48216
4256.67,0.48588
4250.88,0.48677
4245.1,0.48563
4239.31,0.48294
4233.52,0.47942
4227.74,0.47253
4221.95,0.46543
4216.17,0.46236
4210.38,0.46402
4204.59,0.47204
4198.81,0.48527
4193.02,0.49792
4187.24,0.50359
4181.45,0.49899
4175.66,0.49044
4169.88,0.48704
4164.09,0.49675
4158.3,0.51595
4152.52,0.53251
4146.73,0.54465
4140.95,0.55786
4135.16,0.57171
4129.37,0.58246
4123.59,0.58479
4117.8,0.58241
4112.02,0.57523
4106.23,0.56949
4100.44,0.56185
4094.66,0.54433
4088.87,0.51346
4083.08,0.49291
4077.3,0.50932
4071.51,0.53742
4065.73,0.56219
4059.94,0.58382
4054.15,0.60410
4048.37,0.61408
4042.58,0.61887
4036.8,0.62438
4031.01,0.62652
4025.22,0.62604
4019.44,0.62542
4013.65,0.63202
4007.86,0.63777
4002.08,0.64978
3996.29,0.65732
3990.51,0.66654
3984.72,0.67718
3978.93,0.68374
3973.15,0.68601
3967.36,0.69446
3961.58,0.69450
3955.79,0.69549
3950,0.68878
3944.22,0.68892
3938.43,0.69855
3932.65,0.68614
3926.86,0.68799
3921.07,0.68557
3915.29,0.69111
3909.5,0.70177
3903.71,0.66190
3897.93,0.68488
3892.14,0.68475
3886.36,0.69091
3880.57,0.68688
3874.78,0.69219
3869,0.67641
3863.21,0.67830
3857.43,0.68855
3851.64,0.66655
3845.85,0.70315
3840.07,0.66473
3834.28,0.68605
3828.49,0.70309
3822.71,0.68518
3816.92,0.69015
3811.14,0.72712
3805.35,0.70190
3799.56,0.69465
3793.78,0.73848
3787.99,0.74609
3782.21,0.74033
3776.42,0.74860
3770.63,0.73465
3764.85,0.73331
3759.06,0.71853
3753.27,0.69830
3747.49,0.68764
3741.7,0.71120
3735.92,0.68127
3730.13,0.71884
3724.34,0.71940
3718.56,0.74943
3712.77,0.72533
3706.99,0.73224
3701.2,0.72120
3695.41,0.70848
3689.63,0.64476
3683.84,0.66189
3678.06,0.63238
3672.27,0.62721
3666.48,0.66503
3660.7,0.67936
3654.91,0.66856
3649.12,0.62467
3643.34,0.67789
3637.55,0.67974
3631.77,0.65227
3625.98,0.64226
3620.19,0.62918
3614.41,0.62226
3608.62,0.62223
3602.84,0.62727
3597.05,0.61180
3591.26,0.61235
3585.48,0.59963
3579.69,0.60858
3573.9,0.59875
3568.12,0.56365
3562.33,0.56462
3556.55,0.56344
3550.76,0.54878
3544.97,0.53689
3539.19,0.54647
3533.4,0.54272
3527.62,0.52966
3521.83,0.52990
3516.04,0.53195
3510.26,0.51808
3504.47,0.50643
3498.68,0.50011
3492.9,0.48777
3487.11,0.46956
3481.33,0.45098
3475.54,0.43915
3469.75,0.42609
3463.97,0.41274
3458.18,0.40199
3452.4,0.38800
3446.61,0.36490
3440.82,0.34048
3435.04,0.31504
3429.25,0.29563
3423.47,0.28820
3417.68,0.29818
3411.89,0.32113
3406.11,0.35051
3400.32,0.38192
3394.53,0.40792
3388.75,0.43103
3382.96,0.44832
3377.18,0.46509
3371.39,0.47670
3365.6,0.48526
3359.82,0.49409
3354.03,0.49846
3348.25,0.50135
3342.46,0.49774
3336.67,0.48900
3330.89,0.48490
3325.1,0.47886
3319.31,0.46553
3313.53,0.42343
3307.74,0.34527
3301.96,0.28929
3296.17,0.32218
3290.38,0.39151
3284.6,0.44934
3278.81,0.48838
3273.03,0.51571
3267.24,0.53743
3261.45,0.55061
3255.67,0.55806
3249.88,0.56302
3244.09,0.56274
3238.31,0.56133
3232.52,0.55815
3226.74,0.55358
3220.95,0.55011
3215.16,0.54673
3209.38,0.54426
3203.59,0.54055
3197.81,0.53556
3192.02,0.53561
3186.23,0.53539
3180.45,0.53689
3174.66,0.53760
3168.87,0.53901
3163.09,0.53858
3157.3,0.53676
3151.52,0.53403
3145.73,0.52787
3139.94,0.51991
3134.16,0.50790
3128.37,0.49389
3122.59,0.48616
3116.8,0.48186
3111.01,0.46833
3105.23,0.44398
3099.44,0.41271
3093.66,0.39351
3087.87,0.36886
3082.08,0.33782
3076.3,0.33118
3070.51,0.31549
3064.72,0.28853
3058.94,0.28238
3053.15,0.26821
3047.37,0.28128
3041.58,0.28577
3035.79,0.26618
3030.01,0.23804
3024.22,0.20803
3018.44,0.17060
3012.65,0.12712
3006.86,0.08271
3001.08,0.04295
2995.29,0.01646
2989.5,0.00363
2983.72,0.00041
2977.93,0.00095
2972.15,0.00048
2966.36,0.00050
2960.57,0.00065
2954.79,0.00033
2949,0.00057
2943.22,0.00049
2937.43,0.00049
2931.64,0.00040
2925.86,0.00097
2920.07,0.00062
2914.28,0.00055
2908.5,0.00056
2902.71,0.00089
2896.93,0.00069
2891.14,0.00074
2885.35,0.00094
2879.57,0.00047
2873.78,0.00048
2868,0.00020
2862.21,0.00079
2856.42,0.00036
2850.64,0.00026
2844.85,0.00075
2839.07,0.00796
2833.28,0.02711
2827.49,0.04857
2821.71,0.06095
2815.92,0.07020
2810.13,0.11404
2804.35,0.16879
2798.56,0.21442
2792.78,0.25436
2786.99,0.28834
2781.2,0.31836
2775.42,0.34237
2769.63,0.35681
2763.85,0.36506
2758.06,0.36675
2752.27,0.36004
2746.49,0.34749
2740.7,0.33285
2734.91,0.32262
2729.13,0.33599
2723.34,0.37346
2717.56,0.40394
2711.77,0.42360
2705.98,0.43949
2700.2,0.45124
2694.41,0.45927
2688.63,0.46166
2682.84,0.45708
2677.05,0.44950
2671.27,0.44842
2665.48,0.45940
2659.69,0.47868
2653.91,0.49551
2648.12,0.50470
2642.34,0.50522
2636.55,0.49662
2630.76,0.48590
2624.98,0.48333
2619.19,0.48297
2613.41,0.48195
2607.62,0.48137
2601.83,0.48183
2596.05,0.48361
2590.26,0.48198
2584.47,0.47877
2578.69,0.47660
2572.9,0.48200
2567.12,0.49123
2561.33,0.49576
2555.54,0.49795
2549.76,0.50360
2543.97,0.51205
2538.19,0.51945
2532.4,0.52307
2526.61,0.52859
2520.83,0.53870
2515.04,0.55238
2509.26,0.56600
2503.47,0.57807
2497.68,0.58538
2491.9,0.59032
2486.11,0.59458
2480.32,0.59906
2474.54,0.60494
2468.75,0.61070
2462.97,0.61358
2457.18,0.61347
2451.39,0.61257
2445.61,0.60701
2439.82,0.60124
2434.04,0.59326
2428.25,0.58271
2422.46,0.56869
2416.68,0.55753
2410.89,0.54978
2405.1,0.54007
2399.32,0.53161
2393.53,0.52141
2387.75,0.51070
2381.96,0.47940
2376.17,0.42831
2370.39,0.38290
2364.6,0.35377
2358.82,0.35681
2353.03,0.40848
2347.24,0.45104
2341.46,0.42968
2335.67,0.45037
2329.88,0.46430
2324.1,0.48391
2318.31,0.52125
2312.53,0.55639
2306.74,0.58356
2300.95,0.60155
2295.17,0.60625
2289.38,0.60383
2283.6,0.59639
2277.81,0.58343
2272.02,0.59142
2266.24,0.60622
2260.45,0.61541
2254.67,0.61760
2248.88,0.61923
2243.09,0.61711
2237.31,0.61555
2231.52,0.61641
2225.73,0.61985
2219.95,0.62686
2214.16,0.63014
2208.38,0.63327
2202.59,0.64825
2196.8,0.66322
2191.02,0.66988
2185.23,0.67844
2179.45,0.68504
2173.66,0.68860
2167.87,0.68889
2162.09,0.68513
2156.3,0.68353
2150.51,0.68061
2144.73,0.67883
2138.94,0.67510
2133.16,0.67509
2127.37,0.67396
2121.58,0.67222
2115.8,0.66851
2110.01,0.66707
2104.23,0.66683
2098.44,0.66438
2092.65,0.66163
2086.87,0.65630
2081.08,0.65297
2075.29,0.64919
2069.51,0.64898
2063.72,0.64824
2057.94,0.65499
2052.15,0.66118
2046.36,0.66683
2040.58,0.66929
2034.79,0.67285
2029.01,0.67550
2023.22,0.67932
2017.43,0.68237
2011.65,0.69006
2005.86,0.69133
2000.08,0.68666
1994.29,0.66987
1988.5,0.65531
1982.72,0.65514
1976.93,0.64790
1971.14,0.63135
1965.36,0.60102
1959.57,0.56193
1953.79,0.50387
1948,0.47850
1942.21,0.50872
1936.43,0.55930
1930.64,0.59601
1924.86,0.61274
1919.07,0.61886
1913.28,0.63123
1907.5,0.63134
1901.71,0.64186
1895.92,0.63881
1890.14,0.63768
1884.35,0.64641
1878.57,0.65175
1872.78,0.64546
1866.99,0.62330
1861.21,0.63297
1855.42,0.61808
1849.64,0.58658
1843.85,0.53976
1838.06,0.52089
1832.28,0.46769
1826.49,0.40548
1820.7,0.39971
1814.92,0.41674
1809.13,0.42253
1803.35,0.41834
1797.56,0.39503
1791.77,0.35706
1785.99,0.33437
1780.2,0.29280
1774.42,0.25325
1768.63,0.20708
1762.84,0.15739
1757.06,0.08399
1751.27,0.03042
1745.48,0.00586
1739.7,0.00011
1733.91,0.00025
1728.13,0.00063
1722.34,0.00054
1716.55,0.00062
1710.77,0.00045
1704.98,0.00022
1699.2,0.00193
1693.41,0.02419
1687.62,0.04727
1681.84,0.06112
1676.05,0.07198
1670.27,0.09840
1664.48,0.17855
1658.69,0.25411
1652.91,0.26445
1647.12,0.25140
1641.33,0.19271
1635.55,0.16580
1629.76,0.26833
1623.98,0.30428
1618.19,0.29042
1612.4,0.25481
1606.62,0.28405
1600.83,0.33321
1595.05,0.34298
1589.26,0.32886
1583.47,0.22445
1577.69,0.09613
1571.9,0.15925
1566.11,0.20799
1560.33,0.22296
1554.54,0.24933
1548.76,0.25756
1542.97,0.21501
1537.18,0.20908
1531.4,0.23416
1525.61,0.23533
1519.83,0.25069
1514.04,0.22843
1508.25,0.12256
1502.47,0.07426
1496.68,0.18479
1490.89,0.18301
1485.11,0.10868
1479.32,0.03799
1473.54,0.00389
1467.75,0.00015
1461.96,0.00040
1456.18,0.00050
1450.39,0.00029
1444.61,0.00022
1438.82,0.00017
1433.03,0.00026
1427.25,0.00050
1421.46,0.00044
1415.68,0.00052
1409.89,0.00006
1404.1,0.00144
1398.32,0.00507
1392.53,0.00142
1386.74,0.00036
1380.96,0.00020
1375.17,0.00023
1369.39,0.00083
1363.6,0.00117
1357.81,0.00044
1352.03,0.00023
1346.24,0.00047
1340.46,0.00033
1334.67,0.00037
1328.88,0.00021
1323.1,0.00028
1317.31,0.00050
1311.52,0.00027
1305.74,0.00022
1299.95,0.00041
1294.17,0.00046
1288.38,0.00051
1282.59,0.00020
1276.81,0.00035
1271.02,0.00021
1265.24,0.00043
1259.45,0.00009
1253.66,0.00030
1247.88,0.00037
1242.09,0.00052
1236.3,0.00045
1230.52,0.00020
1224.73,0.00014
1218.95,0.00205
1213.16,0.00275
1207.37,0.00191
1201.59,0.00143
1195.8,0.00207
1190.02,0.00490
1184.23,0.01178
1178.44,0.01190
1172.66,0.00442
1166.87,0.00686
1161.09,0.00704
1155.3,0.00547
1149.51,0.00438
1143.73,0.00371
1137.94,0.00131
1132.15,0.00019
1126.37,0.00064
1120.58,0.00072
1114.8,0.00042
1109.01,0.00028
1103.22,0.00033
1097.44,0.00051
1091.65,0.00006
1085.87,0.00044
1080.08,0.00076
1074.29,0.00373
1068.51,0.00865
1062.72,0.01372
1056.93,0.01916
1051.15,0.02397
1045.36,0.02585
1039.58,0.02248
1033.79,0.01660
1028,0.00849
1022.22,0.00144
1016.43,0.00029
1010.65,0.00659
1004.86,0.00778
999.073,0.00399
993.287,0.00158
987.501,0.00091
981.715,0.00043
975.929,0.00053
970.142,0.00056
964.356,0.00062
958.57,0.00028
952.784,0.00046
946.998,0.00069
941.212,0.00057
935.426,0.00150
929.64,0.00260
923.853,0.00356
918.067,0.00715
912.281,0.01175
906.495,0.01609
900.709,0.02582
894.923,0.03408
889.137,0.04517
883.35,0.03207
877.564,0.00387
871.778,0.00494
865.992,0.02652
860.206,0.03764
854.42,0.03875
848.634,0.03787
842.847,0.03698
837.061,0.02914
831.275,0.02944
825.489,0.06961
819.703,0.13232
813.917,0.15817
808.131,0.16086
802.344,0.16926
796.558,0.11953
790.772,0.12977
784.986,0.10191
779.2,0.08615
773.414,0.06626
767.628,0.05760
761.842,0.10127
756.055,0.15950
750.269,0.14457
744.483,0.06348
738.697,0.00414
732.911,0.00030
727.125,0.00124
721.339,0.01152
715.552,0.02227
709.766,0.00850
703.98,0.00158
698.194,0.00104
692.408,0.00107
686.622,0.00145
680.836,0.00135
675.049,0.00375
669.263,0.01089
663.477,0.02256
657.691,0.01130
651.905,0.00142
646.119,0.00087
640.333,0.00352
634.546,0.00205
628.76,0.00120
622.974,0.00137
617.188,0.00208
611.402,0.00092
605.616,0.00397
599.83,0.00332