File: 01_Data/PEVA/FTIR/IS/PEVA_0.18_IS_T_240809_R4.dpt
7497.33,0.05042
7491.55,0.03704
7485.76,0.04284
7479.97,0.03575
7474.19,0.03675
7468.4,0.04267
7462.61,0.01897
7456.83,0.01846
7451.04,0.03037
7445.26,0.03266
7439.47,0.02857
7433.68,0.02292
7427.9,0.01384
7422.11,0.04894
7416.32,0.03873
7410.54,0.02624
7404.75,0.03151
7398.96,0.03628
7393.18,0.03058
7387.39,0.02826
7381.6,0.03567
7375.82,0.03223
7370.03,0.04683
7364.24,0.03167
7358.46,0.03001
7352.67,0.03569
7346.89,0.04313
7341.1,0.03747
7335.31,0.03330
7329.53,0.03081
7323.74,0.03517
7317.95,0.02819
7312.17,0.05298
7306.38,0.03698
7300.59,0.02351
7294.81,0.03247
7289.02,0.03454
7283.23,0.03470
7277.45,0.03628
7271.66,0.04128
7265.87,0.03350
7260.09,0.02497
7254.3,0.03098
7248.52,0.02086
7242.73,0.02117
7236.94,0.04197
7231.16,0.04056
7225.37,0.03009
7219.58,0.03033
7213.8,0.03133
7208.01,0.04304
7202.22,0.03192
7196.44,0.04075
7190.65,0.03142
7184.86,0.02711
7179.08,0.03834
7173.29,0.03979
7167.5,0.03193
7161.72,0.04626
7155.93,0.04962
7150.15,0.02874
7144.36,0.03116
7138.57,0.02945
7132.79,0.03412
7127,0.04219
7121.21,0.03476
7115.43,0.04270
7109.64,0.03677
7103.85,0.02616
7098.07,0.04048
7092.28,0.03724
7086.49,0.02617
7080.71,0.02686
7074.92,0.03959
7069.13,0.02919
7063.35,0.02728
7057.56,0.03182
7051.78,0.03083
7045.99,0.03346
7040.2,0.03206
7034.42,0.03632
7028.63,0.03638
7022.84,0.03229
7017.06,0.03714
7011.27,0.03993
7005.48,0.03376
6999.7,0.03124
6993.91,0.03407
6988.12,0.03493
6982.34,0.04074
6976.55,0.03178
6970.76,0.02129
6964.98,0.03191
6959.19,0.03192
6953.41,0.03387
6947.62,0.03042
6941.83,0.02246
6936.05,0.03091
6930.26,0.04000
6924.47,0.03806
6918.69,0.02828
6912.9,0.03418
6907.11,0.03576
6901.33,0.03107
6895.54,0.03487
6889.75,0.03253
6883.97,0.03411
6878.18,0.04327
6872.39,0.03412
6866.61,0.03218
6860.82,0.03820
6855.04,0.03635
6849.25,0.03287
6843.46,0.02949
6837.68,0.03459
6831.89,0.03984
6826.1,0.03570
6820.32,0.03439
6814.53,0.03035
6808.74,0.02877
6802.96,0.03325
6797.17,0.03371
6791.38,0.03370
6785.6,0.03185
6779.81,0.03476
6774.03,0.03008
6768.24,0.02675
6762.45,0.03123
6756.67,0.03402
6750.88,0.03150
6745.09,0.03122
6739.31,0.02928
6733.52,0.03565
6727.73,0.03099
6721.95,0.03273
6716.16,0.03116
6710.37,0.03059
6704.59,0.03368
6698.8,0.03153
6693.01,0.03506
6687.23,0.03554
6681.44,0.03631
6675.66,0.03300
6669.87,0.03379
6664.08,0.03355
6658.3,0.02889
6652.51,0.03586
6646.72,0.03601
6640.94,0.03409
6635.15,0.03150
6629.36,0.03617
6623.58,0.03580
6617.79,0.03231
6612,0.03907
6606.22,0.02766
6600.43,0.03294
6594.64,0.02919
6588.86,0.03339
6583.07,0.03374
6577.29,0.02876
6571.5,0.03561
6565.71,0.03518
6559.93,0.03309
6554.14,0.03031
6548.35,0.02740
6542.57,0.03338
6536.78,0.03010
6530.99,0.03546
6525.21,0.03952
6519.42,0.03612
6513.63,0.03495
6507.85,0.03202
6502.06,0.03492
6496.27,0.02919
6490.49,0.03413
6484.7,0.03008
6478.92,0.03432
6473.13,0.03365
6467.34,0.02614
6461.56,0.02202
6455.77,0.02561
6449.98,0.03390
6444.2,0.03417
6438.41,0.02867
6432.62,0.02996
6426.84,0.03623
6421.05,0.03421
6415.26,0.03477
6409.48,0.03575
6403.69,0.02620
6397.9,0.02735
6392.12,0.03147
6386.33,0.03135
6380.55,0.03581
6374.76,0.02929
6368.97,0.03246
6363.19,0.03393
6357.4,0.03246
6351.61,0.03527
6345.83,0.02866
6340.04,0.02695
6334.25,0.03214
6328.47,0.03586
6322.68,0.03212
6316.89,0.03092
6311.11,0.03414
6305.32,0.03224
6299.53,0.03462
6293.75,0.02943
6287.96,0.03378
6282.18,0.02454
6276.39,0.02963
6270.6,0.03070
6264.82,0.03154
6259.03,0.03226
6253.24,0.03508
6247.46,0.03461
6241.67,0.02729
6235.88,0.02799
6230.1,0.03347
6224.31,0.03319
6218.52,0.03029
6212.74,0.03342
6206.95,0.02913
6201.16,0.02997
6195.38,0.02794
6189.59,0.02771
6183.81,0.03189
6178.02,0.03117
6172.23,0.02798
6166.45,0.03154
6160.66,0.02883
6154.87,0.02861
6149.09,0.03117
6143.3,0.03126
6137.51,0.03051
6131.73,0.03361
6125.94,0.03182
6120.15,0.02831
6114.37,0.02838
6108.58,0.02971
6102.79,0.03198
6097.01,0.02806
6091.22,0.02972
6085.44,0.03363
6079.65,0.02940
6073.86,0.03330
6068.08,0.03333
6062.29,0.02952
6056.5,0.02629
6050.72,0.03294
6044.93,0.02845
6039.14,0.03050
6033.36,0.03114
6027.57,0.02982
6021.78,0.03085
6016,0.03078
6010.21,0.03097
6004.42,0.02841
5998.64,0.03308
5992.85,0.03250
5987.07,0.03090
5981.28,0.03079
5975.49,0.03109
5969.71,0.03068
5963.92,0.03026
5958.13,0.02865
5952.35,0.03248
5946.56,0.02860
5940.77,0.02952
5934.99,0.03122
5929.2,0.03240
5923.41,0.03198
5917.63,0.02930
5911.84,0.03141
5906.05,0.03112
5900.27,0.02791
5894.48,0.03050
5888.7,0.03193
5882.91,0.03096
5877.12,0.02833
5871.34,0.03028
5865.55,0.02939
5859.76,0.03010
5853.98,0.02768
5848.19,0.03135
5842.4,0.03053
5836.62,0.03158
5830.83,0.03147
5825.04,0.03346
5819.26,0.03076
5813.47,0.02979
5807.68,0.02920
5801.9,0.02701
5796.11,0.03020
5790.33,0.03098
5784.54,0.02998
5778.75,0.03065
5772.97,0.03067
5767.18,0.02820
5761.39,0.02957
5755.61,0.03119
5749.82,0.02796
5744.03,0.03018
5738.25,0.02897
5732.46,0.02805
5726.67,0.03103
5720.89,0.02986
5715.1,0.02994
5709.31,0.02951
5703.53,0.02830
5697.74,0.03040
5691.96,0.03211
5686.17,0.03303
5680.38,0.03403
5674.6,0.03403
5668.81,0.03012
5663.02,0.03203
5657.24,0.03103
5651.45,0.02911
5645.66,0.03066
5639.88,0.03063
5634.09,0.03292
5628.3,0.02839
5622.52,0.03105
5616.73,0.02984
5610.94,0.02842
5605.16,0.03315
5599.37,0.02944
5593.59,0.03035
5587.8,0.03026
5582.01,0.03060
5576.23,0.03196
5570.44,0.03036
5564.65,0.02987
5558.87,0.02973
5553.08,0.03110
5547.29,0.03208
5541.51,0.03040
5535.72,0.03097
5529.93,0.03086
5524.15,0.03002
5518.36,0.02809
5512.58,0.03018
5506.79,0.03287
5501,0.03095
5495.22,0.02944
5489.43,0.03177
5483.64,0.02883
5477.86,0.02793
5472.07,0.02959
5466.28,0.03104
5460.5,0.03070
5454.71,0.03112
5448.92,0.02981
5443.14,0.02833
5437.35,0.03162
5431.56,0.03285
5425.78,0.03115
5419.99,0.03032
5414.21,0.02847
5408.42,0.03125
5402.63,0.03112
5396.85,0.03155
5391.06,0.03220
5385.27,0.03249
5379.49,0.02989
5373.7,0.03008
5367.91,0.03116
5362.13,0.02993
5356.34,0.03191
5350.55,0.02997
5344.77,0.03025
5338.98,0.03047
5333.19,0.03118
5327.41,0.02948
5321.62,0.02884
5315.84,0.02916
5310.05,0.02996
5304.26,0.02802
5298.48,0.02950
5292.69,0.03167
5286.9,0.03219
5281.12,0.02972
5275.33,0.03028
5269.54,0.02912
5263.76,0.03119
5257.97,0.03035
5252.18,0.03029
5246.4,0.02991
5240.61,0.03072
5234.82,0.03009
5229.04,0.02974
5223.25,0.03003
5217.47,0.02932
5211.68,0.03155
5205.89,0.03175
5200.11,0.03220
5194.32,0.03096
5188.53,0.03111
5182.75,0.02945
5176.96,0.03087
5171.17,0.03065
5165.39,0.02957
5159.6,0.03078
5153.81,0.02930
5148.03,0.02865
5142.24,0.03019
5136.45,0.03216
5130.67,0.03054
5124.88,0.02892
5119.1,0.03010
5113.31,0.03015
5107.52,0.03034
5101.74,0.03151
5095.95,0.02950
5090.16,0.03073
5084.38,0.03142
5078.59,0.03040
5072.8,0.03041
5067.02,0.03119
5061.23,0.03019
5055.44,0.03035
5049.66,0.02979
5043.87,0.03042
5038.08,0.03050
5032.3,0.03056
5026.51,0.03029
5020.73,0.03042
5014.94,0.02931
5009.15,0.03051
5003.37,0.02966
4997.58,0.03038
4991.79,0.02983
4986.01,0.02838
4980.22,0.03051
4974.43,0.03012
4968.65,0.03062
4962.86,0.03101
4957.07,0.03023
4951.29,0.03086
4945.5,0.03030
4939.71,0.03052
4933.93,0.03061
4928.14,0.03044
4922.36,0.03016
4916.57,0.02960
4910.78,0.02916
4905,0.03044
4899.21,0.02991
4893.42,0.02980
4887.64,0.03005
4881.85,0.02993
4876.06,0.02961
4870.28,0.02989
4864.49,0.02863
4858.7,0.02973
4852.92,0.03126
4847.13,0.02933
4841.34,0.02872
4835.56,0.03029
4829.77,0.03042
4823.99,0.02994
4818.2,0.03034
4812.41,0.02987
4806.63,0.02855
4800.84,0.03032
4795.05,0.03069
4789.27,0.03091
4783.48,0.03021
4777.69,0.02986
4771.91,0.03092
4766.12,0.03019
4760.33,0.02935
4754.55,0.03027
4748.76,0.03119
4742.97,0.03028
4737.19,0.03051
4731.4,0.03114
4725.62,0.03134
4719.83,0.02922
4714.04,0.03046
4708.26,0.03070
4702.47,0.03094
4696.68,0.03073
4690.9,0.03018
4685.11,0.02967
4679.32,0.03004
4673.54,0.03067
4667.75,0.02993
4661.96,0.02982
4656.18,0.02996
4650.39,0.02986
4644.6,0.02992
4638.82,0.03013
4633.03,0.03027
4627.25,0.03002
4621.46,0.03034
4615.67,0.03050
4609.89,0.03064
4604.1,0.02991
4598.31,0.02884
4592.53,0.03014
4586.74,0.03020
4580.95,0.03083
4575.17,0.03101
4569.38,0.02958
4563.59,0.03053
4557.81,0.03009
4552.02,0.03013
4546.23,0.02938
4540.45,0.03122
4534.66,0.03047
4528.88,0.03082
4523.09,0.02940
4517.3,0.03044
4511.52,0.02879
4505.73,0.02949
4499.94,0.02954
4494.16,0.02986
4488.37,0.03004
4482.58,0.03008
4476.8,0.02921
4471.01,0.02956
4465.22,0.02982
4459.44,0.02964
4453.65,0.02977
4447.86,0.02990
4442.08,0.03091
4436.29,0.03070
4430.51,0.02982
4424.72,0.02993
4418.93,0.02985
4413.15,0.02885
4407.36,0.02970
4401.57,0.03003
4395.79,0.02970
4390,0.03016
4384.21,0.02982
4378.43,0.03052
4372.64,0.02953
4366.85,0.02934
4361.07,0.02980
4355.28,0.02999
4349.49,0.02943
4343.71,0.02991
4337.92,0.02957
4332.14,0.02981
4326.35,0.02918
4320.56,0.02999
4314.78,0.02993
4308.99,0.03075
4303.2,0.02991
4297.42,0.02961
4291.63,0.02902
4285.84,0.02995
4280.06,0.03003
4274.27,0.02962
4268.48,0.02956
4262.7,0.02983
4256.91,0.02976
4251.13,0.02960
4245.34,0.02948
4239.55,0.03002
4233.77,0.03073
4227.98,0.03040
4222.19,0.02949
4216.41,0.03000
4210.62,0.02925
4204.83,0.03077
4199.05,0.02962
4193.26,0.03024
4187.47,0.03075
4181.69,0.02973
4175.9,0.03025
4170.11,0.02980
4164.33,0.02968
4158.54,0.02961
4152.76,0.03017
4146.97,0.02985
4141.18,0.03006
4135.4,0.03035
4129.61,0.02992
4123.82,0.02963
4118.04,0.03005
4112.25,0.03009
4106.46,0.02979
4100.68,0.02981
4094.89,0.02982
4089.1,0.02998
4083.32,0.03016
4077.53,0.02960
4071.74,0.03026
4065.96,0.02979
4060.17,0.02942
4054.39,0.03019
4048.6,0.03010
4042.81,0.03006
4037.03,0.02987
4031.24,0.02986
4025.45,0.02976
4019.67,0.02949
4013.88,0.02896
4008.09,0.02978
4002.31,0.02918
3996.52,0.02944
3990.73,0.02960
3984.95,0.02986
3979.16,0.03004
3973.37,0.02913
3967.59,0.02957
3961.8,0.02926
3956.02,0.02947
3950.23,0.02925
3944.44,0.02950
3938.66,0.02970
3932.87,0.02986
3927.08,0.02991
3921.3,0.03017
3915.51,0.02910
3909.72,0.02937
3903.94,0.03025
3898.15,0.02979
3892.36,0.02890
3886.58,0.02972
3880.79,0.03017
3875,0.03008
3869.22,0.03004
3863.43,0.03072
3857.65,0.03103
3851.86,0.02870
3846.07,0.03008
3840.29,0.03044
3834.5,0.02976
3828.71,0.02998
3822.93,0.03019
3817.14,0.03001
3811.35,0.03030
3805.57,0.02955
3799.78,0.03066
3793.99,0.02956
3788.21,0.02995
3782.42,0.02999
3776.63,0.02977
3770.85,0.02925
3765.06,0.02980
3759.28,0.02945
3753.49,0.03056
3747.7,0.03020
3741.92,0.03110
3736.13,0.03046
3730.34,0.02878
3724.56,0.02964
3718.77,0.02945
3712.98,0.02889
3707.2,0.02923
3701.41,0.02932
3695.62,0.02924
3689.84,0.02921
3684.05,0.02935
3678.26,0.03025
3672.48,0.02981
3666.69,0.02834
3660.91,0.02875
3655.12,0.02782
3649.33,0.02847
3643.55,0.02820
3637.76,0.02799
3631.97,0.02760
3626.19,0.02716
3620.4,0.02820
3614.61,0.02767
3608.83,0.02762
3603.04,0.02720
3597.25,0.02717
3591.47,0.02718
3585.68,0.02786
3579.89,0.02793
3574.11,0.02648
3568.32,0.02685
3562.54,0.02716
3556.75,0.02694
3550.96,0.02669
3545.18,0.02778
3539.39,0.02635
3533.6,0.02667
3527.82,0.02540
3522.03,0.02651
3516.24,0.02674
3510.46,0.02671
3504.67,0.02628
3498.88,0.02574
3493.1,0.02627
3487.31,0.02687
3481.52,0.02669
3475.74,0.02701
3469.95,0.02661
3464.17,0.02527
3458.38,0.02619
3452.59,0.02548
3446.81,0.02676
3441.02,0.02657
3435.23,0.02635
3429.45,0.02581
3423.66,0.02628
3417.87,0.02635
3412.09,0.02629
3406.3,0.02619
3400.51,0.02624
3394.73,0.02619
3388.94,0.02593
3383.15,0.02593
3377.37,0.02551
3371.58,0.02548
3365.8,0.02686
3360.01,0.02597
3354.22,0.02576
3348.44,0.02576
3342.65,0.02609
3336.86,0.02671
3331.08,0.02568
3325.29,0.02547
3319.5,0.02631
3313.72,0.02616
3307.93,0.02598
3302.14,0.02541
3296.36,0.02616
3290.57,0.02592
3284.78,0.02601
3279,0.02716
3273.21,0.02552
3267.43,0.02662
3261.64,0.02582
3255.85,0.02581
3250.07,0.02634
3244.28,0.02609
3238.49,0.02608
3232.71,0.02653
3226.92,0.02684
3221.13,0.02652
3215.35,0.02654
3209.56,0.02644
3203.77,0.02641
3197.99,0.02618
3192.2,0.02662
3186.41,0.02699
3180.63,0.02700
3174.84,0.02667
3169.06,0.02711
3163.27,0.02676
3157.48,0.02721
3151.7,0.02749
3145.91,0.02649
3140.12,0.02667
3134.34,0.02714
3128.55,0.02677
3122.76,0.02634
3116.98,0.02670
3111.19,0.02627
3105.4,0.02647
3099.62,0.02680
3093.83,0.02685
3088.05,0.02696
3082.26,0.02648
3076.47,0.02706
3070.69,0.02610
3064.9,0.02644
3059.11,0.02699
3053.33,0.02666
3047.54,0.02677
3041.75,0.02698
3035.97,0.02691
3030.18,0.02649
3024.39,0.02658
3018.61,0.02659
3012.82,0.02631
3007.03,0.02652
3001.25,0.02626
2995.46,0.02618
2989.68,0.02637
2983.89,0.02580
2978.1,0.02604
2972.32,0.02534
2966.53,0.02559
2960.74,0.02563
2954.96,0.02542
2949.17,0.02560
2943.38,0.02582
2937.6,0.02562
2931.81,0.02584
2926.02,0.02594
2920.24,0.02604
2914.45,0.02637
2908.66,0.02579
2902.88,0.02644
2897.09,0.02620
2891.31,0.02598
2885.52,0.02593
2879.73,0.02585
2873.95,0.02625
2868.16,0.02617
2862.37,0.02649
2856.59,0.02669
2850.8,0.02663
2845.01,0.02676
2839.23,0.02707
2833.44,0.02684
2827.65,0.02674
2821.87,0.02682
2816.08,0.02699
2810.29,0.02682
2804.51,0.02763
2798.72,0.02691
2792.94,0.02708
2787.15,0.02675
2781.36,0.02689
2775.58,0.02717
2769.79,0.02667
2764,0.02692
2758.22,0.02719
2752.43,0.02734
2746.64,0.02728
2740.86,0.02683
2735.07,0.02679
2729.28,0.02676
2723.5,0.02685
2717.71,0.02708
2711.92,0.02719
2706.14,0.02721
2700.35,0.02714
2694.57,0.02698
2688.78,0.02664
2682.99,0.02711
2677.21,0.02689
2671.42,0.02689
2665.63,0.02753
2659.85,0.02701
2654.06,0.02687
2648.27,0.02701
2642.49,0.02693
2636.7,0.02698
2630.91,0.02705
2625.13,0.02675
2619.34,0.02681
2613.55,0.02684
2607.77,0.02689
2601.98,0.02710
2596.2,0.02699
2590.41,0.02694
2584.62,0.02686
2578.84,0.02704
2573.05,0.02700
2567.26,0.02699
2561.48,0.02669
2555.69,0.02674
2549.9,0.02675
2544.12,0.02658
2538.33,0.02697
2532.54,0.02707
2526.76,0.02695
2520.97,0.02639
2515.18,0.02684
2509.4,0.02722
2503.61,0.02740
2497.83,0.02731
2492.04,0.02682
2486.25,0.02661
2480.47,0.02665
2474.68,0.02653
2468.89,0.02658
2463.11,0.02666
2457.32,0.02668
2451.53,0.02647
2445.75,0.02674
2439.96,0.02711
2434.17,0.02640
2428.39,0.02623
2422.6,0.02672
2416.81,0.02639
2411.03,0.02664
2405.24,0.02670
2399.46,0.02640
2393.67,0.02631
2387.88,0.02651
2382.1,0.02671
2376.31,0.02696
2370.52,0.02701
2364.74,0.02794
2358.95,0.02701
2353.16,0.02752
2347.38,0.02726
2341.59,0.02714
2335.8,0.02630
2330.02,0.02657
2324.23,0.02713
2318.44,0.02655
2312.66,0.02645
2306.87,0.02652
2301.09,0.02637
2295.3,0.02638
2289.51,0.02615
2283.73,0.02587
2277.94,0.02657
2272.15,0.02648
2266.37,0.02622
2260.58,0.02612
2254.79,0.02574
2249.01,0.02608
2243.22,0.02619
2237.43,0.02606
2231.65,0.02581
2225.86,0.02593
2220.07,0.02605
2214.29,0.02572
2208.5,0.02560
2202.72,0.02609
2196.93,0.02609
2191.14,0.02588
2185.36,0.02583
2179.57,0.02603
2173.78,0.02572
2168,0.02557
2162.21,0.02605
2156.42,0.02558
2150.64,0.02567
2144.85,0.02585
2139.06,0.02577
2133.28,0.02581
2127.49,0.02572
2121.7,0.02544
2115.92,0.02561
2110.13,0.02610
2104.35,0.02600
2098.56,0.02602
2092.77,0.02558
2086.99,0.02560
2081.2,0.02535
2075.41,0.02558
2069.63,0.02544
2063.84,0.02536
2058.05,0.02576
2052.27,0.02556
2046.48,0.02586
2040.69,0.02580
2034.91,0.02552
2029.12,0.02576
2023.33,0.02520
2017.55,0.02574
2011.76,0.02593
2005.98,0.02580
2000.19,0.02577
1994.4,0.02532
1988.62,0.02525
1982.83,0.02520
1977.04,0.02540
1971.26,0.02539
1965.47,0.02546
1959.68,0.02517
1953.9,0.02527
1948.11,0.02520
1942.32,0.02532
1936.54,0.02558
1930.75,0.02551
1924.96,0.02540
1919.18,0.02543
1913.39,0.02521
1907.61,0.02507
1901.82,0.02512
1896.03,0.02485
1890.25,0.02477
1884.46,0.02530
1878.67,0.02470
1872.89,0.02453
1867.1,0.02490
1861.31,0.02489
1855.53,0.02451
1849.74,0.02489
1843.95,0.02509
1838.17,0.02427
1832.38,0.02480
1826.6,0.02437
1820.81,0.02410
1815.02,0.02446
1809.24,0.02400
1803.45,0.02411
1797.66,0.02372
1791.88,0.02389
1786.09,0.02334
1780.3,0.02304
1774.52,0.02287
1768.73,0.02232
1762.94,0.02231
1757.16,0.02185
1751.37,0.02139
1745.58,0.02133
1739.8,0.02277
1734.01,0.02369
1728.23,0.02398
1722.44,0.02435
1716.65,0.02520
1710.87,0.02422
1705.08,0.02396
1699.29,0.02407
1693.51,0.02301
1687.72,0.02255
1681.93,0.02199
1676.15,0.02211
1670.36,0.02187
1664.57,0.02212
1658.79,0.02184
1653,0.02217
1647.21,0.02191
1641.43,0.02176
1635.64,0.02151
1629.86,0.02178
1624.07,0.02265
1618.28,0.02268
1612.5,0.02184
1606.71,0.02218
1600.92,0.02202
1595.14,0.02225
1589.35,0.02216
1583.56,0.02173
1577.78,0.02202
1571.99,0.02150
1566.2,0.02152
1560.42,0.02213
1554.63,0.02223
1548.84,0.02190
1543.06,0.02304
1537.27,0.02185
1531.49,0.02206
1525.7,0.02255
1519.91,0.02195
1514.13,0.02214
1508.34,0.02256
1502.55,0.02214
1496.77,0.02232
1490.98,0.02228
1485.19,0.02145
1479.41,0.02134
1473.62,0.02161
1467.83,0.02119
1462.05,0.02168
1456.26,0.02157
1450.47,0.02147
1444.69,0.02144
1438.9,0.02184
1433.12,0.02133
1427.33,0.02157
1421.54,0.02186
1415.76,0.02120
1409.97,0.02107
1404.18,0.02142
1398.4,0.02074
1392.61,0.02020
1386.82,0.02067
1381.04,0.02063
1375.25,0.02087
1369.46,0.02090
1363.68,0.02080
1357.89,0.02075
1352.1,0.02059
1346.32,0.02031
1340.53,0.02086
1334.75,0.02017
1328.96,0.02004
1323.17,0.01955
1317.39,0.01948
1311.6,0.01949
1305.81,0.01940
1300.03,0.01980
1294.24,0.01995
1288.45,0.02063
1282.67,0.02104
1276.88,0.02117
1271.09,0.02195
1265.31,0.02184
1259.52,0.02191
1253.73,0.02257
1247.95,0.02286
1242.16,0.02249
1236.38,0.02154
1230.59,0.02177
1224.8,0.02245
1219.02,0.02217
1213.23,0.02193
1207.44,0.02100
1201.66,0.02105
1195.87,0.02042
1190.08,0.02040
1184.3,0.02057
1178.51,0.02044
1172.72,0.02056
1166.94,0.01983
1161.15,0.01988
1155.36,0.02001
1149.58,0.01994
1143.79,0.01994
1138.01,0.01984
1132.22,0.02040
1126.43,0.02123
1120.65,0.02140
1114.86,0.02203
1109.07,0.02219
1103.29,0.02152
1097.5,0.02099
1091.71,0.02132
1085.93,0.02224
1080.14,0.02215
1074.35,0.02270
1068.57,0.02428
1062.78,0.02385
1056.99,0.02288
1051.21,0.02300
1045.42,0.02299
1039.64,0.02396
1033.85,0.02343
1028.06,0.02333
1022.28,0.02282
1016.49,0.02308
1010.7,0.02342
1004.92,0.02395
999.13,0.02437
993.344,0.02456
987.557,0.02430
981.771,0.02441
975.984,0.02388
970.198,0.02355
964.411,0.02368
958.625,0.02316
952.838,0.02319
947.052,0.02302
941.265,0.02271
935.479,0.02276
929.692,0.02194
923.906,0.02231
918.12,0.02230
912.333,0.02236
906.547,0.02247
900.76,0.02216
894.974,0.02225
889.187,0.02283
883.401,0.02216
877.614,0.02275
871.828,0.02234
866.041,0.02191
860.255,0.02206
854.468,0.02225
848.682,0.02159
842.895,0.02141
837.109,0.02167
831.323,0.02141
825.536,0.02169
819.75,0.02152
813.963,0.02112
808.177,0.02101
802.39,0.02164
796.604,0.02103
790.817,0.02053
785.031,0.02062
779.244,0.02141
773.458,0.02149
767.671,0.01993
761.885,0.02047
756.098,0.01997
750.312,0.01948
744.526,0.02009
738.739,0.02119
732.953,0.01913
727.166,0.02001
721.38,0.01982
715.593,0.01953
709.807,0.01844
704.02,0.01836
698.234,0.01945
692.447,0.02019
686.661,0.01864
680.874,0.01817
675.088,0.02005
669.301,0.01903
663.515,0.01791
657.729,0.01767
651.942,0.01810
646.156,0.01931
640.369,0.01826
634.583,0.01859
628.796,0.02052
623.01,0.01975
617.223,0.01917
611.437,0.01823
605.65,0.01793
599.864,0.01920