File: 01_Data/PEVA/FTIR/IS/PEVA_0.18_IS_Trans_S_240819_R9.dpt
7496.91,0.91951
7491.12,0.93883
7485.33,0.92634
7479.55,0.92146
7473.76,0.92414
7467.98,0.93528
7462.19,0.95137
7456.4,0.93618
7450.62,0.92537
7444.83,0.93895
7439.04,0.94045
7433.26,0.92649
7427.47,0.92802
7421.69,0.94192
7415.9,0.92646
7410.11,0.90490
7404.33,0.93109
7398.54,0.91094
7392.76,0.92055
7386.97,0.92833
7381.18,0.93931
7375.4,0.92153
7369.61,0.93010
7363.83,0.93032
7358.04,0.92896
7352.25,0.93762
7346.47,0.92185
7340.68,0.90242
7334.89,0.91725
7329.11,0.91107
7323.32,0.92422
7317.54,0.91867
7311.75,0.91176
7305.96,0.91528
7300.18,0.92371
7294.39,0.91968
7288.61,0.92475
7282.82,0.92468
7277.03,0.92437
7271.25,0.92943
7265.46,0.92341
7259.67,0.91711
7253.89,0.90626
7248.1,0.92387
7242.32,0.91420
7236.53,0.91611
7230.74,0.89256
7224.96,0.91108
7219.17,0.91922
7213.39,0.91850
7207.6,0.89931
7201.81,0.90207
7196.03,0.90979
7190.24,0.91170
7184.45,0.90323
7178.67,0.89918
7172.88,0.89608
7167.1,0.89921
7161.31,0.90096
7155.52,0.91141
7149.74,0.91509
7143.95,0.90602
7138.17,0.91066
7132.38,0.91283
7126.59,0.91758
7120.81,0.91338
7115.02,0.91280
7109.23,0.90845
7103.45,0.91276
7097.66,0.90460
7091.88,0.91176
7086.09,0.92037
7080.3,0.90987
7074.52,0.90332
7068.73,0.90531
7062.95,0.91505
7057.16,0.91310
7051.37,0.92030
7045.59,0.91695
7039.8,0.91717
7034.02,0.92365
7028.23,0.91915
7022.44,0.91550
7016.66,0.91640
7010.87,0.91463
7005.08,0.90849
6999.3,0.91477
6993.51,0.92254
6987.73,0.91906
6981.94,0.91484
6976.15,0.92010
6970.37,0.92394
6964.58,0.91173
6958.8,0.92328
6953.01,0.91834
6947.22,0.91472
6941.44,0.90787
6935.65,0.92055
6929.86,0.91945
6924.08,0.92536
6918.29,0.91516
6912.51,0.91917
6906.72,0.91976
6900.93,0.92393
6895.15,0.93128
6889.36,0.91814
6883.58,0.92000
6877.79,0.92106
6872,0.92020
6866.22,0.92425
6860.43,0.92702
6854.64,0.92798
6848.86,0.92217
6843.07,0.92439
6837.29,0.92979
6831.5,0.92830
6825.71,0.93126
6819.93,0.93094
6814.14,0.92540
6808.36,0.92862
6802.57,0.93695
6796.78,0.92495
6791,0.92741
6785.21,0.92562
6779.43,0.92226
6773.64,0.92681
6767.85,0.93014
6762.07,0.92501
6756.28,0.92624
6750.49,0.92537
6744.71,0.93597
6738.92,0.93757
6733.14,0.92685
6727.35,0.93263
6721.56,0.93361
6715.78,0.93930
6709.99,0.92769
6704.21,0.92767
6698.42,0.93483
6692.63,0.93529
6686.85,0.94178
6681.06,0.93452
6675.27,0.93835
6669.49,0.93044
6663.7,0.93052
6657.92,0.92702
6652.13,0.93007
6646.34,0.93677
6640.56,0.93647
6634.77,0.93467
6628.99,0.93529
6623.2,0.94026
6617.41,0.92941
6611.63,0.93010
6605.84,0.92956
6600.05,0.93061
6594.27,0.93873
6588.48,0.93748
6582.7,0.93189
6576.91,0.93508
6571.12,0.93228
6565.34,0.93209
6559.55,0.92636
6553.77,0.93534
6547.98,0.93671
6542.19,0.93373
6536.41,0.93215
6530.62,0.92730
6524.84,0.92990
6519.05,0.93401
6513.26,0.92824
6507.48,0.92678
6501.69,0.92778
6495.9,0.93325
6490.12,0.93345
6484.33,0.93736
6478.55,0.92605
6472.76,0.93001
6466.97,0.93002
6461.19,0.92807
6455.4,0.93052
6449.62,0.93839
6443.83,0.93263
6438.04,0.93152
6432.26,0.93531
6426.47,0.93135
6420.68,0.93416
6414.9,0.93047
6409.11,0.93160
6403.33,0.93321
6397.54,0.93553
6391.75,0.93458
6385.97,0.93691
6380.18,0.93699
6374.4,0.93288
6368.61,0.93001
6362.82,0.93568
6357.04,0.93538
6351.25,0.93658
6345.46,0.93550
6339.68,0.93829
6333.89,0.93689
6328.11,0.93678
6322.32,0.93877
6316.53,0.93148
6310.75,0.93260
6304.96,0.93418
6299.18,0.93641
6293.39,0.93254
6287.6,0.93699
6281.82,0.93684
6276.03,0.93491
6270.24,0.93888
6264.46,0.93455
6258.67,0.93831
6252.89,0.93506
6247.1,0.93084
6241.31,0.93393
6235.53,0.94001
6229.74,0.93030
6223.96,0.93357
6218.17,0.92922
6212.38,0.93731
6206.6,0.93995
6200.81,0.92875
6195.03,0.92705
6189.24,0.93046
6183.45,0.92756
6177.67,0.93667
6171.88,0.93558
6166.09,0.93588
6160.31,0.93086
6154.52,0.92941
6148.74,0.93089
6142.95,0.93484
6137.16,0.93395
6131.38,0.92729
6125.59,0.93021
6119.81,0.92728
6114.02,0.92989
6108.23,0.92655
6102.45,0.92807
6096.66,0.93086
6090.87,0.92790
6085.09,0.93138
6079.3,0.92837
6073.52,0.92602
6067.73,0.92927
6061.94,0.92878
6056.16,0.92696
6050.37,0.92847
6044.59,0.92570
6038.8,0.92371
6033.01,0.92194
6027.23,0.92571
6021.44,0.92610
6015.65,0.91800
6009.87,0.92051
6004.08,0.91765
5998.3,0.91691
5992.51,0.91599
5986.72,0.92006
5980.94,0.91452
5975.15,0.91697
5969.37,0.91808
5963.58,0.91127
5957.79,0.91241
5952.01,0.91146
5946.22,0.91241
5940.44,0.91223
5934.65,0.91318
5928.86,0.90905
5923.08,0.90341
5917.29,0.90464
5911.5,0.90697
5905.72,0.90408
5899.93,0.90643
5894.15,0.90105
5888.36,0.89579
5882.57,0.88998
5876.79,0.88481
5871,0.88065
5865.22,0.87034
5859.43,0.86393
5853.64,0.85442
5847.86,0.84514
5842.07,0.83941
5836.28,0.83133
5830.5,0.82405
5824.71,0.81337
5818.93,0.80255
5813.14,0.79630
5807.35,0.78712
5801.57,0.77771
5795.78,0.76385
5790,0.74652
5784.21,0.72893
5778.42,0.71336
5772.64,0.71584
5766.85,0.74230
5761.06,0.78076
5755.28,0.80258
5749.49,0.82091
5743.71,0.83682
5737.92,0.84269
5732.13,0.84657
5726.35,0.85580
5720.56,0.85683
5714.78,0.85506
5708.99,0.85162
5703.2,0.85052
5697.42,0.84371
5691.63,0.83726
5685.84,0.83116
5680.06,0.82293
5674.27,0.82009
5668.49,0.81414
5662.7,0.81343
5656.91,0.82363
5651.13,0.83898
5645.34,0.85180
5639.56,0.85281
5633.77,0.85799
5627.98,0.86099
5622.2,0.86565
5616.41,0.86681
5610.63,0.86773
5604.84,0.87313
5599.05,0.87241
5593.27,0.87380
5587.48,0.87277
5581.69,0.87309
5575.91,0.87020
5570.12,0.86906
5564.34,0.87174
5558.55,0.86930
5552.76,0.86649
5546.98,0.86988
5541.19,0.87118
5535.41,0.86860
5529.62,0.87253
5523.83,0.86887
5518.05,0.86734
5512.26,0.87215
5506.47,0.86331
5500.69,0.86736
5494.9,0.86517
5489.12,0.86227
5483.33,0.87385
5477.54,0.86830
5471.76,0.87038
5465.97,0.86993
5460.19,0.86809
5454.4,0.87523
5448.61,0.86912
5442.83,0.86325
5437.04,0.87134
5431.25,0.86570
5425.47,0.87302
5419.68,0.88424
5413.9,0.86515
5408.11,0.87523
5402.32,0.88509
5396.54,0.87666
5390.75,0.88357
5384.97,0.87933
5379.18,0.88326
5373.39,0.88229
5367.61,0.89168
5361.82,0.88873
5356.04,0.88426
5350.25,0.88166
5344.46,0.86950
5338.68,0.87469
5332.89,0.88742
5327.1,0.88561
5321.32,0.89806
5315.53,0.89577
5309.75,0.89426
5303.96,0.89508
5298.17,0.89677
5292.39,0.89391
5286.6,0.89123
5280.82,0.89206
5275.03,0.89956
5269.24,0.89342
5263.46,0.88176
5257.67,0.89385
5251.88,0.89056
5246.1,0.87807
5240.31,0.89734
5234.53,0.89423
5228.74,0.89253
5222.95,0.89019
5217.17,0.89407
5211.38,0.89619
5205.6,0.87878
5199.81,0.89539
5194.02,0.89759
5188.24,0.89548
5182.45,0.89649
5176.66,0.89506
5170.88,0.89606
5165.09,0.89535
5159.31,0.89585
5153.52,0.89576
5147.73,0.90080
5141.95,0.89672
5136.16,0.89933
5130.38,0.90188
5124.59,0.90321
5118.8,0.90098
5113.02,0.90288
5107.23,0.90321
5101.45,0.90268
5095.66,0.90258
5089.87,0.90311
5084.09,0.90419
5078.3,0.90431
5072.51,0.90416
5066.73,0.90545
5060.94,0.90412
5055.16,0.90574
5049.37,0.90428
5043.58,0.90514
5037.8,0.90609
5032.01,0.90510
5026.23,0.90621
5020.44,0.90577
5014.65,0.90438
5008.87,0.90397
5003.08,0.90390
4997.29,0.90356
4991.51,0.90262
4985.72,0.90070
4979.94,0.90095
4974.15,0.90139
4968.36,0.90062
4962.58,0.90090
4956.79,0.90408
4951.01,0.90366
4945.22,0.90375
4939.43,0.90624
4933.65,0.90724
4927.86,0.90704
4922.07,0.90591
4916.29,0.90615
4910.5,0.90681
4904.72,0.90550
4898.93,0.90509
4893.14,0.90603
4887.36,0.90447
4881.57,0.90545
4875.79,0.90515
4870,0.90535
4864.21,0.90599
4858.43,0.90592
4852.64,0.90740
4846.85,0.90790
4841.07,0.90665
4835.28,0.90817
4829.5,0.90927
4823.71,0.90911
4817.92,0.90994
4812.14,0.90985
4806.35,0.91050
4800.57,0.90974
4794.78,0.91154
4788.99,0.91154
4783.21,0.91134
4777.42,0.90927
4771.64,0.90909
4765.85,0.90836
4760.06,0.90872
4754.28,0.90801
4748.49,0.90971
4742.7,0.90880
4736.92,0.90987
4731.13,0.91055
4725.35,0.90895
4719.56,0.90894
4713.77,0.90908
4707.99,0.90921
4702.2,0.90584
4696.42,0.90534
4690.63,0.90515
4684.84,0.90107
4679.06,0.89930
4673.27,0.89883
4667.48,0.89974
4661.7,0.90295
4655.91,0.90582
4650.13,0.90809
4644.34,0.90846
4638.55,0.90937
4632.77,0.90908
4626.98,0.91065
4621.2,0.90993
4615.41,0.91089
4609.62,0.91083
4603.84,0.91024
4598.05,0.91016
4592.26,0.90935
4586.48,0.90949
4580.69,0.90926
4574.91,0.91010
4569.12,0.90934
4563.33,0.90865
4557.55,0.90743
4551.76,0.90749
4545.98,0.90597
4540.19,0.90487
4534.4,0.90293
4528.62,0.90320
4522.83,0.90078
4517.05,0.89845
4511.26,0.89650
4505.47,0.89462
4499.69,0.89201
4493.9,0.88859
4488.11,0.88467
4482.33,0.88094
4476.54,0.87781
4470.76,0.87261
4464.97,0.86903
4459.18,0.86351
4453.4,0.85581
4447.61,0.84536
4441.83,0.83618
4436.04,0.82496
4430.25,0.81892
4424.47,0.81245
4418.68,0.80451
4412.89,0.79547
4407.11,0.78353
4401.32,0.76858
4395.54,0.75289
4389.75,0.73438
4383.96,0.71500
4378.18,0.69413
4372.39,0.67119
4366.61,0.64380
4360.82,0.61403
4355.03,0.57198
4349.25,0.51246
4343.46,0.44530
4337.67,0.39482
4331.89,0.34733
4326.1,0.27957
4320.32,0.28431
4314.53,0.44142
4308.74,0.55097
4302.96,0.59626
4297.17,0.60921
4291.39,0.60416
4285.6,0.59103
4279.81,0.57527
4274.03,0.55226
4268.24,0.51338
4262.46,0.45495
4256.67,0.38547
4250.88,0.36309
4245.1,0.45280
4239.31,0.52062
4233.52,0.53270
4227.74,0.51717
4221.95,0.49939
4216.17,0.50084
4210.38,0.50391
4204.59,0.49347
4198.81,0.46899
4193.02,0.45224
4187.24,0.45071
4181.45,0.45384
4175.66,0.45738
4169.88,0.46226
4164.09,0.46602
4158.3,0.47047
4152.52,0.47361
4146.73,0.47769
4140.95,0.48277
4135.16,0.48933
4129.37,0.49427
4123.59,0.49777
4117.8,0.49947
4112.02,0.50145
4106.23,0.50016
4100.44,0.50226
4094.66,0.51002
4088.87,0.53059
4083.08,0.55490
4077.3,0.57220
4071.51,0.58375
4065.73,0.59300
4059.94,0.60073
4054.15,0.60810
4048.37,0.61460
4042.58,0.62132
4036.8,0.62926
4031.01,0.63231
4025.22,0.63219
4019.44,0.64220
4013.65,0.66765
4007.86,0.68152
4002.08,0.68873
3996.29,0.68832
3990.51,0.68657
3984.72,0.68523
3978.93,0.68141
3973.15,0.68145
3967.36,0.69122
3961.58,0.69497
3955.79,0.69895
3950,0.69217
3944.22,0.69303
3938.43,0.70039
3932.65,0.68494
3926.86,0.68425
3921.07,0.68184
3915.29,0.68401
3909.5,0.69395
3903.71,0.66034
3897.93,0.67997
3892.14,0.67951
3886.36,0.68237
3880.57,0.67867
3874.78,0.68536
3869,0.67530
3863.21,0.68423
3857.43,0.69704
3851.64,0.67937
3845.85,0.71143
3840.07,0.67580
3834.28,0.69315
3828.49,0.70770
3822.71,0.68807
3816.92,0.69042
3811.14,0.72636
3805.35,0.70947
3799.56,0.70687
3793.78,0.74492
3787.99,0.75180
3782.21,0.74502
3776.42,0.75580
3770.63,0.74545
3764.85,0.74825
3759.06,0.73708
3753.27,0.71960
3747.49,0.70522
3741.7,0.72555
3735.92,0.69736
3730.13,0.73429
3724.34,0.72865
3718.56,0.74956
3712.77,0.72708
3706.99,0.74067
3701.2,0.73744
3695.41,0.73675
3689.63,0.69189
3683.84,0.73030
3678.06,0.70237
3672.27,0.69294
3666.48,0.72030
3660.7,0.72166
3654.91,0.69425
3649.12,0.63961
3643.34,0.68341
3637.55,0.69930
3631.77,0.68968
3625.98,0.69481
3620.19,0.68391
3614.41,0.66679
3608.62,0.64701
3602.84,0.65028
3597.05,0.68813
3591.26,0.74080
3585.48,0.75528
3579.69,0.78391
3573.9,0.79004
3568.12,0.76448
3562.33,0.78612
3556.55,0.80376
3550.76,0.79906
3544.97,0.79288
3539.19,0.81342
3533.4,0.81397
3527.62,0.80191
3521.83,0.80926
3516.04,0.81944
3510.26,0.81136
3504.47,0.80657
3498.68,0.81276
3492.9,0.81199
3487.11,0.80361
3481.33,0.78752
3475.54,0.76526
3469.75,0.72361
3463.97,0.67547
3458.18,0.65346
3452.4,0.66429
3446.61,0.68928
3440.82,0.73214
3435.04,0.76395
3429.25,0.78290
3423.47,0.79060
3417.68,0.79877
3411.89,0.80508
3406.11,0.80593
3400.32,0.80441
3394.53,0.80169
3388.75,0.80238
3382.96,0.79817
3377.18,0.79615
3371.39,0.79463
3365.6,0.79495
3359.82,0.79813
3354.03,0.80391
3348.25,0.81012
3342.46,0.81250
3336.67,0.81328
3330.89,0.81626
3325.1,0.81546
3319.31,0.81841
3313.53,0.81866
3307.74,0.81877
3301.96,0.81863
3296.17,0.81745
3290.38,0.81724
3284.6,0.81778
3278.81,0.81526
3273.03,0.81422
3267.24,0.81460
3261.45,0.81269
3255.67,0.81029
3249.88,0.81151
3244.09,0.80640
3238.31,0.80466
3232.52,0.80145
3226.74,0.79733
3220.95,0.79303
3215.16,0.78766
3209.38,0.78165
3203.59,0.77707
3197.81,0.76897
3192.02,0.76553
3186.23,0.75995
3180.45,0.75501
3174.66,0.75041
3168.87,0.74552
3163.09,0.73971
3157.3,0.73490
3151.52,0.72850
3145.73,0.72143
3139.94,0.71533
3134.16,0.70496
3128.37,0.69275
3122.59,0.67880
3116.8,0.66274
3111.01,0.64393
3105.23,0.61943
3099.44,0.58491
3093.66,0.54398
3087.87,0.50670
3082.08,0.48094
3076.3,0.45983
3070.51,0.44008
3064.72,0.41592
3058.94,0.39115
3053.15,0.36426
3047.37,0.33354
3041.58,0.30062
3035.79,0.26498
3030.01,0.23105
3024.22,0.20256
3018.44,0.17817
3012.65,0.15947
3006.86,0.14141
3001.08,0.11874
2995.29,0.09009
2989.5,0.06043
2983.72,0.03382
2977.93,0.01315
2972.15,0.00332
2966.36,0.00055
2960.57,0.00037
2954.79,0.00038
2949,0.00059
2943.22,0.00035
2937.43,0.00058
2931.64,0.00045
2925.86,0.00087
2920.07,0.00113
2914.28,0.00072
2908.5,0.00094
2902.71,0.00047
2896.93,0.00086
2891.14,0.00052
2885.35,0.00061
2879.57,0.00066
2873.78,0.00079
2868,0.00038
2862.21,0.00046
2856.42,0.00051
2850.64,0.00073
2844.85,0.00021
2839.07,0.00060
2833.28,0.00085
2827.49,0.00299
2821.71,0.00848
2815.92,0.01970
2810.13,0.03533
2804.35,0.05539
2798.56,0.08064
2792.78,0.10959
2786.99,0.14335
2781.2,0.17947
2775.42,0.21154
2769.63,0.23530
2763.85,0.25103
2758.06,0.26353
2752.27,0.27339
2746.49,0.27743
2740.7,0.27773
2734.91,0.28271
2729.13,0.29418
2723.34,0.30911
2717.56,0.32287
2711.77,0.33542
2705.98,0.34494
2700.2,0.35007
2694.41,0.34263
2688.63,0.32774
2682.84,0.31605
2677.05,0.31021
2671.27,0.30838
2665.48,0.31297
2659.69,0.32187
2653.91,0.33130
2648.12,0.34001
2642.34,0.34344
2636.55,0.34509
2630.76,0.35963
2624.98,0.38471
2619.19,0.40963
2613.41,0.43370
2607.62,0.45625
2601.83,0.47718
2596.05,0.49620
2590.26,0.51811
2584.47,0.54338
2578.69,0.56659
2572.9,0.58630
2567.12,0.60504
2561.33,0.61988
2555.54,0.62870
2549.76,0.63644
2543.97,0.65283
2538.19,0.66242
2532.4,0.65639
2526.61,0.65933
2520.83,0.67637
2515.04,0.69022
2509.26,0.69995
2503.47,0.70465
2497.68,0.70333
2491.9,0.70126
2486.11,0.69792
2480.32,0.69262
2474.54,0.68971
2468.75,0.70677
2462.97,0.72296
2457.18,0.73558
2451.39,0.74710
2445.61,0.75583
2439.82,0.75789
2434.04,0.75709
2428.25,0.75541
2422.46,0.74668
2416.68,0.73692
2410.89,0.73960
2405.1,0.74356
2399.32,0.74337
2393.53,0.74403
2387.75,0.74394
2381.96,0.71791
2376.17,0.65764
2370.39,0.59805
2364.6,0.55083
2358.82,0.53028
2353.03,0.55695
2347.24,0.57410
2341.46,0.53168
2335.67,0.53373
2329.88,0.53833
2324.1,0.55722
2318.31,0.58827
2312.53,0.61920
2306.74,0.64925
2300.95,0.67484
2295.17,0.69502
2289.38,0.71364
2283.6,0.72559
2277.81,0.72589
2272.02,0.73153
2266.24,0.74225
2260.45,0.74593
2254.67,0.74915
2248.88,0.75575
2243.09,0.76355
2237.31,0.77685
2231.52,0.79029
2225.73,0.79519
2219.95,0.79334
2214.16,0.79346
2208.38,0.79312
2202.59,0.78794
2196.8,0.77795
2191.02,0.77033
2185.23,0.76322
2179.45,0.75500
2173.66,0.74923
2167.87,0.74654
2162.09,0.74230
2156.3,0.73823
2150.51,0.74011
2144.73,0.75117
2138.94,0.76309
2133.16,0.77482
2127.37,0.78614
2121.58,0.79183
2115.8,0.79201
2110.01,0.79483
2104.23,0.79770
2098.44,0.79515
2092.65,0.79299
2086.87,0.79394
2081.08,0.79259
2075.29,0.78678
2069.51,0.78398
2063.72,0.77833
2057.94,0.77113
2052.15,0.76145
2046.36,0.75368
2040.58,0.73991
2034.79,0.72776
2029.01,0.71575
2023.22,0.69989
2017.43,0.69080
2011.65,0.72985
2005.86,0.76346
2000.08,0.77799
1994.29,0.78189
1988.5,0.79194
1982.72,0.80182
1976.93,0.79838
1971.14,0.79453
1965.36,0.78889
1959.57,0.78830
1953.79,0.78194
1948,0.78128
1942.21,0.77248
1936.43,0.77887
1930.64,0.77595
1924.86,0.76791
1919.07,0.75431
1913.28,0.75081
1907.5,0.73600
1901.71,0.72564
1895.92,0.70526
1890.14,0.70611
1884.35,0.72181
1878.57,0.71625
1872.78,0.70075
1866.99,0.67783
1861.21,0.69492
1855.42,0.69733
1849.64,0.69568
1843.85,0.67567
1838.06,0.67746
1832.28,0.65663
1826.49,0.63072
1820.7,0.61801
1814.92,0.59696
1809.13,0.57128
1803.35,0.54621
1797.56,0.50723
1791.77,0.46310
1785.99,0.43534
1780.2,0.38279
1774.42,0.32288
1768.63,0.22708
1762.84,0.12675
1757.06,0.04952
1751.27,0.00785
1745.48,0.00066
1739.7,0.00046
1733.91,0.00022
1728.13,0.00060
1722.34,0.01244
1716.55,0.07015
1710.77,0.14966
1704.98,0.19254
1699.2,0.19655
1693.41,0.26169
1687.62,0.33890
1681.84,0.42505
1676.05,0.47405
1670.27,0.49039
1664.48,0.52092
1658.69,0.52246
1652.91,0.47400
1647.12,0.45848
1641.33,0.54700
1635.55,0.57524
1629.76,0.62746
1623.98,0.62575
1618.19,0.63063
1612.4,0.65339
1606.62,0.65463
1600.83,0.65385
1595.05,0.64992
1589.26,0.65132
1583.47,0.64511
1577.69,0.61663
1571.9,0.60987
1566.11,0.59287
1560.33,0.55945
1554.54,0.56421
1548.76,0.57144
1542.97,0.52084
1537.18,0.53351
1531.4,0.53018
1525.61,0.50069
1519.83,0.47473
1514.04,0.47542
1508.25,0.42845
1502.47,0.42628
1496.68,0.37918
1490.89,0.32997
1485.11,0.24315
1479.32,0.10988
1473.54,0.00553
1467.75,0.00019
1461.96,0.00038
1456.18,0.00055
1450.39,0.00479
1444.61,0.00947
1438.82,0.01146
1433.03,0.02301
1427.25,0.06553
1421.46,0.13424
1415.68,0.21527
1409.89,0.26634
1404.1,0.28298
1398.32,0.25563
1392.53,0.18166
1386.74,0.07634
1380.96,0.01094
1375.17,0.00074
1369.39,0.00059
1363.6,0.00228
1357.81,0.01335
1352.03,0.03875
1346.24,0.11872
1340.46,0.21807
1334.67,0.30608
1328.88,0.32425
1323.1,0.29557
1317.31,0.24289
1311.52,0.19304
1305.74,0.15976
1299.95,0.13989
1294.17,0.12600
1288.38,0.10652
1282.59,0.07644
1276.81,0.04315
1271.02,0.01551
1265.24,0.00213
1259.45,0.00038
1253.66,0.00024
1247.88,0.00050
1242.09,0.00005
1236.3,0.00048
1230.52,0.00069
1224.73,0.00052
1218.95,0.00401
1213.16,0.01762
1207.37,0.04846
1201.59,0.09026
1195.8,0.13017
1190.02,0.16484
1184.23,0.19096
1178.44,0.20698
1172.66,0.22116
1166.87,0.22245
1161.09,0.20903
1155.3,0.17911
1149.51,0.14499
1143.73,0.13412
1137.94,0.13103
1132.15,0.12219
1126.37,0.12014
1120.58,0.13135
1114.8,0.14523
1109.01,0.15754
1103.22,0.16161
1097.44,0.15656
1091.65,0.14275
1085.87,0.12582
1080.08,0.10920
1074.29,0.09467
1068.51,0.08144
1062.72,0.07556
1056.93,0.06566
1051.15,0.04560
1045.36,0.02892
1039.58,0.02478
1033.79,0.01387
1028,0.00343
1022.22,0.00042
1016.43,0.00154
1010.65,0.02046
1004.86,0.08319
999.073,0.15728
993.287,0.20705
987.501,0.23211
981.715,0.23403
975.929,0.21506
970.142,0.18268
964.356,0.15234
958.57,0.14166
952.784,0.15195
946.998,0.17307
941.212,0.18032
935.426,0.18992
929.64,0.27672
923.853,0.38596
918.067,0.43853
912.281,0.45805
906.495,0.47421
900.709,0.48443
894.923,0.48055
889.137,0.48689
883.35,0.50057
877.564,0.50216
871.778,0.49592
865.992,0.50205
860.206,0.51970
854.42,0.52992
848.634,0.55306
842.847,0.57298
837.061,0.58357
831.275,0.60078
825.489,0.61996
819.703,0.61419
813.917,0.59776
808.131,0.58651
802.344,0.57141
796.558,0.56784
790.772,0.59994
784.986,0.62577
779.2,0.60615
773.414,0.58522
767.628,0.58017
761.842,0.56493
756.055,0.52972
750.269,0.49296
744.483,0.42673
738.697,0.30799
732.911,0.10154
727.125,0.01157
721.339,0.00204
715.552,0.04892
709.766,0.27108
703.98,0.47339
698.194,0.61557
692.408,0.69599
686.622,0.70951
680.836,0.74192
675.049,0.74816
669.263,0.67245
663.477,0.73542
657.691,0.71596
651.905,0.63705
646.119,0.56475
640.333,0.57043
634.546,0.56721
628.76,0.48863
622.974,0.54176
617.188,0.51642
611.402,0.27000
605.616,0.27302
599.83,0.51853