File: 01_Data/PEVA/FTIR/IS/PEVA_0.26_IS_S_240809_R9.dpt
7497.2,0.10694
7491.41,0.09710
7485.63,0.10026
7479.84,0.09955
7474.05,0.10339
7468.27,0.10204
7462.48,0.11430
7456.7,0.10522
7450.91,0.12265
7445.12,0.10513
7439.34,0.09975
7433.55,0.11040
7427.76,0.10080
7421.98,0.10175
7416.19,0.10921
7410.4,0.09883
7404.62,0.10775
7398.83,0.10520
7393.05,0.09419
7387.26,0.10802
7381.47,0.10818
7375.69,0.10296
7369.9,0.10175
7364.11,0.09456
7358.33,0.09840
7352.54,0.11287
7346.75,0.10845
7340.97,0.09863
7335.18,0.09976
7329.4,0.10395
7323.61,0.10052
7317.82,0.09892
7312.04,0.09643
7306.25,0.09821
7300.46,0.10420
7294.68,0.10798
7288.89,0.10941
7283.1,0.10630
7277.32,0.10501
7271.53,0.09596
7265.75,0.10562
7259.96,0.09572
7254.17,0.11297
7248.39,0.10877
7242.6,0.09588
7236.81,0.10906
7231.03,0.10871
7225.24,0.10545
7219.45,0.09811
7213.67,0.10727
7207.88,0.09502
7202.1,0.09802
7196.31,0.09891
7190.52,0.10017
7184.74,0.09874
7178.95,0.10088
7173.16,0.10057
7167.38,0.10340
7161.59,0.09730
7155.8,0.11018
7150.02,0.10277
7144.23,0.09872
7138.45,0.10190
7132.66,0.10391
7126.87,0.10273
7121.09,0.10463
7115.3,0.11013
7109.51,0.10571
7103.73,0.09320
7097.94,0.10019
7092.15,0.10013
7086.37,0.10293
7080.58,0.09777
7074.8,0.10576
7069.01,0.10608
7063.22,0.10481
7057.44,0.09868
7051.65,0.10774
7045.86,0.10263
7040.08,0.10482
7034.29,0.10191
7028.5,0.09930
7022.72,0.11105
7016.93,0.09819
7011.15,0.09660
7005.36,0.09922
6999.57,0.10168
6993.79,0.10162
6988,0.10377
6982.21,0.11024
6976.43,0.10355
6970.64,0.09945
6964.85,0.10644
6959.07,0.09861
6953.28,0.10234
6947.5,0.10561
6941.71,0.10532
6935.92,0.10693
6930.14,0.10551
6924.35,0.10185
6918.56,0.10489
6912.78,0.10449
6906.99,0.10575
6901.2,0.10116
6895.42,0.10338
6889.63,0.10015
6883.85,0.09367
6878.06,0.09960
6872.27,0.10150
6866.49,0.10059
6860.7,0.10202
6854.91,0.10629
6849.13,0.09893
6843.34,0.10214
6837.55,0.09978
6831.77,0.10486
6825.98,0.10376
6820.2,0.10065
6814.41,0.09904
6808.62,0.10158
6802.84,0.10469
6797.05,0.10137
6791.26,0.10443
6785.48,0.10488
6779.69,0.10291
6773.9,0.10567
6768.12,0.10745
6762.33,0.10400
6756.55,0.10197
6750.76,0.11010
6744.97,0.09959
6739.19,0.09865
6733.4,0.10070
6727.61,0.10316
6721.83,0.10498
6716.04,0.10754
6710.25,0.09840
6704.47,0.10555
6698.68,0.10189
6692.9,0.11118
6687.11,0.10669
6681.32,0.09877
6675.54,0.09589
6669.75,0.09802
6663.96,0.10257
6658.18,0.10085
6652.39,0.10761
6646.6,0.10138
6640.82,0.10442
6635.03,0.10737
6629.25,0.10405
6623.46,0.10927
6617.67,0.09787
6611.89,0.10136
6606.1,0.10692
6600.31,0.10200
6594.53,0.10049
6588.74,0.10071
6582.95,0.10216
6577.17,0.10007
6571.38,0.10377
6565.6,0.10993
6559.81,0.10436
6554.02,0.10275
6548.24,0.10208
6542.45,0.09935
6536.66,0.10481
6530.88,0.10526
6525.09,0.10182
6519.3,0.10229
6513.52,0.10376
6507.73,0.10292
6501.95,0.10249
6496.16,0.10176
6490.37,0.09812
6484.59,0.10363
6478.8,0.10557
6473.01,0.10296
6467.23,0.10526
6461.44,0.10654
6455.65,0.10447
6449.87,0.10113
6444.08,0.09957
6438.3,0.10635
6432.51,0.10622
6426.72,0.10375
6420.94,0.10537
6415.15,0.10364
6409.36,0.10461
6403.58,0.10558
6397.79,0.10663
6392,0.10805
6386.22,0.10166
6380.43,0.10750
6374.65,0.10387
6368.86,0.10368
6363.07,0.09909
6357.29,0.10206
6351.5,0.10522
6345.71,0.10166
6339.93,0.10712
6334.14,0.10282
6328.35,0.10213
6322.57,0.10471
6316.78,0.10124
6310.99,0.10385
6305.21,0.10813
6299.42,0.10370
6293.64,0.10260
6287.85,0.10100
6282.06,0.10698
6276.28,0.10628
6270.49,0.10880
6264.7,0.10104
6258.92,0.10252
6253.13,0.10262
6247.34,0.10233
6241.56,0.10554
6235.77,0.10062
6229.99,0.10201
6224.2,0.10157
6218.41,0.10367
6212.63,0.10335
6206.84,0.09765
6201.05,0.10295
6195.27,0.10090
6189.48,0.10442
6183.69,0.09974
6177.91,0.10074
6172.12,0.10197
6166.34,0.10515
6160.55,0.10158
6154.76,0.10657
6148.98,0.10440
6143.19,0.10542
6137.4,0.10507
6131.62,0.10549
6125.83,0.10263
6120.04,0.10040
6114.26,0.10146
6108.47,0.10343
6102.69,0.09949
6096.9,0.10424
6091.11,0.10418
6085.33,0.10291
6079.54,0.09968
6073.75,0.10243
6067.97,0.10494
6062.18,0.10389
6056.39,0.09887
6050.61,0.09929
6044.82,0.09951
6039.04,0.09939
6033.25,0.09882
6027.46,0.10275
6021.68,0.10277
6015.89,0.09949
6010.1,0.09833
6004.32,0.09922
5998.53,0.10208
5992.74,0.09896
5986.96,0.09902
5981.17,0.10079
5975.39,0.10372
5969.6,0.10317
5963.81,0.10255
5958.03,0.10156
5952.24,0.10151
5946.45,0.10074
5940.67,0.09972
5934.88,0.10029
5929.09,0.10128
5923.31,0.09517
5917.52,0.09565
5911.74,0.09305
5905.95,0.09880
5900.16,0.09539
5894.38,0.09561
5888.59,0.09177
5882.8,0.09149
5877.02,0.09106
5871.23,0.09187
5865.44,0.09183
5859.66,0.09527
5853.87,0.09057
5848.09,0.08986
5842.3,0.08790
5836.51,0.08753
5830.73,0.08791
5824.94,0.09039
5819.15,0.08670
5813.37,0.09209
5807.58,0.08843
5801.79,0.09021
5796.01,0.09142
5790.22,0.09161
5784.44,0.09196
5778.65,0.09401
5772.86,0.09222
5767.08,0.09479
5761.29,0.09473
5755.5,0.09609
5749.72,0.09261
5743.93,0.09392
5738.14,0.09337
5732.36,0.09418
5726.57,0.09549
5720.79,0.09477
5715,0.09814
5709.21,0.09473
5703.43,0.09372
5697.64,0.09368
5691.85,0.09309
5686.07,0.09456
5680.28,0.09570
5674.49,0.09555
5668.71,0.09594
5662.92,0.09550
5657.14,0.09574
5651.35,0.09725
5645.56,0.09892
5639.78,0.09855
5633.99,0.09663
5628.2,0.09714
5622.42,0.09710
5616.63,0.09578
5610.84,0.09791
5605.06,0.09665
5599.27,0.09875
5593.49,0.09729
5587.7,0.09952
5581.91,0.09720
5576.13,0.10023
5570.34,0.09963
5564.55,0.09790
5558.77,0.09973
5552.98,0.09687
5547.19,0.09717
5541.41,0.10151
5535.62,0.10129
5529.84,0.10142
5524.05,0.10002
5518.26,0.10020
5512.48,0.09839
5506.69,0.10075
5500.9,0.10091
5495.12,0.10098
5489.33,0.09802
5483.54,0.09960
5477.76,0.10207
5471.97,0.10224
5466.19,0.10124
5460.4,0.10193
5454.61,0.09901
5448.83,0.10116
5443.04,0.09982
5437.25,0.10097
5431.47,0.10109
5425.68,0.10242
5419.89,0.10229
5414.11,0.10367
5408.32,0.10082
5402.54,0.10157
5396.75,0.10102
5390.96,0.10145
5385.18,0.09825
5379.39,0.10088
5373.6,0.10163
5367.82,0.10190
5362.03,0.10027
5356.24,0.10149
5350.46,0.10144
5344.67,0.10042
5338.89,0.09905
5333.1,0.10126
5327.31,0.10155
5321.53,0.10168
5315.74,0.10194
5309.95,0.10290
5304.17,0.10143
5298.38,0.10263
5292.59,0.10290
5286.81,0.10126
5281.02,0.10035
5275.24,0.10303
5269.45,0.10259
5263.66,0.10080
5257.88,0.10334
5252.09,0.10157
5246.3,0.10341
5240.52,0.10292
5234.73,0.10264
5228.94,0.10133
5223.16,0.10348
5217.37,0.10313
5211.59,0.10377
5205.8,0.10381
5200.01,0.10277
5194.23,0.10261
5188.44,0.10342
5182.65,0.10328
5176.87,0.10291
5171.08,0.10359
5165.29,0.10409
5159.51,0.10257
5153.72,0.10243
5147.94,0.10338
5142.15,0.10474
5136.36,0.10533
5130.58,0.10427
5124.79,0.10427
5119,0.10268
5113.22,0.10269
5107.43,0.10313
5101.64,0.10382
5095.86,0.10312
5090.07,0.10322
5084.29,0.10418
5078.5,0.10372
5072.71,0.10433
5066.93,0.10297
5061.14,0.10223
5055.35,0.10444
5049.57,0.10290
5043.78,0.10475
5037.99,0.10355
5032.21,0.10351
5026.42,0.10373
5020.64,0.10418
5014.85,0.10392
5009.06,0.10527
5003.28,0.10400
4997.49,0.10389
4991.7,0.10304
4985.92,0.10346
4980.13,0.10339
4974.34,0.10436
4968.56,0.10389
4962.77,0.10320
4956.99,0.10543
4951.2,0.10467
4945.41,0.10484
4939.63,0.10353
4933.84,0.10287
4928.05,0.10409
4922.27,0.10382
4916.48,0.10424
4910.69,0.10367
4904.91,0.10419
4899.12,0.10536
4893.34,0.10447
4887.55,0.10526
4881.76,0.10391
4875.98,0.10340
4870.19,0.10403
4864.4,0.10412
4858.62,0.10365
4852.83,0.10515
4847.04,0.10364
4841.26,0.10487
4835.47,0.10344
4829.69,0.10404
4823.9,0.10368
4818.11,0.10415
4812.33,0.10325
4806.54,0.10410
4800.75,0.10372
4794.97,0.10362
4789.18,0.10343
4783.39,0.10403
4777.61,0.10388
4771.82,0.10498
4766.04,0.10451
4760.25,0.10407
4754.46,0.10382
4748.68,0.10404
4742.89,0.10415
4737.1,0.10440
4731.32,0.10413
4725.53,0.10355
4719.74,0.10239
4713.96,0.10294
4708.17,0.10217
4702.39,0.10165
4696.6,0.10185
4690.81,0.10077
4685.03,0.10036
4679.24,0.10108
4673.45,0.10179
4667.67,0.10252
4661.88,0.10207
4656.09,0.10226
4650.31,0.10188
4644.52,0.10227
4638.74,0.10121
4632.95,0.10088
4627.16,0.10117
4621.38,0.10253
4615.59,0.10248
4609.8,0.10268
4604.02,0.10254
4598.23,0.10397
4592.44,0.10352
4586.66,0.10376
4580.87,0.10293
4575.09,0.10199
4569.3,0.10264
4563.51,0.10284
4557.73,0.10353
4551.94,0.10267
4546.15,0.10245
4540.37,0.10185
4534.58,0.10361
4528.79,0.10303
4523.01,0.10304
4517.22,0.10208
4511.44,0.10231
4505.65,0.10246
4499.86,0.10108
4494.08,0.10051
4488.29,0.10125
4482.5,0.10120
4476.72,0.09971
4470.93,0.09960
4465.14,0.09897
4459.36,0.09801
4453.57,0.09804
4447.79,0.09706
4442,0.09456
4436.21,0.09248
4430.43,0.09122
4424.64,0.09008
4418.85,0.08688
4413.07,0.08563
4407.28,0.08467
4401.49,0.08289
4395.71,0.08263
4389.92,0.08129
4384.14,0.08122
4378.35,0.07936
4372.56,0.07719
4366.78,0.07585
4360.99,0.07447
4355.2,0.07193
4349.42,0.07093
4343.63,0.06990
4337.84,0.06979
4332.06,0.06912
4326.27,0.06908
4320.49,0.07100
4314.7,0.07289
4308.91,0.07435
4303.13,0.07466
4297.34,0.07497
4291.55,0.07512
4285.77,0.07399
4279.98,0.07414
4274.19,0.07480
4268.41,0.07479
4262.62,0.07440
4256.84,0.07518
4251.05,0.07527
4245.26,0.07494
4239.48,0.07418
4233.69,0.07372
4227.9,0.07434
4222.12,0.07455
4216.33,0.07405
4210.54,0.07432
4204.76,0.07509
4198.97,0.07524
4193.19,0.07603
4187.4,0.07594
4181.61,0.07675
4175.83,0.07510
4170.04,0.07494
4164.25,0.07575
4158.47,0.07696
4152.68,0.07866
4146.89,0.07853
4141.11,0.07849
4135.32,0.08021
4129.54,0.08071
4123.75,0.08099
4117.96,0.08007
4112.18,0.07922
4106.39,0.07965
4100.6,0.07886
4094.82,0.07831
4089.03,0.07691
4083.24,0.07552
4077.46,0.07639
4071.67,0.07837
4065.89,0.07941
4060.1,0.08077
4054.31,0.08162
4048.53,0.08230
4042.74,0.08338
4036.95,0.08410
4031.17,0.08350
4025.38,0.08402
4019.59,0.08305
4013.81,0.08305
4008.02,0.08488
4002.24,0.08439
3996.45,0.08602
3990.66,0.08647
3984.88,0.08693
3979.09,0.08785
3973.3,0.08847
3967.52,0.08884
3961.73,0.08848
3955.94,0.08847
3950.16,0.08924
3944.37,0.08875
3938.59,0.08961
3932.8,0.08891
3927.01,0.08901
3921.23,0.08928
3915.44,0.08824
3909.65,0.08947
3903.87,0.08899
3898.08,0.08919
3892.29,0.08994
3886.51,0.08944
3880.72,0.08999
3874.94,0.08922
3869.15,0.09037
3863.36,0.08930
3857.58,0.09047
3851.79,0.08906
3846,0.09059
3840.22,0.09020
3834.43,0.09011
3828.64,0.09083
3822.86,0.09151
3817.07,0.09123
3811.29,0.09175
3805.5,0.09123
3799.71,0.09231
3793.93,0.09279
3788.14,0.09319
3782.35,0.09347
3776.57,0.09297
3770.78,0.09368
3764.99,0.09335
3759.21,0.09231
3753.42,0.09273
3747.64,0.09314
3741.85,0.09293
3736.06,0.09422
3730.28,0.09442
3724.49,0.09488
3718.7,0.09541
3712.92,0.09500
3707.13,0.09334
3701.34,0.09219
3695.56,0.09067
3689.77,0.08891
3683.99,0.08630
3678.2,0.08598
3672.41,0.08683
3666.63,0.08671
3660.84,0.08732
3655.05,0.08647
3649.27,0.08732
3643.48,0.08833
3637.69,0.08796
3631.91,0.08760
3626.12,0.08543
3620.34,0.08601
3614.55,0.08490
3608.76,0.08419
3602.98,0.08367
3597.19,0.08293
3591.4,0.08335
3585.62,0.08185
3579.83,0.08157
3574.04,0.08053
3568.26,0.07941
3562.47,0.07912
3556.69,0.07796
3550.9,0.07749
3545.11,0.07824
3539.33,0.07730
3533.54,0.07746
3527.75,0.07716
3521.97,0.07712
3516.18,0.07605
3510.39,0.07616
3504.61,0.07528
3498.82,0.07478
3493.04,0.07366
3487.25,0.07267
3481.46,0.07209
3475.68,0.07212
3469.89,0.07110
3464.1,0.06987
3458.32,0.06960
3452.53,0.06922
3446.74,0.06856
3440.96,0.06762
3435.17,0.06578
3429.39,0.06601
3423.6,0.06576
3417.81,0.06501
3412.03,0.06589
3406.24,0.06757
3400.45,0.06764
3394.67,0.06953
3388.88,0.07067
3383.09,0.07156
3377.31,0.07240
3371.52,0.07278
3365.74,0.07319
3359.95,0.07326
3354.16,0.07402
3348.38,0.07362
3342.59,0.07326
3336.8,0.07358
3331.02,0.07264
3325.23,0.07271
3319.44,0.07123
3313.66,0.07007
3307.87,0.06732
3302.09,0.06458
3296.3,0.06565
3290.51,0.06846
3284.73,0.07014
3278.94,0.07326
3273.15,0.07417
3267.37,0.07512
3261.58,0.07634
3255.79,0.07663
3250.01,0.07714
3244.22,0.07762
3238.44,0.07736
3232.65,0.07676
3226.86,0.07655
3221.08,0.07687
3215.29,0.07603
3209.5,0.07645
3203.72,0.07575
3197.93,0.07547
3192.14,0.07516
3186.36,0.07550
3180.57,0.07579
3174.79,0.07614
3169,0.07594
3163.21,0.07521
3157.43,0.07555
3151.64,0.07525
3145.85,0.07589
3140.07,0.07526
3134.28,0.07409
3128.49,0.07346
3122.71,0.07262
3116.92,0.07253
3111.14,0.07211
3105.35,0.07028
3099.56,0.06915
3093.78,0.06793
3087.99,0.06720
3082.2,0.06604
3076.42,0.06613
3070.63,0.06543
3064.84,0.06393
3059.06,0.06410
3053.27,0.06387
3047.49,0.06447
3041.7,0.06380
3035.91,0.06361
3030.13,0.06255
3024.34,0.06116
3018.55,0.06071
3012.77,0.05982
3006.98,0.05936
3001.19,0.05886
2995.41,0.05817
2989.62,0.05751
2983.84,0.05751
2978.05,0.05685
2972.26,0.05634
2966.48,0.05719
2960.69,0.05958
2954.9,0.06048
2949.12,0.06087
2943.33,0.06051
2937.54,0.05964
2931.76,0.06115
2925.97,0.06243
2920.19,0.06333
2914.4,0.06291
2908.61,0.06412
2902.83,0.06353
2897.04,0.06395
2891.25,0.06290
2885.47,0.06268
2879.68,0.06182
2873.89,0.06285
2868.11,0.06316
2862.32,0.06386
2856.54,0.06421
2850.75,0.06431
2844.96,0.06440
2839.18,0.06388
2833.39,0.06378
2827.6,0.06383
2821.82,0.06316
2816.03,0.06326
2810.24,0.06427
2804.46,0.06481
2798.67,0.06492
2792.89,0.06623
2787.1,0.06752
2781.31,0.06822
2775.53,0.06948
2769.74,0.06920
2763.95,0.06943
2758.17,0.06919
2752.38,0.06976
2746.59,0.06870
2740.81,0.06781
2735.02,0.06749
2729.24,0.06833
2723.45,0.06982
2717.66,0.07080
2711.88,0.07171
2706.09,0.07245
2700.3,0.07277
2694.52,0.07375
2688.73,0.07356
2682.94,0.07304
2677.16,0.07307
2671.37,0.07310
2665.59,0.07326
2659.8,0.07462
2654.01,0.07541
2648.23,0.07569
2642.44,0.07575
2636.65,0.07546
2630.87,0.07468
2625.08,0.07478
2619.29,0.07436
2613.51,0.07454
2607.72,0.07448
2601.94,0.07417
2596.15,0.07440
2590.36,0.07443
2584.58,0.07421
2578.79,0.07429
2573,0.07399
2567.22,0.07427
2561.43,0.07480
2555.64,0.07524
2549.86,0.07533
2544.07,0.07552
2538.29,0.07614
2532.5,0.07645
2526.71,0.07640
2520.93,0.07740
2515.14,0.07768
2509.35,0.07881
2503.57,0.07952
2497.78,0.07949
2491.99,0.08008
2486.21,0.08092
2480.42,0.08097
2474.64,0.08145
2468.85,0.08164
2463.06,0.08162
2457.28,0.08179
2451.49,0.08137
2445.7,0.08112
2439.92,0.08098
2434.13,0.08050
2428.34,0.07938
2422.56,0.07822
2416.77,0.07812
2410.99,0.07739
2405.2,0.07728
2399.41,0.07642
2393.63,0.07578
2387.84,0.07542
2382.05,0.07489
2376.27,0.07522
2370.48,0.07550
2364.69,0.07686
2358.91,0.07781
2353.12,0.07866
2347.34,0.07940
2341.55,0.08140
2335.76,0.08158
2329.98,0.08272
2324.19,0.08271
2318.4,0.08344
2312.62,0.08353
2306.83,0.08360
2301.04,0.08332
2295.26,0.08237
2289.47,0.08159
2283.69,0.08030
2277.9,0.07975
2272.11,0.08063
2266.33,0.08089
2260.54,0.08157
2254.75,0.08136
2248.97,0.08142
2243.18,0.08134
2237.39,0.08119
2231.61,0.08086
2225.82,0.08168
2220.04,0.08210
2214.25,0.08195
2208.46,0.08245
2202.68,0.08341
2196.89,0.08428
2191.1,0.08457
2185.32,0.08555
2179.53,0.08550
2173.74,0.08615
2167.96,0.08606
2162.17,0.08555
2156.39,0.08478
2150.6,0.08554
2144.81,0.08502
2139.03,0.08504
2133.24,0.08467
2127.45,0.08416
2121.67,0.08469
2115.88,0.08405
2110.09,0.08429
2104.31,0.08384
2098.52,0.08405
2092.74,0.08397
2086.95,0.08337
2081.16,0.08295
2075.38,0.08282
2069.59,0.08287
2063.8,0.08255
2058.02,0.08347
2052.23,0.08308
2046.44,0.08408
2040.66,0.08394
2034.87,0.08440
2029.09,0.08415
2023.3,0.08490
2017.51,0.08512
2011.73,0.08513
2005.94,0.08533
2000.15,0.08485
1994.37,0.08416
1988.58,0.08270
1982.79,0.08286
1977.01,0.08185
1971.22,0.08135
1965.44,0.07924
1959.65,0.07676
1953.86,0.07317
1948.08,0.07222
1942.29,0.07399
1936.5,0.07626
1930.72,0.07849
1924.93,0.07942
1919.14,0.08082
1913.36,0.08049
1907.57,0.08149
1901.79,0.08075
1896,0.08128
1890.21,0.08099
1884.43,0.08156
1878.64,0.08115
1872.85,0.08108
1867.07,0.08062
1861.28,0.07991
1855.49,0.07843
1849.71,0.07661
1843.92,0.07486
1838.14,0.07288
1832.35,0.07020
1826.56,0.06715
1820.78,0.06656
1814.99,0.06714
1809.2,0.06731
1803.42,0.06705
1797.63,0.06593
1791.84,0.06417
1786.06,0.06273
1780.27,0.06171
1774.49,0.06010
1768.7,0.05830
1762.91,0.05728
1757.13,0.05579
1751.34,0.05457
1745.55,0.05280
1739.77,0.05162
1733.98,0.05014
1728.19,0.05201
1722.41,0.05927
1716.62,0.06696
1710.84,0.07100
1705.05,0.06825
1699.26,0.06463
1693.48,0.06253
1687.69,0.06231
1681.9,0.06116
1676.12,0.06100
1670.33,0.06110
1664.54,0.06207
1658.76,0.06360
1652.97,0.06363
1647.19,0.06315
1641.4,0.06130
1635.61,0.06075
1629.83,0.06353
1624.04,0.06444
1618.25,0.06382
1612.47,0.06208
1606.68,0.06353
1600.89,0.06468
1595.11,0.06538
1589.32,0.06392
1583.54,0.06028
1577.75,0.05881
1571.96,0.05986
1566.18,0.06067
1560.39,0.06083
1554.6,0.06128
1548.82,0.06104
1543.03,0.06041
1537.24,0.05992
1531.46,0.06002
1525.67,0.06057
1519.89,0.05999
1514.1,0.05963
1508.31,0.05752
1502.53,0.05708
1496.74,0.05862
1490.95,0.05819
1485.17,0.05658
1479.38,0.05568
1473.59,0.05437
1467.81,0.05490
1462.02,0.05672
1456.24,0.05717
1450.45,0.05747
1444.66,0.05643
1438.88,0.05578
1433.09,0.05659
1427.3,0.05667
1421.52,0.05766
1415.73,0.05689
1409.94,0.05708
1404.16,0.05773
1398.37,0.05696
1392.59,0.05549
1386.8,0.05529
1381.01,0.05609
1375.23,0.05679
1369.44,0.05632
1363.65,0.05557
1357.87,0.05496
1352.08,0.05422
1346.29,0.05397
1340.51,0.05268
1334.72,0.05318
1328.94,0.05380
1323.15,0.05363
1317.36,0.05320
1311.58,0.05242
1305.79,0.05212
1300,0.05055
1294.22,0.04870
1288.43,0.04677
1282.64,0.04826
1276.86,0.05451
1271.07,0.06653
1265.29,0.07432
1259.5,0.07131
1253.71,0.07011
1247.93,0.07365
1242.14,0.07460
1236.35,0.07322
1230.57,0.07057
1224.78,0.06920
1218.99,0.06685
1213.21,0.06587
1207.42,0.06452
1201.64,0.06394
1195.85,0.06349
1190.06,0.06282
1184.28,0.06298
1178.49,0.06161
1172.7,0.06112
1166.92,0.06075
1161.13,0.05991
1155.34,0.05898
1149.56,0.05906
1143.77,0.05811
1137.99,0.05635
1132.2,0.05424
1126.41,0.05417
1120.63,0.05937
1114.84,0.06549
1109.05,0.06544
1103.27,0.06873
1097.48,0.07240
1091.69,0.06907
1085.91,0.06760
1080.12,0.06810
1074.34,0.06676
1068.55,0.06573
1062.76,0.06545
1056.98,0.06423
1051.19,0.06441
1045.4,0.06367
1039.62,0.06344
1033.83,0.06253
1028.04,0.06173
1022.26,0.06067
1016.47,0.06650
1010.69,0.06403
1004.9,0.06288
999.112,0.06172
993.326,0.06151
987.54,0.06182
981.753,0.06149
975.967,0.06212
970.18,0.06252
964.394,0.06225
958.608,0.06375
952.821,0.06489
947.035,0.06499
941.249,0.06454
935.462,0.06461
929.676,0.06469
923.89,0.06393
918.103,0.06413
912.317,0.06359
906.53,0.06338
900.744,0.06332
894.958,0.06360
889.171,0.06286
883.385,0.06178
877.599,0.06244
871.812,0.06381
866.026,0.06424
860.24,0.06320
854.453,0.06324
848.667,0.06233
842.88,0.06241
837.094,0.06284
831.308,0.06257
825.521,0.06242
819.735,0.06408
813.949,0.06299
808.162,0.06387
802.376,0.06296
796.59,0.06213
790.803,0.06181
785.017,0.06003
779.23,0.06031
773.444,0.06042
767.658,0.05938
761.871,0.06045
756.085,0.06115
750.299,0.05794
744.512,0.05564
738.726,0.05214
732.94,0.05962
727.153,0.06958
721.367,0.06438
715.58,0.06131
709.794,0.05956
704.008,0.05914
698.221,0.05926
692.435,0.06025
686.649,0.06115
680.862,0.06163
675.076,0.06053
669.29,0.06097
663.503,0.05874
657.717,0.05822
651.93,0.05693
646.144,0.05731
640.358,0.05827
634.571,0.05924
628.785,0.06042
622.999,0.06163
617.212,0.06241
611.426,0.06475
605.639,0.06734
599.853,0.06587