File: 01_Data/PEVA/FTIR/IS/PEVA_0.10_IS_Trans_S_240819_R6.dpt
7496.91,0.93639
7491.12,0.93760
7485.33,0.93262
7479.55,0.94144
7473.76,0.93785
7467.98,0.93449
7462.19,0.92619
7456.4,0.95265
7450.62,0.95253
7444.83,0.93015
7439.04,0.93899
7433.26,0.95162
7427.47,0.93664
7421.69,0.92821
7415.9,0.93610
7410.11,0.95041
7404.33,0.94712
7398.54,0.95248
7392.76,0.93613
7386.97,0.93369
7381.18,0.94083
7375.4,0.92003
7369.61,0.92740
7363.83,0.94382
7358.04,0.94424
7352.25,0.92629
7346.47,0.93335
7340.68,0.91294
7334.89,0.92945
7329.11,0.91190
7323.32,0.91509
7317.54,0.92285
7311.75,0.92645
7305.96,0.92850
7300.18,0.91916
7294.39,0.90280
7288.61,0.91172
7282.82,0.93413
7277.03,0.93557
7271.25,0.92434
7265.46,0.91810
7259.67,0.93785
7253.89,0.91192
7248.1,0.93833
7242.32,0.91885
7236.53,0.91289
7230.74,0.89709
7224.96,0.90645
7219.17,0.92658
7213.39,0.92860
7207.6,0.92168
7201.81,0.91662
7196.03,0.92138
7190.24,0.90244
7184.45,0.90264
7178.67,0.91061
7172.88,0.92220
7167.1,0.90887
7161.31,0.91241
7155.52,0.91554
7149.74,0.93151
7143.95,0.91591
7138.17,0.90911
7132.38,0.93542
7126.59,0.93386
7120.81,0.91594
7115.02,0.91846
7109.23,0.92168
7103.45,0.92503
7097.66,0.92215
7091.88,0.91730
7086.09,0.92407
7080.3,0.92211
7074.52,0.91955
7068.73,0.91041
7062.95,0.92780
7057.16,0.92254
7051.37,0.91806
7045.59,0.91367
7039.8,0.93178
7034.02,0.92846
7028.23,0.92558
7022.44,0.90368
7016.66,0.91759
7010.87,0.92613
7005.08,0.92285
6999.3,0.91947
6993.51,0.93130
6987.73,0.92732
6981.94,0.92033
6976.15,0.91712
6970.37,0.91830
6964.58,0.93072
6958.8,0.93204
6953.01,0.92398
6947.22,0.92441
6941.44,0.92980
6935.65,0.93105
6929.86,0.91904
6924.08,0.93495
6918.29,0.93589
6912.51,0.92133
6906.72,0.92556
6900.93,0.92898
6895.15,0.92234
6889.36,0.93582
6883.58,0.92920
6877.79,0.93733
6872,0.92413
6866.22,0.92436
6860.43,0.92586
6854.64,0.93511
6848.86,0.92643
6843.07,0.92974
6837.29,0.92623
6831.5,0.94019
6825.71,0.93128
6819.93,0.93457
6814.14,0.93498
6808.36,0.94016
6802.57,0.93197
6796.78,0.92983
6791,0.93390
6785.21,0.93559
6779.43,0.93989
6773.64,0.92799
6767.85,0.92674
6762.07,0.92503
6756.28,0.94362
6750.49,0.93997
6744.71,0.94438
6738.92,0.93721
6733.14,0.92725
6727.35,0.94627
6721.56,0.94005
6715.78,0.93725
6709.99,0.93054
6704.21,0.92946
6698.42,0.93215
6692.63,0.93343
6686.85,0.93208
6681.06,0.94337
6675.27,0.93897
6669.49,0.93901
6663.7,0.93898
6657.92,0.93390
6652.13,0.93272
6646.34,0.93382
6640.56,0.94010
6634.77,0.93881
6628.99,0.93498
6623.2,0.93470
6617.41,0.94539
6611.63,0.94209
6605.84,0.94165
6600.05,0.94350
6594.27,0.94107
6588.48,0.94035
6582.7,0.93206
6576.91,0.93769
6571.12,0.93575
6565.34,0.93378
6559.55,0.93456
6553.77,0.93161
6547.98,0.93738
6542.19,0.94115
6536.41,0.93413
6530.62,0.93460
6524.84,0.93253
6519.05,0.93227
6513.26,0.94215
6507.48,0.93915
6501.69,0.94383
6495.9,0.93092
6490.12,0.93098
6484.33,0.93538
6478.55,0.93822
6472.76,0.93837
6466.97,0.93646
6461.19,0.93534
6455.4,0.92852
6449.62,0.93749
6443.83,0.93734
6438.04,0.94522
6432.26,0.94103
6426.47,0.93772
6420.68,0.93540
6414.9,0.94331
6409.11,0.93844
6403.33,0.94162
6397.54,0.93711
6391.75,0.94070
6385.97,0.93299
6380.18,0.93846
6374.4,0.93429
6368.61,0.94110
6362.82,0.94132
6357.04,0.93604
6351.25,0.93654
6345.46,0.93848
6339.68,0.94058
6333.89,0.94303
6328.11,0.94184
6322.32,0.94265
6316.53,0.93265
6310.75,0.93128
6304.96,0.94259
6299.18,0.94395
6293.39,0.93836
6287.6,0.93986
6281.82,0.93419
6276.03,0.93928
6270.24,0.93884
6264.46,0.94045
6258.67,0.93771
6252.89,0.93543
6247.1,0.93658
6241.31,0.93113
6235.53,0.93546
6229.74,0.94292
6223.96,0.94148
6218.17,0.94118
6212.38,0.94037
6206.6,0.93655
6200.81,0.93833
6195.03,0.93607
6189.24,0.93945
6183.45,0.93240
6177.67,0.93461
6171.88,0.93337
6166.09,0.93358
6160.31,0.93742
6154.52,0.93855
6148.74,0.93456
6142.95,0.93252
6137.16,0.93422
6131.38,0.93184
6125.59,0.93859
6119.81,0.93542
6114.02,0.93427
6108.23,0.93042
6102.45,0.93166
6096.66,0.93412
6090.87,0.93434
6085.09,0.93627
6079.3,0.93263
6073.52,0.93436
6067.73,0.93224
6061.94,0.93159
6056.16,0.93598
6050.37,0.93647
6044.59,0.93589
6038.8,0.93082
6033.01,0.92718
6027.23,0.92794
6021.44,0.93115
6015.65,0.93195
6009.87,0.93206
6004.08,0.92981
5998.3,0.92841
5992.51,0.92819
5986.72,0.93091
5980.94,0.92937
5975.15,0.92596
5969.37,0.92593
5963.58,0.92540
5957.79,0.92132
5952.01,0.92326
5946.22,0.92670
5940.44,0.92533
5934.65,0.92189
5928.86,0.91517
5923.08,0.92190
5917.29,0.91692
5911.5,0.91708
5905.72,0.92006
5899.93,0.91640
5894.15,0.91591
5888.36,0.90920
5882.57,0.90896
5876.79,0.91284
5871,0.90610
5865.22,0.89986
5859.43,0.89227
5853.64,0.88641
5847.86,0.88546
5842.07,0.87460
5836.28,0.87411
5830.5,0.86862
5824.71,0.86073
5818.93,0.85290
5813.14,0.84827
5807.35,0.84293
5801.57,0.83620
5795.78,0.82456
5790,0.80760
5784.21,0.79171
5778.42,0.77233
5772.64,0.77661
5766.85,0.80008
5761.06,0.82620
5755.28,0.84551
5749.49,0.85746
5743.71,0.86538
5737.92,0.87572
5732.13,0.87951
5726.35,0.88307
5720.56,0.88543
5714.78,0.88821
5708.99,0.88744
5703.2,0.88595
5697.42,0.88285
5691.63,0.87474
5685.84,0.86904
5680.06,0.86644
5674.27,0.85950
5668.49,0.85306
5662.7,0.85378
5656.91,0.85787
5651.13,0.87321
5645.34,0.87761
5639.56,0.88483
5633.77,0.88958
5627.98,0.89095
5622.2,0.89128
5616.41,0.89188
5610.63,0.89451
5604.84,0.89437
5599.05,0.89922
5593.27,0.90369
5587.48,0.90239
5581.69,0.89786
5575.91,0.89671
5570.12,0.89578
5564.34,0.89622
5558.55,0.89540
5552.76,0.89501
5546.98,0.89261
5541.19,0.89696
5535.41,0.89173
5529.62,0.89667
5523.83,0.89412
5518.05,0.89085
5512.26,0.89391
5506.47,0.88626
5500.69,0.89085
5494.9,0.88609
5489.12,0.88015
5483.33,0.89678
5477.54,0.88778
5471.76,0.89071
5465.97,0.88617
5460.19,0.88238
5454.4,0.89454
5448.61,0.88199
5442.83,0.87614
5437.04,0.88793
5431.25,0.88099
5425.47,0.89224
5419.68,0.90249
5413.9,0.87748
5408.11,0.88527
5402.32,0.90152
5396.54,0.89182
5390.75,0.90279
5384.97,0.89554
5379.18,0.90144
5373.39,0.89687
5367.61,0.90589
5361.82,0.90401
5356.04,0.89641
5350.25,0.89311
5344.46,0.87874
5338.68,0.88096
5332.89,0.89892
5327.1,0.89553
5321.32,0.91236
5315.53,0.90913
5309.75,0.90655
5303.96,0.90725
5298.17,0.90891
5292.39,0.90590
5286.6,0.90848
5280.82,0.90775
5275.03,0.91156
5269.24,0.90368
5263.46,0.88852
5257.67,0.90741
5251.88,0.90449
5246.1,0.88970
5240.31,0.90953
5234.53,0.90714
5228.74,0.90140
5222.95,0.90067
5217.17,0.90893
5211.38,0.90992
5205.6,0.89300
5199.81,0.90945
5194.02,0.90940
5188.24,0.90549
5182.45,0.90957
5176.66,0.91443
5170.88,0.91325
5165.09,0.91295
5159.31,0.90962
5153.52,0.91191
5147.73,0.91831
5141.95,0.91616
5136.16,0.91772
5130.38,0.91733
5124.59,0.91563
5118.8,0.91629
5113.02,0.91805
5107.23,0.91675
5101.45,0.91648
5095.66,0.91634
5089.87,0.91458
5084.09,0.91594
5078.3,0.92029
5072.51,0.91823
5066.73,0.91721
5060.94,0.91873
5055.16,0.91860
5049.37,0.91810
5043.58,0.92130
5037.8,0.92187
5032.01,0.92252
5026.23,0.91737
5020.44,0.91871
5014.65,0.91848
5008.87,0.92022
5003.08,0.92049
4997.29,0.91828
4991.51,0.91535
4985.72,0.91422
4979.94,0.91462
4974.15,0.91633
4968.36,0.91682
4962.58,0.91769
4956.79,0.91400
4951.01,0.91888
4945.22,0.91932
4939.43,0.92140
4933.65,0.92174
4927.86,0.92236
4922.07,0.92016
4916.29,0.91934
4910.5,0.91819
4904.72,0.91839
4898.93,0.92039
4893.14,0.91979
4887.36,0.92012
4881.57,0.91644
4875.79,0.91852
4870,0.91965
4864.21,0.92047
4858.43,0.92012
4852.64,0.91957
4846.85,0.92090
4841.07,0.92086
4835.28,0.92279
4829.5,0.92297
4823.71,0.92346
4817.92,0.92222
4812.14,0.92218
4806.35,0.92388
4800.57,0.92534
4794.78,0.92562
4788.99,0.92557
4783.21,0.92548
4777.42,0.92405
4771.64,0.92568
4765.85,0.92682
4760.06,0.92703
4754.28,0.92608
4748.49,0.92626
4742.7,0.92395
4736.92,0.92348
4731.13,0.92525
4725.35,0.92756
4719.56,0.92772
4713.77,0.92496
4707.99,0.92527
4702.2,0.92478
4696.42,0.92733
4690.63,0.92811
4684.84,0.92726
4679.06,0.92605
4673.27,0.92429
4667.48,0.92384
4661.7,0.92612
4655.91,0.92695
4650.13,0.92820
4644.34,0.92692
4638.55,0.92487
4632.77,0.92555
4626.98,0.92780
4621.2,0.92789
4615.41,0.92764
4609.62,0.92701
4603.84,0.92633
4598.05,0.92587
4592.26,0.92645
4586.48,0.92781
4580.69,0.92555
4574.91,0.92502
4569.12,0.92376
4563.33,0.92337
4557.55,0.92404
4551.76,0.92425
4545.98,0.92292
4540.19,0.92283
4534.4,0.92117
4528.62,0.92075
4522.83,0.91976
4517.05,0.92016
4511.26,0.91947
4505.47,0.91705
4499.69,0.91587
4493.9,0.91458
4488.11,0.91489
4482.33,0.91421
4476.54,0.91380
4470.76,0.91079
4464.97,0.90819
4459.18,0.90626
4453.4,0.90530
4447.61,0.90369
4441.83,0.90024
4436.04,0.89571
4430.25,0.89052
4424.47,0.88660
4418.68,0.88075
4412.89,0.87293
4407.11,0.86182
4401.32,0.85125
4395.54,0.83772
4389.75,0.82504
4383.96,0.81262
4378.18,0.79915
4372.39,0.78368
4366.61,0.76854
4360.82,0.74681
4355.03,0.71772
4349.25,0.67079
4343.46,0.60916
4337.67,0.55374
4331.89,0.49650
4326.1,0.40134
4320.32,0.38051
4314.53,0.55899
4308.74,0.67552
4302.96,0.72186
4297.17,0.73554
4291.39,0.73211
4285.6,0.72064
4279.81,0.71015
4274.03,0.69608
4268.24,0.66598
4262.46,0.60934
4256.67,0.53009
4250.88,0.48476
4245.1,0.58213
4239.31,0.65705
4233.52,0.67207
4227.74,0.65604
4221.95,0.63632
4216.17,0.63638
4210.38,0.64096
4204.59,0.63012
4198.81,0.60247
4193.02,0.58453
4187.24,0.58529
4181.45,0.58842
4175.66,0.59126
4169.88,0.59276
4164.09,0.59612
4158.3,0.59743
4152.52,0.59902
4146.73,0.60056
4140.95,0.60396
4135.16,0.60941
4129.37,0.61400
4123.59,0.61686
4117.8,0.61868
4112.02,0.61815
4106.23,0.61457
4100.44,0.61548
4094.66,0.62090
4088.87,0.64324
4083.08,0.66851
4077.3,0.68535
4071.51,0.69716
4065.73,0.70572
4059.94,0.71426
4054.15,0.72283
4048.37,0.72931
4042.58,0.73490
4036.8,0.74314
4031.01,0.74511
4025.22,0.74075
4019.44,0.74540
4013.65,0.76813
4007.86,0.77904
4002.08,0.78619
3996.29,0.78590
3990.51,0.78292
3984.72,0.78516
3978.93,0.78278
3973.15,0.78168
3967.36,0.79033
3961.58,0.78815
3955.79,0.79080
3950,0.77839
3944.22,0.77774
3938.43,0.78619
3932.65,0.76436
3926.86,0.76349
3921.07,0.75852
3915.29,0.76234
3909.5,0.77413
3903.71,0.72770
3897.93,0.75108
3892.14,0.74905
3886.36,0.75147
3880.57,0.74612
3874.78,0.75288
3869,0.73671
3863.21,0.74492
3857.43,0.75924
3851.64,0.73289
3845.85,0.77612
3840.07,0.72954
3834.28,0.75253
3828.49,0.77062
3822.71,0.74471
3816.92,0.74652
3811.14,0.78883
3805.35,0.76411
3799.56,0.75868
3793.78,0.80739
3787.99,0.81334
3782.21,0.80286
3776.42,0.81443
3770.63,0.79943
3764.85,0.80399
3759.06,0.78813
3753.27,0.76362
3747.49,0.74083
3741.7,0.76162
3735.92,0.72176
3730.13,0.75876
3724.34,0.75455
3718.56,0.79034
3712.77,0.76556
3706.99,0.77607
3701.2,0.77900
3695.41,0.78806
3689.63,0.74549
3683.84,0.79917
3678.06,0.76138
3672.27,0.75204
3666.48,0.79344
3660.7,0.80354
3654.91,0.77414
3649.12,0.70222
3643.34,0.76273
3637.55,0.77616
3631.77,0.75600
3625.98,0.75665
3620.19,0.74795
3614.41,0.73294
3608.62,0.70964
3602.84,0.71056
3597.05,0.74285
3591.26,0.79543
3585.48,0.81022
3579.69,0.84565
3573.9,0.85380
3568.12,0.82048
3562.33,0.84907
3556.55,0.87536
3550.76,0.86924
3544.97,0.85959
3539.19,0.88280
3533.4,0.88074
3527.62,0.86413
3521.83,0.87547
3516.04,0.89109
3510.26,0.88022
3504.47,0.87259
3498.68,0.88022
3492.9,0.88500
3487.11,0.88205
3481.33,0.87841
3475.54,0.88281
3469.75,0.88062
3463.97,0.87329
3458.18,0.87420
3452.4,0.87642
3446.61,0.86513
3440.82,0.87016
3435.04,0.87008
3429.25,0.86858
3423.47,0.86640
3417.68,0.87078
3411.89,0.87435
3406.11,0.87321
3400.32,0.86804
3394.53,0.86479
3388.75,0.86572
3382.96,0.86494
3377.18,0.86496
3371.39,0.86127
3365.6,0.85689
3359.82,0.86119
3354.03,0.86697
3348.25,0.87093
3342.46,0.87363
3336.67,0.87176
3330.89,0.87234
3325.1,0.87048
3319.31,0.87518
3313.53,0.87542
3307.74,0.87659
3301.96,0.87804
3296.17,0.87445
3290.38,0.87441
3284.6,0.87608
3278.81,0.87578
3273.03,0.87454
3267.24,0.87519
3261.45,0.87377
3255.67,0.87157
3249.88,0.87363
3244.09,0.87231
3238.31,0.87195
3232.52,0.86861
3226.74,0.86652
3220.95,0.86280
3215.16,0.86176
3209.38,0.86009
3203.59,0.85772
3197.81,0.84930
3192.02,0.84820
3186.23,0.84525
3180.45,0.84408
3174.66,0.84181
3168.87,0.83775
3163.09,0.83322
3157.3,0.82982
3151.52,0.82725
3145.73,0.82365
3139.94,0.81828
3134.16,0.81004
3128.37,0.80343
3122.59,0.79310
3116.8,0.78163
3111.01,0.77006
3105.23,0.75088
3099.44,0.72109
3093.66,0.68591
3087.87,0.65481
3082.08,0.63242
3076.3,0.61816
3070.51,0.60273
3064.72,0.58431
3058.94,0.56611
3053.15,0.54336
3047.37,0.51587
3041.58,0.48581
3035.79,0.45280
3030.01,0.42364
3024.22,0.39911
3018.44,0.37532
3012.65,0.34899
3006.86,0.32116
3001.08,0.28807
2995.29,0.24838
2989.5,0.20088
2983.72,0.14280
2977.93,0.08011
2972.15,0.02920
2966.36,0.00603
2960.57,0.00150
2954.79,0.00130
2949,0.00042
2943.22,0.00089
2937.43,0.00103
2931.64,0.00069
2925.86,0.00119
2920.07,0.00052
2914.28,0.00086
2908.5,0.00082
2902.71,0.00101
2896.93,0.00070
2891.14,0.00049
2885.35,0.00069
2879.57,0.00082
2873.78,0.00084
2868,0.00080
2862.21,0.00099
2856.42,0.00125
2850.64,0.00087
2844.85,0.00102
2839.07,0.00111
2833.28,0.00404
2827.49,0.01751
2821.71,0.04082
2815.92,0.07004
2810.13,0.10256
2804.35,0.13778
2798.56,0.17618
2792.78,0.22047
2786.99,0.26811
2781.2,0.31559
2775.42,0.35560
2769.63,0.38581
2763.85,0.40778
2758.06,0.42682
2752.27,0.44068
2746.49,0.44258
2740.7,0.44031
2734.91,0.44406
2729.13,0.45371
2723.34,0.46852
2717.56,0.48201
2711.77,0.49265
2705.98,0.50423
2700.2,0.51248
2694.41,0.50949
2688.63,0.49685
2682.84,0.48654
2677.05,0.47802
2671.27,0.46848
2665.48,0.46302
2659.69,0.46438
2653.91,0.47155
2648.12,0.48001
2642.34,0.48011
2636.55,0.47743
2630.76,0.49068
2624.98,0.51691
2619.19,0.54266
2613.41,0.56852
2607.62,0.59136
2601.83,0.60921
2596.05,0.62417
2590.26,0.64273
2584.47,0.66392
2578.69,0.68409
2572.9,0.70123
2567.12,0.71452
2561.33,0.72424
2555.54,0.73159
2549.76,0.73792
2543.97,0.75397
2538.19,0.76658
2532.4,0.76118
2526.61,0.75918
2520.83,0.77464
2515.04,0.79264
2509.26,0.80374
2503.47,0.81013
2497.68,0.81336
2491.9,0.81669
2486.11,0.82112
2480.32,0.82530
2474.54,0.82586
2468.75,0.83665
2462.97,0.84443
2457.18,0.84646
2451.39,0.84858
2445.61,0.85119
2439.82,0.85007
2434.04,0.84594
2428.25,0.84063
2422.46,0.83222
2416.68,0.82760
2410.89,0.83296
2405.1,0.83805
2399.32,0.83837
2393.53,0.83852
2387.75,0.82900
2381.96,0.75545
2376.17,0.61750
2370.39,0.49499
2364.6,0.41493
2358.82,0.39293
2353.03,0.45237
2347.24,0.49729
2341.46,0.43241
2335.67,0.44563
2329.88,0.45716
2324.1,0.49203
2318.31,0.55395
2312.53,0.61174
2306.74,0.67203
2300.95,0.72360
2295.17,0.75905
2289.38,0.78998
2283.6,0.81330
2277.81,0.81221
2272.02,0.81629
2266.24,0.82793
2260.45,0.83699
2254.67,0.84378
2248.88,0.84782
2243.09,0.84970
2237.31,0.85945
2231.52,0.86850
2225.73,0.86876
2219.95,0.86890
2214.16,0.87243
2208.38,0.87389
2202.59,0.87300
2196.8,0.87073
2191.02,0.87002
2185.23,0.87031
2179.45,0.87177
2173.66,0.87167
2167.87,0.86960
2162.09,0.86498
2156.3,0.86063
2150.51,0.85971
2144.73,0.86338
2138.94,0.87082
2133.16,0.87707
2127.37,0.88102
2121.58,0.88461
2115.8,0.88760
2110.01,0.89081
2104.23,0.88997
2098.44,0.88579
2092.65,0.88213
2086.87,0.88095
2081.08,0.88320
2075.29,0.88284
2069.51,0.87923
2063.72,0.86879
2057.94,0.86470
2052.15,0.86103
2046.36,0.85756
2040.58,0.84919
2034.79,0.84139
2029.01,0.82537
2023.22,0.80593
2017.43,0.79667
2011.65,0.83888
2005.86,0.87146
2000.08,0.88294
1994.29,0.87741
1988.5,0.87580
1982.72,0.88552
1976.93,0.89138
1971.14,0.89361
1965.36,0.88306
1959.57,0.88231
1953.79,0.87675
1948,0.87573
1942.21,0.86912
1936.43,0.88906
1930.64,0.88619
1924.86,0.86836
1919.07,0.85268
1913.28,0.86038
1907.5,0.85287
1901.71,0.85536
1895.92,0.84151
1890.14,0.84516
1884.35,0.86831
1878.57,0.88008
1872.78,0.88441
1866.99,0.86728
1861.21,0.89974
1855.42,0.89656
1849.64,0.88144
1843.85,0.85671
1838.06,0.89001
1832.28,0.88643
1826.49,0.86967
1820.7,0.87727
1814.92,0.86853
1809.13,0.85914
1803.35,0.87045
1797.56,0.86794
1791.77,0.85191
1785.99,0.87749
1780.2,0.85479
1774.42,0.83193
1768.63,0.84365
1762.84,0.85623
1757.06,0.83451
1751.27,0.77553
1745.48,0.74186
1739.7,0.74951
1733.91,0.76273
1728.13,0.82190
1722.34,0.80631
1716.55,0.73096
1710.77,0.77799
1704.98,0.76977
1699.2,0.75658
1693.41,0.83073
1687.62,0.82214
1681.84,0.80080
1676.05,0.81634
1670.27,0.79107
1664.48,0.83285
1658.69,0.84921
1652.91,0.78598
1647.12,0.77308
1641.33,0.80815
1635.55,0.76848
1629.76,0.81739
1623.98,0.80773
1618.19,0.81143
1612.4,0.82195
1606.62,0.80680
1600.83,0.80986
1595.05,0.81451
1589.26,0.82861
1583.47,0.83148
1577.69,0.78747
1571.9,0.78169
1566.11,0.77919
1560.33,0.75053
1554.54,0.76515
1548.76,0.77950
1542.97,0.69696
1537.18,0.71642
1531.4,0.73123
1525.61,0.71031
1519.83,0.69079
1514.04,0.70224
1508.25,0.63087
1502.47,0.65216
1496.68,0.61093
1490.89,0.56663
1485.11,0.47668
1479.32,0.27945
1473.54,0.02085
1467.75,0.00049
1461.96,0.00095
1456.18,0.01953
1450.39,0.07917
1444.61,0.13802
1438.82,0.18652
1433.03,0.30580
1427.25,0.49878
1421.46,0.60370
1415.68,0.65883
1409.89,0.70042
1404.1,0.72097
1398.32,0.70891
1392.53,0.70126
1386.74,0.64272
1380.96,0.44365
1375.17,0.38184
1369.39,0.37268
1363.6,0.40666
1357.81,0.46671
1352.03,0.46529
1346.24,0.52441
1340.46,0.57835
1334.67,0.66514
1328.88,0.69002
1323.1,0.65902
1317.31,0.60013
1311.52,0.56195
1305.74,0.55059
1299.95,0.56267
1294.17,0.59394
1288.38,0.62180
1282.59,0.63847
1276.81,0.64997
1271.02,0.66346
1265.24,0.69222
1259.45,0.71070
1253.66,0.71416
1247.88,0.71205
1242.09,0.72387
1236.3,0.74354
1230.52,0.75975
1224.73,0.76352
1218.95,0.75581
1213.16,0.74600
1207.37,0.74712
1201.59,0.76379
1195.8,0.77485
1190.02,0.76996
1184.23,0.75668
1178.44,0.73882
1172.66,0.74176
1166.87,0.75269
1161.09,0.76387
1155.3,0.76218
1149.51,0.75086
1143.73,0.74551
1137.94,0.75509
1132.15,0.77401
1126.37,0.78869
1120.58,0.78563
1114.8,0.76974
1109.01,0.75794
1103.22,0.75682
1097.44,0.76157
1091.65,0.75694
1085.87,0.73735
1080.08,0.71828
1074.29,0.72653
1068.51,0.74369
1062.72,0.75899
1056.93,0.77941
1051.15,0.77589
1045.36,0.77318
1039.58,0.76357
1033.79,0.75921
1028,0.75372
1022.22,0.73557
1016.43,0.72713
1010.65,0.75914
1004.86,0.78094
999.073,0.79698
993.287,0.81940
987.501,0.84009
981.715,0.84161
975.929,0.81947
970.142,0.79660
964.356,0.79539
958.57,0.81578
952.784,0.84235
946.998,0.84964
941.212,0.83516
935.426,0.82020
929.64,0.82296
923.853,0.84201
918.067,0.86040
912.281,0.85288
906.495,0.83262
900.709,0.82375
894.923,0.81866
889.137,0.83194
883.35,0.85755
877.564,0.86463
871.778,0.84646
865.992,0.82988
860.206,0.82987
854.42,0.84835
848.634,0.86716
842.847,0.86447
837.061,0.84047
831.275,0.82146
825.489,0.82340
819.703,0.84188
813.917,0.85419
808.131,0.84137
802.344,0.80845
796.558,0.78029
790.772,0.77434
784.986,0.77704
779.2,0.76450
773.414,0.73317
767.628,0.71279
761.842,0.70946
756.055,0.71147
750.269,0.70440
744.483,0.64987
738.697,0.50841
732.911,0.16704
727.125,0.04791
721.339,0.02160
715.552,0.13323
709.766,0.41989
703.98,0.62536
698.194,0.74270
692.408,0.76582
686.622,0.74015
680.836,0.73756
675.049,0.77479
669.263,0.70598
663.477,0.85408
657.691,0.81731
651.905,0.79271
646.119,0.81774
640.333,0.87882
634.546,0.92679
628.76,0.93445
622.974,0.89907
617.188,0.85892
611.402,0.88171
605.616,0.91583
599.83,0.94193