File: 01_Data/PEVA/FTIR/IS/PEVA_0.10_IS_S_240808_R9.dpt
7496.93,0.08333
7491.14,0.08386
7485.35,0.09992
7479.57,0.09931
7473.78,0.10455
7468,0.10233
7462.21,0.09585
7456.42,0.10432
7450.64,0.09116
7444.85,0.09913
7439.06,0.09227
7433.28,0.09815
7427.49,0.09401
7421.71,0.09968
7415.92,0.08380
7410.13,0.08804
7404.35,0.09676
7398.56,0.08488
7392.78,0.09221
7386.99,0.09362
7381.2,0.07858
7375.42,0.09366
7369.63,0.08567
7363.84,0.09348
7358.06,0.09449
7352.27,0.09270
7346.49,0.08759
7340.7,0.10071
7334.91,0.09370
7329.13,0.08944
7323.34,0.10243
7317.56,0.09052
7311.77,0.10156
7305.98,0.09513
7300.2,0.08954
7294.41,0.10965
7288.62,0.09624
7282.84,0.11225
7277.05,0.09515
7271.27,0.10472
7265.48,0.10195
7259.69,0.09583
7253.91,0.09264
7248.12,0.09963
7242.34,0.10473
7236.55,0.09980
7230.76,0.10028
7224.98,0.08777
7219.19,0.09737
7213.4,0.09694
7207.62,0.09935
7201.83,0.09979
7196.05,0.09441
7190.26,0.08932
7184.47,0.09381
7178.69,0.08879
7172.9,0.09769
7167.12,0.09361
7161.33,0.08695
7155.54,0.09534
7149.76,0.10825
7143.97,0.10182
7138.18,0.09788
7132.4,0.10510
7126.61,0.09302
7120.83,0.10802
7115.04,0.09936
7109.25,0.09562
7103.47,0.09163
7097.68,0.08812
7091.9,0.09706
7086.11,0.10587
7080.32,0.09681
7074.54,0.11061
7068.75,0.09595
7062.96,0.09486
7057.18,0.09856
7051.39,0.09393
7045.61,0.09498
7039.82,0.09616
7034.03,0.08995
7028.25,0.09859
7022.46,0.09625
7016.68,0.09398
7010.89,0.10375
7005.1,0.10942
6999.32,0.09831
6993.53,0.09758
6987.74,0.10201
6981.96,0.09929
6976.17,0.10115
6970.39,0.09480
6964.6,0.09257
6958.81,0.08740
6953.03,0.08861
6947.24,0.09134
6941.46,0.09190
6935.67,0.09342
6929.88,0.10094
6924.1,0.09135
6918.31,0.09224
6912.52,0.09372
6906.74,0.09461
6900.95,0.09101
6895.17,0.09307
6889.38,0.09708
6883.59,0.09529
6877.81,0.09288
6872.02,0.08999
6866.24,0.08766
6860.45,0.08865
6854.66,0.09058
6848.88,0.09365
6843.09,0.09906
6837.3,0.09128
6831.52,0.09372
6825.73,0.09494
6819.95,0.09230
6814.16,0.10574
6808.37,0.09639
6802.59,0.09228
6796.8,0.09293
6791.02,0.10358
6785.23,0.09729
6779.44,0.10121
6773.66,0.09946
6767.87,0.09609
6762.08,0.09144
6756.3,0.09840
6750.51,0.09620
6744.73,0.09877
6738.94,0.10039
6733.15,0.09484
6727.37,0.09776
6721.58,0.09963
6715.8,0.09737
6710.01,0.09610
6704.22,0.09449
6698.44,0.10399
6692.65,0.09877
6686.86,0.09473
6681.08,0.09230
6675.29,0.09262
6669.51,0.09589
6663.72,0.09795
6657.93,0.09680
6652.15,0.10268
6646.36,0.09927
6640.58,0.09809
6634.79,0.09806
6629,0.09616
6623.22,0.09711
6617.43,0.09645
6611.64,0.09427
6605.86,0.10222
6600.07,0.09664
6594.29,0.10213
6588.5,0.09706
6582.71,0.09527
6576.93,0.09819
6571.14,0.09452
6565.36,0.09816
6559.57,0.10005
6553.78,0.09016
6548,0.09879
6542.21,0.09294
6536.42,0.09476
6530.64,0.09692
6524.85,0.10236
6519.07,0.09639
6513.28,0.09028
6507.49,0.10072
6501.71,0.10220
6495.92,0.09454
6490.14,0.09290
6484.35,0.09617
6478.56,0.10245
6472.78,0.09620
6466.99,0.09481
6461.2,0.09667
6455.42,0.09727
6449.63,0.09657
6443.85,0.09045
6438.06,0.09560
6432.27,0.09817
6426.49,0.10013
6420.7,0.09580
6414.92,0.09756
6409.13,0.09686
6403.34,0.10013
6397.56,0.09974
6391.77,0.10258
6385.98,0.10328
6380.2,0.10083
6374.41,0.09767
6368.63,0.09410
6362.84,0.09458
6357.05,0.08982
6351.27,0.09088
6345.48,0.09895
6339.7,0.10265
6333.91,0.09675
6328.12,0.09440
6322.34,0.09840
6316.55,0.10424
6310.76,0.10222
6304.98,0.10253
6299.19,0.10008
6293.41,0.09856
6287.62,0.09649
6281.83,0.09833
6276.05,0.09375
6270.26,0.09483
6264.48,0.10214
6258.69,0.10123
6252.9,0.09317
6247.12,0.09594
6241.33,0.09845
6235.54,0.09957
6229.76,0.09445
6223.97,0.09329
6218.19,0.09569
6212.4,0.09758
6206.61,0.10401
6200.83,0.10006
6195.04,0.09364
6189.26,0.09659
6183.47,0.09656
6177.68,0.09470
6171.9,0.09912
6166.11,0.09848
6160.32,0.09968
6154.54,0.09744
6148.75,0.09511
6142.97,0.09977
6137.18,0.09740
6131.39,0.09603
6125.61,0.09740
6119.82,0.09585
6114.04,0.09563
6108.25,0.09662
6102.46,0.09913
6096.68,0.10105
6090.89,0.09882
6085.1,0.10054
6079.32,0.09734
6073.53,0.09609
6067.75,0.09660
6061.96,0.10191
6056.17,0.09835
6050.39,0.09552
6044.6,0.09533
6038.82,0.09648
6033.03,0.09485
6027.24,0.09962
6021.46,0.09742
6015.67,0.09522
6009.88,0.09703
6004.1,0.10216
5998.31,0.09924
5992.53,0.09572
5986.74,0.09651
5980.95,0.09285
5975.17,0.09756
5969.38,0.09881
5963.6,0.10049
5957.81,0.09839
5952.02,0.09678
5946.24,0.09827
5940.45,0.09579
5934.66,0.09570
5928.88,0.09549
5923.09,0.09830
5917.31,0.09947
5911.52,0.09722
5905.73,0.09739
5899.95,0.09952
5894.16,0.09405
5888.38,0.09152
5882.59,0.09654
5876.8,0.09423
5871.02,0.09725
5865.23,0.09206
5859.44,0.09504
5853.66,0.09310
5847.87,0.09506
5842.09,0.09190
5836.3,0.09262
5830.51,0.09053
5824.73,0.09256
5818.94,0.09078
5813.16,0.09209
5807.37,0.09342
5801.58,0.09175
5795.8,0.08842
5790.01,0.08918
5784.22,0.08702
5778.44,0.08515
5772.65,0.08367
5766.87,0.08768
5761.08,0.08829
5755.29,0.09262
5749.51,0.09228
5743.72,0.09268
5737.94,0.09375
5732.15,0.09268
5726.36,0.09437
5720.58,0.09488
5714.79,0.09314
5709,0.09592
5703.22,0.09165
5697.43,0.09224
5691.65,0.09238
5685.86,0.09417
5680.07,0.09367
5674.29,0.08953
5668.5,0.09141
5662.72,0.09263
5656.93,0.09310
5651.14,0.09501
5645.36,0.09252
5639.57,0.09494
5633.78,0.09290
5628,0.09450
5622.21,0.09588
5616.43,0.09704
5610.64,0.09703
5604.85,0.09577
5599.07,0.09641
5593.28,0.09480
5587.5,0.09409
5581.71,0.09478
5575.92,0.09733
5570.14,0.09297
5564.35,0.09439
5558.56,0.09539
5552.78,0.09507
5546.99,0.09771
5541.21,0.09689
5535.42,0.09562
5529.63,0.09687
5523.85,0.09807
5518.06,0.09638
5512.28,0.09417
5506.49,0.09624
5500.7,0.09738
5494.92,0.09277
5489.13,0.09607
5483.34,0.09522
5477.56,0.09513
5471.77,0.09742
5465.99,0.09916
5460.2,0.09676
5454.41,0.09620
5448.63,0.09635
5442.84,0.09611
5437.06,0.09595
5431.27,0.09540
5425.48,0.09681
5419.7,0.09678
5413.91,0.09606
5408.12,0.09608
5402.34,0.09889
5396.55,0.09749
5390.77,0.09717
5384.98,0.09831
5379.19,0.09620
5373.41,0.09659
5367.62,0.09825
5361.84,0.09942
5356.05,0.09809
5350.26,0.09762
5344.48,0.09856
5338.69,0.09687
5332.9,0.09737
5327.12,0.09921
5321.33,0.09734
5315.55,0.09722
5309.76,0.09911
5303.97,0.09784
5298.19,0.09870
5292.4,0.10081
5286.62,0.09865
5280.83,0.09831
5275.04,0.09878
5269.26,0.09725
5263.47,0.09638
5257.68,0.09791
5251.9,0.09896
5246.11,0.09828
5240.33,0.09721
5234.54,0.09883
5228.75,0.09797
5222.97,0.09705
5217.18,0.09819
5211.4,0.09678
5205.61,0.09846
5199.82,0.09870
5194.04,0.09836
5188.25,0.09955
5182.46,0.10042
5176.68,0.09870
5170.89,0.09792
5165.11,0.09740
5159.32,0.09950
5153.53,0.09803
5147.75,0.09711
5141.96,0.09841
5136.18,0.09840
5130.39,0.09953
5124.6,0.09842
5118.82,0.10031
5113.03,0.09946
5107.24,0.09860
5101.46,0.09829
5095.67,0.09858
5089.89,0.09989
5084.1,0.10019
5078.31,0.09871
5072.53,0.09939
5066.74,0.09929
5060.96,0.09849
5055.17,0.09793
5049.38,0.09923
5043.6,0.10031
5037.81,0.09908
5032.02,0.09965
5026.24,0.09985
5020.45,0.09839
5014.67,0.10050
5008.88,0.09959
5003.09,0.09955
4997.31,0.09691
4991.52,0.09833
4985.74,0.09916
4979.95,0.09987
4974.16,0.09872
4968.38,0.09948
4962.59,0.09922
4956.8,0.09844
4951.02,0.09968
4945.23,0.09993
4939.45,0.09992
4933.66,0.10019
4927.87,0.09948
4922.09,0.09936
4916.3,0.09946
4910.52,0.10091
4904.73,0.10132
4898.94,0.10025
4893.16,0.10023
4887.37,0.09964
4881.58,0.09801
4875.8,0.10136
4870.01,0.10054
4864.23,0.10007
4858.44,0.10018
4852.65,0.09986
4846.87,0.10236
4841.08,0.10124
4835.3,0.10085
4829.51,0.09957
4823.72,0.10064
4817.94,0.10070
4812.15,0.10099
4806.36,0.10040
4800.58,0.10070
4794.79,0.10083
4789.01,0.10150
4783.22,0.10057
4777.43,0.10117
4771.65,0.10062
4765.86,0.10259
4760.08,0.10122
4754.29,0.10014
4748.5,0.10062
4742.72,0.10080
4736.93,0.10141
4731.14,0.10137
4725.36,0.10174
4719.57,0.10058
4713.79,0.10004
4708,0.10089
4702.21,0.10213
4696.43,0.10171
4690.64,0.10139
4684.86,0.10128
4679.07,0.10133
4673.28,0.10143
4667.5,0.10261
4661.71,0.10088
4655.92,0.10161
4650.14,0.10159
4644.35,0.10059
4638.57,0.10110
4632.78,0.10070
4626.99,0.10104
4621.21,0.10200
4615.42,0.10125
4609.64,0.10075
4603.85,0.10188
4598.06,0.10093
4592.28,0.10165
4586.49,0.10160
4580.7,0.10026
4574.92,0.10140
4569.13,0.10125
4563.35,0.10194
4557.56,0.10239
4551.77,0.10186
4545.99,0.10088
4540.2,0.10100
4534.42,0.10088
4528.63,0.10098
4522.84,0.10066
4517.06,0.10101
4511.27,0.10088
4505.48,0.10009
4499.7,0.10013
4493.91,0.10021
4488.13,0.10061
4482.34,0.10082
4476.55,0.10074
4470.77,0.10055
4464.98,0.09987
4459.2,0.09968
4453.41,0.09969
4447.62,0.09998
4441.84,0.09859
4436.05,0.09834
4430.26,0.09813
4424.48,0.09748
4418.69,0.09731
4412.91,0.09687
4407.12,0.09632
4401.33,0.09494
4395.55,0.09326
4389.76,0.09254
4383.98,0.09211
4378.19,0.09077
4372.4,0.08973
4366.62,0.08833
4360.83,0.08706
4355.04,0.08495
4349.26,0.08185
4343.47,0.07765
4337.69,0.07442
4331.9,0.07139
4326.11,0.06665
4320.33,0.06741
4314.54,0.07446
4308.76,0.08228
4302.97,0.08479
4297.18,0.08607
4291.4,0.08586
4285.61,0.08456
4279.82,0.08463
4274.04,0.08306
4268.25,0.08065
4262.47,0.07869
4256.68,0.07289
4250.89,0.07071
4245.11,0.07614
4239.32,0.08103
4233.54,0.08113
4227.75,0.08061
4221.96,0.07879
4216.18,0.07897
4210.39,0.07913
4204.6,0.07944
4198.82,0.07843
4193.03,0.07613
4187.25,0.07659
4181.46,0.07648
4175.67,0.07747
4169.89,0.07748
4164.1,0.07724
4158.32,0.07733
4152.53,0.07701
4146.74,0.07673
4140.96,0.07755
4135.17,0.07811
4129.38,0.07860
4123.6,0.07866
4117.81,0.07830
4112.03,0.07790
4106.24,0.07790
4100.45,0.07890
4094.67,0.07908
4088.88,0.07996
4083.1,0.08250
4077.31,0.08224
4071.52,0.08385
4065.74,0.08481
4059.95,0.08524
4054.16,0.08544
4048.38,0.08605
4042.59,0.08674
4036.81,0.08699
4031.02,0.08728
4025.23,0.08678
4019.45,0.08749
4013.66,0.08821
4007.88,0.09010
4002.09,0.09023
3996.3,0.09068
3990.52,0.09112
3984.73,0.09107
3978.94,0.09028
3973.16,0.09061
3967.37,0.09053
3961.59,0.09081
3955.8,0.09121
3950.01,0.09043
3944.23,0.09066
3938.44,0.09141
3932.66,0.09111
3926.87,0.09048
3921.08,0.09034
3915.3,0.08952
3909.51,0.09026
3903.72,0.08955
3897.94,0.08981
3892.15,0.09078
3886.37,0.09051
3880.58,0.09020
3874.79,0.09073
3869.01,0.08975
3863.22,0.09064
3857.44,0.09163
3851.65,0.09092
3845.86,0.09203
3840.08,0.09237
3834.29,0.09186
3828.5,0.09253
3822.72,0.09125
3816.93,0.09258
3811.15,0.09267
3805.36,0.09250
3799.57,0.09310
3793.79,0.09364
3788,0.09395
3782.22,0.09401
3776.43,0.09397
3770.64,0.09357
3764.86,0.09442
3759.07,0.09464
3753.28,0.09437
3747.5,0.09372
3741.71,0.09470
3735.93,0.09380
3730.14,0.09427
3724.35,0.09468
3718.57,0.09419
3712.78,0.09417
3707,0.09376
3701.21,0.09395
3695.42,0.09377
3689.64,0.09348
3683.85,0.09363
3678.06,0.09315
3672.28,0.09190
3666.49,0.09217
3660.71,0.09272
3654.92,0.09119
3649.13,0.09063
3643.35,0.09035
3637.56,0.09107
3631.78,0.09074
3625.99,0.09158
3620.2,0.09054
3614.42,0.08900
3608.63,0.08619
3602.84,0.08561
3597.06,0.09015
3591.27,0.09403
3585.49,0.09536
3579.7,0.09517
3573.91,0.09529
3568.13,0.09515
3562.34,0.09587
3556.56,0.09742
3550.77,0.09753
3544.98,0.09738
3539.2,0.09639
3533.41,0.09670
3527.62,0.09718
3521.84,0.09764
3516.05,0.09770
3510.27,0.09711
3504.48,0.09625
3498.69,0.09698
3492.91,0.09744
3487.12,0.09683
3481.34,0.09709
3475.55,0.09569
3469.76,0.09650
3463.98,0.09577
3458.19,0.09603
3452.4,0.09564
3446.62,0.09619
3440.83,0.09487
3435.05,0.09458
3429.26,0.09525
3423.47,0.09435
3417.69,0.09546
3411.9,0.09556
3406.12,0.09512
3400.33,0.09402
3394.54,0.09425
3388.76,0.09435
3382.97,0.09433
3377.18,0.09433
3371.4,0.09428
3365.61,0.09310
3359.83,0.09373
3354.04,0.09362
3348.25,0.09570
3342.47,0.09481
3336.68,0.09412
3330.9,0.09409
3325.11,0.09390
3319.32,0.09382
3313.54,0.09486
3307.75,0.09525
3301.96,0.09447
3296.18,0.09368
3290.39,0.09382
3284.61,0.09469
3278.82,0.09566
3273.03,0.09505
3267.25,0.09412
3261.46,0.09441
3255.68,0.09433
3249.89,0.09530
3244.1,0.09500
3238.32,0.09450
3232.53,0.09322
3226.74,0.09332
3220.96,0.09356
3215.17,0.09382
3209.39,0.09405
3203.6,0.09270
3197.81,0.09178
3192.03,0.09128
3186.24,0.09166
3180.46,0.09289
3174.67,0.09239
3168.88,0.09039
3163.1,0.09021
3157.31,0.08998
3151.52,0.09007
3145.74,0.08953
3139.95,0.08932
3134.17,0.08768
3128.38,0.08723
3122.59,0.08716
3116.81,0.08653
3111.02,0.08440
3105.24,0.08285
3099.45,0.08099
3093.66,0.07831
3087.88,0.07606
3082.09,0.07461
3076.3,0.07277
3070.52,0.07197
3064.73,0.07188
3058.95,0.06987
3053.16,0.06817
3047.37,0.06672
3041.59,0.06600
3035.8,0.06469
3030.02,0.06242
3024.23,0.06163
3018.44,0.06043
3012.66,0.05961
3006.87,0.05786
3001.08,0.05682
2995.3,0.05529
2989.51,0.05318
2983.73,0.05228
2977.94,0.05073
2972.15,0.04926
2966.37,0.04805
2960.58,0.04797
2954.8,0.04698
2949.01,0.04440
2943.22,0.04204
2937.44,0.03911
2931.65,0.03962
2925.86,0.04919
2920.08,0.07374
2914.29,0.09012
2908.51,0.07949
2902.72,0.07397
2896.93,0.07160
2891.15,0.06940
2885.36,0.06762
2879.58,0.06532
2873.79,0.06263
2868,0.05958
2862.22,0.05602
2856.43,0.05392
2850.64,0.07201
2844.86,0.08628
2839.07,0.07842
2833.29,0.07362
2827.5,0.07161
2821.71,0.06967
2815.93,0.06830
2810.14,0.06827
2804.36,0.06738
2798.57,0.06785
2792.78,0.06853
2787,0.06963
2781.21,0.07068
2775.42,0.07181
2769.64,0.07232
2763.85,0.07345
2758.07,0.07393
2752.28,0.07414
2746.49,0.07390
2740.71,0.07434
2734.92,0.07485
2729.14,0.07477
2723.35,0.07500
2717.56,0.07506
2711.78,0.07601
2705.99,0.07679
2700.2,0.07718
2694.42,0.07568
2688.63,0.07494
2682.85,0.07543
2677.06,0.07486
2671.27,0.07385
2665.49,0.07330
2659.7,0.07331
2653.92,0.07445
2648.13,0.07487
2642.34,0.07441
2636.56,0.07397
2630.77,0.07417
2624.98,0.07591
2619.2,0.07804
2613.41,0.07953
2607.63,0.08070
2601.84,0.08093
2596.05,0.08148
2590.27,0.08327
2584.48,0.08584
2578.7,0.08737
2572.91,0.08735
2567.12,0.08775
2561.34,0.08869
2555.55,0.09035
2549.76,0.09145
2543.98,0.09231
2538.19,0.09209
2532.41,0.09130
2526.62,0.09153
2520.83,0.09341
2515.05,0.09541
2509.26,0.09553
2503.48,0.09541
2497.69,0.09482
2491.9,0.09604
2486.12,0.09762
2480.33,0.09825
2474.55,0.09720
2468.76,0.09678
2462.97,0.09712
2457.19,0.09827
2451.4,0.10054
2445.61,0.10022
2439.83,0.09825
2434.04,0.09700
2428.26,0.09681
2422.47,0.09728
2416.68,0.09819
2410.9,0.09807
2405.11,0.09763
2399.32,0.09633
2393.54,0.09630
2387.75,0.09771
2381.97,0.09890
2376.18,0.09852
2370.39,0.09674
2364.61,0.09404
2358.82,0.09347
2353.04,0.09378
2347.25,0.09328
2341.46,0.09207
2335.68,0.09041
2329.89,0.08915
2324.11,0.09063
2318.32,0.09244
2312.53,0.09545
2306.75,0.09564
2300.96,0.09496
2295.17,0.09354
2289.39,0.09439
2283.6,0.09671
2277.82,0.09858
2272.03,0.09873
2266.24,0.09776
2260.46,0.09639
2254.67,0.09645
2248.89,0.09838
2243.1,0.10056
2237.31,0.10083
2231.53,0.09966
2225.74,0.09756
2219.95,0.09798
2214.17,0.10017
2208.38,0.10175
2202.6,0.10200
2196.81,0.09934
2191.02,0.09747
2185.24,0.09771
2179.45,0.09985
2173.67,0.10176
2167.88,0.10150
2162.09,0.09914
2156.31,0.09680
2150.52,0.09628
2144.73,0.09858
2138.95,0.10136
2133.16,0.10232
2127.38,0.10059
2121.59,0.09900
2115.8,0.09876
2110.02,0.10085
2104.23,0.10306
2098.45,0.10355
2092.66,0.10087
2086.87,0.09849
2081.09,0.09831
2075.3,0.10022
2069.51,0.10228
2063.73,0.10140
2057.94,0.09942
2052.16,0.09644
2046.37,0.09569
2040.58,0.09693
2034.8,0.09861
2029.01,0.09795
2023.23,0.09427
2017.44,0.09177
2011.65,0.09379
2005.87,0.09843
2000.08,0.10201
1994.29,0.10325
1988.51,0.10096
1982.72,0.09886
1976.94,0.09870
1971.15,0.10070
1965.36,0.10292
1959.58,0.10286
1953.79,0.10090
1948.01,0.09824
1942.22,0.09749
1936.43,0.09994
1930.65,0.10214
1924.86,0.10247
1919.07,0.09975
1913.29,0.09673
1907.5,0.09536
1901.72,0.09661
1895.93,0.09852
1890.14,0.10040
1884.36,0.10019
1878.57,0.09811
1872.79,0.09795
1867,0.10062
1861.21,0.10324
1855.43,0.10378
1849.64,0.10188
1843.85,0.09872
1838.07,0.09861
1832.28,0.10048
1826.5,0.10234
1820.71,0.10191
1814.92,0.09983
1809.14,0.09721
1803.35,0.09698
1797.57,0.09976
1791.78,0.10209
1785.99,0.10206
1780.21,0.09898
1774.42,0.09628
1768.63,0.09518
1762.85,0.09769
1757.06,0.09929
1751.28,0.09687
1745.49,0.09203
1739.7,0.08998
1733.92,0.09176
1728.13,0.09608
1722.35,0.09765
1716.56,0.09656
1710.77,0.09439
1704.99,0.09228
1699.2,0.09274
1693.41,0.09729
1687.63,0.10062
1681.84,0.09944
1676.06,0.09603
1670.27,0.09209
1664.48,0.09318
1658.7,0.09712
1652.91,0.09931
1647.13,0.09823
1641.34,0.09359
1635.55,0.08983
1629.77,0.09121
1623.98,0.09571
1618.19,0.09869
1612.41,0.09752
1606.62,0.09248
1600.84,0.08883
1595.05,0.09002
1589.26,0.09482
1583.48,0.09795
1577.69,0.09677
1571.91,0.09038
1566.12,0.08641
1560.33,0.08806
1554.55,0.09389
1548.76,0.09643
1542.97,0.09324
1537.19,0.08513
1531.4,0.08264
1525.62,0.08667
1519.83,0.09139
1514.04,0.08996
1508.26,0.08366
1502.47,0.07524
1496.69,0.07614
1490.9,0.07816
1485.11,0.06723
1479.33,0.05805
1473.54,0.05382
1467.75,0.05705
1461.97,0.06245
1456.18,0.06168
1450.4,0.06250
1444.61,0.06101
1438.82,0.06080
1433.04,0.06553
1427.25,0.07947
1421.47,0.08453
1415.68,0.07808
1409.89,0.07888
1404.11,0.08814
1398.32,0.09486
1392.53,0.08977
1386.75,0.07632
1380.96,0.06393
1375.18,0.06416
1369.39,0.06775
1363.6,0.07320
1357.82,0.07473
1352.03,0.06883
1346.25,0.06690
1340.46,0.07097
1334.67,0.08347
1328.89,0.09166
1323.1,0.08700
1317.31,0.07452
1311.53,0.06718
1305.74,0.06902
1299.96,0.07638
1294.17,0.08503
1288.38,0.08647
1282.6,0.07926
1276.81,0.07260
1271.03,0.07473
1265.24,0.08565
1259.45,0.09589
1253.67,0.09501
1247.88,0.08563
1242.09,0.07741
1236.31,0.08005
1230.52,0.09124
1224.74,0.10069
1218.95,0.09886
1213.16,0.08801
1207.38,0.07829
1201.59,0.07973
1195.81,0.09132
1190.02,0.10172
1184.23,0.09950
1178.45,0.08795
1172.66,0.07751
1166.87,0.07783
1161.09,0.08981
1155.3,0.10070
1149.52,0.10062
1143.73,0.08896
1137.94,0.07907
1132.16,0.07830
1126.37,0.09107
1120.59,0.10405
1114.8,0.10473
1109.01,0.09313
1103.23,0.08011
1097.44,0.07832
1091.65,0.08904
1085.87,0.10054
1080.08,0.10171
1074.3,0.09442
1068.51,0.08200
1062.72,0.07827
1056.94,0.08977
1051.15,0.10422
1045.37,0.10953
1039.58,0.09982
1033.79,0.08433
1028.01,0.07945
1022.22,0.08986
1016.43,0.10435
1010.65,0.11299
1004.86,0.10580
999.076,0.08960
993.29,0.08109
987.504,0.09088
981.717,0.10820
975.931,0.11432
970.145,0.10351
964.359,0.08549
958.573,0.07713
952.787,0.08691
947,0.10555
941.214,0.11552
935.428,0.10577
929.642,0.08620
923.856,0.07612
918.07,0.08567
912.284,0.10490
906.497,0.11550
900.711,0.10668
894.925,0.08653
889.139,0.07487
883.353,0.08309
877.567,0.10549
871.78,0.11802
865.994,0.10818
860.208,0.08643
854.422,0.07367
848.636,0.08291
842.85,0.10559
837.064,0.11765
831.277,0.10812
825.491,0.08569
819.705,0.07132
813.919,0.08083
808.133,0.10367
802.347,0.11538
796.56,0.10354
790.774,0.07862
784.988,0.06515
779.202,0.07535
773.416,0.09571
767.63,0.10631
761.844,0.09304
756.057,0.06812
750.271,0.06097
744.485,0.07912
738.699,0.08169
732.913,0.05366
727.127,0.05769
721.34,0.05714
715.554,0.06881
709.768,0.07564
703.982,0.06007
698.196,0.07722
692.41,0.11617
686.624,0.12588
680.837,0.09795
675.051,0.06867
669.265,0.06923
663.479,0.10514
657.693,0.13311
651.907,0.12837
646.12,0.09453
640.334,0.06481
634.548,0.07218
628.762,0.10811
622.976,0.13850
617.19,0.12974
611.404,0.09465
605.617,0.06339
599.831,0.07099