File: 01_Data/PEVA/FTIR/IS/PEVA_0.10_IS_S_240808_R1.dpt
7496.93,0.10284
7491.14,0.09209
7485.35,0.09768
7479.57,0.09441
7473.78,0.08627
7468,0.09692
7462.21,0.09583
7456.42,0.09099
7450.64,0.09436
7444.85,0.09688
7439.06,0.08835
7433.28,0.09355
7427.49,0.08908
7421.71,0.09978
7415.92,0.09362
7410.13,0.08787
7404.35,0.09471
7398.56,0.10987
7392.78,0.10350
7386.99,0.09469
7381.2,0.08215
7375.42,0.09125
7369.63,0.08808
7363.84,0.09403
7358.06,0.09573
7352.27,0.08052
7346.49,0.09900
7340.7,0.09249
7334.91,0.09751
7329.13,0.10727
7323.34,0.09551
7317.56,0.10309
7311.77,0.09886
7305.98,0.09710
7300.2,0.10641
7294.41,0.09113
7288.62,0.10071
7282.84,0.10173
7277.05,0.09660
7271.27,0.09454
7265.48,0.08539
7259.69,0.10006
7253.91,0.09507
7248.12,0.09592
7242.34,0.09054
7236.55,0.09465
7230.76,0.09698
7224.98,0.10369
7219.19,0.09294
7213.4,0.09348
7207.62,0.09512
7201.83,0.10034
7196.05,0.09624
7190.26,0.09088
7184.47,0.10386
7178.69,0.08756
7172.9,0.09712
7167.12,0.08889
7161.33,0.10156
7155.54,0.09528
7149.76,0.09632
7143.97,0.09557
7138.18,0.09645
7132.4,0.09207
7126.61,0.08511
7120.83,0.09744
7115.04,0.10667
7109.25,0.09491
7103.47,0.09565
7097.68,0.09604
7091.9,0.09641
7086.11,0.09648
7080.32,0.09135
7074.54,0.09384
7068.75,0.09860
7062.96,0.09561
7057.18,0.08603
7051.39,0.09048
7045.61,0.08305
7039.82,0.09179
7034.03,0.09664
7028.25,0.09653
7022.46,0.09964
7016.68,0.09985
7010.89,0.09285
7005.1,0.09741
6999.32,0.10034
6993.53,0.09656
6987.74,0.10223
6981.96,0.09371
6976.17,0.09821
6970.39,0.09012
6964.6,0.09513
6958.81,0.09484
6953.03,0.09965
6947.24,0.09648
6941.46,0.10618
6935.67,0.10000
6929.88,0.10034
6924.1,0.09316
6918.31,0.10170
6912.52,0.09800
6906.74,0.09398
6900.95,0.09699
6895.17,0.10071
6889.38,0.10048
6883.59,0.09898
6877.81,0.09607
6872.02,0.09830
6866.24,0.09026
6860.45,0.10188
6854.66,0.09796
6848.88,0.09778
6843.09,0.09593
6837.3,0.09982
6831.52,0.10026
6825.73,0.09558
6819.95,0.09734
6814.16,0.09463
6808.37,0.09561
6802.59,0.09711
6796.8,0.09436
6791.02,0.09260
6785.23,0.09633
6779.44,0.09539
6773.66,0.10025
6767.87,0.10665
6762.08,0.09499
6756.3,0.09835
6750.51,0.10436
6744.73,0.09972
6738.94,0.09637
6733.15,0.09559
6727.37,0.09887
6721.58,0.09522
6715.8,0.09447
6710.01,0.09520
6704.22,0.10398
6698.44,0.09512
6692.65,0.09836
6686.86,0.09804
6681.08,0.09808
6675.29,0.09309
6669.51,0.09865
6663.72,0.10214
6657.93,0.09227
6652.15,0.09337
6646.36,0.09528
6640.58,0.09602
6634.79,0.09513
6629,0.09318
6623.22,0.09947
6617.43,0.09282
6611.64,0.09586
6605.86,0.09882
6600.07,0.09663
6594.29,0.10069
6588.5,0.09957
6582.71,0.10170
6576.93,0.09462
6571.14,0.09468
6565.36,0.09675
6559.57,0.09718
6553.78,0.09698
6548,0.10561
6542.21,0.09185
6536.42,0.09659
6530.64,0.09690
6524.85,0.09220
6519.07,0.09387
6513.28,0.09803
6507.49,0.09768
6501.71,0.09627
6495.92,0.10220
6490.14,0.09775
6484.35,0.09585
6478.56,0.09614
6472.78,0.09520
6466.99,0.10069
6461.2,0.09536
6455.42,0.09928
6449.63,0.10143
6443.85,0.09609
6438.06,0.09263
6432.27,0.09154
6426.49,0.09466
6420.7,0.10098
6414.92,0.10071
6409.13,0.09413
6403.34,0.09444
6397.56,0.09229
6391.77,0.09718
6385.98,0.09303
6380.2,0.09708
6374.41,0.09485
6368.63,0.09752
6362.84,0.10010
6357.05,0.09617
6351.27,0.10089
6345.48,0.09712
6339.7,0.09930
6333.91,0.09793
6328.12,0.10213
6322.34,0.09887
6316.55,0.09429
6310.76,0.09985
6304.98,0.09868
6299.19,0.09545
6293.41,0.09542
6287.62,0.10075
6281.83,0.09418
6276.05,0.09490
6270.26,0.09534
6264.48,0.09404
6258.69,0.09720
6252.9,0.09928
6247.12,0.09527
6241.33,0.09288
6235.54,0.09603
6229.76,0.09537
6223.97,0.09571
6218.19,0.09559
6212.4,0.09856
6206.61,0.09801
6200.83,0.09489
6195.04,0.09516
6189.26,0.09842
6183.47,0.09646
6177.68,0.10063
6171.9,0.09612
6166.11,0.09673
6160.32,0.09669
6154.54,0.09697
6148.75,0.09889
6142.97,0.09632
6137.18,0.09754
6131.39,0.09636
6125.61,0.09460
6119.82,0.10115
6114.04,0.09827
6108.25,0.09643
6102.46,0.09706
6096.68,0.09845
6090.89,0.09842
6085.1,0.09731
6079.32,0.09653
6073.53,0.09624
6067.75,0.09830
6061.96,0.09810
6056.17,0.09893
6050.39,0.09465
6044.6,0.09816
6038.82,0.09902
6033.03,0.09774
6027.24,0.09649
6021.46,0.09635
6015.67,0.09696
6009.88,0.09773
6004.1,0.09393
5998.31,0.09573
5992.53,0.09737
5986.74,0.09697
5980.95,0.09307
5975.17,0.09503
5969.38,0.09495
5963.6,0.09836
5957.81,0.09498
5952.02,0.09693
5946.24,0.09800
5940.45,0.09733
5934.66,0.09560
5928.88,0.09536
5923.09,0.09710
5917.31,0.09742
5911.52,0.09570
5905.73,0.09215
5899.95,0.09791
5894.16,0.09521
5888.38,0.09642
5882.59,0.09488
5876.8,0.09184
5871.02,0.09490
5865.23,0.09172
5859.44,0.09416
5853.66,0.09430
5847.87,0.09439
5842.09,0.09044
5836.3,0.09464
5830.51,0.08962
5824.73,0.09142
5818.94,0.09324
5813.16,0.08764
5807.37,0.08919
5801.58,0.08989
5795.8,0.08661
5790.01,0.08404
5784.22,0.08484
5778.44,0.08535
5772.65,0.08391
5766.87,0.08608
5761.08,0.08954
5755.29,0.09084
5749.51,0.09224
5743.72,0.09169
5737.94,0.09389
5732.15,0.09345
5726.36,0.09259
5720.58,0.09487
5714.79,0.09333
5709,0.09062
5703.22,0.09339
5697.43,0.09466
5691.65,0.09399
5685.86,0.09056
5680.07,0.09184
5674.29,0.09101
5668.5,0.09007
5662.72,0.08805
5656.93,0.09090
5651.14,0.09295
5645.36,0.09443
5639.57,0.09274
5633.78,0.09292
5628,0.09331
5622.21,0.09415
5616.43,0.09389
5610.64,0.09417
5604.85,0.09647
5599.07,0.09449
5593.28,0.09450
5587.5,0.09460
5581.71,0.09693
5575.92,0.09613
5570.14,0.09425
5564.35,0.09365
5558.56,0.09397
5552.78,0.09721
5546.99,0.09501
5541.21,0.09619
5535.42,0.09479
5529.63,0.09743
5523.85,0.09558
5518.06,0.09603
5512.28,0.09610
5506.49,0.09637
5500.7,0.09501
5494.92,0.09215
5489.13,0.09632
5483.34,0.09402
5477.56,0.09525
5471.77,0.09657
5465.99,0.09645
5460.2,0.09648
5454.41,0.09752
5448.63,0.09770
5442.84,0.09297
5437.06,0.09723
5431.27,0.09787
5425.48,0.09497
5419.7,0.09588
5413.91,0.09670
5408.12,0.09561
5402.34,0.09670
5396.55,0.09455
5390.77,0.09456
5384.98,0.09460
5379.19,0.09653
5373.41,0.09573
5367.62,0.09653
5361.84,0.09909
5356.05,0.09735
5350.26,0.09752
5344.48,0.09691
5338.69,0.09811
5332.9,0.09796
5327.12,0.09937
5321.33,0.09792
5315.55,0.09852
5309.76,0.09628
5303.97,0.09705
5298.19,0.09794
5292.4,0.09766
5286.62,0.09667
5280.83,0.09823
5275.04,0.09826
5269.26,0.09724
5263.47,0.09689
5257.68,0.09697
5251.9,0.09628
5246.11,0.09665
5240.33,0.09843
5234.54,0.09860
5228.75,0.09695
5222.97,0.09681
5217.18,0.09752
5211.4,0.09818
5205.61,0.09642
5199.82,0.09843
5194.04,0.09964
5188.25,0.09782
5182.46,0.09621
5176.68,0.09648
5170.89,0.09742
5165.11,0.09833
5159.32,0.09928
5153.53,0.09782
5147.75,0.09683
5141.96,0.09834
5136.18,0.09949
5130.39,0.09716
5124.6,0.09940
5118.82,0.10022
5113.03,0.09684
5107.24,0.09862
5101.46,0.09788
5095.67,0.09690
5089.89,0.09697
5084.1,0.09890
5078.31,0.09774
5072.53,0.09767
5066.74,0.09810
5060.96,0.09805
5055.17,0.09800
5049.38,0.09863
5043.6,0.09822
5037.81,0.09851
5032.02,0.09903
5026.24,0.09848
5020.45,0.09944
5014.67,0.09836
5008.88,0.09752
5003.09,0.09806
4997.31,0.09909
4991.52,0.09886
4985.74,0.09857
4979.95,0.09870
4974.16,0.09808
4968.38,0.09852
4962.59,0.09841
4956.8,0.09795
4951.02,0.09888
4945.23,0.10008
4939.45,0.09962
4933.66,0.09806
4927.87,0.09708
4922.09,0.09851
4916.3,0.09922
4910.52,0.09979
4904.73,0.09933
4898.94,0.09877
4893.16,0.09935
4887.37,0.09836
4881.58,0.09798
4875.8,0.10033
4870.01,0.09760
4864.23,0.09823
4858.44,0.09798
4852.65,0.09928
4846.87,0.09942
4841.08,0.09998
4835.3,0.09967
4829.51,0.09929
4823.72,0.09858
4817.94,0.09911
4812.15,0.09857
4806.36,0.09993
4800.58,0.09878
4794.79,0.09938
4789.01,0.09933
4783.22,0.09969
4777.43,0.09937
4771.65,0.09946
4765.86,0.09939
4760.08,0.10068
4754.29,0.10069
4748.5,0.09910
4742.72,0.10041
4736.93,0.10009
4731.14,0.10056
4725.36,0.09943
4719.57,0.10095
4713.79,0.09987
4708,0.10092
4702.21,0.10116
4696.43,0.10053
4690.64,0.10009
4684.86,0.09974
4679.07,0.09935
4673.28,0.09925
4667.5,0.09987
4661.71,0.10050
4655.92,0.10041
4650.14,0.09951
4644.35,0.09945
4638.57,0.10080
4632.78,0.09970
4626.99,0.10030
4621.21,0.09991
4615.42,0.09995
4609.64,0.09971
4603.85,0.10005
4598.06,0.09999
4592.28,0.10008
4586.49,0.10103
4580.7,0.09974
4574.92,0.09934
4569.13,0.10108
4563.35,0.10029
4557.56,0.09999
4551.77,0.10053
4545.99,0.10083
4540.2,0.09990
4534.42,0.09992
4528.63,0.09928
4522.84,0.10088
4517.06,0.09939
4511.27,0.09901
4505.48,0.09888
4499.7,0.09983
4493.91,0.09823
4488.13,0.09898
4482.34,0.09933
4476.55,0.09800
4470.77,0.09835
4464.98,0.09810
4459.2,0.09828
4453.41,0.09805
4447.62,0.09785
4441.84,0.09712
4436.05,0.09672
4430.26,0.09748
4424.48,0.09712
4418.69,0.09728
4412.91,0.09642
4407.12,0.09517
4401.33,0.09335
4395.55,0.09288
4389.76,0.09165
4383.98,0.09138
4378.19,0.08994
4372.4,0.08830
4366.62,0.08690
4360.83,0.08517
4355.04,0.08347
4349.26,0.08096
4343.47,0.07650
4337.69,0.07334
4331.9,0.07046
4326.11,0.06636
4320.33,0.06659
4314.54,0.07410
4308.76,0.08128
4302.97,0.08392
4297.18,0.08441
4291.4,0.08442
4285.61,0.08386
4279.82,0.08363
4274.04,0.08235
4268.25,0.08063
4262.47,0.07728
4256.68,0.07184
4250.89,0.06990
4245.11,0.07562
4239.32,0.08055
4233.54,0.08093
4227.75,0.07974
4221.96,0.07754
4216.18,0.07837
4210.39,0.07816
4204.6,0.07911
4198.82,0.07628
4193.03,0.07481
4187.25,0.07530
4181.46,0.07513
4175.67,0.07538
4169.89,0.07597
4164.1,0.07622
4158.32,0.07653
4152.53,0.07578
4146.74,0.07610
4140.96,0.07627
4135.17,0.07792
4129.38,0.07812
4123.6,0.07740
4117.81,0.07722
4112.03,0.07710
4106.24,0.07753
4100.45,0.07740
4094.67,0.07827
4088.88,0.07893
4083.1,0.08102
4077.31,0.08113
4071.52,0.08198
4065.74,0.08414
4059.95,0.08406
4054.16,0.08512
4048.38,0.08454
4042.59,0.08517
4036.81,0.08627
4031.02,0.08598
4025.23,0.08695
4019.45,0.08585
4013.66,0.08768
4007.88,0.08870
4002.09,0.08832
3996.3,0.08929
3990.52,0.08975
3984.73,0.09069
3978.94,0.08914
3973.16,0.08861
3967.37,0.08944
3961.59,0.08962
3955.8,0.09045
3950.01,0.09085
3944.23,0.08962
3938.44,0.08924
3932.66,0.08811
3926.87,0.08931
3921.08,0.09015
3915.3,0.08991
3909.51,0.08955
3903.72,0.08751
3897.94,0.08822
3892.15,0.08857
3886.37,0.09008
3880.58,0.08993
3874.79,0.08900
3869.01,0.08768
3863.22,0.08847
3857.44,0.08894
3851.65,0.09047
3845.86,0.09167
3840.08,0.09018
3834.29,0.08966
3828.5,0.08952
3822.72,0.09035
3816.93,0.09197
3811.15,0.09165
3805.36,0.09200
3799.57,0.08995
3793.79,0.09048
3788,0.09285
3782.22,0.09369
3776.43,0.09376
3770.64,0.09305
3764.86,0.09163
3759.07,0.09141
3753.28,0.09280
3747.5,0.09381
3741.71,0.09410
3735.93,0.09277
3730.14,0.09163
3724.35,0.09196
3718.57,0.09232
3712.78,0.09352
3707,0.09331
3701.21,0.09247
3695.42,0.09134
3689.64,0.08939
3683.85,0.09080
3678.06,0.09305
3672.28,0.09264
3666.49,0.09193
3660.71,0.09052
3654.92,0.08813
3649.13,0.08721
3643.35,0.08934
3637.56,0.09023
3631.78,0.09133
3625.99,0.08899
3620.2,0.08751
3614.42,0.08774
3608.63,0.08660
3602.84,0.08604
3597.06,0.08989
3591.27,0.09098
3585.49,0.09219
3579.7,0.09329
3573.91,0.09495
3568.13,0.09579
3562.34,0.09573
3556.56,0.09485
3550.77,0.09404
3544.98,0.09430
3539.2,0.09607
3533.41,0.09742
3527.62,0.09688
3521.84,0.09466
3516.05,0.09371
3510.27,0.09445
3504.48,0.09665
3498.69,0.09804
3492.91,0.09766
3487.12,0.09468
3481.34,0.09192
3475.55,0.09347
3469.76,0.09621
3463.98,0.09656
3458.19,0.09586
3452.4,0.09367
3446.62,0.09176
3440.83,0.09231
3435.05,0.09451
3429.26,0.09591
3423.47,0.09400
3417.69,0.09198
3411.9,0.09177
3406.12,0.09233
3400.33,0.09328
3394.54,0.09484
3388.76,0.09457
3382.97,0.09107
3377.18,0.08937
3371.4,0.09105
3365.61,0.09287
3359.83,0.09449
3354.04,0.09326
3348.25,0.09137
3342.47,0.09019
3336.68,0.09258
3330.9,0.09465
3325.11,0.09512
3319.32,0.09340
3313.54,0.09130
3307.75,0.09103
3301.96,0.09227
3296.18,0.09492
3290.39,0.09516
3284.61,0.09367
3278.82,0.09179
3273.03,0.09116
3267.25,0.09230
3261.46,0.09513
3255.68,0.09492
3249.89,0.09232
3244.1,0.09035
3238.32,0.09129
3232.53,0.09354
3226.74,0.09470
3220.96,0.09308
3215.17,0.09045
3209.39,0.08916
3203.6,0.09099
3197.81,0.09314
3192.03,0.09164
3186.24,0.08984
3180.46,0.08821
3174.67,0.08844
3168.88,0.09093
3163.1,0.09099
3157.31,0.08901
3151.52,0.08672
3145.74,0.08575
3139.95,0.08748
3134.17,0.08974
3128.38,0.08764
3122.59,0.08432
3116.81,0.08223
3111.02,0.08356
3105.24,0.08381
3099.45,0.08116
3093.66,0.07573
3087.88,0.07321
3082.09,0.07426
3076.3,0.07433
3070.52,0.07180
3064.73,0.06844
3058.95,0.06813
3053.16,0.06874
3047.37,0.06728
3041.59,0.06395
3035.8,0.06190
3030.02,0.06247
3024.23,0.06124
3018.44,0.05839
3012.66,0.05756
3006.87,0.05740
3001.08,0.05455
2995.3,0.05420
2989.51,0.05238
2983.73,0.05068
2977.94,0.04986
2972.15,0.04896
2966.37,0.04752
2960.58,0.04704
2954.8,0.04609
2949.01,0.04414
2943.22,0.04143
2937.44,0.03891
2931.65,0.03997
2925.86,0.04846
2920.08,0.07240
2914.29,0.08767
2908.51,0.07811
2902.72,0.07248
2896.93,0.06959
2891.15,0.06782
2885.36,0.06632
2879.58,0.06375
2873.79,0.06172
2868,0.05865
2862.22,0.05512
2856.43,0.05354
2850.64,0.07007
2844.86,0.08398
2839.07,0.07634
2833.29,0.07164
2827.5,0.06927
2821.71,0.06803
2815.93,0.06739
2810.14,0.06678
2804.36,0.06699
2798.57,0.06620
2792.78,0.06782
2787,0.06816
2781.21,0.06814
2775.42,0.07123
2769.64,0.07321
2763.85,0.07192
2758.07,0.07114
2752.28,0.07421
2746.49,0.07487
2740.71,0.07173
2734.92,0.07097
2729.14,0.07365
2723.35,0.07534
2717.56,0.07459
2711.78,0.07308
2705.99,0.07347
2700.2,0.07644
2694.42,0.07720
2688.63,0.07452
2682.85,0.07170
2677.06,0.07194
2671.27,0.07311
2665.49,0.07431
2659.7,0.07311
2653.92,0.07137
2648.13,0.07087
2642.34,0.07262
2636.56,0.07447
2630.77,0.07536
2624.98,0.07485
2619.2,0.07420
2613.41,0.07568
2607.63,0.07966
2601.84,0.08303
2596.05,0.08275
2590.27,0.08085
2584.48,0.08085
2578.7,0.08383
2572.91,0.08827
2567.12,0.09028
2561.34,0.08894
2555.55,0.08524
2549.76,0.08544
2543.98,0.08983
2538.19,0.09397
2532.41,0.09341
2526.62,0.08974
2520.83,0.08775
2515.05,0.08993
2509.26,0.09449
2503.48,0.09798
2497.69,0.09706
2491.9,0.09319
2486.12,0.09136
2480.33,0.09276
2474.55,0.09649
2468.76,0.09984
2462.97,0.09887
2457.19,0.09522
2451.4,0.09311
2445.61,0.09524
2439.83,0.09928
2434.04,0.10105
2428.26,0.09765
2422.47,0.09247
2416.68,0.09093
2410.9,0.09469
2405.11,0.09853
2399.32,0.09975
2393.54,0.09714
2387.75,0.09317
2381.97,0.09184
2376.18,0.09481
2370.39,0.09849
2364.61,0.09827
2358.82,0.09424
2353.04,0.08834
2347.25,0.08665
2341.46,0.08840
2335.68,0.09210
2329.89,0.09272
2324.11,0.09040
2318.32,0.08830
2312.53,0.08819
2306.75,0.09144
2300.96,0.09597
2295.17,0.09771
2289.39,0.09573
2283.6,0.09179
2277.82,0.09042
2272.03,0.09375
2266.24,0.09873
2260.46,0.10046
2254.67,0.09795
2248.89,0.09419
2243.1,0.09250
2237.31,0.09584
2231.53,0.10050
2225.74,0.10190
2219.95,0.09961
2214.17,0.09600
2208.38,0.09382
2202.6,0.09596
2196.81,0.09959
2191.02,0.10148
2185.24,0.10005
2179.45,0.09573
2173.67,0.09371
2167.88,0.09570
2162.09,0.09893
2156.31,0.10047
2150.52,0.09889
2144.73,0.09543
2138.95,0.09389
2133.16,0.09596
2127.38,0.10027
2121.59,0.10266
2115.8,0.10202
2110.02,0.09838
2104.23,0.09524
2098.45,0.09638
2092.66,0.09939
2086.87,0.10216
2081.09,0.10142
2075.3,0.09780
2069.51,0.09512
2063.73,0.09448
2057.94,0.09732
2052.16,0.09996
2046.37,0.09928
2040.58,0.09562
2034.8,0.09193
2029.01,0.09045
2023.23,0.09177
2017.44,0.09467
2011.65,0.09794
2005.87,0.09858
2000.08,0.09598
1994.29,0.09503
1988.51,0.09737
1982.72,0.10119
1976.94,0.10270
1971.15,0.10076
1965.36,0.09689
1959.58,0.09510
1953.79,0.09610
1948.01,0.09978
1942.22,0.10210
1936.43,0.10139
1930.65,0.09730
1924.86,0.09414
1919.07,0.09420
1913.29,0.09756
1907.5,0.09958
1901.72,0.09874
1895.93,0.09495
1890.14,0.09296
1884.36,0.09370
1878.57,0.09803
1872.79,0.10179
1867,0.10278
1861.21,0.10013
1855.43,0.09608
1849.64,0.09469
1843.85,0.09770
1838.07,0.10235
1832.28,0.10346
1826.5,0.10050
1820.71,0.09510
1814.92,0.09283
1809.14,0.09550
1803.35,0.09998
1797.57,0.10246
1791.78,0.10040
1785.99,0.09549
1780.21,0.09200
1774.42,0.09316
1768.63,0.09770
1762.85,0.10071
1757.06,0.09751
1751.28,0.09067
1745.49,0.08513
1739.7,0.08630
1733.92,0.09302
1728.13,0.09858
1722.35,0.09742
1716.56,0.09114
1710.77,0.08717
1704.99,0.08839
1699.2,0.09342
1693.41,0.10010
1687.63,0.10126
1681.84,0.09440
1676.06,0.08884
1670.27,0.08791
1664.48,0.09307
1658.7,0.09965
1652.91,0.09991
1647.13,0.09384
1641.34,0.08682
1635.55,0.08544
1629.77,0.09034
1623.98,0.09764
1618.19,0.09968
1612.41,0.09378
1606.62,0.08567
1600.84,0.08364
1595.05,0.08932
1589.26,0.09655
1583.48,0.09856
1577.69,0.09337
1571.91,0.08452
1566.12,0.08241
1560.33,0.08734
1554.55,0.09581
1548.76,0.09658
1542.97,0.09032
1537.19,0.07939
1531.4,0.07938
1525.62,0.08642
1519.83,0.09303
1514.04,0.08784
1508.26,0.07882
1502.47,0.07200
1496.69,0.07684
1490.9,0.07832
1485.11,0.06361
1479.33,0.05695
1473.54,0.05233
1467.75,0.05613
1461.97,0.06018
1456.18,0.06028
1450.4,0.06120
1444.61,0.05903
1438.82,0.05910
1433.04,0.06495
1427.25,0.07899
1421.47,0.08287
1415.68,0.07420
1409.89,0.07654
1404.11,0.08823
1398.32,0.09429
1392.53,0.08626
1386.75,0.07260
1380.96,0.06225
1375.18,0.06333
1369.39,0.06763
1363.6,0.07224
1357.82,0.07288
1352.03,0.06589
1346.25,0.06391
1340.46,0.06945
1334.67,0.08359
1328.89,0.09148
1323.1,0.08411
1317.31,0.07091
1311.53,0.06460
1305.74,0.06790
1299.96,0.07694
1294.17,0.08482
1288.38,0.08419
1282.6,0.07581
1276.81,0.06940
1271.03,0.07331
1265.24,0.08538
1259.45,0.09471
1253.67,0.09262
1247.88,0.08171
1242.09,0.07405
1236.31,0.07874
1230.52,0.09095
1224.74,0.10063
1218.95,0.09714
1213.16,0.08379
1207.38,0.07488
1201.59,0.07923
1195.81,0.09182
1190.02,0.10110
1184.23,0.09705
1178.45,0.08284
1172.66,0.07359
1166.87,0.07707
1161.09,0.09057
1155.3,0.10033
1149.52,0.09726
1143.73,0.08487
1137.94,0.07451
1132.16,0.07832
1126.37,0.09216
1120.59,0.10454
1114.8,0.10231
1109.01,0.08762
1103.23,0.07615
1097.44,0.07776
1091.65,0.09049
1085.87,0.10067
1080.08,0.09981
1074.3,0.08938
1068.51,0.07788
1062.72,0.07803
1056.94,0.09177
1051.15,0.10485
1045.37,0.10698
1039.58,0.09400
1033.79,0.07916
1028.01,0.07880
1022.22,0.09107
1016.43,0.10457
1010.65,0.11122
1004.86,0.10028
999.076,0.08269
993.29,0.07810
987.504,0.09205
981.717,0.11020
975.931,0.11344
970.145,0.09852
964.359,0.07893
958.573,0.07414
952.787,0.08861
947,0.10843
941.214,0.11465
935.428,0.10108
929.642,0.07982
923.856,0.07346
918.07,0.08758
912.284,0.10833
906.497,0.11543
900.711,0.10225
894.925,0.07858
889.139,0.06957
883.353,0.08408
877.567,0.10856
871.78,0.11907
865.994,0.10473
860.208,0.07917
854.422,0.06879
848.636,0.08308
842.85,0.10904
837.064,0.12032
831.277,0.10538
825.491,0.07780
819.705,0.06603
813.919,0.08141
808.133,0.10723
802.347,0.11716
796.56,0.10058
790.774,0.07174
784.988,0.05999
779.202,0.07476
773.416,0.09924
767.63,0.10660
761.844,0.08986
756.057,0.06184
750.271,0.05828
744.485,0.08165
738.699,0.08308
732.913,0.05187
727.127,0.05613
721.34,0.05585
715.554,0.06843
709.768,0.07368
703.982,0.05418
698.196,0.07639
692.41,0.11835
686.624,0.12562
680.837,0.09351
675.051,0.06085
669.265,0.06518
663.479,0.10423
657.693,0.13606
651.907,0.12973
646.12,0.08975
640.334,0.05754
634.548,0.06852
628.762,0.11064
622.976,0.14036
617.19,0.13272
611.404,0.09059
605.617,0.05687
599.831,0.06786