File: 01_Data/PEVA/FTIR/IS/PEVA_0.18_IS_T_240809_R14.dpt
7497.33,0.02887
7491.55,0.03617
7485.76,0.02759
7479.97,0.03414
7474.19,0.04365
7468.4,0.02448
7462.61,0.03219
7456.83,0.03838
7451.04,0.03444
7445.26,0.04927
7439.47,0.04827
7433.68,0.04269
7427.9,0.04177
7422.11,0.03022
7416.32,0.02741
7410.54,0.02566
7404.75,0.04446
7398.96,0.03705
7393.18,0.03462
7387.39,0.01182
7381.6,0.02672
7375.82,0.03406
7370.03,0.03679
7364.24,0.02948
7358.46,0.03623
7352.67,0.03106
7346.89,0.03999
7341.1,0.02990
7335.31,0.02830
7329.53,0.02134
7323.74,0.03831
7317.95,0.04336
7312.17,0.03230
7306.38,0.03834
7300.59,0.04516
7294.81,0.04689
7289.02,0.03014
7283.23,0.04362
7277.45,0.04253
7271.66,0.03458
7265.87,0.03205
7260.09,0.03390
7254.3,0.03749
7248.52,0.03852
7242.73,0.03414
7236.94,0.02885
7231.16,0.02492
7225.37,0.03752
7219.58,0.03120
7213.8,0.03062
7208.01,0.04515
7202.22,0.03119
7196.44,0.02801
7190.65,0.03398
7184.86,0.03730
7179.08,0.02715
7173.29,0.03448
7167.5,0.02631
7161.72,0.02406
7155.93,0.03081
7150.15,0.03098
7144.36,0.04143
7138.57,0.04119
7132.79,0.04448
7127,0.02782
7121.21,0.02836
7115.43,0.03602
7109.64,0.02682
7103.85,0.02987
7098.07,0.04063
7092.28,0.03777
7086.49,0.03376
7080.71,0.03259
7074.92,0.03454
7069.13,0.03552
7063.35,0.03468
7057.56,0.03160
7051.78,0.03082
7045.99,0.03668
7040.2,0.03036
7034.42,0.02448
7028.63,0.02908
7022.84,0.02890
7017.06,0.03620
7011.27,0.03011
7005.48,0.03717
6999.7,0.03545
6993.91,0.03317
6988.12,0.03028
6982.34,0.03211
6976.55,0.03675
6970.76,0.03025
6964.98,0.03412
6959.19,0.03084
6953.41,0.03685
6947.62,0.04505
6941.83,0.03374
6936.05,0.02951
6930.26,0.03061
6924.47,0.03783
6918.69,0.03301
6912.9,0.03934
6907.11,0.02593
6901.33,0.03725
6895.54,0.03412
6889.75,0.03003
6883.97,0.02944
6878.18,0.03390
6872.39,0.04517
6866.61,0.02806
6860.82,0.02831
6855.04,0.03098
6849.25,0.02968
6843.46,0.02889
6837.68,0.03053
6831.89,0.02874
6826.1,0.03328
6820.32,0.02951
6814.53,0.03504
6808.74,0.03012
6802.96,0.02891
6797.17,0.02921
6791.38,0.03495
6785.6,0.03498
6779.81,0.02538
6774.03,0.03324
6768.24,0.03600
6762.45,0.03085
6756.67,0.03595
6750.88,0.03184
6745.09,0.02844
6739.31,0.03136
6733.52,0.03270
6727.73,0.03604
6721.95,0.02983
6716.16,0.03058
6710.37,0.03062
6704.59,0.02675
6698.8,0.02986
6693.01,0.03018
6687.23,0.03108
6681.44,0.03013
6675.66,0.02818
6669.87,0.02728
6664.08,0.03188
6658.3,0.02772
6652.51,0.03015
6646.72,0.03083
6640.94,0.03069
6635.15,0.03761
6629.36,0.02831
6623.58,0.03293
6617.79,0.03447
6612,0.03299
6606.22,0.03439
6600.43,0.03164
6594.64,0.03710
6588.86,0.02919
6583.07,0.03478
6577.29,0.03699
6571.5,0.02484
6565.71,0.03026
6559.93,0.03464
6554.14,0.03290
6548.35,0.03059
6542.57,0.03507
6536.78,0.03229
6530.99,0.03237
6525.21,0.03300
6519.42,0.02823
6513.63,0.02935
6507.85,0.02635
6502.06,0.03209
6496.27,0.03272
6490.49,0.03716
6484.7,0.02767
6478.92,0.03160
6473.13,0.03215
6467.34,0.03112
6461.56,0.03322
6455.77,0.03477
6449.98,0.03575
6444.2,0.03226
6438.41,0.03183
6432.62,0.02922
6426.84,0.03625
6421.05,0.03367
6415.26,0.02849
6409.48,0.02999
6403.69,0.03086
6397.9,0.03029
6392.12,0.03513
6386.33,0.03393
6380.55,0.03436
6374.76,0.03206
6368.97,0.02990
6363.19,0.02976
6357.4,0.02959
6351.61,0.02818
6345.83,0.03269
6340.04,0.03031
6334.25,0.03196
6328.47,0.03508
6322.68,0.03182
6316.89,0.02846
6311.11,0.03195
6305.32,0.02974
6299.53,0.03220
6293.75,0.03223
6287.96,0.02508
6282.18,0.02993
6276.39,0.02945
6270.6,0.02941
6264.82,0.02947
6259.03,0.02945
6253.24,0.03111
6247.46,0.02769
6241.67,0.02819
6235.88,0.03138
6230.1,0.03048
6224.31,0.02949
6218.52,0.03604
6212.74,0.03255
6206.95,0.03310
6201.16,0.03556
6195.38,0.02678
6189.59,0.02956
6183.81,0.03078
6178.02,0.02768
6172.23,0.03468
6166.45,0.02878
6160.66,0.03416
6154.87,0.03208
6149.09,0.03240
6143.3,0.02944
6137.51,0.03224
6131.73,0.03057
6125.94,0.03210
6120.15,0.02982
6114.37,0.03254
6108.58,0.03139
6102.79,0.03175
6097.01,0.02821
6091.22,0.02886
6085.44,0.03036
6079.65,0.03012
6073.86,0.03033
6068.08,0.03140
6062.29,0.03164
6056.5,0.03039
6050.72,0.03077
6044.93,0.02957
6039.14,0.03015
6033.36,0.02731
6027.57,0.03261
6021.78,0.02772
6016,0.03375
6010.21,0.03172
6004.42,0.02979
5998.64,0.03045
5992.85,0.02785
5987.07,0.03152
5981.28,0.03092
5975.49,0.03386
5969.71,0.03247
5963.92,0.03215
5958.13,0.02939
5952.35,0.03115
5946.56,0.03032
5940.77,0.02896
5934.99,0.03198
5929.2,0.03323
5923.41,0.02955
5917.63,0.03003
5911.84,0.03296
5906.05,0.03215
5900.27,0.02744
5894.48,0.03180
5888.7,0.02956
5882.91,0.03154
5877.12,0.02984
5871.34,0.03132
5865.55,0.02525
5859.76,0.02895
5853.98,0.02990
5848.19,0.03130
5842.4,0.03054
5836.62,0.03048
5830.83,0.02773
5825.04,0.02906
5819.26,0.02855
5813.47,0.03014
5807.68,0.03065
5801.9,0.02954
5796.11,0.02921
5790.33,0.03058
5784.54,0.03085
5778.75,0.02822
5772.97,0.03177
5767.18,0.02869
5761.39,0.03019
5755.61,0.02939
5749.82,0.03012
5744.03,0.02641
5738.25,0.02829
5732.46,0.02959
5726.67,0.02755
5720.89,0.03048
5715.1,0.02938
5709.31,0.03108
5703.53,0.03012
5697.74,0.02939
5691.96,0.02990
5686.17,0.02968
5680.38,0.03146
5674.6,0.03118
5668.81,0.02875
5663.02,0.02732
5657.24,0.03044
5651.45,0.03017
5645.66,0.02987
5639.88,0.03345
5634.09,0.02964
5628.3,0.03177
5622.52,0.03018
5616.73,0.03123
5610.94,0.03207
5605.16,0.02963
5599.37,0.03114
5593.59,0.02948
5587.8,0.02998
5582.01,0.03117
5576.23,0.02974
5570.44,0.02929
5564.65,0.03094
5558.87,0.03050
5553.08,0.03089
5547.29,0.02926
5541.51,0.03074
5535.72,0.03048
5529.93,0.02908
5524.15,0.02921
5518.36,0.02837
5512.58,0.02892
5506.79,0.03142
5501,0.02963
5495.22,0.03019
5489.43,0.02909
5483.64,0.03151
5477.86,0.03070
5472.07,0.02941
5466.28,0.03022
5460.5,0.03017
5454.71,0.03017
5448.92,0.02911
5443.14,0.03099
5437.35,0.03220
5431.56,0.03200
5425.78,0.03231
5419.99,0.02792
5414.21,0.03036
5408.42,0.02913
5402.63,0.03152
5396.85,0.02949
5391.06,0.02995
5385.27,0.03088
5379.49,0.02940
5373.7,0.02956
5367.91,0.03077
5362.13,0.02934
5356.34,0.03000
5350.55,0.03020
5344.77,0.03143
5338.98,0.03198
5333.19,0.03071
5327.41,0.03060
5321.62,0.02905
5315.84,0.02893
5310.05,0.02909
5304.26,0.03043
5298.48,0.02999
5292.69,0.03073
5286.9,0.03005
5281.12,0.02911
5275.33,0.02890
5269.54,0.03231
5263.76,0.03179
5257.97,0.03085
5252.18,0.03033
5246.4,0.03070
5240.61,0.02954
5234.82,0.03076
5229.04,0.03097
5223.25,0.03002
5217.47,0.03027
5211.68,0.03097
5205.89,0.02943
5200.11,0.03034
5194.32,0.02998
5188.53,0.02890
5182.75,0.02980
5176.96,0.02962
5171.17,0.02881
5165.39,0.03097
5159.6,0.02857
5153.81,0.02998
5148.03,0.02937
5142.24,0.02866
5136.45,0.03124
5130.67,0.03094
5124.88,0.03090
5119.1,0.03181
5113.31,0.02968
5107.52,0.02931
5101.74,0.02957
5095.95,0.03084
5090.16,0.03064
5084.38,0.02941
5078.59,0.03002
5072.8,0.03057
5067.02,0.02995
5061.23,0.03165
5055.44,0.03043
5049.66,0.03026
5043.87,0.02925
5038.08,0.03068
5032.3,0.02948
5026.51,0.02934
5020.73,0.03021
5014.94,0.03020
5009.15,0.02980
5003.37,0.03096
4997.58,0.02957
4991.79,0.03105
4986.01,0.02920
4980.22,0.03106
4974.43,0.02974
4968.65,0.03059
4962.86,0.02950
4957.07,0.03052
4951.29,0.02940
4945.5,0.02849
4939.71,0.03061
4933.93,0.03108
4928.14,0.03139
4922.36,0.02921
4916.57,0.02861
4910.78,0.03232
4905,0.03180
4899.21,0.03081
4893.42,0.02877
4887.64,0.02909
4881.85,0.03092
4876.06,0.03066
4870.28,0.03079
4864.49,0.03010
4858.7,0.02980
4852.92,0.03034
4847.13,0.03016
4841.34,0.03059
4835.56,0.03001
4829.77,0.02892
4823.99,0.03177
4818.2,0.03114
4812.41,0.03096
4806.63,0.02965
4800.84,0.03007
4795.05,0.02926
4789.27,0.02938
4783.48,0.02954
4777.69,0.03014
4771.91,0.03024
4766.12,0.03085
4760.33,0.02902
4754.55,0.03078
4748.76,0.03112
4742.97,0.03148
4737.19,0.02908
4731.4,0.02985
4725.62,0.03020
4719.83,0.02967
4714.04,0.03010
4708.26,0.02930
4702.47,0.03050
4696.68,0.02931
4690.9,0.02986
4685.11,0.03069
4679.32,0.03028
4673.54,0.03042
4667.75,0.02954
4661.96,0.02967
4656.18,0.02983
4650.39,0.03015
4644.6,0.02971
4638.82,0.03015
4633.03,0.03051
4627.25,0.03025
4621.46,0.02922
4615.67,0.02974
4609.89,0.02921
4604.1,0.03061
4598.31,0.02964
4592.53,0.03040
4586.74,0.02908
4580.95,0.02925
4575.17,0.02992
4569.38,0.03001
4563.59,0.03091
4557.81,0.03066
4552.02,0.03016
4546.23,0.03014
4540.45,0.03119
4534.66,0.02997
4528.88,0.03008
4523.09,0.02980
4517.3,0.03089
4511.52,0.03056
4505.73,0.03061
4499.94,0.02918
4494.16,0.02956
4488.37,0.02990
4482.58,0.03091
4476.8,0.02983
4471.01,0.02986
4465.22,0.03016
4459.44,0.02941
4453.65,0.02921
4447.86,0.02983
4442.08,0.03024
4436.29,0.02914
4430.51,0.02896
4424.72,0.03047
4418.93,0.02980
4413.15,0.02974
4407.36,0.02974
4401.57,0.02895
4395.79,0.02972
4390,0.03064
4384.21,0.02995
4378.43,0.03038
4372.64,0.02997
4366.85,0.03017
4361.07,0.02949
4355.28,0.03019
4349.49,0.03008
4343.71,0.02952
4337.92,0.02982
4332.14,0.03019
4326.35,0.02949
4320.56,0.02991
4314.78,0.02964
4308.99,0.03005
4303.2,0.03030
4297.42,0.02919
4291.63,0.02962
4285.84,0.02940
4280.06,0.02955
4274.27,0.02893
4268.48,0.02987
4262.7,0.02989
4256.91,0.03051
4251.13,0.02955
4245.34,0.03023
4239.55,0.02942
4233.77,0.02949
4227.98,0.02956
4222.19,0.02876
4216.41,0.02981
4210.62,0.02889
4204.83,0.02938
4199.05,0.03086
4193.26,0.02964
4187.47,0.03019
4181.69,0.03031
4175.9,0.02985
4170.11,0.02960
4164.33,0.03049
4158.54,0.03032
4152.76,0.03000
4146.97,0.03039
4141.18,0.02985
4135.4,0.02923
4129.61,0.02987
4123.82,0.03042
4118.04,0.02957
4112.25,0.02948
4106.46,0.02943
4100.68,0.02955
4094.89,0.02945
4089.1,0.02951
4083.32,0.03004
4077.53,0.02982
4071.74,0.02947
4065.96,0.02947
4060.17,0.02985
4054.39,0.02985
4048.6,0.02935
4042.81,0.02914
4037.03,0.02969
4031.24,0.02997
4025.45,0.02960
4019.67,0.02943
4013.88,0.02900
4008.09,0.02933
4002.31,0.02897
3996.52,0.02926
3990.73,0.02935
3984.95,0.03028
3979.16,0.02986
3973.37,0.02988
3967.59,0.02962
3961.8,0.02986
3956.02,0.02942
3950.23,0.02915
3944.44,0.03046
3938.66,0.02931
3932.87,0.02938
3927.08,0.02952
3921.3,0.02976
3915.51,0.03002
3909.72,0.02907
3903.94,0.03033
3898.15,0.02965
3892.36,0.02955
3886.58,0.02951
3880.79,0.02961
3875,0.03007
3869.22,0.02959
3863.43,0.02968
3857.65,0.02982
3851.86,0.02994
3846.07,0.03042
3840.29,0.02991
3834.5,0.02948
3828.71,0.02873
3822.93,0.02995
3817.14,0.03078
3811.35,0.03044
3805.57,0.03050
3799.78,0.03125
3793.99,0.02914
3788.21,0.03008
3782.42,0.03032
3776.63,0.02918
3770.85,0.02979
3765.06,0.03016
3759.28,0.02963
3753.49,0.02960
3747.7,0.02969
3741.92,0.03050
3736.13,0.03029
3730.34,0.03009
3724.56,0.02973
3718.77,0.02991
3712.98,0.02899
3707.2,0.02974
3701.41,0.02943
3695.62,0.02952
3689.84,0.02904
3684.05,0.02885
3678.26,0.02937
3672.48,0.02968
3666.69,0.02892
3660.91,0.02875
3655.12,0.02868
3649.33,0.02868
3643.55,0.02838
3637.76,0.02790
3631.97,0.02818
3626.19,0.02772
3620.4,0.02760
3614.61,0.02824
3608.83,0.02744
3603.04,0.02780
3597.25,0.02683
3591.47,0.02696
3585.68,0.02686
3579.89,0.02647
3574.11,0.02688
3568.32,0.02746
3562.54,0.02725
3556.75,0.02738
3550.96,0.02745
3545.18,0.02674
3539.39,0.02614
3533.6,0.02711
3527.82,0.02676
3522.03,0.02615
3516.24,0.02668
3510.46,0.02717
3504.67,0.02672
3498.88,0.02592
3493.1,0.02588
3487.31,0.02665
3481.52,0.02640
3475.74,0.02634
3469.95,0.02630
3464.17,0.02672
3458.38,0.02670
3452.59,0.02557
3446.81,0.02625
3441.02,0.02658
3435.23,0.02617
3429.45,0.02578
3423.66,0.02693
3417.87,0.02630
3412.09,0.02582
3406.3,0.02566
3400.51,0.02618
3394.73,0.02595
3388.94,0.02554
3383.15,0.02558
3377.37,0.02598
3371.58,0.02669
3365.8,0.02598
3360.01,0.02598
3354.22,0.02586
3348.44,0.02516
3342.65,0.02550
3336.86,0.02602
3331.08,0.02574
3325.29,0.02597
3319.5,0.02561
3313.72,0.02544
3307.93,0.02617
3302.14,0.02679
3296.36,0.02549
3290.57,0.02627
3284.78,0.02622
3279,0.02567
3273.21,0.02593
3267.43,0.02670
3261.64,0.02547
3255.85,0.02576
3250.07,0.02650
3244.28,0.02677
3238.49,0.02679
3232.71,0.02731
3226.92,0.02722
3221.13,0.02606
3215.35,0.02610
3209.56,0.02563
3203.77,0.02614
3197.99,0.02689
3192.2,0.02670
3186.41,0.02622
3180.63,0.02640
3174.84,0.02642
3169.06,0.02649
3163.27,0.02676
3157.48,0.02668
3151.7,0.02604
3145.91,0.02732
3140.12,0.02612
3134.34,0.02597
3128.55,0.02635
3122.76,0.02668
3116.98,0.02729
3111.19,0.02645
3105.4,0.02668
3099.62,0.02681
3093.83,0.02683
3088.05,0.02604
3082.26,0.02640
3076.47,0.02613
3070.69,0.02674
3064.9,0.02694
3059.11,0.02613
3053.33,0.02683
3047.54,0.02699
3041.75,0.02728
3035.97,0.02600
3030.18,0.02603
3024.39,0.02709
3018.61,0.02641
3012.82,0.02666
3007.03,0.02602
3001.25,0.02621
2995.46,0.02626
2989.68,0.02622
2983.89,0.02595
2978.1,0.02582
2972.32,0.02569
2966.53,0.02593
2960.74,0.02531
2954.96,0.02548
2949.17,0.02585
2943.38,0.02520
2937.6,0.02510
2931.81,0.02551
2926.02,0.02551
2920.24,0.02552
2914.45,0.02618
2908.66,0.02616
2902.88,0.02625
2897.09,0.02565
2891.31,0.02616
2885.52,0.02605
2879.73,0.02624
2873.95,0.02593
2868.16,0.02622
2862.37,0.02621
2856.59,0.02596
2850.8,0.02610
2845.01,0.02667
2839.23,0.02677
2833.44,0.02698
2827.65,0.02695
2821.87,0.02688
2816.08,0.02676
2810.29,0.02726
2804.51,0.02689
2798.72,0.02665
2792.94,0.02669
2787.15,0.02669
2781.36,0.02706
2775.58,0.02702
2769.79,0.02710
2764,0.02712
2758.22,0.02715
2752.43,0.02662
2746.64,0.02676
2740.86,0.02700
2735.07,0.02667
2729.28,0.02623
2723.5,0.02638
2717.71,0.02697
2711.92,0.02706
2706.14,0.02710
2700.35,0.02729
2694.57,0.02674
2688.78,0.02707
2682.99,0.02702
2677.21,0.02681
2671.42,0.02697
2665.63,0.02726
2659.85,0.02670
2654.06,0.02692
2648.27,0.02721
2642.49,0.02728
2636.7,0.02671
2630.91,0.02696
2625.13,0.02710
2619.34,0.02710
2613.55,0.02693
2607.77,0.02683
2601.98,0.02636
2596.2,0.02665
2590.41,0.02642
2584.62,0.02699
2578.84,0.02634
2573.05,0.02704
2567.26,0.02714
2561.48,0.02698
2555.69,0.02663
2549.9,0.02726
2544.12,0.02679
2538.33,0.02674
2532.54,0.02651
2526.76,0.02629
2520.97,0.02664
2515.18,0.02649
2509.4,0.02626
2503.61,0.02638
2497.83,0.02689
2492.04,0.02651
2486.25,0.02655
2480.47,0.02650
2474.68,0.02680
2468.89,0.02629
2463.11,0.02680
2457.32,0.02678
2451.53,0.02667
2445.75,0.02673
2439.96,0.02678
2434.17,0.02683
2428.39,0.02647
2422.6,0.02628
2416.81,0.02670
2411.03,0.02658
2405.24,0.02658
2399.46,0.02644
2393.67,0.02663
2387.88,0.02628
2382.1,0.02629
2376.31,0.02673
2370.52,0.02684
2364.74,0.02697
2358.95,0.02679
2353.16,0.02664
2347.38,0.02654
2341.59,0.02704
2335.8,0.02652
2330.02,0.02624
2324.23,0.02619
2318.44,0.02653
2312.66,0.02633
2306.87,0.02648
2301.09,0.02642
2295.3,0.02648
2289.51,0.02651
2283.73,0.02635
2277.94,0.02615
2272.15,0.02602
2266.37,0.02580
2260.58,0.02595
2254.79,0.02608
2249.01,0.02611
2243.22,0.02615
2237.43,0.02624
2231.65,0.02607
2225.86,0.02609
2220.07,0.02581
2214.29,0.02591
2208.5,0.02601
2202.72,0.02620
2196.93,0.02591
2191.14,0.02599
2185.36,0.02569
2179.57,0.02555
2173.78,0.02569
2168,0.02595
2162.21,0.02599
2156.42,0.02614
2150.64,0.02585
2144.85,0.02571
2139.06,0.02541
2133.28,0.02575
2127.49,0.02613
2121.7,0.02550
2115.92,0.02583
2110.13,0.02576
2104.35,0.02558
2098.56,0.02554
2092.77,0.02571
2086.99,0.02575
2081.2,0.02540
2075.41,0.02581
2069.63,0.02553
2063.84,0.02548
2058.05,0.02523
2052.27,0.02563
2046.48,0.02583
2040.69,0.02541
2034.91,0.02524
2029.12,0.02546
2023.33,0.02535
2017.55,0.02550
2011.76,0.02550
2005.98,0.02575
2000.19,0.02560
1994.4,0.02539
1988.62,0.02539
1982.83,0.02547
1977.04,0.02514
1971.26,0.02511
1965.47,0.02557
1959.68,0.02530
1953.9,0.02553
1948.11,0.02551
1942.32,0.02502
1936.54,0.02480
1930.75,0.02497
1924.96,0.02542
1919.18,0.02506
1913.39,0.02520
1907.61,0.02496
1901.82,0.02496
1896.03,0.02482
1890.25,0.02506
1884.46,0.02486
1878.67,0.02464
1872.89,0.02456
1867.1,0.02463
1861.31,0.02439
1855.53,0.02456
1849.74,0.02454
1843.95,0.02451
1838.17,0.02431
1832.38,0.02470
1826.6,0.02433
1820.81,0.02413
1815.02,0.02385
1809.24,0.02387
1803.45,0.02352
1797.66,0.02384
1791.88,0.02356
1786.09,0.02344
1780.3,0.02286
1774.52,0.02307
1768.73,0.02295
1762.94,0.02253
1757.16,0.02170
1751.37,0.02141
1745.58,0.02134
1739.8,0.02240
1734.01,0.02333
1728.23,0.02418
1722.44,0.02469
1716.65,0.02482
1710.87,0.02408
1705.08,0.02399
1699.29,0.02361
1693.51,0.02260
1687.72,0.02292
1681.93,0.02270
1676.15,0.02224
1670.36,0.02144
1664.57,0.02163
1658.79,0.02219
1653,0.02208
1647.21,0.02244
1641.43,0.02209
1635.64,0.02199
1629.86,0.02218
1624.07,0.02214
1618.28,0.02269
1612.5,0.02201
1606.71,0.02188
1600.92,0.02188
1595.14,0.02223
1589.35,0.02207
1583.56,0.02153
1577.78,0.02166
1571.99,0.02185
1566.2,0.02141
1560.42,0.02216
1554.63,0.02153
1548.84,0.02176
1543.06,0.02223
1537.27,0.02221
1531.49,0.02206
1525.7,0.02242
1519.91,0.02194
1514.13,0.02236
1508.34,0.02240
1502.55,0.02198
1496.77,0.02243
1490.98,0.02238
1485.19,0.02171
1479.41,0.02177
1473.62,0.02127
1467.83,0.02142
1462.05,0.02153
1456.26,0.02119
1450.47,0.02156
1444.69,0.02156
1438.9,0.02165
1433.12,0.02124
1427.33,0.02116
1421.54,0.02096
1415.76,0.02138
1409.97,0.02103
1404.18,0.02084
1398.4,0.02098
1392.61,0.02027
1386.82,0.02058
1381.04,0.02067
1375.25,0.02050
1369.46,0.02071
1363.68,0.02096
1357.89,0.02095
1352.1,0.02052
1346.32,0.02033
1340.53,0.02072
1334.75,0.02005
1328.96,0.01988
1323.17,0.01978
1317.39,0.01962
1311.6,0.01983
1305.81,0.02027
1300.03,0.01984
1294.24,0.01997
1288.45,0.02030
1282.67,0.02137
1276.88,0.02121
1271.09,0.02162
1265.31,0.02173
1259.52,0.02235
1253.73,0.02223
1247.95,0.02255
1242.16,0.02246
1236.38,0.02230
1230.59,0.02256
1224.8,0.02187
1219.02,0.02139
1213.23,0.02112
1207.44,0.02135
1201.66,0.02081
1195.87,0.02133
1190.08,0.02098
1184.3,0.02094
1178.51,0.02116
1172.72,0.02000
1166.94,0.01982
1161.15,0.02022
1155.36,0.02001
1149.58,0.01998
1143.79,0.02031
1138.01,0.02088
1132.22,0.02096
1126.43,0.02112
1120.65,0.02190
1114.86,0.02199
1109.07,0.02245
1103.29,0.02220
1097.5,0.02115
1091.71,0.02177
1085.93,0.02217
1080.14,0.02274
1074.35,0.02354
1068.57,0.02428
1062.78,0.02388
1056.99,0.02373
1051.21,0.02343
1045.42,0.02372
1039.64,0.02283
1033.85,0.02320
1028.06,0.02291
1022.28,0.02260
1016.49,0.02248
1010.7,0.02291
1004.92,0.02363
999.13,0.02423
993.344,0.02425
987.557,0.02420
981.771,0.02388
975.984,0.02329
970.198,0.02398
964.411,0.02326
958.625,0.02390
952.838,0.02284
947.052,0.02335
941.265,0.02276
935.479,0.02306
929.692,0.02300
923.906,0.02223
918.12,0.02230
912.333,0.02240
906.547,0.02236
900.76,0.02191
894.974,0.02204
889.187,0.02222
883.401,0.02218
877.614,0.02229
871.828,0.02145
866.041,0.02212
860.255,0.02183
854.468,0.02182
848.682,0.02279
842.895,0.02264
837.109,0.02143
831.323,0.02145
825.536,0.02175
819.75,0.02140
813.963,0.02124
808.177,0.02198
802.39,0.02219
796.604,0.02071
790.817,0.02093
785.031,0.02065
779.244,0.02006
773.458,0.02029
767.671,0.01979
761.885,0.01995
756.098,0.02000
750.312,0.01988
744.526,0.02036
738.739,0.02014
732.953,0.02025
727.166,0.01971
721.38,0.02040
715.593,0.01903
709.807,0.01884
704.02,0.01855
698.234,0.01906
692.447,0.01931
686.661,0.01929
680.874,0.01850
675.088,0.01906
669.301,0.02035
663.515,0.01897
657.729,0.01804
651.942,0.01858
646.156,0.01653
640.369,0.01852
634.583,0.01980
628.796,0.01777
623.01,0.01904
617.223,0.01905
611.437,0.01900
605.65,0.01962
599.864,0.02012