File: 01_Data/PEVA/FTIR/IS/PEVA_0.18_IS_S_240809_R1.dpt
7497.33,0.10728
7491.55,0.09061
7485.76,0.10822
7479.97,0.10713
7474.19,0.09483
7468.4,0.10102
7462.61,0.11063
7456.83,0.10173
7451.04,0.10909
7445.26,0.11273
7439.47,0.10001
7433.68,0.10235
7427.9,0.09427
7422.11,0.10524
7416.32,0.10884
7410.54,0.10017
7404.75,0.08879
7398.96,0.11212
7393.18,0.10460
7387.39,0.10196
7381.6,0.11008
7375.82,0.11272
7370.03,0.10722
7364.24,0.10241
7358.46,0.09530
7352.67,0.11082
7346.89,0.09802
7341.1,0.08856
7335.31,0.10926
7329.53,0.11487
7323.74,0.10005
7317.95,0.11085
7312.17,0.11268
7306.38,0.10177
7300.59,0.10311
7294.81,0.10934
7289.02,0.09063
7283.23,0.09575
7277.45,0.11336
7271.66,0.11337
7265.87,0.10865
7260.09,0.10341
7254.3,0.09440
7248.52,0.10258
7242.73,0.11732
7236.94,0.11633
7231.16,0.10739
7225.37,0.11199
7219.58,0.10614
7213.8,0.09676
7208.01,0.10056
7202.22,0.10544
7196.44,0.10317
7190.65,0.08879
7184.86,0.10356
7179.08,0.10780
7173.29,0.10346
7167.5,0.09779
7161.72,0.09095
7155.93,0.09795
7150.15,0.10709
7144.36,0.11033
7138.57,0.11188
7132.79,0.09792
7127,0.09240
7121.21,0.09817
7115.43,0.09343
7109.64,0.09746
7103.85,0.10044
7098.07,0.10244
7092.28,0.10254
7086.49,0.10013
7080.71,0.10510
7074.92,0.10659
7069.13,0.09082
7063.35,0.09783
7057.56,0.09836
7051.78,0.10072
7045.99,0.10715
7040.2,0.10866
7034.42,0.10527
7028.63,0.09685
7022.84,0.10051
7017.06,0.10852
7011.27,0.09895
7005.48,0.09349
6999.7,0.10455
6993.91,0.10038
6988.12,0.10456
6982.34,0.10870
6976.55,0.10014
6970.76,0.09574
6964.98,0.10273
6959.19,0.09731
6953.41,0.10553
6947.62,0.10275
6941.83,0.09345
6936.05,0.10305
6930.26,0.09307
6924.47,0.10123
6918.69,0.10345
6912.9,0.10434
6907.11,0.09485
6901.33,0.09999
6895.54,0.10559
6889.75,0.10390
6883.97,0.10837
6878.18,0.10116
6872.39,0.09720
6866.61,0.09743
6860.82,0.09584
6855.04,0.10185
6849.25,0.09985
6843.46,0.09815
6837.68,0.10444
6831.89,0.09983
6826.1,0.10934
6820.32,0.09954
6814.53,0.10188
6808.74,0.09618
6802.96,0.09810
6797.17,0.10115
6791.38,0.09994
6785.6,0.10621
6779.81,0.09486
6774.03,0.10380
6768.24,0.11064
6762.45,0.09511
6756.67,0.09871
6750.88,0.10264
6745.09,0.10363
6739.31,0.10162
6733.52,0.10127
6727.73,0.10072
6721.95,0.09784
6716.16,0.09926
6710.37,0.10076
6704.59,0.10024
6698.8,0.09635
6693.01,0.10233
6687.23,0.09893
6681.44,0.10595
6675.66,0.10287
6669.87,0.09455
6664.08,0.10508
6658.3,0.09894
6652.51,0.09953
6646.72,0.10710
6640.94,0.10721
6635.15,0.10155
6629.36,0.09831
6623.58,0.09784
6617.79,0.10046
6612,0.09910
6606.22,0.09975
6600.43,0.10217
6594.64,0.10503
6588.86,0.10502
6583.07,0.10183
6577.29,0.09902
6571.5,0.09677
6565.71,0.10039
6559.93,0.10286
6554.14,0.10204
6548.35,0.10409
6542.57,0.10867
6536.78,0.10724
6530.99,0.09671
6525.21,0.10257
6519.42,0.10109
6513.63,0.10258
6507.85,0.10180
6502.06,0.09700
6496.27,0.10158
6490.49,0.10018
6484.7,0.10267
6478.92,0.10109
6473.13,0.09888
6467.34,0.10044
6461.56,0.10064
6455.77,0.10306
6449.98,0.10415
6444.2,0.10428
6438.41,0.10110
6432.62,0.10058
6426.84,0.09963
6421.05,0.10319
6415.26,0.10638
6409.48,0.09972
6403.69,0.09884
6397.9,0.09957
6392.12,0.10659
6386.33,0.10413
6380.55,0.10782
6374.76,0.10300
6368.97,0.10230
6363.19,0.10127
6357.4,0.10338
6351.61,0.09941
6345.83,0.09998
6340.04,0.10619
6334.25,0.10259
6328.47,0.10055
6322.68,0.10072
6316.89,0.10277
6311.11,0.09948
6305.32,0.10042
6299.53,0.09825
6293.75,0.10287
6287.96,0.09981
6282.18,0.10296
6276.39,0.10265
6270.6,0.10393
6264.82,0.10159
6259.03,0.09820
6253.24,0.10631
6247.46,0.10290
6241.67,0.10415
6235.88,0.10323
6230.1,0.09792
6224.31,0.10040
6218.52,0.10441
6212.74,0.10118
6206.95,0.09947
6201.16,0.10323
6195.38,0.10147
6189.59,0.10131
6183.81,0.09995
6178.02,0.10192
6172.23,0.09985
6166.45,0.09788
6160.66,0.10022
6154.87,0.09946
6149.09,0.10198
6143.3,0.10174
6137.51,0.10339
6131.73,0.10055
6125.94,0.10228
6120.15,0.10451
6114.37,0.10006
6108.58,0.09783
6102.79,0.09811
6097.01,0.09970
6091.22,0.10127
6085.44,0.10034
6079.65,0.10237
6073.86,0.10325
6068.08,0.10231
6062.29,0.09996
6056.5,0.10172
6050.72,0.10074
6044.93,0.10121
6039.14,0.10096
6033.36,0.09707
6027.57,0.10118
6021.78,0.09992
6016,0.09801
6010.21,0.10057
6004.42,0.09827
5998.64,0.09930
5992.85,0.10058
5987.07,0.10230
5981.28,0.09775
5975.49,0.09771
5969.71,0.09714
5963.92,0.09979
5958.13,0.09820
5952.35,0.09910
5946.56,0.09961
5940.77,0.09848
5934.99,0.09934
5929.2,0.10044
5923.41,0.10030
5917.63,0.09838
5911.84,0.09669
5906.05,0.09766
5900.27,0.09664
5894.48,0.09876
5888.7,0.09572
5882.91,0.09906
5877.12,0.10069
5871.34,0.09674
5865.55,0.09583
5859.76,0.09662
5853.98,0.09366
5848.19,0.09421
5842.4,0.09210
5836.62,0.09209
5830.83,0.09119
5825.04,0.09192
5819.26,0.08864
5813.47,0.08953
5807.68,0.08981
5801.9,0.08849
5796.11,0.08743
5790.33,0.08773
5784.54,0.08750
5778.75,0.08340
5772.97,0.08459
5767.18,0.08510
5761.39,0.09006
5755.61,0.08883
5749.82,0.09065
5744.03,0.09596
5738.25,0.09476
5732.46,0.09477
5726.67,0.09307
5720.89,0.09398
5715.1,0.09557
5709.31,0.09514
5703.53,0.09677
5697.74,0.09109
5691.96,0.09086
5686.17,0.09043
5680.38,0.09075
5674.6,0.09302
5668.81,0.09525
5663.02,0.09233
5657.24,0.09504
5651.45,0.09425
5645.66,0.09266
5639.88,0.09549
5634.09,0.09469
5628.3,0.09466
5622.52,0.09894
5616.73,0.09831
5610.94,0.09652
5605.16,0.09605
5599.37,0.09739
5593.59,0.09529
5587.8,0.09636
5582.01,0.09554
5576.23,0.09645
5570.44,0.09580
5564.65,0.09801
5558.87,0.09978
5553.08,0.09575
5547.29,0.09698
5541.51,0.09809
5535.72,0.09637
5529.93,0.09817
5524.15,0.09678
5518.36,0.09514
5512.58,0.09554
5506.79,0.09914
5501,0.09685
5495.22,0.09813
5489.43,0.09667
5483.64,0.09586
5477.86,0.09797
5472.07,0.09576
5466.28,0.09675
5460.5,0.10171
5454.71,0.10041
5448.92,0.09995
5443.14,0.09812
5437.35,0.09752
5431.56,0.09828
5425.78,0.10146
5419.99,0.09963
5414.21,0.09744
5408.42,0.10079
5402.63,0.10229
5396.85,0.10128
5391.06,0.09859
5385.27,0.10064
5379.49,0.09959
5373.7,0.09935
5367.91,0.10161
5362.13,0.09976
5356.34,0.09919
5350.55,0.09984
5344.77,0.10099
5338.98,0.10136
5333.19,0.10016
5327.41,0.09991
5321.62,0.10063
5315.84,0.09968
5310.05,0.09817
5304.26,0.09933
5298.48,0.09854
5292.69,0.09920
5286.9,0.10086
5281.12,0.10126
5275.33,0.09926
5269.54,0.09914
5263.76,0.09875
5257.97,0.10071
5252.18,0.10114
5246.4,0.09935
5240.61,0.10057
5234.82,0.09841
5229.04,0.09942
5223.25,0.10023
5217.47,0.10138
5211.68,0.10018
5205.89,0.09975
5200.11,0.10049
5194.32,0.09985
5188.53,0.09833
5182.75,0.09858
5176.96,0.10094
5171.17,0.10192
5165.39,0.10010
5159.6,0.10047
5153.81,0.10298
5148.03,0.09963
5142.24,0.10086
5136.45,0.10158
5130.67,0.10180
5124.88,0.10027
5119.1,0.10146
5113.31,0.10016
5107.52,0.10181
5101.74,0.10178
5095.95,0.10201
5090.16,0.10004
5084.38,0.10142
5078.59,0.10075
5072.8,0.10125
5067.02,0.10063
5061.23,0.10061
5055.44,0.09935
5049.66,0.10126
5043.87,0.10168
5038.08,0.10166
5032.3,0.10044
5026.51,0.09989
5020.73,0.10024
5014.94,0.09941
5009.15,0.09848
5003.37,0.10140
4997.58,0.09909
4991.79,0.09901
4986.01,0.09935
4980.22,0.10056
4974.43,0.09965
4968.65,0.10197
4962.86,0.10023
4957.07,0.10057
4951.29,0.10060
4945.5,0.09984
4939.71,0.10192
4933.93,0.10086
4928.14,0.09983
4922.36,0.10018
4916.57,0.10153
4910.78,0.10112
4905,0.10177
4899.21,0.10302
4893.42,0.10054
4887.64,0.10070
4881.85,0.10136
4876.06,0.10215
4870.28,0.10102
4864.49,0.10064
4858.7,0.10218
4852.92,0.10227
4847.13,0.10102
4841.34,0.10079
4835.56,0.10059
4829.77,0.10106
4823.99,0.10056
4818.2,0.10158
4812.41,0.10031
4806.63,0.10093
4800.84,0.10163
4795.05,0.10070
4789.27,0.10199
4783.48,0.10161
4777.69,0.10171
4771.91,0.10193
4766.12,0.10239
4760.33,0.10289
4754.55,0.10223
4748.76,0.10094
4742.97,0.10073
4737.19,0.10278
4731.4,0.10293
4725.62,0.10140
4719.83,0.10324
4714.04,0.10259
4708.26,0.10293
4702.47,0.10230
4696.68,0.10196
4690.9,0.10239
4685.11,0.10161
4679.32,0.10165
4673.54,0.10101
4667.75,0.10221
4661.96,0.10170
4656.18,0.10183
4650.39,0.10209
4644.6,0.10118
4638.82,0.10105
4633.03,0.10196
4627.25,0.10226
4621.46,0.10151
4615.67,0.10123
4609.89,0.10198
4604.1,0.10094
4598.31,0.10096
4592.53,0.10167
4586.74,0.10139
4580.95,0.10021
4575.17,0.10177
4569.38,0.10123
4563.59,0.10168
4557.81,0.10263
4552.02,0.10199
4546.23,0.10161
4540.45,0.10077
4534.66,0.10065
4528.88,0.10096
4523.09,0.10081
4517.3,0.10118
4511.52,0.10204
4505.73,0.10097
4499.94,0.10096
4494.16,0.10071
4488.37,0.10033
4482.58,0.10039
4476.8,0.09865
4471.01,0.09988
4465.22,0.09938
4459.44,0.09902
4453.65,0.09785
4447.86,0.09703
4442.08,0.09643
4436.29,0.09491
4430.51,0.09487
4424.72,0.09551
4418.93,0.09380
4413.15,0.09224
4407.36,0.09127
4401.57,0.09073
4395.79,0.08891
4390,0.08725
4384.21,0.08563
4378.43,0.08430
4372.64,0.08242
4366.85,0.08125
4361.07,0.07932
4355.28,0.07649
4349.49,0.07369
4343.71,0.06940
4337.92,0.06729
4332.14,0.06505
4326.35,0.06367
4320.56,0.06363
4314.78,0.07030
4308.99,0.07510
4303.2,0.07733
4297.42,0.07954
4291.63,0.07830
4285.84,0.07872
4280.06,0.07731
4274.27,0.07618
4268.48,0.07358
4262.7,0.07098
4256.91,0.06954
4251.13,0.06777
4245.34,0.07122
4239.55,0.07458
4233.77,0.07579
4227.98,0.07504
4222.19,0.07428
4216.41,0.07280
4210.62,0.07397
4204.83,0.07278
4199.05,0.07125
4193.26,0.07105
4187.47,0.07072
4181.69,0.07092
4175.9,0.07094
4170.11,0.07075
4164.33,0.07148
4158.54,0.07170
4152.76,0.07140
4146.97,0.07200
4141.18,0.07218
4135.4,0.07239
4129.61,0.07298
4123.82,0.07262
4118.04,0.07295
4112.25,0.07287
4106.46,0.07306
4100.68,0.07290
4094.89,0.07377
4089.1,0.07559
4083.32,0.07582
4077.53,0.07677
4071.74,0.07840
4065.96,0.07857
4060.17,0.07777
4054.39,0.07939
4048.6,0.08028
4042.81,0.08029
4037.03,0.08150
4031.24,0.08123
4025.45,0.08134
4019.67,0.08195
4013.88,0.08364
4008.09,0.08459
4002.31,0.08475
3996.52,0.08401
3990.73,0.08545
3984.95,0.08495
3979.16,0.08463
3973.37,0.08484
3967.59,0.08497
3961.8,0.08511
3956.02,0.08510
3950.23,0.08583
3944.44,0.08500
3938.66,0.08458
3932.87,0.08476
3927.08,0.08428
3921.3,0.08417
3915.51,0.08438
3909.72,0.08452
3903.94,0.08515
3898.15,0.08442
3892.36,0.08506
3886.58,0.08553
3880.79,0.08643
3875,0.08493
3869.22,0.08520
3863.43,0.08717
3857.65,0.08823
3851.86,0.08742
3846.07,0.08799
3840.29,0.08753
3834.5,0.08838
3828.71,0.08886
3822.93,0.08889
3817.14,0.08908
3811.35,0.08900
3805.57,0.09007
3799.78,0.09094
3793.99,0.09017
3788.21,0.09001
3782.42,0.09147
3776.63,0.09185
3770.85,0.09159
3765.06,0.09213
3759.28,0.09358
3753.49,0.09270
3747.7,0.09134
3741.92,0.09169
3736.13,0.09209
3730.34,0.09165
3724.56,0.09200
3718.77,0.09209
3712.98,0.09175
3707.2,0.09037
3701.41,0.08915
3695.62,0.08905
3689.84,0.08783
3684.05,0.08759
3678.26,0.08760
3672.48,0.08642
3666.69,0.08632
3660.91,0.08594
3655.12,0.08591
3649.33,0.08535
3643.55,0.08379
3637.76,0.08458
3631.97,0.08583
3626.19,0.08598
3620.4,0.08592
3614.61,0.08515
3608.83,0.08263
3603.04,0.08190
3597.25,0.08570
3591.47,0.08975
3585.68,0.09107
3579.89,0.09177
3574.11,0.09131
3568.32,0.09230
3562.54,0.09300
3556.75,0.09377
3550.96,0.09489
3545.18,0.09443
3539.39,0.09455
3533.6,0.09451
3527.82,0.09405
3522.03,0.09467
3516.24,0.09420
3510.46,0.09417
3504.67,0.09419
3498.88,0.09315
3493.1,0.09235
3487.31,0.09220
3481.52,0.09067
3475.74,0.08890
3469.95,0.08538
3464.17,0.08137
3458.38,0.07928
3452.59,0.07977
3446.81,0.08134
3441.02,0.08577
3435.23,0.08714
3429.45,0.08891
3423.66,0.08959
3417.87,0.09060
3412.09,0.09008
3406.3,0.09060
3400.51,0.09048
3394.73,0.08955
3388.94,0.08985
3383.15,0.08949
3377.37,0.09023
3371.58,0.08990
3365.8,0.09004
3360.01,0.08980
3354.22,0.09059
3348.44,0.09011
3342.65,0.09063
3336.86,0.09202
3331.08,0.09099
3325.29,0.09117
3319.5,0.09134
3313.72,0.09240
3307.93,0.09123
3302.14,0.09154
3296.36,0.09151
3290.57,0.09088
3284.78,0.09073
3279,0.09134
3273.21,0.09051
3267.43,0.09022
3261.64,0.08977
3255.85,0.09019
3250.07,0.08866
3244.28,0.08926
3238.49,0.08960
3232.71,0.08872
3226.92,0.08899
3221.13,0.08823
3215.35,0.08732
3209.56,0.08706
3203.77,0.08765
3197.99,0.08745
3192.2,0.08598
3186.41,0.08607
3180.63,0.08678
3174.84,0.08552
3169.06,0.08519
3163.27,0.08532
3157.48,0.08503
3151.7,0.08433
3145.91,0.08399
3140.12,0.08322
3134.34,0.08292
3128.55,0.08146
3122.76,0.08118
3116.98,0.07980
3111.19,0.07823
3105.4,0.07591
3099.62,0.07385
3093.83,0.07141
3088.05,0.06948
3082.26,0.06690
3076.47,0.06597
3070.69,0.06526
3064.9,0.06322
3059.11,0.06203
3053.33,0.06125
3047.54,0.05986
3041.75,0.05881
3035.97,0.05730
3030.18,0.05670
3024.39,0.05571
3018.61,0.05568
3012.82,0.05477
3007.03,0.05364
3001.25,0.05406
2995.46,0.05393
2989.68,0.05275
2983.89,0.05166
2978.1,0.05099
2972.32,0.04917
2966.53,0.04872
2960.74,0.04813
2954.96,0.04642
2949.17,0.04505
2943.38,0.04217
2937.6,0.03978
2931.81,0.04000
2926.02,0.04902
2920.24,0.07308
2914.45,0.08896
2908.66,0.08036
2902.88,0.07374
2897.09,0.07094
2891.31,0.06919
2885.52,0.06750
2879.73,0.06517
2873.95,0.06250
2868.16,0.05962
2862.37,0.05600
2856.59,0.05431
2850.8,0.07148
2845.01,0.08508
2839.23,0.07798
2833.44,0.07301
2827.65,0.06943
2821.87,0.06823
2816.08,0.06758
2810.29,0.06701
2804.51,0.06753
2798.72,0.06741
2792.94,0.06783
2787.15,0.06836
2781.36,0.06865
2775.58,0.06898
2769.79,0.06919
2764,0.06933
2758.22,0.06925
2752.43,0.06875
2746.64,0.06888
2740.86,0.06800
2735.07,0.06750
2729.28,0.06746
2723.5,0.06782
2717.71,0.06753
2711.92,0.06799
2706.14,0.06789
2700.35,0.06808
2694.57,0.06761
2688.78,0.06710
2682.99,0.06645
2677.21,0.06650
2671.42,0.06689
2665.63,0.06681
2659.85,0.06720
2654.06,0.06730
2648.27,0.06848
2642.49,0.06922
2636.7,0.06902
2630.91,0.06939
2625.13,0.07086
2619.34,0.07195
2613.55,0.07362
2607.77,0.07483
2601.98,0.07542
2596.2,0.07636
2590.41,0.07787
2584.62,0.07854
2578.84,0.08064
2573.05,0.08127
2567.26,0.08247
2561.48,0.08300
2555.69,0.08348
2549.9,0.08344
2544.12,0.08395
2538.33,0.08491
2532.54,0.08404
2526.76,0.08424
2520.97,0.08516
2515.18,0.08613
2509.4,0.08650
2503.61,0.08659
2497.83,0.08669
2492.04,0.08641
2486.25,0.08601
2480.47,0.08616
2474.68,0.08625
2468.89,0.08750
2463.11,0.08853
2457.32,0.08983
2451.53,0.09141
2445.75,0.09216
2439.96,0.09259
2434.17,0.09301
2428.39,0.09300
2422.6,0.09253
2416.81,0.09188
2411.03,0.09211
2405.24,0.09237
2399.46,0.09281
2393.67,0.09284
2387.88,0.09285
2382.1,0.09282
2376.31,0.09290
2370.52,0.09269
2364.74,0.09197
2358.95,0.09061
2353.16,0.08916
2347.38,0.08737
2341.59,0.08584
2335.8,0.08521
2330.02,0.08460
2324.23,0.08413
2318.44,0.08442
2312.66,0.08443
2306.87,0.08468
2301.09,0.08470
2295.3,0.08539
2289.51,0.08538
2283.73,0.08589
2277.94,0.08616
2272.15,0.08645
2266.37,0.08744
2260.58,0.08749
2254.79,0.08784
2249.01,0.08876
2243.22,0.08925
2237.43,0.09040
2231.65,0.09154
2225.86,0.09279
2220.07,0.09340
2214.29,0.09357
2208.5,0.09340
2202.72,0.09386
2196.93,0.09353
2191.14,0.09333
2185.36,0.09297
2179.57,0.09318
2173.78,0.09266
2168,0.09254
2162.21,0.09246
2156.42,0.09205
2150.64,0.09198
2144.85,0.09341
2139.06,0.09428
2133.28,0.09492
2127.49,0.09551
2121.7,0.09602
2115.92,0.09584
2110.13,0.09507
2104.35,0.09470
2098.56,0.09487
2092.77,0.09354
2086.99,0.09331
2081.2,0.09296
2075.41,0.09231
2069.63,0.09095
2063.84,0.09040
2058.05,0.08977
2052.27,0.08856
2046.48,0.08761
2040.69,0.08705
2034.91,0.08585
2029.12,0.08439
2023.33,0.08333
2017.55,0.08360
2011.76,0.08606
2005.98,0.08832
2000.19,0.09021
1994.4,0.09185
1988.62,0.09219
1982.83,0.09246
1977.04,0.09329
1971.26,0.09301
1965.47,0.09244
1959.68,0.09292
1953.9,0.09304
1948.11,0.09266
1942.32,0.09286
1936.54,0.09379
1930.75,0.09283
1924.96,0.09195
1919.18,0.09195
1913.39,0.09136
1907.61,0.08972
1901.82,0.08838
1896.03,0.08816
1890.25,0.08770
1884.46,0.08719
1878.67,0.08752
1872.89,0.08665
1867.1,0.08429
1861.31,0.08437
1855.53,0.08495
1849.74,0.08432
1843.95,0.08349
1838.17,0.08323
1832.38,0.08163
1826.6,0.07926
1820.81,0.07848
1815.02,0.07668
1809.24,0.07485
1803.45,0.07437
1797.66,0.07265
1791.88,0.06979
1786.09,0.06897
1780.3,0.06709
1774.52,0.06500
1768.73,0.06288
1762.94,0.06189
1757.16,0.06246
1751.37,0.06510
1745.58,0.07304
1739.8,0.07266
1734.01,0.06289
1728.23,0.05724
1722.44,0.05677
1716.65,0.05828
1710.87,0.05949
1705.08,0.06048
1699.29,0.06085
1693.51,0.06164
1687.72,0.06569
1681.93,0.06848
1676.15,0.07051
1670.36,0.07223
1664.57,0.07202
1658.79,0.07249
1653,0.07140
1647.21,0.07013
1641.43,0.07353
1635.64,0.07730
1629.86,0.07731
1624.07,0.07851
1618.28,0.07952
1612.5,0.07870
1606.71,0.07823
1600.92,0.07964
1595.14,0.07896
1589.35,0.07717
1583.56,0.07800
1577.78,0.07845
1571.99,0.07604
1566.2,0.07594
1560.42,0.07595
1554.63,0.07515
1548.84,0.07540
1543.06,0.07662
1537.27,0.07485
1531.49,0.07441
1525.7,0.07450
1519.91,0.07381
1514.13,0.07213
1508.34,0.07167
1502.55,0.06893
1496.77,0.06775
1490.98,0.06561
1485.19,0.06115
1479.41,0.05616
1473.62,0.05397
1467.83,0.05784
1462.05,0.06240
1456.26,0.06376
1450.47,0.06395
1444.69,0.06292
1438.9,0.06220
1433.12,0.06146
1427.33,0.06109
1421.54,0.06097
1415.76,0.06177
1409.97,0.06233
1404.18,0.06125
1398.4,0.06100
1392.61,0.05684
1386.82,0.05505
1381.04,0.05378
1375.25,0.05438
1369.46,0.05582
1363.68,0.05742
1357.89,0.05749
1352.1,0.05756
1346.32,0.05819
1340.53,0.05930
1334.75,0.06204
1328.96,0.06213
1323.17,0.06155
1317.39,0.06155
1311.6,0.06043
1305.81,0.06086
1300.03,0.06138
1294.24,0.06169
1288.45,0.06294
1282.67,0.06358
1276.88,0.06528
1271.09,0.06702
1265.31,0.06893
1259.52,0.07103
1253.73,0.07128
1247.95,0.06697
1242.16,0.05829
1236.38,0.05021
1230.59,0.04897
1224.8,0.05126
1219.02,0.05410
1213.23,0.05558
1207.44,0.05637
1201.66,0.05826
1195.87,0.05872
1190.08,0.05986
1184.3,0.06087
1178.51,0.05946
1172.72,0.06135
1166.94,0.06138
1161.15,0.05920
1155.36,0.06058
1149.58,0.05975
1143.79,0.05811
1138.01,0.05927
1132.22,0.06039
1126.43,0.05851
1120.65,0.05894
1114.86,0.06170
1109.07,0.06157
1103.29,0.06116
1097.5,0.06306
1091.71,0.06207
1085.93,0.06125
1080.14,0.06292
1074.35,0.06378
1068.57,0.06309
1062.78,0.06299
1056.99,0.06507
1051.21,0.06473
1045.42,0.06407
1039.64,0.06452
1033.85,0.06496
1028.06,0.06510
1022.28,0.06466
1016.49,0.06304
1010.7,0.06187
1004.92,0.06173
999.13,0.06355
993.344,0.06099
987.557,0.06424
981.771,0.06511
975.984,0.05975
970.198,0.06130
964.411,0.06192
958.625,0.05942
952.838,0.05820
947.052,0.06178
941.265,0.06291
935.479,0.05820
929.692,0.06034
923.906,0.07173
918.12,0.06975
912.333,0.06300
906.547,0.07458
900.76,0.07575
894.974,0.06350
889.187,0.07024
883.401,0.08060
877.614,0.06966
871.828,0.06432
866.041,0.07908
860.255,0.07918
854.468,0.06444
848.682,0.07364
842.895,0.08762
837.109,0.07407
831.323,0.06667
825.536,0.08766
819.75,0.08687
813.963,0.06542
808.177,0.07744
802.39,0.08866
796.604,0.07136
790.817,0.06619
785.031,0.08929
779.244,0.08354
773.458,0.06226
767.671,0.07744
761.885,0.08593
756.098,0.06198
750.312,0.06532
744.526,0.07391
738.739,0.05463
732.953,0.05533
727.166,0.05653
721.38,0.05803
715.593,0.06230
709.807,0.07120
704.02,0.06230
698.234,0.07894
692.447,0.10218
686.661,0.06895
680.874,0.08196
675.088,0.11075
669.301,0.07984
663.515,0.06817
657.729,0.10384
651.942,0.08565
646.156,0.05366
640.369,0.07426
634.583,0.09326
628.796,0.06099
623.01,0.05817
617.223,0.08987
611.437,0.07009
605.65,0.05823
599.864,0.05785