File: 01_Data/PEVA/FTIR/IS/PEVA_0.10_IS_T_240808_R6.dpt
7496.93,0.03497
7491.14,0.04463
7485.35,0.03928
7479.57,0.04805
7473.78,0.03415
7468,0.03751
7462.21,0.03791
7456.42,0.04338
7450.64,0.04268
7444.85,0.04835
7439.06,0.03037
7433.28,0.02973
7427.49,0.03211
7421.71,0.03968
7415.92,0.04968
7410.13,0.04374
7404.35,0.04352
7398.56,0.04169
7392.78,0.02437
7386.99,0.02545
7381.2,0.03707
7375.42,0.03070
7369.63,0.03393
7363.84,0.03887
7358.06,0.03239
7352.27,0.03538
7346.49,0.03332
7340.7,0.03821
7334.91,0.04611
7329.13,0.03498
7323.34,0.04528
7317.56,0.03312
7311.77,0.03396
7305.98,0.02922
7300.2,0.03106
7294.41,0.02344
7288.62,0.03335
7282.84,0.03513
7277.05,0.02568
7271.27,0.02825
7265.48,0.04102
7259.69,0.04086
7253.91,0.03256
7248.12,0.02253
7242.34,0.03779
7236.55,0.03651
7230.76,0.03113
7224.98,0.02602
7219.19,0.03470
7213.4,0.03077
7207.62,0.03584
7201.83,0.03515
7196.05,0.03610
7190.26,0.04621
7184.47,0.03034
7178.69,0.03585
7172.9,0.04295
7167.12,0.02682
7161.33,0.02752
7155.54,0.03879
7149.76,0.04016
7143.97,0.03372
7138.18,0.03238
7132.4,0.03324
7126.61,0.02413
7120.83,0.03230
7115.04,0.02359
7109.25,0.02591
7103.47,0.02012
7097.68,0.03590
7091.9,0.03399
7086.11,0.03619
7080.32,0.02934
7074.54,0.02910
7068.75,0.02977
7062.96,0.02833
7057.18,0.02633
7051.39,0.02278
7045.61,0.03107
7039.82,0.03264
7034.03,0.03134
7028.25,0.03023
7022.46,0.03884
7016.68,0.03046
7010.89,0.03579
7005.1,0.02275
6999.32,0.03213
6993.53,0.02942
6987.74,0.02679
6981.96,0.03352
6976.17,0.02539
6970.39,0.03372
6964.6,0.02654
6958.81,0.02850
6953.03,0.03023
6947.24,0.02740
6941.46,0.04231
6935.67,0.03165
6929.88,0.03206
6924.1,0.02884
6918.31,0.02635
6912.52,0.03984
6906.74,0.02812
6900.95,0.02852
6895.17,0.02970
6889.38,0.03472
6883.59,0.04261
6877.81,0.02877
6872.02,0.03062
6866.24,0.02761
6860.45,0.02214
6854.66,0.04030
6848.88,0.03081
6843.09,0.03250
6837.3,0.02931
6831.52,0.02682
6825.73,0.03246
6819.95,0.02907
6814.16,0.03121
6808.37,0.02968
6802.59,0.03798
6796.8,0.03884
6791.02,0.04270
6785.23,0.03338
6779.44,0.03512
6773.66,0.02877
6767.87,0.03122
6762.08,0.03011
6756.3,0.02988
6750.51,0.03050
6744.73,0.03414
6738.94,0.03127
6733.15,0.03211
6727.37,0.02672
6721.58,0.03671
6715.8,0.03215
6710.01,0.03177
6704.22,0.03580
6698.44,0.03261
6692.65,0.02940
6686.86,0.03268
6681.08,0.03185
6675.29,0.02758
6669.51,0.03440
6663.72,0.03579
6657.93,0.03644
6652.15,0.03828
6646.36,0.02853
6640.58,0.03824
6634.79,0.02812
6629,0.03600
6623.22,0.03181
6617.43,0.03643
6611.64,0.03045
6605.86,0.02927
6600.07,0.03033
6594.29,0.02754
6588.5,0.03081
6582.71,0.02957
6576.93,0.03209
6571.14,0.03015
6565.36,0.03478
6559.57,0.02731
6553.78,0.02423
6548,0.02625
6542.21,0.02738
6536.42,0.02780
6530.64,0.02647
6524.85,0.03050
6519.07,0.03291
6513.28,0.03120
6507.49,0.02693
6501.71,0.02522
6495.92,0.02815
6490.14,0.03262
6484.35,0.03642
6478.56,0.03609
6472.78,0.03367
6466.99,0.03128
6461.2,0.02527
6455.42,0.02804
6449.63,0.03745
6443.85,0.03288
6438.06,0.02477
6432.27,0.02746
6426.49,0.02381
6420.7,0.02530
6414.92,0.03473
6409.13,0.03110
6403.34,0.03334
6397.56,0.03185
6391.77,0.03044
6385.98,0.02745
6380.2,0.02682
6374.41,0.03191
6368.63,0.02740
6362.84,0.02802
6357.05,0.03030
6351.27,0.03472
6345.48,0.03019
6339.7,0.02881
6333.91,0.02695
6328.12,0.03020
6322.34,0.03003
6316.55,0.03325
6310.76,0.02831
6304.98,0.03469
6299.19,0.02984
6293.41,0.02466
6287.62,0.02628
6281.83,0.02906
6276.05,0.02865
6270.26,0.03336
6264.48,0.03085
6258.69,0.02697
6252.9,0.03103
6247.12,0.02746
6241.33,0.02348
6235.54,0.02844
6229.76,0.03282
6223.97,0.02683
6218.19,0.03097
6212.4,0.02826
6206.61,0.02980
6200.83,0.03135
6195.04,0.02611
6189.26,0.02923
6183.47,0.02977
6177.68,0.02937
6171.9,0.02763
6166.11,0.03114
6160.32,0.03376
6154.54,0.03098
6148.75,0.03021
6142.97,0.03027
6137.18,0.03391
6131.39,0.02774
6125.61,0.02782
6119.82,0.02593
6114.04,0.02841
6108.25,0.03160
6102.46,0.02840
6096.68,0.03282
6090.89,0.03150
6085.1,0.02982
6079.32,0.02929
6073.53,0.03025
6067.75,0.03145
6061.96,0.03252
6056.17,0.02969
6050.39,0.03283
6044.6,0.03249
6038.82,0.02703
6033.03,0.03068
6027.24,0.02725
6021.46,0.03203
6015.67,0.02513
6009.88,0.02746
6004.1,0.02988
5998.31,0.02722
5992.53,0.02801
5986.74,0.02732
5980.95,0.03196
5975.17,0.02883
5969.38,0.03136
5963.6,0.02882
5957.81,0.03046
5952.02,0.03214
5946.24,0.03104
5940.45,0.03067
5934.66,0.03330
5928.88,0.02644
5923.09,0.02950
5917.31,0.02986
5911.52,0.02740
5905.73,0.02695
5899.95,0.02754
5894.16,0.03205
5888.38,0.03325
5882.59,0.03403
5876.8,0.02789
5871.02,0.02814
5865.23,0.02984
5859.44,0.02841
5853.66,0.02819
5847.87,0.02771
5842.09,0.03060
5836.3,0.03171
5830.51,0.02866
5824.73,0.02707
5818.94,0.02833
5813.16,0.03023
5807.37,0.03083
5801.58,0.03141
5795.8,0.03082
5790.01,0.03202
5784.22,0.02832
5778.44,0.03280
5772.65,0.03081
5766.87,0.03097
5761.08,0.03189
5755.29,0.02953
5749.51,0.02848
5743.72,0.02781
5737.94,0.03047
5732.15,0.03055
5726.36,0.02964
5720.58,0.02908
5714.79,0.03129
5709,0.03016
5703.22,0.02978
5697.43,0.02791
5691.65,0.02927
5685.86,0.02871
5680.07,0.02966
5674.29,0.02775
5668.5,0.03072
5662.72,0.03004
5656.93,0.02702
5651.14,0.03182
5645.36,0.02967
5639.57,0.03163
5633.78,0.02974
5628,0.03101
5622.21,0.03054
5616.43,0.03014
5610.64,0.02950
5604.85,0.03108
5599.07,0.03190
5593.28,0.03134
5587.5,0.03149
5581.71,0.03078
5575.92,0.02938
5570.14,0.03012
5564.35,0.03108
5558.56,0.02964
5552.78,0.02972
5546.99,0.02862
5541.21,0.02948
5535.42,0.02824
5529.63,0.03043
5523.85,0.02749
5518.06,0.03133
5512.28,0.02968
5506.49,0.02736
5500.7,0.02734
5494.92,0.03053
5489.13,0.02843
5483.34,0.02940
5477.56,0.02886
5471.77,0.03021
5465.99,0.02972
5460.2,0.02739
5454.41,0.02972
5448.63,0.03196
5442.84,0.02874
5437.06,0.02832
5431.27,0.03148
5425.48,0.02919
5419.7,0.03039
5413.91,0.02882
5408.12,0.02918
5402.34,0.02848
5396.55,0.02943
5390.77,0.03175
5384.98,0.02964
5379.19,0.03022
5373.41,0.03078
5367.62,0.02981
5361.84,0.02856
5356.05,0.02951
5350.26,0.02904
5344.48,0.03135
5338.69,0.03033
5332.9,0.02988
5327.12,0.03038
5321.33,0.02825
5315.55,0.02832
5309.76,0.02854
5303.97,0.02845
5298.19,0.02888
5292.4,0.03015
5286.62,0.03124
5280.83,0.03012
5275.04,0.02881
5269.26,0.02906
5263.47,0.02933
5257.68,0.02965
5251.9,0.02963
5246.11,0.03040
5240.33,0.03041
5234.54,0.03116
5228.75,0.03123
5222.97,0.02948
5217.18,0.03141
5211.4,0.03072
5205.61,0.03146
5199.82,0.02958
5194.04,0.03171
5188.25,0.02928
5182.46,0.03054
5176.68,0.02925
5170.89,0.03142
5165.11,0.03117
5159.32,0.03054
5153.53,0.03079
5147.75,0.03097
5141.96,0.02905
5136.18,0.02953
5130.39,0.02929
5124.6,0.03025
5118.82,0.02865
5113.03,0.02890
5107.24,0.03009
5101.46,0.02891
5095.67,0.03009
5089.89,0.02887
5084.1,0.02996
5078.31,0.02937
5072.53,0.03015
5066.74,0.02978
5060.96,0.03025
5055.17,0.03121
5049.38,0.03048
5043.6,0.02999
5037.81,0.03077
5032.02,0.03076
5026.24,0.02995
5020.45,0.03035
5014.67,0.03010
5008.88,0.02947
5003.09,0.03063
4997.31,0.02953
4991.52,0.03125
4985.74,0.03074
4979.95,0.02894
4974.16,0.02913
4968.38,0.03213
4962.59,0.03013
4956.8,0.03050
4951.02,0.02955
4945.23,0.03126
4939.45,0.03122
4933.66,0.03069
4927.87,0.03036
4922.09,0.02967
4916.3,0.03087
4910.52,0.03033
4904.73,0.03030
4898.94,0.03085
4893.16,0.03021
4887.37,0.02944
4881.58,0.02962
4875.8,0.03030
4870.01,0.03026
4864.23,0.03040
4858.44,0.02937
4852.65,0.02989
4846.87,0.02969
4841.08,0.03075
4835.3,0.02997
4829.51,0.02971
4823.72,0.03125
4817.94,0.02977
4812.15,0.03070
4806.36,0.02970
4800.58,0.03062
4794.79,0.03014
4789.01,0.02931
4783.22,0.03025
4777.43,0.02975
4771.65,0.02869
4765.86,0.03026
4760.08,0.02977
4754.29,0.03065
4748.5,0.03104
4742.72,0.03112
4736.93,0.03009
4731.14,0.02947
4725.36,0.02904
4719.57,0.03039
4713.79,0.03051
4708,0.02982
4702.21,0.02969
4696.43,0.02949
4690.64,0.02992
4684.86,0.02985
4679.07,0.02928
4673.28,0.02977
4667.5,0.02929
4661.71,0.02979
4655.92,0.03051
4650.14,0.02841
4644.35,0.02975
4638.57,0.03052
4632.78,0.03036
4626.99,0.03105
4621.21,0.02906
4615.42,0.03000
4609.64,0.02940
4603.85,0.03059
4598.06,0.03080
4592.28,0.02988
4586.49,0.03019
4580.7,0.03077
4574.92,0.02966
4569.13,0.02939
4563.35,0.02916
4557.56,0.03073
4551.77,0.02885
4545.99,0.03055
4540.2,0.02932
4534.42,0.02962
4528.63,0.02924
4522.84,0.02972
4517.06,0.03036
4511.27,0.03065
4505.48,0.02932
4499.7,0.03017
4493.91,0.03045
4488.13,0.02992
4482.34,0.03008
4476.55,0.03023
4470.77,0.03038
4464.98,0.03066
4459.2,0.03051
4453.41,0.03015
4447.62,0.02985
4441.84,0.02976
4436.05,0.03041
4430.26,0.03071
4424.48,0.03056
4418.69,0.02934
4412.91,0.02962
4407.12,0.02942
4401.33,0.02954
4395.55,0.02983
4389.76,0.03064
4383.98,0.02948
4378.19,0.03090
4372.4,0.02973
4366.62,0.03024
4360.83,0.03106
4355.04,0.03028
4349.26,0.02986
4343.47,0.02925
4337.69,0.02939
4331.9,0.02941
4326.11,0.03048
4320.33,0.03025
4314.54,0.03009
4308.76,0.02968
4302.97,0.03034
4297.18,0.02953
4291.4,0.03003
4285.61,0.02991
4279.82,0.02943
4274.04,0.02938
4268.25,0.02986
4262.47,0.02911
4256.68,0.03009
4250.89,0.02946
4245.11,0.03019
4239.32,0.03009
4233.54,0.02970
4227.75,0.03004
4221.96,0.03030
4216.18,0.03104
4210.39,0.02989
4204.6,0.02979
4198.82,0.02986
4193.03,0.02984
4187.25,0.02950
4181.46,0.02985
4175.67,0.03020
4169.89,0.03018
4164.1,0.03059
4158.32,0.03017
4152.53,0.03007
4146.74,0.02937
4140.96,0.03071
4135.17,0.03031
4129.38,0.02986
4123.6,0.03093
4117.81,0.03023
4112.03,0.03051
4106.24,0.02892
4100.45,0.03032
4094.67,0.03028
4088.88,0.03050
4083.1,0.03019
4077.31,0.03022
4071.52,0.02928
4065.74,0.02902
4059.95,0.02989
4054.16,0.02993
4048.38,0.02990
4042.59,0.02987
4036.81,0.02980
4031.02,0.02994
4025.23,0.03026
4019.45,0.03054
4013.66,0.03023
4007.88,0.02965
4002.09,0.02987
3996.3,0.02962
3990.52,0.03055
3984.73,0.03008
3978.94,0.03005
3973.16,0.03054
3967.37,0.02933
3961.59,0.03003
3955.8,0.03007
3950.01,0.02995
3944.23,0.03034
3938.44,0.03037
3932.66,0.02944
3926.87,0.03001
3921.08,0.02972
3915.3,0.03028
3909.51,0.03003
3903.72,0.02982
3897.94,0.02899
3892.15,0.02884
3886.37,0.03030
3880.58,0.02983
3874.79,0.03021
3869.01,0.02986
3863.22,0.02947
3857.44,0.02982
3851.65,0.02812
3845.86,0.03019
3840.08,0.03008
3834.29,0.02958
3828.5,0.03084
3822.72,0.03094
3816.93,0.03102
3811.15,0.03073
3805.36,0.03042
3799.57,0.03074
3793.79,0.02949
3788,0.02973
3782.22,0.02936
3776.43,0.02931
3770.64,0.02937
3764.86,0.02943
3759.07,0.02992
3753.28,0.03054
3747.5,0.03148
3741.71,0.02952
3735.93,0.03095
3730.14,0.03035
3724.35,0.03011
3718.57,0.02942
3712.78,0.02990
3707,0.02970
3701.21,0.02953
3695.42,0.02940
3689.64,0.02984
3683.85,0.02929
3678.06,0.02933
3672.28,0.02958
3666.49,0.02794
3660.71,0.02901
3654.92,0.02939
3649.13,0.02936
3643.35,0.02827
3637.56,0.02950
3631.78,0.02872
3625.99,0.02894
3620.2,0.02726
3614.42,0.02837
3608.63,0.02853
3602.84,0.02795
3597.06,0.02759
3591.27,0.02829
3585.49,0.02679
3579.7,0.02742
3573.91,0.02733
3568.13,0.02758
3562.34,0.02703
3556.56,0.02673
3550.77,0.02754
3544.98,0.02736
3539.2,0.02804
3533.41,0.02660
3527.62,0.02745
3521.84,0.02608
3516.05,0.02673
3510.27,0.02688
3504.48,0.02741
3498.69,0.02688
3492.91,0.02694
3487.12,0.02693
3481.34,0.02662
3475.55,0.02576
3469.76,0.02592
3463.98,0.02601
3458.19,0.02621
3452.4,0.02606
3446.62,0.02666
3440.83,0.02655
3435.05,0.02709
3429.26,0.02629
3423.47,0.02590
3417.69,0.02630
3411.9,0.02615
3406.12,0.02611
3400.33,0.02599
3394.54,0.02592
3388.76,0.02525
3382.97,0.02633
3377.18,0.02588
3371.4,0.02601
3365.61,0.02647
3359.83,0.02706
3354.04,0.02684
3348.25,0.02632
3342.47,0.02573
3336.68,0.02614
3330.9,0.02656
3325.11,0.02667
3319.32,0.02594
3313.54,0.02635
3307.75,0.02675
3301.96,0.02601
3296.18,0.02596
3290.39,0.02581
3284.61,0.02677
3278.82,0.02652
3273.03,0.02594
3267.25,0.02601
3261.46,0.02625
3255.68,0.02568
3249.89,0.02699
3244.1,0.02628
3238.32,0.02691
3232.53,0.02620
3226.74,0.02668
3220.96,0.02691
3215.17,0.02696
3209.39,0.02648
3203.6,0.02762
3197.81,0.02693
3192.03,0.02630
3186.24,0.02719
3180.46,0.02674
3174.67,0.02689
3168.88,0.02824
3163.1,0.02633
3157.31,0.02645
3151.52,0.02643
3145.74,0.02701
3139.95,0.02708
3134.17,0.02692
3128.38,0.02714
3122.59,0.02702
3116.81,0.02717
3111.02,0.02732
3105.24,0.02706
3099.45,0.02737
3093.66,0.02669
3087.88,0.02733
3082.09,0.02667
3076.3,0.02692
3070.52,0.02678
3064.73,0.02694
3058.95,0.02692
3053.16,0.02706
3047.37,0.02704
3041.59,0.02652
3035.8,0.02681
3030.02,0.02657
3024.23,0.02711
3018.44,0.02656
3012.66,0.02613
3006.87,0.02646
3001.08,0.02619
2995.3,0.02644
2989.51,0.02593
2983.73,0.02586
2977.94,0.02589
2972.15,0.02544
2966.37,0.02559
2960.58,0.02541
2954.8,0.02557
2949.01,0.02514
2943.22,0.02559
2937.44,0.02617
2931.65,0.02507
2925.86,0.02572
2920.08,0.02628
2914.29,0.02650
2908.51,0.02582
2902.72,0.02665
2896.93,0.02617
2891.15,0.02691
2885.36,0.02625
2879.58,0.02660
2873.79,0.02632
2868,0.02672
2862.22,0.02708
2856.43,0.02648
2850.64,0.02677
2844.86,0.02736
2839.07,0.02740
2833.29,0.02716
2827.5,0.02740
2821.71,0.02738
2815.93,0.02740
2810.14,0.02734
2804.36,0.02748
2798.57,0.02743
2792.78,0.02729
2787,0.02768
2781.21,0.02765
2775.42,0.02760
2769.64,0.02736
2763.85,0.02746
2758.07,0.02712
2752.28,0.02738
2746.49,0.02737
2740.71,0.02744
2734.92,0.02721
2729.14,0.02737
2723.35,0.02695
2717.56,0.02699
2711.78,0.02727
2705.99,0.02770
2700.2,0.02718
2694.42,0.02761
2688.63,0.02674
2682.85,0.02704
2677.06,0.02713
2671.27,0.02736
2665.49,0.02706
2659.7,0.02730
2653.92,0.02713
2648.13,0.02739
2642.34,0.02775
2636.56,0.02728
2630.77,0.02750
2624.98,0.02716
2619.2,0.02700
2613.41,0.02661
2607.63,0.02720
2601.84,0.02709
2596.05,0.02704
2590.27,0.02702
2584.48,0.02740
2578.7,0.02742
2572.91,0.02694
2567.12,0.02740
2561.34,0.02767
2555.55,0.02724
2549.76,0.02723
2543.98,0.02720
2538.19,0.02727
2532.41,0.02701
2526.62,0.02711
2520.83,0.02672
2515.05,0.02731
2509.26,0.02680
2503.48,0.02734
2497.69,0.02693
2491.9,0.02678
2486.12,0.02683
2480.33,0.02722
2474.55,0.02715
2468.76,0.02723
2462.97,0.02708
2457.19,0.02715
2451.4,0.02721
2445.61,0.02709
2439.83,0.02677
2434.04,0.02689
2428.26,0.02731
2422.47,0.02730
2416.68,0.02695
2410.9,0.02689
2405.11,0.02661
2399.32,0.02692
2393.54,0.02685
2387.75,0.02690
2381.97,0.02690
2376.18,0.02713
2370.39,0.02783
2364.61,0.02768
2358.82,0.02754
2353.04,0.02728
2347.25,0.02723
2341.46,0.02756
2335.68,0.02695
2329.89,0.02670
2324.11,0.02658
2318.32,0.02638
2312.53,0.02683
2306.75,0.02683
2300.96,0.02661
2295.17,0.02609
2289.39,0.02665
2283.6,0.02668
2277.82,0.02641
2272.03,0.02663
2266.24,0.02670
2260.46,0.02674
2254.67,0.02692
2248.89,0.02646
2243.1,0.02663
2237.31,0.02662
2231.53,0.02638
2225.74,0.02619
2219.95,0.02605
2214.17,0.02627
2208.38,0.02622
2202.6,0.02636
2196.81,0.02626
2191.02,0.02651
2185.24,0.02627
2179.45,0.02607
2173.67,0.02590
2167.88,0.02598
2162.09,0.02662
2156.31,0.02655
2150.52,0.02651
2144.73,0.02631
2138.95,0.02599
2133.16,0.02582
2127.38,0.02637
2121.59,0.02650
2115.8,0.02612
2110.02,0.02602
2104.23,0.02611
2098.45,0.02554
2092.66,0.02580
2086.87,0.02571
2081.09,0.02559
2075.3,0.02594
2069.51,0.02611
2063.73,0.02580
2057.94,0.02613
2052.16,0.02606
2046.37,0.02596
2040.58,0.02587
2034.8,0.02611
2029.01,0.02585
2023.23,0.02632
2017.44,0.02586
2011.65,0.02595
2005.87,0.02592
2000.08,0.02574
1994.29,0.02579
1988.51,0.02599
1982.72,0.02609
1976.94,0.02579
1971.15,0.02579
1965.36,0.02579
1959.58,0.02610
1953.79,0.02534
1948.01,0.02580
1942.22,0.02621
1936.43,0.02565
1930.65,0.02559
1924.86,0.02565
1919.07,0.02588
1913.29,0.02585
1907.5,0.02506
1901.72,0.02549
1895.93,0.02568
1890.14,0.02530
1884.36,0.02561
1878.57,0.02539
1872.79,0.02528
1867,0.02575
1861.21,0.02543
1855.43,0.02497
1849.64,0.02531
1843.85,0.02450
1838.07,0.02509
1832.28,0.02505
1826.5,0.02499
1820.71,0.02494
1814.92,0.02429
1809.14,0.02422
1803.35,0.02480
1797.57,0.02438
1791.78,0.02390
1785.99,0.02369
1780.21,0.02356
1774.42,0.02359
1768.63,0.02311
1762.85,0.02269
1757.06,0.02172
1751.28,0.02178
1745.49,0.02198
1739.7,0.02289
1733.92,0.02315
1728.13,0.02418
1722.35,0.02481
1716.56,0.02539
1710.77,0.02461
1704.99,0.02433
1699.2,0.02376
1693.41,0.02267
1687.63,0.02299
1681.84,0.02211
1676.06,0.02242
1670.27,0.02252
1664.48,0.02240
1658.7,0.02244
1652.91,0.02168
1647.13,0.02146
1641.34,0.02225
1635.55,0.02253
1629.77,0.02283
1623.98,0.02237
1618.19,0.02296
1612.41,0.02265
1606.62,0.02290
1600.84,0.02282
1595.05,0.02269
1589.26,0.02230
1583.48,0.02190
1577.69,0.02204
1571.91,0.02169
1566.12,0.02218
1560.33,0.02239
1554.55,0.02192
1548.76,0.02188
1542.97,0.02270
1537.19,0.02240
1531.4,0.02246
1525.62,0.02307
1519.83,0.02282
1514.04,0.02228
1508.26,0.02214
1502.47,0.02223
1496.69,0.02257
1490.9,0.02268
1485.11,0.02256
1479.33,0.02176
1473.54,0.02176
1467.75,0.02119
1461.97,0.02207
1456.18,0.02181
1450.4,0.02173
1444.61,0.02183
1438.82,0.02188
1433.04,0.02194
1427.25,0.02185
1421.47,0.02146
1415.68,0.02117
1409.89,0.02110
1404.11,0.02102
1398.32,0.02129
1392.53,0.02067
1386.75,0.02108
1380.96,0.02096
1375.18,0.02157
1369.39,0.02087
1363.6,0.02081
1357.82,0.02086
1352.03,0.02062
1346.25,0.02067
1340.46,0.02082
1334.67,0.02057
1328.89,0.02011
1323.1,0.01994
1317.31,0.01969
1311.53,0.01973
1305.74,0.02005
1299.96,0.02011
1294.17,0.02056
1288.38,0.02083
1282.6,0.02110
1276.81,0.02172
1271.03,0.02160
1265.24,0.02247
1259.45,0.02245
1253.67,0.02249
1247.88,0.02238
1242.09,0.02221
1236.31,0.02223
1230.52,0.02204
1224.74,0.02201
1218.95,0.02182
1213.16,0.02183
1207.38,0.02110
1201.59,0.02110
1195.81,0.02100
1190.02,0.02097
1184.23,0.02052
1178.45,0.02085
1172.66,0.02036
1166.87,0.01991
1161.09,0.01952
1155.3,0.01955
1149.52,0.01981
1143.73,0.02017
1137.94,0.02067
1132.16,0.02075
1126.37,0.02140
1120.59,0.02162
1114.8,0.02232
1109.01,0.02178
1103.23,0.02157
1097.44,0.02184
1091.65,0.02178
1085.87,0.02207
1080.08,0.02285
1074.3,0.02333
1068.51,0.02383
1062.72,0.02411
1056.94,0.02425
1051.15,0.02357
1045.37,0.02314
1039.58,0.02277
1033.79,0.02333
1028.01,0.02287
1022.22,0.02235
1016.43,0.02204
1010.65,0.02328
1004.86,0.02460
999.076,0.02429
993.29,0.02518
987.504,0.02453
981.717,0.02392
975.931,0.02421
970.145,0.02401
964.359,0.02397
958.573,0.02373
952.787,0.02329
947,0.02391
941.214,0.02250
935.428,0.02228
929.642,0.02259
923.856,0.02297
918.07,0.02224
912.284,0.02241
906.497,0.02172
900.711,0.02192
894.925,0.02219
889.139,0.02256
883.353,0.02185
877.567,0.02192
871.78,0.02206
865.994,0.02199
860.208,0.02199
854.422,0.02249
848.636,0.02144
842.85,0.02206
837.064,0.02130
831.277,0.02149
825.491,0.02147
819.705,0.02159
813.919,0.02076
808.133,0.02109
802.347,0.02123
796.56,0.02128
790.774,0.02053
784.988,0.02049
779.202,0.02120
773.416,0.02040
767.63,0.02010
761.844,0.01981
756.057,0.01990
750.271,0.01977
744.485,0.02023
738.699,0.01979
732.913,0.02029
727.127,0.02027
721.34,0.01893
715.554,0.01958
709.768,0.01871
703.982,0.01879
698.196,0.01878
692.41,0.01753
686.624,0.01876
680.837,0.01929
675.051,0.01844
669.265,0.01973
663.479,0.01857
657.693,0.01841
651.907,0.01841
646.12,0.01873
640.334,0.01717
634.548,0.01845
628.762,0.01857
622.976,0.01846
617.19,0.01891
611.404,0.01949
605.617,0.01991
599.831,0.01921