File: 01_Data/PEVA/FTIR/IS/PEVA_0.18_IS_Trans_T_240819_R4.dpt
7496.91,0.02922
7491.12,0.00711
7485.33,0.02682
7479.55,0.02555
7473.76,0.03129
7467.98,0.01949
7462.19,0.05135
7456.4,0.01882
7450.62,0.04158
7444.83,0.04186
7439.04,0.01440
7433.26,0.03797
7427.47,0.01966
7421.69,0.03803
7415.9,0.02427
7410.11,0.01092
7404.33,0.03918
7398.54,0.03056
7392.76,0.06338
7386.97,0.00367
7381.18,0.01658
7375.4,0.03423
7369.61,0.04288
7363.83,0.02506
7358.04,0.01736
7352.25,0.03953
7346.47,0.03000
7340.68,0.00522
7334.89,0.02737
7329.11,0.04011
7323.32,0.02455
7317.54,0.01525
7311.75,0.02068
7305.96,0.02188
7300.18,0.02823
7294.39,0.02678
7288.61,0.02150
7282.82,0.02634
7277.03,0.02412
7271.25,0.02322
7265.46,0.01627
7259.67,0.02918
7253.89,0.03095
7248.1,0.01572
7242.32,0.03123
7236.53,0.01887
7230.74,0.02559
7224.96,0.02680
7219.17,0.03113
7213.39,0.02706
7207.6,0.02003
7201.81,0.00092
7196.03,0.00430
7190.24,0.02480
7184.45,0.02934
7178.67,0.03102
7172.88,0.02573
7167.1,0.02367
7161.31,0.01899
7155.52,0.01514
7149.74,0.01719
7143.95,0.02149
7138.17,0.02112
7132.38,0.01934
7126.59,0.01347
7120.81,0.02250
7115.02,0.00986
7109.23,0.01602
7103.45,0.01993
7097.66,0.02593
7091.88,0.02434
7086.09,0.03823
7080.3,0.02863
7074.52,0.00813
7068.73,0.01603
7062.95,0.03058
7057.16,0.01591
7051.37,0.01568
7045.59,0.00545
7039.8,0.02030
7034.02,0.00469
7028.23,0.01489
7022.44,0.01890
7016.66,0.00765
7010.87,0.01120
7005.08,0.02275
6999.3,0.02047
6993.51,0.00396
6987.73,0.02134
6981.94,-0.00407
6976.15,0.03204
6970.37,0.01019
6964.58,0.02718
6958.8,0.00105
6953.01,0.01738
6947.22,0.02383
6941.44,0.01784
6935.65,0.00987
6929.86,0.02099
6924.08,0.01085
6918.29,0.01817
6912.51,0.00212
6906.72,0.01178
6900.93,0.00910
6895.15,0.01550
6889.36,0.00988
6883.58,0.01113
6877.79,0.01249
6872,0.00113
6866.22,0.01870
6860.43,0.01524
6854.64,0.01565
6848.86,0.01937
6843.07,0.00539
6837.29,0.02228
6831.5,0.01131
6825.71,0.01432
6819.93,0.02846
6814.14,0.00980
6808.36,0.01876
6802.57,0.00788
6796.78,0.00830
6791,0.00698
6785.21,0.01747
6779.43,0.01403
6773.64,0.00574
6767.85,0.01823
6762.07,0.01942
6756.28,0.00529
6750.49,0.00778
6744.71,0.01427
6738.92,0.00548
6733.14,0.00890
6727.35,0.00820
6721.56,0.00994
6715.78,0.01556
6709.99,0.01028
6704.21,0.01283
6698.42,0.00554
6692.63,0.01834
6686.85,0.01930
6681.06,0.01478
6675.27,0.00514
6669.49,0.01469
6663.7,0.01718
6657.92,0.01249
6652.13,0.01252
6646.34,0.00977
6640.56,0.01332
6634.77,0.00598
6628.99,0.01159
6623.2,0.01351
6617.41,0.00379
6611.63,0.01432
6605.84,0.00380
6600.05,0.00774
6594.27,0.00344
6588.48,0.00075
6582.7,0.01564
6576.91,0.02297
6571.12,0.01095
6565.34,0.01067
6559.55,0.01356
6553.77,0.00845
6547.98,0.01572
6542.19,0.02013
6536.41,0.01725
6530.62,0.01084
6524.84,0.01152
6519.05,0.00662
6513.26,0.00947
6507.48,0.00367
6501.69,0.01482
6495.9,-0.00006
6490.12,0.01391
6484.33,0.01228
6478.55,0.01394
6472.76,0.00800
6466.97,0.01937
6461.19,0.00722
6455.4,0.01326
6449.62,0.00124
6443.83,0.01235
6438.04,0.00932
6432.26,0.01033
6426.47,0.01448
6420.68,0.01515
6414.9,0.01159
6409.11,0.00901
6403.33,0.00597
6397.54,0.00689
6391.75,0.00914
6385.97,0.00511
6380.18,0.00544
6374.4,0.01527
6368.61,0.00230
6362.82,0.00537
6357.04,0.00894
6351.25,0.00698
6345.46,0.00814
6339.68,0.00673
6333.89,0.01822
6328.11,0.00821
6322.32,0.01251
6316.53,0.00692
6310.75,0.00703
6304.96,0.00641
6299.18,0.01186
6293.39,0.00551
6287.6,0.00687
6281.82,0.00295
6276.03,0.00730
6270.24,0.00272
6264.46,0.00435
6258.67,0.00794
6252.89,0.01211
6247.1,0.00649
6241.31,0.01069
6235.53,0.00726
6229.74,0.00841
6223.96,0.01113
6218.17,0.00804
6212.38,0.00791
6206.6,-0.00028
6200.81,0.01209
6195.03,0.00545
6189.24,-0.00328
6183.45,0.01209
6177.67,0.00339
6171.88,0.00537
6166.09,0.01160
6160.31,0.00843
6154.52,0.00508
6148.74,0.00691
6142.95,0.01082
6137.16,0.00308
6131.38,0.00517
6125.59,0.00851
6119.81,0.01584
6114.02,0.00604
6108.23,0.00863
6102.45,0.00698
6096.66,0.00548
6090.87,0.00620
6085.09,0.00777
6079.3,0.00945
6073.52,0.00441
6067.73,0.00406
6061.94,0.00580
6056.16,0.00504
6050.37,0.00544
6044.59,0.00821
6038.8,0.00763
6033.01,0.00793
6027.23,0.00920
6021.44,0.00897
6015.65,0.00519
6009.87,0.00615
6004.08,0.00385
5998.3,0.00929
5992.51,0.00283
5986.72,0.00237
5980.94,0.00917
5975.15,0.00474
5969.37,0.00369
5963.58,0.01183
5957.79,0.00777
5952.01,0.00614
5946.22,0.00791
5940.44,0.00973
5934.65,0.00356
5928.86,0.00396
5923.08,0.00472
5917.29,0.00787
5911.5,0.00199
5905.72,0.00552
5899.93,0.00582
5894.15,0.00439
5888.36,0.00357
5882.57,0.00171
5876.79,0.00141
5871,0.00638
5865.22,0.00434
5859.43,0.00396
5853.64,0.00499
5847.86,0.00573
5842.07,0.00959
5836.28,0.00774
5830.5,0.00577
5824.71,0.00534
5818.93,0.00355
5813.14,0.00494
5807.35,0.00323
5801.57,0.00532
5795.78,0.00295
5790,0.00597
5784.21,0.00733
5778.42,0.00471
5772.64,0.00237
5766.85,0.00564
5761.06,0.00985
5755.28,0.00924
5749.49,0.00451
5743.71,0.00865
5737.92,0.00328
5732.13,0.00059
5726.35,0.00797
5720.56,0.00227
5714.78,0.00572
5708.99,0.00539
5703.2,0.00249
5697.42,0.00464
5691.63,0.00956
5685.84,0.00705
5680.06,0.00460
5674.27,0.00460
5668.49,0.00242
5662.7,0.00088
5656.91,0.00333
5651.13,0.00048
5645.34,0.00569
5639.56,0.00314
5633.77,0.00263
5627.98,0.00350
5622.2,0.00162
5616.41,0.00820
5610.63,0.00427
5604.84,0.00433
5599.05,-0.00101
5593.27,0.00549
5587.48,0.00249
5581.69,0.00343
5575.91,0.00273
5570.12,0.00555
5564.34,0.00185
5558.55,0.00580
5552.76,0.00441
5546.98,0.00343
5541.19,0.00396
5535.41,0.00115
5529.62,0.00362
5523.83,0.00635
5518.05,0.00325
5512.26,0.00769
5506.47,0.00735
5500.69,0.00805
5494.9,0.00343
5489.12,0.00629
5483.33,0.00507
5477.54,0.00580
5471.76,0.00479
5465.97,0.00498
5460.19,0.00379
5454.4,0.00188
5448.61,0.00386
5442.83,0.00638
5437.04,0.00689
5431.25,0.00583
5425.47,0.00699
5419.68,0.00262
5413.9,0.00408
5408.11,0.00407
5402.32,0.00496
5396.54,0.00387
5390.75,0.00156
5384.97,0.00543
5379.18,0.00221
5373.39,0.00413
5367.61,0.00508
5361.82,0.00353
5356.04,0.00260
5350.25,0.00318
5344.46,0.00474
5338.68,0.00086
5332.89,0.00719
5327.1,0.00802
5321.32,0.00135
5315.53,0.00497
5309.75,0.00329
5303.96,0.00131
5298.17,0.00312
5292.39,0.00243
5286.6,0.00711
5280.82,0.00384
5275.03,0.00590
5269.24,0.00131
5263.46,0.00105
5257.67,0.00361
5251.88,0.00276
5246.1,0.00333
5240.31,0.00246
5234.53,0.00152
5228.74,0.00359
5222.95,0.00221
5217.17,0.00266
5211.38,0.00213
5205.6,0.00487
5199.81,0.00289
5194.02,0.00459
5188.24,0.00390
5182.45,0.00410
5176.66,0.00304
5170.88,0.00356
5165.09,0.00228
5159.31,0.00417
5153.52,0.00162
5147.73,0.00222
5141.95,0.00683
5136.16,0.00391
5130.38,0.00281
5124.59,0.00447
5118.8,0.00239
5113.02,0.00331
5107.23,0.00443
5101.45,0.00260
5095.66,0.00436
5089.87,0.00233
5084.09,0.00205
5078.3,0.00070
5072.51,0.00218
5066.73,0.00263
5060.94,0.00217
5055.16,0.00277
5049.37,0.00286
5043.58,0.00240
5037.8,0.00117
5032.01,0.00243
5026.23,0.00309
5020.44,0.00242
5014.65,0.00222
5008.87,0.00093
5003.08,0.00434
4997.29,0.00350
4991.51,0.00364
4985.72,0.00336
4979.94,0.00224
4974.15,0.00173
4968.36,0.00369
4962.58,0.00386
4956.79,0.00107
4951.01,0.00139
4945.22,0.00144
4939.43,0.00242
4933.65,0.00252
4927.86,0.00510
4922.07,0.00322
4916.29,0.00437
4910.5,0.00427
4904.72,0.00239
4898.93,0.00162
4893.14,0.00210
4887.36,0.00353
4881.57,0.00190
4875.79,0.00207
4870,0.00353
4864.21,0.00217
4858.43,0.00112
4852.64,0.00325
4846.85,0.00136
4841.07,0.00104
4835.28,0.00468
4829.5,0.00189
4823.71,0.00212
4817.92,0.00146
4812.14,0.00238
4806.35,0.00277
4800.57,0.00231
4794.78,0.00192
4788.99,0.00329
4783.21,0.00030
4777.42,0.00224
4771.64,0.00329
4765.85,0.00265
4760.06,0.00077
4754.28,0.00281
4748.49,0.00204
4742.7,0.00167
4736.92,0.00163
4731.13,0.00088
4725.35,0.00195
4719.56,0.00210
4713.77,0.00118
4707.99,0.00122
4702.2,0.00024
4696.42,0.00128
4690.63,0.00234
4684.84,0.00267
4679.06,0.00244
4673.27,0.00215
4667.48,0.00062
4661.7,0.00035
4655.91,0.00302
4650.13,0.00248
4644.34,0.00227
4638.55,0.00290
4632.77,0.00097
4626.98,0.00361
4621.2,-0.00029
4615.41,0.00126
4609.62,0.00191
4603.84,0.00233
4598.05,0.00078
4592.26,0.00153
4586.48,0.00215
4580.69,0.00066
4574.91,0.00167
4569.12,0.00168
4563.33,0.00231
4557.55,0.00354
4551.76,0.00035
4545.98,0.00138
4540.19,0.00103
4534.4,0.00126
4528.62,0.00089
4522.83,0.00248
4517.05,0.00118
4511.26,0.00246
4505.47,0.00264
4499.69,0.00119
4493.9,0.00061
4488.11,0.00327
4482.33,0.00140
4476.54,0.00099
4470.76,0.00082
4464.97,0.00060
4459.18,0.00215
4453.4,0.00153
4447.61,0.00128
4441.83,0.00192
4436.04,0.00159
4430.25,0.00151
4424.47,0.00103
4418.68,0.00353
4412.89,0.00079
4407.11,0.00099
4401.32,0.00193
4395.54,0.00191
4389.75,0.00029
4383.96,0.00267
4378.18,0.00198
4372.39,0.00235
4366.61,0.00259
4360.82,0.00169
4355.03,0.00201
4349.25,0.00135
4343.46,0.00101
4337.67,0.00062
4331.89,0.00144
4326.1,0.00180
4320.32,0.00217
4314.53,0.00056
4308.74,0.00104
4302.96,0.00143
4297.17,0.00021
4291.39,0.00144
4285.6,0.00162
4279.81,0.00228
4274.03,-0.00008
4268.24,0.00319
4262.46,0.00161
4256.67,0.00078
4250.88,0.00090
4245.1,0.00128
4239.31,0.00104
4233.52,0.00158
4227.74,0.00139
4221.95,0.00103
4216.17,0.00167
4210.38,0.00164
4204.59,0.00185
4198.81,0.00247
4193.02,0.00080
4187.24,0.00225
4181.45,0.00088
4175.66,0.00126
4169.88,0.00096
4164.09,0.00208
4158.3,0.00059
4152.52,0.00174
4146.73,0.00149
4140.95,0.00243
4135.16,0.00094
4129.37,0.00167
4123.59,0.00132
4117.8,0.00112
4112.02,0.00057
4106.23,0.00153
4100.44,0.00173
4094.66,0.00188
4088.87,0.00201
4083.08,0.00212
4077.3,0.00145
4071.51,0.00126
4065.73,0.00169
4059.94,0.00068
4054.15,0.00149
4048.37,0.00161
4042.58,0.00069
4036.8,-0.00007
4031.01,0.00098
4025.22,0.00138
4019.44,0.00098
4013.65,0.00086
4007.86,-0.00010
4002.08,0.00199
3996.29,0.00036
3990.51,0.00131
3984.72,0.00074
3978.93,0.00165
3973.15,0.00131
3967.36,0.00037
3961.58,0.00159
3955.79,0.00212
3950,0.00161
3944.22,-0.00003
3938.43,0.00155
3932.65,0.00108
3926.86,0.00176
3921.07,0.00146
3915.29,0.00157
3909.5,0.00092
3903.71,0.00158
3897.93,0.00102
3892.14,0.00083
3886.36,0.00090
3880.57,0.00172
3874.78,0.00140
3869,0.00142
3863.21,0.00077
3857.43,0.00115
3851.64,0.00251
3845.85,0.00115
3840.07,0.00210
3834.28,0.00017
3828.49,0.00116
3822.71,0.00342
3816.92,0.00249
3811.14,0.00114
3805.35,0.00241
3799.56,0.00081
3793.78,0.00115
3787.99,0.00071
3782.21,0.00141
3776.42,0.00122
3770.63,0.00073
3764.85,0.00004
3759.06,0.00227
3753.27,0.00294
3747.49,0.00092
3741.7,0.00252
3735.92,0.00020
3730.13,0.00232
3724.34,0.00092
3718.56,0.00034
3712.77,0.00100
3706.99,0.00165
3701.2,0.00237
3695.41,0.00042
3689.63,0.00127
3683.84,0.00094
3678.06,0.00295
3672.27,0.00166
3666.48,0.00127
3660.7,0.00077
3654.91,0.00247
3649.12,0.00482
3643.34,0.00148
3637.55,0.00098
3631.77,0.00171
3625.98,0.00145
3620.19,0.00144
3614.41,0.00250
3608.62,0.00263
3602.84,0.00121
3597.05,0.00303
3591.26,0.00121
3585.48,0.00267
3579.69,0.00217
3573.9,0.00070
3568.12,0.00243
3562.33,0.00126
3556.55,0.00068
3550.76,0.00139
3544.97,0.00323
3539.19,0.00047
3533.4,0.00158
3527.62,0.00219
3521.83,0.00213
3516.04,0.00023
3510.26,0.00241
3504.47,0.00149
3498.68,0.00138
3492.9,0.00017
3487.11,0.00210
3481.33,0.00166
3475.54,0.00053
3469.75,0.00019
3463.97,0.00219
3458.18,0.00148
3452.4,0.00116
3446.61,0.00127
3440.82,0.00299
3435.04,0.00175
3429.25,0.00079
3423.47,0.00264
3417.68,0.00134
3411.89,0.00201
3406.11,0.00168
3400.32,0.00173
3394.53,0.00089
3388.75,0.00045
3382.96,0.00241
3377.18,0.00159
3371.39,0.00091
3365.6,0.00228
3359.82,0.00125
3354.03,0.00059
3348.25,0.00102
3342.46,0.00232
3336.67,0.00186
3330.89,0.00228
3325.1,0.00200
3319.31,0.00182
3313.53,0.00218
3307.74,0.00208
3301.96,0.00029
3296.17,0.00133
3290.38,0.00073
3284.6,0.00043
3278.81,0.00202
3273.03,0.00369
3267.24,0.00058
3261.45,0.00100
3255.67,0.00138
3249.88,0.00087
3244.09,0.00228
3238.31,0.00109
3232.52,0.00213
3226.74,0.00204
3220.95,0.00053
3215.16,0.00335
3209.38,0.00268
3203.59,0.00107
3197.81,0.00069
3192.02,-0.00001
3186.23,0.00311
3180.45,0.00112
3174.66,0.00270
3168.87,0.00076
3163.09,0.00168
3157.3,0.00184
3151.52,0.00169
3145.73,0.00216
3139.94,0.00211
3134.16,-0.00017
3128.37,0.00177
3122.59,0.00164
3116.8,0.00056
3111.01,0.00039
3105.23,0.00094
3099.44,0.00108
3093.66,0.00162
3087.87,0.00115
3082.08,0.00071
3076.3,0.00147
3070.51,0.00162
3064.72,0.00149
3058.94,0.00106
3053.15,0.00050
3047.37,0.00155
3041.58,0.00125
3035.79,0.00118
3030.01,0.00095
3024.22,0.00091
3018.44,0.00111
3012.65,0.00103
3006.86,0.00097
3001.08,0.00065
2995.29,0.00075
2989.5,0.00082
2983.72,0.00129
2977.93,0.00134
2972.15,0.00082
2966.36,0.00150
2960.57,0.00122
2954.79,0.00086
2949,0.00147
2943.22,0.00152
2937.43,0.00106
2931.64,0.00156
2925.86,0.00143
2920.07,0.00114
2914.28,0.00109
2908.5,0.00116
2902.71,0.00122
2896.93,0.00107
2891.14,0.00056
2885.35,0.00043
2879.57,0.00080
2873.78,0.00038
2868,0.00084
2862.21,0.00096
2856.42,0.00079
2850.64,-0.00011
2844.85,0.00137
2839.07,0.00139
2833.28,0.00106
2827.49,0.00073
2821.71,0.00088
2815.92,0.00138
2810.13,0.00079
2804.35,0.00046
2798.56,0.00176
2792.78,0.00132
2786.99,0.00034
2781.2,0.00079
2775.42,0.00058
2769.63,0.00089
2763.85,0.00075
2758.06,0.00041
2752.27,0.00124
2746.49,0.00032
2740.7,0.00105
2734.91,0.00118
2729.13,0.00058
2723.34,0.00079
2717.56,0.00041
2711.77,0.00078
2705.98,0.00055
2700.2,0.00071
2694.41,0.00042
2688.63,0.00169
2682.84,0.00106
2677.05,0.00054
2671.27,0.00120
2665.48,0.00090
2659.69,0.00060
2653.91,0.00066
2648.12,0.00093
2642.34,0.00115
2636.55,0.00064
2630.76,0.00059
2624.98,0.00083
2619.19,0.00100
2613.41,0.00038
2607.62,0.00042
2601.83,0.00077
2596.05,0.00078
2590.26,0.00108
2584.47,0.00138
2578.69,0.00074
2572.9,-0.00007
2567.12,0.00142
2561.33,0.00014
2555.54,0.00075
2549.76,0.00065
2543.97,0.00004
2538.19,0.00130
2532.4,0.00085
2526.61,0.00068
2520.83,0.00126
2515.04,0.00074
2509.26,0.00001
2503.47,0.00058
2497.68,0.00059
2491.9,0.00053
2486.11,0.00100
2480.32,0.00032
2474.54,0.00135
2468.75,0.00046
2462.97,0.00058
2457.18,0.00072
2451.39,0.00093
2445.61,0.00048
2439.82,0.00065
2434.04,0.00082
2428.25,-0.00007
2422.46,0.00055
2416.68,0.00104
2410.89,0.00081
2405.1,0.00132
2399.32,0.00042
2393.53,0.00151
2387.75,0.00028
2381.96,0.00096
2376.17,0.00003
2370.39,0.00037
2364.6,0.00180
2358.82,0.00196
2353.03,0.00121
2347.24,0.00132
2341.46,0.00061
2335.67,0.00104
2329.88,0.00172
2324.1,0.00086
2318.31,0.00010
2312.53,0.00068
2306.74,-0.00006
2300.95,0.00057
2295.17,0.00054
2289.38,0.00034
2283.6,0.00088
2277.81,0.00070
2272.02,0.00072
2266.24,0.00102
2260.45,0.00061
2254.67,0.00041
2248.88,0.00088
2243.09,0.00051
2237.31,0.00088
2231.52,0.00037
2225.73,0.00058
2219.95,0.00054
2214.16,0.00070
2208.38,0.00094
2202.59,0.00033
2196.8,0.00071
2191.02,0.00100
2185.23,0.00041
2179.45,0.00094
2173.66,0.00077
2167.87,0.00076
2162.09,0.00016
2156.3,0.00114
2150.51,0.00097
2144.73,0.00034
2138.94,0.00133
2133.16,0.00120
2127.37,0.00048
2121.58,0.00074
2115.8,0.00058
2110.01,0.00062
2104.23,0.00030
2098.44,0.00044
2092.65,0.00023
2086.87,0.00043
2081.08,0.00058
2075.29,0.00078
2069.51,0.00066
2063.72,0.00104
2057.94,0.00050
2052.15,0.00048
2046.36,0.00131
2040.58,0.00068
2034.79,0.00022
2029.01,0.00070
2023.22,0.00097
2017.43,0.00046
2011.65,0.00114
2005.86,0.00100
2000.08,0.00032
1994.29,0.00044
1988.5,0.00077
1982.72,0.00020
1976.93,0.00063
1971.14,0.00064
1965.36,0.00059
1959.57,0.00040
1953.79,0.00114
1948,0.00092
1942.21,0.00019
1936.43,0.00091
1930.64,0.00094
1924.86,0.00024
1919.07,-0.00011
1913.28,0.00111
1907.5,0.00094
1901.71,0.00045
1895.92,0.00028
1890.14,0.00052
1884.35,0.00064
1878.57,0.00102
1872.78,0.00033
1866.99,0.00073
1861.21,0.00081
1855.42,0.00107
1849.64,0.00051
1843.85,0.00087
1838.06,0.00029
1832.28,0.00029
1826.49,0.00073
1820.7,0.00109
1814.92,0.00109
1809.13,0.00025
1803.35,0.00078
1797.56,0.00092
1791.77,0.00046
1785.99,0.00063
1780.2,0.00070
1774.42,0.00098
1768.63,0.00134
1762.84,0.00034
1757.06,0.00038
1751.27,0.00144
1745.48,0.00157
1739.7,0.00038
1733.91,0.00036
1728.13,0.00102
1722.34,0.00073
1716.55,0.00103
1710.77,0.00085
1704.98,0.00013
1699.2,0.00222
1693.41,0.00075
1687.62,0.00059
1681.84,0.00063
1676.05,-0.00014
1670.27,0.00080
1664.48,0.00061
1658.69,0.00094
1652.91,0.00113
1647.12,0.00162
1641.33,0.00100
1635.55,0.00112
1629.76,0.00023
1623.98,0.00108
1618.19,0.00061
1612.4,0.00096
1606.62,0.00117
1600.83,0.00073
1595.05,0.00054
1589.26,0.00068
1583.47,0.00055
1577.69,0.00154
1571.9,0.00120
1566.11,0.00123
1560.33,0.00236
1554.54,0.00062
1548.76,0.00091
1542.97,0.00169
1537.18,0.00092
1531.4,0.00113
1525.61,0.00118
1519.83,0.00127
1514.04,0.00200
1508.25,0.00081
1502.47,0.00068
1496.68,0.00053
1490.89,0.00098
1485.11,0.00045
1479.32,0.00054
1473.54,0.00100
1467.75,0.00096
1461.96,0.00023
1456.18,0.00150
1450.39,0.00094
1444.61,-0.00015
1438.82,0.00063
1433.03,0.00109
1427.25,0.00136
1421.46,0.00028
1415.68,0.00066
1409.89,0.00074
1404.1,0.00067
1398.32,0.00127
1392.53,0.00130
1386.74,0.00093
1380.96,0.00140
1375.17,0.00080
1369.39,0.00083
1363.6,0.00118
1357.81,0.00075
1352.03,-0.00007
1346.24,0.00154
1340.46,0.00021
1334.67,0.00081
1328.88,0.00118
1323.1,0.00057
1317.31,0.00036
1311.52,0.00054
1305.74,0.00090
1299.95,0.00068
1294.17,0.00126
1288.38,0.00046
1282.59,0.00075
1276.81,0.00046
1271.02,0.00057
1265.24,-0.00017
1259.45,0.00150
1253.66,0.00061
1247.88,0.00054
1242.09,0.00041
1236.3,0.00136
1230.52,0.00014
1224.73,0.00082
1218.95,0.00104
1213.16,0.00009
1207.37,0.00120
1201.59,0.00016
1195.8,0.00130
1190.02,0.00098
1184.23,0.00097
1178.44,0.00039
1172.66,0.00046
1166.87,0.00007
1161.09,0.00169
1155.3,0.00055
1149.51,0.00151
1143.73,0.00083
1137.94,0.00154
1132.15,0.00092
1126.37,0.00091
1120.58,0.00193
1114.8,0.00158
1109.01,0.00020
1103.22,0.00070
1097.44,0.00238
1091.65,0.00154
1085.87,0.00064
1080.08,0.00130
1074.29,0.00159
1068.51,0.00201
1062.72,0.00106
1056.93,0.00191
1051.15,0.00090
1045.36,0.00067
1039.58,0.00132
1033.79,0.00230
1028,0.00052
1022.22,0.00130
1016.43,0.00122
1010.65,0.00159
1004.86,0.00135
999.073,0.00080
993.287,0.00093
987.501,0.00135
981.715,0.00049
975.929,0.00084
970.142,0.00173
964.356,0.00106
958.57,0.00106
952.784,0.00187
946.998,0.00093
941.212,0.00036
935.426,0.00116
929.64,0.00126
923.853,0.00121
918.067,0.00183
912.281,0.00102
906.495,0.00200
900.709,0.00006
894.923,0.00251
889.137,0.00077
883.35,0.00073
877.564,0.00106
871.778,0.00177
865.992,0.00060
860.206,0.00197
854.42,0.00150
848.634,0.00228
842.847,0.00131
837.061,0.00079
831.275,0.00027
825.489,0.00072
819.703,0.00191
813.917,0.00139
808.131,0.00159
802.344,0.00135
796.558,0.00183
790.772,0.00133
784.986,0.00071
779.2,0.00265
773.414,0.00096
767.628,0.00115
761.842,0.00225
756.055,0.00073
750.269,0.00217
744.483,0.00207
738.697,0.00086
732.911,0.00114
727.125,0.00007
721.339,0.00401
715.552,0.00137
709.766,0.00224
703.98,0.00099
698.194,0.00149
692.408,0.00371
686.622,0.00030
680.836,0.00198
675.049,0.00334
669.263,0.00366
663.477,0.00273
657.691,0.00088
651.905,0.00241
646.119,0.00166
640.333,0.00441
634.546,0.00182
628.76,0.00463
622.974,0.00384
617.188,0.00155
611.402,0.00095
605.616,0.00535
599.83,0.00276