File: 01_Data/PEVA/FTIR/IS/PEVA_0.18_IS_S_240809_R7.dpt
7497.33,0.11187
7491.55,0.09243
7485.76,0.09755
7479.97,0.10382
7474.19,0.11212
7468.4,0.09010
7462.61,0.09320
7456.83,0.10535
7451.04,0.10040
7445.26,0.10513
7439.47,0.09569
7433.68,0.10696
7427.9,0.10192
7422.11,0.09928
7416.32,0.10118
7410.54,0.10349
7404.75,0.09878
7398.96,0.09724
7393.18,0.10195
7387.39,0.11030
7381.6,0.09624
7375.82,0.10967
7370.03,0.09896
7364.24,0.09645
7358.46,0.10981
7352.67,0.09764
7346.89,0.10681
7341.1,0.10187
7335.31,0.09960
7329.53,0.09324
7323.74,0.10275
7317.95,0.11143
7312.17,0.10435
7306.38,0.09982
7300.59,0.10187
7294.81,0.10046
7289.02,0.10049
7283.23,0.11234
7277.45,0.10603
7271.66,0.09595
7265.87,0.10182
7260.09,0.10710
7254.3,0.10369
7248.52,0.09816
7242.73,0.08556
7236.94,0.09577
7231.16,0.08934
7225.37,0.10673
7219.58,0.08545
7213.8,0.10166
7208.01,0.09600
7202.22,0.10632
7196.44,0.10101
7190.65,0.09870
7184.86,0.09818
7179.08,0.09484
7173.29,0.09676
7167.5,0.10033
7161.72,0.10751
7155.93,0.10205
7150.15,0.09151
7144.36,0.10039
7138.57,0.10335
7132.79,0.09874
7127,0.09778
7121.21,0.09390
7115.43,0.09916
7109.64,0.09900
7103.85,0.09907
7098.07,0.10308
7092.28,0.09802
7086.49,0.10237
7080.71,0.10054
7074.92,0.09099
7069.13,0.10446
7063.35,0.10249
7057.56,0.10065
7051.78,0.09703
7045.99,0.10354
7040.2,0.10123
7034.42,0.10359
7028.63,0.09865
7022.84,0.10395
7017.06,0.10377
7011.27,0.10010
7005.48,0.09862
6999.7,0.11028
6993.91,0.10988
6988.12,0.10311
6982.34,0.10730
6976.55,0.10345
6970.76,0.10517
6964.98,0.10473
6959.19,0.09813
6953.41,0.10046
6947.62,0.09589
6941.83,0.09724
6936.05,0.09761
6930.26,0.09763
6924.47,0.09287
6918.69,0.10362
6912.9,0.10257
6907.11,0.10433
6901.33,0.10290
6895.54,0.10495
6889.75,0.09841
6883.97,0.10068
6878.18,0.10073
6872.39,0.10079
6866.61,0.10394
6860.82,0.09851
6855.04,0.10440
6849.25,0.09497
6843.46,0.10012
6837.68,0.09534
6831.89,0.10429
6826.1,0.10218
6820.32,0.10415
6814.53,0.10189
6808.74,0.10672
6802.96,0.09933
6797.17,0.10391
6791.38,0.10362
6785.6,0.10212
6779.81,0.10598
6774.03,0.11273
6768.24,0.10008
6762.45,0.10235
6756.67,0.10323
6750.88,0.10059
6745.09,0.09730
6739.31,0.10445
6733.52,0.09682
6727.73,0.10052
6721.95,0.10253
6716.16,0.10508
6710.37,0.10798
6704.59,0.10745
6698.8,0.10684
6693.01,0.10527
6687.23,0.10065
6681.44,0.09991
6675.66,0.10824
6669.87,0.10380
6664.08,0.09732
6658.3,0.09636
6652.51,0.10071
6646.72,0.09938
6640.94,0.10395
6635.15,0.09741
6629.36,0.10416
6623.58,0.10074
6617.79,0.10139
6612,0.10266
6606.22,0.10482
6600.43,0.10028
6594.64,0.10234
6588.86,0.10822
6583.07,0.10082
6577.29,0.09966
6571.5,0.10303
6565.71,0.09738
6559.93,0.10097
6554.14,0.10767
6548.35,0.10184
6542.57,0.10242
6536.78,0.10062
6530.99,0.10103
6525.21,0.10277
6519.42,0.10368
6513.63,0.10030
6507.85,0.10083
6502.06,0.10032
6496.27,0.10281
6490.49,0.10716
6484.7,0.10229
6478.92,0.10270
6473.13,0.10029
6467.34,0.09755
6461.56,0.09992
6455.77,0.10623
6449.98,0.10754
6444.2,0.10077
6438.41,0.10208
6432.62,0.09665
6426.84,0.10211
6421.05,0.09946
6415.26,0.10333
6409.48,0.10055
6403.69,0.10211
6397.9,0.10562
6392.12,0.10373
6386.33,0.10420
6380.55,0.10005
6374.76,0.10372
6368.97,0.10296
6363.19,0.10235
6357.4,0.10239
6351.61,0.10174
6345.83,0.10158
6340.04,0.10170
6334.25,0.09884
6328.47,0.10335
6322.68,0.10305
6316.89,0.09862
6311.11,0.10575
6305.32,0.10663
6299.53,0.10130
6293.75,0.10152
6287.96,0.10501
6282.18,0.10049
6276.39,0.10168
6270.6,0.09950
6264.82,0.09952
6259.03,0.10093
6253.24,0.10501
6247.46,0.10553
6241.67,0.10010
6235.88,0.09750
6230.1,0.10562
6224.31,0.10069
6218.52,0.10124
6212.74,0.10344
6206.95,0.10274
6201.16,0.10391
6195.38,0.10132
6189.59,0.10373
6183.81,0.09653
6178.02,0.09510
6172.23,0.10363
6166.45,0.09956
6160.66,0.10482
6154.87,0.10516
6149.09,0.10250
6143.3,0.10138
6137.51,0.09938
6131.73,0.10167
6125.94,0.10012
6120.15,0.10074
6114.37,0.10008
6108.58,0.09969
6102.79,0.10318
6097.01,0.09722
6091.22,0.09839
6085.44,0.10322
6079.65,0.10068
6073.86,0.10215
6068.08,0.10125
6062.29,0.09690
6056.5,0.09925
6050.72,0.10027
6044.93,0.09778
6039.14,0.09875
6033.36,0.10381
6027.57,0.10215
6021.78,0.09866
6016,0.10023
6010.21,0.10330
6004.42,0.09891
5998.64,0.10273
5992.85,0.10172
5987.07,0.10033
5981.28,0.09988
5975.49,0.10159
5969.71,0.10055
5963.92,0.10091
5958.13,0.10070
5952.35,0.09953
5946.56,0.10099
5940.77,0.10020
5934.99,0.09988
5929.2,0.10013
5923.41,0.09891
5917.63,0.09579
5911.84,0.10088
5906.05,0.10199
5900.27,0.10009
5894.48,0.09817
5888.7,0.10281
5882.91,0.09850
5877.12,0.09743
5871.34,0.09616
5865.55,0.09628
5859.76,0.09352
5853.98,0.09524
5848.19,0.09572
5842.4,0.08979
5836.62,0.09298
5830.83,0.09402
5825.04,0.08861
5819.26,0.09041
5813.47,0.08957
5807.68,0.08826
5801.9,0.08850
5796.11,0.08677
5790.33,0.08802
5784.54,0.08300
5778.75,0.08530
5772.97,0.08335
5767.18,0.08346
5761.39,0.08852
5755.61,0.08835
5749.82,0.09371
5744.03,0.09330
5738.25,0.09481
5732.46,0.09458
5726.67,0.09508
5720.89,0.09404
5715.1,0.09627
5709.31,0.09500
5703.53,0.09466
5697.74,0.09444
5691.96,0.09280
5686.17,0.09318
5680.38,0.09162
5674.6,0.09419
5668.81,0.09214
5663.02,0.09418
5657.24,0.09262
5651.45,0.09390
5645.66,0.09654
5639.88,0.09658
5634.09,0.09604
5628.3,0.09678
5622.52,0.09727
5616.73,0.09747
5610.94,0.09596
5605.16,0.09809
5599.37,0.09734
5593.59,0.09880
5587.8,0.09651
5582.01,0.09843
5576.23,0.09303
5570.44,0.09489
5564.65,0.09849
5558.87,0.09686
5553.08,0.09570
5547.29,0.09562
5541.51,0.09765
5535.72,0.09860
5529.93,0.09653
5524.15,0.09849
5518.36,0.09742
5512.58,0.09740
5506.79,0.09727
5501,0.09801
5495.22,0.09821
5489.43,0.09727
5483.64,0.09775
5477.86,0.09997
5472.07,0.09818
5466.28,0.09635
5460.5,0.09730
5454.71,0.09932
5448.92,0.10060
5443.14,0.10080
5437.35,0.09851
5431.56,0.09891
5425.78,0.10013
5419.99,0.09913
5414.21,0.09943
5408.42,0.09903
5402.63,0.09943
5396.85,0.10108
5391.06,0.09814
5385.27,0.10063
5379.49,0.10116
5373.7,0.10058
5367.91,0.09900
5362.13,0.09986
5356.34,0.10004
5350.55,0.10068
5344.77,0.09868
5338.98,0.09962
5333.19,0.09967
5327.41,0.09900
5321.62,0.09785
5315.84,0.10079
5310.05,0.09832
5304.26,0.10012
5298.48,0.10087
5292.69,0.09812
5286.9,0.09792
5281.12,0.10072
5275.33,0.10110
5269.54,0.10113
5263.76,0.10078
5257.97,0.09923
5252.18,0.09990
5246.4,0.09920
5240.61,0.10106
5234.82,0.10055
5229.04,0.10256
5223.25,0.10025
5217.47,0.09931
5211.68,0.10064
5205.89,0.10099
5200.11,0.10198
5194.32,0.10090
5188.53,0.10252
5182.75,0.10054
5176.96,0.10131
5171.17,0.10130
5165.39,0.10037
5159.6,0.10027
5153.81,0.10046
5148.03,0.10053
5142.24,0.10073
5136.45,0.10092
5130.67,0.10068
5124.88,0.10174
5119.1,0.09988
5113.31,0.10064
5107.52,0.10031
5101.74,0.10105
5095.95,0.10207
5090.16,0.10109
5084.38,0.10056
5078.59,0.10044
5072.8,0.10051
5067.02,0.10166
5061.23,0.10166
5055.44,0.10151
5049.66,0.10074
5043.87,0.10120
5038.08,0.10136
5032.3,0.10233
5026.51,0.10124
5020.73,0.10091
5014.94,0.10091
5009.15,0.10062
5003.37,0.09959
4997.58,0.10033
4991.79,0.10092
4986.01,0.10195
4980.22,0.10100
4974.43,0.10087
4968.65,0.10154
4962.86,0.10148
4957.07,0.10121
4951.29,0.10090
4945.5,0.10063
4939.71,0.10127
4933.93,0.10243
4928.14,0.10145
4922.36,0.10025
4916.57,0.10136
4910.78,0.10027
4905,0.10224
4899.21,0.10129
4893.42,0.10094
4887.64,0.10089
4881.85,0.10125
4876.06,0.10207
4870.28,0.10089
4864.49,0.10040
4858.7,0.10068
4852.92,0.10074
4847.13,0.10200
4841.34,0.10157
4835.56,0.10138
4829.77,0.10210
4823.99,0.10136
4818.2,0.10221
4812.41,0.10257
4806.63,0.10043
4800.84,0.10199
4795.05,0.10298
4789.27,0.10252
4783.48,0.10198
4777.69,0.10376
4771.91,0.10248
4766.12,0.10267
4760.33,0.10263
4754.55,0.10233
4748.76,0.10182
4742.97,0.10201
4737.19,0.10372
4731.4,0.10391
4725.62,0.10266
4719.83,0.10217
4714.04,0.10284
4708.26,0.10267
4702.47,0.10214
4696.68,0.10106
4690.9,0.10207
4685.11,0.10030
4679.32,0.10043
4673.54,0.10165
4667.75,0.10094
4661.96,0.10104
4656.18,0.10156
4650.39,0.10083
4644.6,0.10151
4638.82,0.10100
4633.03,0.10169
4627.25,0.10171
4621.46,0.10156
4615.67,0.10140
4609.89,0.10161
4604.1,0.10193
4598.31,0.10087
4592.53,0.10039
4586.74,0.10167
4580.95,0.10095
4575.17,0.10185
4569.38,0.10274
4563.59,0.10234
4557.81,0.10188
4552.02,0.10199
4546.23,0.10236
4540.45,0.10179
4534.66,0.10159
4528.88,0.10194
4523.09,0.10266
4517.3,0.10302
4511.52,0.10259
4505.73,0.10219
4499.94,0.10221
4494.16,0.10079
4488.37,0.10077
4482.58,0.10086
4476.8,0.10031
4471.01,0.09890
4465.22,0.09984
4459.44,0.09766
4453.65,0.09835
4447.86,0.09781
4442.08,0.09610
4436.29,0.09529
4430.51,0.09516
4424.72,0.09423
4418.93,0.09318
4413.15,0.09235
4407.36,0.09168
4401.57,0.09021
4395.79,0.08768
4390,0.08648
4384.21,0.08550
4378.43,0.08409
4372.64,0.08288
4366.85,0.08197
4361.07,0.07848
4355.28,0.07637
4349.49,0.07298
4343.71,0.06898
4337.92,0.06717
4332.14,0.06591
4326.35,0.06373
4320.56,0.06437
4314.78,0.07053
4308.99,0.07516
4303.2,0.07891
4297.42,0.07880
4291.63,0.07842
4285.84,0.07781
4280.06,0.07675
4274.27,0.07571
4268.48,0.07410
4262.7,0.07064
4256.91,0.06827
4251.13,0.06786
4245.34,0.07088
4239.55,0.07481
4233.77,0.07476
4227.98,0.07449
4222.19,0.07343
4216.41,0.07397
4210.62,0.07298
4204.83,0.07296
4199.05,0.07211
4193.26,0.07127
4187.47,0.07132
4181.69,0.07164
4175.9,0.07189
4170.11,0.07194
4164.33,0.07210
4158.54,0.07216
4152.76,0.07356
4146.97,0.07308
4141.18,0.07192
4135.4,0.07405
4129.61,0.07386
4123.82,0.07437
4118.04,0.07434
4112.25,0.07373
4106.46,0.07409
4100.68,0.07356
4094.89,0.07456
4089.1,0.07584
4083.32,0.07677
4077.53,0.07754
4071.74,0.07846
4065.96,0.07925
4060.17,0.07801
4054.39,0.07970
4048.6,0.08104
4042.81,0.08109
4037.03,0.08068
4031.24,0.08085
4025.45,0.08079
4019.67,0.08057
4013.88,0.08248
4008.09,0.08443
4002.31,0.08446
3996.52,0.08437
3990.73,0.08435
3984.95,0.08369
3979.16,0.08376
3973.37,0.08464
3967.59,0.08457
3961.8,0.08479
3956.02,0.08543
3950.23,0.08542
3944.44,0.08570
3938.66,0.08494
3932.87,0.08479
3927.08,0.08388
3921.3,0.08446
3915.51,0.08431
3909.72,0.08478
3903.94,0.08482
3898.15,0.08606
3892.36,0.08563
3886.58,0.08606
3880.79,0.08627
3875,0.08702
3869.22,0.08705
3863.43,0.08687
3857.65,0.08844
3851.86,0.08866
3846.07,0.08901
3840.29,0.08805
3834.5,0.08857
3828.71,0.08876
3822.93,0.08860
3817.14,0.08948
3811.35,0.08978
3805.57,0.09072
3799.78,0.09040
3793.99,0.09106
3788.21,0.09157
3782.42,0.09196
3776.63,0.09139
3770.85,0.09147
3765.06,0.09131
3759.28,0.09165
3753.49,0.09086
3747.7,0.09054
3741.92,0.09139
3736.13,0.09074
3730.34,0.09147
3724.56,0.09099
3718.77,0.09045
3712.98,0.09061
3707.2,0.08995
3701.41,0.08927
3695.62,0.08884
3689.84,0.08802
3684.05,0.08788
3678.26,0.08825
3672.48,0.08706
3666.69,0.08552
3660.91,0.08616
3655.12,0.08486
3649.33,0.08465
3643.55,0.08468
3637.76,0.08598
3631.97,0.08616
3626.19,0.08569
3620.4,0.08482
3614.61,0.08490
3608.83,0.08275
3603.04,0.08219
3597.25,0.08626
3591.47,0.08967
3585.68,0.09050
3579.89,0.09144
3574.11,0.09247
3568.32,0.09263
3562.54,0.09304
3556.75,0.09347
3550.96,0.09318
3545.18,0.09299
3539.39,0.09352
3533.6,0.09397
3527.82,0.09367
3522.03,0.09293
3516.24,0.09341
3510.46,0.09346
3504.67,0.09339
3498.88,0.09288
3493.1,0.09235
3487.31,0.09163
3481.52,0.09151
3475.74,0.08832
3469.95,0.08539
3464.17,0.08229
3458.38,0.07993
3452.59,0.08093
3446.81,0.08301
3441.02,0.08559
3435.23,0.08790
3429.45,0.08939
3423.66,0.09012
3417.87,0.09023
3412.09,0.09101
3406.3,0.09101
3400.51,0.09083
3394.73,0.09023
3388.94,0.09008
3383.15,0.09003
3377.37,0.09038
3371.58,0.08977
3365.8,0.09009
3360.01,0.08985
3354.22,0.08976
3348.44,0.08965
3342.65,0.08966
3336.86,0.09109
3331.08,0.09085
3325.29,0.09079
3319.5,0.08993
3313.72,0.09066
3307.93,0.09026
3302.14,0.08971
3296.36,0.09055
3290.57,0.09008
3284.78,0.09061
3279,0.09032
3273.21,0.08989
3267.43,0.09028
3261.64,0.09007
3255.85,0.08929
3250.07,0.08951
3244.28,0.09041
3238.49,0.08938
3232.71,0.08919
3226.92,0.08843
3221.13,0.08888
3215.35,0.08916
3209.56,0.08916
3203.77,0.08826
3197.99,0.08812
3192.2,0.08716
3186.41,0.08701
3180.63,0.08727
3174.84,0.08708
3169.06,0.08586
3163.27,0.08605
3157.48,0.08548
3151.7,0.08518
3145.91,0.08443
3140.12,0.08335
3134.34,0.08199
3128.55,0.08135
3122.76,0.07976
3116.98,0.07837
3111.19,0.07750
3105.4,0.07521
3099.62,0.07311
3093.83,0.06997
3088.05,0.06852
3082.26,0.06730
3076.47,0.06576
3070.69,0.06503
3064.9,0.06352
3059.11,0.06231
3053.33,0.06067
3047.54,0.05967
3041.75,0.05916
3035.97,0.05772
3030.18,0.05707
3024.39,0.05599
3018.61,0.05572
3012.82,0.05487
3007.03,0.05533
3001.25,0.05446
2995.46,0.05353
2989.68,0.05275
2983.89,0.05166
2978.1,0.05098
2972.32,0.04990
2966.53,0.04952
2960.74,0.04875
2954.96,0.04788
2949.17,0.04570
2943.38,0.04286
2937.6,0.04028
2931.81,0.04056
2926.02,0.04918
2920.24,0.07420
2914.45,0.08909
2908.66,0.08025
2902.88,0.07388
2897.09,0.07128
2891.31,0.06930
2885.52,0.06747
2879.73,0.06531
2873.95,0.06317
2868.16,0.06035
2862.37,0.05638
2856.59,0.05501
2850.8,0.07170
2845.01,0.08488
2839.23,0.07836
2833.44,0.07244
2827.65,0.06958
2821.87,0.06786
2816.08,0.06710
2810.29,0.06662
2804.51,0.06669
2798.72,0.06665
2792.94,0.06688
2787.15,0.06779
2781.36,0.06834
2775.58,0.06946
2769.79,0.06930
2764,0.07012
2758.22,0.06977
2752.43,0.06994
2746.64,0.06938
2740.86,0.06938
2735.07,0.06921
2729.28,0.06951
2723.5,0.06929
2717.71,0.06994
2711.92,0.07021
2706.14,0.06995
2700.35,0.06968
2694.57,0.06927
2688.78,0.06833
2682.99,0.06790
2677.21,0.06762
2671.42,0.06717
2665.63,0.06677
2659.85,0.06740
2654.06,0.06734
2648.27,0.06740
2642.49,0.06745
2636.7,0.06746
2630.91,0.06770
2625.13,0.06895
2619.34,0.07069
2613.55,0.07128
2607.77,0.07214
2601.98,0.07368
2596.2,0.07440
2590.41,0.07547
2584.62,0.07675
2578.84,0.07835
2573.05,0.08002
2567.26,0.08100
2561.48,0.08169
2555.69,0.08227
2549.9,0.08259
2544.12,0.08418
2538.33,0.08502
2532.54,0.08429
2526.76,0.08472
2520.97,0.08600
2515.18,0.08728
2509.4,0.08774
2503.61,0.08841
2497.83,0.08846
2492.04,0.08830
2486.25,0.08787
2480.47,0.08797
2474.68,0.08795
2468.89,0.08892
2463.11,0.09041
2457.32,0.09181
2451.53,0.09242
2445.75,0.09373
2439.96,0.09436
2434.17,0.09417
2428.39,0.09357
2422.6,0.09294
2416.81,0.09230
2411.03,0.09195
2405.24,0.09181
2399.46,0.09239
2393.67,0.09179
2387.88,0.09127
2382.1,0.09122
2376.31,0.09130
2370.52,0.09119
2364.74,0.08956
2358.95,0.08791
2353.16,0.08651
2347.38,0.08453
2341.59,0.08338
2335.8,0.08281
2330.02,0.08198
2324.23,0.08168
2318.44,0.08265
2312.66,0.08338
2306.87,0.08353
2301.09,0.08378
2295.3,0.08518
2289.51,0.08555
2283.73,0.08531
2277.94,0.08648
2272.15,0.08732
2266.37,0.08699
2260.58,0.08827
2254.79,0.08954
2249.01,0.08940
2243.22,0.09006
2237.43,0.09263
2231.65,0.09410
2225.86,0.09321
2220.07,0.09458
2214.29,0.09591
2208.5,0.09538
2202.72,0.09409
2196.93,0.09455
2191.14,0.09469
2185.36,0.09320
2179.57,0.09273
2173.78,0.09365
2168,0.09326
2162.21,0.09165
2156.42,0.09212
2150.64,0.09298
2144.85,0.09232
2139.06,0.09335
2133.28,0.09511
2127.49,0.09533
2121.7,0.09419
2115.92,0.09505
2110.13,0.09592
2104.35,0.09367
2098.56,0.09349
2092.77,0.09440
2086.99,0.09375
2081.2,0.09158
2075.41,0.09200
2069.63,0.09264
2063.84,0.09044
2058.05,0.08899
2052.27,0.08987
2046.48,0.08870
2040.69,0.08624
2034.91,0.08649
2029.12,0.08636
2023.33,0.08325
2017.55,0.08254
2011.76,0.08742
2005.98,0.08966
2000.19,0.08897
1994.4,0.09115
1988.62,0.09357
1982.83,0.09203
1977.04,0.09142
1971.26,0.09372
1965.47,0.09338
1959.68,0.09099
1953.9,0.09170
1948.11,0.09382
1942.32,0.09199
1936.54,0.09068
1930.75,0.09297
1924.96,0.09231
1919.18,0.08935
1913.39,0.08947
1907.61,0.09019
1901.82,0.08727
1896.03,0.08539
1890.25,0.08798
1884.46,0.08832
1878.67,0.08569
1872.89,0.08629
1867.1,0.08723
1861.31,0.08506
1855.53,0.08497
1849.74,0.08773
1843.95,0.08601
1838.17,0.08458
1832.38,0.08536
1826.6,0.08373
1820.81,0.08034
1815.02,0.08109
1809.24,0.08027
1803.45,0.07724
1797.66,0.07653
1791.88,0.07534
1786.09,0.07175
1780.3,0.07111
1774.52,0.06844
1768.73,0.06548
1762.94,0.06279
1757.16,0.06160
1751.37,0.06045
1745.58,0.05472
1739.8,0.04805
1734.01,0.05091
1728.23,0.05627
1722.44,0.05809
1716.65,0.05832
1710.87,0.05944
1705.08,0.05958
1699.29,0.06000
1693.51,0.06064
1687.72,0.06400
1681.93,0.06796
1676.15,0.06895
1670.36,0.07115
1664.57,0.07275
1658.79,0.07063
1653,0.06986
1647.21,0.06989
1641.43,0.07186
1635.64,0.07561
1629.86,0.07903
1624.07,0.07851
1618.28,0.07785
1612.5,0.08074
1606.71,0.08016
1600.92,0.07801
1595.14,0.07970
1589.35,0.07975
1583.56,0.07799
1577.78,0.07810
1571.99,0.07952
1566.2,0.07685
1560.42,0.07668
1554.63,0.07770
1548.84,0.07712
1543.06,0.07529
1537.27,0.07732
1531.49,0.07646
1525.7,0.07436
1519.91,0.07493
1514.13,0.07367
1508.34,0.07093
1502.55,0.07011
1496.77,0.06724
1490.98,0.06469
1485.19,0.06083
1479.41,0.05619
1473.62,0.05445
1467.83,0.05866
1462.05,0.06299
1456.26,0.06488
1450.47,0.06428
1444.69,0.06332
1438.9,0.06269
1433.12,0.06195
1427.33,0.06110
1421.54,0.06227
1415.76,0.06262
1409.97,0.06364
1404.18,0.06357
1398.4,0.06174
1392.61,0.05923
1386.82,0.05629
1381.04,0.05500
1375.25,0.05471
1369.46,0.05496
1363.68,0.05613
1357.89,0.05620
1352.1,0.05694
1346.32,0.05745
1340.53,0.05915
1334.75,0.06054
1328.96,0.06051
1323.17,0.05995
1317.39,0.05770
1311.6,0.05693
1305.81,0.05623
1300.03,0.05582
1294.24,0.05525
1288.45,0.05566
1282.67,0.05507
1276.88,0.05586
1271.09,0.05622
1265.31,0.05788
1259.52,0.06043
1253.73,0.06644
1247.95,0.07358
1242.16,0.07765
1236.38,0.07424
1230.59,0.06716
1224.8,0.06239
1219.02,0.06028
1213.23,0.05923
1207.44,0.05873
1201.66,0.05901
1195.87,0.05928
1190.08,0.05966
1184.3,0.06063
1178.51,0.06071
1172.72,0.06108
1166.94,0.06234
1161.15,0.06117
1155.36,0.06037
1149.58,0.06090
1143.79,0.06019
1138.01,0.05940
1132.22,0.06017
1126.43,0.06020
1120.65,0.05986
1114.86,0.06055
1109.07,0.06158
1103.29,0.06042
1097.5,0.06095
1091.71,0.06104
1085.93,0.06002
1080.14,0.05979
1074.35,0.06057
1068.57,0.05933
1062.78,0.05964
1056.99,0.05982
1051.21,0.05889
1045.42,0.05857
1039.64,0.05843
1033.85,0.05882
1028.06,0.05860
1022.28,0.05971
1016.49,0.06271
1010.7,0.06346
1004.92,0.06287
999.13,0.06430
993.344,0.06345
987.557,0.06234
981.771,0.06493
975.984,0.06226
970.198,0.06053
964.411,0.06249
958.625,0.06215
952.838,0.06014
947.052,0.06161
941.265,0.06304
935.479,0.06253
929.692,0.06135
923.906,0.06759
918.12,0.07362
912.333,0.06725
906.547,0.06869
900.76,0.07671
894.974,0.07075
889.187,0.06671
883.401,0.07583
877.614,0.07659
871.828,0.06713
866.041,0.07140
860.255,0.08098
854.468,0.07297
848.682,0.06843
842.895,0.08140
837.109,0.08224
831.323,0.07062
825.536,0.07825
819.75,0.08797
813.963,0.07404
808.177,0.06973
802.39,0.08322
796.604,0.08162
790.817,0.06749
785.031,0.07856
779.244,0.08825
773.458,0.06996
767.671,0.06826
761.885,0.08324
756.098,0.07151
750.312,0.06099
744.526,0.07063
738.739,0.05949
732.953,0.05331
727.166,0.05621
721.38,0.05747
715.593,0.06297
709.807,0.06827
704.02,0.07212
698.234,0.06913
692.447,0.10039
686.661,0.08461
680.874,0.07219
675.088,0.10128
669.301,0.09355
663.515,0.06706
657.729,0.08859
651.942,0.09408
646.156,0.06226
640.369,0.06253
634.583,0.08676
628.796,0.07073
623.01,0.05689
617.223,0.07410
611.437,0.07042
605.65,0.06333
599.864,0.05236