File: 01_Data/PEVA/FTIR/IS/PEVA_0.10_IS_T_240808_R7.dpt
7496.93,0.03722
7491.14,0.03941
7485.35,0.03498
7479.57,0.03639
7473.78,0.03942
7468,0.04737
7462.21,0.03755
7456.42,0.03989
7450.64,0.01493
7444.85,0.02861
7439.06,0.02851
7433.28,0.03282
7427.49,0.03909
7421.71,0.03669
7415.92,0.02255
7410.13,0.03296
7404.35,0.03841
7398.56,0.02628
7392.78,0.03298
7386.99,0.04926
7381.2,0.02198
7375.42,0.03096
7369.63,0.03679
7363.84,0.02626
7358.06,0.04405
7352.27,0.02836
7346.49,0.03167
7340.7,0.04714
7334.91,0.03312
7329.13,0.03588
7323.34,0.02102
7317.56,0.03513
7311.77,0.03534
7305.98,0.04728
7300.2,0.02221
7294.41,0.02238
7288.62,0.04217
7282.84,0.04375
7277.05,0.03084
7271.27,0.02703
7265.48,0.03982
7259.69,0.02439
7253.91,0.02447
7248.12,0.03363
7242.34,0.03388
7236.55,0.02537
7230.76,0.03106
7224.98,0.03651
7219.19,0.03196
7213.4,0.03096
7207.62,0.03151
7201.83,0.03799
7196.05,0.03780
7190.26,0.03401
7184.47,0.04499
7178.69,0.02986
7172.9,0.02930
7167.12,0.03599
7161.33,0.04133
7155.54,0.03248
7149.76,0.03387
7143.97,0.03162
7138.18,0.02967
7132.4,0.02069
7126.61,0.04064
7120.83,0.03339
7115.04,0.03288
7109.25,0.03819
7103.47,0.03492
7097.68,0.03004
7091.9,0.02798
7086.11,0.03087
7080.32,0.03450
7074.54,0.03906
7068.75,0.03015
7062.96,0.02405
7057.18,0.03003
7051.39,0.02052
7045.61,0.03085
7039.82,0.02820
7034.03,0.03785
7028.25,0.02692
7022.46,0.03700
7016.68,0.02378
7010.89,0.03412
7005.1,0.03439
6999.32,0.03632
6993.53,0.03512
6987.74,0.03009
6981.96,0.02463
6976.17,0.02520
6970.39,0.02910
6964.6,0.03046
6958.81,0.03651
6953.03,0.02933
6947.24,0.03416
6941.46,0.03913
6935.67,0.03416
6929.88,0.03615
6924.1,0.02392
6918.31,0.03401
6912.52,0.03399
6906.74,0.02013
6900.95,0.03703
6895.17,0.03479
6889.38,0.03630
6883.59,0.02895
6877.81,0.02938
6872.02,0.03194
6866.24,0.02629
6860.45,0.03064
6854.66,0.03495
6848.88,0.03600
6843.09,0.03202
6837.3,0.03241
6831.52,0.02985
6825.73,0.02648
6819.95,0.02207
6814.16,0.03655
6808.37,0.03799
6802.59,0.03620
6796.8,0.03759
6791.02,0.02027
6785.23,0.03676
6779.44,0.02967
6773.66,0.02778
6767.87,0.02985
6762.08,0.02570
6756.3,0.03118
6750.51,0.03432
6744.73,0.02604
6738.94,0.03263
6733.15,0.03856
6727.37,0.03194
6721.58,0.03445
6715.8,0.03109
6710.01,0.02923
6704.22,0.02901
6698.44,0.03307
6692.65,0.02881
6686.86,0.02945
6681.08,0.03301
6675.29,0.03286
6669.51,0.03312
6663.72,0.03073
6657.93,0.02914
6652.15,0.03484
6646.36,0.02337
6640.58,0.02908
6634.79,0.02936
6629,0.03068
6623.22,0.02960
6617.43,0.03971
6611.64,0.03486
6605.86,0.03558
6600.07,0.03544
6594.29,0.02710
6588.5,0.02463
6582.71,0.02736
6576.93,0.03306
6571.14,0.03877
6565.36,0.03383
6559.57,0.03499
6553.78,0.03113
6548,0.02712
6542.21,0.03443
6536.42,0.02875
6530.64,0.03303
6524.85,0.03178
6519.07,0.03632
6513.28,0.03056
6507.49,0.03163
6501.71,0.03039
6495.92,0.02798
6490.14,0.03214
6484.35,0.03090
6478.56,0.03027
6472.78,0.02968
6466.99,0.02614
6461.2,0.03294
6455.42,0.03358
6449.63,0.03340
6443.85,0.03029
6438.06,0.02804
6432.27,0.02618
6426.49,0.03227
6420.7,0.02968
6414.92,0.02899
6409.13,0.02844
6403.34,0.03162
6397.56,0.03090
6391.77,0.03004
6385.98,0.02562
6380.2,0.02523
6374.41,0.02777
6368.63,0.02694
6362.84,0.03211
6357.05,0.03309
6351.27,0.02884
6345.48,0.03017
6339.7,0.02775
6333.91,0.02885
6328.12,0.02723
6322.34,0.03079
6316.55,0.03138
6310.76,0.02781
6304.98,0.03462
6299.19,0.02813
6293.41,0.03421
6287.62,0.03496
6281.83,0.03109
6276.05,0.03046
6270.26,0.02982
6264.48,0.03378
6258.69,0.03164
6252.9,0.03515
6247.12,0.02823
6241.33,0.03439
6235.54,0.02820
6229.76,0.02639
6223.97,0.02930
6218.19,0.03469
6212.4,0.03275
6206.61,0.02974
6200.83,0.02956
6195.04,0.02992
6189.26,0.02703
6183.47,0.02913
6177.68,0.02981
6171.9,0.02952
6166.11,0.02608
6160.32,0.02726
6154.54,0.03052
6148.75,0.02963
6142.97,0.02540
6137.18,0.02519
6131.39,0.02378
6125.61,0.02951
6119.82,0.03116
6114.04,0.03130
6108.25,0.02977
6102.46,0.03094
6096.68,0.03107
6090.89,0.03392
6085.1,0.02945
6079.32,0.03341
6073.53,0.03190
6067.75,0.02923
6061.96,0.03300
6056.17,0.02983
6050.39,0.02824
6044.6,0.02903
6038.82,0.02966
6033.03,0.03145
6027.24,0.03105
6021.46,0.03392
6015.67,0.02887
6009.88,0.02705
6004.1,0.03011
5998.31,0.02851
5992.53,0.03085
5986.74,0.03120
5980.95,0.02936
5975.17,0.02944
5969.38,0.03092
5963.6,0.03129
5957.81,0.02892
5952.02,0.02840
5946.24,0.02839
5940.45,0.03066
5934.66,0.03093
5928.88,0.02991
5923.09,0.03177
5917.31,0.03036
5911.52,0.03365
5905.73,0.03335
5899.95,0.03074
5894.16,0.02802
5888.38,0.03158
5882.59,0.02630
5876.8,0.03021
5871.02,0.03193
5865.23,0.02988
5859.44,0.03071
5853.66,0.03039
5847.87,0.03190
5842.09,0.03118
5836.3,0.03119
5830.51,0.03028
5824.73,0.03096
5818.94,0.03023
5813.16,0.02901
5807.37,0.02824
5801.58,0.02968
5795.8,0.02938
5790.01,0.03183
5784.22,0.03027
5778.44,0.02717
5772.65,0.02729
5766.87,0.02778
5761.08,0.03051
5755.29,0.02922
5749.51,0.02978
5743.72,0.02869
5737.94,0.03135
5732.15,0.03104
5726.36,0.03114
5720.58,0.02979
5714.79,0.03303
5709,0.03251
5703.22,0.03117
5697.43,0.02990
5691.65,0.02987
5685.86,0.03040
5680.07,0.03103
5674.29,0.03194
5668.5,0.02935
5662.72,0.03044
5656.93,0.03065
5651.14,0.03049
5645.36,0.03053
5639.57,0.03015
5633.78,0.03043
5628,0.02977
5622.21,0.02905
5616.43,0.03058
5610.64,0.03060
5604.85,0.02825
5599.07,0.03011
5593.28,0.03036
5587.5,0.03226
5581.71,0.03171
5575.92,0.02866
5570.14,0.03097
5564.35,0.02938
5558.56,0.03205
5552.78,0.03238
5546.99,0.03100
5541.21,0.03015
5535.42,0.02982
5529.63,0.03171
5523.85,0.03088
5518.06,0.02960
5512.28,0.02961
5506.49,0.02896
5500.7,0.03167
5494.92,0.02940
5489.13,0.02797
5483.34,0.03103
5477.56,0.03163
5471.77,0.03001
5465.99,0.03029
5460.2,0.02901
5454.41,0.02868
5448.63,0.02952
5442.84,0.03262
5437.06,0.02979
5431.27,0.02959
5425.48,0.03001
5419.7,0.03028
5413.91,0.03074
5408.12,0.03013
5402.34,0.02859
5396.55,0.02808
5390.77,0.03036
5384.98,0.02979
5379.19,0.02929
5373.41,0.02776
5367.62,0.03073
5361.84,0.03029
5356.05,0.03023
5350.26,0.02933
5344.48,0.02923
5338.69,0.03168
5332.9,0.03266
5327.12,0.03099
5321.33,0.02915
5315.55,0.02944
5309.76,0.02863
5303.97,0.02975
5298.19,0.02987
5292.4,0.03032
5286.62,0.03174
5280.83,0.03263
5275.04,0.02915
5269.26,0.03103
5263.47,0.03043
5257.68,0.03062
5251.9,0.03184
5246.11,0.03004
5240.33,0.03005
5234.54,0.03174
5228.75,0.02729
5222.97,0.02788
5217.18,0.02866
5211.4,0.03070
5205.61,0.03070
5199.82,0.02914
5194.04,0.03143
5188.25,0.02955
5182.46,0.03032
5176.68,0.02878
5170.89,0.03052
5165.11,0.02921
5159.32,0.02969
5153.53,0.02824
5147.75,0.02863
5141.96,0.02990
5136.18,0.03079
5130.39,0.02842
5124.6,0.02800
5118.82,0.03031
5113.03,0.02978
5107.24,0.02792
5101.46,0.02908
5095.67,0.03141
5089.89,0.02936
5084.1,0.02928
5078.31,0.03019
5072.53,0.03026
5066.74,0.02998
5060.96,0.02883
5055.17,0.03071
5049.38,0.03066
5043.6,0.02970
5037.81,0.03055
5032.02,0.02861
5026.24,0.02972
5020.45,0.02774
5014.67,0.03083
5008.88,0.03184
5003.09,0.03093
4997.31,0.02978
4991.52,0.02847
4985.74,0.03040
4979.95,0.02974
4974.16,0.03061
4968.38,0.02963
4962.59,0.02909
4956.8,0.02859
4951.02,0.02993
4945.23,0.02988
4939.45,0.02943
4933.66,0.03120
4927.87,0.02900
4922.09,0.02928
4916.3,0.02849
4910.52,0.02899
4904.73,0.02963
4898.94,0.03091
4893.16,0.03139
4887.37,0.02999
4881.58,0.02875
4875.8,0.02990
4870.01,0.03059
4864.23,0.02969
4858.44,0.02882
4852.65,0.03045
4846.87,0.03132
4841.08,0.03004
4835.3,0.03010
4829.51,0.02826
4823.72,0.03021
4817.94,0.03008
4812.15,0.02871
4806.36,0.02970
4800.58,0.02973
4794.79,0.03007
4789.01,0.02940
4783.22,0.03016
4777.43,0.03010
4771.65,0.03200
4765.86,0.02933
4760.08,0.03003
4754.29,0.02952
4748.5,0.03070
4742.72,0.03004
4736.93,0.02915
4731.14,0.02971
4725.36,0.03009
4719.57,0.03045
4713.79,0.02827
4708,0.03029
4702.21,0.03003
4696.43,0.02928
4690.64,0.02926
4684.86,0.03069
4679.07,0.03057
4673.28,0.03141
4667.5,0.02930
4661.71,0.03041
4655.92,0.02965
4650.14,0.03091
4644.35,0.02946
4638.57,0.03017
4632.78,0.02987
4626.99,0.03089
4621.21,0.03011
4615.42,0.02932
4609.64,0.02942
4603.85,0.02977
4598.06,0.02856
4592.28,0.03058
4586.49,0.03076
4580.7,0.03064
4574.92,0.03130
4569.13,0.03043
4563.35,0.03050
4557.56,0.02958
4551.77,0.02969
4545.99,0.03055
4540.2,0.02977
4534.42,0.03004
4528.63,0.03041
4522.84,0.03081
4517.06,0.03015
4511.27,0.02967
4505.48,0.03039
4499.7,0.03027
4493.91,0.02945
4488.13,0.03052
4482.34,0.03061
4476.55,0.03128
4470.77,0.03050
4464.98,0.03023
4459.2,0.02949
4453.41,0.03014
4447.62,0.03015
4441.84,0.03029
4436.05,0.02926
4430.26,0.02960
4424.48,0.02907
4418.69,0.02962
4412.91,0.03051
4407.12,0.03013
4401.33,0.02898
4395.55,0.02988
4389.76,0.03010
4383.98,0.02961
4378.19,0.02898
4372.4,0.02977
4366.62,0.02988
4360.83,0.03044
4355.04,0.02941
4349.26,0.02986
4343.47,0.02978
4337.69,0.02973
4331.9,0.02954
4326.11,0.02986
4320.33,0.03042
4314.54,0.02963
4308.76,0.02953
4302.97,0.03064
4297.18,0.03025
4291.4,0.02977
4285.61,0.02998
4279.82,0.03023
4274.04,0.03040
4268.25,0.02992
4262.47,0.03019
4256.68,0.02952
4250.89,0.02999
4245.11,0.03004
4239.32,0.02979
4233.54,0.02917
4227.75,0.02941
4221.96,0.03037
4216.18,0.03018
4210.39,0.03044
4204.6,0.03010
4198.82,0.03010
4193.03,0.03058
4187.25,0.03027
4181.46,0.03020
4175.67,0.02948
4169.89,0.02921
4164.1,0.03010
4158.32,0.02947
4152.53,0.02936
4146.74,0.02956
4140.96,0.02951
4135.17,0.03066
4129.38,0.02970
4123.6,0.02979
4117.81,0.02993
4112.03,0.02982
4106.24,0.02920
4100.45,0.02959
4094.67,0.03013
4088.88,0.03085
4083.1,0.02958
4077.31,0.02902
4071.52,0.02859
4065.74,0.02969
4059.95,0.02965
4054.16,0.02959
4048.38,0.03078
4042.59,0.02989
4036.81,0.02953
4031.02,0.03075
4025.23,0.03100
4019.45,0.03031
4013.66,0.02999
4007.88,0.02924
4002.09,0.02998
3996.3,0.03009
3990.52,0.02997
3984.73,0.02990
3978.94,0.02970
3973.16,0.02958
3967.37,0.03024
3961.59,0.03031
3955.8,0.02921
3950.01,0.02895
3944.23,0.02959
3938.44,0.02951
3932.66,0.03031
3926.87,0.03053
3921.08,0.03054
3915.3,0.03037
3909.51,0.02916
3903.72,0.03011
3897.94,0.02908
3892.15,0.02974
3886.37,0.03002
3880.58,0.02935
3874.79,0.02937
3869.01,0.02837
3863.22,0.03051
3857.44,0.03089
3851.65,0.02957
3845.86,0.03071
3840.08,0.03059
3834.29,0.02922
3828.5,0.03047
3822.72,0.02984
3816.93,0.02984
3811.15,0.02986
3805.36,0.03011
3799.57,0.03042
3793.79,0.02984
3788,0.03014
3782.22,0.03042
3776.43,0.02942
3770.64,0.02954
3764.86,0.02992
3759.07,0.03093
3753.28,0.03010
3747.5,0.03185
3741.71,0.03008
3735.93,0.03050
3730.14,0.02990
3724.35,0.02910
3718.57,0.02965
3712.78,0.02970
3707,0.03015
3701.21,0.02937
3695.42,0.02913
3689.64,0.03054
3683.85,0.02946
3678.06,0.03042
3672.28,0.03039
3666.49,0.02942
3660.71,0.02919
3654.92,0.02875
3649.13,0.02986
3643.35,0.02851
3637.56,0.02821
3631.78,0.02753
3625.99,0.02815
3620.2,0.02833
3614.42,0.02850
3608.63,0.02771
3602.84,0.02819
3597.06,0.02818
3591.27,0.02706
3585.49,0.02770
3579.7,0.02736
3573.91,0.02797
3568.13,0.02697
3562.34,0.02688
3556.56,0.02728
3550.77,0.02744
3544.98,0.02641
3539.2,0.02742
3533.41,0.02603
3527.62,0.02732
3521.84,0.02621
3516.05,0.02698
3510.27,0.02671
3504.48,0.02753
3498.69,0.02666
3492.91,0.02787
3487.12,0.02649
3481.34,0.02678
3475.55,0.02724
3469.76,0.02663
3463.98,0.02625
3458.19,0.02607
3452.4,0.02653
3446.62,0.02639
3440.83,0.02632
3435.05,0.02627
3429.26,0.02621
3423.47,0.02556
3417.69,0.02583
3411.9,0.02602
3406.12,0.02662
3400.33,0.02608
3394.54,0.02564
3388.76,0.02710
3382.97,0.02589
3377.18,0.02594
3371.4,0.02569
3365.61,0.02624
3359.83,0.02567
3354.04,0.02580
3348.25,0.02569
3342.47,0.02631
3336.68,0.02594
3330.9,0.02611
3325.11,0.02676
3319.32,0.02586
3313.54,0.02585
3307.75,0.02666
3301.96,0.02612
3296.18,0.02526
3290.39,0.02550
3284.61,0.02583
3278.82,0.02612
3273.03,0.02603
3267.25,0.02656
3261.46,0.02644
3255.68,0.02667
3249.89,0.02634
3244.1,0.02572
3238.32,0.02629
3232.53,0.02642
3226.74,0.02661
3220.96,0.02701
3215.17,0.02624
3209.39,0.02623
3203.6,0.02632
3197.81,0.02655
3192.03,0.02633
3186.24,0.02677
3180.46,0.02661
3174.67,0.02679
3168.88,0.02732
3163.1,0.02729
3157.31,0.02662
3151.52,0.02663
3145.74,0.02627
3139.95,0.02636
3134.17,0.02712
3128.38,0.02738
3122.59,0.02723
3116.81,0.02762
3111.02,0.02722
3105.24,0.02658
3099.45,0.02634
3093.66,0.02705
3087.88,0.02615
3082.09,0.02641
3076.3,0.02657
3070.52,0.02665
3064.73,0.02638
3058.95,0.02692
3053.16,0.02719
3047.37,0.02742
3041.59,0.02694
3035.8,0.02683
3030.02,0.02615
3024.23,0.02634
3018.44,0.02618
3012.66,0.02621
3006.87,0.02680
3001.08,0.02641
2995.3,0.02662
2989.51,0.02660
2983.73,0.02605
2977.94,0.02575
2972.15,0.02587
2966.37,0.02603
2960.58,0.02479
2954.8,0.02618
2949.01,0.02577
2943.22,0.02566
2937.44,0.02575
2931.65,0.02571
2925.86,0.02570
2920.08,0.02571
2914.29,0.02599
2908.51,0.02568
2902.72,0.02603
2896.93,0.02680
2891.15,0.02595
2885.36,0.02590
2879.58,0.02664
2873.79,0.02634
2868,0.02625
2862.22,0.02641
2856.43,0.02647
2850.64,0.02683
2844.86,0.02698
2839.07,0.02736
2833.29,0.02689
2827.5,0.02729
2821.71,0.02738
2815.93,0.02694
2810.14,0.02715
2804.36,0.02706
2798.57,0.02757
2792.78,0.02706
2787,0.02699
2781.21,0.02713
2775.42,0.02718
2769.64,0.02734
2763.85,0.02738
2758.07,0.02733
2752.28,0.02762
2746.49,0.02712
2740.71,0.02712
2734.92,0.02715
2729.14,0.02761
2723.35,0.02722
2717.56,0.02674
2711.78,0.02737
2705.99,0.02739
2700.2,0.02714
2694.42,0.02699
2688.63,0.02701
2682.85,0.02731
2677.06,0.02715
2671.27,0.02656
2665.49,0.02710
2659.7,0.02734
2653.92,0.02713
2648.13,0.02724
2642.34,0.02711
2636.56,0.02732
2630.77,0.02752
2624.98,0.02718
2619.2,0.02727
2613.41,0.02717
2607.63,0.02718
2601.84,0.02748
2596.05,0.02737
2590.27,0.02746
2584.48,0.02697
2578.7,0.02657
2572.91,0.02657
2567.12,0.02728
2561.34,0.02687
2555.55,0.02696
2549.76,0.02691
2543.98,0.02686
2538.19,0.02708
2532.41,0.02711
2526.62,0.02699
2520.83,0.02685
2515.05,0.02708
2509.26,0.02707
2503.48,0.02687
2497.69,0.02667
2491.9,0.02708
2486.12,0.02691
2480.33,0.02669
2474.55,0.02747
2468.76,0.02702
2462.97,0.02667
2457.19,0.02686
2451.4,0.02678
2445.61,0.02720
2439.83,0.02707
2434.04,0.02706
2428.26,0.02706
2422.47,0.02730
2416.68,0.02678
2410.9,0.02714
2405.11,0.02688
2399.32,0.02654
2393.54,0.02690
2387.75,0.02674
2381.97,0.02688
2376.18,0.02727
2370.39,0.02747
2364.61,0.02775
2358.82,0.02748
2353.04,0.02688
2347.25,0.02685
2341.46,0.02702
2335.68,0.02693
2329.89,0.02720
2324.11,0.02665
2318.32,0.02684
2312.53,0.02708
2306.75,0.02698
2300.96,0.02621
2295.17,0.02641
2289.39,0.02685
2283.6,0.02657
2277.82,0.02651
2272.03,0.02637
2266.24,0.02627
2260.46,0.02628
2254.67,0.02635
2248.89,0.02673
2243.1,0.02654
2237.31,0.02615
2231.53,0.02654
2225.74,0.02636
2219.95,0.02670
2214.17,0.02686
2208.38,0.02634
2202.6,0.02615
2196.81,0.02600
2191.02,0.02629
2185.24,0.02624
2179.45,0.02595
2173.67,0.02613
2167.88,0.02597
2162.09,0.02603
2156.31,0.02572
2150.52,0.02617
2144.73,0.02635
2138.95,0.02614
2133.16,0.02604
2127.38,0.02600
2121.59,0.02593
2115.8,0.02584
2110.02,0.02588
2104.23,0.02557
2098.45,0.02615
2092.66,0.02625
2086.87,0.02579
2081.09,0.02611
2075.3,0.02585
2069.51,0.02592
2063.73,0.02563
2057.94,0.02593
2052.16,0.02548
2046.37,0.02596
2040.58,0.02580
2034.8,0.02579
2029.01,0.02610
2023.23,0.02587
2017.44,0.02604
2011.65,0.02589
2005.87,0.02563
2000.08,0.02552
1994.29,0.02591
1988.51,0.02556
1982.72,0.02537
1976.94,0.02583
1971.15,0.02547
1965.36,0.02549
1959.58,0.02558
1953.79,0.02562
1948.01,0.02550
1942.22,0.02556
1936.43,0.02573
1930.65,0.02545
1924.86,0.02529
1919.07,0.02554
1913.29,0.02529
1907.5,0.02524
1901.72,0.02538
1895.93,0.02495
1890.14,0.02530
1884.36,0.02523
1878.57,0.02511
1872.79,0.02508
1867,0.02493
1861.21,0.02486
1855.43,0.02475
1849.64,0.02501
1843.85,0.02483
1838.07,0.02465
1832.28,0.02445
1826.5,0.02464
1820.71,0.02432
1814.92,0.02421
1809.14,0.02454
1803.35,0.02440
1797.57,0.02411
1791.78,0.02387
1785.99,0.02361
1780.21,0.02338
1774.42,0.02288
1768.63,0.02241
1762.85,0.02227
1757.06,0.02166
1751.28,0.02169
1745.49,0.02170
1739.7,0.02303
1733.92,0.02339
1728.13,0.02442
1722.35,0.02450
1716.56,0.02525
1710.77,0.02423
1704.99,0.02375
1699.2,0.02238
1693.41,0.02285
1687.63,0.02266
1681.84,0.02223
1676.06,0.02198
1670.27,0.02185
1664.48,0.02232
1658.7,0.02217
1652.91,0.02094
1647.13,0.02180
1641.34,0.02229
1635.55,0.02257
1629.77,0.02199
1623.98,0.02210
1618.19,0.02250
1612.41,0.02212
1606.62,0.02275
1600.84,0.02248
1595.05,0.02235
1589.26,0.02225
1583.48,0.02172
1577.69,0.02195
1571.91,0.02218
1566.12,0.02170
1560.33,0.02192
1554.55,0.02206
1548.76,0.02212
1542.97,0.02220
1537.19,0.02228
1531.4,0.02243
1525.62,0.02232
1519.83,0.02171
1514.04,0.02208
1508.26,0.02232
1502.47,0.02178
1496.69,0.02232
1490.9,0.02243
1485.11,0.02203
1479.33,0.02188
1473.54,0.02163
1467.75,0.02130
1461.97,0.02193
1456.18,0.02136
1450.4,0.02136
1444.61,0.02165
1438.82,0.02227
1433.04,0.02198
1427.25,0.02178
1421.47,0.02191
1415.68,0.02145
1409.89,0.02123
1404.11,0.02085
1398.32,0.02070
1392.53,0.02081
1386.75,0.02069
1380.96,0.02092
1375.18,0.02087
1369.39,0.02106
1363.6,0.02079
1357.82,0.02064
1352.03,0.02027
1346.25,0.02033
1340.46,0.02070
1334.67,0.02036
1328.89,0.02044
1323.1,0.02021
1317.31,0.01971
1311.53,0.01979
1305.74,0.01967
1299.96,0.02026
1294.17,0.02078
1288.38,0.02078
1282.6,0.02133
1276.81,0.02191
1271.03,0.02159
1265.24,0.02180
1259.45,0.02277
1253.67,0.02274
1247.88,0.02284
1242.09,0.02237
1236.31,0.02234
1230.52,0.02206
1224.74,0.02170
1218.95,0.02190
1213.16,0.02171
1207.38,0.02096
1201.59,0.02126
1195.81,0.02122
1190.02,0.02137
1184.23,0.02075
1178.45,0.02046
1172.66,0.02018
1166.87,0.02000
1161.09,0.01994
1155.3,0.01989
1149.52,0.01958
1143.73,0.01993
1137.94,0.02014
1132.16,0.02048
1126.37,0.02069
1120.59,0.02127
1114.8,0.02226
1109.01,0.02143
1103.23,0.02171
1097.44,0.02164
1091.65,0.02131
1085.87,0.02179
1080.08,0.02252
1074.3,0.02291
1068.51,0.02393
1062.72,0.02397
1056.94,0.02408
1051.15,0.02373
1045.37,0.02336
1039.58,0.02282
1033.79,0.02410
1028.01,0.02312
1022.22,0.02281
1016.43,0.02259
1010.65,0.02292
1004.86,0.02398
999.076,0.02393
993.29,0.02406
987.504,0.02411
981.717,0.02402
975.931,0.02322
970.145,0.02367
964.359,0.02338
958.573,0.02318
952.787,0.02298
947,0.02274
941.214,0.02284
935.428,0.02208
929.642,0.02265
923.856,0.02212
918.07,0.02208
912.284,0.02191
906.497,0.02212
900.711,0.02228
894.925,0.02194
889.139,0.02183
883.353,0.02182
877.567,0.02165
871.78,0.02177
865.994,0.02162
860.208,0.02219
854.422,0.02163
848.636,0.02150
842.85,0.02187
837.064,0.02210
831.277,0.02199
825.491,0.02070
819.705,0.02095
813.919,0.02105
808.133,0.02054
802.347,0.02086
796.56,0.02028
790.774,0.02028
784.988,0.02009
779.202,0.01982
773.416,0.02019
767.63,0.01926
761.844,0.02071
756.057,0.01981
750.271,0.01979
744.485,0.01928
738.699,0.01940
732.913,0.02033
727.127,0.01950
721.34,0.01909
715.554,0.02037
709.768,0.01929
703.982,0.01902
698.196,0.01930
692.41,0.01894
686.624,0.01835
680.837,0.01842
675.051,0.01848
669.265,0.01734
663.479,0.01827
657.693,0.01624
651.907,0.01792
646.12,0.01813
640.334,0.01886
634.548,0.01727
628.762,0.01774
622.976,0.01834
617.19,0.01752
611.404,0.01859
605.617,0.01906
599.831,0.01834