File: 01_Data/PEVA/FTIR/IS/PEVA_0.26_IS_S_240809_R2.dpt
7497.2,0.11013
7491.41,0.09545
7485.63,0.10273
7479.84,0.10181
7474.05,0.10419
7468.27,0.10798
7462.48,0.10862
7456.7,0.10184
7450.91,0.10388
7445.12,0.11642
7439.34,0.10175
7433.55,0.10418
7427.76,0.09009
7421.98,0.08938
7416.19,0.09676
7410.4,0.10498
7404.62,0.09498
7398.83,0.11262
7393.05,0.11143
7387.26,0.10426
7381.47,0.10539
7375.69,0.10561
7369.9,0.10713
7364.11,0.09270
7358.33,0.10079
7352.54,0.09675
7346.75,0.09661
7340.97,0.10264
7335.18,0.10336
7329.4,0.09978
7323.61,0.10577
7317.82,0.10695
7312.04,0.09825
7306.25,0.10079
7300.46,0.10135
7294.68,0.10005
7288.89,0.10967
7283.1,0.09925
7277.32,0.09717
7271.53,0.10380
7265.75,0.11526
7259.96,0.10713
7254.17,0.09444
7248.39,0.09691
7242.6,0.10860
7236.81,0.11581
7231.03,0.08393
7225.24,0.09653
7219.45,0.10195
7213.67,0.09838
7207.88,0.10293
7202.1,0.10949
7196.31,0.10653
7190.52,0.10022
7184.74,0.09800
7178.95,0.09648
7173.16,0.10306
7167.38,0.09466
7161.59,0.10668
7155.8,0.10883
7150.02,0.09484
7144.23,0.09991
7138.45,0.09679
7132.66,0.09885
7126.87,0.10162
7121.09,0.09716
7115.3,0.08970
7109.51,0.09654
7103.73,0.10282
7097.94,0.10751
7092.15,0.10124
7086.37,0.09783
7080.58,0.09864
7074.8,0.09846
7069.01,0.10406
7063.22,0.10757
7057.44,0.10531
7051.65,0.10199
7045.86,0.09596
7040.08,0.09924
7034.29,0.09946
7028.5,0.09558
7022.72,0.10376
7016.93,0.09479
7011.15,0.10574
7005.36,0.09627
6999.57,0.09982
6993.79,0.10723
6988,0.10304
6982.21,0.10348
6976.43,0.10190
6970.64,0.10533
6964.85,0.09808
6959.07,0.09691
6953.28,0.10334
6947.5,0.09975
6941.71,0.09600
6935.92,0.09866
6930.14,0.10131
6924.35,0.10107
6918.56,0.10307
6912.78,0.10821
6906.99,0.11104
6901.2,0.10063
6895.42,0.10024
6889.63,0.10439
6883.85,0.10852
6878.06,0.10702
6872.27,0.10076
6866.49,0.09945
6860.7,0.10489
6854.91,0.10602
6849.13,0.10031
6843.34,0.09253
6837.55,0.09642
6831.77,0.10262
6825.98,0.10576
6820.2,0.09910
6814.41,0.10436
6808.62,0.10524
6802.84,0.10042
6797.05,0.10548
6791.26,0.10528
6785.48,0.09777
6779.69,0.09690
6773.9,0.09688
6768.12,0.09571
6762.33,0.09712
6756.55,0.09924
6750.76,0.10359
6744.97,0.09524
6739.19,0.10142
6733.4,0.09873
6727.61,0.09358
6721.83,0.09722
6716.04,0.10044
6710.25,0.10110
6704.47,0.09407
6698.68,0.10140
6692.9,0.09893
6687.11,0.10122
6681.32,0.10130
6675.54,0.10277
6669.75,0.10382
6663.96,0.10724
6658.18,0.09974
6652.39,0.09763
6646.6,0.10013
6640.82,0.10661
6635.03,0.10052
6629.25,0.09318
6623.46,0.09742
6617.67,0.10322
6611.89,0.10055
6606.1,0.09703
6600.31,0.10221
6594.53,0.09776
6588.74,0.10067
6582.95,0.09767
6577.17,0.09771
6571.38,0.10114
6565.6,0.10457
6559.81,0.10770
6554.02,0.10154
6548.24,0.10828
6542.45,0.10580
6536.66,0.09842
6530.88,0.09935
6525.09,0.10586
6519.3,0.10178
6513.52,0.09868
6507.73,0.10051
6501.95,0.10097
6496.16,0.09739
6490.37,0.10368
6484.59,0.09833
6478.8,0.10397
6473.01,0.09764
6467.23,0.10124
6461.44,0.10031
6455.65,0.09814
6449.87,0.09836
6444.08,0.10112
6438.3,0.09797
6432.51,0.10039
6426.72,0.10276
6420.94,0.10673
6415.15,0.10074
6409.36,0.10156
6403.58,0.10297
6397.79,0.09782
6392,0.10478
6386.22,0.10098
6380.43,0.09821
6374.65,0.10379
6368.86,0.10028
6363.07,0.09910
6357.29,0.10209
6351.5,0.10014
6345.71,0.10188
6339.93,0.10331
6334.14,0.10602
6328.35,0.10144
6322.57,0.09929
6316.78,0.09698
6310.99,0.09876
6305.21,0.10101
6299.42,0.10039
6293.64,0.09733
6287.85,0.10262
6282.06,0.09945
6276.28,0.10048
6270.49,0.10202
6264.7,0.09832
6258.92,0.10239
6253.13,0.10424
6247.34,0.10016
6241.56,0.10527
6235.77,0.10314
6229.99,0.09781
6224.2,0.10299
6218.41,0.09962
6212.63,0.09566
6206.84,0.10251
6201.05,0.10108
6195.27,0.10033
6189.48,0.10349
6183.69,0.10300
6177.91,0.10272
6172.12,0.10268
6166.34,0.10124
6160.55,0.10450
6154.76,0.10280
6148.98,0.09745
6143.19,0.10040
6137.4,0.10194
6131.62,0.09978
6125.83,0.10197
6120.04,0.10036
6114.26,0.10347
6108.47,0.10263
6102.69,0.10124
6096.9,0.09823
6091.11,0.09876
6085.33,0.10470
6079.54,0.10090
6073.75,0.10430
6067.97,0.10463
6062.18,0.10022
6056.39,0.10077
6050.61,0.09848
6044.82,0.09880
6039.04,0.09891
6033.25,0.09712
6027.46,0.09629
6021.68,0.10081
6015.89,0.09848
6010.1,0.09904
6004.32,0.09891
5998.53,0.10217
5992.74,0.09913
5986.96,0.10157
5981.17,0.09782
5975.39,0.09684
5969.6,0.09857
5963.81,0.09645
5958.03,0.09746
5952.24,0.09688
5946.45,0.09939
5940.67,0.09617
5934.88,0.09842
5929.09,0.09746
5923.31,0.09881
5917.52,0.09461
5911.74,0.09632
5905.95,0.09563
5900.16,0.09486
5894.38,0.09594
5888.59,0.09776
5882.8,0.09295
5877.02,0.09214
5871.23,0.09334
5865.44,0.09165
5859.66,0.08885
5853.87,0.08763
5848.09,0.09018
5842.3,0.08726
5836.51,0.08523
5830.73,0.08602
5824.94,0.08605
5819.15,0.08750
5813.37,0.08679
5807.58,0.09052
5801.79,0.08984
5796.01,0.08996
5790.22,0.08868
5784.44,0.09034
5778.65,0.08968
5772.86,0.09083
5767.08,0.09318
5761.29,0.09328
5755.5,0.09358
5749.72,0.09533
5743.93,0.09501
5738.14,0.09296
5732.36,0.09262
5726.57,0.09297
5720.79,0.09050
5715,0.09134
5709.21,0.09431
5703.43,0.09304
5697.64,0.09191
5691.85,0.09378
5686.07,0.09202
5680.28,0.09389
5674.49,0.09414
5668.71,0.09477
5662.92,0.09582
5657.14,0.09474
5651.35,0.09656
5645.56,0.09554
5639.78,0.09545
5633.99,0.09562
5628.2,0.09394
5622.42,0.09860
5616.63,0.09879
5610.84,0.09397
5605.06,0.09680
5599.27,0.09724
5593.49,0.09797
5587.7,0.09755
5581.91,0.09733
5576.13,0.09667
5570.34,0.09675
5564.55,0.09863
5558.77,0.10050
5552.98,0.09933
5547.19,0.09753
5541.41,0.09670
5535.62,0.10066
5529.84,0.09810
5524.05,0.09845
5518.26,0.09998
5512.48,0.09960
5506.69,0.09829
5500.9,0.09919
5495.12,0.10025
5489.33,0.09839
5483.54,0.09798
5477.76,0.09833
5471.97,0.09673
5466.19,0.09810
5460.4,0.09947
5454.61,0.09834
5448.83,0.10059
5443.04,0.09986
5437.25,0.09974
5431.47,0.09916
5425.68,0.09954
5419.89,0.10053
5414.11,0.09700
5408.32,0.09782
5402.54,0.10046
5396.75,0.10095
5390.96,0.10074
5385.18,0.09939
5379.39,0.10056
5373.6,0.10110
5367.82,0.09975
5362.03,0.10093
5356.24,0.10178
5350.46,0.10125
5344.67,0.09765
5338.89,0.10257
5333.1,0.09940
5327.31,0.09998
5321.53,0.09995
5315.74,0.09935
5309.95,0.09956
5304.17,0.10332
5298.38,0.10216
5292.59,0.09938
5286.81,0.10094
5281.02,0.10054
5275.24,0.10039
5269.45,0.10121
5263.66,0.10160
5257.88,0.10070
5252.09,0.09998
5246.3,0.09965
5240.52,0.09992
5234.73,0.10150
5228.94,0.10080
5223.16,0.10127
5217.37,0.09996
5211.59,0.10072
5205.8,0.09940
5200.01,0.10286
5194.23,0.10089
5188.44,0.09999
5182.65,0.10104
5176.87,0.10140
5171.08,0.10060
5165.29,0.10057
5159.51,0.10128
5153.72,0.10128
5147.94,0.10209
5142.15,0.10279
5136.36,0.10088
5130.58,0.10089
5124.79,0.10274
5119,0.10138
5113.22,0.10234
5107.43,0.10020
5101.64,0.10203
5095.86,0.10276
5090.07,0.10062
5084.29,0.10291
5078.5,0.10110
5072.71,0.10151
5066.93,0.10065
5061.14,0.10245
5055.35,0.10305
5049.57,0.10238
5043.78,0.10222
5037.99,0.10233
5032.21,0.10177
5026.42,0.10198
5020.64,0.10217
5014.85,0.10000
5009.06,0.10015
5003.28,0.10166
4997.49,0.10173
4991.7,0.10116
4985.92,0.10226
4980.13,0.10275
4974.34,0.10328
4968.56,0.10261
4962.77,0.10325
4956.99,0.10168
4951.2,0.10246
4945.41,0.10254
4939.63,0.10262
4933.84,0.10178
4928.05,0.10230
4922.27,0.10181
4916.48,0.10235
4910.69,0.10244
4904.91,0.10133
4899.12,0.10277
4893.34,0.10095
4887.55,0.10225
4881.76,0.10162
4875.98,0.10338
4870.19,0.10043
4864.4,0.10221
4858.62,0.10141
4852.83,0.10273
4847.04,0.10266
4841.26,0.10265
4835.47,0.10248
4829.69,0.10250
4823.9,0.10251
4818.11,0.10205
4812.33,0.10210
4806.54,0.10229
4800.75,0.10137
4794.97,0.10212
4789.18,0.10056
4783.39,0.10212
4777.61,0.10332
4771.82,0.10223
4766.04,0.10093
4760.25,0.10273
4754.46,0.10299
4748.68,0.10191
4742.89,0.10212
4737.1,0.10287
4731.32,0.10199
4725.53,0.10178
4719.74,0.10098
4713.96,0.10135
4708.17,0.10118
4702.39,0.10001
4696.6,0.09982
4690.81,0.09974
4685.03,0.09943
4679.24,0.09967
4673.45,0.10020
4667.67,0.10025
4661.88,0.10077
4656.09,0.10064
4650.31,0.10174
4644.52,0.10025
4638.74,0.09999
4632.95,0.09856
4627.16,0.09876
4621.38,0.10083
4615.59,0.10150
4609.8,0.10179
4604.02,0.10176
4598.23,0.10093
4592.44,0.10145
4586.66,0.10093
4580.87,0.10077
4575.09,0.10022
4569.3,0.10093
4563.51,0.10204
4557.73,0.10164
4551.94,0.10139
4546.15,0.10050
4540.37,0.10057
4534.58,0.10096
4528.79,0.10146
4523.01,0.10186
4517.22,0.10144
4511.44,0.10015
4505.65,0.10058
4499.86,0.10057
4494.08,0.09996
4488.29,0.09919
4482.5,0.09722
4476.72,0.09806
4470.93,0.09804
4465.14,0.09750
4459.36,0.09634
4453.57,0.09646
4447.79,0.09469
4442,0.09387
4436.21,0.09217
4430.43,0.08987
4424.64,0.08840
4418.85,0.08589
4413.07,0.08397
4407.28,0.08142
4401.49,0.08070
4395.71,0.08104
4389.92,0.08088
4384.14,0.07942
4378.35,0.07805
4372.56,0.07553
4366.78,0.07441
4360.99,0.07254
4355.2,0.07093
4349.42,0.06971
4343.63,0.06928
4337.84,0.06742
4332.06,0.06712
4326.27,0.06846
4320.49,0.06946
4314.7,0.07121
4308.91,0.07270
4303.13,0.07286
4297.34,0.07380
4291.55,0.07335
4285.77,0.07227
4279.98,0.07287
4274.19,0.07337
4268.41,0.07308
4262.62,0.07429
4256.84,0.07426
4251.05,0.07333
4245.26,0.07316
4239.48,0.07312
4233.69,0.07397
4227.9,0.07265
4222.12,0.07270
4216.33,0.07228
4210.54,0.07242
4204.76,0.07334
4198.97,0.07458
4193.19,0.07428
4187.4,0.07574
4181.61,0.07468
4175.83,0.07409
4170.04,0.07375
4164.25,0.07357
4158.47,0.07515
4152.68,0.07597
4146.89,0.07762
4141.11,0.07785
4135.32,0.07887
4129.54,0.07901
4123.75,0.07902
4117.96,0.07928
4112.18,0.07915
4106.39,0.07898
4100.6,0.07731
4094.82,0.07711
4089.03,0.07618
4083.24,0.07429
4077.46,0.07472
4071.67,0.07670
4065.89,0.07858
4060.1,0.07981
4054.31,0.08047
4048.53,0.08209
4042.74,0.08184
4036.95,0.08189
4031.17,0.08215
4025.38,0.08263
4019.59,0.08251
4013.81,0.08278
4008.02,0.08245
4002.24,0.08336
3996.45,0.08486
3990.66,0.08516
3984.88,0.08540
3979.09,0.08568
3973.3,0.08664
3967.52,0.08690
3961.73,0.08716
3955.94,0.08774
3950.16,0.08706
3944.37,0.08689
3938.59,0.08741
3932.8,0.08714
3927.01,0.08645
3921.23,0.08675
3915.44,0.08771
3909.65,0.08811
3903.87,0.08784
3898.08,0.08817
3892.29,0.08859
3886.51,0.08871
3880.72,0.08853
3874.94,0.08809
3869.15,0.08826
3863.36,0.08786
3857.58,0.08852
3851.79,0.08816
3846,0.08875
3840.22,0.08934
3834.43,0.08971
3828.64,0.08972
3822.86,0.08970
3817.07,0.09040
3811.29,0.09033
3805.5,0.09056
3799.71,0.08988
3793.93,0.09108
3788.14,0.09184
3782.35,0.09173
3776.57,0.09129
3770.78,0.09176
3764.99,0.09100
3759.21,0.09145
3753.42,0.09183
3747.64,0.09143
3741.85,0.09224
3736.06,0.09269
3730.28,0.09274
3724.49,0.09324
3718.7,0.09315
3712.92,0.09212
3707.13,0.09215
3701.34,0.09116
3695.56,0.08945
3689.77,0.08598
3683.99,0.08646
3678.2,0.08504
3672.41,0.08507
3666.63,0.08537
3660.84,0.08591
3655.05,0.08454
3649.27,0.08514
3643.48,0.08599
3637.69,0.08612
3631.91,0.08569
3626.12,0.08378
3620.34,0.08334
3614.55,0.08366
3608.76,0.08363
3602.98,0.08289
3597.19,0.08144
3591.4,0.08153
3585.62,0.08048
3579.83,0.08027
3574.04,0.07902
3568.26,0.07877
3562.47,0.07726
3556.69,0.07637
3550.9,0.07639
3545.11,0.07600
3539.33,0.07607
3533.54,0.07493
3527.75,0.07486
3521.97,0.07459
3516.18,0.07443
3510.39,0.07447
3504.61,0.07430
3498.82,0.07343
3493.04,0.07218
3487.25,0.07200
3481.46,0.06994
3475.68,0.06968
3469.89,0.06945
3464.1,0.06894
3458.32,0.06868
3452.53,0.06844
3446.74,0.06674
3440.96,0.06585
3435.17,0.06520
3429.39,0.06464
3423.6,0.06353
3417.81,0.06394
3412.03,0.06490
3406.24,0.06695
3400.45,0.06670
3394.67,0.06807
3388.88,0.06830
3383.09,0.06924
3377.31,0.07015
3371.52,0.07100
3365.74,0.07103
3359.95,0.07258
3354.16,0.07271
3348.38,0.07234
3342.59,0.07209
3336.8,0.07272
3331.02,0.07171
3325.23,0.07176
3319.44,0.07006
3313.66,0.06870
3307.87,0.06534
3302.09,0.06404
3296.3,0.06465
3290.51,0.06725
3284.73,0.06945
3278.94,0.07198
3273.15,0.07420
3267.37,0.07441
3261.58,0.07474
3255.79,0.07579
3250.01,0.07668
3244.22,0.07694
3238.44,0.07682
3232.65,0.07582
3226.86,0.07518
3221.08,0.07552
3215.29,0.07536
3209.5,0.07477
3203.72,0.07501
3197.93,0.07409
3192.14,0.07403
3186.36,0.07457
3180.57,0.07465
3174.79,0.07433
3169,0.07464
3163.21,0.07406
3157.43,0.07400
3151.64,0.07438
3145.85,0.07341
3140.07,0.07329
3134.28,0.07233
3128.49,0.07195
3122.71,0.07146
3116.92,0.07072
3111.14,0.07085
3105.35,0.06970
3099.56,0.06834
3093.78,0.06672
3087.99,0.06562
3082.2,0.06503
3076.42,0.06502
3070.63,0.06480
3064.84,0.06399
3059.06,0.06331
3053.27,0.06247
3047.49,0.06255
3041.7,0.06263
3035.91,0.06214
3030.13,0.06091
3024.34,0.06027
3018.55,0.05951
3012.77,0.05868
3006.98,0.05811
3001.19,0.05697
2995.41,0.05782
2989.62,0.05640
2983.84,0.05580
2978.05,0.05606
2972.26,0.05587
2966.48,0.05675
2960.69,0.05824
2954.9,0.05936
2949.12,0.05977
2943.33,0.05898
2937.54,0.05905
2931.76,0.05968
2925.97,0.06165
2920.19,0.06243
2914.4,0.06211
2908.61,0.06259
2902.83,0.06316
2897.04,0.06243
2891.25,0.06180
2885.47,0.06120
2879.68,0.06092
2873.89,0.06096
2868.11,0.06204
2862.32,0.06227
2856.54,0.06308
2850.75,0.06335
2844.96,0.06347
2839.18,0.06306
2833.39,0.06242
2827.6,0.06258
2821.82,0.06244
2816.03,0.06219
2810.24,0.06265
2804.46,0.06391
2798.67,0.06391
2792.89,0.06514
2787.1,0.06625
2781.31,0.06680
2775.53,0.06726
2769.74,0.06816
2763.95,0.06862
2758.17,0.06851
2752.38,0.06814
2746.59,0.06756
2740.81,0.06722
2735.02,0.06649
2729.24,0.06700
2723.45,0.06832
2717.66,0.06929
2711.88,0.07069
2706.09,0.07095
2700.3,0.07158
2694.52,0.07178
2688.73,0.07259
2682.94,0.07207
2677.16,0.07176
2671.37,0.07189
2665.59,0.07173
2659.8,0.07287
2654.01,0.07403
2648.23,0.07457
2642.44,0.07410
2636.65,0.07434
2630.87,0.07323
2625.08,0.07308
2619.29,0.07342
2613.51,0.07269
2607.72,0.07285
2601.94,0.07317
2596.15,0.07328
2590.36,0.07338
2584.58,0.07299
2578.79,0.07266
2573,0.07320
2567.22,0.07330
2561.43,0.07370
2555.64,0.07369
2549.86,0.07411
2544.07,0.07456
2538.29,0.07451
2532.5,0.07519
2526.71,0.07544
2520.93,0.07606
2515.14,0.07673
2509.35,0.07785
2503.57,0.07812
2497.78,0.07878
2491.99,0.07892
2486.21,0.07926
2480.42,0.07909
2474.64,0.07944
2468.85,0.08041
2463.06,0.08047
2457.28,0.08058
2451.49,0.08028
2445.7,0.07980
2439.92,0.07972
2434.13,0.07935
2428.34,0.07816
2422.56,0.07691
2416.77,0.07673
2410.99,0.07616
2405.2,0.07574
2399.41,0.07508
2393.63,0.07503
2387.84,0.07410
2382.05,0.07373
2376.27,0.07412
2370.48,0.07474
2364.69,0.07511
2358.91,0.07589
2353.12,0.07719
2347.34,0.07849
2341.55,0.07994
2335.76,0.07979
2329.98,0.08116
2324.19,0.08150
2318.4,0.08193
2312.62,0.08196
2306.83,0.08242
2301.04,0.08183
2295.26,0.08128
2289.47,0.08045
2283.69,0.07890
2277.9,0.07838
2272.11,0.07882
2266.33,0.08012
2260.54,0.08029
2254.75,0.08071
2248.97,0.08033
2243.18,0.07993
2237.39,0.07986
2231.61,0.07983
2225.82,0.08007
2220.04,0.08018
2214.25,0.08100
2208.46,0.08066
2202.68,0.08268
2196.89,0.08269
2191.1,0.08345
2185.32,0.08395
2179.53,0.08445
2173.74,0.08463
2167.96,0.08476
2162.17,0.08457
2156.39,0.08380
2150.6,0.08386
2144.81,0.08351
2139.03,0.08388
2133.24,0.08331
2127.45,0.08358
2121.67,0.08334
2115.88,0.08290
2110.09,0.08319
2104.31,0.08270
2098.52,0.08305
2092.74,0.08235
2086.95,0.08212
2081.16,0.08124
2075.38,0.08175
2069.59,0.08150
2063.8,0.08153
2058.02,0.08169
2052.23,0.08213
2046.44,0.08278
2040.66,0.08271
2034.87,0.08312
2029.09,0.08311
2023.3,0.08340
2017.51,0.08371
2011.73,0.08443
2005.94,0.08399
2000.15,0.08400
1994.37,0.08272
1988.58,0.08186
1982.79,0.08118
1977.01,0.08079
1971.22,0.08002
1965.44,0.07809
1959.65,0.07574
1953.86,0.07211
1948.08,0.07108
1942.29,0.07243
1936.5,0.07527
1930.72,0.07732
1924.93,0.07872
1919.14,0.07945
1913.36,0.07958
1907.57,0.07961
1901.79,0.07963
1896,0.08001
1890.21,0.07987
1884.43,0.08058
1878.64,0.08001
1872.85,0.08040
1867.07,0.07904
1861.28,0.07894
1855.49,0.07728
1849.71,0.07610
1843.92,0.07352
1838.14,0.07221
1832.35,0.06883
1826.56,0.06673
1820.78,0.06520
1814.99,0.06650
1809.2,0.06636
1803.42,0.06647
1797.63,0.06498
1791.84,0.06355
1786.06,0.06198
1780.27,0.06083
1774.49,0.05910
1768.7,0.05756
1762.91,0.05621
1757.13,0.05453
1751.34,0.05395
1745.55,0.05261
1739.77,0.05084
1733.98,0.04953
1728.19,0.05131
1722.41,0.05807
1716.62,0.06646
1710.84,0.06963
1705.05,0.06729
1699.26,0.06362
1693.48,0.06241
1687.69,0.06140
1681.9,0.05988
1676.12,0.06009
1670.33,0.05985
1664.54,0.06052
1658.76,0.06221
1652.97,0.06325
1647.19,0.06259
1641.4,0.06058
1635.61,0.05918
1629.83,0.06223
1624.04,0.06363
1618.25,0.06288
1612.47,0.06131
1606.68,0.06221
1600.89,0.06323
1595.11,0.06433
1589.32,0.06275
1583.54,0.05986
1577.75,0.05778
1571.96,0.05854
1566.18,0.05916
1560.39,0.06015
1554.6,0.06019
1548.82,0.06014
1543.03,0.05966
1537.24,0.05846
1531.46,0.05897
1525.67,0.05962
1519.89,0.05942
1514.1,0.05800
1508.31,0.05617
1502.53,0.05690
1496.74,0.05784
1490.95,0.05741
1485.17,0.05565
1479.38,0.05415
1473.59,0.05331
1467.81,0.05381
1462.02,0.05536
1456.24,0.05713
1450.45,0.05612
1444.66,0.05549
1438.88,0.05462
1433.09,0.05536
1427.3,0.05579
1421.52,0.05650
1415.73,0.05558
1409.94,0.05555
1404.16,0.05642
1398.37,0.05564
1392.59,0.05434
1386.8,0.05429
1381.01,0.05511
1375.23,0.05570
1369.44,0.05519
1363.65,0.05465
1357.87,0.05342
1352.08,0.05356
1346.29,0.05292
1340.51,0.05251
1334.72,0.05246
1328.94,0.05291
1323.15,0.05258
1317.36,0.05226
1311.58,0.05126
1305.79,0.05061
1300,0.04986
1294.22,0.04724
1288.43,0.04624
1282.64,0.04782
1276.86,0.05351
1271.07,0.06558
1265.29,0.07293
1259.5,0.07025
1253.71,0.06892
1247.93,0.07226
1242.14,0.07321
1236.35,0.07128
1230.57,0.06945
1224.78,0.06781
1218.99,0.06543
1213.21,0.06417
1207.42,0.06381
1201.64,0.06288
1195.85,0.06246
1190.06,0.06224
1184.28,0.06114
1178.49,0.06041
1172.7,0.05972
1166.92,0.05960
1161.13,0.05892
1155.34,0.05861
1149.56,0.05743
1143.77,0.05690
1137.99,0.05577
1132.2,0.05398
1126.41,0.05330
1120.63,0.05942
1114.84,0.06477
1109.05,0.06449
1103.27,0.06764
1097.48,0.07130
1091.69,0.06832
1085.91,0.06637
1080.12,0.06706
1074.34,0.06570
1068.55,0.06466
1062.76,0.06429
1056.98,0.06364
1051.19,0.06272
1045.4,0.06217
1039.62,0.06156
1033.83,0.06126
1028.04,0.05986
1022.26,0.05985
1016.47,0.06475
1010.69,0.06348
1004.9,0.06211
999.112,0.06080
993.326,0.06091
987.54,0.06075
981.753,0.06088
975.967,0.06069
970.18,0.06055
964.394,0.06148
958.608,0.06229
952.821,0.06346
947.035,0.06370
941.249,0.06347
935.462,0.06309
929.676,0.06341
923.89,0.06285
918.103,0.06282
912.317,0.06241
906.53,0.06249
900.744,0.06252
894.958,0.06229
889.171,0.06210
883.385,0.06080
877.599,0.06042
871.812,0.06271
866.026,0.06289
860.24,0.06263
854.453,0.06261
848.667,0.06173
842.88,0.06140
837.094,0.06162
831.308,0.06142
825.521,0.06106
819.735,0.06268
813.949,0.06170
808.162,0.06308
802.376,0.06072
796.59,0.06141
790.803,0.06073
785.017,0.06023
779.23,0.05944
773.444,0.05916
767.658,0.05925
761.871,0.05867
756.085,0.05900
750.299,0.05722
744.512,0.05509
738.726,0.05140
732.94,0.05890
727.153,0.06763
721.367,0.06346
715.58,0.06022
709.794,0.05874
704.008,0.05764
698.221,0.05879
692.435,0.05946
686.649,0.06009
680.862,0.05902
675.076,0.05951
669.29,0.05930
663.503,0.05909
657.717,0.05766
651.93,0.05621
646.144,0.05708
640.358,0.05707
634.571,0.06017
628.785,0.05925
622.999,0.05839
617.212,0.06131
611.426,0.06312
605.639,0.06299
599.853,0.06309