File: 01_Data/PEVA/FTIR/IS/PEVA_0.26_IS_S_240809_R7.dpt
7497.2,0.10032
7491.41,0.10782
7485.63,0.11123
7479.84,0.12073
7474.05,0.10336
7468.27,0.09745
7462.48,0.10399
7456.7,0.10829
7450.91,0.09454
7445.12,0.10322
7439.34,0.10535
7433.55,0.10231
7427.76,0.10306
7421.98,0.10394
7416.19,0.09032
7410.4,0.10313
7404.62,0.09955
7398.83,0.09892
7393.05,0.10300
7387.26,0.10530
7381.47,0.10589
7375.69,0.11132
7369.9,0.10743
7364.11,0.11130
7358.33,0.10832
7352.54,0.10494
7346.75,0.10369
7340.97,0.09931
7335.18,0.10151
7329.4,0.09189
7323.61,0.10110
7317.82,0.09670
7312.04,0.10601
7306.25,0.10842
7300.46,0.10836
7294.68,0.10564
7288.89,0.09495
7283.1,0.10677
7277.32,0.10817
7271.53,0.10661
7265.75,0.11140
7259.96,0.09987
7254.17,0.09584
7248.39,0.09597
7242.6,0.10502
7236.81,0.09893
7231.03,0.09146
7225.24,0.10132
7219.45,0.10314
7213.67,0.09654
7207.88,0.10509
7202.1,0.10896
7196.31,0.10750
7190.52,0.10746
7184.74,0.10064
7178.95,0.10190
7173.16,0.10525
7167.38,0.10469
7161.59,0.10431
7155.8,0.09648
7150.02,0.08946
7144.23,0.09785
7138.45,0.09797
7132.66,0.10153
7126.87,0.10347
7121.09,0.10375
7115.3,0.10179
7109.51,0.10627
7103.73,0.10064
7097.94,0.10506
7092.15,0.10157
7086.37,0.09922
7080.58,0.10407
7074.8,0.10732
7069.01,0.09865
7063.22,0.10214
7057.44,0.10430
7051.65,0.10263
7045.86,0.10287
7040.08,0.10360
7034.29,0.10873
7028.5,0.09452
7022.72,0.10098
7016.93,0.10301
7011.15,0.10153
7005.36,0.09739
6999.57,0.09615
6993.79,0.10593
6988,0.10425
6982.21,0.10442
6976.43,0.10005
6970.64,0.10486
6964.85,0.10583
6959.07,0.10281
6953.28,0.10354
6947.5,0.09832
6941.71,0.10976
6935.92,0.10789
6930.14,0.11258
6924.35,0.10289
6918.56,0.10135
6912.78,0.10312
6906.99,0.09745
6901.2,0.10893
6895.42,0.10410
6889.63,0.10235
6883.85,0.09956
6878.06,0.10389
6872.27,0.10367
6866.49,0.10390
6860.7,0.10886
6854.91,0.10287
6849.13,0.10088
6843.34,0.10693
6837.55,0.09875
6831.77,0.09873
6825.98,0.10384
6820.2,0.10195
6814.41,0.10360
6808.62,0.10908
6802.84,0.10985
6797.05,0.10650
6791.26,0.10138
6785.48,0.09849
6779.69,0.10430
6773.9,0.09553
6768.12,0.10016
6762.33,0.10005
6756.55,0.09949
6750.76,0.10140
6744.97,0.10549
6739.19,0.10242
6733.4,0.10012
6727.61,0.10159
6721.83,0.10179
6716.04,0.09676
6710.25,0.10234
6704.47,0.10345
6698.68,0.10130
6692.9,0.10473
6687.11,0.10619
6681.32,0.09940
6675.54,0.10634
6669.75,0.10165
6663.96,0.10162
6658.18,0.10218
6652.39,0.10465
6646.6,0.10220
6640.82,0.10273
6635.03,0.10441
6629.25,0.10197
6623.46,0.10402
6617.67,0.09745
6611.89,0.10209
6606.1,0.10300
6600.31,0.10600
6594.53,0.09889
6588.74,0.10321
6582.95,0.10320
6577.17,0.09957
6571.38,0.10552
6565.6,0.10120
6559.81,0.09790
6554.02,0.10552
6548.24,0.10498
6542.45,0.09983
6536.66,0.10818
6530.88,0.10978
6525.09,0.09987
6519.3,0.09813
6513.52,0.09948
6507.73,0.10111
6501.95,0.10272
6496.16,0.09883
6490.37,0.10366
6484.59,0.10161
6478.8,0.09777
6473.01,0.10304
6467.23,0.10165
6461.44,0.10059
6455.65,0.10304
6449.87,0.10725
6444.08,0.10129
6438.3,0.10044
6432.51,0.10312
6426.72,0.10242
6420.94,0.10743
6415.15,0.10620
6409.36,0.10460
6403.58,0.09770
6397.79,0.10367
6392,0.10185
6386.22,0.10258
6380.43,0.10554
6374.65,0.10971
6368.86,0.10417
6363.07,0.10406
6357.29,0.10187
6351.5,0.10449
6345.71,0.10387
6339.93,0.10348
6334.14,0.10617
6328.35,0.10033
6322.57,0.10272
6316.78,0.09942
6310.99,0.09815
6305.21,0.10217
6299.42,0.10424
6293.64,0.10361
6287.85,0.10170
6282.06,0.10420
6276.28,0.10368
6270.49,0.10071
6264.7,0.10414
6258.92,0.10429
6253.13,0.10363
6247.34,0.10232
6241.56,0.10202
6235.77,0.10358
6229.99,0.10021
6224.2,0.09927
6218.41,0.10533
6212.63,0.09870
6206.84,0.10048
6201.05,0.10218
6195.27,0.10440
6189.48,0.10132
6183.69,0.09953
6177.91,0.09973
6172.12,0.09927
6166.34,0.10284
6160.55,0.10318
6154.76,0.10356
6148.98,0.10115
6143.19,0.10313
6137.4,0.10207
6131.62,0.10051
6125.83,0.09863
6120.04,0.10070
6114.26,0.10064
6108.47,0.09808
6102.69,0.10012
6096.9,0.09915
6091.11,0.10274
6085.33,0.10265
6079.54,0.10243
6073.75,0.10351
6067.97,0.10106
6062.18,0.10138
6056.39,0.09949
6050.61,0.10090
6044.82,0.09683
6039.04,0.10029
6033.25,0.09796
6027.46,0.09688
6021.68,0.09906
6015.89,0.09976
6010.1,0.09659
6004.32,0.10234
5998.53,0.10021
5992.74,0.10395
5986.96,0.09912
5981.17,0.10019
5975.39,0.09957
5969.6,0.10073
5963.81,0.09984
5958.03,0.09697
5952.24,0.10146
5946.45,0.09674
5940.67,0.09727
5934.88,0.09669
5929.09,0.09818
5923.31,0.09695
5917.52,0.09351
5911.74,0.09655
5905.95,0.09628
5900.16,0.09648
5894.38,0.09609
5888.59,0.09272
5882.8,0.09294
5877.02,0.08953
5871.23,0.08891
5865.44,0.08773
5859.66,0.08974
5853.87,0.08959
5848.09,0.08875
5842.3,0.08374
5836.51,0.08837
5830.73,0.08679
5824.94,0.08849
5819.15,0.08761
5813.37,0.08604
5807.58,0.08674
5801.79,0.08938
5796.01,0.09109
5790.22,0.09411
5784.44,0.09297
5778.65,0.09076
5772.86,0.09198
5767.08,0.09487
5761.29,0.09282
5755.5,0.09311
5749.72,0.09582
5743.93,0.09206
5738.14,0.09343
5732.36,0.09303
5726.57,0.09181
5720.79,0.09365
5715,0.09274
5709.21,0.09390
5703.43,0.09321
5697.64,0.09450
5691.85,0.09413
5686.07,0.09470
5680.28,0.09643
5674.49,0.09558
5668.71,0.09503
5662.92,0.09604
5657.14,0.09707
5651.35,0.09773
5645.56,0.09593
5639.78,0.09436
5633.99,0.09663
5628.2,0.09718
5622.42,0.09669
5616.63,0.09853
5610.84,0.09876
5605.06,0.09893
5599.27,0.09661
5593.49,0.09626
5587.7,0.09949
5581.91,0.09991
5576.13,0.09918
5570.34,0.09791
5564.55,0.09926
5558.77,0.09903
5552.98,0.09860
5547.19,0.09746
5541.41,0.09789
5535.62,0.09985
5529.84,0.09934
5524.05,0.09964
5518.26,0.09844
5512.48,0.09829
5506.69,0.09734
5500.9,0.09926
5495.12,0.09997
5489.33,0.09989
5483.54,0.10011
5477.76,0.10177
5471.97,0.09888
5466.19,0.09887
5460.4,0.09943
5454.61,0.09972
5448.83,0.09963
5443.04,0.10128
5437.25,0.10215
5431.47,0.10119
5425.68,0.10123
5419.89,0.10143
5414.11,0.10054
5408.32,0.09938
5402.54,0.10114
5396.75,0.10185
5390.96,0.10002
5385.18,0.10153
5379.39,0.10104
5373.6,0.10230
5367.82,0.10185
5362.03,0.09991
5356.24,0.10015
5350.46,0.10325
5344.67,0.10209
5338.89,0.10046
5333.1,0.10034
5327.31,0.10068
5321.53,0.10241
5315.74,0.10162
5309.95,0.09999
5304.17,0.10103
5298.38,0.10118
5292.59,0.10199
5286.81,0.10010
5281.02,0.10199
5275.24,0.10052
5269.45,0.10231
5263.66,0.10036
5257.88,0.09883
5252.09,0.10190
5246.3,0.10025
5240.52,0.10093
5234.73,0.10203
5228.94,0.10131
5223.16,0.10187
5217.37,0.09962
5211.59,0.10216
5205.8,0.10170
5200.01,0.10004
5194.23,0.10074
5188.44,0.10210
5182.65,0.10239
5176.87,0.10116
5171.08,0.10078
5165.29,0.10191
5159.51,0.10223
5153.72,0.10243
5147.94,0.10079
5142.15,0.10108
5136.36,0.10151
5130.58,0.10104
5124.79,0.10080
5119,0.10130
5113.22,0.10174
5107.43,0.10184
5101.64,0.10164
5095.86,0.10248
5090.07,0.10267
5084.29,0.10137
5078.5,0.10176
5072.71,0.10295
5066.93,0.10276
5061.14,0.10294
5055.35,0.10226
5049.57,0.10261
5043.78,0.10293
5037.99,0.10286
5032.21,0.10284
5026.42,0.10247
5020.64,0.10177
5014.85,0.10255
5009.06,0.10267
5003.28,0.10333
4997.49,0.10281
4991.7,0.10323
4985.92,0.10244
4980.13,0.10241
4974.34,0.10128
4968.56,0.10221
4962.77,0.10318
4956.99,0.10338
4951.2,0.10329
4945.41,0.10216
4939.63,0.10253
4933.84,0.10409
4928.05,0.10229
4922.27,0.10236
4916.48,0.10190
4910.69,0.10245
4904.91,0.10289
4899.12,0.10199
4893.34,0.10247
4887.55,0.10243
4881.76,0.10428
4875.98,0.10233
4870.19,0.10325
4864.4,0.10258
4858.62,0.10322
4852.83,0.10341
4847.04,0.10399
4841.26,0.10248
4835.47,0.10161
4829.69,0.10268
4823.9,0.10230
4818.11,0.10226
4812.33,0.10350
4806.54,0.10386
4800.75,0.10312
4794.97,0.10325
4789.18,0.10261
4783.39,0.10276
4777.61,0.10242
4771.82,0.10193
4766.04,0.10259
4760.25,0.10305
4754.46,0.10396
4748.68,0.10374
4742.89,0.10324
4737.1,0.10239
4731.32,0.10253
4725.53,0.10268
4719.74,0.10165
4713.96,0.10122
4708.17,0.10121
4702.39,0.10070
4696.6,0.10080
4690.81,0.10100
4685.03,0.09909
4679.24,0.09821
4673.45,0.10014
4667.67,0.10111
4661.88,0.10010
4656.09,0.10058
4650.31,0.10124
4644.52,0.10126
4638.74,0.09981
4632.95,0.10044
4627.16,0.10026
4621.38,0.10089
4615.59,0.10084
4609.8,0.10224
4604.02,0.10184
4598.23,0.10186
4592.44,0.10009
4586.66,0.10138
4580.87,0.10143
4575.09,0.10131
4569.3,0.10069
4563.51,0.10266
4557.73,0.10261
4551.94,0.10132
4546.15,0.10216
4540.37,0.10202
4534.58,0.10162
4528.79,0.10206
4523.01,0.10122
4517.22,0.10192
4511.44,0.10151
4505.65,0.10155
4499.86,0.10035
4494.08,0.10044
4488.29,0.10036
4482.5,0.09902
4476.72,0.09911
4470.93,0.09870
4465.14,0.09869
4459.36,0.09664
4453.57,0.09680
4447.79,0.09526
4442,0.09342
4436.21,0.09187
4430.43,0.08979
4424.64,0.08857
4418.85,0.08625
4413.07,0.08507
4407.28,0.08274
4401.49,0.08243
4395.71,0.08118
4389.92,0.08037
4384.14,0.08018
4378.35,0.07848
4372.56,0.07675
4366.78,0.07434
4360.99,0.07297
4355.2,0.07105
4349.42,0.07074
4343.63,0.06973
4337.84,0.06923
4332.06,0.06838
4326.27,0.06829
4320.49,0.07020
4314.7,0.07202
4308.91,0.07353
4303.13,0.07353
4297.34,0.07364
4291.55,0.07296
4285.77,0.07412
4279.98,0.07366
4274.19,0.07377
4268.41,0.07357
4262.62,0.07334
4256.84,0.07361
4251.05,0.07434
4245.26,0.07442
4239.48,0.07409
4233.69,0.07324
4227.9,0.07289
4222.12,0.07285
4216.33,0.07363
4210.54,0.07286
4204.76,0.07368
4198.97,0.07384
4193.19,0.07511
4187.4,0.07504
4181.61,0.07468
4175.83,0.07360
4170.04,0.07338
4164.25,0.07446
4158.47,0.07553
4152.68,0.07672
4146.89,0.07784
4141.11,0.07739
4135.32,0.07886
4129.54,0.07922
4123.75,0.07952
4117.96,0.07900
4112.18,0.07902
4106.39,0.07860
4100.6,0.07866
4094.82,0.07708
4089.03,0.07502
4083.24,0.07482
4077.46,0.07559
4071.67,0.07765
4065.89,0.07860
4060.1,0.07974
4054.31,0.08130
4048.53,0.08186
4042.74,0.08165
4036.95,0.08231
4031.17,0.08284
4025.38,0.08252
4019.59,0.08300
4013.81,0.08309
4008.02,0.08385
4002.24,0.08401
3996.45,0.08476
3990.66,0.08477
3984.88,0.08634
3979.09,0.08668
3973.3,0.08701
3967.52,0.08713
3961.73,0.08812
3955.94,0.08734
3950.16,0.08781
3944.37,0.08862
3938.59,0.08822
3932.8,0.08815
3927.01,0.08795
3921.23,0.08776
3915.44,0.08786
3909.65,0.08808
3903.87,0.08841
3898.08,0.08765
3892.29,0.08855
3886.51,0.08902
3880.72,0.08956
3874.94,0.08989
3869.15,0.08960
3863.36,0.08841
3857.58,0.08966
3851.79,0.08903
3846,0.08930
3840.22,0.08863
3834.43,0.08851
3828.64,0.08964
3822.86,0.09045
3817.07,0.09027
3811.29,0.09020
3805.5,0.09025
3799.71,0.09100
3793.93,0.09087
3788.14,0.09155
3782.35,0.09228
3776.57,0.09280
3770.78,0.09264
3764.99,0.09180
3759.21,0.09184
3753.42,0.09224
3747.64,0.09181
3741.85,0.09234
3736.06,0.09402
3730.28,0.09309
3724.49,0.09349
3718.7,0.09326
3712.92,0.09343
3707.13,0.09302
3701.34,0.09196
3695.56,0.08952
3689.77,0.08714
3683.99,0.08633
3678.2,0.08537
3672.41,0.08457
3666.63,0.08530
3660.84,0.08605
3655.05,0.08668
3649.27,0.08562
3643.48,0.08645
3637.69,0.08635
3631.91,0.08589
3626.12,0.08488
3620.34,0.08363
3614.55,0.08299
3608.76,0.08340
3602.98,0.08247
3597.19,0.08240
3591.4,0.08166
3585.62,0.08111
3579.83,0.08073
3574.04,0.07965
3568.26,0.07931
3562.47,0.07739
3556.69,0.07752
3550.9,0.07634
3545.11,0.07550
3539.33,0.07576
3533.54,0.07519
3527.75,0.07493
3521.97,0.07522
3516.18,0.07505
3510.39,0.07530
3504.61,0.07328
3498.82,0.07308
3493.04,0.07226
3487.25,0.07143
3481.46,0.07090
3475.68,0.07039
3469.89,0.06943
3464.1,0.06897
3458.32,0.06894
3452.53,0.06795
3446.74,0.06780
3440.96,0.06686
3435.17,0.06499
3429.39,0.06470
3423.6,0.06429
3417.81,0.06469
3412.03,0.06542
3406.24,0.06625
3400.45,0.06777
3394.67,0.06828
3388.88,0.06954
3383.09,0.07011
3377.31,0.07148
3371.52,0.07138
3365.74,0.07255
3359.95,0.07254
3354.16,0.07270
3348.38,0.07312
3342.59,0.07245
3336.8,0.07154
3331.02,0.07184
3325.23,0.07192
3319.44,0.07061
3313.66,0.06959
3307.87,0.06457
3302.09,0.06408
3296.3,0.06468
3290.51,0.06701
3284.73,0.06981
3278.94,0.07246
3273.15,0.07447
3267.37,0.07459
3261.58,0.07548
3255.79,0.07581
3250.01,0.07583
3244.22,0.07592
3238.44,0.07560
3232.65,0.07598
3226.86,0.07612
3221.08,0.07608
3215.29,0.07550
3209.5,0.07534
3203.72,0.07461
3197.93,0.07527
3192.14,0.07507
3186.36,0.07481
3180.57,0.07418
3174.79,0.07379
3169,0.07578
3163.21,0.07516
3157.43,0.07512
3151.64,0.07431
3145.85,0.07402
3140.07,0.07334
3134.28,0.07273
3128.49,0.07200
3122.71,0.07189
3116.92,0.07125
3111.14,0.07085
3105.35,0.06949
3099.56,0.06825
3093.78,0.06730
3087.99,0.06610
3082.2,0.06515
3076.42,0.06459
3070.63,0.06442
3064.84,0.06386
3059.06,0.06393
3053.27,0.06291
3047.49,0.06296
3041.7,0.06337
3035.91,0.06256
3030.13,0.06156
3024.34,0.06046
3018.55,0.05946
3012.77,0.05907
3006.98,0.05871
3001.19,0.05823
2995.41,0.05781
2989.62,0.05717
2983.84,0.05629
2978.05,0.05623
2972.26,0.05626
2966.48,0.05690
2960.69,0.05837
2954.9,0.05981
2949.12,0.05991
2943.33,0.05898
2937.54,0.05948
2931.76,0.06074
2925.97,0.06199
2920.19,0.06255
2914.4,0.06304
2908.61,0.06321
2902.83,0.06268
2897.04,0.06301
2891.25,0.06283
2885.47,0.06190
2879.68,0.06133
2873.89,0.06241
2868.11,0.06249
2862.32,0.06267
2856.54,0.06351
2850.75,0.06371
2844.96,0.06350
2839.18,0.06314
2833.39,0.06311
2827.6,0.06295
2821.82,0.06248
2816.03,0.06231
2810.24,0.06277
2804.46,0.06433
2798.67,0.06457
2792.89,0.06524
2787.1,0.06645
2781.31,0.06735
2775.53,0.06788
2769.74,0.06863
2763.95,0.06847
2758.17,0.06855
2752.38,0.06855
2746.59,0.06806
2740.81,0.06745
2735.02,0.06737
2729.24,0.06764
2723.45,0.06869
2717.66,0.06978
2711.88,0.07105
2706.09,0.07143
2700.3,0.07252
2694.52,0.07218
2688.73,0.07280
2682.94,0.07199
2677.16,0.07236
2671.37,0.07201
2665.59,0.07275
2659.8,0.07325
2654.01,0.07412
2648.23,0.07476
2642.44,0.07451
2636.65,0.07442
2630.87,0.07359
2625.08,0.07351
2619.29,0.07308
2613.51,0.07347
2607.72,0.07324
2601.94,0.07294
2596.15,0.07313
2590.36,0.07333
2584.58,0.07340
2578.79,0.07310
2573,0.07344
2567.22,0.07335
2561.43,0.07395
2555.64,0.07410
2549.86,0.07396
2544.07,0.07446
2538.29,0.07501
2532.5,0.07518
2526.71,0.07555
2520.93,0.07595
2515.14,0.07661
2509.35,0.07752
2503.57,0.07866
2497.78,0.07883
2491.99,0.07940
2486.21,0.07941
2480.42,0.07980
2474.64,0.08050
2468.85,0.08035
2463.06,0.08099
2457.28,0.08045
2451.49,0.08075
2445.7,0.08038
2439.92,0.07990
2434.13,0.07882
2428.34,0.07857
2422.56,0.07801
2416.77,0.07646
2410.99,0.07667
2405.2,0.07615
2399.41,0.07519
2393.63,0.07479
2387.84,0.07454
2382.05,0.07472
2376.27,0.07459
2370.48,0.07469
2364.69,0.07559
2358.91,0.07608
2353.12,0.07705
2347.34,0.07836
2341.55,0.07951
2335.76,0.08065
2329.98,0.08146
2324.19,0.08139
2318.4,0.08164
2312.62,0.08277
2306.83,0.08235
2301.04,0.08218
2295.26,0.08142
2289.47,0.08015
2283.69,0.07948
2277.9,0.07846
2272.11,0.07937
2266.33,0.08008
2260.54,0.08086
2254.75,0.08073
2248.97,0.08068
2243.18,0.08040
2237.39,0.07998
2231.61,0.08030
2225.82,0.08024
2220.04,0.08072
2214.25,0.08078
2208.46,0.08146
2202.68,0.08233
2196.89,0.08302
2191.1,0.08347
2185.32,0.08399
2179.53,0.08466
2173.74,0.08477
2167.96,0.08503
2162.17,0.08471
2156.39,0.08442
2150.6,0.08413
2144.81,0.08413
2139.03,0.08371
2133.24,0.08393
2127.45,0.08385
2121.67,0.08348
2115.88,0.08285
2110.09,0.08331
2104.31,0.08271
2098.52,0.08256
2092.74,0.08233
2086.95,0.08203
2081.16,0.08219
2075.38,0.08148
2069.59,0.08171
2063.8,0.08170
2058.02,0.08213
2052.23,0.08213
2046.44,0.08329
2040.66,0.08315
2034.87,0.08323
2029.09,0.08320
2023.3,0.08381
2017.51,0.08414
2011.73,0.08434
2005.94,0.08483
2000.15,0.08378
1994.37,0.08355
1988.58,0.08162
1982.79,0.08190
1977.01,0.08059
1971.22,0.07990
1965.44,0.07829
1959.65,0.07565
1953.86,0.07228
1948.08,0.07138
1942.29,0.07286
1936.5,0.07523
1930.72,0.07788
1924.93,0.07886
1919.14,0.07983
1913.36,0.07948
1907.57,0.08013
1901.79,0.07991
1896,0.08022
1890.21,0.08031
1884.43,0.08001
1878.64,0.08046
1872.85,0.08031
1867.07,0.07955
1861.28,0.07855
1855.49,0.07797
1849.71,0.07571
1843.92,0.07421
1838.14,0.07144
1832.35,0.06957
1826.56,0.06622
1820.78,0.06614
1814.99,0.06613
1809.2,0.06710
1803.42,0.06598
1797.63,0.06533
1791.84,0.06368
1786.06,0.06208
1780.27,0.06077
1774.49,0.05905
1768.7,0.05835
1762.91,0.05622
1757.13,0.05483
1751.34,0.05359
1745.55,0.05249
1739.77,0.05104
1733.98,0.04946
1728.19,0.05146
1722.41,0.05824
1716.62,0.06576
1710.84,0.06984
1705.05,0.06792
1699.26,0.06432
1693.48,0.06234
1687.69,0.06162
1681.9,0.06012
1676.12,0.06002
1670.33,0.06044
1664.54,0.06107
1658.76,0.06265
1652.97,0.06389
1647.19,0.06291
1641.4,0.06080
1635.61,0.06014
1629.83,0.06206
1624.04,0.06377
1618.25,0.06310
1612.47,0.06163
1606.68,0.06228
1600.89,0.06421
1595.11,0.06398
1589.32,0.06351
1583.54,0.06023
1577.75,0.05790
1571.96,0.05836
1566.18,0.05976
1560.39,0.06049
1554.6,0.05993
1548.82,0.05985
1543.03,0.05934
1537.24,0.05811
1531.46,0.05897
1525.67,0.05937
1519.89,0.05968
1514.1,0.05857
1508.31,0.05686
1502.53,0.05677
1496.74,0.05766
1490.95,0.05741
1485.17,0.05530
1479.38,0.05450
1473.59,0.05389
1467.81,0.05395
1462.02,0.05558
1456.24,0.05653
1450.45,0.05663
1444.66,0.05519
1438.88,0.05513
1433.09,0.05586
1427.3,0.05597
1421.52,0.05697
1415.73,0.05607
1409.94,0.05626
1404.16,0.05719
1398.37,0.05571
1392.59,0.05438
1386.8,0.05443
1381.01,0.05562
1375.23,0.05620
1369.44,0.05550
1363.65,0.05457
1357.87,0.05449
1352.08,0.05395
1346.29,0.05301
1340.51,0.05278
1334.72,0.05309
1328.94,0.05302
1323.15,0.05268
1317.36,0.05258
1311.58,0.05199
1305.79,0.05106
1300,0.04967
1294.22,0.04758
1288.43,0.04612
1282.64,0.04762
1276.86,0.05395
1271.07,0.06628
1265.29,0.07346
1259.5,0.07019
1253.71,0.06930
1247.93,0.07317
1242.14,0.07402
1236.35,0.07199
1230.57,0.06998
1224.78,0.06846
1218.99,0.06612
1213.21,0.06478
1207.42,0.06395
1201.64,0.06312
1195.85,0.06237
1190.06,0.06195
1184.28,0.06167
1178.49,0.06079
1172.7,0.06028
1166.92,0.05961
1161.13,0.05932
1155.34,0.05833
1149.56,0.05781
1143.77,0.05673
1137.99,0.05562
1132.2,0.05432
1126.41,0.05301
1120.63,0.05855
1114.84,0.06474
1109.05,0.06423
1103.27,0.06817
1097.48,0.07143
1091.69,0.06874
1085.91,0.06693
1080.12,0.06645
1074.34,0.06633
1068.55,0.06575
1062.76,0.06442
1056.98,0.06440
1051.19,0.06327
1045.4,0.06312
1039.62,0.06228
1033.83,0.06130
1028.04,0.06014
1022.26,0.06044
1016.47,0.06604
1010.69,0.06351
1004.9,0.06214
999.112,0.06121
993.326,0.06095
987.54,0.06120
981.753,0.06077
975.967,0.06115
970.18,0.06192
964.394,0.06200
958.608,0.06223
952.821,0.06402
947.035,0.06400
941.249,0.06447
935.462,0.06379
929.676,0.06317
923.89,0.06327
918.103,0.06275
912.317,0.06378
906.53,0.06216
900.744,0.06184
894.958,0.06254
889.171,0.06222
883.385,0.06156
877.599,0.06163
871.812,0.06239
866.026,0.06317
860.24,0.06293
854.453,0.06177
848.667,0.06182
842.88,0.06185
837.094,0.06132
831.308,0.06180
825.521,0.06244
819.735,0.06298
813.949,0.06241
808.162,0.06293
802.376,0.06095
796.59,0.06175
790.803,0.06067
785.017,0.06075
779.23,0.05995
773.444,0.06052
767.658,0.05926
761.871,0.05951
756.085,0.06014
750.299,0.05795
744.512,0.05478
738.726,0.05086
732.94,0.05962
727.153,0.06891
721.367,0.06410
715.58,0.06090
709.794,0.05941
704.008,0.05906
698.221,0.05848
692.435,0.05909
686.649,0.06016
680.862,0.05913
675.076,0.05939
669.29,0.05980
663.503,0.05790
657.717,0.05642
651.93,0.05561
646.144,0.05777
640.358,0.05763
634.571,0.06048
628.785,0.06192
622.999,0.05982
617.212,0.06348
611.426,0.06317
605.639,0.06712
599.853,0.06805