File: 01_Data/PEVA/FTIR/IS/PEVA_0.26_IS_T_240809_R14.dpt
7497.2,0.03699
7491.41,0.03446
7485.63,0.04073
7479.84,0.03554
7474.05,0.02661
7468.27,0.03006
7462.48,0.02663
7456.7,0.03412
7450.91,0.03190
7445.12,0.03653
7439.34,0.03364
7433.55,0.02939
7427.76,0.03519
7421.98,0.02194
7416.19,0.03970
7410.4,0.03485
7404.62,0.03280
7398.83,0.02686
7393.05,0.02894
7387.26,0.03374
7381.47,0.04695
7375.69,0.03894
7369.9,0.03187
7364.11,0.03726
7358.33,0.02871
7352.54,0.02678
7346.75,0.02664
7340.97,0.02900
7335.18,0.04399
7329.4,0.03301
7323.61,0.04458
7317.82,0.02502
7312.04,0.03854
7306.25,0.02668
7300.46,0.03843
7294.68,0.02751
7288.89,0.02706
7283.1,0.01995
7277.32,0.03702
7271.53,0.04251
7265.75,0.03483
7259.96,0.03379
7254.17,0.02581
7248.39,0.02188
7242.6,0.02813
7236.81,0.02520
7231.03,0.02802
7225.24,0.02648
7219.45,0.03442
7213.67,0.04075
7207.88,0.03193
7202.1,0.04505
7196.31,0.04052
7190.52,0.04240
7184.74,0.04146
7178.95,0.02911
7173.16,0.03231
7167.38,0.03073
7161.59,0.04132
7155.8,0.03597
7150.02,0.03974
7144.23,0.03303
7138.45,0.03804
7132.66,0.03475
7126.87,0.03092
7121.09,0.02894
7115.3,0.02501
7109.51,0.03439
7103.73,0.02826
7097.94,0.02525
7092.15,0.02942
7086.37,0.03040
7080.58,0.02436
7074.8,0.03844
7069.01,0.03590
7063.22,0.03035
7057.44,0.03282
7051.65,0.02567
7045.86,0.03173
7040.08,0.02851
7034.29,0.03718
7028.5,0.03211
7022.72,0.03253
7016.93,0.03157
7011.15,0.03906
7005.36,0.04386
6999.57,0.03650
6993.79,0.02804
6988,0.03170
6982.21,0.03428
6976.43,0.02865
6970.64,0.03165
6964.85,0.03951
6959.07,0.03724
6953.28,0.03426
6947.5,0.03818
6941.71,0.03733
6935.92,0.02746
6930.14,0.03898
6924.35,0.03261
6918.56,0.03219
6912.78,0.02624
6906.99,0.03085
6901.2,0.03212
6895.42,0.03600
6889.63,0.03315
6883.85,0.03842
6878.06,0.03802
6872.27,0.03998
6866.49,0.03902
6860.7,0.03063
6854.91,0.03561
6849.13,0.04152
6843.34,0.03162
6837.55,0.02871
6831.77,0.02909
6825.98,0.03607
6820.2,0.03205
6814.41,0.02855
6808.62,0.02954
6802.84,0.02990
6797.05,0.02937
6791.26,0.02464
6785.48,0.02772
6779.69,0.03854
6773.9,0.03237
6768.12,0.03624
6762.33,0.03409
6756.55,0.03707
6750.76,0.02597
6744.97,0.02830
6739.19,0.03169
6733.4,0.03452
6727.61,0.03294
6721.83,0.02768
6716.04,0.02932
6710.25,0.02985
6704.47,0.03069
6698.68,0.03065
6692.9,0.03598
6687.11,0.03089
6681.32,0.03342
6675.54,0.03345
6669.75,0.03412
6663.96,0.03448
6658.18,0.03613
6652.39,0.03056
6646.6,0.03407
6640.82,0.03567
6635.03,0.03553
6629.25,0.03352
6623.46,0.02879
6617.67,0.03296
6611.89,0.04012
6606.1,0.02859
6600.31,0.03656
6594.53,0.03250
6588.74,0.02921
6582.95,0.03669
6577.17,0.02912
6571.38,0.02697
6565.6,0.03017
6559.81,0.03198
6554.02,0.03261
6548.24,0.03819
6542.45,0.03066
6536.66,0.03386
6530.88,0.03296
6525.09,0.03055
6519.3,0.03806
6513.52,0.03047
6507.73,0.03577
6501.95,0.03432
6496.16,0.03272
6490.37,0.02907
6484.59,0.03232
6478.8,0.03238
6473.01,0.03081
6467.23,0.02882
6461.44,0.03185
6455.65,0.02733
6449.87,0.02786
6444.08,0.02892
6438.3,0.03114
6432.51,0.02630
6426.72,0.03174
6420.94,0.03252
6415.15,0.03072
6409.36,0.03207
6403.58,0.03498
6397.79,0.03121
6392,0.03259
6386.22,0.03308
6380.43,0.03312
6374.65,0.02822
6368.86,0.03191
6363.07,0.03010
6357.29,0.02873
6351.5,0.03006
6345.71,0.03014
6339.93,0.02865
6334.14,0.03447
6328.35,0.03766
6322.57,0.03259
6316.78,0.02796
6310.99,0.03303
6305.21,0.03265
6299.42,0.03053
6293.64,0.03182
6287.85,0.02935
6282.06,0.03055
6276.28,0.03046
6270.49,0.03175
6264.7,0.03118
6258.92,0.03291
6253.13,0.03238
6247.34,0.03586
6241.56,0.03032
6235.77,0.02972
6229.99,0.02916
6224.2,0.02897
6218.41,0.02752
6212.63,0.03162
6206.84,0.03271
6201.05,0.03457
6195.27,0.03247
6189.48,0.03253
6183.69,0.03094
6177.91,0.03041
6172.12,0.03403
6166.34,0.03457
6160.55,0.03276
6154.76,0.02917
6148.98,0.03224
6143.19,0.03219
6137.4,0.02958
6131.62,0.03403
6125.83,0.03284
6120.04,0.03164
6114.26,0.03042
6108.47,0.03540
6102.69,0.03193
6096.9,0.03218
6091.11,0.03263
6085.33,0.03105
6079.54,0.03002
6073.75,0.02961
6067.97,0.02520
6062.18,0.02785
6056.39,0.02858
6050.61,0.03025
6044.82,0.02796
6039.04,0.03262
6033.25,0.03161
6027.46,0.02986
6021.68,0.03251
6015.89,0.02933
6010.1,0.03305
6004.32,0.03179
5998.53,0.03259
5992.74,0.03338
5986.96,0.02964
5981.17,0.03017
5975.39,0.02923
5969.6,0.02907
5963.81,0.03132
5958.03,0.03266
5952.24,0.02859
5946.45,0.03372
5940.67,0.02987
5934.88,0.02716
5929.09,0.02819
5923.31,0.03006
5917.52,0.02964
5911.74,0.02668
5905.95,0.02898
5900.16,0.03182
5894.38,0.02904
5888.59,0.03054
5882.8,0.03116
5877.02,0.02887
5871.23,0.03365
5865.44,0.03109
5859.66,0.02941
5853.87,0.03087
5848.09,0.03135
5842.3,0.03012
5836.51,0.02978
5830.73,0.03047
5824.94,0.02903
5819.15,0.03034
5813.37,0.02769
5807.58,0.03123
5801.79,0.03259
5796.01,0.02870
5790.22,0.03022
5784.44,0.03116
5778.65,0.03304
5772.86,0.03229
5767.08,0.03261
5761.29,0.02896
5755.5,0.03180
5749.72,0.02961
5743.93,0.03017
5738.14,0.02895
5732.36,0.03116
5726.57,0.03112
5720.79,0.03083
5715,0.02879
5709.21,0.03360
5703.43,0.02880
5697.64,0.02974
5691.85,0.02685
5686.07,0.02938
5680.28,0.03223
5674.49,0.03177
5668.71,0.02961
5662.92,0.02930
5657.14,0.03111
5651.35,0.03144
5645.56,0.03039
5639.78,0.03069
5633.99,0.02957
5628.2,0.03085
5622.42,0.02797
5616.63,0.03098
5610.84,0.02868
5605.06,0.03169
5599.27,0.03162
5593.49,0.03130
5587.7,0.03049
5581.91,0.03196
5576.13,0.03061
5570.34,0.03209
5564.55,0.03119
5558.77,0.03055
5552.98,0.03008
5547.19,0.03088
5541.41,0.03151
5535.62,0.02956
5529.84,0.02995
5524.05,0.02976
5518.26,0.02986
5512.48,0.03051
5506.69,0.03156
5500.9,0.03032
5495.12,0.03069
5489.33,0.03168
5483.54,0.03021
5477.76,0.03062
5471.97,0.03145
5466.19,0.03255
5460.4,0.02979
5454.61,0.02884
5448.83,0.03138
5443.04,0.03176
5437.25,0.02997
5431.47,0.02935
5425.68,0.02966
5419.89,0.03033
5414.11,0.03092
5408.32,0.03066
5402.54,0.03081
5396.75,0.03075
5390.96,0.03118
5385.18,0.02980
5379.39,0.03120
5373.6,0.03002
5367.82,0.02959
5362.03,0.03004
5356.24,0.03040
5350.46,0.03079
5344.67,0.02987
5338.89,0.03081
5333.1,0.03193
5327.31,0.03060
5321.53,0.03111
5315.74,0.02943
5309.95,0.03160
5304.17,0.03064
5298.38,0.03117
5292.59,0.03050
5286.81,0.03058
5281.02,0.02931
5275.24,0.02855
5269.45,0.02964
5263.66,0.03137
5257.88,0.03173
5252.09,0.03096
5246.3,0.03040
5240.52,0.03094
5234.73,0.03017
5228.94,0.03046
5223.16,0.02919
5217.37,0.03087
5211.59,0.03185
5205.8,0.03082
5200.01,0.03069
5194.23,0.03308
5188.44,0.03035
5182.65,0.03276
5176.87,0.03184
5171.08,0.03113
5165.29,0.03025
5159.51,0.02897
5153.72,0.03092
5147.94,0.02806
5142.15,0.03039
5136.36,0.03257
5130.58,0.03212
5124.79,0.03029
5119,0.03003
5113.22,0.02921
5107.43,0.02957
5101.64,0.03225
5095.86,0.03041
5090.07,0.02986
5084.29,0.02991
5078.5,0.03055
5072.71,0.03018
5066.93,0.02969
5061.14,0.02980
5055.35,0.03039
5049.57,0.02991
5043.78,0.03120
5037.99,0.03055
5032.21,0.03151
5026.42,0.03087
5020.64,0.03087
5014.85,0.03132
5009.06,0.03034
5003.28,0.02900
4997.49,0.02962
4991.7,0.02984
4985.92,0.03044
4980.13,0.03047
4974.34,0.03025
4968.56,0.03054
4962.77,0.02948
4956.99,0.03189
4951.2,0.03207
4945.41,0.03028
4939.63,0.03121
4933.84,0.02943
4928.05,0.03069
4922.27,0.02964
4916.48,0.03095
4910.69,0.03147
4904.91,0.03143
4899.12,0.03054
4893.34,0.03076
4887.55,0.03072
4881.76,0.03027
4875.98,0.03043
4870.19,0.03033
4864.4,0.03086
4858.62,0.02979
4852.83,0.03083
4847.04,0.02981
4841.26,0.02973
4835.47,0.03033
4829.69,0.03154
4823.9,0.02990
4818.11,0.03067
4812.33,0.03047
4806.54,0.03033
4800.75,0.03040
4794.97,0.03082
4789.18,0.02973
4783.39,0.02988
4777.61,0.03084
4771.82,0.03101
4766.04,0.03063
4760.25,0.03097
4754.46,0.03124
4748.68,0.03139
4742.89,0.03202
4737.1,0.03129
4731.32,0.03002
4725.53,0.03014
4719.74,0.03100
4713.96,0.02953
4708.17,0.03095
4702.39,0.02973
4696.6,0.03062
4690.81,0.03139
4685.03,0.03199
4679.24,0.03050
4673.45,0.03076
4667.67,0.03074
4661.88,0.03073
4656.09,0.03025
4650.31,0.02978
4644.52,0.03127
4638.74,0.03193
4632.95,0.03088
4627.16,0.03004
4621.38,0.03030
4615.59,0.03109
4609.8,0.03069
4604.02,0.02955
4598.23,0.03111
4592.44,0.03058
4586.66,0.02990
4580.87,0.03022
4575.09,0.03012
4569.3,0.03104
4563.51,0.03066
4557.73,0.03159
4551.94,0.03081
4546.15,0.03115
4540.37,0.02950
4534.58,0.03022
4528.79,0.03153
4523.01,0.03038
4517.22,0.03001
4511.44,0.03089
4505.65,0.02985
4499.86,0.02959
4494.08,0.02990
4488.29,0.03055
4482.5,0.02987
4476.72,0.03123
4470.93,0.02962
4465.14,0.03034
4459.36,0.03107
4453.57,0.02995
4447.79,0.03052
4442,0.03030
4436.21,0.03062
4430.43,0.03006
4424.64,0.03057
4418.85,0.02961
4413.07,0.02928
4407.28,0.03064
4401.49,0.03032
4395.71,0.03039
4389.92,0.03025
4384.14,0.03040
4378.35,0.03042
4372.56,0.03047
4366.78,0.03109
4360.99,0.03056
4355.2,0.02989
4349.42,0.03022
4343.63,0.03061
4337.84,0.02967
4332.06,0.02996
4326.27,0.03027
4320.49,0.03001
4314.7,0.02957
4308.91,0.03045
4303.13,0.02982
4297.34,0.03110
4291.55,0.03068
4285.77,0.02951
4279.98,0.02979
4274.19,0.02974
4268.41,0.03018
4262.62,0.02971
4256.84,0.03052
4251.05,0.03090
4245.26,0.03036
4239.48,0.02982
4233.69,0.03075
4227.9,0.03079
4222.12,0.03034
4216.33,0.03055
4210.54,0.02992
4204.76,0.02978
4198.97,0.03049
4193.19,0.03047
4187.4,0.03059
4181.61,0.02987
4175.83,0.03009
4170.04,0.03001
4164.25,0.03055
4158.47,0.02947
4152.68,0.03025
4146.89,0.03079
4141.11,0.02984
4135.32,0.03079
4129.54,0.03130
4123.75,0.03038
4117.96,0.03064
4112.18,0.03060
4106.39,0.03093
4100.6,0.02990
4094.82,0.02980
4089.03,0.03005
4083.24,0.03034
4077.46,0.03009
4071.67,0.03054
4065.89,0.03024
4060.1,0.02960
4054.31,0.03064
4048.53,0.02997
4042.74,0.02966
4036.95,0.03005
4031.17,0.02968
4025.38,0.03001
4019.59,0.03030
4013.81,0.03040
4008.02,0.03010
4002.24,0.03021
3996.45,0.03060
3990.66,0.02984
3984.88,0.03044
3979.09,0.02946
3973.3,0.03007
3967.52,0.03061
3961.73,0.03033
3955.94,0.03004
3950.16,0.03035
3944.37,0.03118
3938.59,0.03032
3932.8,0.03055
3927.01,0.03010
3921.23,0.03059
3915.44,0.02970
3909.65,0.03053
3903.87,0.03036
3898.08,0.02930
3892.29,0.02973
3886.51,0.03048
3880.72,0.03035
3874.94,0.03020
3869.15,0.03018
3863.36,0.03088
3857.58,0.03071
3851.79,0.03053
3846,0.03057
3840.22,0.03024
3834.43,0.03000
3828.64,0.03112
3822.86,0.03147
3817.07,0.03031
3811.29,0.03049
3805.5,0.03048
3799.71,0.03058
3793.93,0.02980
3788.14,0.03044
3782.35,0.03055
3776.57,0.02987
3770.78,0.03028
3764.99,0.03009
3759.21,0.02961
3753.42,0.03026
3747.64,0.03084
3741.85,0.02963
3736.06,0.03020
3730.28,0.03002
3724.49,0.02913
3718.7,0.02939
3712.92,0.02976
3707.13,0.02988
3701.34,0.02935
3695.56,0.02931
3689.77,0.02944
3683.99,0.02979
3678.2,0.02933
3672.41,0.02962
3666.63,0.02987
3660.84,0.02955
3655.05,0.02953
3649.27,0.02794
3643.48,0.02899
3637.69,0.02913
3631.91,0.02912
3626.12,0.02857
3620.34,0.02893
3614.55,0.02857
3608.76,0.02839
3602.98,0.02807
3597.19,0.02836
3591.4,0.02780
3585.62,0.02788
3579.83,0.02679
3574.04,0.02728
3568.26,0.02802
3562.47,0.02752
3556.69,0.02800
3550.9,0.02838
3545.11,0.02743
3539.33,0.02746
3533.54,0.02731
3527.75,0.02659
3521.97,0.02732
3516.18,0.02727
3510.39,0.02709
3504.61,0.02706
3498.82,0.02669
3493.04,0.02710
3487.25,0.02742
3481.46,0.02718
3475.68,0.02640
3469.89,0.02660
3464.1,0.02655
3458.32,0.02663
3452.53,0.02645
3446.74,0.02687
3440.96,0.02695
3435.17,0.02593
3429.39,0.02564
3423.6,0.02688
3417.81,0.02687
3412.03,0.02572
3406.24,0.02732
3400.45,0.02635
3394.67,0.02643
3388.88,0.02694
3383.09,0.02692
3377.31,0.02578
3371.52,0.02641
3365.74,0.02606
3359.95,0.02646
3354.16,0.02570
3348.38,0.02669
3342.59,0.02668
3336.8,0.02624
3331.02,0.02617
3325.23,0.02670
3319.44,0.02642
3313.66,0.02590
3307.87,0.02671
3302.09,0.02618
3296.3,0.02605
3290.51,0.02602
3284.73,0.02656
3278.94,0.02709
3273.15,0.02677
3267.37,0.02682
3261.58,0.02664
3255.79,0.02688
3250.01,0.02695
3244.22,0.02638
3238.44,0.02644
3232.65,0.02679
3226.86,0.02630
3221.08,0.02669
3215.29,0.02732
3209.5,0.02617
3203.72,0.02740
3197.93,0.02740
3192.14,0.02702
3186.36,0.02699
3180.57,0.02714
3174.79,0.02721
3169,0.02711
3163.21,0.02702
3157.43,0.02719
3151.64,0.02727
3145.85,0.02734
3140.07,0.02696
3134.28,0.02623
3128.49,0.02692
3122.71,0.02759
3116.92,0.02699
3111.14,0.02704
3105.35,0.02701
3099.56,0.02660
3093.78,0.02683
3087.99,0.02733
3082.2,0.02747
3076.42,0.02780
3070.63,0.02736
3064.84,0.02750
3059.06,0.02692
3053.27,0.02661
3047.49,0.02669
3041.7,0.02684
3035.91,0.02698
3030.13,0.02699
3024.34,0.02755
3018.55,0.02736
3012.77,0.02650
3006.98,0.02600
3001.19,0.02700
2995.41,0.02630
2989.62,0.02649
2983.84,0.02631
2978.05,0.02628
2972.26,0.02587
2966.48,0.02595
2960.69,0.02533
2954.9,0.02552
2949.12,0.02583
2943.33,0.02610
2937.54,0.02538
2931.76,0.02554
2925.97,0.02579
2920.19,0.02614
2914.4,0.02652
2908.61,0.02660
2902.83,0.02669
2897.04,0.02659
2891.25,0.02688
2885.47,0.02686
2879.68,0.02651
2873.89,0.02630
2868.11,0.02676
2862.32,0.02704
2856.54,0.02673
2850.75,0.02714
2844.96,0.02755
2839.18,0.02783
2833.39,0.02741
2827.6,0.02713
2821.82,0.02755
2816.03,0.02749
2810.24,0.02790
2804.46,0.02749
2798.67,0.02739
2792.89,0.02730
2787.1,0.02729
2781.31,0.02796
2775.53,0.02729
2769.74,0.02689
2763.95,0.02775
2758.17,0.02774
2752.38,0.02742
2746.59,0.02760
2740.81,0.02720
2735.02,0.02735
2729.24,0.02744
2723.45,0.02721
2717.66,0.02738
2711.88,0.02770
2706.09,0.02743
2700.3,0.02725
2694.52,0.02755
2688.73,0.02749
2682.94,0.02785
2677.16,0.02734
2671.37,0.02728
2665.59,0.02715
2659.8,0.02690
2654.01,0.02747
2648.23,0.02712
2642.44,0.02758
2636.65,0.02751
2630.87,0.02737
2625.08,0.02767
2619.29,0.02758
2613.51,0.02723
2607.72,0.02745
2601.94,0.02722
2596.15,0.02735
2590.36,0.02710
2584.58,0.02751
2578.79,0.02725
2573,0.02711
2567.22,0.02729
2561.43,0.02761
2555.64,0.02714
2549.86,0.02736
2544.07,0.02705
2538.29,0.02732
2532.5,0.02760
2526.71,0.02710
2520.93,0.02721
2515.14,0.02731
2509.35,0.02751
2503.57,0.02717
2497.78,0.02730
2491.99,0.02738
2486.21,0.02719
2480.42,0.02711
2474.64,0.02682
2468.85,0.02692
2463.06,0.02677
2457.28,0.02711
2451.49,0.02707
2445.7,0.02681
2439.92,0.02715
2434.13,0.02675
2428.34,0.02695
2422.56,0.02691
2416.77,0.02702
2410.99,0.02719
2405.2,0.02691
2399.41,0.02687
2393.63,0.02680
2387.84,0.02733
2382.05,0.02656
2376.27,0.02738
2370.48,0.02752
2364.69,0.02746
2358.91,0.02683
2353.12,0.02772
2347.34,0.02707
2341.55,0.02743
2335.76,0.02719
2329.98,0.02707
2324.19,0.02727
2318.4,0.02689
2312.62,0.02663
2306.83,0.02689
2301.04,0.02692
2295.26,0.02692
2289.47,0.02667
2283.69,0.02691
2277.9,0.02636
2272.11,0.02640
2266.33,0.02653
2260.54,0.02674
2254.75,0.02671
2248.97,0.02664
2243.18,0.02651
2237.39,0.02644
2231.61,0.02643
2225.82,0.02669
2220.04,0.02657
2214.25,0.02632
2208.46,0.02639
2202.68,0.02634
2196.89,0.02604
2191.1,0.02650
2185.32,0.02590
2179.53,0.02614
2173.74,0.02642
2167.96,0.02626
2162.17,0.02610
2156.39,0.02638
2150.6,0.02617
2144.81,0.02615
2139.03,0.02581
2133.24,0.02600
2127.45,0.02602
2121.67,0.02597
2115.88,0.02619
2110.09,0.02630
2104.31,0.02621
2098.52,0.02590
2092.74,0.02600
2086.95,0.02590
2081.16,0.02611
2075.38,0.02622
2069.59,0.02580
2063.8,0.02601
2058.02,0.02583
2052.23,0.02604
2046.44,0.02592
2040.66,0.02601
2034.87,0.02594
2029.09,0.02628
2023.3,0.02575
2017.51,0.02617
2011.73,0.02600
2005.94,0.02591
2000.15,0.02577
1994.37,0.02578
1988.58,0.02595
1982.79,0.02582
1977.01,0.02574
1971.22,0.02579
1965.44,0.02592
1959.65,0.02588
1953.86,0.02579
1948.08,0.02540
1942.29,0.02552
1936.5,0.02604
1930.72,0.02581
1924.93,0.02546
1919.14,0.02570
1913.36,0.02562
1907.57,0.02585
1901.79,0.02537
1896,0.02554
1890.21,0.02563
1884.43,0.02539
1878.64,0.02527
1872.85,0.02542
1867.07,0.02502
1861.28,0.02490
1855.49,0.02500
1849.71,0.02482
1843.92,0.02521
1838.14,0.02497
1832.35,0.02494
1826.56,0.02457
1820.78,0.02461
1814.99,0.02428
1809.2,0.02458
1803.42,0.02403
1797.63,0.02402
1791.84,0.02355
1786.06,0.02370
1780.27,0.02367
1774.49,0.02308
1768.7,0.02283
1762.91,0.02259
1757.13,0.02177
1751.34,0.02191
1745.55,0.02208
1739.77,0.02270
1733.98,0.02390
1728.19,0.02449
1722.41,0.02466
1716.62,0.02504
1710.84,0.02444
1705.05,0.02432
1699.26,0.02369
1693.48,0.02315
1687.69,0.02331
1681.9,0.02202
1676.12,0.02257
1670.33,0.02283
1664.54,0.02213
1658.76,0.02217
1652.97,0.02179
1647.19,0.02225
1641.4,0.02222
1635.61,0.02226
1629.83,0.02263
1624.04,0.02308
1618.25,0.02289
1612.47,0.02283
1606.68,0.02260
1600.89,0.02262
1595.11,0.02258
1589.32,0.02245
1583.54,0.02213
1577.75,0.02251
1571.96,0.02200
1566.18,0.02177
1560.39,0.02230
1554.6,0.02162
1548.82,0.02179
1543.03,0.02178
1537.24,0.02212
1531.46,0.02222
1525.67,0.02274
1519.89,0.02208
1514.1,0.02205
1508.31,0.02270
1502.53,0.02236
1496.74,0.02224
1490.95,0.02260
1485.17,0.02199
1479.38,0.02182
1473.59,0.02176
1467.81,0.02176
1462.02,0.02242
1456.24,0.02160
1450.45,0.02207
1444.66,0.02178
1438.88,0.02196
1433.09,0.02161
1427.3,0.02162
1421.52,0.02198
1415.73,0.02163
1409.94,0.02151
1404.16,0.02108
1398.37,0.02075
1392.59,0.02055
1386.8,0.02113
1381.01,0.02106
1375.23,0.02103
1369.44,0.02095
1363.65,0.02133
1357.87,0.02119
1352.08,0.02113
1346.29,0.02085
1340.51,0.02096
1334.72,0.02063
1328.94,0.02047
1323.15,0.02000
1317.36,0.02026
1311.58,0.01958
1305.79,0.02012
1300,0.02021
1294.22,0.02096
1288.43,0.02075
1282.64,0.02148
1276.86,0.02159
1271.07,0.02179
1265.29,0.02224
1259.5,0.02251
1253.71,0.02288
1247.93,0.02238
1242.14,0.02268
1236.35,0.02250
1230.57,0.02208
1224.78,0.02179
1218.99,0.02230
1213.21,0.02214
1207.42,0.02145
1201.64,0.02159
1195.85,0.02089
1190.06,0.02090
1184.28,0.02104
1178.49,0.02093
1172.7,0.02024
1166.92,0.02081
1161.13,0.02032
1155.34,0.02008
1149.56,0.02052
1143.77,0.02030
1137.99,0.02048
1132.2,0.02069
1126.41,0.02131
1120.63,0.02161
1114.84,0.02149
1109.05,0.02244
1103.27,0.02228
1097.48,0.02220
1091.69,0.02167
1085.91,0.02228
1080.12,0.02291
1074.34,0.02377
1068.55,0.02399
1062.76,0.02347
1056.98,0.02416
1051.19,0.02333
1045.4,0.02379
1039.62,0.02407
1033.83,0.02351
1028.04,0.02293
1022.26,0.02350
1016.47,0.02285
1010.69,0.02326
1004.9,0.02397
999.112,0.02448
993.326,0.02434
987.54,0.02436
981.753,0.02438
975.967,0.02400
970.18,0.02372
964.394,0.02374
958.608,0.02339
952.821,0.02382
947.035,0.02298
941.249,0.02330
935.462,0.02344
929.676,0.02282
923.89,0.02322
918.103,0.02323
912.317,0.02267
906.53,0.02267
900.744,0.02287
894.958,0.02275
889.171,0.02198
883.385,0.02210
877.599,0.02177
871.812,0.02237
866.026,0.02181
860.24,0.02283
854.453,0.02169
848.667,0.02239
842.88,0.02214
837.094,0.02230
831.308,0.02193
825.521,0.02201
819.735,0.02180
813.949,0.02201
808.162,0.02139
802.376,0.02172
796.59,0.02152
790.803,0.02078
785.017,0.02104
779.23,0.02112
773.444,0.02127
767.658,0.02086
761.871,0.02072
756.085,0.02046
750.299,0.02001
744.512,0.02028
738.726,0.02065
732.94,0.02016
727.153,0.02079
721.367,0.01956
715.58,0.02044
709.794,0.01847
704.008,0.01903
698.221,0.01933
692.435,0.01955
686.649,0.01970
680.862,0.01848
675.076,0.01870
669.29,0.01732
663.503,0.01882
657.717,0.02002
651.93,0.01936
646.144,0.01749
640.358,0.01794
634.571,0.01736
628.785,0.01936
622.999,0.02032
617.212,0.01743
611.426,0.01735
605.639,0.01990
599.853,0.01761