File: 01_Data/PEVA/FTIR/IS/PEVA_0.10_IS_S_240808_R2.dpt
7496.93,0.09862
7491.14,0.10067
7485.35,0.10455
7479.57,0.10281
7473.78,0.09720
7468,0.08801
7462.21,0.08859
7456.42,0.09669
7450.64,0.10048
7444.85,0.10302
7439.06,0.08902
7433.28,0.11064
7427.49,0.08943
7421.71,0.09750
7415.92,0.10528
7410.13,0.09552
7404.35,0.10485
7398.56,0.08954
7392.78,0.08872
7386.99,0.10573
7381.2,0.10195
7375.42,0.10889
7369.63,0.09521
7363.84,0.09921
7358.06,0.08376
7352.27,0.09305
7346.49,0.11140
7340.7,0.09510
7334.91,0.10775
7329.13,0.09738
7323.34,0.08945
7317.56,0.09049
7311.77,0.08896
7305.98,0.09378
7300.2,0.09321
7294.41,0.09487
7288.62,0.09533
7282.84,0.10486
7277.05,0.10220
7271.27,0.10480
7265.48,0.09735
7259.69,0.09859
7253.91,0.09817
7248.12,0.09172
7242.34,0.08613
7236.55,0.09986
7230.76,0.09558
7224.98,0.08958
7219.19,0.09524
7213.4,0.09018
7207.62,0.10071
7201.83,0.10087
7196.05,0.10067
7190.26,0.09572
7184.47,0.08540
7178.69,0.08639
7172.9,0.09388
7167.12,0.09017
7161.33,0.09712
7155.54,0.10007
7149.76,0.08692
7143.97,0.09706
7138.18,0.10432
7132.4,0.10002
7126.61,0.09783
7120.83,0.09206
7115.04,0.09691
7109.25,0.10079
7103.47,0.10322
7097.68,0.09884
7091.9,0.09378
7086.11,0.09767
7080.32,0.09775
7074.54,0.09357
7068.75,0.09176
7062.96,0.09954
7057.18,0.09418
7051.39,0.09484
7045.61,0.09763
7039.82,0.09869
7034.03,0.10049
7028.25,0.09628
7022.46,0.10171
7016.68,0.10095
7010.89,0.09720
7005.1,0.09126
6999.32,0.09495
6993.53,0.08975
6987.74,0.10116
6981.96,0.09683
6976.17,0.09993
6970.39,0.10197
6964.6,0.10232
6958.81,0.09438
6953.03,0.09428
6947.24,0.09354
6941.46,0.09219
6935.67,0.09288
6929.88,0.10124
6924.1,0.09917
6918.31,0.09665
6912.52,0.09446
6906.74,0.09777
6900.95,0.09404
6895.17,0.09642
6889.38,0.09884
6883.59,0.10421
6877.81,0.10571
6872.02,0.09546
6866.24,0.09951
6860.45,0.09834
6854.66,0.10020
6848.88,0.09353
6843.09,0.09341
6837.3,0.09650
6831.52,0.09774
6825.73,0.09113
6819.95,0.10147
6814.16,0.09907
6808.37,0.09315
6802.59,0.09155
6796.8,0.10025
6791.02,0.10074
6785.23,0.09483
6779.44,0.09812
6773.66,0.10346
6767.87,0.10109
6762.08,0.09602
6756.3,0.09399
6750.51,0.08510
6744.73,0.09221
6738.94,0.09565
6733.15,0.09592
6727.37,0.09463
6721.58,0.09345
6715.8,0.09468
6710.01,0.09529
6704.22,0.09884
6698.44,0.10154
6692.65,0.09870
6686.86,0.09848
6681.08,0.09786
6675.29,0.09069
6669.51,0.08990
6663.72,0.09431
6657.93,0.10023
6652.15,0.09859
6646.36,0.10208
6640.58,0.09036
6634.79,0.09759
6629,0.09379
6623.22,0.09588
6617.43,0.09588
6611.64,0.09474
6605.86,0.09228
6600.07,0.09820
6594.29,0.08758
6588.5,0.09324
6582.71,0.09753
6576.93,0.09554
6571.14,0.09863
6565.36,0.09708
6559.57,0.09934
6553.78,0.09535
6548,0.09599
6542.21,0.09413
6536.42,0.09702
6530.64,0.09653
6524.85,0.09467
6519.07,0.09896
6513.28,0.09545
6507.49,0.09810
6501.71,0.09626
6495.92,0.09862
6490.14,0.09277
6484.35,0.09674
6478.56,0.09929
6472.78,0.10398
6466.99,0.09933
6461.2,0.09726
6455.42,0.09973
6449.63,0.09833
6443.85,0.09575
6438.06,0.09593
6432.27,0.09916
6426.49,0.09308
6420.7,0.09490
6414.92,0.09371
6409.13,0.09638
6403.34,0.10135
6397.56,0.09562
6391.77,0.09471
6385.98,0.09743
6380.2,0.09661
6374.41,0.09526
6368.63,0.09637
6362.84,0.09173
6357.05,0.09544
6351.27,0.09960
6345.48,0.09831
6339.7,0.09736
6333.91,0.09297
6328.12,0.09236
6322.34,0.09849
6316.55,0.09781
6310.76,0.09894
6304.98,0.09616
6299.19,0.10065
6293.41,0.09890
6287.62,0.09497
6281.83,0.09892
6276.05,0.09576
6270.26,0.09717
6264.48,0.09622
6258.69,0.09354
6252.9,0.09257
6247.12,0.09646
6241.33,0.09385
6235.54,0.09709
6229.76,0.09776
6223.97,0.09707
6218.19,0.09526
6212.4,0.10006
6206.61,0.09933
6200.83,0.09896
6195.04,0.09848
6189.26,0.09745
6183.47,0.10021
6177.68,0.09769
6171.9,0.09739
6166.11,0.09779
6160.32,0.09952
6154.54,0.09475
6148.75,0.09899
6142.97,0.09844
6137.18,0.09787
6131.39,0.09802
6125.61,0.09701
6119.82,0.09602
6114.04,0.09892
6108.25,0.09617
6102.46,0.09774
6096.68,0.09508
6090.89,0.09552
6085.1,0.09611
6079.32,0.09445
6073.53,0.09537
6067.75,0.09769
6061.96,0.09835
6056.17,0.09730
6050.39,0.09698
6044.6,0.09722
6038.82,0.09466
6033.03,0.10062
6027.24,0.09725
6021.46,0.09725
6015.67,0.09634
6009.88,0.09824
6004.1,0.09665
5998.31,0.09459
5992.53,0.09389
5986.74,0.09894
5980.95,0.09765
5975.17,0.09690
5969.38,0.09820
5963.6,0.09618
5957.81,0.09786
5952.02,0.09493
5946.24,0.09605
5940.45,0.09478
5934.66,0.09506
5928.88,0.09434
5923.09,0.09885
5917.31,0.09726
5911.52,0.09441
5905.73,0.09349
5899.95,0.09375
5894.16,0.09693
5888.38,0.09445
5882.59,0.09440
5876.8,0.09840
5871.02,0.09384
5865.23,0.09386
5859.44,0.09313
5853.66,0.09201
5847.87,0.09305
5842.09,0.09296
5836.3,0.09231
5830.51,0.09059
5824.73,0.09006
5818.94,0.09086
5813.16,0.08860
5807.37,0.09100
5801.58,0.08903
5795.8,0.09091
5790.01,0.08737
5784.22,0.08630
5778.44,0.08588
5772.65,0.08580
5766.87,0.08408
5761.08,0.09043
5755.29,0.08975
5749.51,0.09012
5743.72,0.09239
5737.94,0.09424
5732.15,0.09234
5726.36,0.09475
5720.58,0.08932
5714.79,0.09468
5709,0.09423
5703.22,0.09268
5697.43,0.09494
5691.65,0.09284
5685.86,0.09043
5680.07,0.09076
5674.29,0.09151
5668.5,0.09152
5662.72,0.09437
5656.93,0.09214
5651.14,0.09064
5645.36,0.09332
5639.57,0.09466
5633.78,0.09430
5628,0.09616
5622.21,0.09537
5616.43,0.09402
5610.64,0.09448
5604.85,0.09573
5599.07,0.09420
5593.28,0.09497
5587.5,0.09565
5581.71,0.09366
5575.92,0.09463
5570.14,0.09299
5564.35,0.09380
5558.56,0.09508
5552.78,0.09731
5546.99,0.09374
5541.21,0.09521
5535.42,0.09482
5529.63,0.09329
5523.85,0.09281
5518.06,0.09236
5512.28,0.09528
5506.49,0.09382
5500.7,0.09476
5494.92,0.09833
5489.13,0.09645
5483.34,0.09656
5477.56,0.09549
5471.77,0.09524
5465.99,0.09643
5460.2,0.09415
5454.41,0.09451
5448.63,0.09716
5442.84,0.09709
5437.06,0.09661
5431.27,0.09736
5425.48,0.09740
5419.7,0.09510
5413.91,0.09411
5408.12,0.09545
5402.34,0.09762
5396.55,0.09616
5390.77,0.09787
5384.98,0.09692
5379.19,0.09775
5373.41,0.09887
5367.62,0.09849
5361.84,0.09747
5356.05,0.09605
5350.26,0.09827
5344.48,0.09773
5338.69,0.09849
5332.9,0.09799
5327.12,0.09537
5321.33,0.09693
5315.55,0.09785
5309.76,0.09739
5303.97,0.09874
5298.19,0.09632
5292.4,0.09688
5286.62,0.09647
5280.83,0.09614
5275.04,0.09751
5269.26,0.09907
5263.47,0.10013
5257.68,0.09809
5251.9,0.09842
5246.11,0.09793
5240.33,0.09764
5234.54,0.09767
5228.75,0.09716
5222.97,0.09753
5217.18,0.09823
5211.4,0.09778
5205.61,0.09584
5199.82,0.09701
5194.04,0.09916
5188.25,0.09828
5182.46,0.09850
5176.68,0.09726
5170.89,0.09810
5165.11,0.09883
5159.32,0.09874
5153.53,0.09689
5147.75,0.09802
5141.96,0.09842
5136.18,0.09850
5130.39,0.09840
5124.6,0.09816
5118.82,0.09667
5113.03,0.09715
5107.24,0.09811
5101.46,0.09752
5095.67,0.09705
5089.89,0.09955
5084.1,0.09919
5078.31,0.09957
5072.53,0.09748
5066.74,0.09775
5060.96,0.09839
5055.17,0.09911
5049.38,0.09994
5043.6,0.09853
5037.81,0.09867
5032.02,0.09898
5026.24,0.09886
5020.45,0.09672
5014.67,0.09889
5008.88,0.09908
5003.09,0.09893
4997.31,0.09892
4991.52,0.09864
4985.74,0.09858
4979.95,0.09850
4974.16,0.09742
4968.38,0.09822
4962.59,0.09845
4956.8,0.09826
4951.02,0.09932
4945.23,0.09948
4939.45,0.09928
4933.66,0.09781
4927.87,0.09891
4922.09,0.09868
4916.3,0.10027
4910.52,0.09912
4904.73,0.09838
4898.94,0.09853
4893.16,0.09852
4887.37,0.09807
4881.58,0.09859
4875.8,0.10002
4870.01,0.09891
4864.23,0.09880
4858.44,0.09806
4852.65,0.09920
4846.87,0.09916
4841.08,0.09776
4835.3,0.09874
4829.51,0.09763
4823.72,0.09932
4817.94,0.09892
4812.15,0.09851
4806.36,0.10012
4800.58,0.10072
4794.79,0.09958
4789.01,0.09990
4783.22,0.09977
4777.43,0.09955
4771.65,0.10013
4765.86,0.09970
4760.08,0.10062
4754.29,0.09989
4748.5,0.10029
4742.72,0.09883
4736.93,0.10007
4731.14,0.09994
4725.36,0.10017
4719.57,0.10045
4713.79,0.09997
4708,0.09875
4702.21,0.10016
4696.43,0.09965
4690.64,0.09998
4684.86,0.09947
4679.07,0.09955
4673.28,0.10090
4667.5,0.10116
4661.71,0.10065
4655.92,0.10070
4650.14,0.10002
4644.35,0.10062
4638.57,0.10032
4632.78,0.09969
4626.99,0.10092
4621.21,0.10005
4615.42,0.10042
4609.64,0.09847
4603.85,0.09987
4598.06,0.10013
4592.28,0.09977
4586.49,0.09992
4580.7,0.10010
4574.92,0.10010
4569.13,0.10021
4563.35,0.10090
4557.56,0.10116
4551.77,0.10051
4545.99,0.09948
4540.2,0.09968
4534.42,0.09836
4528.63,0.09954
4522.84,0.09940
4517.06,0.09902
4511.27,0.09924
4505.48,0.09930
4499.7,0.09935
4493.91,0.09909
4488.13,0.09946
4482.34,0.09945
4476.55,0.09895
4470.77,0.09807
4464.98,0.09861
4459.2,0.09848
4453.41,0.09853
4447.62,0.09871
4441.84,0.09764
4436.05,0.09688
4430.26,0.09678
4424.48,0.09676
4418.69,0.09555
4412.91,0.09556
4407.12,0.09474
4401.33,0.09400
4395.55,0.09195
4389.76,0.09175
4383.98,0.09127
4378.19,0.08928
4372.4,0.08827
4366.62,0.08711
4360.83,0.08587
4355.04,0.08351
4349.26,0.08032
4343.47,0.07669
4337.69,0.07296
4331.9,0.07054
4326.11,0.06727
4320.33,0.06616
4314.54,0.07447
4308.76,0.08090
4302.97,0.08419
4297.18,0.08597
4291.4,0.08571
4285.61,0.08442
4279.82,0.08373
4274.04,0.08383
4268.25,0.08050
4262.47,0.07656
4256.68,0.07206
4250.89,0.06984
4245.11,0.07497
4239.32,0.08104
4233.54,0.08080
4227.75,0.07993
4221.96,0.07894
4216.18,0.07876
4210.39,0.07895
4204.6,0.07734
4198.82,0.07666
4193.03,0.07470
4187.25,0.07557
4181.46,0.07562
4175.67,0.07677
4169.89,0.07623
4164.1,0.07674
4158.32,0.07583
4152.53,0.07575
4146.74,0.07605
4140.96,0.07632
4135.17,0.07771
4129.38,0.07774
4123.6,0.07733
4117.81,0.07751
4112.03,0.07731
4106.24,0.07690
4100.45,0.07783
4094.67,0.07810
4088.88,0.07943
4083.1,0.08101
4077.31,0.08164
4071.52,0.08263
4065.74,0.08381
4059.95,0.08454
4054.16,0.08535
4048.38,0.08524
4042.59,0.08619
4036.81,0.08627
4031.02,0.08593
4025.23,0.08701
4019.45,0.08689
4013.66,0.08789
4007.88,0.08923
4002.09,0.08888
3996.3,0.08882
3990.52,0.08935
3984.73,0.08988
3978.94,0.09040
3973.16,0.08859
3967.37,0.08917
3961.59,0.08996
3955.8,0.09019
3950.01,0.09005
3944.23,0.09019
3938.44,0.08985
3932.66,0.08877
3926.87,0.08873
3921.08,0.08917
3915.3,0.08824
3909.51,0.08909
3903.72,0.08886
3897.94,0.08846
3892.15,0.08874
3886.37,0.09014
3880.58,0.08939
3874.79,0.08950
3869.01,0.08897
3863.22,0.08866
3857.44,0.08968
3851.65,0.09062
3845.86,0.09125
3840.08,0.09076
3834.29,0.09089
3828.5,0.08967
3822.72,0.09061
3816.93,0.09100
3811.15,0.09115
3805.36,0.09102
3799.57,0.09146
3793.79,0.09159
3788,0.09198
3782.22,0.09304
3776.43,0.09287
3770.64,0.09240
3764.86,0.09342
3759.07,0.09276
3753.28,0.09378
3747.5,0.09384
3741.71,0.09457
3735.93,0.09353
3730.14,0.09320
3724.35,0.09250
3718.57,0.09316
3712.78,0.09250
3707,0.09246
3701.21,0.09318
3695.42,0.09216
3689.64,0.09304
3683.85,0.09215
3678.06,0.09150
3672.28,0.09180
3666.49,0.09121
3660.71,0.09046
3654.92,0.08953
3649.13,0.08951
3643.35,0.08809
3637.56,0.09029
3631.78,0.09053
3625.99,0.08978
3620.2,0.08802
3614.42,0.08700
3608.63,0.08470
3602.84,0.08540
3597.06,0.08877
3591.27,0.09152
3585.49,0.09212
3579.7,0.09268
3573.91,0.09445
3568.13,0.09558
3562.34,0.09524
3556.56,0.09587
3550.77,0.09524
3544.98,0.09443
3539.2,0.09575
3533.41,0.09670
3527.62,0.09625
3521.84,0.09598
3516.05,0.09598
3510.27,0.09518
3504.48,0.09586
3498.69,0.09568
3492.91,0.09575
3487.12,0.09564
3481.34,0.09508
3475.55,0.09423
3469.76,0.09469
3463.98,0.09505
3458.19,0.09483
3452.4,0.09398
3446.62,0.09337
3440.83,0.09238
3435.05,0.09445
3429.26,0.09427
3423.47,0.09431
3417.69,0.09287
3411.9,0.09292
3406.12,0.09307
3400.33,0.09366
3394.54,0.09410
3388.76,0.09464
3382.97,0.09289
3377.18,0.09178
3371.4,0.09144
3365.61,0.09189
3359.83,0.09310
3354.04,0.09317
3348.25,0.09285
3342.47,0.09162
3336.68,0.09229
3330.9,0.09324
3325.11,0.09393
3319.32,0.09306
3313.54,0.09290
3307.75,0.09283
3301.96,0.09322
3296.18,0.09423
3290.39,0.09466
3284.61,0.09364
3278.82,0.09224
3273.03,0.09270
3267.25,0.09321
3261.46,0.09411
3255.68,0.09415
3249.89,0.09327
3244.1,0.09201
3238.32,0.09148
3232.53,0.09238
3226.74,0.09389
3220.96,0.09356
3215.17,0.09158
3209.39,0.08960
3203.6,0.09046
3197.81,0.09132
3192.03,0.09244
3186.24,0.09052
3180.46,0.08953
3174.67,0.08819
3168.88,0.08944
3163.1,0.09018
3157.31,0.08936
3151.52,0.08787
3145.74,0.08642
3139.95,0.08668
3134.17,0.08748
3128.38,0.08772
3122.59,0.08552
3116.81,0.08281
3111.02,0.08293
3105.24,0.08234
3099.45,0.08055
3093.66,0.07716
3087.88,0.07359
3082.09,0.07301
3076.3,0.07310
3070.52,0.07293
3064.73,0.07050
3058.95,0.06792
3053.16,0.06788
3047.37,0.06747
3041.59,0.06516
3035.8,0.06255
3030.02,0.06171
3024.23,0.06127
3018.44,0.05941
3012.66,0.05774
3006.87,0.05811
3001.08,0.05665
2995.3,0.05413
2989.51,0.05299
2983.73,0.05106
2977.94,0.05054
2972.15,0.04885
2966.37,0.04793
2960.58,0.04701
2954.8,0.04616
2949.01,0.04411
2943.22,0.04146
2937.44,0.03898
2931.65,0.03940
2925.86,0.04865
2920.08,0.07177
2914.29,0.08783
2908.51,0.07885
2902.72,0.07272
2896.93,0.06987
2891.15,0.06875
2885.36,0.06633
2879.58,0.06416
2873.79,0.06160
2868,0.05867
2862.22,0.05471
2856.43,0.05340
2850.64,0.07002
2844.86,0.08416
2839.07,0.07628
2833.29,0.07211
2827.5,0.06996
2821.71,0.06792
2815.93,0.06706
2810.14,0.06702
2804.36,0.06690
2798.57,0.06652
2792.78,0.06730
2787,0.06882
2781.21,0.06865
2775.42,0.06980
2769.64,0.07234
2763.85,0.07204
2758.07,0.07167
2752.28,0.07335
2746.49,0.07399
2740.71,0.07357
2734.92,0.07196
2729.14,0.07273
2723.35,0.07462
2717.56,0.07572
2711.78,0.07456
2705.99,0.07377
2700.2,0.07455
2694.42,0.07586
2688.63,0.07554
2682.85,0.07382
2677.06,0.07203
2671.27,0.07163
2665.49,0.07311
2659.7,0.07341
2653.92,0.07350
2648.13,0.07214
2642.34,0.07163
2636.56,0.07225
2630.77,0.07390
2624.98,0.07566
2619.2,0.07626
2613.41,0.07640
2607.63,0.07787
2601.84,0.08024
2596.05,0.08229
2590.27,0.08306
2584.48,0.08345
2578.7,0.08270
2572.91,0.08538
2567.12,0.08820
2561.34,0.08948
2555.55,0.08888
2549.76,0.08748
2543.98,0.08812
2538.19,0.09036
2532.41,0.09181
2526.62,0.09206
2520.83,0.09167
2515.05,0.09129
2509.26,0.09259
2503.48,0.09412
2497.69,0.09605
2491.9,0.09629
2486.12,0.09451
2480.33,0.09335
2474.55,0.09402
2468.76,0.09626
2462.97,0.09834
2457.19,0.09838
2451.4,0.09659
2445.61,0.09546
2439.83,0.09585
2434.04,0.09696
2428.26,0.09788
2422.47,0.09671
2416.68,0.09487
2410.9,0.09393
2405.11,0.09451
2399.32,0.09672
2393.54,0.09771
2387.75,0.09745
2381.97,0.09544
2376.18,0.09411
2370.39,0.09413
2364.61,0.09474
2358.82,0.09430
2353.04,0.09253
2347.25,0.08966
2341.46,0.08760
2335.68,0.08828
2329.89,0.08997
2324.11,0.09111
2318.32,0.09215
2312.53,0.09203
2306.75,0.09083
2300.96,0.09205
2295.17,0.09384
2289.39,0.09578
2283.6,0.09548
2277.82,0.09471
2272.03,0.09328
2266.24,0.09431
2260.46,0.09638
2254.67,0.09812
2248.89,0.09797
2243.1,0.09642
2237.31,0.09588
2231.53,0.09651
2225.74,0.09770
2219.95,0.09946
2214.17,0.09946
2208.38,0.09805
2202.6,0.09670
2196.81,0.09630
2191.02,0.09741
2185.24,0.09932
2179.45,0.09977
2173.67,0.09800
2167.88,0.09640
2162.09,0.09588
2156.31,0.09658
2150.52,0.09819
2144.73,0.09871
2138.95,0.09843
2133.16,0.09709
2127.38,0.09652
2121.59,0.09838
2115.8,0.10030
2110.02,0.10136
2104.23,0.10009
2098.45,0.09781
2092.66,0.09680
2086.87,0.09757
2081.09,0.09987
2075.3,0.10034
2069.51,0.09870
2063.73,0.09642
2057.94,0.09482
2052.16,0.09580
2046.37,0.09717
2040.58,0.09792
2034.8,0.09564
2029.01,0.09265
2023.23,0.09037
2017.44,0.09072
2011.65,0.09545
2005.87,0.09955
2000.08,0.10020
1994.29,0.09806
1988.51,0.09648
1982.72,0.09706
1976.94,0.09957
1971.15,0.10172
1965.36,0.10116
1959.58,0.09793
1953.79,0.09590
1948.01,0.09597
1942.22,0.09868
1936.43,0.10104
1930.65,0.10074
1924.86,0.09757
1919.07,0.09444
1913.29,0.09424
1907.5,0.09623
1901.72,0.09808
1895.93,0.09767
1890.14,0.09631
1884.36,0.09499
1878.57,0.09511
1872.79,0.09863
1867,0.10171
1861.21,0.10280
1855.43,0.09997
1849.64,0.09623
1843.85,0.09511
1838.07,0.09827
1832.28,0.10185
1826.5,0.10186
1820.71,0.09826
1814.92,0.09467
1809.14,0.09349
1803.35,0.09620
1797.57,0.10036
1791.78,0.10187
1785.99,0.09890
1780.21,0.09411
1774.42,0.09255
1768.63,0.09427
1762.85,0.09788
1757.06,0.09822
1751.28,0.09383
1745.49,0.08685
1739.7,0.08586
1733.92,0.09075
1728.13,0.09568
1722.35,0.09723
1716.56,0.09420
1710.77,0.09031
1704.99,0.08831
1699.2,0.09078
1693.41,0.09682
1687.63,0.10078
1681.84,0.09714
1676.06,0.09235
1670.27,0.08898
1664.48,0.09100
1658.7,0.09630
1652.91,0.09894
1647.13,0.09581
1641.34,0.08948
1635.55,0.08631
1629.77,0.08876
1623.98,0.09460
1618.19,0.09832
1612.41,0.09579
1606.62,0.08935
1600.84,0.08580
1595.05,0.08770
1589.26,0.09353
1583.48,0.09693
1577.69,0.09426
1571.91,0.08736
1566.12,0.08407
1560.33,0.08715
1554.55,0.09315
1548.76,0.09521
1542.97,0.09107
1537.19,0.08321
1531.4,0.08134
1525.62,0.08489
1519.83,0.09013
1514.04,0.08828
1508.26,0.08058
1502.47,0.07328
1496.69,0.07573
1490.9,0.07667
1485.11,0.06495
1479.33,0.05648
1473.54,0.05321
1467.75,0.05602
1461.97,0.06005
1456.18,0.06094
1450.4,0.06104
1444.61,0.05988
1438.82,0.05966
1433.04,0.06427
1427.25,0.07770
1421.47,0.08278
1415.68,0.07680
1409.89,0.07759
1404.11,0.08697
1398.32,0.09255
1392.53,0.08686
1386.75,0.07494
1380.96,0.06330
1375.18,0.06311
1369.39,0.06669
1363.6,0.07111
1357.82,0.07242
1352.03,0.06705
1346.25,0.06556
1340.46,0.07057
1334.67,0.08250
1328.89,0.08906
1323.1,0.08376
1317.31,0.07241
1311.53,0.06600
1305.74,0.06841
1299.96,0.07564
1294.17,0.08259
1288.38,0.08318
1282.6,0.07656
1276.81,0.07156
1271.03,0.07502
1265.24,0.08502
1259.45,0.09329
1253.67,0.09168
1247.88,0.08218
1242.09,0.07587
1236.31,0.07964
1230.52,0.09067
1224.74,0.09848
1218.95,0.09535
1213.16,0.08455
1207.38,0.07610
1201.59,0.08028
1195.81,0.09161
1190.02,0.09966
1184.23,0.09534
1178.45,0.08290
1172.66,0.07485
1166.87,0.07857
1161.09,0.09061
1155.3,0.09900
1149.52,0.09627
1143.73,0.08397
1137.94,0.07518
1132.16,0.07800
1126.37,0.09280
1120.59,0.10424
1114.8,0.10118
1109.01,0.08771
1103.23,0.07638
1097.44,0.07893
1091.65,0.09077
1085.87,0.10101
1080.08,0.09949
1074.3,0.08855
1068.51,0.07686
1062.72,0.07780
1056.94,0.09239
1051.15,0.10661
1045.37,0.10767
1039.58,0.09337
1033.79,0.07856
1028.01,0.07850
1022.22,0.09197
1016.43,0.10616
1010.65,0.11240
1004.86,0.10057
999.076,0.08255
993.29,0.07796
987.504,0.09240
981.717,0.11159
975.931,0.11436
970.145,0.09840
964.359,0.07799
958.573,0.07270
952.787,0.08767
947,0.10929
941.214,0.11625
935.428,0.10224
929.642,0.07947
923.856,0.07195
918.07,0.08626
912.284,0.10871
906.497,0.11711
900.711,0.10360
894.925,0.07883
889.139,0.06777
883.353,0.08264
877.567,0.10897
871.78,0.12044
865.994,0.10606
860.208,0.07989
854.422,0.06671
848.636,0.08108
842.85,0.10903
837.064,0.12185
831.277,0.10717
825.491,0.07844
819.705,0.06407
813.919,0.07902
808.133,0.10712
802.347,0.11968
796.56,0.10236
790.774,0.07167
784.988,0.05815
779.202,0.07391
773.416,0.09869
767.63,0.10924
761.844,0.09085
756.057,0.06080
750.271,0.05539
744.485,0.08022
738.699,0.08327
732.913,0.05102
727.127,0.05630
721.34,0.05603
715.554,0.06843
709.768,0.07520
703.982,0.05489
698.196,0.07399
692.41,0.11782
686.624,0.12936
680.837,0.09614
675.051,0.06028
669.265,0.06251
663.479,0.10232
657.693,0.13696
651.907,0.13071
646.12,0.09038
640.334,0.05753
634.548,0.06459
628.762,0.10874
622.976,0.14294
617.19,0.13440
611.404,0.09047
605.617,0.05445
599.831,0.06010