File: 01_Data/PEVA/FTIR/IS/PEVA_0.18_IS_T_240809_R11.dpt
7497.33,0.05069
7491.55,0.04137
7485.76,0.03054
7479.97,0.02817
7474.19,0.02922
7468.4,0.03933
7462.61,0.03908
7456.83,0.02637
7451.04,0.03535
7445.26,0.04334
7439.47,0.03866
7433.68,0.03643
7427.9,0.02607
7422.11,0.02853
7416.32,0.02148
7410.54,0.04152
7404.75,0.02655
7398.96,0.04444
7393.18,0.04895
7387.39,0.03877
7381.6,0.03123
7375.82,0.03390
7370.03,0.02886
7364.24,0.04109
7358.46,0.03490
7352.67,0.02255
7346.89,0.04181
7341.1,0.04010
7335.31,0.04091
7329.53,0.03898
7323.74,0.02704
7317.95,0.03029
7312.17,0.03288
7306.38,0.02396
7300.59,0.03293
7294.81,0.03678
7289.02,0.03044
7283.23,0.02213
7277.45,0.02636
7271.66,0.03232
7265.87,0.03764
7260.09,0.04273
7254.3,0.04601
7248.52,0.03624
7242.73,0.03187
7236.94,0.03089
7231.16,0.04070
7225.37,0.03448
7219.58,0.03154
7213.8,0.03533
7208.01,0.03697
7202.22,0.03915
7196.44,0.03883
7190.65,0.04113
7184.86,0.04656
7179.08,0.03109
7173.29,0.02756
7167.5,0.04212
7161.72,0.03868
7155.93,0.04763
7150.15,0.04301
7144.36,0.03595
7138.57,0.02666
7132.79,0.02367
7127,0.03880
7121.21,0.03713
7115.43,0.03477
7109.64,0.03155
7103.85,0.03193
7098.07,0.04164
7092.28,0.03934
7086.49,0.02849
7080.71,0.03615
7074.92,0.04071
7069.13,0.03014
7063.35,0.03707
7057.56,0.02643
7051.78,0.03217
7045.99,0.03673
7040.2,0.03371
7034.42,0.03050
7028.63,0.03513
7022.84,0.03182
7017.06,0.03093
7011.27,0.03671
7005.48,0.03727
6999.7,0.03529
6993.91,0.03459
6988.12,0.03065
6982.34,0.02768
6976.55,0.02656
6970.76,0.03336
6964.98,0.03337
6959.19,0.03485
6953.41,0.02944
6947.62,0.02991
6941.83,0.03705
6936.05,0.02941
6930.26,0.03480
6924.47,0.03527
6918.69,0.02824
6912.9,0.04081
6907.11,0.03626
6901.33,0.03169
6895.54,0.03695
6889.75,0.03644
6883.97,0.03130
6878.18,0.03248
6872.39,0.03590
6866.61,0.03977
6860.82,0.04120
6855.04,0.03735
6849.25,0.03548
6843.46,0.03447
6837.68,0.03205
6831.89,0.03586
6826.1,0.02797
6820.32,0.03321
6814.53,0.03633
6808.74,0.03404
6802.96,0.02999
6797.17,0.03316
6791.38,0.02680
6785.6,0.03772
6779.81,0.02799
6774.03,0.02991
6768.24,0.03321
6762.45,0.03233
6756.67,0.02996
6750.88,0.03240
6745.09,0.03071
6739.31,0.03469
6733.52,0.03764
6727.73,0.03083
6721.95,0.02727
6716.16,0.03260
6710.37,0.02620
6704.59,0.02982
6698.8,0.03875
6693.01,0.03236
6687.23,0.03048
6681.44,0.03136
6675.66,0.03159
6669.87,0.03111
6664.08,0.03604
6658.3,0.02437
6652.51,0.02958
6646.72,0.04222
6640.94,0.03114
6635.15,0.02869
6629.36,0.03463
6623.58,0.03178
6617.79,0.03604
6612,0.03442
6606.22,0.02797
6600.43,0.03187
6594.64,0.02934
6588.86,0.02958
6583.07,0.03265
6577.29,0.03159
6571.5,0.02728
6565.71,0.03003
6559.93,0.03471
6554.14,0.03137
6548.35,0.03243
6542.57,0.04061
6536.78,0.03702
6530.99,0.03626
6525.21,0.03253
6519.42,0.03084
6513.63,0.03124
6507.85,0.03884
6502.06,0.03183
6496.27,0.03076
6490.49,0.03127
6484.7,0.03207
6478.92,0.02713
6473.13,0.03110
6467.34,0.03205
6461.56,0.03475
6455.77,0.03270
6449.98,0.02371
6444.2,0.02791
6438.41,0.03373
6432.62,0.03599
6426.84,0.03488
6421.05,0.02976
6415.26,0.03078
6409.48,0.03505
6403.69,0.03413
6397.9,0.02804
6392.12,0.02790
6386.33,0.03727
6380.55,0.03113
6374.76,0.03300
6368.97,0.02981
6363.19,0.03031
6357.4,0.03249
6351.61,0.03116
6345.83,0.02937
6340.04,0.03206
6334.25,0.03432
6328.47,0.03076
6322.68,0.02760
6316.89,0.02917
6311.11,0.03145
6305.32,0.02853
6299.53,0.03409
6293.75,0.03035
6287.96,0.03057
6282.18,0.02684
6276.39,0.03111
6270.6,0.03106
6264.82,0.03499
6259.03,0.03256
6253.24,0.02746
6247.46,0.03337
6241.67,0.03320
6235.88,0.03145
6230.1,0.03045
6224.31,0.02960
6218.52,0.03204
6212.74,0.03457
6206.95,0.03349
6201.16,0.03431
6195.38,0.02886
6189.59,0.03057
6183.81,0.03210
6178.02,0.03078
6172.23,0.02937
6166.45,0.03065
6160.66,0.03069
6154.87,0.02983
6149.09,0.03267
6143.3,0.02691
6137.51,0.02749
6131.73,0.02931
6125.94,0.03030
6120.15,0.02995
6114.37,0.03198
6108.58,0.02951
6102.79,0.02946
6097.01,0.02993
6091.22,0.03150
6085.44,0.02881
6079.65,0.03108
6073.86,0.02852
6068.08,0.02854
6062.29,0.02835
6056.5,0.03145
6050.72,0.02432
6044.93,0.02951
6039.14,0.02828
6033.36,0.03177
6027.57,0.03053
6021.78,0.02821
6016,0.03046
6010.21,0.02847
6004.42,0.03198
5998.64,0.03328
5992.85,0.02775
5987.07,0.03094
5981.28,0.02788
5975.49,0.02787
5969.71,0.03045
5963.92,0.03192
5958.13,0.03001
5952.35,0.02875
5946.56,0.02892
5940.77,0.02746
5934.99,0.03204
5929.2,0.03119
5923.41,0.03242
5917.63,0.03160
5911.84,0.02972
5906.05,0.02962
5900.27,0.03065
5894.48,0.02800
5888.7,0.03310
5882.91,0.03118
5877.12,0.03041
5871.34,0.03095
5865.55,0.02861
5859.76,0.02923
5853.98,0.03009
5848.19,0.03002
5842.4,0.02845
5836.62,0.03092
5830.83,0.03275
5825.04,0.02862
5819.26,0.03110
5813.47,0.02997
5807.68,0.03328
5801.9,0.03267
5796.11,0.03254
5790.33,0.02897
5784.54,0.03283
5778.75,0.02908
5772.97,0.03349
5767.18,0.03087
5761.39,0.03033
5755.61,0.03236
5749.82,0.03086
5744.03,0.03095
5738.25,0.03062
5732.46,0.03000
5726.67,0.03114
5720.89,0.03251
5715.1,0.03122
5709.31,0.02998
5703.53,0.02951
5697.74,0.03289
5691.96,0.03193
5686.17,0.03153
5680.38,0.02999
5674.6,0.03063
5668.81,0.03301
5663.02,0.03292
5657.24,0.03056
5651.45,0.03327
5645.66,0.03062
5639.88,0.03103
5634.09,0.03088
5628.3,0.02996
5622.52,0.02872
5616.73,0.02933
5610.94,0.02981
5605.16,0.02909
5599.37,0.02866
5593.59,0.03079
5587.8,0.03156
5582.01,0.03154
5576.23,0.02954
5570.44,0.03046
5564.65,0.03318
5558.87,0.03142
5553.08,0.02954
5547.29,0.02868
5541.51,0.03053
5535.72,0.03340
5529.93,0.02977
5524.15,0.03070
5518.36,0.02890
5512.58,0.02988
5506.79,0.03025
5501,0.03250
5495.22,0.03057
5489.43,0.02883
5483.64,0.02928
5477.86,0.02879
5472.07,0.02899
5466.28,0.02931
5460.5,0.02934
5454.71,0.02914
5448.92,0.03097
5443.14,0.03149
5437.35,0.02948
5431.56,0.03221
5425.78,0.03174
5419.99,0.02917
5414.21,0.02978
5408.42,0.03027
5402.63,0.03244
5396.85,0.02975
5391.06,0.03059
5385.27,0.03057
5379.49,0.02885
5373.7,0.02925
5367.91,0.02911
5362.13,0.02766
5356.34,0.03116
5350.55,0.02930
5344.77,0.03063
5338.98,0.03055
5333.19,0.02921
5327.41,0.03054
5321.62,0.03040
5315.84,0.02826
5310.05,0.03080
5304.26,0.03284
5298.48,0.02778
5292.69,0.03073
5286.9,0.03204
5281.12,0.02954
5275.33,0.03062
5269.54,0.03213
5263.76,0.03211
5257.97,0.03146
5252.18,0.02962
5246.4,0.03055
5240.61,0.03081
5234.82,0.03066
5229.04,0.03166
5223.25,0.03121
5217.47,0.03013
5211.68,0.03209
5205.89,0.03033
5200.11,0.02969
5194.32,0.02984
5188.53,0.03205
5182.75,0.02930
5176.96,0.03218
5171.17,0.03083
5165.39,0.03041
5159.6,0.02984
5153.81,0.03207
5148.03,0.03130
5142.24,0.02980
5136.45,0.03078
5130.67,0.02890
5124.88,0.02962
5119.1,0.03005
5113.31,0.02942
5107.52,0.03052
5101.74,0.03049
5095.95,0.02898
5090.16,0.02996
5084.38,0.03058
5078.59,0.03130
5072.8,0.02809
5067.02,0.02827
5061.23,0.02936
5055.44,0.02850
5049.66,0.02929
5043.87,0.03135
5038.08,0.03081
5032.3,0.03080
5026.51,0.03019
5020.73,0.02965
5014.94,0.02901
5009.15,0.02910
5003.37,0.03008
4997.58,0.02874
4991.79,0.02981
4986.01,0.02993
4980.22,0.03072
4974.43,0.03009
4968.65,0.03020
4962.86,0.03029
4957.07,0.03123
4951.29,0.03018
4945.5,0.02917
4939.71,0.03095
4933.93,0.02925
4928.14,0.02999
4922.36,0.02968
4916.57,0.03153
4910.78,0.03092
4905,0.03138
4899.21,0.03047
4893.42,0.03060
4887.64,0.03012
4881.85,0.03237
4876.06,0.03113
4870.28,0.03163
4864.49,0.03009
4858.7,0.03122
4852.92,0.03088
4847.13,0.02977
4841.34,0.03186
4835.56,0.02925
4829.77,0.02903
4823.99,0.03054
4818.2,0.03063
4812.41,0.02955
4806.63,0.03022
4800.84,0.03017
4795.05,0.03175
4789.27,0.02963
4783.48,0.03021
4777.69,0.03023
4771.91,0.02979
4766.12,0.03078
4760.33,0.03033
4754.55,0.03128
4748.76,0.03014
4742.97,0.03059
4737.19,0.02962
4731.4,0.03016
4725.62,0.03144
4719.83,0.03012
4714.04,0.03099
4708.26,0.03060
4702.47,0.03059
4696.68,0.03046
4690.9,0.03143
4685.11,0.03082
4679.32,0.02999
4673.54,0.03161
4667.75,0.03138
4661.96,0.03034
4656.18,0.02933
4650.39,0.02957
4644.6,0.03019
4638.82,0.03040
4633.03,0.03083
4627.25,0.03005
4621.46,0.02998
4615.67,0.03014
4609.89,0.03020
4604.1,0.03118
4598.31,0.03077
4592.53,0.02958
4586.74,0.03045
4580.95,0.03087
4575.17,0.03030
4569.38,0.02965
4563.59,0.03061
4557.81,0.02969
4552.02,0.03075
4546.23,0.03062
4540.45,0.03119
4534.66,0.03029
4528.88,0.03124
4523.09,0.03017
4517.3,0.02994
4511.52,0.03104
4505.73,0.03030
4499.94,0.03049
4494.16,0.03019
4488.37,0.03078
4482.58,0.02958
4476.8,0.03012
4471.01,0.02903
4465.22,0.02980
4459.44,0.02968
4453.65,0.02975
4447.86,0.03021
4442.08,0.03032
4436.29,0.02965
4430.51,0.02971
4424.72,0.03008
4418.93,0.03045
4413.15,0.02963
4407.36,0.02945
4401.57,0.02995
4395.79,0.03062
4390,0.02950
4384.21,0.03016
4378.43,0.03025
4372.64,0.03168
4366.85,0.02983
4361.07,0.03042
4355.28,0.03044
4349.49,0.03046
4343.71,0.03082
4337.92,0.03060
4332.14,0.02943
4326.35,0.03044
4320.56,0.03041
4314.78,0.03037
4308.99,0.03062
4303.2,0.02973
4297.42,0.02981
4291.63,0.02983
4285.84,0.03010
4280.06,0.03049
4274.27,0.03057
4268.48,0.03026
4262.7,0.02939
4256.91,0.03008
4251.13,0.03001
4245.34,0.03095
4239.55,0.03026
4233.77,0.02998
4227.98,0.02986
4222.19,0.03091
4216.41,0.03016
4210.62,0.02989
4204.83,0.03057
4199.05,0.02960
4193.26,0.02963
4187.47,0.03008
4181.69,0.03054
4175.9,0.02976
4170.11,0.02975
4164.33,0.02975
4158.54,0.03024
4152.76,0.02994
4146.97,0.03062
4141.18,0.02972
4135.4,0.02990
4129.61,0.03016
4123.82,0.02994
4118.04,0.03013
4112.25,0.03010
4106.46,0.03077
4100.68,0.02994
4094.89,0.03060
4089.1,0.03036
4083.32,0.02995
4077.53,0.02996
4071.74,0.03020
4065.96,0.02975
4060.17,0.02879
4054.39,0.03056
4048.6,0.03035
4042.81,0.03050
4037.03,0.02923
4031.24,0.02956
4025.45,0.02990
4019.67,0.03020
4013.88,0.03003
4008.09,0.02967
4002.31,0.03032
3996.52,0.03087
3990.73,0.03022
3984.95,0.03042
3979.16,0.02977
3973.37,0.03011
3967.59,0.02996
3961.8,0.03025
3956.02,0.03033
3950.23,0.02972
3944.44,0.03025
3938.66,0.02967
3932.87,0.02904
3927.08,0.02987
3921.3,0.02943
3915.51,0.03067
3909.72,0.03088
3903.94,0.02987
3898.15,0.02999
3892.36,0.03074
3886.58,0.02985
3880.79,0.02974
3875,0.02987
3869.22,0.03008
3863.43,0.02988
3857.65,0.03031
3851.86,0.02989
3846.07,0.02986
3840.29,0.03060
3834.5,0.02994
3828.71,0.03018
3822.93,0.03192
3817.14,0.02973
3811.35,0.03000
3805.57,0.02998
3799.78,0.03056
3793.99,0.03022
3788.21,0.03034
3782.42,0.02978
3776.63,0.03015
3770.85,0.02989
3765.06,0.03040
3759.28,0.03070
3753.49,0.03011
3747.7,0.03038
3741.92,0.03063
3736.13,0.03145
3730.34,0.02988
3724.56,0.02969
3718.77,0.02981
3712.98,0.03081
3707.2,0.03013
3701.41,0.02898
3695.62,0.02992
3689.84,0.03000
3684.05,0.02900
3678.26,0.03024
3672.48,0.02903
3666.69,0.02870
3660.91,0.02924
3655.12,0.02960
3649.33,0.03073
3643.55,0.02970
3637.76,0.02920
3631.97,0.02899
3626.19,0.02864
3620.4,0.02793
3614.61,0.02806
3608.83,0.02827
3603.04,0.02868
3597.25,0.02802
3591.47,0.02809
3585.68,0.02648
3579.89,0.02749
3574.11,0.02761
3568.32,0.02845
3562.54,0.02764
3556.75,0.02749
3550.96,0.02720
3545.18,0.02784
3539.39,0.02697
3533.6,0.02634
3527.82,0.02705
3522.03,0.02596
3516.24,0.02691
3510.46,0.02693
3504.67,0.02701
3498.88,0.02621
3493.1,0.02697
3487.31,0.02708
3481.52,0.02702
3475.74,0.02658
3469.95,0.02684
3464.17,0.02709
3458.38,0.02681
3452.59,0.02621
3446.81,0.02681
3441.02,0.02659
3435.23,0.02634
3429.45,0.02717
3423.66,0.02637
3417.87,0.02590
3412.09,0.02608
3406.3,0.02721
3400.51,0.02708
3394.73,0.02643
3388.94,0.02609
3383.15,0.02688
3377.37,0.02663
3371.58,0.02649
3365.8,0.02636
3360.01,0.02618
3354.22,0.02642
3348.44,0.02594
3342.65,0.02681
3336.86,0.02555
3331.08,0.02657
3325.29,0.02524
3319.5,0.02612
3313.72,0.02679
3307.93,0.02655
3302.14,0.02656
3296.36,0.02640
3290.57,0.02606
3284.78,0.02612
3279,0.02605
3273.21,0.02605
3267.43,0.02614
3261.64,0.02566
3255.85,0.02618
3250.07,0.02609
3244.28,0.02711
3238.49,0.02695
3232.71,0.02666
3226.92,0.02711
3221.13,0.02715
3215.35,0.02661
3209.56,0.02747
3203.77,0.02754
3197.99,0.02645
3192.2,0.02697
3186.41,0.02677
3180.63,0.02799
3174.84,0.02776
3169.06,0.02710
3163.27,0.02693
3157.48,0.02789
3151.7,0.02668
3145.91,0.02669
3140.12,0.02689
3134.34,0.02649
3128.55,0.02651
3122.76,0.02613
3116.98,0.02736
3111.19,0.02727
3105.4,0.02744
3099.62,0.02679
3093.83,0.02672
3088.05,0.02660
3082.26,0.02688
3076.47,0.02780
3070.69,0.02701
3064.9,0.02714
3059.11,0.02706
3053.33,0.02680
3047.54,0.02664
3041.75,0.02634
3035.97,0.02703
3030.18,0.02689
3024.39,0.02679
3018.61,0.02695
3012.82,0.02672
3007.03,0.02658
3001.25,0.02669
2995.46,0.02597
2989.68,0.02609
2983.89,0.02627
2978.1,0.02589
2972.32,0.02605
2966.53,0.02532
2960.74,0.02483
2954.96,0.02600
2949.17,0.02561
2943.38,0.02581
2937.6,0.02620
2931.81,0.02619
2926.02,0.02580
2920.24,0.02597
2914.45,0.02604
2908.66,0.02621
2902.88,0.02688
2897.09,0.02665
2891.31,0.02629
2885.52,0.02624
2879.73,0.02578
2873.95,0.02620
2868.16,0.02623
2862.37,0.02607
2856.59,0.02706
2850.8,0.02692
2845.01,0.02693
2839.23,0.02683
2833.44,0.02740
2827.65,0.02721
2821.87,0.02723
2816.08,0.02758
2810.29,0.02737
2804.51,0.02755
2798.72,0.02763
2792.94,0.02743
2787.15,0.02777
2781.36,0.02723
2775.58,0.02720
2769.79,0.02781
2764,0.02755
2758.22,0.02722
2752.43,0.02739
2746.64,0.02720
2740.86,0.02695
2735.07,0.02725
2729.28,0.02747
2723.5,0.02763
2717.71,0.02749
2711.92,0.02708
2706.14,0.02723
2700.35,0.02726
2694.57,0.02716
2688.78,0.02729
2682.99,0.02724
2677.21,0.02701
2671.42,0.02689
2665.63,0.02723
2659.85,0.02736
2654.06,0.02767
2648.27,0.02736
2642.49,0.02714
2636.7,0.02725
2630.91,0.02677
2625.13,0.02733
2619.34,0.02725
2613.55,0.02712
2607.77,0.02728
2601.98,0.02697
2596.2,0.02731
2590.41,0.02725
2584.62,0.02714
2578.84,0.02703
2573.05,0.02718
2567.26,0.02721
2561.48,0.02703
2555.69,0.02715
2549.9,0.02716
2544.12,0.02707
2538.33,0.02729
2532.54,0.02710
2526.76,0.02721
2520.97,0.02726
2515.18,0.02700
2509.4,0.02681
2503.61,0.02727
2497.83,0.02724
2492.04,0.02734
2486.25,0.02695
2480.47,0.02696
2474.68,0.02701
2468.89,0.02731
2463.11,0.02678
2457.32,0.02723
2451.53,0.02678
2445.75,0.02743
2439.96,0.02735
2434.17,0.02716
2428.39,0.02709
2422.6,0.02663
2416.81,0.02652
2411.03,0.02668
2405.24,0.02683
2399.46,0.02703
2393.67,0.02705
2387.88,0.02703
2382.1,0.02716
2376.31,0.02709
2370.52,0.02731
2364.74,0.02721
2358.95,0.02747
2353.16,0.02709
2347.38,0.02707
2341.59,0.02779
2335.8,0.02774
2330.02,0.02736
2324.23,0.02682
2318.44,0.02683
2312.66,0.02716
2306.87,0.02698
2301.09,0.02706
2295.3,0.02656
2289.51,0.02685
2283.73,0.02659
2277.94,0.02661
2272.15,0.02645
2266.37,0.02644
2260.58,0.02667
2254.79,0.02621
2249.01,0.02633
2243.22,0.02644
2237.43,0.02651
2231.65,0.02669
2225.86,0.02622
2220.07,0.02646
2214.29,0.02677
2208.5,0.02619
2202.72,0.02633
2196.93,0.02629
2191.14,0.02591
2185.36,0.02650
2179.57,0.02645
2173.78,0.02636
2168,0.02648
2162.21,0.02594
2156.42,0.02633
2150.64,0.02632
2144.85,0.02600
2139.06,0.02621
2133.28,0.02666
2127.49,0.02632
2121.7,0.02652
2115.92,0.02609
2110.13,0.02606
2104.35,0.02611
2098.56,0.02607
2092.77,0.02622
2086.99,0.02587
2081.2,0.02591
2075.41,0.02636
2069.63,0.02575
2063.84,0.02596
2058.05,0.02590
2052.27,0.02588
2046.48,0.02599
2040.69,0.02590
2034.91,0.02598
2029.12,0.02629
2023.33,0.02603
2017.55,0.02603
2011.76,0.02597
2005.98,0.02620
2000.19,0.02579
1994.4,0.02586
1988.62,0.02587
1982.83,0.02579
1977.04,0.02562
1971.26,0.02565
1965.47,0.02587
1959.68,0.02590
1953.9,0.02573
1948.11,0.02563
1942.32,0.02601
1936.54,0.02571
1930.75,0.02591
1924.96,0.02583
1919.18,0.02593
1913.39,0.02570
1907.61,0.02543
1901.82,0.02560
1896.03,0.02571
1890.25,0.02575
1884.46,0.02486
1878.67,0.02505
1872.89,0.02534
1867.1,0.02547
1861.31,0.02515
1855.53,0.02501
1849.74,0.02494
1843.95,0.02508
1838.17,0.02494
1832.38,0.02499
1826.6,0.02492
1820.81,0.02467
1815.02,0.02479
1809.24,0.02426
1803.45,0.02444
1797.66,0.02399
1791.88,0.02410
1786.09,0.02401
1780.3,0.02344
1774.52,0.02369
1768.73,0.02283
1762.94,0.02225
1757.16,0.02158
1751.37,0.02189
1745.58,0.02168
1739.8,0.02306
1734.01,0.02377
1728.23,0.02404
1722.44,0.02459
1716.65,0.02469
1710.87,0.02452
1705.08,0.02411
1699.29,0.02419
1693.51,0.02258
1687.72,0.02326
1681.93,0.02256
1676.15,0.02283
1670.36,0.02170
1664.57,0.02224
1658.79,0.02159
1653,0.02239
1647.21,0.02242
1641.43,0.02224
1635.64,0.02268
1629.86,0.02199
1624.07,0.02230
1618.28,0.02259
1612.5,0.02262
1606.71,0.02234
1600.92,0.02208
1595.14,0.02260
1589.35,0.02229
1583.56,0.02196
1577.78,0.02261
1571.99,0.02239
1566.2,0.02187
1560.42,0.02300
1554.63,0.02211
1548.84,0.02223
1543.06,0.02264
1537.27,0.02274
1531.49,0.02206
1525.7,0.02230
1519.91,0.02204
1514.13,0.02214
1508.34,0.02355
1502.55,0.02212
1496.77,0.02184
1490.98,0.02233
1485.19,0.02233
1479.41,0.02181
1473.62,0.02214
1467.83,0.02215
1462.05,0.02171
1456.26,0.02110
1450.47,0.02191
1444.69,0.02159
1438.9,0.02180
1433.12,0.02222
1427.33,0.02145
1421.54,0.02179
1415.76,0.02119
1409.97,0.02091
1404.18,0.02082
1398.4,0.02166
1392.61,0.02106
1386.82,0.02062
1381.04,0.02075
1375.25,0.02126
1369.46,0.02100
1363.68,0.02106
1357.89,0.02113
1352.1,0.02095
1346.32,0.02064
1340.53,0.02063
1334.75,0.02003
1328.96,0.02007
1323.17,0.01973
1317.39,0.01963
1311.6,0.02008
1305.81,0.02017
1300.03,0.02011
1294.24,0.02067
1288.45,0.02101
1282.67,0.02121
1276.88,0.02173
1271.09,0.02200
1265.31,0.02249
1259.52,0.02192
1253.73,0.02260
1247.95,0.02263
1242.16,0.02221
1236.38,0.02227
1230.59,0.02243
1224.8,0.02185
1219.02,0.02163
1213.23,0.02183
1207.44,0.02167
1201.66,0.02092
1195.87,0.02125
1190.08,0.02082
1184.3,0.02107
1178.51,0.02086
1172.72,0.02035
1166.94,0.02056
1161.15,0.02030
1155.36,0.02007
1149.58,0.02053
1143.79,0.02001
1138.01,0.02059
1132.22,0.02109
1126.43,0.02111
1120.65,0.02176
1114.86,0.02199
1109.07,0.02233
1103.29,0.02217
1097.5,0.02197
1091.71,0.02150
1085.93,0.02185
1080.14,0.02245
1074.35,0.02320
1068.57,0.02441
1062.78,0.02378
1056.99,0.02434
1051.21,0.02301
1045.42,0.02352
1039.64,0.02362
1033.85,0.02409
1028.06,0.02245
1022.28,0.02256
1016.49,0.02347
1010.7,0.02323
1004.92,0.02430
999.13,0.02476
993.344,0.02466
987.557,0.02400
981.771,0.02443
975.984,0.02405
970.198,0.02384
964.411,0.02389
958.625,0.02351
952.838,0.02351
947.052,0.02286
941.265,0.02312
935.479,0.02249
929.692,0.02257
923.906,0.02242
918.12,0.02211
912.333,0.02288
906.547,0.02212
900.76,0.02292
894.974,0.02182
889.187,0.02203
883.401,0.02262
877.614,0.02204
871.828,0.02304
866.041,0.02257
860.255,0.02226
854.468,0.02174
848.682,0.02231
842.895,0.02232
837.109,0.02188
831.323,0.02217
825.536,0.02181
819.75,0.02192
813.963,0.02246
808.177,0.02116
802.39,0.02108
796.604,0.02140
790.817,0.02142
785.031,0.02157
779.244,0.02056
773.458,0.02052
767.671,0.02042
761.885,0.02016
756.098,0.02081
750.312,0.02014
744.526,0.02051
738.739,0.02050
732.953,0.01920
727.166,0.02044
721.38,0.01938
715.593,0.01935
709.807,0.01935
704.02,0.01938
698.234,0.02085
692.447,0.02080
686.661,0.01975
680.874,0.01851
675.088,0.01882
669.301,0.01977
663.515,0.01842
657.729,0.01910
651.942,0.01970
646.156,0.01893
640.369,0.01688
634.583,0.01882
628.796,0.01850
623.01,0.01684
617.223,0.01844
611.437,0.01914
605.65,0.01754
599.864,0.01979