File: 01_Data/PEVA/FTIR/IS/PEVA_0.10_IS_T_240808_R2.dpt
7496.93,0.04108
7491.14,0.04321
7485.35,0.01758
7479.57,0.04002
7473.78,0.03916
7468,0.03107
7462.21,0.02572
7456.42,0.03627
7450.64,0.04355
7444.85,0.01267
7439.06,0.03442
7433.28,0.03238
7427.49,0.03243
7421.71,0.02628
7415.92,0.03567
7410.13,0.03163
7404.35,0.04380
7398.56,0.05127
7392.78,0.02969
7386.99,0.05073
7381.2,0.03973
7375.42,0.03930
7369.63,0.04031
7363.84,0.02806
7358.06,0.04090
7352.27,0.04162
7346.49,0.02140
7340.7,0.02220
7334.91,0.02839
7329.13,0.05441
7323.34,0.03279
7317.56,0.03629
7311.77,0.02158
7305.98,0.02770
7300.2,0.03627
7294.41,0.03574
7288.62,0.03508
7282.84,0.02671
7277.05,0.04160
7271.27,0.02862
7265.48,0.04271
7259.69,0.02778
7253.91,0.04032
7248.12,0.03048
7242.34,0.03502
7236.55,0.02747
7230.76,0.03767
7224.98,0.03762
7219.19,0.02836
7213.4,0.02836
7207.62,0.03034
7201.83,0.03714
7196.05,0.03487
7190.26,0.04155
7184.47,0.03764
7178.69,0.01723
7172.9,0.02959
7167.12,0.02963
7161.33,0.02691
7155.54,0.03807
7149.76,0.02656
7143.97,0.03390
7138.18,0.04303
7132.4,0.03153
7126.61,0.03939
7120.83,0.03373
7115.04,0.04809
7109.25,0.03645
7103.47,0.03202
7097.68,0.03935
7091.9,0.01956
7086.11,0.02420
7080.32,0.02667
7074.54,0.02962
7068.75,0.03955
7062.96,0.03085
7057.18,0.02751
7051.39,0.03253
7045.61,0.02886
7039.82,0.03918
7034.03,0.04426
7028.25,0.03526
7022.46,0.03398
7016.68,0.03635
7010.89,0.02785
7005.1,0.03942
6999.32,0.02562
6993.53,0.03391
6987.74,0.02155
6981.96,0.02847
6976.17,0.03670
6970.39,0.03850
6964.6,0.04448
6958.81,0.03344
6953.03,0.02867
6947.24,0.03676
6941.46,0.04098
6935.67,0.03438
6929.88,0.03788
6924.1,0.04035
6918.31,0.03734
6912.52,0.03278
6906.74,0.03190
6900.95,0.03742
6895.17,0.03068
6889.38,0.02924
6883.59,0.03003
6877.81,0.02762
6872.02,0.03039
6866.24,0.02806
6860.45,0.03373
6854.66,0.02763
6848.88,0.03417
6843.09,0.02832
6837.3,0.03052
6831.52,0.03225
6825.73,0.03219
6819.95,0.03469
6814.16,0.03286
6808.37,0.03451
6802.59,0.03214
6796.8,0.03143
6791.02,0.02947
6785.23,0.02889
6779.44,0.02764
6773.66,0.03443
6767.87,0.03080
6762.08,0.03480
6756.3,0.03205
6750.51,0.03006
6744.73,0.03229
6738.94,0.02959
6733.15,0.03848
6727.37,0.03453
6721.58,0.02542
6715.8,0.03729
6710.01,0.03638
6704.22,0.03316
6698.44,0.03271
6692.65,0.03250
6686.86,0.02769
6681.08,0.02357
6675.29,0.02147
6669.51,0.03069
6663.72,0.02938
6657.93,0.02776
6652.15,0.02383
6646.36,0.03300
6640.58,0.02859
6634.79,0.02699
6629,0.03341
6623.22,0.03072
6617.43,0.03294
6611.64,0.03089
6605.86,0.03426
6600.07,0.03492
6594.29,0.03157
6588.5,0.02597
6582.71,0.03165
6576.93,0.04043
6571.14,0.03649
6565.36,0.03457
6559.57,0.03822
6553.78,0.03209
6548,0.02859
6542.21,0.02797
6536.42,0.03180
6530.64,0.03104
6524.85,0.03110
6519.07,0.03596
6513.28,0.03228
6507.49,0.02895
6501.71,0.03111
6495.92,0.02775
6490.14,0.02640
6484.35,0.03079
6478.56,0.03431
6472.78,0.02994
6466.99,0.02992
6461.2,0.03262
6455.42,0.02781
6449.63,0.03193
6443.85,0.02480
6438.06,0.02441
6432.27,0.03140
6426.49,0.03103
6420.7,0.03232
6414.92,0.02844
6409.13,0.03211
6403.34,0.02806
6397.56,0.02953
6391.77,0.03021
6385.98,0.02926
6380.2,0.02786
6374.41,0.02988
6368.63,0.03055
6362.84,0.02850
6357.05,0.03425
6351.27,0.02825
6345.48,0.03150
6339.7,0.03540
6333.91,0.03013
6328.12,0.03239
6322.34,0.03485
6316.55,0.03197
6310.76,0.02846
6304.98,0.03129
6299.19,0.02731
6293.41,0.02766
6287.62,0.03035
6281.83,0.03129
6276.05,0.02463
6270.26,0.02738
6264.48,0.02698
6258.69,0.03103
6252.9,0.03117
6247.12,0.02788
6241.33,0.02915
6235.54,0.03066
6229.76,0.02894
6223.97,0.02638
6218.19,0.03099
6212.4,0.02938
6206.61,0.02907
6200.83,0.02951
6195.04,0.03072
6189.26,0.03449
6183.47,0.03477
6177.68,0.02753
6171.9,0.03359
6166.11,0.03019
6160.32,0.02636
6154.54,0.03100
6148.75,0.02505
6142.97,0.03052
6137.18,0.02951
6131.39,0.03090
6125.61,0.03146
6119.82,0.03109
6114.04,0.03082
6108.25,0.03201
6102.46,0.02976
6096.68,0.02753
6090.89,0.02872
6085.1,0.02739
6079.32,0.03442
6073.53,0.03048
6067.75,0.02864
6061.96,0.02860
6056.17,0.02936
6050.39,0.02824
6044.6,0.02862
6038.82,0.03044
6033.03,0.03179
6027.24,0.02965
6021.46,0.02921
6015.67,0.03152
6009.88,0.03143
6004.1,0.02963
5998.31,0.02732
5992.53,0.02866
5986.74,0.02964
5980.95,0.02955
5975.17,0.02900
5969.38,0.02967
5963.6,0.02723
5957.81,0.02994
5952.02,0.03098
5946.24,0.02699
5940.45,0.02835
5934.66,0.02918
5928.88,0.02980
5923.09,0.02991
5917.31,0.03175
5911.52,0.02802
5905.73,0.02923
5899.95,0.02880
5894.16,0.02904
5888.38,0.02630
5882.59,0.02914
5876.8,0.02676
5871.02,0.02756
5865.23,0.02986
5859.44,0.03155
5853.66,0.02820
5847.87,0.02954
5842.09,0.03334
5836.3,0.03114
5830.51,0.02674
5824.73,0.02867
5818.94,0.02828
5813.16,0.03310
5807.37,0.03078
5801.58,0.02651
5795.8,0.03325
5790.01,0.02947
5784.22,0.03169
5778.44,0.02715
5772.65,0.02999
5766.87,0.02760
5761.08,0.02780
5755.29,0.02524
5749.51,0.02816
5743.72,0.02923
5737.94,0.03011
5732.15,0.03160
5726.36,0.03260
5720.58,0.02894
5714.79,0.03179
5709,0.02876
5703.22,0.03014
5697.43,0.02986
5691.65,0.03057
5685.86,0.03272
5680.07,0.03179
5674.29,0.02972
5668.5,0.03060
5662.72,0.03074
5656.93,0.02898
5651.14,0.03094
5645.36,0.03007
5639.57,0.03034
5633.78,0.03061
5628,0.02713
5622.21,0.02985
5616.43,0.02706
5610.64,0.02971
5604.85,0.02996
5599.07,0.02690
5593.28,0.02936
5587.5,0.03063
5581.71,0.02928
5575.92,0.02865
5570.14,0.02972
5564.35,0.03148
5558.56,0.03012
5552.78,0.02935
5546.99,0.02797
5541.21,0.02979
5535.42,0.02869
5529.63,0.02920
5523.85,0.02956
5518.06,0.03149
5512.28,0.02953
5506.49,0.02930
5500.7,0.02807
5494.92,0.02979
5489.13,0.02853
5483.34,0.02938
5477.56,0.02686
5471.77,0.02947
5465.99,0.02805
5460.2,0.02956
5454.41,0.02949
5448.63,0.02906
5442.84,0.03012
5437.06,0.02537
5431.27,0.02925
5425.48,0.02981
5419.7,0.03083
5413.91,0.02757
5408.12,0.02954
5402.34,0.02990
5396.55,0.02898
5390.77,0.03183
5384.98,0.03108
5379.19,0.03112
5373.41,0.02540
5367.62,0.02934
5361.84,0.02793
5356.05,0.02744
5350.26,0.02599
5344.48,0.02886
5338.69,0.02912
5332.9,0.02746
5327.12,0.02852
5321.33,0.02944
5315.55,0.02904
5309.76,0.02508
5303.97,0.02869
5298.19,0.02988
5292.4,0.03015
5286.62,0.02894
5280.83,0.02969
5275.04,0.03053
5269.26,0.02764
5263.47,0.02867
5257.68,0.02950
5251.9,0.02890
5246.11,0.02985
5240.33,0.02772
5234.54,0.02758
5228.75,0.02898
5222.97,0.02774
5217.18,0.02860
5211.4,0.02939
5205.61,0.03075
5199.82,0.03195
5194.04,0.02746
5188.25,0.02940
5182.46,0.02941
5176.68,0.02905
5170.89,0.02907
5165.11,0.02972
5159.32,0.03079
5153.53,0.02976
5147.75,0.03115
5141.96,0.03047
5136.18,0.02981
5130.39,0.03048
5124.6,0.02897
5118.82,0.02736
5113.03,0.02990
5107.24,0.02925
5101.46,0.02909
5095.67,0.02871
5089.89,0.03070
5084.1,0.02877
5078.31,0.02859
5072.53,0.03045
5066.74,0.02944
5060.96,0.03071
5055.17,0.03046
5049.38,0.02897
5043.6,0.02711
5037.81,0.02875
5032.02,0.02953
5026.24,0.02978
5020.45,0.02932
5014.67,0.02959
5008.88,0.02911
5003.09,0.02879
4997.31,0.02863
4991.52,0.02972
4985.74,0.02950
4979.95,0.02914
4974.16,0.03051
4968.38,0.02932
4962.59,0.02955
4956.8,0.02911
4951.02,0.02929
4945.23,0.02844
4939.45,0.02930
4933.66,0.02956
4927.87,0.02983
4922.09,0.02911
4916.3,0.02925
4910.52,0.02879
4904.73,0.02879
4898.94,0.02918
4893.16,0.02843
4887.37,0.03007
4881.58,0.02899
4875.8,0.02849
4870.01,0.02892
4864.23,0.03074
4858.44,0.02856
4852.65,0.02976
4846.87,0.02901
4841.08,0.03016
4835.3,0.02908
4829.51,0.02957
4823.72,0.02890
4817.94,0.02967
4812.15,0.02880
4806.36,0.02851
4800.58,0.02922
4794.79,0.03039
4789.01,0.02901
4783.22,0.02996
4777.43,0.03018
4771.65,0.02961
4765.86,0.03122
4760.08,0.03008
4754.29,0.02892
4748.5,0.02998
4742.72,0.02986
4736.93,0.02990
4731.14,0.03026
4725.36,0.03002
4719.57,0.03001
4713.79,0.02945
4708,0.02903
4702.21,0.03048
4696.43,0.02976
4690.64,0.02918
4684.86,0.03009
4679.07,0.02982
4673.28,0.03023
4667.5,0.02812
4661.71,0.02945
4655.92,0.02925
4650.14,0.02845
4644.35,0.02878
4638.57,0.02896
4632.78,0.02853
4626.99,0.02922
4621.21,0.02945
4615.42,0.02953
4609.64,0.02892
4603.85,0.02906
4598.06,0.02887
4592.28,0.02863
4586.49,0.02973
4580.7,0.02899
4574.92,0.02992
4569.13,0.02897
4563.35,0.02999
4557.56,0.02995
4551.77,0.02954
4545.99,0.02950
4540.2,0.02877
4534.42,0.02973
4528.63,0.02888
4522.84,0.02968
4517.06,0.02932
4511.27,0.02915
4505.48,0.02843
4499.7,0.02805
4493.91,0.02963
4488.13,0.02964
4482.34,0.03013
4476.55,0.02895
4470.77,0.02891
4464.98,0.02894
4459.2,0.02897
4453.41,0.02948
4447.62,0.02953
4441.84,0.02899
4436.05,0.02947
4430.26,0.03013
4424.48,0.02899
4418.69,0.02953
4412.91,0.02991
4407.12,0.02988
4401.33,0.03025
4395.55,0.03063
4389.76,0.02912
4383.98,0.02871
4378.19,0.02900
4372.4,0.02947
4366.62,0.02886
4360.83,0.02999
4355.04,0.02963
4349.26,0.02823
4343.47,0.02899
4337.69,0.02935
4331.9,0.02967
4326.11,0.02907
4320.33,0.02932
4314.54,0.02933
4308.76,0.02882
4302.97,0.02951
4297.18,0.02958
4291.4,0.02892
4285.61,0.02989
4279.82,0.02978
4274.04,0.02985
4268.25,0.02930
4262.47,0.02930
4256.68,0.02945
4250.89,0.02912
4245.11,0.02905
4239.32,0.02926
4233.54,0.02978
4227.75,0.02938
4221.96,0.02925
4216.18,0.02982
4210.39,0.02954
4204.6,0.02936
4198.82,0.02957
4193.03,0.02926
4187.25,0.02896
4181.46,0.02948
4175.67,0.02955
4169.89,0.02947
4164.1,0.03023
4158.32,0.02930
4152.53,0.02971
4146.74,0.02954
4140.96,0.02948
4135.17,0.02906
4129.38,0.02943
4123.6,0.02904
4117.81,0.02922
4112.03,0.02907
4106.24,0.03018
4100.45,0.02973
4094.67,0.02960
4088.88,0.02913
4083.1,0.02936
4077.31,0.02983
4071.52,0.02890
4065.74,0.02923
4059.95,0.02950
4054.16,0.02802
4048.38,0.02910
4042.59,0.02972
4036.81,0.02906
4031.02,0.02944
4025.23,0.02961
4019.45,0.02921
4013.66,0.02910
4007.88,0.02877
4002.09,0.02883
3996.3,0.02968
3990.52,0.02886
3984.73,0.02909
3978.94,0.02917
3973.16,0.02908
3967.37,0.02914
3961.59,0.02943
3955.8,0.02918
3950.01,0.02950
3944.23,0.02934
3938.44,0.02882
3932.66,0.03044
3926.87,0.02938
3921.08,0.02942
3915.3,0.02946
3909.51,0.02925
3903.72,0.03013
3897.94,0.02853
3892.15,0.02891
3886.37,0.03023
3880.58,0.02876
3874.79,0.02927
3869.01,0.02886
3863.22,0.02804
3857.44,0.03018
3851.65,0.03037
3845.86,0.02982
3840.08,0.02956
3834.29,0.02881
3828.5,0.02940
3822.72,0.03001
3816.93,0.02985
3811.15,0.02989
3805.36,0.02962
3799.57,0.02958
3793.79,0.03010
3788,0.02860
3782.22,0.02909
3776.43,0.02916
3770.64,0.02977
3764.86,0.02941
3759.07,0.03000
3753.28,0.03108
3747.5,0.02819
3741.71,0.02845
3735.93,0.03045
3730.14,0.02955
3724.35,0.02953
3718.57,0.02856
3712.78,0.02908
3707,0.02888
3701.21,0.02856
3695.42,0.02852
3689.64,0.02883
3683.85,0.02888
3678.06,0.02938
3672.28,0.02846
3666.49,0.02814
3660.71,0.02766
3654.92,0.02794
3649.13,0.02799
3643.35,0.02722
3637.56,0.02796
3631.78,0.02964
3625.99,0.02837
3620.2,0.02853
3614.42,0.02749
3608.63,0.02738
3602.84,0.02700
3597.06,0.02688
3591.27,0.02641
3585.49,0.02648
3579.7,0.02737
3573.91,0.02618
3568.13,0.02684
3562.34,0.02664
3556.56,0.02610
3550.77,0.02639
3544.98,0.02604
3539.2,0.02686
3533.41,0.02608
3527.62,0.02610
3521.84,0.02624
3516.05,0.02578
3510.27,0.02524
3504.48,0.02603
3498.69,0.02607
3492.91,0.02616
3487.12,0.02596
3481.34,0.02607
3475.55,0.02625
3469.76,0.02606
3463.98,0.02498
3458.19,0.02564
3452.4,0.02551
3446.62,0.02636
3440.83,0.02635
3435.05,0.02627
3429.26,0.02586
3423.47,0.02516
3417.69,0.02503
3411.9,0.02531
3406.12,0.02635
3400.33,0.02609
3394.54,0.02572
3388.76,0.02502
3382.97,0.02554
3377.18,0.02656
3371.4,0.02635
3365.61,0.02582
3359.83,0.02564
3354.04,0.02584
3348.25,0.02536
3342.47,0.02541
3336.68,0.02542
3330.9,0.02482
3325.11,0.02504
3319.32,0.02609
3313.54,0.02563
3307.75,0.02538
3301.96,0.02472
3296.18,0.02560
3290.39,0.02562
3284.61,0.02548
3278.82,0.02571
3273.03,0.02562
3267.25,0.02613
3261.46,0.02558
3255.68,0.02568
3249.89,0.02611
3244.1,0.02591
3238.32,0.02678
3232.53,0.02558
3226.74,0.02586
3220.96,0.02577
3215.17,0.02579
3209.39,0.02628
3203.6,0.02634
3197.81,0.02647
3192.03,0.02630
3186.24,0.02606
3180.46,0.02556
3174.67,0.02666
3168.88,0.02633
3163.1,0.02591
3157.31,0.02674
3151.52,0.02628
3145.74,0.02562
3139.95,0.02653
3134.17,0.02617
3128.38,0.02660
3122.59,0.02606
3116.81,0.02638
3111.02,0.02596
3105.24,0.02566
3099.45,0.02644
3093.66,0.02719
3087.88,0.02621
3082.09,0.02624
3076.3,0.02673
3070.52,0.02612
3064.73,0.02626
3058.95,0.02614
3053.16,0.02622
3047.37,0.02572
3041.59,0.02625
3035.8,0.02583
3030.02,0.02589
3024.23,0.02603
3018.44,0.02638
3012.66,0.02609
3006.87,0.02584
3001.08,0.02586
2995.3,0.02534
2989.51,0.02563
2983.73,0.02576
2977.94,0.02572
2972.15,0.02499
2966.37,0.02518
2960.58,0.02565
2954.8,0.02485
2949.01,0.02485
2943.22,0.02531
2937.44,0.02492
2931.65,0.02530
2925.86,0.02538
2920.08,0.02559
2914.29,0.02598
2908.51,0.02594
2902.72,0.02561
2896.93,0.02560
2891.15,0.02567
2885.36,0.02566
2879.58,0.02576
2873.79,0.02577
2868,0.02529
2862.22,0.02574
2856.43,0.02585
2850.64,0.02644
2844.86,0.02593
2839.07,0.02672
2833.29,0.02654
2827.5,0.02695
2821.71,0.02649
2815.93,0.02676
2810.14,0.02663
2804.36,0.02651
2798.57,0.02618
2792.78,0.02619
2787,0.02649
2781.21,0.02648
2775.42,0.02683
2769.64,0.02707
2763.85,0.02699
2758.07,0.02623
2752.28,0.02634
2746.49,0.02672
2740.71,0.02679
2734.92,0.02635
2729.14,0.02654
2723.35,0.02718
2717.56,0.02662
2711.78,0.02683
2705.99,0.02673
2700.2,0.02678
2694.42,0.02640
2688.63,0.02670
2682.85,0.02672
2677.06,0.02655
2671.27,0.02645
2665.49,0.02638
2659.7,0.02636
2653.92,0.02637
2648.13,0.02647
2642.34,0.02621
2636.56,0.02685
2630.77,0.02626
2624.98,0.02656
2619.2,0.02629
2613.41,0.02626
2607.63,0.02650
2601.84,0.02621
2596.05,0.02656
2590.27,0.02704
2584.48,0.02617
2578.7,0.02627
2572.91,0.02666
2567.12,0.02620
2561.34,0.02655
2555.55,0.02661
2549.76,0.02627
2543.98,0.02611
2538.19,0.02624
2532.41,0.02610
2526.62,0.02613
2520.83,0.02616
2515.05,0.02672
2509.26,0.02634
2503.48,0.02587
2497.69,0.02639
2491.9,0.02637
2486.12,0.02644
2480.33,0.02592
2474.55,0.02620
2468.76,0.02603
2462.97,0.02634
2457.19,0.02610
2451.4,0.02624
2445.61,0.02623
2439.83,0.02576
2434.04,0.02652
2428.26,0.02635
2422.47,0.02639
2416.68,0.02619
2410.9,0.02649
2405.11,0.02595
2399.32,0.02552
2393.54,0.02605
2387.75,0.02634
2381.97,0.02646
2376.18,0.02660
2370.39,0.02634
2364.61,0.02662
2358.82,0.02632
2353.04,0.02593
2347.25,0.02641
2341.46,0.02672
2335.68,0.02627
2329.89,0.02604
2324.11,0.02635
2318.32,0.02572
2312.53,0.02578
2306.75,0.02590
2300.96,0.02600
2295.17,0.02588
2289.39,0.02589
2283.6,0.02564
2277.82,0.02601
2272.03,0.02620
2266.24,0.02596
2260.46,0.02593
2254.67,0.02584
2248.89,0.02567
2243.1,0.02527
2237.31,0.02594
2231.53,0.02546
2225.74,0.02521
2219.95,0.02530
2214.17,0.02571
2208.38,0.02576
2202.6,0.02567
2196.81,0.02543
2191.02,0.02536
2185.24,0.02531
2179.45,0.02555
2173.67,0.02526
2167.88,0.02557
2162.09,0.02527
2156.31,0.02554
2150.52,0.02555
2144.73,0.02529
2138.95,0.02545
2133.16,0.02572
2127.38,0.02550
2121.59,0.02530
2115.8,0.02546
2110.02,0.02504
2104.23,0.02502
2098.45,0.02542
2092.66,0.02538
2086.87,0.02528
2081.09,0.02487
2075.3,0.02515
2069.51,0.02497
2063.73,0.02534
2057.94,0.02518
2052.16,0.02543
2046.37,0.02470
2040.58,0.02499
2034.8,0.02487
2029.01,0.02504
2023.23,0.02494
2017.44,0.02511
2011.65,0.02487
2005.87,0.02507
2000.08,0.02504
1994.29,0.02508
1988.51,0.02495
1982.72,0.02478
1976.94,0.02493
1971.15,0.02495
1965.36,0.02501
1959.58,0.02516
1953.79,0.02490
1948.01,0.02509
1942.22,0.02507
1936.43,0.02479
1930.65,0.02490
1924.86,0.02509
1919.07,0.02447
1913.29,0.02469
1907.5,0.02432
1901.72,0.02441
1895.93,0.02459
1890.14,0.02408
1884.36,0.02421
1878.57,0.02441
1872.79,0.02420
1867,0.02385
1861.21,0.02386
1855.43,0.02413
1849.64,0.02435
1843.85,0.02454
1838.07,0.02419
1832.28,0.02437
1826.5,0.02406
1820.71,0.02362
1814.92,0.02376
1809.14,0.02330
1803.35,0.02308
1797.57,0.02378
1791.78,0.02358
1785.99,0.02296
1780.21,0.02270
1774.42,0.02318
1768.63,0.02217
1762.85,0.02193
1757.06,0.02118
1751.28,0.02110
1745.49,0.02132
1739.7,0.02195
1733.92,0.02319
1728.13,0.02346
1722.35,0.02375
1716.56,0.02376
1710.77,0.02342
1704.99,0.02336
1699.2,0.02234
1693.41,0.02203
1687.63,0.02238
1681.84,0.02156
1676.06,0.02145
1670.27,0.02179
1664.48,0.02111
1658.7,0.02106
1652.91,0.02032
1647.13,0.02144
1641.34,0.02159
1635.55,0.02116
1629.77,0.02144
1623.98,0.02172
1618.19,0.02192
1612.41,0.02182
1606.62,0.02144
1600.84,0.02125
1595.05,0.02100
1589.26,0.02145
1583.48,0.02113
1577.69,0.02153
1571.91,0.02100
1566.12,0.02093
1560.33,0.02102
1554.55,0.02102
1548.76,0.02150
1542.97,0.02148
1537.19,0.02133
1531.4,0.02132
1525.62,0.02119
1519.83,0.02122
1514.04,0.02141
1508.26,0.02155
1502.47,0.02149
1496.69,0.02132
1490.9,0.02157
1485.11,0.02096
1479.33,0.02064
1473.54,0.02123
1467.75,0.02064
1461.97,0.02101
1456.18,0.02075
1450.4,0.02112
1444.61,0.02109
1438.82,0.02124
1433.04,0.02144
1427.25,0.02063
1421.47,0.02077
1415.68,0.02073
1409.89,0.02046
1404.11,0.02004
1398.32,0.02061
1392.53,0.02010
1386.75,0.02048
1380.96,0.01998
1375.18,0.01986
1369.39,0.02037
1363.6,0.02064
1357.82,0.02011
1352.03,0.01998
1346.25,0.02014
1340.46,0.01963
1334.67,0.01999
1328.89,0.01964
1323.1,0.01932
1317.31,0.01898
1311.53,0.01876
1305.74,0.01937
1299.96,0.01916
1294.17,0.01955
1288.38,0.02002
1282.6,0.02030
1276.81,0.02104
1271.03,0.02118
1265.24,0.02118
1259.45,0.02120
1253.67,0.02158
1247.88,0.02155
1242.09,0.02123
1236.31,0.02127
1230.52,0.02155
1224.74,0.02112
1218.95,0.02134
1213.16,0.02078
1207.38,0.02084
1201.59,0.02072
1195.81,0.02069
1190.02,0.02045
1184.23,0.02074
1178.45,0.01995
1172.66,0.01935
1166.87,0.01938
1161.09,0.01941
1155.3,0.01979
1149.52,0.01870
1143.73,0.01875
1137.94,0.01954
1132.16,0.01972
1126.37,0.02004
1120.59,0.02087
1114.8,0.02104
1109.01,0.02071
1103.23,0.02069
1097.44,0.02103
1091.65,0.02103
1085.87,0.02129
1080.08,0.02122
1074.3,0.02169
1068.51,0.02300
1062.72,0.02376
1056.94,0.02296
1051.15,0.02302
1045.37,0.02281
1039.58,0.02198
1033.79,0.02169
1028.01,0.02229
1022.22,0.02204
1016.43,0.02212
1010.65,0.02302
1004.86,0.02343
999.076,0.02393
993.29,0.02310
987.504,0.02336
981.717,0.02346
975.931,0.02306
970.145,0.02334
964.359,0.02291
958.573,0.02248
952.787,0.02275
947,0.02237
941.214,0.02191
935.428,0.02230
929.642,0.02145
923.856,0.02145
918.07,0.02117
912.284,0.02109
906.497,0.02120
900.711,0.02110
894.925,0.02141
889.139,0.02146
883.353,0.02140
877.567,0.02107
871.78,0.02174
865.994,0.02090
860.208,0.02117
854.422,0.02087
848.636,0.02065
842.85,0.02129
837.064,0.02047
831.277,0.02063
825.491,0.02059
819.705,0.02091
813.919,0.01991
808.133,0.02021
802.347,0.02050
796.56,0.02055
790.774,0.01965
784.988,0.02031
779.202,0.02039
773.416,0.02006
767.63,0.01926
761.844,0.01969
756.057,0.01979
750.271,0.01922
744.485,0.01842
738.699,0.01883
732.913,0.01923
727.127,0.01829
721.34,0.01933
715.554,0.01835
709.768,0.01782
703.982,0.01794
698.196,0.01819
692.41,0.01831
686.624,0.01804
680.837,0.01915
675.051,0.01781
669.265,0.01926
663.479,0.01756
657.693,0.01711
651.907,0.01753
646.12,0.01770
640.334,0.01728
634.548,0.01910
628.762,0.01867
622.976,0.01727
617.19,0.01880
611.404,0.01838
605.617,0.01889
599.831,0.01598