File: 01_Data/PEVA/FTIR/IS/PEVA_0.18_IS_S_240809_R3.dpt
7497.33,0.09327
7491.55,0.09598
7485.76,0.09636
7479.97,0.09455
7474.19,0.11077
7468.4,0.10676
7462.61,0.09269
7456.83,0.09371
7451.04,0.10106
7445.26,0.09705
7439.47,0.08930
7433.68,0.08414
7427.9,0.10338
7422.11,0.11589
7416.32,0.09938
7410.54,0.09148
7404.75,0.09561
7398.96,0.10448
7393.18,0.10762
7387.39,0.10098
7381.6,0.10422
7375.82,0.11186
7370.03,0.09794
7364.24,0.09602
7358.46,0.09555
7352.67,0.10889
7346.89,0.09924
7341.1,0.10028
7335.31,0.10387
7329.53,0.10750
7323.74,0.09796
7317.95,0.10066
7312.17,0.09581
7306.38,0.09890
7300.59,0.10183
7294.81,0.10136
7289.02,0.09690
7283.23,0.09549
7277.45,0.09674
7271.66,0.09557
7265.87,0.09900
7260.09,0.10115
7254.3,0.10645
7248.52,0.09432
7242.73,0.10006
7236.94,0.09709
7231.16,0.09591
7225.37,0.09289
7219.58,0.10454
7213.8,0.10005
7208.01,0.10128
7202.22,0.09769
7196.44,0.10542
7190.65,0.10042
7184.86,0.10341
7179.08,0.09757
7173.29,0.09496
7167.5,0.10088
7161.72,0.10634
7155.93,0.09301
7150.15,0.10332
7144.36,0.09873
7138.57,0.10803
7132.79,0.09121
7127,0.09267
7121.21,0.09383
7115.43,0.09099
7109.64,0.09628
7103.85,0.09402
7098.07,0.09635
7092.28,0.10027
7086.49,0.10015
7080.71,0.10433
7074.92,0.09344
7069.13,0.09875
7063.35,0.09458
7057.56,0.09126
7051.78,0.09819
7045.99,0.09612
7040.2,0.10086
7034.42,0.10297
7028.63,0.09873
7022.84,0.10140
7017.06,0.10344
7011.27,0.09424
7005.48,0.10120
6999.7,0.09548
6993.91,0.09276
6988.12,0.10312
6982.34,0.09802
6976.55,0.09434
6970.76,0.10191
6964.98,0.10115
6959.19,0.10039
6953.41,0.09061
6947.62,0.10259
6941.83,0.10354
6936.05,0.09982
6930.26,0.09794
6924.47,0.09917
6918.69,0.09547
6912.9,0.09986
6907.11,0.09742
6901.33,0.09673
6895.54,0.08993
6889.75,0.09700
6883.97,0.09840
6878.18,0.10078
6872.39,0.09669
6866.61,0.08858
6860.82,0.09337
6855.04,0.09379
6849.25,0.09819
6843.46,0.09501
6837.68,0.09549
6831.89,0.09730
6826.1,0.09799
6820.32,0.09636
6814.53,0.09731
6808.74,0.09896
6802.96,0.09577
6797.17,0.10767
6791.38,0.10271
6785.6,0.10363
6779.81,0.09785
6774.03,0.09970
6768.24,0.09847
6762.45,0.09856
6756.67,0.09806
6750.88,0.10114
6745.09,0.09849
6739.31,0.09948
6733.52,0.09491
6727.73,0.10301
6721.95,0.09845
6716.16,0.10132
6710.37,0.09579
6704.59,0.09610
6698.8,0.09728
6693.01,0.09796
6687.23,0.10340
6681.44,0.10044
6675.66,0.09620
6669.87,0.09854
6664.08,0.10365
6658.3,0.09851
6652.51,0.09445
6646.72,0.09400
6640.94,0.09689
6635.15,0.10024
6629.36,0.09868
6623.58,0.09223
6617.79,0.09568
6612,0.09602
6606.22,0.09343
6600.43,0.10040
6594.64,0.09344
6588.86,0.09543
6583.07,0.09582
6577.29,0.09903
6571.5,0.09788
6565.71,0.09653
6559.93,0.09536
6554.14,0.09832
6548.35,0.09212
6542.57,0.09869
6536.78,0.09850
6530.99,0.09805
6525.21,0.10033
6519.42,0.10132
6513.63,0.10218
6507.85,0.10077
6502.06,0.09512
6496.27,0.09895
6490.49,0.09949
6484.7,0.10006
6478.92,0.09319
6473.13,0.10089
6467.34,0.09575
6461.56,0.10114
6455.77,0.09791
6449.98,0.09839
6444.2,0.09786
6438.41,0.09636
6432.62,0.09722
6426.84,0.09882
6421.05,0.10298
6415.26,0.09570
6409.48,0.10118
6403.69,0.10007
6397.9,0.09892
6392.12,0.09502
6386.33,0.09543
6380.55,0.09838
6374.76,0.09776
6368.97,0.09663
6363.19,0.10086
6357.4,0.09748
6351.61,0.09406
6345.83,0.10133
6340.04,0.10456
6334.25,0.09957
6328.47,0.09920
6322.68,0.10155
6316.89,0.09797
6311.11,0.09632
6305.32,0.10024
6299.53,0.10606
6293.75,0.10205
6287.96,0.09677
6282.18,0.09873
6276.39,0.09769
6270.6,0.09896
6264.82,0.09763
6259.03,0.09974
6253.24,0.09752
6247.46,0.09724
6241.67,0.09977
6235.88,0.09841
6230.1,0.10392
6224.31,0.09855
6218.52,0.09797
6212.74,0.09740
6206.95,0.10346
6201.16,0.10131
6195.38,0.09923
6189.59,0.09583
6183.81,0.09916
6178.02,0.10063
6172.23,0.09745
6166.45,0.09621
6160.66,0.09730
6154.87,0.10129
6149.09,0.09954
6143.3,0.10005
6137.51,0.09712
6131.73,0.09800
6125.94,0.09922
6120.15,0.09743
6114.37,0.09681
6108.58,0.09743
6102.79,0.09533
6097.01,0.09802
6091.22,0.09679
6085.44,0.10039
6079.65,0.09808
6073.86,0.10097
6068.08,0.09738
6062.29,0.10065
6056.5,0.09713
6050.72,0.09686
6044.93,0.09772
6039.14,0.09699
6033.36,0.09741
6027.57,0.09793
6021.78,0.09991
6016,0.09883
6010.21,0.09630
6004.42,0.09517
5998.64,0.09510
5992.85,0.09525
5987.07,0.09441
5981.28,0.10069
5975.49,0.09839
5969.71,0.09542
5963.92,0.09959
5958.13,0.09835
5952.35,0.09788
5946.56,0.09661
5940.77,0.09501
5934.99,0.09700
5929.2,0.09470
5923.41,0.09556
5917.63,0.09435
5911.84,0.09632
5906.05,0.10031
5900.27,0.09446
5894.48,0.09828
5888.7,0.09786
5882.91,0.09413
5877.12,0.09158
5871.34,0.09208
5865.55,0.09559
5859.76,0.09314
5853.98,0.09222
5848.19,0.09447
5842.4,0.09086
5836.62,0.08990
5830.83,0.08933
5825.04,0.08820
5819.26,0.08670
5813.47,0.08661
5807.68,0.08522
5801.9,0.08536
5796.11,0.08486
5790.33,0.08294
5784.54,0.08585
5778.75,0.08146
5772.97,0.08303
5767.18,0.08383
5761.39,0.08835
5755.61,0.09102
5749.82,0.08964
5744.03,0.09087
5738.25,0.09202
5732.46,0.09157
5726.67,0.09363
5720.89,0.09166
5715.1,0.09226
5709.31,0.09149
5703.53,0.09149
5697.74,0.09148
5691.96,0.09292
5686.17,0.09025
5680.38,0.09112
5674.6,0.09005
5668.81,0.09152
5663.02,0.09069
5657.24,0.08930
5651.45,0.09213
5645.66,0.09206
5639.88,0.09383
5634.09,0.09262
5628.3,0.09453
5622.52,0.09234
5616.73,0.09552
5610.94,0.09538
5605.16,0.09570
5599.37,0.09524
5593.59,0.09535
5587.8,0.09498
5582.01,0.09692
5576.23,0.09610
5570.44,0.09561
5564.65,0.09411
5558.87,0.09469
5553.08,0.09281
5547.29,0.09440
5541.51,0.09326
5535.72,0.09472
5529.93,0.09540
5524.15,0.09407
5518.36,0.09498
5512.58,0.09489
5506.79,0.09327
5501,0.09512
5495.22,0.09664
5489.43,0.09736
5483.64,0.09603
5477.86,0.09400
5472.07,0.09642
5466.28,0.09597
5460.5,0.09473
5454.71,0.09587
5448.92,0.09837
5443.14,0.09608
5437.35,0.09762
5431.56,0.09583
5425.78,0.09594
5419.99,0.09678
5414.21,0.09818
5408.42,0.09694
5402.63,0.09834
5396.85,0.09870
5391.06,0.09937
5385.27,0.09847
5379.49,0.09705
5373.7,0.09639
5367.91,0.09739
5362.13,0.09748
5356.34,0.09686
5350.55,0.09814
5344.77,0.09793
5338.98,0.09555
5333.19,0.09907
5327.41,0.09602
5321.62,0.09628
5315.84,0.09639
5310.05,0.09721
5304.26,0.09789
5298.48,0.09537
5292.69,0.09646
5286.9,0.09716
5281.12,0.09733
5275.33,0.09813
5269.54,0.09615
5263.76,0.09551
5257.97,0.09666
5252.18,0.09449
5246.4,0.09703
5240.61,0.09837
5234.82,0.09790
5229.04,0.09727
5223.25,0.09689
5217.47,0.09627
5211.68,0.09667
5205.89,0.09623
5200.11,0.09835
5194.32,0.09800
5188.53,0.09747
5182.75,0.09766
5176.96,0.09922
5171.17,0.09874
5165.39,0.09762
5159.6,0.10026
5153.81,0.09855
5148.03,0.09876
5142.24,0.09812
5136.45,0.09851
5130.67,0.09864
5124.88,0.09849
5119.1,0.09854
5113.31,0.09802
5107.52,0.09905
5101.74,0.09919
5095.95,0.10038
5090.16,0.09776
5084.38,0.09755
5078.59,0.09792
5072.8,0.09808
5067.02,0.09887
5061.23,0.09736
5055.44,0.09696
5049.66,0.09856
5043.87,0.09909
5038.08,0.09877
5032.3,0.09833
5026.51,0.09755
5020.73,0.09793
5014.94,0.09824
5009.15,0.09728
5003.37,0.09820
4997.58,0.09714
4991.79,0.09764
4986.01,0.09832
4980.22,0.09782
4974.43,0.09719
4968.65,0.09844
4962.86,0.09831
4957.07,0.10017
4951.29,0.09945
4945.5,0.09817
4939.71,0.09850
4933.93,0.09998
4928.14,0.09820
4922.36,0.09870
4916.57,0.09954
4910.78,0.09806
4905,0.09963
4899.21,0.09920
4893.42,0.09931
4887.64,0.09849
4881.85,0.09876
4876.06,0.09880
4870.28,0.09876
4864.49,0.09870
4858.7,0.09885
4852.92,0.09740
4847.13,0.09914
4841.34,0.09985
4835.56,0.09911
4829.77,0.09798
4823.99,0.09833
4818.2,0.09898
4812.41,0.09848
4806.63,0.09931
4800.84,0.09994
4795.05,0.09879
4789.27,0.09948
4783.48,0.09950
4777.69,0.09965
4771.91,0.09983
4766.12,0.09990
4760.33,0.09995
4754.55,0.09963
4748.76,0.10065
4742.97,0.10126
4737.19,0.10111
4731.4,0.09972
4725.62,0.10014
4719.83,0.10039
4714.04,0.10030
4708.26,0.10054
4702.47,0.09973
4696.68,0.10044
4690.9,0.10107
4685.11,0.09881
4679.32,0.09899
4673.54,0.09719
4667.75,0.09832
4661.96,0.09931
4656.18,0.09826
4650.39,0.09855
4644.6,0.09863
4638.82,0.09847
4633.03,0.09798
4627.25,0.09830
4621.46,0.09882
4615.67,0.09926
4609.89,0.09863
4604.1,0.09923
4598.31,0.09748
4592.53,0.09856
4586.74,0.09831
4580.95,0.09897
4575.17,0.09908
4569.38,0.09981
4563.59,0.10010
4557.81,0.09830
4552.02,0.09863
4546.23,0.09980
4540.45,0.09965
4534.66,0.09940
4528.88,0.09915
4523.09,0.09856
4517.3,0.09915
4511.52,0.09929
4505.73,0.09895
4499.94,0.09927
4494.16,0.09976
4488.37,0.09837
4482.58,0.09833
4476.8,0.09842
4471.01,0.09837
4465.22,0.09694
4459.44,0.09492
4453.65,0.09514
4447.86,0.09444
4442.08,0.09331
4436.29,0.09351
4430.51,0.09226
4424.72,0.09226
4418.93,0.09114
4413.15,0.08944
4407.36,0.08890
4401.57,0.08728
4395.79,0.08569
4390,0.08464
4384.21,0.08315
4378.43,0.08246
4372.64,0.07985
4366.85,0.07874
4361.07,0.07724
4355.28,0.07474
4349.49,0.07086
4343.71,0.06830
4337.92,0.06640
4332.14,0.06472
4326.35,0.06308
4320.56,0.06282
4314.78,0.06894
4308.99,0.07421
4303.2,0.07677
4297.42,0.07695
4291.63,0.07740
4285.84,0.07747
4280.06,0.07569
4274.27,0.07476
4268.48,0.07217
4262.7,0.07013
4256.91,0.06700
4251.13,0.06633
4245.34,0.06977
4239.55,0.07241
4233.77,0.07350
4227.98,0.07318
4222.19,0.07224
4216.41,0.07246
4210.62,0.07248
4204.83,0.07169
4199.05,0.06998
4193.26,0.06996
4187.47,0.06935
4181.69,0.06966
4175.9,0.06968
4170.11,0.06918
4164.33,0.06997
4158.54,0.06919
4152.76,0.06972
4146.97,0.07008
4141.18,0.07049
4135.4,0.07048
4129.61,0.07151
4123.82,0.07105
4118.04,0.07114
4112.25,0.07125
4106.46,0.07135
4100.68,0.07156
4094.89,0.07219
4089.1,0.07338
4083.32,0.07551
4077.53,0.07523
4071.74,0.07682
4065.96,0.07715
4060.17,0.07774
4054.39,0.07849
4048.6,0.07877
4042.81,0.07923
4037.03,0.07948
4031.24,0.07984
4025.45,0.08000
4019.67,0.08098
4013.88,0.08242
4008.09,0.08273
4002.31,0.08296
3996.52,0.08265
3990.73,0.08305
3984.95,0.08280
3979.16,0.08229
3973.37,0.08235
3967.59,0.08229
3961.8,0.08245
3956.02,0.08350
3950.23,0.08365
3944.44,0.08297
3938.66,0.08348
3932.87,0.08268
3927.08,0.08228
3921.3,0.08267
3915.51,0.08161
3909.72,0.08240
3903.94,0.08138
3898.15,0.08331
3892.36,0.08303
3886.58,0.08412
3880.79,0.08385
3875,0.08431
3869.22,0.08406
3863.43,0.08581
3857.65,0.08593
3851.86,0.08507
3846.07,0.08612
3840.29,0.08658
3834.5,0.08643
3828.71,0.08636
3822.93,0.08636
3817.14,0.08726
3811.35,0.08720
3805.57,0.08807
3799.78,0.08776
3793.99,0.08861
3788.21,0.08884
3782.42,0.08921
3776.63,0.08919
3770.85,0.08926
3765.06,0.08994
3759.28,0.09023
3753.49,0.08913
3747.7,0.08875
3741.92,0.08889
3736.13,0.08922
3730.34,0.08882
3724.56,0.08842
3718.77,0.08843
3712.98,0.08725
3707.2,0.08711
3701.41,0.08679
3695.62,0.08592
3689.84,0.08487
3684.05,0.08486
3678.26,0.08511
3672.48,0.08381
3666.69,0.08432
3660.91,0.08435
3655.12,0.08376
3649.33,0.08232
3643.55,0.08316
3637.76,0.08348
3631.97,0.08486
3626.19,0.08295
3620.4,0.08430
3614.61,0.08315
3608.83,0.08101
3603.04,0.08031
3597.25,0.08419
3591.47,0.08715
3585.68,0.08905
3579.89,0.08980
3574.11,0.09044
3568.32,0.09037
3562.54,0.09124
3556.75,0.09196
3550.96,0.09164
3545.18,0.09150
3539.39,0.09213
3533.6,0.09166
3527.82,0.09139
3522.03,0.09138
3516.24,0.09125
3510.46,0.09006
3504.67,0.09059
3498.88,0.09096
3493.1,0.09011
3487.31,0.08927
3481.52,0.08752
3475.74,0.08576
3469.95,0.08249
3464.17,0.07880
3458.38,0.07715
3452.59,0.07818
3446.81,0.08007
3441.02,0.08324
3435.23,0.08599
3429.45,0.08627
3423.66,0.08799
3417.87,0.08785
3412.09,0.08866
3406.3,0.08835
3400.51,0.08855
3394.73,0.08866
3388.94,0.08834
3383.15,0.08842
3377.37,0.08816
3371.58,0.08793
3365.8,0.08814
3360.01,0.08902
3354.22,0.08843
3348.44,0.08806
3342.65,0.08901
3336.86,0.08913
3331.08,0.08920
3325.29,0.08879
3319.5,0.08990
3313.72,0.08927
3307.93,0.08921
3302.14,0.08843
3296.36,0.08894
3290.57,0.08873
3284.78,0.08820
3279,0.08808
3273.21,0.08788
3267.43,0.08780
3261.64,0.08753
3255.85,0.08750
3250.07,0.08759
3244.28,0.08714
3238.49,0.08711
3232.71,0.08708
3226.92,0.08657
3221.13,0.08612
3215.35,0.08659
3209.56,0.08616
3203.77,0.08578
3197.99,0.08500
3192.2,0.08499
3186.41,0.08488
3180.63,0.08480
3174.84,0.08402
3169.06,0.08381
3163.27,0.08312
3157.48,0.08299
3151.7,0.08344
3145.91,0.08237
3140.12,0.08164
3134.34,0.08099
3128.55,0.07932
3122.76,0.07853
3116.98,0.07775
3111.19,0.07573
3105.4,0.07436
3099.62,0.07192
3093.83,0.06968
3088.05,0.06730
3082.26,0.06593
3076.47,0.06398
3070.69,0.06276
3064.9,0.06177
3059.11,0.06082
3053.33,0.05992
3047.54,0.05877
3041.75,0.05769
3035.97,0.05632
3030.18,0.05547
3024.39,0.05542
3018.61,0.05445
3012.82,0.05440
3007.03,0.05428
3001.25,0.05344
2995.46,0.05310
2989.68,0.05206
2983.89,0.05165
2978.1,0.05043
2972.32,0.04926
2966.53,0.04822
2960.74,0.04691
2954.96,0.04690
2949.17,0.04488
2943.38,0.04107
2937.6,0.03943
2931.81,0.04036
2926.02,0.04886
2920.24,0.07166
2914.45,0.08676
2908.66,0.07819
2902.88,0.07223
2897.09,0.06940
2891.31,0.06743
2885.52,0.06627
2879.73,0.06420
2873.95,0.06237
2868.16,0.05872
2862.37,0.05532
2856.59,0.05368
2850.8,0.06971
2845.01,0.08299
2839.23,0.07630
2833.44,0.07145
2827.65,0.06782
2821.87,0.06694
2816.08,0.06639
2810.29,0.06634
2804.51,0.06641
2798.72,0.06664
2792.94,0.06710
2787.15,0.06804
2781.36,0.06742
2775.58,0.06744
2769.79,0.06749
2764,0.06775
2758.22,0.06784
2752.43,0.06681
2746.64,0.06653
2740.86,0.06600
2735.07,0.06610
2729.28,0.06581
2723.5,0.06603
2717.71,0.06650
2711.92,0.06667
2706.14,0.06686
2700.35,0.06670
2694.57,0.06604
2688.78,0.06626
2682.99,0.06603
2677.21,0.06541
2671.42,0.06571
2665.63,0.06622
2659.85,0.06722
2654.06,0.06757
2648.27,0.06788
2642.49,0.06839
2636.7,0.06830
2630.91,0.06929
2625.13,0.07021
2619.34,0.07081
2613.55,0.07236
2607.77,0.07329
2601.98,0.07389
2596.2,0.07466
2590.41,0.07637
2584.62,0.07729
2578.84,0.07815
2573.05,0.07959
2567.26,0.08048
2561.48,0.08078
2555.69,0.08089
2549.9,0.08178
2544.12,0.08182
2538.33,0.08248
2532.54,0.08239
2526.76,0.08211
2520.97,0.08276
2515.18,0.08476
2509.4,0.08509
2503.61,0.08507
2497.83,0.08502
2492.04,0.08549
2486.25,0.08479
2480.47,0.08471
2474.68,0.08509
2468.89,0.08625
2463.11,0.08712
2457.32,0.08874
2451.53,0.09019
2445.75,0.09054
2439.96,0.09150
2434.17,0.09246
2428.39,0.09193
2422.6,0.09078
2416.81,0.09034
2411.03,0.09088
2405.24,0.09056
2399.46,0.09046
2393.67,0.09111
2387.88,0.09078
2382.1,0.09035
2376.31,0.09046
2370.52,0.09008
2364.74,0.08797
2358.95,0.08710
2353.16,0.08569
2347.38,0.08394
2341.59,0.08227
2335.8,0.08218
2330.02,0.08141
2324.23,0.08068
2318.44,0.08182
2312.66,0.08241
2306.87,0.08289
2301.09,0.08228
2295.3,0.08408
2289.51,0.08398
2283.73,0.08367
2277.94,0.08466
2272.15,0.08526
2266.37,0.08594
2260.58,0.08583
2254.79,0.08697
2249.01,0.08749
2243.22,0.08791
2237.43,0.08940
2231.65,0.09153
2225.86,0.09139
2220.07,0.09249
2214.29,0.09312
2208.5,0.09295
2202.72,0.09236
2196.93,0.09288
2191.14,0.09257
2185.36,0.09150
2179.57,0.09114
2173.78,0.09152
2168,0.09083
2162.21,0.09018
2156.42,0.09025
2150.64,0.09068
2144.85,0.09068
2139.06,0.09149
2133.28,0.09301
2127.49,0.09309
2121.7,0.09268
2115.92,0.09320
2110.13,0.09344
2104.35,0.09211
2098.56,0.09172
2092.77,0.09210
2086.99,0.09131
2081.2,0.09007
2075.41,0.08955
2069.63,0.08956
2063.84,0.08839
2058.05,0.08732
2052.27,0.08723
2046.48,0.08621
2040.69,0.08474
2034.91,0.08462
2029.12,0.08415
2023.33,0.08214
2017.55,0.08180
2011.76,0.08567
2005.98,0.08777
2000.19,0.08859
1994.4,0.09047
1988.62,0.09138
1982.83,0.09139
1977.04,0.09148
1971.26,0.09208
1965.47,0.09181
1959.68,0.09103
1953.9,0.09189
1948.11,0.09238
1942.32,0.09147
1936.54,0.09116
1930.75,0.09175
1924.96,0.09074
1919.18,0.08971
1913.39,0.08940
1907.61,0.08828
1901.82,0.08560
1896.03,0.08499
1890.25,0.08603
1884.46,0.08524
1878.67,0.08421
1872.89,0.08421
1867.1,0.08273
1861.31,0.08197
1855.53,0.08286
1849.74,0.08305
1843.95,0.08129
1838.17,0.08093
1832.38,0.08048
1826.6,0.07779
1820.81,0.07655
1815.02,0.07623
1809.24,0.07433
1803.45,0.07261
1797.66,0.07167
1791.88,0.06957
1786.09,0.06783
1780.3,0.06663
1774.52,0.06473
1768.73,0.06329
1762.94,0.06179
1757.16,0.06297
1751.37,0.06577
1745.58,0.07227
1739.8,0.06949
1734.01,0.05907
1728.23,0.05461
1722.44,0.05517
1716.65,0.05645
1710.87,0.05786
1705.08,0.05924
1699.29,0.05869
1693.51,0.05988
1687.72,0.06361
1681.93,0.06700
1676.15,0.06825
1670.36,0.07039
1664.57,0.07028
1658.79,0.06946
1653,0.06852
1647.21,0.06772
1641.43,0.07085
1635.64,0.07535
1629.86,0.07597
1624.07,0.07550
1618.28,0.07714
1612.5,0.07819
1606.71,0.07689
1600.92,0.07687
1595.14,0.07747
1589.35,0.07642
1583.56,0.07594
1577.78,0.07670
1571.99,0.07570
1566.2,0.07382
1560.42,0.07448
1554.63,0.07493
1548.84,0.07464
1543.06,0.07410
1537.27,0.07434
1531.49,0.07326
1525.7,0.07284
1519.91,0.07271
1514.13,0.07123
1508.34,0.07041
1502.55,0.06831
1496.77,0.06615
1490.98,0.06378
1485.19,0.05948
1479.41,0.05456
1473.62,0.05261
1467.83,0.05689
1462.05,0.06142
1456.26,0.06260
1450.47,0.06235
1444.69,0.06095
1438.9,0.06056
1433.12,0.05987
1427.33,0.05924
1421.54,0.05963
1415.76,0.05964
1409.97,0.06065
1404.18,0.05971
1398.4,0.05898
1392.61,0.05569
1386.82,0.05312
1381.04,0.05283
1375.25,0.05376
1369.46,0.05570
1363.68,0.05646
1357.89,0.05615
1352.1,0.05670
1346.32,0.05732
1340.53,0.05868
1334.75,0.06048
1328.96,0.06217
1323.17,0.06099
1317.39,0.06067
1311.6,0.06050
1305.81,0.06010
1300.03,0.06140
1294.24,0.06217
1288.45,0.06227
1282.67,0.06340
1276.88,0.06453
1271.09,0.06565
1265.31,0.06794
1259.52,0.06914
1253.73,0.06837
1247.95,0.06301
1242.16,0.05448
1236.38,0.04779
1230.59,0.04795
1224.8,0.05106
1219.02,0.05314
1213.23,0.05550
1207.44,0.05673
1201.66,0.05775
1195.87,0.05814
1190.08,0.05840
1184.3,0.05957
1178.51,0.05958
1172.72,0.05913
1166.94,0.06028
1161.15,0.05909
1155.36,0.05852
1149.58,0.05843
1143.79,0.05772
1138.01,0.05768
1132.22,0.05865
1126.43,0.05919
1120.65,0.05849
1114.86,0.05994
1109.07,0.06145
1103.29,0.06058
1097.5,0.06070
1091.71,0.06169
1085.93,0.06163
1080.14,0.06177
1074.35,0.06324
1068.57,0.06318
1062.78,0.06249
1056.99,0.06305
1051.21,0.06313
1045.42,0.06262
1039.64,0.06301
1033.85,0.06280
1028.06,0.06339
1022.28,0.06257
1016.49,0.06171
1010.7,0.06101
1004.92,0.06103
999.13,0.06175
993.344,0.06139
987.557,0.06190
981.771,0.06236
975.984,0.06103
970.198,0.05914
964.411,0.05983
958.625,0.05899
952.838,0.05792
947.052,0.05908
941.265,0.06012
935.479,0.05933
929.692,0.06057
923.906,0.06575
918.12,0.06916
912.333,0.06762
906.547,0.06893
900.76,0.07178
894.974,0.06867
889.187,0.06873
883.401,0.07324
877.614,0.07205
871.828,0.06866
866.041,0.07158
860.255,0.07424
854.468,0.07033
848.682,0.07220
842.895,0.07773
837.109,0.07628
831.323,0.07434
825.536,0.07978
819.75,0.07964
813.963,0.07381
808.177,0.07580
802.39,0.07888
796.604,0.07385
790.817,0.07324
785.031,0.08052
779.244,0.07859
773.458,0.07146
767.671,0.07476
761.885,0.07699
756.098,0.06665
750.312,0.06689
744.526,0.06699
738.739,0.05768
732.953,0.05322
727.166,0.05548
721.38,0.05609
715.593,0.06179
709.807,0.06614
704.02,0.06749
698.234,0.07874
692.447,0.08979
686.661,0.07689
680.874,0.08626
675.088,0.09595
669.301,0.07906
663.515,0.07870
657.729,0.09234
651.942,0.07836
646.156,0.06545
640.369,0.07576
634.583,0.08070
628.796,0.06316
623.01,0.06561
617.223,0.08144
611.437,0.06370
605.65,0.05743
599.864,0.06233