File: 01_Data/PEVA/FTIR/IS/PEVA_0.26_IS_T_240809_R7.dpt
7497.2,0.04184
7491.41,0.03056
7485.63,0.04686
7479.84,0.04317
7474.05,0.03653
7468.27,0.04106
7462.48,0.03889
7456.7,0.04056
7450.91,0.03483
7445.12,0.03577
7439.34,0.03739
7433.55,0.03760
7427.76,0.03502
7421.98,0.03601
7416.19,0.03148
7410.4,0.04056
7404.62,0.02860
7398.83,0.02801
7393.05,0.03726
7387.26,0.04161
7381.47,0.03600
7375.69,0.02115
7369.9,0.02974
7364.11,0.01748
7358.33,0.03164
7352.54,0.02985
7346.75,0.03641
7340.97,0.04703
7335.18,0.03596
7329.4,0.03962
7323.61,0.03701
7317.82,0.04811
7312.04,0.04591
7306.25,0.01575
7300.46,0.03096
7294.68,0.03630
7288.89,0.03031
7283.1,0.03934
7277.32,0.03482
7271.53,0.03862
7265.75,0.03285
7259.96,0.04536
7254.17,0.02916
7248.39,0.03902
7242.6,0.03530
7236.81,0.04127
7231.03,0.03760
7225.24,0.03404
7219.45,0.02743
7213.67,0.03646
7207.88,0.04388
7202.1,0.04451
7196.31,0.03711
7190.52,0.03067
7184.74,0.03927
7178.95,0.02786
7173.16,0.03952
7167.38,0.03070
7161.59,0.02889
7155.8,0.02854
7150.02,0.04123
7144.23,0.03830
7138.45,0.04036
7132.66,0.04054
7126.87,0.03813
7121.09,0.02470
7115.3,0.04153
7109.51,0.02971
7103.73,0.03406
7097.94,0.03463
7092.15,0.03401
7086.37,0.03779
7080.58,0.03179
7074.8,0.02865
7069.01,0.03322
7063.22,0.03863
7057.44,0.03143
7051.65,0.03271
7045.86,0.04597
7040.08,0.03857
7034.29,0.03001
7028.5,0.03133
7022.72,0.02980
7016.93,0.02326
7011.15,0.02784
7005.36,0.03800
6999.57,0.03195
6993.79,0.03357
6988,0.03006
6982.21,0.03491
6976.43,0.03490
6970.64,0.03530
6964.85,0.03086
6959.07,0.03102
6953.28,0.03471
6947.5,0.03407
6941.71,0.03726
6935.92,0.03330
6930.14,0.04042
6924.35,0.03441
6918.56,0.03139
6912.78,0.03358
6906.99,0.03385
6901.2,0.02830
6895.42,0.03355
6889.63,0.03792
6883.85,0.02740
6878.06,0.02440
6872.27,0.03283
6866.49,0.03023
6860.7,0.03308
6854.91,0.03622
6849.13,0.03291
6843.34,0.03043
6837.55,0.03074
6831.77,0.03437
6825.98,0.03149
6820.2,0.03624
6814.41,0.03589
6808.62,0.03557
6802.84,0.03659
6797.05,0.03309
6791.26,0.02712
6785.48,0.03181
6779.69,0.03853
6773.9,0.03205
6768.12,0.02866
6762.33,0.02908
6756.55,0.03185
6750.76,0.02901
6744.97,0.02751
6739.19,0.02879
6733.4,0.03571
6727.61,0.03072
6721.83,0.03156
6716.04,0.03335
6710.25,0.03376
6704.47,0.03419
6698.68,0.03148
6692.9,0.03465
6687.11,0.03253
6681.32,0.03233
6675.54,0.02549
6669.75,0.03118
6663.96,0.03284
6658.18,0.03521
6652.39,0.03453
6646.6,0.03575
6640.82,0.02504
6635.03,0.03271
6629.25,0.03600
6623.46,0.03232
6617.67,0.03474
6611.89,0.03271
6606.1,0.03410
6600.31,0.02629
6594.53,0.03066
6588.74,0.02722
6582.95,0.02728
6577.17,0.03414
6571.38,0.03254
6565.6,0.03309
6559.81,0.03313
6554.02,0.03393
6548.24,0.03349
6542.45,0.03419
6536.66,0.03457
6530.88,0.03086
6525.09,0.03000
6519.3,0.02790
6513.52,0.03648
6507.73,0.03200
6501.95,0.03162
6496.16,0.02648
6490.37,0.03120
6484.59,0.03672
6478.8,0.03002
6473.01,0.03175
6467.23,0.03698
6461.44,0.03323
6455.65,0.03296
6449.87,0.03098
6444.08,0.02479
6438.3,0.03018
6432.51,0.03399
6426.72,0.03109
6420.94,0.02546
6415.15,0.02847
6409.36,0.02707
6403.58,0.03012
6397.79,0.02646
6392,0.03138
6386.22,0.02733
6380.43,0.03247
6374.65,0.03039
6368.86,0.03253
6363.07,0.03282
6357.29,0.03332
6351.5,0.03051
6345.71,0.02958
6339.93,0.03109
6334.14,0.02833
6328.35,0.03059
6322.57,0.03325
6316.78,0.03281
6310.99,0.02780
6305.21,0.03025
6299.42,0.03342
6293.64,0.03091
6287.85,0.03028
6282.06,0.03153
6276.28,0.03064
6270.49,0.03257
6264.7,0.03411
6258.92,0.03315
6253.13,0.03095
6247.34,0.03526
6241.56,0.03757
6235.77,0.03149
6229.99,0.03332
6224.2,0.03138
6218.41,0.02919
6212.63,0.02788
6206.84,0.02770
6201.05,0.03265
6195.27,0.03083
6189.48,0.03290
6183.69,0.02779
6177.91,0.03392
6172.12,0.03020
6166.34,0.02999
6160.55,0.03098
6154.76,0.02433
6148.98,0.03021
6143.19,0.03228
6137.4,0.02971
6131.62,0.02873
6125.83,0.03031
6120.04,0.03103
6114.26,0.03252
6108.47,0.02960
6102.69,0.03014
6096.9,0.02975
6091.11,0.02973
6085.33,0.03149
6079.54,0.02981
6073.75,0.03238
6067.97,0.02840
6062.18,0.02822
6056.39,0.03128
6050.61,0.03052
6044.82,0.02598
6039.04,0.03069
6033.25,0.02999
6027.46,0.02969
6021.68,0.03138
6015.89,0.03015
6010.1,0.02782
6004.32,0.02641
5998.53,0.03259
5992.74,0.03283
5986.96,0.02915
5981.17,0.03123
5975.39,0.02891
5969.6,0.03074
5963.81,0.03089
5958.03,0.03234
5952.24,0.02986
5946.45,0.02967
5940.67,0.03066
5934.88,0.03061
5929.09,0.03038
5923.31,0.03246
5917.52,0.03213
5911.74,0.03076
5905.95,0.03449
5900.16,0.03303
5894.38,0.02924
5888.59,0.03131
5882.8,0.03023
5877.02,0.02842
5871.23,0.03141
5865.44,0.03168
5859.66,0.03195
5853.87,0.02775
5848.09,0.02967
5842.3,0.03173
5836.51,0.02863
5830.73,0.03190
5824.94,0.03002
5819.15,0.02854
5813.37,0.03094
5807.58,0.03093
5801.79,0.02964
5796.01,0.02893
5790.22,0.03055
5784.44,0.03036
5778.65,0.03248
5772.86,0.02896
5767.08,0.03062
5761.29,0.03101
5755.5,0.02952
5749.72,0.03162
5743.93,0.02950
5738.14,0.03026
5732.36,0.02878
5726.57,0.02991
5720.79,0.02981
5715,0.02968
5709.21,0.02830
5703.43,0.02967
5697.64,0.02943
5691.85,0.03108
5686.07,0.03023
5680.28,0.03087
5674.49,0.03175
5668.71,0.03221
5662.92,0.02839
5657.14,0.03183
5651.35,0.02964
5645.56,0.03231
5639.78,0.03275
5633.99,0.03129
5628.2,0.02905
5622.42,0.03113
5616.63,0.03041
5610.84,0.02719
5605.06,0.03078
5599.27,0.03065
5593.49,0.02924
5587.7,0.03063
5581.91,0.03049
5576.13,0.02954
5570.34,0.02968
5564.55,0.03043
5558.77,0.02976
5552.98,0.02930
5547.19,0.02912
5541.41,0.03036
5535.62,0.02937
5529.84,0.02997
5524.05,0.03214
5518.26,0.03090
5512.48,0.02969
5506.69,0.03086
5500.9,0.03018
5495.12,0.03106
5489.33,0.02969
5483.54,0.03083
5477.76,0.03140
5471.97,0.03195
5466.19,0.03164
5460.4,0.02968
5454.61,0.03116
5448.83,0.02980
5443.04,0.03129
5437.25,0.03290
5431.47,0.02981
5425.68,0.02980
5419.89,0.03155
5414.11,0.03031
5408.32,0.02977
5402.54,0.03218
5396.75,0.03068
5390.96,0.03262
5385.18,0.02910
5379.39,0.03054
5373.6,0.03202
5367.82,0.03231
5362.03,0.03007
5356.24,0.03043
5350.46,0.03052
5344.67,0.02865
5338.89,0.02977
5333.1,0.03132
5327.31,0.02873
5321.53,0.02963
5315.74,0.03028
5309.95,0.03159
5304.17,0.03100
5298.38,0.03077
5292.59,0.03088
5286.81,0.03025
5281.02,0.03057
5275.24,0.02876
5269.45,0.03160
5263.66,0.03119
5257.88,0.03027
5252.09,0.03132
5246.3,0.03052
5240.52,0.03147
5234.73,0.03095
5228.94,0.03054
5223.16,0.02986
5217.37,0.03120
5211.59,0.03091
5205.8,0.03114
5200.01,0.03047
5194.23,0.03059
5188.44,0.03280
5182.65,0.03243
5176.87,0.03179
5171.08,0.03070
5165.29,0.03076
5159.51,0.03062
5153.72,0.03013
5147.94,0.03080
5142.15,0.02939
5136.36,0.03035
5130.58,0.03184
5124.79,0.03046
5119,0.03097
5113.22,0.03152
5107.43,0.03100
5101.64,0.03112
5095.86,0.03022
5090.07,0.03232
5084.29,0.03017
5078.5,0.03056
5072.71,0.03034
5066.93,0.03048
5061.14,0.03147
5055.35,0.03064
5049.57,0.03037
5043.78,0.03118
5037.99,0.02877
5032.21,0.02996
5026.42,0.03105
5020.64,0.03027
5014.85,0.03060
5009.06,0.03040
5003.28,0.03127
4997.49,0.02975
4991.7,0.03007
4985.92,0.03074
4980.13,0.03068
4974.34,0.03105
4968.56,0.03200
4962.77,0.03145
4956.99,0.03156
4951.2,0.03047
4945.41,0.03065
4939.63,0.03036
4933.84,0.03062
4928.05,0.02968
4922.27,0.03073
4916.48,0.03080
4910.69,0.03094
4904.91,0.02994
4899.12,0.03121
4893.34,0.03021
4887.55,0.03055
4881.76,0.03091
4875.98,0.03151
4870.19,0.03027
4864.4,0.03166
4858.62,0.03039
4852.83,0.03098
4847.04,0.03126
4841.26,0.03103
4835.47,0.03162
4829.69,0.03060
4823.9,0.02991
4818.11,0.03133
4812.33,0.03128
4806.54,0.03022
4800.75,0.03028
4794.97,0.02989
4789.18,0.03120
4783.39,0.02949
4777.61,0.02945
4771.82,0.03068
4766.04,0.03094
4760.25,0.03160
4754.46,0.03103
4748.68,0.03155
4742.89,0.03079
4737.1,0.02957
4731.32,0.03052
4725.53,0.03181
4719.74,0.03031
4713.96,0.03080
4708.17,0.03056
4702.39,0.03019
4696.6,0.03100
4690.81,0.03077
4685.03,0.02868
4679.24,0.03084
4673.45,0.03035
4667.67,0.03137
4661.88,0.03010
4656.09,0.03112
4650.31,0.03121
4644.52,0.03190
4638.74,0.02975
4632.95,0.03009
4627.16,0.03054
4621.38,0.03088
4615.59,0.03195
4609.8,0.03160
4604.02,0.03128
4598.23,0.02988
4592.44,0.02982
4586.66,0.03059
4580.87,0.03076
4575.09,0.03072
4569.3,0.03085
4563.51,0.03024
4557.73,0.03114
4551.94,0.03158
4546.15,0.03095
4540.37,0.03108
4534.58,0.03060
4528.79,0.03126
4523.01,0.03093
4517.22,0.03120
4511.44,0.03077
4505.65,0.03079
4499.86,0.03091
4494.08,0.03154
4488.29,0.03115
4482.5,0.03040
4476.72,0.03074
4470.93,0.03072
4465.14,0.03172
4459.36,0.03018
4453.57,0.03023
4447.79,0.03033
4442,0.03138
4436.21,0.02950
4430.43,0.03053
4424.64,0.03213
4418.85,0.03121
4413.07,0.03002
4407.28,0.03049
4401.49,0.03042
4395.71,0.03091
4389.92,0.03125
4384.14,0.03018
4378.35,0.03060
4372.56,0.03104
4366.78,0.02998
4360.99,0.03020
4355.2,0.03015
4349.42,0.03002
4343.63,0.03080
4337.84,0.03018
4332.06,0.03009
4326.27,0.03130
4320.49,0.03067
4314.7,0.02893
4308.91,0.03020
4303.13,0.03008
4297.34,0.03060
4291.55,0.03019
4285.77,0.03029
4279.98,0.03096
4274.19,0.03054
4268.41,0.03028
4262.62,0.03082
4256.84,0.03049
4251.05,0.03103
4245.26,0.03089
4239.48,0.03145
4233.69,0.03069
4227.9,0.03029
4222.12,0.03108
4216.33,0.03026
4210.54,0.03097
4204.76,0.02987
4198.97,0.03077
4193.19,0.03054
4187.4,0.03096
4181.61,0.03048
4175.83,0.03102
4170.04,0.03104
4164.25,0.03072
4158.47,0.03065
4152.68,0.03038
4146.89,0.02981
4141.11,0.03027
4135.32,0.03040
4129.54,0.03099
4123.75,0.03199
4117.96,0.03104
4112.18,0.03045
4106.39,0.03031
4100.6,0.03049
4094.82,0.03031
4089.03,0.03051
4083.24,0.03033
4077.46,0.03099
4071.67,0.02986
4065.89,0.03080
4060.1,0.03069
4054.31,0.03080
4048.53,0.03111
4042.74,0.03034
4036.95,0.03014
4031.17,0.03051
4025.38,0.03086
4019.59,0.03111
4013.81,0.03055
4008.02,0.03031
4002.24,0.03025
3996.45,0.02988
3990.66,0.02991
3984.88,0.02982
3979.09,0.03037
3973.3,0.03000
3967.52,0.02982
3961.73,0.02966
3955.94,0.02958
3950.16,0.03040
3944.37,0.03033
3938.59,0.03021
3932.8,0.03049
3927.01,0.03032
3921.23,0.03019
3915.44,0.03019
3909.65,0.03020
3903.87,0.03126
3898.08,0.03008
3892.29,0.02990
3886.51,0.03002
3880.72,0.03042
3874.94,0.03020
3869.15,0.03094
3863.36,0.03029
3857.58,0.03048
3851.79,0.02990
3846,0.03083
3840.22,0.03054
3834.43,0.03075
3828.64,0.03066
3822.86,0.03033
3817.07,0.03010
3811.29,0.03024
3805.5,0.03060
3799.71,0.02942
3793.93,0.02970
3788.14,0.03073
3782.35,0.02980
3776.57,0.03029
3770.78,0.03050
3764.99,0.02980
3759.21,0.03051
3753.42,0.03184
3747.64,0.03057
3741.85,0.02878
3736.06,0.03188
3730.28,0.03000
3724.49,0.03019
3718.7,0.03046
3712.92,0.02966
3707.13,0.02900
3701.34,0.03010
3695.56,0.02970
3689.77,0.03001
3683.99,0.02977
3678.2,0.03002
3672.41,0.02972
3666.63,0.02957
3660.84,0.02999
3655.05,0.02878
3649.27,0.02800
3643.48,0.02860
3637.69,0.02814
3631.91,0.02809
3626.12,0.02812
3620.34,0.02883
3614.55,0.02895
3608.76,0.02911
3602.98,0.02802
3597.19,0.02849
3591.4,0.02807
3585.62,0.02864
3579.83,0.02798
3574.04,0.02804
3568.26,0.02771
3562.47,0.02763
3556.69,0.02766
3550.9,0.02667
3545.11,0.02727
3539.33,0.02731
3533.54,0.02742
3527.75,0.02712
3521.97,0.02733
3516.18,0.02654
3510.39,0.02752
3504.61,0.02770
3498.82,0.02729
3493.04,0.02648
3487.25,0.02739
3481.46,0.02713
3475.68,0.02624
3469.89,0.02635
3464.1,0.02693
3458.32,0.02633
3452.53,0.02634
3446.74,0.02689
3440.96,0.02690
3435.17,0.02701
3429.39,0.02653
3423.6,0.02662
3417.81,0.02668
3412.03,0.02649
3406.24,0.02576
3400.45,0.02615
3394.67,0.02650
3388.88,0.02639
3383.09,0.02667
3377.31,0.02644
3371.52,0.02679
3365.74,0.02638
3359.95,0.02658
3354.16,0.02603
3348.38,0.02588
3342.59,0.02668
3336.8,0.02661
3331.02,0.02660
3325.23,0.02677
3319.44,0.02683
3313.66,0.02626
3307.87,0.02629
3302.09,0.02658
3296.3,0.02669
3290.51,0.02644
3284.73,0.02691
3278.94,0.02748
3273.15,0.02627
3267.37,0.02693
3261.58,0.02667
3255.79,0.02650
3250.01,0.02697
3244.22,0.02726
3238.44,0.02643
3232.65,0.02722
3226.86,0.02669
3221.08,0.02731
3215.29,0.02685
3209.5,0.02715
3203.72,0.02655
3197.93,0.02661
3192.14,0.02810
3186.36,0.02737
3180.57,0.02748
3174.79,0.02707
3169,0.02696
3163.21,0.02754
3157.43,0.02714
3151.64,0.02789
3145.85,0.02731
3140.07,0.02699
3134.28,0.02732
3128.49,0.02717
3122.71,0.02772
3116.92,0.02687
3111.14,0.02695
3105.35,0.02789
3099.56,0.02753
3093.78,0.02774
3087.99,0.02719
3082.2,0.02715
3076.42,0.02682
3070.63,0.02690
3064.84,0.02749
3059.06,0.02688
3053.27,0.02690
3047.49,0.02709
3041.7,0.02721
3035.91,0.02736
3030.13,0.02727
3024.34,0.02701
3018.55,0.02727
3012.77,0.02728
3006.98,0.02686
3001.19,0.02656
2995.41,0.02690
2989.62,0.02702
2983.84,0.02649
2978.05,0.02661
2972.26,0.02589
2966.48,0.02596
2960.69,0.02590
2954.9,0.02645
2949.12,0.02635
2943.33,0.02572
2937.54,0.02617
2931.76,0.02623
2925.97,0.02669
2920.19,0.02621
2914.4,0.02666
2908.61,0.02696
2902.83,0.02723
2897.04,0.02676
2891.25,0.02677
2885.47,0.02658
2879.68,0.02705
2873.89,0.02638
2868.11,0.02696
2862.32,0.02690
2856.54,0.02717
2850.75,0.02746
2844.96,0.02754
2839.18,0.02749
2833.39,0.02778
2827.6,0.02740
2821.82,0.02783
2816.03,0.02748
2810.24,0.02736
2804.46,0.02711
2798.67,0.02737
2792.89,0.02762
2787.1,0.02752
2781.31,0.02744
2775.53,0.02720
2769.74,0.02733
2763.95,0.02770
2758.17,0.02784
2752.38,0.02737
2746.59,0.02773
2740.81,0.02779
2735.02,0.02794
2729.24,0.02795
2723.45,0.02765
2717.66,0.02772
2711.88,0.02751
2706.09,0.02735
2700.3,0.02763
2694.52,0.02725
2688.73,0.02770
2682.94,0.02780
2677.16,0.02765
2671.37,0.02751
2665.59,0.02776
2659.8,0.02783
2654.01,0.02788
2648.23,0.02801
2642.44,0.02747
2636.65,0.02738
2630.87,0.02746
2625.08,0.02738
2619.29,0.02790
2613.51,0.02779
2607.72,0.02760
2601.94,0.02800
2596.15,0.02715
2590.36,0.02759
2584.58,0.02743
2578.79,0.02728
2573,0.02751
2567.22,0.02765
2561.43,0.02719
2555.64,0.02738
2549.86,0.02767
2544.07,0.02753
2538.29,0.02717
2532.5,0.02750
2526.71,0.02743
2520.93,0.02742
2515.14,0.02729
2509.35,0.02748
2503.57,0.02774
2497.78,0.02745
2491.99,0.02729
2486.21,0.02711
2480.42,0.02744
2474.64,0.02720
2468.85,0.02745
2463.06,0.02759
2457.28,0.02724
2451.49,0.02742
2445.7,0.02725
2439.92,0.02739
2434.13,0.02716
2428.34,0.02702
2422.56,0.02744
2416.77,0.02702
2410.99,0.02731
2405.2,0.02717
2399.41,0.02691
2393.63,0.02762
2387.84,0.02737
2382.05,0.02753
2376.27,0.02735
2370.48,0.02759
2364.69,0.02705
2358.91,0.02750
2353.12,0.02728
2347.34,0.02783
2341.55,0.02786
2335.76,0.02771
2329.98,0.02791
2324.19,0.02710
2318.4,0.02738
2312.62,0.02706
2306.83,0.02726
2301.04,0.02715
2295.26,0.02680
2289.47,0.02690
2283.69,0.02683
2277.9,0.02689
2272.11,0.02714
2266.33,0.02686
2260.54,0.02663
2254.75,0.02675
2248.97,0.02719
2243.18,0.02646
2237.39,0.02688
2231.61,0.02641
2225.82,0.02682
2220.04,0.02651
2214.25,0.02661
2208.46,0.02647
2202.68,0.02678
2196.89,0.02655
2191.1,0.02658
2185.32,0.02642
2179.53,0.02663
2173.74,0.02661
2167.96,0.02626
2162.17,0.02654
2156.39,0.02652
2150.6,0.02614
2144.81,0.02655
2139.03,0.02633
2133.24,0.02665
2127.45,0.02691
2121.67,0.02645
2115.88,0.02647
2110.09,0.02649
2104.31,0.02614
2098.52,0.02611
2092.74,0.02614
2086.95,0.02639
2081.16,0.02637
2075.38,0.02652
2069.59,0.02606
2063.8,0.02615
2058.02,0.02648
2052.23,0.02639
2046.44,0.02643
2040.66,0.02597
2034.87,0.02639
2029.09,0.02634
2023.3,0.02610
2017.51,0.02620
2011.73,0.02623
2005.94,0.02603
2000.15,0.02634
1994.37,0.02604
1988.58,0.02579
1982.79,0.02575
1977.01,0.02611
1971.22,0.02627
1965.44,0.02595
1959.65,0.02604
1953.86,0.02630
1948.08,0.02595
1942.29,0.02570
1936.5,0.02603
1930.72,0.02614
1924.93,0.02571
1919.14,0.02584
1913.36,0.02601
1907.57,0.02553
1901.79,0.02598
1896,0.02562
1890.21,0.02577
1884.43,0.02556
1878.64,0.02537
1872.85,0.02568
1867.07,0.02506
1861.28,0.02550
1855.49,0.02544
1849.71,0.02531
1843.92,0.02534
1838.14,0.02513
1832.35,0.02509
1826.56,0.02464
1820.78,0.02500
1814.99,0.02472
1809.2,0.02426
1803.42,0.02440
1797.63,0.02418
1791.84,0.02394
1786.06,0.02394
1780.27,0.02318
1774.49,0.02370
1768.7,0.02330
1762.91,0.02259
1757.13,0.02192
1751.34,0.02166
1745.55,0.02165
1739.77,0.02336
1733.98,0.02405
1728.19,0.02459
1722.41,0.02474
1716.62,0.02455
1710.84,0.02421
1705.05,0.02458
1699.26,0.02344
1693.48,0.02297
1687.69,0.02274
1681.9,0.02196
1676.12,0.02272
1670.33,0.02248
1664.54,0.02202
1658.76,0.02187
1652.97,0.02168
1647.19,0.02202
1641.4,0.02195
1635.61,0.02269
1629.83,0.02193
1624.04,0.02277
1618.25,0.02259
1612.47,0.02270
1606.68,0.02284
1600.89,0.02226
1595.11,0.02249
1589.32,0.02247
1583.54,0.02195
1577.75,0.02187
1571.96,0.02185
1566.18,0.02177
1560.39,0.02185
1554.6,0.02182
1548.82,0.02213
1543.03,0.02197
1537.24,0.02222
1531.46,0.02265
1525.67,0.02242
1519.89,0.02248
1514.1,0.02185
1508.31,0.02257
1502.53,0.02197
1496.74,0.02239
1490.95,0.02290
1485.17,0.02224
1479.38,0.02214
1473.59,0.02142
1467.81,0.02194
1462.02,0.02202
1456.24,0.02136
1450.45,0.02168
1444.66,0.02240
1438.88,0.02179
1433.09,0.02211
1427.3,0.02136
1421.52,0.02193
1415.73,0.02150
1409.94,0.02123
1404.16,0.02165
1398.37,0.02147
1392.59,0.02097
1386.8,0.02081
1381.01,0.02099
1375.23,0.02151
1369.44,0.02148
1363.65,0.02129
1357.87,0.02125
1352.08,0.02077
1346.29,0.02113
1340.51,0.02095
1334.72,0.02055
1328.94,0.02020
1323.15,0.02015
1317.36,0.01993
1311.58,0.01978
1305.79,0.01967
1300,0.02049
1294.22,0.02060
1288.43,0.02107
1282.64,0.02133
1276.86,0.02205
1271.07,0.02210
1265.29,0.02242
1259.5,0.02216
1253.71,0.02274
1247.93,0.02323
1242.14,0.02204
1236.35,0.02284
1230.57,0.02255
1224.78,0.02241
1218.99,0.02242
1213.21,0.02200
1207.42,0.02202
1201.64,0.02159
1195.85,0.02161
1190.06,0.02174
1184.28,0.02056
1178.49,0.02076
1172.7,0.02035
1166.92,0.02035
1161.13,0.02053
1155.34,0.02044
1149.56,0.02063
1143.77,0.02060
1137.99,0.02115
1132.2,0.02086
1126.41,0.02132
1120.63,0.02200
1114.84,0.02188
1109.05,0.02244
1103.27,0.02201
1097.48,0.02127
1091.69,0.02271
1085.91,0.02241
1080.12,0.02223
1074.34,0.02344
1068.55,0.02453
1062.76,0.02472
1056.98,0.02420
1051.19,0.02378
1045.4,0.02305
1039.62,0.02330
1033.83,0.02348
1028.04,0.02338
1022.26,0.02315
1016.47,0.02295
1010.69,0.02423
1004.9,0.02411
999.112,0.02469
993.326,0.02412
987.54,0.02439
981.753,0.02426
975.967,0.02423
970.18,0.02361
964.394,0.02370
958.608,0.02422
952.821,0.02369
947.035,0.02280
941.249,0.02253
935.462,0.02276
929.676,0.02298
923.89,0.02298
918.103,0.02309
912.317,0.02241
906.53,0.02235
900.744,0.02287
894.958,0.02265
889.171,0.02280
883.385,0.02252
877.599,0.02261
871.812,0.02214
866.026,0.02143
860.24,0.02224
854.453,0.02224
848.667,0.02232
842.88,0.02218
837.094,0.02193
831.308,0.02244
825.521,0.02186
819.735,0.02149
813.949,0.02185
808.162,0.02178
802.376,0.02171
796.59,0.02133
790.803,0.02044
785.017,0.02037
779.23,0.02113
773.444,0.02118
767.658,0.02064
761.871,0.01975
756.085,0.02075
750.299,0.02091
744.512,0.02103
738.726,0.02031
732.94,0.02065
727.153,0.02011
721.367,0.02022
715.58,0.02093
709.794,0.02035
704.008,0.02013
698.221,0.01930
692.435,0.02026
686.649,0.01994
680.862,0.01763
675.076,0.01767
669.29,0.01923
663.503,0.02022
657.717,0.01990
651.93,0.01852
646.144,0.01914
640.358,0.01926
634.571,0.01884
628.785,0.01677
622.999,0.01905
617.212,0.01841
611.426,0.01737
605.639,0.01864
599.853,0.02162