File: 01_Data/PEVA/FTIR/IS/PEVA_0.10_IS_Trans_S_240819_R2.dpt
7496.91,0.93822
7491.12,0.93289
7485.33,0.93252
7479.55,0.93377
7473.76,0.94288
7467.98,0.92829
7462.19,0.94567
7456.4,0.94142
7450.62,0.93474
7444.83,0.93664
7439.04,0.95286
7433.26,0.94363
7427.47,0.94925
7421.69,0.93079
7415.9,0.94111
7410.11,0.95023
7404.33,0.94021
7398.54,0.95089
7392.76,0.94346
7386.97,0.94938
7381.18,0.94311
7375.4,0.91672
7369.61,0.93364
7363.83,0.92897
7358.04,0.93376
7352.25,0.92284
7346.47,0.93220
7340.68,0.92790
7334.89,0.94143
7329.11,0.94510
7323.32,0.93048
7317.54,0.92650
7311.75,0.92887
7305.96,0.93668
7300.18,0.92522
7294.39,0.91444
7288.61,0.94281
7282.82,0.94290
7277.03,0.92965
7271.25,0.94159
7265.46,0.92752
7259.67,0.93826
7253.89,0.92750
7248.1,0.93526
7242.32,0.92829
7236.53,0.92170
7230.74,0.91684
7224.96,0.92241
7219.17,0.92225
7213.39,0.92547
7207.6,0.92290
7201.81,0.91870
7196.03,0.92468
7190.24,0.92302
7184.45,0.93049
7178.67,0.92760
7172.88,0.92843
7167.1,0.92220
7161.31,0.91847
7155.52,0.93699
7149.74,0.92452
7143.95,0.91302
7138.17,0.92105
7132.38,0.93141
7126.59,0.93189
7120.81,0.92959
7115.02,0.93343
7109.23,0.92984
7103.45,0.93406
7097.66,0.93377
7091.88,0.92775
7086.09,0.93486
7080.3,0.92947
7074.52,0.92972
7068.73,0.92424
7062.95,0.92455
7057.16,0.91667
7051.37,0.93052
7045.59,0.93233
7039.8,0.93234
7034.02,0.93522
7028.23,0.92731
7022.44,0.93410
7016.66,0.92620
7010.87,0.92083
7005.08,0.93214
6999.3,0.93462
6993.51,0.92751
6987.73,0.93396
6981.94,0.92836
6976.15,0.92823
6970.37,0.92999
6964.58,0.91969
6958.8,0.93075
6953.01,0.92894
6947.22,0.93482
6941.44,0.93069
6935.65,0.93998
6929.86,0.93228
6924.08,0.94037
6918.29,0.93326
6912.51,0.93780
6906.72,0.92562
6900.93,0.92141
6895.15,0.93400
6889.36,0.92570
6883.58,0.93500
6877.79,0.92904
6872,0.93507
6866.22,0.93758
6860.43,0.93445
6854.64,0.94042
6848.86,0.92440
6843.07,0.92586
6837.29,0.94269
6831.5,0.94035
6825.71,0.93598
6819.93,0.94204
6814.14,0.93945
6808.36,0.93225
6802.57,0.93607
6796.78,0.93600
6791,0.93970
6785.21,0.93712
6779.43,0.93123
6773.64,0.93413
6767.85,0.93755
6762.07,0.93898
6756.28,0.93494
6750.49,0.93123
6744.71,0.93988
6738.92,0.93684
6733.14,0.93939
6727.35,0.94088
6721.56,0.94575
6715.78,0.93756
6709.99,0.94153
6704.21,0.93458
6698.42,0.93434
6692.63,0.93565
6686.85,0.93938
6681.06,0.94202
6675.27,0.93326
6669.49,0.93944
6663.7,0.93880
6657.92,0.93550
6652.13,0.93919
6646.34,0.93785
6640.56,0.93417
6634.77,0.93493
6628.99,0.93248
6623.2,0.92893
6617.41,0.93987
6611.63,0.94337
6605.84,0.93764
6600.05,0.93700
6594.27,0.94175
6588.48,0.94748
6582.7,0.94208
6576.91,0.93614
6571.12,0.94016
6565.34,0.93905
6559.55,0.94112
6553.77,0.93669
6547.98,0.93813
6542.19,0.93661
6536.41,0.94034
6530.62,0.94114
6524.84,0.92962
6519.05,0.92906
6513.26,0.93456
6507.48,0.94600
6501.69,0.93248
6495.9,0.93019
6490.12,0.94080
6484.33,0.94257
6478.55,0.94355
6472.76,0.94434
6466.97,0.94812
6461.19,0.94062
6455.4,0.94024
6449.62,0.94455
6443.83,0.93983
6438.04,0.93978
6432.26,0.93944
6426.47,0.93327
6420.68,0.94130
6414.9,0.93783
6409.11,0.94452
6403.33,0.93358
6397.54,0.94002
6391.75,0.93814
6385.97,0.94247
6380.18,0.94357
6374.4,0.94301
6368.61,0.93844
6362.82,0.94750
6357.04,0.94028
6351.25,0.93835
6345.46,0.93811
6339.68,0.94167
6333.89,0.94525
6328.11,0.94874
6322.32,0.94523
6316.53,0.93803
6310.75,0.94079
6304.96,0.94683
6299.18,0.94301
6293.39,0.94137
6287.6,0.93944
6281.82,0.93693
6276.03,0.94420
6270.24,0.94054
6264.46,0.93963
6258.67,0.94478
6252.89,0.93955
6247.1,0.93887
6241.31,0.94073
6235.53,0.93555
6229.74,0.94138
6223.96,0.94189
6218.17,0.93959
6212.38,0.93738
6206.6,0.93749
6200.81,0.93588
6195.03,0.93960
6189.24,0.93565
6183.45,0.94047
6177.67,0.93983
6171.88,0.93774
6166.09,0.93891
6160.31,0.94538
6154.52,0.93766
6148.74,0.93862
6142.95,0.94176
6137.16,0.93219
6131.38,0.93380
6125.59,0.93534
6119.81,0.93546
6114.02,0.93730
6108.23,0.93150
6102.45,0.93367
6096.66,0.93391
6090.87,0.93615
6085.09,0.93570
6079.3,0.93658
6073.52,0.93758
6067.73,0.93353
6061.94,0.93165
6056.16,0.93508
6050.37,0.93215
6044.59,0.93394
6038.8,0.92803
6033.01,0.93403
6027.23,0.92838
6021.44,0.93264
6015.65,0.93135
6009.87,0.93990
6004.08,0.93105
5998.3,0.93123
5992.51,0.92802
5986.72,0.93072
5980.94,0.93217
5975.15,0.92710
5969.37,0.92427
5963.58,0.92464
5957.79,0.92578
5952.01,0.92888
5946.22,0.93084
5940.44,0.92838
5934.65,0.92674
5928.86,0.92252
5923.08,0.92451
5917.29,0.92046
5911.5,0.92058
5905.72,0.92117
5899.93,0.92118
5894.15,0.91928
5888.36,0.91522
5882.57,0.91212
5876.79,0.90888
5871,0.90823
5865.22,0.90174
5859.43,0.90124
5853.64,0.89343
5847.86,0.88632
5842.07,0.88209
5836.28,0.87686
5830.5,0.87040
5824.71,0.86350
5818.93,0.86150
5813.14,0.84846
5807.35,0.84503
5801.57,0.83253
5795.78,0.82469
5790,0.81294
5784.21,0.79348
5778.42,0.77708
5772.64,0.77575
5766.85,0.79714
5761.06,0.82718
5755.28,0.84471
5749.49,0.86189
5743.71,0.86765
5737.92,0.87227
5732.13,0.87700
5726.35,0.88307
5720.56,0.89180
5714.78,0.89167
5708.99,0.88845
5703.2,0.88539
5697.42,0.88201
5691.63,0.87726
5685.84,0.87231
5680.06,0.86680
5674.27,0.86102
5668.49,0.85107
5662.7,0.85048
5656.91,0.86030
5651.13,0.87598
5645.34,0.88335
5639.56,0.88868
5633.77,0.89135
5627.98,0.88919
5622.2,0.89320
5616.41,0.89663
5610.63,0.89783
5604.84,0.90093
5599.05,0.89803
5593.27,0.90070
5587.48,0.90220
5581.69,0.90111
5575.91,0.90119
5570.12,0.89744
5564.34,0.89633
5558.55,0.89599
5552.76,0.89423
5546.98,0.89567
5541.19,0.89913
5535.41,0.89635
5529.62,0.89570
5523.83,0.89572
5518.05,0.89699
5512.26,0.89941
5506.47,0.89664
5500.69,0.90092
5494.9,0.89315
5489.12,0.89382
5483.33,0.89800
5477.54,0.89920
5471.76,0.89722
5465.97,0.89773
5460.19,0.89602
5454.4,0.89882
5448.61,0.89574
5442.83,0.89783
5437.04,0.90145
5431.25,0.89848
5425.47,0.90251
5419.68,0.90413
5413.9,0.89603
5408.11,0.90207
5402.32,0.90870
5396.54,0.90718
5390.75,0.90972
5384.97,0.90637
5379.18,0.90741
5373.39,0.90718
5367.61,0.91178
5361.82,0.91226
5356.04,0.91037
5350.25,0.90880
5344.46,0.90371
5338.68,0.90283
5332.89,0.91301
5327.1,0.91518
5321.32,0.91905
5315.53,0.91260
5309.75,0.90961
5303.96,0.91303
5298.17,0.91814
5292.39,0.91761
5286.6,0.91363
5280.82,0.91361
5275.03,0.91594
5269.24,0.91330
5263.46,0.91172
5257.67,0.91681
5251.88,0.91359
5246.1,0.90717
5240.31,0.91407
5234.53,0.91079
5228.74,0.91209
5222.95,0.91340
5217.17,0.91656
5211.38,0.91684
5205.6,0.90835
5199.81,0.91571
5194.02,0.91763
5188.24,0.91694
5182.45,0.91707
5176.66,0.91632
5170.88,0.91492
5165.09,0.91606
5159.31,0.91593
5153.52,0.91805
5147.73,0.92200
5141.95,0.92062
5136.16,0.91834
5130.38,0.91570
5124.59,0.91833
5118.8,0.91975
5113.02,0.92098
5107.23,0.92033
5101.45,0.91721
5095.66,0.91852
5089.87,0.91945
5084.09,0.91886
5078.3,0.92172
5072.51,0.91967
5066.73,0.91900
5060.94,0.92007
5055.16,0.92015
5049.37,0.92206
5043.58,0.92302
5037.8,0.92300
5032.01,0.92108
5026.23,0.91923
5020.44,0.92100
5014.65,0.92020
5008.87,0.92256
5003.08,0.92253
4997.29,0.92045
4991.51,0.91676
4985.72,0.91616
4979.94,0.91891
4974.15,0.92066
4968.36,0.92019
4962.58,0.91708
4956.79,0.91600
4951.01,0.91945
4945.22,0.92016
4939.43,0.92292
4933.65,0.92431
4927.86,0.92023
4922.07,0.91808
4916.29,0.91800
4910.5,0.91997
4904.72,0.92347
4898.93,0.92418
4893.14,0.92119
4887.36,0.91901
4881.57,0.91835
4875.79,0.92029
4870,0.92310
4864.21,0.92366
4858.43,0.92228
4852.64,0.92020
4846.85,0.92054
4841.07,0.92359
4835.28,0.92468
4829.5,0.92620
4823.71,0.92577
4817.92,0.92354
4812.14,0.92340
4806.35,0.92433
4800.57,0.92735
4794.78,0.92682
4788.99,0.92679
4783.21,0.92499
4777.42,0.92508
4771.64,0.92679
4765.85,0.92921
4760.06,0.93001
4754.28,0.92754
4748.49,0.92795
4742.7,0.92664
4736.92,0.92651
4731.13,0.92825
4725.35,0.92966
4719.56,0.92913
4713.77,0.92733
4707.99,0.92761
4702.2,0.92815
4696.42,0.93127
4690.63,0.93105
4684.84,0.92958
4679.06,0.92857
4673.27,0.92625
4667.48,0.92713
4661.7,0.92837
4655.91,0.93074
4650.13,0.93091
4644.34,0.92955
4638.55,0.92832
4632.77,0.92730
4626.98,0.92969
4621.2,0.92965
4615.41,0.92892
4609.62,0.92822
4603.84,0.92710
4598.05,0.92607
4592.26,0.92861
4586.48,0.92873
4580.69,0.92834
4574.91,0.92731
4569.12,0.92622
4563.33,0.92550
4557.55,0.92577
4551.76,0.92668
4545.98,0.92560
4540.19,0.92472
4534.4,0.92215
4528.62,0.92269
4522.83,0.92167
4517.05,0.92205
4511.26,0.92174
4505.47,0.91959
4499.69,0.91717
4493.9,0.91759
4488.11,0.91793
4482.33,0.91678
4476.54,0.91478
4470.76,0.91227
4464.97,0.90999
4459.18,0.90716
4453.4,0.90748
4447.61,0.90487
4441.83,0.90134
4436.04,0.89689
4430.25,0.89260
4424.47,0.88766
4418.68,0.88207
4412.89,0.87547
4407.11,0.86512
4401.32,0.85309
4395.54,0.83910
4389.75,0.82714
4383.96,0.81473
4378.18,0.80012
4372.39,0.78576
4366.61,0.76911
4360.82,0.75001
4355.03,0.72093
4349.25,0.67367
4343.46,0.61142
4337.67,0.55582
4331.89,0.49883
4326.1,0.40504
4320.32,0.38287
4314.53,0.56179
4308.74,0.67858
4302.96,0.72387
4297.17,0.73800
4291.39,0.73514
4285.6,0.72363
4279.81,0.71278
4274.03,0.69723
4268.24,0.66823
4262.46,0.61279
4256.67,0.53311
4250.88,0.48841
4245.1,0.58454
4239.31,0.66009
4233.52,0.67411
4227.74,0.65897
4221.95,0.63872
4216.17,0.63951
4210.38,0.64361
4204.59,0.63315
4198.81,0.60514
4193.02,0.58637
4187.24,0.58758
4181.45,0.59123
4175.66,0.59345
4169.88,0.59581
4164.09,0.59801
4158.3,0.59928
4152.52,0.60080
4146.73,0.60312
4140.95,0.60735
4135.16,0.61213
4129.37,0.61595
4123.59,0.61952
4117.8,0.62028
4112.02,0.62002
4106.23,0.61840
4100.44,0.61768
4094.66,0.62373
4088.87,0.64538
4083.08,0.67157
4077.3,0.68852
4071.51,0.70006
4065.73,0.70913
4059.94,0.71730
4054.15,0.72535
4048.37,0.73262
4042.58,0.73879
4036.8,0.74585
4031.01,0.74777
4025.22,0.74503
4019.44,0.74991
4013.65,0.77213
4007.86,0.78394
4002.08,0.79009
3996.29,0.78938
3990.51,0.78772
3984.72,0.78773
3978.93,0.78697
3973.15,0.78822
3967.36,0.79465
3961.58,0.79551
3955.79,0.79677
3950,0.79192
3944.22,0.79019
3938.43,0.79269
3932.65,0.78088
3926.86,0.77793
3921.07,0.77546
3915.29,0.77549
3909.5,0.78041
3903.71,0.76617
3897.93,0.77402
3892.14,0.77428
3886.36,0.77590
3880.57,0.77392
3874.78,0.77684
3869,0.77398
3863.21,0.78118
3857.43,0.78888
3851.64,0.77924
3845.85,0.79536
3840.07,0.77731
3834.28,0.78764
3828.49,0.79506
3822.71,0.78534
3816.92,0.78512
3811.14,0.80223
3805.35,0.79661
3799.56,0.79921
3793.78,0.82053
3787.99,0.82483
3782.21,0.82172
3776.42,0.82721
3770.63,0.82170
3764.85,0.82574
3759.06,0.82146
3753.27,0.81350
3747.49,0.80620
3741.7,0.81623
3735.92,0.80168
3730.13,0.82056
3724.34,0.81949
3718.56,0.82878
3712.77,0.81612
3706.99,0.82075
3701.2,0.81949
3695.41,0.82269
3689.63,0.80380
3683.84,0.82401
3678.06,0.80593
3672.27,0.79870
3666.48,0.81321
3660.7,0.81449
3654.91,0.79986
3649.12,0.76675
3643.34,0.78843
3637.55,0.80061
3631.77,0.80104
3625.98,0.80344
3620.19,0.79396
3614.41,0.77562
3608.62,0.74804
3602.84,0.74359
3597.05,0.78302
3591.26,0.82877
3585.48,0.84616
3579.69,0.86515
3573.9,0.87092
3568.12,0.85936
3562.33,0.87357
3556.55,0.88564
3550.76,0.88673
3544.97,0.88526
3539.19,0.89346
3533.4,0.89232
3527.62,0.88500
3521.83,0.88999
3516.04,0.89741
3510.26,0.89382
3504.47,0.89005
3498.68,0.89170
3492.9,0.89142
3487.11,0.88957
3481.33,0.88897
3475.54,0.89027
3469.75,0.88664
3463.97,0.88196
3458.18,0.87995
3452.4,0.87885
3446.61,0.87571
3440.82,0.87726
3435.04,0.87629
3429.25,0.87454
3423.47,0.87434
3417.68,0.87659
3411.89,0.87798
3406.11,0.87809
3400.32,0.87501
3394.53,0.87044
3388.75,0.86997
3382.96,0.86859
3377.18,0.86848
3371.39,0.86635
3365.6,0.86593
3359.82,0.86666
3354.03,0.86952
3348.25,0.87330
3342.46,0.87657
3336.67,0.87659
3330.89,0.87767
3325.1,0.87605
3319.31,0.87724
3313.53,0.87898
3307.74,0.88016
3301.96,0.88189
3296.17,0.88075
3290.38,0.87719
3284.6,0.87755
3278.81,0.87928
3273.03,0.87941
3267.24,0.87980
3261.45,0.87730
3255.67,0.87483
3249.88,0.87607
3244.09,0.87546
3238.31,0.87644
3232.52,0.87345
3226.74,0.86985
3220.95,0.86737
3215.16,0.86469
3209.38,0.86372
3203.59,0.86158
3197.81,0.85553
3192.02,0.85129
3186.23,0.84810
3180.45,0.84783
3174.66,0.84681
3168.87,0.84248
3163.09,0.83696
3157.3,0.83279
3151.52,0.82964
3145.73,0.82773
3139.94,0.82218
3134.16,0.81516
3128.37,0.80647
3122.59,0.79807
3116.8,0.78818
3111.01,0.77550
3105.23,0.75667
3099.44,0.72688
3093.66,0.69022
3087.87,0.65863
3082.08,0.63806
3076.3,0.62214
3070.51,0.60669
3064.72,0.58905
3058.94,0.57088
3053.15,0.54676
3047.37,0.51869
3041.58,0.48860
3035.79,0.45620
3030.01,0.42811
3024.22,0.40299
3018.44,0.37888
3012.65,0.35311
3006.86,0.32480
3001.08,0.29144
2995.29,0.25177
2989.5,0.20365
2983.72,0.14543
2977.93,0.08203
2972.15,0.02983
2966.36,0.00624
2960.57,0.00147
2954.79,0.00097
2949,0.00094
2943.22,0.00083
2937.43,0.00075
2931.64,0.00147
2925.86,0.00102
2920.07,0.00117
2914.28,0.00052
2908.5,0.00097
2902.71,0.00109
2896.93,0.00098
2891.14,0.00068
2885.35,0.00073
2879.57,0.00046
2873.78,0.00084
2868,0.00110
2862.21,0.00071
2856.42,0.00098
2850.64,0.00069
2844.85,0.00041
2839.07,0.00081
2833.28,0.00408
2827.49,0.01752
2821.71,0.04186
2815.92,0.07141
2810.13,0.10466
2804.35,0.14023
2798.56,0.17882
2792.78,0.22232
2786.99,0.27078
2781.2,0.31821
2775.42,0.35834
2769.63,0.38835
2763.85,0.41096
2758.06,0.42978
2752.27,0.44376
2746.49,0.44550
2740.7,0.44324
2734.91,0.44707
2729.13,0.45657
2723.34,0.47100
2717.56,0.48450
2711.77,0.49602
2705.98,0.50727
2700.2,0.51546
2694.41,0.51189
2688.63,0.49967
2682.84,0.48972
2677.05,0.48080
2671.27,0.47125
2665.48,0.46557
2659.69,0.46704
2653.91,0.47494
2648.12,0.48305
2642.34,0.48298
2636.55,0.48035
2630.76,0.49328
2624.98,0.51974
2619.19,0.54641
2613.41,0.57199
2607.62,0.59382
2601.83,0.61155
2596.05,0.62680
2590.26,0.64615
2584.47,0.66781
2578.69,0.68721
2572.9,0.70320
2567.12,0.71645
2561.33,0.72674
2555.54,0.73500
2549.76,0.74144
2543.97,0.75623
2538.19,0.76802
2532.4,0.76332
2526.61,0.76196
2520.83,0.77846
2515.04,0.79559
2509.26,0.80548
2503.47,0.81104
2497.68,0.81511
2491.9,0.81918
2486.11,0.82472
2480.32,0.82757
2474.54,0.82760
2468.75,0.83855
2462.97,0.84647
2457.18,0.84971
2451.39,0.85218
2445.61,0.85323
2439.82,0.85122
2434.04,0.84736
2428.25,0.84262
2422.46,0.83536
2416.68,0.83007
2410.89,0.83430
2405.1,0.83869
2399.32,0.84029
2393.53,0.84188
2387.75,0.84186
2381.96,0.83142
2376.17,0.80407
2370.39,0.77424
2364.6,0.74937
2358.82,0.73395
2353.03,0.73356
2347.24,0.73136
2341.46,0.70775
2335.67,0.70891
2329.88,0.71119
2324.1,0.72416
2318.31,0.74775
2312.53,0.76974
2306.74,0.78802
2300.95,0.80245
2295.17,0.81331
2289.38,0.82231
2283.6,0.82899
2277.81,0.82981
2272.02,0.83520
2266.24,0.84567
2260.45,0.85237
2254.67,0.85543
2248.88,0.85623
2243.09,0.85518
2237.31,0.86199
2231.52,0.87031
2225.73,0.87062
2219.95,0.87200
2214.16,0.87598
2208.38,0.87703
2202.59,0.87456
2196.8,0.87223
2191.02,0.87201
2185.23,0.87308
2179.45,0.87471
2173.66,0.87451
2167.87,0.87133
2162.09,0.86653
2156.3,0.86319
2150.51,0.86283
2144.73,0.86673
2138.94,0.87320
2133.16,0.87832
2127.37,0.88186
2121.58,0.88687
2115.8,0.89165
2110.01,0.89380
2104.23,0.89162
2098.44,0.88736
2092.65,0.88362
2086.87,0.88356
2081.08,0.88616
2075.29,0.88631
2069.51,0.88138
2063.72,0.87283
2057.94,0.86674
2052.15,0.86338
2046.36,0.86059
2040.58,0.85419
2034.79,0.84365
2029.01,0.82765
2023.22,0.80889
2017.43,0.80314
2011.65,0.84155
2005.86,0.87358
2000.08,0.88489
1994.29,0.88393
1988.5,0.88265
1982.72,0.88803
1976.93,0.89356
1971.14,0.89696
1965.36,0.89081
1959.57,0.88546
1953.79,0.88050
1948,0.88075
1942.21,0.88136
1936.43,0.89133
1930.64,0.88897
1924.86,0.87679
1919.07,0.86548
1913.28,0.86523
1907.5,0.86113
1901.71,0.85827
1895.92,0.84897
1890.14,0.85751
1884.35,0.87434
1878.57,0.88378
1872.78,0.89127
1866.99,0.89124
1861.21,0.90543
1855.42,0.90116
1849.64,0.89218
1843.85,0.88206
1838.06,0.89789
1832.28,0.89994
1826.49,0.89131
1820.7,0.88589
1814.92,0.87819
1809.13,0.87506
1803.35,0.88384
1797.56,0.88878
1791.77,0.88418
1785.99,0.89108
1780.2,0.87701
1774.42,0.86463
1768.63,0.86929
1762.84,0.87545
1757.06,0.85908
1751.27,0.81758
1745.48,0.78770
1739.7,0.78741
1733.91,0.80904
1728.13,0.84002
1722.34,0.82657
1716.55,0.79240
1710.77,0.80860
1704.98,0.81567
1699.2,0.81751
1693.41,0.85777
1687.62,0.86062
1681.84,0.84993
1676.05,0.85056
1670.27,0.83687
1664.48,0.85226
1658.69,0.86224
1652.91,0.83753
1647.12,0.82760
1641.33,0.83222
1635.55,0.81243
1629.76,0.83179
1623.98,0.83304
1618.19,0.83762
1612.4,0.83914
1606.62,0.82699
1600.83,0.82252
1595.05,0.82339
1589.26,0.83196
1583.47,0.83643
1577.69,0.81939
1571.9,0.81263
1566.11,0.80736
1560.33,0.79407
1554.54,0.80306
1548.76,0.80833
1542.97,0.76925
1537.18,0.76570
1531.4,0.76477
1525.61,0.75453
1519.83,0.74349
1514.04,0.74068
1508.25,0.69683
1502.47,0.67794
1496.68,0.63601
1490.89,0.59193
1485.11,0.49235
1479.32,0.28497
1473.54,0.02148
1467.75,0.00052
1461.96,0.00048
1456.18,0.02109
1450.39,0.08187
1444.61,0.14146
1438.82,0.19223
1433.03,0.31303
1427.25,0.50743
1421.46,0.62796
1415.68,0.67953
1409.89,0.70591
1404.1,0.72539
1398.32,0.72946
1392.53,0.72314
1386.74,0.66405
1380.96,0.44851
1375.17,0.39100
1369.39,0.37707
1363.6,0.41572
1357.81,0.47488
1352.03,0.47429
1346.24,0.53120
1340.46,0.58999
1334.67,0.66405
1328.88,0.69084
1323.1,0.66942
1317.31,0.61727
1311.52,0.57045
1305.74,0.55133
1299.95,0.56042
1294.17,0.59509
1288.38,0.63165
1282.59,0.65175
1276.81,0.65892
1271.02,0.66524
1265.24,0.68668
1259.45,0.71020
1253.66,0.72410
1247.88,0.72878
1242.09,0.73472
1236.3,0.74081
1230.52,0.74944
1224.73,0.75987
1218.95,0.76649
1213.16,0.76421
1207.37,0.75941
1201.59,0.76154
1195.8,0.76387
1190.02,0.76516
1184.23,0.76709
1178.44,0.75786
1172.66,0.75577
1166.87,0.75296
1161.09,0.75421
1155.3,0.75822
1149.51,0.76109
1143.73,0.76549
1137.94,0.76950
1132.15,0.77159
1126.37,0.77582
1120.58,0.77865
1114.8,0.78019
1109.01,0.77884
1103.22,0.77272
1097.44,0.76077
1091.65,0.74456
1085.87,0.72816
1080.08,0.72354
1074.29,0.74414
1068.51,0.76009
1062.72,0.75952
1056.93,0.76650
1051.15,0.76294
1045.36,0.77687
1039.58,0.78210
1033.79,0.77696
1028,0.75691
1022.22,0.72432
1016.43,0.71589
1010.65,0.75973
1004.86,0.79957
999.073,0.81901
993.287,0.82508
987.501,0.82605
981.715,0.82341
975.929,0.82001
970.142,0.81762
964.356,0.82019
958.57,0.82410
952.784,0.82822
946.998,0.82969
941.212,0.83126
935.426,0.84048
929.64,0.85060
923.853,0.85427
918.067,0.84773
912.281,0.83108
906.495,0.82621
900.709,0.84078
894.923,0.84669
889.137,0.84522
883.35,0.84602
877.564,0.84302
871.778,0.84009
865.992,0.84790
860.206,0.85937
854.42,0.86227
848.634,0.85445
842.847,0.84075
837.061,0.83298
831.275,0.84082
825.489,0.85327
819.703,0.85653
813.917,0.84211
808.131,0.81855
802.344,0.80065
796.558,0.79863
790.772,0.80176
784.986,0.79115
779.2,0.75489
773.414,0.71591
767.628,0.70763
761.842,0.72610
756.055,0.73398
750.269,0.70821
744.483,0.64208
738.697,0.50990
732.911,0.16895
727.125,0.04867
721.339,0.02228
715.552,0.13467
709.766,0.43290
703.98,0.64906
698.194,0.75793
692.408,0.79095
686.622,0.80481
680.836,0.83977
675.049,0.87476
669.263,0.85344
663.477,0.87618
657.691,0.85843
651.905,0.86624
646.119,0.90200
640.333,0.93853
634.546,0.93986
628.76,0.91427
622.974,0.88313
617.188,0.88533
611.402,0.92203
605.616,0.94644
599.83,0.94432