File: 01_Data/PEVA/FTIR/IS/PEVA_0.10_IS_S_240808_R8.dpt
7496.93,0.08921
7491.14,0.09905
7485.35,0.10027
7479.57,0.09735
7473.78,0.10356
7468,0.08314
7462.21,0.10140
7456.42,0.09314
7450.64,0.10243
7444.85,0.09350
7439.06,0.10903
7433.28,0.10130
7427.49,0.09984
7421.71,0.09005
7415.92,0.10446
7410.13,0.10606
7404.35,0.09345
7398.56,0.09754
7392.78,0.09957
7386.99,0.08617
7381.2,0.11629
7375.42,0.10672
7369.63,0.09548
7363.84,0.10502
7358.06,0.09632
7352.27,0.10040
7346.49,0.10337
7340.7,0.10326
7334.91,0.09590
7329.13,0.09590
7323.34,0.09437
7317.56,0.10195
7311.77,0.09167
7305.98,0.08572
7300.2,0.10021
7294.41,0.08975
7288.62,0.09625
7282.84,0.09143
7277.05,0.08647
7271.27,0.09336
7265.48,0.10329
7259.69,0.10814
7253.91,0.09991
7248.12,0.09620
7242.34,0.08901
7236.55,0.09635
7230.76,0.09990
7224.98,0.09427
7219.19,0.09070
7213.4,0.09060
7207.62,0.10578
7201.83,0.08996
7196.05,0.09958
7190.26,0.09754
7184.47,0.09791
7178.69,0.09928
7172.9,0.09864
7167.12,0.08673
7161.33,0.09580
7155.54,0.09647
7149.76,0.09668
7143.97,0.09539
7138.18,0.09421
7132.4,0.08745
7126.61,0.08928
7120.83,0.08979
7115.04,0.09427
7109.25,0.09663
7103.47,0.09624
7097.68,0.09835
7091.9,0.10296
7086.11,0.10428
7080.32,0.09794
7074.54,0.09287
7068.75,0.08816
7062.96,0.09235
7057.18,0.08716
7051.39,0.08916
7045.61,0.09269
7039.82,0.10074
7034.03,0.09340
7028.25,0.09641
7022.46,0.10210
7016.68,0.09411
7010.89,0.08519
7005.1,0.08714
6999.32,0.09287
6993.53,0.10584
6987.74,0.09207
6981.96,0.08082
6976.17,0.08969
6970.39,0.10314
6964.6,0.09296
6958.81,0.09828
6953.03,0.10302
6947.24,0.08936
6941.46,0.09495
6935.67,0.09195
6929.88,0.09438
6924.1,0.09203
6918.31,0.09634
6912.52,0.09047
6906.74,0.09706
6900.95,0.10330
6895.17,0.09323
6889.38,0.10016
6883.59,0.09833
6877.81,0.10134
6872.02,0.10136
6866.24,0.09875
6860.45,0.09996
6854.66,0.09823
6848.88,0.09689
6843.09,0.10136
6837.3,0.09474
6831.52,0.09938
6825.73,0.09281
6819.95,0.09744
6814.16,0.09217
6808.37,0.09726
6802.59,0.09355
6796.8,0.08865
6791.02,0.09697
6785.23,0.10280
6779.44,0.09484
6773.66,0.09300
6767.87,0.10022
6762.08,0.09619
6756.3,0.09633
6750.51,0.09666
6744.73,0.09407
6738.94,0.09124
6733.15,0.09055
6727.37,0.09579
6721.58,0.09413
6715.8,0.10198
6710.01,0.09517
6704.22,0.09975
6698.44,0.09556
6692.65,0.09404
6686.86,0.09351
6681.08,0.09411
6675.29,0.09336
6669.51,0.10289
6663.72,0.09550
6657.93,0.09858
6652.15,0.09837
6646.36,0.09880
6640.58,0.09604
6634.79,0.10396
6629,0.09287
6623.22,0.09259
6617.43,0.09537
6611.64,0.09837
6605.86,0.09718
6600.07,0.09825
6594.29,0.09535
6588.5,0.09778
6582.71,0.09749
6576.93,0.09871
6571.14,0.09578
6565.36,0.09351
6559.57,0.09945
6553.78,0.09519
6548,0.09590
6542.21,0.10198
6536.42,0.09838
6530.64,0.09539
6524.85,0.09286
6519.07,0.09974
6513.28,0.09466
6507.49,0.09820
6501.71,0.09177
6495.92,0.09358
6490.14,0.09784
6484.35,0.10211
6478.56,0.09963
6472.78,0.09405
6466.99,0.09399
6461.2,0.10059
6455.42,0.09988
6449.63,0.09959
6443.85,0.09341
6438.06,0.09709
6432.27,0.10309
6426.49,0.09863
6420.7,0.09515
6414.92,0.09589
6409.13,0.09876
6403.34,0.09706
6397.56,0.09440
6391.77,0.09794
6385.98,0.09904
6380.2,0.09756
6374.41,0.09756
6368.63,0.09891
6362.84,0.09282
6357.05,0.09696
6351.27,0.09567
6345.48,0.10126
6339.7,0.09614
6333.91,0.09918
6328.12,0.09693
6322.34,0.09900
6316.55,0.10109
6310.76,0.09500
6304.98,0.09494
6299.19,0.09762
6293.41,0.09747
6287.62,0.09379
6281.83,0.09626
6276.05,0.09858
6270.26,0.09393
6264.48,0.09420
6258.69,0.09421
6252.9,0.08979
6247.12,0.09770
6241.33,0.09658
6235.54,0.09657
6229.76,0.09697
6223.97,0.09411
6218.19,0.09340
6212.4,0.09439
6206.61,0.09496
6200.83,0.09877
6195.04,0.09377
6189.26,0.09765
6183.47,0.09884
6177.68,0.09451
6171.9,0.09382
6166.11,0.09809
6160.32,0.09404
6154.54,0.09840
6148.75,0.09889
6142.97,0.09817
6137.18,0.09779
6131.39,0.09420
6125.61,0.09527
6119.82,0.09588
6114.04,0.09442
6108.25,0.10120
6102.46,0.09649
6096.68,0.09830
6090.89,0.09760
6085.1,0.09838
6079.32,0.09367
6073.53,0.09557
6067.75,0.10137
6061.96,0.09627
6056.17,0.09674
6050.39,0.09659
6044.6,0.10058
6038.82,0.09408
6033.03,0.09547
6027.24,0.09544
6021.46,0.09909
6015.67,0.09811
6009.88,0.09752
6004.1,0.09710
5998.31,0.10213
5992.53,0.10091
5986.74,0.09861
5980.95,0.09743
5975.17,0.09545
5969.38,0.09670
5963.6,0.09532
5957.81,0.09681
5952.02,0.09697
5946.24,0.09650
5940.45,0.09780
5934.66,0.09844
5928.88,0.10077
5923.09,0.09657
5917.31,0.09479
5911.52,0.09573
5905.73,0.09482
5899.95,0.09660
5894.16,0.09617
5888.38,0.09779
5882.59,0.09573
5876.8,0.09278
5871.02,0.09435
5865.23,0.09362
5859.44,0.09273
5853.66,0.08986
5847.87,0.09519
5842.09,0.09080
5836.3,0.09072
5830.51,0.09189
5824.73,0.08973
5818.94,0.08931
5813.16,0.09154
5807.37,0.09034
5801.58,0.08888
5795.8,0.08872
5790.01,0.08699
5784.22,0.08450
5778.44,0.08440
5772.65,0.08631
5766.87,0.08662
5761.08,0.08806
5755.29,0.08737
5749.51,0.09164
5743.72,0.09221
5737.94,0.09475
5732.15,0.09321
5726.36,0.09181
5720.58,0.09495
5714.79,0.09678
5709,0.09505
5703.22,0.09593
5697.43,0.09072
5691.65,0.09477
5685.86,0.09167
5680.07,0.09110
5674.29,0.09141
5668.5,0.09305
5662.72,0.09287
5656.93,0.09233
5651.14,0.09263
5645.36,0.09571
5639.57,0.09437
5633.78,0.09482
5628,0.09558
5622.21,0.09553
5616.43,0.09390
5610.64,0.09376
5604.85,0.09690
5599.07,0.09783
5593.28,0.09717
5587.5,0.09487
5581.71,0.09490
5575.92,0.09542
5570.14,0.09675
5564.35,0.09678
5558.56,0.09536
5552.78,0.09714
5546.99,0.09288
5541.21,0.09612
5535.42,0.09584
5529.63,0.09713
5523.85,0.09634
5518.06,0.09506
5512.28,0.09411
5506.49,0.09538
5500.7,0.09432
5494.92,0.09390
5489.13,0.09611
5483.34,0.09786
5477.56,0.09604
5471.77,0.09435
5465.99,0.09503
5460.2,0.09684
5454.41,0.09579
5448.63,0.09411
5442.84,0.09645
5437.06,0.09570
5431.27,0.09624
5425.48,0.09523
5419.7,0.09611
5413.91,0.09582
5408.12,0.09611
5402.34,0.09867
5396.55,0.09571
5390.77,0.09814
5384.98,0.09827
5379.19,0.09759
5373.41,0.09600
5367.62,0.09536
5361.84,0.09554
5356.05,0.09783
5350.26,0.09659
5344.48,0.09838
5338.69,0.09813
5332.9,0.09788
5327.12,0.09686
5321.33,0.09775
5315.55,0.09831
5309.76,0.09692
5303.97,0.09565
5298.19,0.09770
5292.4,0.09654
5286.62,0.09847
5280.83,0.09904
5275.04,0.09810
5269.26,0.09730
5263.47,0.09726
5257.68,0.09682
5251.9,0.09836
5246.11,0.09807
5240.33,0.10025
5234.54,0.09800
5228.75,0.09589
5222.97,0.09650
5217.18,0.09766
5211.4,0.09810
5205.61,0.09864
5199.82,0.09822
5194.04,0.09855
5188.25,0.09814
5182.46,0.09720
5176.68,0.09915
5170.89,0.09833
5165.11,0.09645
5159.32,0.09731
5153.53,0.09820
5147.75,0.09755
5141.96,0.09821
5136.18,0.09725
5130.39,0.09784
5124.6,0.09633
5118.82,0.09805
5113.03,0.09775
5107.24,0.09930
5101.46,0.10010
5095.67,0.09956
5089.89,0.09756
5084.1,0.09776
5078.31,0.09774
5072.53,0.09833
5066.74,0.09841
5060.96,0.09817
5055.17,0.09725
5049.38,0.09849
5043.6,0.09798
5037.81,0.09956
5032.02,0.09988
5026.24,0.10110
5020.45,0.09882
5014.67,0.09729
5008.88,0.09862
5003.09,0.09928
4997.31,0.09949
4991.52,0.10041
4985.74,0.09953
4979.95,0.09751
4974.16,0.09648
4968.38,0.09761
4962.59,0.09794
4956.8,0.09976
4951.02,0.09970
4945.23,0.09784
4939.45,0.09797
4933.66,0.09778
4927.87,0.09885
4922.09,0.09897
4916.3,0.09857
4910.52,0.09828
4904.73,0.09895
4898.94,0.09857
4893.16,0.09938
4887.37,0.10000
4881.58,0.10022
4875.8,0.09894
4870.01,0.09945
4864.23,0.10009
4858.44,0.09876
4852.65,0.09878
4846.87,0.09933
4841.08,0.09894
4835.3,0.09912
4829.51,0.10007
4823.72,0.09904
4817.94,0.10001
4812.15,0.09872
4806.36,0.09913
4800.58,0.09953
4794.79,0.09862
4789.01,0.09846
4783.22,0.09976
4777.43,0.10078
4771.65,0.09983
4765.86,0.10033
4760.08,0.09919
4754.29,0.09922
4748.5,0.09979
4742.72,0.10063
4736.93,0.10021
4731.14,0.10058
4725.36,0.09996
4719.57,0.10066
4713.79,0.10081
4708,0.09996
4702.21,0.10039
4696.43,0.10070
4690.64,0.10117
4684.86,0.09999
4679.07,0.10002
4673.28,0.10028
4667.5,0.10108
4661.71,0.10087
4655.92,0.10101
4650.14,0.09974
4644.35,0.10082
4638.57,0.10062
4632.78,0.09985
4626.99,0.09982
4621.21,0.10046
4615.42,0.10050
4609.64,0.10018
4603.85,0.09898
4598.06,0.10031
4592.28,0.09942
4586.49,0.10110
4580.7,0.10142
4574.92,0.10038
4569.13,0.09959
4563.35,0.09884
4557.56,0.10010
4551.77,0.10088
4545.99,0.10051
4540.2,0.09962
4534.42,0.09929
4528.63,0.09886
4522.84,0.10022
4517.06,0.10093
4511.27,0.10032
4505.48,0.10014
4499.7,0.09951
4493.91,0.09871
4488.13,0.09925
4482.34,0.09940
4476.55,0.09931
4470.77,0.09971
4464.98,0.09828
4459.2,0.09791
4453.41,0.09816
4447.62,0.09919
4441.84,0.09952
4436.05,0.09864
4430.26,0.09761
4424.48,0.09589
4418.69,0.09669
4412.91,0.09615
4407.12,0.09567
4401.33,0.09452
4395.55,0.09156
4389.76,0.09112
4383.98,0.09075
4378.19,0.08956
4372.4,0.08938
4366.62,0.08688
4360.83,0.08531
4355.04,0.08321
4349.26,0.08044
4343.47,0.07635
4337.69,0.07415
4331.9,0.07110
4326.11,0.06616
4320.33,0.06487
4314.54,0.07369
4308.76,0.08110
4302.97,0.08499
4297.18,0.08563
4291.4,0.08493
4285.61,0.08363
4279.82,0.08338
4274.04,0.08219
4268.25,0.08008
4262.47,0.07712
4256.68,0.07167
4250.89,0.06931
4245.11,0.07514
4239.32,0.07927
4233.54,0.08124
4227.75,0.08105
4221.96,0.07853
4216.18,0.07743
4210.39,0.07823
4204.6,0.07766
4198.82,0.07620
4193.03,0.07632
4187.25,0.07565
4181.46,0.07531
4175.67,0.07532
4169.89,0.07560
4164.1,0.07642
4158.32,0.07768
4152.53,0.07683
4146.74,0.07605
4140.96,0.07697
4135.17,0.07671
4129.38,0.07698
4123.6,0.07852
4117.81,0.07873
4112.03,0.07789
4106.24,0.07667
4100.45,0.07685
4094.67,0.07804
4088.88,0.08009
4083.1,0.08162
4077.31,0.08228
4071.52,0.08180
4065.74,0.08269
4059.95,0.08362
4054.16,0.08505
4048.38,0.08593
4042.59,0.08569
4036.81,0.08502
4031.02,0.08516
4025.23,0.08556
4019.45,0.08700
4013.66,0.08835
4007.88,0.08969
4002.09,0.08898
3996.3,0.08836
3990.52,0.08947
3984.73,0.08963
3978.94,0.08992
3973.16,0.08910
3967.37,0.08904
3961.59,0.08901
3955.8,0.08984
3950.01,0.09016
3944.23,0.09031
3938.44,0.09083
3932.66,0.08927
3926.87,0.08874
3921.08,0.08831
3915.3,0.08884
3909.51,0.08978
3903.72,0.08983
3897.94,0.08883
3892.15,0.08814
3886.37,0.08849
3880.58,0.08997
3874.79,0.09051
3869.01,0.09052
3863.22,0.09004
3857.44,0.09076
3851.65,0.08953
3845.86,0.09109
3840.08,0.09132
3834.29,0.09045
3828.5,0.09091
3822.72,0.09092
3816.93,0.09001
3811.15,0.09154
3805.36,0.09211
3799.57,0.09267
3793.79,0.09244
3788,0.09218
3782.22,0.09208
3776.43,0.09264
3770.64,0.09286
3764.86,0.09358
3759.07,0.09268
3753.28,0.09363
3747.5,0.09341
3741.71,0.09366
3735.93,0.09348
3730.14,0.09346
3724.35,0.09271
3718.57,0.09315
3712.78,0.09255
3707,0.09290
3701.21,0.09332
3695.42,0.09234
3689.64,0.09246
3683.85,0.09177
3678.06,0.09259
3672.28,0.09148
3666.49,0.09215
3660.71,0.09067
3654.92,0.09006
3649.13,0.08812
3643.35,0.08888
3637.56,0.09029
3631.78,0.09054
3625.99,0.09110
3620.2,0.08890
3614.42,0.08818
3608.63,0.08659
3602.84,0.08530
3597.06,0.08850
3591.27,0.09183
3585.49,0.09346
3579.7,0.09419
3573.91,0.09426
3568.13,0.09417
3562.34,0.09562
3556.56,0.09572
3550.77,0.09603
3544.98,0.09573
3539.2,0.09634
3533.41,0.09654
3527.62,0.09644
3521.84,0.09566
3516.05,0.09582
3510.27,0.09546
3504.48,0.09562
3498.69,0.09626
3492.91,0.09540
3487.12,0.09503
3481.34,0.09486
3475.55,0.09498
3469.76,0.09501
3463.98,0.09521
3458.19,0.09471
3452.4,0.09374
3446.62,0.09358
3440.83,0.09347
3435.05,0.09380
3429.26,0.09362
3423.47,0.09347
3417.69,0.09292
3411.9,0.09314
3406.12,0.09377
3400.33,0.09432
3394.54,0.09268
3388.76,0.09424
3382.97,0.09231
3377.18,0.09200
3371.4,0.09216
3365.61,0.09334
3359.83,0.09358
3354.04,0.09202
3348.25,0.09159
3342.47,0.09304
3336.68,0.09378
3330.9,0.09416
3325.11,0.09357
3319.32,0.09308
3313.54,0.09288
3307.75,0.09309
3301.96,0.09421
3296.18,0.09414
3290.39,0.09353
3284.61,0.09231
3278.82,0.09203
3273.03,0.09242
3267.25,0.09419
3261.46,0.09548
3255.68,0.09371
3249.89,0.09155
3244.1,0.09159
3238.32,0.09330
3232.53,0.09406
3226.74,0.09350
3220.96,0.09216
3215.17,0.09056
3209.39,0.09025
3203.6,0.09220
3197.81,0.09245
3192.03,0.09145
3186.24,0.08969
3180.46,0.08898
3174.67,0.08909
3168.88,0.09081
3163.1,0.09050
3157.31,0.08922
3151.52,0.08660
3145.74,0.08690
3139.95,0.08812
3134.17,0.08842
3128.38,0.08665
3122.59,0.08376
3116.81,0.08331
3111.02,0.08358
3105.24,0.08335
3099.45,0.07984
3093.66,0.07642
3087.88,0.07439
3082.09,0.07407
3076.3,0.07398
3070.52,0.07095
3064.73,0.06915
3058.95,0.06891
3053.16,0.06886
3047.37,0.06678
3041.59,0.06403
3035.8,0.06310
3030.02,0.06250
3024.23,0.06144
3018.44,0.05865
3012.66,0.05804
3006.87,0.05782
3001.08,0.05628
2995.3,0.05413
2989.51,0.05313
2983.73,0.05142
2977.94,0.04997
2972.15,0.04909
2966.37,0.04784
2960.58,0.04723
2954.8,0.04638
2949.01,0.04389
2943.22,0.04105
2937.44,0.03892
2931.65,0.03920
2925.86,0.04880
2920.08,0.07263
2914.29,0.08765
2908.51,0.07805
2902.72,0.07222
2896.93,0.06921
2891.15,0.06760
2885.36,0.06635
2879.58,0.06401
2873.79,0.06164
2868,0.05830
2862.22,0.05492
2856.43,0.05317
2850.64,0.07012
2844.86,0.08414
2839.07,0.07611
2833.29,0.07201
2827.5,0.06975
2821.71,0.06819
2815.93,0.06747
2810.14,0.06709
2804.36,0.06651
2798.57,0.06666
2792.78,0.06817
2787,0.06800
2781.21,0.06856
2775.42,0.07130
2769.64,0.07205
2763.85,0.07115
2758.07,0.07212
2752.28,0.07400
2746.49,0.07375
2740.71,0.07268
2734.92,0.07201
2729.14,0.07349
2723.35,0.07498
2717.56,0.07481
2711.78,0.07418
2705.99,0.07448
2700.2,0.07636
2694.42,0.07627
2688.63,0.07463
2682.85,0.07295
2677.06,0.07282
2671.27,0.07313
2665.49,0.07289
2659.7,0.07315
2653.92,0.07216
2648.13,0.07233
2642.34,0.07271
2636.56,0.07337
2630.77,0.07478
2624.98,0.07534
2619.2,0.07573
2613.41,0.07688
2607.63,0.07930
2601.84,0.08141
2596.05,0.08245
2590.27,0.08260
2584.48,0.08278
2578.7,0.08449
2572.91,0.08686
2567.12,0.08844
2561.34,0.08892
2555.55,0.08774
2549.76,0.08794
2543.98,0.08964
2538.19,0.09161
2532.41,0.09196
2526.62,0.09172
2520.83,0.09136
2515.05,0.09216
2509.26,0.09312
2503.48,0.09513
2497.69,0.09575
2491.9,0.09535
2486.12,0.09479
2480.33,0.09472
2474.55,0.09499
2468.76,0.09751
2462.97,0.09840
2457.19,0.09791
2451.4,0.09679
2445.61,0.09630
2439.83,0.09732
2434.04,0.09759
2428.26,0.09728
2422.47,0.09645
2416.68,0.09472
2410.9,0.09490
2405.11,0.09569
2399.32,0.09682
2393.54,0.09782
2387.75,0.09733
2381.97,0.09628
2376.18,0.09534
2370.39,0.09550
2364.61,0.09604
2358.82,0.09492
2353.04,0.09279
2347.25,0.09042
2341.46,0.08889
2335.68,0.08899
2329.89,0.09005
2324.11,0.09132
2318.32,0.09220
2312.53,0.09213
2306.75,0.09204
2300.96,0.09270
2295.17,0.09446
2289.39,0.09566
2283.6,0.09643
2277.82,0.09481
2272.03,0.09469
2266.24,0.09496
2260.46,0.09655
2254.67,0.09817
2248.89,0.09829
2243.1,0.09690
2237.31,0.09653
2231.53,0.09684
2225.74,0.09784
2219.95,0.09937
2214.17,0.10055
2208.38,0.09918
2202.6,0.09716
2196.81,0.09683
2191.02,0.09802
2185.24,0.09947
2179.45,0.10000
2173.67,0.09894
2167.88,0.09678
2162.09,0.09548
2156.31,0.09609
2150.52,0.09852
2144.73,0.09978
2138.95,0.09951
2133.16,0.09811
2127.38,0.09692
2121.59,0.09823
2115.8,0.10100
2110.02,0.10243
2104.23,0.10142
2098.45,0.09858
2092.66,0.09670
2086.87,0.09732
2081.09,0.09974
2075.3,0.10152
2069.51,0.10056
2063.73,0.09736
2057.94,0.09438
2052.16,0.09521
2046.37,0.09755
2040.58,0.09917
2034.8,0.09752
2029.01,0.09367
2023.23,0.08958
2017.44,0.09005
2011.65,0.09509
2005.87,0.10095
2000.08,0.10199
1994.29,0.09853
1988.51,0.09552
1982.72,0.09634
1976.94,0.09981
1971.15,0.10315
1965.36,0.10275
1959.58,0.09898
1953.79,0.09521
1948.01,0.09555
1942.22,0.09867
1936.43,0.10238
1930.65,0.10279
1924.86,0.09888
1919.07,0.09439
1913.29,0.09308
1907.5,0.09601
1901.72,0.09923
1895.93,0.09964
1890.14,0.09786
1884.36,0.09454
1878.57,0.09408
1872.79,0.09776
1867,0.10368
1861.21,0.10476
1855.43,0.10141
1849.64,0.09633
1843.85,0.09437
1838.07,0.09776
1832.28,0.10302
1826.5,0.10447
1820.71,0.09996
1814.92,0.09456
1809.14,0.09241
1803.35,0.09587
1797.57,0.10186
1791.78,0.10419
1785.99,0.10050
1780.21,0.09436
1774.42,0.09130
1768.63,0.09400
1762.85,0.09942
1757.06,0.10074
1751.28,0.09596
1745.49,0.08754
1739.7,0.08587
1733.92,0.09029
1728.13,0.09753
1722.35,0.09962
1716.56,0.09681
1710.77,0.09083
1704.99,0.08819
1699.2,0.09094
1693.41,0.09789
1687.63,0.10302
1681.84,0.09860
1676.06,0.09256
1670.27,0.08802
1664.48,0.08988
1658.7,0.09745
1652.91,0.10152
1647.13,0.09795
1641.34,0.09054
1635.55,0.08645
1629.77,0.08814
1623.98,0.09527
1618.19,0.09973
1612.41,0.09734
1606.62,0.08995
1600.84,0.08499
1595.05,0.08738
1589.26,0.09386
1583.48,0.09882
1577.69,0.09593
1571.91,0.08806
1566.12,0.08378
1560.33,0.08655
1554.55,0.09434
1548.76,0.09680
1542.97,0.09315
1537.19,0.08225
1531.4,0.08087
1525.62,0.08541
1519.83,0.09186
1514.04,0.08944
1508.26,0.08279
1502.47,0.07388
1496.69,0.07569
1490.9,0.07781
1485.11,0.06567
1479.33,0.05676
1473.54,0.05237
1467.75,0.05573
1461.97,0.06045
1456.18,0.06070
1450.4,0.06131
1444.61,0.06003
1438.82,0.05972
1433.04,0.06415
1427.25,0.07786
1421.47,0.08338
1415.68,0.07741
1409.89,0.07845
1404.11,0.08701
1398.32,0.09281
1392.53,0.08714
1386.75,0.07536
1380.96,0.06369
1375.18,0.06348
1369.39,0.06687
1363.6,0.07075
1357.82,0.07217
1352.03,0.06766
1346.25,0.06691
1340.46,0.07161
1334.67,0.08296
1328.89,0.08882
1323.1,0.08335
1317.31,0.07308
1311.53,0.06783
1305.74,0.07018
1299.96,0.07660
1294.17,0.08269
1288.38,0.08289
1282.6,0.07682
1276.81,0.07286
1271.03,0.07654
1265.24,0.08574
1259.45,0.09300
1253.67,0.09092
1247.88,0.08252
1242.09,0.07785
1236.31,0.08249
1230.52,0.09207
1224.74,0.09775
1218.95,0.09415
1213.16,0.08426
1207.38,0.07896
1201.59,0.08344
1195.81,0.09271
1190.02,0.09791
1184.23,0.09322
1178.45,0.08296
1172.66,0.07750
1166.87,0.08194
1161.09,0.09266
1155.3,0.09869
1149.52,0.09423
1143.73,0.08442
1137.94,0.07838
1132.16,0.08306
1126.37,0.09520
1120.59,0.10256
1114.8,0.09785
1109.01,0.08624
1103.23,0.07916
1097.44,0.08339
1091.65,0.09456
1085.87,0.09986
1080.08,0.09583
1074.3,0.08569
1068.51,0.07900
1062.72,0.08314
1056.94,0.09608
1051.15,0.10553
1045.37,0.10339
1039.58,0.09064
1033.79,0.08095
1028.01,0.08389
1022.22,0.09684
1016.43,0.10676
1010.65,0.10816
1004.86,0.09640
999.076,0.08239
993.29,0.08266
987.504,0.09832
981.717,0.11259
975.931,0.11033
970.145,0.09284
964.359,0.07756
958.573,0.07750
952.787,0.09481
947,0.11261
941.214,0.11315
935.428,0.09590
929.642,0.07726
923.856,0.07628
918.07,0.09351
912.284,0.11335
906.497,0.11358
900.711,0.09655
894.925,0.07522
889.139,0.07243
883.353,0.09101
877.567,0.11354
871.78,0.11749
865.994,0.09967
860.208,0.07569
854.422,0.06996
848.636,0.08957
842.85,0.11410
837.064,0.11933
831.277,0.10005
825.491,0.07388
819.705,0.06694
813.919,0.08655
808.133,0.11240
802.347,0.11755
796.56,0.09516
790.774,0.06811
784.988,0.06142
779.202,0.08116
773.416,0.10384
767.63,0.10632
761.844,0.08436
756.057,0.05893
750.271,0.06089
744.485,0.08558
738.699,0.08225
732.913,0.05084
727.127,0.05693
721.34,0.05561
715.554,0.06798
709.768,0.07059
703.982,0.05378
698.196,0.08185
692.41,0.12297
686.624,0.12474
680.837,0.08825
675.051,0.05940
669.265,0.07028
663.479,0.11128
657.693,0.13945
651.907,0.12529
646.12,0.08334
640.334,0.05540
634.548,0.07280
628.762,0.11832
622.976,0.14381
617.19,0.12782
611.404,0.08405
605.617,0.05400
599.831,0.06994