File: 01_Data/PEVA/FTIR/IS/PEVA_0.26_IS_T_240809_R6.dpt
7497.2,0.04589
7491.41,0.04332
7485.63,0.03666
7479.84,0.02462
7474.05,0.03164
7468.27,0.03385
7462.48,0.03311
7456.7,0.05115
7450.91,0.02241
7445.12,0.04352
7439.34,0.03828
7433.55,0.03246
7427.76,0.03299
7421.98,0.02678
7416.19,0.03432
7410.4,0.03620
7404.62,0.03557
7398.83,0.03192
7393.05,0.02923
7387.26,0.03216
7381.47,0.03043
7375.69,0.03262
7369.9,0.03830
7364.11,0.04248
7358.33,0.03407
7352.54,0.03677
7346.75,0.03118
7340.97,0.03739
7335.18,0.03339
7329.4,0.02943
7323.61,0.03754
7317.82,0.03287
7312.04,0.02104
7306.25,0.03881
7300.46,0.03198
7294.68,0.04027
7288.89,0.03608
7283.1,0.02424
7277.32,0.03952
7271.53,0.03363
7265.75,0.03220
7259.96,0.04117
7254.17,0.04576
7248.39,0.03215
7242.6,0.03830
7236.81,0.03759
7231.03,0.03387
7225.24,0.03363
7219.45,0.03838
7213.67,0.02551
7207.88,0.04280
7202.1,0.03312
7196.31,0.03340
7190.52,0.03455
7184.74,0.03150
7178.95,0.03412
7173.16,0.03322
7167.38,0.03591
7161.59,0.02666
7155.8,0.03090
7150.02,0.03895
7144.23,0.03541
7138.45,0.03781
7132.66,0.02893
7126.87,0.03226
7121.09,0.03938
7115.3,0.04303
7109.51,0.03132
7103.73,0.03416
7097.94,0.03567
7092.15,0.03541
7086.37,0.03073
7080.58,0.03508
7074.8,0.02973
7069.01,0.03773
7063.22,0.03050
7057.44,0.02242
7051.65,0.02871
7045.86,0.03312
7040.08,0.02680
7034.29,0.03160
7028.5,0.03319
7022.72,0.03756
7016.93,0.03060
7011.15,0.02979
7005.36,0.03553
6999.57,0.03873
6993.79,0.03076
6988,0.02484
6982.21,0.03271
6976.43,0.02723
6970.64,0.02434
6964.85,0.03315
6959.07,0.03517
6953.28,0.03573
6947.5,0.03424
6941.71,0.03798
6935.92,0.03656
6930.14,0.03436
6924.35,0.03216
6918.56,0.03199
6912.78,0.03252
6906.99,0.03457
6901.2,0.02795
6895.42,0.03132
6889.63,0.03278
6883.85,0.03577
6878.06,0.03626
6872.27,0.02913
6866.49,0.02733
6860.7,0.03041
6854.91,0.02670
6849.13,0.03397
6843.34,0.02898
6837.55,0.03742
6831.77,0.04039
6825.98,0.03399
6820.2,0.03352
6814.41,0.03060
6808.62,0.03446
6802.84,0.03656
6797.05,0.03709
6791.26,0.03203
6785.48,0.02871
6779.69,0.03080
6773.9,0.03165
6768.12,0.03314
6762.33,0.03220
6756.55,0.03841
6750.76,0.03499
6744.97,0.03482
6739.19,0.03544
6733.4,0.03758
6727.61,0.03564
6721.83,0.03483
6716.04,0.03351
6710.25,0.03142
6704.47,0.03295
6698.68,0.02808
6692.9,0.03344
6687.11,0.02496
6681.32,0.03366
6675.54,0.03444
6669.75,0.03981
6663.96,0.03346
6658.18,0.03603
6652.39,0.03783
6646.6,0.03794
6640.82,0.03050
6635.03,0.03710
6629.25,0.03192
6623.46,0.02907
6617.67,0.03610
6611.89,0.03177
6606.1,0.02702
6600.31,0.02804
6594.53,0.02845
6588.74,0.03049
6582.95,0.02967
6577.17,0.03334
6571.38,0.03356
6565.6,0.03383
6559.81,0.03230
6554.02,0.02024
6548.24,0.02656
6542.45,0.02961
6536.66,0.03283
6530.88,0.03311
6525.09,0.03233
6519.3,0.03309
6513.52,0.03364
6507.73,0.02933
6501.95,0.02969
6496.16,0.02950
6490.37,0.03292
6484.59,0.03160
6478.8,0.03151
6473.01,0.03400
6467.23,0.03307
6461.44,0.03634
6455.65,0.02958
6449.87,0.03010
6444.08,0.02940
6438.3,0.02477
6432.51,0.03033
6426.72,0.03117
6420.94,0.03445
6415.15,0.03260
6409.36,0.03503
6403.58,0.03006
6397.79,0.03315
6392,0.03144
6386.22,0.03090
6380.43,0.02649
6374.65,0.03313
6368.86,0.03193
6363.07,0.02788
6357.29,0.02901
6351.5,0.02819
6345.71,0.03398
6339.93,0.02896
6334.14,0.02785
6328.35,0.03016
6322.57,0.02979
6316.78,0.03048
6310.99,0.03234
6305.21,0.03421
6299.42,0.03146
6293.64,0.03084
6287.85,0.03103
6282.06,0.02639
6276.28,0.03390
6270.49,0.03015
6264.7,0.02688
6258.92,0.02964
6253.13,0.03271
6247.34,0.02880
6241.56,0.03004
6235.77,0.03365
6229.99,0.02871
6224.2,0.03456
6218.41,0.02977
6212.63,0.03181
6206.84,0.03007
6201.05,0.02793
6195.27,0.03555
6189.48,0.02728
6183.69,0.03022
6177.91,0.03323
6172.12,0.02919
6166.34,0.03273
6160.55,0.03224
6154.76,0.03333
6148.98,0.02986
6143.19,0.02895
6137.4,0.02763
6131.62,0.02858
6125.83,0.03264
6120.04,0.03180
6114.26,0.02988
6108.47,0.02810
6102.69,0.02639
6096.9,0.03343
6091.11,0.02906
6085.33,0.03491
6079.54,0.03098
6073.75,0.03145
6067.97,0.02985
6062.18,0.03053
6056.39,0.03136
6050.61,0.03357
6044.82,0.02910
6039.04,0.03065
6033.25,0.03391
6027.46,0.03068
6021.68,0.02914
6015.89,0.02920
6010.1,0.03033
6004.32,0.03053
5998.53,0.03168
5992.74,0.03157
5986.96,0.02883
5981.17,0.02846
5975.39,0.03083
5969.6,0.02816
5963.81,0.03036
5958.03,0.02864
5952.24,0.03130
5946.45,0.03083
5940.67,0.02747
5934.88,0.03253
5929.09,0.02990
5923.31,0.02994
5917.52,0.03151
5911.74,0.03322
5905.95,0.03295
5900.16,0.03060
5894.38,0.03003
5888.59,0.03283
5882.8,0.03058
5877.02,0.03319
5871.23,0.02752
5865.44,0.03121
5859.66,0.03008
5853.87,0.03188
5848.09,0.03394
5842.3,0.03192
5836.51,0.03432
5830.73,0.03167
5824.94,0.02933
5819.15,0.03110
5813.37,0.03027
5807.58,0.02943
5801.79,0.03210
5796.01,0.03027
5790.22,0.03001
5784.44,0.03027
5778.65,0.03137
5772.86,0.03158
5767.08,0.03189
5761.29,0.02884
5755.5,0.03121
5749.72,0.03043
5743.93,0.02915
5738.14,0.02988
5732.36,0.03192
5726.57,0.03044
5720.79,0.03005
5715,0.03170
5709.21,0.03234
5703.43,0.03037
5697.64,0.03073
5691.85,0.02876
5686.07,0.02875
5680.28,0.02853
5674.49,0.03112
5668.71,0.03114
5662.92,0.03105
5657.14,0.02950
5651.35,0.02901
5645.56,0.02915
5639.78,0.02903
5633.99,0.03017
5628.2,0.03114
5622.42,0.02883
5616.63,0.03015
5610.84,0.03073
5605.06,0.02957
5599.27,0.03168
5593.49,0.03017
5587.7,0.03112
5581.91,0.03024
5576.13,0.02937
5570.34,0.03033
5564.55,0.03251
5558.77,0.02975
5552.98,0.02999
5547.19,0.03308
5541.41,0.03153
5535.62,0.03122
5529.84,0.03125
5524.05,0.03072
5518.26,0.03045
5512.48,0.03174
5506.69,0.02842
5500.9,0.02933
5495.12,0.03123
5489.33,0.02824
5483.54,0.03278
5477.76,0.03020
5471.97,0.03033
5466.19,0.02902
5460.4,0.02921
5454.61,0.03053
5448.83,0.02969
5443.04,0.03051
5437.25,0.03273
5431.47,0.03034
5425.68,0.03295
5419.89,0.03247
5414.11,0.03184
5408.32,0.02982
5402.54,0.03118
5396.75,0.03080
5390.96,0.02928
5385.18,0.03075
5379.39,0.03221
5373.6,0.02904
5367.82,0.03038
5362.03,0.03271
5356.24,0.03163
5350.46,0.03116
5344.67,0.03000
5338.89,0.03294
5333.1,0.03097
5327.31,0.03140
5321.53,0.03076
5315.74,0.03157
5309.95,0.02956
5304.17,0.03137
5298.38,0.02895
5292.59,0.02949
5286.81,0.03079
5281.02,0.03029
5275.24,0.03109
5269.45,0.03052
5263.66,0.03110
5257.88,0.02986
5252.09,0.03122
5246.3,0.03028
5240.52,0.02936
5234.73,0.03010
5228.94,0.03035
5223.16,0.02789
5217.37,0.02924
5211.59,0.03049
5205.8,0.03074
5200.01,0.02908
5194.23,0.03051
5188.44,0.03078
5182.65,0.03136
5176.87,0.02978
5171.08,0.03043
5165.29,0.03096
5159.51,0.03154
5153.72,0.03060
5147.94,0.03064
5142.15,0.03236
5136.36,0.03070
5130.58,0.02932
5124.79,0.03027
5119,0.03119
5113.22,0.02840
5107.43,0.03137
5101.64,0.02985
5095.86,0.02875
5090.07,0.02926
5084.29,0.03179
5078.5,0.02936
5072.71,0.02931
5066.93,0.03136
5061.14,0.02976
5055.35,0.02883
5049.57,0.03007
5043.78,0.03085
5037.99,0.03016
5032.21,0.03059
5026.42,0.03012
5020.64,0.03019
5014.85,0.03216
5009.06,0.03078
5003.28,0.03081
4997.49,0.03124
4991.7,0.03155
4985.92,0.02975
4980.13,0.03033
4974.34,0.03110
4968.56,0.03003
4962.77,0.03022
4956.99,0.03111
4951.2,0.02989
4945.41,0.03020
4939.63,0.03117
4933.84,0.03113
4928.05,0.03117
4922.27,0.02955
4916.48,0.03151
4910.69,0.03100
4904.91,0.03025
4899.12,0.02956
4893.34,0.03167
4887.55,0.03167
4881.76,0.03042
4875.98,0.03060
4870.19,0.03118
4864.4,0.03019
4858.62,0.03035
4852.83,0.03117
4847.04,0.03085
4841.26,0.03013
4835.47,0.03056
4829.69,0.02964
4823.9,0.02945
4818.11,0.03091
4812.33,0.02993
4806.54,0.03050
4800.75,0.03118
4794.97,0.03104
4789.18,0.03031
4783.39,0.03153
4777.61,0.02998
4771.82,0.03058
4766.04,0.03037
4760.25,0.03085
4754.46,0.03029
4748.68,0.03170
4742.89,0.03080
4737.1,0.03120
4731.32,0.03062
4725.53,0.03134
4719.74,0.02955
4713.96,0.03132
4708.17,0.03134
4702.39,0.03113
4696.6,0.03079
4690.81,0.03081
4685.03,0.03091
4679.24,0.03073
4673.45,0.03036
4667.67,0.03077
4661.88,0.03137
4656.09,0.02998
4650.31,0.03029
4644.52,0.02985
4638.74,0.03150
4632.95,0.03087
4627.16,0.03034
4621.38,0.02904
4615.59,0.03019
4609.8,0.03041
4604.02,0.03024
4598.23,0.03114
4592.44,0.03049
4586.66,0.03048
4580.87,0.03069
4575.09,0.03027
4569.3,0.02984
4563.51,0.03068
4557.73,0.03046
4551.94,0.02956
4546.15,0.03029
4540.37,0.03002
4534.58,0.03016
4528.79,0.03130
4523.01,0.03034
4517.22,0.03116
4511.44,0.03145
4505.65,0.03033
4499.86,0.02995
4494.08,0.03065
4488.29,0.02965
4482.5,0.03008
4476.72,0.03049
4470.93,0.02932
4465.14,0.03034
4459.36,0.03028
4453.57,0.02984
4447.79,0.03050
4442,0.03055
4436.21,0.03015
4430.43,0.03026
4424.64,0.02980
4418.85,0.02986
4413.07,0.02996
4407.28,0.03040
4401.49,0.03078
4395.71,0.03120
4389.92,0.03089
4384.14,0.03094
4378.35,0.03082
4372.56,0.03102
4366.78,0.03059
4360.99,0.03024
4355.2,0.03144
4349.42,0.03172
4343.63,0.03021
4337.84,0.03025
4332.06,0.02986
4326.27,0.03023
4320.49,0.03035
4314.7,0.03004
4308.91,0.03050
4303.13,0.03021
4297.34,0.03105
4291.55,0.02989
4285.77,0.02911
4279.98,0.03037
4274.19,0.03017
4268.41,0.02965
4262.62,0.03068
4256.84,0.03087
4251.05,0.03019
4245.26,0.03021
4239.48,0.03114
4233.69,0.03068
4227.9,0.03013
4222.12,0.03028
4216.33,0.03087
4210.54,0.03016
4204.76,0.02990
4198.97,0.03027
4193.19,0.02994
4187.4,0.03026
4181.61,0.03064
4175.83,0.03018
4170.04,0.03014
4164.25,0.03012
4158.47,0.03019
4152.68,0.03039
4146.89,0.02957
4141.11,0.03054
4135.32,0.03044
4129.54,0.02982
4123.75,0.02940
4117.96,0.03028
4112.18,0.03014
4106.39,0.03010
4100.6,0.02994
4094.82,0.03096
4089.03,0.03022
4083.24,0.03039
4077.46,0.02986
4071.67,0.02994
4065.89,0.03076
4060.1,0.03000
4054.31,0.03011
4048.53,0.03002
4042.74,0.02992
4036.95,0.03048
4031.17,0.03028
4025.38,0.03053
4019.59,0.03094
4013.81,0.03106
4008.02,0.03084
4002.24,0.03033
3996.45,0.03101
3990.66,0.03017
3984.88,0.03002
3979.09,0.03030
3973.3,0.02988
3967.52,0.03012
3961.73,0.02969
3955.94,0.02984
3950.16,0.03035
3944.37,0.03068
3938.59,0.03044
3932.8,0.02982
3927.01,0.02992
3921.23,0.03080
3915.44,0.02976
3909.65,0.02995
3903.87,0.03112
3898.08,0.03051
3892.29,0.03000
3886.51,0.03003
3880.72,0.03027
3874.94,0.03084
3869.15,0.03087
3863.36,0.03064
3857.58,0.03053
3851.79,0.02960
3846,0.03008
3840.22,0.03141
3834.43,0.03047
3828.64,0.03019
3822.86,0.03031
3817.07,0.03038
3811.29,0.03053
3805.5,0.03014
3799.71,0.02995
3793.93,0.02999
3788.14,0.03033
3782.35,0.03050
3776.57,0.03012
3770.78,0.03073
3764.99,0.02972
3759.21,0.02982
3753.42,0.03057
3747.64,0.03095
3741.85,0.03160
3736.06,0.03005
3730.28,0.02956
3724.49,0.02981
3718.7,0.03049
3712.92,0.03055
3707.13,0.02973
3701.34,0.02922
3695.56,0.02949
3689.77,0.03015
3683.99,0.02938
3678.2,0.02956
3672.41,0.02983
3666.63,0.02909
3660.84,0.02918
3655.05,0.02886
3649.27,0.02967
3643.48,0.02842
3637.69,0.02855
3631.91,0.02980
3626.12,0.02781
3620.34,0.02911
3614.55,0.02733
3608.76,0.02820
3602.98,0.02774
3597.19,0.02782
3591.4,0.02709
3585.62,0.02789
3579.83,0.02735
3574.04,0.02774
3568.26,0.02796
3562.47,0.02703
3556.69,0.02753
3550.9,0.02716
3545.11,0.02729
3539.33,0.02697
3533.54,0.02732
3527.75,0.02682
3521.97,0.02581
3516.18,0.02648
3510.39,0.02744
3504.61,0.02719
3498.82,0.02630
3493.04,0.02696
3487.25,0.02693
3481.46,0.02674
3475.68,0.02632
3469.89,0.02686
3464.1,0.02672
3458.32,0.02675
3452.53,0.02610
3446.74,0.02613
3440.96,0.02627
3435.17,0.02692
3429.39,0.02718
3423.6,0.02719
3417.81,0.02683
3412.03,0.02635
3406.24,0.02637
3400.45,0.02710
3394.67,0.02692
3388.88,0.02633
3383.09,0.02632
3377.31,0.02663
3371.52,0.02648
3365.74,0.02674
3359.95,0.02680
3354.16,0.02661
3348.38,0.02611
3342.59,0.02645
3336.8,0.02631
3331.02,0.02603
3325.23,0.02606
3319.44,0.02588
3313.66,0.02674
3307.87,0.02708
3302.09,0.02655
3296.3,0.02622
3290.51,0.02628
3284.73,0.02596
3278.94,0.02609
3273.15,0.02635
3267.37,0.02645
3261.58,0.02597
3255.79,0.02640
3250.01,0.02617
3244.22,0.02695
3238.44,0.02767
3232.65,0.02692
3226.86,0.02735
3221.08,0.02720
3215.29,0.02661
3209.5,0.02749
3203.72,0.02712
3197.93,0.02677
3192.14,0.02711
3186.36,0.02715
3180.57,0.02660
3174.79,0.02669
3169,0.02700
3163.21,0.02760
3157.43,0.02758
3151.64,0.02684
3145.85,0.02701
3140.07,0.02724
3134.28,0.02717
3128.49,0.02713
3122.71,0.02668
3116.92,0.02715
3111.14,0.02716
3105.35,0.02666
3099.56,0.02666
3093.78,0.02720
3087.99,0.02730
3082.2,0.02736
3076.42,0.02715
3070.63,0.02696
3064.84,0.02671
3059.06,0.02695
3053.27,0.02748
3047.49,0.02693
3041.7,0.02719
3035.91,0.02678
3030.13,0.02685
3024.34,0.02692
3018.55,0.02662
3012.77,0.02686
3006.98,0.02690
3001.19,0.02728
2995.41,0.02665
2989.62,0.02628
2983.84,0.02597
2978.05,0.02627
2972.26,0.02572
2966.48,0.02560
2960.69,0.02537
2954.9,0.02554
2949.12,0.02568
2943.33,0.02536
2937.54,0.02568
2931.76,0.02560
2925.97,0.02641
2920.19,0.02606
2914.4,0.02644
2908.61,0.02642
2902.83,0.02620
2897.04,0.02656
2891.25,0.02669
2885.47,0.02632
2879.68,0.02618
2873.89,0.02658
2868.11,0.02634
2862.32,0.02678
2856.54,0.02681
2850.75,0.02680
2844.96,0.02712
2839.18,0.02673
2833.39,0.02696
2827.6,0.02734
2821.82,0.02714
2816.03,0.02722
2810.24,0.02696
2804.46,0.02732
2798.67,0.02717
2792.89,0.02716
2787.1,0.02727
2781.31,0.02737
2775.53,0.02721
2769.74,0.02730
2763.95,0.02800
2758.17,0.02718
2752.38,0.02727
2746.59,0.02705
2740.81,0.02744
2735.02,0.02768
2729.24,0.02746
2723.45,0.02746
2717.66,0.02767
2711.88,0.02763
2706.09,0.02705
2700.3,0.02722
2694.52,0.02756
2688.73,0.02746
2682.94,0.02750
2677.16,0.02683
2671.37,0.02751
2665.59,0.02734
2659.8,0.02737
2654.01,0.02730
2648.23,0.02758
2642.44,0.02754
2636.65,0.02677
2630.87,0.02726
2625.08,0.02759
2619.29,0.02727
2613.51,0.02689
2607.72,0.02735
2601.94,0.02723
2596.15,0.02715
2590.36,0.02682
2584.58,0.02708
2578.79,0.02734
2573,0.02727
2567.22,0.02709
2561.43,0.02715
2555.64,0.02703
2549.86,0.02713
2544.07,0.02693
2538.29,0.02706
2532.5,0.02704
2526.71,0.02742
2520.93,0.02702
2515.14,0.02728
2509.35,0.02735
2503.57,0.02722
2497.78,0.02704
2491.99,0.02728
2486.21,0.02742
2480.42,0.02723
2474.64,0.02735
2468.85,0.02694
2463.06,0.02704
2457.28,0.02677
2451.49,0.02692
2445.7,0.02688
2439.92,0.02720
2434.13,0.02690
2428.34,0.02699
2422.56,0.02723
2416.77,0.02720
2410.99,0.02661
2405.2,0.02697
2399.41,0.02691
2393.63,0.02685
2387.84,0.02689
2382.05,0.02701
2376.27,0.02745
2370.48,0.02689
2364.69,0.02799
2358.91,0.02765
2353.12,0.02719
2347.34,0.02725
2341.55,0.02709
2335.76,0.02755
2329.98,0.02783
2324.19,0.02693
2318.4,0.02722
2312.62,0.02736
2306.83,0.02698
2301.04,0.02687
2295.26,0.02651
2289.47,0.02655
2283.69,0.02648
2277.9,0.02660
2272.11,0.02657
2266.33,0.02668
2260.54,0.02626
2254.75,0.02659
2248.97,0.02649
2243.18,0.02647
2237.39,0.02683
2231.61,0.02691
2225.82,0.02672
2220.04,0.02663
2214.25,0.02655
2208.46,0.02619
2202.68,0.02659
2196.89,0.02641
2191.1,0.02640
2185.32,0.02629
2179.53,0.02649
2173.74,0.02639
2167.96,0.02631
2162.17,0.02633
2156.39,0.02640
2150.6,0.02611
2144.81,0.02658
2139.03,0.02637
2133.24,0.02597
2127.45,0.02624
2121.67,0.02614
2115.88,0.02584
2110.09,0.02575
2104.31,0.02597
2098.52,0.02584
2092.74,0.02613
2086.95,0.02591
2081.16,0.02569
2075.38,0.02599
2069.59,0.02601
2063.8,0.02610
2058.02,0.02594
2052.23,0.02579
2046.44,0.02578
2040.66,0.02616
2034.87,0.02614
2029.09,0.02574
2023.3,0.02597
2017.51,0.02623
2011.73,0.02611
2005.94,0.02595
2000.15,0.02610
1994.37,0.02606
1988.58,0.02590
1982.79,0.02600
1977.01,0.02619
1971.22,0.02581
1965.44,0.02563
1959.65,0.02605
1953.86,0.02584
1948.08,0.02571
1942.29,0.02583
1936.5,0.02557
1930.72,0.02573
1924.93,0.02588
1919.14,0.02516
1913.36,0.02520
1907.57,0.02568
1901.79,0.02539
1896,0.02530
1890.21,0.02561
1884.43,0.02511
1878.64,0.02534
1872.85,0.02519
1867.07,0.02537
1861.28,0.02494
1855.49,0.02451
1849.71,0.02507
1843.92,0.02471
1838.14,0.02476
1832.35,0.02443
1826.56,0.02467
1820.78,0.02430
1814.99,0.02433
1809.2,0.02438
1803.42,0.02420
1797.63,0.02414
1791.84,0.02443
1786.06,0.02368
1780.27,0.02362
1774.49,0.02341
1768.7,0.02287
1762.91,0.02280
1757.13,0.02203
1751.34,0.02172
1745.55,0.02193
1739.77,0.02258
1733.98,0.02383
1728.19,0.02394
1722.41,0.02436
1716.62,0.02461
1710.84,0.02405
1705.05,0.02357
1699.26,0.02421
1693.48,0.02329
1687.69,0.02354
1681.9,0.02257
1676.12,0.02245
1670.33,0.02182
1664.54,0.02180
1658.76,0.02217
1652.97,0.02188
1647.19,0.02224
1641.4,0.02178
1635.61,0.02219
1629.83,0.02177
1624.04,0.02254
1618.25,0.02267
1612.47,0.02214
1606.68,0.02274
1600.89,0.02243
1595.11,0.02255
1589.32,0.02233
1583.54,0.02208
1577.75,0.02187
1571.96,0.02176
1566.18,0.02170
1560.39,0.02259
1554.6,0.02177
1548.82,0.02178
1543.03,0.02212
1537.24,0.02163
1531.46,0.02273
1525.67,0.02308
1519.89,0.02261
1514.1,0.02196
1508.31,0.02239
1502.53,0.02252
1496.74,0.02254
1490.95,0.02224
1485.17,0.02193
1479.38,0.02216
1473.59,0.02159
1467.81,0.02145
1462.02,0.02171
1456.24,0.02212
1450.45,0.02146
1444.66,0.02181
1438.88,0.02204
1433.09,0.02172
1427.3,0.02187
1421.52,0.02158
1415.73,0.02130
1409.94,0.02126
1404.16,0.02080
1398.37,0.02098
1392.59,0.02076
1386.8,0.02097
1381.01,0.02074
1375.23,0.02101
1369.44,0.02075
1363.65,0.02099
1357.87,0.02111
1352.08,0.02087
1346.29,0.02060
1340.51,0.02030
1334.72,0.02048
1328.94,0.02036
1323.15,0.02029
1317.36,0.01996
1311.58,0.01971
1305.79,0.01952
1300,0.02034
1294.22,0.02042
1288.43,0.02060
1282.64,0.02134
1276.86,0.02113
1271.07,0.02195
1265.29,0.02202
1259.5,0.02242
1253.71,0.02276
1247.93,0.02278
1242.14,0.02257
1236.35,0.02253
1230.57,0.02231
1224.78,0.02225
1218.99,0.02205
1213.21,0.02184
1207.42,0.02188
1201.64,0.02165
1195.85,0.02117
1190.06,0.02085
1184.28,0.02089
1178.49,0.02112
1172.7,0.02052
1166.92,0.02070
1161.13,0.02055
1155.34,0.02023
1149.56,0.02056
1143.77,0.02034
1137.99,0.02092
1132.2,0.02116
1126.41,0.02135
1120.63,0.02236
1114.84,0.02209
1109.05,0.02236
1103.27,0.02211
1097.48,0.02118
1091.69,0.02205
1085.91,0.02178
1080.12,0.02294
1074.34,0.02343
1068.55,0.02377
1062.76,0.02440
1056.98,0.02427
1051.19,0.02409
1045.4,0.02358
1039.62,0.02335
1033.83,0.02290
1028.04,0.02324
1022.26,0.02304
1016.47,0.02287
1010.69,0.02345
1004.9,0.02437
999.112,0.02421
993.326,0.02465
987.54,0.02444
981.753,0.02430
975.967,0.02444
970.18,0.02362
964.394,0.02377
958.608,0.02418
952.821,0.02368
947.035,0.02344
941.249,0.02274
935.462,0.02246
929.676,0.02273
923.89,0.02303
918.103,0.02256
912.317,0.02279
906.53,0.02259
900.744,0.02264
894.958,0.02281
889.171,0.02273
883.385,0.02217
877.599,0.02293
871.812,0.02254
866.026,0.02189
860.24,0.02261
854.453,0.02154
848.667,0.02213
842.88,0.02201
837.094,0.02144
831.308,0.02229
825.521,0.02209
819.735,0.02140
813.949,0.02260
808.162,0.02143
802.376,0.02159
796.59,0.02145
790.803,0.02087
785.017,0.02103
779.23,0.02048
773.444,0.02143
767.658,0.02016
761.871,0.02013
756.085,0.02020
750.299,0.01951
744.512,0.02070
738.726,0.02048
732.94,0.02079
727.153,0.01917
721.367,0.01932
715.58,0.01913
709.794,0.01913
704.008,0.01898
698.221,0.01901
692.435,0.01931
686.649,0.02001
680.862,0.01781
675.076,0.01922
669.29,0.01864
663.503,0.01851
657.717,0.01839
651.93,0.01874
646.144,0.01782
640.358,0.01934
634.571,0.01887
628.785,0.01911
622.999,0.01892
617.212,0.02001
611.426,0.01903
605.639,0.01906
599.853,0.01505