File: 01_Data/PEVA/FTIR/IS/PEVA_0.26_IS_T_240809_R3.dpt
7497.2,0.03803
7491.41,0.02853
7485.63,0.02487
7479.84,0.04291
7474.05,0.03024
7468.27,0.02483
7462.48,0.04061
7456.7,0.03281
7450.91,0.03252
7445.12,0.03840
7439.34,0.04299
7433.55,0.03753
7427.76,0.04492
7421.98,0.02419
7416.19,0.03184
7410.4,0.03664
7404.62,0.03699
7398.83,0.03410
7393.05,0.02555
7387.26,0.03169
7381.47,0.03435
7375.69,0.03101
7369.9,0.03732
7364.11,0.02844
7358.33,0.03422
7352.54,0.04040
7346.75,0.02397
7340.97,0.02117
7335.18,0.03785
7329.4,0.03657
7323.61,0.02766
7317.82,0.02525
7312.04,0.02941
7306.25,0.03858
7300.46,0.02813
7294.68,0.03080
7288.89,0.02575
7283.1,0.02870
7277.32,0.03381
7271.53,0.03918
7265.75,0.03835
7259.96,0.02905
7254.17,0.04351
7248.39,0.02523
7242.6,0.03177
7236.81,0.03726
7231.03,0.04490
7225.24,0.03625
7219.45,0.03827
7213.67,0.03496
7207.88,0.03862
7202.1,0.04058
7196.31,0.03226
7190.52,0.02173
7184.74,0.03453
7178.95,0.04022
7173.16,0.03520
7167.38,0.03749
7161.59,0.04629
7155.8,0.02497
7150.02,0.02315
7144.23,0.03583
7138.45,0.03269
7132.66,0.03227
7126.87,0.02920
7121.09,0.04022
7115.3,0.03563
7109.51,0.03786
7103.73,0.03057
7097.94,0.04390
7092.15,0.03970
7086.37,0.03363
7080.58,0.03840
7074.8,0.03549
7069.01,0.03207
7063.22,0.03448
7057.44,0.03888
7051.65,0.03191
7045.86,0.03389
7040.08,0.03873
7034.29,0.04182
7028.5,0.03667
7022.72,0.04311
7016.93,0.03547
7011.15,0.03588
7005.36,0.03741
6999.57,0.03556
6993.79,0.03465
6988,0.03096
6982.21,0.03626
6976.43,0.03234
6970.64,0.03039
6964.85,0.03466
6959.07,0.02781
6953.28,0.03208
6947.5,0.03356
6941.71,0.03395
6935.92,0.03456
6930.14,0.03280
6924.35,0.03471
6918.56,0.03423
6912.78,0.03114
6906.99,0.03499
6901.2,0.03094
6895.42,0.03104
6889.63,0.03792
6883.85,0.03429
6878.06,0.02943
6872.27,0.03520
6866.49,0.03444
6860.7,0.02493
6854.91,0.03452
6849.13,0.03100
6843.34,0.04132
6837.55,0.03397
6831.77,0.02845
6825.98,0.03551
6820.2,0.03286
6814.41,0.03832
6808.62,0.03033
6802.84,0.03167
6797.05,0.02663
6791.26,0.02869
6785.48,0.03355
6779.69,0.04336
6773.9,0.02977
6768.12,0.02936
6762.33,0.03519
6756.55,0.03153
6750.76,0.02958
6744.97,0.03179
6739.19,0.03074
6733.4,0.03479
6727.61,0.03483
6721.83,0.03710
6716.04,0.03611
6710.25,0.03679
6704.47,0.03395
6698.68,0.03803
6692.9,0.03412
6687.11,0.03132
6681.32,0.02864
6675.54,0.03294
6669.75,0.03653
6663.96,0.03371
6658.18,0.03244
6652.39,0.03457
6646.6,0.02851
6640.82,0.03319
6635.03,0.03560
6629.25,0.03772
6623.46,0.03157
6617.67,0.03176
6611.89,0.03071
6606.1,0.03467
6600.31,0.03674
6594.53,0.02588
6588.74,0.03486
6582.95,0.03484
6577.17,0.02782
6571.38,0.03096
6565.6,0.03732
6559.81,0.03524
6554.02,0.02912
6548.24,0.03209
6542.45,0.03218
6536.66,0.03514
6530.88,0.03266
6525.09,0.03016
6519.3,0.03553
6513.52,0.03108
6507.73,0.03004
6501.95,0.02675
6496.16,0.03383
6490.37,0.03086
6484.59,0.02541
6478.8,0.02856
6473.01,0.03048
6467.23,0.02766
6461.44,0.03085
6455.65,0.03085
6449.87,0.03291
6444.08,0.03310
6438.3,0.02497
6432.51,0.03036
6426.72,0.03235
6420.94,0.03162
6415.15,0.03081
6409.36,0.03481
6403.58,0.03101
6397.79,0.03042
6392,0.02980
6386.22,0.03578
6380.43,0.02787
6374.65,0.03289
6368.86,0.02893
6363.07,0.03007
6357.29,0.02963
6351.5,0.03188
6345.71,0.03203
6339.93,0.03044
6334.14,0.03530
6328.35,0.03074
6322.57,0.03767
6316.78,0.03508
6310.99,0.03156
6305.21,0.03180
6299.42,0.03135
6293.64,0.03402
6287.85,0.03166
6282.06,0.03131
6276.28,0.02993
6270.49,0.03142
6264.7,0.03711
6258.92,0.03353
6253.13,0.03036
6247.34,0.03007
6241.56,0.03451
6235.77,0.02812
6229.99,0.02740
6224.2,0.03307
6218.41,0.02796
6212.63,0.03250
6206.84,0.03414
6201.05,0.02820
6195.27,0.03159
6189.48,0.02789
6183.69,0.03536
6177.91,0.03187
6172.12,0.03340
6166.34,0.02848
6160.55,0.03133
6154.76,0.03010
6148.98,0.02945
6143.19,0.03464
6137.4,0.03246
6131.62,0.02938
6125.83,0.03272
6120.04,0.03399
6114.26,0.03267
6108.47,0.02925
6102.69,0.02743
6096.9,0.03075
6091.11,0.02702
6085.33,0.03078
6079.54,0.02897
6073.75,0.03110
6067.97,0.03013
6062.18,0.03110
6056.39,0.03058
6050.61,0.02988
6044.82,0.03008
6039.04,0.03214
6033.25,0.03327
6027.46,0.03070
6021.68,0.02942
6015.89,0.03019
6010.1,0.03134
6004.32,0.03117
5998.53,0.02635
5992.74,0.03120
5986.96,0.03433
5981.17,0.02843
5975.39,0.02758
5969.6,0.02886
5963.81,0.02894
5958.03,0.02975
5952.24,0.02622
5946.45,0.02968
5940.67,0.02992
5934.88,0.03233
5929.09,0.02894
5923.31,0.03563
5917.52,0.03189
5911.74,0.03074
5905.95,0.02919
5900.16,0.03042
5894.38,0.03191
5888.59,0.03073
5882.8,0.03055
5877.02,0.03163
5871.23,0.02960
5865.44,0.02977
5859.66,0.02960
5853.87,0.02986
5848.09,0.03021
5842.3,0.03149
5836.51,0.02952
5830.73,0.03243
5824.94,0.02864
5819.15,0.03084
5813.37,0.02902
5807.58,0.03167
5801.79,0.02899
5796.01,0.03079
5790.22,0.02958
5784.44,0.03043
5778.65,0.02988
5772.86,0.03112
5767.08,0.02968
5761.29,0.03355
5755.5,0.02908
5749.72,0.02895
5743.93,0.03239
5738.14,0.03208
5732.36,0.02945
5726.57,0.03225
5720.79,0.03208
5715,0.03111
5709.21,0.02954
5703.43,0.03081
5697.64,0.03172
5691.85,0.03077
5686.07,0.03277
5680.28,0.03143
5674.49,0.03291
5668.71,0.03225
5662.92,0.03054
5657.14,0.02999
5651.35,0.03118
5645.56,0.03008
5639.78,0.03108
5633.99,0.03150
5628.2,0.03316
5622.42,0.02964
5616.63,0.03091
5610.84,0.03053
5605.06,0.03228
5599.27,0.03406
5593.49,0.03189
5587.7,0.02920
5581.91,0.02949
5576.13,0.03122
5570.34,0.03079
5564.55,0.03095
5558.77,0.03156
5552.98,0.03049
5547.19,0.03152
5541.41,0.03152
5535.62,0.03223
5529.84,0.03005
5524.05,0.03045
5518.26,0.02971
5512.48,0.03056
5506.69,0.03037
5500.9,0.03001
5495.12,0.03173
5489.33,0.03193
5483.54,0.03168
5477.76,0.03113
5471.97,0.03102
5466.19,0.03167
5460.4,0.03320
5454.61,0.03277
5448.83,0.03088
5443.04,0.03005
5437.25,0.03254
5431.47,0.02755
5425.68,0.03055
5419.89,0.03268
5414.11,0.03176
5408.32,0.03032
5402.54,0.03004
5396.75,0.03340
5390.96,0.03283
5385.18,0.03185
5379.39,0.03064
5373.6,0.03142
5367.82,0.03114
5362.03,0.02984
5356.24,0.03175
5350.46,0.03278
5344.67,0.03137
5338.89,0.03163
5333.1,0.03216
5327.31,0.03217
5321.53,0.03077
5315.74,0.03111
5309.95,0.03011
5304.17,0.03183
5298.38,0.03126
5292.59,0.03013
5286.81,0.03174
5281.02,0.03252
5275.24,0.03212
5269.45,0.03058
5263.66,0.02948
5257.88,0.03378
5252.09,0.03243
5246.3,0.03166
5240.52,0.03249
5234.73,0.03103
5228.94,0.03052
5223.16,0.03088
5217.37,0.03141
5211.59,0.03038
5205.8,0.03014
5200.01,0.03193
5194.23,0.02962
5188.44,0.02929
5182.65,0.03047
5176.87,0.03058
5171.08,0.03056
5165.29,0.03252
5159.51,0.03123
5153.72,0.02936
5147.94,0.03068
5142.15,0.03165
5136.36,0.02983
5130.58,0.03119
5124.79,0.03058
5119,0.03069
5113.22,0.03171
5107.43,0.03158
5101.64,0.03071
5095.86,0.03070
5090.07,0.03085
5084.29,0.03035
5078.5,0.03247
5072.71,0.02919
5066.93,0.03150
5061.14,0.03197
5055.35,0.03201
5049.57,0.03047
5043.78,0.03103
5037.99,0.03218
5032.21,0.03059
5026.42,0.03180
5020.64,0.03123
5014.85,0.03131
5009.06,0.02949
5003.28,0.02974
4997.49,0.02898
4991.7,0.03049
4985.92,0.03125
4980.13,0.03087
4974.34,0.03066
4968.56,0.03112
4962.77,0.03141
4956.99,0.03139
4951.2,0.03160
4945.41,0.03033
4939.63,0.03063
4933.84,0.03209
4928.05,0.03054
4922.27,0.03069
4916.48,0.02899
4910.69,0.03056
4904.91,0.03106
4899.12,0.03158
4893.34,0.03067
4887.55,0.03149
4881.76,0.03128
4875.98,0.03113
4870.19,0.03180
4864.4,0.03007
4858.62,0.03009
4852.83,0.03066
4847.04,0.03184
4841.26,0.03055
4835.47,0.03055
4829.69,0.03056
4823.9,0.03027
4818.11,0.02998
4812.33,0.03146
4806.54,0.02974
4800.75,0.02997
4794.97,0.02924
4789.18,0.02991
4783.39,0.03039
4777.61,0.03034
4771.82,0.02987
4766.04,0.03124
4760.25,0.03193
4754.46,0.03157
4748.68,0.03087
4742.89,0.03051
4737.1,0.03010
4731.32,0.03068
4725.53,0.03075
4719.74,0.03134
4713.96,0.03121
4708.17,0.03056
4702.39,0.03039
4696.6,0.03197
4690.81,0.03111
4685.03,0.03021
4679.24,0.03098
4673.45,0.03146
4667.67,0.03029
4661.88,0.03042
4656.09,0.03074
4650.31,0.03091
4644.52,0.03128
4638.74,0.03147
4632.95,0.02982
4627.16,0.02989
4621.38,0.03064
4615.59,0.03198
4609.8,0.03102
4604.02,0.03174
4598.23,0.03007
4592.44,0.03075
4586.66,0.02999
4580.87,0.03029
4575.09,0.03018
4569.3,0.03027
4563.51,0.03072
4557.73,0.03130
4551.94,0.03188
4546.15,0.03040
4540.37,0.03114
4534.58,0.03056
4528.79,0.03030
4523.01,0.03048
4517.22,0.03138
4511.44,0.03125
4505.65,0.03066
4499.86,0.02994
4494.08,0.03070
4488.29,0.03120
4482.5,0.03058
4476.72,0.03128
4470.93,0.03093
4465.14,0.03037
4459.36,0.03052
4453.57,0.02979
4447.79,0.02990
4442,0.03050
4436.21,0.03075
4430.43,0.03047
4424.64,0.03047
4418.85,0.03076
4413.07,0.03068
4407.28,0.03004
4401.49,0.03069
4395.71,0.03019
4389.92,0.03074
4384.14,0.03047
4378.35,0.03066
4372.56,0.03106
4366.78,0.02998
4360.99,0.03013
4355.2,0.02999
4349.42,0.02953
4343.63,0.02981
4337.84,0.03002
4332.06,0.03015
4326.27,0.03007
4320.49,0.03104
4314.7,0.03073
4308.91,0.03039
4303.13,0.03072
4297.34,0.03098
4291.55,0.03014
4285.77,0.03002
4279.98,0.02986
4274.19,0.03076
4268.41,0.03068
4262.62,0.03006
4256.84,0.03034
4251.05,0.03098
4245.26,0.03021
4239.48,0.02998
4233.69,0.02991
4227.9,0.03071
4222.12,0.03021
4216.33,0.03000
4210.54,0.03051
4204.76,0.03084
4198.97,0.03011
4193.19,0.03017
4187.4,0.03043
4181.61,0.03064
4175.83,0.03067
4170.04,0.03054
4164.25,0.03083
4158.47,0.03073
4152.68,0.03022
4146.89,0.03015
4141.11,0.03083
4135.32,0.03048
4129.54,0.02972
4123.75,0.03085
4117.96,0.03044
4112.18,0.03032
4106.39,0.02948
4100.6,0.03035
4094.82,0.03057
4089.03,0.03090
4083.24,0.03089
4077.46,0.03054
4071.67,0.03038
4065.89,0.03001
4060.1,0.03092
4054.31,0.03015
4048.53,0.03053
4042.74,0.03100
4036.95,0.03077
4031.17,0.03089
4025.38,0.03053
4019.59,0.02967
4013.81,0.02974
4008.02,0.03045
4002.24,0.03031
3996.45,0.03012
3990.66,0.03020
3984.88,0.03053
3979.09,0.02990
3973.3,0.02974
3967.52,0.03068
3961.73,0.03001
3955.94,0.02995
3950.16,0.03013
3944.37,0.02984
3938.59,0.03013
3932.8,0.03045
3927.01,0.03053
3921.23,0.03035
3915.44,0.03053
3909.65,0.03091
3903.87,0.03032
3898.08,0.03030
3892.29,0.03019
3886.51,0.03145
3880.72,0.03086
3874.94,0.03041
3869.15,0.02972
3863.36,0.02956
3857.58,0.03076
3851.79,0.02945
3846,0.03010
3840.22,0.03025
3834.43,0.03050
3828.64,0.02989
3822.86,0.03044
3817.07,0.03045
3811.29,0.03042
3805.5,0.03074
3799.71,0.02973
3793.93,0.03033
3788.14,0.03028
3782.35,0.03023
3776.57,0.03039
3770.78,0.03082
3764.99,0.03123
3759.21,0.03082
3753.42,0.03056
3747.64,0.02920
3741.85,0.02939
3736.06,0.03016
3730.28,0.03074
3724.49,0.03052
3718.7,0.03078
3712.92,0.03072
3707.13,0.02963
3701.34,0.03003
3695.56,0.02998
3689.77,0.03089
3683.99,0.02930
3678.2,0.02960
3672.41,0.02908
3666.63,0.02911
3660.84,0.02982
3655.05,0.02966
3649.27,0.02793
3643.48,0.02884
3637.69,0.02888
3631.91,0.02874
3626.12,0.02938
3620.34,0.02943
3614.55,0.02909
3608.76,0.02841
3602.98,0.02871
3597.19,0.02840
3591.4,0.02751
3585.62,0.02785
3579.83,0.02758
3574.04,0.02763
3568.26,0.02688
3562.47,0.02817
3556.69,0.02853
3550.9,0.02713
3545.11,0.02763
3539.33,0.02720
3533.54,0.02789
3527.75,0.02770
3521.97,0.02746
3516.18,0.02741
3510.39,0.02733
3504.61,0.02761
3498.82,0.02676
3493.04,0.02710
3487.25,0.02747
3481.46,0.02703
3475.68,0.02816
3469.89,0.02734
3464.1,0.02701
3458.32,0.02722
3452.53,0.02699
3446.74,0.02641
3440.96,0.02671
3435.17,0.02672
3429.39,0.02588
3423.6,0.02613
3417.81,0.02602
3412.03,0.02652
3406.24,0.02673
3400.45,0.02665
3394.67,0.02702
3388.88,0.02597
3383.09,0.02651
3377.31,0.02641
3371.52,0.02666
3365.74,0.02615
3359.95,0.02564
3354.16,0.02595
3348.38,0.02679
3342.59,0.02631
3336.8,0.02572
3331.02,0.02649
3325.23,0.02788
3319.44,0.02725
3313.66,0.02604
3307.87,0.02590
3302.09,0.02658
3296.3,0.02583
3290.51,0.02604
3284.73,0.02660
3278.94,0.02665
3273.15,0.02668
3267.37,0.02675
3261.58,0.02691
3255.79,0.02661
3250.01,0.02694
3244.22,0.02583
3238.44,0.02685
3232.65,0.02711
3226.86,0.02747
3221.08,0.02695
3215.29,0.02662
3209.5,0.02721
3203.72,0.02806
3197.93,0.02679
3192.14,0.02612
3186.36,0.02717
3180.57,0.02746
3174.79,0.02797
3169,0.02768
3163.21,0.02743
3157.43,0.02668
3151.64,0.02687
3145.85,0.02760
3140.07,0.02705
3134.28,0.02711
3128.49,0.02724
3122.71,0.02709
3116.92,0.02725
3111.14,0.02756
3105.35,0.02707
3099.56,0.02678
3093.78,0.02755
3087.99,0.02689
3082.2,0.02717
3076.42,0.02722
3070.63,0.02723
3064.84,0.02746
3059.06,0.02682
3053.27,0.02747
3047.49,0.02739
3041.7,0.02686
3035.91,0.02723
3030.13,0.02730
3024.34,0.02762
3018.55,0.02663
3012.77,0.02667
3006.98,0.02709
3001.19,0.02685
2995.41,0.02655
2989.62,0.02696
2983.84,0.02639
2978.05,0.02647
2972.26,0.02570
2966.48,0.02645
2960.69,0.02651
2954.9,0.02586
2949.12,0.02598
2943.33,0.02607
2937.54,0.02594
2931.76,0.02631
2925.97,0.02601
2920.19,0.02690
2914.4,0.02640
2908.61,0.02657
2902.83,0.02703
2897.04,0.02671
2891.25,0.02669
2885.47,0.02717
2879.68,0.02663
2873.89,0.02677
2868.11,0.02675
2862.32,0.02700
2856.54,0.02690
2850.75,0.02706
2844.96,0.02720
2839.18,0.02747
2833.39,0.02749
2827.6,0.02807
2821.82,0.02749
2816.03,0.02758
2810.24,0.02739
2804.46,0.02704
2798.67,0.02747
2792.89,0.02758
2787.1,0.02748
2781.31,0.02682
2775.53,0.02730
2769.74,0.02760
2763.95,0.02761
2758.17,0.02749
2752.38,0.02759
2746.59,0.02762
2740.81,0.02758
2735.02,0.02769
2729.24,0.02730
2723.45,0.02749
2717.66,0.02795
2711.88,0.02727
2706.09,0.02733
2700.3,0.02695
2694.52,0.02736
2688.73,0.02772
2682.94,0.02819
2677.16,0.02761
2671.37,0.02709
2665.59,0.02724
2659.8,0.02743
2654.01,0.02691
2648.23,0.02740
2642.44,0.02759
2636.65,0.02736
2630.87,0.02757
2625.08,0.02713
2619.29,0.02719
2613.51,0.02727
2607.72,0.02719
2601.94,0.02715
2596.15,0.02735
2590.36,0.02767
2584.58,0.02751
2578.79,0.02746
2573,0.02766
2567.22,0.02732
2561.43,0.02733
2555.64,0.02738
2549.86,0.02739
2544.07,0.02731
2538.29,0.02699
2532.5,0.02711
2526.71,0.02720
2520.93,0.02699
2515.14,0.02686
2509.35,0.02708
2503.57,0.02733
2497.78,0.02712
2491.99,0.02717
2486.21,0.02716
2480.42,0.02697
2474.64,0.02705
2468.85,0.02717
2463.06,0.02766
2457.28,0.02739
2451.49,0.02717
2445.7,0.02711
2439.92,0.02679
2434.13,0.02686
2428.34,0.02692
2422.56,0.02741
2416.77,0.02744
2410.99,0.02764
2405.2,0.02694
2399.41,0.02742
2393.63,0.02701
2387.84,0.02693
2382.05,0.02707
2376.27,0.02758
2370.48,0.02767
2364.69,0.02803
2358.91,0.02810
2353.12,0.02694
2347.34,0.02703
2341.55,0.02688
2335.76,0.02687
2329.98,0.02749
2324.19,0.02727
2318.4,0.02708
2312.62,0.02696
2306.83,0.02698
2301.04,0.02669
2295.26,0.02698
2289.47,0.02691
2283.69,0.02673
2277.9,0.02693
2272.11,0.02697
2266.33,0.02666
2260.54,0.02646
2254.75,0.02686
2248.97,0.02702
2243.18,0.02681
2237.39,0.02640
2231.61,0.02642
2225.82,0.02666
2220.04,0.02666
2214.25,0.02656
2208.46,0.02667
2202.68,0.02650
2196.89,0.02636
2191.1,0.02567
2185.32,0.02631
2179.53,0.02647
2173.74,0.02655
2167.96,0.02645
2162.17,0.02621
2156.39,0.02613
2150.6,0.02614
2144.81,0.02642
2139.03,0.02645
2133.24,0.02646
2127.45,0.02625
2121.67,0.02639
2115.88,0.02616
2110.09,0.02623
2104.31,0.02640
2098.52,0.02633
2092.74,0.02627
2086.95,0.02636
2081.16,0.02664
2075.38,0.02610
2069.59,0.02632
2063.8,0.02600
2058.02,0.02641
2052.23,0.02629
2046.44,0.02629
2040.66,0.02618
2034.87,0.02615
2029.09,0.02625
2023.3,0.02614
2017.51,0.02597
2011.73,0.02595
2005.94,0.02598
2000.15,0.02608
1994.37,0.02620
1988.58,0.02613
1982.79,0.02619
1977.01,0.02581
1971.22,0.02572
1965.44,0.02600
1959.65,0.02585
1953.86,0.02569
1948.08,0.02555
1942.29,0.02612
1936.5,0.02569
1930.72,0.02595
1924.93,0.02595
1919.14,0.02580
1913.36,0.02534
1907.57,0.02528
1901.79,0.02548
1896,0.02540
1890.21,0.02550
1884.43,0.02560
1878.64,0.02537
1872.85,0.02576
1867.07,0.02546
1861.28,0.02503
1855.49,0.02522
1849.71,0.02554
1843.92,0.02460
1838.14,0.02504
1832.35,0.02526
1826.56,0.02498
1820.78,0.02464
1814.99,0.02492
1809.2,0.02431
1803.42,0.02442
1797.63,0.02410
1791.84,0.02389
1786.06,0.02348
1780.27,0.02368
1774.49,0.02295
1768.7,0.02278
1762.91,0.02280
1757.13,0.02220
1751.34,0.02177
1745.55,0.02226
1739.77,0.02276
1733.98,0.02388
1728.19,0.02464
1722.41,0.02516
1716.62,0.02497
1710.84,0.02407
1705.05,0.02467
1699.26,0.02415
1693.48,0.02318
1687.69,0.02348
1681.9,0.02227
1676.12,0.02271
1670.33,0.02292
1664.54,0.02220
1658.76,0.02243
1652.97,0.02288
1647.19,0.02217
1641.4,0.02230
1635.61,0.02250
1629.83,0.02229
1624.04,0.02243
1618.25,0.02238
1612.47,0.02307
1606.68,0.02254
1600.89,0.02212
1595.11,0.02282
1589.32,0.02244
1583.54,0.02200
1577.75,0.02200
1571.96,0.02178
1566.18,0.02193
1560.39,0.02233
1554.6,0.02170
1548.82,0.02233
1543.03,0.02197
1537.24,0.02260
1531.46,0.02232
1525.67,0.02239
1519.89,0.02259
1514.1,0.02237
1508.31,0.02252
1502.53,0.02224
1496.74,0.02206
1490.95,0.02247
1485.17,0.02228
1479.38,0.02216
1473.59,0.02195
1467.81,0.02154
1462.02,0.02178
1456.24,0.02197
1450.45,0.02213
1444.66,0.02236
1438.88,0.02187
1433.09,0.02166
1427.3,0.02189
1421.52,0.02129
1415.73,0.02123
1409.94,0.02117
1404.16,0.02129
1398.37,0.02088
1392.59,0.02089
1386.8,0.02107
1381.01,0.02090
1375.23,0.02145
1369.44,0.02113
1363.65,0.02109
1357.87,0.02080
1352.08,0.02096
1346.29,0.02085
1340.51,0.02053
1334.72,0.02001
1328.94,0.02045
1323.15,0.02011
1317.36,0.02008
1311.58,0.02018
1305.79,0.02001
1300,0.02052
1294.22,0.02063
1288.43,0.02078
1282.64,0.02150
1276.86,0.02159
1271.07,0.02166
1265.29,0.02216
1259.5,0.02260
1253.71,0.02293
1247.93,0.02300
1242.14,0.02272
1236.35,0.02223
1230.57,0.02218
1224.78,0.02224
1218.99,0.02208
1213.21,0.02210
1207.42,0.02191
1201.64,0.02169
1195.85,0.02129
1190.06,0.02093
1184.28,0.02091
1178.49,0.02042
1172.7,0.02036
1166.92,0.02018
1161.13,0.02028
1155.34,0.02040
1149.56,0.02015
1143.77,0.02049
1137.99,0.02067
1132.2,0.02104
1126.41,0.02100
1120.63,0.02212
1114.84,0.02273
1109.05,0.02252
1103.27,0.02209
1097.48,0.02216
1091.69,0.02212
1085.91,0.02207
1080.12,0.02258
1074.34,0.02349
1068.55,0.02448
1062.76,0.02470
1056.98,0.02418
1051.19,0.02397
1045.4,0.02355
1039.62,0.02399
1033.83,0.02334
1028.04,0.02266
1022.26,0.02296
1016.47,0.02351
1010.69,0.02349
1004.9,0.02424
999.112,0.02417
993.326,0.02403
987.54,0.02448
981.753,0.02479
975.967,0.02387
970.18,0.02370
964.394,0.02371
958.608,0.02394
952.821,0.02358
947.035,0.02343
941.249,0.02305
935.462,0.02301
929.676,0.02250
923.89,0.02240
918.103,0.02259
912.317,0.02267
906.53,0.02208
900.744,0.02261
894.958,0.02282
889.171,0.02278
883.385,0.02279
877.599,0.02223
871.812,0.02241
866.026,0.02225
860.24,0.02234
854.453,0.02263
848.667,0.02198
842.88,0.02166
837.094,0.02172
831.308,0.02205
825.521,0.02146
819.735,0.02179
813.949,0.02155
808.162,0.02083
802.376,0.02080
796.59,0.02099
790.803,0.02081
785.017,0.02161
779.23,0.02097
773.444,0.02144
767.658,0.02098
761.871,0.02083
756.085,0.01987
750.299,0.01925
744.512,0.02005
738.726,0.01998
732.94,0.01962
727.153,0.02001
721.367,0.01962
715.58,0.01942
709.794,0.01976
704.008,0.01962
698.221,0.01898
692.435,0.01925
686.649,0.01903
680.862,0.01966
675.076,0.01984
669.29,0.02020
663.503,0.01849
657.717,0.01858
651.93,0.01725
646.144,0.01758
640.358,0.01874
634.571,0.01845
628.785,0.01795
622.999,0.01891
617.212,0.02014
611.426,0.02064
605.639,0.01939
599.853,0.02009