File: 01_Data/PEVA/FTIR/IS/PEVA_0.18_IS_S_240809_R5.dpt
7497.33,0.10090
7491.55,0.09962
7485.76,0.09435
7479.97,0.10454
7474.19,0.10180
7468.4,0.10669
7462.61,0.10455
7456.83,0.10479
7451.04,0.10221
7445.26,0.11416
7439.47,0.09842
7433.68,0.10799
7427.9,0.10314
7422.11,0.09881
7416.32,0.10552
7410.54,0.09800
7404.75,0.10325
7398.96,0.10508
7393.18,0.09444
7387.39,0.10232
7381.6,0.10647
7375.82,0.11019
7370.03,0.09976
7364.24,0.10791
7358.46,0.10336
7352.67,0.09991
7346.89,0.10150
7341.1,0.11696
7335.31,0.10840
7329.53,0.10303
7323.74,0.10293
7317.95,0.10031
7312.17,0.10379
7306.38,0.10156
7300.59,0.10333
7294.81,0.09542
7289.02,0.10635
7283.23,0.10649
7277.45,0.11307
7271.66,0.10801
7265.87,0.10357
7260.09,0.09826
7254.3,0.10774
7248.52,0.10516
7242.73,0.10421
7236.94,0.11025
7231.16,0.10532
7225.37,0.09918
7219.58,0.09362
7213.8,0.10383
7208.01,0.10826
7202.22,0.10807
7196.44,0.09587
7190.65,0.10556
7184.86,0.10544
7179.08,0.09623
7173.29,0.09679
7167.5,0.09884
7161.72,0.10486
7155.93,0.10940
7150.15,0.10245
7144.36,0.09987
7138.57,0.09860
7132.79,0.10211
7127,0.10540
7121.21,0.10161
7115.43,0.10682
7109.64,0.09943
7103.85,0.09544
7098.07,0.10638
7092.28,0.10188
7086.49,0.10770
7080.71,0.10293
7074.92,0.10711
7069.13,0.10728
7063.35,0.10250
7057.56,0.09673
7051.78,0.10205
7045.99,0.10518
7040.2,0.09761
7034.42,0.09767
7028.63,0.09886
7022.84,0.10419
7017.06,0.10746
7011.27,0.11052
7005.48,0.09934
6999.7,0.10194
6993.91,0.10346
6988.12,0.09736
6982.34,0.10007
6976.55,0.10673
6970.76,0.11239
6964.98,0.10031
6959.19,0.09897
6953.41,0.10188
6947.62,0.09890
6941.83,0.10310
6936.05,0.10642
6930.26,0.10485
6924.47,0.09865
6918.69,0.10677
6912.9,0.10234
6907.11,0.10333
6901.33,0.11004
6895.54,0.10515
6889.75,0.10042
6883.97,0.10638
6878.18,0.10814
6872.39,0.10260
6866.61,0.10150
6860.82,0.10111
6855.04,0.10249
6849.25,0.10899
6843.46,0.10301
6837.68,0.09808
6831.89,0.10839
6826.1,0.10511
6820.32,0.10687
6814.53,0.10285
6808.74,0.10849
6802.96,0.10682
6797.17,0.10046
6791.38,0.10732
6785.6,0.09777
6779.81,0.10621
6774.03,0.09701
6768.24,0.10286
6762.45,0.10016
6756.67,0.10741
6750.88,0.09972
6745.09,0.10343
6739.31,0.10229
6733.52,0.10264
6727.73,0.10105
6721.95,0.10876
6716.16,0.10399
6710.37,0.10770
6704.59,0.09752
6698.8,0.10486
6693.01,0.10582
6687.23,0.10488
6681.44,0.10555
6675.66,0.10427
6669.87,0.09797
6664.08,0.10064
6658.3,0.10680
6652.51,0.10575
6646.72,0.09815
6640.94,0.10374
6635.15,0.10411
6629.36,0.10121
6623.58,0.10336
6617.79,0.10029
6612,0.10678
6606.22,0.09977
6600.43,0.10375
6594.64,0.09914
6588.86,0.10425
6583.07,0.10038
6577.29,0.10125
6571.5,0.10555
6565.71,0.10086
6559.93,0.09988
6554.14,0.10111
6548.35,0.10348
6542.57,0.09761
6536.78,0.10295
6530.99,0.10038
6525.21,0.10247
6519.42,0.10706
6513.63,0.10504
6507.85,0.09655
6502.06,0.10716
6496.27,0.10461
6490.49,0.10153
6484.7,0.10477
6478.92,0.10338
6473.13,0.10258
6467.34,0.10445
6461.56,0.10398
6455.77,0.10160
6449.98,0.10243
6444.2,0.10301
6438.41,0.09994
6432.62,0.10242
6426.84,0.10197
6421.05,0.10650
6415.26,0.09955
6409.48,0.10360
6403.69,0.10207
6397.9,0.10042
6392.12,0.10565
6386.33,0.10228
6380.55,0.10292
6374.76,0.10328
6368.97,0.10284
6363.19,0.09890
6357.4,0.10154
6351.61,0.10449
6345.83,0.10155
6340.04,0.10644
6334.25,0.10126
6328.47,0.10361
6322.68,0.10211
6316.89,0.09618
6311.11,0.10313
6305.32,0.10090
6299.53,0.09947
6293.75,0.10372
6287.96,0.10573
6282.18,0.10339
6276.39,0.09768
6270.6,0.10183
6264.82,0.09649
6259.03,0.10558
6253.24,0.10240
6247.46,0.10885
6241.67,0.10561
6235.88,0.10313
6230.1,0.10027
6224.31,0.10315
6218.52,0.10298
6212.74,0.10427
6206.95,0.10566
6201.16,0.10427
6195.38,0.10049
6189.59,0.10085
6183.81,0.10316
6178.02,0.10849
6172.23,0.10339
6166.45,0.10446
6160.66,0.10457
6154.87,0.10474
6149.09,0.10593
6143.3,0.10315
6137.51,0.10344
6131.73,0.10456
6125.94,0.10259
6120.15,0.10279
6114.37,0.09908
6108.58,0.10413
6102.79,0.10164
6097.01,0.10376
6091.22,0.10295
6085.44,0.10258
6079.65,0.10490
6073.86,0.10034
6068.08,0.10550
6062.29,0.10152
6056.5,0.10428
6050.72,0.10404
6044.93,0.10284
6039.14,0.09936
6033.36,0.10268
6027.57,0.10443
6021.78,0.10240
6016,0.10244
6010.21,0.10403
6004.42,0.10236
5998.64,0.10122
5992.85,0.10259
5987.07,0.09838
5981.28,0.09862
5975.49,0.10019
5969.71,0.10042
5963.92,0.10397
5958.13,0.10295
5952.35,0.10236
5946.56,0.09898
5940.77,0.10205
5934.99,0.09954
5929.2,0.09888
5923.41,0.10116
5917.63,0.10051
5911.84,0.10048
5906.05,0.09960
5900.27,0.09919
5894.48,0.10020
5888.7,0.10086
5882.91,0.10030
5877.12,0.09941
5871.34,0.09839
5865.55,0.09942
5859.76,0.09863
5853.98,0.10026
5848.19,0.09567
5842.4,0.09416
5836.62,0.09507
5830.83,0.09325
5825.04,0.09264
5819.26,0.09177
5813.47,0.08864
5807.68,0.08987
5801.9,0.09029
5796.11,0.08949
5790.33,0.09011
5784.54,0.08658
5778.75,0.08424
5772.97,0.08332
5767.18,0.08500
5761.39,0.08968
5755.61,0.09196
5749.82,0.09394
5744.03,0.09529
5738.25,0.09403
5732.46,0.09509
5726.67,0.09625
5720.89,0.09486
5715.1,0.09679
5709.31,0.09455
5703.53,0.09492
5697.74,0.09630
5691.96,0.09673
5686.17,0.09633
5680.38,0.09356
5674.6,0.09387
5668.81,0.09353
5663.02,0.09207
5657.24,0.09175
5651.45,0.09437
5645.66,0.09584
5639.88,0.09416
5634.09,0.09489
5628.3,0.09671
5622.52,0.09806
5616.73,0.09876
5610.94,0.09782
5605.16,0.10011
5599.37,0.10116
5593.59,0.09914
5587.8,0.09817
5582.01,0.10009
5576.23,0.10172
5570.44,0.10194
5564.65,0.09800
5558.87,0.09950
5553.08,0.09894
5547.29,0.09817
5541.51,0.10017
5535.72,0.10042
5529.93,0.09840
5524.15,0.09912
5518.36,0.09790
5512.58,0.09739
5506.79,0.09834
5501,0.09962
5495.22,0.09772
5489.43,0.09987
5483.64,0.10073
5477.86,0.09919
5472.07,0.09911
5466.28,0.09870
5460.5,0.10110
5454.71,0.10043
5448.92,0.09887
5443.14,0.09931
5437.35,0.09895
5431.56,0.09958
5425.78,0.10091
5419.99,0.10063
5414.21,0.10132
5408.42,0.09874
5402.63,0.10039
5396.85,0.09956
5391.06,0.10072
5385.27,0.10143
5379.49,0.09997
5373.7,0.10038
5367.91,0.10136
5362.13,0.09966
5356.34,0.09995
5350.55,0.10173
5344.77,0.10054
5338.98,0.10004
5333.19,0.10116
5327.41,0.10253
5321.62,0.10169
5315.84,0.10183
5310.05,0.10154
5304.26,0.10288
5298.48,0.10036
5292.69,0.10072
5286.9,0.10077
5281.12,0.10118
5275.33,0.10080
5269.54,0.10135
5263.76,0.10013
5257.97,0.10141
5252.18,0.10190
5246.4,0.10067
5240.61,0.10169
5234.82,0.10097
5229.04,0.10192
5223.25,0.10283
5217.47,0.10280
5211.68,0.10456
5205.89,0.10231
5200.11,0.10200
5194.32,0.10258
5188.53,0.10105
5182.75,0.10133
5176.96,0.10181
5171.17,0.10277
5165.39,0.10191
5159.6,0.10094
5153.81,0.10110
5148.03,0.10245
5142.24,0.10251
5136.45,0.10184
5130.67,0.10282
5124.88,0.10287
5119.1,0.10269
5113.31,0.10169
5107.52,0.10212
5101.74,0.10005
5095.95,0.10138
5090.16,0.10313
5084.38,0.10299
5078.59,0.10141
5072.8,0.10091
5067.02,0.10374
5061.23,0.10214
5055.44,0.10331
5049.66,0.09978
5043.87,0.10221
5038.08,0.10261
5032.3,0.10124
5026.51,0.10198
5020.73,0.10275
5014.94,0.10109
5009.15,0.10133
5003.37,0.10132
4997.58,0.10175
4991.79,0.10151
4986.01,0.10136
4980.22,0.10206
4974.43,0.10268
4968.65,0.10309
4962.86,0.10160
4957.07,0.10120
4951.29,0.10191
4945.5,0.10189
4939.71,0.10309
4933.93,0.10289
4928.14,0.10180
4922.36,0.10218
4916.57,0.10246
4910.78,0.10237
4905,0.10327
4899.21,0.10256
4893.42,0.10271
4887.64,0.10357
4881.85,0.10224
4876.06,0.10218
4870.28,0.10286
4864.49,0.10345
4858.7,0.10452
4852.92,0.10302
4847.13,0.10337
4841.34,0.10256
4835.56,0.10293
4829.77,0.10220
4823.99,0.10286
4818.2,0.10386
4812.41,0.10308
4806.63,0.10270
4800.84,0.10372
4795.05,0.10398
4789.27,0.10347
4783.48,0.10187
4777.69,0.10324
4771.91,0.10349
4766.12,0.10378
4760.33,0.10302
4754.55,0.10290
4748.76,0.10496
4742.97,0.10485
4737.19,0.10223
4731.4,0.10356
4725.62,0.10378
4719.83,0.10289
4714.04,0.10365
4708.26,0.10423
4702.47,0.10334
4696.68,0.10203
4690.9,0.10367
4685.11,0.10292
4679.32,0.10144
4673.54,0.10310
4667.75,0.10267
4661.96,0.10242
4656.18,0.10211
4650.39,0.10279
4644.6,0.10226
4638.82,0.10277
4633.03,0.10292
4627.25,0.10213
4621.46,0.10261
4615.67,0.10339
4609.89,0.10274
4604.1,0.10280
4598.31,0.10228
4592.53,0.10235
4586.74,0.10209
4580.95,0.10284
4575.17,0.10299
4569.38,0.10286
4563.59,0.10294
4557.81,0.10369
4552.02,0.10314
4546.23,0.10338
4540.45,0.10253
4534.66,0.10377
4528.88,0.10397
4523.09,0.10295
4517.3,0.10345
4511.52,0.10341
4505.73,0.10306
4499.94,0.10275
4494.16,0.10252
4488.37,0.10200
4482.58,0.10167
4476.8,0.10092
4471.01,0.10110
4465.22,0.10017
4459.44,0.10040
4453.65,0.09990
4447.86,0.09871
4442.08,0.09705
4436.29,0.09560
4430.51,0.09557
4424.72,0.09493
4418.93,0.09449
4413.15,0.09296
4407.36,0.09204
4401.57,0.09175
4395.79,0.09044
4390,0.08764
4384.21,0.08611
4378.43,0.08516
4372.64,0.08393
4366.85,0.08203
4361.07,0.07979
4355.28,0.07743
4349.49,0.07492
4343.71,0.07061
4337.92,0.06861
4332.14,0.06660
4326.35,0.06532
4320.56,0.06571
4314.78,0.07135
4308.99,0.07706
4303.2,0.07979
4297.42,0.07976
4291.63,0.08012
4285.84,0.08002
4280.06,0.07840
4274.27,0.07759
4268.48,0.07517
4262.7,0.07202
4256.91,0.06993
4251.13,0.06858
4245.34,0.07253
4239.55,0.07531
4233.77,0.07632
4227.98,0.07566
4222.19,0.07465
4216.41,0.07480
4210.62,0.07413
4204.83,0.07421
4199.05,0.07249
4193.26,0.07141
4187.47,0.07237
4181.69,0.07145
4175.9,0.07178
4170.11,0.07259
4164.33,0.07294
4158.54,0.07275
4152.76,0.07236
4146.97,0.07286
4141.18,0.07341
4135.4,0.07267
4129.61,0.07368
4123.82,0.07392
4118.04,0.07409
4112.25,0.07417
4106.46,0.07434
4100.68,0.07382
4094.89,0.07533
4089.1,0.07654
4083.32,0.07810
4077.53,0.07863
4071.74,0.08042
4065.96,0.07987
4060.17,0.08086
4054.39,0.08072
4048.6,0.08176
4042.81,0.08272
4037.03,0.08296
4031.24,0.08308
4025.45,0.08288
4019.67,0.08342
4013.88,0.08469
4008.09,0.08477
4002.31,0.08619
3996.52,0.08671
3990.73,0.08617
3984.95,0.08573
3979.16,0.08571
3973.37,0.08555
3967.59,0.08572
3961.8,0.08643
3956.02,0.08671
3950.23,0.08606
3944.44,0.08636
3938.66,0.08578
3932.87,0.08658
3927.08,0.08635
3921.3,0.08605
3915.51,0.08579
3909.72,0.08556
3903.94,0.08754
3898.15,0.08718
3892.36,0.08680
3886.58,0.08693
3880.79,0.08681
3875,0.08758
3869.22,0.08745
3863.43,0.08897
3857.65,0.08813
3851.86,0.08911
3846.07,0.08980
3840.29,0.08944
3834.5,0.09035
3828.71,0.09009
3822.93,0.09064
3817.14,0.09054
3811.35,0.09042
3805.57,0.09084
3799.78,0.09153
3793.99,0.09255
3788.21,0.09238
3782.42,0.09272
3776.63,0.09287
3770.85,0.09314
3765.06,0.09248
3759.28,0.09307
3753.49,0.09401
3747.7,0.09310
3741.92,0.09322
3736.13,0.09263
3730.34,0.09179
3724.56,0.09288
3718.77,0.09197
3712.98,0.09095
3707.2,0.09124
3701.41,0.09032
3695.62,0.09014
3689.84,0.08952
3684.05,0.08866
3678.26,0.08799
3672.48,0.08937
3666.69,0.08890
3660.91,0.08767
3655.12,0.08582
3649.33,0.08528
3643.55,0.08506
3637.76,0.08705
3631.97,0.08809
3626.19,0.08788
3620.4,0.08816
3614.61,0.08621
3608.83,0.08412
3603.04,0.08433
3597.25,0.08776
3591.47,0.09101
3585.68,0.09350
3579.89,0.09435
3574.11,0.09383
3568.32,0.09418
3562.54,0.09564
3556.75,0.09492
3550.96,0.09502
3545.18,0.09607
3539.39,0.09601
3533.6,0.09433
3527.82,0.09516
3522.03,0.09590
3516.24,0.09573
3510.46,0.09470
3504.67,0.09445
3498.88,0.09503
3493.1,0.09335
3487.31,0.09307
3481.52,0.09139
3475.74,0.08999
3469.95,0.08602
3464.17,0.08227
3458.38,0.08064
3452.59,0.08119
3446.81,0.08358
3441.02,0.08643
3435.23,0.08872
3429.45,0.09080
3423.66,0.09116
3417.87,0.09228
3412.09,0.09196
3406.3,0.09296
3400.51,0.09302
3394.73,0.09301
3388.94,0.09198
3383.15,0.09181
3377.37,0.09230
3371.58,0.09143
3365.8,0.09151
3360.01,0.09270
3354.22,0.09271
3348.44,0.09185
3342.65,0.09318
3336.86,0.09292
3331.08,0.09241
3325.29,0.09270
3319.5,0.09241
3313.72,0.09289
3307.93,0.09264
3302.14,0.09338
3296.36,0.09197
3290.57,0.09158
3284.78,0.09145
3279,0.09190
3273.21,0.09167
3267.43,0.09175
3261.64,0.09094
3255.85,0.09142
3250.07,0.09059
3244.28,0.09191
3238.49,0.09124
3232.71,0.09056
3226.92,0.09009
3221.13,0.09031
3215.35,0.09021
3209.56,0.08957
3203.77,0.08926
3197.99,0.08948
3192.2,0.08902
3186.41,0.08800
3180.63,0.08768
3174.84,0.08750
3169.06,0.08724
3163.27,0.08701
3157.48,0.08666
3151.7,0.08574
3145.91,0.08564
3140.12,0.08468
3134.34,0.08404
3128.55,0.08354
3122.76,0.08194
3116.98,0.07970
3111.19,0.07883
3105.4,0.07718
3099.62,0.07437
3093.83,0.07233
3088.05,0.06973
3082.26,0.06823
3076.47,0.06681
3070.69,0.06597
3064.9,0.06455
3059.11,0.06376
3053.33,0.06216
3047.54,0.06105
3041.75,0.05966
3035.97,0.05890
3030.18,0.05834
3024.39,0.05733
3018.61,0.05697
3012.82,0.05641
3007.03,0.05598
3001.25,0.05555
2995.46,0.05499
2989.68,0.05394
2983.89,0.05362
2978.1,0.05244
2972.32,0.05098
2966.53,0.05047
2960.74,0.04914
2954.96,0.04811
2949.17,0.04680
2943.38,0.04330
2937.6,0.04102
2931.81,0.04108
2926.02,0.05011
2920.24,0.07441
2914.45,0.09083
2908.66,0.08161
2902.88,0.07551
2897.09,0.07214
2891.31,0.07076
2885.52,0.06907
2879.73,0.06640
2873.95,0.06350
2868.16,0.06131
2862.37,0.05681
2856.59,0.05563
2850.8,0.07291
2845.01,0.08662
2839.23,0.07990
2833.44,0.07407
2827.65,0.07079
2821.87,0.06928
2816.08,0.06929
2810.29,0.06941
2804.51,0.06938
2798.72,0.06983
2792.94,0.06961
2787.15,0.06984
2781.36,0.06983
2775.58,0.07048
2769.79,0.07069
2764,0.07038
2758.22,0.06978
2752.43,0.06973
2746.64,0.06918
2740.86,0.06847
2735.07,0.06832
2729.28,0.06861
2723.5,0.06829
2717.71,0.06840
2711.92,0.06910
2706.14,0.06943
2700.35,0.07025
2694.57,0.06935
2688.78,0.06884
2682.99,0.06859
2677.21,0.06860
2671.42,0.06906
2665.63,0.06901
2659.85,0.07050
2654.06,0.07015
2648.27,0.07052
2642.49,0.07083
2636.7,0.07065
2630.91,0.07159
2625.13,0.07297
2619.34,0.07368
2613.55,0.07464
2607.77,0.07581
2601.98,0.07690
2596.2,0.07754
2590.41,0.07903
2584.62,0.07989
2578.84,0.08130
2573.05,0.08203
2567.26,0.08287
2561.48,0.08341
2555.69,0.08386
2549.9,0.08490
2544.12,0.08478
2538.33,0.08539
2532.54,0.08556
2526.76,0.08570
2520.97,0.08630
2515.18,0.08760
2509.4,0.08882
2503.61,0.08827
2497.83,0.08832
2492.04,0.08859
2486.25,0.08823
2480.47,0.08786
2474.68,0.08881
2468.89,0.08994
2463.11,0.09169
2457.32,0.09274
2451.53,0.09421
2445.75,0.09517
2439.96,0.09490
2434.17,0.09542
2428.39,0.09549
2422.6,0.09372
2416.81,0.09376
2411.03,0.09448
2405.24,0.09449
2399.46,0.09381
2393.67,0.09432
2387.88,0.09494
2382.1,0.09416
2376.31,0.09404
2370.52,0.09408
2364.74,0.09192
2358.95,0.09067
2353.16,0.08931
2347.38,0.08789
2341.59,0.08580
2335.8,0.08538
2330.02,0.08523
2324.23,0.08453
2318.44,0.08450
2312.66,0.08582
2306.87,0.08578
2301.09,0.08535
2295.3,0.08664
2289.51,0.08768
2283.73,0.08726
2277.94,0.08741
2272.15,0.08903
2266.37,0.08980
2260.58,0.08971
2254.79,0.09050
2249.01,0.09181
2243.22,0.09162
2237.43,0.09327
2231.65,0.09572
2225.86,0.09609
2220.07,0.09578
2214.29,0.09650
2208.5,0.09753
2202.72,0.09659
2196.93,0.09614
2191.14,0.09657
2185.36,0.09571
2179.57,0.09445
2173.78,0.09522
2168,0.09518
2162.21,0.09398
2156.42,0.09328
2150.64,0.09475
2144.85,0.09481
2139.06,0.09454
2133.28,0.09647
2127.49,0.09724
2121.7,0.09630
2115.92,0.09598
2110.13,0.09699
2104.35,0.09598
2098.56,0.09414
2092.77,0.09508
2086.99,0.09547
2081.2,0.09366
2075.41,0.09267
2069.63,0.09367
2063.84,0.09254
2058.05,0.09029
2052.27,0.09058
2046.48,0.09052
2040.69,0.08791
2034.91,0.08713
2029.12,0.08763
2023.33,0.08584
2017.55,0.08495
2011.76,0.08913
2005.98,0.09227
2000.19,0.09179
1994.4,0.09317
1988.62,0.09637
1982.83,0.09579
1977.04,0.09401
1971.26,0.09613
1965.47,0.09655
1959.68,0.09430
1953.9,0.09411
1948.11,0.09691
1942.32,0.09510
1936.54,0.09368
1930.75,0.09550
1924.96,0.09568
1919.18,0.09269
1913.39,0.09198
1907.61,0.09282
1901.82,0.08971
1896.03,0.08728
1890.25,0.08961
1884.46,0.09023
1878.67,0.08622
1872.89,0.08723
1867.1,0.08787
1861.31,0.08534
1855.53,0.08456
1849.74,0.08718
1843.95,0.08541
1838.17,0.08217
1832.38,0.08368
1826.6,0.08298
1820.81,0.07824
1815.02,0.07873
1809.24,0.07894
1803.45,0.07490
1797.66,0.07471
1791.88,0.07410
1786.09,0.07009
1780.3,0.07008
1774.52,0.06865
1768.73,0.06598
1762.94,0.06544
1757.16,0.06601
1751.37,0.06886
1745.58,0.07592
1739.8,0.07182
1734.01,0.06112
1728.23,0.05723
1722.44,0.05788
1716.65,0.05891
1710.87,0.06081
1705.08,0.06071
1699.29,0.06275
1693.51,0.06244
1687.72,0.06536
1681.93,0.07217
1676.15,0.07112
1670.36,0.07295
1664.57,0.07593
1658.79,0.07202
1653,0.07254
1647.21,0.07309
1641.43,0.07373
1635.64,0.07609
1629.86,0.08170
1624.07,0.08010
1618.28,0.07805
1612.5,0.08260
1606.71,0.08222
1600.92,0.07779
1595.14,0.08081
1589.35,0.08304
1583.56,0.07822
1577.78,0.07795
1571.99,0.08195
1566.2,0.07766
1560.42,0.07635
1554.63,0.08055
1548.84,0.07915
1543.06,0.07611
1537.27,0.07915
1531.49,0.07936
1525.7,0.07476
1519.91,0.07600
1514.13,0.07677
1508.34,0.07216
1502.55,0.07256
1496.77,0.07005
1490.98,0.06554
1485.19,0.06253
1479.41,0.05675
1473.62,0.05535
1467.83,0.05932
1462.05,0.06443
1456.26,0.06565
1450.47,0.06459
1444.69,0.06376
1438.9,0.06301
1433.12,0.06240
1427.33,0.06137
1421.54,0.06166
1415.76,0.06281
1409.97,0.06193
1404.18,0.06368
1398.4,0.06006
1392.61,0.05816
1386.82,0.05549
1381.04,0.05505
1375.25,0.05637
1369.46,0.05813
1363.68,0.05916
1357.89,0.05948
1352.1,0.05984
1346.32,0.05933
1340.53,0.06137
1334.75,0.06469
1328.96,0.06348
1323.17,0.06500
1317.39,0.06334
1311.6,0.06293
1305.81,0.06415
1300.03,0.06369
1294.24,0.06430
1288.45,0.06569
1282.67,0.06660
1276.88,0.06757
1271.09,0.06881
1265.31,0.07076
1259.52,0.07182
1253.73,0.07044
1247.95,0.06492
1242.16,0.05570
1236.38,0.04908
1230.59,0.05029
1224.8,0.05326
1219.02,0.05600
1213.23,0.05777
1207.44,0.05868
1201.66,0.06009
1195.87,0.06038
1190.08,0.06151
1184.3,0.06160
1178.51,0.06190
1172.72,0.06305
1166.94,0.06222
1161.15,0.06183
1155.36,0.06178
1149.58,0.06028
1143.79,0.06048
1138.01,0.06119
1132.22,0.06095
1126.43,0.06056
1120.65,0.06214
1114.86,0.06337
1109.07,0.06314
1103.29,0.06331
1097.5,0.06429
1091.71,0.06391
1085.93,0.06294
1080.14,0.06416
1074.35,0.06476
1068.57,0.06495
1062.78,0.06430
1056.99,0.06665
1051.21,0.06558
1045.42,0.06570
1039.64,0.06567
1033.85,0.06615
1028.06,0.06601
1022.28,0.06491
1016.49,0.06383
1010.7,0.06320
1004.92,0.06287
999.13,0.06451
993.344,0.06328
987.557,0.06512
981.771,0.06574
975.984,0.06255
970.198,0.06285
964.411,0.06324
958.625,0.06032
952.838,0.06034
947.052,0.06297
941.265,0.06269
935.479,0.06133
929.692,0.06283
923.906,0.07149
918.12,0.07184
912.333,0.06735
906.547,0.07404
900.76,0.07691
894.974,0.06823
889.187,0.07114
883.401,0.07932
877.614,0.07335
871.828,0.06840
866.041,0.07720
860.255,0.08020
854.468,0.07045
848.682,0.07439
842.895,0.08608
837.109,0.07916
831.323,0.07224
825.536,0.08649
819.75,0.08786
813.963,0.07248
808.177,0.07679
802.39,0.08722
796.604,0.07714
790.817,0.07035
785.031,0.08747
779.244,0.08619
773.458,0.06844
767.671,0.07594
761.885,0.08649
756.098,0.06872
750.312,0.06533
744.526,0.07412
738.739,0.05762
732.953,0.05552
727.166,0.05828
721.38,0.05898
715.593,0.06434
709.807,0.07221
704.02,0.06897
698.234,0.07747
692.447,0.10427
686.661,0.07953
680.874,0.08071
675.088,0.10985
669.301,0.08937
663.515,0.07134
657.729,0.09890
651.942,0.09163
646.156,0.05999
640.369,0.07276
634.583,0.09251
628.796,0.06972
623.01,0.06158
617.223,0.08751
611.437,0.07223
605.65,0.06328
599.864,0.05774