File: 01_Data/PEVA/FTIR/IS/PEVA_0.18_IS_Trans_T_240819_R7.dpt
7496.91,0.02836
7491.12,0.02342
7485.33,0.03107
7479.55,0.02571
7473.76,0.00494
7467.98,0.02854
7462.19,0.00230
7456.4,0.03176
7450.62,0.01901
7444.83,0.03075
7439.04,0.02830
7433.26,0.02897
7427.47,0.01748
7421.69,0.01538
7415.9,0.01054
7410.11,0.02216
7404.33,0.01326
7398.54,0.03154
7392.76,0.01446
7386.97,0.02184
7381.18,0.02925
7375.4,0.03287
7369.61,0.01379
7363.83,0.02093
7358.04,0.02672
7352.25,0.01194
7346.47,0.01719
7340.68,0.00908
7334.89,0.01174
7329.11,0.01452
7323.32,0.02503
7317.54,0.00848
7311.75,0.01002
7305.96,0.02742
7300.18,0.02032
7294.39,0.02836
7288.61,0.00356
7282.82,0.03724
7277.03,0.01882
7271.25,0.00474
7265.46,0.02148
7259.67,0.02673
7253.89,0.02183
7248.1,0.01762
7242.32,0.00152
7236.53,0.01987
7230.74,0.02810
7224.96,0.02049
7219.17,0.01438
7213.39,0.01178
7207.6,0.02507
7201.81,0.01871
7196.03,0.01549
7190.24,0.01724
7184.45,0.01859
7178.67,0.01581
7172.88,0.01127
7167.1,0.02619
7161.31,0.02409
7155.52,0.01990
7149.74,0.00656
7143.95,0.00803
7138.17,0.01523
7132.38,0.01820
7126.59,0.01208
7120.81,0.01269
7115.02,0.00793
7109.23,0.02328
7103.45,0.02432
7097.66,0.00769
7091.88,0.01361
7086.09,0.03240
7080.3,0.02401
7074.52,0.02349
7068.73,0.01305
7062.95,0.00183
7057.16,0.02243
7051.37,0.00324
7045.59,0.02901
7039.8,0.02024
7034.02,0.03016
7028.23,0.02167
7022.44,0.01076
7016.66,0.01374
7010.87,-0.00199
7005.08,0.00221
6999.3,0.01574
6993.51,0.02359
6987.73,0.01726
6981.94,0.02398
6976.15,0.01106
6970.37,0.02126
6964.58,0.00435
6958.8,0.01142
6953.01,0.02102
6947.22,0.01967
6941.44,0.01546
6935.65,0.00838
6929.86,0.01537
6924.08,0.01259
6918.29,0.00351
6912.51,0.00595
6906.72,0.01375
6900.93,0.00947
6895.15,0.02042
6889.36,0.01348
6883.58,0.01589
6877.79,0.00841
6872,0.01802
6866.22,0.00200
6860.43,0.00436
6854.64,0.01125
6848.86,0.00832
6843.07,0.01720
6837.29,0.01082
6831.5,0.00955
6825.71,0.01128
6819.93,0.02083
6814.14,0.02036
6808.36,0.01703
6802.57,0.01393
6796.78,0.00794
6791,0.01143
6785.21,0.01474
6779.43,0.00348
6773.64,0.01360
6767.85,-0.00395
6762.07,0.01148
6756.28,0.00277
6750.49,0.01498
6744.71,0.01863
6738.92,0.01221
6733.14,0.00266
6727.35,0.00680
6721.56,0.00222
6715.78,0.00457
6709.99,0.01000
6704.21,0.01327
6698.42,0.00561
6692.63,0.00536
6686.85,0.00826
6681.06,0.00500
6675.27,0.00303
6669.49,0.01304
6663.7,0.00731
6657.92,0.00724
6652.13,0.00575
6646.34,0.01617
6640.56,0.00557
6634.77,0.00591
6628.99,0.00663
6623.2,0.01032
6617.41,0.01840
6611.63,0.00753
6605.84,0.00482
6600.05,0.00350
6594.27,0.01212
6588.48,0.01606
6582.7,0.00503
6576.91,0.01116
6571.12,0.00092
6565.34,0.01105
6559.55,0.01280
6553.77,0.01264
6547.98,0.01638
6542.19,0.00737
6536.41,0.01164
6530.62,0.00855
6524.84,0.00628
6519.05,0.01834
6513.26,0.00555
6507.48,0.00208
6501.69,0.01781
6495.9,0.00421
6490.12,0.00739
6484.33,0.00729
6478.55,0.00148
6472.76,0.01297
6466.97,0.00670
6461.19,0.00993
6455.4,0.01073
6449.62,0.00520
6443.83,0.01431
6438.04,0.00911
6432.26,0.01105
6426.47,0.00883
6420.68,0.00558
6414.9,-0.00223
6409.11,0.01363
6403.33,0.01336
6397.54,0.01013
6391.75,0.01059
6385.97,0.00476
6380.18,0.01097
6374.4,0.00526
6368.61,0.00533
6362.82,0.00923
6357.04,0.00638
6351.25,0.00295
6345.46,0.01283
6339.68,0.00770
6333.89,0.00979
6328.11,0.00931
6322.32,0.00971
6316.53,0.01488
6310.75,0.00615
6304.96,0.00473
6299.18,0.00980
6293.39,0.00023
6287.6,0.00996
6281.82,0.00393
6276.03,0.00433
6270.24,0.00221
6264.46,0.00618
6258.67,0.00717
6252.89,0.00512
6247.1,0.00751
6241.31,0.00424
6235.53,0.00722
6229.74,0.00534
6223.96,0.00641
6218.17,0.00616
6212.38,0.00475
6206.6,0.00455
6200.81,0.00660
6195.03,0.00576
6189.24,0.00876
6183.45,0.01285
6177.67,0.00140
6171.88,0.00177
6166.09,0.00831
6160.31,0.00913
6154.52,0.00544
6148.74,0.00538
6142.95,0.00583
6137.16,0.00533
6131.38,0.00384
6125.59,0.00684
6119.81,0.00090
6114.02,0.00840
6108.23,0.00831
6102.45,0.00751
6096.66,0.00245
6090.87,0.00463
6085.09,0.00923
6079.3,0.00870
6073.52,0.00532
6067.73,0.00257
6061.94,0.00544
6056.16,0.00687
6050.37,0.01092
6044.59,0.00663
6038.8,0.00391
6033.01,0.00142
6027.23,0.00919
6021.44,0.00723
6015.65,0.00988
6009.87,0.00377
6004.08,0.00069
5998.3,0.00809
5992.51,0.00953
5986.72,0.00292
5980.94,0.00541
5975.15,0.00626
5969.37,0.00825
5963.58,0.00535
5957.79,0.00376
5952.01,0.00640
5946.22,0.00596
5940.44,0.00537
5934.65,0.00582
5928.86,0.00245
5923.08,0.00395
5917.29,0.00411
5911.5,0.00471
5905.72,0.00625
5899.93,0.00228
5894.15,0.00375
5888.36,0.00072
5882.57,0.00541
5876.79,0.00444
5871,0.00324
5865.22,0.00243
5859.43,0.01017
5853.64,0.00521
5847.86,0.00721
5842.07,0.00222
5836.28,0.00383
5830.5,0.00476
5824.71,0.00624
5818.93,0.00105
5813.14,0.00658
5807.35,0.00273
5801.57,0.00299
5795.78,0.00576
5790,0.00156
5784.21,0.00918
5778.42,0.00367
5772.64,0.00367
5766.85,0.00333
5761.06,0.00621
5755.28,0.01010
5749.49,0.00240
5743.71,0.00289
5737.92,0.00072
5732.13,0.00526
5726.35,0.00328
5720.56,0.00295
5714.78,0.00266
5708.99,0.00601
5703.2,0.00941
5697.42,0.00615
5691.63,0.00387
5685.84,0.00236
5680.06,0.00485
5674.27,0.00461
5668.49,0.00348
5662.7,0.00553
5656.91,0.00040
5651.13,0.00795
5645.34,0.00518
5639.56,0.00759
5633.77,0.00273
5627.98,0.00427
5622.2,0.00300
5616.41,0.00374
5610.63,0.00146
5604.84,0.00274
5599.05,0.00300
5593.27,0.00223
5587.48,0.00745
5581.69,0.00266
5575.91,0.00698
5570.12,0.00265
5564.34,0.00225
5558.55,0.00590
5552.76,0.00056
5546.98,0.00255
5541.19,0.00669
5535.41,0.00289
5529.62,0.00120
5523.83,0.00446
5518.05,0.00208
5512.26,0.00238
5506.47,0.00381
5500.69,0.00603
5494.9,0.00322
5489.12,0.00205
5483.33,0.00186
5477.54,0.00310
5471.76,0.00061
5465.97,0.00449
5460.19,0.00019
5454.4,0.00465
5448.61,0.00504
5442.83,0.00710
5437.04,0.00167
5431.25,0.00296
5425.47,0.00438
5419.68,0.00278
5413.9,0.00477
5408.11,0.00309
5402.32,0.00343
5396.54,0.00468
5390.75,0.00598
5384.97,0.00145
5379.18,0.00436
5373.39,0.00417
5367.61,0.00380
5361.82,0.00535
5356.04,0.00035
5350.25,0.00456
5344.46,0.00449
5338.68,0.00441
5332.89,0.00488
5327.1,0.00100
5321.32,0.00297
5315.53,0.00423
5309.75,0.00021
5303.96,0.00405
5298.17,0.00094
5292.39,0.00380
5286.6,0.00095
5280.82,0.00290
5275.03,0.00015
5269.24,0.00337
5263.46,0.00384
5257.67,0.00355
5251.88,0.00466
5246.1,0.00599
5240.31,0.00080
5234.53,0.00308
5228.74,0.00416
5222.95,-0.00001
5217.17,0.00212
5211.38,0.00116
5205.6,0.00122
5199.81,0.00205
5194.02,0.00322
5188.24,0.00592
5182.45,0.00482
5176.66,0.00350
5170.88,0.00339
5165.09,0.00253
5159.31,0.00296
5153.52,0.00231
5147.73,0.00101
5141.95,0.00144
5136.16,0.00260
5130.38,0.00349
5124.59,0.00334
5118.8,0.00286
5113.02,0.00351
5107.23,0.00153
5101.45,0.00231
5095.66,0.00167
5089.87,0.00386
5084.09,0.00300
5078.3,0.00372
5072.51,0.00106
5066.73,0.00478
5060.94,0.00076
5055.16,0.00089
5049.37,0.00146
5043.58,0.00297
5037.8,0.00429
5032.01,0.00183
5026.23,0.00095
5020.44,0.00011
5014.65,0.00399
5008.87,0.00428
5003.08,0.00277
4997.29,0.00077
4991.51,0.00149
4985.72,0.00121
4979.94,0.00133
4974.15,0.00315
4968.36,0.00116
4962.58,0.00141
4956.79,0.00343
4951.01,0.00065
4945.22,0.00271
4939.43,0.00127
4933.65,0.00120
4927.86,0.00081
4922.07,0.00241
4916.29,0.00135
4910.5,0.00093
4904.72,0.00224
4898.93,0.00096
4893.14,0.00117
4887.36,0.00380
4881.57,0.00019
4875.79,0.00230
4870,0.00077
4864.21,0.00158
4858.43,0.00203
4852.64,0.00207
4846.85,0.00167
4841.07,0.00025
4835.28,0.00190
4829.5,0.00210
4823.71,0.00110
4817.92,0.00234
4812.14,0.00102
4806.35,0.00360
4800.57,0.00222
4794.78,0.00107
4788.99,0.00171
4783.21,0.00272
4777.42,0.00081
4771.64,0.00152
4765.85,0.00084
4760.06,0.00194
4754.28,0.00330
4748.49,0.00214
4742.7,0.00252
4736.92,0.00137
4731.13,0.00202
4725.35,0.00106
4719.56,0.00220
4713.77,0.00241
4707.99,0.00073
4702.2,0.00200
4696.42,0.00098
4690.63,0.00202
4684.84,0.00229
4679.06,0.00058
4673.27,0.00154
4667.48,0.00202
4661.7,0.00036
4655.91,0.00075
4650.13,0.00200
4644.34,0.00175
4638.55,0.00237
4632.77,0.00232
4626.98,0.00191
4621.2,0.00140
4615.41,0.00094
4609.62,0.00347
4603.84,0.00417
4598.05,0.00057
4592.26,0.00275
4586.48,0.00031
4580.69,0.00233
4574.91,0.00149
4569.12,0.00120
4563.33,0.00075
4557.55,0.00155
4551.76,0.00068
4545.98,0.00396
4540.19,0.00114
4534.4,0.00274
4528.62,0.00130
4522.83,0.00250
4517.05,0.00047
4511.26,0.00215
4505.47,0.00207
4499.69,0.00217
4493.9,0.00112
4488.11,0.00100
4482.33,0.00308
4476.54,0.00207
4470.76,0.00143
4464.97,0.00090
4459.18,0.00194
4453.4,0.00048
4447.61,0.00176
4441.83,0.00157
4436.04,0.00183
4430.25,0.00090
4424.47,0.00127
4418.68,0.00171
4412.89,0.00220
4407.11,0.00072
4401.32,0.00168
4395.54,0.00095
4389.75,0.00152
4383.96,0.00105
4378.18,0.00216
4372.39,0.00212
4366.61,0.00088
4360.82,0.00163
4355.03,0.00101
4349.25,0.00139
4343.46,0.00096
4337.67,0.00101
4331.89,0.00264
4326.1,0.00071
4320.32,0.00135
4314.53,0.00103
4308.74,0.00176
4302.96,0.00070
4297.17,0.00039
4291.39,0.00130
4285.6,0.00142
4279.81,0.00136
4274.03,0.00069
4268.24,0.00054
4262.46,0.00218
4256.67,-0.00043
4250.88,0.00156
4245.1,0.00215
4239.31,0.00227
4233.52,0.00050
4227.74,0.00044
4221.95,0.00092
4216.17,0.00186
4210.38,0.00200
4204.59,0.00063
4198.81,0.00025
4193.02,0.00138
4187.24,0.00115
4181.45,0.00086
4175.66,0.00080
4169.88,0.00149
4164.09,0.00031
4158.3,0.00161
4152.52,0.00047
4146.73,0.00191
4140.95,0.00213
4135.16,0.00149
4129.37,0.00018
4123.59,0.00054
4117.8,0.00039
4112.02,0.00227
4106.23,0.00063
4100.44,0.00094
4094.66,0.00024
4088.87,0.00088
4083.08,0.00152
4077.3,0.00116
4071.51,0.00089
4065.73,0.00052
4059.94,0.00091
4054.15,0.00095
4048.37,0.00164
4042.58,0.00157
4036.8,0.00079
4031.01,0.00141
4025.22,0.00095
4019.44,0.00149
4013.65,0.00158
4007.86,0.00122
4002.08,0.00082
3996.29,0.00030
3990.51,0.00018
3984.72,0.00203
3978.93,0.00108
3973.15,0.00095
3967.36,0.00044
3961.58,0.00078
3955.79,0.00107
3950,0.00139
3944.22,0.00146
3938.43,0.00073
3932.65,0.00145
3926.86,0.00110
3921.07,0.00199
3915.29,-0.00034
3909.5,0.00115
3903.71,0.00004
3897.93,0.00215
3892.14,0.00144
3886.36,0.00149
3880.57,0.00193
3874.78,0.00073
3869,0.00116
3863.21,0.00240
3857.43,0.00092
3851.64,0.00262
3845.85,0.00049
3840.07,0.00039
3834.28,0.00009
3828.49,0.00147
3822.71,0.00201
3816.92,0.00186
3811.14,0.00152
3805.35,0.00133
3799.56,0.00158
3793.78,0.00067
3787.99,0.00144
3782.21,0.00135
3776.42,0.00272
3770.63,0.00231
3764.85,0.00051
3759.06,0.00163
3753.27,-0.00011
3747.49,0.00152
3741.7,0.00245
3735.92,0.00196
3730.13,0.00085
3724.34,0.00299
3718.56,0.00126
3712.77,0.00257
3706.99,0.00139
3701.2,0.00175
3695.41,0.00142
3689.63,0.00037
3683.84,0.00094
3678.06,0.00104
3672.27,0.00133
3666.48,0.00014
3660.7,0.00088
3654.91,0.00068
3649.12,0.00339
3643.34,0.00126
3637.55,-0.00005
3631.77,0.00100
3625.98,0.00197
3620.19,0.00128
3614.41,0.00265
3608.62,0.00162
3602.84,0.00054
3597.05,0.00147
3591.26,0.00118
3585.48,0.00111
3579.69,0.00089
3573.9,0.00139
3568.12,0.00117
3562.33,0.00039
3556.55,0.00014
3550.76,0.00167
3544.97,0.00157
3539.19,0.00110
3533.4,0.00162
3527.62,0.00245
3521.83,0.00135
3516.04,0.00169
3510.26,0.00156
3504.47,0.00203
3498.68,0.00038
3492.9,0.00123
3487.11,0.00143
3481.33,0.00216
3475.54,-0.00001
3469.75,0.00101
3463.97,0.00127
3458.18,0.00090
3452.4,0.00238
3446.61,0.00026
3440.82,0.00208
3435.04,0.00108
3429.25,0.00269
3423.47,0.00167
3417.68,0.00134
3411.89,0.00254
3406.11,0.00297
3400.32,0.00004
3394.53,0.00222
3388.75,0.00206
3382.96,0.00193
3377.18,0.00063
3371.39,0.00077
3365.6,0.00099
3359.82,0.00091
3354.03,0.00260
3348.25,0.00045
3342.46,0.00065
3336.67,0.00138
3330.89,0.00136
3325.1,0.00025
3319.31,0.00256
3313.53,0.00118
3307.74,0.00230
3301.96,0.00054
3296.17,0.00126
3290.38,0.00216
3284.6,0.00158
3278.81,0.00307
3273.03,0.00285
3267.24,0.00136
3261.45,0.00143
3255.67,0.00247
3249.88,0.00163
3244.09,0.00185
3238.31,0.00177
3232.52,0.00116
3226.74,0.00052
3220.95,0.00123
3215.16,0.00272
3209.38,0.00091
3203.59,0.00212
3197.81,0.00100
3192.02,0.00119
3186.23,0.00154
3180.45,-0.00003
3174.66,0.00146
3168.87,0.00180
3163.09,0.00103
3157.3,0.00148
3151.52,0.00106
3145.73,0.00200
3139.94,0.00119
3134.16,0.00080
3128.37,0.00085
3122.59,0.00072
3116.8,0.00105
3111.01,0.00122
3105.23,0.00106
3099.44,0.00129
3093.66,0.00072
3087.87,0.00030
3082.08,0.00084
3076.3,0.00113
3070.51,0.00147
3064.72,0.00004
3058.94,0.00097
3053.15,0.00133
3047.37,0.00009
3041.58,0.00134
3035.79,0.00108
3030.01,0.00050
3024.22,0.00102
3018.44,0.00064
3012.65,0.00125
3006.86,0.00048
3001.08,0.00075
2995.29,0.00067
2989.5,0.00043
2983.72,0.00045
2977.93,0.00081
2972.15,0.00153
2966.36,0.00112
2960.57,0.00082
2954.79,0.00033
2949,0.00164
2943.22,0.00052
2937.43,0.00012
2931.64,0.00098
2925.86,0.00079
2920.07,0.00058
2914.28,0.00056
2908.5,0.00074
2902.71,0.00109
2896.93,0.00099
2891.14,0.00085
2885.35,0.00023
2879.57,0.00046
2873.78,0.00052
2868,0.00127
2862.21,0.00085
2856.42,0.00099
2850.64,0.00100
2844.85,0.00117
2839.07,0.00060
2833.28,0.00090
2827.49,0.00097
2821.71,-0.00035
2815.92,0.00118
2810.13,0.00065
2804.35,0.00150
2798.56,0.00089
2792.78,0.00061
2786.99,0.00110
2781.2,0.00022
2775.42,0.00056
2769.63,0.00097
2763.85,0.00088
2758.06,0.00089
2752.27,0.00093
2746.49,0.00048
2740.7,0.00081
2734.91,0.00052
2729.13,0.00011
2723.34,0.00073
2717.56,0.00021
2711.77,0.00129
2705.98,0.00055
2700.2,0.00039
2694.41,0.00060
2688.63,0.00050
2682.84,0.00057
2677.05,0.00090
2671.27,0.00063
2665.48,0.00096
2659.69,0.00111
2653.91,0.00016
2648.12,0.00074
2642.34,0.00066
2636.55,0.00042
2630.76,0.00079
2624.98,0.00035
2619.19,0.00076
2613.41,0.00061
2607.62,0.00083
2601.83,0.00011
2596.05,0.00075
2590.26,0.00050
2584.47,0.00062
2578.69,0.00054
2572.9,0.00060
2567.12,0.00050
2561.33,0.00037
2555.54,0.00058
2549.76,0.00036
2543.97,0.00098
2538.19,0.00062
2532.4,0.00034
2526.61,0.00044
2520.83,0.00034
2515.04,0.00043
2509.26,0.00111
2503.47,0.00052
2497.68,0.00076
2491.9,0.00058
2486.11,0.00046
2480.32,0.00074
2474.54,0.00094
2468.75,0.00047
2462.97,0.00027
2457.18,0.00043
2451.39,0.00059
2445.61,0.00046
2439.82,0.00038
2434.04,0.00019
2428.25,0.00077
2422.46,0.00046
2416.68,0.00091
2410.89,0.00061
2405.1,0.00028
2399.32,0.00036
2393.53,0.00080
2387.75,-0.00007
2381.96,0.00029
2376.17,0.00029
2370.39,0.00103
2364.6,0.00078
2358.82,0.00137
2353.03,0.00094
2347.24,0.00107
2341.46,0.00101
2335.67,0.00132
2329.88,0.00033
2324.1,0.00030
2318.31,0.00109
2312.53,0.00062
2306.74,0.00073
2300.95,0.00064
2295.17,0.00021
2289.38,-0.00015
2283.6,0.00055
2277.81,0.00018
2272.02,0.00073
2266.24,0.00027
2260.45,0.00031
2254.67,0.00022
2248.88,0.00087
2243.09,0.00103
2237.31,0.00055
2231.52,-0.00020
2225.73,0.00073
2219.95,0.00066
2214.16,0.00045
2208.38,0.00045
2202.59,0.00016
2196.8,0.00066
2191.02,0.00044
2185.23,0.00038
2179.45,0.00074
2173.66,0.00055
2167.87,0.00071
2162.09,0.00110
2156.3,0.00057
2150.51,0.00010
2144.73,0.00021
2138.94,0.00121
2133.16,0.00007
2127.37,0.00073
2121.58,0.00024
2115.8,0.00105
2110.01,0.00051
2104.23,0.00043
2098.44,0.00025
2092.65,0.00051
2086.87,0.00051
2081.08,-0.00001
2075.29,0.00035
2069.51,0.00014
2063.72,0.00003
2057.94,0.00086
2052.15,0.00040
2046.36,0.00024
2040.58,0.00079
2034.79,0.00067
2029.01,0.00065
2023.22,0.00028
2017.43,0.00040
2011.65,0.00085
2005.86,0.00067
2000.08,0.00066
1994.29,0.00077
1988.5,0.00024
1982.72,0.00111
1976.93,0.00047
1971.14,0.00050
1965.36,0.00029
1959.57,0.00055
1953.79,0.00082
1948,0.00094
1942.21,0.00034
1936.43,0.00055
1930.64,0.00052
1924.86,0.00063
1919.07,0.00047
1913.28,0.00026
1907.5,0.00079
1901.71,0.00033
1895.92,0.00036
1890.14,0.00064
1884.35,0.00100
1878.57,0.00019
1872.78,0.00037
1866.99,0.00079
1861.21,0.00011
1855.42,0.00066
1849.64,0.00062
1843.85,0.00047
1838.06,0.00063
1832.28,0.00071
1826.49,0.00103
1820.7,0.00039
1814.92,0.00050
1809.13,0.00069
1803.35,0.00030
1797.56,0.00047
1791.77,0.00084
1785.99,0.00066
1780.2,0.00072
1774.42,0.00099
1768.63,0.00026
1762.84,0.00055
1757.06,0.00125
1751.27,0.00042
1745.48,0.00038
1739.7,0.00031
1733.91,0.00116
1728.13,0.00061
1722.34,0.00065
1716.55,0.00084
1710.77,0.00041
1704.98,0.00062
1699.2,0.00121
1693.41,0.00078
1687.62,0.00123
1681.84,0.00139
1676.05,0.00019
1670.27,0.00094
1664.48,0.00050
1658.69,0.00016
1652.91,0.00150
1647.12,0.00151
1641.33,0.00086
1635.55,0.00065
1629.76,0.00080
1623.98,0.00115
1618.19,0.00081
1612.4,0.00001
1606.62,0.00064
1600.83,0.00079
1595.05,0.00046
1589.26,0.00061
1583.47,0.00006
1577.69,0.00106
1571.9,0.00115
1566.11,0.00105
1560.33,0.00126
1554.54,0.00104
1548.76,0.00094
1542.97,0.00088
1537.18,0.00013
1531.4,0.00081
1525.61,0.00054
1519.83,0.00084
1514.04,0.00121
1508.25,0.00280
1502.47,0.00025
1496.68,0.00153
1490.89,0.00030
1485.11,0.00051
1479.32,0.00044
1473.54,0.00095
1467.75,0.00096
1461.96,0.00041
1456.18,0.00043
1450.39,0.00049
1444.61,0.00057
1438.82,0.00064
1433.03,0.00048
1427.25,0.00062
1421.46,0.00078
1415.68,0.00034
1409.89,0.00037
1404.1,0.00100
1398.32,0.00066
1392.53,0.00037
1386.74,0.00121
1380.96,0.00030
1375.17,0.00055
1369.39,0.00028
1363.6,0.00033
1357.81,0.00066
1352.03,0.00025
1346.24,0.00060
1340.46,-0.00002
1334.67,0.00072
1328.88,0.00116
1323.1,0.00002
1317.31,-0.00001
1311.52,0.00102
1305.74,0.00024
1299.95,0.00129
1294.17,0.00047
1288.38,0.00007
1282.59,0.00028
1276.81,0.00067
1271.02,0.00031
1265.24,0.00170
1259.45,0.00037
1253.66,0.00077
1247.88,0.00067
1242.09,0.00034
1236.3,0.00041
1230.52,0.00018
1224.73,0.00094
1218.95,0.00037
1213.16,0.00071
1207.37,0.00092
1201.59,0.00105
1195.8,0.00075
1190.02,0.00050
1184.23,0.00057
1178.44,0.00009
1172.66,0.00107
1166.87,0.00079
1161.09,0.00082
1155.3,0.00035
1149.51,0.00097
1143.73,-0.00003
1137.94,0.00069
1132.15,0.00059
1126.37,0.00074
1120.58,0.00050
1114.8,0.00106
1109.01,0.00122
1103.22,0.00131
1097.44,0.00112
1091.65,0.00144
1085.87,0.00010
1080.08,0.00153
1074.29,0.00023
1068.51,0.00110
1062.72,0.00131
1056.93,0.00082
1051.15,0.00141
1045.36,0.00173
1039.58,0.00186
1033.79,0.00072
1028,0.00140
1022.22,0.00090
1016.43,0.00087
1010.65,0.00074
1004.86,0.00053
999.073,0.00105
993.287,0.00011
987.501,0.00116
981.715,0.00110
975.929,0.00051
970.142,0.00060
964.356,0.00208
958.57,0.00028
952.784,0.00034
946.998,0.00102
941.212,0.00063
935.426,0.00033
929.64,0.00133
923.853,0.00057
918.067,0.00131
912.281,0.00211
906.495,0.00108
900.709,0.00182
894.923,0.00143
889.137,0.00098
883.35,0.00096
877.564,0.00168
871.778,0.00096
865.992,0.00129
860.206,-0.00005
854.42,0.00148
848.634,0.00120
842.847,-0.00012
837.061,0.00198
831.275,0.00200
825.489,0.00158
819.703,0.00060
813.917,0.00125
808.131,0.00122
802.344,0.00081
796.558,0.00232
790.772,0.00210
784.986,0.00202
779.2,-0.00041
773.414,0.00197
767.628,0.00046
761.842,0.00054
756.055,0.00124
750.269,0.00091
744.483,0.00261
738.697,0.00107
732.911,0.00188
727.125,0.00249
721.339,0.00126
715.552,0.00040
709.766,0.00154
703.98,0.00059
698.194,0.00066
692.408,0.00087
686.622,0.00086
680.836,0.00154
675.049,0.00004
669.263,0.00287
663.477,0.00127
657.691,0.00261
651.905,0.00007
646.119,0.00207
640.333,0.00269
634.546,0.00205
628.76,0.00534
622.974,0.00210
617.188,0.00526
611.402,0.00156
605.616,0.00196
599.83,0.00343