File: 01_Data/PEVA/FTIR/IS/PEVA_0.26_IS_T_240809_R1.dpt
7497.2,0.04594
7491.41,0.03277
7485.63,0.03006
7479.84,0.02545
7474.05,0.03102
7468.27,0.04673
7462.48,0.03688
7456.7,0.02061
7450.91,0.03666
7445.12,0.04267
7439.34,0.03928
7433.55,0.03341
7427.76,0.02973
7421.98,0.03324
7416.19,0.02551
7410.4,0.03528
7404.62,0.04227
7398.83,0.03824
7393.05,0.03434
7387.26,0.03269
7381.47,0.03018
7375.69,0.03945
7369.9,0.03023
7364.11,0.02943
7358.33,0.04323
7352.54,0.03013
7346.75,0.03523
7340.97,0.01786
7335.18,0.02679
7329.4,0.03064
7323.61,0.02749
7317.82,0.02116
7312.04,0.03266
7306.25,0.02551
7300.46,0.02558
7294.68,0.02886
7288.89,0.03006
7283.1,0.03657
7277.32,0.02780
7271.53,0.02660
7265.75,0.02914
7259.96,0.02776
7254.17,0.01754
7248.39,0.04353
7242.6,0.03061
7236.81,0.03815
7231.03,0.03418
7225.24,0.04241
7219.45,0.03588
7213.67,0.03578
7207.88,0.02733
7202.1,0.02772
7196.31,0.03062
7190.52,0.03999
7184.74,0.03977
7178.95,0.03333
7173.16,0.03715
7167.38,0.03116
7161.59,0.03169
7155.8,0.02769
7150.02,0.03731
7144.23,0.03627
7138.45,0.03496
7132.66,0.03614
7126.87,0.04136
7121.09,0.03185
7115.3,0.03601
7109.51,0.03576
7103.73,0.03106
7097.94,0.03728
7092.15,0.03548
7086.37,0.03612
7080.58,0.03019
7074.8,0.03112
7069.01,0.03463
7063.22,0.03029
7057.44,0.03264
7051.65,0.04066
7045.86,0.03458
7040.08,0.03210
7034.29,0.03059
7028.5,0.04001
7022.72,0.02968
7016.93,0.02611
7011.15,0.03522
7005.36,0.02458
6999.57,0.02773
6993.79,0.03160
6988,0.03430
6982.21,0.03576
6976.43,0.03163
6970.64,0.02991
6964.85,0.03240
6959.07,0.03634
6953.28,0.03387
6947.5,0.02924
6941.71,0.03177
6935.92,0.02963
6930.14,0.03059
6924.35,0.03613
6918.56,0.02841
6912.78,0.03459
6906.99,0.04243
6901.2,0.04071
6895.42,0.02982
6889.63,0.03756
6883.85,0.03217
6878.06,0.03936
6872.27,0.03404
6866.49,0.03174
6860.7,0.03729
6854.91,0.03888
6849.13,0.03203
6843.34,0.03187
6837.55,0.03828
6831.77,0.03894
6825.98,0.03030
6820.2,0.02905
6814.41,0.03247
6808.62,0.03297
6802.84,0.03274
6797.05,0.03025
6791.26,0.02578
6785.48,0.03400
6779.69,0.03580
6773.9,0.03250
6768.12,0.03129
6762.33,0.03113
6756.55,0.03254
6750.76,0.02803
6744.97,0.02935
6739.19,0.03775
6733.4,0.03267
6727.61,0.03161
6721.83,0.03080
6716.04,0.03385
6710.25,0.03606
6704.47,0.02900
6698.68,0.03386
6692.9,0.02926
6687.11,0.02082
6681.32,0.03810
6675.54,0.03281
6669.75,0.03504
6663.96,0.03168
6658.18,0.03027
6652.39,0.03541
6646.6,0.03246
6640.82,0.02985
6635.03,0.03756
6629.25,0.02865
6623.46,0.03788
6617.67,0.03478
6611.89,0.03041
6606.1,0.02989
6600.31,0.03532
6594.53,0.03525
6588.74,0.04010
6582.95,0.02979
6577.17,0.03623
6571.38,0.03398
6565.6,0.03136
6559.81,0.03674
6554.02,0.03725
6548.24,0.03323
6542.45,0.03174
6536.66,0.03627
6530.88,0.03403
6525.09,0.03330
6519.3,0.03004
6513.52,0.02823
6507.73,0.02994
6501.95,0.02721
6496.16,0.03319
6490.37,0.03569
6484.59,0.03688
6478.8,0.03129
6473.01,0.03554
6467.23,0.03021
6461.44,0.03327
6455.65,0.02641
6449.87,0.03115
6444.08,0.02553
6438.3,0.02809
6432.51,0.02915
6426.72,0.02878
6420.94,0.03072
6415.15,0.03142
6409.36,0.03109
6403.58,0.02882
6397.79,0.02493
6392,0.02999
6386.22,0.03482
6380.43,0.03566
6374.65,0.03277
6368.86,0.03244
6363.07,0.03479
6357.29,0.03376
6351.5,0.02989
6345.71,0.02946
6339.93,0.03275
6334.14,0.03264
6328.35,0.02941
6322.57,0.03556
6316.78,0.03103
6310.99,0.03311
6305.21,0.03262
6299.42,0.02990
6293.64,0.02983
6287.85,0.02557
6282.06,0.03183
6276.28,0.03444
6270.49,0.03105
6264.7,0.03265
6258.92,0.02616
6253.13,0.02668
6247.34,0.02904
6241.56,0.03566
6235.77,0.03189
6229.99,0.03209
6224.2,0.03509
6218.41,0.02999
6212.63,0.03016
6206.84,0.02892
6201.05,0.03263
6195.27,0.03181
6189.48,0.03032
6183.69,0.02885
6177.91,0.03389
6172.12,0.02895
6166.34,0.03215
6160.55,0.03170
6154.76,0.03189
6148.98,0.03219
6143.19,0.02952
6137.4,0.02948
6131.62,0.03111
6125.83,0.03241
6120.04,0.03004
6114.26,0.03518
6108.47,0.03705
6102.69,0.03316
6096.9,0.03223
6091.11,0.03162
6085.33,0.02999
6079.54,0.03236
6073.75,0.03210
6067.97,0.03264
6062.18,0.02679
6056.39,0.03149
6050.61,0.03585
6044.82,0.03080
6039.04,0.03070
6033.25,0.03128
6027.46,0.02862
6021.68,0.02750
6015.89,0.02657
6010.1,0.02704
6004.32,0.03047
5998.53,0.03109
5992.74,0.02711
5986.96,0.02842
5981.17,0.02800
5975.39,0.02673
5969.6,0.03111
5963.81,0.02971
5958.03,0.03024
5952.24,0.02778
5946.45,0.03031
5940.67,0.03089
5934.88,0.02664
5929.09,0.03144
5923.31,0.03041
5917.52,0.02879
5911.74,0.02947
5905.95,0.03101
5900.16,0.03108
5894.38,0.03008
5888.59,0.03105
5882.8,0.03100
5877.02,0.02958
5871.23,0.03082
5865.44,0.02969
5859.66,0.02995
5853.87,0.02982
5848.09,0.03135
5842.3,0.02869
5836.51,0.03314
5830.73,0.03229
5824.94,0.03099
5819.15,0.02971
5813.37,0.02900
5807.58,0.03204
5801.79,0.03026
5796.01,0.02987
5790.22,0.02974
5784.44,0.02613
5778.65,0.02750
5772.86,0.02859
5767.08,0.02945
5761.29,0.03089
5755.5,0.03127
5749.72,0.02910
5743.93,0.03058
5738.14,0.02912
5732.36,0.02926
5726.57,0.03313
5720.79,0.03234
5715,0.03059
5709.21,0.02991
5703.43,0.03162
5697.64,0.03164
5691.85,0.03028
5686.07,0.02698
5680.28,0.03196
5674.49,0.03330
5668.71,0.03087
5662.92,0.03160
5657.14,0.03290
5651.35,0.03260
5645.56,0.03101
5639.78,0.03058
5633.99,0.02981
5628.2,0.02921
5622.42,0.03012
5616.63,0.03236
5610.84,0.02966
5605.06,0.03167
5599.27,0.03067
5593.49,0.02928
5587.7,0.03203
5581.91,0.03192
5576.13,0.02817
5570.34,0.02988
5564.55,0.03096
5558.77,0.03247
5552.98,0.02927
5547.19,0.03046
5541.41,0.02963
5535.62,0.03027
5529.84,0.02988
5524.05,0.03045
5518.26,0.03189
5512.48,0.03085
5506.69,0.02945
5500.9,0.02973
5495.12,0.03236
5489.33,0.03210
5483.54,0.03036
5477.76,0.02926
5471.97,0.03025
5466.19,0.02980
5460.4,0.03042
5454.61,0.03278
5448.83,0.03246
5443.04,0.03042
5437.25,0.03105
5431.47,0.03026
5425.68,0.03176
5419.89,0.03089
5414.11,0.03115
5408.32,0.03036
5402.54,0.03024
5396.75,0.03081
5390.96,0.03110
5385.18,0.03083
5379.39,0.03153
5373.6,0.03154
5367.82,0.03130
5362.03,0.03156
5356.24,0.03155
5350.46,0.02859
5344.67,0.03007
5338.89,0.03087
5333.1,0.03066
5327.31,0.03090
5321.53,0.02999
5315.74,0.02933
5309.95,0.02984
5304.17,0.03124
5298.38,0.03017
5292.59,0.02941
5286.81,0.03057
5281.02,0.03101
5275.24,0.03069
5269.45,0.03002
5263.66,0.03113
5257.88,0.03175
5252.09,0.03181
5246.3,0.03124
5240.52,0.03337
5234.73,0.03147
5228.94,0.02873
5223.16,0.02970
5217.37,0.03199
5211.59,0.03003
5205.8,0.02933
5200.01,0.03081
5194.23,0.03104
5188.44,0.03102
5182.65,0.02977
5176.87,0.03097
5171.08,0.03102
5165.29,0.02989
5159.51,0.03047
5153.72,0.03061
5147.94,0.03099
5142.15,0.03104
5136.36,0.02965
5130.58,0.03033
5124.79,0.03064
5119,0.03128
5113.22,0.03068
5107.43,0.02989
5101.64,0.02871
5095.86,0.02961
5090.07,0.02991
5084.29,0.03270
5078.5,0.03106
5072.71,0.02966
5066.93,0.03020
5061.14,0.03194
5055.35,0.03009
5049.57,0.03055
5043.78,0.02920
5037.99,0.03032
5032.21,0.03137
5026.42,0.02912
5020.64,0.03117
5014.85,0.02970
5009.06,0.03050
5003.28,0.03173
4997.49,0.03079
4991.7,0.03123
4985.92,0.03104
4980.13,0.02986
4974.34,0.03089
4968.56,0.03101
4962.77,0.02967
4956.99,0.03182
4951.2,0.03054
4945.41,0.03142
4939.63,0.03106
4933.84,0.03050
4928.05,0.03085
4922.27,0.03008
4916.48,0.03049
4910.69,0.03073
4904.91,0.03190
4899.12,0.03022
4893.34,0.03025
4887.55,0.03097
4881.76,0.03184
4875.98,0.03086
4870.19,0.03085
4864.4,0.03073
4858.62,0.03035
4852.83,0.03040
4847.04,0.03087
4841.26,0.03052
4835.47,0.03049
4829.69,0.03252
4823.9,0.03101
4818.11,0.03072
4812.33,0.03239
4806.54,0.03162
4800.75,0.03140
4794.97,0.03123
4789.18,0.03020
4783.39,0.03109
4777.61,0.03042
4771.82,0.03002
4766.04,0.02985
4760.25,0.02966
4754.46,0.03074
4748.68,0.03106
4742.89,0.03168
4737.1,0.03105
4731.32,0.03007
4725.53,0.03055
4719.74,0.03118
4713.96,0.03073
4708.17,0.03091
4702.39,0.03067
4696.6,0.03252
4690.81,0.03131
4685.03,0.03089
4679.24,0.03002
4673.45,0.03114
4667.67,0.03115
4661.88,0.03136
4656.09,0.03200
4650.31,0.03090
4644.52,0.03108
4638.74,0.03089
4632.95,0.03043
4627.16,0.03059
4621.38,0.03070
4615.59,0.03081
4609.8,0.03002
4604.02,0.02997
4598.23,0.03118
4592.44,0.02967
4586.66,0.03049
4580.87,0.03193
4575.09,0.03078
4569.3,0.03043
4563.51,0.03126
4557.73,0.02978
4551.94,0.03017
4546.15,0.03114
4540.37,0.03119
4534.58,0.03168
4528.79,0.03029
4523.01,0.03112
4517.22,0.03144
4511.44,0.03054
4505.65,0.03066
4499.86,0.03155
4494.08,0.02957
4488.29,0.03033
4482.5,0.03111
4476.72,0.03064
4470.93,0.03090
4465.14,0.03096
4459.36,0.03044
4453.57,0.02982
4447.79,0.03092
4442,0.03110
4436.21,0.03061
4430.43,0.03026
4424.64,0.03075
4418.85,0.03076
4413.07,0.03085
4407.28,0.02998
4401.49,0.03039
4395.71,0.03084
4389.92,0.03086
4384.14,0.03028
4378.35,0.03054
4372.56,0.03104
4366.78,0.03048
4360.99,0.03028
4355.2,0.03034
4349.42,0.03058
4343.63,0.03012
4337.84,0.03129
4332.06,0.02998
4326.27,0.03035
4320.49,0.03036
4314.7,0.03148
4308.91,0.03146
4303.13,0.03077
4297.34,0.03001
4291.55,0.03013
4285.77,0.03094
4279.98,0.03114
4274.19,0.03017
4268.41,0.03038
4262.62,0.03060
4256.84,0.03022
4251.05,0.02993
4245.26,0.03089
4239.48,0.03074
4233.69,0.03054
4227.9,0.03023
4222.12,0.03011
4216.33,0.02959
4210.54,0.03075
4204.76,0.03114
4198.97,0.03015
4193.19,0.03127
4187.4,0.03067
4181.61,0.03094
4175.83,0.03050
4170.04,0.03037
4164.25,0.03057
4158.47,0.03116
4152.68,0.03069
4146.89,0.02978
4141.11,0.03060
4135.32,0.02939
4129.54,0.03043
4123.75,0.03066
4117.96,0.03071
4112.18,0.03046
4106.39,0.03040
4100.6,0.03015
4094.82,0.03114
4089.03,0.02993
4083.24,0.03081
4077.46,0.03119
4071.67,0.03066
4065.89,0.03062
4060.1,0.03083
4054.31,0.03033
4048.53,0.03095
4042.74,0.03115
4036.95,0.03012
4031.17,0.03116
4025.38,0.03039
4019.59,0.03043
4013.81,0.03055
4008.02,0.03112
4002.24,0.03068
3996.45,0.03079
3990.66,0.03070
3984.88,0.02993
3979.09,0.03061
3973.3,0.03095
3967.52,0.03027
3961.73,0.03016
3955.94,0.03034
3950.16,0.03053
3944.37,0.03066
3938.59,0.02976
3932.8,0.03075
3927.01,0.03106
3921.23,0.02965
3915.44,0.02987
3909.65,0.03037
3903.87,0.03083
3898.08,0.02997
3892.29,0.03019
3886.51,0.03065
3880.72,0.02994
3874.94,0.03064
3869.15,0.03075
3863.36,0.03087
3857.58,0.03053
3851.79,0.02922
3846,0.03119
3840.22,0.03098
3834.43,0.03061
3828.64,0.03126
3822.86,0.03062
3817.07,0.03032
3811.29,0.03052
3805.5,0.03046
3799.71,0.02979
3793.93,0.03018
3788.14,0.03018
3782.35,0.03087
3776.57,0.03035
3770.78,0.03052
3764.99,0.02989
3759.21,0.03050
3753.42,0.03076
3747.64,0.03111
3741.85,0.02989
3736.06,0.03080
3730.28,0.02998
3724.49,0.02923
3718.7,0.03074
3712.92,0.03025
3707.13,0.02993
3701.34,0.03031
3695.56,0.02980
3689.77,0.02993
3683.99,0.02993
3678.2,0.03049
3672.41,0.03121
3666.63,0.02921
3660.84,0.02927
3655.05,0.02901
3649.27,0.02968
3643.48,0.02907
3637.69,0.02873
3631.91,0.02902
3626.12,0.02821
3620.34,0.02826
3614.55,0.02962
3608.76,0.02923
3602.98,0.02839
3597.19,0.02861
3591.4,0.02806
3585.62,0.02759
3579.83,0.02730
3574.04,0.02739
3568.26,0.02796
3562.47,0.02791
3556.69,0.02832
3550.9,0.02740
3545.11,0.02791
3539.33,0.02777
3533.54,0.02790
3527.75,0.02723
3521.97,0.02636
3516.18,0.02777
3510.39,0.02657
3504.61,0.02750
3498.82,0.02723
3493.04,0.02736
3487.25,0.02672
3481.46,0.02659
3475.68,0.02683
3469.89,0.02737
3464.1,0.02709
3458.32,0.02629
3452.53,0.02739
3446.74,0.02651
3440.96,0.02653
3435.17,0.02603
3429.39,0.02653
3423.6,0.02676
3417.81,0.02693
3412.03,0.02654
3406.24,0.02680
3400.45,0.02618
3394.67,0.02663
3388.88,0.02652
3383.09,0.02691
3377.31,0.02695
3371.52,0.02639
3365.74,0.02666
3359.95,0.02613
3354.16,0.02690
3348.38,0.02657
3342.59,0.02623
3336.8,0.02681
3331.02,0.02691
3325.23,0.02698
3319.44,0.02615
3313.66,0.02604
3307.87,0.02639
3302.09,0.02651
3296.3,0.02665
3290.51,0.02723
3284.73,0.02699
3278.94,0.02686
3273.15,0.02656
3267.37,0.02715
3261.58,0.02663
3255.79,0.02716
3250.01,0.02646
3244.22,0.02733
3238.44,0.02741
3232.65,0.02737
3226.86,0.02707
3221.08,0.02688
3215.29,0.02755
3209.5,0.02718
3203.72,0.02713
3197.93,0.02718
3192.14,0.02648
3186.36,0.02671
3180.57,0.02660
3174.79,0.02749
3169,0.02750
3163.21,0.02688
3157.43,0.02808
3151.64,0.02704
3145.85,0.02691
3140.07,0.02673
3134.28,0.02762
3128.49,0.02755
3122.71,0.02776
3116.92,0.02749
3111.14,0.02774
3105.35,0.02753
3099.56,0.02688
3093.78,0.02739
3087.99,0.02754
3082.2,0.02734
3076.42,0.02759
3070.63,0.02738
3064.84,0.02588
3059.06,0.02746
3053.27,0.02742
3047.49,0.02715
3041.7,0.02792
3035.91,0.02726
3030.13,0.02693
3024.34,0.02738
3018.55,0.02705
3012.77,0.02712
3006.98,0.02719
3001.19,0.02739
2995.41,0.02733
2989.62,0.02677
2983.84,0.02662
2978.05,0.02632
2972.26,0.02606
2966.48,0.02625
2960.69,0.02614
2954.9,0.02618
2949.12,0.02590
2943.33,0.02590
2937.54,0.02603
2931.76,0.02564
2925.97,0.02627
2920.19,0.02655
2914.4,0.02643
2908.61,0.02662
2902.83,0.02704
2897.04,0.02692
2891.25,0.02683
2885.47,0.02713
2879.68,0.02683
2873.89,0.02662
2868.11,0.02685
2862.32,0.02678
2856.54,0.02690
2850.75,0.02745
2844.96,0.02684
2839.18,0.02760
2833.39,0.02740
2827.6,0.02761
2821.82,0.02798
2816.03,0.02798
2810.24,0.02792
2804.46,0.02760
2798.67,0.02798
2792.89,0.02765
2787.1,0.02752
2781.31,0.02806
2775.53,0.02785
2769.74,0.02765
2763.95,0.02786
2758.17,0.02753
2752.38,0.02764
2746.59,0.02801
2740.81,0.02769
2735.02,0.02731
2729.24,0.02785
2723.45,0.02776
2717.66,0.02749
2711.88,0.02766
2706.09,0.02755
2700.3,0.02763
2694.52,0.02740
2688.73,0.02753
2682.94,0.02761
2677.16,0.02767
2671.37,0.02767
2665.59,0.02752
2659.8,0.02785
2654.01,0.02760
2648.23,0.02813
2642.44,0.02741
2636.65,0.02757
2630.87,0.02764
2625.08,0.02792
2619.29,0.02764
2613.51,0.02769
2607.72,0.02739
2601.94,0.02751
2596.15,0.02749
2590.36,0.02770
2584.58,0.02770
2578.79,0.02786
2573,0.02751
2567.22,0.02739
2561.43,0.02761
2555.64,0.02741
2549.86,0.02713
2544.07,0.02736
2538.29,0.02733
2532.5,0.02731
2526.71,0.02734
2520.93,0.02745
2515.14,0.02747
2509.35,0.02719
2503.57,0.02728
2497.78,0.02737
2491.99,0.02744
2486.21,0.02747
2480.42,0.02741
2474.64,0.02718
2468.85,0.02731
2463.06,0.02735
2457.28,0.02736
2451.49,0.02717
2445.7,0.02723
2439.92,0.02735
2434.13,0.02742
2428.34,0.02710
2422.56,0.02737
2416.77,0.02746
2410.99,0.02760
2405.2,0.02699
2399.41,0.02729
2393.63,0.02698
2387.84,0.02704
2382.05,0.02718
2376.27,0.02746
2370.48,0.02777
2364.69,0.02724
2358.91,0.02699
2353.12,0.02780
2347.34,0.02753
2341.55,0.02774
2335.76,0.02698
2329.98,0.02719
2324.19,0.02747
2318.4,0.02716
2312.62,0.02745
2306.83,0.02684
2301.04,0.02690
2295.26,0.02706
2289.47,0.02696
2283.69,0.02721
2277.9,0.02696
2272.11,0.02665
2266.33,0.02685
2260.54,0.02682
2254.75,0.02662
2248.97,0.02682
2243.18,0.02713
2237.39,0.02704
2231.61,0.02702
2225.82,0.02688
2220.04,0.02709
2214.25,0.02677
2208.46,0.02666
2202.68,0.02671
2196.89,0.02669
2191.1,0.02659
2185.32,0.02633
2179.53,0.02649
2173.74,0.02661
2167.96,0.02653
2162.17,0.02669
2156.39,0.02657
2150.6,0.02681
2144.81,0.02667
2139.03,0.02656
2133.24,0.02669
2127.45,0.02655
2121.67,0.02642
2115.88,0.02644
2110.09,0.02612
2104.31,0.02649
2098.52,0.02630
2092.74,0.02659
2086.95,0.02608
2081.16,0.02617
2075.38,0.02662
2069.59,0.02653
2063.8,0.02641
2058.02,0.02665
2052.23,0.02643
2046.44,0.02650
2040.66,0.02606
2034.87,0.02657
2029.09,0.02624
2023.3,0.02651
2017.51,0.02658
2011.73,0.02585
2005.94,0.02588
2000.15,0.02634
1994.37,0.02584
1988.58,0.02603
1982.79,0.02583
1977.01,0.02588
1971.22,0.02609
1965.44,0.02607
1959.65,0.02625
1953.86,0.02616
1948.08,0.02605
1942.29,0.02591
1936.5,0.02608
1930.72,0.02570
1924.93,0.02577
1919.14,0.02542
1913.36,0.02570
1907.57,0.02626
1901.79,0.02587
1896,0.02533
1890.21,0.02531
1884.43,0.02551
1878.64,0.02557
1872.85,0.02554
1867.07,0.02514
1861.28,0.02535
1855.49,0.02520
1849.71,0.02512
1843.92,0.02494
1838.14,0.02503
1832.35,0.02516
1826.56,0.02530
1820.78,0.02506
1814.99,0.02450
1809.2,0.02425
1803.42,0.02493
1797.63,0.02433
1791.84,0.02423
1786.06,0.02393
1780.27,0.02363
1774.49,0.02361
1768.7,0.02314
1762.91,0.02273
1757.13,0.02165
1751.34,0.02220
1745.55,0.02184
1739.77,0.02284
1733.98,0.02373
1728.19,0.02427
1722.41,0.02533
1716.62,0.02530
1710.84,0.02468
1705.05,0.02436
1699.26,0.02305
1693.48,0.02287
1687.69,0.02331
1681.9,0.02291
1676.12,0.02285
1670.33,0.02253
1664.54,0.02243
1658.76,0.02219
1652.97,0.02274
1647.19,0.02153
1641.4,0.02279
1635.61,0.02241
1629.83,0.02274
1624.04,0.02220
1618.25,0.02297
1612.47,0.02255
1606.68,0.02248
1600.89,0.02285
1595.11,0.02285
1589.32,0.02280
1583.54,0.02249
1577.75,0.02271
1571.96,0.02215
1566.18,0.02180
1560.39,0.02230
1554.6,0.02170
1548.82,0.02230
1543.03,0.02225
1537.24,0.02270
1531.46,0.02263
1525.67,0.02229
1519.89,0.02287
1514.1,0.02242
1508.31,0.02241
1502.53,0.02274
1496.74,0.02290
1490.95,0.02259
1485.17,0.02249
1479.38,0.02223
1473.59,0.02200
1467.81,0.02225
1462.02,0.02187
1456.24,0.02245
1450.45,0.02210
1444.66,0.02246
1438.88,0.02239
1433.09,0.02210
1427.3,0.02168
1421.52,0.02112
1415.73,0.02139
1409.94,0.02150
1404.16,0.02077
1398.37,0.02156
1392.59,0.02136
1386.8,0.02094
1381.01,0.02123
1375.23,0.02147
1369.44,0.02100
1363.65,0.02126
1357.87,0.02127
1352.08,0.02099
1346.29,0.02060
1340.51,0.02087
1334.72,0.02090
1328.94,0.02039
1323.15,0.02023
1317.36,0.01998
1311.58,0.02021
1305.79,0.01989
1300,0.02028
1294.22,0.02073
1288.43,0.02143
1282.64,0.02145
1276.86,0.02242
1271.07,0.02194
1265.29,0.02272
1259.5,0.02321
1253.71,0.02315
1247.93,0.02321
1242.14,0.02310
1236.35,0.02288
1230.57,0.02250
1224.78,0.02251
1218.99,0.02186
1213.21,0.02213
1207.42,0.02198
1201.64,0.02220
1195.85,0.02190
1190.06,0.02125
1184.28,0.02139
1178.49,0.02108
1172.7,0.02070
1166.92,0.02077
1161.13,0.02106
1155.34,0.02022
1149.56,0.02065
1143.77,0.02092
1137.99,0.02073
1132.2,0.02099
1126.41,0.02123
1120.63,0.02197
1114.84,0.02307
1109.05,0.02243
1103.27,0.02262
1097.48,0.02267
1091.69,0.02258
1085.91,0.02235
1080.12,0.02314
1074.34,0.02344
1068.55,0.02505
1062.76,0.02477
1056.98,0.02396
1051.19,0.02372
1045.4,0.02345
1039.62,0.02370
1033.83,0.02292
1028.04,0.02424
1022.26,0.02336
1016.47,0.02333
1010.69,0.02443
1004.9,0.02498
999.112,0.02466
993.326,0.02482
987.54,0.02509
981.753,0.02441
975.967,0.02388
970.18,0.02369
964.394,0.02411
958.608,0.02357
952.821,0.02301
947.035,0.02337
941.249,0.02354
935.462,0.02313
929.676,0.02302
923.89,0.02321
918.103,0.02283
912.317,0.02262
906.53,0.02240
900.744,0.02290
894.958,0.02240
889.171,0.02242
883.385,0.02273
877.599,0.02282
871.812,0.02209
866.026,0.02222
860.24,0.02245
854.453,0.02231
848.667,0.02262
842.88,0.02220
837.094,0.02247
831.308,0.02206
825.521,0.02220
819.735,0.02052
813.949,0.02208
808.162,0.02190
802.376,0.02190
796.59,0.02126
790.803,0.02040
785.017,0.02030
779.23,0.02112
773.444,0.02066
767.658,0.02054
761.871,0.02023
756.085,0.02074
750.299,0.02037
744.512,0.02051
738.726,0.02080
732.94,0.01952
727.153,0.01986
721.367,0.01984
715.58,0.01987
709.794,0.01981
704.008,0.01948
698.221,0.01928
692.435,0.02009
686.649,0.01895
680.862,0.01941
675.076,0.01893
669.29,0.01912
663.503,0.01896
657.717,0.01893
651.93,0.01745
646.144,0.01912
640.358,0.01989
634.571,0.01930
628.785,0.02069
622.999,0.01927
617.212,0.01974
611.426,0.01905
605.639,0.01976
599.853,0.02139