File: 01_Data/PEVA/FTIR/IS/PEVA_0.18_IS_T_240809_R7.dpt
7497.33,0.04111
7491.55,0.03670
7485.76,0.03626
7479.97,0.04635
7474.19,0.02714
7468.4,0.02598
7462.61,0.03528
7456.83,0.01728
7451.04,0.03288
7445.26,0.04326
7439.47,0.02999
7433.68,0.03321
7427.9,0.02990
7422.11,0.02467
7416.32,0.03984
7410.54,0.02692
7404.75,0.03992
7398.96,0.02821
7393.18,0.03981
7387.39,0.03881
7381.6,0.03068
7375.82,0.02537
7370.03,0.03852
7364.24,0.04347
7358.46,0.03214
7352.67,0.02653
7346.89,0.02652
7341.1,0.04117
7335.31,0.03622
7329.53,0.04268
7323.74,0.03180
7317.95,0.03915
7312.17,0.04405
7306.38,0.02488
7300.59,0.03799
7294.81,0.03257
7289.02,0.03646
7283.23,0.02993
7277.45,0.02684
7271.66,0.02854
7265.87,0.04078
7260.09,0.03975
7254.3,0.04648
7248.52,0.04553
7242.73,0.03420
7236.94,0.03307
7231.16,0.03550
7225.37,0.03525
7219.58,0.02976
7213.8,0.03084
7208.01,0.03356
7202.22,0.03218
7196.44,0.02673
7190.65,0.03110
7184.86,0.03986
7179.08,0.03711
7173.29,0.03959
7167.5,0.02845
7161.72,0.02779
7155.93,0.04854
7150.15,0.03968
7144.36,0.02459
7138.57,0.03093
7132.79,0.04139
7127,0.03534
7121.21,0.03102
7115.43,0.04293
7109.64,0.03241
7103.85,0.03213
7098.07,0.02971
7092.28,0.02943
7086.49,0.02509
7080.71,0.03519
7074.92,0.03235
7069.13,0.02815
7063.35,0.03895
7057.56,0.02716
7051.78,0.02786
7045.99,0.03692
7040.2,0.03211
7034.42,0.03293
7028.63,0.03286
7022.84,0.03962
7017.06,0.03246
7011.27,0.03394
7005.48,0.03327
6999.7,0.03820
6993.91,0.02601
6988.12,0.03208
6982.34,0.03610
6976.55,0.02367
6970.76,0.03426
6964.98,0.03056
6959.19,0.03468
6953.41,0.03638
6947.62,0.02829
6941.83,0.03054
6936.05,0.02641
6930.26,0.03199
6924.47,0.03545
6918.69,0.03552
6912.9,0.04132
6907.11,0.03623
6901.33,0.03299
6895.54,0.02932
6889.75,0.03400
6883.97,0.03367
6878.18,0.03273
6872.39,0.02608
6866.61,0.03690
6860.82,0.02954
6855.04,0.03203
6849.25,0.03727
6843.46,0.03072
6837.68,0.02997
6831.89,0.03488
6826.1,0.02922
6820.32,0.03017
6814.53,0.03354
6808.74,0.03101
6802.96,0.03124
6797.17,0.02158
6791.38,0.03181
6785.6,0.02739
6779.81,0.03117
6774.03,0.03599
6768.24,0.03186
6762.45,0.02826
6756.67,0.03443
6750.88,0.03132
6745.09,0.03297
6739.31,0.02941
6733.52,0.03721
6727.73,0.02617
6721.95,0.02823
6716.16,0.03578
6710.37,0.03557
6704.59,0.03794
6698.8,0.03148
6693.01,0.03822
6687.23,0.03226
6681.44,0.03299
6675.66,0.02672
6669.87,0.03307
6664.08,0.03134
6658.3,0.04573
6652.51,0.02985
6646.72,0.03387
6640.94,0.03181
6635.15,0.03006
6629.36,0.03563
6623.58,0.02886
6617.79,0.02872
6612,0.03278
6606.22,0.03132
6600.43,0.03260
6594.64,0.02991
6588.86,0.03123
6583.07,0.03594
6577.29,0.03137
6571.5,0.02799
6565.71,0.03770
6559.93,0.03340
6554.14,0.02879
6548.35,0.03395
6542.57,0.03545
6536.78,0.03236
6530.99,0.03173
6525.21,0.03072
6519.42,0.03469
6513.63,0.02980
6507.85,0.02531
6502.06,0.03324
6496.27,0.03393
6490.49,0.03050
6484.7,0.03210
6478.92,0.03569
6473.13,0.02913
6467.34,0.02830
6461.56,0.03575
6455.77,0.03029
6449.98,0.03353
6444.2,0.03060
6438.41,0.03059
6432.62,0.03195
6426.84,0.03173
6421.05,0.03202
6415.26,0.03207
6409.48,0.02727
6403.69,0.02880
6397.9,0.02801
6392.12,0.02805
6386.33,0.03028
6380.55,0.03019
6374.76,0.03019
6368.97,0.03130
6363.19,0.03103
6357.4,0.02789
6351.61,0.03219
6345.83,0.03593
6340.04,0.03563
6334.25,0.02795
6328.47,0.02667
6322.68,0.03452
6316.89,0.03403
6311.11,0.03317
6305.32,0.03272
6299.53,0.03057
6293.75,0.03147
6287.96,0.03097
6282.18,0.03374
6276.39,0.03063
6270.6,0.03207
6264.82,0.03008
6259.03,0.03284
6253.24,0.03463
6247.46,0.02926
6241.67,0.03004
6235.88,0.02753
6230.1,0.03030
6224.31,0.03488
6218.52,0.02834
6212.74,0.02929
6206.95,0.02650
6201.16,0.03072
6195.38,0.03176
6189.59,0.03227
6183.81,0.02800
6178.02,0.03337
6172.23,0.03382
6166.45,0.03292
6160.66,0.03280
6154.87,0.03045
6149.09,0.03100
6143.3,0.02862
6137.51,0.02901
6131.73,0.03640
6125.94,0.02715
6120.15,0.03031
6114.37,0.02442
6108.58,0.03276
6102.79,0.02906
6097.01,0.02889
6091.22,0.03150
6085.44,0.02776
6079.65,0.03277
6073.86,0.02965
6068.08,0.02988
6062.29,0.03514
6056.5,0.03018
6050.72,0.02735
6044.93,0.02851
6039.14,0.03026
6033.36,0.02920
6027.57,0.03391
6021.78,0.02921
6016,0.03114
6010.21,0.03179
6004.42,0.03028
5998.64,0.02926
5992.85,0.03202
5987.07,0.03470
5981.28,0.03208
5975.49,0.02940
5969.71,0.02967
5963.92,0.03243
5958.13,0.02733
5952.35,0.02882
5946.56,0.03083
5940.77,0.02936
5934.99,0.02908
5929.2,0.03003
5923.41,0.03149
5917.63,0.02835
5911.84,0.02988
5906.05,0.02950
5900.27,0.02781
5894.48,0.03205
5888.7,0.03416
5882.91,0.03124
5877.12,0.03207
5871.34,0.02942
5865.55,0.02817
5859.76,0.02900
5853.98,0.03136
5848.19,0.02849
5842.4,0.03107
5836.62,0.03157
5830.83,0.03399
5825.04,0.02969
5819.26,0.02878
5813.47,0.03070
5807.68,0.02967
5801.9,0.03083
5796.11,0.03026
5790.33,0.03070
5784.54,0.03027
5778.75,0.03011
5772.97,0.03340
5767.18,0.03094
5761.39,0.03021
5755.61,0.02757
5749.82,0.02910
5744.03,0.03086
5738.25,0.03067
5732.46,0.03099
5726.67,0.03062
5720.89,0.03146
5715.1,0.02995
5709.31,0.03172
5703.53,0.02802
5697.74,0.02901
5691.96,0.03381
5686.17,0.03001
5680.38,0.02890
5674.6,0.02924
5668.81,0.03110
5663.02,0.03116
5657.24,0.03019
5651.45,0.02868
5645.66,0.03088
5639.88,0.02938
5634.09,0.02874
5628.3,0.02952
5622.52,0.03220
5616.73,0.02989
5610.94,0.02900
5605.16,0.02924
5599.37,0.03067
5593.59,0.03082
5587.8,0.03071
5582.01,0.03110
5576.23,0.03006
5570.44,0.02943
5564.65,0.03073
5558.87,0.03036
5553.08,0.03050
5547.29,0.02956
5541.51,0.03043
5535.72,0.02987
5529.93,0.02856
5524.15,0.03105
5518.36,0.03080
5512.58,0.03016
5506.79,0.03100
5501,0.02931
5495.22,0.03139
5489.43,0.02899
5483.64,0.03052
5477.86,0.03127
5472.07,0.03006
5466.28,0.02902
5460.5,0.02963
5454.71,0.03050
5448.92,0.03161
5443.14,0.02990
5437.35,0.02954
5431.56,0.02857
5425.78,0.03166
5419.99,0.03027
5414.21,0.03042
5408.42,0.02826
5402.63,0.03023
5396.85,0.03070
5391.06,0.03210
5385.27,0.03084
5379.49,0.03303
5373.7,0.03279
5367.91,0.03159
5362.13,0.02880
5356.34,0.02940
5350.55,0.03149
5344.77,0.03171
5338.98,0.03154
5333.19,0.03024
5327.41,0.02877
5321.62,0.03122
5315.84,0.03059
5310.05,0.02935
5304.26,0.03144
5298.48,0.02979
5292.69,0.03029
5286.9,0.03092
5281.12,0.03026
5275.33,0.03099
5269.54,0.02959
5263.76,0.03019
5257.97,0.02864
5252.18,0.02907
5246.4,0.03087
5240.61,0.02959
5234.82,0.03006
5229.04,0.03140
5223.25,0.03111
5217.47,0.03009
5211.68,0.03175
5205.89,0.03100
5200.11,0.02950
5194.32,0.02963
5188.53,0.02984
5182.75,0.03011
5176.96,0.02941
5171.17,0.03132
5165.39,0.02916
5159.6,0.02987
5153.81,0.02898
5148.03,0.02925
5142.24,0.03209
5136.45,0.03038
5130.67,0.02971
5124.88,0.02960
5119.1,0.03019
5113.31,0.03048
5107.52,0.03142
5101.74,0.03027
5095.95,0.02955
5090.16,0.02930
5084.38,0.03050
5078.59,0.02991
5072.8,0.02969
5067.02,0.02886
5061.23,0.03000
5055.44,0.03002
5049.66,0.02902
5043.87,0.03008
5038.08,0.02911
5032.3,0.03004
5026.51,0.03107
5020.73,0.03066
5014.94,0.03031
5009.15,0.03076
5003.37,0.03155
4997.58,0.03085
4991.79,0.03007
4986.01,0.02958
4980.22,0.02967
4974.43,0.03015
4968.65,0.02947
4962.86,0.02960
4957.07,0.02924
4951.29,0.03040
4945.5,0.02906
4939.71,0.03015
4933.93,0.02992
4928.14,0.02853
4922.36,0.02939
4916.57,0.02987
4910.78,0.03020
4905,0.02944
4899.21,0.02990
4893.42,0.03058
4887.64,0.02916
4881.85,0.02956
4876.06,0.03037
4870.28,0.03022
4864.49,0.03027
4858.7,0.03041
4852.92,0.03051
4847.13,0.03044
4841.34,0.02961
4835.56,0.02954
4829.77,0.03000
4823.99,0.03092
4818.2,0.03096
4812.41,0.02919
4806.63,0.03034
4800.84,0.03067
4795.05,0.03070
4789.27,0.03066
4783.48,0.03081
4777.69,0.03048
4771.91,0.02974
4766.12,0.02929
4760.33,0.02929
4754.55,0.02905
4748.76,0.02998
4742.97,0.03029
4737.19,0.03055
4731.4,0.03024
4725.62,0.03046
4719.83,0.03037
4714.04,0.03147
4708.26,0.03038
4702.47,0.03102
4696.68,0.03113
4690.9,0.02987
4685.11,0.02985
4679.32,0.03103
4673.54,0.02946
4667.75,0.03035
4661.96,0.02951
4656.18,0.02981
4650.39,0.02987
4644.6,0.03011
4638.82,0.02971
4633.03,0.02962
4627.25,0.02947
4621.46,0.03025
4615.67,0.02960
4609.89,0.02965
4604.1,0.02950
4598.31,0.03051
4592.53,0.02966
4586.74,0.03002
4580.95,0.02992
4575.17,0.02963
4569.38,0.02950
4563.59,0.03040
4557.81,0.02950
4552.02,0.03036
4546.23,0.02963
4540.45,0.02951
4534.66,0.02860
4528.88,0.03035
4523.09,0.03045
4517.3,0.02964
4511.52,0.02952
4505.73,0.02855
4499.94,0.02994
4494.16,0.03051
4488.37,0.03057
4482.58,0.03065
4476.8,0.03055
4471.01,0.02953
4465.22,0.03047
4459.44,0.03048
4453.65,0.02985
4447.86,0.03066
4442.08,0.03006
4436.29,0.02988
4430.51,0.02971
4424.72,0.03020
4418.93,0.02958
4413.15,0.02976
4407.36,0.02866
4401.57,0.02938
4395.79,0.02994
4390,0.02896
4384.21,0.02966
4378.43,0.02961
4372.64,0.02950
4366.85,0.02901
4361.07,0.02908
4355.28,0.03008
4349.49,0.02939
4343.71,0.02945
4337.92,0.03014
4332.14,0.03009
4326.35,0.02989
4320.56,0.03142
4314.78,0.02959
4308.99,0.02937
4303.2,0.03049
4297.42,0.02996
4291.63,0.02987
4285.84,0.02920
4280.06,0.02924
4274.27,0.02986
4268.48,0.02973
4262.7,0.02946
4256.91,0.03033
4251.13,0.03004
4245.34,0.02982
4239.55,0.02944
4233.77,0.02967
4227.98,0.02973
4222.19,0.03094
4216.41,0.03002
4210.62,0.02909
4204.83,0.02942
4199.05,0.02953
4193.26,0.02945
4187.47,0.02945
4181.69,0.02973
4175.9,0.02930
4170.11,0.03038
4164.33,0.03023
4158.54,0.02997
4152.76,0.02957
4146.97,0.02982
4141.18,0.02963
4135.4,0.02963
4129.61,0.02901
4123.82,0.02926
4118.04,0.02936
4112.25,0.02958
4106.46,0.02948
4100.68,0.02981
4094.89,0.03032
4089.1,0.02994
4083.32,0.02948
4077.53,0.02911
4071.74,0.02981
4065.96,0.03011
4060.17,0.02947
4054.39,0.03030
4048.6,0.03034
4042.81,0.02935
4037.03,0.03009
4031.24,0.02943
4025.45,0.02967
4019.67,0.03012
4013.88,0.02948
4008.09,0.02965
4002.31,0.02986
3996.52,0.02942
3990.73,0.02968
3984.95,0.02976
3979.16,0.02952
3973.37,0.02985
3967.59,0.03016
3961.8,0.02950
3956.02,0.03024
3950.23,0.02966
3944.44,0.02970
3938.66,0.03008
3932.87,0.03060
3927.08,0.02919
3921.3,0.02905
3915.51,0.03001
3909.72,0.02968
3903.94,0.03025
3898.15,0.02988
3892.36,0.03039
3886.58,0.03067
3880.79,0.03031
3875,0.02982
3869.22,0.03004
3863.43,0.02998
3857.65,0.02985
3851.86,0.02981
3846.07,0.03016
3840.29,0.03024
3834.5,0.02993
3828.71,0.02993
3822.93,0.03062
3817.14,0.03060
3811.35,0.02914
3805.57,0.03007
3799.78,0.03033
3793.99,0.02905
3788.21,0.02944
3782.42,0.03043
3776.63,0.02949
3770.85,0.03003
3765.06,0.02979
3759.28,0.02974
3753.49,0.02957
3747.7,0.02994
3741.92,0.02960
3736.13,0.02988
3730.34,0.02939
3724.56,0.02940
3718.77,0.02883
3712.98,0.02941
3707.2,0.02877
3701.41,0.02974
3695.62,0.02933
3689.84,0.02865
3684.05,0.02871
3678.26,0.02965
3672.48,0.02911
3666.69,0.02815
3660.91,0.02902
3655.12,0.02896
3649.33,0.02827
3643.55,0.02844
3637.76,0.02798
3631.97,0.02899
3626.19,0.02728
3620.4,0.02820
3614.61,0.02692
3608.83,0.02780
3603.04,0.02732
3597.25,0.02812
3591.47,0.02756
3585.68,0.02659
3579.89,0.02683
3574.11,0.02714
3568.32,0.02632
3562.54,0.02689
3556.75,0.02750
3550.96,0.02669
3545.18,0.02608
3539.39,0.02662
3533.6,0.02681
3527.82,0.02682
3522.03,0.02691
3516.24,0.02684
3510.46,0.02641
3504.67,0.02636
3498.88,0.02635
3493.1,0.02626
3487.31,0.02649
3481.52,0.02582
3475.74,0.02606
3469.95,0.02626
3464.17,0.02620
3458.38,0.02658
3452.59,0.02652
3446.81,0.02639
3441.02,0.02581
3435.23,0.02601
3429.45,0.02651
3423.66,0.02564
3417.87,0.02619
3412.09,0.02629
3406.3,0.02633
3400.51,0.02637
3394.73,0.02636
3388.94,0.02589
3383.15,0.02625
3377.37,0.02541
3371.58,0.02588
3365.8,0.02649
3360.01,0.02605
3354.22,0.02598
3348.44,0.02591
3342.65,0.02578
3336.86,0.02598
3331.08,0.02562
3325.29,0.02610
3319.5,0.02522
3313.72,0.02502
3307.93,0.02551
3302.14,0.02601
3296.36,0.02596
3290.57,0.02599
3284.78,0.02617
3279,0.02583
3273.21,0.02574
3267.43,0.02587
3261.64,0.02562
3255.85,0.02685
3250.07,0.02555
3244.28,0.02663
3238.49,0.02646
3232.71,0.02656
3226.92,0.02616
3221.13,0.02618
3215.35,0.02638
3209.56,0.02731
3203.77,0.02648
3197.99,0.02657
3192.2,0.02676
3186.41,0.02754
3180.63,0.02598
3174.84,0.02646
3169.06,0.02721
3163.27,0.02625
3157.48,0.02577
3151.7,0.02690
3145.91,0.02645
3140.12,0.02577
3134.34,0.02652
3128.55,0.02713
3122.76,0.02648
3116.98,0.02631
3111.19,0.02609
3105.4,0.02639
3099.62,0.02645
3093.83,0.02616
3088.05,0.02585
3082.26,0.02611
3076.47,0.02646
3070.69,0.02633
3064.9,0.02646
3059.11,0.02702
3053.33,0.02597
3047.54,0.02629
3041.75,0.02625
3035.97,0.02678
3030.18,0.02666
3024.39,0.02628
3018.61,0.02702
3012.82,0.02580
3007.03,0.02649
3001.25,0.02616
2995.46,0.02621
2989.68,0.02576
2983.89,0.02563
2978.1,0.02507
2972.32,0.02573
2966.53,0.02480
2960.74,0.02531
2954.96,0.02552
2949.17,0.02565
2943.38,0.02571
2937.6,0.02488
2931.81,0.02493
2926.02,0.02547
2920.24,0.02565
2914.45,0.02616
2908.66,0.02642
2902.88,0.02632
2897.09,0.02606
2891.31,0.02580
2885.52,0.02657
2879.73,0.02592
2873.95,0.02554
2868.16,0.02557
2862.37,0.02576
2856.59,0.02608
2850.8,0.02632
2845.01,0.02656
2839.23,0.02703
2833.44,0.02688
2827.65,0.02671
2821.87,0.02680
2816.08,0.02685
2810.29,0.02696
2804.51,0.02709
2798.72,0.02755
2792.94,0.02684
2787.15,0.02707
2781.36,0.02745
2775.58,0.02709
2769.79,0.02698
2764,0.02647
2758.22,0.02697
2752.43,0.02647
2746.64,0.02743
2740.86,0.02715
2735.07,0.02697
2729.28,0.02683
2723.5,0.02668
2717.71,0.02673
2711.92,0.02692
2706.14,0.02695
2700.35,0.02698
2694.57,0.02678
2688.78,0.02662
2682.99,0.02679
2677.21,0.02714
2671.42,0.02715
2665.63,0.02714
2659.85,0.02632
2654.06,0.02657
2648.27,0.02697
2642.49,0.02674
2636.7,0.02694
2630.91,0.02723
2625.13,0.02685
2619.34,0.02732
2613.55,0.02704
2607.77,0.02715
2601.98,0.02708
2596.2,0.02700
2590.41,0.02631
2584.62,0.02665
2578.84,0.02685
2573.05,0.02697
2567.26,0.02705
2561.48,0.02716
2555.69,0.02659
2549.9,0.02678
2544.12,0.02651
2538.33,0.02636
2532.54,0.02620
2526.76,0.02670
2520.97,0.02662
2515.18,0.02665
2509.4,0.02683
2503.61,0.02640
2497.83,0.02671
2492.04,0.02645
2486.25,0.02632
2480.47,0.02658
2474.68,0.02676
2468.89,0.02689
2463.11,0.02726
2457.32,0.02677
2451.53,0.02609
2445.75,0.02659
2439.96,0.02655
2434.17,0.02626
2428.39,0.02638
2422.6,0.02641
2416.81,0.02656
2411.03,0.02662
2405.24,0.02676
2399.46,0.02605
2393.67,0.02659
2387.88,0.02673
2382.1,0.02717
2376.31,0.02705
2370.52,0.02696
2364.74,0.02706
2358.95,0.02707
2353.16,0.02664
2347.38,0.02646
2341.59,0.02668
2335.8,0.02735
2330.02,0.02706
2324.23,0.02705
2318.44,0.02671
2312.66,0.02633
2306.87,0.02638
2301.09,0.02602
2295.3,0.02642
2289.51,0.02569
2283.73,0.02569
2277.94,0.02603
2272.15,0.02623
2266.37,0.02554
2260.58,0.02595
2254.79,0.02598
2249.01,0.02624
2243.22,0.02601
2237.43,0.02620
2231.65,0.02611
2225.86,0.02605
2220.07,0.02600
2214.29,0.02597
2208.5,0.02568
2202.72,0.02600
2196.93,0.02578
2191.14,0.02580
2185.36,0.02611
2179.57,0.02570
2173.78,0.02562
2168,0.02602
2162.21,0.02574
2156.42,0.02547
2150.64,0.02585
2144.85,0.02583
2139.06,0.02589
2133.28,0.02575
2127.49,0.02560
2121.7,0.02563
2115.92,0.02557
2110.13,0.02569
2104.35,0.02568
2098.56,0.02559
2092.77,0.02545
2086.99,0.02529
2081.2,0.02496
2075.41,0.02543
2069.63,0.02539
2063.84,0.02538
2058.05,0.02510
2052.27,0.02581
2046.48,0.02570
2040.69,0.02596
2034.91,0.02566
2029.12,0.02530
2023.33,0.02555
2017.55,0.02572
2011.76,0.02540
2005.98,0.02547
2000.19,0.02541
1994.4,0.02530
1988.62,0.02510
1982.83,0.02545
1977.04,0.02567
1971.26,0.02518
1965.47,0.02522
1959.68,0.02521
1953.9,0.02559
1948.11,0.02573
1942.32,0.02542
1936.54,0.02500
1930.75,0.02513
1924.96,0.02520
1919.18,0.02514
1913.39,0.02472
1907.61,0.02486
1901.82,0.02493
1896.03,0.02515
1890.25,0.02479
1884.46,0.02511
1878.67,0.02504
1872.89,0.02480
1867.1,0.02483
1861.31,0.02469
1855.53,0.02434
1849.74,0.02468
1843.95,0.02472
1838.17,0.02429
1832.38,0.02470
1826.6,0.02423
1820.81,0.02394
1815.02,0.02395
1809.24,0.02440
1803.45,0.02409
1797.66,0.02354
1791.88,0.02328
1786.09,0.02305
1780.3,0.02300
1774.52,0.02293
1768.73,0.02196
1762.94,0.02236
1757.16,0.02164
1751.37,0.02181
1745.58,0.02148
1739.8,0.02179
1734.01,0.02363
1728.23,0.02385
1722.44,0.02443
1716.65,0.02535
1710.87,0.02416
1705.08,0.02297
1699.29,0.02291
1693.51,0.02281
1687.72,0.02255
1681.93,0.02221
1676.15,0.02211
1670.36,0.02204
1664.57,0.02146
1658.79,0.02124
1653,0.02056
1647.21,0.02129
1641.43,0.02174
1635.64,0.02146
1629.86,0.02186
1624.07,0.02156
1618.28,0.02167
1612.5,0.02206
1606.71,0.02214
1600.92,0.02199
1595.14,0.02183
1589.35,0.02121
1583.56,0.02143
1577.78,0.02183
1571.99,0.02158
1566.2,0.02196
1560.42,0.02191
1554.63,0.02090
1548.84,0.02146
1543.06,0.02226
1537.27,0.02206
1531.49,0.02201
1525.7,0.02192
1519.91,0.02103
1514.13,0.02235
1508.34,0.02215
1502.55,0.02154
1496.77,0.02219
1490.98,0.02273
1485.19,0.02187
1479.41,0.02173
1473.62,0.02158
1467.83,0.02042
1462.05,0.02129
1456.26,0.02171
1450.47,0.02176
1444.69,0.02145
1438.9,0.02159
1433.12,0.02113
1427.33,0.02105
1421.54,0.02128
1415.76,0.02104
1409.97,0.02096
1404.18,0.02094
1398.4,0.02094
1392.61,0.02106
1386.82,0.02009
1381.04,0.02048
1375.25,0.02011
1369.46,0.02055
1363.68,0.02056
1357.89,0.02002
1352.1,0.02024
1346.32,0.02057
1340.53,0.02054
1334.75,0.01984
1328.96,0.02020
1323.17,0.01914
1317.39,0.01940
1311.6,0.01942
1305.81,0.01960
1300.03,0.02006
1294.24,0.02039
1288.45,0.02050
1282.67,0.02071
1276.88,0.02111
1271.09,0.02149
1265.31,0.02163
1259.52,0.02162
1253.73,0.02198
1247.95,0.02215
1242.16,0.02170
1236.38,0.02214
1230.59,0.02185
1224.8,0.02165
1219.02,0.02155
1213.23,0.02162
1207.44,0.02107
1201.66,0.02109
1195.87,0.02088
1190.08,0.02062
1184.3,0.02079
1178.51,0.01993
1172.72,0.02024
1166.94,0.02001
1161.15,0.02013
1155.36,0.02032
1149.58,0.02017
1143.79,0.01981
1138.01,0.01998
1132.22,0.01976
1126.43,0.02104
1120.65,0.02111
1114.86,0.02161
1109.07,0.02102
1103.29,0.02193
1097.5,0.02134
1091.71,0.02214
1085.93,0.02200
1080.14,0.02229
1074.35,0.02304
1068.57,0.02431
1062.78,0.02379
1056.99,0.02306
1051.21,0.02322
1045.42,0.02329
1039.64,0.02332
1033.85,0.02376
1028.06,0.02271
1022.28,0.02265
1016.49,0.02339
1010.7,0.02291
1004.92,0.02420
999.13,0.02373
993.344,0.02387
987.557,0.02403
981.771,0.02364
975.984,0.02395
970.198,0.02317
964.411,0.02349
958.625,0.02353
952.838,0.02306
947.052,0.02296
941.265,0.02285
935.479,0.02274
929.692,0.02197
923.906,0.02236
918.12,0.02196
912.333,0.02183
906.547,0.02256
900.76,0.02189
894.974,0.02243
889.187,0.02183
883.401,0.02239
877.614,0.02243
871.828,0.02086
866.041,0.02179
860.255,0.02202
854.468,0.02173
848.682,0.02153
842.895,0.02163
837.109,0.02173
831.323,0.02150
825.536,0.02106
819.75,0.02150
813.963,0.02140
808.177,0.02155
802.39,0.02016
796.604,0.02008
790.817,0.02085
785.031,0.02124
779.244,0.02038
773.458,0.02060
767.671,0.02051
761.885,0.02067
756.098,0.01950
750.312,0.01972
744.526,0.01948
738.739,0.01971
732.953,0.01960
727.166,0.01862
721.38,0.01963
715.593,0.01981
709.807,0.01989
704.02,0.01872
698.234,0.01943
692.447,0.01971
686.661,0.01903
680.874,0.01910
675.088,0.01856
669.301,0.01899
663.515,0.01930
657.729,0.01925
651.942,0.01842
646.156,0.01724
640.369,0.01774
634.583,0.01838
628.796,0.01821
623.01,0.01789
617.223,0.01844
611.437,0.02064
605.65,0.01904
599.864,0.01923