File: 01_Data/PEVA/FTIR/IS/PEVA_0.18_IS_T_240809_R6.dpt
7497.33,0.03250
7491.55,0.04080
7485.76,0.03529
7479.97,0.03141
7474.19,0.03149
7468.4,0.03411
7462.61,0.03323
7456.83,0.03586
7451.04,0.04048
7445.26,0.03794
7439.47,0.04412
7433.68,0.03911
7427.9,0.03756
7422.11,0.04156
7416.32,0.03707
7410.54,0.04284
7404.75,0.02026
7398.96,0.03569
7393.18,0.03172
7387.39,0.04079
7381.6,0.03160
7375.82,0.03865
7370.03,0.03973
7364.24,0.03349
7358.46,0.04171
7352.67,0.04107
7346.89,0.03620
7341.1,0.04267
7335.31,0.03922
7329.53,0.04350
7323.74,0.03132
7317.95,0.04384
7312.17,0.04922
7306.38,0.04030
7300.59,0.03688
7294.81,0.04627
7289.02,0.03898
7283.23,0.03018
7277.45,0.03227
7271.66,0.02787
7265.87,0.03908
7260.09,0.04916
7254.3,0.04361
7248.52,0.03061
7242.73,0.03211
7236.94,0.03620
7231.16,0.03178
7225.37,0.03588
7219.58,0.03808
7213.8,0.04236
7208.01,0.02747
7202.22,0.04026
7196.44,0.03397
7190.65,0.03622
7184.86,0.03652
7179.08,0.03210
7173.29,0.03299
7167.5,0.03225
7161.72,0.03618
7155.93,0.03149
7150.15,0.02556
7144.36,0.04241
7138.57,0.03690
7132.79,0.02778
7127,0.02814
7121.21,0.03721
7115.43,0.03106
7109.64,0.03036
7103.85,0.03554
7098.07,0.03475
7092.28,0.02926
7086.49,0.03527
7080.71,0.03560
7074.92,0.03179
7069.13,0.03256
7063.35,0.02772
7057.56,0.03219
7051.78,0.03280
7045.99,0.03376
7040.2,0.03012
7034.42,0.02372
7028.63,0.02134
7022.84,0.02909
7017.06,0.03629
7011.27,0.04212
7005.48,0.03423
6999.7,0.03100
6993.91,0.03145
6988.12,0.03530
6982.34,0.03557
6976.55,0.03343
6970.76,0.03361
6964.98,0.03974
6959.19,0.03313
6953.41,0.03407
6947.62,0.03066
6941.83,0.02670
6936.05,0.03446
6930.26,0.03939
6924.47,0.02916
6918.69,0.03363
6912.9,0.03126
6907.11,0.03160
6901.33,0.03442
6895.54,0.03581
6889.75,0.03980
6883.97,0.04025
6878.18,0.03532
6872.39,0.03195
6866.61,0.03253
6860.82,0.04008
6855.04,0.03238
6849.25,0.03917
6843.46,0.02881
6837.68,0.02834
6831.89,0.02924
6826.1,0.03727
6820.32,0.04260
6814.53,0.03403
6808.74,0.02925
6802.96,0.02982
6797.17,0.03040
6791.38,0.03139
6785.6,0.03892
6779.81,0.03413
6774.03,0.03193
6768.24,0.03896
6762.45,0.03574
6756.67,0.03212
6750.88,0.03392
6745.09,0.03756
6739.31,0.03434
6733.52,0.03447
6727.73,0.03215
6721.95,0.02760
6716.16,0.03112
6710.37,0.03176
6704.59,0.03129
6698.8,0.03842
6693.01,0.03540
6687.23,0.02851
6681.44,0.02688
6675.66,0.03183
6669.87,0.03697
6664.08,0.03202
6658.3,0.03661
6652.51,0.03846
6646.72,0.04009
6640.94,0.03919
6635.15,0.03744
6629.36,0.02857
6623.58,0.03414
6617.79,0.03329
6612,0.03083
6606.22,0.03680
6600.43,0.02980
6594.64,0.02666
6588.86,0.02838
6583.07,0.03255
6577.29,0.02936
6571.5,0.03000
6565.71,0.02681
6559.93,0.03160
6554.14,0.02863
6548.35,0.03038
6542.57,0.03885
6536.78,0.03713
6530.99,0.03708
6525.21,0.02789
6519.42,0.02942
6513.63,0.02623
6507.85,0.03287
6502.06,0.03275
6496.27,0.02993
6490.49,0.03436
6484.7,0.02961
6478.92,0.02867
6473.13,0.02905
6467.34,0.03482
6461.56,0.03424
6455.77,0.03005
6449.98,0.03437
6444.2,0.03091
6438.41,0.03070
6432.62,0.02523
6426.84,0.03230
6421.05,0.03325
6415.26,0.03167
6409.48,0.03169
6403.69,0.03065
6397.9,0.03121
6392.12,0.03288
6386.33,0.03378
6380.55,0.03057
6374.76,0.02958
6368.97,0.02758
6363.19,0.02835
6357.4,0.03167
6351.61,0.03019
6345.83,0.03238
6340.04,0.02731
6334.25,0.03314
6328.47,0.02966
6322.68,0.03372
6316.89,0.02907
6311.11,0.03135
6305.32,0.03128
6299.53,0.03274
6293.75,0.02880
6287.96,0.03033
6282.18,0.03217
6276.39,0.03019
6270.6,0.03118
6264.82,0.03291
6259.03,0.03044
6253.24,0.03109
6247.46,0.03346
6241.67,0.03238
6235.88,0.03169
6230.1,0.03267
6224.31,0.03028
6218.52,0.03655
6212.74,0.03260
6206.95,0.03230
6201.16,0.02532
6195.38,0.02866
6189.59,0.03054
6183.81,0.02749
6178.02,0.03505
6172.23,0.03331
6166.45,0.02900
6160.66,0.03353
6154.87,0.03325
6149.09,0.02927
6143.3,0.02758
6137.51,0.03131
6131.73,0.03243
6125.94,0.02745
6120.15,0.02847
6114.37,0.02751
6108.58,0.03000
6102.79,0.03200
6097.01,0.03142
6091.22,0.03093
6085.44,0.03381
6079.65,0.03139
6073.86,0.02852
6068.08,0.03259
6062.29,0.02872
6056.5,0.03432
6050.72,0.03467
6044.93,0.03035
6039.14,0.02818
6033.36,0.03057
6027.57,0.03042
6021.78,0.03093
6016,0.02790
6010.21,0.03256
6004.42,0.02861
5998.64,0.03155
5992.85,0.03035
5987.07,0.03300
5981.28,0.03247
5975.49,0.03094
5969.71,0.03076
5963.92,0.02656
5958.13,0.02902
5952.35,0.03021
5946.56,0.03390
5940.77,0.03478
5934.99,0.03363
5929.2,0.03068
5923.41,0.03185
5917.63,0.02688
5911.84,0.02798
5906.05,0.02827
5900.27,0.02984
5894.48,0.02906
5888.7,0.03173
5882.91,0.02891
5877.12,0.03277
5871.34,0.02795
5865.55,0.02848
5859.76,0.03234
5853.98,0.02929
5848.19,0.03290
5842.4,0.03330
5836.62,0.03034
5830.83,0.03043
5825.04,0.03015
5819.26,0.03049
5813.47,0.02999
5807.68,0.03076
5801.9,0.02821
5796.11,0.03062
5790.33,0.02993
5784.54,0.03068
5778.75,0.03512
5772.97,0.02835
5767.18,0.02905
5761.39,0.02833
5755.61,0.02884
5749.82,0.03249
5744.03,0.03159
5738.25,0.03107
5732.46,0.03189
5726.67,0.03153
5720.89,0.03109
5715.1,0.02895
5709.31,0.03119
5703.53,0.02911
5697.74,0.03013
5691.96,0.02997
5686.17,0.03095
5680.38,0.03087
5674.6,0.03080
5668.81,0.03131
5663.02,0.03088
5657.24,0.02996
5651.45,0.02928
5645.66,0.02898
5639.88,0.03177
5634.09,0.02955
5628.3,0.02943
5622.52,0.02997
5616.73,0.03118
5610.94,0.03099
5605.16,0.03099
5599.37,0.03041
5593.59,0.03032
5587.8,0.02992
5582.01,0.02908
5576.23,0.03060
5570.44,0.02993
5564.65,0.02991
5558.87,0.02926
5553.08,0.02797
5547.29,0.02991
5541.51,0.03250
5535.72,0.02938
5529.93,0.03068
5524.15,0.02980
5518.36,0.03121
5512.58,0.03010
5506.79,0.02880
5501,0.03024
5495.22,0.03069
5489.43,0.03042
5483.64,0.02927
5477.86,0.02877
5472.07,0.03051
5466.28,0.02942
5460.5,0.02864
5454.71,0.03036
5448.92,0.03394
5443.14,0.03066
5437.35,0.02948
5431.56,0.02917
5425.78,0.03011
5419.99,0.03094
5414.21,0.03013
5408.42,0.03001
5402.63,0.03181
5396.85,0.03192
5391.06,0.02855
5385.27,0.02903
5379.49,0.03076
5373.7,0.02937
5367.91,0.03101
5362.13,0.03070
5356.34,0.03081
5350.55,0.03008
5344.77,0.03091
5338.98,0.02958
5333.19,0.03021
5327.41,0.02827
5321.62,0.02867
5315.84,0.02759
5310.05,0.03209
5304.26,0.02967
5298.48,0.02868
5292.69,0.02869
5286.9,0.03180
5281.12,0.02966
5275.33,0.02988
5269.54,0.02899
5263.76,0.03007
5257.97,0.02846
5252.18,0.02842
5246.4,0.03025
5240.61,0.03059
5234.82,0.03079
5229.04,0.02884
5223.25,0.02963
5217.47,0.03086
5211.68,0.02930
5205.89,0.02993
5200.11,0.03195
5194.32,0.02933
5188.53,0.02850
5182.75,0.02928
5176.96,0.03193
5171.17,0.03132
5165.39,0.02833
5159.6,0.02993
5153.81,0.03032
5148.03,0.03014
5142.24,0.03012
5136.45,0.02905
5130.67,0.03075
5124.88,0.02964
5119.1,0.03149
5113.31,0.02950
5107.52,0.02809
5101.74,0.02998
5095.95,0.03085
5090.16,0.02930
5084.38,0.02985
5078.59,0.03138
5072.8,0.02996
5067.02,0.02948
5061.23,0.02916
5055.44,0.03098
5049.66,0.02968
5043.87,0.02923
5038.08,0.03108
5032.3,0.03042
5026.51,0.02982
5020.73,0.03064
5014.94,0.03039
5009.15,0.02893
5003.37,0.02972
4997.58,0.02990
4991.79,0.03011
4986.01,0.03039
4980.22,0.03002
4974.43,0.03051
4968.65,0.02969
4962.86,0.02998
4957.07,0.02944
4951.29,0.03034
4945.5,0.02885
4939.71,0.02966
4933.93,0.02993
4928.14,0.03085
4922.36,0.02985
4916.57,0.03052
4910.78,0.03019
4905,0.03025
4899.21,0.03002
4893.42,0.03015
4887.64,0.03002
4881.85,0.02989
4876.06,0.03009
4870.28,0.02981
4864.49,0.02926
4858.7,0.03014
4852.92,0.03047
4847.13,0.03012
4841.34,0.03045
4835.56,0.03018
4829.77,0.02985
4823.99,0.03088
4818.2,0.02963
4812.41,0.02879
4806.63,0.02920
4800.84,0.03004
4795.05,0.02930
4789.27,0.02982
4783.48,0.02889
4777.69,0.02978
4771.91,0.02949
4766.12,0.03045
4760.33,0.03018
4754.55,0.02936
4748.76,0.03092
4742.97,0.03041
4737.19,0.02972
4731.4,0.02875
4725.62,0.02963
4719.83,0.03040
4714.04,0.03005
4708.26,0.02879
4702.47,0.02959
4696.68,0.03095
4690.9,0.02984
4685.11,0.02893
4679.32,0.03064
4673.54,0.02965
4667.75,0.03010
4661.96,0.02943
4656.18,0.02948
4650.39,0.03007
4644.6,0.03021
4638.82,0.02910
4633.03,0.03013
4627.25,0.02996
4621.46,0.02834
4615.67,0.02928
4609.89,0.03072
4604.1,0.02946
4598.31,0.02885
4592.53,0.03051
4586.74,0.02936
4580.95,0.02998
4575.17,0.02954
4569.38,0.03034
4563.59,0.02917
4557.81,0.02986
4552.02,0.03034
4546.23,0.03039
4540.45,0.02905
4534.66,0.03035
4528.88,0.02955
4523.09,0.02880
4517.3,0.03092
4511.52,0.02975
4505.73,0.03074
4499.94,0.02954
4494.16,0.02960
4488.37,0.03023
4482.58,0.02988
4476.8,0.02938
4471.01,0.02949
4465.22,0.03028
4459.44,0.03016
4453.65,0.03011
4447.86,0.02973
4442.08,0.02949
4436.29,0.02925
4430.51,0.03029
4424.72,0.03039
4418.93,0.02986
4413.15,0.02966
4407.36,0.03068
4401.57,0.03056
4395.79,0.02974
4390,0.02985
4384.21,0.02974
4378.43,0.02998
4372.64,0.02989
4366.85,0.03033
4361.07,0.03020
4355.28,0.02999
4349.49,0.02915
4343.71,0.02967
4337.92,0.02978
4332.14,0.03039
4326.35,0.02860
4320.56,0.02952
4314.78,0.02912
4308.99,0.02953
4303.2,0.02987
4297.42,0.02939
4291.63,0.02965
4285.84,0.03028
4280.06,0.02987
4274.27,0.03054
4268.48,0.03013
4262.7,0.02946
4256.91,0.02941
4251.13,0.02939
4245.34,0.03051
4239.55,0.02992
4233.77,0.02978
4227.98,0.02958
4222.19,0.03045
4216.41,0.03012
4210.62,0.02949
4204.83,0.02937
4199.05,0.02911
4193.26,0.03005
4187.47,0.02942
4181.69,0.02989
4175.9,0.02980
4170.11,0.03004
4164.33,0.02931
4158.54,0.02904
4152.76,0.02978
4146.97,0.02994
4141.18,0.02944
4135.4,0.02915
4129.61,0.02944
4123.82,0.03003
4118.04,0.03032
4112.25,0.02918
4106.46,0.02975
4100.68,0.02904
4094.89,0.02980
4089.1,0.02983
4083.32,0.02981
4077.53,0.02977
4071.74,0.02915
4065.96,0.02982
4060.17,0.02912
4054.39,0.02975
4048.6,0.02994
4042.81,0.02979
4037.03,0.03039
4031.24,0.02947
4025.45,0.02936
4019.67,0.02939
4013.88,0.02984
4008.09,0.02993
4002.31,0.02947
3996.52,0.02978
3990.73,0.02997
3984.95,0.03027
3979.16,0.02948
3973.37,0.03025
3967.59,0.02976
3961.8,0.02970
3956.02,0.02989
3950.23,0.03002
3944.44,0.03035
3938.66,0.03004
3932.87,0.02972
3927.08,0.02965
3921.3,0.03020
3915.51,0.02931
3909.72,0.02957
3903.94,0.02951
3898.15,0.02929
3892.36,0.03075
3886.58,0.03017
3880.79,0.03021
3875,0.03015
3869.22,0.03022
3863.43,0.03066
3857.65,0.03071
3851.86,0.02953
3846.07,0.02941
3840.29,0.03091
3834.5,0.03036
3828.71,0.02915
3822.93,0.02953
3817.14,0.02972
3811.35,0.02998
3805.57,0.02923
3799.78,0.02981
3793.99,0.02905
3788.21,0.02976
3782.42,0.02935
3776.63,0.02977
3770.85,0.03024
3765.06,0.02962
3759.28,0.02972
3753.49,0.03029
3747.7,0.03108
3741.92,0.03050
3736.13,0.02969
3730.34,0.03015
3724.56,0.02982
3718.77,0.02920
3712.98,0.02941
3707.2,0.02892
3701.41,0.02963
3695.62,0.02890
3689.84,0.02921
3684.05,0.02893
3678.26,0.02897
3672.48,0.02831
3666.69,0.02859
3660.91,0.02912
3655.12,0.02869
3649.33,0.02764
3643.55,0.02819
3637.76,0.02807
3631.97,0.02797
3626.19,0.02718
3620.4,0.02890
3614.61,0.02836
3608.83,0.02740
3603.04,0.02709
3597.25,0.02672
3591.47,0.02743
3585.68,0.02693
3579.89,0.02735
3574.11,0.02710
3568.32,0.02744
3562.54,0.02702
3556.75,0.02672
3550.96,0.02757
3545.18,0.02522
3539.39,0.02646
3533.6,0.02699
3527.82,0.02571
3522.03,0.02695
3516.24,0.02617
3510.46,0.02641
3504.67,0.02725
3498.88,0.02622
3493.1,0.02625
3487.31,0.02751
3481.52,0.02602
3475.74,0.02630
3469.95,0.02722
3464.17,0.02617
3458.38,0.02622
3452.59,0.02634
3446.81,0.02593
3441.02,0.02620
3435.23,0.02569
3429.45,0.02671
3423.66,0.02594
3417.87,0.02571
3412.09,0.02496
3406.3,0.02544
3400.51,0.02512
3394.73,0.02496
3388.94,0.02594
3383.15,0.02520
3377.37,0.02528
3371.58,0.02618
3365.8,0.02537
3360.01,0.02563
3354.22,0.02518
3348.44,0.02541
3342.65,0.02531
3336.86,0.02524
3331.08,0.02600
3325.29,0.02601
3319.5,0.02528
3313.72,0.02527
3307.93,0.02568
3302.14,0.02643
3296.36,0.02602
3290.57,0.02590
3284.78,0.02592
3279,0.02531
3273.21,0.02563
3267.43,0.02571
3261.64,0.02544
3255.85,0.02600
3250.07,0.02665
3244.28,0.02680
3238.49,0.02624
3232.71,0.02611
3226.92,0.02628
3221.13,0.02743
3215.35,0.02615
3209.56,0.02649
3203.77,0.02627
3197.99,0.02641
3192.2,0.02648
3186.41,0.02666
3180.63,0.02682
3174.84,0.02655
3169.06,0.02595
3163.27,0.02633
3157.48,0.02606
3151.7,0.02568
3145.91,0.02652
3140.12,0.02667
3134.34,0.02672
3128.55,0.02646
3122.76,0.02650
3116.98,0.02675
3111.19,0.02636
3105.4,0.02652
3099.62,0.02696
3093.83,0.02595
3088.05,0.02550
3082.26,0.02613
3076.47,0.02631
3070.69,0.02681
3064.9,0.02700
3059.11,0.02642
3053.33,0.02642
3047.54,0.02677
3041.75,0.02637
3035.97,0.02653
3030.18,0.02621
3024.39,0.02640
3018.61,0.02635
3012.82,0.02634
3007.03,0.02607
3001.25,0.02657
2995.46,0.02613
2989.68,0.02593
2983.89,0.02583
2978.1,0.02570
2972.32,0.02573
2966.53,0.02457
2960.74,0.02524
2954.96,0.02557
2949.17,0.02512
2943.38,0.02496
2937.6,0.02505
2931.81,0.02531
2926.02,0.02532
2920.24,0.02585
2914.45,0.02624
2908.66,0.02571
2902.88,0.02610
2897.09,0.02680
2891.31,0.02602
2885.52,0.02595
2879.73,0.02611
2873.95,0.02604
2868.16,0.02596
2862.37,0.02529
2856.59,0.02612
2850.8,0.02669
2845.01,0.02670
2839.23,0.02664
2833.44,0.02655
2827.65,0.02675
2821.87,0.02633
2816.08,0.02689
2810.29,0.02703
2804.51,0.02674
2798.72,0.02620
2792.94,0.02702
2787.15,0.02704
2781.36,0.02691
2775.58,0.02682
2769.79,0.02686
2764,0.02713
2758.22,0.02689
2752.43,0.02690
2746.64,0.02683
2740.86,0.02630
2735.07,0.02663
2729.28,0.02715
2723.5,0.02686
2717.71,0.02702
2711.92,0.02698
2706.14,0.02672
2700.35,0.02697
2694.57,0.02674
2688.78,0.02670
2682.99,0.02715
2677.21,0.02665
2671.42,0.02639
2665.63,0.02668
2659.85,0.02677
2654.06,0.02666
2648.27,0.02683
2642.49,0.02694
2636.7,0.02665
2630.91,0.02645
2625.13,0.02684
2619.34,0.02725
2613.55,0.02712
2607.77,0.02700
2601.98,0.02670
2596.2,0.02657
2590.41,0.02707
2584.62,0.02679
2578.84,0.02647
2573.05,0.02691
2567.26,0.02673
2561.48,0.02667
2555.69,0.02660
2549.9,0.02683
2544.12,0.02683
2538.33,0.02713
2532.54,0.02688
2526.76,0.02661
2520.97,0.02657
2515.18,0.02629
2509.4,0.02704
2503.61,0.02641
2497.83,0.02665
2492.04,0.02628
2486.25,0.02635
2480.47,0.02651
2474.68,0.02688
2468.89,0.02682
2463.11,0.02638
2457.32,0.02654
2451.53,0.02624
2445.75,0.02675
2439.96,0.02662
2434.17,0.02661
2428.39,0.02620
2422.6,0.02628
2416.81,0.02645
2411.03,0.02645
2405.24,0.02619
2399.46,0.02629
2393.67,0.02637
2387.88,0.02618
2382.1,0.02634
2376.31,0.02625
2370.52,0.02729
2364.74,0.02725
2358.95,0.02767
2353.16,0.02725
2347.38,0.02683
2341.59,0.02683
2335.8,0.02705
2330.02,0.02686
2324.23,0.02707
2318.44,0.02683
2312.66,0.02687
2306.87,0.02645
2301.09,0.02621
2295.3,0.02584
2289.51,0.02623
2283.73,0.02620
2277.94,0.02615
2272.15,0.02620
2266.37,0.02622
2260.58,0.02605
2254.79,0.02621
2249.01,0.02599
2243.22,0.02619
2237.43,0.02597
2231.65,0.02607
2225.86,0.02603
2220.07,0.02596
2214.29,0.02600
2208.5,0.02552
2202.72,0.02593
2196.93,0.02578
2191.14,0.02562
2185.36,0.02567
2179.57,0.02591
2173.78,0.02592
2168,0.02587
2162.21,0.02582
2156.42,0.02578
2150.64,0.02560
2144.85,0.02579
2139.06,0.02583
2133.28,0.02614
2127.49,0.02583
2121.7,0.02575
2115.92,0.02591
2110.13,0.02570
2104.35,0.02578
2098.56,0.02543
2092.77,0.02540
2086.99,0.02538
2081.2,0.02561
2075.41,0.02529
2069.63,0.02527
2063.84,0.02552
2058.05,0.02541
2052.27,0.02565
2046.48,0.02526
2040.69,0.02559
2034.91,0.02528
2029.12,0.02545
2023.33,0.02520
2017.55,0.02586
2011.76,0.02553
2005.98,0.02542
2000.19,0.02533
1994.4,0.02575
1988.62,0.02541
1982.83,0.02532
1977.04,0.02552
1971.26,0.02549
1965.47,0.02522
1959.68,0.02517
1953.9,0.02541
1948.11,0.02528
1942.32,0.02535
1936.54,0.02515
1930.75,0.02473
1924.96,0.02500
1919.18,0.02552
1913.39,0.02519
1907.61,0.02475
1901.82,0.02483
1896.03,0.02476
1890.25,0.02527
1884.46,0.02472
1878.67,0.02464
1872.89,0.02506
1867.1,0.02436
1861.31,0.02482
1855.53,0.02448
1849.74,0.02444
1843.95,0.02482
1838.17,0.02433
1832.38,0.02446
1826.6,0.02449
1820.81,0.02435
1815.02,0.02438
1809.24,0.02408
1803.45,0.02366
1797.66,0.02388
1791.88,0.02400
1786.09,0.02306
1780.3,0.02296
1774.52,0.02276
1768.73,0.02228
1762.94,0.02232
1757.16,0.02151
1751.37,0.02129
1745.58,0.02153
1739.8,0.02235
1734.01,0.02285
1728.23,0.02369
1722.44,0.02406
1716.65,0.02447
1710.87,0.02412
1705.08,0.02377
1699.29,0.02303
1693.51,0.02232
1687.72,0.02285
1681.93,0.02211
1676.15,0.02165
1670.36,0.02161
1664.57,0.02176
1658.79,0.02162
1653,0.02121
1647.21,0.02220
1641.43,0.02160
1635.64,0.02181
1629.86,0.02219
1624.07,0.02219
1618.28,0.02222
1612.5,0.02168
1606.71,0.02187
1600.92,0.02160
1595.14,0.02195
1589.35,0.02145
1583.56,0.02193
1577.78,0.02193
1571.99,0.02157
1566.2,0.02099
1560.42,0.02255
1554.63,0.02121
1548.84,0.02178
1543.06,0.02309
1537.27,0.02191
1531.49,0.02208
1525.7,0.02203
1519.91,0.02272
1514.13,0.02207
1508.34,0.02216
1502.55,0.02210
1496.77,0.02231
1490.98,0.02236
1485.19,0.02171
1479.41,0.02173
1473.62,0.02222
1467.83,0.02122
1462.05,0.02079
1456.26,0.02162
1450.47,0.02134
1444.69,0.02166
1438.9,0.02156
1433.12,0.02128
1427.33,0.02106
1421.54,0.02103
1415.76,0.02109
1409.97,0.02081
1404.18,0.02059
1398.4,0.02070
1392.61,0.02044
1386.82,0.02031
1381.04,0.02037
1375.25,0.02042
1369.46,0.02082
1363.68,0.02047
1357.89,0.02068
1352.1,0.02083
1346.32,0.02049
1340.53,0.02026
1334.75,0.02007
1328.96,0.01972
1323.17,0.01943
1317.39,0.01951
1311.6,0.01955
1305.81,0.01945
1300.03,0.01973
1294.24,0.01990
1288.45,0.02041
1282.67,0.02088
1276.88,0.02130
1271.09,0.02136
1265.31,0.02175
1259.52,0.02190
1253.73,0.02202
1247.95,0.02228
1242.16,0.02211
1236.38,0.02226
1230.59,0.02149
1224.8,0.02141
1219.02,0.02156
1213.23,0.02152
1207.44,0.02126
1201.66,0.02065
1195.87,0.02078
1190.08,0.02059
1184.3,0.02001
1178.51,0.02054
1172.72,0.02003
1166.94,0.01970
1161.15,0.01978
1155.36,0.01983
1149.58,0.01973
1143.79,0.01993
1138.01,0.02010
1132.22,0.02008
1126.43,0.02090
1120.65,0.02190
1114.86,0.02209
1109.07,0.02193
1103.29,0.02194
1097.5,0.02087
1091.71,0.02103
1085.93,0.02182
1080.14,0.02214
1074.35,0.02297
1068.57,0.02400
1062.78,0.02341
1056.99,0.02292
1051.21,0.02352
1045.42,0.02332
1039.64,0.02382
1033.85,0.02290
1028.06,0.02306
1022.28,0.02309
1016.49,0.02290
1010.7,0.02392
1004.92,0.02386
999.13,0.02412
993.344,0.02400
987.557,0.02423
981.771,0.02405
975.984,0.02399
970.198,0.02284
964.411,0.02271
958.625,0.02319
952.838,0.02280
947.052,0.02252
941.265,0.02290
935.479,0.02220
929.692,0.02219
923.906,0.02238
918.12,0.02232
912.333,0.02209
906.547,0.02162
900.76,0.02217
894.974,0.02209
889.187,0.02197
883.401,0.02207
877.614,0.02209
871.828,0.02261
866.041,0.02208
860.255,0.02089
854.468,0.02127
848.682,0.02142
842.895,0.02124
837.109,0.02198
831.323,0.02035
825.536,0.02129
819.75,0.02135
813.963,0.02140
808.177,0.02167
802.39,0.02154
796.604,0.02051
790.817,0.02012
785.031,0.02037
779.244,0.02135
773.458,0.02081
767.671,0.02071
761.885,0.02066
756.098,0.01966
750.312,0.01984
744.526,0.01938
738.739,0.02043
732.953,0.01991
727.166,0.01918
721.38,0.01954
715.593,0.01893
709.807,0.01899
704.02,0.01910
698.234,0.01948
692.447,0.01980
686.661,0.01861
680.874,0.01889
675.088,0.01938
669.301,0.01923
663.515,0.01817
657.729,0.01813
651.942,0.01727
646.156,0.01797
640.369,0.01880
634.583,0.01967
628.796,0.01858
623.01,0.01804
617.223,0.02080
611.437,0.01778
605.65,0.01838
599.864,0.02129