File: 01_Data/PEVA/FTIR/IS/PEVA_0.26_IS_Trans_S_240819_R7.dpt
7496.91,0.91655
7491.12,0.92739
7485.33,0.93911
7479.55,0.93764
7473.76,0.93322
7467.98,0.94198
7462.19,0.93922
7456.4,0.93325
7450.62,0.93345
7444.83,0.93382
7439.04,0.93256
7433.26,0.95178
7427.47,0.94000
7421.69,0.92945
7415.9,0.91921
7410.11,0.93811
7404.33,0.92571
7398.54,0.94652
7392.76,0.92618
7386.97,0.93267
7381.18,0.92171
7375.4,0.93889
7369.61,0.91891
7363.83,0.93090
7358.04,0.92119
7352.25,0.92341
7346.47,0.91824
7340.68,0.91284
7334.89,0.93042
7329.11,0.91225
7323.32,0.91821
7317.54,0.91593
7311.75,0.91075
7305.96,0.90798
7300.18,0.92696
7294.39,0.92337
7288.61,0.92053
7282.82,0.91913
7277.03,0.91682
7271.25,0.91986
7265.46,0.91260
7259.67,0.91088
7253.89,0.90659
7248.1,0.91795
7242.32,0.89087
7236.53,0.90191
7230.74,0.89896
7224.96,0.91954
7219.17,0.90559
7213.39,0.92477
7207.6,0.91027
7201.81,0.89736
7196.03,0.90133
7190.24,0.91226
7184.45,0.90349
7178.67,0.90620
7172.88,0.92174
7167.1,0.90164
7161.31,0.89727
7155.52,0.91408
7149.74,0.91530
7143.95,0.90375
7138.17,0.90734
7132.38,0.91172
7126.59,0.90536
7120.81,0.89191
7115.02,0.89917
7109.23,0.90957
7103.45,0.90893
7097.66,0.91429
7091.88,0.90841
7086.09,0.90577
7080.3,0.91134
7074.52,0.90696
7068.73,0.89980
7062.95,0.90203
7057.16,0.91166
7051.37,0.91354
7045.59,0.92264
7039.8,0.91266
7034.02,0.91903
7028.23,0.91131
7022.44,0.91866
7016.66,0.91481
7010.87,0.91426
7005.08,0.91372
6999.3,0.91917
6993.51,0.91352
6987.73,0.90724
6981.94,0.91314
6976.15,0.91892
6970.37,0.91601
6964.58,0.91253
6958.8,0.91315
6953.01,0.92163
6947.22,0.92020
6941.44,0.91967
6935.65,0.91453
6929.86,0.90953
6924.08,0.91639
6918.29,0.91117
6912.51,0.92193
6906.72,0.92015
6900.93,0.91608
6895.15,0.92228
6889.36,0.92274
6883.58,0.92133
6877.79,0.91623
6872,0.91978
6866.22,0.91668
6860.43,0.91919
6854.64,0.92681
6848.86,0.92717
6843.07,0.91333
6837.29,0.92458
6831.5,0.92839
6825.71,0.92725
6819.93,0.91386
6814.14,0.91938
6808.36,0.92347
6802.57,0.92622
6796.78,0.92340
6791,0.93197
6785.21,0.92473
6779.43,0.92135
6773.64,0.92272
6767.85,0.92983
6762.07,0.91534
6756.28,0.92113
6750.49,0.92641
6744.71,0.92770
6738.92,0.91740
6733.14,0.91786
6727.35,0.92579
6721.56,0.92725
6715.78,0.93017
6709.99,0.93026
6704.21,0.92782
6698.42,0.93049
6692.63,0.91987
6686.85,0.92417
6681.06,0.92655
6675.27,0.92881
6669.49,0.92901
6663.7,0.92609
6657.92,0.93556
6652.13,0.92347
6646.34,0.92599
6640.56,0.92795
6634.77,0.92882
6628.99,0.92596
6623.2,0.92847
6617.41,0.92634
6611.63,0.92085
6605.84,0.92986
6600.05,0.93186
6594.27,0.93232
6588.48,0.92711
6582.7,0.92547
6576.91,0.93036
6571.12,0.92782
6565.34,0.93427
6559.55,0.92437
6553.77,0.92854
6547.98,0.92605
6542.19,0.93282
6536.41,0.92837
6530.62,0.92383
6524.84,0.93225
6519.05,0.92675
6513.26,0.92370
6507.48,0.92827
6501.69,0.92788
6495.9,0.93534
6490.12,0.93227
6484.33,0.93135
6478.55,0.92507
6472.76,0.93101
6466.97,0.92700
6461.19,0.93243
6455.4,0.93444
6449.62,0.93125
6443.83,0.92651
6438.04,0.93196
6432.26,0.93214
6426.47,0.92654
6420.68,0.92225
6414.9,0.92567
6409.11,0.92896
6403.33,0.92443
6397.54,0.92934
6391.75,0.93091
6385.97,0.93178
6380.18,0.92382
6374.4,0.93452
6368.61,0.93088
6362.82,0.92687
6357.04,0.92824
6351.25,0.93385
6345.46,0.92908
6339.68,0.92921
6333.89,0.93081
6328.11,0.93606
6322.32,0.93257
6316.53,0.92773
6310.75,0.92867
6304.96,0.92809
6299.18,0.93498
6293.39,0.92814
6287.6,0.92682
6281.82,0.93153
6276.03,0.93035
6270.24,0.92929
6264.46,0.93133
6258.67,0.92903
6252.89,0.92699
6247.1,0.92511
6241.31,0.93318
6235.53,0.92635
6229.74,0.92767
6223.96,0.92907
6218.17,0.92571
6212.38,0.92729
6206.6,0.92465
6200.81,0.92731
6195.03,0.92644
6189.24,0.92949
6183.45,0.92512
6177.67,0.92578
6171.88,0.92235
6166.09,0.92391
6160.31,0.92322
6154.52,0.92484
6148.74,0.92670
6142.95,0.92044
6137.16,0.92456
6131.38,0.92266
6125.59,0.92256
6119.81,0.92167
6114.02,0.91925
6108.23,0.92040
6102.45,0.91723
6096.66,0.91297
6090.87,0.91573
6085.09,0.91126
6079.3,0.90892
6073.52,0.91586
6067.73,0.90853
6061.94,0.90466
6056.16,0.90215
6050.37,0.89864
6044.59,0.89178
6038.8,0.89096
6033.01,0.88896
6027.23,0.88245
6021.44,0.88039
6015.65,0.87457
6009.87,0.87963
6004.08,0.88650
5998.3,0.88582
5992.51,0.89205
5986.72,0.89465
5980.94,0.90098
5975.15,0.90037
5969.37,0.90127
5963.58,0.90009
5957.79,0.89803
5952.01,0.89483
5946.22,0.89219
5940.44,0.88693
5934.65,0.88464
5928.86,0.87658
5923.08,0.87012
5917.29,0.86058
5911.5,0.85560
5905.72,0.84924
5899.93,0.84217
5894.15,0.83953
5888.36,0.82946
5882.57,0.81503
5876.79,0.80923
5871,0.80159
5865.22,0.79546
5859.43,0.78257
5853.64,0.77364
5847.86,0.76205
5842.07,0.74713
5836.28,0.73398
5830.5,0.72488
5824.71,0.72102
5818.93,0.72839
5813.14,0.74163
5807.35,0.75508
5801.57,0.76926
5795.78,0.77944
5790,0.79274
5784.21,0.80207
5778.42,0.81190
5772.64,0.81359
5766.85,0.81315
5761.06,0.81763
5755.28,0.81539
5749.49,0.81543
5743.71,0.81466
5737.92,0.81229
5732.13,0.81129
5726.35,0.81556
5720.56,0.81549
5714.78,0.81703
5708.99,0.81737
5703.2,0.81772
5697.42,0.81562
5691.63,0.82167
5685.84,0.82340
5680.06,0.82986
5674.27,0.83058
5668.49,0.83588
5662.7,0.83536
5656.91,0.84004
5651.13,0.84095
5645.34,0.84391
5639.56,0.85043
5633.77,0.85241
5627.98,0.85417
5622.2,0.85692
5616.41,0.85677
5610.63,0.86002
5604.84,0.86031
5599.05,0.86217
5593.27,0.86482
5587.48,0.86592
5581.69,0.86843
5575.91,0.86690
5570.12,0.87064
5564.34,0.87106
5558.55,0.87180
5552.76,0.87301
5546.98,0.87344
5541.19,0.87133
5535.41,0.87075
5529.62,0.87313
5523.83,0.87358
5518.05,0.87440
5512.26,0.87602
5506.47,0.87167
5500.69,0.87369
5494.9,0.87120
5489.12,0.86729
5483.33,0.87924
5477.54,0.87240
5471.76,0.87290
5465.97,0.86919
5460.19,0.86816
5454.4,0.87531
5448.61,0.87114
5442.83,0.87123
5437.04,0.87579
5431.25,0.87512
5425.47,0.87800
5419.68,0.88629
5413.9,0.87143
5408.11,0.87784
5402.32,0.88587
5396.54,0.88067
5390.75,0.88241
5384.97,0.88250
5379.18,0.88479
5373.39,0.88417
5367.61,0.88999
5361.82,0.88901
5356.04,0.88471
5350.25,0.88642
5344.46,0.87822
5338.68,0.88135
5332.89,0.88900
5327.1,0.88721
5321.32,0.89648
5315.53,0.89604
5309.75,0.89457
5303.96,0.89446
5298.17,0.89610
5292.39,0.89604
5286.6,0.89247
5280.82,0.89393
5275.03,0.89518
5269.24,0.89050
5263.46,0.88303
5257.67,0.88886
5251.88,0.89149
5246.1,0.88333
5240.31,0.89429
5234.53,0.89492
5228.74,0.89278
5222.95,0.89352
5217.17,0.89620
5211.38,0.89665
5205.6,0.88608
5199.81,0.89785
5194.02,0.89720
5188.24,0.89443
5182.45,0.89605
5176.66,0.89594
5170.88,0.89833
5165.09,0.89595
5159.31,0.89734
5153.52,0.89658
5147.73,0.89893
5141.95,0.89794
5136.16,0.89857
5130.38,0.89697
5124.59,0.89679
5118.8,0.89583
5113.02,0.89672
5107.23,0.89758
5101.45,0.89900
5095.66,0.89771
5089.87,0.89801
5084.09,0.89854
5078.3,0.90057
5072.51,0.89939
5066.73,0.90153
5060.94,0.90274
5055.16,0.90129
5049.37,0.90301
5043.58,0.90289
5037.8,0.90325
5032.01,0.90395
5026.23,0.90335
5020.44,0.90268
5014.65,0.90301
5008.87,0.90287
5003.08,0.90387
4997.29,0.90444
4991.51,0.90281
4985.72,0.90512
4979.94,0.90323
4974.15,0.90436
4968.36,0.90570
4962.58,0.90500
4956.79,0.90479
4951.01,0.90403
4945.22,0.90492
4939.43,0.90509
4933.65,0.90655
4927.86,0.90502
4922.07,0.90475
4916.29,0.90342
4910.5,0.90509
4904.72,0.90395
4898.93,0.90500
4893.14,0.90580
4887.36,0.90349
4881.57,0.90470
4875.79,0.90441
4870,0.90296
4864.21,0.90311
4858.43,0.90181
4852.64,0.90360
4846.85,0.90320
4841.07,0.90408
4835.28,0.90249
4829.5,0.90441
4823.71,0.90530
4817.92,0.90263
4812.14,0.90527
4806.35,0.90320
4800.57,0.90106
4794.78,0.90055
4788.99,0.90015
4783.21,0.90101
4777.42,0.90050
4771.64,0.90333
4765.85,0.90265
4760.06,0.90305
4754.28,0.90290
4748.49,0.90234
4742.7,0.90070
4736.92,0.89914
4731.13,0.89871
4725.35,0.89501
4719.56,0.88816
4713.77,0.88531
4707.99,0.88439
4702.2,0.88200
4696.42,0.87508
4690.63,0.86652
4684.84,0.86322
4679.06,0.86650
4673.27,0.87108
4667.48,0.87619
4661.7,0.87874
4655.91,0.87795
4650.13,0.87826
4644.34,0.87631
4638.55,0.87021
4632.77,0.86453
4626.98,0.86564
4621.2,0.87564
4615.41,0.88130
4609.62,0.88532
4603.84,0.88682
4598.05,0.88653
4592.26,0.88405
4586.48,0.88425
4580.69,0.88318
4574.91,0.88040
4569.12,0.88352
4563.33,0.88786
4557.55,0.88917
4551.76,0.88983
4545.98,0.88824
4540.19,0.88690
4534.4,0.88651
4528.62,0.88568
4522.83,0.88439
4517.05,0.88093
4511.26,0.87991
4505.47,0.87578
4499.69,0.87198
4493.9,0.86582
4488.11,0.85920
4482.33,0.85526
4476.54,0.85146
4470.76,0.84728
4464.97,0.84279
4459.18,0.83618
4453.4,0.82456
4447.61,0.80986
4441.83,0.79427
4436.04,0.77423
4430.25,0.74995
4424.47,0.72434
4418.68,0.69608
4412.89,0.66947
4407.11,0.64492
4401.32,0.62601
4395.54,0.61683
4389.75,0.61220
4383.96,0.59568
4378.18,0.57051
4372.39,0.54074
4366.61,0.50670
4360.82,0.47045
4355.03,0.43840
4349.25,0.41104
4343.46,0.38357
4337.67,0.35746
4331.89,0.35126
4326.1,0.37460
4320.32,0.41027
4314.53,0.44564
4308.74,0.46716
4302.96,0.47828
4297.17,0.48152
4291.39,0.48155
4285.6,0.47596
4279.81,0.47078
4274.03,0.47194
4268.24,0.47618
4262.46,0.48383
4256.67,0.48852
4250.88,0.48852
4245.1,0.48775
4239.31,0.48611
4233.52,0.48041
4227.74,0.47438
4221.95,0.46829
4216.17,0.46487
4210.38,0.46610
4204.59,0.47538
4198.81,0.48746
4193.02,0.50014
4187.24,0.50631
4181.45,0.50200
4175.66,0.49308
4169.88,0.48945
4164.09,0.49928
4158.3,0.51837
4152.52,0.53517
4146.73,0.54666
4140.95,0.56039
4135.16,0.57435
4129.37,0.58392
4123.59,0.58717
4117.8,0.58521
4112.02,0.57923
4106.23,0.57270
4100.44,0.56414
4094.66,0.54616
4088.87,0.51635
4083.08,0.49639
4077.3,0.51175
4071.51,0.53956
4065.73,0.56432
4059.94,0.58725
4054.15,0.60655
4048.37,0.61684
4042.58,0.62220
4036.8,0.62742
4031.01,0.62943
4025.22,0.62924
4019.44,0.62972
4013.65,0.63524
4007.86,0.64217
4002.08,0.65304
3996.29,0.66230
3990.51,0.67115
3984.72,0.68068
3978.93,0.68711
3973.15,0.69188
3967.36,0.69833
3961.58,0.70034
3955.79,0.70306
3950,0.69848
3944.22,0.69848
3938.43,0.70379
3932.65,0.69703
3926.86,0.69780
3921.07,0.69674
3915.29,0.70021
3909.5,0.70664
3903.71,0.68516
3897.93,0.69852
3892.14,0.70200
3886.36,0.70576
3880.57,0.70381
3874.78,0.70818
3869,0.69909
3863.21,0.70032
3857.43,0.70637
3851.64,0.69317
3845.85,0.71589
3840.07,0.69610
3834.28,0.70841
3828.49,0.71871
3822.71,0.70980
3816.92,0.71436
3811.14,0.73734
3805.35,0.72323
3799.56,0.72055
3793.78,0.74786
3787.99,0.75499
3782.21,0.75221
3776.42,0.75849
3770.63,0.74866
3764.85,0.75023
3759.06,0.73874
3753.27,0.72699
3747.49,0.72385
3741.7,0.73917
3735.92,0.72378
3730.13,0.74586
3724.34,0.74886
3718.56,0.76766
3712.77,0.75142
3706.99,0.75100
3701.2,0.73900
3695.41,0.72307
3689.63,0.67519
3683.84,0.67360
3678.06,0.65428
3672.27,0.65360
3666.48,0.67657
3660.7,0.68777
3654.91,0.68359
3649.12,0.65815
3643.34,0.69178
3637.55,0.69102
3631.77,0.67303
3625.98,0.66188
3620.19,0.65143
3614.41,0.64304
3608.62,0.64015
3602.84,0.63977
3597.05,0.62795
3591.26,0.62514
3585.48,0.61384
3579.69,0.61505
3573.9,0.60564
3568.12,0.58037
3562.33,0.57312
3556.55,0.56775
3550.76,0.55543
3544.97,0.54664
3539.19,0.55049
3533.4,0.54595
3527.62,0.53719
3521.83,0.53566
3516.04,0.53398
3510.26,0.52265
3504.47,0.51180
3498.68,0.50138
3492.9,0.48789
3487.11,0.47103
3481.33,0.45277
3475.54,0.43940
3469.75,0.42584
3463.97,0.41234
3458.18,0.40179
3452.4,0.38787
3446.61,0.36579
3440.82,0.34144
3435.04,0.31594
3429.25,0.29525
3423.47,0.28898
3417.68,0.29894
3411.89,0.32170
3406.11,0.35236
3400.32,0.38279
3394.53,0.41054
3388.75,0.43422
3382.96,0.45191
3377.18,0.46647
3371.39,0.48020
3365.6,0.48827
3359.82,0.49714
3354.03,0.50169
3348.25,0.50253
3342.46,0.50031
3336.67,0.49230
3330.89,0.48696
3325.1,0.48145
3319.31,0.46767
3313.53,0.42649
3307.74,0.34816
3301.96,0.29176
3296.17,0.32449
3290.38,0.39472
3284.6,0.45226
3278.81,0.49115
3273.03,0.52064
3267.24,0.54029
3261.45,0.55345
3255.67,0.56200
3249.88,0.56587
3244.09,0.56618
3238.31,0.56475
3232.52,0.56041
3226.74,0.55672
3220.95,0.55317
3215.16,0.55178
3209.38,0.54840
3203.59,0.54349
3197.81,0.53923
3192.02,0.53805
3186.23,0.53823
3180.45,0.53996
3174.66,0.54087
3168.87,0.54204
3163.09,0.54162
3157.3,0.54046
3151.52,0.53722
3145.73,0.53074
3139.94,0.52350
3134.16,0.51148
3128.37,0.49685
3122.59,0.49007
3116.8,0.48582
3111.01,0.47136
3105.23,0.44775
3099.44,0.41643
3093.66,0.39722
3087.87,0.37202
3082.08,0.34072
3076.3,0.33395
3070.51,0.31802
3064.72,0.29117
3058.94,0.28470
3053.15,0.27050
3047.37,0.28299
3041.58,0.28769
3035.79,0.26905
3030.01,0.24036
3024.22,0.20991
3018.44,0.17149
3012.65,0.12850
3006.86,0.08354
3001.08,0.04369
2995.29,0.01593
2989.5,0.00311
2983.72,0.00034
2977.93,0.00016
2972.15,0.00069
2966.36,0.00048
2960.57,0.00034
2954.79,0.00064
2949,0.00064
2943.22,0.00039
2937.43,0.00017
2931.64,0.00060
2925.86,0.00082
2920.07,0.00055
2914.28,0.00072
2908.5,0.00025
2902.71,0.00041
2896.93,0.00071
2891.14,0.00059
2885.35,0.00057
2879.57,0.00034
2873.78,0.00107
2868,0.00074
2862.21,0.00065
2856.42,0.00042
2850.64,0.00055
2844.85,0.00099
2839.07,0.00890
2833.28,0.02733
2827.49,0.04911
2821.71,0.06124
2815.92,0.07102
2810.13,0.11475
2804.35,0.16993
2798.56,0.21599
2792.78,0.25642
2786.99,0.29061
2781.2,0.32028
2775.42,0.34427
2769.63,0.35951
2763.85,0.36757
2758.06,0.36924
2752.27,0.36206
2746.49,0.35015
2740.7,0.33486
2734.91,0.32435
2729.13,0.33759
2723.34,0.37589
2717.56,0.40649
2711.77,0.42626
2705.98,0.44206
2700.2,0.45413
2694.41,0.46171
2688.63,0.46412
2682.84,0.46061
2677.05,0.45247
2671.27,0.45154
2665.48,0.46212
2659.69,0.48152
2653.91,0.49850
2648.12,0.50821
2642.34,0.50850
2636.55,0.49992
2630.76,0.48886
2624.98,0.48649
2619.19,0.48624
2613.41,0.48480
2607.62,0.48420
2601.83,0.48517
2596.05,0.48697
2590.26,0.48567
2584.47,0.48184
2578.69,0.47931
2572.9,0.48497
2567.12,0.49411
2561.33,0.49927
2555.54,0.50159
2549.76,0.50680
2543.97,0.51538
2538.19,0.52288
2532.4,0.52672
2526.61,0.53168
2520.83,0.54207
2515.04,0.55554
2509.26,0.56941
2503.47,0.58108
2497.68,0.58902
2491.9,0.59432
2486.11,0.59819
2480.32,0.60354
2474.54,0.60872
2468.75,0.61468
2462.97,0.61673
2457.18,0.61760
2451.39,0.61539
2445.61,0.61090
2439.82,0.60478
2434.04,0.59698
2428.25,0.58593
2422.46,0.57239
2416.68,0.56164
2410.89,0.55264
2405.1,0.54336
2399.32,0.53462
2393.53,0.52537
2387.75,0.51467
2381.96,0.49360
2376.17,0.45717
2370.39,0.42700
2364.6,0.40807
2358.82,0.41273
2353.03,0.45895
2347.24,0.49484
2341.46,0.48446
2335.67,0.50262
2329.88,0.51765
2324.1,0.53086
2318.31,0.56134
2312.53,0.58925
2306.74,0.60959
2300.95,0.61969
2295.17,0.62015
2289.38,0.61377
2283.6,0.60139
2277.81,0.58996
2272.02,0.59766
2266.24,0.61343
2260.45,0.62089
2254.67,0.62326
2248.88,0.62364
2243.09,0.62171
2237.31,0.62002
2231.52,0.62053
2225.73,0.62426
2219.95,0.63064
2214.16,0.63492
2208.38,0.63731
2202.59,0.65326
2196.8,0.66748
2191.02,0.67448
2185.23,0.68244
2179.45,0.68973
2173.66,0.69345
2167.87,0.69311
2162.09,0.68987
2156.3,0.68663
2150.51,0.68537
2144.73,0.68295
2138.94,0.68052
2133.16,0.67907
2127.37,0.67836
2121.58,0.67600
2115.8,0.67308
2110.01,0.67143
2104.23,0.67076
2098.44,0.66917
2092.65,0.66594
2086.87,0.66141
2081.08,0.65655
2075.29,0.65393
2069.51,0.65306
2063.72,0.65365
2057.94,0.65945
2052.15,0.66580
2046.36,0.67155
2040.58,0.67461
2034.79,0.67759
2029.01,0.67977
2023.22,0.68422
2017.43,0.68808
2011.65,0.69560
2005.86,0.69573
2000.08,0.69175
1994.29,0.67623
1988.5,0.66172
1982.72,0.65959
1976.93,0.65273
1971.14,0.63634
1965.36,0.60679
1959.57,0.56622
1953.79,0.50760
1948,0.48317
1942.21,0.51594
1936.43,0.56393
1930.64,0.59984
1924.86,0.61973
1919.07,0.62744
1913.28,0.63731
1907.5,0.63871
1901.71,0.64679
1895.92,0.64557
1890.14,0.64601
1884.35,0.65252
1878.57,0.65588
1872.78,0.65208
1866.99,0.63733
1861.21,0.63876
1855.42,0.62247
1849.64,0.59354
1843.85,0.55258
1838.06,0.52764
1832.28,0.47514
1826.49,0.41391
1820.7,0.40382
1814.92,0.42156
1809.13,0.42960
1803.35,0.42520
1797.56,0.40385
1791.77,0.36869
1785.99,0.33987
1780.2,0.29865
1774.42,0.26015
1768.63,0.21282
1762.84,0.16070
1757.06,0.08645
1751.27,0.03165
1745.48,0.00632
1739.7,0.00083
1733.91,0.00084
1728.13,0.00033
1722.34,0.00037
1716.55,0.00056
1710.77,0.00024
1704.98,0.00004
1699.2,0.00238
1693.41,0.02490
1687.62,0.04873
1681.84,0.06372
1676.05,0.07424
1670.27,0.10237
1664.48,0.18257
1658.69,0.25877
1652.91,0.27681
1647.12,0.26442
1641.33,0.19695
1635.55,0.17217
1629.76,0.27362
1623.98,0.31332
1618.19,0.29837
1612.4,0.25883
1606.62,0.28854
1600.83,0.33788
1595.05,0.34835
1589.26,0.33269
1583.47,0.22650
1577.69,0.09839
1571.9,0.16338
1566.11,0.21297
1560.33,0.23339
1554.54,0.25934
1548.76,0.26546
1542.97,0.22856
1537.18,0.21820
1531.4,0.24261
1525.61,0.24701
1519.83,0.26579
1514.04,0.23638
1508.25,0.12944
1502.47,0.07719
1496.68,0.19179
1490.89,0.18999
1485.11,0.11164
1479.32,0.03870
1473.54,0.00463
1467.75,0.00037
1461.96,0.00069
1456.18,0.00014
1450.39,0.00065
1444.61,0.00080
1438.82,0.00029
1433.03,0.00029
1427.25,0.00057
1421.46,0.00044
1415.68,0.00046
1409.89,0.00024
1404.1,0.00173
1398.32,0.00493
1392.53,0.00149
1386.74,0.00043
1380.96,0.00045
1375.17,0.00062
1369.39,0.00120
1363.6,0.00153
1357.81,0.00081
1352.03,0.00086
1346.24,0.00082
1340.46,0.00026
1334.67,0.00035
1328.88,0.00021
1323.1,0.00030
1317.31,0.00031
1311.52,0.00014
1305.74,0.00026
1299.95,0.00020
1294.17,0.00022
1288.38,0.00040
1282.59,0.00030
1276.81,0.00034
1271.02,0.00035
1265.24,0.00007
1259.45,0.00053
1253.66,0.00017
1247.88,0.00040
1242.09,0.00034
1236.3,0.00022
1230.52,0.00026
1224.73,0.00076
1218.95,0.00295
1213.16,0.00283
1207.37,0.00241
1201.59,0.00152
1195.8,0.00213
1190.02,0.00535
1184.23,0.01208
1178.44,0.01171
1172.66,0.00483
1166.87,0.00739
1161.09,0.00759
1155.3,0.00611
1149.51,0.00434
1143.73,0.00438
1137.94,0.00230
1132.15,0.00022
1126.37,0.00067
1120.58,0.00051
1114.8,0.00074
1109.01,0.00040
1103.22,0.00078
1097.44,0.00043
1091.65,0.00037
1085.87,0.00076
1080.08,0.00118
1074.29,0.00445
1068.51,0.00930
1062.72,0.01435
1056.93,0.01935
1051.15,0.02466
1045.36,0.02620
1039.58,0.02313
1033.79,0.01754
1028,0.00931
1022.22,0.00086
1016.43,0.00070
1010.65,0.00705
1004.86,0.00846
999.073,0.00471
993.287,0.00216
987.501,0.00133
981.715,0.00071
975.929,0.00028
970.142,0.00036
964.356,0.00028
958.57,0.00049
952.784,0.00083
946.998,0.00059
941.212,0.00130
935.426,0.00174
929.64,0.00374
923.853,0.00361
918.067,0.00727
912.281,0.01254
906.495,0.01671
900.709,0.02634
894.923,0.03478
889.137,0.04615
883.35,0.03299
877.564,0.00493
871.778,0.00533
865.992,0.02669
860.206,0.03849
854.42,0.03948
848.634,0.03896
842.847,0.03711
837.061,0.03002
831.275,0.02932
825.489,0.07013
819.703,0.13300
813.917,0.15953
808.131,0.16160
802.344,0.17069
796.558,0.12035
790.772,0.13082
784.986,0.10189
779.2,0.08750
773.414,0.06720
767.628,0.05796
761.842,0.10186
756.055,0.16086
750.269,0.14602
744.483,0.06493
738.697,0.00592
732.911,0.00068
727.125,0.00054
721.339,0.01233
715.552,0.02265
709.766,0.00994
703.98,0.00157
698.194,0.00103
692.408,0.00050
686.622,0.00143
680.836,0.00285
675.049,0.00488
669.263,0.01254
663.477,0.02241
657.691,0.01177
651.905,0.00242
646.119,0.00174
640.333,0.00125
634.546,0.00215
628.76,0.00088
622.974,0.00081
617.188,0.00141
611.402,0.00249
605.616,-0.00048
599.83,0.00470