File: 01_Data/PEVA/FTIR/IS/PEVA_0.10_IS_Trans_S_240819_R1.dpt
7496.91,0.94128
7491.12,0.92788
7485.33,0.93820
7479.55,0.92714
7473.76,0.92630
7467.98,0.92420
7462.19,0.93106
7456.4,0.92792
7450.62,0.95009
7444.83,0.94103
7439.04,0.93720
7433.26,0.94246
7427.47,0.94433
7421.69,0.94185
7415.9,0.94456
7410.11,0.94143
7404.33,0.92582
7398.54,0.93798
7392.76,0.95176
7386.97,0.93509
7381.18,0.91505
7375.4,0.92001
7369.61,0.91635
7363.83,0.93100
7358.04,0.92808
7352.25,0.93356
7346.47,0.90849
7340.68,0.90468
7334.89,0.93982
7329.11,0.90226
7323.32,0.91764
7317.54,0.91332
7311.75,0.91444
7305.96,0.92381
7300.18,0.92187
7294.39,0.91909
7288.61,0.92482
7282.82,0.93722
7277.03,0.95397
7271.25,0.93257
7265.46,0.94259
7259.67,0.91478
7253.89,0.92089
7248.1,0.93254
7242.32,0.89933
7236.53,0.92672
7230.74,0.91308
7224.96,0.91696
7219.17,0.91165
7213.39,0.93394
7207.6,0.91301
7201.81,0.90540
7196.03,0.90703
7190.24,0.91517
7184.45,0.90943
7178.67,0.91442
7172.88,0.92322
7167.1,0.91425
7161.31,0.91457
7155.52,0.92213
7149.74,0.91896
7143.95,0.91113
7138.17,0.91112
7132.38,0.92155
7126.59,0.91941
7120.81,0.91986
7115.02,0.92080
7109.23,0.93851
7103.45,0.91312
7097.66,0.92059
7091.88,0.91886
7086.09,0.92511
7080.3,0.91655
7074.52,0.91982
7068.73,0.92075
7062.95,0.92338
7057.16,0.92664
7051.37,0.93317
7045.59,0.91853
7039.8,0.92501
7034.02,0.93615
7028.23,0.92306
7022.44,0.91353
7016.66,0.92533
7010.87,0.93014
7005.08,0.91906
6999.3,0.92949
6993.51,0.92951
6987.73,0.92323
6981.94,0.93175
6976.15,0.92565
6970.37,0.92899
6964.58,0.92886
6958.8,0.93071
6953.01,0.92487
6947.22,0.92072
6941.44,0.93114
6935.65,0.92526
6929.86,0.93116
6924.08,0.93137
6918.29,0.92673
6912.51,0.93088
6906.72,0.92945
6900.93,0.93576
6895.15,0.93209
6889.36,0.93820
6883.58,0.93144
6877.79,0.93148
6872,0.93165
6866.22,0.92660
6860.43,0.93268
6854.64,0.93760
6848.86,0.93465
6843.07,0.92431
6837.29,0.93491
6831.5,0.93931
6825.71,0.94173
6819.93,0.93921
6814.14,0.94226
6808.36,0.93807
6802.57,0.92678
6796.78,0.92262
6791,0.93744
6785.21,0.94152
6779.43,0.94074
6773.64,0.93677
6767.85,0.92753
6762.07,0.92543
6756.28,0.93336
6750.49,0.94368
6744.71,0.94505
6738.92,0.94013
6733.14,0.92762
6727.35,0.92913
6721.56,0.93981
6715.78,0.94274
6709.99,0.94583
6704.21,0.94182
6698.42,0.93993
6692.63,0.92903
6686.85,0.93734
6681.06,0.94144
6675.27,0.94102
6669.49,0.94003
6663.7,0.94427
6657.92,0.93901
6652.13,0.93623
6646.34,0.94444
6640.56,0.93761
6634.77,0.93935
6628.99,0.94131
6623.2,0.93895
6617.41,0.94141
6611.63,0.94704
6605.84,0.94252
6600.05,0.93703
6594.27,0.93737
6588.48,0.93780
6582.7,0.94051
6576.91,0.94561
6571.12,0.94238
6565.34,0.93916
6559.55,0.93255
6553.77,0.93859
6547.98,0.94169
6542.19,0.94145
6536.41,0.94138
6530.62,0.94057
6524.84,0.93943
6519.05,0.94207
6513.26,0.94456
6507.48,0.93713
6501.69,0.93831
6495.9,0.93125
6490.12,0.93642
6484.33,0.93396
6478.55,0.92782
6472.76,0.94530
6466.97,0.93956
6461.19,0.94231
6455.4,0.93674
6449.62,0.93255
6443.83,0.94219
6438.04,0.94200
6432.26,0.93403
6426.47,0.94022
6420.68,0.93504
6414.9,0.93413
6409.11,0.94502
6403.33,0.94211
6397.54,0.94759
6391.75,0.93583
6385.97,0.93558
6380.18,0.94195
6374.4,0.94230
6368.61,0.94101
6362.82,0.95234
6357.04,0.94066
6351.25,0.93816
6345.46,0.93589
6339.68,0.93819
6333.89,0.93419
6328.11,0.94403
6322.32,0.94312
6316.53,0.93347
6310.75,0.93702
6304.96,0.93256
6299.18,0.93740
6293.39,0.93421
6287.6,0.94230
6281.82,0.93916
6276.03,0.93833
6270.24,0.93813
6264.46,0.93930
6258.67,0.93558
6252.89,0.93685
6247.1,0.93630
6241.31,0.93499
6235.53,0.94027
6229.74,0.94009
6223.96,0.93900
6218.17,0.94112
6212.38,0.93975
6206.6,0.93472
6200.81,0.93998
6195.03,0.94163
6189.24,0.93157
6183.45,0.94004
6177.67,0.93700
6171.88,0.93951
6166.09,0.93481
6160.31,0.93847
6154.52,0.93767
6148.74,0.93361
6142.95,0.94044
6137.16,0.94048
6131.38,0.93758
6125.59,0.93818
6119.81,0.93720
6114.02,0.93353
6108.23,0.93396
6102.45,0.93420
6096.66,0.93111
6090.87,0.93736
6085.09,0.93310
6079.3,0.93434
6073.52,0.93345
6067.73,0.93142
6061.94,0.93504
6056.16,0.92873
6050.37,0.93583
6044.59,0.93593
6038.8,0.92958
6033.01,0.93185
6027.23,0.93001
6021.44,0.93006
6015.65,0.93073
6009.87,0.92815
6004.08,0.92781
5998.3,0.93102
5992.51,0.92692
5986.72,0.93033
5980.94,0.93071
5975.15,0.93128
5969.37,0.92853
5963.58,0.92509
5957.79,0.92176
5952.01,0.92593
5946.22,0.92550
5940.44,0.92303
5934.65,0.92261
5928.86,0.92360
5923.08,0.92367
5917.29,0.91864
5911.5,0.91437
5905.72,0.92168
5899.93,0.91949
5894.15,0.91698
5888.36,0.91194
5882.57,0.91509
5876.79,0.90912
5871,0.90664
5865.22,0.90242
5859.43,0.89514
5853.64,0.88850
5847.86,0.88253
5842.07,0.87922
5836.28,0.87643
5830.5,0.86987
5824.71,0.86300
5818.93,0.85201
5813.14,0.84867
5807.35,0.84358
5801.57,0.83394
5795.78,0.82478
5790,0.80878
5784.21,0.79252
5778.42,0.77469
5772.64,0.77767
5766.85,0.80129
5761.06,0.82648
5755.28,0.84498
5749.49,0.85960
5743.71,0.86918
5737.92,0.87789
5732.13,0.88344
5726.35,0.88538
5720.56,0.88595
5714.78,0.88749
5708.99,0.89014
5703.2,0.88630
5697.42,0.88137
5691.63,0.87537
5685.84,0.86873
5680.06,0.86690
5674.27,0.86141
5668.49,0.85330
5662.7,0.85045
5656.91,0.85881
5651.13,0.87421
5645.34,0.88472
5639.56,0.88698
5633.77,0.89194
5627.98,0.89393
5622.2,0.89499
5616.41,0.89633
5610.63,0.89609
5604.84,0.89970
5599.05,0.89949
5593.27,0.90086
5587.48,0.89965
5581.69,0.89655
5575.91,0.89568
5570.12,0.89685
5564.34,0.89805
5558.55,0.89805
5552.76,0.89303
5546.98,0.89187
5541.19,0.89204
5535.41,0.89186
5529.62,0.89635
5523.83,0.89587
5518.05,0.89244
5512.26,0.89110
5506.47,0.88336
5500.69,0.89202
5494.9,0.88624
5489.12,0.88311
5483.33,0.89821
5477.54,0.88751
5471.76,0.88728
5465.97,0.88455
5460.19,0.88743
5454.4,0.89485
5448.61,0.88396
5442.83,0.87492
5437.04,0.88594
5431.25,0.88010
5425.47,0.89123
5419.68,0.90468
5413.9,0.87635
5408.11,0.88884
5402.32,0.89909
5396.54,0.89038
5390.75,0.90174
5384.97,0.89452
5379.18,0.89863
5373.39,0.89450
5367.61,0.90642
5361.82,0.90153
5356.04,0.89667
5350.25,0.89309
5344.46,0.87918
5338.68,0.87973
5332.89,0.89993
5327.1,0.89473
5321.32,0.91352
5315.53,0.91050
5309.75,0.90669
5303.96,0.90673
5298.17,0.90688
5292.39,0.90640
5286.6,0.90702
5280.82,0.90950
5275.03,0.91449
5269.24,0.90477
5263.46,0.88850
5257.67,0.90313
5251.88,0.90249
5246.1,0.88798
5240.31,0.91082
5234.53,0.91050
5228.74,0.90047
5222.95,0.90037
5217.17,0.90569
5211.38,0.90978
5205.6,0.89176
5199.81,0.91139
5194.02,0.91018
5188.24,0.90669
5182.45,0.90721
5176.66,0.91527
5170.88,0.91258
5165.09,0.90975
5159.31,0.91130
5153.52,0.91291
5147.73,0.91802
5141.95,0.91410
5136.16,0.91799
5130.38,0.91670
5124.59,0.91649
5118.8,0.91441
5113.02,0.91913
5107.23,0.91810
5101.45,0.91857
5095.66,0.91666
5089.87,0.91671
5084.09,0.91854
5078.3,0.91988
5072.51,0.92104
5066.73,0.91883
5060.94,0.91644
5055.16,0.91933
5049.37,0.91919
5043.58,0.92078
5037.8,0.92203
5032.01,0.92001
5026.23,0.91857
5020.44,0.91817
5014.65,0.91880
5008.87,0.92051
5003.08,0.91894
4997.29,0.91745
4991.51,0.91815
4985.72,0.91616
4979.94,0.91775
4974.15,0.91808
4968.36,0.91676
4962.58,0.91649
4956.79,0.91374
4951.01,0.91823
4945.22,0.91981
4939.43,0.92155
4933.65,0.92306
4927.86,0.92046
4922.07,0.91953
4916.29,0.91996
4910.5,0.91969
4904.72,0.92088
4898.93,0.92116
4893.14,0.91945
4887.36,0.92021
4881.57,0.91915
4875.79,0.91862
4870,0.91879
4864.21,0.91971
4858.43,0.92028
4852.64,0.91974
4846.85,0.92042
4841.07,0.92318
4835.28,0.92354
4829.5,0.92359
4823.71,0.92297
4817.92,0.92156
4812.14,0.92175
4806.35,0.92433
4800.57,0.92585
4794.78,0.92744
4788.99,0.92555
4783.21,0.92348
4777.42,0.92368
4771.64,0.92591
4765.85,0.92745
4760.06,0.92822
4754.28,0.92662
4748.49,0.92499
4742.7,0.92378
4736.92,0.92638
4731.13,0.92800
4725.35,0.92776
4719.56,0.92700
4713.77,0.92587
4707.99,0.92591
4702.2,0.92524
4696.42,0.92903
4690.63,0.92997
4684.84,0.92775
4679.06,0.92491
4673.27,0.92465
4667.48,0.92572
4661.7,0.92759
4655.91,0.92937
4650.13,0.92714
4644.34,0.92615
4638.55,0.92539
4632.77,0.92633
4626.98,0.92932
4621.2,0.92817
4615.41,0.92693
4609.62,0.92616
4603.84,0.92461
4598.05,0.92567
4592.26,0.92765
4586.48,0.92900
4580.69,0.92641
4574.91,0.92429
4569.12,0.92321
4563.33,0.92298
4557.55,0.92507
4551.76,0.92633
4545.98,0.92539
4540.19,0.92164
4534.4,0.92004
4528.62,0.91888
4522.83,0.92167
4517.05,0.92314
4511.26,0.92228
4505.47,0.91670
4499.69,0.91584
4493.9,0.91384
4488.11,0.91530
4482.33,0.91608
4476.54,0.91408
4470.76,0.91008
4464.97,0.90659
4459.18,0.90434
4453.4,0.90491
4447.61,0.90477
4441.83,0.90091
4436.04,0.89614
4430.25,0.88995
4424.47,0.88495
4418.68,0.88116
4412.89,0.87531
4407.11,0.86501
4401.32,0.85043
4395.54,0.83680
4389.75,0.82383
4383.96,0.81263
4378.18,0.80073
4372.39,0.78544
4366.61,0.76768
4360.82,0.74649
4355.03,0.71641
4349.25,0.67114
4343.46,0.60974
4337.67,0.55463
4331.89,0.49624
4326.1,0.40205
4320.32,0.38068
4314.53,0.55928
4308.74,0.67566
4302.96,0.72371
4297.17,0.73702
4291.39,0.73319
4285.6,0.72113
4279.81,0.71060
4274.03,0.69593
4268.24,0.66714
4262.46,0.61126
4256.67,0.53026
4250.88,0.48601
4245.1,0.58213
4239.31,0.65694
4233.52,0.67246
4227.74,0.65869
4221.95,0.63664
4216.17,0.63616
4210.38,0.64108
4204.59,0.63059
4198.81,0.60351
4193.02,0.58501
4187.24,0.58533
4181.45,0.58801
4175.66,0.59135
4169.88,0.59335
4164.09,0.59697
4158.3,0.59876
4152.52,0.59834
4146.73,0.60026
4140.95,0.60375
4135.16,0.60888
4129.37,0.61438
4123.59,0.61736
4117.8,0.61828
4112.02,0.61837
4106.23,0.61424
4100.44,0.61458
4094.66,0.62213
4088.87,0.64368
4083.08,0.66963
4077.3,0.68597
4071.51,0.69629
4065.73,0.70573
4059.94,0.71496
4054.15,0.72490
4048.37,0.73092
4042.58,0.73525
4036.8,0.74235
4031.01,0.74360
4025.22,0.74119
4019.44,0.74855
4013.65,0.77085
4007.86,0.77930
4002.08,0.78552
3996.29,0.78409
3990.51,0.78343
3984.72,0.78595
3978.93,0.78444
3973.15,0.78135
3967.36,0.78931
3961.58,0.78791
3955.79,0.78968
3950,0.77744
3944.22,0.77852
3938.43,0.78630
3932.65,0.76293
3926.86,0.76123
3921.07,0.75754
3915.29,0.76200
3909.5,0.77490
3903.71,0.72366
3897.93,0.74756
3892.14,0.74565
3886.36,0.75128
3880.57,0.74585
3874.78,0.75175
3869,0.73373
3863.21,0.74211
3857.43,0.75531
3851.64,0.72875
3845.85,0.77404
3840.07,0.72620
3834.28,0.74890
3828.49,0.76712
3822.71,0.73994
3816.92,0.74169
3811.14,0.78892
3805.35,0.76250
3799.56,0.75543
3793.78,0.80611
3787.99,0.81267
3782.21,0.80195
3776.42,0.81444
3770.63,0.79917
3764.85,0.80191
3759.06,0.78445
3753.27,0.75913
3747.49,0.73633
3741.7,0.76287
3735.92,0.72413
3730.13,0.76566
3724.34,0.75888
3718.56,0.79274
3712.77,0.76560
3706.99,0.78100
3701.2,0.78375
3695.41,0.79291
3689.63,0.74439
3683.84,0.79963
3678.06,0.76019
3672.27,0.75053
3666.48,0.79396
3660.7,0.80315
3654.91,0.77199
3649.12,0.69925
3643.34,0.76204
3637.55,0.77715
3631.77,0.75773
3625.98,0.75998
3620.19,0.74825
3614.41,0.73033
3608.62,0.70920
3602.84,0.71341
3597.05,0.74512
3591.26,0.79760
3585.48,0.81049
3579.69,0.84545
3573.9,0.85294
3568.12,0.81814
3562.33,0.84788
3556.55,0.87363
3550.76,0.86703
3544.97,0.85728
3539.19,0.88211
3533.4,0.88023
3527.62,0.86218
3521.83,0.87300
3516.04,0.88959
3510.26,0.87916
3504.47,0.87093
3498.68,0.87949
3492.9,0.88452
3487.11,0.88120
3481.33,0.87705
3475.54,0.88286
3469.75,0.87970
3463.97,0.87360
3458.18,0.87413
3452.4,0.87503
3446.61,0.86422
3440.82,0.86891
3435.04,0.86934
3429.25,0.86692
3423.47,0.86554
3417.68,0.86952
3411.89,0.87346
3406.11,0.87305
3400.32,0.86879
3394.53,0.86464
3388.75,0.86549
3382.96,0.86384
3377.18,0.86472
3371.39,0.86347
3365.6,0.85853
3359.82,0.86100
3354.03,0.86534
3348.25,0.86974
3342.46,0.87303
3336.67,0.87183
3330.89,0.87421
3325.1,0.87241
3319.31,0.87441
3313.53,0.87587
3307.74,0.87654
3301.96,0.87932
3296.17,0.87660
3290.38,0.87233
3284.6,0.87459
3278.81,0.87535
3273.03,0.87438
3267.24,0.87822
3261.45,0.87437
3255.67,0.87000
3249.88,0.87252
3244.09,0.87097
3238.31,0.87358
3232.52,0.87045
3226.74,0.86643
3220.95,0.86080
3215.16,0.85955
3209.38,0.85966
3203.59,0.85883
3197.81,0.85104
3192.02,0.84893
3186.23,0.84396
3180.45,0.84406
3174.66,0.84279
3168.87,0.83999
3163.09,0.83451
3157.3,0.82954
3151.52,0.82663
3145.73,0.82443
3139.94,0.82092
3134.16,0.81113
3128.37,0.80285
3122.59,0.79163
3116.8,0.78190
3111.01,0.77235
3105.23,0.75349
3099.44,0.72112
3093.66,0.68574
3087.87,0.65532
3082.08,0.63401
3076.3,0.61896
3070.51,0.60376
3064.72,0.58430
3058.94,0.56708
3053.15,0.54487
3047.37,0.51664
3041.58,0.48553
3035.79,0.45383
3030.01,0.42450
3024.22,0.39989
3018.44,0.37543
3012.65,0.35000
3006.86,0.32240
3001.08,0.28893
2995.29,0.24933
2989.5,0.20132
2983.72,0.14371
2977.93,0.08052
2972.15,0.02944
2966.36,0.00584
2960.57,0.00146
2954.79,0.00059
2949,0.00088
2943.22,0.00119
2937.43,0.00078
2931.64,0.00031
2925.86,0.00061
2920.07,0.00082
2914.28,0.00123
2908.5,0.00080
2902.71,0.00085
2896.93,0.00051
2891.14,0.00042
2885.35,0.00065
2879.57,0.00057
2873.78,0.00082
2868,0.00142
2862.21,0.00087
2856.42,0.00077
2850.64,0.00058
2844.85,0.00121
2839.07,0.00103
2833.28,0.00462
2827.49,0.01755
2821.71,0.04085
2815.92,0.07052
2810.13,0.10316
2804.35,0.13875
2798.56,0.17731
2792.78,0.22081
2786.99,0.26843
2781.2,0.31645
2775.42,0.35654
2769.63,0.38651
2763.85,0.40831
2758.06,0.42780
2752.27,0.44184
2746.49,0.44356
2740.7,0.44114
2734.91,0.44402
2729.13,0.45503
2723.34,0.46972
2717.56,0.48235
2711.77,0.49303
2705.98,0.50482
2700.2,0.51356
2694.41,0.51111
2688.63,0.49784
2682.84,0.48670
2677.05,0.47846
2671.27,0.46937
2665.48,0.46343
2659.69,0.46500
2653.91,0.47159
2648.12,0.48052
2642.34,0.48111
2636.55,0.47889
2630.76,0.49161
2624.98,0.51780
2619.19,0.54332
2613.41,0.56896
2607.62,0.59252
2601.83,0.61078
2596.05,0.62544
2590.26,0.64370
2584.47,0.66454
2578.69,0.68438
2572.9,0.70271
2567.12,0.71651
2561.33,0.72492
2555.54,0.73105
2549.76,0.73816
2543.97,0.75463
2538.19,0.76819
2532.4,0.76315
2526.61,0.76034
2520.83,0.77459
2515.04,0.79225
2509.26,0.80449
2503.47,0.81182
2497.68,0.81519
2491.9,0.81749
2486.11,0.82081
2480.32,0.82464
2474.54,0.82674
2468.75,0.83935
2462.97,0.84624
2457.18,0.84717
2451.39,0.84847
2445.61,0.85079
2439.82,0.85157
2434.04,0.84826
2428.25,0.84180
2422.46,0.83199
2416.68,0.82571
2410.89,0.83252
2405.1,0.83939
2399.32,0.84130
2393.53,0.84071
2387.75,0.83180
2381.96,0.77266
2376.17,0.65700
2370.39,0.55225
2364.6,0.47985
2358.82,0.45744
2353.03,0.50807
2347.24,0.54554
2341.46,0.48732
2335.67,0.49876
2329.88,0.51021
2324.1,0.54251
2318.31,0.59684
2312.53,0.64801
2306.74,0.70020
2300.95,0.74504
2295.17,0.77591
2289.38,0.80011
2283.6,0.81741
2277.81,0.81587
2272.02,0.82059
2266.24,0.83385
2260.45,0.84321
2254.67,0.84909
2248.88,0.84932
2243.09,0.84921
2237.31,0.85800
2231.52,0.86855
2225.73,0.87135
2219.95,0.87230
2214.16,0.87384
2208.38,0.87288
2202.59,0.87135
2196.8,0.87136
2191.02,0.87303
2185.23,0.87339
2179.45,0.87293
2173.66,0.87129
2167.87,0.86811
2162.09,0.86480
2156.3,0.86355
2150.51,0.86253
2144.73,0.86465
2138.94,0.86944
2133.16,0.87520
2127.37,0.88074
2121.58,0.88754
2115.8,0.89176
2110.01,0.89228
2104.23,0.88819
2098.44,0.88327
2092.65,0.88173
2086.87,0.88427
2081.08,0.88746
2075.29,0.88448
2069.51,0.87795
2063.72,0.86604
2057.94,0.86429
2052.15,0.86381
2046.36,0.86136
2040.58,0.85118
2034.79,0.84076
2029.01,0.82380
2023.22,0.80490
2017.43,0.79790
2011.65,0.84227
2005.86,0.87319
2000.08,0.88193
1994.29,0.87454
1988.5,0.87465
1982.72,0.88790
1976.93,0.89557
1971.14,0.89586
1965.36,0.88168
1959.57,0.87899
1953.79,0.87528
1948,0.87790
1942.21,0.87249
1936.43,0.89187
1930.64,0.88510
1924.86,0.86441
1919.07,0.84988
1913.28,0.86162
1907.5,0.85628
1901.71,0.85871
1895.92,0.84118
1890.14,0.84227
1884.35,0.86592
1878.57,0.88123
1872.78,0.88767
1866.99,0.86823
1861.21,0.89939
1855.42,0.89421
1849.64,0.87953
1843.85,0.85592
1838.06,0.89302
1832.28,0.88899
1826.49,0.86822
1820.7,0.87414
1814.92,0.86690
1809.13,0.85953
1803.35,0.87395
1797.56,0.87024
1791.77,0.84882
1785.99,0.87375
1780.2,0.85170
1774.42,0.83053
1768.63,0.84625
1762.84,0.85913
1757.06,0.83461
1751.27,0.77369
1745.48,0.74016
1739.7,0.75079
1733.91,0.76352
1728.13,0.82540
1722.34,0.80802
1716.55,0.72803
1710.77,0.77911
1704.98,0.76981
1699.2,0.75736
1693.41,0.83259
1687.62,0.82043
1681.84,0.79468
1676.05,0.81188
1670.27,0.78884
1664.48,0.83488
1658.69,0.85099
1652.91,0.78203
1647.12,0.76714
1641.33,0.80458
1635.55,0.76590
1629.76,0.81892
1623.98,0.80901
1618.19,0.80988
1612.4,0.81938
1606.62,0.80421
1600.83,0.81003
1595.05,0.81731
1589.26,0.83242
1583.47,0.83325
1577.69,0.78570
1571.9,0.77822
1566.11,0.77800
1560.33,0.74726
1554.54,0.76461
1548.76,0.77787
1542.97,0.69075
1537.18,0.71239
1531.4,0.72992
1525.61,0.70878
1519.83,0.68688
1514.04,0.69895
1508.25,0.62638
1502.47,0.65182
1496.68,0.61028
1490.89,0.56498
1485.11,0.47576
1479.32,0.27945
1473.54,0.02112
1467.75,0.00078
1461.96,0.00045
1456.18,0.01938
1450.39,0.07944
1444.61,0.13844
1438.82,0.18721
1433.03,0.30635
1427.25,0.49923
1421.46,0.60329
1415.68,0.65881
1409.89,0.70292
1404.1,0.72248
1398.32,0.70771
1392.53,0.70043
1386.74,0.64293
1380.96,0.44511
1375.17,0.38259
1369.39,0.37406
1363.6,0.40707
1357.81,0.46723
1352.03,0.46621
1346.24,0.52576
1340.46,0.57931
1334.67,0.66731
1328.88,0.69160
1323.1,0.65949
1317.31,0.60030
1311.52,0.56344
1305.74,0.55302
1299.95,0.56500
1294.17,0.59587
1288.38,0.62288
1282.59,0.63993
1276.81,0.65206
1271.02,0.66617
1265.24,0.69412
1259.45,0.71135
1253.66,0.71572
1247.88,0.71421
1242.09,0.72697
1236.3,0.74624
1230.52,0.76188
1224.73,0.76472
1218.95,0.75666
1213.16,0.74737
1207.37,0.74967
1201.59,0.76636
1195.8,0.77668
1190.02,0.77156
1184.23,0.75843
1178.44,0.74059
1172.66,0.74415
1166.87,0.75559
1161.09,0.76617
1155.3,0.76407
1149.51,0.75276
1143.73,0.74824
1137.94,0.75808
1132.15,0.77556
1126.37,0.78995
1120.58,0.78758
1114.8,0.77215
1109.01,0.76101
1103.22,0.75961
1097.44,0.76343
1091.65,0.75816
1085.87,0.73801
1080.08,0.71815
1074.29,0.72816
1068.51,0.74602
1062.72,0.76052
1056.93,0.78153
1051.15,0.77659
1045.36,0.77346
1039.58,0.76594
1033.79,0.76135
1028,0.75678
1022.22,0.73719
1016.43,0.72836
1010.65,0.75935
1004.86,0.78304
999.073,0.80045
993.287,0.82156
987.501,0.84103
981.715,0.84099
975.929,0.82020
970.142,0.79854
964.356,0.79847
958.57,0.81851
952.784,0.84389
946.998,0.85004
941.212,0.83512
935.426,0.82237
929.64,0.82794
923.853,0.84689
918.067,0.86237
912.281,0.85239
906.495,0.83166
900.709,0.82453
894.923,0.82211
889.137,0.83537
883.35,0.85886
877.564,0.86474
871.778,0.84684
865.992,0.83140
860.206,0.83409
854.42,0.85173
848.634,0.86882
842.847,0.86383
837.061,0.84060
831.275,0.82411
825.489,0.82812
819.703,0.84484
813.917,0.85588
808.131,0.84013
802.344,0.80826
796.558,0.78230
790.772,0.77786
784.986,0.78079
779.2,0.76489
773.414,0.73228
767.628,0.71243
761.842,0.71119
756.055,0.71547
750.269,0.70678
744.483,0.64986
738.697,0.50998
732.911,0.16762
727.125,0.04820
721.339,0.02198
715.552,0.13386
709.766,0.42223
703.98,0.63148
698.194,0.75052
692.408,0.77574
686.622,0.75619
680.836,0.75843
675.049,0.79686
669.263,0.73881
663.477,0.86486
657.691,0.83007
651.905,0.81102
646.119,0.83386
640.333,0.89040
634.546,0.93328
628.76,0.93602
622.974,0.89911
617.188,0.86163
611.402,0.88669
605.616,0.92261
599.83,0.94651