File: 01_Data/PEVA/FTIR/IS/PEVA_0.18_IS_S_240809_R9.dpt
7497.33,0.10786
7491.55,0.11002
7485.76,0.09233
7479.97,0.09439
7474.19,0.09843
7468.4,0.10898
7462.61,0.11187
7456.83,0.09853
7451.04,0.10943
7445.26,0.09319
7439.47,0.10421
7433.68,0.11522
7427.9,0.10383
7422.11,0.11053
7416.32,0.10839
7410.54,0.10293
7404.75,0.09791
7398.96,0.09467
7393.18,0.11282
7387.39,0.11007
7381.6,0.10877
7375.82,0.11285
7370.03,0.10717
7364.24,0.10644
7358.46,0.10766
7352.67,0.10084
7346.89,0.11068
7341.1,0.10855
7335.31,0.09957
7329.53,0.10481
7323.74,0.10389
7317.95,0.10369
7312.17,0.09888
7306.38,0.10003
7300.59,0.10161
7294.81,0.09811
7289.02,0.10299
7283.23,0.10597
7277.45,0.11221
7271.66,0.10037
7265.87,0.10037
7260.09,0.10171
7254.3,0.09532
7248.52,0.10365
7242.73,0.10408
7236.94,0.09707
7231.16,0.10548
7225.37,0.09797
7219.58,0.09707
7213.8,0.10755
7208.01,0.09825
7202.22,0.09909
7196.44,0.10272
7190.65,0.10583
7184.86,0.09698
7179.08,0.10275
7173.29,0.10264
7167.5,0.10597
7161.72,0.10022
7155.93,0.11025
7150.15,0.10242
7144.36,0.09483
7138.57,0.09865
7132.79,0.10697
7127,0.10056
7121.21,0.10589
7115.43,0.10379
7109.64,0.10315
7103.85,0.10180
7098.07,0.09593
7092.28,0.09275
7086.49,0.10121
7080.71,0.11022
7074.92,0.10314
7069.13,0.10282
7063.35,0.09495
7057.56,0.08979
7051.78,0.10611
7045.99,0.10418
7040.2,0.09105
7034.42,0.09671
7028.63,0.09982
7022.84,0.10864
7017.06,0.09961
7011.27,0.10838
7005.48,0.09424
6999.7,0.10134
6993.91,0.09962
6988.12,0.10354
6982.34,0.10397
6976.55,0.10434
6970.76,0.10201
6964.98,0.10054
6959.19,0.10002
6953.41,0.09964
6947.62,0.09620
6941.83,0.09885
6936.05,0.09836
6930.26,0.09764
6924.47,0.10357
6918.69,0.09812
6912.9,0.10464
6907.11,0.09807
6901.33,0.10161
6895.54,0.09278
6889.75,0.10327
6883.97,0.10113
6878.18,0.10454
6872.39,0.10107
6866.61,0.09385
6860.82,0.10239
6855.04,0.10268
6849.25,0.10406
6843.46,0.10140
6837.68,0.10801
6831.89,0.10810
6826.1,0.10277
6820.32,0.10473
6814.53,0.10309
6808.74,0.09867
6802.96,0.10403
6797.17,0.10289
6791.38,0.10711
6785.6,0.10122
6779.81,0.09648
6774.03,0.10322
6768.24,0.10596
6762.45,0.09859
6756.67,0.10593
6750.88,0.10676
6745.09,0.10462
6739.31,0.09991
6733.52,0.10101
6727.73,0.10320
6721.95,0.09711
6716.16,0.10510
6710.37,0.10519
6704.59,0.10282
6698.8,0.10575
6693.01,0.10221
6687.23,0.10607
6681.44,0.10380
6675.66,0.10003
6669.87,0.09987
6664.08,0.09407
6658.3,0.10204
6652.51,0.09901
6646.72,0.10479
6640.94,0.10554
6635.15,0.11023
6629.36,0.10032
6623.58,0.09804
6617.79,0.10715
6612,0.09632
6606.22,0.09874
6600.43,0.10098
6594.64,0.10294
6588.86,0.10711
6583.07,0.10120
6577.29,0.10641
6571.5,0.10785
6565.71,0.10237
6559.93,0.09954
6554.14,0.10179
6548.35,0.10726
6542.57,0.10370
6536.78,0.10141
6530.99,0.10680
6525.21,0.09891
6519.42,0.10274
6513.63,0.09819
6507.85,0.10524
6502.06,0.09934
6496.27,0.10037
6490.49,0.10342
6484.7,0.09984
6478.92,0.10123
6473.13,0.10103
6467.34,0.10187
6461.56,0.10575
6455.77,0.10278
6449.98,0.10616
6444.2,0.09895
6438.41,0.10157
6432.62,0.10275
6426.84,0.10439
6421.05,0.10278
6415.26,0.10161
6409.48,0.10462
6403.69,0.10112
6397.9,0.10060
6392.12,0.10297
6386.33,0.10020
6380.55,0.10116
6374.76,0.10110
6368.97,0.10345
6363.19,0.10434
6357.4,0.09722
6351.61,0.10117
6345.83,0.10127
6340.04,0.10425
6334.25,0.10215
6328.47,0.10476
6322.68,0.10382
6316.89,0.10540
6311.11,0.09955
6305.32,0.10249
6299.53,0.10586
6293.75,0.10478
6287.96,0.10630
6282.18,0.09852
6276.39,0.10345
6270.6,0.10318
6264.82,0.10524
6259.03,0.09854
6253.24,0.10209
6247.46,0.10649
6241.67,0.10408
6235.88,0.10565
6230.1,0.10617
6224.31,0.10194
6218.52,0.10203
6212.74,0.09892
6206.95,0.09918
6201.16,0.10089
6195.38,0.09993
6189.59,0.10345
6183.81,0.10438
6178.02,0.10146
6172.23,0.10057
6166.45,0.10455
6160.66,0.10535
6154.87,0.10241
6149.09,0.10311
6143.3,0.10471
6137.51,0.10263
6131.73,0.10184
6125.94,0.10471
6120.15,0.10487
6114.37,0.10096
6108.58,0.09942
6102.79,0.10271
6097.01,0.10058
6091.22,0.10051
6085.44,0.10527
6079.65,0.10369
6073.86,0.10008
6068.08,0.10034
6062.29,0.10202
6056.5,0.09947
6050.72,0.10287
6044.93,0.10470
6039.14,0.10361
6033.36,0.10148
6027.57,0.09760
6021.78,0.09951
6016,0.10294
6010.21,0.10063
6004.42,0.10055
5998.64,0.09802
5992.85,0.10197
5987.07,0.10321
5981.28,0.10193
5975.49,0.10316
5969.71,0.10324
5963.92,0.10107
5958.13,0.10093
5952.35,0.10090
5946.56,0.09710
5940.77,0.10123
5934.99,0.09788
5929.2,0.10249
5923.41,0.09904
5917.63,0.09606
5911.84,0.09720
5906.05,0.09715
5900.27,0.10104
5894.48,0.10004
5888.7,0.09930
5882.91,0.09806
5877.12,0.09583
5871.34,0.09945
5865.55,0.09489
5859.76,0.09510
5853.98,0.09590
5848.19,0.09203
5842.4,0.09893
5836.62,0.09570
5830.83,0.09250
5825.04,0.09109
5819.26,0.09300
5813.47,0.08976
5807.68,0.08929
5801.9,0.08894
5796.11,0.08917
5790.33,0.08809
5784.54,0.08565
5778.75,0.08347
5772.97,0.08587
5767.18,0.08711
5761.39,0.09025
5755.61,0.08932
5749.82,0.09062
5744.03,0.09342
5738.25,0.09666
5732.46,0.09379
5726.67,0.09700
5720.89,0.09612
5715.1,0.09304
5709.31,0.09667
5703.53,0.09536
5697.74,0.09392
5691.96,0.09370
5686.17,0.09498
5680.38,0.09016
5674.6,0.09111
5668.81,0.09183
5663.02,0.09067
5657.24,0.09145
5651.45,0.09471
5645.66,0.09409
5639.88,0.09428
5634.09,0.09739
5628.3,0.09634
5622.52,0.09471
5616.73,0.09678
5610.94,0.09583
5605.16,0.09780
5599.37,0.09917
5593.59,0.09821
5587.8,0.09820
5582.01,0.09888
5576.23,0.09719
5570.44,0.09791
5564.65,0.09857
5558.87,0.09653
5553.08,0.09979
5547.29,0.09586
5541.51,0.09606
5535.72,0.09636
5529.93,0.09654
5524.15,0.09671
5518.36,0.09907
5512.58,0.09727
5506.79,0.09778
5501,0.09661
5495.22,0.09641
5489.43,0.09609
5483.64,0.09599
5477.86,0.09824
5472.07,0.09902
5466.28,0.10031
5460.5,0.10098
5454.71,0.09973
5448.92,0.09903
5443.14,0.09934
5437.35,0.09946
5431.56,0.09994
5425.78,0.09877
5419.99,0.09806
5414.21,0.10061
5408.42,0.09988
5402.63,0.09946
5396.85,0.09848
5391.06,0.09976
5385.27,0.09830
5379.49,0.09788
5373.7,0.09962
5367.91,0.09802
5362.13,0.09994
5356.34,0.10115
5350.55,0.10123
5344.77,0.10016
5338.98,0.10015
5333.19,0.09914
5327.41,0.10174
5321.62,0.09926
5315.84,0.09980
5310.05,0.09917
5304.26,0.09985
5298.48,0.09942
5292.69,0.09808
5286.9,0.09680
5281.12,0.09990
5275.33,0.09968
5269.54,0.10001
5263.76,0.09966
5257.97,0.09989
5252.18,0.09983
5246.4,0.10019
5240.61,0.09967
5234.82,0.10304
5229.04,0.10008
5223.25,0.10074
5217.47,0.10233
5211.68,0.10003
5205.89,0.10077
5200.11,0.10096
5194.32,0.10113
5188.53,0.10161
5182.75,0.10140
5176.96,0.10103
5171.17,0.10171
5165.39,0.10256
5159.6,0.10143
5153.81,0.09996
5148.03,0.10159
5142.24,0.10135
5136.45,0.10206
5130.67,0.10128
5124.88,0.10073
5119.1,0.10086
5113.31,0.10065
5107.52,0.10169
5101.74,0.10133
5095.95,0.10229
5090.16,0.10070
5084.38,0.10058
5078.59,0.10090
5072.8,0.10079
5067.02,0.10109
5061.23,0.10115
5055.44,0.10168
5049.66,0.10179
5043.87,0.10081
5038.08,0.10029
5032.3,0.10103
5026.51,0.10094
5020.73,0.10168
5014.94,0.10034
5009.15,0.10034
5003.37,0.10224
4997.58,0.10090
4991.79,0.10061
4986.01,0.10043
4980.22,0.10129
4974.43,0.10012
4968.65,0.09992
4962.86,0.10137
4957.07,0.09990
4951.29,0.10008
4945.5,0.10149
4939.71,0.10152
4933.93,0.10099
4928.14,0.10047
4922.36,0.10153
4916.57,0.10249
4910.78,0.10234
4905,0.10129
4899.21,0.10149
4893.42,0.10180
4887.64,0.10172
4881.85,0.10186
4876.06,0.10123
4870.28,0.10134
4864.49,0.10153
4858.7,0.10216
4852.92,0.10265
4847.13,0.10217
4841.34,0.10175
4835.56,0.10104
4829.77,0.10261
4823.99,0.10182
4818.2,0.10107
4812.41,0.10105
4806.63,0.10279
4800.84,0.10176
4795.05,0.10217
4789.27,0.10230
4783.48,0.10271
4777.69,0.10187
4771.91,0.10188
4766.12,0.10288
4760.33,0.10225
4754.55,0.10180
4748.76,0.10283
4742.97,0.10341
4737.19,0.10448
4731.4,0.10400
4725.62,0.10238
4719.83,0.10270
4714.04,0.10239
4708.26,0.10287
4702.47,0.10219
4696.68,0.10314
4690.9,0.10229
4685.11,0.09998
4679.32,0.10092
4673.54,0.10081
4667.75,0.10088
4661.96,0.10181
4656.18,0.10151
4650.39,0.10123
4644.6,0.10083
4638.82,0.10074
4633.03,0.10053
4627.25,0.10218
4621.46,0.10056
4615.67,0.10110
4609.89,0.10118
4604.1,0.10065
4598.31,0.10171
4592.53,0.10203
4586.74,0.10165
4580.95,0.10101
4575.17,0.10127
4569.38,0.10126
4563.59,0.10161
4557.81,0.10154
4552.02,0.10220
4546.23,0.10191
4540.45,0.10218
4534.66,0.10264
4528.88,0.10216
4523.09,0.10194
4517.3,0.10286
4511.52,0.10174
4505.73,0.10070
4499.94,0.10119
4494.16,0.10173
4488.37,0.10099
4482.58,0.10032
4476.8,0.09998
4471.01,0.10033
4465.22,0.10020
4459.44,0.09809
4453.65,0.09776
4447.86,0.09692
4442.08,0.09601
4436.29,0.09416
4430.51,0.09331
4424.72,0.09250
4418.93,0.09286
4413.15,0.09186
4407.36,0.09085
4401.57,0.09018
4395.79,0.08799
4390,0.08665
4384.21,0.08502
4378.43,0.08407
4372.64,0.08220
4366.85,0.08014
4361.07,0.07889
4355.28,0.07606
4349.49,0.07284
4343.71,0.06972
4337.92,0.06754
4332.14,0.06607
4326.35,0.06354
4320.56,0.06403
4314.78,0.06979
4308.99,0.07532
4303.2,0.07769
4297.42,0.07835
4291.63,0.07833
4285.84,0.07722
4280.06,0.07609
4274.27,0.07617
4268.48,0.07270
4262.7,0.07060
4256.91,0.06753
4251.13,0.06681
4245.34,0.07051
4239.55,0.07350
4233.77,0.07375
4227.98,0.07300
4222.19,0.07251
4216.41,0.07234
4210.62,0.07243
4204.83,0.07280
4199.05,0.07143
4193.26,0.07091
4187.47,0.07109
4181.69,0.07074
4175.9,0.07129
4170.11,0.07115
4164.33,0.07110
4158.54,0.07149
4152.76,0.07166
4146.97,0.07236
4141.18,0.07233
4135.4,0.07267
4129.61,0.07335
4123.82,0.07287
4118.04,0.07257
4112.25,0.07346
4106.46,0.07231
4100.68,0.07273
4094.89,0.07384
4089.1,0.07497
4083.32,0.07610
4077.53,0.07721
4071.74,0.07793
4065.96,0.07849
4060.17,0.07896
4054.39,0.07851
4048.6,0.07944
4042.81,0.07929
4037.03,0.08011
4031.24,0.08080
4025.45,0.08048
4019.67,0.08092
4013.88,0.08180
4008.09,0.08352
4002.31,0.08406
3996.52,0.08364
3990.73,0.08351
3984.95,0.08299
3979.16,0.08255
3973.37,0.08320
3967.59,0.08352
3961.8,0.08427
3956.02,0.08452
3950.23,0.08439
3944.44,0.08379
3938.66,0.08444
3932.87,0.08475
3927.08,0.08410
3921.3,0.08440
3915.51,0.08399
3909.72,0.08445
3903.94,0.08493
3898.15,0.08361
3892.36,0.08479
3886.58,0.08580
3880.79,0.08518
3875,0.08564
3869.22,0.08638
3863.43,0.08727
3857.65,0.08732
3851.86,0.08743
3846.07,0.08784
3840.29,0.08818
3834.5,0.08740
3828.71,0.08828
3822.93,0.08840
3817.14,0.08824
3811.35,0.08891
3805.57,0.08946
3799.78,0.09053
3793.99,0.09043
3788.21,0.09040
3782.42,0.09092
3776.63,0.09066
3770.85,0.09074
3765.06,0.09067
3759.28,0.09073
3753.49,0.09059
3747.7,0.09073
3741.92,0.09039
3736.13,0.08993
3730.34,0.09013
3724.56,0.08959
3718.77,0.08979
3712.98,0.08934
3707.2,0.08901
3701.41,0.08864
3695.62,0.08819
3689.84,0.08741
3684.05,0.08673
3678.26,0.08621
3672.48,0.08577
3666.69,0.08568
3660.91,0.08519
3655.12,0.08374
3649.33,0.08179
3643.55,0.08358
3637.76,0.08518
3631.97,0.08545
3626.19,0.08419
3620.4,0.08435
3614.61,0.08379
3608.83,0.08172
3603.04,0.08056
3597.25,0.08454
3591.47,0.08837
3585.68,0.08948
3579.89,0.09066
3574.11,0.09158
3568.32,0.09165
3562.54,0.09295
3556.75,0.09272
3550.96,0.09238
3545.18,0.09302
3539.39,0.09349
3533.6,0.09323
3527.82,0.09298
3522.03,0.09262
3516.24,0.09276
3510.46,0.09297
3504.67,0.09343
3498.88,0.09216
3493.1,0.09154
3487.31,0.09035
3481.52,0.08988
3475.74,0.08874
3469.95,0.08328
3464.17,0.08020
3458.38,0.07958
3452.59,0.07954
3446.81,0.08238
3441.02,0.08509
3435.23,0.08744
3429.45,0.08759
3423.66,0.08876
3417.87,0.08858
3412.09,0.09030
3406.3,0.08995
3400.51,0.08937
3394.73,0.09063
3388.94,0.08980
3383.15,0.08912
3377.37,0.08844
3371.58,0.08846
3365.8,0.08940
3360.01,0.08992
3354.22,0.09027
3348.44,0.09024
3342.65,0.08942
3336.86,0.08962
3331.08,0.08999
3325.29,0.08999
3319.5,0.08946
3313.72,0.08998
3307.93,0.08915
3302.14,0.08896
3296.36,0.08987
3290.57,0.08986
3284.78,0.08956
3279,0.08890
3273.21,0.08874
3267.43,0.08826
3261.64,0.08938
3255.85,0.09004
3250.07,0.08944
3244.28,0.08856
3238.49,0.08874
3232.71,0.08851
3226.92,0.08762
3221.13,0.08844
3215.35,0.08837
3209.56,0.08867
3203.77,0.08777
3197.99,0.08761
3192.2,0.08629
3186.41,0.08640
3180.63,0.08651
3174.84,0.08586
3169.06,0.08516
3163.27,0.08518
3157.48,0.08418
3151.7,0.08382
3145.91,0.08310
3140.12,0.08270
3134.34,0.08120
3128.55,0.08090
3122.76,0.07992
3116.98,0.07822
3111.19,0.07644
3105.4,0.07516
3099.62,0.07240
3093.83,0.06975
3088.05,0.06778
3082.26,0.06598
3076.47,0.06493
3070.69,0.06438
3064.9,0.06284
3059.11,0.06172
3053.33,0.06038
3047.54,0.05912
3041.75,0.05781
3035.97,0.05708
3030.18,0.05650
3024.39,0.05559
3018.61,0.05489
3012.82,0.05545
3007.03,0.05409
3001.25,0.05383
2995.46,0.05325
2989.68,0.05225
2983.89,0.05133
2978.1,0.05036
2972.32,0.05006
2966.53,0.04841
2960.74,0.04836
2954.96,0.04676
2949.17,0.04430
2943.38,0.04187
2937.6,0.04047
2931.81,0.04027
2926.02,0.04876
2920.24,0.07270
2914.45,0.08822
2908.66,0.07870
2902.88,0.07237
2897.09,0.06965
2891.31,0.06838
2885.52,0.06639
2879.73,0.06450
2873.95,0.06219
2868.16,0.05959
2862.37,0.05531
2856.59,0.05435
2850.8,0.07063
2845.01,0.08398
2839.23,0.07706
2833.44,0.07183
2827.65,0.06881
2821.87,0.06674
2816.08,0.06624
2810.29,0.06608
2804.51,0.06622
2798.72,0.06659
2792.94,0.06647
2787.15,0.06659
2781.36,0.06772
2775.58,0.06829
2769.79,0.06851
2764,0.06939
2758.22,0.06892
2752.43,0.06877
2746.64,0.06900
2740.86,0.06848
2735.07,0.06836
2729.28,0.06850
2723.5,0.06870
2717.71,0.06871
2711.92,0.06887
2706.14,0.06910
2700.35,0.06906
2694.57,0.06839
2688.78,0.06729
2682.99,0.06669
2677.21,0.06676
2671.42,0.06633
2665.63,0.06684
2659.85,0.06650
2654.06,0.06655
2648.27,0.06666
2642.49,0.06633
2636.7,0.06648
2630.91,0.06717
2625.13,0.06793
2619.34,0.06907
2613.55,0.07035
2607.77,0.07162
2601.98,0.07244
2596.2,0.07321
2590.41,0.07489
2584.62,0.07606
2578.84,0.07732
2573.05,0.07853
2567.26,0.08002
2561.48,0.08088
2555.69,0.08154
2549.9,0.08238
2544.12,0.08240
2538.33,0.08359
2532.54,0.08346
2526.76,0.08352
2520.97,0.08473
2515.18,0.08651
2509.4,0.08731
2503.61,0.08679
2497.83,0.08762
2492.04,0.08765
2486.25,0.08704
2480.47,0.08677
2474.68,0.08712
2468.89,0.08859
2463.11,0.08957
2457.32,0.09097
2451.53,0.09223
2445.75,0.09220
2439.96,0.09262
2434.17,0.09321
2428.39,0.09230
2422.6,0.09180
2416.81,0.09141
2411.03,0.09160
2405.24,0.09092
2399.46,0.09109
2393.67,0.09153
2387.88,0.09054
2382.1,0.08995
2376.31,0.09023
2370.52,0.08954
2364.74,0.08840
2358.95,0.08718
2353.16,0.08565
2347.38,0.08358
2341.59,0.08183
2335.8,0.08252
2330.02,0.08195
2324.23,0.08091
2318.44,0.08159
2312.66,0.08264
2306.87,0.08285
2301.09,0.08270
2295.3,0.08431
2289.51,0.08486
2283.73,0.08453
2277.94,0.08522
2272.15,0.08699
2266.37,0.08717
2260.58,0.08686
2254.79,0.08846
2249.01,0.08923
2243.22,0.08865
2237.43,0.09099
2231.65,0.09329
2225.86,0.09309
2220.07,0.09266
2214.29,0.09443
2208.5,0.09495
2202.72,0.09304
2196.93,0.09326
2191.14,0.09403
2185.36,0.09253
2179.57,0.09124
2173.78,0.09235
2168,0.09273
2162.21,0.09010
2156.42,0.09043
2150.64,0.09252
2144.85,0.09160
2139.06,0.09129
2133.28,0.09378
2127.49,0.09471
2121.7,0.09309
2115.92,0.09306
2110.13,0.09494
2104.35,0.09313
2098.56,0.09160
2092.77,0.09271
2086.99,0.09334
2081.2,0.09072
2075.41,0.09019
2069.63,0.09153
2063.84,0.08959
2058.05,0.08756
2052.27,0.08852
2046.48,0.08800
2040.69,0.08528
2034.91,0.08453
2029.12,0.08530
2023.33,0.08340
2017.55,0.08139
2011.76,0.08539
2005.98,0.08940
2000.19,0.08805
1994.4,0.08915
1988.62,0.09229
1982.83,0.09194
1977.04,0.09015
1971.26,0.09180
1965.47,0.09316
1959.68,0.09018
1953.9,0.08997
1948.11,0.09253
1942.32,0.09144
1936.54,0.08941
1930.75,0.09084
1924.96,0.09186
1919.18,0.08883
1913.39,0.08822
1907.61,0.08949
1901.82,0.08678
1896.03,0.08442
1890.25,0.08719
1884.46,0.08789
1878.67,0.08493
1872.89,0.08506
1867.1,0.08634
1861.31,0.08478
1855.53,0.08352
1849.74,0.08659
1843.95,0.08561
1838.17,0.08250
1832.38,0.08352
1826.6,0.08330
1820.81,0.07959
1815.02,0.07926
1809.24,0.07947
1803.45,0.07635
1797.66,0.07533
1791.88,0.07480
1786.09,0.07054
1780.3,0.06997
1774.52,0.06810
1768.73,0.06413
1762.94,0.06200
1757.16,0.06101
1751.37,0.05965
1745.58,0.05385
1739.8,0.04751
1734.01,0.05012
1728.23,0.05556
1722.44,0.05729
1716.65,0.05763
1710.87,0.05880
1705.08,0.05861
1699.29,0.05899
1693.51,0.05961
1687.72,0.06261
1681.93,0.06778
1676.15,0.06743
1670.36,0.06981
1664.57,0.07179
1658.79,0.06953
1653,0.06893
1647.21,0.06874
1641.43,0.07178
1635.64,0.07417
1629.86,0.07767
1624.07,0.07713
1618.28,0.07655
1612.5,0.07907
1606.71,0.07909
1600.92,0.07672
1595.14,0.07819
1589.35,0.07898
1583.56,0.07681
1577.78,0.07687
1571.99,0.07738
1566.2,0.07579
1560.42,0.07472
1554.63,0.07697
1548.84,0.07675
1543.06,0.07534
1537.27,0.07606
1531.49,0.07533
1525.7,0.07345
1519.91,0.07285
1514.13,0.07243
1508.34,0.06971
1502.55,0.06939
1496.77,0.06749
1490.98,0.06364
1485.19,0.06003
1479.41,0.05528
1473.62,0.05386
1467.83,0.05814
1462.05,0.06255
1456.26,0.06362
1450.47,0.06308
1444.69,0.06231
1438.9,0.06227
1433.12,0.06155
1427.33,0.06087
1421.54,0.06112
1415.76,0.06201
1409.97,0.06201
1404.18,0.06283
1398.4,0.06078
1392.61,0.05831
1386.82,0.05575
1381.04,0.05406
1375.25,0.05402
1369.46,0.05465
1363.68,0.05572
1357.89,0.05591
1352.1,0.05622
1346.32,0.05672
1340.53,0.05806
1334.75,0.06006
1328.96,0.05963
1323.17,0.05919
1317.39,0.05733
1311.6,0.05610
1305.81,0.05580
1300.03,0.05527
1294.24,0.05478
1288.45,0.05511
1282.67,0.05443
1276.88,0.05490
1271.09,0.05568
1265.31,0.05692
1259.52,0.06040
1253.73,0.06572
1247.95,0.07258
1242.16,0.07645
1236.38,0.07320
1230.59,0.06571
1224.8,0.06152
1219.02,0.05944
1213.23,0.05864
1207.44,0.05856
1201.66,0.05823
1195.87,0.05858
1190.08,0.05876
1184.3,0.05980
1178.51,0.06023
1172.72,0.06025
1166.94,0.06061
1161.15,0.06038
1155.36,0.06002
1149.58,0.06017
1143.79,0.05924
1138.01,0.05861
1132.22,0.05932
1126.43,0.05939
1120.65,0.05913
1114.86,0.06007
1109.07,0.06048
1103.29,0.05941
1097.5,0.06019
1091.71,0.06022
1085.93,0.05937
1080.14,0.05876
1074.35,0.05974
1068.57,0.05952
1062.78,0.05908
1056.99,0.05863
1051.21,0.05777
1045.42,0.05806
1039.64,0.05822
1033.85,0.05793
1028.06,0.05754
1022.28,0.05926
1016.49,0.06291
1010.7,0.06345
1004.92,0.06202
999.13,0.06350
993.344,0.06227
987.557,0.06242
981.771,0.06439
975.984,0.06196
970.198,0.06069
964.411,0.06176
958.625,0.06177
952.838,0.06036
947.052,0.06055
941.265,0.06260
935.479,0.06186
929.692,0.06080
923.906,0.06674
918.12,0.07206
912.333,0.06629
906.547,0.06939
900.76,0.07533
894.974,0.06925
889.187,0.06620
883.401,0.07459
877.614,0.07534
871.828,0.06636
866.041,0.07084
860.255,0.07884
854.468,0.07207
848.682,0.06794
842.895,0.08013
837.109,0.08135
831.323,0.07068
825.536,0.07651
819.75,0.08664
813.963,0.07437
808.177,0.06971
802.39,0.08180
796.604,0.07949
790.817,0.06754
785.031,0.07785
779.244,0.08501
773.458,0.07016
767.671,0.06767
761.885,0.08178
756.098,0.07060
750.312,0.05977
744.526,0.06983
738.739,0.05901
732.953,0.05341
727.166,0.05740
721.38,0.05759
715.593,0.06146
709.807,0.06674
704.02,0.07109
698.234,0.06854
692.447,0.09824
686.661,0.08326
680.874,0.07279
675.088,0.09957
669.301,0.09348
663.515,0.06687
657.729,0.08661
651.942,0.09266
646.156,0.06038
640.369,0.06240
634.583,0.08775
628.796,0.07040
623.01,0.05724
617.223,0.07586
611.437,0.06969
605.65,0.06423
599.864,0.05687