File: 01_Data/PEVA/FTIR/IS/PEVA_0.26_IS_S_240809_R1.dpt
7497.2,0.10565
7491.41,0.10159
7485.63,0.10526
7479.84,0.10118
7474.05,0.10509
7468.27,0.11530
7462.48,0.11494
7456.7,0.10187
7450.91,0.10125
7445.12,0.10538
7439.34,0.11405
7433.55,0.09971
7427.76,0.10363
7421.98,0.10658
7416.19,0.10040
7410.4,0.09919
7404.62,0.09574
7398.83,0.10381
7393.05,0.09589
7387.26,0.09687
7381.47,0.10765
7375.69,0.11606
7369.9,0.10695
7364.11,0.10347
7358.33,0.10222
7352.54,0.10657
7346.75,0.11445
7340.97,0.10582
7335.18,0.10924
7329.4,0.10728
7323.61,0.09922
7317.82,0.09229
7312.04,0.10066
7306.25,0.09016
7300.46,0.10711
7294.68,0.10050
7288.89,0.10005
7283.1,0.10110
7277.32,0.10295
7271.53,0.10609
7265.75,0.09649
7259.96,0.09754
7254.17,0.10074
7248.39,0.10453
7242.6,0.10177
7236.81,0.09602
7231.03,0.11265
7225.24,0.10900
7219.45,0.09846
7213.67,0.10515
7207.88,0.10304
7202.1,0.10345
7196.31,0.10039
7190.52,0.10283
7184.74,0.10356
7178.95,0.09118
7173.16,0.09927
7167.38,0.10423
7161.59,0.10393
7155.8,0.09972
7150.02,0.09851
7144.23,0.09816
7138.45,0.09504
7132.66,0.10502
7126.87,0.09824
7121.09,0.10980
7115.3,0.09601
7109.51,0.09909
7103.73,0.10470
7097.94,0.10039
7092.15,0.10036
7086.37,0.10429
7080.58,0.09951
7074.8,0.09308
7069.01,0.10767
7063.22,0.09873
7057.44,0.09897
7051.65,0.09896
7045.86,0.09807
7040.08,0.09792
7034.29,0.09121
7028.5,0.10527
7022.72,0.09918
7016.93,0.10337
7011.15,0.10333
7005.36,0.09940
6999.57,0.10648
6993.79,0.10311
6988,0.10403
6982.21,0.10234
6976.43,0.11223
6970.64,0.10836
6964.85,0.09832
6959.07,0.10080
6953.28,0.10527
6947.5,0.10524
6941.71,0.09929
6935.92,0.10420
6930.14,0.10367
6924.35,0.09624
6918.56,0.10742
6912.78,0.10804
6906.99,0.10190
6901.2,0.10277
6895.42,0.09719
6889.63,0.10172
6883.85,0.09906
6878.06,0.09870
6872.27,0.10817
6866.49,0.09769
6860.7,0.10707
6854.91,0.10318
6849.13,0.09833
6843.34,0.10135
6837.55,0.10142
6831.77,0.10226
6825.98,0.09461
6820.2,0.10205
6814.41,0.10088
6808.62,0.10135
6802.84,0.10480
6797.05,0.10241
6791.26,0.10221
6785.48,0.10239
6779.69,0.10246
6773.9,0.10524
6768.12,0.09972
6762.33,0.10140
6756.55,0.09988
6750.76,0.10334
6744.97,0.10441
6739.19,0.10111
6733.4,0.10113
6727.61,0.10428
6721.83,0.10688
6716.04,0.10242
6710.25,0.10512
6704.47,0.10337
6698.68,0.10587
6692.9,0.10156
6687.11,0.10373
6681.32,0.10298
6675.54,0.10103
6669.75,0.09630
6663.96,0.09993
6658.18,0.10131
6652.39,0.10578
6646.6,0.10331
6640.82,0.10584
6635.03,0.10869
6629.25,0.10419
6623.46,0.09644
6617.67,0.10313
6611.89,0.10441
6606.1,0.10519
6600.31,0.10126
6594.53,0.10269
6588.74,0.10382
6582.95,0.10409
6577.17,0.11002
6571.38,0.10137
6565.6,0.10701
6559.81,0.09857
6554.02,0.10163
6548.24,0.10037
6542.45,0.10492
6536.66,0.09774
6530.88,0.10303
6525.09,0.10261
6519.3,0.10828
6513.52,0.10234
6507.73,0.10138
6501.95,0.10283
6496.16,0.09878
6490.37,0.10218
6484.59,0.10651
6478.8,0.10147
6473.01,0.10208
6467.23,0.10191
6461.44,0.10743
6455.65,0.10291
6449.87,0.10270
6444.08,0.10738
6438.3,0.10397
6432.51,0.10051
6426.72,0.09977
6420.94,0.10234
6415.15,0.10227
6409.36,0.09975
6403.58,0.10191
6397.79,0.10216
6392,0.10604
6386.22,0.10181
6380.43,0.10242
6374.65,0.10221
6368.86,0.10225
6363.07,0.10471
6357.29,0.10229
6351.5,0.10381
6345.71,0.10052
6339.93,0.10768
6334.14,0.10252
6328.35,0.10259
6322.57,0.10363
6316.78,0.10192
6310.99,0.10621
6305.21,0.10447
6299.42,0.10403
6293.64,0.10271
6287.85,0.10514
6282.06,0.10429
6276.28,0.10142
6270.49,0.09883
6264.7,0.09982
6258.92,0.10173
6253.13,0.10247
6247.34,0.10581
6241.56,0.10390
6235.77,0.10035
6229.99,0.10543
6224.2,0.10296
6218.41,0.10544
6212.63,0.10366
6206.84,0.09923
6201.05,0.09814
6195.27,0.10301
6189.48,0.10001
6183.69,0.09915
6177.91,0.10365
6172.12,0.10193
6166.34,0.10293
6160.55,0.10238
6154.76,0.09748
6148.98,0.10082
6143.19,0.09964
6137.4,0.10593
6131.62,0.10568
6125.83,0.10397
6120.04,0.10400
6114.26,0.10121
6108.47,0.09902
6102.69,0.10570
6096.9,0.10131
6091.11,0.10034
6085.33,0.10379
6079.54,0.10197
6073.75,0.09956
6067.97,0.10026
6062.18,0.10110
6056.39,0.10287
6050.61,0.10277
6044.82,0.09667
6039.04,0.09851
6033.25,0.09962
6027.46,0.09987
6021.68,0.09964
6015.89,0.09459
6010.1,0.09771
6004.32,0.09919
5998.53,0.09878
5992.74,0.09992
5986.96,0.09872
5981.17,0.09954
5975.39,0.10298
5969.6,0.09939
5963.81,0.10059
5958.03,0.09875
5952.24,0.10017
5946.45,0.09900
5940.67,0.09700
5934.88,0.09903
5929.09,0.09722
5923.31,0.10012
5917.52,0.09793
5911.74,0.09572
5905.95,0.09321
5900.16,0.09709
5894.38,0.09530
5888.59,0.09351
5882.8,0.09360
5877.02,0.09512
5871.23,0.09571
5865.44,0.08946
5859.66,0.09311
5853.87,0.08746
5848.09,0.08897
5842.3,0.08778
5836.51,0.08613
5830.73,0.08568
5824.94,0.08533
5819.15,0.08701
5813.37,0.08882
5807.58,0.08810
5801.79,0.09075
5796.01,0.08917
5790.22,0.09209
5784.44,0.09500
5778.65,0.09371
5772.86,0.09266
5767.08,0.09443
5761.29,0.09484
5755.5,0.09295
5749.72,0.09484
5743.93,0.09170
5738.14,0.09510
5732.36,0.09351
5726.57,0.09035
5720.79,0.09193
5715,0.09384
5709.21,0.09091
5703.43,0.09326
5697.64,0.09361
5691.85,0.09539
5686.07,0.09289
5680.28,0.09144
5674.49,0.09595
5668.71,0.09500
5662.92,0.09692
5657.14,0.09600
5651.35,0.09722
5645.56,0.09841
5639.78,0.09712
5633.99,0.09667
5628.2,0.09678
5622.42,0.09575
5616.63,0.09642
5610.84,0.09685
5605.06,0.09764
5599.27,0.09897
5593.49,0.09779
5587.7,0.09866
5581.91,0.09882
5576.13,0.09685
5570.34,0.09974
5564.55,0.09990
5558.77,0.09730
5552.98,0.09947
5547.19,0.09810
5541.41,0.09832
5535.62,0.09948
5529.84,0.09803
5524.05,0.09972
5518.26,0.10030
5512.48,0.09762
5506.69,0.09919
5500.9,0.10024
5495.12,0.10018
5489.33,0.09976
5483.54,0.09815
5477.76,0.09992
5471.97,0.09981
5466.19,0.10013
5460.4,0.09830
5454.61,0.09958
5448.83,0.09844
5443.04,0.09856
5437.25,0.10084
5431.47,0.09740
5425.68,0.09908
5419.89,0.10130
5414.11,0.09963
5408.32,0.10030
5402.54,0.10071
5396.75,0.09947
5390.96,0.09887
5385.18,0.09909
5379.39,0.10015
5373.6,0.10037
5367.82,0.10060
5362.03,0.10088
5356.24,0.10149
5350.46,0.10122
5344.67,0.09935
5338.89,0.10093
5333.1,0.10170
5327.31,0.09977
5321.53,0.10187
5315.74,0.10091
5309.95,0.10099
5304.17,0.10105
5298.38,0.10175
5292.59,0.10104
5286.81,0.10173
5281.02,0.10026
5275.24,0.10252
5269.45,0.10128
5263.66,0.10107
5257.88,0.10061
5252.09,0.10072
5246.3,0.10224
5240.52,0.10082
5234.73,0.10069
5228.94,0.10230
5223.16,0.10233
5217.37,0.10151
5211.59,0.10163
5205.8,0.10191
5200.01,0.10050
5194.23,0.10008
5188.44,0.10185
5182.65,0.10227
5176.87,0.10103
5171.08,0.10088
5165.29,0.10167
5159.51,0.10141
5153.72,0.10175
5147.94,0.10236
5142.15,0.09958
5136.36,0.10151
5130.58,0.10067
5124.79,0.10064
5119,0.10213
5113.22,0.10120
5107.43,0.10178
5101.64,0.10285
5095.86,0.10131
5090.07,0.10108
5084.29,0.10235
5078.5,0.10190
5072.71,0.10106
5066.93,0.10304
5061.14,0.10100
5055.35,0.10304
5049.57,0.10298
5043.78,0.10335
5037.99,0.10185
5032.21,0.10329
5026.42,0.10281
5020.64,0.10288
5014.85,0.10232
5009.06,0.10242
5003.28,0.10129
4997.49,0.10184
4991.7,0.10385
4985.92,0.10312
4980.13,0.10254
4974.34,0.10239
4968.56,0.10265
4962.77,0.10177
4956.99,0.10352
4951.2,0.10166
4945.41,0.10382
4939.63,0.10306
4933.84,0.10291
4928.05,0.10232
4922.27,0.10272
4916.48,0.10359
4910.69,0.10265
4904.91,0.10317
4899.12,0.10324
4893.34,0.10370
4887.55,0.10257
4881.76,0.10296
4875.98,0.10296
4870.19,0.10288
4864.4,0.10411
4858.62,0.10329
4852.83,0.10332
4847.04,0.10413
4841.26,0.10346
4835.47,0.10346
4829.69,0.10300
4823.9,0.10336
4818.11,0.10200
4812.33,0.10376
4806.54,0.10325
4800.75,0.10276
4794.97,0.10258
4789.18,0.10316
4783.39,0.10393
4777.61,0.10165
4771.82,0.10218
4766.04,0.10254
4760.25,0.10267
4754.46,0.10403
4748.68,0.10305
4742.89,0.10332
4737.1,0.10246
4731.32,0.10299
4725.53,0.10317
4719.74,0.10260
4713.96,0.10119
4708.17,0.10130
4702.39,0.10191
4696.6,0.10027
4690.81,0.10059
4685.03,0.10065
4679.24,0.10046
4673.45,0.10085
4667.67,0.10063
4661.88,0.10048
4656.09,0.10140
4650.31,0.10175
4644.52,0.10153
4638.74,0.10195
4632.95,0.10008
4627.16,0.09991
4621.38,0.10020
4615.59,0.10139
4609.8,0.10143
4604.02,0.10151
4598.23,0.10146
4592.44,0.10122
4586.66,0.10149
4580.87,0.10164
4575.09,0.10165
4569.3,0.10164
4563.51,0.10344
4557.73,0.10297
4551.94,0.10288
4546.15,0.10248
4540.37,0.10216
4534.58,0.10147
4528.79,0.10199
4523.01,0.10168
4517.22,0.10254
4511.44,0.10085
4505.65,0.10042
4499.86,0.10029
4494.08,0.10031
4488.29,0.09940
4482.5,0.09920
4476.72,0.09839
4470.93,0.09922
4465.14,0.09819
4459.36,0.09810
4453.57,0.09641
4447.79,0.09577
4442,0.09439
4436.21,0.09288
4430.43,0.09064
4424.64,0.08876
4418.85,0.08758
4413.07,0.08499
4407.28,0.08301
4401.49,0.08136
4395.71,0.08119
4389.92,0.08080
4384.14,0.08064
4378.35,0.07895
4372.56,0.07683
4366.78,0.07466
4360.99,0.07233
4355.2,0.07104
4349.42,0.07078
4343.63,0.06913
4337.84,0.06832
4332.06,0.06805
4326.27,0.06897
4320.49,0.07020
4314.7,0.07159
4308.91,0.07289
4303.13,0.07314
4297.34,0.07357
4291.55,0.07478
4285.77,0.07368
4279.98,0.07308
4274.19,0.07399
4268.41,0.07341
4262.62,0.07376
4256.84,0.07439
4251.05,0.07405
4245.26,0.07419
4239.48,0.07429
4233.69,0.07397
4227.9,0.07295
4222.12,0.07361
4216.33,0.07335
4210.54,0.07375
4204.76,0.07347
4198.97,0.07414
4193.19,0.07446
4187.4,0.07559
4181.61,0.07472
4175.83,0.07446
4170.04,0.07493
4164.25,0.07474
4158.47,0.07667
4152.68,0.07638
4146.89,0.07750
4141.11,0.07799
4135.32,0.07804
4129.54,0.07997
4123.75,0.08048
4117.96,0.08045
4112.18,0.07955
4106.39,0.07930
4100.6,0.07893
4094.82,0.07814
4089.03,0.07642
4083.24,0.07408
4077.46,0.07565
4071.67,0.07699
4065.89,0.07835
4060.1,0.08002
4054.31,0.08112
4048.53,0.08231
4042.74,0.08322
4036.95,0.08227
4031.17,0.08267
4025.38,0.08221
4019.59,0.08246
4013.81,0.08292
4008.02,0.08296
4002.24,0.08428
3996.45,0.08496
3990.66,0.08555
3984.88,0.08582
3979.09,0.08648
3973.3,0.08732
3967.52,0.08804
3961.73,0.08744
3955.94,0.08870
3950.16,0.08777
3944.37,0.08797
3938.59,0.08756
3932.8,0.08786
3927.01,0.08760
3921.23,0.08748
3915.44,0.08768
3909.65,0.08910
3903.87,0.08778
3898.08,0.08864
3892.29,0.08919
3886.51,0.08957
3880.72,0.08829
3874.94,0.08936
3869.15,0.08908
3863.36,0.08896
3857.58,0.08973
3851.79,0.09003
3846,0.09028
3840.22,0.08991
3834.43,0.09012
3828.64,0.09038
3822.86,0.09093
3817.07,0.09114
3811.29,0.09157
3805.5,0.09121
3799.71,0.09212
3793.93,0.09217
3788.14,0.09221
3782.35,0.09316
3776.57,0.09246
3770.78,0.09233
3764.99,0.09195
3759.21,0.09179
3753.42,0.09317
3747.64,0.09311
3741.85,0.09317
3736.06,0.09345
3730.28,0.09397
3724.49,0.09403
3718.7,0.09356
3712.92,0.09273
3707.13,0.09256
3701.34,0.09187
3695.56,0.09059
3689.77,0.08842
3683.99,0.08649
3678.2,0.08600
3672.41,0.08573
3666.63,0.08571
3660.84,0.08594
3655.05,0.08621
3649.27,0.08717
3643.48,0.08751
3637.69,0.08731
3631.91,0.08692
3626.12,0.08479
3620.34,0.08420
3614.55,0.08444
3608.76,0.08426
3602.98,0.08375
3597.19,0.08240
3591.4,0.08208
3585.62,0.08156
3579.83,0.08083
3574.04,0.08010
3568.26,0.07916
3562.47,0.07843
3556.69,0.07822
3550.9,0.07714
3545.11,0.07645
3539.33,0.07701
3533.54,0.07662
3527.75,0.07617
3521.97,0.07577
3516.18,0.07545
3510.39,0.07476
3504.61,0.07365
3498.82,0.07350
3493.04,0.07252
3487.25,0.07252
3481.46,0.07194
3475.68,0.07007
3469.89,0.06969
3464.1,0.06947
3458.32,0.06898
3452.53,0.06748
3446.74,0.06766
3440.96,0.06651
3435.17,0.06620
3429.39,0.06505
3423.6,0.06478
3417.81,0.06557
3412.03,0.06524
3406.24,0.06715
3400.45,0.06818
3394.67,0.06811
3388.88,0.06999
3383.09,0.07115
3377.31,0.07144
3371.52,0.07153
3365.74,0.07144
3359.95,0.07285
3354.16,0.07270
3348.38,0.07256
3342.59,0.07291
3336.8,0.07186
3331.02,0.07144
3325.23,0.07109
3319.44,0.07124
3313.66,0.06871
3307.87,0.06648
3302.09,0.06336
3296.3,0.06404
3290.51,0.06744
3284.73,0.07044
3278.94,0.07192
3273.15,0.07442
3267.37,0.07477
3261.58,0.07484
3255.79,0.07694
3250.01,0.07579
3244.22,0.07518
3238.44,0.07633
3232.65,0.07583
3226.86,0.07658
3221.08,0.07632
3215.29,0.07546
3209.5,0.07534
3203.72,0.07463
3197.93,0.07499
3192.14,0.07451
3186.36,0.07498
3180.57,0.07520
3174.79,0.07449
3169,0.07482
3163.21,0.07472
3157.43,0.07439
3151.64,0.07459
3145.85,0.07410
3140.07,0.07356
3134.28,0.07349
3128.49,0.07282
3122.71,0.07175
3116.92,0.07198
3111.14,0.07146
3105.35,0.06979
3099.56,0.06824
3093.78,0.06712
3087.99,0.06659
3082.2,0.06584
3076.42,0.06492
3070.63,0.06466
3064.84,0.06370
3059.06,0.06256
3053.27,0.06282
3047.49,0.06291
3041.7,0.06305
3035.91,0.06255
3030.13,0.06152
3024.34,0.06070
3018.55,0.05979
3012.77,0.05900
3006.98,0.05881
3001.19,0.05760
2995.41,0.05746
2989.62,0.05695
2983.84,0.05643
2978.05,0.05595
2972.26,0.05587
2966.48,0.05718
2960.69,0.05864
2954.9,0.05975
2949.12,0.05986
2943.33,0.05854
2937.54,0.05924
2931.76,0.06081
2925.97,0.06191
2920.19,0.06265
2914.4,0.06231
2908.61,0.06288
2902.83,0.06244
2897.04,0.06290
2891.25,0.06226
2885.47,0.06185
2879.68,0.06202
2873.89,0.06191
2868.11,0.06153
2862.32,0.06259
2856.54,0.06339
2850.75,0.06369
2844.96,0.06317
2839.18,0.06362
2833.39,0.06308
2827.6,0.06272
2821.82,0.06210
2816.03,0.06226
2810.24,0.06309
2804.46,0.06344
2798.67,0.06426
2792.89,0.06539
2787.1,0.06653
2781.31,0.06770
2775.53,0.06791
2769.74,0.06829
2763.95,0.06882
2758.17,0.06897
2752.38,0.06869
2746.59,0.06817
2740.81,0.06731
2735.02,0.06714
2729.24,0.06753
2723.45,0.06896
2717.66,0.06991
2711.88,0.07080
2706.09,0.07178
2700.3,0.07224
2694.52,0.07251
2688.73,0.07243
2682.94,0.07212
2677.16,0.07217
2671.37,0.07223
2665.59,0.07238
2659.8,0.07365
2654.01,0.07453
2648.23,0.07477
2642.44,0.07484
2636.65,0.07419
2630.87,0.07361
2625.08,0.07372
2619.29,0.07344
2613.51,0.07300
2607.72,0.07330
2601.94,0.07335
2596.15,0.07355
2590.36,0.07352
2584.58,0.07318
2578.79,0.07315
2573,0.07350
2567.22,0.07393
2561.43,0.07413
2555.64,0.07403
2549.86,0.07417
2544.07,0.07483
2538.29,0.07523
2532.5,0.07525
2526.71,0.07579
2520.93,0.07626
2515.14,0.07719
2509.35,0.07828
2503.57,0.07889
2497.78,0.07901
2491.99,0.07956
2486.21,0.07986
2480.42,0.07985
2474.64,0.07993
2468.85,0.08067
2463.06,0.08032
2457.28,0.08092
2451.49,0.08046
2445.7,0.08062
2439.92,0.07983
2434.13,0.07949
2428.34,0.07864
2422.56,0.07787
2416.77,0.07747
2410.99,0.07676
2405.2,0.07597
2399.41,0.07536
2393.63,0.07553
2387.84,0.07482
2382.05,0.07437
2376.27,0.07439
2370.48,0.07587
2364.69,0.07543
2358.91,0.07751
2353.12,0.07824
2347.34,0.07945
2341.55,0.08022
2335.76,0.08134
2329.98,0.08200
2324.19,0.08179
2318.4,0.08266
2312.62,0.08280
2306.83,0.08258
2301.04,0.08237
2295.26,0.08177
2289.47,0.08088
2283.69,0.07944
2277.9,0.07896
2272.11,0.07938
2266.33,0.08080
2260.54,0.08073
2254.75,0.08071
2248.97,0.08032
2243.18,0.08072
2237.39,0.08071
2231.61,0.08046
2225.82,0.08074
2220.04,0.08103
2214.25,0.08105
2208.46,0.08160
2202.68,0.08297
2196.89,0.08347
2191.1,0.08375
2185.32,0.08445
2179.53,0.08504
2173.74,0.08563
2167.96,0.08506
2162.17,0.08493
2156.39,0.08428
2150.6,0.08484
2144.81,0.08437
2139.03,0.08410
2133.24,0.08415
2127.45,0.08363
2121.67,0.08364
2115.88,0.08325
2110.09,0.08332
2104.31,0.08282
2098.52,0.08317
2092.74,0.08252
2086.95,0.08271
2081.16,0.08185
2075.38,0.08215
2069.59,0.08172
2063.8,0.08252
2058.02,0.08232
2052.23,0.08263
2046.44,0.08324
2040.66,0.08313
2034.87,0.08375
2029.09,0.08325
2023.3,0.08407
2017.51,0.08437
2011.73,0.08503
2005.94,0.08477
2000.15,0.08447
1994.37,0.08308
1988.58,0.08224
1982.79,0.08178
1977.01,0.08115
1971.22,0.08067
1965.44,0.07802
1959.65,0.07601
1953.86,0.07249
1948.08,0.07169
1942.29,0.07296
1936.5,0.07567
1930.72,0.07773
1924.93,0.07881
1919.14,0.07961
1913.36,0.07984
1907.57,0.08038
1901.79,0.08027
1896,0.08077
1890.21,0.08019
1884.43,0.08086
1878.64,0.08012
1872.85,0.08089
1867.07,0.07998
1861.28,0.07949
1855.49,0.07806
1849.71,0.07663
1843.92,0.07398
1838.14,0.07270
1832.35,0.06966
1826.56,0.06684
1820.78,0.06593
1814.99,0.06670
1809.2,0.06701
1803.42,0.06691
1797.63,0.06529
1791.84,0.06441
1786.06,0.06258
1780.27,0.06108
1774.49,0.05996
1768.7,0.05784
1762.91,0.05677
1757.13,0.05496
1751.34,0.05400
1745.55,0.05308
1739.77,0.05169
1733.98,0.04992
1728.19,0.05155
1722.41,0.05777
1716.62,0.06611
1710.84,0.06960
1705.05,0.06749
1699.26,0.06545
1693.48,0.06302
1687.69,0.06164
1681.9,0.06064
1676.12,0.05977
1670.33,0.06036
1664.54,0.06118
1658.76,0.06273
1652.97,0.06318
1647.19,0.06302
1641.4,0.06115
1635.61,0.06051
1629.83,0.06213
1624.04,0.06363
1618.25,0.06344
1612.47,0.06212
1606.68,0.06256
1600.89,0.06442
1595.11,0.06417
1589.32,0.06324
1583.54,0.06045
1577.75,0.05799
1571.96,0.05951
1566.18,0.05935
1560.39,0.06061
1554.6,0.06055
1548.82,0.06042
1543.03,0.06004
1537.24,0.05908
1531.46,0.05940
1525.67,0.05991
1519.89,0.05997
1514.1,0.05911
1508.31,0.05755
1502.53,0.05640
1496.74,0.05775
1490.95,0.05763
1485.17,0.05602
1479.38,0.05465
1473.59,0.05405
1467.81,0.05415
1462.02,0.05616
1456.24,0.05732
1450.45,0.05627
1444.66,0.05564
1438.88,0.05464
1433.09,0.05593
1427.3,0.05628
1421.52,0.05735
1415.73,0.05605
1409.94,0.05607
1404.16,0.05701
1398.37,0.05628
1392.59,0.05494
1386.8,0.05421
1381.01,0.05569
1375.23,0.05612
1369.44,0.05517
1363.65,0.05481
1357.87,0.05425
1352.08,0.05422
1346.29,0.05322
1340.51,0.05239
1334.72,0.05263
1328.94,0.05271
1323.15,0.05289
1317.36,0.05257
1311.58,0.05160
1305.79,0.05101
1300,0.04975
1294.22,0.04804
1288.43,0.04650
1282.64,0.04738
1276.86,0.05390
1271.07,0.06517
1265.29,0.07299
1259.5,0.07027
1253.71,0.06937
1247.93,0.07246
1242.14,0.07359
1236.35,0.07190
1230.57,0.06985
1224.78,0.06836
1218.99,0.06624
1213.21,0.06469
1207.42,0.06386
1201.64,0.06319
1195.85,0.06259
1190.06,0.06198
1184.28,0.06129
1178.49,0.06043
1172.7,0.06003
1166.92,0.05982
1161.13,0.05916
1155.34,0.05902
1149.56,0.05821
1143.77,0.05746
1137.99,0.05594
1132.2,0.05374
1126.41,0.05344
1120.63,0.05850
1114.84,0.06494
1109.05,0.06425
1103.27,0.06793
1097.48,0.07081
1091.69,0.06921
1085.91,0.06711
1080.12,0.06598
1074.34,0.06552
1068.55,0.06453
1062.76,0.06452
1056.98,0.06388
1051.19,0.06346
1045.4,0.06263
1039.62,0.06180
1033.83,0.06175
1028.04,0.06125
1022.26,0.05984
1016.47,0.06504
1010.69,0.06407
1004.9,0.06294
999.112,0.06160
993.326,0.06117
987.54,0.06105
981.753,0.06112
975.967,0.06149
970.18,0.06206
964.394,0.06165
958.608,0.06339
952.821,0.06346
947.035,0.06440
941.249,0.06456
935.462,0.06365
929.676,0.06304
923.89,0.06295
918.103,0.06349
912.317,0.06252
906.53,0.06344
900.744,0.06281
894.958,0.06251
889.171,0.06295
883.385,0.06090
877.599,0.06158
871.812,0.06358
866.026,0.06249
860.24,0.06279
854.453,0.06235
848.667,0.06217
842.88,0.06178
837.094,0.06157
831.308,0.06136
825.521,0.06159
819.735,0.06317
813.949,0.06246
808.162,0.06308
802.376,0.06173
796.59,0.06161
790.803,0.05994
785.017,0.06095
779.23,0.05942
773.444,0.05903
767.658,0.05970
761.871,0.05912
756.085,0.05949
750.299,0.05754
744.512,0.05541
738.726,0.05159
732.94,0.05907
727.153,0.06883
721.367,0.06309
715.58,0.06187
709.794,0.05945
704.008,0.05979
698.221,0.05886
692.435,0.05935
686.649,0.06035
680.862,0.06067
675.076,0.06085
669.29,0.06056
663.503,0.05983
657.717,0.05817
651.93,0.05616
646.144,0.05680
640.358,0.05741
634.571,0.06043
628.785,0.06253
622.999,0.06084
617.212,0.06034
611.426,0.06321
605.639,0.06521
599.853,0.06776