File: 01_Data/PEVA/FTIR/IS/PEVA_0.18_IS_S_240809_R8.dpt
7497.33,0.09519
7491.55,0.10893
7485.76,0.10854
7479.97,0.09238
7474.19,0.09608
7468.4,0.09402
7462.61,0.09239
7456.83,0.09748
7451.04,0.09688
7445.26,0.09064
7439.47,0.10416
7433.68,0.09706
7427.9,0.10230
7422.11,0.09991
7416.32,0.10594
7410.54,0.10143
7404.75,0.09642
7398.96,0.09853
7393.18,0.10157
7387.39,0.09409
7381.6,0.10341
7375.82,0.09737
7370.03,0.10445
7364.24,0.10490
7358.46,0.08868
7352.67,0.09650
7346.89,0.10538
7341.1,0.08828
7335.31,0.10854
7329.53,0.10571
7323.74,0.09883
7317.95,0.08252
7312.17,0.09873
7306.38,0.08889
7300.59,0.10240
7294.81,0.10514
7289.02,0.10886
7283.23,0.11085
7277.45,0.10776
7271.66,0.10088
7265.87,0.09371
7260.09,0.10613
7254.3,0.10738
7248.52,0.10186
7242.73,0.09665
7236.94,0.10516
7231.16,0.09142
7225.37,0.09798
7219.58,0.09749
7213.8,0.10191
7208.01,0.10350
7202.22,0.10584
7196.44,0.09111
7190.65,0.10071
7184.86,0.09787
7179.08,0.10733
7173.29,0.10534
7167.5,0.10308
7161.72,0.11597
7155.93,0.10228
7150.15,0.10610
7144.36,0.10752
7138.57,0.10794
7132.79,0.10781
7127,0.09149
7121.21,0.09308
7115.43,0.10336
7109.64,0.09872
7103.85,0.09845
7098.07,0.10603
7092.28,0.10641
7086.49,0.10118
7080.71,0.09833
7074.92,0.09773
7069.13,0.09987
7063.35,0.10733
7057.56,0.10505
7051.78,0.10117
7045.99,0.10395
7040.2,0.09986
7034.42,0.09795
7028.63,0.09760
7022.84,0.10693
7017.06,0.09141
7011.27,0.10026
7005.48,0.09342
6999.7,0.09595
6993.91,0.09269
6988.12,0.09398
6982.34,0.09588
6976.55,0.09358
6970.76,0.08957
6964.98,0.09394
6959.19,0.09542
6953.41,0.09361
6947.62,0.10108
6941.83,0.10230
6936.05,0.10764
6930.26,0.09959
6924.47,0.10345
6918.69,0.09996
6912.9,0.09839
6907.11,0.09858
6901.33,0.10197
6895.54,0.09292
6889.75,0.10141
6883.97,0.10074
6878.18,0.10199
6872.39,0.09774
6866.61,0.09997
6860.82,0.10105
6855.04,0.10600
6849.25,0.10352
6843.46,0.09976
6837.68,0.10190
6831.89,0.09875
6826.1,0.10194
6820.32,0.09715
6814.53,0.09624
6808.74,0.10251
6802.96,0.09814
6797.17,0.10327
6791.38,0.10035
6785.6,0.10175
6779.81,0.09413
6774.03,0.10010
6768.24,0.09884
6762.45,0.10347
6756.67,0.10011
6750.88,0.10017
6745.09,0.10095
6739.31,0.10559
6733.52,0.09661
6727.73,0.09811
6721.95,0.09953
6716.16,0.10300
6710.37,0.10013
6704.59,0.10483
6698.8,0.09974
6693.01,0.10001
6687.23,0.09602
6681.44,0.09610
6675.66,0.10021
6669.87,0.10063
6664.08,0.10426
6658.3,0.09665
6652.51,0.10202
6646.72,0.10200
6640.94,0.10401
6635.15,0.09766
6629.36,0.10101
6623.58,0.10220
6617.79,0.10254
6612,0.10253
6606.22,0.10244
6600.43,0.09972
6594.64,0.10000
6588.86,0.10173
6583.07,0.10224
6577.29,0.09757
6571.5,0.10223
6565.71,0.09859
6559.93,0.10342
6554.14,0.10014
6548.35,0.09890
6542.57,0.09894
6536.78,0.10495
6530.99,0.10315
6525.21,0.09659
6519.42,0.09801
6513.63,0.10009
6507.85,0.10081
6502.06,0.09952
6496.27,0.10595
6490.49,0.09970
6484.7,0.10538
6478.92,0.10233
6473.13,0.10342
6467.34,0.10626
6461.56,0.10069
6455.77,0.10225
6449.98,0.10188
6444.2,0.09618
6438.41,0.09673
6432.62,0.10265
6426.84,0.09637
6421.05,0.09947
6415.26,0.09870
6409.48,0.10664
6403.69,0.09934
6397.9,0.09556
6392.12,0.10135
6386.33,0.10129
6380.55,0.09885
6374.76,0.10252
6368.97,0.10046
6363.19,0.10432
6357.4,0.09934
6351.61,0.10018
6345.83,0.09786
6340.04,0.09956
6334.25,0.09816
6328.47,0.10141
6322.68,0.10050
6316.89,0.09963
6311.11,0.09956
6305.32,0.10051
6299.53,0.09617
6293.75,0.10024
6287.96,0.10277
6282.18,0.10261
6276.39,0.10012
6270.6,0.10084
6264.82,0.10259
6259.03,0.10055
6253.24,0.10219
6247.46,0.09877
6241.67,0.10337
6235.88,0.10086
6230.1,0.10308
6224.31,0.10073
6218.52,0.10132
6212.74,0.10436
6206.95,0.10116
6201.16,0.10203
6195.38,0.09830
6189.59,0.09962
6183.81,0.09797
6178.02,0.09959
6172.23,0.10252
6166.45,0.10133
6160.66,0.10262
6154.87,0.10277
6149.09,0.09798
6143.3,0.10167
6137.51,0.10006
6131.73,0.09924
6125.94,0.10221
6120.15,0.10189
6114.37,0.10342
6108.58,0.09898
6102.79,0.09946
6097.01,0.09930
6091.22,0.09869
6085.44,0.10379
6079.65,0.10234
6073.86,0.09721
6068.08,0.09843
6062.29,0.09475
6056.5,0.09934
6050.72,0.09753
6044.93,0.10142
6039.14,0.10004
6033.36,0.10326
6027.57,0.09868
6021.78,0.09843
6016,0.10292
6010.21,0.10016
6004.42,0.09347
5998.64,0.09599
5992.85,0.09603
5987.07,0.09942
5981.28,0.10011
5975.49,0.09660
5969.71,0.09615
5963.92,0.09818
5958.13,0.09833
5952.35,0.09629
5946.56,0.09697
5940.77,0.09666
5934.99,0.09710
5929.2,0.09907
5923.41,0.09977
5917.63,0.09867
5911.84,0.09827
5906.05,0.09647
5900.27,0.09828
5894.48,0.09730
5888.7,0.09605
5882.91,0.09718
5877.12,0.09758
5871.34,0.09666
5865.55,0.09665
5859.76,0.09510
5853.98,0.09260
5848.19,0.09270
5842.4,0.09207
5836.62,0.09243
5830.83,0.09119
5825.04,0.09184
5819.26,0.08903
5813.47,0.08849
5807.68,0.08823
5801.9,0.08658
5796.11,0.08307
5790.33,0.08355
5784.54,0.08259
5778.75,0.08553
5772.97,0.08008
5767.18,0.08240
5761.39,0.08623
5755.61,0.09022
5749.82,0.08990
5744.03,0.09011
5738.25,0.09507
5732.46,0.09371
5726.67,0.09362
5720.89,0.09335
5715.1,0.09160
5709.31,0.09425
5703.53,0.09056
5697.74,0.09085
5691.96,0.09343
5686.17,0.09054
5680.38,0.09159
5674.6,0.08983
5668.81,0.09161
5663.02,0.09062
5657.24,0.09090
5651.45,0.09112
5645.66,0.09366
5639.88,0.09333
5634.09,0.09438
5628.3,0.09494
5622.52,0.09412
5616.73,0.09646
5610.94,0.09507
5605.16,0.09379
5599.37,0.09576
5593.59,0.09516
5587.8,0.09578
5582.01,0.09347
5576.23,0.09707
5570.44,0.09350
5564.65,0.09398
5558.87,0.09443
5553.08,0.09455
5547.29,0.09437
5541.51,0.09529
5535.72,0.09382
5529.93,0.09576
5524.15,0.09605
5518.36,0.09433
5512.58,0.09604
5506.79,0.09472
5501,0.09809
5495.22,0.09873
5489.43,0.09437
5483.64,0.09539
5477.86,0.09462
5472.07,0.09421
5466.28,0.09525
5460.5,0.09718
5454.71,0.09699
5448.92,0.09719
5443.14,0.09790
5437.35,0.09632
5431.56,0.09493
5425.78,0.09794
5419.99,0.09680
5414.21,0.09912
5408.42,0.09928
5402.63,0.09764
5396.85,0.09842
5391.06,0.09956
5385.27,0.09927
5379.49,0.09680
5373.7,0.09972
5367.91,0.09860
5362.13,0.09917
5356.34,0.09565
5350.55,0.09791
5344.77,0.10035
5338.98,0.09880
5333.19,0.09804
5327.41,0.09697
5321.62,0.09774
5315.84,0.09900
5310.05,0.09731
5304.26,0.09821
5298.48,0.09859
5292.69,0.10056
5286.9,0.09820
5281.12,0.09855
5275.33,0.10028
5269.54,0.09853
5263.76,0.09788
5257.97,0.09825
5252.18,0.09900
5246.4,0.09830
5240.61,0.10017
5234.82,0.09821
5229.04,0.10002
5223.25,0.09991
5217.47,0.09866
5211.68,0.10205
5205.89,0.09921
5200.11,0.09975
5194.32,0.10011
5188.53,0.10011
5182.75,0.09866
5176.96,0.09936
5171.17,0.10047
5165.39,0.10097
5159.6,0.09937
5153.81,0.10055
5148.03,0.10029
5142.24,0.09873
5136.45,0.09995
5130.67,0.09945
5124.88,0.09797
5119.1,0.09794
5113.31,0.09967
5107.52,0.09955
5101.74,0.10023
5095.95,0.09917
5090.16,0.09982
5084.38,0.09962
5078.59,0.09974
5072.8,0.09782
5067.02,0.09987
5061.23,0.09913
5055.44,0.09986
5049.66,0.09981
5043.87,0.10007
5038.08,0.09984
5032.3,0.09964
5026.51,0.09986
5020.73,0.09872
5014.94,0.10054
5009.15,0.09976
5003.37,0.09949
4997.58,0.09826
4991.79,0.09875
4986.01,0.09865
4980.22,0.09885
4974.43,0.09986
4968.65,0.10021
4962.86,0.09908
4957.07,0.09999
4951.29,0.09953
4945.5,0.10035
4939.71,0.10045
4933.93,0.10041
4928.14,0.10082
4922.36,0.09908
4916.57,0.09897
4910.78,0.09943
4905,0.10008
4899.21,0.10007
4893.42,0.09964
4887.64,0.09956
4881.85,0.09990
4876.06,0.09908
4870.28,0.10026
4864.49,0.10021
4858.7,0.10037
4852.92,0.10015
4847.13,0.09908
4841.34,0.10104
4835.56,0.10075
4829.77,0.10011
4823.99,0.10144
4818.2,0.10086
4812.41,0.10051
4806.63,0.10086
4800.84,0.10001
4795.05,0.10114
4789.27,0.10068
4783.48,0.10074
4777.69,0.10136
4771.91,0.10080
4766.12,0.10019
4760.33,0.10105
4754.55,0.10165
4748.76,0.10050
4742.97,0.10086
4737.19,0.10111
4731.4,0.10065
4725.62,0.10183
4719.83,0.10132
4714.04,0.10075
4708.26,0.10010
4702.47,0.10010
4696.68,0.09971
4690.9,0.10061
4685.11,0.10035
4679.32,0.09959
4673.54,0.09810
4667.75,0.09945
4661.96,0.09939
4656.18,0.09956
4650.39,0.10054
4644.6,0.09908
4638.82,0.09924
4633.03,0.10023
4627.25,0.10008
4621.46,0.10018
4615.67,0.10029
4609.89,0.09929
4604.1,0.10068
4598.31,0.09969
4592.53,0.10056
4586.74,0.10095
4580.95,0.09985
4575.17,0.10055
4569.38,0.10083
4563.59,0.10076
4557.81,0.10050
4552.02,0.09973
4546.23,0.10110
4540.45,0.10095
4534.66,0.10059
4528.88,0.10011
4523.09,0.10023
4517.3,0.10049
4511.52,0.10026
4505.73,0.09974
4499.94,0.10060
4494.16,0.10025
4488.37,0.09909
4482.58,0.09785
4476.8,0.09883
4471.01,0.09857
4465.22,0.09793
4459.44,0.09752
4453.65,0.09636
4447.86,0.09533
4442.08,0.09332
4436.29,0.09215
4430.51,0.09217
4424.72,0.09206
4418.93,0.09173
4413.15,0.09002
4407.36,0.08984
4401.57,0.08838
4395.79,0.08755
4390,0.08564
4384.21,0.08389
4378.43,0.08294
4372.64,0.08070
4366.85,0.07897
4361.07,0.07633
4355.28,0.07378
4349.49,0.07227
4343.71,0.06982
4337.92,0.06679
4332.14,0.06498
4326.35,0.06346
4320.56,0.06402
4314.78,0.06877
4308.99,0.07428
4303.2,0.07701
4297.42,0.07795
4291.63,0.07774
4285.84,0.07691
4280.06,0.07588
4274.27,0.07451
4268.48,0.07252
4262.7,0.07014
4256.91,0.06638
4251.13,0.06587
4245.34,0.07010
4239.55,0.07342
4233.77,0.07410
4227.98,0.07304
4222.19,0.07153
4216.41,0.07232
4210.62,0.07227
4204.83,0.07195
4199.05,0.07032
4193.26,0.06938
4187.47,0.06992
4181.69,0.07014
4175.9,0.06965
4170.11,0.07049
4164.33,0.07064
4158.54,0.07100
4152.76,0.07026
4146.97,0.07131
4141.18,0.07154
4135.4,0.07162
4129.61,0.07171
4123.82,0.07240
4118.04,0.07307
4112.25,0.07246
4106.46,0.07296
4100.68,0.07258
4094.89,0.07275
4089.1,0.07371
4083.32,0.07556
4077.53,0.07631
4071.74,0.07687
4065.96,0.07674
4060.17,0.07762
4054.39,0.07880
4048.6,0.07883
4042.81,0.07894
4037.03,0.07951
4031.24,0.07955
4025.45,0.07936
4019.67,0.08007
4013.88,0.08195
4008.09,0.08160
4002.31,0.08261
3996.52,0.08244
3990.73,0.08309
3984.95,0.08221
3979.16,0.08220
3973.37,0.08142
3967.59,0.08180
3961.8,0.08247
3956.02,0.08369
3950.23,0.08280
3944.44,0.08322
3938.66,0.08327
3932.87,0.08444
3927.08,0.08382
3921.3,0.08355
3915.51,0.08257
3909.72,0.08371
3903.94,0.08399
3898.15,0.08404
3892.36,0.08453
3886.58,0.08453
3880.79,0.08469
3875,0.08512
3869.22,0.08475
3863.43,0.08703
3857.65,0.08669
3851.86,0.08599
3846.07,0.08774
3840.29,0.08723
3834.5,0.08749
3828.71,0.08741
3822.93,0.08796
3817.14,0.08749
3811.35,0.08835
3805.57,0.08799
3799.78,0.08902
3793.99,0.08974
3788.21,0.08961
3782.42,0.08977
3776.63,0.08960
3770.85,0.08987
3765.06,0.08876
3759.28,0.08979
3753.49,0.08991
3747.7,0.08779
3741.92,0.08979
3736.13,0.08834
3730.34,0.08807
3724.56,0.08851
3718.77,0.08887
3712.98,0.08788
3707.2,0.08687
3701.41,0.08682
3695.62,0.08733
3689.84,0.08530
3684.05,0.08646
3678.26,0.08681
3672.48,0.08676
3666.69,0.08497
3660.91,0.08494
3655.12,0.08352
3649.33,0.08247
3643.55,0.08272
3637.76,0.08359
3631.97,0.08433
3626.19,0.08417
3620.4,0.08461
3614.61,0.08344
3608.83,0.08037
3603.04,0.08092
3597.25,0.08404
3591.47,0.08786
3585.68,0.08930
3579.89,0.09001
3574.11,0.09053
3568.32,0.08999
3562.54,0.09126
3556.75,0.09156
3550.96,0.09182
3545.18,0.09178
3539.39,0.09182
3533.6,0.09153
3527.82,0.09137
3522.03,0.09165
3516.24,0.09210
3510.46,0.09188
3504.67,0.09055
3498.88,0.09118
3493.1,0.09008
3487.31,0.08983
3481.52,0.08885
3475.74,0.08650
3469.95,0.08346
3464.17,0.07986
3458.38,0.07894
3452.59,0.07901
3446.81,0.08151
3441.02,0.08351
3435.23,0.08593
3429.45,0.08722
3423.66,0.08771
3417.87,0.08877
3412.09,0.08915
3406.3,0.08901
3400.51,0.08871
3394.73,0.08833
3388.94,0.08814
3383.15,0.08787
3377.37,0.08824
3371.58,0.08807
3365.8,0.08762
3360.01,0.08813
3354.22,0.08769
3348.44,0.08778
3342.65,0.08840
3336.86,0.08899
3331.08,0.08900
3325.29,0.08886
3319.5,0.08867
3313.72,0.08897
3307.93,0.08912
3302.14,0.08828
3296.36,0.08877
3290.57,0.08857
3284.78,0.08813
3279,0.08839
3273.21,0.08811
3267.43,0.08800
3261.64,0.08903
3255.85,0.08830
3250.07,0.08847
3244.28,0.08874
3238.49,0.08840
3232.71,0.08793
3226.92,0.08835
3221.13,0.08739
3215.35,0.08755
3209.56,0.08642
3203.77,0.08632
3197.99,0.08713
3192.2,0.08621
3186.41,0.08588
3180.63,0.08521
3174.84,0.08502
3169.06,0.08505
3163.27,0.08455
3157.48,0.08362
3151.7,0.08276
3145.91,0.08249
3140.12,0.08172
3134.34,0.08030
3128.55,0.07964
3122.76,0.07846
3116.98,0.07697
3111.19,0.07636
3105.4,0.07338
3099.62,0.07169
3093.83,0.06880
3088.05,0.06737
3082.26,0.06586
3076.47,0.06372
3070.69,0.06263
3064.9,0.06163
3059.11,0.06062
3053.33,0.05954
3047.54,0.05824
3041.75,0.05799
3035.97,0.05669
3030.18,0.05554
3024.39,0.05519
3018.61,0.05520
3012.82,0.05432
3007.03,0.05418
3001.25,0.05361
2995.46,0.05278
2989.68,0.05252
2983.89,0.05171
2978.1,0.05048
2972.32,0.04951
2966.53,0.04833
2960.74,0.04713
2954.96,0.04656
2949.17,0.04493
2943.38,0.04209
2937.6,0.03960
2931.81,0.03993
2926.02,0.04874
2920.24,0.07276
2914.45,0.08768
2908.66,0.07814
2902.88,0.07208
2897.09,0.06982
2891.31,0.06820
2885.52,0.06585
2879.73,0.06372
2873.95,0.06148
2868.16,0.05896
2862.37,0.05568
2856.59,0.05460
2850.8,0.07019
2845.01,0.08325
2839.23,0.07636
2833.44,0.07059
2827.65,0.06805
2821.87,0.06673
2816.08,0.06642
2810.29,0.06620
2804.51,0.06583
2798.72,0.06595
2792.94,0.06640
2787.15,0.06696
2781.36,0.06770
2775.58,0.06825
2769.79,0.06882
2764,0.06851
2758.22,0.06884
2752.43,0.06875
2746.64,0.06874
2740.86,0.06795
2735.07,0.06748
2729.28,0.06788
2723.5,0.06807
2717.71,0.06822
2711.92,0.06794
2706.14,0.06814
2700.35,0.06836
2694.57,0.06737
2688.78,0.06720
2682.99,0.06624
2677.21,0.06578
2671.42,0.06582
2665.63,0.06578
2659.85,0.06577
2654.06,0.06602
2648.27,0.06625
2642.49,0.06603
2636.7,0.06631
2630.91,0.06673
2625.13,0.06797
2619.34,0.06891
2613.55,0.06981
2607.77,0.07117
2601.98,0.07176
2596.2,0.07276
2590.41,0.07414
2584.62,0.07549
2578.84,0.07697
2573.05,0.07835
2567.26,0.07917
2561.48,0.08021
2555.69,0.08053
2549.9,0.08169
2544.12,0.08248
2538.33,0.08336
2532.54,0.08332
2526.76,0.08324
2520.97,0.08464
2515.18,0.08579
2509.4,0.08657
2503.61,0.08657
2497.83,0.08675
2492.04,0.08732
2486.25,0.08662
2480.47,0.08660
2474.68,0.08716
2468.89,0.08823
2463.11,0.08963
2457.32,0.09035
2451.53,0.09146
2445.75,0.09179
2439.96,0.09200
2434.17,0.09225
2428.39,0.09163
2422.6,0.09077
2416.81,0.09018
2411.03,0.09040
2405.24,0.08981
2399.46,0.08973
2393.67,0.09001
2387.88,0.09012
2382.1,0.08903
2376.31,0.08900
2370.52,0.08831
2364.74,0.08746
2358.95,0.08582
2353.16,0.08428
2347.38,0.08254
2341.59,0.08169
2335.8,0.08099
2330.02,0.08075
2324.23,0.08067
2318.44,0.08109
2312.66,0.08126
2306.87,0.08157
2301.09,0.08229
2295.3,0.08321
2289.51,0.08383
2283.73,0.08466
2277.94,0.08502
2272.15,0.08595
2266.37,0.08653
2260.58,0.08718
2254.79,0.08795
2249.01,0.08831
2243.22,0.08913
2237.43,0.09077
2231.65,0.09217
2225.86,0.09300
2220.07,0.09300
2214.29,0.09377
2208.5,0.09412
2202.72,0.09339
2196.93,0.09319
2191.14,0.09263
2185.36,0.09200
2179.57,0.09111
2173.78,0.09155
2168,0.09151
2162.21,0.09060
2156.42,0.08994
2150.64,0.09075
2144.85,0.09116
2139.06,0.09157
2133.28,0.09257
2127.49,0.09340
2121.7,0.09283
2115.92,0.09310
2110.13,0.09272
2104.35,0.09253
2098.56,0.09144
2092.77,0.09139
2086.99,0.09128
2081.2,0.08997
2075.41,0.08948
2069.63,0.08978
2063.84,0.08893
2058.05,0.08750
2052.27,0.08770
2046.48,0.08645
2040.69,0.08498
2034.91,0.08429
2029.12,0.08371
2023.33,0.08233
2017.55,0.08152
2011.76,0.08479
2005.98,0.08765
2000.19,0.08828
1994.4,0.08958
1988.62,0.09093
1982.83,0.09062
1977.04,0.09087
1971.26,0.09155
1965.47,0.09078
1959.68,0.08975
1953.9,0.09049
1948.11,0.09120
1942.32,0.09010
1936.54,0.08980
1930.75,0.09037
1924.96,0.08985
1919.18,0.08883
1913.39,0.08862
1907.61,0.08776
1901.82,0.08533
1896.03,0.08496
1890.25,0.08576
1884.46,0.08592
1878.67,0.08503
1872.89,0.08509
1867.1,0.08434
1861.31,0.08359
1855.53,0.08453
1849.74,0.08556
1843.95,0.08394
1838.17,0.08351
1832.38,0.08372
1826.6,0.08161
1820.81,0.07975
1815.02,0.07991
1809.24,0.07786
1803.45,0.07594
1797.66,0.07541
1791.88,0.07306
1786.09,0.07064
1780.3,0.06967
1774.52,0.06618
1768.73,0.06319
1762.94,0.06093
1757.16,0.05948
1751.37,0.05828
1745.58,0.05262
1739.8,0.04653
1734.01,0.05034
1728.23,0.05546
1722.44,0.05777
1716.65,0.05809
1710.87,0.05850
1705.08,0.05857
1699.29,0.05855
1693.51,0.05889
1687.72,0.06260
1681.93,0.06598
1676.15,0.06745
1670.36,0.07011
1664.57,0.06974
1658.79,0.06871
1653,0.06909
1647.21,0.06753
1641.43,0.07002
1635.64,0.07456
1629.86,0.07647
1624.07,0.07558
1618.28,0.07652
1612.5,0.07895
1606.71,0.07687
1600.92,0.07678
1595.14,0.07859
1589.35,0.07746
1583.56,0.07625
1577.78,0.07725
1571.99,0.07777
1566.2,0.07459
1560.42,0.07508
1554.63,0.07640
1548.84,0.07451
1543.06,0.07474
1537.27,0.07586
1531.49,0.07381
1525.7,0.07277
1519.91,0.07285
1514.13,0.07140
1508.34,0.07000
1502.55,0.06942
1496.77,0.06591
1490.98,0.06346
1485.19,0.05967
1479.41,0.05479
1473.62,0.05325
1467.83,0.05706
1462.05,0.06176
1456.26,0.06293
1450.47,0.06244
1444.69,0.06159
1438.9,0.06113
1433.12,0.06065
1427.33,0.05981
1421.54,0.06080
1415.76,0.06083
1409.97,0.06180
1404.18,0.06205
1398.4,0.05981
1392.61,0.05764
1386.82,0.05488
1381.04,0.05362
1375.25,0.05295
1369.46,0.05359
1363.68,0.05480
1357.89,0.05554
1352.1,0.05569
1346.32,0.05608
1340.53,0.05854
1334.75,0.05912
1328.96,0.05939
1323.17,0.05891
1317.39,0.05597
1311.6,0.05578
1305.81,0.05505
1300.03,0.05460
1294.24,0.05513
1288.45,0.05457
1282.67,0.05447
1276.88,0.05468
1271.09,0.05568
1265.31,0.05779
1259.52,0.06029
1253.73,0.06582
1247.95,0.07290
1242.16,0.07619
1236.38,0.07235
1230.59,0.06519
1224.8,0.06031
1219.02,0.05839
1213.23,0.05778
1207.44,0.05776
1201.66,0.05771
1195.87,0.05763
1190.08,0.05867
1184.3,0.05848
1178.51,0.05951
1172.72,0.05933
1166.94,0.05903
1161.15,0.06022
1155.36,0.05989
1149.58,0.05881
1143.79,0.05944
1138.01,0.05829
1132.22,0.05871
1126.43,0.05842
1120.65,0.05899
1114.86,0.05853
1109.07,0.05920
1103.29,0.05953
1097.5,0.05955
1091.71,0.05941
1085.93,0.05880
1080.14,0.05921
1074.35,0.05761
1068.57,0.05780
1062.78,0.05798
1056.99,0.05869
1051.21,0.05754
1045.42,0.05701
1039.64,0.05813
1033.85,0.05746
1028.06,0.05763
1022.28,0.05875
1016.49,0.06205
1010.7,0.06305
1004.92,0.06255
999.13,0.06208
993.344,0.06253
987.557,0.06312
981.771,0.06246
975.984,0.06115
970.198,0.06079
964.411,0.06037
958.625,0.06008
952.838,0.06048
947.052,0.06084
941.265,0.06077
935.479,0.06086
929.692,0.06230
923.906,0.06608
918.12,0.06807
912.333,0.06791
906.547,0.06962
900.76,0.07137
894.974,0.06891
889.187,0.06923
883.401,0.07198
877.614,0.07123
871.828,0.06938
866.041,0.07106
860.255,0.07363
854.468,0.07078
848.682,0.07199
842.895,0.07670
837.109,0.07621
831.323,0.07332
825.536,0.07743
819.75,0.08009
813.963,0.07490
808.177,0.07244
802.39,0.07752
796.604,0.07538
790.817,0.07145
785.031,0.07762
779.244,0.07927
773.458,0.07091
767.671,0.07088
761.885,0.07609
756.098,0.06857
750.312,0.06363
744.526,0.06710
738.739,0.05855
732.953,0.05271
727.166,0.05636
721.38,0.05702
715.593,0.06162
709.807,0.06660
704.02,0.07072
698.234,0.07184
692.447,0.09022
686.661,0.08188
680.874,0.07735
675.088,0.09463
669.301,0.08959
663.515,0.07231
657.729,0.08378
651.942,0.08601
646.156,0.06506
640.369,0.06677
634.583,0.07866
628.796,0.06960
623.01,0.06084
617.223,0.07371
611.437,0.06659
605.65,0.06402
599.864,0.05886