File: 01_Data/PEVA/FTIR/IS/PEVA_0.26_IS_T_240809_R8.dpt
7497.2,0.04380
7491.41,0.04352
7485.63,0.03797
7479.84,0.03886
7474.05,0.02129
7468.27,0.04960
7462.48,0.02118
7456.7,0.03427
7450.91,0.02695
7445.12,0.03757
7439.34,0.02219
7433.55,0.03311
7427.76,0.04251
7421.98,0.04152
7416.19,0.02867
7410.4,0.03988
7404.62,0.04548
7398.83,0.03554
7393.05,0.03988
7387.26,0.04246
7381.47,0.02925
7375.69,0.03759
7369.9,0.03109
7364.11,0.03056
7358.33,0.03792
7352.54,0.02045
7346.75,0.03491
7340.97,0.02892
7335.18,0.04145
7329.4,0.03756
7323.61,0.04725
7317.82,0.03255
7312.04,0.03038
7306.25,0.04268
7300.46,0.03273
7294.68,0.03645
7288.89,0.03459
7283.1,0.02656
7277.32,0.02726
7271.53,0.03744
7265.75,0.04408
7259.96,0.02812
7254.17,0.03249
7248.39,0.03340
7242.6,0.02283
7236.81,0.03000
7231.03,0.03443
7225.24,0.03484
7219.45,0.03260
7213.67,0.03211
7207.88,0.02744
7202.1,0.02555
7196.31,0.03000
7190.52,0.04646
7184.74,0.03817
7178.95,0.04272
7173.16,0.04573
7167.38,0.03150
7161.59,0.02771
7155.8,0.04799
7150.02,0.03621
7144.23,0.03158
7138.45,0.04169
7132.66,0.03296
7126.87,0.02951
7121.09,0.03345
7115.3,0.02792
7109.51,0.03541
7103.73,0.03042
7097.94,0.03050
7092.15,0.03468
7086.37,0.03815
7080.58,0.03574
7074.8,0.03405
7069.01,0.02777
7063.22,0.03068
7057.44,0.03601
7051.65,0.03007
7045.86,0.04308
7040.08,0.03052
7034.29,0.02708
7028.5,0.03226
7022.72,0.03274
7016.93,0.03780
7011.15,0.03612
7005.36,0.03667
6999.57,0.03691
6993.79,0.02722
6988,0.02795
6982.21,0.03517
6976.43,0.02725
6970.64,0.03060
6964.85,0.04357
6959.07,0.03453
6953.28,0.03012
6947.5,0.03258
6941.71,0.03375
6935.92,0.03247
6930.14,0.03571
6924.35,0.03794
6918.56,0.03301
6912.78,0.03561
6906.99,0.03604
6901.2,0.03067
6895.42,0.03748
6889.63,0.03399
6883.85,0.02828
6878.06,0.03121
6872.27,0.02583
6866.49,0.03287
6860.7,0.03531
6854.91,0.02892
6849.13,0.03102
6843.34,0.03467
6837.55,0.03840
6831.77,0.02976
6825.98,0.03357
6820.2,0.03042
6814.41,0.02715
6808.62,0.02890
6802.84,0.02473
6797.05,0.02905
6791.26,0.03356
6785.48,0.03510
6779.69,0.03604
6773.9,0.03757
6768.12,0.03293
6762.33,0.03378
6756.55,0.03434
6750.76,0.03842
6744.97,0.03468
6739.19,0.03293
6733.4,0.03495
6727.61,0.03030
6721.83,0.03073
6716.04,0.02920
6710.25,0.03728
6704.47,0.03497
6698.68,0.03321
6692.9,0.02942
6687.11,0.03104
6681.32,0.02811
6675.54,0.03399
6669.75,0.03105
6663.96,0.03354
6658.18,0.03569
6652.39,0.03442
6646.6,0.03603
6640.82,0.03799
6635.03,0.03188
6629.25,0.03223
6623.46,0.03404
6617.67,0.03196
6611.89,0.03437
6606.1,0.03746
6600.31,0.03265
6594.53,0.03490
6588.74,0.03611
6582.95,0.03507
6577.17,0.02725
6571.38,0.03251
6565.6,0.02926
6559.81,0.02876
6554.02,0.02802
6548.24,0.03011
6542.45,0.02986
6536.66,0.03189
6530.88,0.03302
6525.09,0.03526
6519.3,0.03553
6513.52,0.02962
6507.73,0.03561
6501.95,0.03497
6496.16,0.03035
6490.37,0.03023
6484.59,0.03119
6478.8,0.02923
6473.01,0.03428
6467.23,0.02857
6461.44,0.03185
6455.65,0.03246
6449.87,0.03509
6444.08,0.03414
6438.3,0.03584
6432.51,0.03294
6426.72,0.02861
6420.94,0.03344
6415.15,0.03395
6409.36,0.03882
6403.58,0.03202
6397.79,0.03246
6392,0.03376
6386.22,0.02954
6380.43,0.03357
6374.65,0.02631
6368.86,0.03317
6363.07,0.03125
6357.29,0.03256
6351.5,0.03435
6345.71,0.02985
6339.93,0.03041
6334.14,0.03053
6328.35,0.02816
6322.57,0.03013
6316.78,0.03451
6310.99,0.03303
6305.21,0.03094
6299.42,0.03016
6293.64,0.02982
6287.85,0.03060
6282.06,0.02975
6276.28,0.03303
6270.49,0.02954
6264.7,0.03351
6258.92,0.03213
6253.13,0.03054
6247.34,0.03031
6241.56,0.02962
6235.77,0.03247
6229.99,0.02678
6224.2,0.02938
6218.41,0.02988
6212.63,0.02698
6206.84,0.02954
6201.05,0.02844
6195.27,0.02673
6189.48,0.02765
6183.69,0.03157
6177.91,0.03384
6172.12,0.03345
6166.34,0.03096
6160.55,0.03205
6154.76,0.02910
6148.98,0.02646
6143.19,0.02856
6137.4,0.02871
6131.62,0.02993
6125.83,0.03245
6120.04,0.03164
6114.26,0.02930
6108.47,0.03432
6102.69,0.03026
6096.9,0.02836
6091.11,0.02950
6085.33,0.02847
6079.54,0.03259
6073.75,0.02924
6067.97,0.03413
6062.18,0.02961
6056.39,0.03465
6050.61,0.03097
6044.82,0.02594
6039.04,0.02827
6033.25,0.02718
6027.46,0.02890
6021.68,0.02944
6015.89,0.03076
6010.1,0.03168
6004.32,0.02673
5998.53,0.03377
5992.74,0.03249
5986.96,0.03307
5981.17,0.03233
5975.39,0.03346
5969.6,0.03089
5963.81,0.03183
5958.03,0.03028
5952.24,0.03171
5946.45,0.03101
5940.67,0.02967
5934.88,0.02925
5929.09,0.02951
5923.31,0.03026
5917.52,0.03059
5911.74,0.02910
5905.95,0.03166
5900.16,0.03217
5894.38,0.03413
5888.59,0.03213
5882.8,0.03059
5877.02,0.03195
5871.23,0.03232
5865.44,0.03273
5859.66,0.03179
5853.87,0.03139
5848.09,0.03126
5842.3,0.03197
5836.51,0.03303
5830.73,0.02998
5824.94,0.03202
5819.15,0.03194
5813.37,0.02996
5807.58,0.02884
5801.79,0.02959
5796.01,0.02759
5790.22,0.02916
5784.44,0.03028
5778.65,0.02952
5772.86,0.03289
5767.08,0.03144
5761.29,0.03288
5755.5,0.03069
5749.72,0.02729
5743.93,0.02885
5738.14,0.03235
5732.36,0.03082
5726.57,0.03009
5720.79,0.03010
5715,0.03006
5709.21,0.03033
5703.43,0.03101
5697.64,0.02712
5691.85,0.02974
5686.07,0.03204
5680.28,0.03128
5674.49,0.03040
5668.71,0.03267
5662.92,0.02952
5657.14,0.03104
5651.35,0.03017
5645.56,0.02976
5639.78,0.03186
5633.99,0.02893
5628.2,0.03058
5622.42,0.02880
5616.63,0.03184
5610.84,0.02949
5605.06,0.03054
5599.27,0.03119
5593.49,0.02972
5587.7,0.03087
5581.91,0.03039
5576.13,0.02985
5570.34,0.03242
5564.55,0.02937
5558.77,0.02896
5552.98,0.03161
5547.19,0.03158
5541.41,0.03272
5535.62,0.02916
5529.84,0.03010
5524.05,0.03124
5518.26,0.03144
5512.48,0.03067
5506.69,0.02888
5500.9,0.03181
5495.12,0.03251
5489.33,0.02930
5483.54,0.03036
5477.76,0.03238
5471.97,0.03121
5466.19,0.03135
5460.4,0.03010
5454.61,0.03044
5448.83,0.03176
5443.04,0.03079
5437.25,0.03075
5431.47,0.03144
5425.68,0.02933
5419.89,0.02987
5414.11,0.03003
5408.32,0.03004
5402.54,0.03194
5396.75,0.03207
5390.96,0.02987
5385.18,0.03003
5379.39,0.03185
5373.6,0.02927
5367.82,0.02997
5362.03,0.03015
5356.24,0.03229
5350.46,0.03238
5344.67,0.03288
5338.89,0.03345
5333.1,0.03219
5327.31,0.02996
5321.53,0.02990
5315.74,0.03157
5309.95,0.03141
5304.17,0.02981
5298.38,0.03067
5292.59,0.03100
5286.81,0.02871
5281.02,0.03148
5275.24,0.02980
5269.45,0.02901
5263.66,0.02949
5257.88,0.02926
5252.09,0.03071
5246.3,0.02916
5240.52,0.02982
5234.73,0.02935
5228.94,0.03077
5223.16,0.03048
5217.37,0.02939
5211.59,0.03088
5205.8,0.03056
5200.01,0.02985
5194.23,0.03070
5188.44,0.02989
5182.65,0.02908
5176.87,0.03006
5171.08,0.03058
5165.29,0.03194
5159.51,0.02967
5153.72,0.02928
5147.94,0.03042
5142.15,0.02791
5136.36,0.03003
5130.58,0.03085
5124.79,0.03076
5119,0.03134
5113.22,0.03082
5107.43,0.03119
5101.64,0.03137
5095.86,0.03159
5090.07,0.02946
5084.29,0.02919
5078.5,0.03060
5072.71,0.03111
5066.93,0.03082
5061.14,0.03079
5055.35,0.03144
5049.57,0.02947
5043.78,0.03146
5037.99,0.03043
5032.21,0.03019
5026.42,0.03108
5020.64,0.03130
5014.85,0.03110
5009.06,0.03255
5003.28,0.03071
4997.49,0.02948
4991.7,0.02993
4985.92,0.03072
4980.13,0.03073
4974.34,0.03112
4968.56,0.03192
4962.77,0.03017
4956.99,0.03035
4951.2,0.02981
4945.41,0.03043
4939.63,0.03085
4933.84,0.03108
4928.05,0.02973
4922.27,0.02986
4916.48,0.03303
4910.69,0.03060
4904.91,0.03008
4899.12,0.03061
4893.34,0.03229
4887.55,0.03041
4881.76,0.03069
4875.98,0.03139
4870.19,0.03060
4864.4,0.03077
4858.62,0.03193
4852.83,0.03222
4847.04,0.03045
4841.26,0.03056
4835.47,0.03039
4829.69,0.03042
4823.9,0.03055
4818.11,0.03056
4812.33,0.03051
4806.54,0.03081
4800.75,0.03045
4794.97,0.03092
4789.18,0.02983
4783.39,0.03072
4777.61,0.03000
4771.82,0.03037
4766.04,0.03059
4760.25,0.03003
4754.46,0.03177
4748.68,0.03102
4742.89,0.02945
4737.1,0.03104
4731.32,0.03156
4725.53,0.03102
4719.74,0.03073
4713.96,0.03010
4708.17,0.03029
4702.39,0.03134
4696.6,0.03047
4690.81,0.03078
4685.03,0.03051
4679.24,0.03021
4673.45,0.03070
4667.67,0.03099
4661.88,0.03126
4656.09,0.03126
4650.31,0.03051
4644.52,0.03018
4638.74,0.03120
4632.95,0.03042
4627.16,0.03120
4621.38,0.03073
4615.59,0.03023
4609.8,0.03082
4604.02,0.03162
4598.23,0.03029
4592.44,0.03177
4586.66,0.03127
4580.87,0.03088
4575.09,0.03034
4569.3,0.02965
4563.51,0.03036
4557.73,0.02992
4551.94,0.03066
4546.15,0.03100
4540.37,0.03038
4534.58,0.03124
4528.79,0.03195
4523.01,0.03085
4517.22,0.03023
4511.44,0.03022
4505.65,0.03023
4499.86,0.03107
4494.08,0.03008
4488.29,0.03062
4482.5,0.03008
4476.72,0.03019
4470.93,0.03077
4465.14,0.03022
4459.36,0.02999
4453.57,0.02947
4447.79,0.03032
4442,0.02989
4436.21,0.03083
4430.43,0.03110
4424.64,0.03061
4418.85,0.03007
4413.07,0.02998
4407.28,0.03094
4401.49,0.03046
4395.71,0.03002
4389.92,0.02972
4384.14,0.02956
4378.35,0.03052
4372.56,0.03013
4366.78,0.03075
4360.99,0.02981
4355.2,0.02977
4349.42,0.02938
4343.63,0.02953
4337.84,0.03054
4332.06,0.03062
4326.27,0.03023
4320.49,0.03059
4314.7,0.03023
4308.91,0.02964
4303.13,0.03066
4297.34,0.03023
4291.55,0.03034
4285.77,0.03038
4279.98,0.02985
4274.19,0.02980
4268.41,0.02973
4262.62,0.02992
4256.84,0.03016
4251.05,0.03071
4245.26,0.03070
4239.48,0.03101
4233.69,0.03056
4227.9,0.03056
4222.12,0.03048
4216.33,0.02991
4210.54,0.03016
4204.76,0.02991
4198.97,0.03011
4193.19,0.03104
4187.4,0.03060
4181.61,0.03034
4175.83,0.02969
4170.04,0.03014
4164.25,0.03023
4158.47,0.02999
4152.68,0.02998
4146.89,0.03104
4141.11,0.03026
4135.32,0.03042
4129.54,0.02992
4123.75,0.03021
4117.96,0.03020
4112.18,0.02997
4106.39,0.02977
4100.6,0.02920
4094.82,0.03036
4089.03,0.02960
4083.24,0.02965
4077.46,0.02991
4071.67,0.03043
4065.89,0.02944
4060.1,0.03047
4054.31,0.02997
4048.53,0.03045
4042.74,0.03093
4036.95,0.02997
4031.17,0.03030
4025.38,0.02952
4019.59,0.02997
4013.81,0.02989
4008.02,0.03004
4002.24,0.03033
3996.45,0.02940
3990.66,0.02990
3984.88,0.03032
3979.09,0.03000
3973.3,0.03006
3967.52,0.03079
3961.73,0.03031
3955.94,0.02966
3950.16,0.03001
3944.37,0.02988
3938.59,0.02995
3932.8,0.02987
3927.01,0.03003
3921.23,0.03008
3915.44,0.02981
3909.65,0.03043
3903.87,0.02999
3898.08,0.02997
3892.29,0.02945
3886.51,0.03033
3880.72,0.03029
3874.94,0.03015
3869.15,0.03028
3863.36,0.02966
3857.58,0.03064
3851.79,0.02905
3846,0.03038
3840.22,0.03022
3834.43,0.03084
3828.64,0.03022
3822.86,0.03042
3817.07,0.02972
3811.29,0.03033
3805.5,0.03013
3799.71,0.02945
3793.93,0.02990
3788.14,0.03003
3782.35,0.02964
3776.57,0.02959
3770.78,0.02976
3764.99,0.03075
3759.21,0.03036
3753.42,0.03015
3747.64,0.02981
3741.85,0.03001
3736.06,0.02967
3730.28,0.02919
3724.49,0.02913
3718.7,0.02972
3712.92,0.03027
3707.13,0.02929
3701.34,0.02898
3695.56,0.02996
3689.77,0.02850
3683.99,0.02927
3678.2,0.02921
3672.41,0.03013
3666.63,0.02914
3660.84,0.02950
3655.05,0.02868
3649.27,0.02766
3643.48,0.02825
3637.69,0.02770
3631.91,0.02834
3626.12,0.02752
3620.34,0.02859
3614.55,0.02737
3608.76,0.02802
3602.98,0.02782
3597.19,0.02808
3591.4,0.02811
3585.62,0.02811
3579.83,0.02773
3574.04,0.02717
3568.26,0.02721
3562.47,0.02709
3556.69,0.02703
3550.9,0.02734
3545.11,0.02589
3539.33,0.02711
3533.54,0.02685
3527.75,0.02703
3521.97,0.02682
3516.18,0.02718
3510.39,0.02643
3504.61,0.02681
3498.82,0.02769
3493.04,0.02704
3487.25,0.02655
3481.46,0.02672
3475.68,0.02581
3469.89,0.02638
3464.1,0.02677
3458.32,0.02651
3452.53,0.02615
3446.74,0.02620
3440.96,0.02609
3435.17,0.02683
3429.39,0.02636
3423.6,0.02594
3417.81,0.02633
3412.03,0.02631
3406.24,0.02639
3400.45,0.02666
3394.67,0.02694
3388.88,0.02552
3383.09,0.02654
3377.31,0.02612
3371.52,0.02639
3365.74,0.02633
3359.95,0.02598
3354.16,0.02574
3348.38,0.02550
3342.59,0.02686
3336.8,0.02659
3331.02,0.02645
3325.23,0.02618
3319.44,0.02646
3313.66,0.02666
3307.87,0.02619
3302.09,0.02584
3296.3,0.02584
3290.51,0.02530
3284.73,0.02555
3278.94,0.02620
3273.15,0.02648
3267.37,0.02658
3261.58,0.02637
3255.79,0.02596
3250.01,0.02688
3244.22,0.02709
3238.44,0.02642
3232.65,0.02725
3226.86,0.02620
3221.08,0.02606
3215.29,0.02641
3209.5,0.02651
3203.72,0.02694
3197.93,0.02607
3192.14,0.02763
3186.36,0.02675
3180.57,0.02642
3174.79,0.02670
3169,0.02646
3163.21,0.02677
3157.43,0.02661
3151.64,0.02715
3145.85,0.02718
3140.07,0.02659
3134.28,0.02686
3128.49,0.02720
3122.71,0.02716
3116.92,0.02680
3111.14,0.02670
3105.35,0.02671
3099.56,0.02703
3093.78,0.02728
3087.99,0.02678
3082.2,0.02704
3076.42,0.02639
3070.63,0.02698
3064.84,0.02698
3059.06,0.02684
3053.27,0.02695
3047.49,0.02687
3041.7,0.02683
3035.91,0.02706
3030.13,0.02707
3024.34,0.02685
3018.55,0.02716
3012.77,0.02691
3006.98,0.02663
3001.19,0.02658
2995.41,0.02671
2989.62,0.02640
2983.84,0.02665
2978.05,0.02646
2972.26,0.02557
2966.48,0.02534
2960.69,0.02581
2954.9,0.02590
2949.12,0.02609
2943.33,0.02512
2937.54,0.02490
2931.76,0.02603
2925.97,0.02630
2920.19,0.02702
2914.4,0.02672
2908.61,0.02673
2902.83,0.02590
2897.04,0.02588
2891.25,0.02662
2885.47,0.02589
2879.68,0.02709
2873.89,0.02623
2868.11,0.02636
2862.32,0.02665
2856.54,0.02675
2850.75,0.02691
2844.96,0.02693
2839.18,0.02696
2833.39,0.02761
2827.6,0.02742
2821.82,0.02762
2816.03,0.02736
2810.24,0.02720
2804.46,0.02729
2798.67,0.02709
2792.89,0.02780
2787.1,0.02737
2781.31,0.02730
2775.53,0.02755
2769.74,0.02785
2763.95,0.02722
2758.17,0.02712
2752.38,0.02701
2746.59,0.02700
2740.81,0.02701
2735.02,0.02727
2729.24,0.02724
2723.45,0.02758
2717.66,0.02758
2711.88,0.02726
2706.09,0.02689
2700.3,0.02711
2694.52,0.02750
2688.73,0.02741
2682.94,0.02715
2677.16,0.02705
2671.37,0.02698
2665.59,0.02735
2659.8,0.02725
2654.01,0.02739
2648.23,0.02739
2642.44,0.02763
2636.65,0.02732
2630.87,0.02762
2625.08,0.02749
2619.29,0.02684
2613.51,0.02767
2607.72,0.02718
2601.94,0.02749
2596.15,0.02678
2590.36,0.02700
2584.58,0.02734
2578.79,0.02761
2573,0.02692
2567.22,0.02701
2561.43,0.02742
2555.64,0.02670
2549.86,0.02703
2544.07,0.02702
2538.29,0.02681
2532.5,0.02683
2526.71,0.02678
2520.93,0.02695
2515.14,0.02655
2509.35,0.02680
2503.57,0.02707
2497.78,0.02663
2491.99,0.02660
2486.21,0.02711
2480.42,0.02717
2474.64,0.02743
2468.85,0.02691
2463.06,0.02697
2457.28,0.02700
2451.49,0.02704
2445.7,0.02738
2439.92,0.02673
2434.13,0.02689
2428.34,0.02704
2422.56,0.02652
2416.77,0.02707
2410.99,0.02698
2405.2,0.02699
2399.41,0.02674
2393.63,0.02687
2387.84,0.02679
2382.05,0.02694
2376.27,0.02739
2370.48,0.02719
2364.69,0.02737
2358.91,0.02748
2353.12,0.02717
2347.34,0.02734
2341.55,0.02754
2335.76,0.02796
2329.98,0.02743
2324.19,0.02788
2318.4,0.02741
2312.62,0.02647
2306.83,0.02644
2301.04,0.02675
2295.26,0.02669
2289.47,0.02637
2283.69,0.02643
2277.9,0.02635
2272.11,0.02645
2266.33,0.02701
2260.54,0.02660
2254.75,0.02634
2248.97,0.02660
2243.18,0.02640
2237.39,0.02622
2231.61,0.02643
2225.82,0.02667
2220.04,0.02634
2214.25,0.02626
2208.46,0.02625
2202.68,0.02640
2196.89,0.02634
2191.1,0.02607
2185.32,0.02662
2179.53,0.02645
2173.74,0.02622
2167.96,0.02648
2162.17,0.02614
2156.39,0.02648
2150.6,0.02593
2144.81,0.02629
2139.03,0.02624
2133.24,0.02592
2127.45,0.02637
2121.67,0.02641
2115.88,0.02619
2110.09,0.02601
2104.31,0.02600
2098.52,0.02589
2092.74,0.02617
2086.95,0.02586
2081.16,0.02606
2075.38,0.02610
2069.59,0.02605
2063.8,0.02604
2058.02,0.02609
2052.23,0.02603
2046.44,0.02586
2040.66,0.02565
2034.87,0.02597
2029.09,0.02596
2023.3,0.02587
2017.51,0.02569
2011.73,0.02555
2005.94,0.02587
2000.15,0.02597
1994.37,0.02624
1988.58,0.02583
1982.79,0.02617
1977.01,0.02572
1971.22,0.02605
1965.44,0.02569
1959.65,0.02601
1953.86,0.02556
1948.08,0.02551
1942.29,0.02540
1936.5,0.02582
1930.72,0.02550
1924.93,0.02556
1919.14,0.02507
1913.36,0.02559
1907.57,0.02536
1901.79,0.02514
1896,0.02492
1890.21,0.02516
1884.43,0.02506
1878.64,0.02508
1872.85,0.02487
1867.07,0.02464
1861.28,0.02506
1855.49,0.02469
1849.71,0.02505
1843.92,0.02486
1838.14,0.02479
1832.35,0.02465
1826.56,0.02436
1820.78,0.02457
1814.99,0.02436
1809.2,0.02427
1803.42,0.02419
1797.63,0.02396
1791.84,0.02362
1786.06,0.02348
1780.27,0.02334
1774.49,0.02327
1768.7,0.02246
1762.91,0.02255
1757.13,0.02144
1751.34,0.02176
1745.55,0.02135
1739.77,0.02221
1733.98,0.02300
1728.19,0.02368
1722.41,0.02459
1716.62,0.02381
1710.84,0.02402
1705.05,0.02354
1699.26,0.02214
1693.48,0.02270
1687.69,0.02224
1681.9,0.02182
1676.12,0.02250
1670.33,0.02161
1664.54,0.02209
1658.76,0.02178
1652.97,0.02174
1647.19,0.02219
1641.4,0.02226
1635.61,0.02260
1629.83,0.02197
1624.04,0.02238
1618.25,0.02211
1612.47,0.02199
1606.68,0.02249
1600.89,0.02260
1595.11,0.02244
1589.32,0.02196
1583.54,0.02147
1577.75,0.02192
1571.96,0.02173
1566.18,0.02145
1560.39,0.02223
1554.6,0.02149
1548.82,0.02174
1543.03,0.02214
1537.24,0.02199
1531.46,0.02193
1525.67,0.02167
1519.89,0.02142
1514.1,0.02154
1508.31,0.02241
1502.53,0.02192
1496.74,0.02188
1490.95,0.02199
1485.17,0.02184
1479.38,0.02183
1473.59,0.02128
1467.81,0.02122
1462.02,0.02139
1456.24,0.02147
1450.45,0.02172
1444.66,0.02173
1438.88,0.02216
1433.09,0.02123
1427.3,0.02134
1421.52,0.02119
1415.73,0.02127
1409.94,0.02105
1404.16,0.02084
1398.37,0.02137
1392.59,0.02067
1386.8,0.02109
1381.01,0.02083
1375.23,0.02098
1369.44,0.02089
1363.65,0.02091
1357.87,0.02113
1352.08,0.02060
1346.29,0.02041
1340.51,0.02068
1334.72,0.02025
1328.94,0.02019
1323.15,0.01963
1317.36,0.01936
1311.58,0.01967
1305.79,0.01974
1300,0.02033
1294.22,0.02061
1288.43,0.02126
1282.64,0.02100
1276.86,0.02152
1271.07,0.02210
1265.29,0.02185
1259.5,0.02210
1253.71,0.02243
1247.93,0.02256
1242.14,0.02239
1236.35,0.02234
1230.57,0.02215
1224.78,0.02164
1218.99,0.02191
1213.21,0.02158
1207.42,0.02194
1201.64,0.02122
1195.85,0.02073
1190.06,0.02100
1184.28,0.02090
1178.49,0.02024
1172.7,0.02060
1166.92,0.02012
1161.13,0.01931
1155.34,0.01968
1149.56,0.02002
1143.77,0.02064
1137.99,0.02043
1132.2,0.02045
1126.41,0.02125
1120.63,0.02178
1114.84,0.02206
1109.05,0.02261
1103.27,0.02243
1097.48,0.02199
1091.69,0.02156
1085.91,0.02177
1080.12,0.02239
1074.34,0.02316
1068.55,0.02430
1062.76,0.02421
1056.98,0.02406
1051.19,0.02381
1045.4,0.02293
1039.62,0.02304
1033.83,0.02324
1028.04,0.02293
1022.26,0.02297
1016.47,0.02313
1010.69,0.02313
1004.9,0.02435
999.112,0.02472
993.326,0.02429
987.54,0.02434
981.753,0.02418
975.967,0.02387
970.18,0.02364
964.394,0.02377
958.608,0.02270
952.821,0.02339
947.035,0.02251
941.249,0.02268
935.462,0.02227
929.676,0.02241
923.89,0.02286
918.103,0.02258
912.317,0.02230
906.53,0.02169
900.744,0.02188
894.958,0.02234
889.171,0.02212
883.385,0.02203
877.599,0.02267
871.812,0.02195
866.026,0.02271
860.24,0.02188
854.453,0.02171
848.667,0.02160
842.88,0.02167
837.094,0.02104
831.308,0.02120
825.521,0.02141
819.735,0.02150
813.949,0.02097
808.162,0.02094
802.376,0.02046
796.59,0.02123
790.803,0.02116
785.017,0.02110
779.23,0.02161
773.444,0.02024
767.658,0.02074
761.871,0.02015
756.085,0.02068
750.299,0.01945
744.512,0.01938
738.726,0.01987
732.94,0.02022
727.153,0.01935
721.367,0.01976
715.58,0.01924
709.794,0.01906
704.008,0.01795
698.221,0.01844
692.435,0.01934
686.649,0.01919
680.862,0.01920
675.076,0.01944
669.29,0.01900
663.503,0.01929
657.717,0.01890
651.93,0.01928
646.144,0.01707
640.358,0.01947
634.571,0.01992
628.785,0.01865
622.999,0.01778
617.212,0.02004
611.426,0.01960
605.639,0.01848
599.853,0.01913