File: 01_Data/PEVA/FTIR/IS/PEVA_0.26_IS_Trans_T_240819_R2.dpt
7496.91,0.02591
7491.12,0.01008
7485.33,0.02158
7479.55,0.02627
7473.76,0.01636
7467.98,0.00940
7462.19,0.02747
7456.4,0.02997
7450.62,0.01998
7444.83,0.02350
7439.04,0.02226
7433.26,0.02729
7427.47,0.02527
7421.69,0.02114
7415.9,0.00988
7410.11,0.01637
7404.33,0.01592
7398.54,0.01219
7392.76,0.01147
7386.97,0.00058
7381.18,0.02231
7375.4,0.01852
7369.61,0.03596
7363.83,0.01477
7358.04,0.03755
7352.25,0.02306
7346.47,0.02901
7340.68,0.01676
7334.89,0.01997
7329.11,0.01390
7323.32,0.03052
7317.54,0.00242
7311.75,0.02593
7305.96,0.01135
7300.18,0.03535
7294.39,0.03001
7288.61,0.01896
7282.82,0.01582
7277.03,0.02541
7271.25,0.01064
7265.46,0.01136
7259.67,0.00040
7253.89,0.03439
7248.1,0.01989
7242.32,0.03510
7236.53,0.01752
7230.74,0.00557
7224.96,0.02989
7219.17,0.01462
7213.39,-0.00226
7207.6,0.03035
7201.81,0.01862
7196.03,0.01983
7190.24,0.01262
7184.45,0.02358
7178.67,0.01133
7172.88,0.00966
7167.1,0.01661
7161.31,0.00252
7155.52,0.01833
7149.74,0.02584
7143.95,0.00924
7138.17,0.01463
7132.38,0.01833
7126.59,0.01540
7120.81,0.01431
7115.02,0.01656
7109.23,0.01958
7103.45,0.01093
7097.66,0.02229
7091.88,0.00772
7086.09,0.01718
7080.3,0.01427
7074.52,0.01790
7068.73,0.01342
7062.95,0.01162
7057.16,0.00891
7051.37,0.01046
7045.59,0.00892
7039.8,0.02145
7034.02,0.01665
7028.23,0.00943
7022.44,0.00347
7016.66,0.02289
7010.87,0.01049
7005.08,0.01222
6999.3,0.02181
6993.51,0.01645
6987.73,0.01182
6981.94,0.01331
6976.15,0.00452
6970.37,0.02074
6964.58,0.00186
6958.8,0.00600
6953.01,0.00751
6947.22,0.01264
6941.44,0.00288
6935.65,0.01504
6929.86,0.01241
6924.08,0.00300
6918.29,0.00564
6912.51,0.01275
6906.72,0.01698
6900.93,0.00176
6895.15,0.01587
6889.36,0.00733
6883.58,-0.00053
6877.79,0.01772
6872,0.00309
6866.22,0.01367
6860.43,0.01241
6854.64,0.00854
6848.86,0.00885
6843.07,0.00210
6837.29,0.01254
6831.5,0.01347
6825.71,0.00563
6819.93,0.00929
6814.14,0.00465
6808.36,0.00547
6802.57,0.01174
6796.78,0.00217
6791,0.00175
6785.21,0.01332
6779.43,0.01015
6773.64,0.01626
6767.85,0.01028
6762.07,0.02220
6756.28,0.00334
6750.49,0.01157
6744.71,0.02033
6738.92,-0.00187
6733.14,0.01104
6727.35,0.01412
6721.56,0.00632
6715.78,0.00773
6709.99,0.01297
6704.21,0.01041
6698.42,0.00730
6692.63,0.00974
6686.85,0.01150
6681.06,0.01310
6675.27,0.00687
6669.49,0.01290
6663.7,0.01283
6657.92,0.00824
6652.13,0.00403
6646.34,0.00774
6640.56,0.00998
6634.77,0.00473
6628.99,0.01085
6623.2,0.00423
6617.41,0.00551
6611.63,0.00868
6605.84,0.00766
6600.05,0.01103
6594.27,0.00112
6588.48,0.00999
6582.7,0.01284
6576.91,0.00688
6571.12,0.01319
6565.34,0.00654
6559.55,0.00755
6553.77,0.00698
6547.98,0.00916
6542.19,0.00647
6536.41,0.00740
6530.62,0.00622
6524.84,0.00800
6519.05,0.01242
6513.26,0.01044
6507.48,0.00945
6501.69,0.01834
6495.9,0.00549
6490.12,0.00837
6484.33,0.00759
6478.55,0.00665
6472.76,0.00964
6466.97,0.00986
6461.19,0.00395
6455.4,0.01433
6449.62,0.01348
6443.83,0.01020
6438.04,0.00945
6432.26,0.00581
6426.47,0.00513
6420.68,0.00897
6414.9,0.00201
6409.11,0.01758
6403.33,0.00618
6397.54,0.00907
6391.75,0.00865
6385.97,0.00893
6380.18,0.00503
6374.4,0.00476
6368.61,0.00914
6362.82,0.00107
6357.04,0.00148
6351.25,0.00367
6345.46,0.00721
6339.68,0.00688
6333.89,0.01098
6328.11,0.00569
6322.32,0.00636
6316.53,0.00604
6310.75,0.00910
6304.96,0.00285
6299.18,0.00540
6293.39,0.00110
6287.6,0.00858
6281.82,0.00561
6276.03,0.01038
6270.24,0.00855
6264.46,0.00058
6258.67,0.00629
6252.89,0.00669
6247.1,0.01085
6241.31,0.00614
6235.53,0.01083
6229.74,0.00444
6223.96,0.00549
6218.17,0.00476
6212.38,0.01028
6206.6,0.01219
6200.81,0.00176
6195.03,0.00659
6189.24,0.01122
6183.45,0.00549
6177.67,0.01056
6171.88,0.00634
6166.09,0.00813
6160.31,0.01048
6154.52,0.00500
6148.74,0.00293
6142.95,0.00442
6137.16,0.00814
6131.38,0.00655
6125.59,0.00597
6119.81,0.00467
6114.02,0.00868
6108.23,0.00123
6102.45,-0.00006
6096.66,0.00814
6090.87,0.00272
6085.09,0.00644
6079.3,0.01108
6073.52,0.00305
6067.73,0.00059
6061.94,0.00656
6056.16,0.00154
6050.37,0.00342
6044.59,0.00742
6038.8,0.00555
6033.01,0.00158
6027.23,0.00581
6021.44,0.00707
6015.65,0.00415
6009.87,0.00303
6004.08,-0.00019
5998.3,0.01052
5992.51,-0.00096
5986.72,0.00403
5980.94,0.00938
5975.15,0.00363
5969.37,0.00994
5963.58,0.00622
5957.79,0.00602
5952.01,0.00270
5946.22,0.00484
5940.44,0.00424
5934.65,0.00763
5928.86,0.00675
5923.08,0.00333
5917.29,0.00260
5911.5,0.00556
5905.72,0.00455
5899.93,0.00706
5894.15,0.00233
5888.36,0.00439
5882.57,0.00313
5876.79,0.00608
5871,0.00200
5865.22,0.00509
5859.43,0.00384
5853.64,0.00426
5847.86,0.00464
5842.07,0.00644
5836.28,0.00650
5830.5,0.00473
5824.71,0.00697
5818.93,0.00118
5813.14,0.00796
5807.35,0.00212
5801.57,0.00611
5795.78,0.00419
5790,0.00458
5784.21,0.00431
5778.42,0.00026
5772.64,0.00297
5766.85,0.00578
5761.06,0.00646
5755.28,0.00653
5749.49,0.00353
5743.71,0.00523
5737.92,-0.00016
5732.13,0.00463
5726.35,0.00934
5720.56,0.00228
5714.78,0.00614
5708.99,0.00260
5703.2,0.00290
5697.42,0.00495
5691.63,0.00241
5685.84,0.00678
5680.06,0.00199
5674.27,0.00442
5668.49,0.00362
5662.7,0.00418
5656.91,0.00285
5651.13,0.00567
5645.34,0.00528
5639.56,0.00150
5633.77,0.00314
5627.98,0.00262
5622.2,0.00243
5616.41,-0.00046
5610.63,0.00511
5604.84,0.00191
5599.05,0.00006
5593.27,0.00523
5587.48,0.00481
5581.69,0.00035
5575.91,0.00365
5570.12,0.00135
5564.34,0.00672
5558.55,0.00155
5552.76,0.00269
5546.98,0.00228
5541.19,0.00297
5535.41,0.00371
5529.62,0.00651
5523.83,0.00578
5518.05,0.00421
5512.26,0.00070
5506.47,0.00167
5500.69,0.00368
5494.9,0.00004
5489.12,0.00020
5483.33,0.00261
5477.54,0.00129
5471.76,0.00267
5465.97,0.00368
5460.19,0.00156
5454.4,0.00208
5448.61,0.00115
5442.83,0.00239
5437.04,0.00304
5431.25,0.00226
5425.47,0.00365
5419.68,0.00211
5413.9,0.00239
5408.11,0.00350
5402.32,0.00296
5396.54,0.00277
5390.75,0.00214
5384.97,0.00265
5379.18,0.00094
5373.39,0.00087
5367.61,0.00377
5361.82,0.00213
5356.04,0.00287
5350.25,0.00528
5344.46,0.00105
5338.68,0.00280
5332.89,0.00251
5327.1,0.00339
5321.32,0.00100
5315.53,0.00286
5309.75,0.00283
5303.96,0.00158
5298.17,0.00265
5292.39,0.00467
5286.6,0.00106
5280.82,0.00182
5275.03,0.00173
5269.24,0.00026
5263.46,-0.00007
5257.67,0.00381
5251.88,0.00279
5246.1,0.00276
5240.31,0.00194
5234.53,0.00378
5228.74,0.00303
5222.95,0.00324
5217.17,0.00264
5211.38,0.00066
5205.6,0.00212
5199.81,0.00176
5194.02,0.00118
5188.24,0.00366
5182.45,0.00152
5176.66,0.00067
5170.88,0.00266
5165.09,-0.00007
5159.31,0.00167
5153.52,0.00271
5147.73,0.00084
5141.95,0.00003
5136.16,0.00374
5130.38,0.00191
5124.59,0.00146
5118.8,0.00292
5113.02,0.00279
5107.23,0.00343
5101.45,0.00276
5095.66,0.00090
5089.87,0.00350
5084.09,0.00338
5078.3,0.00052
5072.51,0.00303
5066.73,0.00179
5060.94,0.00093
5055.16,0.00201
5049.37,0.00252
5043.58,0.00217
5037.8,0.00094
5032.01,0.00174
5026.23,0.00138
5020.44,0.00015
5014.65,0.00079
5008.87,0.00415
5003.08,0.00164
4997.29,0.00152
4991.51,0.00049
4985.72,0.00388
4979.94,0.00429
4974.15,0.00049
4968.36,0.00188
4962.58,0.00032
4956.79,0.00197
4951.01,0.00243
4945.22,0.00124
4939.43,0.00163
4933.65,0.00191
4927.86,0.00202
4922.07,0.00353
4916.29,0.00236
4910.5,0.00029
4904.72,0.00248
4898.93,0.00001
4893.14,0.00226
4887.36,0.00063
4881.57,0.00216
4875.79,0.00207
4870,0.00113
4864.21,0.00174
4858.43,0.00301
4852.64,0.00186
4846.85,0.00189
4841.07,0.00229
4835.28,0.00253
4829.5,0.00216
4823.71,0.00323
4817.92,0.00004
4812.14,0.00167
4806.35,0.00162
4800.57,0.00131
4794.78,0.00177
4788.99,0.00122
4783.21,0.00015
4777.42,0.00109
4771.64,0.00238
4765.85,0.00145
4760.06,0.00028
4754.28,0.00260
4748.49,0.00066
4742.7,0.00119
4736.92,0.00308
4731.13,0.00191
4725.35,0.00139
4719.56,0.00076
4713.77,0.00203
4707.99,0.00100
4702.2,0.00175
4696.42,0.00170
4690.63,0.00202
4684.84,0.00264
4679.06,0.00154
4673.27,0.00291
4667.48,0.00272
4661.7,0.00129
4655.91,0.00188
4650.13,0.00141
4644.34,0.00117
4638.55,0.00071
4632.77,0.00137
4626.98,0.00153
4621.2,0.00089
4615.41,0.00259
4609.62,0.00048
4603.84,0.00061
4598.05,0.00085
4592.26,0.00104
4586.48,0.00200
4580.69,0.00120
4574.91,0.00202
4569.12,0.00170
4563.33,0.00202
4557.55,0.00136
4551.76,0.00140
4545.98,0.00087
4540.19,0.00169
4534.4,0.00044
4528.62,0.00189
4522.83,0.00155
4517.05,0.00144
4511.26,0.00184
4505.47,0.00106
4499.69,0.00094
4493.9,0.00164
4488.11,0.00340
4482.33,0.00099
4476.54,0.00172
4470.76,0.00162
4464.97,0.00107
4459.18,0.00247
4453.4,0.00333
4447.61,0.00213
4441.83,0.00329
4436.04,0.00175
4430.25,0.00061
4424.47,0.00307
4418.68,0.00053
4412.89,0.00137
4407.11,0.00098
4401.32,0.00075
4395.54,0.00092
4389.75,0.00199
4383.96,0.00113
4378.18,0.00031
4372.39,0.00058
4366.61,0.00073
4360.82,0.00110
4355.03,0.00116
4349.25,0.00127
4343.46,0.00123
4337.67,0.00065
4331.89,0.00053
4326.1,0.00229
4320.32,0.00038
4314.53,0.00066
4308.74,0.00168
4302.96,0.00261
4297.17,0.00088
4291.39,0.00230
4285.6,0.00092
4279.81,0.00246
4274.03,0.00221
4268.24,0.00099
4262.46,0.00137
4256.67,0.00085
4250.88,0.00070
4245.1,0.00127
4239.31,0.00029
4233.52,0.00048
4227.74,0.00121
4221.95,0.00006
4216.17,0.00114
4210.38,0.00056
4204.59,0.00205
4198.81,0.00044
4193.02,0.00070
4187.24,0.00122
4181.45,0.00147
4175.66,0.00143
4169.88,0.00101
4164.09,0.00149
4158.3,0.00115
4152.52,0.00105
4146.73,0.00132
4140.95,0.00139
4135.16,0.00209
4129.37,0.00035
4123.59,0.00156
4117.8,0.00092
4112.02,0.00081
4106.23,0.00056
4100.44,0.00072
4094.66,0.00063
4088.87,0.00153
4083.08,0.00105
4077.3,0.00021
4071.51,0.00079
4065.73,0.00168
4059.94,0.00128
4054.15,0.00067
4048.37,0.00092
4042.58,0.00121
4036.8,0.00060
4031.01,0.00094
4025.22,-0.00006
4019.44,0.00088
4013.65,0.00125
4007.86,0.00117
4002.08,0.00066
3996.29,0.00009
3990.51,0.00169
3984.72,0.00057
3978.93,0.00074
3973.15,0.00073
3967.36,0.00173
3961.58,0.00126
3955.79,0.00055
3950,0.00137
3944.22,0.00053
3938.43,0.00177
3932.65,0.00106
3926.86,0.00062
3921.07,0.00070
3915.29,0.00083
3909.5,0.00083
3903.71,0.00165
3897.93,0.00042
3892.14,0.00103
3886.36,0.00152
3880.57,0.00138
3874.78,0.00068
3869,0.00304
3863.21,0.00060
3857.43,-0.00033
3851.64,0.00251
3845.85,0.00037
3840.07,0.00205
3834.28,0.00137
3828.49,0.00041
3822.71,0.00148
3816.92,0.00164
3811.14,0.00088
3805.35,0.00079
3799.56,0.00133
3793.78,0.00166
3787.99,0.00108
3782.21,0.00111
3776.42,0.00147
3770.63,0.00131
3764.85,0.00145
3759.06,0.00092
3753.27,0.00136
3747.49,0.00144
3741.7,0.00117
3735.92,0.00152
3730.13,0.00165
3724.34,0.00027
3718.56,0.00201
3712.77,0.00070
3706.99,0.00102
3701.2,0.00138
3695.41,0.00053
3689.63,0.00232
3683.84,0.00046
3678.06,0.00167
3672.27,0.00143
3666.48,0.00104
3660.7,-0.00011
3654.91,0.00280
3649.12,0.00105
3643.34,0.00126
3637.55,0.00110
3631.77,0.00137
3625.98,0.00191
3620.19,0.00032
3614.41,0.00059
3608.62,0.00204
3602.84,0.00161
3597.05,0.00062
3591.26,0.00026
3585.48,0.00177
3579.69,0.00145
3573.9,0.00155
3568.12,0.00105
3562.33,0.00087
3556.55,0.00110
3550.76,0.00189
3544.97,0.00225
3539.19,0.00034
3533.4,0.00101
3527.62,0.00155
3521.83,0.00091
3516.04,0.00101
3510.26,0.00038
3504.47,0.00154
3498.68,0.00075
3492.9,0.00039
3487.11,0.00110
3481.33,0.00137
3475.54,0.00117
3469.75,0.00275
3463.97,0.00155
3458.18,0.00148
3452.4,0.00102
3446.61,0.00116
3440.82,0.00126
3435.04,0.00042
3429.25,0.00043
3423.47,0.00048
3417.68,0.00092
3411.89,0.00172
3406.11,0.00141
3400.32,0.00198
3394.53,0.00125
3388.75,0.00106
3382.96,0.00183
3377.18,0.00137
3371.39,0.00093
3365.6,0.00132
3359.82,0.00139
3354.03,0.00028
3348.25,0.00095
3342.46,0.00189
3336.67,0.00161
3330.89,0.00122
3325.1,-0.00012
3319.31,0.00078
3313.53,0.00141
3307.74,0.00157
3301.96,0.00123
3296.17,0.00001
3290.38,0.00166
3284.6,0.00080
3278.81,0.00121
3273.03,0.00036
3267.24,0.00053
3261.45,0.00073
3255.67,0.00278
3249.88,0.00037
3244.09,0.00015
3238.31,0.00220
3232.52,0.00115
3226.74,0.00223
3220.95,0.00233
3215.16,0.00183
3209.38,0.00021
3203.59,0.00285
3197.81,0.00173
3192.02,0.00050
3186.23,-0.00026
3180.45,0.00083
3174.66,0.00139
3168.87,0.00024
3163.09,0.00242
3157.3,0.00195
3151.52,0.00155
3145.73,0.00029
3139.94,0.00116
3134.16,0.00123
3128.37,0.00120
3122.59,0.00095
3116.8,0.00084
3111.01,0.00091
3105.23,0.00158
3099.44,0.00075
3093.66,0.00123
3087.87,0.00136
3082.08,0.00069
3076.3,0.00117
3070.51,0.00066
3064.72,0.00076
3058.94,0.00026
3053.15,0.00070
3047.37,0.00091
3041.58,0.00159
3035.79,0.00158
3030.01,0.00014
3024.22,0.00071
3018.44,0.00052
3012.65,0.00060
3006.86,0.00048
3001.08,0.00060
2995.29,0.00039
2989.5,0.00072
2983.72,0.00050
2977.93,0.00101
2972.15,0.00043
2966.36,0.00088
2960.57,0.00041
2954.79,0.00068
2949,0.00093
2943.22,0.00045
2937.43,0.00082
2931.64,0.00089
2925.86,0.00130
2920.07,0.00068
2914.28,0.00074
2908.5,0.00058
2902.71,0.00050
2896.93,0.00091
2891.14,0.00055
2885.35,0.00105
2879.57,0.00070
2873.78,0.00084
2868,0.00092
2862.21,0.00069
2856.42,0.00045
2850.64,0.00086
2844.85,0.00056
2839.07,0.00022
2833.28,0.00055
2827.49,0.00007
2821.71,0.00092
2815.92,0.00075
2810.13,0.00092
2804.35,0.00079
2798.56,0.00091
2792.78,0.00029
2786.99,0.00032
2781.2,0.00125
2775.42,0.00059
2769.63,0.00037
2763.85,0.00050
2758.06,0.00036
2752.27,0.00047
2746.49,0.00057
2740.7,0.00090
2734.91,0.00039
2729.13,0.00032
2723.34,0.00106
2717.56,0.00094
2711.77,0.00075
2705.98,0.00015
2700.2,0.00077
2694.41,0.00067
2688.63,0.00105
2682.84,0.00033
2677.05,0.00014
2671.27,0.00026
2665.48,0.00119
2659.69,0.00041
2653.91,0.00044
2648.12,0.00081
2642.34,0.00088
2636.55,0.00069
2630.76,0.00039
2624.98,0.00051
2619.19,0.00092
2613.41,0.00040
2607.62,0.00075
2601.83,0.00057
2596.05,0.00054
2590.26,0.00013
2584.47,0.00093
2578.69,0.00066
2572.9,0.00070
2567.12,0.00052
2561.33,0.00110
2555.54,0.00002
2549.76,0.00049
2543.97,0.00042
2538.19,0.00046
2532.4,0.00042
2526.61,0.00036
2520.83,0.00054
2515.04,0.00061
2509.26,-0.00004
2503.47,0.00035
2497.68,0.00051
2491.9,0.00097
2486.11,0.00034
2480.32,0.00081
2474.54,0.00030
2468.75,0.00036
2462.97,0.00033
2457.18,0.00055
2451.39,0.00073
2445.61,0.00043
2439.82,0.00034
2434.04,0.00077
2428.25,0.00038
2422.46,0.00011
2416.68,0.00077
2410.89,0.00043
2405.1,0.00000
2399.32,0.00092
2393.53,0.00071
2387.75,0.00057
2381.96,0.00087
2376.17,0.00078
2370.39,0.00095
2364.6,0.00074
2358.82,0.00054
2353.03,0.00076
2347.24,0.00025
2341.46,0.00128
2335.67,0.00109
2329.88,0.00029
2324.1,0.00081
2318.31,0.00088
2312.53,0.00047
2306.74,0.00017
2300.95,0.00025
2295.17,0.00051
2289.38,0.00060
2283.6,0.00056
2277.81,0.00053
2272.02,0.00017
2266.24,0.00070
2260.45,0.00046
2254.67,0.00041
2248.88,0.00050
2243.09,0.00049
2237.31,0.00072
2231.52,0.00024
2225.73,0.00072
2219.95,0.00058
2214.16,0.00061
2208.38,0.00020
2202.59,0.00018
2196.8,0.00076
2191.02,-0.00004
2185.23,0.00092
2179.45,0.00014
2173.66,0.00026
2167.87,0.00003
2162.09,0.00062
2156.3,0.00011
2150.51,0.00057
2144.73,0.00072
2138.94,0.00061
2133.16,0.00026
2127.37,0.00015
2121.58,0.00052
2115.8,0.00053
2110.01,0.00081
2104.23,0.00043
2098.44,0.00034
2092.65,0.00085
2086.87,0.00055
2081.08,0.00114
2075.29,0.00070
2069.51,0.00046
2063.72,0.00076
2057.94,0.00064
2052.15,0.00036
2046.36,0.00038
2040.58,0.00069
2034.79,0.00034
2029.01,0.00039
2023.22,0.00051
2017.43,0.00038
2011.65,0.00105
2005.86,0.00014
2000.08,0.00034
1994.29,0.00038
1988.5,0.00033
1982.72,0.00044
1976.93,0.00039
1971.14,0.00079
1965.36,0.00053
1959.57,0.00042
1953.79,0.00049
1948,0.00060
1942.21,0.00054
1936.43,0.00025
1930.64,0.00032
1924.86,0.00081
1919.07,0.00067
1913.28,0.00051
1907.5,0.00024
1901.71,0.00046
1895.92,0.00031
1890.14,0.00051
1884.35,0.00032
1878.57,0.00067
1872.78,0.00067
1866.99,0.00089
1861.21,0.00076
1855.42,0.00031
1849.64,0.00042
1843.85,0.00029
1838.06,0.00042
1832.28,0.00037
1826.49,0.00062
1820.7,0.00017
1814.92,0.00019
1809.13,0.00043
1803.35,0.00059
1797.56,0.00098
1791.77,0.00039
1785.99,0.00028
1780.2,0.00042
1774.42,0.00131
1768.63,0.00081
1762.84,0.00025
1757.06,0.00023
1751.27,0.00118
1745.48,0.00056
1739.7,0.00127
1733.91,0.00057
1728.13,0.00016
1722.34,0.00029
1716.55,0.00031
1710.77,0.00074
1704.98,0.00052
1699.2,0.00151
1693.41,0.00076
1687.62,0.00092
1681.84,0.00107
1676.05,0.00069
1670.27,0.00097
1664.48,0.00069
1658.69,0.00068
1652.91,-0.00012
1647.12,0.00031
1641.33,0.00052
1635.55,0.00098
1629.76,0.00051
1623.98,0.00069
1618.19,0.00053
1612.4,0.00050
1606.62,0.00054
1600.83,0.00062
1595.05,0.00032
1589.26,0.00058
1583.47,0.00019
1577.69,0.00067
1571.9,-0.00002
1566.11,0.00054
1560.33,0.00082
1554.54,0.00086
1548.76,0.00120
1542.97,0.00146
1537.18,0.00119
1531.4,0.00012
1525.61,0.00092
1519.83,0.00124
1514.04,0.00027
1508.25,0.00113
1502.47,0.00097
1496.68,0.00061
1490.89,0.00040
1485.11,0.00033
1479.32,0.00083
1473.54,0.00014
1467.75,0.00030
1461.96,0.00111
1456.18,0.00117
1450.39,0.00069
1444.61,0.00028
1438.82,0.00080
1433.03,0.00054
1427.25,0.00069
1421.46,0.00058
1415.68,0.00050
1409.89,0.00046
1404.1,0.00058
1398.32,0.00034
1392.53,0.00086
1386.74,0.00059
1380.96,0.00051
1375.17,0.00050
1369.39,0.00040
1363.6,0.00035
1357.81,0.00059
1352.03,0.00098
1346.24,0.00014
1340.46,0.00061
1334.67,0.00028
1328.88,0.00092
1323.1,0.00033
1317.31,0.00032
1311.52,0.00045
1305.74,0.00020
1299.95,0.00060
1294.17,0.00030
1288.38,0.00103
1282.59,0.00036
1276.81,0.00117
1271.02,0.00014
1265.24,0.00060
1259.45,0.00055
1253.66,0.00049
1247.88,0.00061
1242.09,0.00037
1236.3,0.00020
1230.52,0.00024
1224.73,0.00028
1218.95,0.00092
1213.16,0.00055
1207.37,0.00096
1201.59,0.00099
1195.8,0.00045
1190.02,0.00112
1184.23,0.00068
1178.44,0.00035
1172.66,0.00044
1166.87,0.00060
1161.09,0.00059
1155.3,0.00060
1149.51,0.00084
1143.73,0.00063
1137.94,0.00065
1132.15,0.00023
1126.37,0.00062
1120.58,0.00030
1114.8,0.00104
1109.01,0.00036
1103.22,0.00087
1097.44,0.00006
1091.65,0.00047
1085.87,0.00121
1080.08,0.00115
1074.29,0.00116
1068.51,0.00077
1062.72,0.00040
1056.93,0.00080
1051.15,0.00037
1045.36,0.00104
1039.58,0.00047
1033.79,0.00123
1028,0.00071
1022.22,0.00110
1016.43,0.00113
1010.65,0.00065
1004.86,0.00074
999.073,0.00127
993.287,0.00132
987.501,0.00083
981.715,0.00032
975.929,0.00121
970.142,0.00062
964.356,0.00071
958.57,0.00093
952.784,0.00104
946.998,0.00094
941.212,0.00072
935.426,0.00166
929.64,0.00015
923.853,0.00053
918.067,0.00125
912.281,0.00041
906.495,0.00012
900.709,0.00102
894.923,0.00084
889.137,0.00059
883.35,0.00065
877.564,0.00143
871.778,0.00160
865.992,0.00073
860.206,0.00025
854.42,0.00127
848.634,0.00113
842.847,0.00133
837.061,0.00184
831.275,0.00113
825.489,0.00146
819.703,0.00121
813.917,0.00095
808.131,0.00103
802.344,0.00098
796.558,0.00127
790.772,0.00071
784.986,0.00149
779.2,0.00124
773.414,0.00039
767.628,0.00094
761.842,0.00059
756.055,0.00102
750.269,0.00183
744.483,0.00210
738.697,0.00050
732.911,0.00061
727.125,0.00084
721.339,0.00158
715.552,0.00070
709.766,0.00166
703.98,0.00027
698.194,0.00201
692.408,0.00163
686.622,0.00011
680.836,0.00079
675.049,0.00188
669.263,0.00123
663.477,0.00208
657.691,0.00152
651.905,0.00050
646.119,0.00228
640.333,0.00243
634.546,0.00242
628.76,0.00370
622.974,-0.00083
617.188,0.00411
611.402,0.00257
605.616,0.00332
599.83,0.00249