File: 01_Data/PEVA/FTIR/IS/PEVA_0.18_IS_Trans_T_240819_R3.dpt
7496.91,0.03592
7491.12,0.03419
7485.33,0.01735
7479.55,0.01705
7473.76,0.01645
7467.98,0.01562
7462.19,0.02456
7456.4,0.00122
7450.62,0.01025
7444.83,0.02896
7439.04,0.02369
7433.26,0.02127
7427.47,0.00377
7421.69,0.00641
7415.9,0.01812
7410.11,0.01500
7404.33,0.01187
7398.54,0.01361
7392.76,0.00700
7386.97,0.03671
7381.18,0.02750
7375.4,0.03391
7369.61,0.02603
7363.83,0.02294
7358.04,0.00268
7352.25,0.03542
7346.47,0.02872
7340.68,0.01888
7334.89,0.00971
7329.11,0.01926
7323.32,0.01086
7317.54,0.03761
7311.75,0.01083
7305.96,0.03108
7300.18,0.02128
7294.39,0.02124
7288.61,0.01721
7282.82,0.02164
7277.03,0.02449
7271.25,0.01090
7265.46,0.02721
7259.67,0.01841
7253.89,0.01688
7248.1,0.01715
7242.32,0.00899
7236.53,0.01667
7230.74,0.02314
7224.96,0.01259
7219.17,0.02499
7213.39,0.00998
7207.6,0.02818
7201.81,0.01262
7196.03,-0.00111
7190.24,0.01728
7184.45,-0.00282
7178.67,0.02402
7172.88,0.03661
7167.1,0.02451
7161.31,0.00561
7155.52,0.03273
7149.74,0.01405
7143.95,0.02056
7138.17,0.03203
7132.38,0.03000
7126.59,0.01670
7120.81,0.02092
7115.02,0.01665
7109.23,0.01931
7103.45,0.00599
7097.66,0.01440
7091.88,0.01453
7086.09,0.01746
7080.3,0.01364
7074.52,0.00963
7068.73,0.01508
7062.95,0.00574
7057.16,0.01030
7051.37,0.01088
7045.59,0.00212
7039.8,0.01558
7034.02,0.00577
7028.23,0.01434
7022.44,0.01546
7016.66,0.02560
7010.87,0.01002
7005.08,0.01297
6999.3,0.00528
6993.51,0.01145
6987.73,0.02312
6981.94,0.00914
6976.15,0.01258
6970.37,0.00734
6964.58,0.00733
6958.8,0.00600
6953.01,0.01283
6947.22,0.00801
6941.44,0.01635
6935.65,0.00480
6929.86,0.01209
6924.08,0.00948
6918.29,0.01509
6912.51,0.01310
6906.72,0.00546
6900.93,0.01587
6895.15,0.00378
6889.36,0.01263
6883.58,0.02658
6877.79,0.00943
6872,0.01943
6866.22,0.02397
6860.43,0.01072
6854.64,0.01344
6848.86,0.02257
6843.07,0.01597
6837.29,0.00563
6831.5,0.01736
6825.71,0.01026
6819.93,0.01723
6814.14,0.00713
6808.36,0.01590
6802.57,0.01441
6796.78,0.01285
6791,0.01946
6785.21,0.01118
6779.43,0.00447
6773.64,0.00404
6767.85,0.02303
6762.07,0.02210
6756.28,0.01240
6750.49,0.01349
6744.71,0.01216
6738.92,0.01308
6733.14,0.00285
6727.35,0.01341
6721.56,0.01167
6715.78,-0.00103
6709.99,0.00794
6704.21,0.01267
6698.42,0.00630
6692.63,0.00741
6686.85,0.00379
6681.06,0.01319
6675.27,0.01723
6669.49,0.00954
6663.7,0.01850
6657.92,0.00940
6652.13,0.01082
6646.34,0.01099
6640.56,0.00633
6634.77,0.00451
6628.99,0.01442
6623.2,0.00655
6617.41,0.01671
6611.63,0.00554
6605.84,0.00496
6600.05,0.00489
6594.27,0.01047
6588.48,0.01209
6582.7,0.01174
6576.91,0.00525
6571.12,0.00747
6565.34,0.01628
6559.55,0.00349
6553.77,0.01281
6547.98,0.00285
6542.19,0.00921
6536.41,0.00716
6530.62,0.00797
6524.84,0.00232
6519.05,0.00905
6513.26,0.00182
6507.48,0.01244
6501.69,-0.00183
6495.9,0.01496
6490.12,0.01398
6484.33,0.00377
6478.55,0.00413
6472.76,0.01206
6466.97,0.01393
6461.19,0.00376
6455.4,0.01465
6449.62,0.00981
6443.83,0.00733
6438.04,0.01146
6432.26,0.01016
6426.47,0.00106
6420.68,0.01476
6414.9,0.00649
6409.11,0.01364
6403.33,0.00574
6397.54,0.00971
6391.75,0.00684
6385.97,0.00275
6380.18,0.01244
6374.4,0.00545
6368.61,0.00034
6362.82,0.01067
6357.04,0.00340
6351.25,0.01349
6345.46,0.00792
6339.68,0.00675
6333.89,0.01233
6328.11,0.00757
6322.32,0.00267
6316.53,0.00532
6310.75,0.01036
6304.96,0.00475
6299.18,0.00841
6293.39,0.00649
6287.6,0.00281
6281.82,0.00374
6276.03,0.00814
6270.24,0.00818
6264.46,0.00373
6258.67,0.00624
6252.89,0.00871
6247.1,0.00560
6241.31,0.00222
6235.53,0.00063
6229.74,0.01325
6223.96,0.01671
6218.17,-0.00031
6212.38,0.00367
6206.6,0.01154
6200.81,0.00502
6195.03,0.00537
6189.24,0.00275
6183.45,0.00905
6177.67,0.00811
6171.88,0.00449
6166.09,0.00221
6160.31,0.00251
6154.52,0.00760
6148.74,0.00577
6142.95,0.00580
6137.16,0.00778
6131.38,0.00932
6125.59,0.00442
6119.81,0.00761
6114.02,0.00556
6108.23,-0.00052
6102.45,0.00568
6096.66,0.01002
6090.87,0.00718
6085.09,0.00824
6079.3,0.00121
6073.52,0.00814
6067.73,0.00347
6061.94,0.00351
6056.16,0.01086
6050.37,0.00587
6044.59,0.01115
6038.8,0.00394
6033.01,0.00156
6027.23,0.00472
6021.44,0.00381
6015.65,0.00380
6009.87,0.00474
6004.08,0.00472
5998.3,0.00431
5992.51,0.00415
5986.72,0.00280
5980.94,0.00684
5975.15,0.00755
5969.37,0.00522
5963.58,0.01004
5957.79,0.00635
5952.01,0.00469
5946.22,0.00571
5940.44,0.00920
5934.65,0.00198
5928.86,0.00611
5923.08,0.00728
5917.29,0.00609
5911.5,0.00538
5905.72,0.00303
5899.93,0.00549
5894.15,0.00679
5888.36,0.00206
5882.57,0.00787
5876.79,0.00319
5871,0.00470
5865.22,0.00093
5859.43,0.00887
5853.64,0.00308
5847.86,0.00352
5842.07,0.00652
5836.28,0.00423
5830.5,0.00672
5824.71,0.00194
5818.93,0.00557
5813.14,0.00466
5807.35,0.00224
5801.57,0.00390
5795.78,0.00555
5790,0.00572
5784.21,0.00469
5778.42,0.00494
5772.64,0.00234
5766.85,0.00488
5761.06,0.00262
5755.28,0.00401
5749.49,0.00266
5743.71,0.00623
5737.92,0.00586
5732.13,0.00327
5726.35,0.00593
5720.56,0.00239
5714.78,0.00285
5708.99,0.00348
5703.2,0.00566
5697.42,0.00720
5691.63,0.00207
5685.84,0.00401
5680.06,0.00214
5674.27,0.00459
5668.49,0.00411
5662.7,0.00089
5656.91,0.00678
5651.13,0.00711
5645.34,0.00304
5639.56,0.00868
5633.77,0.00298
5627.98,0.00104
5622.2,0.00723
5616.41,0.00520
5610.63,0.00351
5604.84,0.00508
5599.05,0.00160
5593.27,0.00140
5587.48,0.00293
5581.69,0.00575
5575.91,0.00248
5570.12,0.00305
5564.34,0.00409
5558.55,0.00542
5552.76,0.00212
5546.98,0.00665
5541.19,0.00426
5535.41,0.00740
5529.62,0.00454
5523.83,0.00400
5518.05,0.00289
5512.26,0.00093
5506.47,0.00440
5500.69,0.00565
5494.9,0.00339
5489.12,0.00191
5483.33,0.00511
5477.54,0.00383
5471.76,0.00026
5465.97,0.00317
5460.19,0.00343
5454.4,0.00274
5448.61,0.00037
5442.83,0.00498
5437.04,0.00544
5431.25,0.00399
5425.47,0.00261
5419.68,0.00626
5413.9,0.00552
5408.11,0.00331
5402.32,0.00425
5396.54,0.00282
5390.75,0.00179
5384.97,0.00417
5379.18,0.00319
5373.39,0.00731
5367.61,0.00097
5361.82,0.00243
5356.04,0.00380
5350.25,0.00268
5344.46,0.00129
5338.68,0.00239
5332.89,0.00279
5327.1,0.00300
5321.32,0.00296
5315.53,0.00370
5309.75,0.00170
5303.96,0.00432
5298.17,0.00445
5292.39,0.00605
5286.6,0.00257
5280.82,0.00792
5275.03,0.00357
5269.24,0.00535
5263.46,0.00130
5257.67,0.00460
5251.88,0.00419
5246.1,0.00372
5240.31,0.00187
5234.53,0.00203
5228.74,0.00389
5222.95,0.00281
5217.17,0.00075
5211.38,0.00339
5205.6,-0.00067
5199.81,0.00318
5194.02,0.00300
5188.24,0.00276
5182.45,0.00136
5176.66,0.00251
5170.88,0.00346
5165.09,0.00212
5159.31,0.00287
5153.52,0.00263
5147.73,0.00147
5141.95,0.00243
5136.16,0.00403
5130.38,0.00319
5124.59,0.00254
5118.8,0.00224
5113.02,0.00427
5107.23,0.00430
5101.45,0.00167
5095.66,0.00180
5089.87,0.00204
5084.09,0.00462
5078.3,0.00272
5072.51,0.00052
5066.73,0.00225
5060.94,0.00170
5055.16,0.00290
5049.37,0.00480
5043.58,0.00185
5037.8,0.00271
5032.01,0.00334
5026.23,0.00028
5020.44,0.00210
5014.65,0.00285
5008.87,0.00217
5003.08,0.00145
4997.29,0.00318
4991.51,0.00156
4985.72,0.00198
4979.94,0.00320
4974.15,0.00056
4968.36,0.00242
4962.58,0.00137
4956.79,0.00306
4951.01,0.00207
4945.22,0.00254
4939.43,0.00099
4933.65,0.00174
4927.86,0.00389
4922.07,0.00328
4916.29,0.00212
4910.5,0.00302
4904.72,0.00164
4898.93,0.00203
4893.14,0.00089
4887.36,0.00012
4881.57,0.00289
4875.79,0.00209
4870,0.00094
4864.21,0.00267
4858.43,0.00370
4852.64,0.00159
4846.85,0.00034
4841.07,0.00129
4835.28,0.00133
4829.5,0.00262
4823.71,0.00041
4817.92,0.00133
4812.14,0.00066
4806.35,0.00217
4800.57,0.00298
4794.78,0.00176
4788.99,0.00199
4783.21,0.00097
4777.42,0.00126
4771.64,0.00264
4765.85,0.00410
4760.06,0.00242
4754.28,0.00159
4748.49,0.00105
4742.7,0.00137
4736.92,0.00158
4731.13,0.00021
4725.35,0.00196
4719.56,0.00095
4713.77,0.00315
4707.99,0.00161
4702.2,0.00270
4696.42,0.00180
4690.63,0.00092
4684.84,0.00097
4679.06,0.00275
4673.27,0.00020
4667.48,0.00223
4661.7,0.00187
4655.91,0.00128
4650.13,0.00156
4644.34,0.00228
4638.55,0.00235
4632.77,0.00110
4626.98,0.00061
4621.2,0.00203
4615.41,0.00185
4609.62,0.00280
4603.84,0.00212
4598.05,0.00283
4592.26,0.00065
4586.48,0.00237
4580.69,0.00142
4574.91,0.00221
4569.12,0.00183
4563.33,0.00167
4557.55,0.00195
4551.76,0.00213
4545.98,0.00227
4540.19,-0.00016
4534.4,0.00213
4528.62,0.00138
4522.83,-0.00006
4517.05,0.00216
4511.26,0.00077
4505.47,0.00124
4499.69,0.00149
4493.9,0.00173
4488.11,0.00033
4482.33,0.00164
4476.54,0.00004
4470.76,0.00168
4464.97,0.00139
4459.18,0.00126
4453.4,0.00170
4447.61,0.00126
4441.83,0.00041
4436.04,0.00212
4430.25,0.00074
4424.47,0.00056
4418.68,0.00105
4412.89,0.00261
4407.11,0.00064
4401.32,0.00237
4395.54,0.00103
4389.75,0.00320
4383.96,0.00219
4378.18,0.00096
4372.39,0.00073
4366.61,0.00190
4360.82,0.00155
4355.03,0.00030
4349.25,0.00091
4343.46,0.00039
4337.67,0.00118
4331.89,0.00124
4326.1,0.00041
4320.32,0.00164
4314.53,0.00148
4308.74,0.00111
4302.96,0.00229
4297.17,0.00066
4291.39,0.00120
4285.6,0.00253
4279.81,0.00092
4274.03,0.00229
4268.24,0.00038
4262.46,0.00164
4256.67,-0.00015
4250.88,0.00137
4245.1,0.00080
4239.31,0.00084
4233.52,0.00144
4227.74,0.00146
4221.95,-0.00037
4216.17,0.00084
4210.38,0.00103
4204.59,0.00206
4198.81,0.00108
4193.02,0.00092
4187.24,0.00184
4181.45,0.00113
4175.66,0.00240
4169.88,0.00138
4164.09,0.00117
4158.3,0.00090
4152.52,0.00170
4146.73,0.00045
4140.95,0.00163
4135.16,0.00117
4129.37,0.00113
4123.59,0.00172
4117.8,0.00082
4112.02,0.00135
4106.23,0.00137
4100.44,0.00075
4094.66,0.00138
4088.87,0.00228
4083.08,0.00176
4077.3,0.00053
4071.51,0.00095
4065.73,0.00088
4059.94,0.00101
4054.15,0.00097
4048.37,0.00086
4042.58,0.00108
4036.8,0.00091
4031.01,0.00187
4025.22,0.00005
4019.44,0.00009
4013.65,0.00062
4007.86,0.00184
4002.08,0.00074
3996.29,0.00095
3990.51,0.00072
3984.72,0.00059
3978.93,0.00157
3973.15,0.00139
3967.36,0.00032
3961.58,0.00048
3955.79,0.00065
3950,0.00111
3944.22,0.00144
3938.43,0.00133
3932.65,0.00023
3926.86,0.00139
3921.07,0.00063
3915.29,0.00119
3909.5,0.00104
3903.71,0.00317
3897.93,0.00058
3892.14,0.00152
3886.36,0.00064
3880.57,0.00161
3874.78,0.00247
3869,0.00125
3863.21,0.00112
3857.43,0.00020
3851.64,0.00153
3845.85,0.00150
3840.07,0.00150
3834.28,0.00257
3828.49,0.00062
3822.71,0.00233
3816.92,0.00026
3811.14,0.00161
3805.35,0.00088
3799.56,0.00065
3793.78,0.00070
3787.99,0.00102
3782.21,0.00179
3776.42,0.00081
3770.63,0.00073
3764.85,0.00099
3759.06,-0.00032
3753.27,0.00261
3747.49,0.00026
3741.7,0.00155
3735.92,0.00301
3730.13,0.00018
3724.34,0.00140
3718.56,0.00053
3712.77,0.00248
3706.99,0.00147
3701.2,0.00034
3695.41,0.00173
3689.63,0.00244
3683.84,0.00084
3678.06,0.00122
3672.27,0.00096
3666.48,0.00001
3660.7,0.00172
3654.91,0.00174
3649.12,0.00420
3643.34,0.00167
3637.55,0.00067
3631.77,0.00279
3625.98,0.00162
3620.19,0.00216
3614.41,0.00029
3608.62,0.00117
3602.84,0.00154
3597.05,0.00056
3591.26,0.00109
3585.48,0.00205
3579.69,0.00177
3573.9,0.00015
3568.12,0.00127
3562.33,0.00187
3556.55,0.00132
3550.76,0.00159
3544.97,0.00237
3539.19,0.00116
3533.4,0.00065
3527.62,0.00175
3521.83,0.00034
3516.04,0.00216
3510.26,0.00138
3504.47,0.00102
3498.68,0.00140
3492.9,0.00149
3487.11,0.00061
3481.33,0.00080
3475.54,0.00122
3469.75,0.00095
3463.97,0.00091
3458.18,0.00074
3452.4,0.00098
3446.61,0.00141
3440.82,0.00104
3435.04,0.00142
3429.25,0.00158
3423.47,0.00147
3417.68,0.00100
3411.89,0.00089
3406.11,0.00176
3400.32,0.00159
3394.53,0.00256
3388.75,0.00093
3382.96,0.00115
3377.18,0.00110
3371.39,0.00096
3365.6,0.00090
3359.82,0.00239
3354.03,0.00064
3348.25,0.00350
3342.46,0.00255
3336.67,0.00080
3330.89,0.00158
3325.1,0.00217
3319.31,0.00132
3313.53,0.00135
3307.74,0.00071
3301.96,0.00165
3296.17,0.00095
3290.38,0.00158
3284.6,0.00080
3278.81,0.00064
3273.03,0.00031
3267.24,0.00100
3261.45,0.00092
3255.67,0.00215
3249.88,0.00063
3244.09,0.00106
3238.31,0.00093
3232.52,0.00173
3226.74,0.00279
3220.95,0.00152
3215.16,0.00041
3209.38,0.00153
3203.59,0.00148
3197.81,0.00123
3192.02,-0.00017
3186.23,0.00244
3180.45,0.00026
3174.66,0.00110
3168.87,0.00161
3163.09,0.00101
3157.3,0.00196
3151.52,0.00249
3145.73,0.00163
3139.94,0.00211
3134.16,0.00037
3128.37,0.00111
3122.59,0.00101
3116.8,0.00090
3111.01,0.00076
3105.23,0.00105
3099.44,0.00038
3093.66,0.00158
3087.87,0.00111
3082.08,0.00055
3076.3,0.00099
3070.51,0.00101
3064.72,0.00127
3058.94,0.00052
3053.15,0.00011
3047.37,0.00090
3041.58,0.00087
3035.79,0.00056
3030.01,0.00042
3024.22,0.00041
3018.44,0.00079
3012.65,0.00095
3006.86,0.00107
3001.08,0.00024
2995.29,0.00136
2989.5,0.00038
2983.72,0.00079
2977.93,0.00151
2972.15,0.00002
2966.36,0.00129
2960.57,0.00139
2954.79,0.00115
2949,0.00121
2943.22,0.00124
2937.43,0.00122
2931.64,0.00115
2925.86,0.00086
2920.07,0.00036
2914.28,0.00075
2908.5,0.00080
2902.71,0.00106
2896.93,0.00002
2891.14,0.00094
2885.35,0.00058
2879.57,0.00084
2873.78,0.00026
2868,0.00054
2862.21,0.00046
2856.42,0.00001
2850.64,0.00141
2844.85,0.00029
2839.07,0.00094
2833.28,0.00128
2827.49,0.00053
2821.71,0.00078
2815.92,0.00083
2810.13,0.00108
2804.35,0.00112
2798.56,0.00054
2792.78,-0.00013
2786.99,0.00122
2781.2,0.00065
2775.42,0.00084
2769.63,0.00055
2763.85,0.00008
2758.06,0.00031
2752.27,0.00086
2746.49,0.00073
2740.7,0.00072
2734.91,-0.00027
2729.13,0.00082
2723.34,0.00115
2717.56,0.00129
2711.77,0.00068
2705.98,0.00050
2700.2,0.00017
2694.41,0.00058
2688.63,0.00070
2682.84,0.00097
2677.05,0.00073
2671.27,0.00030
2665.48,0.00042
2659.69,0.00023
2653.91,0.00056
2648.12,0.00038
2642.34,0.00079
2636.55,0.00048
2630.76,0.00064
2624.98,0.00047
2619.19,0.00083
2613.41,0.00037
2607.62,0.00119
2601.83,0.00104
2596.05,0.00103
2590.26,0.00039
2584.47,0.00042
2578.69,0.00063
2572.9,0.00025
2567.12,0.00024
2561.33,0.00076
2555.54,0.00017
2549.76,0.00093
2543.97,0.00057
2538.19,0.00069
2532.4,-0.00007
2526.61,0.00078
2520.83,0.00066
2515.04,0.00090
2509.26,0.00055
2503.47,0.00021
2497.68,0.00108
2491.9,0.00136
2486.11,0.00053
2480.32,0.00049
2474.54,0.00138
2468.75,0.00053
2462.97,0.00077
2457.18,0.00015
2451.39,0.00080
2445.61,0.00022
2439.82,0.00033
2434.04,0.00069
2428.25,0.00004
2422.46,0.00082
2416.68,0.00058
2410.89,0.00092
2405.1,0.00032
2399.32,0.00068
2393.53,0.00036
2387.75,0.00003
2381.96,0.00020
2376.17,0.00209
2370.39,0.00049
2364.6,0.00130
2358.82,0.00037
2353.03,0.00043
2347.24,0.00187
2341.46,0.00092
2335.67,0.00034
2329.88,0.00036
2324.1,0.00071
2318.31,0.00116
2312.53,0.00096
2306.74,0.00084
2300.95,0.00065
2295.17,0.00091
2289.38,0.00043
2283.6,0.00062
2277.81,0.00077
2272.02,0.00081
2266.24,0.00110
2260.45,0.00068
2254.67,0.00099
2248.88,0.00080
2243.09,0.00003
2237.31,0.00088
2231.52,0.00039
2225.73,0.00082
2219.95,0.00032
2214.16,0.00045
2208.38,0.00008
2202.59,0.00090
2196.8,0.00079
2191.02,0.00047
2185.23,0.00053
2179.45,0.00025
2173.66,0.00012
2167.87,0.00039
2162.09,0.00088
2156.3,0.00040
2150.51,0.00093
2144.73,0.00038
2138.94,0.00002
2133.16,0.00067
2127.37,0.00062
2121.58,0.00033
2115.8,0.00055
2110.01,0.00033
2104.23,0.00036
2098.44,0.00048
2092.65,0.00074
2086.87,0.00046
2081.08,0.00030
2075.29,0.00023
2069.51,0.00085
2063.72,0.00096
2057.94,0.00092
2052.15,0.00054
2046.36,0.00095
2040.58,0.00030
2034.79,0.00115
2029.01,0.00047
2023.22,0.00049
2017.43,0.00073
2011.65,0.00028
2005.86,0.00000
2000.08,0.00053
1994.29,0.00099
1988.5,0.00033
1982.72,0.00058
1976.93,0.00096
1971.14,0.00071
1965.36,0.00080
1959.57,0.00059
1953.79,0.00084
1948,0.00065
1942.21,0.00047
1936.43,-0.00004
1930.64,0.00041
1924.86,0.00053
1919.07,0.00076
1913.28,0.00062
1907.5,0.00041
1901.71,0.00046
1895.92,0.00031
1890.14,0.00060
1884.35,0.00066
1878.57,0.00089
1872.78,0.00075
1866.99,0.00059
1861.21,0.00069
1855.42,0.00017
1849.64,0.00068
1843.85,0.00021
1838.06,0.00008
1832.28,0.00042
1826.49,0.00072
1820.7,0.00045
1814.92,0.00049
1809.13,0.00099
1803.35,0.00065
1797.56,0.00041
1791.77,0.00070
1785.99,0.00056
1780.2,0.00018
1774.42,0.00124
1768.63,0.00032
1762.84,0.00067
1757.06,0.00058
1751.27,0.00019
1745.48,0.00077
1739.7,0.00062
1733.91,0.00104
1728.13,0.00073
1722.34,0.00069
1716.55,0.00033
1710.77,0.00074
1704.98,0.00097
1699.2,0.00156
1693.41,0.00073
1687.62,0.00019
1681.84,0.00114
1676.05,-0.00026
1670.27,0.00087
1664.48,0.00090
1658.69,0.00063
1652.91,0.00115
1647.12,0.00139
1641.33,0.00057
1635.55,0.00075
1629.76,0.00052
1623.98,0.00057
1618.19,0.00114
1612.4,0.00016
1606.62,0.00073
1600.83,0.00128
1595.05,0.00008
1589.26,0.00071
1583.47,0.00035
1577.69,0.00157
1571.9,0.00027
1566.11,0.00114
1560.33,-0.00038
1554.54,0.00130
1548.76,0.00081
1542.97,0.00092
1537.18,0.00088
1531.4,0.00004
1525.61,0.00036
1519.83,0.00145
1514.04,0.00010
1508.25,0.00140
1502.47,0.00105
1496.68,0.00075
1490.89,0.00128
1485.11,0.00079
1479.32,0.00088
1473.54,0.00107
1467.75,0.00070
1461.96,0.00058
1456.18,0.00058
1450.39,0.00062
1444.61,0.00041
1438.82,0.00095
1433.03,0.00062
1427.25,0.00079
1421.46,0.00079
1415.68,0.00093
1409.89,0.00055
1404.1,0.00070
1398.32,0.00047
1392.53,0.00062
1386.74,0.00062
1380.96,0.00065
1375.17,0.00006
1369.39,0.00101
1363.6,0.00054
1357.81,0.00049
1352.03,0.00064
1346.24,0.00061
1340.46,0.00029
1334.67,0.00033
1328.88,0.00046
1323.1,0.00028
1317.31,0.00060
1311.52,0.00068
1305.74,0.00055
1299.95,0.00038
1294.17,0.00092
1288.38,0.00013
1282.59,0.00052
1276.81,0.00043
1271.02,0.00054
1265.24,0.00058
1259.45,0.00063
1253.66,0.00051
1247.88,0.00077
1242.09,0.00035
1236.3,0.00067
1230.52,0.00068
1224.73,0.00038
1218.95,0.00088
1213.16,0.00116
1207.37,0.00084
1201.59,0.00028
1195.8,0.00066
1190.02,0.00093
1184.23,0.00058
1178.44,0.00119
1172.66,0.00124
1166.87,0.00007
1161.09,0.00060
1155.3,0.00203
1149.51,0.00053
1143.73,0.00079
1137.94,0.00094
1132.15,0.00155
1126.37,0.00089
1120.58,0.00069
1114.8,0.00113
1109.01,0.00136
1103.22,0.00078
1097.44,0.00221
1091.65,0.00089
1085.87,0.00137
1080.08,0.00054
1074.29,0.00092
1068.51,0.00059
1062.72,0.00091
1056.93,0.00100
1051.15,0.00150
1045.36,0.00056
1039.58,0.00010
1033.79,0.00088
1028,0.00049
1022.22,0.00023
1016.43,0.00133
1010.65,0.00169
1004.86,0.00051
999.073,0.00053
993.287,0.00018
987.501,0.00182
981.715,0.00118
975.929,0.00108
970.142,0.00169
964.356,0.00158
958.57,0.00143
952.784,-0.00033
946.998,0.00105
941.212,0.00094
935.426,0.00050
929.64,0.00060
923.853,0.00175
918.067,0.00121
912.281,0.00150
906.495,0.00137
900.709,0.00029
894.923,0.00154
889.137,0.00084
883.35,0.00082
877.564,0.00065
871.778,0.00053
865.992,0.00156
860.206,0.00004
854.42,0.00206
848.634,0.00088
842.847,0.00093
837.061,0.00138
831.275,0.00117
825.489,0.00094
819.703,0.00107
813.917,0.00071
808.131,0.00212
802.344,0.00100
796.558,0.00059
790.772,0.00195
784.986,0.00177
779.2,0.00124
773.414,0.00134
767.628,0.00120
761.842,0.00119
756.055,0.00076
750.269,0.00068
744.483,0.00106
738.697,0.00136
732.911,0.00158
727.125,0.00127
721.339,0.00199
715.552,0.00056
709.766,0.00180
703.98,0.00309
698.194,0.00027
692.408,0.00128
686.622,0.00097
680.836,0.00189
675.049,0.00144
669.263,0.00214
663.477,0.00061
657.691,0.00264
651.905,0.00083
646.119,0.00299
640.333,0.00277
634.546,0.00210
628.76,0.00104
622.974,0.00595
617.188,0.00540
611.402,0.00151
605.616,0.00299
599.83,0.00449