File: 01_Data/PEVA/FTIR/IS/PEVA_0.10_IS_Trans_S_240819_R7.dpt
7496.91,0.93050
7491.12,0.92924
7485.33,0.92475
7479.55,0.92213
7473.76,0.94542
7467.98,0.95300
7462.19,0.93258
7456.4,0.93350
7450.62,0.94011
7444.83,0.91328
7439.04,0.93610
7433.26,0.95037
7427.47,0.94367
7421.69,0.94835
7415.9,0.93461
7410.11,0.93633
7404.33,0.92728
7398.54,0.93236
7392.76,0.93369
7386.97,0.93722
7381.18,0.92116
7375.4,0.94465
7369.61,0.95687
7363.83,0.92574
7358.04,0.91697
7352.25,0.92515
7346.47,0.92195
7340.68,0.92529
7334.89,0.91356
7329.11,0.93988
7323.32,0.93308
7317.54,0.93708
7311.75,0.91689
7305.96,0.93039
7300.18,0.93229
7294.39,0.93594
7288.61,0.93232
7282.82,0.92325
7277.03,0.92812
7271.25,0.93897
7265.46,0.94623
7259.67,0.93881
7253.89,0.94221
7248.1,0.92529
7242.32,0.93538
7236.53,0.93461
7230.74,0.92436
7224.96,0.93634
7219.17,0.93187
7213.39,0.92220
7207.6,0.90870
7201.81,0.91952
7196.03,0.93311
7190.24,0.93350
7184.45,0.91824
7178.67,0.91828
7172.88,0.92302
7167.1,0.92074
7161.31,0.92246
7155.52,0.93110
7149.74,0.92502
7143.95,0.92302
7138.17,0.92273
7132.38,0.93299
7126.59,0.92926
7120.81,0.91550
7115.02,0.92335
7109.23,0.94025
7103.45,0.92844
7097.66,0.92921
7091.88,0.93147
7086.09,0.93013
7080.3,0.93003
7074.52,0.92040
7068.73,0.91919
7062.95,0.93111
7057.16,0.92400
7051.37,0.92550
7045.59,0.91887
7039.8,0.93593
7034.02,0.92753
7028.23,0.93214
7022.44,0.92476
7016.66,0.92919
7010.87,0.91928
7005.08,0.93369
6999.3,0.92282
6993.51,0.92551
6987.73,0.92387
6981.94,0.92192
6976.15,0.92166
6970.37,0.91834
6964.58,0.92975
6958.8,0.93369
6953.01,0.91812
6947.22,0.92223
6941.44,0.92392
6935.65,0.91286
6929.86,0.92466
6924.08,0.92556
6918.29,0.92382
6912.51,0.92976
6906.72,0.92735
6900.93,0.92326
6895.15,0.92868
6889.36,0.93549
6883.58,0.92907
6877.79,0.93892
6872,0.93395
6866.22,0.93406
6860.43,0.92917
6854.64,0.93547
6848.86,0.93081
6843.07,0.93417
6837.29,0.92485
6831.5,0.92489
6825.71,0.92892
6819.93,0.93704
6814.14,0.92879
6808.36,0.94051
6802.57,0.93012
6796.78,0.93565
6791,0.93706
6785.21,0.93422
6779.43,0.93121
6773.64,0.92932
6767.85,0.93614
6762.07,0.93405
6756.28,0.94542
6750.49,0.93147
6744.71,0.94357
6738.92,0.93984
6733.14,0.93133
6727.35,0.93152
6721.56,0.92781
6715.78,0.93565
6709.99,0.93355
6704.21,0.93312
6698.42,0.93499
6692.63,0.93835
6686.85,0.93695
6681.06,0.93381
6675.27,0.93959
6669.49,0.94044
6663.7,0.93429
6657.92,0.94055
6652.13,0.93309
6646.34,0.94830
6640.56,0.93759
6634.77,0.93994
6628.99,0.93997
6623.2,0.93309
6617.41,0.93968
6611.63,0.93825
6605.84,0.93913
6600.05,0.93776
6594.27,0.93397
6588.48,0.93890
6582.7,0.93255
6576.91,0.94245
6571.12,0.93826
6565.34,0.93605
6559.55,0.93554
6553.77,0.93530
6547.98,0.93842
6542.19,0.93484
6536.41,0.94157
6530.62,0.94498
6524.84,0.93395
6519.05,0.93397
6513.26,0.93767
6507.48,0.93523
6501.69,0.93861
6495.9,0.93427
6490.12,0.93246
6484.33,0.92907
6478.55,0.93888
6472.76,0.93424
6466.97,0.94106
6461.19,0.93944
6455.4,0.93664
6449.62,0.93593
6443.83,0.93430
6438.04,0.93443
6432.26,0.93723
6426.47,0.93697
6420.68,0.93417
6414.9,0.93627
6409.11,0.92836
6403.33,0.93267
6397.54,0.94593
6391.75,0.94080
6385.97,0.93978
6380.18,0.93538
6374.4,0.93161
6368.61,0.92970
6362.82,0.93979
6357.04,0.93785
6351.25,0.93600
6345.46,0.94045
6339.68,0.93914
6333.89,0.93564
6328.11,0.93827
6322.32,0.93907
6316.53,0.93898
6310.75,0.93369
6304.96,0.93425
6299.18,0.93646
6293.39,0.94054
6287.6,0.93908
6281.82,0.93761
6276.03,0.93526
6270.24,0.93713
6264.46,0.93816
6258.67,0.94539
6252.89,0.93737
6247.1,0.93663
6241.31,0.93638
6235.53,0.93670
6229.74,0.93691
6223.96,0.94117
6218.17,0.93669
6212.38,0.93670
6206.6,0.93844
6200.81,0.93692
6195.03,0.93389
6189.24,0.93460
6183.45,0.93608
6177.67,0.94018
6171.88,0.93856
6166.09,0.93431
6160.31,0.93181
6154.52,0.93563
6148.74,0.93942
6142.95,0.93966
6137.16,0.93406
6131.38,0.93144
6125.59,0.93507
6119.81,0.93471
6114.02,0.93158
6108.23,0.93855
6102.45,0.93341
6096.66,0.93072
6090.87,0.92989
6085.09,0.93365
6079.3,0.93265
6073.52,0.93461
6067.73,0.93591
6061.94,0.93287
6056.16,0.93112
6050.37,0.93223
6044.59,0.93118
6038.8,0.93297
6033.01,0.93400
6027.23,0.92868
6021.44,0.92655
6015.65,0.92726
6009.87,0.93240
6004.08,0.92972
5998.3,0.92913
5992.51,0.92634
5986.72,0.92136
5980.94,0.92251
5975.15,0.92816
5969.37,0.92639
5963.58,0.92631
5957.79,0.92430
5952.01,0.92198
5946.22,0.92134
5940.44,0.92100
5934.65,0.92115
5928.86,0.92489
5923.08,0.91785
5917.29,0.91591
5911.5,0.91774
5905.72,0.91799
5899.93,0.91497
5894.15,0.91681
5888.36,0.91187
5882.57,0.90781
5876.79,0.90298
5871,0.90283
5865.22,0.89993
5859.43,0.89282
5853.64,0.88678
5847.86,0.88125
5842.07,0.87735
5836.28,0.87566
5830.5,0.86799
5824.71,0.86238
5818.93,0.85508
5813.14,0.84853
5807.35,0.84150
5801.57,0.83053
5795.78,0.82283
5790,0.81052
5784.21,0.78803
5778.42,0.77213
5772.64,0.76784
5766.85,0.79430
5761.06,0.82049
5755.28,0.84571
5749.49,0.85669
5743.71,0.86588
5737.92,0.87265
5732.13,0.87586
5726.35,0.88125
5720.56,0.88568
5714.78,0.88653
5708.99,0.88214
5703.2,0.88101
5697.42,0.87667
5691.63,0.87651
5685.84,0.86987
5680.06,0.86690
5674.27,0.85718
5668.49,0.84955
5662.7,0.84719
5656.91,0.85665
5651.13,0.87213
5645.34,0.88092
5639.56,0.88099
5633.77,0.88570
5627.98,0.88873
5622.2,0.89017
5616.41,0.89323
5610.63,0.89691
5604.84,0.89314
5599.05,0.89590
5593.27,0.89710
5587.48,0.90093
5581.69,0.89423
5575.91,0.89593
5570.12,0.89693
5564.34,0.89262
5558.55,0.89249
5552.76,0.89201
5546.98,0.89209
5541.19,0.89601
5535.41,0.89456
5529.62,0.89544
5523.83,0.89359
5518.05,0.89378
5512.26,0.89414
5506.47,0.89334
5500.69,0.89625
5494.9,0.89403
5489.12,0.89173
5483.33,0.89347
5477.54,0.89509
5471.76,0.89621
5465.97,0.89345
5460.19,0.89449
5454.4,0.89733
5448.61,0.89617
5442.83,0.89658
5437.04,0.89841
5431.25,0.89788
5425.47,0.89930
5419.68,0.90114
5413.9,0.89717
5408.11,0.90158
5402.32,0.90600
5396.54,0.90111
5390.75,0.90533
5384.97,0.90403
5379.18,0.90664
5373.39,0.90685
5367.61,0.91117
5361.82,0.91011
5356.04,0.90866
5350.25,0.90632
5344.46,0.90472
5338.68,0.90391
5332.89,0.90923
5327.1,0.91056
5321.32,0.91165
5315.53,0.91168
5309.75,0.90768
5303.96,0.91145
5298.17,0.91322
5292.39,0.91100
5286.6,0.90966
5280.82,0.91064
5275.03,0.91140
5269.24,0.90940
5263.46,0.90578
5257.67,0.91074
5251.88,0.91193
5246.1,0.90986
5240.31,0.91261
5234.53,0.91293
5228.74,0.91267
5222.95,0.91177
5217.17,0.91325
5211.38,0.91372
5205.6,0.90562
5199.81,0.91291
5194.02,0.91364
5188.24,0.91251
5182.45,0.91402
5176.66,0.91149
5170.88,0.91400
5165.09,0.91259
5159.31,0.91218
5153.52,0.91394
5147.73,0.91565
5141.95,0.91571
5136.16,0.91661
5130.38,0.91514
5124.59,0.91666
5118.8,0.91632
5113.02,0.91688
5107.23,0.91715
5101.45,0.91617
5095.66,0.91574
5089.87,0.91554
5084.09,0.91655
5078.3,0.91679
5072.51,0.91835
5066.73,0.91619
5060.94,0.91785
5055.16,0.91839
5049.37,0.91741
5043.58,0.91905
5037.8,0.91715
5032.01,0.91796
5026.23,0.91830
5020.44,0.91756
5014.65,0.91730
5008.87,0.91912
5003.08,0.91659
4997.29,0.91633
4991.51,0.91530
4985.72,0.91535
4979.94,0.91544
4974.15,0.91523
4968.36,0.91425
4962.58,0.91470
4956.79,0.91468
4951.01,0.91413
4945.22,0.91678
4939.43,0.91881
4933.65,0.91937
4927.86,0.91923
4922.07,0.91879
4916.29,0.91805
4910.5,0.91846
4904.72,0.91927
4898.93,0.92046
4893.14,0.91837
4887.36,0.91851
4881.57,0.91929
4875.79,0.91708
4870,0.91905
4864.21,0.91964
4858.43,0.91900
4852.64,0.91843
4846.85,0.91841
4841.07,0.92045
4835.28,0.92132
4829.5,0.92109
4823.71,0.91935
4817.92,0.92065
4812.14,0.92288
4806.35,0.92270
4800.57,0.92441
4794.78,0.92336
4788.99,0.92249
4783.21,0.92197
4777.42,0.92270
4771.64,0.92372
4765.85,0.92600
4760.06,0.92475
4754.28,0.92540
4748.49,0.92313
4742.7,0.92361
4736.92,0.92496
4731.13,0.92498
4725.35,0.92588
4719.56,0.92482
4713.77,0.92413
4707.99,0.92400
4702.2,0.92553
4696.42,0.92738
4690.63,0.92636
4684.84,0.92477
4679.06,0.92365
4673.27,0.92163
4667.48,0.92402
4661.7,0.92540
4655.91,0.92624
4650.13,0.92493
4644.34,0.92421
4638.55,0.92342
4632.77,0.92375
4626.98,0.92614
4621.2,0.92650
4615.41,0.92571
4609.62,0.92281
4603.84,0.92253
4598.05,0.92430
4592.26,0.92593
4586.48,0.92626
4580.69,0.92396
4574.91,0.92436
4569.12,0.92247
4563.33,0.92130
4557.55,0.92247
4551.76,0.92271
4545.98,0.92139
4540.19,0.91902
4534.4,0.91861
4528.62,0.91916
4522.83,0.91842
4517.05,0.91822
4511.26,0.91793
4505.47,0.91602
4499.69,0.91369
4493.9,0.91246
4488.11,0.91294
4482.33,0.91359
4476.54,0.91076
4470.76,0.90771
4464.97,0.90592
4459.18,0.90374
4453.4,0.90366
4447.61,0.90108
4441.83,0.89754
4436.04,0.89365
4430.25,0.88843
4424.47,0.88491
4418.68,0.87909
4412.89,0.87239
4407.11,0.86126
4401.32,0.84782
4395.54,0.83487
4389.75,0.82379
4383.96,0.81131
4378.18,0.79747
4372.39,0.78305
4366.61,0.76623
4360.82,0.74566
4355.03,0.71682
4349.25,0.67026
4343.46,0.60722
4337.67,0.55177
4331.89,0.49520
4326.1,0.40086
4320.32,0.37977
4314.53,0.55861
4308.74,0.67484
4302.96,0.72071
4297.17,0.73484
4291.39,0.73076
4285.6,0.71884
4279.81,0.70916
4274.03,0.69443
4268.24,0.66480
4262.46,0.60883
4256.67,0.52855
4250.88,0.48473
4245.1,0.58127
4239.31,0.65643
4233.52,0.67081
4227.74,0.65476
4221.95,0.63372
4216.17,0.63470
4210.38,0.63948
4204.59,0.62907
4198.81,0.60086
4193.02,0.58372
4187.24,0.58333
4181.45,0.58681
4175.66,0.59070
4169.88,0.59271
4164.09,0.59597
4158.3,0.59772
4152.52,0.59691
4146.73,0.59860
4140.95,0.60314
4135.16,0.60854
4129.37,0.61412
4123.59,0.61500
4117.8,0.61588
4112.02,0.61585
4106.23,0.61422
4100.44,0.61476
4094.66,0.62140
4088.87,0.64328
4083.08,0.66755
4077.3,0.68267
4071.51,0.69510
4065.73,0.70563
4059.94,0.71543
4054.15,0.72287
4048.37,0.72882
4042.58,0.73470
4036.8,0.74078
4031.01,0.74426
4025.22,0.74281
4019.44,0.74715
4013.65,0.76875
4007.86,0.77955
4002.08,0.78381
3996.29,0.78575
3990.51,0.78504
3984.72,0.78523
3978.93,0.78296
3973.15,0.78422
3967.36,0.79046
3961.58,0.79319
3955.79,0.79664
3950,0.79154
3944.22,0.78832
3938.43,0.78855
3932.65,0.77710
3926.86,0.77541
3921.07,0.77414
3915.29,0.77303
3909.5,0.77715
3903.71,0.76608
3897.93,0.77342
3892.14,0.77327
3886.36,0.77561
3880.57,0.77484
3874.78,0.77683
3869,0.77411
3863.21,0.78093
3857.43,0.78770
3851.64,0.78357
3845.85,0.79655
3840.07,0.78289
3834.28,0.78778
3828.49,0.79273
3822.71,0.78719
3816.92,0.78800
3811.14,0.80176
3805.35,0.79919
3799.56,0.80076
3793.78,0.81635
3787.99,0.82104
3782.21,0.82094
3776.42,0.82676
3770.63,0.82338
3764.85,0.82487
3759.06,0.82066
3753.27,0.81688
3747.49,0.81316
3741.7,0.82188
3735.92,0.81048
3730.13,0.82348
3724.34,0.81944
3718.56,0.82764
3712.77,0.81862
3706.99,0.82345
3701.2,0.82199
3695.41,0.82199
3689.63,0.80602
3683.84,0.82088
3678.06,0.80900
3672.27,0.80391
3666.48,0.81348
3660.7,0.81196
3654.91,0.79778
3649.12,0.77142
3643.34,0.78820
3637.55,0.80162
3631.77,0.80516
3625.98,0.80532
3620.19,0.79479
3614.41,0.77560
3608.62,0.75103
3602.84,0.74484
3597.05,0.78593
3591.26,0.82968
3585.48,0.84473
3579.69,0.86121
3573.9,0.86950
3568.12,0.86437
3562.33,0.87635
3556.55,0.88558
3550.76,0.88410
3544.97,0.88152
3539.19,0.89097
3533.4,0.89089
3527.62,0.88745
3521.83,0.88987
3516.04,0.89292
3510.26,0.88895
3504.47,0.88736
3498.68,0.89021
3492.9,0.89192
3487.11,0.88849
3481.33,0.88439
3475.54,0.88531
3469.75,0.88346
3463.97,0.88121
3458.18,0.88003
3452.4,0.87680
3446.61,0.87096
3440.82,0.87209
3435.04,0.87250
3429.25,0.87267
3423.47,0.87348
3417.68,0.87287
3411.89,0.87291
3406.11,0.87218
3400.32,0.87134
3394.53,0.87156
3388.75,0.86975
3382.96,0.86553
3377.18,0.86149
3371.39,0.85930
3365.6,0.86155
3359.82,0.86530
3354.03,0.86801
3348.25,0.87013
3342.46,0.87084
3336.67,0.87125
3330.89,0.87499
3325.1,0.87586
3319.31,0.87669
3313.53,0.87637
3307.74,0.87435
3301.96,0.87568
3296.17,0.87706
3290.38,0.87878
3284.6,0.87782
3278.81,0.87548
3273.03,0.87238
3267.24,0.87347
3261.45,0.87623
3255.67,0.87646
3249.88,0.87400
3244.09,0.87077
3238.31,0.86855
3232.52,0.86687
3226.74,0.86859
3220.95,0.86717
3215.16,0.86164
3209.38,0.85795
3203.59,0.85472
3197.81,0.85360
3192.02,0.85063
3186.23,0.84807
3180.45,0.84186
3174.66,0.83816
3168.87,0.83637
3163.09,0.83584
3157.3,0.83219
3151.52,0.82534
3145.73,0.82001
3139.94,0.81476
3134.16,0.81172
3128.37,0.80574
3122.59,0.79501
3116.8,0.78053
3111.01,0.76729
3105.23,0.75094
3099.44,0.72402
3093.66,0.68620
3087.87,0.65175
3082.08,0.63046
3076.3,0.61770
3070.51,0.60390
3064.72,0.58451
3058.94,0.56424
3053.15,0.54143
3047.37,0.51572
3041.58,0.48435
3035.79,0.45109
3030.01,0.42232
3024.22,0.39837
3018.44,0.37391
3012.65,0.34762
3006.86,0.31995
3001.08,0.28678
2995.29,0.24705
2989.5,0.19983
2983.72,0.14244
2977.93,0.07930
2972.15,0.02873
2966.36,0.00643
2960.57,0.00153
2954.79,0.00133
2949,0.00089
2943.22,0.00102
2937.43,0.00050
2931.64,0.00078
2925.86,0.00055
2920.07,0.00117
2914.28,0.00061
2908.5,0.00065
2902.71,0.00056
2896.93,0.00072
2891.14,0.00101
2885.35,0.00097
2879.57,0.00103
2873.78,0.00058
2868,0.00080
2862.21,0.00059
2856.42,0.00092
2850.64,0.00106
2844.85,0.00130
2839.07,0.00086
2833.28,0.00466
2827.49,0.01790
2821.71,0.04057
2815.92,0.07018
2810.13,0.10230
2804.35,0.13730
2798.56,0.17527
2792.78,0.21958
2786.99,0.26749
2781.2,0.31396
2775.42,0.35389
2769.63,0.38557
2763.85,0.40659
2758.06,0.42445
2752.27,0.43863
2746.49,0.44240
2740.7,0.43932
2734.91,0.44119
2729.13,0.45040
2723.34,0.46758
2717.56,0.48144
2711.77,0.49185
2705.98,0.50086
2700.2,0.50957
2694.41,0.50879
2688.63,0.49697
2682.84,0.48472
2677.05,0.47517
2671.27,0.46593
2665.48,0.46151
2659.69,0.46400
2653.91,0.47108
2648.12,0.47787
2642.34,0.47708
2636.55,0.47573
2630.76,0.49086
2624.98,0.51709
2619.19,0.54130
2613.41,0.56532
2607.62,0.58740
2601.83,0.60747
2596.05,0.62458
2590.26,0.64271
2584.47,0.66121
2578.69,0.67882
2572.9,0.69717
2567.12,0.71388
2561.33,0.72493
2555.54,0.73038
2549.76,0.73326
2543.97,0.74839
2538.19,0.76420
2532.4,0.76135
2526.61,0.75995
2520.83,0.77235
2515.04,0.78652
2509.26,0.79843
2503.47,0.80880
2497.68,0.81449
2491.9,0.81642
2486.11,0.81717
2480.32,0.81924
2474.54,0.82186
2468.75,0.83655
2462.97,0.84590
2457.18,0.84582
2451.39,0.84410
2445.61,0.84454
2439.82,0.84650
2434.04,0.84651
2428.25,0.84172
2422.46,0.83088
2416.68,0.82233
2410.89,0.82694
2405.1,0.83536
2399.32,0.83997
2393.53,0.84050
2387.75,0.83708
2381.96,0.82872
2376.17,0.81388
2370.39,0.79944
2364.6,0.78521
2358.82,0.77006
2353.03,0.75682
2347.24,0.74570
2341.46,0.72972
2335.67,0.73277
2329.88,0.73579
2324.1,0.74374
2318.31,0.75920
2312.53,0.77490
2306.74,0.79074
2300.95,0.80491
2295.17,0.81584
2289.38,0.82189
2283.6,0.82364
2277.81,0.82327
2272.02,0.83092
2266.24,0.84417
2260.45,0.85221
2254.67,0.85379
2248.88,0.85017
2243.09,0.84738
2237.31,0.85645
2231.52,0.86804
2225.73,0.87058
2219.95,0.86959
2214.16,0.86945
2208.38,0.86876
2202.59,0.86921
2196.8,0.87067
2191.02,0.87168
2185.23,0.87033
2179.45,0.86781
2173.66,0.86623
2167.87,0.86564
2162.09,0.86456
2156.3,0.86243
2150.51,0.85975
2144.73,0.85953
2138.94,0.86558
2133.16,0.87335
2127.37,0.88124
2121.58,0.88663
2115.8,0.88830
2110.01,0.88637
2104.23,0.88325
2098.44,0.88188
2092.65,0.88332
2086.87,0.88418
2081.08,0.88314
2075.29,0.87890
2069.51,0.87277
2063.72,0.86755
2057.94,0.86577
2052.15,0.86355
2046.36,0.85736
2040.58,0.84643
2034.79,0.83512
2029.01,0.82218
2023.22,0.80738
2017.43,0.80400
2011.65,0.83913
2005.86,0.86652
2000.08,0.87626
1994.29,0.87831
1988.5,0.88271
1982.72,0.88941
1976.93,0.89133
1971.14,0.88950
1965.36,0.88159
1959.57,0.87893
1953.79,0.87940
1948,0.88292
1942.21,0.88114
1936.43,0.88427
1930.64,0.87893
1924.86,0.87053
1919.07,0.86602
1913.28,0.86766
1907.5,0.86093
1901.71,0.85104
1895.92,0.83987
1890.14,0.85093
1884.35,0.87333
1878.57,0.88545
1872.78,0.89216
1866.99,0.88742
1861.21,0.89488
1855.42,0.89251
1849.64,0.89081
1843.85,0.88763
1838.06,0.89924
1832.28,0.89523
1826.49,0.88212
1820.7,0.87609
1814.92,0.87495
1809.13,0.87892
1803.35,0.88655
1797.56,0.88589
1791.77,0.87668
1785.99,0.88104
1780.2,0.87457
1774.42,0.86956
1768.63,0.87225
1762.84,0.86854
1757.06,0.84056
1751.27,0.79582
1745.48,0.76988
1739.7,0.77557
1733.91,0.80715
1728.13,0.83002
1722.34,0.80952
1716.55,0.77407
1710.77,0.78940
1704.98,0.81312
1699.2,0.82140
1693.41,0.85423
1687.62,0.85411
1681.84,0.84216
1676.05,0.84646
1670.27,0.84353
1664.48,0.86082
1658.69,0.86371
1652.91,0.83578
1647.12,0.82230
1641.33,0.82615
1635.55,0.81963
1629.76,0.83924
1623.98,0.83694
1618.19,0.83198
1612.4,0.82688
1606.62,0.82017
1600.83,0.82531
1595.05,0.83028
1589.26,0.83341
1583.47,0.82702
1577.69,0.80974
1571.9,0.80798
1566.11,0.81326
1560.33,0.80874
1554.54,0.80862
1548.76,0.79976
1542.97,0.76378
1537.18,0.76452
1531.4,0.77417
1525.61,0.76631
1519.83,0.74797
1514.04,0.73255
1508.25,0.69495
1502.47,0.68202
1496.68,0.64293
1490.89,0.59059
1485.11,0.48665
1479.32,0.28326
1473.54,0.02179
1467.75,0.00036
1461.96,0.00110
1456.18,0.02074
1450.39,0.08001
1444.61,0.13846
1438.82,0.18975
1433.03,0.31149
1427.25,0.50121
1421.46,0.61493
1415.68,0.67262
1409.89,0.71023
1404.1,0.73038
1398.32,0.72371
1392.53,0.70615
1386.74,0.65400
1380.96,0.44663
1375.17,0.39119
1369.39,0.37530
1363.6,0.41147
1357.81,0.46462
1352.03,0.46410
1346.24,0.52596
1340.46,0.59390
1334.67,0.66802
1328.88,0.68318
1323.1,0.65243
1317.31,0.60380
1311.52,0.56665
1305.74,0.55323
1299.95,0.56130
1294.17,0.58821
1288.38,0.61444
1282.59,0.63229
1276.81,0.65039
1271.02,0.66872
1265.24,0.69125
1259.45,0.70329
1253.66,0.70240
1247.88,0.70405
1242.09,0.72408
1236.3,0.74781
1230.52,0.75939
1224.73,0.75535
1218.95,0.74353
1213.16,0.73746
1207.37,0.74678
1201.59,0.76853
1195.8,0.77628
1190.02,0.76217
1184.23,0.74405
1178.44,0.72836
1172.66,0.73890
1166.87,0.75518
1161.09,0.76326
1155.3,0.75401
1149.51,0.73693
1143.73,0.73409
1137.94,0.75249
1132.15,0.77839
1126.37,0.79197
1120.58,0.77996
1114.8,0.75778
1109.01,0.74626
1103.22,0.75304
1097.44,0.76569
1091.65,0.76068
1085.87,0.73426
1080.08,0.70876
1074.29,0.71558
1068.51,0.73963
1062.72,0.76231
1056.93,0.78511
1051.15,0.77522
1045.36,0.76350
1039.58,0.75180
1033.79,0.75400
1028,0.75853
1022.22,0.74102
1016.43,0.72812
1010.65,0.75048
1004.86,0.76797
999.073,0.78967
993.287,0.82242
987.501,0.84870
981.715,0.84506
975.929,0.81220
970.142,0.78323
964.356,0.78603
958.57,0.81778
952.784,0.85099
946.998,0.85378
941.212,0.82834
935.426,0.80597
929.64,0.81296
923.853,0.84432
918.067,0.86941
912.281,0.85861
906.495,0.82688
900.709,0.80976
894.923,0.80879
889.137,0.83282
883.35,0.86656
877.564,0.87196
871.778,0.84316
865.992,0.81709
860.206,0.81979
854.42,0.84971
848.634,0.87791
842.847,0.87279
837.061,0.83966
831.275,0.81061
825.489,0.81197
819.703,0.84219
813.917,0.86380
808.131,0.85054
802.344,0.80764
796.558,0.77069
790.772,0.76530
784.986,0.77894
779.2,0.77177
773.414,0.73892
767.628,0.71119
761.842,0.70140
756.055,0.70567
750.269,0.70711
744.483,0.65721
738.697,0.50917
732.911,0.16593
727.125,0.04825
721.339,0.02295
715.552,0.13258
709.766,0.41955
703.98,0.63423
698.194,0.77925
692.408,0.82107
686.622,0.80406
680.836,0.80311
675.049,0.84435
669.263,0.87435
663.477,0.91964
657.691,0.89008
651.905,0.85667
646.119,0.86008
640.333,0.90726
634.546,0.95471
628.76,0.95491
622.974,0.90921
617.188,0.86953
611.402,0.87234
605.616,0.91046
599.83,0.95529