File: 01_Data/PEVA/FTIR/IS/PEVA_0.26_IS_S_240809_R6.dpt
7497.2,0.10646
7491.41,0.09844
7485.63,0.08892
7479.84,0.09669
7474.05,0.10085
7468.27,0.10498
7462.48,0.11013
7456.7,0.09878
7450.91,0.10467
7445.12,0.11271
7439.34,0.10999
7433.55,0.10282
7427.76,0.10668
7421.98,0.10113
7416.19,0.08687
7410.4,0.09582
7404.62,0.09591
7398.83,0.09850
7393.05,0.09207
7387.26,0.09907
7381.47,0.10098
7375.69,0.10620
7369.9,0.09926
7364.11,0.11108
7358.33,0.10237
7352.54,0.10634
7346.75,0.09410
7340.97,0.10153
7335.18,0.09828
7329.4,0.10047
7323.61,0.09378
7317.82,0.08909
7312.04,0.10331
7306.25,0.11576
7300.46,0.10269
7294.68,0.10080
7288.89,0.10087
7283.1,0.09454
7277.32,0.10169
7271.53,0.10072
7265.75,0.09403
7259.96,0.10383
7254.17,0.09790
7248.39,0.09893
7242.6,0.10205
7236.81,0.10158
7231.03,0.10154
7225.24,0.10091
7219.45,0.10842
7213.67,0.09804
7207.88,0.10219
7202.1,0.10340
7196.31,0.10124
7190.52,0.10488
7184.74,0.09400
7178.95,0.09830
7173.16,0.09651
7167.38,0.10009
7161.59,0.09442
7155.8,0.10204
7150.02,0.09302
7144.23,0.09382
7138.45,0.09331
7132.66,0.09704
7126.87,0.10383
7121.09,0.09673
7115.3,0.09507
7109.51,0.09775
7103.73,0.10295
7097.94,0.10321
7092.15,0.11157
7086.37,0.09790
7080.58,0.10339
7074.8,0.09543
7069.01,0.10389
7063.22,0.10312
7057.44,0.09915
7051.65,0.09355
7045.86,0.10642
7040.08,0.10007
7034.29,0.09610
7028.5,0.09569
7022.72,0.10176
7016.93,0.10559
7011.15,0.09675
7005.36,0.09880
6999.57,0.10267
6993.79,0.09171
6988,0.09831
6982.21,0.10067
6976.43,0.10428
6970.64,0.09919
6964.85,0.10786
6959.07,0.09671
6953.28,0.10098
6947.5,0.10289
6941.71,0.10513
6935.92,0.10018
6930.14,0.09809
6924.35,0.09525
6918.56,0.09953
6912.78,0.10185
6906.99,0.10729
6901.2,0.10246
6895.42,0.10206
6889.63,0.10044
6883.85,0.10719
6878.06,0.10051
6872.27,0.10928
6866.49,0.10491
6860.7,0.09625
6854.91,0.10031
6849.13,0.11218
6843.34,0.09896
6837.55,0.10632
6831.77,0.09938
6825.98,0.10023
6820.2,0.10336
6814.41,0.10007
6808.62,0.10389
6802.84,0.10658
6797.05,0.10362
6791.26,0.10441
6785.48,0.10587
6779.69,0.10614
6773.9,0.10478
6768.12,0.10517
6762.33,0.10226
6756.55,0.09939
6750.76,0.10192
6744.97,0.10561
6739.19,0.10416
6733.4,0.10331
6727.61,0.09908
6721.83,0.10278
6716.04,0.09991
6710.25,0.10431
6704.47,0.10135
6698.68,0.10108
6692.9,0.10161
6687.11,0.10224
6681.32,0.09662
6675.54,0.09968
6669.75,0.10305
6663.96,0.10251
6658.18,0.09947
6652.39,0.10137
6646.6,0.10443
6640.82,0.09967
6635.03,0.10917
6629.25,0.10210
6623.46,0.09922
6617.67,0.10177
6611.89,0.09887
6606.1,0.10264
6600.31,0.09697
6594.53,0.10056
6588.74,0.10381
6582.95,0.10377
6577.17,0.09760
6571.38,0.09839
6565.6,0.10243
6559.81,0.09407
6554.02,0.10285
6548.24,0.09941
6542.45,0.10557
6536.66,0.09927
6530.88,0.10033
6525.09,0.10448
6519.3,0.10283
6513.52,0.10373
6507.73,0.09858
6501.95,0.11001
6496.16,0.10436
6490.37,0.10435
6484.59,0.10153
6478.8,0.10220
6473.01,0.10484
6467.23,0.10082
6461.44,0.10511
6455.65,0.10468
6449.87,0.09966
6444.08,0.10207
6438.3,0.10316
6432.51,0.09769
6426.72,0.09965
6420.94,0.09707
6415.15,0.09798
6409.36,0.09850
6403.58,0.10490
6397.79,0.10362
6392,0.10151
6386.22,0.10423
6380.43,0.10134
6374.65,0.09910
6368.86,0.10114
6363.07,0.10652
6357.29,0.09997
6351.5,0.09926
6345.71,0.10219
6339.93,0.10130
6334.14,0.10350
6328.35,0.10166
6322.57,0.10278
6316.78,0.10396
6310.99,0.10156
6305.21,0.10842
6299.42,0.10367
6293.64,0.10122
6287.85,0.10185
6282.06,0.10251
6276.28,0.10585
6270.49,0.09991
6264.7,0.10207
6258.92,0.10393
6253.13,0.10639
6247.34,0.10503
6241.56,0.09556
6235.77,0.09988
6229.99,0.10256
6224.2,0.09970
6218.41,0.10179
6212.63,0.10545
6206.84,0.10067
6201.05,0.10476
6195.27,0.10399
6189.48,0.10345
6183.69,0.10039
6177.91,0.10354
6172.12,0.10414
6166.34,0.10099
6160.55,0.10025
6154.76,0.10485
6148.98,0.10049
6143.19,0.10127
6137.4,0.10252
6131.62,0.10230
6125.83,0.09866
6120.04,0.10264
6114.26,0.10032
6108.47,0.10215
6102.69,0.10111
6096.9,0.10434
6091.11,0.10103
6085.33,0.10227
6079.54,0.10120
6073.75,0.09613
6067.97,0.09989
6062.18,0.09900
6056.39,0.09921
6050.61,0.09953
6044.82,0.09623
6039.04,0.09841
6033.25,0.10131
6027.46,0.09954
6021.68,0.09764
6015.89,0.09723
6010.1,0.10116
6004.32,0.09625
5998.53,0.09770
5992.74,0.09829
5986.96,0.09675
5981.17,0.09821
5975.39,0.09963
5969.6,0.09665
5963.81,0.10171
5958.03,0.09988
5952.24,0.10011
5946.45,0.10036
5940.67,0.09977
5934.88,0.09742
5929.09,0.09813
5923.31,0.09557
5917.52,0.09567
5911.74,0.09431
5905.95,0.09437
5900.16,0.09404
5894.38,0.09542
5888.59,0.09396
5882.8,0.09268
5877.02,0.08969
5871.23,0.09383
5865.44,0.09057
5859.66,0.08816
5853.87,0.08680
5848.09,0.08851
5842.3,0.08592
5836.51,0.08612
5830.73,0.08434
5824.94,0.08535
5819.15,0.08524
5813.37,0.08647
5807.58,0.08731
5801.79,0.09037
5796.01,0.08878
5790.22,0.09230
5784.44,0.09219
5778.65,0.09223
5772.86,0.09207
5767.08,0.09227
5761.29,0.09274
5755.5,0.09513
5749.72,0.09355
5743.93,0.09152
5738.14,0.09534
5732.36,0.09443
5726.57,0.09395
5720.79,0.09072
5715,0.09224
5709.21,0.09291
5703.43,0.09235
5697.64,0.09298
5691.85,0.09473
5686.07,0.09314
5680.28,0.09379
5674.49,0.09658
5668.71,0.09525
5662.92,0.09497
5657.14,0.09386
5651.35,0.09778
5645.56,0.09685
5639.78,0.09726
5633.99,0.09517
5628.2,0.09395
5622.42,0.09618
5616.63,0.09980
5610.84,0.09690
5605.06,0.09973
5599.27,0.09987
5593.49,0.09798
5587.7,0.09906
5581.91,0.10136
5576.13,0.09919
5570.34,0.09848
5564.55,0.10070
5558.77,0.09930
5552.98,0.09806
5547.19,0.09926
5541.41,0.09756
5535.62,0.09974
5529.84,0.09639
5524.05,0.09994
5518.26,0.09951
5512.48,0.09890
5506.69,0.09880
5500.9,0.09877
5495.12,0.09732
5489.33,0.09835
5483.54,0.09904
5477.76,0.10036
5471.97,0.09926
5466.19,0.09783
5460.4,0.09971
5454.61,0.09918
5448.83,0.10000
5443.04,0.09990
5437.25,0.09971
5431.47,0.09916
5425.68,0.09888
5419.89,0.09763
5414.11,0.10010
5408.32,0.09949
5402.54,0.10085
5396.75,0.10114
5390.96,0.09868
5385.18,0.09958
5379.39,0.10197
5373.6,0.09852
5367.82,0.09965
5362.03,0.10128
5356.24,0.10132
5350.46,0.10113
5344.67,0.09910
5338.89,0.09865
5333.1,0.10197
5327.31,0.09890
5321.53,0.10208
5315.74,0.10163
5309.95,0.10098
5304.17,0.10082
5298.38,0.10210
5292.59,0.10180
5286.81,0.10051
5281.02,0.10090
5275.24,0.10179
5269.45,0.10074
5263.66,0.10045
5257.88,0.10215
5252.09,0.10209
5246.3,0.10057
5240.52,0.10054
5234.73,0.10023
5228.94,0.10123
5223.16,0.09984
5217.37,0.10081
5211.59,0.10144
5205.8,0.10241
5200.01,0.10175
5194.23,0.10194
5188.44,0.10142
5182.65,0.10120
5176.87,0.10103
5171.08,0.10223
5165.29,0.10021
5159.51,0.10048
5153.72,0.10232
5147.94,0.10177
5142.15,0.10140
5136.36,0.10368
5130.58,0.10128
5124.79,0.09984
5119,0.10219
5113.22,0.10248
5107.43,0.10073
5101.64,0.10125
5095.86,0.10089
5090.07,0.10118
5084.29,0.10238
5078.5,0.10267
5072.71,0.10064
5066.93,0.10044
5061.14,0.10347
5055.35,0.10186
5049.57,0.10228
5043.78,0.10297
5037.99,0.10245
5032.21,0.10260
5026.42,0.10238
5020.64,0.10090
5014.85,0.10224
5009.06,0.10244
5003.28,0.10214
4997.49,0.10205
4991.7,0.10160
4985.92,0.10301
4980.13,0.10365
4974.34,0.10233
4968.56,0.10252
4962.77,0.10300
4956.99,0.10308
4951.2,0.10201
4945.41,0.10264
4939.63,0.10330
4933.84,0.10210
4928.05,0.10191
4922.27,0.10143
4916.48,0.10167
4910.69,0.10215
4904.91,0.10384
4899.12,0.10296
4893.34,0.10329
4887.55,0.10277
4881.76,0.10303
4875.98,0.10435
4870.19,0.10127
4864.4,0.10319
4858.62,0.10296
4852.83,0.10260
4847.04,0.10348
4841.26,0.10263
4835.47,0.10149
4829.69,0.10239
4823.9,0.10305
4818.11,0.10223
4812.33,0.10292
4806.54,0.10249
4800.75,0.10229
4794.97,0.10270
4789.18,0.10203
4783.39,0.10361
4777.61,0.10248
4771.82,0.10170
4766.04,0.10420
4760.25,0.10363
4754.46,0.10363
4748.68,0.10278
4742.89,0.10224
4737.1,0.10182
4731.32,0.10182
4725.53,0.10158
4719.74,0.10214
4713.96,0.10230
4708.17,0.10054
4702.39,0.10084
4696.6,0.10017
4690.81,0.10028
4685.03,0.09922
4679.24,0.09972
4673.45,0.10051
4667.67,0.10073
4661.88,0.10069
4656.09,0.10193
4650.31,0.09998
4644.52,0.09973
4638.74,0.09905
4632.95,0.10001
4627.16,0.10018
4621.38,0.10132
4615.59,0.10055
4609.8,0.10095
4604.02,0.10150
4598.23,0.10149
4592.44,0.10157
4586.66,0.10073
4580.87,0.10182
4575.09,0.10102
4569.3,0.10144
4563.51,0.10225
4557.73,0.10250
4551.94,0.10167
4546.15,0.10290
4540.37,0.10178
4534.58,0.10106
4528.79,0.10205
4523.01,0.10031
4517.22,0.10228
4511.44,0.10125
4505.65,0.10013
4499.86,0.10037
4494.08,0.09869
4488.29,0.09855
4482.5,0.09869
4476.72,0.09909
4470.93,0.09791
4465.14,0.09762
4459.36,0.09757
4453.57,0.09653
4447.79,0.09495
4442,0.09357
4436.21,0.09219
4430.43,0.09033
4424.64,0.08929
4418.85,0.08545
4413.07,0.08455
4407.28,0.08245
4401.49,0.08160
4395.71,0.08026
4389.92,0.07956
4384.14,0.07909
4378.35,0.07803
4372.56,0.07651
4366.78,0.07536
4360.99,0.07317
4355.2,0.07166
4349.42,0.07049
4343.63,0.06965
4337.84,0.06790
4332.06,0.06792
4326.27,0.06866
4320.49,0.07111
4314.7,0.07174
4308.91,0.07293
4303.13,0.07293
4297.34,0.07288
4291.55,0.07476
4285.77,0.07410
4279.98,0.07367
4274.19,0.07304
4268.41,0.07315
4262.62,0.07385
4256.84,0.07438
4251.05,0.07377
4245.26,0.07312
4239.48,0.07352
4233.69,0.07323
4227.9,0.07375
4222.12,0.07247
4216.33,0.07371
4210.54,0.07349
4204.76,0.07356
4198.97,0.07300
4193.19,0.07439
4187.4,0.07469
4181.61,0.07510
4175.83,0.07473
4170.04,0.07428
4164.25,0.07490
4158.47,0.07619
4152.68,0.07619
4146.89,0.07710
4141.11,0.07859
4135.32,0.07893
4129.54,0.07946
4123.75,0.07992
4117.96,0.07971
4112.18,0.08025
4106.39,0.07971
4100.6,0.07786
4094.82,0.07689
4089.03,0.07529
4083.24,0.07450
4077.46,0.07532
4071.67,0.07713
4065.89,0.07826
4060.1,0.08000
4054.31,0.08058
4048.53,0.08206
4042.74,0.08119
4036.95,0.08196
4031.17,0.08244
4025.38,0.08236
4019.59,0.08208
4013.81,0.08309
4008.02,0.08372
4002.24,0.08478
3996.45,0.08408
3990.66,0.08458
3984.88,0.08586
3979.09,0.08634
3973.3,0.08653
3967.52,0.08702
3961.73,0.08699
3955.94,0.08743
3950.16,0.08801
3944.37,0.08710
3938.59,0.08836
3932.8,0.08770
3927.01,0.08744
3921.23,0.08807
3915.44,0.08686
3909.65,0.08756
3903.87,0.08788
3898.08,0.08766
3892.29,0.08780
3886.51,0.08820
3880.72,0.08867
3874.94,0.08872
3869.15,0.08778
3863.36,0.08868
3857.58,0.08951
3851.79,0.08853
3846,0.08886
3840.22,0.08889
3834.43,0.08840
3828.64,0.09025
3822.86,0.08982
3817.07,0.08974
3811.29,0.09046
3805.5,0.09089
3799.71,0.09007
3793.93,0.09134
3788.14,0.09149
3782.35,0.09248
3776.57,0.09183
3770.78,0.09176
3764.99,0.09182
3759.21,0.09100
3753.42,0.09176
3747.64,0.09243
3741.85,0.09212
3736.06,0.09289
3730.28,0.09286
3724.49,0.09347
3718.7,0.09343
3712.92,0.09349
3707.13,0.09298
3701.34,0.09186
3695.56,0.08914
3689.77,0.08637
3683.99,0.08444
3678.2,0.08415
3672.41,0.08495
3666.63,0.08454
3660.84,0.08545
3655.05,0.08574
3649.27,0.08577
3643.48,0.08604
3637.69,0.08629
3631.91,0.08558
3626.12,0.08458
3620.34,0.08377
3614.55,0.08492
3608.76,0.08298
3602.98,0.08208
3597.19,0.08104
3591.4,0.08168
3585.62,0.08186
3579.83,0.07950
3574.04,0.07913
3568.26,0.07899
3562.47,0.07693
3556.69,0.07646
3550.9,0.07737
3545.11,0.07553
3539.33,0.07563
3533.54,0.07596
3527.75,0.07558
3521.97,0.07505
3516.18,0.07440
3510.39,0.07427
3504.61,0.07440
3498.82,0.07308
3493.04,0.07202
3487.25,0.07177
3481.46,0.07128
3475.68,0.07020
3469.89,0.06972
3464.1,0.06872
3458.32,0.06871
3452.53,0.06821
3446.74,0.06706
3440.96,0.06601
3435.17,0.06455
3429.39,0.06446
3423.6,0.06414
3417.81,0.06413
3412.03,0.06639
3406.24,0.06660
3400.45,0.06711
3394.67,0.06956
3388.88,0.06946
3383.09,0.06939
3377.31,0.07071
3371.52,0.07129
3365.74,0.07171
3359.95,0.07254
3354.16,0.07295
3348.38,0.07311
3342.59,0.07245
3336.8,0.07193
3331.02,0.07137
3325.23,0.07171
3319.44,0.07032
3313.66,0.06896
3307.87,0.06575
3302.09,0.06405
3296.3,0.06505
3290.51,0.06764
3284.73,0.07021
3278.94,0.07278
3273.15,0.07284
3267.37,0.07434
3261.58,0.07491
3255.79,0.07587
3250.01,0.07545
3244.22,0.07594
3238.44,0.07567
3232.65,0.07531
3226.86,0.07532
3221.08,0.07512
3215.29,0.07492
3209.5,0.07524
3203.72,0.07500
3197.93,0.07401
3192.14,0.07500
3186.36,0.07393
3180.57,0.07431
3174.79,0.07423
3169,0.07474
3163.21,0.07489
3157.43,0.07393
3151.64,0.07431
3145.85,0.07358
3140.07,0.07340
3134.28,0.07256
3128.49,0.07254
3122.71,0.07190
3116.92,0.07129
3111.14,0.07141
3105.35,0.06942
3099.56,0.06829
3093.78,0.06710
3087.99,0.06613
3082.2,0.06442
3076.42,0.06492
3070.63,0.06418
3064.84,0.06285
3059.06,0.06279
3053.27,0.06308
3047.49,0.06315
3041.7,0.06286
3035.91,0.06237
3030.13,0.06123
3024.34,0.06055
3018.55,0.05935
3012.77,0.05918
3006.98,0.05864
3001.19,0.05817
2995.41,0.05727
2989.62,0.05690
2983.84,0.05665
2978.05,0.05638
2972.26,0.05659
2966.48,0.05677
2960.69,0.05881
2954.9,0.06020
2949.12,0.05950
2943.33,0.05896
2937.54,0.05922
2931.76,0.06053
2925.97,0.06154
2920.19,0.06175
2914.4,0.06241
2908.61,0.06240
2902.83,0.06266
2897.04,0.06243
2891.25,0.06203
2885.47,0.06190
2879.68,0.06123
2873.89,0.06208
2868.11,0.06197
2862.32,0.06257
2856.54,0.06293
2850.75,0.06333
2844.96,0.06328
2839.18,0.06312
2833.39,0.06283
2827.6,0.06302
2821.82,0.06271
2816.03,0.06188
2810.24,0.06236
2804.46,0.06340
2798.67,0.06413
2792.89,0.06575
2787.1,0.06619
2781.31,0.06692
2775.53,0.06811
2769.74,0.06853
2763.95,0.06878
2758.17,0.06837
2752.38,0.06827
2746.59,0.06759
2740.81,0.06699
2735.02,0.06688
2729.24,0.06723
2723.45,0.06883
2717.66,0.07005
2711.88,0.07087
2706.09,0.07135
2700.3,0.07178
2694.52,0.07264
2688.73,0.07243
2682.94,0.07235
2677.16,0.07213
2671.37,0.07138
2665.59,0.07251
2659.8,0.07304
2654.01,0.07441
2648.23,0.07413
2642.44,0.07414
2636.65,0.07401
2630.87,0.07387
2625.08,0.07353
2619.29,0.07357
2613.51,0.07321
2607.72,0.07333
2601.94,0.07311
2596.15,0.07335
2590.36,0.07320
2584.58,0.07295
2578.79,0.07268
2573,0.07288
2567.22,0.07358
2561.43,0.07344
2555.64,0.07394
2549.86,0.07447
2544.07,0.07476
2538.29,0.07473
2532.5,0.07482
2526.71,0.07562
2520.93,0.07615
2515.14,0.07667
2509.35,0.07722
2503.57,0.07805
2497.78,0.07841
2491.99,0.07904
2486.21,0.07992
2480.42,0.07947
2474.64,0.07977
2468.85,0.08061
2463.06,0.08031
2457.28,0.08052
2451.49,0.08013
2445.7,0.07972
2439.92,0.07979
2434.13,0.07915
2428.34,0.07842
2422.56,0.07727
2416.77,0.07713
2410.99,0.07666
2405.2,0.07588
2399.41,0.07528
2393.63,0.07482
2387.84,0.07465
2382.05,0.07385
2376.27,0.07450
2370.48,0.07476
2364.69,0.07515
2358.91,0.07583
2353.12,0.07724
2347.34,0.07861
2341.55,0.07946
2335.76,0.08042
2329.98,0.08081
2324.19,0.08125
2318.4,0.08160
2312.62,0.08220
2306.83,0.08224
2301.04,0.08198
2295.26,0.08092
2289.47,0.08075
2283.69,0.07939
2277.9,0.07826
2272.11,0.07894
2266.33,0.08017
2260.54,0.08065
2254.75,0.08059
2248.97,0.08048
2243.18,0.08019
2237.39,0.07983
2231.61,0.07998
2225.82,0.08096
2220.04,0.08087
2214.25,0.08070
2208.46,0.08134
2202.68,0.08252
2196.89,0.08286
2191.1,0.08366
2185.32,0.08431
2179.53,0.08428
2173.74,0.08514
2167.96,0.08476
2162.17,0.08417
2156.39,0.08424
2150.6,0.08391
2144.81,0.08387
2139.03,0.08364
2133.24,0.08348
2127.45,0.08365
2121.67,0.08330
2115.88,0.08304
2110.09,0.08320
2104.31,0.08262
2098.52,0.08253
2092.74,0.08227
2086.95,0.08216
2081.16,0.08169
2075.38,0.08148
2069.59,0.08150
2063.8,0.08146
2058.02,0.08216
2052.23,0.08199
2046.44,0.08270
2040.66,0.08312
2034.87,0.08334
2029.09,0.08301
2023.3,0.08331
2017.51,0.08354
2011.73,0.08417
2005.94,0.08386
2000.15,0.08377
1994.37,0.08306
1988.58,0.08156
1982.79,0.08163
1977.01,0.08040
1971.22,0.08016
1965.44,0.07824
1959.65,0.07563
1953.86,0.07241
1948.08,0.07124
1942.29,0.07280
1936.5,0.07518
1930.72,0.07751
1924.93,0.07828
1919.14,0.07919
1913.36,0.07931
1907.57,0.08010
1901.79,0.07977
1896,0.08008
1890.21,0.07954
1884.43,0.08037
1878.64,0.08000
1872.85,0.08038
1867.07,0.07929
1861.28,0.07891
1855.49,0.07758
1849.71,0.07599
1843.92,0.07353
1838.14,0.07179
1832.35,0.06946
1826.56,0.06635
1820.78,0.06552
1814.99,0.06646
1809.2,0.06621
1803.42,0.06618
1797.63,0.06513
1791.84,0.06348
1786.06,0.06232
1780.27,0.06097
1774.49,0.05910
1768.7,0.05748
1762.91,0.05653
1757.13,0.05499
1751.34,0.05405
1745.55,0.05234
1739.77,0.05086
1733.98,0.04978
1728.19,0.05156
1722.41,0.05760
1716.62,0.06588
1710.84,0.06949
1705.05,0.06712
1699.26,0.06308
1693.48,0.06183
1687.69,0.06122
1681.9,0.06038
1676.12,0.05899
1670.33,0.05972
1664.54,0.06079
1658.76,0.06243
1652.97,0.06286
1647.19,0.06218
1641.4,0.06018
1635.61,0.05982
1629.83,0.06231
1624.04,0.06339
1618.25,0.06226
1612.47,0.06143
1606.68,0.06221
1600.89,0.06343
1595.11,0.06395
1589.32,0.06260
1583.54,0.06014
1577.75,0.05740
1571.96,0.05833
1566.18,0.05914
1560.39,0.06017
1554.6,0.05973
1548.82,0.05997
1543.03,0.05949
1537.24,0.05805
1531.46,0.05892
1525.67,0.05910
1519.89,0.05962
1514.1,0.05870
1508.31,0.05706
1502.53,0.05638
1496.74,0.05778
1490.95,0.05771
1485.17,0.05562
1479.38,0.05470
1473.59,0.05360
1467.81,0.05383
1462.02,0.05572
1456.24,0.05650
1450.45,0.05634
1444.66,0.05541
1438.88,0.05471
1433.09,0.05553
1427.3,0.05600
1421.52,0.05682
1415.73,0.05571
1409.94,0.05594
1404.16,0.05689
1398.37,0.05553
1392.59,0.05471
1386.8,0.05448
1381.01,0.05514
1375.23,0.05618
1369.44,0.05536
1363.65,0.05467
1357.87,0.05420
1352.08,0.05412
1346.29,0.05319
1340.51,0.05228
1334.72,0.05288
1328.94,0.05246
1323.15,0.05270
1317.36,0.05222
1311.58,0.05179
1305.79,0.05045
1300,0.04961
1294.22,0.04753
1288.43,0.04645
1282.64,0.04738
1276.86,0.05339
1271.07,0.06493
1265.29,0.07254
1259.5,0.06974
1253.71,0.06939
1247.93,0.07166
1242.14,0.07308
1236.35,0.07117
1230.57,0.06951
1224.78,0.06794
1218.99,0.06623
1213.21,0.06439
1207.42,0.06349
1201.64,0.06260
1195.85,0.06242
1190.06,0.06220
1184.28,0.06156
1178.49,0.06054
1172.7,0.05965
1166.92,0.05967
1161.13,0.05884
1155.34,0.05825
1149.56,0.05778
1143.77,0.05734
1137.99,0.05543
1132.2,0.05374
1126.41,0.05358
1120.63,0.05861
1114.84,0.06428
1109.05,0.06431
1103.27,0.06733
1097.48,0.07034
1091.69,0.06780
1085.91,0.06669
1080.12,0.06625
1074.34,0.06554
1068.55,0.06485
1062.76,0.06391
1056.98,0.06407
1051.19,0.06211
1045.4,0.06209
1039.62,0.06176
1033.83,0.06117
1028.04,0.06054
1022.26,0.05982
1016.47,0.06511
1010.69,0.06330
1004.9,0.06204
999.112,0.06145
993.326,0.06084
987.54,0.06081
981.753,0.06028
975.967,0.06107
970.18,0.06116
964.394,0.06124
958.608,0.06263
952.821,0.06353
947.035,0.06381
941.249,0.06423
935.462,0.06410
929.676,0.06311
923.89,0.06259
918.103,0.06210
912.317,0.06279
906.53,0.06261
900.744,0.06173
894.958,0.06156
889.171,0.06184
883.385,0.06159
877.599,0.06124
871.812,0.06218
866.026,0.06257
860.24,0.06243
854.453,0.06133
848.667,0.06212
842.88,0.06087
837.094,0.06086
831.308,0.06193
825.521,0.06169
819.735,0.06199
813.949,0.06093
808.162,0.06291
802.376,0.06165
796.59,0.06135
790.803,0.06016
785.017,0.06009
779.23,0.05935
773.444,0.05924
767.658,0.05803
761.871,0.06020
756.085,0.05937
750.299,0.05731
744.512,0.05461
738.726,0.05060
732.94,0.05884
727.153,0.06915
721.367,0.06415
715.58,0.06033
709.794,0.05858
704.008,0.05871
698.221,0.05821
692.435,0.05795
686.649,0.05908
680.862,0.06013
675.076,0.05934
669.29,0.05854
663.503,0.05678
657.717,0.05675
651.93,0.05484
646.144,0.05520
640.358,0.05646
634.571,0.05924
628.785,0.05934
622.999,0.06069
617.212,0.06092
611.426,0.06364
605.639,0.06816
599.853,0.06509