File: 01_Data/PEVA/FTIR/IS/PEVA_0.10_IS_S_240808_R3.dpt
7496.93,0.08275
7491.14,0.11759
7485.35,0.09848
7479.57,0.09376
7473.78,0.09556
7468,0.09888
7462.21,0.10334
7456.42,0.10178
7450.64,0.08853
7444.85,0.08561
7439.06,0.11249
7433.28,0.10993
7427.49,0.11650
7421.71,0.10593
7415.92,0.09264
7410.13,0.10564
7404.35,0.10804
7398.56,0.09020
7392.78,0.09735
7386.99,0.10384
7381.2,0.10181
7375.42,0.10018
7369.63,0.09800
7363.84,0.10131
7358.06,0.10488
7352.27,0.09946
7346.49,0.10355
7340.7,0.10115
7334.91,0.10894
7329.13,0.09787
7323.34,0.10742
7317.56,0.10912
7311.77,0.10016
7305.98,0.09068
7300.2,0.09860
7294.41,0.10249
7288.62,0.10630
7282.84,0.09520
7277.05,0.09047
7271.27,0.09408
7265.48,0.08542
7259.69,0.09975
7253.91,0.10074
7248.12,0.10023
7242.34,0.09902
7236.55,0.10188
7230.76,0.09716
7224.98,0.10382
7219.19,0.10877
7213.4,0.10070
7207.62,0.10743
7201.83,0.09809
7196.05,0.10129
7190.26,0.09544
7184.47,0.11382
7178.69,0.09202
7172.9,0.09516
7167.12,0.08945
7161.33,0.09059
7155.54,0.09382
7149.76,0.10390
7143.97,0.09430
7138.18,0.10114
7132.4,0.10098
7126.61,0.10058
7120.83,0.09010
7115.04,0.10218
7109.25,0.10079
7103.47,0.09989
7097.68,0.10701
7091.9,0.10125
7086.11,0.09929
7080.32,0.09464
7074.54,0.09684
7068.75,0.09788
7062.96,0.09102
7057.18,0.09833
7051.39,0.09653
7045.61,0.09109
7039.82,0.09840
7034.03,0.10039
7028.25,0.09474
7022.46,0.10493
7016.68,0.09358
7010.89,0.09395
7005.1,0.09437
6999.32,0.09275
6993.53,0.09319
6987.74,0.10042
6981.96,0.10271
6976.17,0.09910
6970.39,0.09731
6964.6,0.10277
6958.81,0.10252
6953.03,0.09938
6947.24,0.09591
6941.46,0.10155
6935.67,0.10010
6929.88,0.10291
6924.1,0.09845
6918.31,0.09680
6912.52,0.09736
6906.74,0.09616
6900.95,0.09482
6895.17,0.09797
6889.38,0.09642
6883.59,0.09594
6877.81,0.09994
6872.02,0.10280
6866.24,0.09841
6860.45,0.09955
6854.66,0.08850
6848.88,0.09440
6843.09,0.09997
6837.3,0.10036
6831.52,0.09770
6825.73,0.10150
6819.95,0.09560
6814.16,0.09480
6808.37,0.09499
6802.59,0.09904
6796.8,0.09890
6791.02,0.09194
6785.23,0.10213
6779.44,0.08993
6773.66,0.09680
6767.87,0.09920
6762.08,0.09653
6756.3,0.09808
6750.51,0.09458
6744.73,0.09928
6738.94,0.08974
6733.15,0.10109
6727.37,0.10272
6721.58,0.10061
6715.8,0.09608
6710.01,0.09381
6704.22,0.09453
6698.44,0.10090
6692.65,0.09974
6686.86,0.09843
6681.08,0.09838
6675.29,0.09778
6669.51,0.09627
6663.72,0.09586
6657.93,0.09334
6652.15,0.09733
6646.36,0.09639
6640.58,0.09697
6634.79,0.10348
6629,0.10035
6623.22,0.09996
6617.43,0.10049
6611.64,0.09553
6605.86,0.10556
6600.07,0.08721
6594.29,0.09442
6588.5,0.09755
6582.71,0.09561
6576.93,0.10072
6571.14,0.09831
6565.36,0.09467
6559.57,0.09873
6553.78,0.09543
6548,0.10108
6542.21,0.09845
6536.42,0.10135
6530.64,0.09718
6524.85,0.10137
6519.07,0.09390
6513.28,0.10566
6507.49,0.10011
6501.71,0.09918
6495.92,0.10064
6490.14,0.09597
6484.35,0.09437
6478.56,0.09288
6472.78,0.09524
6466.99,0.10377
6461.2,0.09905
6455.42,0.09515
6449.63,0.09852
6443.85,0.09717
6438.06,0.09648
6432.27,0.09785
6426.49,0.09659
6420.7,0.09373
6414.92,0.09452
6409.13,0.10144
6403.34,0.10233
6397.56,0.09878
6391.77,0.09760
6385.98,0.09595
6380.2,0.09717
6374.41,0.09504
6368.63,0.09447
6362.84,0.10075
6357.05,0.10201
6351.27,0.09717
6345.48,0.09802
6339.7,0.09824
6333.91,0.09375
6328.12,0.09871
6322.34,0.09718
6316.55,0.09953
6310.76,0.10146
6304.98,0.09793
6299.19,0.09746
6293.41,0.09967
6287.62,0.09264
6281.83,0.09754
6276.05,0.09981
6270.26,0.09643
6264.48,0.09893
6258.69,0.10180
6252.9,0.09918
6247.12,0.10019
6241.33,0.09368
6235.54,0.09473
6229.76,0.10005
6223.97,0.09642
6218.19,0.09549
6212.4,0.09530
6206.61,0.09615
6200.83,0.10250
6195.04,0.09898
6189.26,0.09806
6183.47,0.09500
6177.68,0.09839
6171.9,0.09907
6166.11,0.10057
6160.32,0.09710
6154.54,0.09653
6148.75,0.09790
6142.97,0.09725
6137.18,0.09751
6131.39,0.09964
6125.61,0.09980
6119.82,0.09703
6114.04,0.09799
6108.25,0.09742
6102.46,0.09822
6096.68,0.09931
6090.89,0.09937
6085.1,0.09809
6079.32,0.09921
6073.53,0.09896
6067.75,0.10053
6061.96,0.09693
6056.17,0.09425
6050.39,0.09730
6044.6,0.09625
6038.82,0.09963
6033.03,0.10020
6027.24,0.09575
6021.46,0.09554
6015.67,0.09991
6009.88,0.09687
6004.1,0.09625
5998.31,0.09541
5992.53,0.09612
5986.74,0.09538
5980.95,0.09890
5975.17,0.09363
5969.38,0.09806
5963.6,0.09708
5957.81,0.09644
5952.02,0.09677
5946.24,0.09776
5940.45,0.09440
5934.66,0.09628
5928.88,0.09864
5923.09,0.10021
5917.31,0.10081
5911.52,0.09380
5905.73,0.09435
5899.95,0.09547
5894.16,0.09627
5888.38,0.09593
5882.59,0.09644
5876.8,0.09744
5871.02,0.09290
5865.23,0.09376
5859.44,0.09390
5853.66,0.09597
5847.87,0.09329
5842.09,0.09148
5836.3,0.08892
5830.51,0.09267
5824.73,0.09181
5818.94,0.09108
5813.16,0.09064
5807.37,0.09096
5801.58,0.08834
5795.8,0.08580
5790.01,0.08595
5784.22,0.08311
5778.44,0.08240
5772.65,0.08809
5766.87,0.08802
5761.08,0.08919
5755.29,0.09232
5749.51,0.09131
5743.72,0.09007
5737.94,0.09308
5732.15,0.09305
5726.36,0.09254
5720.58,0.09210
5714.79,0.09394
5709,0.09318
5703.22,0.09423
5697.43,0.09384
5691.65,0.09356
5685.86,0.09215
5680.07,0.09321
5674.29,0.09166
5668.5,0.09144
5662.72,0.09134
5656.93,0.09214
5651.14,0.09193
5645.36,0.09462
5639.57,0.09412
5633.78,0.09535
5628,0.09486
5622.21,0.09435
5616.43,0.09323
5610.64,0.09394
5604.85,0.09566
5599.07,0.09420
5593.28,0.09342
5587.5,0.09475
5581.71,0.09562
5575.92,0.09507
5570.14,0.09716
5564.35,0.09364
5558.56,0.09617
5552.78,0.09430
5546.99,0.09372
5541.21,0.09505
5535.42,0.09345
5529.63,0.09415
5523.85,0.09530
5518.06,0.09561
5512.28,0.09563
5506.49,0.09704
5500.7,0.09589
5494.92,0.09340
5489.13,0.09540
5483.34,0.09574
5477.56,0.09442
5471.77,0.09580
5465.99,0.09838
5460.2,0.09542
5454.41,0.09575
5448.63,0.09624
5442.84,0.09626
5437.06,0.09674
5431.27,0.09628
5425.48,0.09802
5419.7,0.09698
5413.91,0.09629
5408.12,0.09653
5402.34,0.09745
5396.55,0.09752
5390.77,0.09591
5384.98,0.09638
5379.19,0.09764
5373.41,0.09649
5367.62,0.09679
5361.84,0.09843
5356.05,0.09881
5350.26,0.09728
5344.48,0.09844
5338.69,0.09716
5332.9,0.09805
5327.12,0.09882
5321.33,0.09725
5315.55,0.09723
5309.76,0.09715
5303.97,0.09751
5298.19,0.09813
5292.4,0.09855
5286.62,0.10012
5280.83,0.09694
5275.04,0.09859
5269.26,0.09928
5263.47,0.09763
5257.68,0.09761
5251.9,0.09896
5246.11,0.09839
5240.33,0.09814
5234.54,0.09633
5228.75,0.09834
5222.97,0.09744
5217.18,0.09782
5211.4,0.09786
5205.61,0.09805
5199.82,0.09755
5194.04,0.09656
5188.25,0.09909
5182.46,0.09838
5176.68,0.09851
5170.89,0.09922
5165.11,0.09844
5159.32,0.09824
5153.53,0.09608
5147.75,0.09740
5141.96,0.09725
5136.18,0.09680
5130.39,0.09792
5124.6,0.09948
5118.82,0.09832
5113.03,0.09825
5107.24,0.10053
5101.46,0.09703
5095.67,0.09874
5089.89,0.09919
5084.1,0.09857
5078.31,0.09875
5072.53,0.09993
5066.74,0.09861
5060.96,0.09986
5055.17,0.09896
5049.38,0.09894
5043.6,0.09895
5037.81,0.09812
5032.02,0.09936
5026.24,0.09957
5020.45,0.09857
5014.67,0.10097
5008.88,0.09897
5003.09,0.09790
4997.31,0.09822
4991.52,0.09780
4985.74,0.09850
4979.95,0.09904
4974.16,0.10075
4968.38,0.09948
4962.59,0.09864
4956.8,0.09799
4951.02,0.10087
4945.23,0.09980
4939.45,0.09842
4933.66,0.09988
4927.87,0.09817
4922.09,0.09939
4916.3,0.09961
4910.52,0.09919
4904.73,0.10052
4898.94,0.09930
4893.16,0.09939
4887.37,0.09900
4881.58,0.10087
4875.8,0.09956
4870.01,0.09985
4864.23,0.10109
4858.44,0.09933
4852.65,0.09900
4846.87,0.09880
4841.08,0.09930
4835.3,0.09935
4829.51,0.09996
4823.72,0.10041
4817.94,0.09922
4812.15,0.10015
4806.36,0.10084
4800.58,0.10089
4794.79,0.10001
4789.01,0.09958
4783.22,0.10051
4777.43,0.10035
4771.65,0.10003
4765.86,0.10061
4760.08,0.10099
4754.29,0.10019
4748.5,0.10060
4742.72,0.10002
4736.93,0.10121
4731.14,0.10008
4725.36,0.10039
4719.57,0.09995
4713.79,0.10070
4708,0.10184
4702.21,0.10151
4696.43,0.10267
4690.64,0.10251
4684.86,0.10047
4679.07,0.10085
4673.28,0.10061
4667.5,0.10072
4661.71,0.10125
4655.92,0.10196
4650.14,0.10125
4644.35,0.10104
4638.57,0.10080
4632.78,0.10148
4626.99,0.10197
4621.21,0.10143
4615.42,0.10014
4609.64,0.10000
4603.85,0.09942
4598.06,0.10085
4592.28,0.10084
4586.49,0.10150
4580.7,0.10075
4574.92,0.10076
4569.13,0.10072
4563.35,0.10134
4557.56,0.10064
4551.77,0.10081
4545.99,0.10038
4540.2,0.10033
4534.42,0.09957
4528.63,0.09995
4522.84,0.10059
4517.06,0.09874
4511.27,0.09987
4505.48,0.10035
4499.7,0.09955
4493.91,0.10046
4488.13,0.09989
4482.34,0.09866
4476.55,0.09871
4470.77,0.09882
4464.98,0.09997
4459.2,0.09907
4453.41,0.09897
4447.62,0.09755
4441.84,0.09788
4436.05,0.09766
4430.26,0.09703
4424.48,0.09632
4418.69,0.09646
4412.91,0.09588
4407.12,0.09471
4401.33,0.09354
4395.55,0.09285
4389.76,0.09277
4383.98,0.09089
4378.19,0.08952
4372.4,0.08797
4366.62,0.08746
4360.83,0.08626
4355.04,0.08380
4349.26,0.08137
4343.47,0.07654
4337.69,0.07247
4331.9,0.07061
4326.11,0.06659
4320.33,0.06606
4314.54,0.07469
4308.76,0.08112
4302.97,0.08498
4297.18,0.08528
4291.4,0.08512
4285.61,0.08540
4279.82,0.08431
4274.04,0.08242
4268.25,0.07969
4262.47,0.07706
4256.68,0.07347
4250.89,0.07101
4245.11,0.07600
4239.32,0.08007
4233.54,0.08094
4227.75,0.07993
4221.96,0.07858
4216.18,0.07925
4210.39,0.08005
4204.6,0.07819
4198.82,0.07584
4193.03,0.07559
4187.25,0.07577
4181.46,0.07701
4175.67,0.07646
4169.89,0.07661
4164.1,0.07658
4158.32,0.07675
4152.53,0.07685
4146.74,0.07756
4140.96,0.07790
4135.17,0.07840
4129.38,0.07684
4123.6,0.07756
4117.81,0.07788
4112.03,0.07831
4106.24,0.07764
4100.45,0.07769
4094.67,0.07833
4088.88,0.07875
4083.1,0.08133
4077.31,0.08220
4071.52,0.08303
4065.74,0.08398
4059.95,0.08468
4054.16,0.08479
4048.38,0.08505
4042.59,0.08591
4036.81,0.08633
4031.02,0.08727
4025.23,0.08586
4019.45,0.08630
4013.66,0.08868
4007.88,0.08990
4002.09,0.09065
3996.3,0.09073
3990.52,0.08981
3984.73,0.08904
3978.94,0.08920
3973.16,0.09018
3967.37,0.09058
3961.59,0.09021
3955.8,0.09045
3950.01,0.08962
3944.23,0.08931
3938.44,0.09004
3932.66,0.08935
3926.87,0.08923
3921.08,0.08929
3915.3,0.08844
3909.51,0.08878
3903.72,0.08892
3897.94,0.08961
3892.15,0.08957
3886.37,0.08949
3880.58,0.08961
3874.79,0.09025
3869.01,0.09008
3863.22,0.09070
3857.44,0.09174
3851.65,0.09029
3845.86,0.09055
3840.08,0.09094
3834.29,0.09125
3828.5,0.09145
3822.72,0.09208
3816.93,0.09049
3811.15,0.09118
3805.36,0.09146
3799.57,0.09219
3793.79,0.09293
3788,0.09322
3782.22,0.09346
3776.43,0.09229
3770.64,0.09245
3764.86,0.09325
3759.07,0.09409
3753.28,0.09415
3747.5,0.09335
3741.71,0.09256
3735.93,0.09298
3730.14,0.09415
3724.35,0.09378
3718.57,0.09294
3712.78,0.09346
3707,0.09267
3701.21,0.09148
3695.42,0.09245
3689.64,0.09291
3683.85,0.09302
3678.06,0.09236
3672.28,0.09218
3666.49,0.09107
3660.71,0.09166
3654.92,0.09136
3649.13,0.08821
3643.35,0.08926
3637.56,0.08944
3631.78,0.09108
3625.99,0.09047
3620.2,0.08986
3614.42,0.08953
3608.63,0.08620
3602.84,0.08472
3597.06,0.08871
3591.27,0.09280
3585.49,0.09435
3579.7,0.09410
3573.91,0.09462
3568.13,0.09423
3562.34,0.09531
3556.56,0.09663
3550.77,0.09665
3544.98,0.09602
3539.2,0.09564
3533.41,0.09543
3527.62,0.09560
3521.84,0.09626
3516.05,0.09613
3510.27,0.09665
3504.48,0.09538
3498.69,0.09594
3492.91,0.09556
3487.12,0.09557
3481.34,0.09631
3475.55,0.09577
3469.76,0.09568
3463.98,0.09389
3458.19,0.09361
3452.4,0.09381
3446.62,0.09466
3440.83,0.09363
3435.05,0.09378
3429.26,0.09313
3423.47,0.09353
3417.69,0.09444
3411.9,0.09427
3406.12,0.09437
3400.33,0.09436
3394.54,0.09331
3388.76,0.09334
3382.97,0.09374
3377.18,0.09347
3371.4,0.09277
3365.61,0.09283
3359.83,0.09242
3354.04,0.09222
3348.25,0.09397
3342.47,0.09390
3336.68,0.09337
3330.9,0.09315
3325.11,0.09334
3319.32,0.09310
3313.54,0.09421
3307.75,0.09450
3301.96,0.09368
3296.18,0.09306
3290.39,0.09393
3284.61,0.09405
3278.82,0.09414
3273.03,0.09384
3267.25,0.09330
3261.46,0.09311
3255.68,0.09298
3249.89,0.09349
3244.1,0.09358
3238.32,0.09329
3232.53,0.09216
3226.74,0.09279
3220.96,0.09178
3215.17,0.09195
3209.39,0.09208
3203.6,0.09126
3197.81,0.09150
3192.03,0.09095
3186.24,0.09100
3180.46,0.09023
3174.67,0.08971
3168.88,0.08985
3163.1,0.08965
3157.31,0.08879
3151.52,0.08891
3145.74,0.08851
3139.95,0.08754
3134.17,0.08638
3128.38,0.08599
3122.59,0.08582
3116.81,0.08497
3111.02,0.08306
3105.24,0.08247
3099.45,0.07968
3093.66,0.07725
3087.88,0.07480
3082.09,0.07380
3076.3,0.07263
3070.52,0.07160
3064.73,0.07058
3058.95,0.06893
3053.16,0.06796
3047.37,0.06613
3041.59,0.06475
3035.8,0.06312
3030.02,0.06169
3024.23,0.06031
3018.44,0.05966
3012.66,0.05880
3006.87,0.05796
3001.08,0.05580
2995.3,0.05446
2989.51,0.05286
2983.73,0.05128
2977.94,0.04990
2972.15,0.04854
2966.37,0.04782
2960.58,0.04684
2954.8,0.04558
2949.01,0.04363
2943.22,0.04143
2937.44,0.03899
2931.65,0.03996
2925.86,0.04845
2920.08,0.07262
2914.29,0.08823
2908.51,0.07786
2902.72,0.07261
2896.93,0.06999
2891.15,0.06799
2885.36,0.06613
2879.58,0.06435
2873.79,0.06139
2868,0.05903
2862.22,0.05500
2856.43,0.05321
2850.64,0.07029
2844.86,0.08430
2839.07,0.07649
2833.29,0.07193
2827.5,0.06963
2821.71,0.06848
2815.93,0.06742
2810.14,0.06693
2804.36,0.06683
2798.57,0.06700
2792.78,0.06735
2787,0.06795
2781.21,0.06956
2775.42,0.07061
2769.64,0.07226
2763.85,0.07188
2758.07,0.07306
2752.28,0.07366
2746.49,0.07343
2740.71,0.07275
2734.92,0.07308
2729.14,0.07307
2723.35,0.07478
2717.56,0.07500
2711.78,0.07490
2705.99,0.07522
2700.2,0.07604
2694.42,0.07623
2688.63,0.07421
2682.85,0.07359
2677.06,0.07292
2671.27,0.07324
2665.49,0.07312
2659.7,0.07254
2653.92,0.07252
2648.13,0.07287
2642.34,0.07320
2636.56,0.07336
2630.77,0.07413
2624.98,0.07442
2619.2,0.07617
2613.41,0.07733
2607.63,0.07923
2601.84,0.08098
2596.05,0.08207
2590.27,0.08264
2584.48,0.08330
2578.7,0.08499
2572.91,0.08706
2567.12,0.08814
2561.34,0.08808
2555.55,0.08711
2549.76,0.08807
2543.98,0.09032
2538.19,0.09196
2532.41,0.09141
2526.62,0.08995
2520.83,0.09072
2515.05,0.09205
2509.26,0.09418
2503.48,0.09527
2497.69,0.09525
2491.9,0.09452
2486.12,0.09393
2480.33,0.09504
2474.55,0.09610
2468.76,0.09773
2462.97,0.09747
2457.19,0.09638
2451.4,0.09645
2445.61,0.09734
2439.83,0.09836
2434.04,0.09866
2428.26,0.09689
2422.47,0.09484
2416.68,0.09394
2410.9,0.09546
2405.11,0.09695
2399.32,0.09735
2393.54,0.09651
2387.75,0.09527
2381.97,0.09523
2376.18,0.09583
2370.39,0.09664
2364.61,0.09519
2358.82,0.09257
2353.04,0.08980
2347.25,0.08950
2341.46,0.08969
2335.68,0.09055
2329.89,0.09033
2324.11,0.08979
2318.32,0.09001
2312.53,0.09071
2306.75,0.09330
2300.96,0.09482
2295.17,0.09521
2289.39,0.09441
2283.6,0.09368
2277.82,0.09390
2272.03,0.09562
2266.24,0.09772
2260.46,0.09770
2254.67,0.09693
2248.89,0.09556
2243.1,0.09591
2237.31,0.09802
2231.53,0.09997
2225.74,0.09940
2219.95,0.09754
2214.17,0.09697
2208.38,0.09782
2202.6,0.09910
2196.81,0.09998
2191.02,0.09919
2185.24,0.09784
2179.45,0.09675
2173.67,0.09749
2167.88,0.09885
2162.09,0.09962
2156.31,0.09822
2150.52,0.09669
2144.73,0.09594
2138.95,0.09707
2133.16,0.09896
2127.38,0.10035
2121.59,0.10010
2115.8,0.09884
2110.02,0.09838
2104.23,0.09876
2098.45,0.10007
2092.66,0.10083
2086.87,0.09938
2081.09,0.09822
2075.3,0.09739
2069.51,0.09786
2063.73,0.09878
2057.94,0.09887
2052.16,0.09794
2046.37,0.09580
2040.58,0.09498
2034.8,0.09475
2029.01,0.09457
2023.23,0.09377
2017.44,0.09254
2011.65,0.09394
2005.87,0.09631
2000.08,0.09821
1994.29,0.09962
1988.51,0.10028
1982.72,0.09988
1976.94,0.09846
1971.15,0.09838
1965.36,0.09925
1959.58,0.10010
1953.79,0.10010
1948.01,0.09910
1942.22,0.09779
1936.43,0.09770
1930.65,0.09860
1924.86,0.09920
1919.07,0.09871
1913.29,0.09712
1907.5,0.09555
1901.72,0.09462
1895.93,0.09521
1890.14,0.09773
1884.36,0.09921
1878.57,0.09845
1872.79,0.09767
1867,0.09817
1861.21,0.10011
1855.43,0.10143
1849.64,0.10081
1843.85,0.09854
1838.07,0.09768
1832.28,0.09853
1826.5,0.09946
1820.71,0.09971
1814.92,0.09877
1809.14,0.09691
1803.35,0.09662
1797.57,0.09713
1791.78,0.09888
1785.99,0.09952
1780.21,0.09839
1774.42,0.09598
1768.63,0.09376
1762.85,0.09523
1757.06,0.09540
1751.28,0.09394
1745.49,0.09123
1739.7,0.09008
1733.92,0.09046
1728.13,0.09288
1722.35,0.09395
1716.56,0.09441
1710.77,0.09391
1704.99,0.09300
1699.2,0.09159
1693.41,0.09400
1687.63,0.09684
1681.84,0.09723
1676.06,0.09627
1670.27,0.09294
1664.48,0.09140
1658.7,0.09351
1652.91,0.09575
1647.13,0.09620
1641.34,0.09375
1635.55,0.09008
1629.77,0.08951
1623.98,0.09156
1618.19,0.09479
1612.41,0.09563
1606.62,0.09311
1600.84,0.08926
1595.05,0.08860
1589.26,0.09093
1583.48,0.09335
1577.69,0.09447
1571.91,0.09184
1566.12,0.08750
1560.33,0.08774
1554.55,0.09025
1548.76,0.09278
1542.97,0.09187
1537.19,0.08619
1531.4,0.08327
1525.62,0.08499
1519.83,0.08710
1514.04,0.08798
1508.26,0.08304
1502.47,0.07569
1496.69,0.07460
1490.9,0.07505
1485.11,0.06636
1479.33,0.05675
1473.54,0.05318
1467.75,0.05640
1461.97,0.06077
1456.18,0.06073
1450.4,0.06101
1444.61,0.06016
1438.82,0.05988
1433.04,0.06392
1427.25,0.07581
1421.47,0.08295
1415.68,0.08037
1409.89,0.07957
1404.11,0.08497
1398.32,0.09001
1392.53,0.08737
1386.75,0.07784
1380.96,0.06444
1375.18,0.06328
1369.39,0.06560
1363.6,0.06977
1357.82,0.07254
1352.03,0.06909
1346.25,0.06788
1340.46,0.07111
1334.67,0.08028
1328.89,0.08689
1323.1,0.08402
1317.31,0.07502
1311.53,0.06858
1305.74,0.06892
1299.96,0.07435
1294.17,0.08107
1288.38,0.08361
1282.6,0.07908
1276.81,0.07416
1271.03,0.07504
1265.24,0.08285
1259.45,0.09085
1253.67,0.09162
1247.88,0.08561
1242.09,0.07877
1236.31,0.07996
1230.52,0.08838
1224.74,0.09627
1218.95,0.09591
1213.16,0.08749
1207.38,0.07953
1201.59,0.08063
1195.81,0.08912
1190.02,0.09686
1184.23,0.09598
1178.45,0.08606
1172.66,0.07769
1166.87,0.07848
1161.09,0.08817
1155.3,0.09711
1149.52,0.09591
1143.73,0.08721
1137.94,0.07835
1132.16,0.07954
1126.37,0.09013
1120.59,0.10129
1114.8,0.10071
1109.01,0.09012
1103.23,0.07960
1097.44,0.08041
1091.65,0.08958
1085.87,0.09892
1080.08,0.09905
1074.3,0.09096
1068.51,0.08027
1062.72,0.07866
1056.94,0.09057
1051.15,0.10300
1045.37,0.10633
1039.58,0.09570
1033.79,0.08294
1028.01,0.07969
1022.22,0.08983
1016.43,0.10363
1010.65,0.11178
1004.86,0.10272
999.076,0.08670
993.29,0.07927
987.504,0.09043
981.717,0.10871
975.931,0.11335
970.145,0.10116
964.359,0.08171
958.573,0.07461
952.787,0.08630
947,0.10629
941.214,0.11491
935.428,0.10331
929.642,0.08311
923.856,0.07364
918.07,0.08448
912.284,0.10434
906.497,0.11564
900.711,0.10544
894.925,0.08275
889.139,0.07029
883.353,0.08116
877.567,0.10515
871.78,0.11851
865.994,0.10855
860.208,0.08405
854.422,0.06916
848.636,0.07982
842.85,0.10530
837.064,0.11944
831.277,0.10904
825.491,0.08283
819.705,0.06610
813.919,0.07711
808.133,0.10353
802.347,0.11716
796.56,0.10449
790.774,0.07660
784.988,0.06097
779.202,0.07164
773.416,0.09554
767.63,0.10788
761.844,0.09409
756.057,0.06468
750.271,0.05531
744.485,0.07726
738.699,0.08397
732.913,0.05312
727.127,0.05853
721.34,0.05641
715.554,0.06719
709.768,0.07572
703.982,0.05656
698.196,0.07205
692.41,0.11690
686.624,0.12819
680.837,0.09930
675.051,0.06463
669.265,0.06199
663.479,0.09861
657.693,0.13451
651.907,0.13349
646.12,0.09754
640.334,0.06112
634.548,0.06311
628.762,0.10312
622.976,0.13791
617.19,0.13576
611.404,0.09615
605.617,0.05837
599.831,0.06049