File: 01_Data/PEVA/FTIR/IS/PEVA_0.10_IS_Trans_S_240819_R3.dpt
7496.91,0.92131
7491.12,0.93945
7485.33,0.93009
7479.55,0.93659
7473.76,0.93864
7467.98,0.92413
7462.19,0.94058
7456.4,0.94409
7450.62,0.94599
7444.83,0.91425
7439.04,0.93234
7433.26,0.93927
7427.47,0.94510
7421.69,0.92851
7415.9,0.92182
7410.11,0.92479
7404.33,0.92722
7398.54,0.92866
7392.76,0.94736
7386.97,0.94905
7381.18,0.92481
7375.4,0.92107
7369.61,0.93121
7363.83,0.92182
7358.04,0.92954
7352.25,0.94373
7346.47,0.92054
7340.68,0.91826
7334.89,0.92005
7329.11,0.90640
7323.32,0.93464
7317.54,0.94390
7311.75,0.92259
7305.96,0.92828
7300.18,0.92184
7294.39,0.92098
7288.61,0.91766
7282.82,0.93512
7277.03,0.93175
7271.25,0.92871
7265.46,0.92347
7259.67,0.92578
7253.89,0.91229
7248.1,0.92899
7242.32,0.90122
7236.53,0.92746
7230.74,0.90734
7224.96,0.91842
7219.17,0.92660
7213.39,0.92583
7207.6,0.91654
7201.81,0.90631
7196.03,0.91853
7190.24,0.91679
7184.45,0.91038
7178.67,0.92002
7172.88,0.91921
7167.1,0.92326
7161.31,0.91487
7155.52,0.92428
7149.74,0.92276
7143.95,0.91027
7138.17,0.91099
7132.38,0.92949
7126.59,0.91889
7120.81,0.93171
7115.02,0.93150
7109.23,0.93335
7103.45,0.91811
7097.66,0.92129
7091.88,0.92995
7086.09,0.93488
7080.3,0.92834
7074.52,0.91542
7068.73,0.91712
7062.95,0.92051
7057.16,0.92959
7051.37,0.91641
7045.59,0.91550
7039.8,0.93155
7034.02,0.91651
7028.23,0.92664
7022.44,0.92623
7016.66,0.93300
7010.87,0.93627
7005.08,0.92288
6999.3,0.92830
6993.51,0.92858
6987.73,0.92064
6981.94,0.91859
6976.15,0.92202
6970.37,0.92268
6964.58,0.93361
6958.8,0.92903
6953.01,0.92661
6947.22,0.92398
6941.44,0.92279
6935.65,0.92174
6929.86,0.93375
6924.08,0.93297
6918.29,0.92552
6912.51,0.92550
6906.72,0.91992
6900.93,0.93307
6895.15,0.92644
6889.36,0.93149
6883.58,0.92189
6877.79,0.92545
6872,0.91704
6866.22,0.92952
6860.43,0.92643
6854.64,0.93258
6848.86,0.92791
6843.07,0.94214
6837.29,0.92944
6831.5,0.94166
6825.71,0.94395
6819.93,0.93895
6814.14,0.94043
6808.36,0.93488
6802.57,0.93214
6796.78,0.93259
6791,0.93586
6785.21,0.94307
6779.43,0.93225
6773.64,0.92659
6767.85,0.93137
6762.07,0.93384
6756.28,0.93375
6750.49,0.93694
6744.71,0.92802
6738.92,0.93659
6733.14,0.92774
6727.35,0.93461
6721.56,0.93291
6715.78,0.93633
6709.99,0.93713
6704.21,0.93463
6698.42,0.93892
6692.63,0.92916
6686.85,0.93291
6681.06,0.93327
6675.27,0.94047
6669.49,0.92901
6663.7,0.92776
6657.92,0.93005
6652.13,0.93324
6646.34,0.93650
6640.56,0.93348
6634.77,0.93507
6628.99,0.94039
6623.2,0.93261
6617.41,0.94107
6611.63,0.93425
6605.84,0.94022
6600.05,0.93743
6594.27,0.92770
6588.48,0.93332
6582.7,0.93689
6576.91,0.93646
6571.12,0.93192
6565.34,0.93621
6559.55,0.93401
6553.77,0.93023
6547.98,0.93130
6542.19,0.93644
6536.41,0.93729
6530.62,0.93729
6524.84,0.93544
6519.05,0.92862
6513.26,0.93618
6507.48,0.93004
6501.69,0.93559
6495.9,0.92090
6490.12,0.93836
6484.33,0.93489
6478.55,0.93352
6472.76,0.93161
6466.97,0.93250
6461.19,0.93322
6455.4,0.94040
6449.62,0.93208
6443.83,0.93411
6438.04,0.93493
6432.26,0.93864
6426.47,0.93533
6420.68,0.93544
6414.9,0.94002
6409.11,0.93426
6403.33,0.93224
6397.54,0.93998
6391.75,0.92941
6385.97,0.93425
6380.18,0.93609
6374.4,0.93919
6368.61,0.93720
6362.82,0.93678
6357.04,0.93761
6351.25,0.92850
6345.46,0.93324
6339.68,0.93073
6333.89,0.93511
6328.11,0.93681
6322.32,0.93573
6316.53,0.93649
6310.75,0.94030
6304.96,0.94105
6299.18,0.93584
6293.39,0.93796
6287.6,0.93952
6281.82,0.93505
6276.03,0.93516
6270.24,0.93506
6264.46,0.93656
6258.67,0.93035
6252.89,0.93581
6247.1,0.93350
6241.31,0.93422
6235.53,0.93579
6229.74,0.93228
6223.96,0.93475
6218.17,0.94224
6212.38,0.93516
6206.6,0.93136
6200.81,0.93494
6195.03,0.93501
6189.24,0.93493
6183.45,0.93833
6177.67,0.93496
6171.88,0.93525
6166.09,0.93810
6160.31,0.93663
6154.52,0.93204
6148.74,0.93213
6142.95,0.93085
6137.16,0.93595
6131.38,0.92812
6125.59,0.93011
6119.81,0.93456
6114.02,0.93292
6108.23,0.93244
6102.45,0.93128
6096.66,0.92881
6090.87,0.93479
6085.09,0.92899
6079.3,0.93357
6073.52,0.92991
6067.73,0.92883
6061.94,0.92890
6056.16,0.93260
6050.37,0.92744
6044.59,0.92857
6038.8,0.92468
6033.01,0.93079
6027.23,0.92800
6021.44,0.93136
6015.65,0.92529
6009.87,0.92836
6004.08,0.92464
5998.3,0.92476
5992.51,0.92472
5986.72,0.92498
5980.94,0.92543
5975.15,0.92750
5969.37,0.92549
5963.58,0.92359
5957.79,0.92646
5952.01,0.92478
5946.22,0.92150
5940.44,0.92227
5934.65,0.92210
5928.86,0.91712
5923.08,0.91754
5917.29,0.91624
5911.5,0.91632
5905.72,0.91715
5899.93,0.91728
5894.15,0.91296
5888.36,0.91326
5882.57,0.91025
5876.79,0.90888
5871,0.90064
5865.22,0.89433
5859.43,0.89589
5853.64,0.88914
5847.86,0.88156
5842.07,0.87514
5836.28,0.87257
5830.5,0.86433
5824.71,0.85994
5818.93,0.85774
5813.14,0.84887
5807.35,0.83677
5801.57,0.83239
5795.78,0.81934
5790,0.80715
5784.21,0.78778
5778.42,0.76964
5772.64,0.76936
5766.85,0.79540
5761.06,0.82508
5755.28,0.84396
5749.49,0.85752
5743.71,0.86986
5737.92,0.87472
5732.13,0.87692
5726.35,0.88123
5720.56,0.88449
5714.78,0.88606
5708.99,0.88720
5703.2,0.88173
5697.42,0.87840
5691.63,0.86973
5685.84,0.86715
5680.06,0.86450
5674.27,0.85908
5668.49,0.84785
5662.7,0.84633
5656.91,0.85508
5651.13,0.86845
5645.34,0.87500
5639.56,0.88410
5633.77,0.88716
5627.98,0.88494
5622.2,0.88711
5616.41,0.89028
5610.63,0.89434
5604.84,0.89417
5599.05,0.89385
5593.27,0.89719
5587.48,0.89851
5581.69,0.89639
5575.91,0.89514
5570.12,0.89485
5564.34,0.89578
5558.55,0.89369
5552.76,0.89082
5546.98,0.89274
5541.19,0.88899
5535.41,0.89287
5529.62,0.89448
5523.83,0.89253
5518.05,0.89426
5512.26,0.89275
5506.47,0.88625
5500.69,0.89277
5494.9,0.88798
5489.12,0.88612
5483.33,0.89454
5477.54,0.88600
5471.76,0.89001
5465.97,0.89071
5460.19,0.88928
5454.4,0.89584
5448.61,0.88704
5442.83,0.88279
5437.04,0.89020
5431.25,0.88941
5425.47,0.89640
5419.68,0.89891
5413.9,0.88294
5408.11,0.89185
5402.32,0.90037
5396.54,0.89719
5390.75,0.90175
5384.97,0.89649
5379.18,0.90058
5373.39,0.89938
5367.61,0.90645
5361.82,0.90485
5356.04,0.90118
5350.25,0.89787
5344.46,0.88572
5338.68,0.89059
5332.89,0.90143
5327.1,0.90197
5321.32,0.91185
5315.53,0.90739
5309.75,0.90489
5303.96,0.90698
5298.17,0.90943
5292.39,0.90592
5286.6,0.90626
5280.82,0.90723
5275.03,0.91106
5269.24,0.90400
5263.46,0.89629
5257.67,0.90602
5251.88,0.90604
5246.1,0.89493
5240.31,0.90771
5234.53,0.90702
5228.74,0.90150
5222.95,0.90398
5217.17,0.90878
5211.38,0.90867
5205.6,0.89771
5199.81,0.90880
5194.02,0.91005
5188.24,0.90935
5182.45,0.90913
5176.66,0.91120
5170.88,0.91016
5165.09,0.90897
5159.31,0.91052
5153.52,0.91105
5147.73,0.91478
5141.95,0.91307
5136.16,0.91354
5130.38,0.91438
5124.59,0.91518
5118.8,0.91390
5113.02,0.91402
5107.23,0.91462
5101.45,0.91481
5095.66,0.91299
5089.87,0.91514
5084.09,0.91599
5078.3,0.91702
5072.51,0.91505
5066.73,0.91550
5060.94,0.91765
5055.16,0.91632
5049.37,0.91589
5043.58,0.91720
5037.8,0.91683
5032.01,0.91604
5026.23,0.91552
5020.44,0.91653
5014.65,0.91645
5008.87,0.91651
5003.08,0.91583
4997.29,0.91485
4991.51,0.91382
4985.72,0.91218
4979.94,0.91420
4974.15,0.91652
4968.36,0.91342
4962.58,0.91365
4956.79,0.91394
4951.01,0.91537
4945.22,0.91367
4939.43,0.91543
4933.65,0.91731
4927.86,0.91602
4922.07,0.91478
4916.29,0.91634
4910.5,0.91868
4904.72,0.91779
4898.93,0.91786
4893.14,0.91724
4887.36,0.91253
4881.57,0.91392
4875.79,0.91529
4870,0.91820
4864.21,0.91761
4858.43,0.91609
4852.64,0.91510
4846.85,0.91535
4841.07,0.91894
4835.28,0.92044
4829.5,0.92199
4823.71,0.91839
4817.92,0.91782
4812.14,0.91821
4806.35,0.91994
4800.57,0.92411
4794.78,0.92339
4788.99,0.92036
4783.21,0.92045
4777.42,0.91967
4771.64,0.92204
4765.85,0.92517
4760.06,0.92367
4754.28,0.92373
4748.49,0.92064
4742.7,0.92058
4736.92,0.92184
4731.13,0.92574
4725.35,0.92664
4719.56,0.92349
4713.77,0.92144
4707.99,0.92168
4702.2,0.92423
4696.42,0.92612
4690.63,0.92677
4684.84,0.92488
4679.06,0.92181
4673.27,0.92000
4667.48,0.92151
4661.7,0.92457
4655.91,0.92602
4650.13,0.92509
4644.34,0.92191
4638.55,0.92167
4632.77,0.92214
4626.98,0.92479
4621.2,0.92652
4615.41,0.92512
4609.62,0.92249
4603.84,0.91972
4598.05,0.92177
4592.26,0.92295
4586.48,0.92561
4580.69,0.92561
4574.91,0.92109
4569.12,0.91906
4563.33,0.91876
4557.55,0.92069
4551.76,0.92364
4545.98,0.92147
4540.19,0.91789
4534.4,0.91592
4528.62,0.91645
4522.83,0.91826
4517.05,0.91981
4511.26,0.91824
4505.47,0.91390
4499.69,0.91026
4493.9,0.91003
4488.11,0.91061
4482.33,0.91210
4476.54,0.91071
4470.76,0.90721
4464.97,0.90229
4459.18,0.90092
4453.4,0.90114
4447.61,0.90129
4441.83,0.89820
4436.04,0.89274
4430.25,0.88595
4424.47,0.87993
4418.68,0.87791
4412.89,0.87271
4407.11,0.86240
4401.32,0.84698
4395.54,0.83382
4389.75,0.82158
4383.96,0.81051
4378.18,0.79913
4372.39,0.78411
4366.61,0.76546
4360.82,0.74414
4355.03,0.71457
4349.25,0.66930
4343.46,0.60845
4337.67,0.55277
4331.89,0.49590
4326.1,0.40136
4320.32,0.37892
4314.53,0.55728
4308.74,0.67435
4302.96,0.72126
4297.17,0.73511
4291.39,0.73105
4285.6,0.71816
4279.81,0.70750
4274.03,0.69430
4268.24,0.66691
4262.46,0.60993
4256.67,0.52954
4250.88,0.48381
4245.1,0.57993
4239.31,0.65607
4233.52,0.67275
4227.74,0.65577
4221.95,0.63441
4216.17,0.63466
4210.38,0.63825
4204.59,0.62803
4198.81,0.60178
4193.02,0.58438
4187.24,0.58409
4181.45,0.58574
4175.66,0.58816
4169.88,0.59218
4164.09,0.59524
4158.3,0.59714
4152.52,0.59749
4146.73,0.59809
4140.95,0.60272
4135.16,0.60702
4129.37,0.61240
4123.59,0.61619
4117.8,0.61661
4112.02,0.61558
4106.23,0.61359
4100.44,0.61343
4094.66,0.62038
4088.87,0.64238
4083.08,0.66765
4077.3,0.68299
4071.51,0.69373
4065.73,0.70367
4059.94,0.71337
4054.15,0.72323
4048.37,0.72897
4042.58,0.73386
4036.8,0.73943
4031.01,0.74175
4025.22,0.74030
4019.44,0.74677
4013.65,0.76831
4007.86,0.77762
4002.08,0.78257
3996.29,0.78276
3990.51,0.78198
3984.72,0.78454
3978.93,0.78215
3973.15,0.78174
3967.36,0.78852
3961.58,0.78797
3955.79,0.79139
3950,0.78406
3944.22,0.78224
3938.43,0.78528
3932.65,0.76814
3926.86,0.76617
3921.07,0.76426
3915.29,0.76692
3909.5,0.77494
3903.71,0.74447
3897.93,0.75917
3892.14,0.75779
3886.36,0.76022
3880.57,0.75971
3874.78,0.76339
3869,0.75395
3863.21,0.75999
3857.43,0.76992
3851.64,0.75451
3845.85,0.78345
3840.07,0.75333
3834.28,0.76746
3828.49,0.77912
3822.71,0.76228
3816.92,0.76516
3811.14,0.79375
3805.35,0.77851
3799.56,0.77632
3793.78,0.80978
3787.99,0.81455
3782.21,0.80939
3776.42,0.81927
3770.63,0.80881
3764.85,0.81122
3759.06,0.80157
3753.27,0.78671
3747.49,0.77376
3741.7,0.79197
3735.92,0.76802
3730.13,0.79895
3724.34,0.79467
3718.56,0.81284
3712.77,0.79272
3706.99,0.80474
3701.2,0.80479
3695.41,0.80887
3689.63,0.77539
3683.84,0.81144
3678.06,0.78363
3672.27,0.77569
3666.48,0.80110
3660.7,0.80552
3654.91,0.78304
3649.12,0.73505
3643.34,0.77556
3637.55,0.78949
3631.77,0.78170
3625.98,0.78470
3620.19,0.77363
3614.41,0.75472
3608.62,0.73145
3602.84,0.73157
3597.05,0.76621
3591.26,0.81363
3585.48,0.82769
3579.69,0.85359
3573.9,0.86026
3568.12,0.84042
3562.33,0.85827
3556.55,0.87530
3550.76,0.87431
3544.97,0.86942
3539.19,0.88682
3533.4,0.88467
3527.62,0.87057
3521.83,0.87682
3516.04,0.88922
3510.26,0.88484
3504.47,0.88000
3498.68,0.88377
3492.9,0.88326
3487.11,0.87934
3481.33,0.87970
3475.54,0.88385
3469.75,0.88214
3463.97,0.87589
3458.18,0.87193
3452.4,0.87213
3446.61,0.86542
3440.82,0.87110
3435.04,0.87264
3429.25,0.86925
3423.47,0.86549
3417.68,0.86598
3411.89,0.87121
3406.11,0.87356
3400.32,0.87093
3394.53,0.86545
3388.75,0.86187
3382.96,0.86082
3377.18,0.86185
3371.39,0.86079
3365.6,0.86030
3359.82,0.86092
3354.03,0.86155
3348.25,0.86468
3342.46,0.87072
3336.67,0.87388
3330.89,0.87600
3325.1,0.87185
3319.31,0.86932
3313.53,0.87068
3307.74,0.87563
3301.96,0.88008
3296.17,0.87721
3290.38,0.87159
3284.6,0.86876
3278.81,0.87007
3273.03,0.87368
3267.24,0.87820
3261.45,0.87440
3255.67,0.86772
3249.88,0.86747
3244.09,0.86785
3238.31,0.87320
3232.52,0.87186
3226.74,0.86614
3220.95,0.85902
3215.16,0.85625
3209.38,0.85883
3203.59,0.85908
3197.81,0.85391
3192.02,0.84566
3186.23,0.83850
3180.45,0.83935
3174.66,0.84334
3168.87,0.84154
3163.09,0.83451
3157.3,0.82486
3151.52,0.82006
3145.73,0.82239
3139.94,0.82028
3134.16,0.81237
3128.37,0.80047
3122.59,0.78840
3116.8,0.78149
3111.01,0.77237
3105.23,0.75265
3099.44,0.72019
3093.66,0.68180
3087.87,0.65360
3082.08,0.63506
3076.3,0.61897
3070.51,0.60154
3064.72,0.58211
3058.94,0.56697
3053.15,0.54510
3047.37,0.51597
3041.58,0.48399
3035.79,0.45303
3030.01,0.42539
3024.22,0.40011
3018.44,0.37536
3012.65,0.35008
3006.86,0.32229
3001.08,0.28890
2995.29,0.25008
2989.5,0.20179
2983.72,0.14431
2977.93,0.08042
2972.15,0.02938
2966.36,0.00607
2960.57,0.00160
2954.79,0.00071
2949,0.00091
2943.22,0.00117
2937.43,0.00114
2931.64,0.00103
2925.86,0.00118
2920.07,0.00075
2914.28,0.00088
2908.5,0.00060
2902.71,0.00045
2896.93,0.00126
2891.14,0.00098
2885.35,0.00073
2879.57,0.00077
2873.78,0.00106
2868,0.00081
2862.21,0.00097
2856.42,0.00074
2850.64,0.00091
2844.85,0.00113
2839.07,0.00094
2833.28,0.00481
2827.49,0.01733
2821.71,0.04097
2815.92,0.07079
2810.13,0.10364
2804.35,0.13905
2798.56,0.17752
2792.78,0.22116
2786.99,0.26802
2781.2,0.31556
2775.42,0.35671
2769.63,0.38568
2763.85,0.40696
2758.06,0.42709
2752.27,0.44169
2746.49,0.44261
2740.7,0.43913
2734.91,0.44344
2729.13,0.45453
2723.34,0.46939
2717.56,0.48023
2711.77,0.49094
2705.98,0.50318
2700.2,0.51366
2694.41,0.51018
2688.63,0.49577
2682.84,0.48422
2677.05,0.47712
2671.27,0.46904
2665.48,0.46364
2659.69,0.46380
2653.91,0.46964
2648.12,0.47864
2642.34,0.48026
2636.55,0.47842
2630.76,0.49098
2624.98,0.51539
2619.19,0.54015
2613.41,0.56675
2607.62,0.59134
2601.83,0.61001
2596.05,0.62284
2590.26,0.63954
2584.47,0.66078
2578.69,0.68265
2572.9,0.70157
2567.12,0.71477
2561.33,0.72163
2555.54,0.72717
2549.76,0.73400
2543.97,0.75277
2538.19,0.76725
2532.4,0.76079
2526.61,0.75597
2520.83,0.76980
2515.04,0.78857
2509.26,0.80283
2503.47,0.81097
2497.68,0.81265
2491.9,0.81156
2486.11,0.81512
2480.32,0.82084
2474.54,0.82513
2468.75,0.83780
2462.97,0.84311
2457.18,0.84165
2451.39,0.84238
2445.61,0.84635
2439.82,0.84963
2434.04,0.84706
2428.25,0.83847
2422.46,0.82753
2416.68,0.82109
2410.89,0.82791
2405.1,0.83682
2399.32,0.83975
2393.53,0.83747
2387.75,0.83247
2381.96,0.81188
2376.17,0.76701
2370.39,0.72176
2364.6,0.68441
2358.82,0.66492
2353.03,0.67551
2347.24,0.68372
2341.46,0.65222
2335.67,0.65961
2329.88,0.66456
2324.1,0.68086
2318.31,0.70879
2312.53,0.73655
2306.74,0.76490
2300.95,0.78965
2295.17,0.80573
2289.38,0.81539
2283.6,0.81994
2277.81,0.81863
2272.02,0.82604
2266.24,0.84037
2260.45,0.85013
2254.67,0.85176
2248.88,0.84749
2243.09,0.84450
2237.31,0.85386
2231.52,0.86604
2225.73,0.87061
2219.95,0.87003
2214.16,0.86866
2208.38,0.86644
2202.59,0.86577
2196.8,0.86906
2191.02,0.87248
2185.23,0.87146
2179.45,0.86753
2173.66,0.86387
2167.87,0.86201
2162.09,0.86248
2156.3,0.86298
2150.51,0.86131
2144.73,0.86013
2138.94,0.86226
2133.16,0.86854
2127.37,0.87744
2121.58,0.88693
2115.8,0.89080
2110.01,0.88758
2104.23,0.88085
2098.44,0.87674
2092.65,0.87846
2086.87,0.88378
2081.08,0.88640
2075.29,0.88060
2069.51,0.87073
2063.72,0.86132
2057.94,0.86122
2052.15,0.86306
2046.36,0.86060
2040.58,0.84816
2034.79,0.83378
2029.01,0.81714
2023.22,0.80229
2017.43,0.80059
2011.65,0.84237
2005.86,0.86974
2000.08,0.87452
1994.29,0.86969
1988.5,0.87341
1982.72,0.88740
1976.93,0.89533
1971.14,0.89320
1965.36,0.87812
1959.57,0.87237
1953.79,0.87170
1948,0.87889
1942.21,0.87901
1936.43,0.88947
1930.64,0.87883
1924.86,0.86077
1919.07,0.85223
1913.28,0.86284
1907.5,0.86021
1901.71,0.85592
1895.92,0.83786
1890.14,0.84019
1884.35,0.86345
1878.57,0.88147
1872.78,0.89193
1866.99,0.88002
1861.21,0.89436
1855.42,0.88657
1849.64,0.87838
1843.85,0.86943
1838.06,0.89813
1832.28,0.89439
1826.49,0.87309
1820.7,0.86907
1814.92,0.86410
1809.13,0.86706
1803.35,0.88205
1797.56,0.88057
1791.77,0.86247
1785.99,0.87214
1780.2,0.85690
1774.42,0.84758
1768.63,0.86208
1762.84,0.86860
1757.06,0.84157
1751.27,0.78823
1745.48,0.76013
1739.7,0.77052
1733.91,0.79306
1728.13,0.83482
1722.34,0.81388
1716.55,0.75552
1710.77,0.78827
1704.98,0.79407
1699.2,0.79463
1693.41,0.84864
1687.62,0.83923
1681.84,0.81472
1676.05,0.82402
1670.27,0.81376
1664.48,0.84825
1658.69,0.85994
1652.91,0.81017
1647.12,0.79188
1641.33,0.81118
1635.55,0.78936
1629.76,0.82898
1623.98,0.82448
1618.19,0.82158
1612.4,0.82078
1606.62,0.80875
1600.83,0.81474
1595.05,0.82271
1589.26,0.83296
1583.47,0.82974
1577.69,0.79523
1571.9,0.78912
1566.11,0.79312
1560.33,0.77606
1554.54,0.78685
1548.76,0.78867
1542.97,0.72565
1537.18,0.73637
1531.4,0.75111
1525.61,0.73807
1519.83,0.71753
1514.04,0.71412
1508.25,0.65924
1502.47,0.66490
1496.68,0.62638
1490.89,0.57784
1485.11,0.48112
1479.32,0.28236
1473.54,0.02141
1467.75,0.00071
1461.96,0.00042
1456.18,0.02020
1450.39,0.08022
1444.61,0.13923
1438.82,0.18912
1433.03,0.30970
1427.25,0.50106
1421.46,0.60971
1415.68,0.66560
1409.89,0.70597
1404.1,0.72583
1398.32,0.71610
1392.53,0.70337
1386.74,0.64910
1380.96,0.44621
1375.17,0.38747
1369.39,0.37507
1363.6,0.41005
1357.81,0.46682
1352.03,0.46573
1346.24,0.52648
1340.46,0.58580
1334.67,0.66584
1328.88,0.68752
1323.1,0.65740
1317.31,0.60377
1311.52,0.56580
1305.74,0.55216
1299.95,0.56179
1294.17,0.59233
1288.38,0.62137
1282.59,0.63974
1276.81,0.65345
1271.02,0.66741
1265.24,0.69166
1259.45,0.70748
1253.66,0.71140
1247.88,0.71329
1242.09,0.72755
1236.3,0.74557
1230.52,0.75793
1224.73,0.75901
1218.95,0.75332
1213.16,0.74699
1207.37,0.75059
1201.59,0.76500
1195.8,0.77143
1190.02,0.76518
1184.23,0.75438
1178.44,0.74098
1172.66,0.74730
1166.87,0.75573
1161.09,0.76097
1155.3,0.75723
1149.51,0.74907
1143.73,0.74820
1137.94,0.76020
1132.15,0.77564
1126.37,0.78430
1120.58,0.77930
1114.8,0.76755
1109.01,0.76052
1103.22,0.76215
1097.44,0.76363
1091.65,0.75370
1085.87,0.73080
1080.08,0.71416
1074.29,0.72731
1068.51,0.74722
1062.72,0.75977
1056.93,0.77492
1051.15,0.76702
1045.36,0.76809
1039.58,0.76501
1033.79,0.76361
1028,0.75516
1022.22,0.73101
1016.43,0.71993
1010.65,0.75246
1004.86,0.78195
999.073,0.80215
993.287,0.82296
987.501,0.83587
981.715,0.83101
975.929,0.81262
970.142,0.79813
964.356,0.80119
958.57,0.81951
952.784,0.83855
946.998,0.84040
941.212,0.82741
935.426,0.82118
929.64,0.83017
923.853,0.84703
918.067,0.85512
912.281,0.84150
906.495,0.82442
900.709,0.82399
894.923,0.82731
889.137,0.83726
883.35,0.85340
877.564,0.85248
871.778,0.83593
865.992,0.82942
860.206,0.83792
854.42,0.85440
848.634,0.86310
842.847,0.85133
837.061,0.83045
831.275,0.82162
825.489,0.83217
819.703,0.84812
813.917,0.85065
808.131,0.82958
802.344,0.79938
796.558,0.78082
790.772,0.78315
784.986,0.78245
779.2,0.75961
773.414,0.72327
767.628,0.70489
761.842,0.71299
756.055,0.71990
750.269,0.70564
744.483,0.64544
738.697,0.50753
732.911,0.16801
727.125,0.04801
721.339,0.02258
715.552,0.13324
709.766,0.42421
703.98,0.63994
698.194,0.76075
692.408,0.79195
686.622,0.78881
680.836,0.80707
675.049,0.84518
669.263,0.82710
663.477,0.88308
657.691,0.85746
651.905,0.84631
646.119,0.87255
640.333,0.91562
634.546,0.93933
628.76,0.92499
622.974,0.88747
617.188,0.86992
611.402,0.89425
605.616,0.93115
599.83,0.94146