File: 01_Data/PEVA/FTIR/IS/PEVA_0.18_IS_T_240809_R12.dpt
7497.33,0.02426
7491.55,0.03595
7485.76,0.02978
7479.97,0.03946
7474.19,0.04606
7468.4,0.03777
7462.61,0.03273
7456.83,0.02285
7451.04,0.04706
7445.26,0.03404
7439.47,0.03413
7433.68,0.04006
7427.9,0.03367
7422.11,0.02421
7416.32,0.03649
7410.54,0.03709
7404.75,0.02881
7398.96,0.04887
7393.18,0.03076
7387.39,0.03699
7381.6,0.04378
7375.82,0.02470
7370.03,0.02807
7364.24,0.02655
7358.46,0.04129
7352.67,0.03497
7346.89,0.02558
7341.1,0.03367
7335.31,0.04137
7329.53,0.04313
7323.74,0.03357
7317.95,0.03726
7312.17,0.04121
7306.38,0.03616
7300.59,0.04395
7294.81,0.02976
7289.02,0.03709
7283.23,0.03112
7277.45,0.03329
7271.66,0.03364
7265.87,0.04049
7260.09,0.04384
7254.3,0.03911
7248.52,0.03714
7242.73,0.04018
7236.94,0.03901
7231.16,0.02772
7225.37,0.02691
7219.58,0.03267
7213.8,0.03737
7208.01,0.03470
7202.22,0.02828
7196.44,0.03272
7190.65,0.03996
7184.86,0.04148
7179.08,0.03453
7173.29,0.04177
7167.5,0.02836
7161.72,0.02797
7155.93,0.03544
7150.15,0.02621
7144.36,0.03885
7138.57,0.03678
7132.79,0.04786
7127,0.04179
7121.21,0.02746
7115.43,0.03735
7109.64,0.04164
7103.85,0.03159
7098.07,0.03990
7092.28,0.04154
7086.49,0.03728
7080.71,0.03218
7074.92,0.03414
7069.13,0.03947
7063.35,0.04526
7057.56,0.03329
7051.78,0.02453
7045.99,0.02839
7040.2,0.03066
7034.42,0.03636
7028.63,0.02923
7022.84,0.02741
7017.06,0.02584
7011.27,0.03409
7005.48,0.03361
6999.7,0.03385
6993.91,0.03822
6988.12,0.03251
6982.34,0.03205
6976.55,0.03190
6970.76,0.02625
6964.98,0.03576
6959.19,0.03062
6953.41,0.03303
6947.62,0.03287
6941.83,0.03272
6936.05,0.03055
6930.26,0.03375
6924.47,0.04397
6918.69,0.03575
6912.9,0.02968
6907.11,0.02875
6901.33,0.03525
6895.54,0.03330
6889.75,0.04241
6883.97,0.02712
6878.18,0.02485
6872.39,0.03087
6866.61,0.03361
6860.82,0.03535
6855.04,0.03035
6849.25,0.03429
6843.46,0.03169
6837.68,0.03437
6831.89,0.03531
6826.1,0.03361
6820.32,0.02865
6814.53,0.03273
6808.74,0.02677
6802.96,0.03343
6797.17,0.03331
6791.38,0.03276
6785.6,0.02968
6779.81,0.03048
6774.03,0.03098
6768.24,0.03567
6762.45,0.03698
6756.67,0.04019
6750.88,0.03709
6745.09,0.02925
6739.31,0.04330
6733.52,0.03158
6727.73,0.02690
6721.95,0.03145
6716.16,0.03770
6710.37,0.03656
6704.59,0.03427
6698.8,0.03129
6693.01,0.03403
6687.23,0.02854
6681.44,0.03117
6675.66,0.02995
6669.87,0.02961
6664.08,0.02930
6658.3,0.02816
6652.51,0.03250
6646.72,0.03844
6640.94,0.03198
6635.15,0.02426
6629.36,0.02957
6623.58,0.03064
6617.79,0.03378
6612,0.03605
6606.22,0.02679
6600.43,0.03470
6594.64,0.02885
6588.86,0.03031
6583.07,0.03252
6577.29,0.02951
6571.5,0.03659
6565.71,0.02528
6559.93,0.03138
6554.14,0.02893
6548.35,0.03203
6542.57,0.03346
6536.78,0.03401
6530.99,0.03424
6525.21,0.03272
6519.42,0.03166
6513.63,0.02977
6507.85,0.03105
6502.06,0.02774
6496.27,0.02770
6490.49,0.02877
6484.7,0.03242
6478.92,0.03469
6473.13,0.02860
6467.34,0.03259
6461.56,0.03523
6455.77,0.03081
6449.98,0.03241
6444.2,0.02553
6438.41,0.03326
6432.62,0.02953
6426.84,0.02697
6421.05,0.02695
6415.26,0.02714
6409.48,0.02638
6403.69,0.02834
6397.9,0.02742
6392.12,0.02748
6386.33,0.03158
6380.55,0.02866
6374.76,0.03049
6368.97,0.02686
6363.19,0.03359
6357.4,0.03212
6351.61,0.03406
6345.83,0.02627
6340.04,0.03025
6334.25,0.03418
6328.47,0.03415
6322.68,0.03330
6316.89,0.02893
6311.11,0.03180
6305.32,0.03512
6299.53,0.03531
6293.75,0.02936
6287.96,0.03200
6282.18,0.03305
6276.39,0.02893
6270.6,0.02995
6264.82,0.03331
6259.03,0.02870
6253.24,0.02806
6247.46,0.03078
6241.67,0.03005
6235.88,0.02972
6230.1,0.03100
6224.31,0.03347
6218.52,0.03254
6212.74,0.02996
6206.95,0.03075
6201.16,0.03048
6195.38,0.02927
6189.59,0.02875
6183.81,0.03288
6178.02,0.03005
6172.23,0.03223
6166.45,0.03228
6160.66,0.03472
6154.87,0.03278
6149.09,0.03255
6143.3,0.02955
6137.51,0.02985
6131.73,0.03074
6125.94,0.03378
6120.15,0.03075
6114.37,0.03022
6108.58,0.02856
6102.79,0.03001
6097.01,0.02920
6091.22,0.03119
6085.44,0.03307
6079.65,0.03250
6073.86,0.03257
6068.08,0.02854
6062.29,0.03096
6056.5,0.02730
6050.72,0.03011
6044.93,0.03004
6039.14,0.02796
6033.36,0.02847
6027.57,0.03306
6021.78,0.02965
6016,0.02861
6010.21,0.03253
6004.42,0.03112
5998.64,0.03101
5992.85,0.02942
5987.07,0.03095
5981.28,0.03026
5975.49,0.02959
5969.71,0.02747
5963.92,0.02923
5958.13,0.02842
5952.35,0.03187
5946.56,0.02992
5940.77,0.02981
5934.99,0.02756
5929.2,0.03005
5923.41,0.02979
5917.63,0.03235
5911.84,0.03276
5906.05,0.03117
5900.27,0.03373
5894.48,0.03082
5888.7,0.03149
5882.91,0.03293
5877.12,0.03134
5871.34,0.03312
5865.55,0.03088
5859.76,0.02891
5853.98,0.02985
5848.19,0.03289
5842.4,0.02825
5836.62,0.03278
5830.83,0.03045
5825.04,0.03025
5819.26,0.03163
5813.47,0.02961
5807.68,0.03043
5801.9,0.02819
5796.11,0.03294
5790.33,0.02926
5784.54,0.02911
5778.75,0.03164
5772.97,0.02895
5767.18,0.03377
5761.39,0.03278
5755.61,0.02732
5749.82,0.02794
5744.03,0.03037
5738.25,0.03100
5732.46,0.02968
5726.67,0.02861
5720.89,0.03095
5715.1,0.03313
5709.31,0.03088
5703.53,0.02931
5697.74,0.02798
5691.96,0.02906
5686.17,0.03079
5680.38,0.03113
5674.6,0.02995
5668.81,0.02991
5663.02,0.03008
5657.24,0.03117
5651.45,0.03243
5645.66,0.02885
5639.88,0.02812
5634.09,0.02780
5628.3,0.02937
5622.52,0.02998
5616.73,0.02965
5610.94,0.02796
5605.16,0.03100
5599.37,0.03142
5593.59,0.03089
5587.8,0.03313
5582.01,0.03029
5576.23,0.03072
5570.44,0.02874
5564.65,0.02759
5558.87,0.03274
5553.08,0.03066
5547.29,0.03278
5541.51,0.03113
5535.72,0.02926
5529.93,0.03106
5524.15,0.03148
5518.36,0.02986
5512.58,0.03061
5506.79,0.03119
5501,0.03186
5495.22,0.03089
5489.43,0.03123
5483.64,0.03223
5477.86,0.03101
5472.07,0.03198
5466.28,0.02979
5460.5,0.03209
5454.71,0.03010
5448.92,0.02951
5443.14,0.03115
5437.35,0.03259
5431.56,0.03126
5425.78,0.03002
5419.99,0.03114
5414.21,0.02976
5408.42,0.03064
5402.63,0.02870
5396.85,0.03116
5391.06,0.03054
5385.27,0.03034
5379.49,0.03132
5373.7,0.03163
5367.91,0.02942
5362.13,0.02952
5356.34,0.03146
5350.55,0.03148
5344.77,0.03005
5338.98,0.03186
5333.19,0.03205
5327.41,0.03073
5321.62,0.03119
5315.84,0.02994
5310.05,0.03350
5304.26,0.03248
5298.48,0.03155
5292.69,0.02875
5286.9,0.03054
5281.12,0.03048
5275.33,0.03106
5269.54,0.03088
5263.76,0.02804
5257.97,0.02853
5252.18,0.03116
5246.4,0.02893
5240.61,0.02981
5234.82,0.03099
5229.04,0.03033
5223.25,0.03014
5217.47,0.02944
5211.68,0.03084
5205.89,0.03123
5200.11,0.03004
5194.32,0.02804
5188.53,0.02857
5182.75,0.03064
5176.96,0.03027
5171.17,0.03016
5165.39,0.02911
5159.6,0.02975
5153.81,0.03121
5148.03,0.03007
5142.24,0.03061
5136.45,0.02971
5130.67,0.03006
5124.88,0.03078
5119.1,0.02927
5113.31,0.03073
5107.52,0.03082
5101.74,0.03105
5095.95,0.03112
5090.16,0.03135
5084.38,0.03090
5078.59,0.03084
5072.8,0.03061
5067.02,0.02900
5061.23,0.03045
5055.44,0.03178
5049.66,0.03108
5043.87,0.02996
5038.08,0.02994
5032.3,0.02967
5026.51,0.02950
5020.73,0.03076
5014.94,0.03038
5009.15,0.02923
5003.37,0.03083
4997.58,0.03069
4991.79,0.03066
4986.01,0.03050
4980.22,0.02926
4974.43,0.03052
4968.65,0.02902
4962.86,0.03146
4957.07,0.03080
4951.29,0.02951
4945.5,0.02990
4939.71,0.02992
4933.93,0.03138
4928.14,0.03101
4922.36,0.02981
4916.57,0.03046
4910.78,0.03164
4905,0.03089
4899.21,0.03049
4893.42,0.03040
4887.64,0.02926
4881.85,0.03081
4876.06,0.03041
4870.28,0.02879
4864.49,0.02890
4858.7,0.02959
4852.92,0.03016
4847.13,0.03019
4841.34,0.03004
4835.56,0.03117
4829.77,0.02993
4823.99,0.02981
4818.2,0.03079
4812.41,0.03050
4806.63,0.02961
4800.84,0.03001
4795.05,0.03122
4789.27,0.03061
4783.48,0.03027
4777.69,0.03051
4771.91,0.03042
4766.12,0.03111
4760.33,0.02924
4754.55,0.03060
4748.76,0.03108
4742.97,0.03119
4737.19,0.03053
4731.4,0.03063
4725.62,0.03060
4719.83,0.03051
4714.04,0.02954
4708.26,0.03015
4702.47,0.03012
4696.68,0.03053
4690.9,0.03015
4685.11,0.03082
4679.32,0.03150
4673.54,0.02966
4667.75,0.03030
4661.96,0.03034
4656.18,0.03021
4650.39,0.03004
4644.6,0.03156
4638.82,0.03042
4633.03,0.03088
4627.25,0.03046
4621.46,0.03050
4615.67,0.03069
4609.89,0.03009
4604.1,0.02971
4598.31,0.03046
4592.53,0.02990
4586.74,0.02947
4580.95,0.02980
4575.17,0.02929
4569.38,0.02951
4563.59,0.03107
4557.81,0.02984
4552.02,0.03002
4546.23,0.03024
4540.45,0.03031
4534.66,0.03060
4528.88,0.03073
4523.09,0.03081
4517.3,0.03000
4511.52,0.03061
4505.73,0.03074
4499.94,0.03013
4494.16,0.03049
4488.37,0.02981
4482.58,0.02971
4476.8,0.03043
4471.01,0.03010
4465.22,0.03047
4459.44,0.03087
4453.65,0.03060
4447.86,0.03097
4442.08,0.02970
4436.29,0.02983
4430.51,0.02969
4424.72,0.03029
4418.93,0.03104
4413.15,0.03038
4407.36,0.03017
4401.57,0.03021
4395.79,0.03022
4390,0.02926
4384.21,0.03057
4378.43,0.03035
4372.64,0.02986
4366.85,0.03044
4361.07,0.03154
4355.28,0.03102
4349.49,0.02887
4343.71,0.03050
4337.92,0.03013
4332.14,0.03007
4326.35,0.03056
4320.56,0.02957
4314.78,0.02942
4308.99,0.03058
4303.2,0.03004
4297.42,0.03044
4291.63,0.02946
4285.84,0.02944
4280.06,0.02998
4274.27,0.02903
4268.48,0.02994
4262.7,0.02889
4256.91,0.02963
4251.13,0.02928
4245.34,0.03027
4239.55,0.03012
4233.77,0.02929
4227.98,0.03035
4222.19,0.03019
4216.41,0.03028
4210.62,0.03012
4204.83,0.03053
4199.05,0.03014
4193.26,0.02997
4187.47,0.02963
4181.69,0.03032
4175.9,0.03009
4170.11,0.03059
4164.33,0.03058
4158.54,0.02978
4152.76,0.03100
4146.97,0.02995
4141.18,0.03044
4135.4,0.03028
4129.61,0.03025
4123.82,0.03097
4118.04,0.03048
4112.25,0.02992
4106.46,0.03029
4100.68,0.02931
4094.89,0.03077
4089.1,0.03122
4083.32,0.03012
4077.53,0.03030
4071.74,0.02954
4065.96,0.03014
4060.17,0.02975
4054.39,0.03004
4048.6,0.03027
4042.81,0.03007
4037.03,0.03046
4031.24,0.03065
4025.45,0.03048
4019.67,0.03097
4013.88,0.03007
4008.09,0.02979
4002.31,0.02989
3996.52,0.02927
3990.73,0.03058
3984.95,0.02978
3979.16,0.02984
3973.37,0.02954
3967.59,0.03098
3961.8,0.02992
3956.02,0.03069
3950.23,0.03042
3944.44,0.03040
3938.66,0.02997
3932.87,0.03066
3927.08,0.03018
3921.3,0.03045
3915.51,0.02939
3909.72,0.02994
3903.94,0.03084
3898.15,0.03046
3892.36,0.03023
3886.58,0.03010
3880.79,0.02982
3875,0.03107
3869.22,0.03053
3863.43,0.02972
3857.65,0.03019
3851.86,0.03019
3846.07,0.02907
3840.29,0.03037
3834.5,0.03049
3828.71,0.03092
3822.93,0.03129
3817.14,0.03009
3811.35,0.03013
3805.57,0.03048
3799.78,0.02990
3793.99,0.02902
3788.21,0.03010
3782.42,0.03033
3776.63,0.03035
3770.85,0.03078
3765.06,0.02944
3759.28,0.03002
3753.49,0.03107
3747.7,0.03145
3741.92,0.03034
3736.13,0.03087
3730.34,0.03040
3724.56,0.03025
3718.77,0.02994
3712.98,0.02998
3707.2,0.02972
3701.41,0.02946
3695.62,0.02939
3689.84,0.02996
3684.05,0.02962
3678.26,0.02955
3672.48,0.02976
3666.69,0.02880
3660.91,0.02842
3655.12,0.02919
3649.33,0.02925
3643.55,0.02811
3637.76,0.02837
3631.97,0.02893
3626.19,0.02849
3620.4,0.02852
3614.61,0.02856
3608.83,0.02968
3603.04,0.02886
3597.25,0.02772
3591.47,0.02791
3585.68,0.02733
3579.89,0.02698
3574.11,0.02730
3568.32,0.02853
3562.54,0.02729
3556.75,0.02753
3550.96,0.02744
3545.18,0.02856
3539.39,0.02669
3533.6,0.02645
3527.82,0.02705
3522.03,0.02707
3516.24,0.02645
3510.46,0.02720
3504.67,0.02707
3498.88,0.02682
3493.1,0.02696
3487.31,0.02641
3481.52,0.02655
3475.74,0.02610
3469.95,0.02580
3464.17,0.02679
3458.38,0.02641
3452.59,0.02707
3446.81,0.02623
3441.02,0.02695
3435.23,0.02712
3429.45,0.02663
3423.66,0.02658
3417.87,0.02549
3412.09,0.02599
3406.3,0.02623
3400.51,0.02664
3394.73,0.02665
3388.94,0.02562
3383.15,0.02627
3377.37,0.02666
3371.58,0.02641
3365.8,0.02691
3360.01,0.02716
3354.22,0.02638
3348.44,0.02630
3342.65,0.02707
3336.86,0.02725
3331.08,0.02628
3325.29,0.02617
3319.5,0.02662
3313.72,0.02696
3307.93,0.02673
3302.14,0.02641
3296.36,0.02662
3290.57,0.02673
3284.78,0.02704
3279,0.02604
3273.21,0.02595
3267.43,0.02646
3261.64,0.02633
3255.85,0.02730
3250.07,0.02683
3244.28,0.02662
3238.49,0.02718
3232.71,0.02683
3226.92,0.02707
3221.13,0.02623
3215.35,0.02618
3209.56,0.02722
3203.77,0.02673
3197.99,0.02671
3192.2,0.02666
3186.41,0.02630
3180.63,0.02704
3174.84,0.02739
3169.06,0.02719
3163.27,0.02707
3157.48,0.02725
3151.7,0.02653
3145.91,0.02645
3140.12,0.02665
3134.34,0.02668
3128.55,0.02644
3122.76,0.02647
3116.98,0.02753
3111.19,0.02770
3105.4,0.02692
3099.62,0.02728
3093.83,0.02664
3088.05,0.02717
3082.26,0.02688
3076.47,0.02705
3070.69,0.02699
3064.9,0.02664
3059.11,0.02684
3053.33,0.02693
3047.54,0.02683
3041.75,0.02617
3035.97,0.02739
3030.18,0.02681
3024.39,0.02677
3018.61,0.02719
3012.82,0.02673
3007.03,0.02668
3001.25,0.02659
2995.46,0.02648
2989.68,0.02621
2983.89,0.02585
2978.1,0.02603
2972.32,0.02615
2966.53,0.02584
2960.74,0.02570
2954.96,0.02588
2949.17,0.02576
2943.38,0.02533
2937.6,0.02600
2931.81,0.02593
2926.02,0.02539
2920.24,0.02604
2914.45,0.02633
2908.66,0.02652
2902.88,0.02660
2897.09,0.02646
2891.31,0.02632
2885.52,0.02695
2879.73,0.02642
2873.95,0.02589
2868.16,0.02653
2862.37,0.02674
2856.59,0.02698
2850.8,0.02689
2845.01,0.02728
2839.23,0.02760
2833.44,0.02759
2827.65,0.02724
2821.87,0.02744
2816.08,0.02756
2810.29,0.02765
2804.51,0.02747
2798.72,0.02769
2792.94,0.02726
2787.15,0.02698
2781.36,0.02778
2775.58,0.02767
2769.79,0.02745
2764,0.02796
2758.22,0.02734
2752.43,0.02747
2746.64,0.02734
2740.86,0.02716
2735.07,0.02709
2729.28,0.02732
2723.5,0.02723
2717.71,0.02767
2711.92,0.02715
2706.14,0.02787
2700.35,0.02781
2694.57,0.02733
2688.78,0.02730
2682.99,0.02737
2677.21,0.02730
2671.42,0.02739
2665.63,0.02727
2659.85,0.02729
2654.06,0.02742
2648.27,0.02704
2642.49,0.02740
2636.7,0.02775
2630.91,0.02753
2625.13,0.02730
2619.34,0.02758
2613.55,0.02689
2607.77,0.02716
2601.98,0.02701
2596.2,0.02719
2590.41,0.02708
2584.62,0.02699
2578.84,0.02728
2573.05,0.02700
2567.26,0.02686
2561.48,0.02721
2555.69,0.02677
2549.9,0.02703
2544.12,0.02758
2538.33,0.02687
2532.54,0.02707
2526.76,0.02691
2520.97,0.02680
2515.18,0.02731
2509.4,0.02712
2503.61,0.02671
2497.83,0.02714
2492.04,0.02688
2486.25,0.02692
2480.47,0.02731
2474.68,0.02688
2468.89,0.02686
2463.11,0.02703
2457.32,0.02684
2451.53,0.02683
2445.75,0.02695
2439.96,0.02692
2434.17,0.02675
2428.39,0.02702
2422.6,0.02699
2416.81,0.02682
2411.03,0.02694
2405.24,0.02720
2399.46,0.02715
2393.67,0.02692
2387.88,0.02691
2382.1,0.02697
2376.31,0.02757
2370.52,0.02718
2364.74,0.02750
2358.95,0.02775
2353.16,0.02736
2347.38,0.02693
2341.59,0.02719
2335.8,0.02733
2330.02,0.02710
2324.23,0.02675
2318.44,0.02724
2312.66,0.02670
2306.87,0.02717
2301.09,0.02679
2295.3,0.02654
2289.51,0.02632
2283.73,0.02694
2277.94,0.02662
2272.15,0.02613
2266.37,0.02666
2260.58,0.02659
2254.79,0.02650
2249.01,0.02671
2243.22,0.02658
2237.43,0.02640
2231.65,0.02636
2225.86,0.02636
2220.07,0.02654
2214.29,0.02618
2208.5,0.02680
2202.72,0.02643
2196.93,0.02619
2191.14,0.02652
2185.36,0.02640
2179.57,0.02635
2173.78,0.02616
2168,0.02628
2162.21,0.02624
2156.42,0.02615
2150.64,0.02650
2144.85,0.02646
2139.06,0.02631
2133.28,0.02605
2127.49,0.02616
2121.7,0.02621
2115.92,0.02642
2110.13,0.02621
2104.35,0.02608
2098.56,0.02602
2092.77,0.02600
2086.99,0.02569
2081.2,0.02575
2075.41,0.02579
2069.63,0.02581
2063.84,0.02592
2058.05,0.02641
2052.27,0.02608
2046.48,0.02618
2040.69,0.02602
2034.91,0.02600
2029.12,0.02603
2023.33,0.02620
2017.55,0.02587
2011.76,0.02577
2005.98,0.02569
2000.19,0.02584
1994.4,0.02591
1988.62,0.02553
1982.83,0.02575
1977.04,0.02596
1971.26,0.02578
1965.47,0.02578
1959.68,0.02557
1953.9,0.02567
1948.11,0.02571
1942.32,0.02539
1936.54,0.02556
1930.75,0.02567
1924.96,0.02549
1919.18,0.02570
1913.39,0.02552
1907.61,0.02558
1901.82,0.02542
1896.03,0.02567
1890.25,0.02542
1884.46,0.02527
1878.67,0.02505
1872.89,0.02505
1867.1,0.02558
1861.31,0.02493
1855.53,0.02522
1849.74,0.02488
1843.95,0.02543
1838.17,0.02481
1832.38,0.02480
1826.6,0.02480
1820.81,0.02433
1815.02,0.02467
1809.24,0.02425
1803.45,0.02419
1797.66,0.02439
1791.88,0.02372
1786.09,0.02364
1780.3,0.02347
1774.52,0.02352
1768.73,0.02288
1762.94,0.02251
1757.16,0.02155
1751.37,0.02201
1745.58,0.02206
1739.8,0.02272
1734.01,0.02363
1728.23,0.02412
1722.44,0.02399
1716.65,0.02438
1710.87,0.02412
1705.08,0.02451
1699.29,0.02278
1693.51,0.02296
1687.72,0.02326
1681.93,0.02292
1676.15,0.02239
1670.36,0.02230
1664.57,0.02180
1658.79,0.02158
1653,0.02258
1647.21,0.02272
1641.43,0.02181
1635.64,0.02207
1629.86,0.02232
1624.07,0.02232
1618.28,0.02230
1612.5,0.02240
1606.71,0.02236
1600.92,0.02257
1595.14,0.02233
1589.35,0.02232
1583.56,0.02195
1577.78,0.02255
1571.99,0.02222
1566.2,0.02201
1560.42,0.02209
1554.63,0.02227
1548.84,0.02235
1543.06,0.02248
1537.27,0.02198
1531.49,0.02233
1525.7,0.02268
1519.91,0.02276
1514.13,0.02233
1508.34,0.02210
1502.55,0.02186
1496.77,0.02269
1490.98,0.02259
1485.19,0.02242
1479.41,0.02212
1473.62,0.02190
1467.83,0.02179
1462.05,0.02140
1456.26,0.02208
1450.47,0.02219
1444.69,0.02194
1438.9,0.02191
1433.12,0.02132
1427.33,0.02171
1421.54,0.02162
1415.76,0.02178
1409.97,0.02133
1404.18,0.02138
1398.4,0.02074
1392.61,0.02072
1386.82,0.02081
1381.04,0.02125
1375.25,0.02115
1369.46,0.02092
1363.68,0.02117
1357.89,0.02113
1352.1,0.02106
1346.32,0.02051
1340.53,0.02018
1334.75,0.01993
1328.96,0.02016
1323.17,0.02000
1317.39,0.01967
1311.6,0.01979
1305.81,0.02005
1300.03,0.02010
1294.24,0.02067
1288.45,0.02088
1282.67,0.02155
1276.88,0.02160
1271.09,0.02187
1265.31,0.02197
1259.52,0.02204
1253.73,0.02248
1247.95,0.02255
1242.16,0.02253
1236.38,0.02219
1230.59,0.02243
1224.8,0.02218
1219.02,0.02232
1213.23,0.02138
1207.44,0.02142
1201.66,0.02151
1195.87,0.02126
1190.08,0.02083
1184.3,0.02113
1178.51,0.02043
1172.72,0.02054
1166.94,0.02000
1161.15,0.02013
1155.36,0.02000
1149.58,0.01985
1143.79,0.02060
1138.01,0.02061
1132.22,0.02121
1126.43,0.02188
1120.65,0.02232
1114.86,0.02266
1109.07,0.02223
1103.29,0.02199
1097.5,0.02138
1091.71,0.02185
1085.93,0.02148
1080.14,0.02285
1074.35,0.02408
1068.57,0.02382
1062.78,0.02396
1056.99,0.02388
1051.21,0.02346
1045.42,0.02316
1039.64,0.02338
1033.85,0.02367
1028.06,0.02288
1022.28,0.02271
1016.49,0.02285
1010.7,0.02394
1004.92,0.02455
999.13,0.02410
993.344,0.02486
987.557,0.02426
981.771,0.02441
975.984,0.02420
970.198,0.02416
964.411,0.02366
958.625,0.02312
952.838,0.02361
947.052,0.02322
941.265,0.02239
935.479,0.02309
929.692,0.02211
923.906,0.02281
918.12,0.02206
912.333,0.02250
906.547,0.02239
900.76,0.02236
894.974,0.02248
889.187,0.02212
883.401,0.02243
877.614,0.02238
871.828,0.02190
866.041,0.02260
860.255,0.02240
854.468,0.02193
848.682,0.02134
842.895,0.02241
837.109,0.02257
831.323,0.02193
825.536,0.02143
819.75,0.02106
813.963,0.02147
808.177,0.02129
802.39,0.02069
796.604,0.02067
790.817,0.02106
785.031,0.02066
779.244,0.02154
773.458,0.02072
767.671,0.02151
761.885,0.02087
756.098,0.02118
750.312,0.01989
744.526,0.01993
738.739,0.02111
732.953,0.01980
727.166,0.01925
721.38,0.01934
715.593,0.02025
709.807,0.01973
704.02,0.01900
698.234,0.01933
692.447,0.01811
686.661,0.01857
680.874,0.01959
675.088,0.01934
669.301,0.01879
663.515,0.01861
657.729,0.01724
651.942,0.01834
646.156,0.01909
640.369,0.01903
634.583,0.01665
628.796,0.01702
623.01,0.01969
617.223,0.01885
611.437,0.01997
605.65,0.01913
599.864,0.01863