File: 01_Data/PEVA/FTIR/IS/PEVA_0.18_IS_Trans_S_240819_R5.dpt
7496.91,0.92375
7491.12,0.93255
7485.33,0.93322
7479.55,0.93452
7473.76,0.93001
7467.98,0.92311
7462.19,0.92154
7456.4,0.90416
7450.62,0.91342
7444.83,0.91938
7439.04,0.92210
7433.26,0.93492
7427.47,0.92738
7421.69,0.92439
7415.9,0.92458
7410.11,0.90516
7404.33,0.91198
7398.54,0.93947
7392.76,0.91170
7386.97,0.92903
7381.18,0.93598
7375.4,0.91952
7369.61,0.91008
7363.83,0.91097
7358.04,0.91439
7352.25,0.92382
7346.47,0.90944
7340.68,0.89704
7334.89,0.92384
7329.11,0.91866
7323.32,0.91800
7317.54,0.92981
7311.75,0.90823
7305.96,0.89753
7300.18,0.90794
7294.39,0.91476
7288.61,0.91422
7282.82,0.90980
7277.03,0.91584
7271.25,0.91302
7265.46,0.91853
7259.67,0.91539
7253.89,0.90139
7248.1,0.91049
7242.32,0.90335
7236.53,0.90234
7230.74,0.89248
7224.96,0.91367
7219.17,0.90751
7213.39,0.91299
7207.6,0.91839
7201.81,0.90582
7196.03,0.90674
7190.24,0.91393
7184.45,0.90578
7178.67,0.91946
7172.88,0.92410
7167.1,0.90121
7161.31,0.89845
7155.52,0.90304
7149.74,0.91593
7143.95,0.91140
7138.17,0.90730
7132.38,0.90756
7126.59,0.92013
7120.81,0.91025
7115.02,0.91773
7109.23,0.92078
7103.45,0.91691
7097.66,0.91484
7091.88,0.91441
7086.09,0.92297
7080.3,0.92474
7074.52,0.91139
7068.73,0.90525
7062.95,0.90487
7057.16,0.90613
7051.37,0.91168
7045.59,0.90822
7039.8,0.91459
7034.02,0.90358
7028.23,0.90493
7022.44,0.90444
7016.66,0.91625
7010.87,0.90774
7005.08,0.90978
6999.3,0.90394
6993.51,0.91791
6987.73,0.92007
6981.94,0.91065
6976.15,0.91282
6970.37,0.90720
6964.58,0.92420
6958.8,0.91532
6953.01,0.91834
6947.22,0.90537
6941.44,0.91291
6935.65,0.91143
6929.86,0.91644
6924.08,0.91539
6918.29,0.91565
6912.51,0.90743
6906.72,0.91429
6900.93,0.91729
6895.15,0.91804
6889.36,0.92255
6883.58,0.91924
6877.79,0.91476
6872,0.92362
6866.22,0.92100
6860.43,0.92394
6854.64,0.91771
6848.86,0.91891
6843.07,0.92186
6837.29,0.91802
6831.5,0.91819
6825.71,0.92083
6819.93,0.92252
6814.14,0.91824
6808.36,0.92996
6802.57,0.91928
6796.78,0.91814
6791,0.91628
6785.21,0.92224
6779.43,0.92475
6773.64,0.91759
6767.85,0.92243
6762.07,0.92888
6756.28,0.93123
6750.49,0.92106
6744.71,0.92602
6738.92,0.93021
6733.14,0.93278
6727.35,0.93082
6721.56,0.93023
6715.78,0.93242
6709.99,0.93233
6704.21,0.92552
6698.42,0.93177
6692.63,0.92408
6686.85,0.93065
6681.06,0.92493
6675.27,0.91979
6669.49,0.91991
6663.7,0.93028
6657.92,0.93176
6652.13,0.93203
6646.34,0.92887
6640.56,0.92894
6634.77,0.93124
6628.99,0.92967
6623.2,0.92706
6617.41,0.92902
6611.63,0.92660
6605.84,0.93085
6600.05,0.92805
6594.27,0.92812
6588.48,0.93259
6582.7,0.92772
6576.91,0.93856
6571.12,0.92355
6565.34,0.93260
6559.55,0.92971
6553.77,0.92797
6547.98,0.92774
6542.19,0.92108
6536.41,0.92976
6530.62,0.92984
6524.84,0.92529
6519.05,0.92235
6513.26,0.92762
6507.48,0.93346
6501.69,0.93191
6495.9,0.92466
6490.12,0.92438
6484.33,0.92353
6478.55,0.92791
6472.76,0.92678
6466.97,0.92958
6461.19,0.92769
6455.4,0.93216
6449.62,0.92631
6443.83,0.93081
6438.04,0.93144
6432.26,0.92288
6426.47,0.93435
6420.68,0.92809
6414.9,0.93347
6409.11,0.92750
6403.33,0.92621
6397.54,0.93300
6391.75,0.92899
6385.97,0.93387
6380.18,0.93527
6374.4,0.93075
6368.61,0.92458
6362.82,0.92876
6357.04,0.93026
6351.25,0.92981
6345.46,0.93239
6339.68,0.93199
6333.89,0.92838
6328.11,0.93158
6322.32,0.93420
6316.53,0.93003
6310.75,0.92112
6304.96,0.92676
6299.18,0.93306
6293.39,0.93171
6287.6,0.92810
6281.82,0.92813
6276.03,0.92781
6270.24,0.92943
6264.46,0.92831
6258.67,0.93303
6252.89,0.92613
6247.1,0.93114
6241.31,0.92869
6235.53,0.92678
6229.74,0.93288
6223.96,0.92868
6218.17,0.93225
6212.38,0.92961
6206.6,0.93016
6200.81,0.92462
6195.03,0.92431
6189.24,0.92762
6183.45,0.92384
6177.67,0.92701
6171.88,0.92693
6166.09,0.92921
6160.31,0.92699
6154.52,0.92937
6148.74,0.92570
6142.95,0.92341
6137.16,0.92306
6131.38,0.92968
6125.59,0.92241
6119.81,0.92615
6114.02,0.92294
6108.23,0.92125
6102.45,0.92493
6096.66,0.91533
6090.87,0.92158
6085.09,0.92042
6079.3,0.92037
6073.52,0.92027
6067.73,0.92210
6061.94,0.91879
6056.16,0.92302
6050.37,0.91970
6044.59,0.92233
6038.8,0.92351
6033.01,0.91773
6027.23,0.91553
6021.44,0.91591
6015.65,0.92084
6009.87,0.90990
6004.08,0.91484
5998.3,0.91212
5992.51,0.91136
5986.72,0.91244
5980.94,0.90841
5975.15,0.91194
5969.37,0.90993
5963.58,0.91246
5957.79,0.90774
5952.01,0.90607
5946.22,0.90677
5940.44,0.90609
5934.65,0.90267
5928.86,0.89975
5923.08,0.90279
5917.29,0.90875
5911.5,0.90147
5905.72,0.89806
5899.93,0.89717
5894.15,0.89875
5888.36,0.89477
5882.57,0.89235
5876.79,0.88352
5871,0.87551
5865.22,0.86782
5859.43,0.85848
5853.64,0.84970
5847.86,0.83968
5842.07,0.83328
5836.28,0.82511
5830.5,0.81696
5824.71,0.81041
5818.93,0.79648
5813.14,0.79005
5807.35,0.78293
5801.57,0.77490
5795.78,0.76102
5790,0.74677
5784.21,0.72578
5778.42,0.71284
5772.64,0.71483
5766.85,0.74161
5761.06,0.77253
5755.28,0.79696
5749.49,0.81293
5743.71,0.82867
5737.92,0.83515
5732.13,0.84420
5726.35,0.84745
5720.56,0.85367
5714.78,0.85200
5708.99,0.84669
5703.2,0.84270
5697.42,0.83431
5691.63,0.83051
5685.84,0.82431
5680.06,0.82198
5674.27,0.81612
5668.49,0.80773
5662.7,0.80366
5656.91,0.81616
5651.13,0.83491
5645.34,0.84272
5639.56,0.84987
5633.77,0.85377
5627.98,0.85599
5622.2,0.85873
5616.41,0.86204
5610.63,0.86325
5604.84,0.86445
5599.05,0.86679
5593.27,0.87213
5587.48,0.86985
5581.69,0.86945
5575.91,0.86729
5570.12,0.86908
5564.34,0.86766
5558.55,0.86880
5552.76,0.86374
5546.98,0.86392
5541.19,0.86370
5535.41,0.86337
5529.62,0.86714
5523.83,0.86381
5518.05,0.86558
5512.26,0.86677
5506.47,0.86202
5500.69,0.86599
5494.9,0.85953
5489.12,0.85889
5483.33,0.86810
5477.54,0.86617
5471.76,0.86906
5465.97,0.86337
5460.19,0.86231
5454.4,0.87212
5448.61,0.86731
5442.83,0.86058
5437.04,0.87140
5431.25,0.86519
5425.47,0.87144
5419.68,0.87617
5413.9,0.86317
5408.11,0.87113
5402.32,0.87971
5396.54,0.87398
5390.75,0.88140
5384.97,0.87509
5379.18,0.87912
5373.39,0.87861
5367.61,0.88638
5361.82,0.88590
5356.04,0.88131
5350.25,0.87821
5344.46,0.87205
5338.68,0.87364
5332.89,0.88557
5327.1,0.88321
5321.32,0.89187
5315.53,0.89042
5309.75,0.88904
5303.96,0.88996
5298.17,0.89329
5292.39,0.88913
5286.6,0.88820
5280.82,0.88964
5275.03,0.89408
5269.24,0.88941
5263.46,0.87759
5257.67,0.88775
5251.88,0.88710
5246.1,0.87827
5240.31,0.89286
5234.53,0.89207
5228.74,0.88783
5222.95,0.88772
5217.17,0.89070
5211.38,0.89141
5205.6,0.88183
5199.81,0.89416
5194.02,0.89145
5188.24,0.89166
5182.45,0.89203
5176.66,0.89306
5170.88,0.89362
5165.09,0.89091
5159.31,0.89247
5153.52,0.89095
5147.73,0.89349
5141.95,0.89296
5136.16,0.89583
5130.38,0.89566
5124.59,0.89763
5118.8,0.89675
5113.02,0.89769
5107.23,0.89682
5101.45,0.89745
5095.66,0.89854
5089.87,0.89842
5084.09,0.90075
5078.3,0.89887
5072.51,0.89780
5066.73,0.89681
5060.94,0.90161
5055.16,0.90045
5049.37,0.90014
5043.58,0.90062
5037.8,0.90013
5032.01,0.90120
5026.23,0.89876
5020.44,0.89942
5014.65,0.89801
5008.87,0.89984
5003.08,0.90018
4997.29,0.89908
4991.51,0.89668
4985.72,0.89572
4979.94,0.89835
4974.15,0.89599
4968.36,0.89470
4962.58,0.89540
4956.79,0.89641
4951.01,0.89881
4945.22,0.89964
4939.43,0.90073
4933.65,0.90002
4927.86,0.90000
4922.07,0.90201
4916.29,0.90084
4910.5,0.90096
4904.72,0.90102
4898.93,0.90009
4893.14,0.90056
4887.36,0.90051
4881.57,0.90048
4875.79,0.90130
4870,0.89956
4864.21,0.90057
4858.43,0.90079
4852.64,0.90199
4846.85,0.90227
4841.07,0.90242
4835.28,0.90338
4829.5,0.90202
4823.71,0.90452
4817.92,0.90327
4812.14,0.90329
4806.35,0.90408
4800.57,0.90563
4794.78,0.90520
4788.99,0.90579
4783.21,0.90422
4777.42,0.90468
4771.64,0.90318
4765.85,0.90371
4760.06,0.90312
4754.28,0.90352
4748.49,0.90510
4742.7,0.90550
4736.92,0.90456
4731.13,0.90459
4725.35,0.90390
4719.56,0.90234
4713.77,0.90343
4707.99,0.90414
4702.2,0.90126
4696.42,0.90087
4690.63,0.90005
4684.84,0.89724
4679.06,0.89439
4673.27,0.89472
4667.48,0.89549
4661.7,0.89712
4655.91,0.89968
4650.13,0.90279
4644.34,0.90330
4638.55,0.90483
4632.77,0.90381
4626.98,0.90595
4621.2,0.90520
4615.41,0.90502
4609.62,0.90482
4603.84,0.90492
4598.05,0.90421
4592.26,0.90545
4586.48,0.90501
4580.69,0.90428
4574.91,0.90350
4569.12,0.90446
4563.33,0.90435
4557.55,0.90217
4551.76,0.90217
4545.98,0.90188
4540.19,0.89977
4534.4,0.89844
4528.62,0.89915
4522.83,0.89565
4517.05,0.89350
4511.26,0.89289
4505.47,0.88934
4499.69,0.88753
4493.9,0.88207
4488.11,0.88020
4482.33,0.87677
4476.54,0.87271
4470.76,0.86873
4464.97,0.86393
4459.18,0.85785
4453.4,0.85020
4447.61,0.84229
4441.83,0.83060
4436.04,0.82113
4430.25,0.81472
4424.47,0.80779
4418.68,0.80052
4412.89,0.79203
4407.11,0.77951
4401.32,0.76443
4395.54,0.74824
4389.75,0.73129
4383.96,0.71201
4378.18,0.69033
4372.39,0.66583
4366.61,0.64114
4360.82,0.61055
4355.03,0.56814
4349.25,0.50848
4343.46,0.44224
4337.67,0.39235
4331.89,0.34552
4326.1,0.27863
4320.32,0.28288
4314.53,0.43864
4308.74,0.54706
4302.96,0.59231
4297.17,0.60586
4291.39,0.60087
4285.6,0.58831
4279.81,0.57226
4274.03,0.54918
4268.24,0.51049
4262.46,0.45199
4256.67,0.38347
4250.88,0.36055
4245.1,0.44975
4239.31,0.51742
4233.52,0.53046
4227.74,0.51545
4221.95,0.49683
4216.17,0.49772
4210.38,0.50084
4204.59,0.48996
4198.81,0.46582
4193.02,0.44917
4187.24,0.44817
4181.45,0.45112
4175.66,0.45490
4169.88,0.45773
4164.09,0.46350
4158.3,0.46745
4152.52,0.47038
4146.73,0.47463
4140.95,0.47969
4135.16,0.48563
4129.37,0.49061
4123.59,0.49403
4117.8,0.49645
4112.02,0.49789
4106.23,0.49810
4100.44,0.49871
4094.66,0.50664
4088.87,0.52738
4083.08,0.55166
4077.3,0.56927
4071.51,0.58118
4065.73,0.58932
4059.94,0.59787
4054.15,0.60515
4048.37,0.61087
4042.58,0.61717
4036.8,0.62449
4031.01,0.62838
4025.22,0.62930
4019.44,0.63956
4013.65,0.66405
4007.86,0.67788
4002.08,0.68515
3996.29,0.68535
3990.51,0.68375
3984.72,0.68247
3978.93,0.67869
3973.15,0.67901
3967.36,0.68771
3961.58,0.69052
3955.79,0.69661
3950,0.69066
3944.22,0.69124
3938.43,0.69735
3932.65,0.68438
3926.86,0.68274
3921.07,0.68096
3915.29,0.68266
3909.5,0.69131
3903.71,0.66434
3897.93,0.68010
3892.14,0.68110
3886.36,0.68430
3880.57,0.68199
3874.78,0.68556
3869,0.67869
3863.21,0.68788
3857.43,0.69814
3851.64,0.68446
3845.85,0.71148
3840.07,0.68320
3834.28,0.69732
3828.49,0.70877
3822.71,0.69379
3816.92,0.69673
3811.14,0.72426
3805.35,0.71128
3799.56,0.71088
3793.78,0.74356
3787.99,0.74902
3782.21,0.74490
3776.42,0.75371
3770.63,0.74638
3764.85,0.74925
3759.06,0.74143
3753.27,0.72846
3747.49,0.71747
3741.7,0.73454
3735.92,0.71298
3730.13,0.74399
3724.34,0.73824
3718.56,0.75283
3712.77,0.73371
3706.99,0.74653
3701.2,0.74309
3695.41,0.74085
3689.63,0.70410
3683.84,0.73478
3678.06,0.71084
3672.27,0.70143
3666.48,0.72267
3660.7,0.72316
3654.91,0.69965
3649.12,0.65287
3643.34,0.68820
3637.55,0.70368
3631.77,0.69942
3625.98,0.70414
3620.19,0.69289
3614.41,0.67427
3608.62,0.65464
3602.84,0.65588
3597.05,0.69459
3591.26,0.74658
3585.48,0.76318
3579.69,0.78701
3573.9,0.79202
3568.12,0.77184
3562.33,0.79184
3556.55,0.80687
3550.76,0.80387
3544.97,0.80109
3539.19,0.81491
3533.4,0.81603
3527.62,0.80650
3521.83,0.81275
3516.04,0.82030
3510.26,0.81324
3504.47,0.80945
3498.68,0.81225
3492.9,0.81108
3487.11,0.80253
3481.33,0.78685
3475.54,0.76399
3469.75,0.72066
3463.97,0.67298
3458.18,0.65229
3452.4,0.66201
3446.61,0.68926
3440.82,0.72960
3435.04,0.76101
3429.25,0.78016
3423.47,0.78863
3417.68,0.79639
3411.89,0.80176
3406.11,0.80332
3400.32,0.80310
3394.53,0.79894
3388.75,0.79835
3382.96,0.79481
3377.18,0.79181
3371.39,0.79092
3365.6,0.79120
3359.82,0.79678
3354.03,0.80164
3348.25,0.80636
3342.46,0.80826
3336.67,0.81007
3330.89,0.81274
3325.1,0.81403
3319.31,0.81481
3313.53,0.81443
3307.74,0.81578
3301.96,0.81605
3296.17,0.81508
3290.38,0.81423
3284.6,0.81504
3278.81,0.81235
3273.03,0.81034
3267.24,0.81192
3261.45,0.81015
3255.67,0.80825
3249.88,0.80837
3244.09,0.80486
3238.31,0.80157
3232.52,0.79884
3226.74,0.79414
3220.95,0.78912
3215.16,0.78443
3209.38,0.78058
3203.59,0.77433
3197.81,0.76691
3192.02,0.76305
3186.23,0.75638
3180.45,0.75128
3174.66,0.74749
3168.87,0.74277
3163.09,0.73609
3157.3,0.73106
3151.52,0.72596
3145.73,0.71800
3139.94,0.71118
3134.16,0.70153
3128.37,0.69094
3122.59,0.67545
3116.8,0.66004
3111.01,0.64172
3105.23,0.61738
3099.44,0.58271
3093.66,0.54149
3087.87,0.50484
3082.08,0.47920
3076.3,0.45839
3070.51,0.43797
3064.72,0.41454
3058.94,0.38974
3053.15,0.36278
3047.37,0.33208
3041.58,0.29982
3035.79,0.26386
3030.01,0.23029
3024.22,0.20123
3018.44,0.17758
3012.65,0.15937
3006.86,0.14186
3001.08,0.11837
2995.29,0.09022
2989.5,0.06042
2983.72,0.03309
2977.93,0.01328
2972.15,0.00332
2966.36,0.00098
2960.57,0.00046
2954.79,0.00042
2949,0.00081
2943.22,0.00045
2937.43,0.00051
2931.64,0.00059
2925.86,0.00088
2920.07,0.00033
2914.28,0.00069
2908.5,0.00108
2902.71,0.00070
2896.93,0.00064
2891.14,0.00071
2885.35,0.00039
2879.57,0.00060
2873.78,0.00055
2868,0.00044
2862.21,0.00053
2856.42,0.00041
2850.64,0.00070
2844.85,0.00085
2839.07,0.00094
2833.28,0.00061
2827.49,0.00259
2821.71,0.00871
2815.92,0.01970
2810.13,0.03495
2804.35,0.05542
2798.56,0.07964
2792.78,0.10921
2786.99,0.14335
2781.2,0.17842
2775.42,0.21084
2769.63,0.23426
2763.85,0.25035
2758.06,0.26263
2752.27,0.27227
2746.49,0.27592
2740.7,0.27666
2734.91,0.28184
2729.13,0.29240
2723.34,0.30798
2717.56,0.32177
2711.77,0.33407
2705.98,0.34394
2700.2,0.34808
2694.41,0.34148
2688.63,0.32635
2682.84,0.31466
2677.05,0.30893
2671.27,0.30651
2665.48,0.31150
2659.69,0.31996
2653.91,0.32991
2648.12,0.33862
2642.34,0.34181
2636.55,0.34326
2630.76,0.35809
2624.98,0.38264
2619.19,0.40763
2613.41,0.43173
2607.62,0.45462
2601.83,0.47509
2596.05,0.49382
2590.26,0.51571
2584.47,0.53984
2578.69,0.56341
2572.9,0.58342
2567.12,0.60176
2561.33,0.61713
2555.54,0.62600
2549.76,0.63338
2543.97,0.64997
2538.19,0.65935
2532.4,0.65299
2526.61,0.65605
2520.83,0.67327
2515.04,0.68737
2509.26,0.69650
2503.47,0.70105
2497.68,0.69961
2491.9,0.69731
2486.11,0.69450
2480.32,0.68919
2474.54,0.68608
2468.75,0.70231
2462.97,0.71967
2457.18,0.73160
2451.39,0.74286
2445.61,0.75204
2439.82,0.75405
2434.04,0.75330
2428.25,0.75143
2422.46,0.74347
2416.68,0.73356
2410.89,0.73614
2405.1,0.74007
2399.32,0.73943
2393.53,0.74021
2387.75,0.74192
2381.96,0.72952
2376.17,0.69632
2370.39,0.66313
2364.6,0.63528
2358.82,0.61706
2353.03,0.62308
2347.24,0.62609
2341.46,0.59588
2335.67,0.59349
2329.88,0.59537
2324.1,0.60742
2318.31,0.62855
2312.53,0.64924
2306.74,0.67010
2300.95,0.68709
2295.17,0.70195
2289.38,0.71562
2283.6,0.72421
2277.81,0.72533
2272.02,0.73113
2266.24,0.74193
2260.45,0.74496
2254.67,0.74675
2248.88,0.75232
2243.09,0.76048
2237.31,0.77336
2231.52,0.78658
2225.73,0.79123
2219.95,0.78951
2214.16,0.78898
2208.38,0.78917
2202.59,0.78383
2196.8,0.77407
2191.02,0.76606
2185.23,0.75979
2179.45,0.75167
2173.66,0.74586
2167.87,0.74249
2162.09,0.73909
2156.3,0.73448
2150.51,0.73630
2144.73,0.74710
2138.94,0.75960
2133.16,0.77095
2127.37,0.78185
2121.58,0.78780
2115.8,0.78795
2110.01,0.79121
2104.23,0.79402
2098.44,0.79155
2092.65,0.78934
2086.87,0.79070
2081.08,0.78856
2075.29,0.78293
2069.51,0.78015
2063.72,0.77535
2057.94,0.76759
2052.15,0.75853
2046.36,0.74998
2040.58,0.73696
2034.79,0.72434
2029.01,0.71248
2023.22,0.69662
2017.43,0.68862
2011.65,0.72654
2005.86,0.75965
2000.08,0.77441
1994.29,0.77973
1988.5,0.78917
1982.72,0.79844
1976.93,0.79504
1971.14,0.79124
1965.36,0.78658
1959.57,0.78518
1953.79,0.77868
1948,0.77811
1942.21,0.77051
1936.43,0.77505
1930.64,0.77259
1924.86,0.76577
1919.07,0.75335
1913.28,0.74775
1907.5,0.73423
1901.71,0.72287
1895.92,0.70306
1890.14,0.70460
1884.35,0.71868
1878.57,0.71297
1872.78,0.69808
1866.99,0.67815
1861.21,0.69252
1855.42,0.69421
1849.64,0.69348
1843.85,0.67665
1838.06,0.67585
1832.28,0.65632
1826.49,0.63167
1820.7,0.61595
1814.92,0.59506
1809.13,0.57076
1803.35,0.54569
1797.56,0.50808
1791.77,0.46524
1785.99,0.43485
1780.2,0.38312
1774.42,0.32427
1768.63,0.22802
1762.84,0.12671
1757.06,0.04998
1751.27,0.00802
1745.48,0.00052
1739.7,0.00032
1733.91,0.00098
1728.13,0.00102
1722.34,0.01316
1716.55,0.07454
1710.77,0.15331
1704.98,0.19606
1699.2,0.19988
1693.41,0.26293
1687.62,0.34211
1681.84,0.43042
1676.05,0.47714
1670.27,0.49682
1664.48,0.52372
1658.69,0.52469
1652.91,0.48366
1647.12,0.46616
1641.33,0.55029
1635.55,0.58430
1629.76,0.63112
1623.98,0.63173
1618.19,0.63685
1612.4,0.65601
1606.62,0.65668
1600.83,0.65411
1595.05,0.65052
1589.26,0.65145
1583.47,0.64418
1577.69,0.61918
1571.9,0.61248
1566.11,0.59560
1560.33,0.56763
1554.54,0.57030
1548.76,0.57539
1542.97,0.53327
1537.18,0.54003
1531.4,0.53465
1525.61,0.50745
1519.83,0.48337
1514.04,0.48011
1508.25,0.43765
1502.47,0.42861
1496.68,0.38245
1490.89,0.33217
1485.11,0.24378
1479.32,0.10989
1473.54,0.00557
1467.75,0.00032
1461.96,0.00040
1456.18,0.00065
1450.39,0.00485
1444.61,0.00942
1438.82,0.01166
1433.03,0.02338
1427.25,0.06537
1421.46,0.13463
1415.68,0.21572
1409.89,0.26596
1404.1,0.28327
1398.32,0.25699
1392.53,0.18242
1386.74,0.07651
1380.96,0.01113
1375.17,0.00106
1369.39,0.00050
1363.6,0.00256
1357.81,0.01343
1352.03,0.03841
1346.24,0.11872
1340.46,0.21905
1334.67,0.30526
1328.88,0.32324
1323.1,0.29558
1317.31,0.24308
1311.52,0.19305
1305.74,0.15966
1299.95,0.13980
1294.17,0.12642
1288.38,0.10655
1282.59,0.07651
1276.81,0.04333
1271.02,0.01602
1265.24,0.00283
1259.45,0.00034
1253.66,0.00032
1247.88,0.00064
1242.09,0.00038
1236.3,0.00046
1230.52,0.00044
1224.73,0.00016
1218.95,0.00411
1213.16,0.01778
1207.37,0.04831
1201.59,0.08979
1195.8,0.12988
1190.02,0.16413
1184.23,0.19056
1178.44,0.20668
1172.66,0.22001
1166.87,0.22203
1161.09,0.20869
1155.3,0.17845
1149.51,0.14445
1143.73,0.13385
1137.94,0.13098
1132.15,0.12180
1126.37,0.11977
1120.58,0.13151
1114.8,0.14464
1109.01,0.15665
1103.22,0.16138
1097.44,0.15544
1091.65,0.14245
1085.87,0.12592
1080.08,0.10871
1074.29,0.09444
1068.51,0.08191
1062.72,0.07547
1056.93,0.06561
1051.15,0.04483
1045.36,0.02916
1039.58,0.02500
1033.79,0.01364
1028,0.00322
1022.22,0.00106
1016.43,0.00206
1010.65,0.02053
1004.86,0.08229
999.073,0.15685
993.287,0.20668
987.501,0.23143
981.715,0.23308
975.929,0.21422
970.142,0.18190
964.356,0.15155
958.57,0.14155
952.784,0.15205
946.998,0.17240
941.212,0.17986
935.426,0.18946
929.64,0.27604
923.853,0.38449
918.067,0.43675
912.281,0.45695
906.495,0.47300
900.709,0.48251
894.923,0.47891
889.137,0.48476
883.35,0.49806
877.564,0.49978
871.778,0.49415
865.992,0.49953
860.206,0.51743
854.42,0.52790
848.634,0.55110
842.847,0.57131
837.061,0.58222
831.275,0.59950
825.489,0.61805
819.703,0.61344
813.917,0.59598
808.131,0.58463
802.344,0.56762
796.558,0.56608
790.772,0.59913
784.986,0.62377
779.2,0.60435
773.414,0.58310
767.628,0.57877
761.842,0.56337
756.055,0.52839
750.269,0.49096
744.483,0.42529
738.697,0.30638
732.911,0.10103
727.125,0.01121
721.339,0.00272
715.552,0.05030
709.766,0.27163
703.98,0.47462
698.194,0.61817
692.408,0.70170
686.622,0.72072
680.836,0.75497
675.049,0.75947
669.263,0.70196
663.477,0.74077
657.691,0.72507
651.905,0.64591
646.119,0.57099
640.333,0.57252
634.546,0.56887
628.76,0.48819
622.974,0.54137
617.188,0.51743
611.402,0.26976
605.616,0.26980
599.83,0.51788