File: 01_Data/PEVA/FTIR/IS/PEVA_0.10_IS_T_240808_R8.dpt
7496.93,0.03318
7491.14,0.02654
7485.35,0.02793
7479.57,0.01431
7473.78,0.02058
7468,0.04148
7462.21,0.04693
7456.42,0.03331
7450.64,0.03696
7444.85,0.04534
7439.06,0.04287
7433.28,0.03232
7427.49,0.03349
7421.71,0.03201
7415.92,0.03216
7410.13,0.03591
7404.35,0.04430
7398.56,0.05184
7392.78,0.02957
7386.99,0.03501
7381.2,0.03278
7375.42,0.04584
7369.63,0.03193
7363.84,0.03362
7358.06,0.04168
7352.27,0.03539
7346.49,0.04030
7340.7,0.02733
7334.91,0.04093
7329.13,0.03574
7323.34,0.02433
7317.56,0.02158
7311.77,0.02773
7305.98,0.03231
7300.2,0.03161
7294.41,0.04969
7288.62,0.03761
7282.84,0.03309
7277.05,0.03632
7271.27,0.02893
7265.48,0.03131
7259.69,0.03455
7253.91,0.03541
7248.12,0.02669
7242.34,0.02883
7236.55,0.02538
7230.76,0.03088
7224.98,0.03732
7219.19,0.02521
7213.4,0.03397
7207.62,0.02878
7201.83,0.03941
7196.05,0.02544
7190.26,0.04055
7184.47,0.04226
7178.69,0.03426
7172.9,0.03113
7167.12,0.04453
7161.33,0.02590
7155.54,0.03721
7149.76,0.03340
7143.97,0.03331
7138.18,0.04078
7132.4,0.03574
7126.61,0.03035
7120.83,0.03217
7115.04,0.03529
7109.25,0.03130
7103.47,0.03124
7097.68,0.03245
7091.9,0.02817
7086.11,0.03067
7080.32,0.03074
7074.54,0.03732
7068.75,0.03362
7062.96,0.02840
7057.18,0.03417
7051.39,0.02591
7045.61,0.02954
7039.82,0.03890
7034.03,0.03722
7028.25,0.04767
7022.46,0.02814
7016.68,0.03283
7010.89,0.02956
7005.1,0.03794
6999.32,0.04161
6993.53,0.03849
6987.74,0.03502
6981.96,0.03653
6976.17,0.03329
6970.39,0.03389
6964.6,0.02843
6958.81,0.03422
6953.03,0.03481
6947.24,0.03511
6941.46,0.03404
6935.67,0.02361
6929.88,0.03190
6924.1,0.02730
6918.31,0.02776
6912.52,0.02870
6906.74,0.03855
6900.95,0.03539
6895.17,0.03934
6889.38,0.03714
6883.59,0.03066
6877.81,0.03249
6872.02,0.03964
6866.24,0.03145
6860.45,0.03340
6854.66,0.03059
6848.88,0.03027
6843.09,0.03693
6837.3,0.03358
6831.52,0.03703
6825.73,0.02883
6819.95,0.03241
6814.16,0.02985
6808.37,0.03489
6802.59,0.03299
6796.8,0.02480
6791.02,0.03949
6785.23,0.03215
6779.44,0.03174
6773.66,0.02581
6767.87,0.02401
6762.08,0.03538
6756.3,0.03342
6750.51,0.02426
6744.73,0.02785
6738.94,0.03214
6733.15,0.02609
6727.37,0.03110
6721.58,0.03207
6715.8,0.03066
6710.01,0.03466
6704.22,0.03566
6698.44,0.02998
6692.65,0.03617
6686.86,0.03482
6681.08,0.03167
6675.29,0.02996
6669.51,0.03355
6663.72,0.03181
6657.93,0.02237
6652.15,0.02390
6646.36,0.03072
6640.58,0.03548
6634.79,0.03500
6629,0.03081
6623.22,0.02941
6617.43,0.03411
6611.64,0.03118
6605.86,0.02932
6600.07,0.03196
6594.29,0.03299
6588.5,0.03561
6582.71,0.03415
6576.93,0.03123
6571.14,0.02792
6565.36,0.03309
6559.57,0.03172
6553.78,0.02606
6548,0.02919
6542.21,0.03042
6536.42,0.03059
6530.64,0.03448
6524.85,0.03098
6519.07,0.03248
6513.28,0.03052
6507.49,0.03237
6501.71,0.03872
6495.92,0.03334
6490.14,0.02797
6484.35,0.02597
6478.56,0.03483
6472.78,0.02741
6466.99,0.03513
6461.2,0.03516
6455.42,0.03074
6449.63,0.03574
6443.85,0.03647
6438.06,0.03568
6432.27,0.03019
6426.49,0.03088
6420.7,0.03362
6414.92,0.03011
6409.13,0.02981
6403.34,0.02424
6397.56,0.02982
6391.77,0.03457
6385.98,0.03001
6380.2,0.03354
6374.41,0.03154
6368.63,0.03352
6362.84,0.03014
6357.05,0.02909
6351.27,0.02939
6345.48,0.02786
6339.7,0.02786
6333.91,0.02954
6328.12,0.03256
6322.34,0.02971
6316.55,0.03120
6310.76,0.03146
6304.98,0.03133
6299.19,0.03195
6293.41,0.03334
6287.62,0.03082
6281.83,0.03228
6276.05,0.03256
6270.26,0.03092
6264.48,0.03163
6258.69,0.02891
6252.9,0.03153
6247.12,0.02999
6241.33,0.03189
6235.54,0.02556
6229.76,0.02564
6223.97,0.03111
6218.19,0.03272
6212.4,0.03079
6206.61,0.02702
6200.83,0.03265
6195.04,0.03490
6189.26,0.03111
6183.47,0.03079
6177.68,0.03069
6171.9,0.03186
6166.11,0.03191
6160.32,0.03109
6154.54,0.02919
6148.75,0.02771
6142.97,0.02934
6137.18,0.03169
6131.39,0.03585
6125.61,0.03523
6119.82,0.03096
6114.04,0.03204
6108.25,0.02856
6102.46,0.02832
6096.68,0.02945
6090.89,0.03073
6085.1,0.03078
6079.32,0.03062
6073.53,0.03161
6067.75,0.02845
6061.96,0.03039
6056.17,0.03126
6050.39,0.02851
6044.6,0.03291
6038.82,0.02938
6033.03,0.02891
6027.24,0.02895
6021.46,0.03007
6015.67,0.02956
6009.88,0.03069
6004.1,0.02818
5998.31,0.02810
5992.53,0.03223
5986.74,0.03043
5980.95,0.02851
5975.17,0.02811
5969.38,0.03140
5963.6,0.02753
5957.81,0.02815
5952.02,0.02764
5946.24,0.03098
5940.45,0.02994
5934.66,0.02731
5928.88,0.03098
5923.09,0.02690
5917.31,0.02841
5911.52,0.02936
5905.73,0.03211
5899.95,0.02728
5894.16,0.03204
5888.38,0.03118
5882.59,0.02983
5876.8,0.02724
5871.02,0.03039
5865.23,0.02873
5859.44,0.02957
5853.66,0.02728
5847.87,0.02606
5842.09,0.02994
5836.3,0.02883
5830.51,0.02813
5824.73,0.03139
5818.94,0.02747
5813.16,0.02823
5807.37,0.02851
5801.58,0.02546
5795.8,0.02951
5790.01,0.03023
5784.22,0.03001
5778.44,0.03161
5772.65,0.03035
5766.87,0.03047
5761.08,0.02854
5755.29,0.02930
5749.51,0.02974
5743.72,0.03205
5737.94,0.03083
5732.15,0.02796
5726.36,0.02990
5720.58,0.03165
5714.79,0.03014
5709,0.02957
5703.22,0.02850
5697.43,0.03138
5691.65,0.03038
5685.86,0.02875
5680.07,0.03219
5674.29,0.03098
5668.5,0.03054
5662.72,0.02934
5656.93,0.02991
5651.14,0.03083
5645.36,0.03261
5639.57,0.03006
5633.78,0.03013
5628,0.03206
5622.21,0.02892
5616.43,0.03182
5610.64,0.03016
5604.85,0.02994
5599.07,0.03034
5593.28,0.03001
5587.5,0.02999
5581.71,0.02974
5575.92,0.03008
5570.14,0.03116
5564.35,0.03063
5558.56,0.02922
5552.78,0.03051
5546.99,0.03158
5541.21,0.03006
5535.42,0.03116
5529.63,0.03050
5523.85,0.02974
5518.06,0.03068
5512.28,0.03047
5506.49,0.02753
5500.7,0.02889
5494.92,0.02928
5489.13,0.02935
5483.34,0.02868
5477.56,0.03018
5471.77,0.03098
5465.99,0.03069
5460.2,0.03070
5454.41,0.03042
5448.63,0.02823
5442.84,0.02703
5437.06,0.03030
5431.27,0.02899
5425.48,0.03064
5419.7,0.03021
5413.91,0.02793
5408.12,0.03054
5402.34,0.03086
5396.55,0.02980
5390.77,0.02951
5384.98,0.02938
5379.19,0.02930
5373.41,0.02836
5367.62,0.02993
5361.84,0.02850
5356.05,0.03038
5350.26,0.03145
5344.48,0.02967
5338.69,0.02825
5332.9,0.03144
5327.12,0.02948
5321.33,0.02819
5315.55,0.02820
5309.76,0.02951
5303.97,0.02929
5298.19,0.02968
5292.4,0.03043
5286.62,0.03213
5280.83,0.03145
5275.04,0.03096
5269.26,0.02954
5263.47,0.03241
5257.68,0.02919
5251.9,0.03050
5246.11,0.02967
5240.33,0.02879
5234.54,0.02900
5228.75,0.02931
5222.97,0.03139
5217.18,0.03028
5211.4,0.02966
5205.61,0.02961
5199.82,0.02964
5194.04,0.02963
5188.25,0.02955
5182.46,0.02949
5176.68,0.03074
5170.89,0.03029
5165.11,0.03068
5159.32,0.03023
5153.53,0.03234
5147.75,0.03023
5141.96,0.03096
5136.18,0.03111
5130.39,0.02909
5124.6,0.02899
5118.82,0.03007
5113.03,0.02917
5107.24,0.02928
5101.46,0.03004
5095.67,0.03194
5089.89,0.03135
5084.1,0.02855
5078.31,0.02870
5072.53,0.02989
5066.74,0.02975
5060.96,0.02979
5055.17,0.02878
5049.38,0.02912
5043.6,0.02885
5037.81,0.03044
5032.02,0.03028
5026.24,0.02949
5020.45,0.03027
5014.67,0.02959
5008.88,0.02969
5003.09,0.02968
4997.31,0.03005
4991.52,0.03015
4985.74,0.02980
4979.95,0.03111
4974.16,0.03069
4968.38,0.02958
4962.59,0.02836
4956.8,0.03011
4951.02,0.03030
4945.23,0.02955
4939.45,0.03058
4933.66,0.03049
4927.87,0.02928
4922.09,0.02876
4916.3,0.03030
4910.52,0.02978
4904.73,0.03011
4898.94,0.02998
4893.16,0.02915
4887.37,0.02901
4881.58,0.03034
4875.8,0.02988
4870.01,0.02983
4864.23,0.02898
4858.44,0.02898
4852.65,0.03045
4846.87,0.02923
4841.08,0.02932
4835.3,0.02885
4829.51,0.02830
4823.72,0.02944
4817.94,0.02983
4812.15,0.02962
4806.36,0.03058
4800.58,0.03015
4794.79,0.02920
4789.01,0.02949
4783.22,0.03022
4777.43,0.03043
4771.65,0.03019
4765.86,0.03105
4760.08,0.03061
4754.29,0.02993
4748.5,0.02899
4742.72,0.02968
4736.93,0.02987
4731.14,0.03045
4725.36,0.02883
4719.57,0.02907
4713.79,0.02964
4708,0.02992
4702.21,0.03041
4696.43,0.02996
4690.64,0.03021
4684.86,0.03025
4679.07,0.02919
4673.28,0.02963
4667.5,0.02925
4661.71,0.03020
4655.92,0.02987
4650.14,0.02895
4644.35,0.02977
4638.57,0.02812
4632.78,0.02947
4626.99,0.02951
4621.21,0.03047
4615.42,0.03050
4609.64,0.02972
4603.85,0.02970
4598.06,0.02964
4592.28,0.02852
4586.49,0.02994
4580.7,0.03037
4574.92,0.02934
4569.13,0.02957
4563.35,0.02886
4557.56,0.02858
4551.77,0.03001
4545.99,0.02833
4540.2,0.02975
4534.42,0.03066
4528.63,0.02957
4522.84,0.02884
4517.06,0.02944
4511.27,0.02980
4505.48,0.02991
4499.7,0.03061
4493.91,0.02977
4488.13,0.02956
4482.34,0.02962
4476.55,0.02954
4470.77,0.03087
4464.98,0.03077
4459.2,0.03017
4453.41,0.02927
4447.62,0.02920
4441.84,0.02919
4436.05,0.02938
4430.26,0.02862
4424.48,0.02878
4418.69,0.02871
4412.91,0.02940
4407.12,0.02948
4401.33,0.02995
4395.55,0.02931
4389.76,0.02949
4383.98,0.02946
4378.19,0.03006
4372.4,0.02984
4366.62,0.03013
4360.83,0.02990
4355.04,0.02965
4349.26,0.02929
4343.47,0.02859
4337.69,0.02986
4331.9,0.02918
4326.11,0.02843
4320.33,0.02919
4314.54,0.02928
4308.76,0.02917
4302.97,0.02938
4297.18,0.02950
4291.4,0.02961
4285.61,0.02953
4279.82,0.02855
4274.04,0.02899
4268.25,0.02901
4262.47,0.02927
4256.68,0.02920
4250.89,0.02959
4245.11,0.02954
4239.32,0.02983
4233.54,0.02958
4227.75,0.02983
4221.96,0.02967
4216.18,0.02902
4210.39,0.02945
4204.6,0.02818
4198.82,0.02969
4193.03,0.02893
4187.25,0.02902
4181.46,0.02997
4175.67,0.03010
4169.89,0.02979
4164.1,0.02968
4158.32,0.02929
4152.53,0.02921
4146.74,0.02989
4140.96,0.03013
4135.17,0.02981
4129.38,0.02964
4123.6,0.02888
4117.81,0.02949
4112.03,0.02993
4106.24,0.02956
4100.45,0.02945
4094.67,0.02913
4088.88,0.02983
4083.1,0.02990
4077.31,0.02925
4071.52,0.02921
4065.74,0.03001
4059.95,0.02980
4054.16,0.02929
4048.38,0.02929
4042.59,0.02971
4036.81,0.02927
4031.02,0.02902
4025.23,0.02918
4019.45,0.02929
4013.66,0.02916
4007.88,0.02952
4002.09,0.02974
3996.3,0.02930
3990.52,0.02937
3984.73,0.02956
3978.94,0.03012
3973.16,0.02994
3967.37,0.02955
3961.59,0.02980
3955.8,0.02928
3950.01,0.02896
3944.23,0.02875
3938.44,0.02925
3932.66,0.02884
3926.87,0.02912
3921.08,0.02981
3915.3,0.02913
3909.51,0.02904
3903.72,0.02943
3897.94,0.02885
3892.15,0.02933
3886.37,0.02904
3880.58,0.02909
3874.79,0.03003
3869.01,0.02940
3863.22,0.02985
3857.44,0.03059
3851.65,0.02857
3845.86,0.02952
3840.08,0.02937
3834.29,0.02935
3828.5,0.02977
3822.72,0.02953
3816.93,0.02906
3811.15,0.02957
3805.36,0.02990
3799.57,0.02860
3793.79,0.02922
3788,0.02909
3782.22,0.02896
3776.43,0.02965
3770.64,0.02929
3764.86,0.02903
3759.07,0.02918
3753.28,0.02904
3747.5,0.02961
3741.71,0.02916
3735.93,0.02930
3730.14,0.02891
3724.35,0.02860
3718.57,0.02881
3712.78,0.02980
3707,0.02909
3701.21,0.02895
3695.42,0.02840
3689.64,0.02832
3683.85,0.02808
3678.06,0.02776
3672.28,0.02730
3666.49,0.02774
3660.71,0.02836
3654.92,0.02836
3649.13,0.02904
3643.35,0.02788
3637.56,0.02858
3631.78,0.02743
3625.99,0.02712
3620.2,0.02684
3614.42,0.02746
3608.63,0.02797
3602.84,0.02663
3597.06,0.02736
3591.27,0.02641
3585.49,0.02628
3579.7,0.02699
3573.91,0.02694
3568.13,0.02745
3562.34,0.02609
3556.56,0.02622
3550.77,0.02647
3544.98,0.02706
3539.2,0.02588
3533.41,0.02654
3527.62,0.02679
3521.84,0.02669
3516.05,0.02680
3510.27,0.02629
3504.48,0.02645
3498.69,0.02660
3492.91,0.02631
3487.12,0.02595
3481.34,0.02638
3475.55,0.02595
3469.76,0.02604
3463.98,0.02597
3458.19,0.02654
3452.4,0.02631
3446.62,0.02622
3440.83,0.02596
3435.05,0.02612
3429.26,0.02579
3423.47,0.02559
3417.69,0.02626
3411.9,0.02576
3406.12,0.02585
3400.33,0.02517
3394.54,0.02482
3388.76,0.02569
3382.97,0.02508
3377.18,0.02494
3371.4,0.02596
3365.61,0.02488
3359.83,0.02570
3354.04,0.02484
3348.25,0.02613
3342.47,0.02573
3336.68,0.02563
3330.9,0.02613
3325.11,0.02539
3319.32,0.02601
3313.54,0.02541
3307.75,0.02542
3301.96,0.02551
3296.18,0.02569
3290.39,0.02532
3284.61,0.02554
3278.82,0.02543
3273.03,0.02622
3267.25,0.02571
3261.46,0.02623
3255.68,0.02632
3249.89,0.02612
3244.1,0.02610
3238.32,0.02668
3232.53,0.02622
3226.74,0.02590
3220.96,0.02623
3215.17,0.02631
3209.39,0.02711
3203.6,0.02616
3197.81,0.02692
3192.03,0.02675
3186.24,0.02678
3180.46,0.02625
3174.67,0.02638
3168.88,0.02624
3163.1,0.02669
3157.31,0.02615
3151.52,0.02650
3145.74,0.02632
3139.95,0.02669
3134.17,0.02648
3128.38,0.02656
3122.59,0.02664
3116.81,0.02669
3111.02,0.02708
3105.24,0.02662
3099.45,0.02638
3093.66,0.02621
3087.88,0.02691
3082.09,0.02638
3076.3,0.02629
3070.52,0.02638
3064.73,0.02622
3058.95,0.02636
3053.16,0.02663
3047.37,0.02675
3041.59,0.02656
3035.8,0.02622
3030.02,0.02622
3024.23,0.02604
3018.44,0.02643
3012.66,0.02666
3006.87,0.02636
3001.08,0.02596
2995.3,0.02626
2989.51,0.02598
2983.73,0.02529
2977.94,0.02592
2972.15,0.02515
2966.37,0.02495
2960.58,0.02564
2954.8,0.02557
2949.01,0.02536
2943.22,0.02531
2937.44,0.02476
2931.65,0.02518
2925.86,0.02552
2920.08,0.02555
2914.29,0.02566
2908.51,0.02575
2902.72,0.02528
2896.93,0.02634
2891.15,0.02639
2885.36,0.02662
2879.58,0.02557
2873.79,0.02545
2868,0.02619
2862.22,0.02637
2856.43,0.02634
2850.64,0.02598
2844.86,0.02667
2839.07,0.02660
2833.29,0.02693
2827.5,0.02691
2821.71,0.02621
2815.93,0.02653
2810.14,0.02657
2804.36,0.02733
2798.57,0.02718
2792.78,0.02704
2787,0.02716
2781.21,0.02709
2775.42,0.02659
2769.64,0.02662
2763.85,0.02713
2758.07,0.02682
2752.28,0.02697
2746.49,0.02704
2740.71,0.02697
2734.92,0.02724
2729.14,0.02644
2723.35,0.02712
2717.56,0.02710
2711.78,0.02664
2705.99,0.02681
2700.2,0.02701
2694.42,0.02680
2688.63,0.02644
2682.85,0.02691
2677.06,0.02693
2671.27,0.02695
2665.49,0.02678
2659.7,0.02669
2653.92,0.02674
2648.13,0.02654
2642.34,0.02676
2636.56,0.02706
2630.77,0.02679
2624.98,0.02666
2619.2,0.02685
2613.41,0.02684
2607.63,0.02681
2601.84,0.02671
2596.05,0.02684
2590.27,0.02655
2584.48,0.02659
2578.7,0.02690
2572.91,0.02631
2567.12,0.02696
2561.34,0.02675
2555.55,0.02650
2549.76,0.02669
2543.98,0.02693
2538.19,0.02669
2532.41,0.02668
2526.62,0.02651
2520.83,0.02667
2515.05,0.02679
2509.26,0.02645
2503.48,0.02638
2497.69,0.02637
2491.9,0.02638
2486.12,0.02660
2480.33,0.02668
2474.55,0.02684
2468.76,0.02660
2462.97,0.02626
2457.19,0.02671
2451.4,0.02625
2445.61,0.02666
2439.83,0.02691
2434.04,0.02698
2428.26,0.02666
2422.47,0.02633
2416.68,0.02626
2410.9,0.02597
2405.11,0.02623
2399.32,0.02628
2393.54,0.02622
2387.75,0.02610
2381.97,0.02612
2376.18,0.02680
2370.39,0.02651
2364.61,0.02777
2358.82,0.02756
2353.04,0.02677
2347.25,0.02693
2341.46,0.02723
2335.68,0.02681
2329.89,0.02639
2324.11,0.02665
2318.32,0.02661
2312.53,0.02637
2306.75,0.02632
2300.96,0.02621
2295.17,0.02602
2289.39,0.02597
2283.6,0.02618
2277.82,0.02620
2272.03,0.02586
2266.24,0.02612
2260.46,0.02609
2254.67,0.02561
2248.89,0.02587
2243.1,0.02617
2237.31,0.02582
2231.53,0.02596
2225.74,0.02624
2219.95,0.02623
2214.17,0.02597
2208.38,0.02591
2202.6,0.02579
2196.81,0.02580
2191.02,0.02560
2185.24,0.02561
2179.45,0.02598
2173.67,0.02586
2167.88,0.02586
2162.09,0.02625
2156.31,0.02553
2150.52,0.02568
2144.73,0.02568
2138.95,0.02539
2133.16,0.02552
2127.38,0.02573
2121.59,0.02582
2115.8,0.02586
2110.02,0.02583
2104.23,0.02564
2098.45,0.02583
2092.66,0.02529
2086.87,0.02554
2081.09,0.02551
2075.3,0.02538
2069.51,0.02538
2063.73,0.02531
2057.94,0.02551
2052.16,0.02547
2046.37,0.02572
2040.58,0.02545
2034.8,0.02526
2029.01,0.02537
2023.23,0.02560
2017.44,0.02545
2011.65,0.02574
2005.87,0.02553
2000.08,0.02523
1994.29,0.02547
1988.51,0.02543
1982.72,0.02511
1976.94,0.02518
1971.15,0.02546
1965.36,0.02538
1959.58,0.02511
1953.79,0.02521
1948.01,0.02542
1942.22,0.02529
1936.43,0.02505
1930.65,0.02534
1924.86,0.02515
1919.07,0.02502
1913.29,0.02506
1907.5,0.02490
1901.72,0.02478
1895.93,0.02537
1890.14,0.02502
1884.36,0.02453
1878.57,0.02484
1872.79,0.02504
1867,0.02447
1861.21,0.02474
1855.43,0.02425
1849.64,0.02428
1843.85,0.02473
1838.07,0.02450
1832.28,0.02460
1826.5,0.02394
1820.71,0.02409
1814.92,0.02384
1809.14,0.02375
1803.35,0.02354
1797.57,0.02389
1791.78,0.02365
1785.99,0.02358
1780.21,0.02346
1774.42,0.02299
1768.63,0.02212
1762.85,0.02195
1757.06,0.02098
1751.28,0.02140
1745.49,0.02171
1739.7,0.02215
1733.92,0.02324
1728.13,0.02390
1722.35,0.02422
1716.56,0.02423
1710.77,0.02390
1704.99,0.02342
1699.2,0.02298
1693.41,0.02225
1687.63,0.02204
1681.84,0.02121
1676.06,0.02208
1670.27,0.02178
1664.48,0.02170
1658.7,0.02124
1652.91,0.02132
1647.13,0.02139
1641.34,0.02194
1635.55,0.02163
1629.77,0.02205
1623.98,0.02280
1618.19,0.02236
1612.41,0.02172
1606.62,0.02152
1600.84,0.02174
1595.05,0.02181
1589.26,0.02182
1583.48,0.02189
1577.69,0.02224
1571.91,0.02191
1566.12,0.02133
1560.33,0.02169
1554.55,0.02119
1548.76,0.02160
1542.97,0.02199
1537.19,0.02193
1531.4,0.02192
1525.62,0.02198
1519.83,0.02302
1514.04,0.02172
1508.26,0.02242
1502.47,0.02177
1496.69,0.02169
1490.9,0.02179
1485.11,0.02143
1479.33,0.02154
1473.54,0.02129
1467.75,0.02111
1461.97,0.02147
1456.18,0.02145
1450.4,0.02155
1444.61,0.02123
1438.82,0.02141
1433.04,0.02137
1427.25,0.02151
1421.47,0.02121
1415.68,0.02122
1409.89,0.02105
1404.11,0.02088
1398.32,0.02067
1392.53,0.02039
1386.75,0.02044
1380.96,0.02047
1375.18,0.02026
1369.39,0.02038
1363.6,0.02066
1357.82,0.02050
1352.03,0.02056
1346.25,0.02027
1340.46,0.02023
1334.67,0.02020
1328.89,0.02008
1323.1,0.01933
1317.31,0.01941
1311.53,0.01947
1305.74,0.01963
1299.96,0.01984
1294.17,0.02005
1288.38,0.02040
1282.6,0.02079
1276.81,0.02108
1271.03,0.02125
1265.24,0.02192
1259.45,0.02222
1253.67,0.02252
1247.88,0.02228
1242.09,0.02208
1236.31,0.02215
1230.52,0.02187
1224.74,0.02182
1218.95,0.02187
1213.16,0.02155
1207.38,0.02124
1201.59,0.02109
1195.81,0.02095
1190.02,0.02059
1184.23,0.02086
1178.45,0.02024
1172.66,0.02003
1166.87,0.01983
1161.09,0.01998
1155.3,0.01986
1149.52,0.01990
1143.73,0.02071
1137.94,0.02011
1132.16,0.02032
1126.37,0.02102
1120.59,0.02165
1114.8,0.02150
1109.01,0.02255
1103.23,0.02189
1097.44,0.02128
1091.65,0.02177
1085.87,0.02151
1080.08,0.02201
1074.3,0.02331
1068.51,0.02362
1062.72,0.02436
1056.94,0.02402
1051.15,0.02331
1045.37,0.02334
1039.58,0.02244
1033.79,0.02338
1028.01,0.02285
1022.22,0.02260
1016.43,0.02262
1010.65,0.02336
1004.86,0.02409
999.076,0.02418
993.29,0.02378
987.504,0.02419
981.717,0.02404
975.931,0.02332
970.145,0.02314
964.359,0.02326
958.573,0.02359
952.787,0.02325
947,0.02263
941.214,0.02273
935.428,0.02255
929.642,0.02269
923.856,0.02227
918.07,0.02238
912.284,0.02263
906.497,0.02196
900.711,0.02199
894.925,0.02209
889.139,0.02202
883.353,0.02155
877.567,0.02240
871.78,0.02228
865.994,0.02217
860.208,0.02210
854.422,0.02172
848.636,0.02176
842.85,0.02202
837.064,0.02116
831.277,0.02079
825.491,0.02143
819.705,0.02168
813.919,0.02110
808.133,0.02055
802.347,0.02021
796.56,0.02095
790.774,0.02049
784.988,0.02107
779.202,0.02116
773.416,0.02031
767.63,0.02049
761.844,0.01967
756.057,0.01989
750.271,0.01930
744.485,0.01879
738.699,0.02043
732.913,0.02034
727.127,0.01988
721.34,0.01939
715.554,0.01894
709.768,0.01820
703.982,0.01973
698.196,0.01935
692.41,0.01787
686.624,0.01913
680.837,0.01829
675.051,0.01772
669.265,0.01794
663.479,0.01875
657.693,0.01825
651.907,0.01894
646.12,0.01734
640.334,0.01819
634.548,0.01890
628.762,0.01766
622.976,0.01951
617.19,0.01843
611.404,0.01819
605.617,0.01699
599.831,0.01944