File: 01_Data/PEVA/FTIR/IS/PEVA_0.26_IS_Trans_S_240819_R9.dpt
7496.91,0.94615
7491.12,0.95454
7485.33,0.92335
7479.55,0.92248
7473.76,0.91964
7467.98,0.93494
7462.19,0.93402
7456.4,0.91872
7450.62,0.93448
7444.83,0.93329
7439.04,0.94466
7433.26,0.94708
7427.47,0.92395
7421.69,0.94342
7415.9,0.92621
7410.11,0.95403
7404.33,0.93727
7398.54,0.94699
7392.76,0.92720
7386.97,0.93079
7381.18,0.92241
7375.4,0.91776
7369.61,0.92825
7363.83,0.93528
7358.04,0.92060
7352.25,0.92411
7346.47,0.92342
7340.68,0.91441
7334.89,0.92597
7329.11,0.91954
7323.32,0.92305
7317.54,0.92551
7311.75,0.92433
7305.96,0.92556
7300.18,0.92495
7294.39,0.91582
7288.61,0.92802
7282.82,0.91925
7277.03,0.93100
7271.25,0.92677
7265.46,0.91980
7259.67,0.91906
7253.89,0.91901
7248.1,0.91220
7242.32,0.90611
7236.53,0.90197
7230.74,0.89032
7224.96,0.90912
7219.17,0.91240
7213.39,0.92538
7207.6,0.91395
7201.81,0.91731
7196.03,0.90275
7190.24,0.90922
7184.45,0.90486
7178.67,0.91403
7172.88,0.90959
7167.1,0.90882
7161.31,0.92310
7155.52,0.90971
7149.74,0.91127
7143.95,0.90680
7138.17,0.90269
7132.38,0.91989
7126.59,0.92298
7120.81,0.91692
7115.02,0.92822
7109.23,0.91260
7103.45,0.90858
7097.66,0.91642
7091.88,0.91612
7086.09,0.92018
7080.3,0.90627
7074.52,0.91187
7068.73,0.90430
7062.95,0.91854
7057.16,0.91399
7051.37,0.89871
7045.59,0.91779
7039.8,0.92265
7034.02,0.92497
7028.23,0.91916
7022.44,0.90432
7016.66,0.91157
7010.87,0.91370
7005.08,0.90908
6999.3,0.92633
6993.51,0.91513
6987.73,0.91756
6981.94,0.93140
6976.15,0.93070
6970.37,0.92266
6964.58,0.92499
6958.8,0.91888
6953.01,0.91744
6947.22,0.91421
6941.44,0.92093
6935.65,0.92334
6929.86,0.91721
6924.08,0.91774
6918.29,0.92404
6912.51,0.91841
6906.72,0.92056
6900.93,0.92071
6895.15,0.92736
6889.36,0.93060
6883.58,0.92217
6877.79,0.92796
6872,0.92375
6866.22,0.92149
6860.43,0.91747
6854.64,0.91959
6848.86,0.92411
6843.07,0.92638
6837.29,0.92711
6831.5,0.92157
6825.71,0.92105
6819.93,0.92595
6814.14,0.92089
6808.36,0.92220
6802.57,0.92167
6796.78,0.93593
6791,0.93137
6785.21,0.92918
6779.43,0.93232
6773.64,0.92551
6767.85,0.92654
6762.07,0.91851
6756.28,0.92592
6750.49,0.93166
6744.71,0.92660
6738.92,0.93145
6733.14,0.92907
6727.35,0.93011
6721.56,0.93042
6715.78,0.93243
6709.99,0.92633
6704.21,0.92230
6698.42,0.93426
6692.63,0.93952
6686.85,0.92951
6681.06,0.93559
6675.27,0.93559
6669.49,0.92556
6663.7,0.92892
6657.92,0.93287
6652.13,0.93607
6646.34,0.93233
6640.56,0.93511
6634.77,0.93915
6628.99,0.93101
6623.2,0.93669
6617.41,0.93447
6611.63,0.92530
6605.84,0.92525
6600.05,0.92883
6594.27,0.92966
6588.48,0.93726
6582.7,0.93479
6576.91,0.93302
6571.12,0.93943
6565.34,0.93850
6559.55,0.93871
6553.77,0.93865
6547.98,0.94064
6542.19,0.93631
6536.41,0.93923
6530.62,0.93800
6524.84,0.93201
6519.05,0.93748
6513.26,0.93702
6507.48,0.93824
6501.69,0.93391
6495.9,0.93455
6490.12,0.93937
6484.33,0.93893
6478.55,0.92810
6472.76,0.93524
6466.97,0.93911
6461.19,0.93706
6455.4,0.93518
6449.62,0.93146
6443.83,0.93178
6438.04,0.92745
6432.26,0.94166
6426.47,0.94047
6420.68,0.93795
6414.9,0.93536
6409.11,0.93258
6403.33,0.93357
6397.54,0.93502
6391.75,0.93072
6385.97,0.93185
6380.18,0.93036
6374.4,0.94074
6368.61,0.92962
6362.82,0.94333
6357.04,0.93678
6351.25,0.93628
6345.46,0.93405
6339.68,0.93231
6333.89,0.93272
6328.11,0.93495
6322.32,0.93312
6316.53,0.93796
6310.75,0.94196
6304.96,0.93539
6299.18,0.93369
6293.39,0.93666
6287.6,0.93439
6281.82,0.93623
6276.03,0.93891
6270.24,0.93507
6264.46,0.93360
6258.67,0.93505
6252.89,0.93435
6247.1,0.93594
6241.31,0.93609
6235.53,0.93543
6229.74,0.93313
6223.96,0.93113
6218.17,0.93450
6212.38,0.93079
6206.6,0.93375
6200.81,0.93408
6195.03,0.92946
6189.24,0.92825
6183.45,0.92910
6177.67,0.92969
6171.88,0.93411
6166.09,0.93133
6160.31,0.93269
6154.52,0.93114
6148.74,0.92993
6142.95,0.93186
6137.16,0.92776
6131.38,0.92907
6125.59,0.92124
6119.81,0.92781
6114.02,0.92321
6108.23,0.92718
6102.45,0.92493
6096.66,0.92068
6090.87,0.91592
6085.09,0.92195
6079.3,0.92057
6073.52,0.91064
6067.73,0.91104
6061.94,0.90733
6056.16,0.90194
6050.37,0.90157
6044.59,0.90095
6038.8,0.89721
6033.01,0.89616
6027.23,0.88928
6021.44,0.88590
6015.65,0.88311
6009.87,0.88428
6004.08,0.88910
5998.3,0.89190
5992.51,0.89780
5986.72,0.90199
5980.94,0.90527
5975.15,0.90057
5969.37,0.90490
5963.58,0.90609
5957.79,0.90213
5952.01,0.90021
5946.22,0.89730
5940.44,0.89285
5934.65,0.88962
5928.86,0.87896
5923.08,0.87443
5917.29,0.86806
5911.5,0.85818
5905.72,0.85536
5899.93,0.85017
5894.15,0.84237
5888.36,0.83069
5882.57,0.82443
5876.79,0.81517
5871,0.80434
5865.22,0.79379
5859.43,0.78549
5853.64,0.76970
5847.86,0.76140
5842.07,0.75318
5836.28,0.73917
5830.5,0.72519
5824.71,0.72709
5818.93,0.73512
5813.14,0.74459
5807.35,0.75933
5801.57,0.77047
5795.78,0.78294
5790,0.79709
5784.21,0.80493
5778.42,0.81452
5772.64,0.82033
5766.85,0.81969
5761.06,0.82327
5755.28,0.82202
5749.49,0.82006
5743.71,0.81717
5737.92,0.81528
5732.13,0.81774
5726.35,0.81856
5720.56,0.82151
5714.78,0.82016
5708.99,0.82320
5703.2,0.82068
5697.42,0.82121
5691.63,0.82378
5685.84,0.82760
5680.06,0.83263
5674.27,0.83841
5668.49,0.83933
5662.7,0.84191
5656.91,0.84506
5651.13,0.84656
5645.34,0.85028
5639.56,0.85240
5633.77,0.85519
5627.98,0.85888
5622.2,0.85956
5616.41,0.86264
5610.63,0.86247
5604.84,0.86739
5599.05,0.86823
5593.27,0.86887
5587.48,0.86866
5581.69,0.87363
5575.91,0.87412
5570.12,0.87436
5564.34,0.87525
5558.55,0.87650
5552.76,0.87734
5546.98,0.87861
5541.19,0.87933
5535.41,0.87829
5529.62,0.87872
5523.83,0.88022
5518.05,0.87916
5512.26,0.87820
5506.47,0.87559
5500.69,0.87934
5494.9,0.87414
5489.12,0.86961
5483.33,0.87620
5477.54,0.87494
5471.76,0.87480
5465.97,0.87020
5460.19,0.87024
5454.4,0.88150
5448.61,0.87278
5442.83,0.87039
5437.04,0.87801
5431.25,0.87580
5425.47,0.88405
5419.68,0.88668
5413.9,0.87178
5408.11,0.88095
5402.32,0.88919
5396.54,0.88179
5390.75,0.88924
5384.97,0.88425
5379.18,0.88665
5373.39,0.88761
5367.61,0.89631
5361.82,0.89341
5356.04,0.88977
5350.25,0.88827
5344.46,0.88034
5338.68,0.88006
5332.89,0.89185
5327.1,0.88875
5321.32,0.90183
5315.53,0.89911
5309.75,0.89743
5303.96,0.89801
5298.17,0.90122
5292.39,0.90013
5286.6,0.89976
5280.82,0.89843
5275.03,0.90089
5269.24,0.89749
5263.46,0.88484
5257.67,0.89478
5251.88,0.89376
5246.1,0.88682
5240.31,0.89895
5234.53,0.90015
5228.74,0.89646
5222.95,0.89566
5217.17,0.89981
5211.38,0.90002
5205.6,0.89141
5199.81,0.90137
5194.02,0.90114
5188.24,0.89994
5182.45,0.90253
5176.66,0.90238
5170.88,0.90328
5165.09,0.90299
5159.31,0.90204
5153.52,0.90222
5147.73,0.90262
5141.95,0.90286
5136.16,0.90235
5130.38,0.90214
5124.59,0.90313
5118.8,0.90203
5113.02,0.90261
5107.23,0.90389
5101.45,0.90256
5095.66,0.90412
5089.87,0.90607
5084.09,0.90507
5078.3,0.90874
5072.51,0.90637
5066.73,0.90756
5060.94,0.90790
5055.16,0.90854
5049.37,0.90795
5043.58,0.90847
5037.8,0.91000
5032.01,0.90954
5026.23,0.90980
5020.44,0.90943
5014.65,0.90987
5008.87,0.90987
5003.08,0.91155
4997.29,0.90961
4991.51,0.90891
4985.72,0.90885
4979.94,0.91010
4974.15,0.91094
4968.36,0.91088
4962.58,0.91175
4956.79,0.91229
4951.01,0.91187
4945.22,0.91095
4939.43,0.91096
4933.65,0.91052
4927.86,0.91041
4922.07,0.91175
4916.29,0.91074
4910.5,0.91130
4904.72,0.91185
4898.93,0.91037
4893.14,0.90895
4887.36,0.90959
4881.57,0.91096
4875.79,0.91100
4870,0.91083
4864.21,0.91063
4858.43,0.91080
4852.64,0.91058
4846.85,0.91214
4841.07,0.91008
4835.28,0.91078
4829.5,0.91118
4823.71,0.91008
4817.92,0.91057
4812.14,0.90956
4806.35,0.90970
4800.57,0.90663
4794.78,0.90822
4788.99,0.90736
4783.21,0.90756
4777.42,0.90732
4771.64,0.90955
4765.85,0.90735
4760.06,0.90915
4754.28,0.90806
4748.49,0.90822
4742.7,0.90729
4736.92,0.90649
4731.13,0.90421
4725.35,0.90104
4719.56,0.89453
4713.77,0.89215
4707.99,0.89221
4702.2,0.88647
4696.42,0.87997
4690.63,0.87191
4684.84,0.86850
4679.06,0.87126
4673.27,0.87646
4667.48,0.88272
4661.7,0.88396
4655.91,0.88531
4650.13,0.88286
4644.34,0.88111
4638.55,0.87624
4632.77,0.86999
4626.98,0.87222
4621.2,0.88051
4615.41,0.88695
4609.62,0.89006
4603.84,0.89268
4598.05,0.89320
4592.26,0.89020
4586.48,0.88889
4580.69,0.88787
4574.91,0.88705
4569.12,0.88902
4563.33,0.89383
4557.55,0.89483
4551.76,0.89564
4545.98,0.89392
4540.19,0.89421
4534.4,0.89223
4528.62,0.89240
4522.83,0.89092
4517.05,0.88797
4511.26,0.88655
4505.47,0.88371
4499.69,0.87878
4493.9,0.87116
4488.11,0.86424
4482.33,0.86101
4476.54,0.85831
4470.76,0.85461
4464.97,0.84958
4459.18,0.84034
4453.4,0.83035
4447.61,0.81828
4441.83,0.79897
4436.04,0.77921
4430.25,0.75514
4424.47,0.72869
4418.68,0.70068
4412.89,0.67310
4407.11,0.64792
4401.32,0.62903
4395.54,0.62092
4389.75,0.61599
4383.96,0.59980
4378.18,0.57358
4372.39,0.54241
4366.61,0.50978
4360.82,0.47280
4355.03,0.44095
4349.25,0.41334
4343.46,0.38448
4337.67,0.35885
4331.89,0.35301
4326.1,0.37517
4320.32,0.41210
4314.53,0.44774
4308.74,0.46886
4302.96,0.47964
4297.17,0.48444
4291.39,0.48321
4285.6,0.47855
4279.81,0.47279
4274.03,0.47408
4268.24,0.47842
4262.46,0.48548
4256.67,0.49079
4250.88,0.49129
4245.1,0.49041
4239.31,0.48812
4233.52,0.48294
4227.74,0.47624
4221.95,0.47073
4216.17,0.46689
4210.38,0.46884
4204.59,0.47718
4198.81,0.49008
4193.02,0.50160
4187.24,0.50840
4181.45,0.50463
4175.66,0.49553
4169.88,0.49111
4164.09,0.50086
4158.3,0.52046
4152.52,0.53776
4146.73,0.54989
4140.95,0.56294
4135.16,0.57684
4129.37,0.58743
4123.59,0.59042
4117.8,0.58797
4112.02,0.58208
4106.23,0.57510
4100.44,0.56760
4094.66,0.54965
4088.87,0.51984
4083.08,0.49832
4077.3,0.51381
4071.51,0.54267
4065.73,0.56776
4059.94,0.59117
4054.15,0.61062
4048.37,0.62057
4042.58,0.62597
4036.8,0.63150
4031.01,0.63301
4025.22,0.63263
4019.44,0.63304
4013.65,0.63828
4007.86,0.64569
4002.08,0.65681
3996.29,0.66565
3990.51,0.67461
3984.72,0.68528
3978.93,0.69109
3973.15,0.69520
3967.36,0.70222
3961.58,0.70315
3955.79,0.70549
3950,0.69988
3944.22,0.70123
3938.43,0.70737
3932.65,0.69859
3926.86,0.69968
3921.07,0.69767
3915.29,0.70159
3909.5,0.70979
3903.71,0.68184
3897.93,0.69756
3892.14,0.70094
3886.36,0.70515
3880.57,0.70314
3874.78,0.70637
3869,0.69667
3863.21,0.69738
3857.43,0.70433
3851.64,0.68762
3845.85,0.71545
3840.07,0.68980
3834.28,0.70485
3828.49,0.71871
3822.71,0.70605
3816.92,0.71104
3811.14,0.73972
3805.35,0.72081
3799.56,0.71599
3793.78,0.74972
3787.99,0.75696
3782.21,0.75385
3776.42,0.76165
3770.63,0.74908
3764.85,0.74977
3759.06,0.73664
3753.27,0.72316
3747.49,0.71454
3741.7,0.73289
3735.92,0.70840
3730.13,0.73294
3724.34,0.73572
3718.56,0.76312
3712.77,0.74509
3706.99,0.74456
3701.2,0.73308
3695.41,0.71899
3689.63,0.66666
3683.84,0.67281
3678.06,0.64922
3672.27,0.64833
3666.48,0.67809
3660.7,0.69043
3654.91,0.68319
3649.12,0.64905
3643.34,0.69127
3637.55,0.69143
3631.77,0.66699
3625.98,0.65644
3620.19,0.64524
3614.41,0.63906
3608.62,0.63651
3602.84,0.63667
3597.05,0.62315
3591.26,0.62241
3585.48,0.61160
3579.69,0.61670
3573.9,0.60675
3568.12,0.57697
3562.33,0.57401
3556.55,0.57112
3550.76,0.55671
3544.97,0.54746
3539.19,0.55299
3533.4,0.54910
3527.62,0.53762
3521.83,0.53667
3516.04,0.53719
3510.26,0.52522
3504.47,0.51368
3498.68,0.50465
3492.9,0.49061
3487.11,0.47424
3481.33,0.45671
3475.54,0.44295
3469.75,0.43007
3463.97,0.41600
3458.18,0.40433
3452.4,0.39049
3446.61,0.36772
3440.82,0.34395
3435.04,0.31755
3429.25,0.29775
3423.47,0.29058
3417.68,0.29984
3411.89,0.32378
3406.11,0.35213
3400.32,0.38359
3394.53,0.41132
3388.75,0.43495
3382.96,0.45288
3377.18,0.46762
3371.39,0.48056
3365.6,0.48905
3359.82,0.49669
3354.03,0.50226
3348.25,0.50390
3342.46,0.50108
3336.67,0.49389
3330.89,0.48743
3325.1,0.48204
3319.31,0.46778
3313.53,0.42708
3307.74,0.34845
3301.96,0.29119
3296.17,0.32486
3290.38,0.39478
3284.6,0.45221
3278.81,0.49143
3273.03,0.51923
3267.24,0.54180
3261.45,0.55526
3255.67,0.56187
3249.88,0.56775
3244.09,0.56800
3238.31,0.56744
3232.52,0.56301
3226.74,0.55832
3220.95,0.55410
3215.16,0.55171
3209.38,0.54732
3203.59,0.54491
3197.81,0.53959
3192.02,0.53915
3186.23,0.53997
3180.45,0.54161
3174.66,0.54325
3168.87,0.54385
3163.09,0.54382
3157.3,0.54111
3151.52,0.53822
3145.73,0.53275
3139.94,0.52506
3134.16,0.51199
3128.37,0.49825
3122.59,0.49073
3116.8,0.48678
3111.01,0.47273
3105.23,0.44829
3099.44,0.41608
3093.66,0.39735
3087.87,0.37257
3082.08,0.34092
3076.3,0.33418
3070.51,0.31861
3064.72,0.29170
3058.94,0.28497
3053.15,0.27074
3047.37,0.28332
3041.58,0.28839
3035.79,0.26917
3030.01,0.24053
3024.22,0.20935
3018.44,0.17113
3012.65,0.12793
3006.86,0.08342
3001.08,0.04387
2995.29,0.01571
2989.5,0.00326
2983.72,0.00056
2977.93,0.00063
2972.15,0.00051
2966.36,0.00066
2960.57,0.00042
2954.79,0.00032
2949,0.00046
2943.22,0.00059
2937.43,0.00042
2931.64,0.00069
2925.86,0.00047
2920.07,0.00026
2914.28,0.00056
2908.5,0.00038
2902.71,0.00046
2896.93,0.00038
2891.14,0.00072
2885.35,0.00067
2879.57,0.00021
2873.78,0.00061
2868,0.00026
2862.21,0.00062
2856.42,0.00060
2850.64,0.00063
2844.85,0.00103
2839.07,0.00859
2833.28,0.02700
2827.49,0.04898
2821.71,0.06087
2815.92,0.07074
2810.13,0.11440
2804.35,0.17006
2798.56,0.21620
2792.78,0.25678
2786.99,0.29071
2781.2,0.32086
2775.42,0.34493
2769.63,0.36069
2763.85,0.36848
2758.06,0.37059
2752.27,0.36268
2746.49,0.35108
2740.7,0.33615
2734.91,0.32497
2729.13,0.33854
2723.34,0.37691
2717.56,0.40776
2711.77,0.42745
2705.98,0.44370
2700.2,0.45547
2694.41,0.46378
2688.63,0.46588
2682.84,0.46183
2677.05,0.45416
2671.27,0.45324
2665.48,0.46330
2659.69,0.48330
2653.91,0.50028
2648.12,0.50998
2642.34,0.50989
2636.55,0.50176
2630.76,0.49074
2624.98,0.48867
2619.19,0.48803
2613.41,0.48722
2607.62,0.48638
2601.83,0.48645
2596.05,0.48910
2590.26,0.48769
2584.47,0.48359
2578.69,0.48132
2572.9,0.48746
2567.12,0.49658
2561.33,0.50109
2555.54,0.50365
2549.76,0.50890
2543.97,0.51771
2538.19,0.52478
2532.4,0.52913
2526.61,0.53405
2520.83,0.54511
2515.04,0.55822
2509.26,0.57287
2503.47,0.58442
2497.68,0.59213
2491.9,0.59724
2486.11,0.60116
2480.32,0.60655
2474.54,0.61128
2468.75,0.61821
2462.97,0.61992
2457.18,0.62129
2451.39,0.61849
2445.61,0.61474
2439.82,0.60758
2434.04,0.59996
2428.25,0.58914
2422.46,0.57492
2416.68,0.56454
2410.89,0.55539
2405.1,0.54676
2399.32,0.53659
2393.53,0.52765
2387.75,0.51525
2381.96,0.48110
2376.17,0.42369
2370.39,0.37318
2364.6,0.34120
2358.82,0.34179
2353.03,0.39688
2347.24,0.44025
2341.46,0.41779
2335.67,0.43601
2329.88,0.45315
2324.1,0.47294
2318.31,0.51438
2312.53,0.55126
2306.74,0.58266
2300.95,0.60249
2295.17,0.60946
2289.38,0.60952
2283.6,0.60161
2277.81,0.59090
2272.02,0.59633
2266.24,0.61286
2260.45,0.62126
2254.67,0.62511
2248.88,0.62595
2243.09,0.62448
2237.31,0.62317
2231.52,0.62349
2225.73,0.62836
2219.95,0.63370
2214.16,0.63860
2208.38,0.64053
2202.59,0.65768
2196.8,0.67099
2191.02,0.67914
2185.23,0.68680
2179.45,0.69345
2173.66,0.69806
2167.87,0.69684
2162.09,0.69475
2156.3,0.69060
2150.51,0.69027
2144.73,0.68671
2138.94,0.68552
2133.16,0.68299
2127.37,0.68300
2121.58,0.68051
2115.8,0.67751
2110.01,0.67560
2104.23,0.67454
2098.44,0.67396
2092.65,0.66921
2086.87,0.66599
2081.08,0.66007
2075.29,0.65803
2069.51,0.65639
2063.72,0.65731
2057.94,0.66313
2052.15,0.66944
2046.36,0.67544
2040.58,0.67792
2034.79,0.68208
2029.01,0.68314
2023.22,0.68918
2017.43,0.69088
2011.65,0.70036
2005.86,0.70016
2000.08,0.69623
1994.29,0.67947
1988.5,0.66541
1982.72,0.66318
1976.93,0.65626
1971.14,0.64019
1965.36,0.60908
1959.57,0.56949
1953.79,0.50969
1948,0.48544
1942.21,0.51732
1936.43,0.56706
1930.64,0.60319
1924.86,0.62265
1919.07,0.62956
1913.28,0.64075
1907.5,0.64136
1901.71,0.65016
1895.92,0.64856
1890.14,0.64805
1884.35,0.65608
1878.57,0.65964
1872.78,0.65526
1866.99,0.63684
1861.21,0.64246
1855.42,0.62591
1849.64,0.59594
1843.85,0.55162
1838.06,0.52965
1832.28,0.47591
1826.49,0.41433
1820.7,0.40471
1814.92,0.42279
1809.13,0.43004
1803.35,0.42584
1797.56,0.40323
1791.77,0.36633
1785.99,0.33974
1780.2,0.29810
1774.42,0.25912
1768.63,0.21148
1762.84,0.16014
1757.06,0.08555
1751.27,0.03110
1745.48,0.00593
1739.7,0.00065
1733.91,0.00020
1728.13,0.00027
1722.34,0.00047
1716.55,0.00085
1710.77,0.00041
1704.98,0.00018
1699.2,0.00255
1693.41,0.02472
1687.62,0.04822
1681.84,0.06277
1676.05,0.07342
1670.27,0.10028
1664.48,0.18133
1658.69,0.25751
1652.91,0.27290
1647.12,0.25976
1641.33,0.19565
1635.55,0.17026
1629.76,0.27218
1623.98,0.31131
1618.19,0.29646
1612.4,0.25886
1606.62,0.28826
1600.83,0.33769
1595.05,0.34796
1589.26,0.33296
1583.47,0.22638
1577.69,0.09777
1571.9,0.16218
1566.11,0.21197
1560.33,0.22982
1554.54,0.25637
1548.76,0.26297
1542.97,0.22440
1537.18,0.21560
1531.4,0.24007
1525.61,0.24359
1519.83,0.26079
1514.04,0.23407
1508.25,0.12697
1502.47,0.07584
1496.68,0.18987
1490.89,0.18855
1485.11,0.11073
1479.32,0.03832
1473.54,0.00432
1467.75,0.00004
1461.96,0.00040
1456.18,0.00068
1450.39,0.00050
1444.61,0.00044
1438.82,0.00009
1433.03,0.00018
1427.25,0.00039
1421.46,0.00022
1415.68,0.00044
1409.89,0.00006
1404.1,0.00127
1398.32,0.00505
1392.53,0.00148
1386.74,-0.00003
1380.96,0.00036
1375.17,-0.00000
1369.39,0.00135
1363.6,0.00152
1357.81,0.00058
1352.03,0.00074
1346.24,0.00076
1340.46,0.00042
1334.67,0.00015
1328.88,0.00037
1323.1,0.00040
1317.31,0.00050
1311.52,0.00028
1305.74,0.00022
1299.95,0.00008
1294.17,0.00020
1288.38,0.00047
1282.59,0.00023
1276.81,0.00039
1271.02,0.00013
1265.24,0.00008
1259.45,0.00013
1253.66,0.00033
1247.88,0.00045
1242.09,0.00051
1236.3,0.00037
1230.52,0.00048
1224.73,0.00068
1218.95,0.00215
1213.16,0.00255
1207.37,0.00192
1201.59,0.00184
1195.8,0.00185
1190.02,0.00472
1184.23,0.01185
1178.44,0.01187
1172.66,0.00417
1166.87,0.00685
1161.09,0.00710
1155.3,0.00576
1149.51,0.00394
1143.73,0.00350
1137.94,0.00197
1132.15,0.00033
1126.37,0.00074
1120.58,0.00026
1114.8,0.00031
1109.01,0.00055
1103.22,0.00091
1097.44,-0.00004
1091.65,0.00046
1085.87,0.00041
1080.08,0.00091
1074.29,0.00398
1068.51,0.00946
1062.72,0.01350
1056.93,0.01911
1051.15,0.02466
1045.36,0.02570
1039.58,0.02297
1033.79,0.01689
1028,0.00839
1022.22,0.00110
1016.43,0.00107
1010.65,0.00631
1004.86,0.00816
999.073,0.00456
993.287,0.00197
987.501,0.00150
981.715,0.00054
975.929,0.00074
970.142,0.00034
964.356,0.00062
958.57,0.00095
952.784,0.00050
946.998,0.00004
941.212,0.00071
935.426,0.00139
929.64,0.00308
923.853,0.00279
918.067,0.00670
912.281,0.01282
906.495,0.01669
900.709,0.02579
894.923,0.03429
889.137,0.04548
883.35,0.03298
877.564,0.00466
871.778,0.00505
865.992,0.02666
860.206,0.03852
854.42,0.03964
848.634,0.03844
842.847,0.03759
837.061,0.02970
831.275,0.02853
825.489,0.07073
819.703,0.13326
813.917,0.15995
808.131,0.16147
802.344,0.17074
796.558,0.12002
790.772,0.13131
784.986,0.10242
779.2,0.08739
773.414,0.06708
767.628,0.05830
761.842,0.10251
756.055,0.16098
750.269,0.14556
744.483,0.06465
738.697,0.00513
732.911,-0.00001
727.125,0.00028
721.339,0.01254
715.552,0.02191
709.766,0.00938
703.98,0.00201
698.194,0.00147
692.408,0.00115
686.622,0.00133
680.836,0.00211
675.049,0.00452
669.263,0.01088
663.477,0.02333
657.691,0.01074
651.905,0.00104
646.119,0.00176
640.333,0.00102
634.546,0.00246
628.76,0.00065
622.974,0.00231
617.188,0.00030
611.402,0.00219
605.616,0.00081
599.83,0.00403