File: 01_Data/PEVA/FTIR/IS/PEVA_0.18_IS_Trans_S_240819_R2.dpt
7496.91,0.93866
7491.12,0.94452
7485.33,0.93631
7479.55,0.92555
7473.76,0.92663
7467.98,0.93124
7462.19,0.93775
7456.4,0.92316
7450.62,0.94174
7444.83,0.94559
7439.04,0.92186
7433.26,0.92548
7427.47,0.92012
7421.69,0.91825
7415.9,0.92128
7410.11,0.93540
7404.33,0.94099
7398.54,0.93808
7392.76,0.92957
7386.97,0.93270
7381.18,0.91891
7375.4,0.91642
7369.61,0.92755
7363.83,0.93183
7358.04,0.93166
7352.25,0.91915
7346.47,0.91131
7340.68,0.89635
7334.89,0.93689
7329.11,0.91446
7323.32,0.92404
7317.54,0.93362
7311.75,0.91318
7305.96,0.91289
7300.18,0.92340
7294.39,0.91421
7288.61,0.93009
7282.82,0.92514
7277.03,0.92569
7271.25,0.91746
7265.46,0.92109
7259.67,0.91826
7253.89,0.91414
7248.1,0.91805
7242.32,0.89574
7236.53,0.91490
7230.74,0.90306
7224.96,0.90740
7219.17,0.92182
7213.39,0.92588
7207.6,0.92493
7201.81,0.89985
7196.03,0.92000
7190.24,0.91614
7184.45,0.90481
7178.67,0.90059
7172.88,0.89778
7167.1,0.90378
7161.31,0.90645
7155.52,0.91782
7149.74,0.92280
7143.95,0.91856
7138.17,0.90773
7132.38,0.92249
7126.59,0.92369
7120.81,0.92606
7115.02,0.91705
7109.23,0.91484
7103.45,0.91442
7097.66,0.91770
7091.88,0.91972
7086.09,0.92523
7080.3,0.91834
7074.52,0.92871
7068.73,0.91751
7062.95,0.91186
7057.16,0.91587
7051.37,0.91431
7045.59,0.91254
7039.8,0.92759
7034.02,0.92119
7028.23,0.91377
7022.44,0.91985
7016.66,0.92192
7010.87,0.92000
7005.08,0.92454
6999.3,0.91864
6993.51,0.92673
6987.73,0.91254
6981.94,0.93216
6976.15,0.91766
6970.37,0.92598
6964.58,0.91945
6958.8,0.91613
6953.01,0.92350
6947.22,0.92025
6941.44,0.92087
6935.65,0.91731
6929.86,0.93008
6924.08,0.93078
6918.29,0.91716
6912.51,0.92894
6906.72,0.92147
6900.93,0.91837
6895.15,0.92007
6889.36,0.92544
6883.58,0.93446
6877.79,0.92588
6872,0.92685
6866.22,0.92579
6860.43,0.93054
6854.64,0.92146
6848.86,0.92378
6843.07,0.93057
6837.29,0.93702
6831.5,0.92797
6825.71,0.93329
6819.93,0.93553
6814.14,0.92995
6808.36,0.93290
6802.57,0.93139
6796.78,0.93503
6791,0.92938
6785.21,0.93895
6779.43,0.93991
6773.64,0.93036
6767.85,0.93497
6762.07,0.94064
6756.28,0.93236
6750.49,0.92866
6744.71,0.92192
6738.92,0.93524
6733.14,0.93800
6727.35,0.92755
6721.56,0.93193
6715.78,0.93265
6709.99,0.93462
6704.21,0.94000
6698.42,0.93579
6692.63,0.94312
6686.85,0.93490
6681.06,0.93201
6675.27,0.93213
6669.49,0.93487
6663.7,0.93564
6657.92,0.93528
6652.13,0.93912
6646.34,0.93567
6640.56,0.93722
6634.77,0.94452
6628.99,0.93902
6623.2,0.94129
6617.41,0.94174
6611.63,0.93987
6605.84,0.94031
6600.05,0.93498
6594.27,0.93297
6588.48,0.93493
6582.7,0.93738
6576.91,0.93698
6571.12,0.93757
6565.34,0.93625
6559.55,0.94058
6553.77,0.93746
6547.98,0.93299
6542.19,0.93627
6536.41,0.93733
6530.62,0.93371
6524.84,0.93251
6519.05,0.93773
6513.26,0.93568
6507.48,0.93663
6501.69,0.93476
6495.9,0.93583
6490.12,0.93141
6484.33,0.93703
6478.55,0.93167
6472.76,0.93667
6466.97,0.92807
6461.19,0.94288
6455.4,0.93778
6449.62,0.93905
6443.83,0.93649
6438.04,0.94267
6432.26,0.94255
6426.47,0.93653
6420.68,0.94080
6414.9,0.93746
6409.11,0.93751
6403.33,0.94809
6397.54,0.93757
6391.75,0.94124
6385.97,0.93657
6380.18,0.93351
6374.4,0.93291
6368.61,0.93881
6362.82,0.94133
6357.04,0.93906
6351.25,0.93463
6345.46,0.94060
6339.68,0.94120
6333.89,0.94063
6328.11,0.93491
6322.32,0.93771
6316.53,0.93670
6310.75,0.93513
6304.96,0.94108
6299.18,0.93826
6293.39,0.93569
6287.6,0.94064
6281.82,0.93950
6276.03,0.93971
6270.24,0.94033
6264.46,0.93604
6258.67,0.93781
6252.89,0.93468
6247.1,0.93514
6241.31,0.93504
6235.53,0.93587
6229.74,0.93939
6223.96,0.93694
6218.17,0.93744
6212.38,0.93720
6206.6,0.93471
6200.81,0.93494
6195.03,0.93088
6189.24,0.93824
6183.45,0.93713
6177.67,0.93559
6171.88,0.93456
6166.09,0.92834
6160.31,0.93341
6154.52,0.93116
6148.74,0.92944
6142.95,0.93470
6137.16,0.93516
6131.38,0.92934
6125.59,0.93437
6119.81,0.93171
6114.02,0.93056
6108.23,0.92991
6102.45,0.93192
6096.66,0.92856
6090.87,0.92834
6085.09,0.93017
6079.3,0.92972
6073.52,0.92973
6067.73,0.93050
6061.94,0.92833
6056.16,0.92572
6050.37,0.93086
6044.59,0.92491
6038.8,0.92627
6033.01,0.92737
6027.23,0.92350
6021.44,0.92468
6015.65,0.92223
6009.87,0.92411
6004.08,0.92316
5998.3,0.92347
5992.51,0.92193
5986.72,0.92292
5980.94,0.92138
5975.15,0.91579
5969.37,0.92160
5963.58,0.92023
5957.79,0.91630
5952.01,0.91350
5946.22,0.91250
5940.44,0.91401
5934.65,0.91224
5928.86,0.90982
5923.08,0.91074
5917.29,0.91420
5911.5,0.90837
5905.72,0.90686
5899.93,0.90468
5894.15,0.90166
5888.36,0.89776
5882.57,0.89725
5876.79,0.88673
5871,0.88324
5865.22,0.87414
5859.43,0.86745
5853.64,0.85644
5847.86,0.84872
5842.07,0.84098
5836.28,0.83015
5830.5,0.82573
5824.71,0.81150
5818.93,0.80539
5813.14,0.79822
5807.35,0.78817
5801.57,0.77846
5795.78,0.76837
5790,0.75452
5784.21,0.73446
5778.42,0.71844
5772.64,0.71889
5766.85,0.74871
5761.06,0.77835
5755.28,0.80288
5749.49,0.82273
5743.71,0.83657
5737.92,0.84411
5732.13,0.84792
5726.35,0.85622
5720.56,0.85772
5714.78,0.85544
5708.99,0.85380
5703.2,0.84762
5697.42,0.84497
5691.63,0.83718
5685.84,0.83239
5680.06,0.82614
5674.27,0.82240
5668.49,0.81269
5662.7,0.81295
5656.91,0.82580
5651.13,0.84040
5645.34,0.85115
5639.56,0.85837
5633.77,0.86078
5627.98,0.86503
5622.2,0.86781
5616.41,0.86983
5610.63,0.87078
5604.84,0.87252
5599.05,0.87502
5593.27,0.87639
5587.48,0.87609
5581.69,0.87689
5575.91,0.87236
5570.12,0.87652
5564.34,0.86963
5558.55,0.87133
5552.76,0.86944
5546.98,0.87207
5541.19,0.87424
5535.41,0.87200
5529.62,0.87326
5523.83,0.87138
5518.05,0.87196
5512.26,0.87226
5506.47,0.86646
5500.69,0.87339
5494.9,0.86265
5489.12,0.86346
5483.33,0.87686
5477.54,0.86946
5471.76,0.87033
5465.97,0.86894
5460.19,0.86964
5454.4,0.87706
5448.61,0.86545
5442.83,0.85978
5437.04,0.87194
5431.25,0.86740
5425.47,0.87635
5419.68,0.88696
5413.9,0.86002
5408.11,0.87283
5402.32,0.88569
5396.54,0.87862
5390.75,0.88546
5384.97,0.87929
5379.18,0.88330
5373.39,0.88177
5367.61,0.89408
5361.82,0.89033
5356.04,0.88607
5350.25,0.87985
5344.46,0.87219
5338.68,0.87279
5332.89,0.89056
5327.1,0.88673
5321.32,0.89993
5315.53,0.89664
5309.75,0.89520
5303.96,0.89505
5298.17,0.89890
5292.39,0.89402
5286.6,0.89506
5280.82,0.89458
5275.03,0.90055
5269.24,0.89562
5263.46,0.88129
5257.67,0.89442
5251.88,0.89336
5246.1,0.87812
5240.31,0.89748
5234.53,0.89534
5228.74,0.89139
5222.95,0.89087
5217.17,0.89512
5211.38,0.89747
5205.6,0.88195
5199.81,0.89766
5194.02,0.89664
5188.24,0.89428
5182.45,0.89626
5176.66,0.90085
5170.88,0.89816
5165.09,0.89746
5159.31,0.89727
5153.52,0.89840
5147.73,0.90162
5141.95,0.90096
5136.16,0.90449
5130.38,0.90270
5124.59,0.90560
5118.8,0.90517
5113.02,0.90415
5107.23,0.90610
5101.45,0.90605
5095.66,0.90397
5089.87,0.90553
5084.09,0.90612
5078.3,0.90707
5072.51,0.90612
5066.73,0.90669
5060.94,0.90725
5055.16,0.90722
5049.37,0.90650
5043.58,0.90922
5037.8,0.90761
5032.01,0.90715
5026.23,0.90813
5020.44,0.90876
5014.65,0.90832
5008.87,0.90688
5003.08,0.90814
4997.29,0.90705
4991.51,0.90449
4985.72,0.90531
4979.94,0.90331
4974.15,0.90334
4968.36,0.90313
4962.58,0.90301
4956.79,0.90558
4951.01,0.90534
4945.22,0.90768
4939.43,0.90937
4933.65,0.90799
4927.86,0.90776
4922.07,0.90802
4916.29,0.91030
4910.5,0.90658
4904.72,0.90770
4898.93,0.90890
4893.14,0.90770
4887.36,0.90781
4881.57,0.90933
4875.79,0.90724
4870,0.90811
4864.21,0.90913
4858.43,0.90975
4852.64,0.90917
4846.85,0.90887
4841.07,0.90965
4835.28,0.91153
4829.5,0.91118
4823.71,0.91171
4817.92,0.91345
4812.14,0.91213
4806.35,0.91164
4800.57,0.91312
4794.78,0.91279
4788.99,0.91205
4783.21,0.91212
4777.42,0.91329
4771.64,0.91290
4765.85,0.91068
4760.06,0.90996
4754.28,0.91096
4748.49,0.91204
4742.7,0.91147
4736.92,0.91182
4731.13,0.91196
4725.35,0.91147
4719.56,0.91152
4713.77,0.91300
4707.99,0.91122
4702.2,0.91003
4696.42,0.90789
4690.63,0.90640
4684.84,0.90411
4679.06,0.90108
4673.27,0.90065
4667.48,0.90318
4661.7,0.90466
4655.91,0.90792
4650.13,0.91038
4644.34,0.91124
4638.55,0.91210
4632.77,0.91405
4626.98,0.91321
4621.2,0.91231
4615.41,0.91429
4609.62,0.91373
4603.84,0.91168
4598.05,0.91208
4592.26,0.91136
4586.48,0.91249
4580.69,0.91252
4574.91,0.91196
4569.12,0.91167
4563.33,0.91049
4557.55,0.91080
4551.76,0.91017
4545.98,0.90903
4540.19,0.90815
4534.4,0.90615
4528.62,0.90415
4522.83,0.90399
4517.05,0.90060
4511.26,0.89922
4505.47,0.89696
4499.69,0.89248
4493.9,0.88985
4488.11,0.88639
4482.33,0.88335
4476.54,0.87952
4470.76,0.87630
4464.97,0.87149
4459.18,0.86409
4453.4,0.85683
4447.61,0.84819
4441.83,0.83792
4436.04,0.82689
4430.25,0.82095
4424.47,0.81534
4418.68,0.80768
4412.89,0.79813
4407.11,0.78484
4401.32,0.77088
4395.54,0.75381
4389.75,0.73741
4383.96,0.71761
4378.18,0.69612
4372.39,0.67128
4366.61,0.64658
4360.82,0.61502
4355.03,0.57155
4349.25,0.51127
4343.46,0.44523
4337.67,0.39426
4331.89,0.34713
4326.1,0.27915
4320.32,0.28389
4314.53,0.44148
4308.74,0.55150
4302.96,0.59703
4297.17,0.61023
4291.39,0.60523
4285.6,0.59119
4279.81,0.57639
4274.03,0.55283
4268.24,0.51367
4262.46,0.45408
4256.67,0.38467
4250.88,0.36209
4245.1,0.45163
4239.31,0.51973
4233.52,0.53318
4227.74,0.51839
4221.95,0.50040
4216.17,0.50022
4210.38,0.50399
4204.59,0.49266
4198.81,0.46841
4193.02,0.45190
4187.24,0.45102
4181.45,0.45474
4175.66,0.45775
4169.88,0.46125
4164.09,0.46521
4158.3,0.47101
4152.52,0.47356
4146.73,0.47787
4140.95,0.48353
4135.16,0.48838
4129.37,0.49335
4123.59,0.49724
4117.8,0.50030
4112.02,0.50139
4106.23,0.50061
4100.44,0.50229
4094.66,0.50956
4088.87,0.52962
4083.08,0.55447
4077.3,0.57214
4071.51,0.58461
4065.73,0.59439
4059.94,0.60125
4054.15,0.60903
4048.37,0.61506
4042.58,0.62057
4036.8,0.62861
4031.01,0.63323
4025.22,0.63344
4019.44,0.64344
4013.65,0.66823
4007.86,0.68163
4002.08,0.68950
3996.29,0.69011
3990.51,0.68775
3984.72,0.68620
3978.93,0.68294
3973.15,0.68227
3967.36,0.69212
3961.58,0.69417
3955.79,0.69975
3950,0.69178
3944.22,0.69399
3938.43,0.70171
3932.65,0.68491
3926.86,0.68331
3921.07,0.68094
3915.29,0.68413
3909.5,0.69433
3903.71,0.65778
3897.93,0.67726
3892.14,0.67753
3886.36,0.68021
3880.57,0.67718
3874.78,0.68304
3869,0.67306
3863.21,0.68066
3857.43,0.69362
3851.64,0.67531
3845.85,0.70974
3840.07,0.67112
3834.28,0.68866
3828.49,0.70506
3822.71,0.68486
3816.92,0.68701
3811.14,0.72474
3805.35,0.70469
3799.56,0.70173
3793.78,0.74508
3787.99,0.75165
3782.21,0.74407
3776.42,0.75546
3770.63,0.74411
3764.85,0.74724
3759.06,0.73471
3753.27,0.71656
3747.49,0.70064
3741.7,0.72344
3735.92,0.69540
3730.13,0.73433
3724.34,0.72771
3718.56,0.75003
3712.77,0.72537
3706.99,0.74230
3701.2,0.74047
3695.41,0.74046
3689.63,0.69420
3683.84,0.73717
3678.06,0.70526
3672.27,0.69378
3666.48,0.72491
3660.7,0.72752
3654.91,0.69927
3649.12,0.63920
3643.34,0.68999
3637.55,0.70696
3631.77,0.69625
3625.98,0.70065
3620.19,0.68779
3614.41,0.66875
3608.62,0.64982
3602.84,0.65468
3597.05,0.68992
3591.26,0.74593
3585.48,0.75967
3579.69,0.78898
3573.9,0.79616
3568.12,0.76899
3562.33,0.79352
3556.55,0.81327
3550.76,0.80799
3544.97,0.80176
3539.19,0.82345
3533.4,0.82342
3527.62,0.80813
3521.83,0.81565
3516.04,0.82766
3510.26,0.81887
3504.47,0.81151
3498.68,0.81850
3492.9,0.81772
3487.11,0.80853
3481.33,0.79103
3475.54,0.77053
3469.75,0.72683
3463.97,0.67771
3458.18,0.65567
3452.4,0.66658
3446.61,0.69078
3440.82,0.73408
3435.04,0.76672
3429.25,0.78603
3423.47,0.79479
3417.68,0.80201
3411.89,0.80901
3406.11,0.80916
3400.32,0.80717
3394.53,0.80402
3388.75,0.80444
3382.96,0.79943
3377.18,0.79939
3371.39,0.79727
3365.6,0.79635
3359.82,0.80176
3354.03,0.80765
3348.25,0.81333
3342.46,0.81515
3336.67,0.81566
3330.89,0.81982
3325.1,0.82002
3319.31,0.82171
3313.53,0.82159
3307.74,0.82207
3301.96,0.82264
3296.17,0.82235
3290.38,0.82138
3284.6,0.82135
3278.81,0.81909
3273.03,0.81779
3267.24,0.81933
3261.45,0.81635
3255.67,0.81390
3249.88,0.81329
3244.09,0.80971
3238.31,0.80897
3232.52,0.80425
3226.74,0.80122
3220.95,0.79616
3215.16,0.79082
3209.38,0.78594
3203.59,0.77956
3197.81,0.77388
3192.02,0.76935
3186.23,0.76317
3180.45,0.75678
3174.66,0.75283
3168.87,0.74700
3163.09,0.74242
3157.3,0.73662
3151.52,0.73057
3145.73,0.72301
3139.94,0.71615
3134.16,0.70500
3128.37,0.69500
3122.59,0.67959
3116.8,0.66296
3111.01,0.64562
3105.23,0.62042
3099.44,0.58564
3093.66,0.54463
3087.87,0.50742
3082.08,0.48140
3076.3,0.46089
3070.51,0.44020
3064.72,0.41606
3058.94,0.39185
3053.15,0.36425
3047.37,0.33333
3041.58,0.30033
3035.79,0.26464
3030.01,0.23100
3024.22,0.20231
3018.44,0.17803
3012.65,0.15908
3006.86,0.14118
3001.08,0.11775
2995.29,0.08952
2989.5,0.06018
2983.72,0.03339
2977.93,0.01306
2972.15,0.00334
2966.36,0.00082
2960.57,0.00031
2954.79,0.00057
2949,0.00022
2943.22,0.00036
2937.43,0.00063
2931.64,0.00053
2925.86,0.00049
2920.07,0.00031
2914.28,0.00051
2908.5,0.00059
2902.71,0.00069
2896.93,0.00016
2891.14,0.00070
2885.35,0.00041
2879.57,0.00063
2873.78,0.00033
2868,0.00071
2862.21,0.00053
2856.42,0.00047
2850.64,0.00015
2844.85,0.00017
2839.07,0.00068
2833.28,0.00064
2827.49,0.00232
2821.71,0.00853
2815.92,0.01922
2810.13,0.03531
2804.35,0.05514
2798.56,0.07978
2792.78,0.10930
2786.99,0.14347
2781.2,0.17902
2775.42,0.21091
2769.63,0.23487
2763.85,0.25077
2758.06,0.26337
2752.27,0.27376
2746.49,0.27693
2740.7,0.27773
2734.91,0.28283
2729.13,0.29341
2723.34,0.30863
2717.56,0.32302
2711.77,0.33554
2705.98,0.34553
2700.2,0.34953
2694.41,0.34257
2688.63,0.32751
2682.84,0.31649
2677.05,0.31030
2671.27,0.30798
2665.48,0.31303
2659.69,0.32159
2653.91,0.33085
2648.12,0.33975
2642.34,0.34317
2636.55,0.34508
2630.76,0.35949
2624.98,0.38485
2619.19,0.41007
2613.41,0.43343
2607.62,0.45650
2601.83,0.47756
2596.05,0.49657
2590.26,0.51896
2584.47,0.54431
2578.69,0.56713
2572.9,0.58738
2567.12,0.60613
2561.33,0.62160
2555.54,0.62976
2549.76,0.63739
2543.97,0.65459
2538.19,0.66377
2532.4,0.65804
2526.61,0.66104
2520.83,0.67831
2515.04,0.69183
2509.26,0.70215
2503.47,0.70649
2497.68,0.70430
2491.9,0.70221
2486.11,0.69952
2480.32,0.69346
2474.54,0.69084
2468.75,0.70770
2462.97,0.72453
2457.18,0.73601
2451.39,0.74850
2445.61,0.75796
2439.82,0.75918
2434.04,0.75838
2428.25,0.75747
2422.46,0.74823
2416.68,0.73805
2410.89,0.74113
2405.1,0.74524
2399.32,0.74460
2393.53,0.74516
2387.75,0.74645
2381.96,0.72484
2376.17,0.67525
2370.39,0.62699
2364.6,0.58698
2358.82,0.56746
2353.03,0.58517
2347.24,0.59643
2341.46,0.55930
2335.67,0.55976
2329.88,0.56288
2324.1,0.57940
2318.31,0.60648
2312.53,0.63294
2306.74,0.65968
2300.95,0.68122
2295.17,0.70018
2289.38,0.71706
2283.6,0.72798
2277.81,0.72835
2272.02,0.73441
2266.24,0.74472
2260.45,0.74839
2254.67,0.75168
2248.88,0.75734
2243.09,0.76498
2237.31,0.77840
2231.52,0.79202
2225.73,0.79677
2219.95,0.79479
2214.16,0.79485
2208.38,0.79370
2202.59,0.78859
2196.8,0.77896
2191.02,0.77148
2185.23,0.76435
2179.45,0.75643
2173.66,0.75107
2167.87,0.74753
2162.09,0.74340
2156.3,0.73961
2150.51,0.74138
2144.73,0.75155
2138.94,0.76522
2133.16,0.77700
2127.37,0.78740
2121.58,0.79359
2115.8,0.79486
2110.01,0.79760
2104.23,0.79968
2098.44,0.79856
2092.65,0.79600
2086.87,0.79626
2081.08,0.79468
2075.29,0.79020
2069.51,0.78657
2063.72,0.78022
2057.94,0.77390
2052.15,0.76483
2046.36,0.75509
2040.58,0.74167
2034.79,0.73072
2029.01,0.71759
2023.22,0.70091
2017.43,0.69243
2011.65,0.73234
2005.86,0.76473
2000.08,0.78016
1994.29,0.78467
1988.5,0.79307
1982.72,0.80403
1976.93,0.80175
1971.14,0.79659
1965.36,0.78928
1959.57,0.79026
1953.79,0.78421
1948,0.78192
1942.21,0.77276
1936.43,0.78177
1930.64,0.77808
1924.86,0.76809
1919.07,0.75549
1913.28,0.75246
1907.5,0.73602
1901.71,0.72752
1895.92,0.70652
1890.14,0.70637
1884.35,0.72255
1878.57,0.71863
1872.78,0.70121
1866.99,0.67575
1861.21,0.69671
1855.42,0.69884
1849.64,0.69553
1843.85,0.67445
1838.06,0.67853
1832.28,0.65596
1826.49,0.62935
1820.7,0.61882
1814.92,0.59662
1809.13,0.57024
1803.35,0.54604
1797.56,0.50517
1791.77,0.46089
1785.99,0.43460
1780.2,0.38117
1774.42,0.32131
1768.63,0.22501
1762.84,0.12575
1757.06,0.04896
1751.27,0.00750
1745.48,0.00041
1739.7,0.00074
1733.91,0.00032
1728.13,0.00037
1722.34,0.01324
1716.55,0.07352
1710.77,0.15377
1704.98,0.19378
1699.2,0.19595
1693.41,0.26133
1687.62,0.33749
1681.84,0.42525
1676.05,0.47412
1670.27,0.48948
1664.48,0.52243
1658.69,0.52449
1652.91,0.47578
1647.12,0.45896
1641.33,0.54985
1635.55,0.57738
1629.76,0.63334
1623.98,0.63013
1618.19,0.63437
1612.4,0.65896
1606.62,0.65928
1600.83,0.65602
1595.05,0.65272
1589.26,0.65562
1583.47,0.64708
1577.69,0.61499
1571.9,0.61045
1566.11,0.59198
1560.33,0.55689
1554.54,0.56205
1548.76,0.57061
1542.97,0.51642
1537.18,0.53218
1531.4,0.52820
1525.61,0.49604
1519.83,0.47172
1514.04,0.47358
1508.25,0.42521
1502.47,0.42515
1496.68,0.37678
1490.89,0.32739
1485.11,0.24180
1479.32,0.10914
1473.54,0.00588
1467.75,0.00014
1461.96,0.00044
1456.18,0.00097
1450.39,0.00461
1444.61,0.00947
1438.82,0.01142
1433.03,0.02252
1427.25,0.06464
1421.46,0.13354
1415.68,0.21468
1409.89,0.26633
1404.1,0.28332
1398.32,0.25487
1392.53,0.18127
1386.74,0.07615
1380.96,0.01087
1375.17,0.00078
1369.39,0.00081
1363.6,0.00243
1357.81,0.01329
1352.03,0.03835
1346.24,0.11823
1340.46,0.21709
1334.67,0.30559
1328.88,0.32441
1323.1,0.29632
1317.31,0.24280
1311.52,0.19294
1305.74,0.15945
1299.95,0.13970
1294.17,0.12633
1288.38,0.10622
1282.59,0.07648
1276.81,0.04336
1271.02,0.01606
1265.24,0.00249
1259.45,0.00026
1253.66,0.00072
1247.88,0.00036
1242.09,0.00040
1236.3,0.00037
1230.52,0.00030
1224.73,0.00027
1218.95,0.00341
1213.16,0.01736
1207.37,0.04798
1201.59,0.08977
1195.8,0.12970
1190.02,0.16411
1184.23,0.19062
1178.44,0.20743
1172.66,0.22069
1166.87,0.22286
1161.09,0.20960
1155.3,0.17864
1149.51,0.14453
1143.73,0.13393
1137.94,0.13044
1132.15,0.12125
1126.37,0.11994
1120.58,0.13142
1114.8,0.14472
1109.01,0.15703
1103.22,0.16115
1097.44,0.15519
1091.65,0.14226
1085.87,0.12541
1080.08,0.10852
1074.29,0.09377
1068.51,0.08140
1062.72,0.07510
1056.93,0.06544
1051.15,0.04498
1045.36,0.02899
1039.58,0.02419
1033.79,0.01402
1028,0.00319
1022.22,0.00016
1016.43,0.00152
1010.65,0.01943
1004.86,0.08221
999.073,0.15695
993.287,0.20676
987.501,0.23231
981.715,0.23369
975.929,0.21475
970.142,0.18251
964.356,0.15186
958.57,0.14120
952.784,0.15212
946.998,0.17151
941.212,0.17918
935.426,0.18937
929.64,0.27664
923.853,0.38526
918.067,0.43904
912.281,0.46013
906.495,0.47429
900.709,0.48497
894.923,0.48232
889.137,0.48763
883.35,0.50031
877.564,0.50413
871.778,0.49716
865.992,0.50123
860.206,0.52048
854.42,0.53341
848.634,0.55331
842.847,0.57244
837.061,0.58787
831.275,0.60387
825.489,0.61997
819.703,0.61814
813.917,0.60182
808.131,0.58710
802.344,0.57104
796.558,0.57164
790.772,0.60346
784.986,0.62459
779.2,0.61058
773.414,0.59024
767.628,0.58012
761.842,0.56535
756.055,0.53379
750.269,0.49360
744.483,0.42551
738.697,0.30755
732.911,0.10142
727.125,0.01071
721.339,0.00272
715.552,0.04968
709.766,0.27147
703.98,0.47728
698.194,0.61435
692.408,0.70100
686.622,0.72301
680.836,0.74385
675.049,0.75186
669.263,0.69328
663.477,0.74057
657.691,0.71827
651.905,0.64722
646.119,0.56998
640.333,0.56923
634.546,0.57010
628.76,0.49309
622.974,0.54297
617.188,0.51448
611.402,0.27068
605.616,0.27086
599.83,0.51536