File: 01_Data/PEVA/FTIR/IS/PEVA_0.10_IS_S_240808_R4.dpt
7496.93,0.08755
7491.14,0.08315
7485.35,0.09870
7479.57,0.09625
7473.78,0.09693
7468,0.10311
7462.21,0.09146
7456.42,0.10004
7450.64,0.10061
7444.85,0.09902
7439.06,0.09402
7433.28,0.10511
7427.49,0.10631
7421.71,0.09004
7415.92,0.09612
7410.13,0.10383
7404.35,0.10069
7398.56,0.09689
7392.78,0.09635
7386.99,0.10250
7381.2,0.08846
7375.42,0.09041
7369.63,0.09792
7363.84,0.09675
7358.06,0.09655
7352.27,0.11265
7346.49,0.08704
7340.7,0.09854
7334.91,0.09996
7329.13,0.10370
7323.34,0.09006
7317.56,0.09318
7311.77,0.08675
7305.98,0.09914
7300.2,0.08933
7294.41,0.08323
7288.62,0.09233
7282.84,0.09252
7277.05,0.09717
7271.27,0.08889
7265.48,0.09294
7259.69,0.09551
7253.91,0.10293
7248.12,0.09862
7242.34,0.09850
7236.55,0.09181
7230.76,0.08552
7224.98,0.08939
7219.19,0.08265
7213.4,0.09601
7207.62,0.09558
7201.83,0.10143
7196.05,0.09171
7190.26,0.09332
7184.47,0.08529
7178.69,0.09045
7172.9,0.10778
7167.12,0.09568
7161.33,0.09139
7155.54,0.09144
7149.76,0.08535
7143.97,0.09215
7138.18,0.09489
7132.4,0.09757
7126.61,0.09818
7120.83,0.08105
7115.04,0.09124
7109.25,0.09227
7103.47,0.08889
7097.68,0.09767
7091.9,0.09610
7086.11,0.10180
7080.32,0.09641
7074.54,0.09642
7068.75,0.09348
7062.96,0.09661
7057.18,0.09862
7051.39,0.09781
7045.61,0.08769
7039.82,0.09122
7034.03,0.09203
7028.25,0.10124
7022.46,0.09716
7016.68,0.08860
7010.89,0.09569
7005.1,0.09748
6999.32,0.08713
6993.53,0.09017
6987.74,0.10116
6981.96,0.09161
6976.17,0.09971
6970.39,0.09461
6964.6,0.09726
6958.81,0.09573
6953.03,0.09906
6947.24,0.09115
6941.46,0.09542
6935.67,0.08971
6929.88,0.09140
6924.1,0.08973
6918.31,0.09976
6912.52,0.09591
6906.74,0.09943
6900.95,0.09774
6895.17,0.09785
6889.38,0.09220
6883.59,0.10105
6877.81,0.09999
6872.02,0.09551
6866.24,0.08892
6860.45,0.08832
6854.66,0.09580
6848.88,0.09540
6843.09,0.09233
6837.3,0.09088
6831.52,0.09487
6825.73,0.09600
6819.95,0.09310
6814.16,0.09625
6808.37,0.09487
6802.59,0.09447
6796.8,0.10084
6791.02,0.09678
6785.23,0.09890
6779.44,0.09383
6773.66,0.09692
6767.87,0.09689
6762.08,0.10472
6756.3,0.10263
6750.51,0.09899
6744.73,0.10016
6738.94,0.09207
6733.15,0.09494
6727.37,0.09615
6721.58,0.10261
6715.8,0.10283
6710.01,0.09837
6704.22,0.09890
6698.44,0.09788
6692.65,0.10184
6686.86,0.09569
6681.08,0.09426
6675.29,0.09044
6669.51,0.09621
6663.72,0.10265
6657.93,0.09316
6652.15,0.09635
6646.36,0.09535
6640.58,0.10074
6634.79,0.09338
6629,0.09182
6623.22,0.09319
6617.43,0.09224
6611.64,0.08974
6605.86,0.09996
6600.07,0.09860
6594.29,0.09644
6588.5,0.10361
6582.71,0.09836
6576.93,0.09188
6571.14,0.09703
6565.36,0.09291
6559.57,0.09380
6553.78,0.09625
6548,0.09715
6542.21,0.09857
6536.42,0.09995
6530.64,0.09041
6524.85,0.09794
6519.07,0.09680
6513.28,0.09781
6507.49,0.09768
6501.71,0.10106
6495.92,0.09639
6490.14,0.09140
6484.35,0.09566
6478.56,0.09447
6472.78,0.09508
6466.99,0.09425
6461.2,0.09970
6455.42,0.10001
6449.63,0.09523
6443.85,0.10031
6438.06,0.09272
6432.27,0.09662
6426.49,0.09751
6420.7,0.09475
6414.92,0.09749
6409.13,0.09878
6403.34,0.09364
6397.56,0.09118
6391.77,0.09489
6385.98,0.09914
6380.2,0.09667
6374.41,0.09593
6368.63,0.09635
6362.84,0.09979
6357.05,0.09499
6351.27,0.09738
6345.48,0.09899
6339.7,0.10190
6333.91,0.09202
6328.12,0.09834
6322.34,0.09526
6316.55,0.09808
6310.76,0.09347
6304.98,0.09186
6299.19,0.09068
6293.41,0.09981
6287.62,0.10234
6281.83,0.09607
6276.05,0.09320
6270.26,0.09771
6264.48,0.09453
6258.69,0.09578
6252.9,0.09870
6247.12,0.09594
6241.33,0.09655
6235.54,0.09468
6229.76,0.09804
6223.97,0.09842
6218.19,0.09936
6212.4,0.09994
6206.61,0.09422
6200.83,0.09456
6195.04,0.09700
6189.26,0.09498
6183.47,0.09410
6177.68,0.09294
6171.9,0.09979
6166.11,0.09783
6160.32,0.09863
6154.54,0.09613
6148.75,0.09647
6142.97,0.09841
6137.18,0.09668
6131.39,0.09600
6125.61,0.09579
6119.82,0.09792
6114.04,0.09272
6108.25,0.09938
6102.46,0.09431
6096.68,0.09815
6090.89,0.09364
6085.1,0.09406
6079.32,0.09706
6073.53,0.09693
6067.75,0.09566
6061.96,0.10068
6056.17,0.09857
6050.39,0.09944
6044.6,0.09348
6038.82,0.09586
6033.03,0.09836
6027.24,0.10083
6021.46,0.10117
6015.67,0.09853
6009.88,0.09880
6004.1,0.09905
5998.31,0.09639
5992.53,0.09789
5986.74,0.09761
5980.95,0.09534
5975.17,0.09318
5969.38,0.10002
5963.6,0.09741
5957.81,0.09415
5952.02,0.09542
5946.24,0.09467
5940.45,0.09522
5934.66,0.09583
5928.88,0.09369
5923.09,0.09561
5917.31,0.09305
5911.52,0.09490
5905.73,0.09368
5899.95,0.09743
5894.16,0.09578
5888.38,0.09822
5882.59,0.09561
5876.8,0.09387
5871.02,0.09637
5865.23,0.09590
5859.44,0.09281
5853.66,0.09375
5847.87,0.09381
5842.09,0.09240
5836.3,0.09253
5830.51,0.09213
5824.73,0.09094
5818.94,0.09161
5813.16,0.09208
5807.37,0.08613
5801.58,0.08873
5795.8,0.08639
5790.01,0.08712
5784.22,0.08786
5778.44,0.08555
5772.65,0.08490
5766.87,0.08737
5761.08,0.08939
5755.29,0.08972
5749.51,0.09169
5743.72,0.09047
5737.94,0.09087
5732.15,0.09275
5726.36,0.09538
5720.58,0.09190
5714.79,0.09549
5709,0.09399
5703.22,0.09541
5697.43,0.09451
5691.65,0.09416
5685.86,0.09333
5680.07,0.09150
5674.29,0.08931
5668.5,0.08872
5662.72,0.09029
5656.93,0.09142
5651.14,0.09308
5645.36,0.09350
5639.57,0.09368
5633.78,0.09413
5628,0.09584
5622.21,0.09238
5616.43,0.09382
5610.64,0.09460
5604.85,0.09625
5599.07,0.09378
5593.28,0.09623
5587.5,0.09498
5581.71,0.09534
5575.92,0.09542
5570.14,0.09290
5564.35,0.09451
5558.56,0.09582
5552.78,0.09492
5546.99,0.09431
5541.21,0.09493
5535.42,0.09557
5529.63,0.09547
5523.85,0.09548
5518.06,0.09475
5512.28,0.09404
5506.49,0.09492
5500.7,0.09386
5494.92,0.09478
5489.13,0.09599
5483.34,0.09685
5477.56,0.09484
5471.77,0.09669
5465.99,0.09204
5460.2,0.09558
5454.41,0.09632
5448.63,0.09657
5442.84,0.09432
5437.06,0.09512
5431.27,0.09322
5425.48,0.09576
5419.7,0.09787
5413.91,0.09695
5408.12,0.09781
5402.34,0.09754
5396.55,0.09840
5390.77,0.09553
5384.98,0.09467
5379.19,0.09716
5373.41,0.09843
5367.62,0.09911
5361.84,0.09646
5356.05,0.09663
5350.26,0.09882
5344.48,0.09943
5338.69,0.09745
5332.9,0.09855
5327.12,0.09622
5321.33,0.09587
5315.55,0.09684
5309.76,0.09859
5303.97,0.09837
5298.19,0.09793
5292.4,0.09790
5286.62,0.09810
5280.83,0.09685
5275.04,0.09707
5269.26,0.09758
5263.47,0.09709
5257.68,0.09642
5251.9,0.09711
5246.11,0.09639
5240.33,0.09594
5234.54,0.09802
5228.75,0.09732
5222.97,0.09816
5217.18,0.09761
5211.4,0.09691
5205.61,0.09757
5199.82,0.09816
5194.04,0.09803
5188.25,0.09655
5182.46,0.09678
5176.68,0.09760
5170.89,0.09645
5165.11,0.09869
5159.32,0.09819
5153.53,0.09808
5147.75,0.09655
5141.96,0.09733
5136.18,0.09768
5130.39,0.09782
5124.6,0.09742
5118.82,0.09737
5113.03,0.09759
5107.24,0.09719
5101.46,0.09645
5095.67,0.09697
5089.89,0.09854
5084.1,0.09647
5078.31,0.09615
5072.53,0.09792
5066.74,0.09756
5060.96,0.09842
5055.17,0.09844
5049.38,0.10029
5043.6,0.09823
5037.81,0.09703
5032.02,0.09673
5026.24,0.09858
5020.45,0.09855
5014.67,0.09870
5008.88,0.09825
5003.09,0.09760
4997.31,0.09710
4991.52,0.09917
4985.74,0.09731
4979.95,0.09949
4974.16,0.09809
4968.38,0.09815
4962.59,0.09738
4956.8,0.09713
4951.02,0.09747
4945.23,0.09994
4939.45,0.09875
4933.66,0.09856
4927.87,0.09716
4922.09,0.09768
4916.3,0.09853
4910.52,0.09860
4904.73,0.09982
4898.94,0.09771
4893.16,0.09833
4887.37,0.09842
4881.58,0.09856
4875.8,0.10073
4870.01,0.09780
4864.23,0.09907
4858.44,0.09783
4852.65,0.09982
4846.87,0.09942
4841.08,0.10068
4835.3,0.10043
4829.51,0.09805
4823.72,0.09830
4817.94,0.09860
4812.15,0.09892
4806.36,0.09893
4800.58,0.09953
4794.79,0.09981
4789.01,0.09869
4783.22,0.09996
4777.43,0.10009
4771.65,0.09995
4765.86,0.09936
4760.08,0.09814
4754.29,0.09885
4748.5,0.09910
4742.72,0.09989
4736.93,0.10107
4731.14,0.10095
4725.36,0.09968
4719.57,0.09935
4713.79,0.09950
4708,0.10012
4702.21,0.10138
4696.43,0.10001
4690.64,0.09999
4684.86,0.09927
4679.07,0.09948
4673.28,0.10080
4667.5,0.10066
4661.71,0.09964
4655.92,0.09976
4650.14,0.09832
4644.35,0.09925
4638.57,0.10021
4632.78,0.10142
4626.99,0.10157
4621.21,0.10003
4615.42,0.09923
4609.64,0.09952
4603.85,0.09970
4598.06,0.10107
4592.28,0.10061
4586.49,0.10092
4580.7,0.09823
4574.92,0.09896
4569.13,0.09934
4563.35,0.10047
4557.56,0.10082
4551.77,0.10064
4545.99,0.09913
4540.2,0.10018
4534.42,0.09881
4528.63,0.10040
4522.84,0.10112
4517.06,0.09961
4511.27,0.09881
4505.48,0.09753
4499.7,0.09871
4493.91,0.10015
4488.13,0.09985
4482.34,0.09984
4476.55,0.09897
4470.77,0.09818
4464.98,0.09835
4459.2,0.09876
4453.41,0.09877
4447.62,0.09817
4441.84,0.09679
4436.05,0.09739
4430.26,0.09770
4424.48,0.09748
4418.69,0.09740
4412.91,0.09560
4407.12,0.09392
4401.33,0.09340
4395.55,0.09237
4389.76,0.09140
4383.98,0.09147
4378.19,0.08968
4372.4,0.08782
4366.62,0.08676
4360.83,0.08521
4355.04,0.08326
4349.26,0.08128
4343.47,0.07669
4337.69,0.07274
4331.9,0.07067
4326.11,0.06634
4320.33,0.06643
4314.54,0.07505
4308.76,0.08223
4302.97,0.08436
4297.18,0.08404
4291.4,0.08357
4285.61,0.08349
4279.82,0.08379
4274.04,0.08277
4268.25,0.07967
4262.47,0.07498
4256.68,0.07144
4250.89,0.07103
4245.11,0.07607
4239.32,0.08057
4233.54,0.08112
4227.75,0.07916
4221.96,0.07782
4216.18,0.07841
4210.39,0.07899
4204.6,0.07930
4198.82,0.07614
4193.03,0.07411
4187.25,0.07413
4181.46,0.07574
4175.67,0.07627
4169.89,0.07658
4164.1,0.07693
4158.32,0.07556
4152.53,0.07583
4146.74,0.07643
4140.96,0.07723
4135.17,0.07747
4129.38,0.07695
4123.6,0.07626
4117.81,0.07701
4112.03,0.07679
4106.24,0.07795
4100.45,0.07736
4094.67,0.07771
4088.88,0.07926
4083.1,0.08108
4077.31,0.08172
4071.52,0.08316
4065.74,0.08331
4059.95,0.08427
4054.16,0.08363
4048.38,0.08371
4042.59,0.08414
4036.81,0.08572
4031.02,0.08621
4025.23,0.08672
4019.45,0.08634
4013.66,0.08720
4007.88,0.08810
4002.09,0.08890
3996.3,0.08926
3990.52,0.09040
3984.73,0.08878
3978.94,0.08832
3973.16,0.08849
3967.37,0.08931
3961.59,0.08969
3955.8,0.09067
3950.01,0.09013
3944.23,0.08898
3938.44,0.08808
3932.66,0.08877
3926.87,0.08949
3921.08,0.08980
3915.3,0.08837
3909.51,0.08835
3903.72,0.08700
3897.94,0.08763
3892.15,0.08922
3886.37,0.09026
3880.58,0.08893
3874.79,0.08905
3869.01,0.08802
3863.22,0.08892
3857.44,0.09055
3851.65,0.09020
3845.86,0.09139
3840.08,0.08978
3834.29,0.08837
3828.5,0.08978
3822.72,0.09142
3816.93,0.09144
3811.15,0.09106
3805.36,0.09022
3799.57,0.09012
3793.79,0.09133
3788,0.09221
3782.22,0.09338
3776.43,0.09319
3770.64,0.09225
3764.86,0.09165
3759.07,0.09278
3753.28,0.09269
3747.5,0.09290
3741.71,0.09389
3735.93,0.09302
3730.14,0.09210
3724.35,0.09114
3718.57,0.09288
3712.78,0.09342
3707,0.09269
3701.21,0.09287
3695.42,0.09150
3689.64,0.09067
3683.85,0.09126
3678.06,0.09234
3672.28,0.09256
3666.49,0.09105
3660.71,0.09043
3654.92,0.08975
3649.13,0.08927
3643.35,0.08905
3637.56,0.09072
3631.78,0.09039
3625.99,0.08907
3620.2,0.08883
3614.42,0.08713
3608.63,0.08545
3602.84,0.08547
3597.06,0.08914
3591.27,0.09185
3585.49,0.09189
3579.7,0.09238
3573.91,0.09385
3568.13,0.09531
3562.34,0.09529
3556.56,0.09500
3550.77,0.09395
3544.98,0.09470
3539.2,0.09613
3533.41,0.09691
3527.62,0.09608
3521.84,0.09514
3516.05,0.09452
3510.27,0.09474
3504.48,0.09538
3498.69,0.09642
3492.91,0.09587
3487.12,0.09535
3481.34,0.09336
3475.55,0.09392
3469.76,0.09527
3463.98,0.09605
3458.19,0.09426
3452.4,0.09341
3446.62,0.09214
3440.83,0.09224
3435.05,0.09359
3429.26,0.09373
3423.47,0.09404
3417.69,0.09240
3411.9,0.09192
3406.12,0.09239
3400.33,0.09310
3394.54,0.09320
3388.76,0.09387
3382.97,0.09220
3377.18,0.09077
3371.4,0.09118
3365.61,0.09245
3359.83,0.09413
3354.04,0.09383
3348.25,0.09259
3342.47,0.09188
3336.68,0.09183
3330.9,0.09272
3325.11,0.09415
3319.32,0.09413
3313.54,0.09317
3307.75,0.09158
3301.96,0.09220
3296.18,0.09376
3290.39,0.09540
3284.61,0.09407
3278.82,0.09278
3273.03,0.09171
3267.25,0.09342
3261.46,0.09398
3255.68,0.09371
3249.89,0.09321
3244.1,0.09084
3238.32,0.09169
3232.53,0.09186
3226.74,0.09347
3220.96,0.09278
3215.17,0.09221
3209.39,0.09108
3203.6,0.08992
3197.81,0.09149
3192.03,0.09170
3186.24,0.09077
3180.46,0.08910
3174.67,0.08817
3168.88,0.08953
3163.1,0.09005
3157.31,0.08943
3151.52,0.08819
3145.74,0.08600
3139.95,0.08622
3134.17,0.08672
3128.38,0.08701
3122.59,0.08506
3116.81,0.08333
3111.02,0.08285
3105.24,0.08196
3099.45,0.08055
3093.66,0.07714
3087.88,0.07471
3082.09,0.07321
3076.3,0.07345
3070.52,0.07243
3064.73,0.06973
3058.95,0.06785
3053.16,0.06720
3047.37,0.06692
3041.59,0.06458
3035.8,0.06229
3030.02,0.06135
3024.23,0.06117
3018.44,0.05956
3012.66,0.05846
3006.87,0.05714
3001.08,0.05566
2995.3,0.05447
2989.51,0.05295
2983.73,0.05149
2977.94,0.05021
2972.15,0.04893
2966.37,0.04816
2960.58,0.04676
2954.8,0.04599
2949.01,0.04392
2943.22,0.04097
2937.44,0.03856
2931.65,0.03929
2925.86,0.04842
2920.08,0.07269
2914.29,0.08773
2908.51,0.07822
2902.72,0.07241
2896.93,0.06928
2891.15,0.06822
2885.36,0.06665
2879.58,0.06421
2873.79,0.06114
2868,0.05851
2862.22,0.05537
2856.43,0.05375
2850.64,0.07020
2844.86,0.08375
2839.07,0.07605
2833.29,0.07161
2827.5,0.06974
2821.71,0.06784
2815.93,0.06739
2810.14,0.06696
2804.36,0.06668
2798.57,0.06660
2792.78,0.06700
2787,0.06787
2781.21,0.06908
2775.42,0.06960
2769.64,0.07178
2763.85,0.07239
2758.07,0.07230
2752.28,0.07288
2746.49,0.07318
2740.71,0.07309
2734.92,0.07274
2729.14,0.07223
2723.35,0.07406
2717.56,0.07460
2711.78,0.07458
2705.99,0.07404
2700.2,0.07539
2694.42,0.07553
2688.63,0.07521
2682.85,0.07388
2677.06,0.07268
2671.27,0.07232
2665.49,0.07258
2659.7,0.07341
2653.92,0.07305
2648.13,0.07283
2642.34,0.07237
2636.56,0.07287
2630.77,0.07412
2624.98,0.07586
2619.2,0.07631
2613.41,0.07664
2607.63,0.07828
2601.84,0.08089
2596.05,0.08196
2590.27,0.08244
2584.48,0.08295
2578.7,0.08400
2572.91,0.08559
2567.12,0.08809
2561.34,0.08878
2555.55,0.08824
2549.76,0.08765
2543.98,0.08888
2538.19,0.09055
2532.41,0.09131
2526.62,0.09097
2520.83,0.09120
2515.05,0.09168
2509.26,0.09258
2503.48,0.09458
2497.69,0.09596
2491.9,0.09520
2486.12,0.09424
2480.33,0.09379
2474.55,0.09486
2468.76,0.09698
2462.97,0.09813
2457.19,0.09765
2451.4,0.09578
2445.61,0.09567
2439.83,0.09698
2434.04,0.09824
2428.26,0.09778
2422.47,0.09555
2416.68,0.09370
2410.9,0.09393
2405.11,0.09557
2399.32,0.09739
2393.54,0.09740
2387.75,0.09576
2381.97,0.09399
2376.18,0.09409
2370.39,0.09513
2364.61,0.09603
2358.82,0.09425
2353.04,0.09057
2347.25,0.08834
2341.46,0.08757
2335.68,0.08895
2329.89,0.09000
2324.11,0.09086
2318.32,0.09074
2312.53,0.09038
2306.75,0.09109
2300.96,0.09296
2295.17,0.09536
2289.39,0.09634
2283.6,0.09459
2277.82,0.09305
2272.03,0.09344
2266.24,0.09578
2260.46,0.09847
2254.67,0.09883
2248.89,0.09714
2243.1,0.09499
2237.31,0.09515
2231.53,0.09744
2225.74,0.09980
2219.95,0.10046
2214.17,0.09862
2208.38,0.09662
2202.6,0.09562
2196.81,0.09719
2191.02,0.09922
2185.24,0.10063
2179.45,0.09881
2173.67,0.09605
2167.88,0.09524
2162.09,0.09654
2156.31,0.09886
2150.52,0.09939
2144.73,0.09823
2138.95,0.09614
2133.16,0.09525
2127.38,0.09713
2121.59,0.10049
2115.8,0.10244
2110.02,0.10097
2104.23,0.09758
2098.45,0.09577
2092.66,0.09694
2086.87,0.10007
2081.09,0.10203
2075.3,0.10048
2069.51,0.09654
2063.73,0.09370
2057.94,0.09459
2052.16,0.09775
2046.37,0.09992
2040.58,0.09833
2034.8,0.09402
2029.01,0.09044
2023.23,0.08951
2017.44,0.09213
2011.65,0.09814
2005.87,0.10067
2000.08,0.09850
1994.29,0.09494
1988.51,0.09466
1982.72,0.09888
1976.94,0.10271
1971.15,0.10347
1965.36,0.09920
1959.58,0.09496
1953.79,0.09413
1948.01,0.09733
1942.22,0.10182
1936.43,0.10328
1930.65,0.09962
1924.86,0.09444
1919.07,0.09265
1913.29,0.09528
1907.5,0.09979
1901.72,0.10052
1895.93,0.09725
1890.14,0.09323
1884.36,0.09190
1878.57,0.09573
1872.79,0.10172
1867,0.10466
1861.21,0.10271
1855.43,0.09656
1849.64,0.09305
1843.85,0.09562
1838.07,0.10169
1832.28,0.10554
1826.5,0.10236
1820.71,0.09539
1814.92,0.09086
1809.14,0.09282
1803.35,0.09916
1797.57,0.10473
1791.78,0.10274
1785.99,0.09596
1780.21,0.09032
1774.42,0.09059
1768.63,0.09700
1762.85,0.10224
1757.06,0.09981
1751.28,0.09133
1745.49,0.08363
1739.7,0.08421
1733.92,0.09265
1728.13,0.10052
1722.35,0.09989
1716.56,0.09269
1710.77,0.08668
1704.99,0.08648
1699.2,0.09302
1693.41,0.10143
1687.63,0.10349
1681.84,0.09544
1676.06,0.08789
1670.27,0.08534
1664.48,0.09161
1658.7,0.10089
1652.91,0.10089
1647.13,0.09588
1641.34,0.08568
1635.55,0.08319
1629.77,0.08965
1623.98,0.09833
1618.19,0.10145
1612.41,0.09498
1606.62,0.08480
1600.84,0.08169
1595.05,0.08844
1589.26,0.09757
1583.48,0.10062
1577.69,0.09427
1571.91,0.08369
1566.12,0.08086
1560.33,0.08563
1554.55,0.09661
1548.76,0.09850
1542.97,0.09070
1537.19,0.07736
1531.4,0.07832
1525.62,0.08604
1519.83,0.09322
1514.04,0.08980
1508.26,0.07814
1502.47,0.07039
1496.69,0.07628
1490.9,0.07989
1485.11,0.06352
1479.33,0.05648
1473.54,0.05217
1467.75,0.05618
1461.97,0.05986
1456.18,0.06057
1450.4,0.06108
1444.61,0.05916
1438.82,0.05832
1433.04,0.06418
1427.25,0.07992
1421.47,0.08374
1415.68,0.07373
1409.89,0.07505
1404.11,0.08850
1398.32,0.09578
1392.53,0.08790
1386.75,0.07242
1380.96,0.06132
1375.18,0.06245
1369.39,0.06775
1363.6,0.07305
1357.82,0.07371
1352.03,0.06630
1346.25,0.06316
1340.46,0.06824
1334.67,0.08280
1328.89,0.09198
1323.1,0.08541
1317.31,0.07148
1311.53,0.06352
1305.74,0.06692
1299.96,0.07607
1294.17,0.08476
1288.38,0.08576
1282.6,0.07639
1276.81,0.06937
1271.03,0.07265
1265.24,0.08451
1259.45,0.09535
1253.67,0.09414
1247.88,0.08247
1242.09,0.07355
1236.31,0.07739
1230.52,0.08952
1224.74,0.10066
1218.95,0.09843
1213.16,0.08518
1207.38,0.07487
1201.59,0.07778
1195.81,0.09069
1190.02,0.10072
1184.23,0.09820
1178.45,0.08513
1172.66,0.07481
1166.87,0.07661
1161.09,0.08909
1155.3,0.09987
1149.52,0.09835
1143.73,0.08626
1137.94,0.07568
1132.16,0.07751
1126.37,0.09014
1120.59,0.10249
1114.8,0.10262
1109.01,0.08931
1103.23,0.07776
1097.44,0.07753
1091.65,0.08879
1085.87,0.09965
1080.08,0.09932
1074.3,0.09070
1068.51,0.07839
1062.72,0.07807
1056.94,0.08987
1051.15,0.10341
1045.37,0.10681
1039.58,0.09497
1033.79,0.08172
1028.01,0.07995
1022.22,0.08972
1016.43,0.10316
1010.65,0.11028
1004.86,0.10125
999.076,0.08466
993.29,0.07933
987.504,0.09163
981.717,0.10836
975.931,0.11228
970.145,0.09935
964.359,0.08115
958.573,0.07555
952.787,0.08826
947,0.10673
941.214,0.11352
935.428,0.10122
929.642,0.08193
923.856,0.07412
918.07,0.08734
912.284,0.10669
906.497,0.11340
900.711,0.10222
894.925,0.08005
889.139,0.07159
883.353,0.08502
877.567,0.10698
871.78,0.11623
865.994,0.10353
860.208,0.08079
854.422,0.07104
848.636,0.08344
842.85,0.10745
837.064,0.11731
831.277,0.10376
825.491,0.08033
819.705,0.06778
813.919,0.08222
808.133,0.10628
802.347,0.11541
796.56,0.09888
790.774,0.07283
784.988,0.06260
779.202,0.07681
773.416,0.09798
767.63,0.10533
761.844,0.08843
756.057,0.06241
750.271,0.05897
744.485,0.08108
738.699,0.08112
732.913,0.05184
727.127,0.05669
721.34,0.05541
715.554,0.06803
709.768,0.07165
703.982,0.05552
698.196,0.07772
692.41,0.11637
686.624,0.12238
680.837,0.09315
675.051,0.06154
669.265,0.06739
663.479,0.10537
657.693,0.13328
651.907,0.12560
646.12,0.08862
640.334,0.05878
634.548,0.07181
628.762,0.11101
622.976,0.13982
617.19,0.12750
611.404,0.08872
605.617,0.05771
599.831,0.06988