File: 01_Data/PEVA/FTIR/IS/PEVA_0.10_IS_Trans_T_240819_R1.dpt
7496.91,0.01413
7491.12,0.03091
7485.33,0.04196
7479.55,0.00973
7473.76,0.03946
7467.98,0.03303
7462.19,0.01271
7456.4,0.01465
7450.62,0.00936
7444.83,0.03098
7439.04,0.00869
7433.26,0.01974
7427.47,0.03233
7421.69,0.02652
7415.9,0.01936
7410.11,0.01197
7404.33,0.04131
7398.54,0.02638
7392.76,0.01919
7386.97,0.00755
7381.18,0.02768
7375.4,0.01741
7369.61,0.02296
7363.83,0.04108
7358.04,0.01242
7352.25,0.03256
7346.47,0.03971
7340.68,0.01933
7334.89,0.03128
7329.11,0.00995
7323.32,0.04768
7317.54,0.03103
7311.75,0.03583
7305.96,0.01124
7300.18,0.01838
7294.39,0.02672
7288.61,0.01732
7282.82,0.01687
7277.03,0.02166
7271.25,0.01415
7265.46,0.03178
7259.67,0.03457
7253.89,0.02942
7248.1,0.02539
7242.32,0.01940
7236.53,0.03337
7230.74,0.03030
7224.96,0.00281
7219.17,0.00623
7213.39,0.02318
7207.6,0.01843
7201.81,0.02497
7196.03,0.01606
7190.24,0.03046
7184.45,0.01569
7178.67,0.01601
7172.88,0.01033
7167.1,0.01335
7161.31,0.02711
7155.52,0.02164
7149.74,0.01242
7143.95,0.00727
7138.17,0.01042
7132.38,0.02489
7126.59,0.01281
7120.81,0.02183
7115.02,0.01744
7109.23,0.00730
7103.45,0.02711
7097.66,0.01056
7091.88,0.01316
7086.09,0.01219
7080.3,0.02817
7074.52,0.00360
7068.73,0.01755
7062.95,0.01875
7057.16,0.02659
7051.37,0.02449
7045.59,0.01108
7039.8,0.02389
7034.02,0.02317
7028.23,-0.00006
7022.44,0.02859
7016.66,0.01485
7010.87,0.01457
7005.08,0.01463
6999.3,0.01522
6993.51,0.02290
6987.73,0.00578
6981.94,0.01150
6976.15,0.01355
6970.37,0.02211
6964.58,0.01020
6958.8,0.01866
6953.01,0.01445
6947.22,0.01078
6941.44,0.02472
6935.65,0.00350
6929.86,0.00442
6924.08,0.01956
6918.29,0.02047
6912.51,0.00971
6906.72,0.00786
6900.93,0.00634
6895.15,0.00945
6889.36,0.00749
6883.58,0.01285
6877.79,0.00372
6872,0.02933
6866.22,0.00544
6860.43,0.02078
6854.64,0.02252
6848.86,0.00937
6843.07,0.01474
6837.29,0.00137
6831.5,0.01084
6825.71,0.01415
6819.93,0.01401
6814.14,0.01422
6808.36,0.01971
6802.57,0.01454
6796.78,0.01098
6791,0.01192
6785.21,0.01573
6779.43,0.02154
6773.64,0.02418
6767.85,0.00143
6762.07,0.01152
6756.28,0.01064
6750.49,0.02538
6744.71,0.01618
6738.92,0.02200
6733.14,0.00869
6727.35,0.01373
6721.56,0.02021
6715.78,0.01110
6709.99,0.01172
6704.21,0.00968
6698.42,0.00228
6692.63,0.01869
6686.85,0.00456
6681.06,0.01214
6675.27,0.01537
6669.49,0.01879
6663.7,0.00478
6657.92,0.02033
6652.13,0.01057
6646.34,0.02012
6640.56,0.01789
6634.77,-0.00180
6628.99,0.00903
6623.2,0.01648
6617.41,0.00533
6611.63,0.01531
6605.84,0.01440
6600.05,0.00831
6594.27,0.01575
6588.48,0.01761
6582.7,0.01938
6576.91,0.00756
6571.12,0.00688
6565.34,0.01913
6559.55,0.02146
6553.77,0.00530
6547.98,0.02090
6542.19,0.00607
6536.41,0.01164
6530.62,0.01466
6524.84,0.01197
6519.05,0.00692
6513.26,0.01056
6507.48,0.00498
6501.69,0.01936
6495.9,0.00482
6490.12,0.01006
6484.33,0.01227
6478.55,0.01099
6472.76,0.01361
6466.97,0.00840
6461.19,-0.00418
6455.4,0.00427
6449.62,0.01875
6443.83,0.00662
6438.04,0.01553
6432.26,0.00423
6426.47,0.00988
6420.68,0.02099
6414.9,0.00798
6409.11,0.00454
6403.33,0.00700
6397.54,0.00796
6391.75,0.00573
6385.97,0.00775
6380.18,0.00999
6374.4,0.01364
6368.61,0.00766
6362.82,0.00969
6357.04,0.01072
6351.25,0.00406
6345.46,0.01289
6339.68,0.00900
6333.89,0.00278
6328.11,0.00295
6322.32,0.01498
6316.53,0.00979
6310.75,0.01060
6304.96,0.00965
6299.18,0.00576
6293.39,0.00403
6287.6,0.00672
6281.82,0.01520
6276.03,0.01423
6270.24,0.00547
6264.46,0.00976
6258.67,0.00977
6252.89,0.01065
6247.1,0.00834
6241.31,0.01171
6235.53,0.00806
6229.74,0.00627
6223.96,0.00363
6218.17,0.00995
6212.38,0.00788
6206.6,0.00657
6200.81,0.01029
6195.03,0.01301
6189.24,0.00208
6183.45,0.00140
6177.67,0.00038
6171.88,0.00966
6166.09,0.01239
6160.31,0.00357
6154.52,0.00737
6148.74,0.00494
6142.95,0.00061
6137.16,0.00480
6131.38,0.00708
6125.59,0.00351
6119.81,0.00047
6114.02,0.00351
6108.23,0.01861
6102.45,0.00977
6096.66,0.00899
6090.87,0.01011
6085.09,0.00586
6079.3,0.01000
6073.52,0.00713
6067.73,0.00292
6061.94,0.00577
6056.16,0.00660
6050.37,0.00108
6044.59,0.01085
6038.8,0.00792
6033.01,0.00927
6027.23,0.00795
6021.44,0.01081
6015.65,0.00714
6009.87,0.01066
6004.08,0.00182
5998.3,0.00448
5992.51,-0.00060
5986.72,0.00811
5980.94,0.00046
5975.15,0.00417
5969.37,0.00697
5963.58,0.00806
5957.79,0.00806
5952.01,0.00404
5946.22,0.00158
5940.44,0.00676
5934.65,0.00330
5928.86,0.01137
5923.08,0.00346
5917.29,0.00558
5911.5,0.01151
5905.72,0.00426
5899.93,0.01003
5894.15,0.00433
5888.36,0.00392
5882.57,0.00883
5876.79,0.00328
5871,0.00397
5865.22,0.00894
5859.43,0.00230
5853.64,0.00565
5847.86,0.00617
5842.07,0.00646
5836.28,0.00238
5830.5,0.00476
5824.71,0.00556
5818.93,0.01011
5813.14,0.00428
5807.35,0.00769
5801.57,0.00364
5795.78,0.00671
5790,0.00738
5784.21,0.00128
5778.42,-0.00135
5772.64,0.00433
5766.85,0.00631
5761.06,0.00678
5755.28,0.00445
5749.49,0.00505
5743.71,0.00855
5737.92,0.00950
5732.13,0.00686
5726.35,0.00483
5720.56,0.00853
5714.78,0.00414
5708.99,0.00561
5703.2,0.00383
5697.42,0.00810
5691.63,0.01055
5685.84,0.00428
5680.06,0.00911
5674.27,0.00415
5668.49,0.00412
5662.7,0.00194
5656.91,0.00558
5651.13,0.00285
5645.34,0.00476
5639.56,0.00154
5633.77,0.00841
5627.98,0.00461
5622.2,0.00769
5616.41,0.00489
5610.63,0.00494
5604.84,0.00547
5599.05,0.00545
5593.27,0.00015
5587.48,0.00403
5581.69,0.00461
5575.91,0.00704
5570.12,0.00376
5564.34,0.00456
5558.55,0.00243
5552.76,0.00504
5546.98,0.00860
5541.19,0.00447
5535.41,0.00397
5529.62,0.00248
5523.83,0.00636
5518.05,0.00486
5512.26,0.00323
5506.47,0.00514
5500.69,0.00560
5494.9,0.00649
5489.12,0.00546
5483.33,0.00546
5477.54,0.00735
5471.76,0.00473
5465.97,0.00430
5460.19,0.00277
5454.4,0.00406
5448.61,0.00368
5442.83,0.00603
5437.04,0.00190
5431.25,0.00394
5425.47,0.00002
5419.68,0.00390
5413.9,0.00509
5408.11,0.00267
5402.32,0.00503
5396.54,0.00118
5390.75,0.00350
5384.97,0.00409
5379.18,0.00516
5373.39,0.00396
5367.61,0.00505
5361.82,0.00075
5356.04,0.00528
5350.25,0.00376
5344.46,0.00284
5338.68,0.00149
5332.89,0.00445
5327.1,0.00536
5321.32,0.00240
5315.53,0.00344
5309.75,0.00416
5303.96,0.00059
5298.17,0.00504
5292.39,0.00265
5286.6,0.00270
5280.82,0.00101
5275.03,0.00193
5269.24,0.00401
5263.46,0.00310
5257.67,0.00436
5251.88,0.00266
5246.1,0.00271
5240.31,0.00465
5234.53,0.00034
5228.74,0.00555
5222.95,0.00341
5217.17,0.00238
5211.38,0.00417
5205.6,0.00323
5199.81,0.00399
5194.02,0.00323
5188.24,0.00289
5182.45,0.00354
5176.66,0.00177
5170.88,0.00344
5165.09,0.00066
5159.31,0.00504
5153.52,0.00141
5147.73,0.00127
5141.95,0.00193
5136.16,0.00440
5130.38,0.00541
5124.59,0.00348
5118.8,0.00195
5113.02,0.00306
5107.23,0.00151
5101.45,0.00161
5095.66,0.00291
5089.87,0.00205
5084.09,0.00290
5078.3,0.00215
5072.51,0.00330
5066.73,0.00449
5060.94,0.00427
5055.16,0.00469
5049.37,0.00360
5043.58,0.00195
5037.8,0.00165
5032.01,0.00071
5026.23,0.00393
5020.44,0.00347
5014.65,0.00260
5008.87,0.00144
5003.08,0.00384
4997.29,0.00081
4991.51,0.00295
4985.72,0.00249
4979.94,0.00437
4974.15,0.00292
4968.36,0.00186
4962.58,0.00221
4956.79,0.00161
4951.01,0.00275
4945.22,0.00361
4939.43,0.00323
4933.65,0.00345
4927.86,0.00173
4922.07,0.00104
4916.29,0.00321
4910.5,0.00055
4904.72,0.00132
4898.93,0.00108
4893.14,0.00264
4887.36,0.00264
4881.57,0.00254
4875.79,0.00292
4870,0.00231
4864.21,0.00357
4858.43,0.00334
4852.64,0.00232
4846.85,0.00173
4841.07,0.00261
4835.28,0.00350
4829.5,0.00162
4823.71,0.00140
4817.92,0.00247
4812.14,0.00126
4806.35,0.00187
4800.57,0.00332
4794.78,0.00312
4788.99,0.00257
4783.21,0.00081
4777.42,0.00185
4771.64,0.00235
4765.85,0.00232
4760.06,0.00132
4754.28,0.00128
4748.49,0.00257
4742.7,0.00073
4736.92,0.00294
4731.13,0.00252
4725.35,0.00108
4719.56,0.00237
4713.77,0.00250
4707.99,0.00318
4702.2,0.00081
4696.42,0.00206
4690.63,0.00047
4684.84,0.00398
4679.06,0.00219
4673.27,0.00191
4667.48,0.00065
4661.7,0.00190
4655.91,0.00373
4650.13,0.00038
4644.34,0.00152
4638.55,0.00191
4632.77,0.00054
4626.98,0.00247
4621.2,0.00293
4615.41,0.00342
4609.62,0.00186
4603.84,0.00210
4598.05,0.00232
4592.26,0.00195
4586.48,0.00117
4580.69,0.00127
4574.91,0.00216
4569.12,0.00292
4563.33,0.00204
4557.55,0.00057
4551.76,0.00247
4545.98,0.00110
4540.19,0.00251
4534.4,0.00102
4528.62,0.00234
4522.83,0.00198
4517.05,0.00065
4511.26,0.00126
4505.47,0.00259
4499.69,0.00112
4493.9,0.00187
4488.11,0.00231
4482.33,0.00221
4476.54,0.00143
4470.76,0.00095
4464.97,0.00303
4459.18,0.00341
4453.4,0.00077
4447.61,0.00180
4441.83,0.00229
4436.04,0.00139
4430.25,0.00091
4424.47,0.00121
4418.68,0.00300
4412.89,0.00098
4407.11,0.00153
4401.32,0.00239
4395.54,0.00128
4389.75,0.00188
4383.96,0.00021
4378.18,0.00141
4372.39,0.00114
4366.61,0.00202
4360.82,0.00156
4355.03,0.00086
4349.25,0.00240
4343.46,0.00113
4337.67,0.00060
4331.89,0.00178
4326.1,0.00246
4320.32,0.00145
4314.53,0.00016
4308.74,0.00328
4302.96,0.00209
4297.17,0.00235
4291.39,0.00153
4285.6,0.00167
4279.81,0.00219
4274.03,-0.00028
4268.24,0.00189
4262.46,0.00139
4256.67,0.00070
4250.88,0.00101
4245.1,0.00151
4239.31,0.00093
4233.52,0.00166
4227.74,0.00094
4221.95,0.00093
4216.17,0.00075
4210.38,0.00292
4204.59,0.00203
4198.81,0.00116
4193.02,0.00156
4187.24,0.00146
4181.45,0.00140
4175.66,0.00133
4169.88,0.00100
4164.09,0.00082
4158.3,0.00075
4152.52,0.00155
4146.73,0.00206
4140.95,0.00160
4135.16,0.00211
4129.37,-0.00013
4123.59,0.00130
4117.8,0.00140
4112.02,0.00002
4106.23,0.00164
4100.44,0.00185
4094.66,0.00186
4088.87,0.00130
4083.08,0.00033
4077.3,0.00086
4071.51,0.00097
4065.73,0.00166
4059.94,0.00177
4054.15,0.00001
4048.37,0.00104
4042.58,0.00225
4036.8,0.00139
4031.01,0.00119
4025.22,0.00125
4019.44,-0.00003
4013.65,0.00166
4007.86,0.00123
4002.08,0.00046
3996.29,0.00143
3990.51,0.00066
3984.72,0.00199
3978.93,0.00159
3973.15,0.00065
3967.36,0.00151
3961.58,0.00145
3955.79,0.00225
3950,0.00137
3944.22,0.00225
3938.43,0.00041
3932.65,-0.00008
3926.86,0.00165
3921.07,0.00096
3915.29,0.00086
3909.5,0.00179
3903.71,0.00187
3897.93,0.00054
3892.14,0.00105
3886.36,0.00287
3880.57,0.00184
3874.78,0.00103
3869,0.00028
3863.21,0.00189
3857.43,0.00112
3851.64,0.00272
3845.85,0.00053
3840.07,0.00078
3834.28,0.00047
3828.49,0.00171
3822.71,0.00304
3816.92,0.00142
3811.14,0.00168
3805.35,0.00014
3799.56,0.00102
3793.78,-0.00030
3787.99,0.00181
3782.21,0.00107
3776.42,0.00065
3770.63,0.00023
3764.85,0.00069
3759.06,0.00211
3753.27,0.00048
3747.49,0.00105
3741.7,0.00125
3735.92,-0.00064
3730.13,0.00297
3724.34,0.00129
3718.56,0.00087
3712.77,0.00224
3706.99,0.00146
3701.2,0.00122
3695.41,0.00135
3689.63,0.00171
3683.84,0.00137
3678.06,0.00080
3672.27,0.00220
3666.48,0.00087
3660.7,0.00162
3654.91,0.00007
3649.12,0.00177
3643.34,0.00037
3637.55,0.00097
3631.77,0.00064
3625.98,0.00266
3620.19,0.00239
3614.41,0.00371
3608.62,0.00184
3602.84,0.00050
3597.05,0.00307
3591.26,0.00247
3585.48,0.00145
3579.69,0.00244
3573.9,0.00127
3568.12,0.00172
3562.33,0.00110
3556.55,0.00102
3550.76,0.00020
3544.97,0.00307
3539.19,0.00072
3533.4,0.00110
3527.62,0.00185
3521.83,0.00139
3516.04,0.00338
3510.26,0.00076
3504.47,0.00118
3498.68,0.00115
3492.9,0.00149
3487.11,0.00079
3481.33,0.00079
3475.54,0.00096
3469.75,0.00058
3463.97,0.00132
3458.18,0.00196
3452.4,0.00113
3446.61,0.00006
3440.82,0.00111
3435.04,0.00216
3429.25,0.00056
3423.47,0.00363
3417.68,0.00165
3411.89,0.00156
3406.11,0.00192
3400.32,0.00141
3394.53,0.00328
3388.75,0.00085
3382.96,0.00192
3377.18,0.00051
3371.39,0.00148
3365.6,0.00309
3359.82,0.00265
3354.03,0.00094
3348.25,0.00027
3342.46,0.00233
3336.67,0.00131
3330.89,0.00117
3325.1,0.00198
3319.31,0.00192
3313.53,0.00188
3307.74,0.00230
3301.96,0.00186
3296.17,0.00084
3290.38,0.00128
3284.6,0.00336
3278.81,0.00149
3273.03,0.00120
3267.24,0.00232
3261.45,0.00103
3255.67,0.00153
3249.88,0.00217
3244.09,0.00222
3238.31,0.00014
3232.52,0.00192
3226.74,-0.00054
3220.95,0.00041
3215.16,0.00076
3209.38,0.00016
3203.59,0.00095
3197.81,0.00214
3192.02,0.00202
3186.23,0.00092
3180.45,0.00248
3174.66,0.00177
3168.87,0.00230
3163.09,0.00224
3157.3,0.00153
3151.52,-0.00011
3145.73,0.00119
3139.94,0.00151
3134.16,0.00078
3128.37,0.00135
3122.59,0.00138
3116.8,0.00116
3111.01,0.00083
3105.23,0.00117
3099.44,0.00106
3093.66,0.00165
3087.87,0.00051
3082.08,0.00096
3076.3,0.00104
3070.51,0.00064
3064.72,0.00052
3058.94,0.00084
3053.15,0.00127
3047.37,0.00058
3041.58,0.00149
3035.79,0.00184
3030.01,-0.00017
3024.22,0.00126
3018.44,0.00124
3012.65,0.00100
3006.86,0.00090
3001.08,0.00042
2995.29,0.00145
2989.5,0.00095
2983.72,0.00122
2977.93,0.00122
2972.15,0.00117
2966.36,0.00075
2960.57,0.00081
2954.79,0.00167
2949,0.00154
2943.22,0.00114
2937.43,0.00062
2931.64,0.00127
2925.86,0.00086
2920.07,0.00007
2914.28,0.00152
2908.5,0.00087
2902.71,0.00052
2896.93,0.00099
2891.14,0.00028
2885.35,0.00015
2879.57,0.00092
2873.78,0.00080
2868,0.00058
2862.21,0.00061
2856.42,0.00149
2850.64,0.00055
2844.85,0.00102
2839.07,0.00132
2833.28,0.00005
2827.49,0.00091
2821.71,0.00076
2815.92,0.00093
2810.13,0.00097
2804.35,0.00164
2798.56,0.00058
2792.78,0.00069
2786.99,0.00132
2781.2,0.00114
2775.42,0.00068
2769.63,0.00028
2763.85,0.00023
2758.06,0.00076
2752.27,0.00109
2746.49,0.00056
2740.7,0.00050
2734.91,0.00102
2729.13,0.00123
2723.34,0.00078
2717.56,0.00089
2711.77,0.00060
2705.98,0.00076
2700.2,0.00118
2694.41,0.00083
2688.63,0.00074
2682.84,0.00111
2677.05,0.00146
2671.27,0.00097
2665.48,0.00114
2659.69,0.00025
2653.91,0.00111
2648.12,0.00083
2642.34,0.00104
2636.55,0.00048
2630.76,0.00038
2624.98,0.00054
2619.19,0.00077
2613.41,0.00039
2607.62,0.00104
2601.83,0.00111
2596.05,0.00059
2590.26,0.00022
2584.47,0.00078
2578.69,0.00098
2572.9,0.00118
2567.12,0.00103
2561.33,0.00120
2555.54,0.00074
2549.76,0.00057
2543.97,0.00090
2538.19,0.00089
2532.4,0.00058
2526.61,0.00082
2520.83,0.00080
2515.04,0.00104
2509.26,0.00065
2503.47,0.00077
2497.68,0.00174
2491.9,0.00074
2486.11,0.00018
2480.32,0.00053
2474.54,0.00049
2468.75,0.00034
2462.97,0.00013
2457.18,0.00082
2451.39,0.00072
2445.61,0.00091
2439.82,0.00010
2434.04,0.00064
2428.25,0.00082
2422.46,0.00053
2416.68,0.00059
2410.89,0.00075
2405.1,0.00018
2399.32,0.00093
2393.53,0.00051
2387.75,0.00062
2381.96,0.00105
2376.17,0.00110
2370.39,0.00083
2364.6,0.00144
2358.82,-0.00007
2353.03,0.00084
2347.24,0.00111
2341.46,0.00120
2335.67,0.00147
2329.88,0.00032
2324.1,0.00134
2318.31,0.00118
2312.53,0.00065
2306.74,0.00061
2300.95,0.00072
2295.17,0.00080
2289.38,0.00055
2283.6,0.00073
2277.81,0.00030
2272.02,0.00043
2266.24,0.00070
2260.45,0.00042
2254.67,0.00082
2248.88,0.00047
2243.09,0.00048
2237.31,0.00060
2231.52,0.00028
2225.73,0.00104
2219.95,0.00046
2214.16,0.00061
2208.38,0.00093
2202.59,-0.00013
2196.8,0.00066
2191.02,0.00035
2185.23,0.00046
2179.45,0.00049
2173.66,0.00054
2167.87,0.00074
2162.09,0.00010
2156.3,0.00079
2150.51,0.00082
2144.73,0.00103
2138.94,0.00063
2133.16,0.00079
2127.37,0.00072
2121.58,0.00057
2115.8,0.00126
2110.01,0.00085
2104.23,0.00085
2098.44,0.00028
2092.65,0.00030
2086.87,0.00025
2081.08,0.00041
2075.29,0.00061
2069.51,0.00065
2063.72,0.00017
2057.94,0.00081
2052.15,0.00079
2046.36,0.00036
2040.58,0.00036
2034.79,0.00113
2029.01,0.00015
2023.22,0.00050
2017.43,0.00107
2011.65,0.00098
2005.86,0.00023
2000.08,0.00080
1994.29,-0.00011
1988.5,0.00087
1982.72,0.00061
1976.93,0.00040
1971.14,0.00074
1965.36,0.00036
1959.57,0.00054
1953.79,0.00103
1948,0.00051
1942.21,0.00052
1936.43,-0.00006
1930.64,0.00032
1924.86,0.00032
1919.07,-0.00002
1913.28,0.00056
1907.5,0.00106
1901.71,0.00066
1895.92,0.00055
1890.14,0.00075
1884.35,0.00038
1878.57,0.00041
1872.78,0.00117
1866.99,0.00106
1861.21,-0.00007
1855.42,0.00085
1849.64,0.00022
1843.85,0.00032
1838.06,0.00035
1832.28,0.00099
1826.49,0.00050
1820.7,0.00074
1814.92,0.00004
1809.13,0.00116
1803.35,0.00018
1797.56,0.00027
1791.77,0.00090
1785.99,0.00068
1780.2,0.00087
1774.42,0.00088
1768.63,0.00057
1762.84,0.00064
1757.06,0.00135
1751.27,0.00055
1745.48,0.00028
1739.7,0.00103
1733.91,0.00063
1728.13,0.00043
1722.34,0.00038
1716.55,0.00025
1710.77,0.00073
1704.98,0.00070
1699.2,0.00066
1693.41,0.00091
1687.62,0.00007
1681.84,0.00199
1676.05,0.00069
1670.27,0.00133
1664.48,0.00088
1658.69,0.00033
1652.91,0.00148
1647.12,0.00096
1641.33,0.00036
1635.55,0.00163
1629.76,-0.00005
1623.98,0.00094
1618.19,0.00095
1612.4,0.00054
1606.62,0.00088
1600.83,0.00066
1595.05,0.00039
1589.26,0.00039
1583.47,0.00090
1577.69,0.00130
1571.9,0.00018
1566.11,0.00100
1560.33,0.00078
1554.54,0.00037
1548.76,0.00034
1542.97,0.00178
1537.18,0.00043
1531.4,0.00072
1525.61,0.00060
1519.83,0.00246
1514.04,0.00033
1508.25,0.00119
1502.47,0.00114
1496.68,0.00115
1490.89,0.00050
1485.11,0.00007
1479.32,0.00073
1473.54,0.00127
1467.75,0.00074
1461.96,0.00047
1456.18,0.00129
1450.39,0.00049
1444.61,0.00039
1438.82,0.00099
1433.03,0.00149
1427.25,0.00120
1421.46,0.00068
1415.68,0.00101
1409.89,0.00001
1404.1,0.00082
1398.32,-0.00006
1392.53,0.00058
1386.74,0.00093
1380.96,-0.00019
1375.17,0.00039
1369.39,0.00047
1363.6,0.00065
1357.81,0.00139
1352.03,0.00131
1346.24,0.00056
1340.46,0.00053
1334.67,0.00078
1328.88,0.00047
1323.1,0.00081
1317.31,0.00054
1311.52,0.00033
1305.74,0.00087
1299.95,0.00035
1294.17,0.00057
1288.38,0.00067
1282.59,0.00109
1276.81,0.00114
1271.02,0.00038
1265.24,0.00058
1259.45,0.00081
1253.66,0.00084
1247.88,0.00011
1242.09,0.00116
1236.3,0.00102
1230.52,0.00108
1224.73,0.00060
1218.95,0.00032
1213.16,0.00040
1207.37,0.00059
1201.59,0.00092
1195.8,0.00136
1190.02,0.00042
1184.23,0.00187
1178.44,0.00071
1172.66,0.00032
1166.87,0.00131
1161.09,0.00119
1155.3,0.00214
1149.51,0.00081
1143.73,0.00019
1137.94,0.00154
1132.15,0.00098
1126.37,0.00050
1120.58,0.00026
1114.8,0.00156
1109.01,0.00144
1103.22,0.00098
1097.44,-0.00034
1091.65,0.00142
1085.87,0.00049
1080.08,0.00138
1074.29,0.00134
1068.51,0.00091
1062.72,0.00119
1056.93,0.00152
1051.15,0.00108
1045.36,0.00054
1039.58,0.00047
1033.79,0.00202
1028,0.00150
1022.22,0.00147
1016.43,0.00082
1010.65,0.00081
1004.86,0.00137
999.073,0.00077
993.287,0.00141
987.501,0.00103
981.715,0.00072
975.929,0.00069
970.142,0.00063
964.356,0.00123
958.57,0.00132
952.784,0.00088
946.998,0.00124
941.212,0.00008
935.426,-0.00002
929.64,0.00120
923.853,0.00083
918.067,0.00068
912.281,0.00050
906.495,0.00122
900.709,0.00165
894.923,0.00207
889.137,0.00092
883.35,0.00133
877.564,0.00125
871.778,0.00096
865.992,0.00179
860.206,0.00072
854.42,0.00129
848.634,0.00096
842.847,0.00131
837.061,0.00178
831.275,0.00106
825.489,0.00167
819.703,0.00208
813.917,0.00125
808.131,0.00125
802.344,0.00297
796.558,0.00164
790.772,0.00012
784.986,0.00228
779.2,0.00123
773.414,0.00076
767.628,0.00163
761.842,0.00002
756.055,0.00083
750.269,0.00254
744.483,0.00171
738.697,0.00108
732.911,0.00148
727.125,0.00099
721.339,0.00178
715.552,0.00222
709.766,0.00149
703.98,0.00323
698.194,0.00187
692.408,0.00164
686.622,0.00220
680.836,0.00086
675.049,0.00174
669.263,0.00278
663.477,0.00259
657.691,0.00450
651.905,-0.00027
646.119,0.00227
640.333,0.00148
634.546,0.00358
628.76,0.00371
622.974,0.00158
617.188,0.00113
611.402,0.00360
605.616,0.00365
599.83,0.00409