File: 01_Data/PEVA/FTIR/IS/PEVA_0.10_IS_Trans_T_240819_R3.dpt
7496.91,0.03452
7491.12,0.02861
7485.33,0.03465
7479.55,0.00884
7473.76,0.03185
7467.98,-0.00543
7462.19,0.01635
7456.4,0.02428
7450.62,0.03540
7444.83,0.00666
7439.04,0.01917
7433.26,0.01766
7427.47,0.00882
7421.69,0.04215
7415.9,0.03982
7410.11,0.01517
7404.33,0.04255
7398.54,0.01261
7392.76,0.00725
7386.97,0.02620
7381.18,0.03654
7375.4,0.01051
7369.61,0.00754
7363.83,0.02754
7358.04,0.03356
7352.25,0.02065
7346.47,0.01811
7340.68,0.02943
7334.89,0.01481
7329.11,0.02524
7323.32,0.02175
7317.54,0.03654
7311.75,0.02417
7305.96,0.02667
7300.18,0.00978
7294.39,0.01760
7288.61,0.01229
7282.82,0.00368
7277.03,0.03024
7271.25,0.00842
7265.46,0.00952
7259.67,0.02257
7253.89,0.02247
7248.1,0.03659
7242.32,0.03306
7236.53,0.01821
7230.74,0.02893
7224.96,0.01442
7219.17,0.01510
7213.39,0.02609
7207.6,0.01854
7201.81,0.01167
7196.03,0.02804
7190.24,0.00339
7184.45,0.01755
7178.67,0.01296
7172.88,0.02574
7167.1,0.02184
7161.31,0.01624
7155.52,0.01718
7149.74,0.01557
7143.95,0.01780
7138.17,0.02399
7132.38,0.02401
7126.59,0.02250
7120.81,0.02854
7115.02,0.01536
7109.23,0.01887
7103.45,0.01600
7097.66,0.01652
7091.88,0.02912
7086.09,0.01285
7080.3,0.02316
7074.52,-0.00081
7068.73,0.01849
7062.95,-0.00092
7057.16,0.00634
7051.37,0.01266
7045.59,0.02717
7039.8,0.01799
7034.02,0.01633
7028.23,0.00736
7022.44,0.01996
7016.66,0.02259
7010.87,0.00235
7005.08,0.01661
6999.3,0.01656
6993.51,0.01400
6987.73,0.01731
6981.94,0.01808
6976.15,0.01554
6970.37,0.01960
6964.58,0.01355
6958.8,0.01637
6953.01,0.02293
6947.22,0.01603
6941.44,0.01564
6935.65,0.01797
6929.86,0.01393
6924.08,0.01499
6918.29,0.02215
6912.51,0.01581
6906.72,0.02114
6900.93,0.01657
6895.15,0.01993
6889.36,0.02124
6883.58,0.00668
6877.79,0.00646
6872,0.01518
6866.22,0.00958
6860.43,0.01072
6854.64,0.01009
6848.86,0.00557
6843.07,0.02633
6837.29,0.01272
6831.5,0.00443
6825.71,0.01753
6819.93,0.01051
6814.14,0.00716
6808.36,0.00710
6802.57,0.01238
6796.78,0.01807
6791,0.02528
6785.21,0.01485
6779.43,0.01012
6773.64,0.00687
6767.85,0.02290
6762.07,0.01394
6756.28,0.01503
6750.49,0.01586
6744.71,0.01562
6738.92,0.01099
6733.14,0.02376
6727.35,0.01081
6721.56,0.01186
6715.78,0.01129
6709.99,0.01041
6704.21,0.01666
6698.42,0.01367
6692.63,0.00165
6686.85,0.00734
6681.06,0.01050
6675.27,0.01433
6669.49,0.01899
6663.7,0.00993
6657.92,0.01501
6652.13,0.01143
6646.34,0.01192
6640.56,0.00648
6634.77,0.00821
6628.99,0.00589
6623.2,0.01124
6617.41,0.02474
6611.63,0.00690
6605.84,0.00675
6600.05,0.01220
6594.27,0.01369
6588.48,0.01103
6582.7,0.00011
6576.91,0.01331
6571.12,0.01450
6565.34,0.00763
6559.55,-0.00138
6553.77,0.01534
6547.98,0.01122
6542.19,0.00407
6536.41,0.00770
6530.62,0.01345
6524.84,0.00483
6519.05,0.00708
6513.26,0.00399
6507.48,0.00685
6501.69,0.01065
6495.9,0.01023
6490.12,0.00561
6484.33,0.00812
6478.55,0.01370
6472.76,0.01358
6466.97,0.01498
6461.19,0.01060
6455.4,0.00248
6449.62,0.01537
6443.83,0.00515
6438.04,0.01198
6432.26,0.00447
6426.47,0.00651
6420.68,0.01557
6414.9,0.00690
6409.11,0.01142
6403.33,0.00993
6397.54,0.01212
6391.75,0.00994
6385.97,0.01173
6380.18,0.00817
6374.4,0.00676
6368.61,0.01298
6362.82,0.00518
6357.04,0.00541
6351.25,0.00424
6345.46,0.01244
6339.68,0.00208
6333.89,0.01255
6328.11,0.01070
6322.32,0.00510
6316.53,0.00713
6310.75,0.00540
6304.96,0.01294
6299.18,0.00344
6293.39,0.00660
6287.6,0.00503
6281.82,0.01425
6276.03,0.01092
6270.24,0.00388
6264.46,0.00282
6258.67,0.00652
6252.89,0.00374
6247.1,0.01223
6241.31,0.01440
6235.53,0.00400
6229.74,0.00519
6223.96,0.00491
6218.17,0.00917
6212.38,0.00858
6206.6,0.00778
6200.81,0.00588
6195.03,0.00285
6189.24,0.01191
6183.45,0.01271
6177.67,0.00566
6171.88,0.00638
6166.09,0.01667
6160.31,0.00614
6154.52,0.00461
6148.74,0.00694
6142.95,0.00293
6137.16,0.00389
6131.38,0.00675
6125.59,0.00741
6119.81,0.00875
6114.02,0.00609
6108.23,0.00571
6102.45,0.00053
6096.66,0.00560
6090.87,0.00538
6085.09,0.01128
6079.3,0.00736
6073.52,0.00844
6067.73,0.00957
6061.94,0.00225
6056.16,0.00862
6050.37,0.01066
6044.59,0.00277
6038.8,0.00243
6033.01,0.00614
6027.23,0.00235
6021.44,0.01273
6015.65,0.01024
6009.87,0.00204
6004.08,0.00733
5998.3,0.00254
5992.51,0.00822
5986.72,0.00196
5980.94,0.00655
5975.15,0.00330
5969.37,0.00804
5963.58,0.00526
5957.79,0.00251
5952.01,0.00752
5946.22,0.00805
5940.44,0.00388
5934.65,0.00399
5928.86,0.00251
5923.08,0.00439
5917.29,0.00177
5911.5,0.00505
5905.72,0.00500
5899.93,0.00842
5894.15,0.00967
5888.36,0.00535
5882.57,0.00857
5876.79,0.00715
5871,0.00462
5865.22,0.00359
5859.43,0.00631
5853.64,0.00162
5847.86,0.00249
5842.07,0.00488
5836.28,0.00451
5830.5,0.00561
5824.71,0.00544
5818.93,0.00740
5813.14,0.00338
5807.35,0.00478
5801.57,0.00628
5795.78,0.00125
5790,0.00558
5784.21,0.00145
5778.42,0.00580
5772.64,0.00253
5766.85,0.00526
5761.06,0.00620
5755.28,0.00841
5749.49,0.00526
5743.71,0.00219
5737.92,-0.00114
5732.13,0.00237
5726.35,0.00531
5720.56,0.00237
5714.78,0.00598
5708.99,0.00307
5703.2,0.00440
5697.42,0.00321
5691.63,0.00265
5685.84,0.00235
5680.06,0.00408
5674.27,0.00566
5668.49,0.00195
5662.7,0.00656
5656.91,0.00500
5651.13,0.00509
5645.34,0.00317
5639.56,0.00230
5633.77,0.00071
5627.98,0.00807
5622.2,0.00186
5616.41,0.00140
5610.63,0.00439
5604.84,0.00382
5599.05,0.00656
5593.27,0.00724
5587.48,0.00224
5581.69,0.00403
5575.91,0.00261
5570.12,0.00260
5564.34,0.00594
5558.55,0.01038
5552.76,0.00550
5546.98,0.00028
5541.19,0.00464
5535.41,0.00370
5529.62,0.00194
5523.83,0.00629
5518.05,0.00346
5512.26,0.00415
5506.47,0.00324
5500.69,0.00433
5494.9,0.00535
5489.12,0.00441
5483.33,0.00571
5477.54,0.00253
5471.76,0.00455
5465.97,0.00477
5460.19,0.00593
5454.4,0.00540
5448.61,0.00314
5442.83,0.00326
5437.04,0.00495
5431.25,0.00653
5425.47,0.00556
5419.68,0.00316
5413.9,0.00229
5408.11,0.00494
5402.32,0.00348
5396.54,0.00126
5390.75,0.00202
5384.97,0.00519
5379.18,0.00259
5373.39,0.00366
5367.61,0.00076
5361.82,0.00413
5356.04,0.00170
5350.25,0.00247
5344.46,0.00486
5338.68,0.00749
5332.89,0.00291
5327.1,0.00286
5321.32,0.00131
5315.53,0.00480
5309.75,0.00100
5303.96,0.00457
5298.17,0.00610
5292.39,0.00250
5286.6,0.00250
5280.82,0.00383
5275.03,0.00228
5269.24,0.00309
5263.46,0.00349
5257.67,0.00319
5251.88,0.00288
5246.1,0.00371
5240.31,0.00058
5234.53,0.00344
5228.74,0.00105
5222.95,0.00115
5217.17,0.00376
5211.38,0.00131
5205.6,0.00254
5199.81,0.00376
5194.02,0.00352
5188.24,0.00203
5182.45,0.00329
5176.66,0.00446
5170.88,0.00317
5165.09,0.00156
5159.31,0.00206
5153.52,0.00314
5147.73,0.00293
5141.95,0.00249
5136.16,0.00338
5130.38,0.00401
5124.59,0.00149
5118.8,0.00012
5113.02,0.00071
5107.23,0.00274
5101.45,0.00245
5095.66,0.00193
5089.87,0.00357
5084.09,0.00468
5078.3,0.00177
5072.51,0.00328
5066.73,0.00117
5060.94,0.00248
5055.16,0.00492
5049.37,0.00167
5043.58,0.00251
5037.8,0.00368
5032.01,0.00303
5026.23,0.00097
5020.44,0.00275
5014.65,0.00539
5008.87,0.00252
5003.08,0.00287
4997.29,0.00280
4991.51,0.00123
4985.72,0.00293
4979.94,0.00488
4974.15,0.00334
4968.36,0.00370
4962.58,0.00352
4956.79,0.00134
4951.01,0.00194
4945.22,0.00120
4939.43,0.00240
4933.65,0.00297
4927.86,0.00320
4922.07,0.00368
4916.29,-0.00013
4910.5,0.00193
4904.72,0.00159
4898.93,0.00264
4893.14,0.00139
4887.36,0.00447
4881.57,0.00444
4875.79,0.00210
4870,0.00156
4864.21,0.00246
4858.43,0.00320
4852.64,0.00171
4846.85,0.00219
4841.07,0.00301
4835.28,0.00052
4829.5,0.00211
4823.71,0.00254
4817.92,0.00125
4812.14,0.00404
4806.35,0.00139
4800.57,0.00082
4794.78,0.00321
4788.99,0.00032
4783.21,0.00237
4777.42,0.00184
4771.64,0.00163
4765.85,0.00364
4760.06,0.00260
4754.28,0.00147
4748.49,0.00163
4742.7,0.00215
4736.92,0.00151
4731.13,0.00066
4725.35,0.00237
4719.56,0.00137
4713.77,0.00133
4707.99,0.00094
4702.2,0.00098
4696.42,0.00292
4690.63,0.00330
4684.84,0.00080
4679.06,0.00207
4673.27,0.00161
4667.48,0.00147
4661.7,0.00046
4655.91,0.00336
4650.13,0.00238
4644.34,0.00072
4638.55,0.00195
4632.77,0.00200
4626.98,0.00111
4621.2,0.00029
4615.41,0.00076
4609.62,0.00228
4603.84,0.00250
4598.05,0.00340
4592.26,0.00087
4586.48,0.00060
4580.69,0.00149
4574.91,0.00074
4569.12,0.00190
4563.33,0.00065
4557.55,0.00178
4551.76,0.00097
4545.98,0.00226
4540.19,0.00202
4534.4,0.00120
4528.62,0.00147
4522.83,0.00070
4517.05,0.00201
4511.26,0.00080
4505.47,0.00202
4499.69,0.00049
4493.9,0.00096
4488.11,0.00272
4482.33,0.00053
4476.54,0.00069
4470.76,0.00191
4464.97,0.00178
4459.18,0.00041
4453.4,0.00240
4447.61,0.00090
4441.83,0.00121
4436.04,0.00191
4430.25,0.00202
4424.47,0.00141
4418.68,0.00161
4412.89,0.00115
4407.11,0.00156
4401.32,0.00121
4395.54,0.00056
4389.75,0.00020
4383.96,0.00063
4378.18,0.00205
4372.39,0.00133
4366.61,0.00247
4360.82,0.00186
4355.03,0.00142
4349.25,0.00247
4343.46,0.00239
4337.67,0.00029
4331.89,0.00133
4326.1,0.00025
4320.32,0.00312
4314.53,0.00121
4308.74,0.00223
4302.96,0.00079
4297.17,0.00119
4291.39,0.00159
4285.6,0.00131
4279.81,0.00163
4274.03,0.00044
4268.24,0.00160
4262.46,0.00127
4256.67,-0.00030
4250.88,0.00253
4245.1,0.00046
4239.31,0.00167
4233.52,0.00113
4227.74,0.00198
4221.95,0.00218
4216.17,0.00143
4210.38,0.00122
4204.59,0.00177
4198.81,0.00107
4193.02,0.00139
4187.24,0.00157
4181.45,0.00128
4175.66,0.00037
4169.88,0.00081
4164.09,0.00190
4158.3,0.00094
4152.52,0.00328
4146.73,0.00160
4140.95,0.00149
4135.16,0.00086
4129.37,0.00121
4123.59,0.00112
4117.8,0.00092
4112.02,0.00190
4106.23,0.00044
4100.44,0.00258
4094.66,0.00071
4088.87,0.00146
4083.08,0.00008
4077.3,0.00164
4071.51,0.00148
4065.73,0.00125
4059.94,0.00088
4054.15,0.00085
4048.37,0.00121
4042.58,0.00141
4036.8,0.00070
4031.01,0.00104
4025.22,0.00050
4019.44,0.00075
4013.65,0.00074
4007.86,0.00230
4002.08,0.00137
3996.29,0.00071
3990.51,0.00152
3984.72,0.00065
3978.93,0.00011
3973.15,0.00179
3967.36,0.00075
3961.58,0.00105
3955.79,0.00065
3950,0.00146
3944.22,0.00142
3938.43,0.00056
3932.65,0.00108
3926.86,0.00063
3921.07,0.00099
3915.29,0.00184
3909.5,0.00149
3903.71,0.00095
3897.93,0.00110
3892.14,0.00086
3886.36,0.00216
3880.57,0.00182
3874.78,0.00108
3869,0.00100
3863.21,0.00147
3857.43,0.00036
3851.64,0.00130
3845.85,0.00183
3840.07,0.00190
3834.28,0.00243
3828.49,0.00073
3822.71,0.00106
3816.92,0.00113
3811.14,0.00004
3805.35,0.00052
3799.56,0.00206
3793.78,0.00131
3787.99,0.00126
3782.21,0.00058
3776.42,0.00069
3770.63,0.00162
3764.85,0.00188
3759.06,0.00194
3753.27,0.00163
3747.49,0.00310
3741.7,0.00070
3735.92,0.00109
3730.13,0.00252
3724.34,0.00117
3718.56,0.00110
3712.77,0.00211
3706.99,0.00042
3701.2,0.00029
3695.41,0.00084
3689.63,0.00076
3683.84,0.00109
3678.06,0.00078
3672.27,0.00094
3666.48,0.00116
3660.7,0.00078
3654.91,0.00250
3649.12,0.00160
3643.34,0.00156
3637.55,0.00229
3631.77,0.00272
3625.98,0.00105
3620.19,0.00114
3614.41,0.00230
3608.62,0.00191
3602.84,0.00173
3597.05,0.00202
3591.26,0.00061
3585.48,0.00053
3579.69,0.00203
3573.9,0.00057
3568.12,0.00204
3562.33,0.00241
3556.55,0.00122
3550.76,0.00094
3544.97,0.00186
3539.19,0.00151
3533.4,0.00137
3527.62,0.00010
3521.83,0.00127
3516.04,0.00076
3510.26,0.00206
3504.47,0.00266
3498.68,0.00170
3492.9,0.00168
3487.11,0.00040
3481.33,0.00267
3475.54,0.00109
3469.75,0.00227
3463.97,0.00104
3458.18,0.00098
3452.4,0.00156
3446.61,0.00171
3440.82,0.00115
3435.04,0.00121
3429.25,0.00162
3423.47,0.00040
3417.68,0.00130
3411.89,0.00110
3406.11,0.00189
3400.32,0.00183
3394.53,0.00159
3388.75,0.00158
3382.96,0.00174
3377.18,0.00109
3371.39,0.00125
3365.6,0.00101
3359.82,0.00193
3354.03,0.00286
3348.25,0.00071
3342.46,0.00193
3336.67,0.00238
3330.89,0.00241
3325.1,0.00177
3319.31,0.00236
3313.53,0.00057
3307.74,0.00203
3301.96,0.00127
3296.17,0.00209
3290.38,0.00151
3284.6,0.00206
3278.81,0.00116
3273.03,0.00205
3267.24,0.00169
3261.45,0.00227
3255.67,0.00085
3249.88,0.00194
3244.09,0.00123
3238.31,0.00188
3232.52,0.00287
3226.74,0.00078
3220.95,0.00248
3215.16,0.00192
3209.38,0.00048
3203.59,0.00082
3197.81,0.00274
3192.02,0.00119
3186.23,0.00265
3180.45,0.00205
3174.66,0.00085
3168.87,0.00066
3163.09,0.00215
3157.3,0.00042
3151.52,0.00122
3145.73,0.00192
3139.94,0.00158
3134.16,0.00070
3128.37,0.00077
3122.59,0.00119
3116.8,0.00171
3111.01,0.00143
3105.23,0.00014
3099.44,0.00094
3093.66,0.00185
3087.87,0.00013
3082.08,0.00102
3076.3,0.00157
3070.51,0.00108
3064.72,0.00101
3058.94,0.00006
3053.15,0.00144
3047.37,0.00066
3041.58,0.00121
3035.79,0.00049
3030.01,0.00114
3024.22,0.00150
3018.44,-0.00048
3012.65,0.00129
3006.86,0.00149
3001.08,0.00060
2995.29,0.00094
2989.5,0.00115
2983.72,0.00145
2977.93,0.00178
2972.15,0.00041
2966.36,0.00108
2960.57,0.00076
2954.79,0.00058
2949,0.00147
2943.22,0.00049
2937.43,0.00129
2931.64,0.00070
2925.86,0.00079
2920.07,0.00080
2914.28,0.00135
2908.5,0.00143
2902.71,0.00093
2896.93,0.00106
2891.14,0.00060
2885.35,0.00077
2879.57,0.00086
2873.78,0.00091
2868,0.00093
2862.21,0.00083
2856.42,0.00125
2850.64,0.00041
2844.85,0.00017
2839.07,0.00085
2833.28,0.00185
2827.49,0.00036
2821.71,0.00107
2815.92,0.00055
2810.13,0.00110
2804.35,0.00108
2798.56,0.00060
2792.78,0.00085
2786.99,-0.00015
2781.2,0.00049
2775.42,0.00053
2769.63,0.00024
2763.85,0.00075
2758.06,0.00117
2752.27,0.00085
2746.49,0.00125
2740.7,0.00076
2734.91,0.00121
2729.13,0.00010
2723.34,0.00105
2717.56,0.00075
2711.77,0.00054
2705.98,0.00034
2700.2,0.00131
2694.41,0.00012
2688.63,0.00100
2682.84,0.00037
2677.05,0.00062
2671.27,0.00025
2665.48,0.00093
2659.69,0.00007
2653.91,0.00093
2648.12,0.00139
2642.34,0.00038
2636.55,0.00031
2630.76,0.00127
2624.98,0.00102
2619.19,0.00049
2613.41,0.00121
2607.62,0.00063
2601.83,0.00055
2596.05,0.00099
2590.26,0.00115
2584.47,0.00042
2578.69,0.00076
2572.9,0.00047
2567.12,0.00043
2561.33,0.00036
2555.54,0.00117
2549.76,0.00080
2543.97,0.00081
2538.19,0.00057
2532.4,0.00084
2526.61,0.00123
2520.83,0.00042
2515.04,0.00040
2509.26,0.00128
2503.47,0.00071
2497.68,0.00041
2491.9,0.00077
2486.11,0.00083
2480.32,0.00048
2474.54,0.00119
2468.75,0.00070
2462.97,0.00069
2457.18,0.00080
2451.39,0.00095
2445.61,0.00064
2439.82,0.00027
2434.04,0.00086
2428.25,0.00098
2422.46,0.00049
2416.68,0.00046
2410.89,0.00021
2405.1,0.00030
2399.32,0.00069
2393.53,0.00026
2387.75,0.00073
2381.96,0.00088
2376.17,0.00032
2370.39,0.00144
2364.6,0.00184
2358.82,-0.00034
2353.03,0.00068
2347.24,0.00055
2341.46,0.00149
2335.67,-0.00006
2329.88,0.00106
2324.1,0.00088
2318.31,0.00109
2312.53,0.00092
2306.74,0.00036
2300.95,0.00068
2295.17,0.00088
2289.38,0.00117
2283.6,0.00047
2277.81,0.00029
2272.02,0.00103
2266.24,0.00020
2260.45,0.00114
2254.67,0.00056
2248.88,0.00086
2243.09,0.00041
2237.31,0.00082
2231.52,0.00043
2225.73,0.00040
2219.95,0.00028
2214.16,0.00097
2208.38,0.00024
2202.59,0.00063
2196.8,0.00036
2191.02,0.00017
2185.23,0.00070
2179.45,0.00088
2173.66,0.00061
2167.87,0.00069
2162.09,0.00067
2156.3,0.00017
2150.51,0.00045
2144.73,0.00067
2138.94,0.00019
2133.16,0.00064
2127.37,0.00056
2121.58,0.00094
2115.8,0.00046
2110.01,0.00068
2104.23,0.00067
2098.44,0.00041
2092.65,0.00050
2086.87,0.00076
2081.08,0.00016
2075.29,0.00019
2069.51,-0.00003
2063.72,0.00066
2057.94,0.00066
2052.15,0.00090
2046.36,-0.00004
2040.58,0.00120
2034.79,0.00011
2029.01,0.00040
2023.22,0.00080
2017.43,0.00062
2011.65,0.00069
2005.86,0.00027
2000.08,0.00076
1994.29,0.00009
1988.5,0.00083
1982.72,0.00072
1976.93,0.00038
1971.14,0.00056
1965.36,0.00045
1959.57,0.00044
1953.79,0.00052
1948,0.00008
1942.21,0.00079
1936.43,-0.00019
1930.64,0.00047
1924.86,0.00049
1919.07,-0.00009
1913.28,0.00079
1907.5,-0.00006
1901.71,0.00045
1895.92,0.00094
1890.14,0.00053
1884.35,0.00042
1878.57,0.00098
1872.78,0.00049
1866.99,0.00072
1861.21,0.00021
1855.42,0.00100
1849.64,0.00059
1843.85,0.00045
1838.06,0.00110
1832.28,0.00052
1826.49,0.00086
1820.7,0.00029
1814.92,0.00062
1809.13,0.00037
1803.35,0.00018
1797.56,0.00098
1791.77,0.00102
1785.99,0.00116
1780.2,0.00072
1774.42,0.00122
1768.63,0.00092
1762.84,0.00058
1757.06,0.00041
1751.27,0.00057
1745.48,0.00112
1739.7,0.00081
1733.91,0.00024
1728.13,0.00031
1722.34,0.00028
1716.55,0.00050
1710.77,0.00009
1704.98,0.00171
1699.2,0.00136
1693.41,0.00028
1687.62,0.00056
1681.84,0.00046
1676.05,0.00074
1670.27,0.00034
1664.48,0.00145
1658.69,0.00107
1652.91,0.00270
1647.12,0.00196
1641.33,0.00060
1635.55,0.00139
1629.76,-0.00013
1623.98,0.00092
1618.19,-0.00001
1612.4,0.00082
1606.62,0.00062
1600.83,0.00032
1595.05,0.00087
1589.26,0.00059
1583.47,-0.00017
1577.69,0.00097
1571.9,0.00048
1566.11,0.00107
1560.33,0.00098
1554.54,0.00096
1548.76,0.00061
1542.97,0.00191
1537.18,0.00113
1531.4,0.00168
1525.61,0.00074
1519.83,0.00184
1514.04,0.00126
1508.25,0.00304
1502.47,-0.00021
1496.68,0.00030
1490.89,0.00051
1485.11,0.00047
1479.32,0.00095
1473.54,0.00082
1467.75,0.00027
1461.96,0.00073
1456.18,0.00118
1450.39,0.00062
1444.61,0.00080
1438.82,0.00050
1433.03,0.00059
1427.25,0.00070
1421.46,0.00110
1415.68,0.00065
1409.89,0.00101
1404.1,0.00075
1398.32,0.00002
1392.53,0.00108
1386.74,0.00053
1380.96,0.00063
1375.17,0.00052
1369.39,0.00055
1363.6,0.00032
1357.81,0.00042
1352.03,0.00036
1346.24,0.00045
1340.46,0.00033
1334.67,0.00111
1328.88,0.00081
1323.1,0.00057
1317.31,0.00052
1311.52,0.00046
1305.74,0.00043
1299.95,0.00097
1294.17,0.00026
1288.38,0.00076
1282.59,0.00066
1276.81,0.00072
1271.02,0.00072
1265.24,0.00080
1259.45,0.00041
1253.66,0.00106
1247.88,0.00048
1242.09,0.00040
1236.3,0.00040
1230.52,0.00056
1224.73,0.00081
1218.95,0.00061
1213.16,0.00083
1207.37,0.00146
1201.59,0.00026
1195.8,0.00038
1190.02,0.00080
1184.23,0.00121
1178.44,0.00142
1172.66,0.00156
1166.87,0.00127
1161.09,0.00070
1155.3,0.00086
1149.51,0.00064
1143.73,0.00119
1137.94,0.00064
1132.15,0.00119
1126.37,0.00020
1120.58,0.00161
1114.8,0.00082
1109.01,0.00083
1103.22,0.00126
1097.44,0.00167
1091.65,0.00072
1085.87,0.00070
1080.08,0.00086
1074.29,0.00032
1068.51,0.00214
1062.72,0.00064
1056.93,0.00103
1051.15,0.00157
1045.36,0.00118
1039.58,0.00100
1033.79,0.00102
1028,0.00108
1022.22,0.00123
1016.43,0.00063
1010.65,0.00177
1004.86,0.00087
999.073,0.00127
993.287,0.00092
987.501,0.00037
981.715,0.00088
975.929,0.00146
970.142,-0.00002
964.356,0.00098
958.57,0.00063
952.784,0.00021
946.998,0.00144
941.212,0.00130
935.426,0.00041
929.64,0.00206
923.853,0.00125
918.067,0.00089
912.281,0.00102
906.495,0.00078
900.709,0.00107
894.923,0.00055
889.137,0.00108
883.35,0.00082
877.564,0.00058
871.778,0.00140
865.992,0.00151
860.206,0.00102
854.42,0.00133
848.634,0.00102
842.847,0.00029
837.061,0.00099
831.275,0.00052
825.489,0.00107
819.703,0.00171
813.917,0.00237
808.131,0.00150
802.344,-0.00005
796.558,0.00095
790.772,0.00126
784.986,0.00127
779.2,0.00064
773.414,0.00100
767.628,0.00075
761.842,0.00075
756.055,0.00146
750.269,0.00150
744.483,0.00209
738.697,0.00144
732.911,0.00147
727.125,0.00072
721.339,0.00178
715.552,0.00106
709.766,0.00120
703.98,0.00106
698.194,0.00181
692.408,0.00159
686.622,0.00091
680.836,0.00203
675.049,0.00129
669.263,0.00235
663.477,0.00276
657.691,0.00113
651.905,0.00333
646.119,0.00009
640.333,0.00278
634.546,0.00460
628.76,0.00348
622.974,0.00209
617.188,0.00194
611.402,0.00119
605.616,0.00378
599.83,0.00413