File: 01_Data/PEVA/FTIR/IS/PEVA_0.10_IS_Trans_S_240819_R8.dpt
7496.91,0.93807
7491.12,0.93050
7485.33,0.96525
7479.55,0.95616
7473.76,0.97005
7467.98,0.94961
7462.19,0.95929
7456.4,0.95487
7450.62,0.95307
7444.83,0.96265
7439.04,0.94956
7433.26,0.94166
7427.47,0.93879
7421.69,0.94641
7415.9,0.94114
7410.11,0.95122
7404.33,0.94050
7398.54,0.94537
7392.76,0.93529
7386.97,0.94145
7381.18,0.91887
7375.4,0.91938
7369.61,0.94046
7363.83,0.91892
7358.04,0.93680
7352.25,0.93284
7346.47,0.92575
7340.68,0.90944
7334.89,0.93491
7329.11,0.90820
7323.32,0.93322
7317.54,0.93417
7311.75,0.92103
7305.96,0.92711
7300.18,0.92267
7294.39,0.91914
7288.61,0.92465
7282.82,0.91244
7277.03,0.91724
7271.25,0.93209
7265.46,0.93093
7259.67,0.93814
7253.89,0.92206
7248.1,0.93041
7242.32,0.89697
7236.53,0.92060
7230.74,0.90313
7224.96,0.93286
7219.17,0.90817
7213.39,0.92688
7207.6,0.93591
7201.81,0.91878
7196.03,0.92053
7190.24,0.92398
7184.45,0.91815
7178.67,0.93282
7172.88,0.92648
7167.1,0.91274
7161.31,0.91576
7155.52,0.93483
7149.74,0.94186
7143.95,0.93085
7138.17,0.92107
7132.38,0.93660
7126.59,0.94542
7120.81,0.92336
7115.02,0.91926
7109.23,0.92850
7103.45,0.92668
7097.66,0.92377
7091.88,0.92035
7086.09,0.93547
7080.3,0.93451
7074.52,0.92391
7068.73,0.92923
7062.95,0.93453
7057.16,0.93419
7051.37,0.92857
7045.59,0.91781
7039.8,0.93371
7034.02,0.94345
7028.23,0.94550
7022.44,0.92811
7016.66,0.93105
7010.87,0.92505
7005.08,0.93129
6999.3,0.93463
6993.51,0.93436
6987.73,0.93666
6981.94,0.92751
6976.15,0.93948
6970.37,0.92686
6964.58,0.93932
6958.8,0.94329
6953.01,0.94138
6947.22,0.92867
6941.44,0.93114
6935.65,0.94239
6929.86,0.94385
6924.08,0.94745
6918.29,0.92950
6912.51,0.93700
6906.72,0.94007
6900.93,0.94218
6895.15,0.94347
6889.36,0.94230
6883.58,0.94020
6877.79,0.95506
6872,0.94032
6866.22,0.94615
6860.43,0.94890
6854.64,0.94960
6848.86,0.94048
6843.07,0.94605
6837.29,0.94424
6831.5,0.93897
6825.71,0.94437
6819.93,0.94640
6814.14,0.94601
6808.36,0.93999
6802.57,0.93314
6796.78,0.93126
6791,0.94378
6785.21,0.93510
6779.43,0.93889
6773.64,0.94096
6767.85,0.94549
6762.07,0.94851
6756.28,0.93974
6750.49,0.93455
6744.71,0.94108
6738.92,0.94455
6733.14,0.94919
6727.35,0.95635
6721.56,0.95417
6715.78,0.93855
6709.99,0.94848
6704.21,0.94927
6698.42,0.93860
6692.63,0.94076
6686.85,0.94318
6681.06,0.95739
6675.27,0.94626
6669.49,0.94470
6663.7,0.94603
6657.92,0.94224
6652.13,0.94707
6646.34,0.94532
6640.56,0.95109
6634.77,0.95038
6628.99,0.94179
6623.2,0.94372
6617.41,0.95112
6611.63,0.94649
6605.84,0.94673
6600.05,0.95333
6594.27,0.95131
6588.48,0.94463
6582.7,0.94814
6576.91,0.95253
6571.12,0.94899
6565.34,0.94970
6559.55,0.94404
6553.77,0.94816
6547.98,0.94390
6542.19,0.94865
6536.41,0.94554
6530.62,0.95208
6524.84,0.94433
6519.05,0.94005
6513.26,0.94611
6507.48,0.94576
6501.69,0.94895
6495.9,0.94797
6490.12,0.93706
6484.33,0.93964
6478.55,0.94458
6472.76,0.94342
6466.97,0.94919
6461.19,0.94440
6455.4,0.94459
6449.62,0.94567
6443.83,0.94767
6438.04,0.94119
6432.26,0.94444
6426.47,0.95064
6420.68,0.94149
6414.9,0.95182
6409.11,0.94015
6403.33,0.94616
6397.54,0.95012
6391.75,0.94781
6385.97,0.94922
6380.18,0.95335
6374.4,0.94502
6368.61,0.94980
6362.82,0.94780
6357.04,0.95444
6351.25,0.95218
6345.46,0.94913
6339.68,0.94702
6333.89,0.94622
6328.11,0.94931
6322.32,0.94738
6316.53,0.94466
6310.75,0.94308
6304.96,0.94504
6299.18,0.94947
6293.39,0.94932
6287.6,0.94328
6281.82,0.94462
6276.03,0.94622
6270.24,0.94825
6264.46,0.94907
6258.67,0.94580
6252.89,0.95007
6247.1,0.94884
6241.31,0.94484
6235.53,0.95050
6229.74,0.94550
6223.96,0.94019
6218.17,0.94985
6212.38,0.94944
6206.6,0.94205
6200.81,0.94601
6195.03,0.94625
6189.24,0.94804
6183.45,0.94666
6177.67,0.94800
6171.88,0.94715
6166.09,0.94752
6160.31,0.94217
6154.52,0.94249
6148.74,0.94489
6142.95,0.94614
6137.16,0.94264
6131.38,0.94093
6125.59,0.93796
6119.81,0.94355
6114.02,0.94536
6108.23,0.94217
6102.45,0.94320
6096.66,0.94366
6090.87,0.93821
6085.09,0.94332
6079.3,0.94527
6073.52,0.93758
6067.73,0.94422
6061.94,0.93752
6056.16,0.93680
6050.37,0.94051
6044.59,0.94070
6038.8,0.93811
6033.01,0.93774
6027.23,0.94032
6021.44,0.94102
6015.65,0.94067
6009.87,0.93974
6004.08,0.93713
5998.3,0.93613
5992.51,0.94012
5986.72,0.93248
5980.94,0.93388
5975.15,0.93726
5969.37,0.93656
5963.58,0.93411
5957.79,0.92954
5952.01,0.93017
5946.22,0.93417
5940.44,0.93274
5934.65,0.93185
5928.86,0.93065
5923.08,0.92590
5917.29,0.92790
5911.5,0.92749
5905.72,0.92725
5899.93,0.92602
5894.15,0.92413
5888.36,0.92283
5882.57,0.91794
5876.79,0.92111
5871,0.91365
5865.22,0.90887
5859.43,0.90324
5853.64,0.89788
5847.86,0.89278
5842.07,0.88811
5836.28,0.88274
5830.5,0.87852
5824.71,0.86882
5818.93,0.85930
5813.14,0.85629
5807.35,0.84702
5801.57,0.84160
5795.78,0.83292
5790,0.81348
5784.21,0.80117
5778.42,0.78067
5772.64,0.78356
5766.85,0.80709
5761.06,0.83291
5755.28,0.85190
5749.49,0.86414
5743.71,0.87352
5737.92,0.88523
5732.13,0.88648
5726.35,0.89386
5720.56,0.89822
5714.78,0.89889
5708.99,0.89792
5703.2,0.89006
5697.42,0.89122
5691.63,0.88618
5685.84,0.87949
5680.06,0.87313
5674.27,0.86598
5668.49,0.86072
5662.7,0.85774
5656.91,0.86665
5651.13,0.87869
5645.34,0.88847
5639.56,0.89175
5633.77,0.89726
5627.98,0.89924
5622.2,0.90073
5616.41,0.90336
5610.63,0.90056
5604.84,0.90445
5599.05,0.90409
5593.27,0.90915
5587.48,0.90963
5581.69,0.90682
5575.91,0.90490
5570.12,0.90470
5564.34,0.90051
5558.55,0.90462
5552.76,0.90029
5546.98,0.90009
5541.19,0.90322
5535.41,0.89579
5529.62,0.90347
5523.83,0.89853
5518.05,0.89811
5512.26,0.90107
5506.47,0.88941
5500.69,0.89866
5494.9,0.88616
5489.12,0.88049
5483.33,0.90550
5477.54,0.88917
5471.76,0.89315
5465.97,0.88740
5460.19,0.88406
5454.4,0.90192
5448.61,0.88207
5442.83,0.87133
5437.04,0.88912
5431.25,0.87566
5425.47,0.89228
5419.68,0.90920
5413.9,0.87119
5408.11,0.88686
5402.32,0.90481
5396.54,0.88782
5390.75,0.90281
5384.97,0.89351
5379.18,0.90314
5373.39,0.89766
5367.61,0.91247
5361.82,0.90646
5356.04,0.89459
5350.25,0.89189
5344.46,0.87360
5338.68,0.87147
5332.89,0.89948
5327.1,0.89515
5321.32,0.91536
5315.53,0.91526
5309.75,0.91251
5303.96,0.91519
5298.17,0.91520
5292.39,0.90793
5286.6,0.90745
5280.82,0.90963
5275.03,0.92225
5269.24,0.90734
5263.46,0.88538
5257.67,0.90714
5251.88,0.90378
5246.1,0.88387
5240.31,0.91416
5234.53,0.91084
5228.74,0.90102
5222.95,0.89943
5217.17,0.90997
5211.38,0.91087
5205.6,0.88705
5199.81,0.91633
5194.02,0.91700
5188.24,0.90992
5182.45,0.91391
5176.66,0.91737
5170.88,0.91713
5165.09,0.91768
5159.31,0.91548
5153.52,0.91623
5147.73,0.92340
5141.95,0.92060
5136.16,0.92472
5130.38,0.92349
5124.59,0.92801
5118.8,0.92126
5113.02,0.92407
5107.23,0.92471
5101.45,0.92589
5095.66,0.92366
5089.87,0.92498
5084.09,0.92718
5078.3,0.92614
5072.51,0.92733
5066.73,0.92793
5060.94,0.92600
5055.16,0.92776
5049.37,0.92578
5043.58,0.92564
5037.8,0.92648
5032.01,0.92589
5026.23,0.92566
5020.44,0.92518
5014.65,0.92544
5008.87,0.92654
5003.08,0.92706
4997.29,0.92600
4991.51,0.92395
4985.72,0.92271
4979.94,0.92237
4974.15,0.92610
4968.36,0.92410
4962.58,0.92408
4956.79,0.92394
4951.01,0.92575
4945.22,0.92600
4939.43,0.92705
4933.65,0.92768
4927.86,0.92971
4922.07,0.92750
4916.29,0.92816
4910.5,0.92690
4904.72,0.92820
4898.93,0.92857
4893.14,0.92830
4887.36,0.92627
4881.57,0.92602
4875.79,0.92523
4870,0.92678
4864.21,0.92800
4858.43,0.92751
4852.64,0.92705
4846.85,0.92721
4841.07,0.92884
4835.28,0.92807
4829.5,0.93226
4823.71,0.93310
4817.92,0.93165
4812.14,0.93035
4806.35,0.92946
4800.57,0.93253
4794.78,0.93498
4788.99,0.93492
4783.21,0.93283
4777.42,0.93257
4771.64,0.93071
4765.85,0.93226
4760.06,0.93399
4754.28,0.93344
4748.49,0.93244
4742.7,0.93238
4736.92,0.93030
4731.13,0.93271
4725.35,0.93459
4719.56,0.93585
4713.77,0.93343
4707.99,0.93151
4702.2,0.93182
4696.42,0.93174
4690.63,0.93602
4684.84,0.93612
4679.06,0.93605
4673.27,0.93203
4667.48,0.93060
4661.7,0.93069
4655.91,0.93422
4650.13,0.93530
4644.34,0.93438
4638.55,0.93171
4632.77,0.93099
4626.98,0.93310
4621.2,0.93455
4615.41,0.93643
4609.62,0.93524
4603.84,0.93245
4598.05,0.93102
4592.26,0.93346
4586.48,0.93484
4580.69,0.93519
4574.91,0.93381
4569.12,0.93175
4563.33,0.92897
4557.55,0.92989
4551.76,0.93072
4545.98,0.93391
4540.19,0.93244
4534.4,0.92944
4528.62,0.92497
4522.83,0.92623
4517.05,0.92776
4511.26,0.92883
4505.47,0.92796
4499.69,0.92412
4493.9,0.92142
4488.11,0.91999
4482.33,0.92075
4476.54,0.92183
4470.76,0.92071
4464.97,0.91707
4459.18,0.91372
4453.4,0.91119
4447.61,0.91028
4441.83,0.90960
4436.04,0.90609
4430.25,0.90035
4424.47,0.89229
4418.68,0.88574
4412.89,0.87950
4407.11,0.87109
4401.32,0.85960
4395.54,0.84591
4389.75,0.83175
4383.96,0.81903
4378.18,0.80676
4372.39,0.79217
4366.61,0.77657
4360.82,0.75575
4355.03,0.72427
4349.25,0.67708
4343.46,0.61515
4337.67,0.56087
4331.89,0.50292
4326.1,0.40785
4320.32,0.38672
4314.53,0.56560
4308.74,0.68155
4302.96,0.72859
4297.17,0.74455
4291.39,0.74138
4285.6,0.72821
4279.81,0.71615
4274.03,0.70084
4268.24,0.67306
4262.46,0.61823
4256.67,0.53815
4250.88,0.49205
4245.1,0.58792
4239.31,0.66232
4233.52,0.67828
4227.74,0.66436
4221.95,0.64499
4216.17,0.64468
4210.38,0.64674
4204.59,0.63558
4198.81,0.60858
4193.02,0.59179
4187.24,0.59286
4181.45,0.59601
4175.66,0.59766
4169.88,0.59930
4164.09,0.60217
4158.3,0.60481
4152.52,0.60600
4146.73,0.60790
4140.95,0.61088
4135.16,0.61399
4129.37,0.61924
4123.59,0.62337
4117.8,0.62652
4112.02,0.62586
4106.23,0.62094
4100.44,0.62143
4094.66,0.62775
4088.87,0.64898
4083.08,0.67617
4077.3,0.69299
4071.51,0.70416
4065.73,0.71099
4059.94,0.71942
4054.15,0.72903
4048.37,0.73695
4042.58,0.74317
4036.8,0.75171
4031.01,0.74940
4025.22,0.74503
4019.44,0.75173
4013.65,0.77583
4007.86,0.78683
4002.08,0.79357
3996.29,0.78888
3990.51,0.78522
3984.72,0.78883
3978.93,0.78914
3973.15,0.78545
3967.36,0.79676
3961.58,0.79044
3955.79,0.79148
3950,0.77500
3944.22,0.77682
3938.43,0.79122
3932.65,0.76027
3926.86,0.75919
3921.07,0.75287
3915.29,0.75909
3909.5,0.77757
3903.71,0.70884
3897.93,0.74236
3892.14,0.73723
3886.36,0.73959
3880.57,0.73357
3874.78,0.74130
3869,0.71795
3863.21,0.72694
3857.43,0.74375
3851.64,0.70331
3845.85,0.76531
3840.07,0.69853
3834.28,0.73290
3828.49,0.76078
3822.71,0.72195
3816.92,0.72143
3811.14,0.78437
3805.35,0.74470
3799.56,0.73653
3793.78,0.80729
3787.99,0.81405
3782.21,0.79476
3776.42,0.81081
3770.63,0.78769
3764.85,0.79569
3759.06,0.77191
3753.27,0.73461
3747.49,0.70141
3741.7,0.73708
3735.92,0.68473
3730.13,0.74758
3724.34,0.74038
3718.56,0.78520
3712.77,0.74289
3706.99,0.76873
3701.2,0.77429
3695.41,0.78635
3689.63,0.71918
3683.84,0.79651
3678.06,0.73887
3672.27,0.72286
3666.48,0.78700
3660.7,0.80297
3654.91,0.76371
3649.12,0.66369
3643.34,0.75419
3637.55,0.77175
3631.77,0.74026
3625.98,0.74610
3620.19,0.73140
3614.41,0.71272
3608.62,0.69633
3602.84,0.70502
3597.05,0.72989
3591.26,0.78808
3585.48,0.79720
3579.69,0.84392
3573.9,0.85036
3568.12,0.79705
3562.33,0.83522
3556.55,0.87313
3550.76,0.86289
3544.97,0.84859
3539.19,0.88289
3533.4,0.87817
3527.62,0.85164
3521.83,0.86854
3516.04,0.89461
3510.26,0.87944
3504.47,0.86603
3498.68,0.87717
3492.9,0.88350
3487.11,0.88015
3481.33,0.87795
3475.54,0.88750
3469.75,0.88301
3463.97,0.87169
3458.18,0.87352
3452.4,0.87914
3446.61,0.86234
3440.82,0.87407
3435.04,0.87285
3429.25,0.86880
3423.47,0.86548
3417.68,0.87205
3411.89,0.87961
3406.11,0.87955
3400.32,0.87161
3394.53,0.86331
3388.75,0.86592
3382.96,0.86714
3377.18,0.87070
3371.39,0.86753
3365.6,0.85977
3359.82,0.86202
3354.03,0.86576
3348.25,0.87360
3342.46,0.87888
3336.67,0.87609
3330.89,0.87678
3325.1,0.87318
3319.31,0.87661
3313.53,0.87867
3307.74,0.88146
3301.96,0.88545
3296.17,0.87915
3290.38,0.87290
3284.6,0.87592
3278.81,0.87811
3273.03,0.87737
3267.24,0.88178
3261.45,0.87719
3255.67,0.87133
3249.88,0.87550
3244.09,0.87510
3238.31,0.87836
3232.52,0.87363
3226.74,0.86729
3220.95,0.86278
3215.16,0.86230
3209.38,0.86363
3203.59,0.86434
3197.81,0.85464
3192.02,0.85142
3186.23,0.84634
3180.45,0.84774
3174.66,0.84901
3168.87,0.84582
3163.09,0.83819
3157.3,0.83165
3151.52,0.82987
3145.73,0.82941
3139.94,0.82587
3134.16,0.81530
3128.37,0.80547
3122.59,0.79367
3116.8,0.78487
3111.01,0.77675
3105.23,0.75641
3099.44,0.72402
3093.66,0.68929
3087.87,0.66028
3082.08,0.63711
3076.3,0.62238
3070.51,0.60804
3064.72,0.58736
3058.94,0.57137
3053.15,0.54852
3047.37,0.51986
3041.58,0.48910
3035.79,0.45631
3030.01,0.42698
3024.22,0.40350
3018.44,0.37927
3012.65,0.35231
3006.86,0.32489
3001.08,0.29137
2995.29,0.25181
2989.5,0.20391
2983.72,0.14538
2977.93,0.08189
2972.15,0.03017
2966.36,0.00626
2960.57,0.00103
2954.79,0.00107
2949,0.00075
2943.22,0.00051
2937.43,0.00044
2931.64,0.00062
2925.86,0.00107
2920.07,0.00115
2914.28,0.00090
2908.5,0.00083
2902.71,0.00101
2896.93,0.00061
2891.14,0.00065
2885.35,0.00036
2879.57,0.00043
2873.78,0.00110
2868,0.00065
2862.21,0.00056
2856.42,0.00113
2850.64,0.00137
2844.85,0.00121
2839.07,0.00069
2833.28,0.00497
2827.49,0.01848
2821.71,0.04156
2815.92,0.07157
2810.13,0.10485
2804.35,0.14108
2798.56,0.17979
2792.78,0.22403
2786.99,0.27203
2781.2,0.31966
2775.42,0.36047
2769.63,0.39107
2763.85,0.41239
2758.06,0.43199
2752.27,0.44636
2746.49,0.44792
2740.7,0.44498
2734.91,0.44927
2729.13,0.45962
2723.34,0.47455
2717.56,0.48690
2711.77,0.49797
2705.98,0.50986
2700.2,0.51924
2694.41,0.51618
2688.63,0.50205
2682.84,0.49076
2677.05,0.48253
2671.27,0.47459
2665.48,0.46944
2659.69,0.47006
2653.91,0.47677
2648.12,0.48495
2642.34,0.48607
2636.55,0.48411
2630.76,0.49739
2624.98,0.52302
2619.19,0.54808
2613.41,0.57404
2607.62,0.59845
2601.83,0.61709
2596.05,0.63123
2590.26,0.64863
2584.47,0.66946
2578.69,0.69046
2572.9,0.70909
2567.12,0.72259
2561.33,0.73113
2555.54,0.73674
2549.76,0.74367
2543.97,0.76189
2538.19,0.77540
2532.4,0.76960
2526.61,0.76582
2520.83,0.77970
2515.04,0.79806
2509.26,0.81226
2503.47,0.82085
2497.68,0.82277
2491.9,0.82290
2486.11,0.82573
2480.32,0.83093
2474.54,0.83504
2468.75,0.84756
2462.97,0.85363
2457.18,0.85259
2451.39,0.85370
2445.61,0.85741
2439.82,0.85897
2434.04,0.85563
2428.25,0.84899
2422.46,0.83781
2416.68,0.83231
2410.89,0.83927
2405.1,0.84675
2399.32,0.84930
2393.53,0.84673
2387.75,0.83609
2381.96,0.76852
2376.17,0.64184
2370.39,0.52576
2364.6,0.44750
2358.82,0.42404
2353.03,0.48002
2347.24,0.52314
2341.46,0.46104
2335.67,0.47457
2329.88,0.48719
2324.1,0.52030
2318.31,0.57832
2312.53,0.63360
2306.74,0.69179
2300.95,0.74223
2295.17,0.77623
2289.38,0.80283
2283.6,0.82161
2277.81,0.82041
2272.02,0.82611
2266.24,0.83934
2260.45,0.84884
2254.67,0.85320
2248.88,0.85442
2243.09,0.85601
2237.31,0.86685
2231.52,0.87821
2225.73,0.87922
2219.95,0.87762
2214.16,0.87825
2208.38,0.87881
2202.59,0.87998
2196.8,0.88069
2191.02,0.88016
2185.23,0.87906
2179.45,0.87744
2173.66,0.87734
2167.87,0.87622
2162.09,0.87332
2156.3,0.86993
2150.51,0.86860
2144.73,0.87035
2138.94,0.87709
2133.16,0.88438
2127.37,0.88955
2121.58,0.89354
2115.8,0.89570
2110.01,0.89703
2104.23,0.89616
2098.44,0.89357
2092.65,0.89097
2086.87,0.88995
2081.08,0.89131
2075.29,0.88901
2069.51,0.88503
2063.72,0.87485
2057.94,0.87386
2052.15,0.87011
2046.36,0.86559
2040.58,0.85422
2034.79,0.84811
2029.01,0.83338
2023.22,0.81351
2017.43,0.80120
2011.65,0.84673
2005.86,0.87841
2000.08,0.89025
1994.29,0.88263
1988.5,0.88096
1982.72,0.89377
1976.93,0.89837
1971.14,0.89995
1965.36,0.88694
1959.57,0.89132
1953.79,0.88505
1948,0.88135
1942.21,0.86708
1936.43,0.89493
1930.64,0.89358
1924.86,0.87254
1919.07,0.85394
1913.28,0.86618
1907.5,0.85382
1901.71,0.86123
1895.92,0.84481
1890.14,0.84762
1884.35,0.87476
1878.57,0.88636
1872.78,0.88612
1866.99,0.85616
1861.21,0.90622
1855.42,0.90673
1849.64,0.88649
1843.85,0.84502
1838.06,0.88817
1832.28,0.88179
1826.49,0.86440
1820.7,0.88662
1814.92,0.87689
1809.13,0.85600
1803.35,0.86491
1797.56,0.85637
1791.77,0.83683
1785.99,0.88252
1780.2,0.85356
1774.42,0.81754
1768.63,0.82927
1762.84,0.84826
1757.06,0.83003
1751.27,0.76367
1745.48,0.72590
1739.7,0.73407
1733.91,0.73405
1728.13,0.81581
1722.34,0.80347
1716.55,0.70252
1710.77,0.77153
1704.98,0.74438
1699.2,0.71542
1693.41,0.81203
1687.62,0.79959
1681.84,0.77887
1676.05,0.80626
1670.27,0.76602
1664.48,0.81629
1658.69,0.83538
1652.91,0.75170
1647.12,0.74576
1641.33,0.80771
1635.55,0.74522
1629.76,0.80639
1623.98,0.78605
1618.19,0.79581
1612.4,0.82534
1606.62,0.80990
1600.83,0.81001
1595.05,0.80726
1589.26,0.82576
1583.47,0.83658
1577.69,0.78191
1571.9,0.77632
1566.11,0.76606
1560.33,0.71420
1554.54,0.73587
1548.76,0.76906
1542.97,0.66209
1537.18,0.69720
1531.4,0.70975
1525.61,0.67306
1519.83,0.65212
1514.04,0.68864
1508.25,0.60073
1502.47,0.64029
1496.68,0.59045
1490.89,0.55206
1485.11,0.47708
1479.32,0.27926
1473.54,0.02096
1467.75,0.00053
1461.96,0.00051
1456.18,0.01987
1450.39,0.07947
1444.61,0.14020
1438.82,0.18698
1433.03,0.30340
1427.25,0.49839
1421.46,0.60405
1415.68,0.65988
1409.89,0.69727
1404.1,0.71049
1398.32,0.69905
1392.53,0.70985
1386.74,0.64658
1380.96,0.44639
1375.17,0.37740
1369.39,0.37278
1363.6,0.40520
1357.81,0.47423
1352.03,0.47479
1346.24,0.53206
1340.46,0.57026
1334.67,0.66089
1328.88,0.69594
1323.1,0.67266
1317.31,0.60871
1311.52,0.56623
1305.74,0.55113
1299.95,0.56233
1294.17,0.59938
1288.38,0.63421
1282.59,0.65491
1276.81,0.65939
1271.02,0.66085
1265.24,0.68730
1259.45,0.71303
1253.66,0.73061
1247.88,0.73294
1242.09,0.73551
1236.3,0.74124
1230.52,0.75242
1224.73,0.76524
1218.95,0.77356
1213.16,0.76874
1207.37,0.76078
1201.59,0.76229
1195.8,0.76713
1190.02,0.77245
1184.23,0.77399
1178.44,0.76162
1172.66,0.75553
1166.87,0.75231
1161.09,0.75651
1155.3,0.76393
1149.51,0.76811
1143.73,0.77010
1137.94,0.77088
1132.15,0.77173
1126.37,0.77943
1120.58,0.78559
1114.8,0.78822
1109.01,0.78427
1103.22,0.77536
1097.44,0.76140
1091.65,0.74755
1085.87,0.73479
1080.08,0.73087
1074.29,0.75051
1068.51,0.76293
1062.72,0.76220
1056.93,0.77076
1051.15,0.77213
1045.36,0.78545
1039.58,0.78900
1033.79,0.78038
1028,0.75923
1022.22,0.72871
1016.43,0.72296
1010.65,0.76836
1004.86,0.80596
999.073,0.82232
993.287,0.82645
987.501,0.82999
981.715,0.83240
975.929,0.82954
970.142,0.82393
964.356,0.82208
958.57,0.82622
952.784,0.83351
946.998,0.83701
941.212,0.83978
935.426,0.84688
929.64,0.85396
923.853,0.85539
918.067,0.85091
912.281,0.84047
906.495,0.83543
900.709,0.84720
894.923,0.84924
889.137,0.84685
883.35,0.85037
877.564,0.85158
871.778,0.84883
865.992,0.85377
860.206,0.86192
854.42,0.86389
848.634,0.85971
842.847,0.85032
837.061,0.84378
831.275,0.84585
825.489,0.85475
819.703,0.85884
813.917,0.84900
808.131,0.82839
802.344,0.81011
796.558,0.80331
790.772,0.80402
784.986,0.79221
779.2,0.75961
773.414,0.72405
767.628,0.71579
761.842,0.73103
756.055,0.73584
750.269,0.70999
744.483,0.64493
738.697,0.51441
732.911,0.17118
727.125,0.04911
721.339,0.02281
715.552,0.13475
709.766,0.43203
703.98,0.64065
698.194,0.74164
692.408,0.76382
686.622,0.75806
680.836,0.77719
675.049,0.81186
669.263,0.72274
663.477,0.84342
657.691,0.81788
651.905,0.81824
646.119,0.85969
640.333,0.90842
634.546,0.92680
628.76,0.91943
622.974,0.89049
617.188,0.87773
611.402,0.91770
605.616,0.94462
599.83,0.94410