File: 01_Data/PEVA/FTIR/IS/PEVA_0.18_IS_S_240809_R10.dpt
7497.33,0.10010
7491.55,0.11659
7485.76,0.09901
7479.97,0.08544
7474.19,0.11597
7468.4,0.10340
7462.61,0.12097
7456.83,0.09971
7451.04,0.11179
7445.26,0.10734
7439.47,0.11877
7433.68,0.09815
7427.9,0.11022
7422.11,0.10224
7416.32,0.09898
7410.54,0.10788
7404.75,0.10831
7398.96,0.10537
7393.18,0.10204
7387.39,0.10176
7381.6,0.11387
7375.82,0.09800
7370.03,0.10395
7364.24,0.11417
7358.46,0.09567
7352.67,0.09801
7346.89,0.09977
7341.1,0.10627
7335.31,0.11110
7329.53,0.10646
7323.74,0.10624
7317.95,0.10708
7312.17,0.09685
7306.38,0.09671
7300.59,0.11444
7294.81,0.11963
7289.02,0.10306
7283.23,0.10924
7277.45,0.10906
7271.66,0.09297
7265.87,0.09524
7260.09,0.10894
7254.3,0.10222
7248.52,0.09673
7242.73,0.11118
7236.94,0.10892
7231.16,0.10581
7225.37,0.10926
7219.58,0.10208
7213.8,0.11016
7208.01,0.10966
7202.22,0.10850
7196.44,0.10150
7190.65,0.10665
7184.86,0.09507
7179.08,0.09158
7173.29,0.09537
7167.5,0.10120
7161.72,0.10042
7155.93,0.10954
7150.15,0.10725
7144.36,0.11267
7138.57,0.10496
7132.79,0.09994
7127,0.10580
7121.21,0.09361
7115.43,0.10218
7109.64,0.10290
7103.85,0.10237
7098.07,0.10712
7092.28,0.10331
7086.49,0.10152
7080.71,0.10477
7074.92,0.09906
7069.13,0.10704
7063.35,0.10798
7057.56,0.10184
7051.78,0.09921
7045.99,0.10283
7040.2,0.09401
7034.42,0.10072
7028.63,0.09827
7022.84,0.09819
7017.06,0.10396
7011.27,0.10488
7005.48,0.09644
6999.7,0.10623
6993.91,0.10563
6988.12,0.09912
6982.34,0.09180
6976.55,0.09679
6970.76,0.11156
6964.98,0.09229
6959.19,0.10392
6953.41,0.10581
6947.62,0.09908
6941.83,0.09595
6936.05,0.09150
6930.26,0.10362
6924.47,0.10097
6918.69,0.09754
6912.9,0.10611
6907.11,0.11231
6901.33,0.10803
6895.54,0.09967
6889.75,0.09952
6883.97,0.10935
6878.18,0.10622
6872.39,0.10001
6866.61,0.10087
6860.82,0.09749
6855.04,0.09987
6849.25,0.10935
6843.46,0.10599
6837.68,0.10332
6831.89,0.10258
6826.1,0.10690
6820.32,0.10453
6814.53,0.10571
6808.74,0.10690
6802.96,0.10876
6797.17,0.10316
6791.38,0.10517
6785.6,0.11339
6779.81,0.10789
6774.03,0.10129
6768.24,0.10560
6762.45,0.10755
6756.67,0.10466
6750.88,0.10424
6745.09,0.10264
6739.31,0.10324
6733.52,0.09520
6727.73,0.09643
6721.95,0.09949
6716.16,0.10739
6710.37,0.09843
6704.59,0.10738
6698.8,0.10568
6693.01,0.11287
6687.23,0.10195
6681.44,0.10466
6675.66,0.10386
6669.87,0.10101
6664.08,0.10322
6658.3,0.10238
6652.51,0.10515
6646.72,0.10441
6640.94,0.10078
6635.15,0.09623
6629.36,0.09759
6623.58,0.10207
6617.79,0.10130
6612,0.10467
6606.22,0.10180
6600.43,0.10693
6594.64,0.10874
6588.86,0.09785
6583.07,0.10582
6577.29,0.10614
6571.5,0.10241
6565.71,0.10367
6559.93,0.10277
6554.14,0.10597
6548.35,0.10606
6542.57,0.10179
6536.78,0.10094
6530.99,0.10381
6525.21,0.10018
6519.42,0.10184
6513.63,0.10171
6507.85,0.10341
6502.06,0.10366
6496.27,0.10219
6490.49,0.10171
6484.7,0.10103
6478.92,0.10306
6473.13,0.10301
6467.34,0.10142
6461.56,0.10436
6455.77,0.10221
6449.98,0.10061
6444.2,0.10280
6438.41,0.10421
6432.62,0.10413
6426.84,0.10467
6421.05,0.10843
6415.26,0.10438
6409.48,0.10138
6403.69,0.10953
6397.9,0.10039
6392.12,0.10008
6386.33,0.10464
6380.55,0.10285
6374.76,0.09880
6368.97,0.10525
6363.19,0.10304
6357.4,0.10350
6351.61,0.10773
6345.83,0.10151
6340.04,0.10082
6334.25,0.10246
6328.47,0.10042
6322.68,0.10435
6316.89,0.10692
6311.11,0.10414
6305.32,0.10473
6299.53,0.10390
6293.75,0.10059
6287.96,0.10289
6282.18,0.10419
6276.39,0.10295
6270.6,0.10025
6264.82,0.10267
6259.03,0.10160
6253.24,0.09949
6247.46,0.09925
6241.67,0.10322
6235.88,0.10147
6230.1,0.10046
6224.31,0.09905
6218.52,0.10082
6212.74,0.10215
6206.95,0.10640
6201.16,0.10327
6195.38,0.10137
6189.59,0.10231
6183.81,0.10315
6178.02,0.10256
6172.23,0.10260
6166.45,0.10294
6160.66,0.10226
6154.87,0.10357
6149.09,0.09964
6143.3,0.10358
6137.51,0.10663
6131.73,0.10325
6125.94,0.10427
6120.15,0.10564
6114.37,0.10286
6108.58,0.10141
6102.79,0.10051
6097.01,0.09935
6091.22,0.10717
6085.44,0.10102
6079.65,0.10106
6073.86,0.09949
6068.08,0.10064
6062.29,0.10590
6056.5,0.10325
6050.72,0.10462
6044.93,0.10262
6039.14,0.10141
6033.36,0.09828
6027.57,0.10564
6021.78,0.09988
6016,0.10041
6010.21,0.10099
6004.42,0.10557
5998.64,0.10429
5992.85,0.09882
5987.07,0.10065
5981.28,0.10132
5975.49,0.10065
5969.71,0.09891
5963.92,0.10001
5958.13,0.10046
5952.35,0.10268
5946.56,0.09963
5940.77,0.09703
5934.99,0.09943
5929.2,0.10204
5923.41,0.10130
5917.63,0.10203
5911.84,0.10207
5906.05,0.10053
5900.27,0.09841
5894.48,0.10050
5888.7,0.09631
5882.91,0.09976
5877.12,0.10102
5871.34,0.09913
5865.55,0.09593
5859.76,0.09745
5853.98,0.09754
5848.19,0.09465
5842.4,0.09153
5836.62,0.09482
5830.83,0.09551
5825.04,0.09155
5819.26,0.09162
5813.47,0.09230
5807.68,0.08822
5801.9,0.08872
5796.11,0.08804
5790.33,0.08401
5784.54,0.08446
5778.75,0.08436
5772.97,0.08516
5767.18,0.08786
5761.39,0.08875
5755.61,0.09000
5749.82,0.09193
5744.03,0.09364
5738.25,0.09388
5732.46,0.09407
5726.67,0.09540
5720.89,0.09478
5715.1,0.09565
5709.31,0.09514
5703.53,0.09546
5697.74,0.09418
5691.96,0.09438
5686.17,0.09401
5680.38,0.09218
5674.6,0.09330
5668.81,0.09164
5663.02,0.09178
5657.24,0.09594
5651.45,0.09461
5645.66,0.09517
5639.88,0.09739
5634.09,0.09638
5628.3,0.09788
5622.52,0.09728
5616.73,0.09987
5610.94,0.09771
5605.16,0.09712
5599.37,0.09733
5593.59,0.09748
5587.8,0.09946
5582.01,0.09627
5576.23,0.09913
5570.44,0.09919
5564.65,0.09800
5558.87,0.09761
5553.08,0.09807
5547.29,0.09642
5541.51,0.09707
5535.72,0.09758
5529.93,0.09899
5524.15,0.09873
5518.36,0.09814
5512.58,0.09888
5506.79,0.09579
5501,0.09932
5495.22,0.10085
5489.43,0.09681
5483.64,0.09718
5477.86,0.09904
5472.07,0.09853
5466.28,0.09751
5460.5,0.09738
5454.71,0.10025
5448.92,0.10070
5443.14,0.09853
5437.35,0.09774
5431.56,0.09986
5425.78,0.09878
5419.99,0.09831
5414.21,0.10014
5408.42,0.10019
5402.63,0.10061
5396.85,0.09933
5391.06,0.10002
5385.27,0.10166
5379.49,0.10145
5373.7,0.09958
5367.91,0.10080
5362.13,0.10033
5356.34,0.10042
5350.55,0.10152
5344.77,0.10226
5338.98,0.09943
5333.19,0.10075
5327.41,0.10031
5321.62,0.09871
5315.84,0.09963
5310.05,0.09995
5304.26,0.09990
5298.48,0.09901
5292.69,0.09972
5286.9,0.10028
5281.12,0.09978
5275.33,0.10029
5269.54,0.10140
5263.76,0.10095
5257.97,0.10165
5252.18,0.10070
5246.4,0.10031
5240.61,0.10142
5234.82,0.10138
5229.04,0.10007
5223.25,0.10077
5217.47,0.10133
5211.68,0.10110
5205.89,0.10225
5200.11,0.10054
5194.32,0.10166
5188.53,0.10142
5182.75,0.10203
5176.96,0.10346
5171.17,0.10228
5165.39,0.10174
5159.6,0.09974
5153.81,0.10081
5148.03,0.10083
5142.24,0.10049
5136.45,0.10182
5130.67,0.10238
5124.88,0.10244
5119.1,0.10229
5113.31,0.10104
5107.52,0.10130
5101.74,0.10103
5095.95,0.10170
5090.16,0.10087
5084.38,0.10235
5078.59,0.10156
5072.8,0.10244
5067.02,0.10216
5061.23,0.10042
5055.44,0.10100
5049.66,0.10131
5043.87,0.09991
5038.08,0.10101
5032.3,0.10093
5026.51,0.10225
5020.73,0.10123
5014.94,0.10265
5009.15,0.10154
5003.37,0.10099
4997.58,0.10189
4991.79,0.10151
4986.01,0.10205
4980.22,0.10102
4974.43,0.10110
4968.65,0.10146
4962.86,0.10271
4957.07,0.10105
4951.29,0.10185
4945.5,0.10173
4939.71,0.10120
4933.93,0.10293
4928.14,0.10150
4922.36,0.10202
4916.57,0.10138
4910.78,0.10164
4905,0.10247
4899.21,0.10292
4893.42,0.10199
4887.64,0.10132
4881.85,0.10196
4876.06,0.10100
4870.28,0.10176
4864.49,0.10126
4858.7,0.10126
4852.92,0.10216
4847.13,0.10160
4841.34,0.10149
4835.56,0.10142
4829.77,0.10199
4823.99,0.10241
4818.2,0.10300
4812.41,0.10260
4806.63,0.10159
4800.84,0.10203
4795.05,0.10272
4789.27,0.10475
4783.48,0.10313
4777.69,0.10322
4771.91,0.10223
4766.12,0.10290
4760.33,0.10308
4754.55,0.10222
4748.76,0.10292
4742.97,0.10286
4737.19,0.10313
4731.4,0.10413
4725.62,0.10288
4719.83,0.10299
4714.04,0.10275
4708.26,0.10277
4702.47,0.10242
4696.68,0.10285
4690.9,0.10247
4685.11,0.10191
4679.32,0.10130
4673.54,0.10067
4667.75,0.10170
4661.96,0.10198
4656.18,0.10211
4650.39,0.10200
4644.6,0.10171
4638.82,0.10234
4633.03,0.10150
4627.25,0.10224
4621.46,0.10276
4615.67,0.10174
4609.89,0.10205
4604.1,0.10160
4598.31,0.10165
4592.53,0.10179
4586.74,0.10190
4580.95,0.10136
4575.17,0.10212
4569.38,0.10180
4563.59,0.10117
4557.81,0.10271
4552.02,0.10344
4546.23,0.10219
4540.45,0.10229
4534.66,0.10196
4528.88,0.10291
4523.09,0.10288
4517.3,0.10281
4511.52,0.10217
4505.73,0.10312
4499.94,0.10230
4494.16,0.10147
4488.37,0.10144
4482.58,0.10161
4476.8,0.10017
4471.01,0.09973
4465.22,0.09980
4459.44,0.09830
4453.65,0.09831
4447.86,0.09794
4442.08,0.09732
4436.29,0.09546
4430.51,0.09511
4424.72,0.09465
4418.93,0.09358
4413.15,0.09246
4407.36,0.09050
4401.57,0.08948
4395.79,0.08858
4390,0.08743
4384.21,0.08596
4378.43,0.08423
4372.64,0.08218
4366.85,0.08058
4361.07,0.07902
4355.28,0.07721
4349.49,0.07328
4343.71,0.06974
4337.92,0.06769
4332.14,0.06580
4326.35,0.06341
4320.56,0.06392
4314.78,0.07126
4308.99,0.07569
4303.2,0.07686
4297.42,0.07879
4291.63,0.07863
4285.84,0.07744
4280.06,0.07676
4274.27,0.07550
4268.48,0.07406
4262.7,0.07086
4256.91,0.06739
4251.13,0.06659
4245.34,0.07152
4239.55,0.07451
4233.77,0.07560
4227.98,0.07452
4222.19,0.07397
4216.41,0.07328
4210.62,0.07327
4204.83,0.07331
4199.05,0.07216
4193.26,0.07083
4187.47,0.07179
4181.69,0.07214
4175.9,0.07146
4170.11,0.07129
4164.33,0.07180
4158.54,0.07256
4152.76,0.07220
4146.97,0.07270
4141.18,0.07311
4135.4,0.07375
4129.61,0.07334
4123.82,0.07332
4118.04,0.07337
4112.25,0.07376
4106.46,0.07350
4100.68,0.07302
4094.89,0.07390
4089.1,0.07621
4083.32,0.07667
4077.53,0.07778
4071.74,0.07762
4065.96,0.07843
4060.17,0.07944
4054.39,0.07924
4048.6,0.08044
4042.81,0.08134
4037.03,0.08135
4031.24,0.08176
4025.45,0.08153
4019.67,0.08140
4013.88,0.08266
4008.09,0.08402
4002.31,0.08424
3996.52,0.08417
3990.73,0.08440
3984.95,0.08464
3979.16,0.08425
3973.37,0.08472
3967.59,0.08440
3961.8,0.08477
3956.02,0.08502
3950.23,0.08537
3944.44,0.08523
3938.66,0.08537
3932.87,0.08423
3927.08,0.08484
3921.3,0.08493
3915.51,0.08487
3909.72,0.08539
3903.94,0.08600
3898.15,0.08582
3892.36,0.08567
3886.58,0.08563
3880.79,0.08629
3875,0.08629
3869.22,0.08618
3863.43,0.08706
3857.65,0.08856
3851.86,0.08851
3846.07,0.08904
3840.29,0.08971
3834.5,0.08810
3828.71,0.08895
3822.93,0.08888
3817.14,0.08962
3811.35,0.08933
3805.57,0.09057
3799.78,0.09014
3793.99,0.09108
3788.21,0.09098
3782.42,0.09223
3776.63,0.09123
3770.85,0.09111
3765.06,0.09098
3759.28,0.09202
3753.49,0.09147
3747.7,0.09069
3741.92,0.09137
3736.13,0.09059
3730.34,0.09072
3724.56,0.09082
3718.77,0.09090
3712.98,0.08944
3707.2,0.08883
3701.41,0.08881
3695.62,0.08880
3689.84,0.08837
3684.05,0.08743
3678.26,0.08721
3672.48,0.08672
3666.69,0.08651
3660.91,0.08669
3655.12,0.08473
3649.33,0.08521
3643.55,0.08443
3637.76,0.08498
3631.97,0.08572
3626.19,0.08455
3620.4,0.08547
3614.61,0.08388
3608.83,0.08214
3603.04,0.08247
3597.25,0.08642
3591.47,0.08912
3585.68,0.09143
3579.89,0.09180
3574.11,0.09237
3568.32,0.09287
3562.54,0.09172
3556.75,0.09315
3550.96,0.09359
3545.18,0.09314
3539.39,0.09338
3533.6,0.09386
3527.82,0.09342
3522.03,0.09410
3516.24,0.09318
3510.46,0.09315
3504.67,0.09334
3498.88,0.09307
3493.1,0.09288
3487.31,0.09150
3481.52,0.09042
3475.74,0.08839
3469.95,0.08452
3464.17,0.08147
3458.38,0.08001
3452.59,0.08037
3446.81,0.08286
3441.02,0.08554
3435.23,0.08788
3429.45,0.08854
3423.66,0.08943
3417.87,0.09111
3412.09,0.09070
3406.3,0.09057
3400.51,0.09080
3394.73,0.09160
3388.94,0.09029
3383.15,0.08979
3377.37,0.08908
3371.58,0.08885
3365.8,0.08917
3360.01,0.08998
3354.22,0.08959
3348.44,0.08919
3342.65,0.09005
3336.86,0.09102
3331.08,0.09055
3325.29,0.09058
3319.5,0.09066
3313.72,0.09048
3307.93,0.09067
3302.14,0.09064
3296.36,0.09032
3290.57,0.09050
3284.78,0.09035
3279,0.09035
3273.21,0.09005
3267.43,0.09009
3261.64,0.08939
3255.85,0.09014
3250.07,0.08978
3244.28,0.08980
3238.49,0.08960
3232.71,0.08937
3226.92,0.08913
3221.13,0.08967
3215.35,0.08881
3209.56,0.08859
3203.77,0.08774
3197.99,0.08872
3192.2,0.08817
3186.41,0.08732
3180.63,0.08688
3174.84,0.08629
3169.06,0.08588
3163.27,0.08572
3157.48,0.08519
3151.7,0.08407
3145.91,0.08436
3140.12,0.08364
3134.34,0.08239
3128.55,0.08161
3122.76,0.07988
3116.98,0.07875
3111.19,0.07747
3105.4,0.07509
3099.62,0.07256
3093.83,0.07014
3088.05,0.06798
3082.26,0.06629
3076.47,0.06578
3070.69,0.06456
3064.9,0.06341
3059.11,0.06211
3053.33,0.06074
3047.54,0.05948
3041.75,0.05855
3035.97,0.05770
3030.18,0.05654
3024.39,0.05575
3018.61,0.05507
3012.82,0.05539
3007.03,0.05419
3001.25,0.05387
2995.46,0.05386
2989.68,0.05312
2983.89,0.05180
2978.1,0.05134
2972.32,0.05042
2966.53,0.04932
2960.74,0.04862
2954.96,0.04691
2949.17,0.04509
2943.38,0.04248
2937.6,0.04016
2931.81,0.03999
2926.02,0.04869
2920.24,0.07303
2914.45,0.08885
2908.66,0.07910
2902.88,0.07319
2897.09,0.07085
2891.31,0.06910
2885.52,0.06719
2879.73,0.06491
2873.95,0.06189
2868.16,0.05984
2862.37,0.05619
2856.59,0.05453
2850.8,0.07149
2845.01,0.08415
2839.23,0.07806
2833.44,0.07227
2827.65,0.06908
2821.87,0.06785
2816.08,0.06680
2810.29,0.06636
2804.51,0.06627
2798.72,0.06653
2792.94,0.06697
2787.15,0.06766
2781.36,0.06805
2775.58,0.06889
2769.79,0.06932
2764,0.06972
2758.22,0.06979
2752.43,0.06982
2746.64,0.06970
2740.86,0.06925
2735.07,0.06911
2729.28,0.06952
2723.5,0.06947
2717.71,0.06964
2711.92,0.06950
2706.14,0.06972
2700.35,0.06978
2694.57,0.06927
2688.78,0.06781
2682.99,0.06752
2677.21,0.06699
2671.42,0.06668
2665.63,0.06668
2659.85,0.06684
2654.06,0.06684
2648.27,0.06745
2642.49,0.06747
2636.7,0.06721
2630.91,0.06770
2625.13,0.06905
2619.34,0.06974
2613.55,0.07058
2607.77,0.07211
2601.98,0.07344
2596.2,0.07429
2590.41,0.07528
2584.62,0.07647
2578.84,0.07769
2573.05,0.07947
2567.26,0.08039
2561.48,0.08157
2555.69,0.08207
2549.9,0.08292
2544.12,0.08372
2538.33,0.08397
2532.54,0.08403
2526.76,0.08420
2520.97,0.08543
2515.18,0.08656
2509.4,0.08769
2503.61,0.08738
2497.83,0.08770
2492.04,0.08784
2486.25,0.08785
2480.47,0.08748
2474.68,0.08794
2468.89,0.08899
2463.11,0.09003
2457.32,0.09173
2451.53,0.09243
2445.75,0.09332
2439.96,0.09326
2434.17,0.09411
2428.39,0.09294
2422.6,0.09220
2416.81,0.09267
2411.03,0.09242
2405.24,0.09200
2399.46,0.09196
2393.67,0.09169
2387.88,0.09112
2382.1,0.09118
2376.31,0.09152
2370.52,0.09082
2364.74,0.08832
2358.95,0.08791
2353.16,0.08650
2347.38,0.08448
2341.59,0.08314
2335.8,0.08282
2330.02,0.08213
2324.23,0.08195
2318.44,0.08269
2312.66,0.08354
2306.87,0.08354
2301.09,0.08379
2295.3,0.08568
2289.51,0.08565
2283.73,0.08511
2277.94,0.08601
2272.15,0.08740
2266.37,0.08755
2260.58,0.08761
2254.79,0.08887
2249.01,0.08936
2243.22,0.08938
2237.43,0.09190
2231.65,0.09426
2225.86,0.09341
2220.07,0.09362
2214.29,0.09541
2208.5,0.09537
2202.72,0.09369
2196.93,0.09430
2191.14,0.09494
2185.36,0.09266
2179.57,0.09177
2173.78,0.09313
2168,0.09288
2162.21,0.09118
2156.42,0.09175
2150.64,0.09298
2144.85,0.09208
2139.06,0.09274
2133.28,0.09485
2127.49,0.09581
2121.7,0.09400
2115.92,0.09443
2110.13,0.09570
2104.35,0.09415
2098.56,0.09262
2092.77,0.09387
2086.99,0.09393
2081.2,0.09124
2075.41,0.09116
2069.63,0.09213
2063.84,0.09060
2058.05,0.08835
2052.27,0.08954
2046.48,0.08887
2040.69,0.08601
2034.91,0.08514
2029.12,0.08621
2023.33,0.08373
2017.55,0.08211
2011.76,0.08674
2005.98,0.08946
2000.19,0.08895
1994.4,0.09004
1988.62,0.09323
1982.83,0.09228
1977.04,0.09090
1971.26,0.09282
1965.47,0.09319
1959.68,0.09074
1953.9,0.09084
1948.11,0.09318
1942.32,0.09163
1936.54,0.09012
1930.75,0.09185
1924.96,0.09242
1919.18,0.08949
1913.39,0.08886
1907.61,0.08991
1901.82,0.08755
1896.03,0.08505
1890.25,0.08752
1884.46,0.08837
1878.67,0.08592
1872.89,0.08617
1867.1,0.08737
1861.31,0.08515
1855.53,0.08465
1849.74,0.08726
1843.95,0.08615
1838.17,0.08355
1832.38,0.08429
1826.6,0.08366
1820.81,0.08028
1815.02,0.08030
1809.24,0.08008
1803.45,0.07713
1797.66,0.07630
1791.88,0.07502
1786.09,0.07101
1780.3,0.07050
1774.52,0.06780
1768.73,0.06479
1762.94,0.06236
1757.16,0.06126
1751.37,0.06010
1745.58,0.05502
1739.8,0.04762
1734.01,0.05073
1728.23,0.05568
1722.44,0.05762
1716.65,0.05809
1710.87,0.05929
1705.08,0.05917
1699.29,0.05905
1693.51,0.06027
1687.72,0.06286
1681.93,0.06781
1676.15,0.06870
1670.36,0.07015
1664.57,0.07235
1658.79,0.07003
1653,0.06923
1647.21,0.06998
1641.43,0.07191
1635.64,0.07426
1629.86,0.07770
1624.07,0.07773
1618.28,0.07684
1612.5,0.07976
1606.71,0.07975
1600.92,0.07743
1595.14,0.07879
1589.35,0.07980
1583.56,0.07734
1577.78,0.07696
1571.99,0.07869
1566.2,0.07643
1560.42,0.07594
1554.63,0.07759
1548.84,0.07706
1543.06,0.07518
1537.27,0.07665
1531.49,0.07593
1525.7,0.07414
1519.91,0.07317
1514.13,0.07411
1508.34,0.07093
1502.55,0.06996
1496.77,0.06739
1490.98,0.06447
1485.19,0.06113
1479.41,0.05611
1473.62,0.05399
1467.83,0.05806
1462.05,0.06217
1456.26,0.06443
1450.47,0.06391
1444.69,0.06309
1438.9,0.06248
1433.12,0.06164
1427.33,0.06128
1421.54,0.06179
1415.76,0.06228
1409.97,0.06258
1404.18,0.06321
1398.4,0.06120
1392.61,0.05892
1386.82,0.05625
1381.04,0.05480
1375.25,0.05398
1369.46,0.05459
1363.68,0.05552
1357.89,0.05642
1352.1,0.05695
1346.32,0.05748
1340.53,0.05862
1334.75,0.06043
1328.96,0.06021
1323.17,0.05946
1317.39,0.05750
1311.6,0.05656
1305.81,0.05622
1300.03,0.05567
1294.24,0.05546
1288.45,0.05535
1282.67,0.05516
1276.88,0.05488
1271.09,0.05525
1265.31,0.05742
1259.52,0.06040
1253.73,0.06565
1247.95,0.07248
1242.16,0.07694
1236.38,0.07389
1230.59,0.06700
1224.8,0.06246
1219.02,0.05974
1213.23,0.05882
1207.44,0.05870
1201.66,0.05814
1195.87,0.05891
1190.08,0.05934
1184.3,0.05995
1178.51,0.06010
1172.72,0.06074
1166.94,0.06126
1161.15,0.06074
1155.36,0.06040
1149.58,0.05976
1143.79,0.05992
1138.01,0.05943
1132.22,0.05995
1126.43,0.05950
1120.65,0.05999
1114.86,0.05989
1109.07,0.06098
1103.29,0.06024
1097.5,0.05999
1091.71,0.06044
1085.93,0.05969
1080.14,0.05889
1074.35,0.05953
1068.57,0.06001
1062.78,0.05885
1056.99,0.05922
1051.21,0.05915
1045.42,0.05776
1039.64,0.05825
1033.85,0.05851
1028.06,0.05814
1022.28,0.05925
1016.49,0.06260
1010.7,0.06267
1004.92,0.06268
999.13,0.06320
993.344,0.06307
987.557,0.06286
981.771,0.06501
975.984,0.06200
970.198,0.06072
964.411,0.06198
958.625,0.06104
952.838,0.05981
947.052,0.06165
941.265,0.06312
935.479,0.06266
929.692,0.06134
923.906,0.06794
918.12,0.07266
912.333,0.06683
906.547,0.06918
900.76,0.07580
894.974,0.07001
889.187,0.06685
883.401,0.07574
877.614,0.07575
871.828,0.06620
866.041,0.07141
860.255,0.07967
854.468,0.07191
848.682,0.06905
842.895,0.08119
837.109,0.08138
831.323,0.06978
825.536,0.07862
819.75,0.08686
813.963,0.07288
808.177,0.06994
802.39,0.08288
796.604,0.07924
790.817,0.06795
785.031,0.07874
779.244,0.08674
773.458,0.07004
767.671,0.06789
761.885,0.08216
756.098,0.06975
750.312,0.06063
744.526,0.07088
738.739,0.05897
732.953,0.05397
727.166,0.05620
721.38,0.05770
715.593,0.06197
709.807,0.06806
704.02,0.07196
698.234,0.07014
692.447,0.09903
686.661,0.08394
680.874,0.07218
675.088,0.10177
669.301,0.09324
663.515,0.06640
657.729,0.08754
651.942,0.09126
646.156,0.06152
640.369,0.06553
634.583,0.08665
628.796,0.07163
623.01,0.05641
617.223,0.07585
611.437,0.06771
605.65,0.06234
599.864,0.05631