File: 01_Data/PEVA/FTIR/IS/PEVA_0.18_IS_Trans_S_240819_R4.dpt
7496.91,0.93071
7491.12,0.93505
7485.33,0.93134
7479.55,0.92009
7473.76,0.94126
7467.98,0.91390
7462.19,0.91778
7456.4,0.91707
7450.62,0.93053
7444.83,0.93316
7439.04,0.94440
7433.26,0.93855
7427.47,0.93653
7421.69,0.93018
7415.9,0.93286
7410.11,0.93143
7404.33,0.91930
7398.54,0.92076
7392.76,0.92999
7386.97,0.94907
7381.18,0.91867
7375.4,0.93029
7369.61,0.93120
7363.83,0.91333
7358.04,0.93244
7352.25,0.92660
7346.47,0.92382
7340.68,0.92905
7334.89,0.92554
7329.11,0.91338
7323.32,0.92872
7317.54,0.92827
7311.75,0.92015
7305.96,0.93912
7300.18,0.92906
7294.39,0.91021
7288.61,0.91155
7282.82,0.91936
7277.03,0.91682
7271.25,0.91430
7265.46,0.91754
7259.67,0.90663
7253.89,0.92121
7248.1,0.92287
7242.32,0.91307
7236.53,0.92330
7230.74,0.90915
7224.96,0.91188
7219.17,0.89859
7213.39,0.91753
7207.6,0.91009
7201.81,0.89853
7196.03,0.91372
7190.24,0.90177
7184.45,0.89423
7178.67,0.88527
7172.88,0.89831
7167.1,0.89704
7161.31,0.89019
7155.52,0.92325
7149.74,0.91076
7143.95,0.90194
7138.17,0.90873
7132.38,0.92248
7126.59,0.91596
7120.81,0.90414
7115.02,0.91217
7109.23,0.92080
7103.45,0.92281
7097.66,0.91722
7091.88,0.91471
7086.09,0.91648
7080.3,0.91981
7074.52,0.91653
7068.73,0.90768
7062.95,0.89839
7057.16,0.91185
7051.37,0.90826
7045.59,0.91503
7039.8,0.90993
7034.02,0.91484
7028.23,0.91645
7022.44,0.90563
7016.66,0.91759
7010.87,0.91745
7005.08,0.91388
6999.3,0.92583
6993.51,0.91068
6987.73,0.92151
6981.94,0.91933
6976.15,0.91633
6970.37,0.91803
6964.58,0.91846
6958.8,0.91196
6953.01,0.91335
6947.22,0.91860
6941.44,0.91651
6935.65,0.92073
6929.86,0.91896
6924.08,0.91823
6918.29,0.91763
6912.51,0.92638
6906.72,0.91558
6900.93,0.92451
6895.15,0.92223
6889.36,0.91039
6883.58,0.92116
6877.79,0.92417
6872,0.92824
6866.22,0.92611
6860.43,0.92304
6854.64,0.92727
6848.86,0.92543
6843.07,0.92799
6837.29,0.92248
6831.5,0.91866
6825.71,0.91919
6819.93,0.92870
6814.14,0.93153
6808.36,0.92619
6802.57,0.91902
6796.78,0.92735
6791,0.92194
6785.21,0.93417
6779.43,0.93379
6773.64,0.92819
6767.85,0.92285
6762.07,0.92749
6756.28,0.92460
6750.49,0.93357
6744.71,0.93525
6738.92,0.93536
6733.14,0.94043
6727.35,0.93461
6721.56,0.92521
6715.78,0.92979
6709.99,0.93175
6704.21,0.92573
6698.42,0.92564
6692.63,0.92788
6686.85,0.93363
6681.06,0.93000
6675.27,0.93172
6669.49,0.93404
6663.7,0.93646
6657.92,0.93429
6652.13,0.92606
6646.34,0.92659
6640.56,0.93479
6634.77,0.93950
6628.99,0.93358
6623.2,0.93143
6617.41,0.92869
6611.63,0.92912
6605.84,0.92620
6600.05,0.92716
6594.27,0.92733
6588.48,0.93060
6582.7,0.93625
6576.91,0.94153
6571.12,0.92967
6565.34,0.93169
6559.55,0.93145
6553.77,0.94216
6547.98,0.92892
6542.19,0.93369
6536.41,0.92563
6530.62,0.92875
6524.84,0.92880
6519.05,0.93511
6513.26,0.93166
6507.48,0.92831
6501.69,0.93464
6495.9,0.94108
6490.12,0.93000
6484.33,0.93265
6478.55,0.93120
6472.76,0.93406
6466.97,0.93169
6461.19,0.92838
6455.4,0.92668
6449.62,0.93116
6443.83,0.92998
6438.04,0.93170
6432.26,0.93363
6426.47,0.94156
6420.68,0.93500
6414.9,0.93401
6409.11,0.93314
6403.33,0.93319
6397.54,0.93295
6391.75,0.93321
6385.97,0.93269
6380.18,0.92611
6374.4,0.93093
6368.61,0.93197
6362.82,0.94112
6357.04,0.93161
6351.25,0.93689
6345.46,0.93151
6339.68,0.93707
6333.89,0.92762
6328.11,0.93188
6322.32,0.92963
6316.53,0.93176
6310.75,0.93172
6304.96,0.93044
6299.18,0.93369
6293.39,0.92673
6287.6,0.93442
6281.82,0.93546
6276.03,0.93020
6270.24,0.93351
6264.46,0.93762
6258.67,0.93170
6252.89,0.92820
6247.1,0.93307
6241.31,0.93501
6235.53,0.93693
6229.74,0.93586
6223.96,0.93456
6218.17,0.93180
6212.38,0.93080
6206.6,0.93031
6200.81,0.93369
6195.03,0.93104
6189.24,0.93179
6183.45,0.93213
6177.67,0.92625
6171.88,0.92802
6166.09,0.92604
6160.31,0.93129
6154.52,0.93008
6148.74,0.92860
6142.95,0.93116
6137.16,0.92650
6131.38,0.92391
6125.59,0.92857
6119.81,0.92404
6114.02,0.92504
6108.23,0.92219
6102.45,0.92507
6096.66,0.92207
6090.87,0.92564
6085.09,0.92132
6079.3,0.92032
6073.52,0.92259
6067.73,0.92262
6061.94,0.92498
6056.16,0.92470
6050.37,0.92382
6044.59,0.92450
6038.8,0.92065
6033.01,0.91940
6027.23,0.92529
6021.44,0.92277
6015.65,0.92075
6009.87,0.91865
6004.08,0.91845
5998.3,0.91763
5992.51,0.92064
5986.72,0.91755
5980.94,0.91478
5975.15,0.91186
5969.37,0.91757
5963.58,0.91409
5957.79,0.91078
5952.01,0.91033
5946.22,0.90923
5940.44,0.90631
5934.65,0.90556
5928.86,0.90645
5923.08,0.90633
5917.29,0.90857
5911.5,0.90553
5905.72,0.90272
5899.93,0.90062
5894.15,0.89844
5888.36,0.89291
5882.57,0.89061
5876.79,0.88900
5871,0.87844
5865.22,0.86943
5859.43,0.85819
5853.64,0.85556
5847.86,0.84433
5842.07,0.83163
5836.28,0.82860
5830.5,0.82109
5824.71,0.80841
5818.93,0.80415
5813.14,0.79405
5807.35,0.78357
5801.57,0.77344
5795.78,0.76054
5790,0.74877
5784.21,0.73014
5778.42,0.71250
5772.64,0.71147
5766.85,0.74259
5761.06,0.77684
5755.28,0.79624
5749.49,0.82115
5743.71,0.83089
5737.92,0.83892
5732.13,0.84360
5726.35,0.84842
5720.56,0.85208
5714.78,0.85410
5708.99,0.85064
5703.2,0.84551
5697.42,0.84084
5691.63,0.83223
5685.84,0.82609
5680.06,0.82141
5674.27,0.81731
5668.49,0.80583
5662.7,0.80840
5656.91,0.81816
5651.13,0.83320
5645.34,0.84427
5639.56,0.85044
5633.77,0.85462
5627.98,0.85927
5622.2,0.86202
5616.41,0.86144
5610.63,0.86502
5604.84,0.86709
5599.05,0.87109
5593.27,0.86929
5587.48,0.86983
5581.69,0.87029
5575.91,0.87137
5570.12,0.86621
5564.34,0.86796
5558.55,0.86710
5552.76,0.86625
5546.98,0.86570
5541.19,0.86939
5535.41,0.86794
5529.62,0.86920
5523.83,0.86798
5518.05,0.86710
5512.26,0.87020
5506.47,0.86665
5500.69,0.86876
5494.9,0.86587
5489.12,0.86343
5483.33,0.87302
5477.54,0.86921
5471.76,0.86949
5465.97,0.86922
5460.19,0.86793
5454.4,0.87527
5448.61,0.87201
5442.83,0.86758
5437.04,0.87170
5431.25,0.86889
5425.47,0.87533
5419.68,0.88238
5413.9,0.86895
5408.11,0.87649
5402.32,0.88538
5396.54,0.88076
5390.75,0.88556
5384.97,0.88364
5379.18,0.88549
5373.39,0.88282
5367.61,0.89039
5361.82,0.89089
5356.04,0.88538
5350.25,0.88311
5344.46,0.87791
5338.68,0.87906
5332.89,0.89033
5327.1,0.88843
5321.32,0.89683
5315.53,0.89387
5309.75,0.89246
5303.96,0.89363
5298.17,0.89415
5292.39,0.89323
5286.6,0.89141
5280.82,0.89355
5275.03,0.89626
5269.24,0.89281
5263.46,0.88506
5257.67,0.89275
5251.88,0.89124
5246.1,0.88453
5240.31,0.89546
5234.53,0.89480
5228.74,0.89221
5222.95,0.89022
5217.17,0.89196
5211.38,0.89510
5205.6,0.88679
5199.81,0.89462
5194.02,0.89707
5188.24,0.89333
5182.45,0.89526
5176.66,0.89321
5170.88,0.89410
5165.09,0.89440
5159.31,0.89421
5153.52,0.89385
5147.73,0.89813
5141.95,0.89780
5136.16,0.89870
5130.38,0.89833
5124.59,0.89927
5118.8,0.90256
5113.02,0.89972
5107.23,0.89836
5101.45,0.89880
5095.66,0.90090
5089.87,0.90034
5084.09,0.90052
5078.3,0.90132
5072.51,0.90147
5066.73,0.89997
5060.94,0.90244
5055.16,0.90157
5049.37,0.90148
5043.58,0.90124
5037.8,0.90109
5032.01,0.90212
5026.23,0.90345
5020.44,0.90370
5014.65,0.90209
5008.87,0.90137
5003.08,0.90044
4997.29,0.90065
4991.51,0.89785
4985.72,0.89745
4979.94,0.89873
4974.15,0.89711
4968.36,0.89703
4962.58,0.89787
4956.79,0.90028
4951.01,0.90233
4945.22,0.90221
4939.43,0.90282
4933.65,0.90234
4927.86,0.90350
4922.07,0.90327
4916.29,0.90321
4910.5,0.90355
4904.72,0.90246
4898.93,0.90253
4893.14,0.90420
4887.36,0.90386
4881.57,0.90394
4875.79,0.90226
4870,0.90175
4864.21,0.90253
4858.43,0.90245
4852.64,0.90449
4846.85,0.90303
4841.07,0.90376
4835.28,0.90679
4829.5,0.90573
4823.71,0.90553
4817.92,0.90545
4812.14,0.90726
4806.35,0.90660
4800.57,0.90683
4794.78,0.90832
4788.99,0.90844
4783.21,0.90618
4777.42,0.90715
4771.64,0.90706
4765.85,0.90552
4760.06,0.90720
4754.28,0.90624
4748.49,0.90539
4742.7,0.90676
4736.92,0.90521
4731.13,0.90668
4725.35,0.90559
4719.56,0.90568
4713.77,0.90564
4707.99,0.90622
4702.2,0.90382
4696.42,0.90332
4690.63,0.89871
4684.84,0.89849
4679.06,0.89587
4673.27,0.89593
4667.48,0.89719
4661.7,0.89948
4655.91,0.90249
4650.13,0.90491
4644.34,0.90534
4638.55,0.90586
4632.77,0.90681
4626.98,0.90786
4621.2,0.90774
4615.41,0.90769
4609.62,0.90861
4603.84,0.90758
4598.05,0.90680
4592.26,0.90729
4586.48,0.90740
4580.69,0.90633
4574.91,0.90689
4569.12,0.90609
4563.33,0.90646
4557.55,0.90455
4551.76,0.90354
4545.98,0.90204
4540.19,0.90159
4534.4,0.89994
4528.62,0.89908
4522.83,0.89797
4517.05,0.89502
4511.26,0.89278
4505.47,0.89018
4499.69,0.88755
4493.9,0.88418
4488.11,0.88208
4482.33,0.87882
4476.54,0.87463
4470.76,0.86971
4464.97,0.86591
4459.18,0.85909
4453.4,0.85109
4447.61,0.84252
4441.83,0.83242
4436.04,0.82409
4430.25,0.81526
4424.47,0.80955
4418.68,0.80218
4412.89,0.79202
4407.11,0.77955
4401.32,0.76592
4395.54,0.74990
4389.75,0.73114
4383.96,0.71295
4378.18,0.69106
4372.39,0.66727
4366.61,0.64125
4360.82,0.61186
4355.03,0.56822
4349.25,0.50883
4343.46,0.44310
4337.67,0.39136
4331.89,0.34506
4326.1,0.27797
4320.32,0.28208
4314.53,0.43890
4308.74,0.54747
4302.96,0.59221
4297.17,0.60573
4291.39,0.60015
4285.6,0.58804
4279.81,0.57311
4274.03,0.54878
4268.24,0.51024
4262.46,0.45087
4256.67,0.38349
4250.88,0.35916
4245.1,0.44926
4239.31,0.51664
4233.52,0.52960
4227.74,0.51431
4221.95,0.49663
4216.17,0.49762
4210.38,0.50086
4204.59,0.48965
4198.81,0.46552
4193.02,0.44810
4187.24,0.44897
4181.45,0.45178
4175.66,0.45429
4169.88,0.45869
4164.09,0.46356
4158.3,0.46837
4152.52,0.47074
4146.73,0.47420
4140.95,0.48037
4135.16,0.48633
4129.37,0.48988
4123.59,0.49391
4117.8,0.49657
4112.02,0.49788
4106.23,0.49769
4100.44,0.49905
4094.66,0.50639
4088.87,0.52618
4083.08,0.55166
4077.3,0.56883
4071.51,0.58084
4065.73,0.58976
4059.94,0.59759
4054.15,0.60482
4048.37,0.61035
4042.58,0.61782
4036.8,0.62622
4031.01,0.62995
4025.22,0.62996
4019.44,0.63998
4013.65,0.66498
4007.86,0.67876
4002.08,0.68510
3996.29,0.68694
3990.51,0.68552
3984.72,0.68291
3978.93,0.68026
3973.15,0.68073
3967.36,0.68919
3961.58,0.69311
3955.79,0.69831
3950,0.69464
3944.22,0.69375
3938.43,0.69974
3932.65,0.68844
3926.86,0.68604
3921.07,0.68361
3915.29,0.68623
3909.5,0.69351
3903.71,0.67349
3897.93,0.68518
3892.14,0.68562
3886.36,0.68761
3880.57,0.68665
3874.78,0.69143
3869,0.68786
3863.21,0.69436
3857.43,0.70440
3851.64,0.69460
3845.85,0.71518
3840.07,0.69361
3834.28,0.70504
3828.49,0.71323
3822.71,0.70177
3816.92,0.70330
3811.14,0.72689
3805.35,0.71834
3799.56,0.71988
3793.78,0.74629
3787.99,0.75199
3782.21,0.74860
3776.42,0.75730
3770.63,0.75168
3764.85,0.75452
3759.06,0.74890
3753.27,0.73865
3747.49,0.73067
3741.7,0.74514
3735.92,0.72919
3730.13,0.75302
3724.34,0.74796
3718.56,0.75976
3712.77,0.74441
3706.99,0.75314
3701.2,0.74903
3695.41,0.74615
3689.63,0.71593
3683.84,0.74063
3678.06,0.71974
3672.27,0.71227
3666.48,0.72777
3660.7,0.72608
3654.91,0.70597
3649.12,0.66735
3643.34,0.69415
3637.55,0.70874
3631.77,0.70824
3625.98,0.71151
3620.19,0.70089
3614.41,0.68308
3608.62,0.66094
3602.84,0.66155
3597.05,0.70223
3591.26,0.75356
3585.48,0.77073
3579.69,0.79108
3573.9,0.79756
3568.12,0.78395
3562.33,0.79897
3556.55,0.81216
3550.76,0.81089
3544.97,0.80761
3539.19,0.81836
3533.4,0.82004
3527.62,0.81282
3521.83,0.81669
3516.04,0.82341
3510.26,0.81861
3504.47,0.81407
3498.68,0.81606
3492.9,0.81450
3487.11,0.80674
3481.33,0.79092
3475.54,0.76638
3469.75,0.72305
3463.97,0.67457
3458.18,0.65311
3452.4,0.66405
3446.61,0.69110
3440.82,0.73173
3435.04,0.76288
3429.25,0.78256
3423.47,0.79133
3417.68,0.79823
3411.89,0.80364
3406.11,0.80533
3400.32,0.80534
3394.53,0.80232
3388.75,0.80130
3382.96,0.79656
3377.18,0.79398
3371.39,0.79403
3365.6,0.79333
3359.82,0.79807
3354.03,0.80454
3348.25,0.80888
3342.46,0.81137
3336.67,0.81186
3330.89,0.81490
3325.1,0.81654
3319.31,0.81744
3313.53,0.81787
3307.74,0.81772
3301.96,0.81811
3296.17,0.81798
3290.38,0.81775
3284.6,0.81730
3278.81,0.81481
3273.03,0.81380
3267.24,0.81381
3261.45,0.81186
3255.67,0.81078
3249.88,0.81061
3244.09,0.80657
3238.31,0.80509
3232.52,0.80084
3226.74,0.79675
3220.95,0.79127
3215.16,0.78723
3209.38,0.78214
3203.59,0.77597
3197.81,0.76952
3192.02,0.76552
3186.23,0.75839
3180.45,0.75343
3174.66,0.74855
3168.87,0.74301
3163.09,0.73789
3157.3,0.73217
3151.52,0.72632
3145.73,0.72019
3139.94,0.71315
3134.16,0.70270
3128.37,0.69219
3122.59,0.67819
3116.8,0.66148
3111.01,0.64189
3105.23,0.61739
3099.44,0.58332
3093.66,0.54176
3087.87,0.50492
3082.08,0.47940
3076.3,0.45839
3070.51,0.43781
3064.72,0.41386
3058.94,0.38955
3053.15,0.36261
3047.37,0.33198
3041.58,0.29898
3035.79,0.26334
3030.01,0.22962
3024.22,0.20150
3018.44,0.17704
3012.65,0.15840
3006.86,0.14033
3001.08,0.11733
2995.29,0.08904
2989.5,0.06006
2983.72,0.03327
2977.93,0.01311
2972.15,0.00326
2966.36,0.00048
2960.57,0.00077
2954.79,0.00002
2949,0.00093
2943.22,0.00033
2937.43,0.00038
2931.64,0.00054
2925.86,0.00063
2920.07,0.00076
2914.28,0.00066
2908.5,0.00088
2902.71,0.00021
2896.93,0.00070
2891.14,0.00050
2885.35,0.00011
2879.57,0.00032
2873.78,0.00065
2868,0.00033
2862.21,0.00070
2856.42,0.00056
2850.64,0.00073
2844.85,0.00067
2839.07,0.00064
2833.28,0.00038
2827.49,0.00261
2821.71,0.00837
2815.92,0.01937
2810.13,0.03512
2804.35,0.05485
2798.56,0.07902
2792.78,0.10853
2786.99,0.14239
2781.2,0.17738
2775.42,0.20979
2769.63,0.23342
2763.85,0.24899
2758.06,0.26170
2752.27,0.27157
2746.49,0.27470
2740.7,0.27565
2734.91,0.28061
2729.13,0.29231
2723.34,0.30683
2717.56,0.32093
2711.77,0.33354
2705.98,0.34319
2700.2,0.34722
2694.41,0.34073
2688.63,0.32509
2682.84,0.31428
2677.05,0.30812
2671.27,0.30586
2665.48,0.31052
2659.69,0.31907
2653.91,0.32853
2648.12,0.33756
2642.34,0.34097
2636.55,0.34251
2630.76,0.35686
2624.98,0.38213
2619.19,0.40718
2613.41,0.43051
2607.62,0.45332
2601.83,0.47469
2596.05,0.49289
2590.26,0.51493
2584.47,0.54060
2578.69,0.56340
2572.9,0.58286
2567.12,0.60244
2561.33,0.61727
2555.54,0.62596
2549.76,0.63347
2543.97,0.65057
2538.19,0.65947
2532.4,0.65313
2526.61,0.65640
2520.83,0.67322
2515.04,0.68711
2509.26,0.69677
2503.47,0.70184
2497.68,0.69939
2491.9,0.69704
2486.11,0.69476
2480.32,0.68928
2474.54,0.68606
2468.75,0.70246
2462.97,0.71966
2457.18,0.73108
2451.39,0.74346
2445.61,0.75268
2439.82,0.75397
2434.04,0.75275
2428.25,0.75207
2422.46,0.74317
2416.68,0.73321
2410.89,0.73604
2405.1,0.74080
2399.32,0.73969
2393.53,0.74031
2387.75,0.74287
2381.96,0.73469
2376.17,0.70919
2370.39,0.68436
2364.6,0.66156
2358.82,0.64417
2353.03,0.64360
2347.24,0.64233
2341.46,0.61644
2335.67,0.61232
2329.88,0.61410
2324.1,0.62432
2318.31,0.64101
2312.53,0.65963
2306.74,0.67722
2300.95,0.69159
2295.17,0.70443
2289.38,0.71697
2283.6,0.72557
2277.81,0.72627
2272.02,0.73236
2266.24,0.74290
2260.45,0.74612
2254.67,0.74776
2248.88,0.75301
2243.09,0.76110
2237.31,0.77407
2231.52,0.78698
2225.73,0.79139
2219.95,0.79019
2214.16,0.78917
2208.38,0.78847
2202.59,0.78426
2196.8,0.77430
2191.02,0.76540
2185.23,0.75910
2179.45,0.75199
2173.66,0.74575
2167.87,0.74178
2162.09,0.73865
2156.3,0.73483
2150.51,0.73600
2144.73,0.74698
2138.94,0.76086
2133.16,0.77174
2127.37,0.78188
2121.58,0.78891
2115.8,0.79017
2110.01,0.79185
2104.23,0.79426
2098.44,0.79315
2092.65,0.79025
2086.87,0.79092
2081.08,0.79036
2075.29,0.78523
2069.51,0.78080
2063.72,0.77636
2057.94,0.76981
2052.15,0.75904
2046.36,0.75008
2040.58,0.73886
2034.79,0.72573
2029.01,0.71209
2023.22,0.69672
2017.43,0.69018
2011.65,0.72707
2005.86,0.75948
2000.08,0.77570
1994.29,0.78108
1988.5,0.78921
1982.72,0.79852
1976.93,0.79650
1971.14,0.79155
1965.36,0.78688
1959.57,0.78597
1953.79,0.77962
1948,0.77776
1942.21,0.77317
1936.43,0.77690
1930.64,0.77245
1924.86,0.76615
1919.07,0.75643
1913.28,0.74869
1907.5,0.73400
1901.71,0.72356
1895.92,0.70524
1890.14,0.70590
1884.35,0.71878
1878.57,0.71456
1872.78,0.69937
1866.99,0.68176
1861.21,0.69382
1855.42,0.69553
1849.64,0.69428
1843.85,0.68107
1838.06,0.67790
1832.28,0.65743
1826.49,0.63431
1820.7,0.61716
1814.92,0.59503
1809.13,0.57183
1803.35,0.54725
1797.56,0.50959
1791.77,0.46814
1785.99,0.43502
1780.2,0.38334
1774.42,0.32566
1768.63,0.22782
1762.84,0.12634
1757.06,0.04951
1751.27,0.00791
1745.48,0.00026
1739.7,0.00071
1733.91,0.00073
1728.13,0.00076
1722.34,0.01317
1716.55,0.07559
1710.77,0.15398
1704.98,0.19798
1699.2,0.20311
1693.41,0.26440
1687.62,0.34497
1681.84,0.43555
1676.05,0.48099
1670.27,0.50118
1664.48,0.52650
1658.69,0.52723
1652.91,0.49028
1647.12,0.47260
1641.33,0.55331
1635.55,0.59081
1629.76,0.63458
1623.98,0.63798
1618.19,0.64235
1612.4,0.65926
1606.62,0.66006
1600.83,0.65556
1595.05,0.65274
1589.26,0.65311
1583.47,0.64408
1577.69,0.62371
1571.9,0.61690
1566.11,0.59907
1560.33,0.57315
1554.54,0.57717
1548.76,0.57898
1542.97,0.54206
1537.18,0.54692
1531.4,0.53888
1525.61,0.51325
1519.83,0.49133
1514.04,0.48357
1508.25,0.44591
1502.47,0.43165
1496.68,0.38527
1490.89,0.33448
1485.11,0.24407
1479.32,0.10932
1473.54,0.00550
1467.75,0.00026
1461.96,0.00035
1456.18,0.00097
1450.39,0.00485
1444.61,0.00951
1438.82,0.01169
1433.03,0.02291
1427.25,0.06519
1421.46,0.13483
1415.68,0.21546
1409.89,0.26571
1404.1,0.28349
1398.32,0.25810
1392.53,0.18267
1386.74,0.07664
1380.96,0.01111
1375.17,0.00103
1369.39,0.00065
1363.6,0.00247
1357.81,0.01347
1352.03,0.03814
1346.24,0.11792
1340.46,0.21914
1334.67,0.30443
1328.88,0.32302
1323.1,0.29447
1317.31,0.24220
1311.52,0.19202
1305.74,0.15835
1299.95,0.13885
1294.17,0.12529
1288.38,0.10575
1282.59,0.07566
1276.81,0.04275
1271.02,0.01599
1265.24,0.00264
1259.45,0.00005
1253.66,0.00029
1247.88,0.00035
1242.09,0.00033
1236.3,0.00026
1230.52,0.00046
1224.73,0.00055
1218.95,0.00338
1213.16,0.01704
1207.37,0.04763
1201.59,0.08903
1195.8,0.12902
1190.02,0.16298
1184.23,0.18914
1178.44,0.20590
1172.66,0.21919
1166.87,0.22136
1161.09,0.20794
1155.3,0.17774
1149.51,0.14379
1143.73,0.13317
1137.94,0.12952
1132.15,0.12044
1126.37,0.11932
1120.58,0.13111
1114.8,0.14438
1109.01,0.15590
1103.22,0.15992
1097.44,0.15452
1091.65,0.14135
1085.87,0.12404
1080.08,0.10773
1074.29,0.09396
1068.51,0.08082
1062.72,0.07444
1056.93,0.06502
1051.15,0.04452
1045.36,0.02907
1039.58,0.02404
1033.79,0.01304
1028,0.00335
1022.22,0.00026
1016.43,0.00200
1010.65,0.01932
1004.86,0.08174
999.073,0.15602
993.287,0.20592
987.501,0.23028
981.715,0.23247
975.929,0.21315
970.142,0.18117
964.356,0.15053
958.57,0.14005
952.784,0.15090
946.998,0.17115
941.212,0.17849
935.426,0.18832
929.64,0.27477
923.853,0.38287
918.067,0.43623
912.281,0.45707
906.495,0.47119
900.709,0.48278
894.923,0.47938
889.137,0.48318
883.35,0.49663
877.564,0.49991
871.778,0.49407
865.992,0.49861
860.206,0.51728
854.42,0.52906
848.634,0.54957
842.847,0.56891
837.061,0.58273
831.275,0.60023
825.489,0.61516
819.703,0.61424
813.917,0.59876
808.131,0.58280
802.344,0.56688
796.558,0.56789
790.772,0.59911
784.986,0.61959
779.2,0.60590
773.414,0.58647
767.628,0.57645
761.842,0.56227
756.055,0.53038
750.269,0.48954
744.483,0.42426
738.697,0.30696
732.911,0.10074
727.125,0.01133
721.339,0.00284
715.552,0.04934
709.766,0.27122
703.98,0.47647
698.194,0.61526
692.408,0.70517
686.622,0.73197
680.836,0.75367
675.049,0.76120
669.263,0.71581
663.477,0.74163
657.691,0.72319
651.905,0.65333
646.119,0.57341
640.333,0.56840
634.546,0.56811
628.76,0.49111
622.974,0.53863
617.188,0.51356
611.402,0.27007
605.616,0.27058
599.83,0.51779