File: 01_Data/PEVA/FTIR/IS/PEVA_0.18_IS_Trans_S_240819_R11.dpt
7496.91,0.93683
7491.12,0.94215
7485.33,0.92495
7479.55,0.94754
7473.76,0.92358
7467.98,0.94049
7462.19,0.93255
7456.4,0.94007
7450.62,0.92998
7444.83,0.93104
7439.04,0.94582
7433.26,0.94027
7427.47,0.93316
7421.69,0.94103
7415.9,0.93875
7410.11,0.94792
7404.33,0.94542
7398.54,0.94875
7392.76,0.94015
7386.97,0.93712
7381.18,0.93916
7375.4,0.94764
7369.61,0.93558
7363.83,0.94112
7358.04,0.95178
7352.25,0.92777
7346.47,0.93291
7340.68,0.91567
7334.89,0.92809
7329.11,0.94547
7323.32,0.94280
7317.54,0.93533
7311.75,0.93457
7305.96,0.94443
7300.18,0.94476
7294.39,0.93200
7288.61,0.92945
7282.82,0.94368
7277.03,0.94967
7271.25,0.92408
7265.46,0.93231
7259.67,0.94549
7253.89,0.93064
7248.1,0.94337
7242.32,0.92198
7236.53,0.93545
7230.74,0.91962
7224.96,0.92395
7219.17,0.92160
7213.39,0.92695
7207.6,0.93448
7201.81,0.91835
7196.03,0.92606
7190.24,0.92711
7184.45,0.91464
7178.67,0.92459
7172.88,0.93135
7167.1,0.92159
7161.31,0.91806
7155.52,0.92925
7149.74,0.91825
7143.95,0.93833
7138.17,0.93244
7132.38,0.93221
7126.59,0.94042
7120.81,0.93996
7115.02,0.92665
7109.23,0.93065
7103.45,0.92688
7097.66,0.92991
7091.88,0.92708
7086.09,0.93411
7080.3,0.92830
7074.52,0.92326
7068.73,0.92740
7062.95,0.92127
7057.16,0.91935
7051.37,0.91701
7045.59,0.91675
7039.8,0.92889
7034.02,0.92686
7028.23,0.92351
7022.44,0.92116
7016.66,0.92974
7010.87,0.92723
7005.08,0.93327
6999.3,0.92724
6993.51,0.92436
6987.73,0.93179
6981.94,0.93093
6976.15,0.93199
6970.37,0.92885
6964.58,0.93452
6958.8,0.93596
6953.01,0.92937
6947.22,0.94247
6941.44,0.92690
6935.65,0.92691
6929.86,0.93561
6924.08,0.93140
6918.29,0.93639
6912.51,0.93488
6906.72,0.93623
6900.93,0.92547
6895.15,0.93245
6889.36,0.93086
6883.58,0.94266
6877.79,0.93678
6872,0.93366
6866.22,0.93698
6860.43,0.93103
6854.64,0.93555
6848.86,0.93271
6843.07,0.93620
6837.29,0.93347
6831.5,0.93438
6825.71,0.93549
6819.93,0.93454
6814.14,0.93612
6808.36,0.93907
6802.57,0.94863
6796.78,0.94747
6791,0.94978
6785.21,0.93994
6779.43,0.93829
6773.64,0.95104
6767.85,0.93626
6762.07,0.94459
6756.28,0.94297
6750.49,0.94159
6744.71,0.93533
6738.92,0.94258
6733.14,0.93543
6727.35,0.94106
6721.56,0.93825
6715.78,0.95473
6709.99,0.94480
6704.21,0.94752
6698.42,0.95566
6692.63,0.93866
6686.85,0.93445
6681.06,0.94252
6675.27,0.94693
6669.49,0.94744
6663.7,0.94579
6657.92,0.94198
6652.13,0.94940
6646.34,0.94985
6640.56,0.94561
6634.77,0.94645
6628.99,0.94174
6623.2,0.94926
6617.41,0.94214
6611.63,0.94354
6605.84,0.94227
6600.05,0.94372
6594.27,0.95015
6588.48,0.94302
6582.7,0.93806
6576.91,0.94467
6571.12,0.93926
6565.34,0.94686
6559.55,0.93777
6553.77,0.94160
6547.98,0.94450
6542.19,0.94589
6536.41,0.94231
6530.62,0.94330
6524.84,0.94027
6519.05,0.94115
6513.26,0.95033
6507.48,0.94245
6501.69,0.94103
6495.9,0.94622
6490.12,0.94228
6484.33,0.94432
6478.55,0.94579
6472.76,0.93936
6466.97,0.94682
6461.19,0.94290
6455.4,0.94337
6449.62,0.94725
6443.83,0.94455
6438.04,0.94496
6432.26,0.94645
6426.47,0.94207
6420.68,0.94501
6414.9,0.94772
6409.11,0.94106
6403.33,0.94198
6397.54,0.94921
6391.75,0.94737
6385.97,0.94591
6380.18,0.94649
6374.4,0.94333
6368.61,0.94349
6362.82,0.94305
6357.04,0.94681
6351.25,0.94366
6345.46,0.94477
6339.68,0.94262
6333.89,0.94538
6328.11,0.94796
6322.32,0.94638
6316.53,0.94720
6310.75,0.94717
6304.96,0.94549
6299.18,0.94377
6293.39,0.94002
6287.6,0.94682
6281.82,0.94372
6276.03,0.94540
6270.24,0.94719
6264.46,0.94392
6258.67,0.93851
6252.89,0.94817
6247.1,0.94447
6241.31,0.94566
6235.53,0.94088
6229.74,0.93639
6223.96,0.94791
6218.17,0.94319
6212.38,0.94107
6206.6,0.94667
6200.81,0.93889
6195.03,0.94506
6189.24,0.94558
6183.45,0.94301
6177.67,0.94137
6171.88,0.94212
6166.09,0.94737
6160.31,0.94241
6154.52,0.94493
6148.74,0.93989
6142.95,0.94403
6137.16,0.93575
6131.38,0.93784
6125.59,0.93957
6119.81,0.93666
6114.02,0.93636
6108.23,0.93881
6102.45,0.94011
6096.66,0.93714
6090.87,0.93814
6085.09,0.93912
6079.3,0.93547
6073.52,0.93407
6067.73,0.93651
6061.94,0.93401
6056.16,0.94024
6050.37,0.93327
6044.59,0.93152
6038.8,0.93482
6033.01,0.93495
6027.23,0.93452
6021.44,0.93075
6015.65,0.92659
6009.87,0.93134
6004.08,0.92258
5998.3,0.93043
5992.51,0.92459
5986.72,0.92441
5980.94,0.92682
5975.15,0.92852
5969.37,0.92310
5963.58,0.92777
5957.79,0.92415
5952.01,0.92338
5946.22,0.91589
5940.44,0.91876
5934.65,0.91363
5928.86,0.92315
5923.08,0.91869
5917.29,0.91847
5911.5,0.91221
5905.72,0.91416
5899.93,0.91325
5894.15,0.90839
5888.36,0.90304
5882.57,0.90336
5876.79,0.89588
5871,0.88776
5865.22,0.87981
5859.43,0.87340
5853.64,0.86544
5847.86,0.85357
5842.07,0.84718
5836.28,0.83969
5830.5,0.82696
5824.71,0.82223
5818.93,0.81228
5813.14,0.80352
5807.35,0.79391
5801.57,0.78297
5795.78,0.77351
5790,0.75887
5784.21,0.74008
5778.42,0.72115
5772.64,0.72101
5766.85,0.74907
5761.06,0.78617
5755.28,0.80970
5749.49,0.82958
5743.71,0.84036
5737.92,0.85126
5732.13,0.85661
5726.35,0.86217
5720.56,0.86551
5714.78,0.86419
5708.99,0.86377
5703.2,0.85711
5697.42,0.85273
5691.63,0.84677
5685.84,0.83995
5680.06,0.83718
5674.27,0.82626
5668.49,0.81804
5662.7,0.81930
5656.91,0.83053
5651.13,0.84648
5645.34,0.85690
5639.56,0.86306
5633.77,0.86781
5627.98,0.87201
5622.2,0.87214
5616.41,0.87481
5610.63,0.87793
5604.84,0.88055
5599.05,0.88367
5593.27,0.88266
5587.48,0.88233
5581.69,0.88553
5575.91,0.88280
5570.12,0.87882
5564.34,0.87949
5558.55,0.87891
5552.76,0.87885
5546.98,0.87757
5541.19,0.87851
5535.41,0.87896
5529.62,0.88060
5523.83,0.88235
5518.05,0.87839
5512.26,0.87741
5506.47,0.88125
5500.69,0.87983
5494.9,0.87730
5489.12,0.87915
5483.33,0.88657
5477.54,0.88484
5471.76,0.88339
5465.97,0.88599
5460.19,0.88269
5454.4,0.88945
5448.61,0.88454
5442.83,0.88138
5437.04,0.88605
5431.25,0.88769
5425.47,0.88879
5419.68,0.89547
5413.9,0.88371
5408.11,0.88943
5402.32,0.89621
5396.54,0.89207
5390.75,0.89747
5384.97,0.89643
5379.18,0.89573
5373.39,0.89564
5367.61,0.90424
5361.82,0.90268
5356.04,0.89907
5350.25,0.89802
5344.46,0.89301
5338.68,0.89832
5332.89,0.90515
5327.1,0.90321
5321.32,0.90837
5315.53,0.90682
5309.75,0.90488
5303.96,0.90683
5298.17,0.90917
5292.39,0.90368
5286.6,0.90714
5280.82,0.90779
5275.03,0.91040
5269.24,0.90847
5263.46,0.90162
5257.67,0.90494
5251.88,0.90329
5246.1,0.89903
5240.31,0.90740
5234.53,0.90754
5228.74,0.90362
5222.95,0.90370
5217.17,0.90916
5211.38,0.90706
5205.6,0.89941
5199.81,0.90813
5194.02,0.90865
5188.24,0.90685
5182.45,0.90819
5176.66,0.90843
5170.88,0.90576
5165.09,0.90566
5159.31,0.90908
5153.52,0.90688
5147.73,0.90914
5141.95,0.90852
5136.16,0.91185
5130.38,0.91059
5124.59,0.91333
5118.8,0.91248
5113.02,0.91206
5107.23,0.91266
5101.45,0.91173
5095.66,0.91186
5089.87,0.91297
5084.09,0.91324
5078.3,0.91201
5072.51,0.91493
5066.73,0.91521
5060.94,0.91332
5055.16,0.91505
5049.37,0.91376
5043.58,0.91357
5037.8,0.91513
5032.01,0.91744
5026.23,0.91649
5020.44,0.91432
5014.65,0.91587
5008.87,0.91552
5003.08,0.91412
4997.29,0.91295
4991.51,0.91282
4985.72,0.91235
4979.94,0.91035
4974.15,0.91186
4968.36,0.91047
4962.58,0.91115
4956.79,0.91067
4951.01,0.91358
4945.22,0.91582
4939.43,0.91528
4933.65,0.91663
4927.86,0.91747
4922.07,0.91562
4916.29,0.91556
4910.5,0.91595
4904.72,0.91700
4898.93,0.91465
4893.14,0.91581
4887.36,0.91504
4881.57,0.91506
4875.79,0.91541
4870,0.91451
4864.21,0.91559
4858.43,0.91650
4852.64,0.91703
4846.85,0.91769
4841.07,0.91633
4835.28,0.91689
4829.5,0.91826
4823.71,0.91977
4817.92,0.92003
4812.14,0.91957
4806.35,0.92049
4800.57,0.91956
4794.78,0.92102
4788.99,0.92010
4783.21,0.92010
4777.42,0.91896
4771.64,0.91935
4765.85,0.91810
4760.06,0.91789
4754.28,0.91894
4748.49,0.91860
4742.7,0.91863
4736.92,0.92020
4731.13,0.91811
4725.35,0.91772
4719.56,0.91822
4713.77,0.91734
4707.99,0.91597
4702.2,0.91619
4696.42,0.91400
4690.63,0.91312
4684.84,0.91023
4679.06,0.90801
4673.27,0.90657
4667.48,0.90968
4661.7,0.91303
4655.91,0.91631
4650.13,0.91712
4644.34,0.91828
4638.55,0.91950
4632.77,0.92113
4626.98,0.92086
4621.2,0.91951
4615.41,0.92044
4609.62,0.91996
4603.84,0.91959
4598.05,0.91876
4592.26,0.91931
4586.48,0.91991
4580.69,0.91883
4574.91,0.91916
4569.12,0.91919
4563.33,0.91893
4557.55,0.91745
4551.76,0.91727
4545.98,0.91706
4540.19,0.91470
4534.4,0.91263
4528.62,0.91193
4522.83,0.91025
4517.05,0.90724
4511.26,0.90748
4505.47,0.90403
4499.69,0.90097
4493.9,0.89830
4488.11,0.89598
4482.33,0.89078
4476.54,0.88651
4470.76,0.88369
4464.97,0.87901
4459.18,0.87236
4453.4,0.86425
4447.61,0.85501
4441.83,0.84410
4436.04,0.83505
4430.25,0.82789
4424.47,0.82239
4418.68,0.81498
4412.89,0.80418
4407.11,0.79222
4401.32,0.77754
4395.54,0.75979
4389.75,0.74222
4383.96,0.72244
4378.18,0.70222
4372.39,0.67726
4366.61,0.65158
4360.82,0.62134
4355.03,0.57751
4349.25,0.51726
4343.46,0.45121
4337.67,0.39861
4331.89,0.35171
4326.1,0.28371
4320.32,0.28846
4314.53,0.44704
4308.74,0.55691
4302.96,0.60274
4297.17,0.61651
4291.39,0.61139
4285.6,0.59776
4279.81,0.58189
4274.03,0.55866
4268.24,0.51915
4262.46,0.46006
4256.67,0.39096
4250.88,0.36649
4245.1,0.45656
4239.31,0.52561
4233.52,0.53857
4227.74,0.52357
4221.95,0.50481
4216.17,0.50651
4210.38,0.50977
4204.59,0.49913
4198.81,0.47408
4193.02,0.45741
4187.24,0.45637
4181.45,0.45875
4175.66,0.46206
4169.88,0.46695
4164.09,0.47136
4158.3,0.47536
4152.52,0.47945
4146.73,0.48294
4140.95,0.48830
4135.16,0.49516
4129.37,0.49924
4123.59,0.50247
4117.8,0.50568
4112.02,0.50745
4106.23,0.50736
4100.44,0.50798
4094.66,0.51624
4088.87,0.53661
4083.08,0.56191
4077.3,0.57903
4071.51,0.59007
4065.73,0.59964
4059.94,0.60767
4054.15,0.61565
4048.37,0.62169
4042.58,0.62830
4036.8,0.63549
4031.01,0.63989
4025.22,0.64071
4019.44,0.65028
4013.65,0.67475
4007.86,0.69023
4002.08,0.69726
3996.29,0.69800
3990.51,0.69596
3984.72,0.69404
3978.93,0.69151
3973.15,0.69222
3967.36,0.70027
3961.58,0.70522
3955.79,0.71004
3950,0.70636
3944.22,0.70763
3938.43,0.71082
3932.65,0.70055
3926.86,0.69937
3921.07,0.69744
3915.29,0.69822
3909.5,0.70468
3903.71,0.68916
3897.93,0.70049
3892.14,0.70140
3886.36,0.70349
3880.57,0.70311
3874.78,0.70564
3869,0.70509
3863.21,0.71289
3857.43,0.72161
3851.64,0.71313
3845.85,0.72943
3840.07,0.71341
3834.28,0.72229
3828.49,0.72844
3822.71,0.72074
3816.92,0.72143
3811.14,0.73877
3805.35,0.73588
3799.56,0.74008
3793.78,0.76000
3787.99,0.76526
3782.21,0.76381
3776.42,0.77061
3770.63,0.76648
3764.85,0.76910
3759.06,0.76595
3753.27,0.75826
3747.49,0.75261
3741.7,0.76425
3735.92,0.74975
3730.13,0.76911
3724.34,0.76468
3718.56,0.77540
3712.77,0.76198
3706.99,0.76627
3701.2,0.76177
3695.41,0.75745
3689.63,0.73153
3683.84,0.75002
3678.06,0.73606
3672.27,0.72728
3666.48,0.73778
3660.7,0.73480
3654.91,0.71722
3649.12,0.68506
3643.34,0.70360
3637.55,0.71708
3631.77,0.72018
3625.98,0.72358
3620.19,0.71361
3614.41,0.69646
3608.62,0.67295
3602.84,0.67057
3597.05,0.71287
3591.26,0.76474
3585.48,0.78328
3579.69,0.80021
3573.9,0.80682
3568.12,0.79544
3562.33,0.80800
3556.55,0.81892
3550.76,0.81850
3544.97,0.81716
3539.19,0.82638
3533.4,0.82876
3527.62,0.82243
3521.83,0.82596
3516.04,0.83142
3510.26,0.82833
3504.47,0.82380
3498.68,0.82485
3492.9,0.82396
3487.11,0.81688
3481.33,0.79977
3475.54,0.77568
3469.75,0.73275
3463.97,0.68460
3458.18,0.66247
3452.4,0.67303
3446.61,0.70184
3440.82,0.74222
3435.04,0.77260
3429.25,0.79252
3423.47,0.80308
3417.68,0.80903
3411.89,0.81497
3406.11,0.81551
3400.32,0.81468
3394.53,0.81227
3388.75,0.81172
3382.96,0.80726
3377.18,0.80355
3371.39,0.80328
3365.6,0.80448
3359.82,0.80954
3354.03,0.81397
3348.25,0.81941
3342.46,0.82111
3336.67,0.82190
3330.89,0.82642
3325.1,0.82708
3319.31,0.82754
3313.53,0.82855
3307.74,0.82955
3301.96,0.82837
3296.17,0.82758
3290.38,0.82894
3284.6,0.82704
3278.81,0.82557
3273.03,0.82430
3267.24,0.82556
3261.45,0.82301
3255.67,0.82080
3249.88,0.82052
3244.09,0.81661
3238.31,0.81446
3232.52,0.81196
3226.74,0.80947
3220.95,0.80156
3215.16,0.79888
3209.38,0.79348
3203.59,0.78588
3197.81,0.78020
3192.02,0.77528
3186.23,0.76779
3180.45,0.76293
3174.66,0.75981
3168.87,0.75317
3163.09,0.74670
3157.3,0.74299
3151.52,0.73710
3145.73,0.72852
3139.94,0.72273
3134.16,0.71417
3128.37,0.70142
3122.59,0.68771
3116.8,0.67205
3111.01,0.65130
3105.23,0.62694
3099.44,0.59280
3093.66,0.55002
3087.87,0.51311
3082.08,0.48713
3076.3,0.46575
3070.51,0.44551
3064.72,0.42164
3058.94,0.39620
3053.15,0.36934
3047.37,0.33776
3041.58,0.30366
3035.79,0.26781
3030.01,0.23394
3024.22,0.20481
3018.44,0.18081
3012.65,0.16132
3006.86,0.14320
3001.08,0.11943
2995.29,0.09119
2989.5,0.06099
2983.72,0.03367
2977.93,0.01311
2972.15,0.00311
2966.36,0.00086
2960.57,0.00038
2954.79,0.00057
2949,0.00051
2943.22,0.00097
2937.43,0.00021
2931.64,0.00086
2925.86,0.00047
2920.07,0.00060
2914.28,0.00036
2908.5,0.00041
2902.71,0.00051
2896.93,0.00068
2891.14,0.00051
2885.35,0.00049
2879.57,0.00053
2873.78,0.00063
2868,0.00026
2862.21,0.00060
2856.42,-0.00007
2850.64,0.00029
2844.85,0.00024
2839.07,0.00036
2833.28,0.00045
2827.49,0.00281
2821.71,0.00826
2815.92,0.02005
2810.13,0.03605
2804.35,0.05621
2798.56,0.08114
2792.78,0.11069
2786.99,0.14516
2781.2,0.18110
2775.42,0.21392
2769.63,0.23805
2763.85,0.25409
2758.06,0.26695
2752.27,0.27651
2746.49,0.28072
2740.7,0.28145
2734.91,0.28609
2729.13,0.29699
2723.34,0.31224
2717.56,0.32646
2711.77,0.33913
2705.98,0.34930
2700.2,0.35350
2694.41,0.34684
2688.63,0.33134
2682.84,0.31969
2677.05,0.31388
2671.27,0.31176
2665.48,0.31644
2659.69,0.32588
2653.91,0.33510
2648.12,0.34385
2642.34,0.34742
2636.55,0.34952
2630.76,0.36375
2624.98,0.38919
2619.19,0.41456
2613.41,0.43851
2607.62,0.46118
2601.83,0.48335
2596.05,0.50200
2590.26,0.52407
2584.47,0.54966
2578.69,0.57303
2572.9,0.59269
2567.12,0.61173
2561.33,0.62791
2555.54,0.63600
2549.76,0.64387
2543.97,0.66110
2538.19,0.67006
2532.4,0.66387
2526.61,0.66754
2520.83,0.68472
2515.04,0.69832
2509.26,0.70767
2503.47,0.71283
2497.68,0.71115
2491.9,0.70818
2486.11,0.70611
2480.32,0.70101
2474.54,0.69722
2468.75,0.71439
2462.97,0.73200
2457.18,0.74317
2451.39,0.75474
2445.61,0.76512
2439.82,0.76697
2434.04,0.76483
2428.25,0.76438
2422.46,0.75608
2416.68,0.74537
2410.89,0.74746
2405.1,0.75252
2399.32,0.75252
2393.53,0.75225
2387.75,0.75470
2381.96,0.74779
2376.17,0.72448
2370.39,0.70169
2364.6,0.68003
2358.82,0.66210
2353.03,0.65956
2347.24,0.65726
2341.46,0.63316
2335.67,0.62886
2329.88,0.62822
2324.1,0.63892
2318.31,0.65578
2312.53,0.67173
2306.74,0.68936
2300.95,0.70391
2295.17,0.71650
2289.38,0.72880
2283.6,0.73745
2277.81,0.73819
2272.02,0.74421
2266.24,0.75480
2260.45,0.75864
2254.67,0.75991
2248.88,0.76501
2243.09,0.77401
2237.31,0.78706
2231.52,0.79962
2225.73,0.80409
2219.95,0.80295
2214.16,0.80208
2208.38,0.80219
2202.59,0.79746
2196.8,0.78733
2191.02,0.77849
2185.23,0.77223
2179.45,0.76495
2173.66,0.75807
2167.87,0.75461
2162.09,0.75150
2156.3,0.74736
2150.51,0.74846
2144.73,0.75953
2138.94,0.77350
2133.16,0.78448
2127.37,0.79486
2121.58,0.80133
2115.8,0.80239
2110.01,0.80465
2104.23,0.80769
2098.44,0.80603
2092.65,0.80356
2086.87,0.80385
2081.08,0.80271
2075.29,0.79780
2069.51,0.79380
2063.72,0.78893
2057.94,0.78183
2052.15,0.77214
2046.36,0.76301
2040.58,0.75072
2034.79,0.73754
2029.01,0.72486
2023.22,0.70893
2017.43,0.70255
2011.65,0.73914
2005.86,0.77243
2000.08,0.78839
1994.29,0.79544
1988.5,0.80459
1982.72,0.81176
1976.93,0.80923
1971.14,0.80590
1965.36,0.80176
1959.57,0.79870
1953.79,0.79304
1948,0.79258
1942.21,0.78792
1936.43,0.78968
1930.64,0.78656
1924.86,0.78087
1919.07,0.77040
1913.28,0.76262
1907.5,0.74896
1901.71,0.73498
1895.92,0.71780
1890.14,0.72039
1884.35,0.73163
1878.57,0.72555
1872.78,0.71295
1866.99,0.69801
1861.21,0.70571
1855.42,0.70772
1849.64,0.70822
1843.85,0.69646
1838.06,0.69056
1832.28,0.67214
1826.49,0.64746
1820.7,0.62840
1814.92,0.60729
1809.13,0.58385
1803.35,0.55890
1797.56,0.52222
1791.77,0.48023
1785.99,0.44457
1780.2,0.39312
1774.42,0.33478
1768.63,0.23436
1762.84,0.13030
1757.06,0.05145
1751.27,0.00813
1745.48,0.00021
1739.7,0.00057
1733.91,0.00091
1728.13,0.00099
1722.34,0.01252
1716.55,0.07528
1710.77,0.15451
1704.98,0.20169
1699.2,0.21003
1693.41,0.27073
1687.62,0.35343
1681.84,0.44607
1676.05,0.49090
1670.27,0.51512
1664.48,0.53661
1658.69,0.53659
1652.91,0.50549
1647.12,0.48523
1641.33,0.56224
1635.55,0.60455
1629.76,0.64396
1623.98,0.64860
1618.19,0.65395
1612.4,0.66847
1606.62,0.66945
1600.83,0.66655
1595.05,0.66355
1589.26,0.66216
1583.47,0.65534
1577.69,0.63834
1571.9,0.62989
1566.11,0.61246
1560.33,0.59291
1554.54,0.59248
1548.76,0.59243
1542.97,0.56248
1537.18,0.56232
1531.4,0.55266
1525.61,0.52966
1519.83,0.50759
1514.04,0.49678
1508.25,0.46295
1502.47,0.44176
1496.68,0.39563
1490.89,0.34417
1485.11,0.24948
1479.32,0.11235
1473.54,0.00578
1467.75,0.00023
1461.96,0.00046
1456.18,0.00061
1450.39,0.00495
1444.61,0.00982
1438.82,0.01202
1433.03,0.02383
1427.25,0.06702
1421.46,0.13797
1415.68,0.22101
1409.89,0.27117
1404.1,0.28918
1398.32,0.26440
1392.53,0.18617
1386.74,0.07790
1380.96,0.01125
1375.17,0.00088
1369.39,0.00075
1363.6,0.00250
1357.81,0.01363
1352.03,0.03893
1346.24,0.12021
1340.46,0.22326
1334.67,0.31083
1328.88,0.32883
1323.1,0.30013
1317.31,0.24784
1311.52,0.19598
1305.74,0.16188
1299.95,0.14184
1294.17,0.12794
1288.38,0.10785
1282.59,0.07698
1276.81,0.04372
1271.02,0.01585
1265.24,0.00250
1259.45,0.00028
1253.66,0.00005
1247.88,0.00040
1242.09,0.00027
1236.3,0.00034
1230.52,0.00018
1224.73,0.00043
1218.95,0.00401
1213.16,0.01777
1207.37,0.04897
1201.59,0.09112
1195.8,0.13157
1190.02,0.16649
1184.23,0.19283
1178.44,0.20949
1172.66,0.22330
1166.87,0.22544
1161.09,0.21115
1155.3,0.18099
1149.51,0.14692
1143.73,0.13587
1137.94,0.13271
1132.15,0.12356
1126.37,0.12176
1120.58,0.13336
1114.8,0.14713
1109.01,0.15886
1103.22,0.16380
1097.44,0.15774
1091.65,0.14432
1085.87,0.12739
1080.08,0.11050
1074.29,0.09608
1068.51,0.08300
1062.72,0.07694
1056.93,0.06688
1051.15,0.04579
1045.36,0.02998
1039.58,0.02509
1033.79,0.01450
1028,0.00318
1022.22,0.00033
1016.43,0.00212
1010.65,0.02068
1004.86,0.08403
999.073,0.15997
993.287,0.21023
987.501,0.23538
981.715,0.23731
975.929,0.21815
970.142,0.18578
964.356,0.15407
958.57,0.14347
952.784,0.15466
946.998,0.17480
941.212,0.18258
935.426,0.19290
929.64,0.28079
923.853,0.39074
918.067,0.44415
912.281,0.46537
906.495,0.48007
900.709,0.49083
894.923,0.48796
889.137,0.49276
883.35,0.50607
877.564,0.50843
871.778,0.50292
865.992,0.50846
860.206,0.52658
854.42,0.53820
848.634,0.55989
842.847,0.58037
837.061,0.59343
831.275,0.61001
825.489,0.62758
819.703,0.62493
813.917,0.60864
808.131,0.59500
802.344,0.57766
796.558,0.57696
790.772,0.60910
784.986,0.63363
779.2,0.61595
773.414,0.59525
767.628,0.58816
761.842,0.57275
756.055,0.53818
750.269,0.49971
744.483,0.43295
738.697,0.31380
732.911,0.10291
727.125,0.01175
721.339,0.00319
715.552,0.05089
709.766,0.27611
703.98,0.48532
698.194,0.63025
692.408,0.71834
686.622,0.74045
680.836,0.77074
675.049,0.77773
669.263,0.73221
663.477,0.75766
657.691,0.73949
651.905,0.66390
646.119,0.58407
640.333,0.58230
634.546,0.58046
628.76,0.49829
622.974,0.55296
617.188,0.52591
611.402,0.27507
605.616,0.27598
599.83,0.52670