File: 01_Data/PEVA/FTIR/IS/PEVA_0.18_IS_Trans_S_240819_R1.dpt
7496.91,0.93519
7491.12,0.95135
7485.33,0.95271
7479.55,0.94689
7473.76,0.93672
7467.98,0.94266
7462.19,0.93185
7456.4,0.93730
7450.62,0.93126
7444.83,0.92594
7439.04,0.93701
7433.26,0.94017
7427.47,0.92423
7421.69,0.92984
7415.9,0.93103
7410.11,0.93365
7404.33,0.93141
7398.54,0.93120
7392.76,0.92816
7386.97,0.92776
7381.18,0.91894
7375.4,0.95588
7369.61,0.92161
7363.83,0.92889
7358.04,0.92868
7352.25,0.93472
7346.47,0.91364
7340.68,0.91201
7334.89,0.93658
7329.11,0.91672
7323.32,0.93277
7317.54,0.92554
7311.75,0.92752
7305.96,0.93915
7300.18,0.92361
7294.39,0.91068
7288.61,0.91371
7282.82,0.92873
7277.03,0.92816
7271.25,0.93024
7265.46,0.92139
7259.67,0.93927
7253.89,0.92786
7248.1,0.92571
7242.32,0.91705
7236.53,0.93259
7230.74,0.90565
7224.96,0.91848
7219.17,0.91940
7213.39,0.90609
7207.6,0.90770
7201.81,0.91307
7196.03,0.91765
7190.24,0.92302
7184.45,0.90470
7178.67,0.92142
7172.88,0.91188
7167.1,0.90779
7161.31,0.91272
7155.52,0.90901
7149.74,0.91591
7143.95,0.92684
7138.17,0.90713
7132.38,0.91550
7126.59,0.93124
7120.81,0.91363
7115.02,0.91057
7109.23,0.92207
7103.45,0.91526
7097.66,0.91933
7091.88,0.91561
7086.09,0.91345
7080.3,0.91965
7074.52,0.92415
7068.73,0.90950
7062.95,0.91914
7057.16,0.91786
7051.37,0.92115
7045.59,0.92256
7039.8,0.92295
7034.02,0.92267
7028.23,0.92125
7022.44,0.91559
7016.66,0.92008
7010.87,0.93444
7005.08,0.93406
6999.3,0.91833
6993.51,0.92714
6987.73,0.92243
6981.94,0.92629
6976.15,0.92687
6970.37,0.91295
6964.58,0.92588
6958.8,0.91468
6953.01,0.91553
6947.22,0.92864
6941.44,0.92988
6935.65,0.92819
6929.86,0.93030
6924.08,0.93172
6918.29,0.93529
6912.51,0.92705
6906.72,0.93531
6900.93,0.92492
6895.15,0.92431
6889.36,0.92833
6883.58,0.93819
6877.79,0.93502
6872,0.92886
6866.22,0.93320
6860.43,0.94527
6854.64,0.93910
6848.86,0.93509
6843.07,0.94031
6837.29,0.93556
6831.5,0.93013
6825.71,0.92546
6819.93,0.92445
6814.14,0.92233
6808.36,0.93881
6802.57,0.93486
6796.78,0.93374
6791,0.92866
6785.21,0.93115
6779.43,0.93773
6773.64,0.93887
6767.85,0.93290
6762.07,0.93178
6756.28,0.93391
6750.49,0.93415
6744.71,0.92629
6738.92,0.93505
6733.14,0.93942
6727.35,0.93276
6721.56,0.93736
6715.78,0.93960
6709.99,0.93611
6704.21,0.93595
6698.42,0.93865
6692.63,0.94572
6686.85,0.94581
6681.06,0.94226
6675.27,0.93287
6669.49,0.93904
6663.7,0.93973
6657.92,0.93458
6652.13,0.94147
6646.34,0.93896
6640.56,0.93751
6634.77,0.93407
6628.99,0.93587
6623.2,0.94270
6617.41,0.94145
6611.63,0.94095
6605.84,0.93432
6600.05,0.93147
6594.27,0.93827
6588.48,0.94004
6582.7,0.94807
6576.91,0.94326
6571.12,0.93844
6565.34,0.93857
6559.55,0.93984
6553.77,0.94356
6547.98,0.93880
6542.19,0.93955
6536.41,0.93851
6530.62,0.93480
6524.84,0.93588
6519.05,0.94414
6513.26,0.94321
6507.48,0.94224
6501.69,0.94741
6495.9,0.93893
6490.12,0.93488
6484.33,0.93897
6478.55,0.93591
6472.76,0.93798
6466.97,0.94176
6461.19,0.93711
6455.4,0.93969
6449.62,0.93898
6443.83,0.93610
6438.04,0.93777
6432.26,0.94336
6426.47,0.94089
6420.68,0.94080
6414.9,0.93606
6409.11,0.93460
6403.33,0.92904
6397.54,0.94257
6391.75,0.94303
6385.97,0.94183
6380.18,0.93728
6374.4,0.93627
6368.61,0.94198
6362.82,0.94414
6357.04,0.93858
6351.25,0.94067
6345.46,0.93723
6339.68,0.94301
6333.89,0.94162
6328.11,0.93502
6322.32,0.94112
6316.53,0.94025
6310.75,0.94028
6304.96,0.94261
6299.18,0.94154
6293.39,0.94495
6287.6,0.93458
6281.82,0.93967
6276.03,0.94202
6270.24,0.94093
6264.46,0.94199
6258.67,0.94079
6252.89,0.93884
6247.1,0.93946
6241.31,0.93729
6235.53,0.94352
6229.74,0.93793
6223.96,0.93924
6218.17,0.94027
6212.38,0.94476
6206.6,0.93419
6200.81,0.94083
6195.03,0.93849
6189.24,0.93768
6183.45,0.93556
6177.67,0.93676
6171.88,0.93941
6166.09,0.93998
6160.31,0.93161
6154.52,0.93590
6148.74,0.93347
6142.95,0.93130
6137.16,0.93340
6131.38,0.93626
6125.59,0.93057
6119.81,0.93320
6114.02,0.93590
6108.23,0.93291
6102.45,0.93224
6096.66,0.93267
6090.87,0.93516
6085.09,0.93283
6079.3,0.92889
6073.52,0.92953
6067.73,0.93034
6061.94,0.92958
6056.16,0.93109
6050.37,0.93150
6044.59,0.93106
6038.8,0.92801
6033.01,0.92921
6027.23,0.93061
6021.44,0.92543
6015.65,0.92219
6009.87,0.92447
6004.08,0.92731
5998.3,0.92470
5992.51,0.92599
5986.72,0.92074
5980.94,0.92364
5975.15,0.92292
5969.37,0.92235
5963.58,0.92028
5957.79,0.91937
5952.01,0.91842
5946.22,0.91356
5940.44,0.91685
5934.65,0.91586
5928.86,0.91279
5923.08,0.91338
5917.29,0.91514
5911.5,0.91111
5905.72,0.91026
5899.93,0.90449
5894.15,0.90470
5888.36,0.90118
5882.57,0.89824
5876.79,0.89093
5871,0.88532
5865.22,0.87516
5859.43,0.86782
5853.64,0.85790
5847.86,0.85254
5842.07,0.84214
5836.28,0.83258
5830.5,0.82756
5824.71,0.81793
5818.93,0.80968
5813.14,0.79979
5807.35,0.78826
5801.57,0.77827
5795.78,0.76860
5790,0.75374
5784.21,0.73393
5778.42,0.71814
5772.64,0.72252
5766.85,0.75235
5761.06,0.78148
5755.28,0.80581
5749.49,0.82517
5743.71,0.83968
5737.92,0.84522
5732.13,0.85259
5726.35,0.85882
5720.56,0.86031
5714.78,0.86000
5708.99,0.85548
5703.2,0.85009
5697.42,0.84467
5691.63,0.84129
5685.84,0.83529
5680.06,0.82979
5674.27,0.82319
5668.49,0.81495
5662.7,0.81739
5656.91,0.82590
5651.13,0.84059
5645.34,0.85273
5639.56,0.85553
5633.77,0.86163
5627.98,0.86835
5622.2,0.86712
5616.41,0.87094
5610.63,0.87462
5604.84,0.87874
5599.05,0.87631
5593.27,0.87865
5587.48,0.88044
5581.69,0.87510
5575.91,0.87772
5570.12,0.87342
5564.34,0.87349
5558.55,0.87552
5552.76,0.87498
5546.98,0.87807
5541.19,0.87751
5535.41,0.87495
5529.62,0.87509
5523.83,0.87541
5518.05,0.87258
5512.26,0.87547
5506.47,0.87306
5500.69,0.87548
5494.9,0.86903
5489.12,0.86992
5483.33,0.87971
5477.54,0.87372
5471.76,0.87741
5465.97,0.87836
5460.19,0.87319
5454.4,0.88221
5448.61,0.87571
5442.83,0.86977
5437.04,0.87750
5431.25,0.87606
5425.47,0.88089
5419.68,0.88858
5413.9,0.87232
5408.11,0.87934
5402.32,0.88955
5396.54,0.88630
5390.75,0.89170
5384.97,0.88481
5379.18,0.89130
5373.39,0.88920
5367.61,0.89918
5361.82,0.89593
5356.04,0.89081
5350.25,0.88773
5344.46,0.88036
5338.68,0.88312
5332.89,0.89593
5327.1,0.89216
5321.32,0.90374
5315.53,0.90177
5309.75,0.89881
5303.96,0.90095
5298.17,0.90355
5292.39,0.90186
5286.6,0.90163
5280.82,0.90100
5275.03,0.90445
5269.24,0.89893
5263.46,0.89238
5257.67,0.90118
5251.88,0.89652
5246.1,0.88552
5240.31,0.90012
5234.53,0.90047
5228.74,0.89920
5222.95,0.89639
5217.17,0.89925
5211.38,0.90316
5205.6,0.88852
5199.81,0.90188
5194.02,0.90237
5188.24,0.90045
5182.45,0.90071
5176.66,0.90212
5170.88,0.90375
5165.09,0.90290
5159.31,0.90165
5153.52,0.90118
5147.73,0.90313
5141.95,0.90480
5136.16,0.90669
5130.38,0.90658
5124.59,0.90525
5118.8,0.90582
5113.02,0.90625
5107.23,0.90821
5101.45,0.90762
5095.66,0.90787
5089.87,0.90816
5084.09,0.90923
5078.3,0.91038
5072.51,0.91000
5066.73,0.90889
5060.94,0.91004
5055.16,0.90959
5049.37,0.90922
5043.58,0.91003
5037.8,0.91065
5032.01,0.91050
5026.23,0.90954
5020.44,0.90980
5014.65,0.91008
5008.87,0.91042
5003.08,0.90761
4997.29,0.90734
4991.51,0.90657
4985.72,0.90605
4979.94,0.90544
4974.15,0.90395
4968.36,0.90395
4962.58,0.90595
4956.79,0.90732
4951.01,0.90977
4945.22,0.90932
4939.43,0.90994
4933.65,0.91029
4927.86,0.90933
4922.07,0.91068
4916.29,0.91072
4910.5,0.91101
4904.72,0.91012
4898.93,0.91034
4893.14,0.91089
4887.36,0.90924
4881.57,0.90891
4875.79,0.91034
4870,0.90835
4864.21,0.90892
4858.43,0.91124
4852.64,0.91313
4846.85,0.91185
4841.07,0.91190
4835.28,0.91317
4829.5,0.91269
4823.71,0.91291
4817.92,0.91301
4812.14,0.91297
4806.35,0.91487
4800.57,0.91456
4794.78,0.91528
4788.99,0.91439
4783.21,0.91410
4777.42,0.91447
4771.64,0.91393
4765.85,0.91252
4760.06,0.91247
4754.28,0.91295
4748.49,0.91405
4742.7,0.91401
4736.92,0.91452
4731.13,0.91345
4725.35,0.91394
4719.56,0.91244
4713.77,0.91421
4707.99,0.91392
4702.2,0.91246
4696.42,0.91049
4690.63,0.90870
4684.84,0.90632
4679.06,0.90424
4673.27,0.90369
4667.48,0.90641
4661.7,0.90803
4655.91,0.90971
4650.13,0.91231
4644.34,0.91271
4638.55,0.91464
4632.77,0.91424
4626.98,0.91580
4621.2,0.91466
4615.41,0.91369
4609.62,0.91574
4603.84,0.91504
4598.05,0.91384
4592.26,0.91475
4586.48,0.91579
4580.69,0.91449
4574.91,0.91375
4569.12,0.91486
4563.33,0.91388
4557.55,0.91217
4551.76,0.91170
4545.98,0.91115
4540.19,0.90870
4534.4,0.90811
4528.62,0.90610
4522.83,0.90466
4517.05,0.90289
4511.26,0.90100
4505.47,0.89826
4499.69,0.89505
4493.9,0.89229
4488.11,0.88969
4482.33,0.88600
4476.54,0.88322
4470.76,0.87827
4464.97,0.87310
4459.18,0.86731
4453.4,0.85930
4447.61,0.85075
4441.83,0.83974
4436.04,0.83012
4430.25,0.82256
4424.47,0.81720
4418.68,0.80939
4412.89,0.79909
4407.11,0.78654
4401.32,0.77308
4395.54,0.75734
4389.75,0.73824
4383.96,0.71916
4378.18,0.69701
4372.39,0.67310
4366.61,0.64777
4360.82,0.61766
4355.03,0.57396
4349.25,0.51440
4343.46,0.44729
4337.67,0.39578
4331.89,0.34878
4326.1,0.28127
4320.32,0.28484
4314.53,0.44338
4308.74,0.55408
4302.96,0.59853
4297.17,0.61184
4291.39,0.60728
4285.6,0.59296
4279.81,0.57825
4274.03,0.55552
4268.24,0.51640
4262.46,0.45678
4256.67,0.38664
4250.88,0.36454
4245.1,0.45458
4239.31,0.52152
4233.52,0.53493
4227.74,0.51938
4221.95,0.50144
4216.17,0.50187
4210.38,0.50579
4204.59,0.49453
4198.81,0.47065
4193.02,0.45364
4187.24,0.45309
4181.45,0.45639
4175.66,0.45913
4169.88,0.46293
4164.09,0.46858
4158.3,0.47276
4152.52,0.47591
4146.73,0.47893
4140.95,0.48495
4135.16,0.49129
4129.37,0.49500
4123.59,0.49939
4117.8,0.50198
4112.02,0.50348
4106.23,0.50305
4100.44,0.50472
4094.66,0.51191
4088.87,0.53261
4083.08,0.55707
4077.3,0.57492
4071.51,0.58682
4065.73,0.59575
4059.94,0.60342
4054.15,0.61090
4048.37,0.61726
4042.58,0.62448
4036.8,0.63141
4031.01,0.63561
4025.22,0.63608
4019.44,0.64630
4013.65,0.67034
4007.86,0.68484
4002.08,0.69246
3996.29,0.69263
3990.51,0.69153
3984.72,0.68945
3978.93,0.68647
3973.15,0.68583
3967.36,0.69586
3961.58,0.69882
3955.79,0.70378
3950,0.69807
3944.22,0.69943
3938.43,0.70575
3932.65,0.69047
3926.86,0.68931
3921.07,0.68841
3915.29,0.68984
3909.5,0.69795
3903.71,0.67244
3897.93,0.68698
3892.14,0.68708
3886.36,0.68947
3880.57,0.68728
3874.78,0.69341
3869,0.68672
3863.21,0.69428
3857.43,0.70563
3851.64,0.69177
3845.85,0.71757
3840.07,0.69011
3834.28,0.70373
3828.49,0.71488
3822.71,0.70030
3816.92,0.70250
3811.14,0.73093
3805.35,0.71934
3799.56,0.71888
3793.78,0.75084
3787.99,0.75730
3782.21,0.75359
3776.42,0.76217
3770.63,0.75413
3764.85,0.75740
3759.06,0.74905
3753.27,0.73605
3747.49,0.72417
3741.7,0.73974
3735.92,0.71640
3730.13,0.74256
3724.34,0.73851
3718.56,0.75788
3712.77,0.74015
3706.99,0.74855
3701.2,0.74687
3695.41,0.74760
3689.63,0.71425
3683.84,0.74501
3678.06,0.72140
3672.27,0.71237
3666.48,0.73504
3660.7,0.73648
3654.91,0.71263
3649.12,0.66426
3643.34,0.70190
3637.55,0.71614
3631.77,0.70930
3625.98,0.71333
3620.19,0.70289
3614.41,0.68672
3608.62,0.66202
3602.84,0.66248
3597.05,0.70165
3591.26,0.75654
3585.48,0.77312
3579.69,0.79816
3573.9,0.80626
3568.12,0.78689
3562.33,0.80723
3556.55,0.82395
3550.76,0.82055
3544.97,0.81675
3539.19,0.83294
3533.4,0.83285
3527.62,0.82136
3521.83,0.82793
3516.04,0.83583
3510.26,0.82843
3504.47,0.82282
3498.68,0.82583
3492.9,0.82364
3487.11,0.81474
3481.33,0.79766
3475.54,0.77535
3469.75,0.73100
3463.97,0.68196
3458.18,0.65980
3452.4,0.67141
3446.61,0.69812
3440.82,0.73926
3435.04,0.77101
3429.25,0.79088
3423.47,0.79966
3417.68,0.80597
3411.89,0.81239
3406.11,0.81308
3400.32,0.81225
3394.53,0.80861
3388.75,0.80787
3382.96,0.80362
3377.18,0.80162
3371.39,0.80080
3365.6,0.80057
3359.82,0.80490
3354.03,0.81190
3348.25,0.81552
3342.46,0.81911
3336.67,0.81962
3330.89,0.82318
3325.1,0.82371
3319.31,0.82448
3313.53,0.82532
3307.74,0.82489
3301.96,0.82608
3296.17,0.82532
3290.38,0.82453
3284.6,0.82533
3278.81,0.82118
3273.03,0.82090
3267.24,0.82226
3261.45,0.81920
3255.67,0.81662
3249.88,0.81703
3244.09,0.81359
3238.31,0.81259
3232.52,0.80864
3226.74,0.80346
3220.95,0.79864
3215.16,0.79387
3209.38,0.78891
3203.59,0.78342
3197.81,0.77657
3192.02,0.77274
3186.23,0.76593
3180.45,0.76018
3174.66,0.75532
3168.87,0.74936
3163.09,0.74483
3157.3,0.73991
3151.52,0.73284
3145.73,0.72532
3139.94,0.72012
3134.16,0.70940
3128.37,0.69834
3122.59,0.68291
3116.8,0.66855
3111.01,0.64850
3105.23,0.62371
3099.44,0.58847
3093.66,0.54669
3087.87,0.51006
3082.08,0.48437
3076.3,0.46303
3070.51,0.44272
3064.72,0.41841
3058.94,0.39339
3053.15,0.36684
3047.37,0.33548
3041.58,0.30223
3035.79,0.26600
3030.01,0.23207
3024.22,0.20339
3018.44,0.17910
3012.65,0.16039
3006.86,0.14195
3001.08,0.11871
2995.29,0.09060
2989.5,0.06035
2983.72,0.03373
2977.93,0.01367
2972.15,0.00328
2966.36,0.00045
2960.57,0.00084
2954.79,0.00033
2949,0.00072
2943.22,0.00025
2937.43,0.00046
2931.64,0.00096
2925.86,0.00052
2920.07,0.00017
2914.28,0.00063
2908.5,0.00081
2902.71,0.00051
2896.93,0.00094
2891.14,0.00067
2885.35,0.00015
2879.57,0.00046
2873.78,0.00063
2868,0.00025
2862.21,0.00046
2856.42,0.00057
2850.64,0.00098
2844.85,0.00051
2839.07,0.00048
2833.28,0.00056
2827.49,0.00217
2821.71,0.00859
2815.92,0.01974
2810.13,0.03565
2804.35,0.05573
2798.56,0.08058
2792.78,0.11044
2786.99,0.14372
2781.2,0.17983
2775.42,0.21198
2769.63,0.23586
2763.85,0.25175
2758.06,0.26498
2752.27,0.27473
2746.49,0.27841
2740.7,0.27879
2734.91,0.28400
2729.13,0.29554
2723.34,0.31057
2717.56,0.32445
2711.77,0.33739
2705.98,0.34652
2700.2,0.35089
2694.41,0.34470
2688.63,0.32920
2682.84,0.31783
2677.05,0.31174
2671.27,0.30952
2665.48,0.31441
2659.69,0.32342
2653.91,0.33284
2648.12,0.34155
2642.34,0.34472
2636.55,0.34662
2630.76,0.36092
2624.98,0.38658
2619.19,0.41180
2613.41,0.43513
2607.62,0.45826
2601.83,0.47988
2596.05,0.49840
2590.26,0.52013
2584.47,0.54610
2578.69,0.56913
2572.9,0.58848
2567.12,0.60856
2561.33,0.62374
2555.54,0.63191
2549.76,0.63993
2543.97,0.65709
2538.19,0.66555
2532.4,0.65977
2526.61,0.66306
2520.83,0.68065
2515.04,0.69356
2509.26,0.70427
2503.47,0.70861
2497.68,0.70613
2491.9,0.70422
2486.11,0.70255
2480.32,0.69574
2474.54,0.69261
2468.75,0.71008
2462.97,0.72701
2457.18,0.73807
2451.39,0.75072
2445.61,0.75999
2439.82,0.76103
2434.04,0.76054
2428.25,0.75977
2422.46,0.75065
2416.68,0.74038
2410.89,0.74373
2405.1,0.74828
2399.32,0.74755
2393.53,0.74787
2387.75,0.74786
2381.96,0.71752
2376.17,0.65000
2370.39,0.58572
2364.6,0.53605
2358.82,0.51513
2353.03,0.54338
2347.24,0.56280
2341.46,0.51829
2335.67,0.52039
2329.88,0.52656
2324.1,0.54720
2318.31,0.58069
2312.53,0.61334
2306.74,0.64645
2300.95,0.67399
2295.17,0.69529
2289.38,0.71565
2283.6,0.72929
2277.81,0.72879
2272.02,0.73428
2266.24,0.74565
2260.45,0.74940
2254.67,0.75217
2248.88,0.75919
2243.09,0.76800
2237.31,0.78074
2231.52,0.79437
2225.73,0.79939
2219.95,0.79790
2214.16,0.79685
2208.38,0.79729
2202.59,0.79201
2196.8,0.78238
2191.02,0.77386
2185.23,0.76766
2179.45,0.75978
2173.66,0.75277
2167.87,0.75003
2162.09,0.74676
2156.3,0.74196
2150.51,0.74340
2144.73,0.75502
2138.94,0.76847
2133.16,0.77861
2127.37,0.79001
2121.58,0.79691
2115.8,0.79691
2110.01,0.79953
2104.23,0.80299
2098.44,0.80068
2092.65,0.79797
2086.87,0.79925
2081.08,0.79815
2075.29,0.79208
2069.51,0.78826
2063.72,0.78361
2057.94,0.77674
2052.15,0.76627
2046.36,0.75809
2040.58,0.74560
2034.79,0.73257
2029.01,0.71987
2023.22,0.70441
2017.43,0.69625
2011.65,0.73393
2005.86,0.76760
2000.08,0.78325
1994.29,0.78822
1988.5,0.79725
1982.72,0.80732
1976.93,0.80460
1971.14,0.79951
1965.36,0.79505
1959.57,0.79389
1953.79,0.78702
1948,0.78602
1942.21,0.77943
1936.43,0.78429
1930.64,0.78047
1924.86,0.77398
1919.07,0.76164
1913.28,0.75567
1907.5,0.74143
1901.71,0.73086
1895.92,0.71073
1890.14,0.71197
1884.35,0.72660
1878.57,0.72113
1872.78,0.70546
1866.99,0.68569
1861.21,0.70020
1855.42,0.70154
1849.64,0.70095
1843.85,0.68405
1838.06,0.68293
1832.28,0.66190
1826.49,0.63744
1820.7,0.62246
1814.92,0.60061
1809.13,0.57627
1803.35,0.55090
1797.56,0.51205
1791.77,0.46926
1785.99,0.43803
1780.2,0.38596
1774.42,0.32736
1768.63,0.22909
1762.84,0.12744
1757.06,0.04990
1751.27,0.00775
1745.48,0.00056
1739.7,0.00048
1733.91,0.00068
1728.13,0.00059
1722.34,0.01468
1716.55,0.07815
1710.77,0.15841
1704.98,0.19950
1699.2,0.20230
1693.41,0.26617
1687.62,0.34598
1681.84,0.43678
1676.05,0.48323
1670.27,0.50297
1664.48,0.53073
1658.69,0.53123
1652.91,0.49009
1647.12,0.47316
1641.33,0.55864
1635.55,0.59375
1629.76,0.64259
1623.98,0.64366
1618.19,0.64701
1612.4,0.66745
1606.62,0.66697
1600.83,0.66258
1595.05,0.65948
1589.26,0.65969
1583.47,0.65077
1577.69,0.62641
1571.9,0.62019
1566.11,0.60126
1560.33,0.57235
1554.54,0.57730
1548.76,0.58054
1542.97,0.53723
1537.18,0.54573
1531.4,0.53928
1525.61,0.51102
1519.83,0.48863
1514.04,0.48420
1508.25,0.44174
1502.47,0.43269
1496.68,0.38538
1490.89,0.33519
1485.11,0.24517
1479.32,0.11085
1473.54,0.00605
1467.75,0.00005
1461.96,0.00008
1456.18,0.00099
1450.39,0.00494
1444.61,0.00997
1438.82,0.01222
1433.03,0.02323
1427.25,0.06542
1421.46,0.13551
1415.68,0.21745
1409.89,0.26823
1404.1,0.28546
1398.32,0.25934
1392.53,0.18370
1386.74,0.07719
1380.96,0.01100
1375.17,0.00083
1369.39,0.00069
1363.6,0.00234
1357.81,0.01344
1352.03,0.03864
1346.24,0.11928
1340.46,0.22032
1334.67,0.30788
1328.88,0.32633
1323.1,0.29813
1317.31,0.24495
1311.52,0.19444
1305.74,0.16056
1299.95,0.14080
1294.17,0.12731
1288.38,0.10739
1282.59,0.07727
1276.81,0.04416
1271.02,0.01639
1265.24,0.00260
1259.45,0.00015
1253.66,0.00006
1247.88,0.00026
1242.09,0.00039
1236.3,0.00025
1230.52,0.00060
1224.73,0.00040
1218.95,0.00385
1213.16,0.01746
1207.37,0.04855
1201.59,0.09020
1195.8,0.13067
1190.02,0.16513
1184.23,0.19175
1178.44,0.20758
1172.66,0.22132
1166.87,0.22339
1161.09,0.20987
1155.3,0.17900
1149.51,0.14488
1143.73,0.13454
1137.94,0.13114
1132.15,0.12212
1126.37,0.12099
1120.58,0.13201
1114.8,0.14555
1109.01,0.15745
1103.22,0.16263
1097.44,0.15710
1091.65,0.14285
1085.87,0.12633
1080.08,0.10979
1074.29,0.09498
1068.51,0.08214
1062.72,0.07626
1056.93,0.06575
1051.15,0.04553
1045.36,0.02955
1039.58,0.02430
1033.79,0.01417
1028,0.00305
1022.22,0.00060
1016.43,0.00186
1010.65,0.01981
1004.86,0.08263
999.073,0.15773
993.287,0.20852
987.501,0.23351
981.715,0.23519
975.929,0.21573
970.142,0.18347
964.356,0.15290
958.57,0.14237
952.784,0.15293
946.998,0.17334
941.212,0.18086
935.426,0.19019
929.64,0.27819
923.853,0.38727
918.067,0.44083
912.281,0.46266
906.495,0.47652
900.709,0.48671
894.923,0.48478
889.137,0.48911
883.35,0.50148
877.564,0.50568
871.778,0.50114
865.992,0.50350
860.206,0.52157
854.42,0.53583
848.634,0.55699
842.847,0.57542
837.061,0.58912
831.275,0.60693
825.489,0.62231
819.703,0.61936
813.917,0.60494
808.131,0.59005
802.344,0.57207
796.558,0.57353
790.772,0.60587
784.986,0.62671
779.2,0.61126
773.414,0.59268
767.628,0.58383
761.842,0.56781
756.055,0.53608
750.269,0.49588
744.483,0.42838
738.697,0.30973
732.911,0.10249
727.125,0.01184
721.339,0.00324
715.552,0.04948
709.766,0.27290
703.98,0.47890
698.194,0.61454
692.408,0.69648
686.622,0.71660
680.836,0.73990
675.049,0.74379
669.263,0.67324
663.477,0.73699
657.691,0.71165
651.905,0.64181
646.119,0.56725
640.333,0.56954
634.546,0.57216
628.76,0.49496
622.974,0.54695
617.188,0.51813
611.402,0.27227
605.616,0.27269
599.83,0.52181