File: 01_Data/PEVA/FTIR/IS/PEVA_0.18_IS_T_240809_R9.dpt
7497.33,0.03956
7491.55,0.03685
7485.76,0.02723
7479.97,0.02807
7474.19,0.02017
7468.4,0.02513
7462.61,0.02634
7456.83,0.02966
7451.04,0.02950
7445.26,0.02590
7439.47,0.03562
7433.68,0.03462
7427.9,0.03127
7422.11,0.03345
7416.32,0.02641
7410.54,0.02771
7404.75,0.02002
7398.96,0.02623
7393.18,0.04251
7387.39,0.03061
7381.6,0.03190
7375.82,0.03428
7370.03,0.04746
7364.24,0.03151
7358.46,0.03814
7352.67,0.02641
7346.89,0.03812
7341.1,0.02123
7335.31,0.03471
7329.53,0.04149
7323.74,0.03165
7317.95,0.02769
7312.17,0.03507
7306.38,0.03008
7300.59,0.02598
7294.81,0.03159
7289.02,0.01868
7283.23,0.03228
7277.45,0.03274
7271.66,0.02979
7265.87,0.03291
7260.09,0.02261
7254.3,0.03313
7248.52,0.02080
7242.73,0.02772
7236.94,0.03960
7231.16,0.03104
7225.37,0.03081
7219.58,0.03276
7213.8,0.03895
7208.01,0.02962
7202.22,0.03201
7196.44,0.03008
7190.65,0.03191
7184.86,0.02650
7179.08,0.03983
7173.29,0.04456
7167.5,0.04572
7161.72,0.03581
7155.93,0.03391
7150.15,0.03137
7144.36,0.04223
7138.57,0.03916
7132.79,0.03680
7127,0.03712
7121.21,0.03876
7115.43,0.02736
7109.64,0.01844
7103.85,0.03850
7098.07,0.03418
7092.28,0.02684
7086.49,0.02872
7080.71,0.02802
7074.92,0.02130
7069.13,0.03154
7063.35,0.03589
7057.56,0.03576
7051.78,0.03177
7045.99,0.03664
7040.2,0.03242
7034.42,0.03065
7028.63,0.03723
7022.84,0.02927
7017.06,0.03619
7011.27,0.04204
7005.48,0.04214
6999.7,0.03816
6993.91,0.03506
6988.12,0.03291
6982.34,0.03530
6976.55,0.02851
6970.76,0.03461
6964.98,0.03254
6959.19,0.03773
6953.41,0.02935
6947.62,0.02702
6941.83,0.02224
6936.05,0.03278
6930.26,0.02943
6924.47,0.02955
6918.69,0.03299
6912.9,0.02585
6907.11,0.03364
6901.33,0.03105
6895.54,0.03836
6889.75,0.03575
6883.97,0.03027
6878.18,0.03226
6872.39,0.03141
6866.61,0.03024
6860.82,0.02866
6855.04,0.03002
6849.25,0.03280
6843.46,0.02954
6837.68,0.03127
6831.89,0.03720
6826.1,0.02782
6820.32,0.02982
6814.53,0.02646
6808.74,0.03064
6802.96,0.02929
6797.17,0.02992
6791.38,0.02974
6785.6,0.03338
6779.81,0.02838
6774.03,0.03277
6768.24,0.03417
6762.45,0.02855
6756.67,0.02403
6750.88,0.03103
6745.09,0.03363
6739.31,0.03187
6733.52,0.03712
6727.73,0.02929
6721.95,0.02788
6716.16,0.03272
6710.37,0.03800
6704.59,0.03138
6698.8,0.02800
6693.01,0.03441
6687.23,0.03705
6681.44,0.03149
6675.66,0.02843
6669.87,0.03348
6664.08,0.02960
6658.3,0.03011
6652.51,0.03249
6646.72,0.03113
6640.94,0.03256
6635.15,0.03743
6629.36,0.03678
6623.58,0.02414
6617.79,0.02819
6612,0.02884
6606.22,0.03210
6600.43,0.03157
6594.64,0.02664
6588.86,0.03198
6583.07,0.03528
6577.29,0.03077
6571.5,0.03463
6565.71,0.02984
6559.93,0.02929
6554.14,0.03091
6548.35,0.03654
6542.57,0.02814
6536.78,0.03433
6530.99,0.03409
6525.21,0.02810
6519.42,0.02617
6513.63,0.03090
6507.85,0.03013
6502.06,0.02691
6496.27,0.02499
6490.49,0.02983
6484.7,0.03253
6478.92,0.03349
6473.13,0.02599
6467.34,0.03202
6461.56,0.03224
6455.77,0.03240
6449.98,0.02618
6444.2,0.02712
6438.41,0.03167
6432.62,0.03101
6426.84,0.03359
6421.05,0.02679
6415.26,0.03231
6409.48,0.02924
6403.69,0.03260
6397.9,0.03066
6392.12,0.03521
6386.33,0.03093
6380.55,0.02980
6374.76,0.02855
6368.97,0.02646
6363.19,0.03212
6357.4,0.03176
6351.61,0.02804
6345.83,0.03028
6340.04,0.03601
6334.25,0.03389
6328.47,0.02965
6322.68,0.03153
6316.89,0.03077
6311.11,0.03109
6305.32,0.02748
6299.53,0.03452
6293.75,0.02755
6287.96,0.02959
6282.18,0.03299
6276.39,0.03095
6270.6,0.03075
6264.82,0.03388
6259.03,0.03310
6253.24,0.02751
6247.46,0.03026
6241.67,0.03035
6235.88,0.02971
6230.1,0.02658
6224.31,0.02998
6218.52,0.02614
6212.74,0.02890
6206.95,0.03428
6201.16,0.02819
6195.38,0.02830
6189.59,0.02826
6183.81,0.03337
6178.02,0.02814
6172.23,0.03017
6166.45,0.02999
6160.66,0.03170
6154.87,0.02855
6149.09,0.03234
6143.3,0.03109
6137.51,0.03141
6131.73,0.03247
6125.94,0.03084
6120.15,0.03285
6114.37,0.02950
6108.58,0.03198
6102.79,0.03083
6097.01,0.03101
6091.22,0.03021
6085.44,0.02886
6079.65,0.03284
6073.86,0.03153
6068.08,0.02950
6062.29,0.03291
6056.5,0.02948
6050.72,0.02919
6044.93,0.03269
6039.14,0.02967
6033.36,0.03065
6027.57,0.03145
6021.78,0.03177
6016,0.03341
6010.21,0.03293
6004.42,0.03110
5998.64,0.03190
5992.85,0.03471
5987.07,0.02970
5981.28,0.03087
5975.49,0.03115
5969.71,0.02923
5963.92,0.02785
5958.13,0.02619
5952.35,0.03205
5946.56,0.03265
5940.77,0.03153
5934.99,0.03041
5929.2,0.02982
5923.41,0.03159
5917.63,0.02961
5911.84,0.03371
5906.05,0.03427
5900.27,0.03129
5894.48,0.02785
5888.7,0.02937
5882.91,0.03179
5877.12,0.03067
5871.34,0.03349
5865.55,0.02895
5859.76,0.03065
5853.98,0.03243
5848.19,0.03149
5842.4,0.03001
5836.62,0.02781
5830.83,0.03018
5825.04,0.03113
5819.26,0.02973
5813.47,0.03102
5807.68,0.03105
5801.9,0.02875
5796.11,0.03038
5790.33,0.03272
5784.54,0.03030
5778.75,0.02923
5772.97,0.02913
5767.18,0.03349
5761.39,0.03232
5755.61,0.03284
5749.82,0.03026
5744.03,0.02865
5738.25,0.02996
5732.46,0.03120
5726.67,0.02904
5720.89,0.03247
5715.1,0.02901
5709.31,0.02924
5703.53,0.02986
5697.74,0.02854
5691.96,0.02758
5686.17,0.03053
5680.38,0.02952
5674.6,0.02777
5668.81,0.02971
5663.02,0.03321
5657.24,0.03128
5651.45,0.03051
5645.66,0.02975
5639.88,0.03000
5634.09,0.03105
5628.3,0.03155
5622.52,0.02982
5616.73,0.03108
5610.94,0.03228
5605.16,0.03019
5599.37,0.03215
5593.59,0.03337
5587.8,0.03090
5582.01,0.03140
5576.23,0.03081
5570.44,0.02904
5564.65,0.02901
5558.87,0.02992
5553.08,0.03110
5547.29,0.03302
5541.51,0.02989
5535.72,0.03085
5529.93,0.03109
5524.15,0.02941
5518.36,0.03090
5512.58,0.03043
5506.79,0.03054
5501,0.02956
5495.22,0.03227
5489.43,0.03075
5483.64,0.03068
5477.86,0.03098
5472.07,0.03243
5466.28,0.03136
5460.5,0.02955
5454.71,0.03044
5448.92,0.02964
5443.14,0.03065
5437.35,0.03064
5431.56,0.03230
5425.78,0.03158
5419.99,0.02936
5414.21,0.02768
5408.42,0.03025
5402.63,0.03206
5396.85,0.02935
5391.06,0.03023
5385.27,0.03096
5379.49,0.03171
5373.7,0.03080
5367.91,0.03016
5362.13,0.02993
5356.34,0.03058
5350.55,0.02965
5344.77,0.03136
5338.98,0.03036
5333.19,0.03192
5327.41,0.03158
5321.62,0.03072
5315.84,0.03002
5310.05,0.03084
5304.26,0.03102
5298.48,0.02915
5292.69,0.03111
5286.9,0.03049
5281.12,0.02969
5275.33,0.02996
5269.54,0.03114
5263.76,0.03003
5257.97,0.02918
5252.18,0.03048
5246.4,0.03157
5240.61,0.03020
5234.82,0.03135
5229.04,0.03054
5223.25,0.02983
5217.47,0.03068
5211.68,0.03105
5205.89,0.03088
5200.11,0.03030
5194.32,0.03185
5188.53,0.03059
5182.75,0.03156
5176.96,0.02936
5171.17,0.02943
5165.39,0.03140
5159.6,0.03037
5153.81,0.03124
5148.03,0.03044
5142.24,0.02996
5136.45,0.02950
5130.67,0.03068
5124.88,0.03142
5119.1,0.03178
5113.31,0.03125
5107.52,0.03111
5101.74,0.03245
5095.95,0.03019
5090.16,0.02999
5084.38,0.02958
5078.59,0.02994
5072.8,0.03079
5067.02,0.03179
5061.23,0.03065
5055.44,0.03165
5049.66,0.02994
5043.87,0.02991
5038.08,0.03155
5032.3,0.03131
5026.51,0.03053
5020.73,0.03054
5014.94,0.03085
5009.15,0.03216
5003.37,0.03018
4997.58,0.03042
4991.79,0.03152
4986.01,0.03138
4980.22,0.03040
4974.43,0.02994
4968.65,0.03020
4962.86,0.03166
4957.07,0.03043
4951.29,0.03021
4945.5,0.03126
4939.71,0.02995
4933.93,0.03000
4928.14,0.03065
4922.36,0.03057
4916.57,0.03039
4910.78,0.03135
4905,0.03076
4899.21,0.03108
4893.42,0.03037
4887.64,0.03000
4881.85,0.03091
4876.06,0.03156
4870.28,0.03046
4864.49,0.03043
4858.7,0.03102
4852.92,0.03311
4847.13,0.03204
4841.34,0.03168
4835.56,0.02925
4829.77,0.03089
4823.99,0.02926
4818.2,0.03182
4812.41,0.03088
4806.63,0.02986
4800.84,0.02984
4795.05,0.03140
4789.27,0.03056
4783.48,0.03022
4777.69,0.02968
4771.91,0.03014
4766.12,0.03023
4760.33,0.03060
4754.55,0.02986
4748.76,0.03199
4742.97,0.03115
4737.19,0.03099
4731.4,0.03083
4725.62,0.03043
4719.83,0.03059
4714.04,0.03079
4708.26,0.03068
4702.47,0.03055
4696.68,0.03029
4690.9,0.03105
4685.11,0.03091
4679.32,0.03100
4673.54,0.03048
4667.75,0.03106
4661.96,0.02996
4656.18,0.03058
4650.39,0.03107
4644.6,0.03100
4638.82,0.03172
4633.03,0.03109
4627.25,0.03158
4621.46,0.03058
4615.67,0.03068
4609.89,0.03103
4604.1,0.03058
4598.31,0.03083
4592.53,0.02990
4586.74,0.02964
4580.95,0.03048
4575.17,0.03109
4569.38,0.03067
4563.59,0.03101
4557.81,0.03014
4552.02,0.03020
4546.23,0.03055
4540.45,0.03127
4534.66,0.03020
4528.88,0.03118
4523.09,0.03094
4517.3,0.03087
4511.52,0.03103
4505.73,0.03089
4499.94,0.03114
4494.16,0.02995
4488.37,0.03132
4482.58,0.03132
4476.8,0.03150
4471.01,0.03120
4465.22,0.03103
4459.44,0.03027
4453.65,0.03039
4447.86,0.03051
4442.08,0.03066
4436.29,0.03052
4430.51,0.02934
4424.72,0.03077
4418.93,0.02980
4413.15,0.03016
4407.36,0.02967
4401.57,0.03089
4395.79,0.03122
4390,0.03082
4384.21,0.03078
4378.43,0.03093
4372.64,0.03180
4366.85,0.03058
4361.07,0.03070
4355.28,0.03063
4349.49,0.03051
4343.71,0.03095
4337.92,0.02996
4332.14,0.03020
4326.35,0.03058
4320.56,0.03104
4314.78,0.03034
4308.99,0.03063
4303.2,0.03054
4297.42,0.03096
4291.63,0.03055
4285.84,0.03037
4280.06,0.03104
4274.27,0.03141
4268.48,0.03050
4262.7,0.03082
4256.91,0.03073
4251.13,0.03040
4245.34,0.03096
4239.55,0.03142
4233.77,0.03021
4227.98,0.03067
4222.19,0.03046
4216.41,0.03072
4210.62,0.03019
4204.83,0.03088
4199.05,0.03061
4193.26,0.03115
4187.47,0.03049
4181.69,0.03048
4175.9,0.03057
4170.11,0.03060
4164.33,0.03120
4158.54,0.02995
4152.76,0.03034
4146.97,0.03012
4141.18,0.03045
4135.4,0.03039
4129.61,0.03086
4123.82,0.03028
4118.04,0.03038
4112.25,0.03078
4106.46,0.03000
4100.68,0.03027
4094.89,0.03074
4089.1,0.02991
4083.32,0.03045
4077.53,0.03144
4071.74,0.03099
4065.96,0.03041
4060.17,0.03079
4054.39,0.03044
4048.6,0.03098
4042.81,0.03052
4037.03,0.03014
4031.24,0.03058
4025.45,0.03088
4019.67,0.03065
4013.88,0.03030
4008.09,0.03049
4002.31,0.03042
3996.52,0.03094
3990.73,0.03049
3984.95,0.03072
3979.16,0.03078
3973.37,0.03046
3967.59,0.03031
3961.8,0.03037
3956.02,0.03084
3950.23,0.02993
3944.44,0.03005
3938.66,0.03033
3932.87,0.03017
3927.08,0.02991
3921.3,0.03055
3915.51,0.03081
3909.72,0.03038
3903.94,0.03045
3898.15,0.02963
3892.36,0.03072
3886.58,0.03129
3880.79,0.02983
3875,0.03079
3869.22,0.03067
3863.43,0.03028
3857.65,0.03076
3851.86,0.02982
3846.07,0.03045
3840.29,0.03075
3834.5,0.02900
3828.71,0.03068
3822.93,0.03191
3817.14,0.03028
3811.35,0.03094
3805.57,0.03020
3799.78,0.03067
3793.99,0.03043
3788.21,0.03024
3782.42,0.03023
3776.63,0.03098
3770.85,0.03065
3765.06,0.03049
3759.28,0.03097
3753.49,0.03011
3747.7,0.03044
3741.92,0.03078
3736.13,0.03132
3730.34,0.03051
3724.56,0.03057
3718.77,0.02951
3712.98,0.03027
3707.2,0.03004
3701.41,0.02921
3695.62,0.02963
3689.84,0.03109
3684.05,0.02959
3678.26,0.02969
3672.48,0.02947
3666.69,0.02964
3660.91,0.02996
3655.12,0.02926
3649.33,0.02865
3643.55,0.02829
3637.76,0.02878
3631.97,0.02892
3626.19,0.02793
3620.4,0.02947
3614.61,0.02929
3608.83,0.02895
3603.04,0.02910
3597.25,0.02793
3591.47,0.02833
3585.68,0.02854
3579.89,0.02791
3574.11,0.02800
3568.32,0.02784
3562.54,0.02827
3556.75,0.02773
3550.96,0.02753
3545.18,0.02665
3539.39,0.02743
3533.6,0.02736
3527.82,0.02774
3522.03,0.02690
3516.24,0.02657
3510.46,0.02728
3504.67,0.02690
3498.88,0.02692
3493.1,0.02688
3487.31,0.02649
3481.52,0.02648
3475.74,0.02656
3469.95,0.02675
3464.17,0.02656
3458.38,0.02631
3452.59,0.02688
3446.81,0.02659
3441.02,0.02612
3435.23,0.02727
3429.45,0.02701
3423.66,0.02688
3417.87,0.02717
3412.09,0.02688
3406.3,0.02684
3400.51,0.02639
3394.73,0.02614
3388.94,0.02661
3383.15,0.02589
3377.37,0.02591
3371.58,0.02600
3365.8,0.02637
3360.01,0.02678
3354.22,0.02582
3348.44,0.02690
3342.65,0.02612
3336.86,0.02678
3331.08,0.02605
3325.29,0.02677
3319.5,0.02600
3313.72,0.02688
3307.93,0.02647
3302.14,0.02612
3296.36,0.02669
3290.57,0.02671
3284.78,0.02704
3279,0.02695
3273.21,0.02656
3267.43,0.02617
3261.64,0.02664
3255.85,0.02675
3250.07,0.02684
3244.28,0.02677
3238.49,0.02764
3232.71,0.02730
3226.92,0.02687
3221.13,0.02685
3215.35,0.02724
3209.56,0.02679
3203.77,0.02720
3197.99,0.02709
3192.2,0.02722
3186.41,0.02719
3180.63,0.02786
3174.84,0.02732
3169.06,0.02695
3163.27,0.02764
3157.48,0.02796
3151.7,0.02771
3145.91,0.02741
3140.12,0.02734
3134.34,0.02760
3128.55,0.02802
3122.76,0.02773
3116.98,0.02686
3111.19,0.02694
3105.4,0.02782
3099.62,0.02715
3093.83,0.02704
3088.05,0.02734
3082.26,0.02725
3076.47,0.02666
3070.69,0.02730
3064.9,0.02704
3059.11,0.02730
3053.33,0.02709
3047.54,0.02717
3041.75,0.02687
3035.97,0.02758
3030.18,0.02761
3024.39,0.02722
3018.61,0.02710
3012.82,0.02674
3007.03,0.02677
3001.25,0.02687
2995.46,0.02675
2989.68,0.02662
2983.89,0.02646
2978.1,0.02558
2972.32,0.02557
2966.53,0.02600
2960.74,0.02625
2954.96,0.02637
2949.17,0.02594
2943.38,0.02644
2937.6,0.02529
2931.81,0.02602
2926.02,0.02624
2920.24,0.02668
2914.45,0.02662
2908.66,0.02679
2902.88,0.02655
2897.09,0.02641
2891.31,0.02717
2885.52,0.02703
2879.73,0.02686
2873.95,0.02705
2868.16,0.02653
2862.37,0.02646
2856.59,0.02656
2850.8,0.02727
2845.01,0.02736
2839.23,0.02738
2833.44,0.02785
2827.65,0.02760
2821.87,0.02704
2816.08,0.02746
2810.29,0.02738
2804.51,0.02720
2798.72,0.02735
2792.94,0.02740
2787.15,0.02750
2781.36,0.02807
2775.58,0.02714
2769.79,0.02780
2764,0.02785
2758.22,0.02749
2752.43,0.02789
2746.64,0.02712
2740.86,0.02823
2735.07,0.02742
2729.28,0.02738
2723.5,0.02742
2717.71,0.02778
2711.92,0.02765
2706.14,0.02699
2700.35,0.02761
2694.57,0.02740
2688.78,0.02766
2682.99,0.02787
2677.21,0.02779
2671.42,0.02753
2665.63,0.02806
2659.85,0.02730
2654.06,0.02739
2648.27,0.02764
2642.49,0.02809
2636.7,0.02735
2630.91,0.02763
2625.13,0.02747
2619.34,0.02735
2613.55,0.02756
2607.77,0.02750
2601.98,0.02813
2596.2,0.02771
2590.41,0.02761
2584.62,0.02751
2578.84,0.02726
2573.05,0.02779
2567.26,0.02756
2561.48,0.02736
2555.69,0.02754
2549.9,0.02728
2544.12,0.02704
2538.33,0.02759
2532.54,0.02680
2526.76,0.02772
2520.97,0.02741
2515.18,0.02734
2509.4,0.02742
2503.61,0.02767
2497.83,0.02734
2492.04,0.02771
2486.25,0.02764
2480.47,0.02752
2474.68,0.02774
2468.89,0.02748
2463.11,0.02750
2457.32,0.02720
2451.53,0.02764
2445.75,0.02743
2439.96,0.02720
2434.17,0.02723
2428.39,0.02714
2422.6,0.02739
2416.81,0.02727
2411.03,0.02722
2405.24,0.02741
2399.46,0.02701
2393.67,0.02704
2387.88,0.02704
2382.1,0.02733
2376.31,0.02759
2370.52,0.02728
2364.74,0.02746
2358.95,0.02737
2353.16,0.02717
2347.38,0.02771
2341.59,0.02763
2335.8,0.02744
2330.02,0.02724
2324.23,0.02754
2318.44,0.02746
2312.66,0.02756
2306.87,0.02704
2301.09,0.02689
2295.3,0.02642
2289.51,0.02673
2283.73,0.02668
2277.94,0.02667
2272.15,0.02689
2266.37,0.02655
2260.58,0.02679
2254.79,0.02675
2249.01,0.02670
2243.22,0.02708
2237.43,0.02691
2231.65,0.02697
2225.86,0.02695
2220.07,0.02643
2214.29,0.02675
2208.5,0.02719
2202.72,0.02609
2196.93,0.02667
2191.14,0.02655
2185.36,0.02658
2179.57,0.02655
2173.78,0.02655
2168,0.02641
2162.21,0.02622
2156.42,0.02640
2150.64,0.02683
2144.85,0.02639
2139.06,0.02636
2133.28,0.02634
2127.49,0.02609
2121.7,0.02623
2115.92,0.02625
2110.13,0.02590
2104.35,0.02615
2098.56,0.02611
2092.77,0.02594
2086.99,0.02636
2081.2,0.02607
2075.41,0.02646
2069.63,0.02613
2063.84,0.02625
2058.05,0.02578
2052.27,0.02622
2046.48,0.02613
2040.69,0.02627
2034.91,0.02586
2029.12,0.02583
2023.33,0.02585
2017.55,0.02583
2011.76,0.02604
2005.98,0.02621
2000.19,0.02620
1994.4,0.02596
1988.62,0.02582
1982.83,0.02599
1977.04,0.02637
1971.26,0.02620
1965.47,0.02604
1959.68,0.02642
1953.9,0.02609
1948.11,0.02607
1942.32,0.02575
1936.54,0.02589
1930.75,0.02578
1924.96,0.02583
1919.18,0.02590
1913.39,0.02563
1907.61,0.02587
1901.82,0.02563
1896.03,0.02577
1890.25,0.02554
1884.46,0.02562
1878.67,0.02569
1872.89,0.02539
1867.1,0.02505
1861.31,0.02533
1855.53,0.02516
1849.74,0.02525
1843.95,0.02471
1838.17,0.02544
1832.38,0.02488
1826.6,0.02489
1820.81,0.02485
1815.02,0.02462
1809.24,0.02456
1803.45,0.02493
1797.66,0.02438
1791.88,0.02398
1786.09,0.02376
1780.3,0.02352
1774.52,0.02390
1768.73,0.02312
1762.94,0.02295
1757.16,0.02232
1751.37,0.02232
1745.58,0.02189
1739.8,0.02261
1734.01,0.02388
1728.23,0.02408
1722.44,0.02504
1716.65,0.02474
1710.87,0.02459
1705.08,0.02456
1699.29,0.02349
1693.51,0.02278
1687.72,0.02335
1681.93,0.02224
1676.15,0.02219
1670.36,0.02211
1664.57,0.02247
1658.79,0.02194
1653,0.02285
1647.21,0.02296
1641.43,0.02194
1635.64,0.02152
1629.86,0.02269
1624.07,0.02246
1618.28,0.02321
1612.5,0.02275
1606.71,0.02281
1600.92,0.02297
1595.14,0.02276
1589.35,0.02219
1583.56,0.02264
1577.78,0.02184
1571.99,0.02198
1566.2,0.02221
1560.42,0.02169
1554.63,0.02156
1548.84,0.02215
1543.06,0.02279
1537.27,0.02180
1531.49,0.02207
1525.7,0.02309
1519.91,0.02302
1514.13,0.02228
1508.34,0.02250
1502.55,0.02197
1496.77,0.02164
1490.98,0.02261
1485.19,0.02248
1479.41,0.02211
1473.62,0.02201
1467.83,0.02155
1462.05,0.02213
1456.26,0.02183
1450.47,0.02170
1444.69,0.02218
1438.9,0.02231
1433.12,0.02152
1427.33,0.02122
1421.54,0.02139
1415.76,0.02142
1409.97,0.02134
1404.18,0.02141
1398.4,0.02163
1392.61,0.02106
1386.82,0.02073
1381.04,0.02083
1375.25,0.02104
1369.46,0.02072
1363.68,0.02093
1357.89,0.02084
1352.1,0.02115
1346.32,0.02092
1340.53,0.02066
1334.75,0.02022
1328.96,0.02031
1323.17,0.02009
1317.39,0.01991
1311.6,0.01981
1305.81,0.02010
1300.03,0.02016
1294.24,0.02030
1288.45,0.02087
1282.67,0.02149
1276.88,0.02165
1271.09,0.02234
1265.31,0.02206
1259.52,0.02230
1253.73,0.02251
1247.95,0.02258
1242.16,0.02260
1236.38,0.02271
1230.59,0.02231
1224.8,0.02212
1219.02,0.02205
1213.23,0.02191
1207.44,0.02106
1201.66,0.02168
1195.87,0.02133
1190.08,0.02117
1184.3,0.02125
1178.51,0.02127
1172.72,0.02061
1166.94,0.02073
1161.15,0.02060
1155.36,0.02050
1149.58,0.02000
1143.79,0.01999
1138.01,0.02085
1132.22,0.02049
1126.43,0.02142
1120.65,0.02213
1114.86,0.02224
1109.07,0.02277
1103.29,0.02242
1097.5,0.02222
1091.71,0.02211
1085.93,0.02162
1080.14,0.02268
1074.35,0.02338
1068.57,0.02413
1062.78,0.02340
1056.99,0.02325
1051.21,0.02320
1045.42,0.02355
1039.64,0.02293
1033.85,0.02331
1028.06,0.02306
1022.28,0.02290
1016.49,0.02270
1010.7,0.02372
1004.92,0.02479
999.13,0.02452
993.344,0.02417
987.557,0.02403
981.771,0.02417
975.984,0.02365
970.198,0.02361
964.411,0.02363
958.625,0.02320
952.838,0.02364
947.052,0.02282
941.265,0.02295
935.479,0.02273
929.692,0.02220
923.906,0.02238
918.12,0.02189
912.333,0.02219
906.547,0.02254
900.76,0.02191
894.974,0.02184
889.187,0.02177
883.401,0.02229
877.614,0.02221
871.828,0.02163
866.041,0.02225
860.255,0.02247
854.468,0.02215
848.682,0.02239
842.895,0.02197
837.109,0.02178
831.323,0.02196
825.536,0.02172
819.75,0.02206
813.963,0.02269
808.177,0.02134
802.39,0.02124
796.604,0.02194
790.817,0.02166
785.031,0.02156
779.244,0.02105
773.458,0.02113
767.671,0.02087
761.885,0.02080
756.098,0.01920
750.312,0.02003
744.526,0.02024
738.739,0.02021
732.953,0.02108
727.166,0.01990
721.38,0.01945
715.593,0.02009
709.807,0.01874
704.02,0.01994
698.234,0.01965
692.447,0.01917
686.661,0.01837
680.874,0.01917
675.088,0.01905
669.301,0.01888
663.515,0.01874
657.729,0.01845
651.942,0.01884
646.156,0.01886
640.369,0.01789
634.583,0.01653
628.796,0.01973
623.01,0.01874
617.223,0.01839
611.437,0.01607
605.65,0.01997
599.864,0.01727