File: 01_Data/PEVA/FTIR/IS/PEVA_0.10_IS_T_240808_R3.dpt
7496.93,0.04155
7491.14,0.05801
7485.35,0.03383
7479.57,0.02758
7473.78,0.04451
7468,0.03206
7462.21,0.03045
7456.42,0.04191
7450.64,0.02211
7444.85,0.02487
7439.06,0.03815
7433.28,0.02921
7427.49,0.02892
7421.71,0.02272
7415.92,0.03720
7410.13,0.03827
7404.35,0.03704
7398.56,0.03743
7392.78,0.03163
7386.99,0.02063
7381.2,0.03027
7375.42,0.04700
7369.63,0.03947
7363.84,0.04060
7358.06,0.01869
7352.27,0.03092
7346.49,0.04167
7340.7,0.04318
7334.91,0.03532
7329.13,0.02578
7323.34,0.03453
7317.56,0.03291
7311.77,0.04921
7305.98,0.01571
7300.2,0.03290
7294.41,0.02603
7288.62,0.04041
7282.84,0.02573
7277.05,0.03370
7271.27,0.02911
7265.48,0.03745
7259.69,0.03405
7253.91,0.03413
7248.12,0.03558
7242.34,0.03463
7236.55,0.02393
7230.76,0.02563
7224.98,0.02324
7219.19,0.02044
7213.4,0.03231
7207.62,0.03053
7201.83,0.03516
7196.05,0.02852
7190.26,0.03085
7184.47,0.03584
7178.69,0.02696
7172.9,0.03407
7167.12,0.02888
7161.33,0.02527
7155.54,0.03166
7149.76,0.02842
7143.97,0.03292
7138.18,0.03302
7132.4,0.03439
7126.61,0.03320
7120.83,0.03636
7115.04,0.03175
7109.25,0.03466
7103.47,0.03388
7097.68,0.03846
7091.9,0.02638
7086.11,0.03503
7080.32,0.03365
7074.54,0.04432
7068.75,0.03407
7062.96,0.03829
7057.18,0.02785
7051.39,0.02988
7045.61,0.03117
7039.82,0.03068
7034.03,0.02303
7028.25,0.02915
7022.46,0.02819
7016.68,0.03588
7010.89,0.02786
7005.1,0.02621
6999.32,0.03131
6993.53,0.03031
6987.74,0.03151
6981.96,0.02962
6976.17,0.02535
6970.39,0.02877
6964.6,0.03411
6958.81,0.03184
6953.03,0.03402
6947.24,0.04038
6941.46,0.03288
6935.67,0.03379
6929.88,0.02822
6924.1,0.03335
6918.31,0.03261
6912.52,0.03078
6906.74,0.03032
6900.95,0.02437
6895.17,0.02912
6889.38,0.03690
6883.59,0.03951
6877.81,0.03551
6872.02,0.03588
6866.24,0.03128
6860.45,0.02816
6854.66,0.02474
6848.88,0.03503
6843.09,0.02856
6837.3,0.03345
6831.52,0.03412
6825.73,0.03339
6819.95,0.03341
6814.16,0.03316
6808.37,0.02936
6802.59,0.03303
6796.8,0.03296
6791.02,0.02815
6785.23,0.02443
6779.44,0.03097
6773.66,0.02835
6767.87,0.03017
6762.08,0.03132
6756.3,0.02191
6750.51,0.03035
6744.73,0.02771
6738.94,0.03394
6733.15,0.03411
6727.37,0.03013
6721.58,0.03293
6715.8,0.03010
6710.01,0.02706
6704.22,0.03372
6698.44,0.03589
6692.65,0.03043
6686.86,0.03274
6681.08,0.02948
6675.29,0.03502
6669.51,0.03191
6663.72,0.03206
6657.93,0.03403
6652.15,0.03140
6646.36,0.02569
6640.58,0.03794
6634.79,0.03538
6629,0.03311
6623.22,0.03504
6617.43,0.03434
6611.64,0.03123
6605.86,0.03149
6600.07,0.03504
6594.29,0.03467
6588.5,0.02783
6582.71,0.02737
6576.93,0.02770
6571.14,0.03446
6565.36,0.03075
6559.57,0.02908
6553.78,0.03136
6548,0.03132
6542.21,0.03001
6536.42,0.02805
6530.64,0.03371
6524.85,0.03312
6519.07,0.02826
6513.28,0.03343
6507.49,0.02909
6501.71,0.03182
6495.92,0.02732
6490.14,0.02513
6484.35,0.03033
6478.56,0.04072
6472.78,0.03356
6466.99,0.02574
6461.2,0.02800
6455.42,0.03290
6449.63,0.02701
6443.85,0.02768
6438.06,0.03163
6432.27,0.03189
6426.49,0.03392
6420.7,0.02770
6414.92,0.03000
6409.13,0.03000
6403.34,0.03162
6397.56,0.03005
6391.77,0.03067
6385.98,0.03011
6380.2,0.03794
6374.41,0.03628
6368.63,0.02915
6362.84,0.03053
6357.05,0.03078
6351.27,0.02535
6345.48,0.03061
6339.7,0.03197
6333.91,0.02756
6328.12,0.02840
6322.34,0.03255
6316.55,0.03805
6310.76,0.03662
6304.98,0.02566
6299.19,0.02772
6293.41,0.02820
6287.62,0.02592
6281.83,0.02981
6276.05,0.03255
6270.26,0.02744
6264.48,0.02854
6258.69,0.03248
6252.9,0.03053
6247.12,0.02848
6241.33,0.02782
6235.54,0.03331
6229.76,0.02891
6223.97,0.02822
6218.19,0.02924
6212.4,0.02927
6206.61,0.02830
6200.83,0.02395
6195.04,0.03051
6189.26,0.03363
6183.47,0.02776
6177.68,0.03077
6171.9,0.02788
6166.11,0.02960
6160.32,0.02900
6154.54,0.02841
6148.75,0.02539
6142.97,0.02712
6137.18,0.03041
6131.39,0.02363
6125.61,0.02924
6119.82,0.02564
6114.04,0.02626
6108.25,0.02960
6102.46,0.02547
6096.68,0.02667
6090.89,0.02871
6085.1,0.02966
6079.32,0.03092
6073.53,0.02570
6067.75,0.02996
6061.96,0.02657
6056.17,0.02866
6050.39,0.03040
6044.6,0.02794
6038.82,0.02974
6033.03,0.03102
6027.24,0.03023
6021.46,0.03253
6015.67,0.03150
6009.88,0.03063
6004.1,0.03032
5998.31,0.02991
5992.53,0.03244
5986.74,0.03228
5980.95,0.02951
5975.17,0.03066
5969.38,0.02783
5963.6,0.02974
5957.81,0.02693
5952.02,0.02804
5946.24,0.03111
5940.45,0.02753
5934.66,0.02813
5928.88,0.02925
5923.09,0.02686
5917.31,0.02617
5911.52,0.02943
5905.73,0.02674
5899.95,0.02951
5894.16,0.02874
5888.38,0.02790
5882.59,0.02894
5876.8,0.02730
5871.02,0.03101
5865.23,0.02994
5859.44,0.02730
5853.66,0.02890
5847.87,0.02761
5842.09,0.02748
5836.3,0.02815
5830.51,0.02980
5824.73,0.02694
5818.94,0.03024
5813.16,0.02729
5807.37,0.02871
5801.58,0.02828
5795.8,0.02822
5790.01,0.02907
5784.22,0.02834
5778.44,0.03003
5772.65,0.02826
5766.87,0.02819
5761.08,0.02639
5755.29,0.03069
5749.51,0.02793
5743.72,0.02948
5737.94,0.02701
5732.15,0.03012
5726.36,0.03014
5720.58,0.03125
5714.79,0.02844
5709,0.03085
5703.22,0.02821
5697.43,0.03007
5691.65,0.03040
5685.86,0.03180
5680.07,0.03008
5674.29,0.02791
5668.5,0.02639
5662.72,0.03104
5656.93,0.02991
5651.14,0.02902
5645.36,0.03091
5639.57,0.03001
5633.78,0.03053
5628,0.03069
5622.21,0.02923
5616.43,0.03033
5610.64,0.02839
5604.85,0.03029
5599.07,0.02954
5593.28,0.02907
5587.5,0.02858
5581.71,0.02785
5575.92,0.02893
5570.14,0.02889
5564.35,0.03013
5558.56,0.02960
5552.78,0.02976
5546.99,0.03041
5541.21,0.02987
5535.42,0.02974
5529.63,0.03035
5523.85,0.02922
5518.06,0.03012
5512.28,0.02834
5506.49,0.02703
5500.7,0.02837
5494.92,0.03139
5489.13,0.02784
5483.34,0.02995
5477.56,0.03204
5471.77,0.02979
5465.99,0.03197
5460.2,0.02966
5454.41,0.03183
5448.63,0.03017
5442.84,0.02908
5437.06,0.02788
5431.27,0.03082
5425.48,0.02902
5419.7,0.03117
5413.91,0.02657
5408.12,0.03004
5402.34,0.02894
5396.55,0.02655
5390.77,0.02984
5384.98,0.03155
5379.19,0.02925
5373.41,0.03026
5367.62,0.03008
5361.84,0.03060
5356.05,0.02977
5350.26,0.03021
5344.48,0.03076
5338.69,0.02935
5332.9,0.02859
5327.12,0.02703
5321.33,0.02984
5315.55,0.03049
5309.76,0.02961
5303.97,0.02987
5298.19,0.02762
5292.4,0.02732
5286.62,0.03100
5280.83,0.02815
5275.04,0.02656
5269.26,0.03013
5263.47,0.02972
5257.68,0.03018
5251.9,0.03088
5246.11,0.02970
5240.33,0.02968
5234.54,0.02875
5228.75,0.02922
5222.97,0.03015
5217.18,0.02860
5211.4,0.03013
5205.61,0.02891
5199.82,0.02913
5194.04,0.02825
5188.25,0.02782
5182.46,0.02960
5176.68,0.02851
5170.89,0.02908
5165.11,0.02843
5159.32,0.02963
5153.53,0.03030
5147.75,0.03067
5141.96,0.02924
5136.18,0.03055
5130.39,0.02944
5124.6,0.02873
5118.82,0.02919
5113.03,0.02808
5107.24,0.03142
5101.46,0.02938
5095.67,0.02981
5089.89,0.02909
5084.1,0.02898
5078.31,0.02774
5072.53,0.03239
5066.74,0.02979
5060.96,0.02838
5055.17,0.02931
5049.38,0.03049
5043.6,0.02906
5037.81,0.03037
5032.02,0.03072
5026.24,0.02965
5020.45,0.02965
5014.67,0.03063
5008.88,0.02950
5003.09,0.03087
4997.31,0.03015
4991.52,0.02964
4985.74,0.02944
4979.95,0.02929
4974.16,0.02965
4968.38,0.02852
4962.59,0.02935
4956.8,0.03023
4951.02,0.02841
4945.23,0.02872
4939.45,0.03030
4933.66,0.03000
4927.87,0.02934
4922.09,0.02930
4916.3,0.02847
4910.52,0.02839
4904.73,0.02937
4898.94,0.02892
4893.16,0.03060
4887.37,0.02974
4881.58,0.03031
4875.8,0.02976
4870.01,0.02908
4864.23,0.03042
4858.44,0.02976
4852.65,0.03075
4846.87,0.02851
4841.08,0.02859
4835.3,0.02944
4829.51,0.02939
4823.72,0.02933
4817.94,0.02883
4812.15,0.02942
4806.36,0.02763
4800.58,0.02957
4794.79,0.03013
4789.01,0.02804
4783.22,0.02926
4777.43,0.02968
4771.65,0.02999
4765.86,0.02990
4760.08,0.02839
4754.29,0.03073
4748.5,0.03036
4742.72,0.02986
4736.93,0.03043
4731.14,0.02862
4725.36,0.02829
4719.57,0.02935
4713.79,0.02892
4708,0.02917
4702.21,0.02971
4696.43,0.02949
4690.64,0.02960
4684.86,0.02901
4679.07,0.02874
4673.28,0.03025
4667.5,0.02881
4661.71,0.02859
4655.92,0.02821
4650.14,0.02966
4644.35,0.02948
4638.57,0.02932
4632.78,0.02854
4626.99,0.02868
4621.21,0.02954
4615.42,0.02989
4609.64,0.03037
4603.85,0.03010
4598.06,0.03002
4592.28,0.02921
4586.49,0.02921
4580.7,0.02995
4574.92,0.03012
4569.13,0.02887
4563.35,0.02830
4557.56,0.02913
4551.77,0.02821
4545.99,0.02989
4540.2,0.02895
4534.42,0.03044
4528.63,0.03028
4522.84,0.02957
4517.06,0.02904
4511.27,0.02874
4505.48,0.02948
4499.7,0.03013
4493.91,0.02897
4488.13,0.02827
4482.34,0.02835
4476.55,0.02989
4470.77,0.02957
4464.98,0.02917
4459.2,0.02852
4453.41,0.02889
4447.62,0.02946
4441.84,0.02832
4436.05,0.02945
4430.26,0.03006
4424.48,0.02901
4418.69,0.02979
4412.91,0.02905
4407.12,0.02926
4401.33,0.02974
4395.55,0.03044
4389.76,0.02912
4383.98,0.02960
4378.19,0.02942
4372.4,0.02899
4366.62,0.03007
4360.83,0.02916
4355.04,0.02915
4349.26,0.02899
4343.47,0.02915
4337.69,0.02946
4331.9,0.02910
4326.11,0.02900
4320.33,0.02874
4314.54,0.02986
4308.76,0.02919
4302.97,0.02944
4297.18,0.03015
4291.4,0.02947
4285.61,0.02878
4279.82,0.02896
4274.04,0.02908
4268.25,0.02879
4262.47,0.02883
4256.68,0.02999
4250.89,0.02969
4245.11,0.02822
4239.32,0.02951
4233.54,0.02864
4227.75,0.02892
4221.96,0.02930
4216.18,0.02953
4210.39,0.02919
4204.6,0.02916
4198.82,0.02903
4193.03,0.02931
4187.25,0.02835
4181.46,0.02927
4175.67,0.02956
4169.89,0.02953
4164.1,0.02940
4158.32,0.02933
4152.53,0.02935
4146.74,0.02937
4140.96,0.02865
4135.17,0.02873
4129.38,0.02929
4123.6,0.02922
4117.81,0.02889
4112.03,0.02928
4106.24,0.02980
4100.45,0.02931
4094.67,0.02882
4088.88,0.02891
4083.1,0.02918
4077.31,0.02854
4071.52,0.02998
4065.74,0.03005
4059.95,0.02878
4054.16,0.02849
4048.38,0.02989
4042.59,0.02941
4036.81,0.02926
4031.02,0.02978
4025.23,0.02922
4019.45,0.02847
4013.66,0.02905
4007.88,0.03059
4002.09,0.02999
3996.3,0.02945
3990.52,0.02924
3984.73,0.02944
3978.94,0.02922
3973.16,0.02854
3967.37,0.02892
3961.59,0.02947
3955.8,0.02899
3950.01,0.02976
3944.23,0.03029
3938.44,0.02897
3932.66,0.02867
3926.87,0.02983
3921.08,0.02926
3915.3,0.02941
3909.51,0.02930
3903.72,0.02951
3897.94,0.02915
3892.15,0.02981
3886.37,0.02998
3880.58,0.02820
3874.79,0.02897
3869.01,0.02961
3863.22,0.03002
3857.44,0.02946
3851.65,0.02928
3845.86,0.02956
3840.08,0.02958
3834.29,0.02920
3828.5,0.02953
3822.72,0.02938
3816.93,0.02844
3811.15,0.02901
3805.36,0.02979
3799.57,0.02816
3793.79,0.02916
3788,0.02883
3782.22,0.02916
3776.43,0.02902
3770.64,0.02951
3764.86,0.02895
3759.07,0.02858
3753.28,0.02921
3747.5,0.02866
3741.71,0.02932
3735.93,0.03020
3730.14,0.02983
3724.35,0.02902
3718.57,0.02879
3712.78,0.02998
3707,0.02865
3701.21,0.02812
3695.42,0.02891
3689.64,0.02969
3683.85,0.02904
3678.06,0.02857
3672.28,0.02847
3666.49,0.02823
3660.71,0.02915
3654.92,0.02818
3649.13,0.02830
3643.35,0.02810
3637.56,0.02765
3631.78,0.02777
3625.99,0.02686
3620.2,0.02765
3614.42,0.02787
3608.63,0.02730
3602.84,0.02744
3597.06,0.02697
3591.27,0.02766
3585.49,0.02578
3579.7,0.02667
3573.91,0.02641
3568.13,0.02661
3562.34,0.02583
3556.56,0.02735
3550.77,0.02663
3544.98,0.02594
3539.2,0.02559
3533.41,0.02595
3527.62,0.02612
3521.84,0.02609
3516.05,0.02574
3510.27,0.02639
3504.48,0.02606
3498.69,0.02655
3492.91,0.02536
3487.12,0.02630
3481.34,0.02574
3475.55,0.02629
3469.76,0.02627
3463.98,0.02521
3458.19,0.02651
3452.4,0.02629
3446.62,0.02628
3440.83,0.02572
3435.05,0.02561
3429.26,0.02547
3423.47,0.02502
3417.69,0.02551
3411.9,0.02510
3406.12,0.02615
3400.33,0.02592
3394.54,0.02534
3388.76,0.02559
3382.97,0.02677
3377.18,0.02613
3371.4,0.02516
3365.61,0.02567
3359.83,0.02571
3354.04,0.02490
3348.25,0.02501
3342.47,0.02506
3336.68,0.02587
3330.9,0.02543
3325.11,0.02536
3319.32,0.02489
3313.54,0.02549
3307.75,0.02622
3301.96,0.02542
3296.18,0.02575
3290.39,0.02619
3284.61,0.02531
3278.82,0.02519
3273.03,0.02564
3267.25,0.02523
3261.46,0.02604
3255.68,0.02624
3249.89,0.02603
3244.1,0.02570
3238.32,0.02555
3232.53,0.02665
3226.74,0.02610
3220.96,0.02598
3215.17,0.02552
3209.39,0.02608
3203.6,0.02593
3197.81,0.02617
3192.03,0.02606
3186.24,0.02653
3180.46,0.02562
3174.67,0.02706
3168.88,0.02612
3163.1,0.02592
3157.31,0.02658
3151.52,0.02646
3145.74,0.02653
3139.95,0.02581
3134.17,0.02667
3128.38,0.02606
3122.59,0.02642
3116.81,0.02616
3111.02,0.02662
3105.24,0.02656
3099.45,0.02631
3093.66,0.02615
3087.88,0.02594
3082.09,0.02634
3076.3,0.02622
3070.52,0.02648
3064.73,0.02618
3058.95,0.02544
3053.16,0.02620
3047.37,0.02664
3041.59,0.02635
3035.8,0.02621
3030.02,0.02583
3024.23,0.02584
3018.44,0.02566
3012.66,0.02601
3006.87,0.02530
3001.08,0.02578
2995.3,0.02544
2989.51,0.02549
2983.73,0.02545
2977.94,0.02482
2972.15,0.02484
2966.37,0.02551
2960.58,0.02472
2954.8,0.02463
2949.01,0.02467
2943.22,0.02452
2937.44,0.02516
2931.65,0.02502
2925.86,0.02547
2920.08,0.02537
2914.29,0.02558
2908.51,0.02595
2902.72,0.02600
2896.93,0.02571
2891.15,0.02655
2885.36,0.02599
2879.58,0.02610
2873.79,0.02584
2868,0.02593
2862.22,0.02548
2856.43,0.02601
2850.64,0.02628
2844.86,0.02584
2839.07,0.02617
2833.29,0.02688
2827.5,0.02641
2821.71,0.02652
2815.93,0.02626
2810.14,0.02647
2804.36,0.02697
2798.57,0.02664
2792.78,0.02681
2787,0.02681
2781.21,0.02678
2775.42,0.02716
2769.64,0.02664
2763.85,0.02672
2758.07,0.02685
2752.28,0.02682
2746.49,0.02714
2740.71,0.02679
2734.92,0.02669
2729.14,0.02668
2723.35,0.02648
2717.56,0.02672
2711.78,0.02683
2705.99,0.02674
2700.2,0.02675
2694.42,0.02636
2688.63,0.02637
2682.85,0.02639
2677.06,0.02666
2671.27,0.02683
2665.49,0.02661
2659.7,0.02637
2653.92,0.02674
2648.13,0.02680
2642.34,0.02631
2636.56,0.02651
2630.77,0.02635
2624.98,0.02648
2619.2,0.02605
2613.41,0.02639
2607.63,0.02662
2601.84,0.02688
2596.05,0.02656
2590.27,0.02631
2584.48,0.02617
2578.7,0.02640
2572.91,0.02657
2567.12,0.02642
2561.34,0.02669
2555.55,0.02602
2549.76,0.02617
2543.98,0.02651
2538.19,0.02666
2532.41,0.02633
2526.62,0.02651
2520.83,0.02586
2515.05,0.02678
2509.26,0.02649
2503.48,0.02645
2497.69,0.02613
2491.9,0.02652
2486.12,0.02640
2480.33,0.02662
2474.55,0.02676
2468.76,0.02612
2462.97,0.02608
2457.19,0.02611
2451.4,0.02609
2445.61,0.02595
2439.83,0.02619
2434.04,0.02632
2428.26,0.02649
2422.47,0.02636
2416.68,0.02612
2410.9,0.02616
2405.11,0.02626
2399.32,0.02588
2393.54,0.02579
2387.75,0.02613
2381.97,0.02569
2376.18,0.02633
2370.39,0.02654
2364.61,0.02671
2358.82,0.02738
2353.04,0.02661
2347.25,0.02615
2341.46,0.02605
2335.68,0.02576
2329.89,0.02605
2324.11,0.02582
2318.32,0.02575
2312.53,0.02619
2306.75,0.02590
2300.96,0.02585
2295.17,0.02607
2289.39,0.02606
2283.6,0.02570
2277.82,0.02600
2272.03,0.02590
2266.24,0.02610
2260.46,0.02568
2254.67,0.02540
2248.89,0.02564
2243.1,0.02548
2237.31,0.02582
2231.53,0.02576
2225.74,0.02589
2219.95,0.02548
2214.17,0.02583
2208.38,0.02548
2202.6,0.02566
2196.81,0.02522
2191.02,0.02533
2185.24,0.02529
2179.45,0.02564
2173.67,0.02554
2167.88,0.02540
2162.09,0.02567
2156.31,0.02563
2150.52,0.02563
2144.73,0.02552
2138.95,0.02535
2133.16,0.02556
2127.38,0.02524
2121.59,0.02517
2115.8,0.02531
2110.02,0.02562
2104.23,0.02535
2098.45,0.02494
2092.66,0.02537
2086.87,0.02541
2081.09,0.02507
2075.3,0.02520
2069.51,0.02535
2063.73,0.02534
2057.94,0.02499
2052.16,0.02505
2046.37,0.02509
2040.58,0.02500
2034.8,0.02511
2029.01,0.02528
2023.23,0.02511
2017.44,0.02524
2011.65,0.02511
2005.87,0.02506
2000.08,0.02496
1994.29,0.02528
1988.51,0.02497
1982.72,0.02488
1976.94,0.02468
1971.15,0.02478
1965.36,0.02484
1959.58,0.02495
1953.79,0.02485
1948.01,0.02476
1942.22,0.02481
1936.43,0.02464
1930.65,0.02494
1924.86,0.02505
1919.07,0.02469
1913.29,0.02476
1907.5,0.02470
1901.72,0.02467
1895.93,0.02447
1890.14,0.02453
1884.36,0.02419
1878.57,0.02446
1872.79,0.02459
1867,0.02474
1861.21,0.02438
1855.43,0.02411
1849.64,0.02445
1843.85,0.02422
1838.07,0.02398
1832.28,0.02428
1826.5,0.02356
1820.71,0.02358
1814.92,0.02370
1809.14,0.02339
1803.35,0.02321
1797.57,0.02357
1791.78,0.02299
1785.99,0.02289
1780.21,0.02269
1774.42,0.02239
1768.63,0.02180
1762.85,0.02203
1757.06,0.02147
1751.28,0.02085
1745.49,0.02114
1739.7,0.02165
1733.92,0.02295
1728.13,0.02383
1722.35,0.02383
1716.56,0.02352
1710.77,0.02371
1704.99,0.02340
1699.2,0.02225
1693.41,0.02207
1687.63,0.02209
1681.84,0.02183
1676.06,0.02156
1670.27,0.02140
1664.48,0.02152
1658.7,0.02191
1652.91,0.02144
1647.13,0.02124
1641.34,0.02146
1635.55,0.02137
1629.77,0.02195
1623.98,0.02177
1618.19,0.02199
1612.41,0.02208
1606.62,0.02192
1600.84,0.02173
1595.05,0.02191
1589.26,0.02165
1583.48,0.02103
1577.69,0.02110
1571.91,0.02163
1566.12,0.02087
1560.33,0.02173
1554.55,0.02142
1548.76,0.02120
1542.97,0.02106
1537.19,0.02068
1531.4,0.02156
1525.62,0.02158
1519.83,0.02114
1514.04,0.02176
1508.26,0.02094
1502.47,0.02140
1496.69,0.02164
1490.9,0.02192
1485.11,0.02125
1479.33,0.02118
1473.54,0.02046
1467.75,0.02135
1461.97,0.02135
1456.18,0.02095
1450.4,0.02082
1444.61,0.02146
1438.82,0.02133
1433.04,0.02056
1427.25,0.02123
1421.47,0.02113
1415.68,0.02067
1409.89,0.02022
1404.11,0.02057
1398.32,0.02060
1392.53,0.02047
1386.75,0.02025
1380.96,0.02030
1375.18,0.02053
1369.39,0.02038
1363.6,0.02031
1357.82,0.02007
1352.03,0.02015
1346.25,0.01985
1340.46,0.01964
1334.67,0.01980
1328.89,0.01945
1323.1,0.01903
1317.31,0.01948
1311.53,0.01932
1305.74,0.01903
1299.96,0.01937
1294.17,0.01990
1288.38,0.02008
1282.6,0.02025
1276.81,0.02060
1271.03,0.02148
1265.24,0.02172
1259.45,0.02163
1253.67,0.02216
1247.88,0.02195
1242.09,0.02166
1236.31,0.02194
1230.52,0.02128
1224.74,0.02130
1218.95,0.02118
1213.16,0.02144
1207.38,0.02075
1201.59,0.02029
1195.81,0.02045
1190.02,0.02055
1184.23,0.01990
1178.45,0.01980
1172.66,0.01930
1166.87,0.01961
1161.09,0.01964
1155.3,0.01990
1149.52,0.01950
1143.73,0.01926
1137.94,0.02027
1132.16,0.02052
1126.37,0.02081
1120.59,0.02105
1114.8,0.02128
1109.01,0.02139
1103.23,0.02084
1097.44,0.02083
1091.65,0.02102
1085.87,0.02106
1080.08,0.02079
1074.3,0.02217
1068.51,0.02340
1062.72,0.02354
1056.94,0.02320
1051.15,0.02289
1045.37,0.02221
1039.58,0.02221
1033.79,0.02314
1028.01,0.02242
1022.22,0.02191
1016.43,0.02255
1010.65,0.02285
1004.86,0.02339
999.076,0.02394
993.29,0.02357
987.504,0.02325
981.717,0.02323
975.931,0.02294
970.145,0.02372
964.359,0.02271
958.573,0.02248
952.787,0.02286
947,0.02245
941.214,0.02211
935.428,0.02257
929.642,0.02221
923.856,0.02199
918.07,0.02175
912.284,0.02132
906.497,0.02212
900.711,0.02162
894.925,0.02175
889.139,0.02161
883.353,0.02160
877.567,0.02124
871.78,0.02129
865.994,0.02126
860.208,0.02094
854.422,0.02147
848.636,0.02052
842.85,0.02163
837.064,0.02111
831.277,0.02006
825.491,0.02092
819.705,0.02120
813.919,0.01977
808.133,0.02147
802.347,0.02024
796.56,0.02045
790.774,0.02014
784.988,0.02033
779.202,0.02006
773.416,0.01982
767.63,0.01941
761.844,0.01921
756.057,0.01946
750.271,0.01908
744.485,0.01924
738.699,0.01919
732.913,0.01932
727.127,0.01920
721.34,0.01880
715.554,0.01814
709.768,0.01813
703.982,0.01891
698.196,0.01774
692.41,0.01810
686.624,0.01852
680.837,0.01884
675.051,0.01804
669.265,0.01780
663.479,0.01659
657.693,0.01870
651.907,0.01701
646.12,0.01798
640.334,0.01915
634.548,0.01626
628.762,0.01872
622.976,0.01704
617.19,0.01850
611.404,0.01910
605.617,0.01867
599.831,0.01458