File: 01_Data/PEVA/FTIR/IS/PEVA_0.26_IS_Trans_S_240819_R8.dpt
7496.91,0.93933
7491.12,0.94003
7485.33,0.93911
7479.55,0.93443
7473.76,0.93787
7467.98,0.94095
7462.19,0.94193
7456.4,0.93354
7450.62,0.94432
7444.83,0.92296
7439.04,0.93117
7433.26,0.92274
7427.47,0.92305
7421.69,0.92429
7415.9,0.93226
7410.11,0.95241
7404.33,0.93847
7398.54,0.93176
7392.76,0.93000
7386.97,0.92776
7381.18,0.93367
7375.4,0.93038
7369.61,0.91281
7363.83,0.92814
7358.04,0.94862
7352.25,0.92633
7346.47,0.92011
7340.68,0.92537
7334.89,0.93826
7329.11,0.93048
7323.32,0.90692
7317.54,0.91168
7311.75,0.92750
7305.96,0.93223
7300.18,0.91752
7294.39,0.92411
7288.61,0.92234
7282.82,0.92342
7277.03,0.92783
7271.25,0.91914
7265.46,0.90692
7259.67,0.92838
7253.89,0.91664
7248.1,0.92323
7242.32,0.92246
7236.53,0.92075
7230.74,0.90680
7224.96,0.91344
7219.17,0.92455
7213.39,0.91684
7207.6,0.92204
7201.81,0.92708
7196.03,0.91211
7190.24,0.91742
7184.45,0.90653
7178.67,0.92035
7172.88,0.92939
7167.1,0.90892
7161.31,0.90716
7155.52,0.91881
7149.74,0.90667
7143.95,0.90920
7138.17,0.90612
7132.38,0.91779
7126.59,0.92331
7120.81,0.91932
7115.02,0.91134
7109.23,0.90691
7103.45,0.90839
7097.66,0.91743
7091.88,0.90904
7086.09,0.90834
7080.3,0.91131
7074.52,0.92213
7068.73,0.90372
7062.95,0.90519
7057.16,0.91443
7051.37,0.90974
7045.59,0.91970
7039.8,0.91860
7034.02,0.91551
7028.23,0.90984
7022.44,0.91361
7016.66,0.90334
7010.87,0.91570
7005.08,0.91946
6999.3,0.91932
6993.51,0.90306
6987.73,0.91909
6981.94,0.91323
6976.15,0.91008
6970.37,0.91104
6964.58,0.91847
6958.8,0.91629
6953.01,0.91594
6947.22,0.92005
6941.44,0.91929
6935.65,0.92193
6929.86,0.91480
6924.08,0.91715
6918.29,0.91376
6912.51,0.91981
6906.72,0.91471
6900.93,0.92602
6895.15,0.91237
6889.36,0.91720
6883.58,0.91830
6877.79,0.92240
6872,0.92241
6866.22,0.92898
6860.43,0.92776
6854.64,0.91765
6848.86,0.92978
6843.07,0.92957
6837.29,0.92232
6831.5,0.92364
6825.71,0.93045
6819.93,0.93236
6814.14,0.92793
6808.36,0.92363
6802.57,0.91623
6796.78,0.92923
6791,0.93082
6785.21,0.92245
6779.43,0.92013
6773.64,0.92179
6767.85,0.92532
6762.07,0.93153
6756.28,0.93317
6750.49,0.93353
6744.71,0.92901
6738.92,0.93606
6733.14,0.93773
6727.35,0.92995
6721.56,0.93896
6715.78,0.93167
6709.99,0.92943
6704.21,0.93502
6698.42,0.92497
6692.63,0.92769
6686.85,0.93049
6681.06,0.93008
6675.27,0.93399
6669.49,0.92875
6663.7,0.92915
6657.92,0.92227
6652.13,0.92554
6646.34,0.93294
6640.56,0.92682
6634.77,0.92997
6628.99,0.92094
6623.2,0.92334
6617.41,0.92246
6611.63,0.92465
6605.84,0.93321
6600.05,0.92544
6594.27,0.93253
6588.48,0.92988
6582.7,0.93283
6576.91,0.93339
6571.12,0.93283
6565.34,0.93063
6559.55,0.92784
6553.77,0.92817
6547.98,0.92631
6542.19,0.93487
6536.41,0.93564
6530.62,0.92977
6524.84,0.93676
6519.05,0.93004
6513.26,0.92645
6507.48,0.93254
6501.69,0.93017
6495.9,0.93473
6490.12,0.93437
6484.33,0.92908
6478.55,0.93366
6472.76,0.92810
6466.97,0.93126
6461.19,0.93902
6455.4,0.93209
6449.62,0.93267
6443.83,0.92902
6438.04,0.92813
6432.26,0.92436
6426.47,0.92697
6420.68,0.93004
6414.9,0.93647
6409.11,0.93528
6403.33,0.93016
6397.54,0.93462
6391.75,0.92707
6385.97,0.92840
6380.18,0.93361
6374.4,0.93670
6368.61,0.93524
6362.82,0.93424
6357.04,0.93635
6351.25,0.93479
6345.46,0.93279
6339.68,0.93157
6333.89,0.93670
6328.11,0.93091
6322.32,0.93292
6316.53,0.93233
6310.75,0.92818
6304.96,0.93324
6299.18,0.93058
6293.39,0.92919
6287.6,0.92749
6281.82,0.92643
6276.03,0.92895
6270.24,0.92814
6264.46,0.93462
6258.67,0.93055
6252.89,0.93248
6247.1,0.92936
6241.31,0.93313
6235.53,0.92879
6229.74,0.93467
6223.96,0.93551
6218.17,0.93248
6212.38,0.93541
6206.6,0.93485
6200.81,0.93082
6195.03,0.92382
6189.24,0.92777
6183.45,0.92793
6177.67,0.93007
6171.88,0.93026
6166.09,0.92654
6160.31,0.92587
6154.52,0.92527
6148.74,0.92617
6142.95,0.92319
6137.16,0.92172
6131.38,0.91866
6125.59,0.92447
6119.81,0.91938
6114.02,0.92803
6108.23,0.92393
6102.45,0.92284
6096.66,0.91847
6090.87,0.91848
6085.09,0.91305
6079.3,0.91555
6073.52,0.90994
6067.73,0.91228
6061.94,0.90679
6056.16,0.90061
6050.37,0.89818
6044.59,0.89461
6038.8,0.89449
6033.01,0.88767
6027.23,0.88554
6021.44,0.87908
6015.65,0.87993
6009.87,0.88322
6004.08,0.88543
5998.3,0.89106
5992.51,0.89077
5986.72,0.89430
5980.94,0.89826
5975.15,0.90093
5969.37,0.90006
5963.58,0.90337
5957.79,0.89819
5952.01,0.89891
5946.22,0.89469
5940.44,0.88485
5934.65,0.88070
5928.86,0.87471
5923.08,0.87167
5917.29,0.86313
5911.5,0.85857
5905.72,0.85341
5899.93,0.84403
5894.15,0.83841
5888.36,0.82951
5882.57,0.81790
5876.79,0.81044
5871,0.80211
5865.22,0.79339
5859.43,0.78443
5853.64,0.77239
5847.86,0.75930
5842.07,0.75301
5836.28,0.73539
5830.5,0.72660
5824.71,0.72211
5818.93,0.73308
5813.14,0.74499
5807.35,0.75541
5801.57,0.77072
5795.78,0.78129
5790,0.79560
5784.21,0.80226
5778.42,0.81201
5772.64,0.81649
5766.85,0.82131
5761.06,0.82222
5755.28,0.82107
5749.49,0.81967
5743.71,0.81530
5737.92,0.81357
5732.13,0.81430
5726.35,0.81541
5720.56,0.81583
5714.78,0.81691
5708.99,0.81795
5703.2,0.81741
5697.42,0.81673
5691.63,0.82118
5685.84,0.82345
5680.06,0.82789
5674.27,0.83572
5668.49,0.83534
5662.7,0.83568
5656.91,0.84170
5651.13,0.84107
5645.34,0.84732
5639.56,0.84857
5633.77,0.85155
5627.98,0.85626
5622.2,0.85594
5616.41,0.85631
5610.63,0.86605
5604.84,0.86269
5599.05,0.86150
5593.27,0.86593
5587.48,0.86896
5581.69,0.86736
5575.91,0.87121
5570.12,0.86932
5564.34,0.87282
5558.55,0.87347
5552.76,0.87687
5546.98,0.87576
5541.19,0.87549
5535.41,0.87515
5529.62,0.87850
5523.83,0.87545
5518.05,0.87591
5512.26,0.87779
5506.47,0.87416
5500.69,0.87535
5494.9,0.87215
5489.12,0.86966
5483.33,0.87514
5477.54,0.87050
5471.76,0.87077
5465.97,0.86981
5460.19,0.87439
5454.4,0.87753
5448.61,0.87248
5442.83,0.87319
5437.04,0.87808
5431.25,0.87627
5425.47,0.88246
5419.68,0.88650
5413.9,0.87525
5408.11,0.88185
5402.32,0.88605
5396.54,0.88451
5390.75,0.88745
5384.97,0.88339
5379.18,0.88702
5373.39,0.88723
5367.61,0.89209
5361.82,0.89180
5356.04,0.89319
5350.25,0.88517
5344.46,0.88356
5338.68,0.88277
5332.89,0.89072
5327.1,0.89225
5321.32,0.89618
5315.53,0.89572
5309.75,0.89579
5303.96,0.89484
5298.17,0.89896
5292.39,0.89880
5286.6,0.89566
5280.82,0.89516
5275.03,0.90012
5269.24,0.89408
5263.46,0.88831
5257.67,0.89397
5251.88,0.89364
5246.1,0.88799
5240.31,0.89629
5234.53,0.89528
5228.74,0.89530
5222.95,0.89640
5217.17,0.89784
5211.38,0.89816
5205.6,0.89374
5199.81,0.89802
5194.02,0.89785
5188.24,0.89449
5182.45,0.89915
5176.66,0.89887
5170.88,0.89930
5165.09,0.89807
5159.31,0.89702
5153.52,0.90047
5147.73,0.89996
5141.95,0.89938
5136.16,0.89950
5130.38,0.89973
5124.59,0.89837
5118.8,0.89682
5113.02,0.89840
5107.23,0.89894
5101.45,0.90115
5095.66,0.89948
5089.87,0.90162
5084.09,0.90206
5078.3,0.90193
5072.51,0.90176
5066.73,0.90297
5060.94,0.90315
5055.16,0.90337
5049.37,0.90410
5043.58,0.90546
5037.8,0.90512
5032.01,0.90494
5026.23,0.90413
5020.44,0.90468
5014.65,0.90391
5008.87,0.90485
5003.08,0.90662
4997.29,0.90505
4991.51,0.90564
4985.72,0.90568
4979.94,0.90600
4974.15,0.90666
4968.36,0.90828
4962.58,0.90829
4956.79,0.90756
4951.01,0.90538
4945.22,0.90659
4939.43,0.90633
4933.65,0.90545
4927.86,0.90514
4922.07,0.90543
4916.29,0.90660
4910.5,0.90485
4904.72,0.90483
4898.93,0.90747
4893.14,0.90655
4887.36,0.90509
4881.57,0.90537
4875.79,0.90760
4870,0.90564
4864.21,0.90524
4858.43,0.90590
4852.64,0.90513
4846.85,0.90559
4841.07,0.90703
4835.28,0.90631
4829.5,0.90536
4823.71,0.90555
4817.92,0.90477
4812.14,0.90433
4806.35,0.90498
4800.57,0.90313
4794.78,0.90322
4788.99,0.90213
4783.21,0.90300
4777.42,0.90394
4771.64,0.90386
4765.85,0.90409
4760.06,0.90506
4754.28,0.90330
4748.49,0.90458
4742.7,0.90232
4736.92,0.90140
4731.13,0.89812
4725.35,0.89488
4719.56,0.89065
4713.77,0.88767
4707.99,0.88574
4702.2,0.88306
4696.42,0.87673
4690.63,0.86940
4684.84,0.86474
4679.06,0.86761
4673.27,0.87491
4667.48,0.87954
4661.7,0.88062
4655.91,0.88039
4650.13,0.87994
4644.34,0.87729
4638.55,0.87045
4632.77,0.86533
4626.98,0.86805
4621.2,0.87651
4615.41,0.88256
4609.62,0.88616
4603.84,0.88785
4598.05,0.88732
4592.26,0.88699
4586.48,0.88533
4580.69,0.88416
4574.91,0.88264
4569.12,0.88487
4563.33,0.88732
4557.55,0.89080
4551.76,0.89082
4545.98,0.88956
4540.19,0.88995
4534.4,0.88832
4528.62,0.88620
4522.83,0.88506
4517.05,0.88396
4511.26,0.88201
4505.47,0.87811
4499.69,0.87352
4493.9,0.86681
4488.11,0.85930
4482.33,0.85677
4476.54,0.85498
4470.76,0.85135
4464.97,0.84530
4459.18,0.83791
4453.4,0.82721
4447.61,0.81258
4441.83,0.79403
4436.04,0.77564
4430.25,0.75171
4424.47,0.72550
4418.68,0.69690
4412.89,0.66959
4407.11,0.64447
4401.32,0.62778
4395.54,0.61913
4389.75,0.61402
4383.96,0.59743
4378.18,0.57064
4372.39,0.54075
4366.61,0.50679
4360.82,0.47065
4355.03,0.43941
4349.25,0.41188
4343.46,0.38367
4337.67,0.35769
4331.89,0.35158
4326.1,0.37471
4320.32,0.41005
4314.53,0.44500
4308.74,0.46731
4302.96,0.47789
4297.17,0.48345
4291.39,0.48117
4285.6,0.47623
4279.81,0.47204
4274.03,0.47175
4268.24,0.47620
4262.46,0.48436
4256.67,0.48896
4250.88,0.48923
4245.1,0.48831
4239.31,0.48588
4233.52,0.48149
4227.74,0.47441
4221.95,0.46827
4216.17,0.46435
4210.38,0.46750
4204.59,0.47611
4198.81,0.48759
4193.02,0.50013
4187.24,0.50693
4181.45,0.50241
4175.66,0.49344
4169.88,0.49011
4164.09,0.49983
4158.3,0.51801
4152.52,0.53526
4146.73,0.54824
4140.95,0.56114
4135.16,0.57460
4129.37,0.58562
4123.59,0.58803
4117.8,0.58492
4112.02,0.57968
4106.23,0.57412
4100.44,0.56494
4094.66,0.54697
4088.87,0.51728
4083.08,0.49660
4077.3,0.51198
4071.51,0.54003
4065.73,0.56461
4059.94,0.58840
4054.15,0.60741
4048.37,0.61869
4042.58,0.62346
4036.8,0.62837
4031.01,0.63063
4025.22,0.62996
4019.44,0.63138
4013.65,0.63688
4007.86,0.64311
4002.08,0.65322
3996.29,0.66329
3990.51,0.67282
3984.72,0.68163
3978.93,0.68923
3973.15,0.69346
3967.36,0.69988
3961.58,0.70209
3955.79,0.70430
3950,0.70066
3944.22,0.70188
3938.43,0.70676
3932.65,0.70083
3926.86,0.70147
3921.07,0.70070
3915.29,0.70229
3909.5,0.70793
3903.71,0.69185
3897.93,0.70338
3892.14,0.70618
3886.36,0.70994
3880.57,0.70901
3874.78,0.71217
3869,0.70544
3863.21,0.70718
3857.43,0.71074
3851.64,0.70074
3845.85,0.72001
3840.07,0.70443
3834.28,0.71510
3828.49,0.72420
3822.71,0.71534
3816.92,0.72047
3811.14,0.73888
3805.35,0.72838
3799.56,0.72744
3793.78,0.75014
3787.99,0.75723
3782.21,0.75629
3776.42,0.76058
3770.63,0.75375
3764.85,0.75331
3759.06,0.74519
3753.27,0.73630
3747.49,0.73362
3741.7,0.74889
3735.92,0.73686
3730.13,0.75620
3724.34,0.75888
3718.56,0.77381
3712.77,0.76043
3706.99,0.75984
3701.2,0.74694
3695.41,0.72963
3689.63,0.68475
3683.84,0.67857
3678.06,0.66216
3672.27,0.66268
3666.48,0.68160
3660.7,0.69085
3654.91,0.68858
3649.12,0.66986
3643.34,0.69582
3637.55,0.69659
3631.77,0.68006
3625.98,0.66986
3620.19,0.65876
3614.41,0.65018
3608.62,0.64651
3602.84,0.64626
3597.05,0.63450
3591.26,0.63075
3585.48,0.61951
3579.69,0.61795
3573.9,0.60722
3568.12,0.58453
3562.33,0.57724
3556.55,0.57044
3550.76,0.55740
3544.97,0.54993
3539.19,0.55127
3533.4,0.54865
3527.62,0.54100
3521.83,0.53751
3516.04,0.53414
3510.26,0.52342
3504.47,0.51239
3498.68,0.50307
3492.9,0.48922
3487.11,0.47156
3481.33,0.45347
3475.54,0.43947
3469.75,0.42602
3463.97,0.41358
3458.18,0.40182
3452.4,0.38810
3446.61,0.36649
3440.82,0.34200
3435.04,0.31519
3429.25,0.29548
3423.47,0.28958
3417.68,0.29928
3411.89,0.32117
3406.11,0.35093
3400.32,0.38222
3394.53,0.41016
3388.75,0.43309
3382.96,0.45046
3377.18,0.46572
3371.39,0.47918
3365.6,0.48722
3359.82,0.49453
3354.03,0.50074
3348.25,0.50249
3342.46,0.49855
3336.67,0.49189
3330.89,0.48582
3325.1,0.47972
3319.31,0.46593
3313.53,0.42482
3307.74,0.34762
3301.96,0.28963
3296.17,0.32321
3290.38,0.39293
3284.6,0.45083
3278.81,0.49000
3273.03,0.51899
3267.24,0.54016
3261.45,0.55308
3255.67,0.56026
3249.88,0.56546
3244.09,0.56521
3238.31,0.56412
3232.52,0.56051
3226.74,0.55632
3220.95,0.55286
3215.16,0.55127
3209.38,0.54718
3203.59,0.54302
3197.81,0.53910
3192.02,0.53724
3186.23,0.53865
3180.45,0.54007
3174.66,0.54131
3168.87,0.54178
3163.09,0.54132
3157.3,0.54032
3151.52,0.53599
3145.73,0.53072
3139.94,0.52364
3134.16,0.51112
3128.37,0.49638
3122.59,0.48994
3116.8,0.48583
3111.01,0.47120
3105.23,0.44700
3099.44,0.41531
3093.66,0.39547
3087.87,0.37135
3082.08,0.34047
3076.3,0.33357
3070.51,0.31725
3064.72,0.29100
3058.94,0.28426
3053.15,0.27020
3047.37,0.28249
3041.58,0.28744
3035.79,0.26824
3030.01,0.24018
3024.22,0.20929
3018.44,0.17126
3012.65,0.12802
3006.86,0.08294
3001.08,0.04372
2995.29,0.01671
2989.5,0.00387
2983.72,0.00120
2977.93,0.00084
2972.15,0.00092
2966.36,0.00079
2960.57,0.00060
2954.79,0.00087
2949,0.00093
2943.22,0.00027
2937.43,0.00089
2931.64,0.00081
2925.86,0.00105
2920.07,0.00038
2914.28,0.00043
2908.5,0.00085
2902.71,0.00051
2896.93,0.00088
2891.14,0.00063
2885.35,0.00076
2879.57,0.00082
2873.78,0.00077
2868,0.00062
2862.21,0.00079
2856.42,0.00044
2850.64,0.00105
2844.85,0.00171
2839.07,0.00961
2833.28,0.02793
2827.49,0.04913
2821.71,0.06120
2815.92,0.07065
2810.13,0.11444
2804.35,0.16967
2798.56,0.21548
2792.78,0.25589
2786.99,0.29003
2781.2,0.31995
2775.42,0.34370
2769.63,0.35891
2763.85,0.36692
2758.06,0.36892
2752.27,0.36174
2746.49,0.34944
2740.7,0.33419
2734.91,0.32373
2729.13,0.33771
2723.34,0.37524
2717.56,0.40569
2711.77,0.42606
2705.98,0.44209
2700.2,0.45382
2694.41,0.46075
2688.63,0.46392
2682.84,0.45940
2677.05,0.45229
2671.27,0.45110
2665.48,0.46170
2659.69,0.48076
2653.91,0.49787
2648.12,0.50732
2642.34,0.50832
2636.55,0.49932
2630.76,0.48809
2624.98,0.48631
2619.19,0.48580
2613.41,0.48486
2607.62,0.48427
2601.83,0.48470
2596.05,0.48617
2590.26,0.48502
2584.47,0.48131
2578.69,0.47933
2572.9,0.48528
2567.12,0.49415
2561.33,0.49933
2555.54,0.50151
2549.76,0.50703
2543.97,0.51496
2538.19,0.52255
2532.4,0.52618
2526.61,0.53200
2520.83,0.54199
2515.04,0.55587
2509.26,0.56956
2503.47,0.58146
2497.68,0.58931
2491.9,0.59412
2486.11,0.59872
2480.32,0.60330
2474.54,0.60931
2468.75,0.61444
2462.97,0.61760
2457.18,0.61743
2451.39,0.61603
2445.61,0.61128
2439.82,0.60478
2434.04,0.59705
2428.25,0.58622
2422.46,0.57235
2416.68,0.56144
2410.89,0.55298
2405.1,0.54391
2399.32,0.53531
2393.53,0.52467
2387.75,0.51607
2381.96,0.50210
2376.17,0.48015
2370.39,0.46389
2364.6,0.45647
2358.82,0.46534
2353.03,0.50210
2347.24,0.53280
2341.46,0.53141
2335.67,0.54955
2329.88,0.56219
2324.1,0.57088
2318.31,0.59303
2312.53,0.61465
2306.74,0.62760
2300.95,0.63129
2295.17,0.62767
2289.38,0.61717
2283.6,0.60420
2277.81,0.59225
2272.02,0.60069
2266.24,0.61543
2260.45,0.62320
2254.67,0.62448
2248.88,0.62500
2243.09,0.62263
2237.31,0.61975
2231.52,0.62128
2225.73,0.62437
2219.95,0.63152
2214.16,0.63508
2208.38,0.63829
2202.59,0.65347
2196.8,0.66800
2191.02,0.67506
2185.23,0.68339
2179.45,0.69016
2173.66,0.69383
2167.87,0.69399
2162.09,0.69020
2156.3,0.68796
2150.51,0.68578
2144.73,0.68417
2138.94,0.68069
2133.16,0.68038
2127.37,0.67872
2121.58,0.67695
2115.8,0.67388
2110.01,0.67216
2104.23,0.67156
2098.44,0.66979
2092.65,0.66685
2086.87,0.66133
2081.08,0.65755
2075.29,0.65384
2069.51,0.65392
2063.72,0.65431
2057.94,0.66044
2052.15,0.66631
2046.36,0.67185
2040.58,0.67532
2034.79,0.67812
2029.01,0.68088
2023.22,0.68435
2017.43,0.69004
2011.65,0.69575
2005.86,0.69723
2000.08,0.69230
1994.29,0.67799
1988.5,0.66270
1982.72,0.66041
1976.93,0.65281
1971.14,0.63710
1965.36,0.60814
1959.57,0.56685
1953.79,0.50799
1948,0.48307
1942.21,0.51755
1936.43,0.56392
1930.64,0.60079
1924.86,0.62071
1919.07,0.62965
1913.28,0.63760
1907.5,0.64020
1901.71,0.64678
1895.92,0.64699
1890.14,0.64734
1884.35,0.65314
1878.57,0.65681
1872.78,0.65344
1866.99,0.64057
1861.21,0.63975
1855.42,0.62348
1849.64,0.59462
1843.85,0.55527
1838.06,0.52856
1832.28,0.47688
1826.49,0.41544
1820.7,0.40377
1814.92,0.42139
1809.13,0.43074
1803.35,0.42628
1797.56,0.40529
1791.77,0.37011
1785.99,0.33983
1780.2,0.29889
1774.42,0.26098
1768.63,0.21308
1762.84,0.16042
1757.06,0.08603
1751.27,0.03197
1745.48,0.00685
1739.7,0.00107
1733.91,0.00052
1728.13,0.00054
1722.34,0.00063
1716.55,0.00051
1710.77,0.00065
1704.98,0.00072
1699.2,0.00247
1693.41,0.02537
1687.62,0.04944
1681.84,0.06403
1676.05,0.07488
1670.27,0.10343
1664.48,0.18325
1658.69,0.25835
1652.91,0.27875
1647.12,0.26550
1641.33,0.19668
1635.55,0.17309
1629.76,0.27417
1623.98,0.31518
1618.19,0.29967
1612.4,0.25961
1606.62,0.28922
1600.83,0.33820
1595.05,0.34810
1589.26,0.33266
1583.47,0.22622
1577.69,0.09860
1571.9,0.16387
1566.11,0.21377
1560.33,0.23543
1554.54,0.26164
1548.76,0.26552
1542.97,0.23058
1537.18,0.21873
1531.4,0.24338
1525.61,0.24866
1519.83,0.26800
1514.04,0.23799
1508.25,0.13070
1502.47,0.07698
1496.68,0.19269
1490.89,0.19068
1485.11,0.11161
1479.32,0.03889
1473.54,0.00477
1467.75,0.00058
1461.96,0.00045
1456.18,0.00080
1450.39,0.00061
1444.61,0.00083
1438.82,0.00051
1433.03,0.00081
1427.25,0.00082
1421.46,0.00085
1415.68,0.00085
1409.89,0.00058
1404.1,0.00200
1398.32,0.00560
1392.53,0.00185
1386.74,0.00079
1380.96,0.00072
1375.17,0.00081
1369.39,0.00202
1363.6,0.00225
1357.81,0.00125
1352.03,0.00097
1346.24,0.00102
1340.46,0.00089
1334.67,0.00063
1328.88,0.00073
1323.1,0.00061
1317.31,0.00060
1311.52,0.00048
1305.74,0.00061
1299.95,0.00075
1294.17,0.00060
1288.38,0.00075
1282.59,0.00059
1276.81,0.00043
1271.02,0.00067
1265.24,0.00041
1259.45,0.00041
1253.66,0.00069
1247.88,0.00068
1242.09,0.00043
1236.3,0.00053
1230.52,0.00069
1224.73,0.00100
1218.95,0.00265
1213.16,0.00328
1207.37,0.00252
1201.59,0.00206
1195.8,0.00305
1190.02,0.00544
1184.23,0.01223
1178.44,0.01195
1172.66,0.00475
1166.87,0.00750
1161.09,0.00806
1155.3,0.00618
1149.51,0.00509
1143.73,0.00505
1137.94,0.00222
1132.15,0.00040
1126.37,0.00095
1120.58,0.00071
1114.8,0.00051
1109.01,0.00061
1103.22,0.00072
1097.44,0.00072
1091.65,0.00044
1085.87,0.00058
1080.08,0.00151
1074.29,0.00459
1068.51,0.00990
1062.72,0.01429
1056.93,0.01987
1051.15,0.02494
1045.36,0.02603
1039.58,0.02305
1033.79,0.01724
1028,0.00933
1022.22,0.00203
1016.43,0.00169
1010.65,0.00727
1004.86,0.00815
999.073,0.00520
993.287,0.00236
987.501,0.00133
981.715,0.00064
975.929,0.00075
970.142,0.00102
964.356,0.00076
958.57,0.00098
952.784,0.00096
946.998,0.00109
941.212,0.00137
935.426,0.00225
929.64,0.00361
923.853,0.00473
918.067,0.00815
912.281,0.01241
906.495,0.01727
900.709,0.02625
894.923,0.03434
889.137,0.04619
883.35,0.03340
877.564,0.00519
871.778,0.00566
865.992,0.02667
860.206,0.03858
854.42,0.03987
848.634,0.03899
842.847,0.03809
837.061,0.03032
831.275,0.02995
825.489,0.07086
819.703,0.13321
813.917,0.16028
808.131,0.16210
802.344,0.16970
796.558,0.11984
790.772,0.13122
784.986,0.10255
779.2,0.08710
773.414,0.06663
767.628,0.05834
761.842,0.10224
756.055,0.16111
750.269,0.14584
744.483,0.06480
738.697,0.00570
732.911,0.00091
727.125,0.00160
721.339,0.01260
715.552,0.02291
709.766,0.00996
703.98,0.00277
698.194,0.00201
692.408,0.00080
686.622,0.00139
680.836,0.00222
675.049,0.00582
669.263,0.01289
663.477,0.02336
657.691,0.01163
651.905,0.00280
646.119,0.00089
640.333,0.00079
634.546,0.00247
628.76,0.00209
622.974,0.00144
617.188,0.00028
611.402,0.00114
605.616,0.00109
599.83,0.00600