File: 01_Data/PEVA/FTIR/IS/PEVA_0.26_IS_T_240809_R2.dpt
7497.2,0.04274
7491.41,0.02591
7485.63,0.04283
7479.84,0.04130
7474.05,0.03139
7468.27,0.02986
7462.48,0.04620
7456.7,0.02804
7450.91,0.03258
7445.12,0.02997
7439.34,0.03140
7433.55,0.04751
7427.76,0.03016
7421.98,0.03965
7416.19,0.02509
7410.4,0.03414
7404.62,0.02420
7398.83,0.02786
7393.05,0.03442
7387.26,0.02560
7381.47,0.02860
7375.69,0.05092
7369.9,0.02531
7364.11,0.03676
7358.33,0.03982
7352.54,0.04480
7346.75,0.04942
7340.97,0.03075
7335.18,0.04523
7329.4,0.04043
7323.61,0.03881
7317.82,0.03089
7312.04,0.03453
7306.25,0.03868
7300.46,0.04604
7294.68,0.04022
7288.89,0.03965
7283.1,0.03235
7277.32,0.02670
7271.53,0.03070
7265.75,0.02882
7259.96,0.02661
7254.17,0.03691
7248.39,0.02562
7242.6,0.03116
7236.81,0.03549
7231.03,0.03536
7225.24,0.04408
7219.45,0.02430
7213.67,0.03223
7207.88,0.03506
7202.1,0.04315
7196.31,0.04018
7190.52,0.03679
7184.74,0.03920
7178.95,0.03692
7173.16,0.03110
7167.38,0.03063
7161.59,0.02669
7155.8,0.03744
7150.02,0.03148
7144.23,0.03420
7138.45,0.03988
7132.66,0.02484
7126.87,0.02694
7121.09,0.02860
7115.3,0.03891
7109.51,0.04116
7103.73,0.03896
7097.94,0.03009
7092.15,0.03020
7086.37,0.02463
7080.58,0.03118
7074.8,0.02611
7069.01,0.03043
7063.22,0.04218
7057.44,0.03343
7051.65,0.03552
7045.86,0.03370
7040.08,0.03714
7034.29,0.03044
7028.5,0.03859
7022.72,0.03184
7016.93,0.02611
7011.15,0.03577
7005.36,0.03405
6999.57,0.03319
6993.79,0.03369
6988,0.03281
6982.21,0.02748
6976.43,0.03405
6970.64,0.03323
6964.85,0.02865
6959.07,0.03506
6953.28,0.03115
6947.5,0.03271
6941.71,0.03034
6935.92,0.03690
6930.14,0.03168
6924.35,0.03038
6918.56,0.03352
6912.78,0.03557
6906.99,0.03296
6901.2,0.03726
6895.42,0.02741
6889.63,0.02864
6883.85,0.03321
6878.06,0.03331
6872.27,0.03487
6866.49,0.03697
6860.7,0.03636
6854.91,0.03716
6849.13,0.03153
6843.34,0.03067
6837.55,0.03321
6831.77,0.03216
6825.98,0.03033
6820.2,0.03219
6814.41,0.03448
6808.62,0.03263
6802.84,0.02956
6797.05,0.02754
6791.26,0.03539
6785.48,0.03274
6779.69,0.02865
6773.9,0.03096
6768.12,0.02577
6762.33,0.03446
6756.55,0.03413
6750.76,0.03080
6744.97,0.03771
6739.19,0.03121
6733.4,0.03220
6727.61,0.03593
6721.83,0.03175
6716.04,0.03133
6710.25,0.03430
6704.47,0.03442
6698.68,0.02786
6692.9,0.03387
6687.11,0.02698
6681.32,0.03396
6675.54,0.02681
6669.75,0.02939
6663.96,0.03545
6658.18,0.02670
6652.39,0.03494
6646.6,0.03655
6640.82,0.03091
6635.03,0.03483
6629.25,0.03520
6623.46,0.02461
6617.67,0.03191
6611.89,0.03592
6606.1,0.03310
6600.31,0.03052
6594.53,0.03504
6588.74,0.03018
6582.95,0.02900
6577.17,0.03355
6571.38,0.03584
6565.6,0.03259
6559.81,0.03366
6554.02,0.02560
6548.24,0.03266
6542.45,0.03463
6536.66,0.03053
6530.88,0.03111
6525.09,0.03268
6519.3,0.02737
6513.52,0.02802
6507.73,0.03240
6501.95,0.03292
6496.16,0.03250
6490.37,0.03689
6484.59,0.03225
6478.8,0.03125
6473.01,0.03437
6467.23,0.03646
6461.44,0.03375
6455.65,0.02967
6449.87,0.02840
6444.08,0.03271
6438.3,0.03422
6432.51,0.03221
6426.72,0.03253
6420.94,0.03200
6415.15,0.03247
6409.36,0.02902
6403.58,0.03386
6397.79,0.03156
6392,0.03144
6386.22,0.03278
6380.43,0.02928
6374.65,0.02847
6368.86,0.02553
6363.07,0.03233
6357.29,0.02751
6351.5,0.02807
6345.71,0.03163
6339.93,0.03387
6334.14,0.02837
6328.35,0.03175
6322.57,0.03257
6316.78,0.02793
6310.99,0.02735
6305.21,0.03004
6299.42,0.02954
6293.64,0.03205
6287.85,0.02864
6282.06,0.02844
6276.28,0.03109
6270.49,0.03118
6264.7,0.03225
6258.92,0.03173
6253.13,0.02944
6247.34,0.02935
6241.56,0.03345
6235.77,0.02570
6229.99,0.02776
6224.2,0.03446
6218.41,0.03173
6212.63,0.02637
6206.84,0.03031
6201.05,0.03305
6195.27,0.03218
6189.48,0.03413
6183.69,0.03109
6177.91,0.03001
6172.12,0.03570
6166.34,0.03274
6160.55,0.02965
6154.76,0.03311
6148.98,0.03536
6143.19,0.03002
6137.4,0.02934
6131.62,0.02947
6125.83,0.02941
6120.04,0.03205
6114.26,0.03302
6108.47,0.02996
6102.69,0.03732
6096.9,0.03414
6091.11,0.03058
6085.33,0.03026
6079.54,0.03374
6073.75,0.03181
6067.97,0.02895
6062.18,0.03158
6056.39,0.02942
6050.61,0.02966
6044.82,0.03031
6039.04,0.02816
6033.25,0.03065
6027.46,0.02626
6021.68,0.02850
6015.89,0.02827
6010.1,0.03210
6004.32,0.02762
5998.53,0.03082
5992.74,0.03015
5986.96,0.03021
5981.17,0.02936
5975.39,0.02932
5969.6,0.03022
5963.81,0.03007
5958.03,0.03158
5952.24,0.03112
5946.45,0.03132
5940.67,0.03018
5934.88,0.02714
5929.09,0.03052
5923.31,0.02809
5917.52,0.02913
5911.74,0.03309
5905.95,0.03130
5900.16,0.02860
5894.38,0.02905
5888.59,0.03160
5882.8,0.03037
5877.02,0.03144
5871.23,0.02941
5865.44,0.03170
5859.66,0.02948
5853.87,0.03003
5848.09,0.03126
5842.3,0.03357
5836.51,0.03055
5830.73,0.02893
5824.94,0.03124
5819.15,0.02969
5813.37,0.03110
5807.58,0.02986
5801.79,0.02930
5796.01,0.03090
5790.22,0.02986
5784.44,0.03010
5778.65,0.02964
5772.86,0.02956
5767.08,0.02937
5761.29,0.03061
5755.5,0.02939
5749.72,0.03067
5743.93,0.03281
5738.14,0.03310
5732.36,0.02895
5726.57,0.02944
5720.79,0.02850
5715,0.03100
5709.21,0.02941
5703.43,0.03089
5697.64,0.02795
5691.85,0.03069
5686.07,0.03217
5680.28,0.03141
5674.49,0.02985
5668.71,0.02905
5662.92,0.03168
5657.14,0.02974
5651.35,0.03193
5645.56,0.02922
5639.78,0.03063
5633.99,0.03170
5628.2,0.02915
5622.42,0.03072
5616.63,0.02795
5610.84,0.02908
5605.06,0.03076
5599.27,0.03121
5593.49,0.02828
5587.7,0.03069
5581.91,0.03096
5576.13,0.03035
5570.34,0.03154
5564.55,0.03230
5558.77,0.03021
5552.98,0.03002
5547.19,0.03198
5541.41,0.02991
5535.62,0.02831
5529.84,0.03062
5524.05,0.02989
5518.26,0.03234
5512.48,0.03148
5506.69,0.03134
5500.9,0.02865
5495.12,0.03038
5489.33,0.03151
5483.54,0.03240
5477.76,0.03298
5471.97,0.03165
5466.19,0.03295
5460.4,0.03201
5454.61,0.03105
5448.83,0.03230
5443.04,0.03132
5437.25,0.03028
5431.47,0.02931
5425.68,0.02919
5419.89,0.02971
5414.11,0.03111
5408.32,0.03091
5402.54,0.02851
5396.75,0.02979
5390.96,0.03168
5385.18,0.02974
5379.39,0.03151
5373.6,0.03031
5367.82,0.03317
5362.03,0.03168
5356.24,0.02933
5350.46,0.03153
5344.67,0.03188
5338.89,0.03156
5333.1,0.03249
5327.31,0.03181
5321.53,0.03116
5315.74,0.03016
5309.95,0.03087
5304.17,0.02930
5298.38,0.03037
5292.59,0.03063
5286.81,0.03150
5281.02,0.03248
5275.24,0.03000
5269.45,0.03135
5263.66,0.03330
5257.88,0.03114
5252.09,0.03065
5246.3,0.03185
5240.52,0.03179
5234.73,0.02964
5228.94,0.03123
5223.16,0.02993
5217.37,0.03031
5211.59,0.02866
5205.8,0.03011
5200.01,0.03300
5194.23,0.03093
5188.44,0.03214
5182.65,0.03149
5176.87,0.03073
5171.08,0.03145
5165.29,0.03055
5159.51,0.03062
5153.72,0.02993
5147.94,0.03257
5142.15,0.03284
5136.36,0.03190
5130.58,0.03077
5124.79,0.03123
5119,0.03127
5113.22,0.03058
5107.43,0.03038
5101.64,0.03104
5095.86,0.03103
5090.07,0.03080
5084.29,0.03070
5078.5,0.02964
5072.71,0.03054
5066.93,0.03025
5061.14,0.03033
5055.35,0.03086
5049.57,0.03242
5043.78,0.03158
5037.99,0.03063
5032.21,0.02976
5026.42,0.03179
5020.64,0.03122
5014.85,0.03051
5009.06,0.02939
5003.28,0.03080
4997.49,0.03005
4991.7,0.03004
4985.92,0.02882
4980.13,0.03102
4974.34,0.03046
4968.56,0.03087
4962.77,0.02952
4956.99,0.03064
4951.2,0.02965
4945.41,0.03177
4939.63,0.03054
4933.84,0.02986
4928.05,0.03115
4922.27,0.03068
4916.48,0.03289
4910.69,0.03028
4904.91,0.03010
4899.12,0.03078
4893.34,0.03069
4887.55,0.03019
4881.76,0.03114
4875.98,0.03095
4870.19,0.03120
4864.4,0.03088
4858.62,0.03070
4852.83,0.03202
4847.04,0.03116
4841.26,0.02960
4835.47,0.03022
4829.69,0.03095
4823.9,0.03119
4818.11,0.03032
4812.33,0.03051
4806.54,0.03017
4800.75,0.03032
4794.97,0.03185
4789.18,0.03052
4783.39,0.03117
4777.61,0.03073
4771.82,0.03015
4766.04,0.02970
4760.25,0.02942
4754.46,0.03099
4748.68,0.03095
4742.89,0.03148
4737.1,0.03203
4731.32,0.03111
4725.53,0.02981
4719.74,0.03072
4713.96,0.03058
4708.17,0.03037
4702.39,0.03061
4696.6,0.03138
4690.81,0.03112
4685.03,0.02999
4679.24,0.03039
4673.45,0.03096
4667.67,0.03018
4661.88,0.03116
4656.09,0.03015
4650.31,0.03024
4644.52,0.03115
4638.74,0.03106
4632.95,0.03064
4627.16,0.03125
4621.38,0.03030
4615.59,0.02959
4609.8,0.03009
4604.02,0.03053
4598.23,0.03136
4592.44,0.03066
4586.66,0.02986
4580.87,0.03056
4575.09,0.02980
4569.3,0.02998
4563.51,0.03004
4557.73,0.03065
4551.94,0.03093
4546.15,0.03031
4540.37,0.03113
4534.58,0.03161
4528.79,0.03026
4523.01,0.03020
4517.22,0.03089
4511.44,0.03088
4505.65,0.02978
4499.86,0.03066
4494.08,0.03129
4488.29,0.03068
4482.5,0.03003
4476.72,0.03052
4470.93,0.03130
4465.14,0.03105
4459.36,0.03018
4453.57,0.02922
4447.79,0.02931
4442,0.03008
4436.21,0.03041
4430.43,0.03051
4424.64,0.02989
4418.85,0.02952
4413.07,0.03091
4407.28,0.03037
4401.49,0.03027
4395.71,0.03089
4389.92,0.03094
4384.14,0.03074
4378.35,0.02965
4372.56,0.02946
4366.78,0.03011
4360.99,0.03078
4355.2,0.03100
4349.42,0.03026
4343.63,0.03032
4337.84,0.03070
4332.06,0.02998
4326.27,0.03058
4320.49,0.03090
4314.7,0.03029
4308.91,0.03059
4303.13,0.03109
4297.34,0.03108
4291.55,0.03110
4285.77,0.03080
4279.98,0.03034
4274.19,0.03068
4268.41,0.03068
4262.62,0.03078
4256.84,0.03035
4251.05,0.03033
4245.26,0.03060
4239.48,0.03019
4233.69,0.03038
4227.9,0.03104
4222.12,0.03036
4216.33,0.03126
4210.54,0.03029
4204.76,0.03109
4198.97,0.03020
4193.19,0.03041
4187.4,0.03107
4181.61,0.03084
4175.83,0.03031
4170.04,0.03036
4164.25,0.03025
4158.47,0.03087
4152.68,0.02973
4146.89,0.03032
4141.11,0.02956
4135.32,0.03070
4129.54,0.03080
4123.75,0.03106
4117.96,0.02997
4112.18,0.02963
4106.39,0.03004
4100.6,0.03060
4094.82,0.03065
4089.03,0.02970
4083.24,0.03011
4077.46,0.03040
4071.67,0.03049
4065.89,0.03026
4060.1,0.03023
4054.31,0.02979
4048.53,0.03036
4042.74,0.03056
4036.95,0.03025
4031.17,0.03033
4025.38,0.03063
4019.59,0.03032
4013.81,0.03032
4008.02,0.03072
4002.24,0.03093
3996.45,0.03079
3990.66,0.02953
3984.88,0.03017
3979.09,0.03097
3973.3,0.03058
3967.52,0.03018
3961.73,0.03055
3955.94,0.03056
3950.16,0.03083
3944.37,0.02999
3938.59,0.03104
3932.8,0.03028
3927.01,0.03004
3921.23,0.03064
3915.44,0.03006
3909.65,0.02981
3903.87,0.03087
3898.08,0.03025
3892.29,0.03083
3886.51,0.03055
3880.72,0.02945
3874.94,0.03118
3869.15,0.03074
3863.36,0.03015
3857.58,0.03073
3851.79,0.03019
3846,0.03039
3840.22,0.03005
3834.43,0.03037
3828.64,0.02980
3822.86,0.03050
3817.07,0.03024
3811.29,0.03074
3805.5,0.02975
3799.71,0.02972
3793.93,0.03024
3788.14,0.03027
3782.35,0.03005
3776.57,0.02985
3770.78,0.03084
3764.99,0.03050
3759.21,0.03095
3753.42,0.03178
3747.64,0.03099
3741.85,0.02993
3736.06,0.03057
3730.28,0.03026
3724.49,0.02976
3718.7,0.03041
3712.92,0.03005
3707.13,0.02978
3701.34,0.02906
3695.56,0.02956
3689.77,0.03001
3683.99,0.02905
3678.2,0.02948
3672.41,0.02978
3666.63,0.02929
3660.84,0.02840
3655.05,0.02919
3649.27,0.02974
3643.48,0.02866
3637.69,0.02902
3631.91,0.03006
3626.12,0.02910
3620.34,0.02922
3614.55,0.02854
3608.76,0.02844
3602.98,0.02828
3597.19,0.02830
3591.4,0.02873
3585.62,0.02844
3579.83,0.02776
3574.04,0.02789
3568.26,0.02784
3562.47,0.02753
3556.69,0.02726
3550.9,0.02799
3545.11,0.02724
3539.33,0.02674
3533.54,0.02681
3527.75,0.02743
3521.97,0.02699
3516.18,0.02615
3510.39,0.02663
3504.61,0.02713
3498.82,0.02701
3493.04,0.02749
3487.25,0.02717
3481.46,0.02727
3475.68,0.02683
3469.89,0.02718
3464.1,0.02672
3458.32,0.02733
3452.53,0.02647
3446.74,0.02642
3440.96,0.02627
3435.17,0.02654
3429.39,0.02637
3423.6,0.02659
3417.81,0.02708
3412.03,0.02681
3406.24,0.02657
3400.45,0.02673
3394.67,0.02635
3388.88,0.02689
3383.09,0.02639
3377.31,0.02722
3371.52,0.02642
3365.74,0.02673
3359.95,0.02652
3354.16,0.02661
3348.38,0.02645
3342.59,0.02631
3336.8,0.02634
3331.02,0.02629
3325.23,0.02622
3319.44,0.02647
3313.66,0.02669
3307.87,0.02619
3302.09,0.02706
3296.3,0.02712
3290.51,0.02650
3284.73,0.02615
3278.94,0.02639
3273.15,0.02629
3267.37,0.02677
3261.58,0.02645
3255.79,0.02672
3250.01,0.02718
3244.22,0.02703
3238.44,0.02749
3232.65,0.02644
3226.86,0.02696
3221.08,0.02699
3215.29,0.02716
3209.5,0.02606
3203.72,0.02798
3197.93,0.02704
3192.14,0.02787
3186.36,0.02661
3180.57,0.02714
3174.79,0.02706
3169,0.02739
3163.21,0.02774
3157.43,0.02779
3151.64,0.02674
3145.85,0.02704
3140.07,0.02696
3134.28,0.02717
3128.49,0.02718
3122.71,0.02733
3116.92,0.02673
3111.14,0.02700
3105.35,0.02713
3099.56,0.02656
3093.78,0.02667
3087.99,0.02749
3082.2,0.02690
3076.42,0.02714
3070.63,0.02678
3064.84,0.02719
3059.06,0.02725
3053.27,0.02718
3047.49,0.02709
3041.7,0.02631
3035.91,0.02660
3030.13,0.02755
3024.34,0.02699
3018.55,0.02701
3012.77,0.02616
3006.98,0.02704
3001.19,0.02691
2995.41,0.02726
2989.62,0.02696
2983.84,0.02631
2978.05,0.02591
2972.26,0.02576
2966.48,0.02577
2960.69,0.02616
2954.9,0.02621
2949.12,0.02605
2943.33,0.02628
2937.54,0.02588
2931.76,0.02565
2925.97,0.02614
2920.19,0.02691
2914.4,0.02696
2908.61,0.02664
2902.83,0.02665
2897.04,0.02626
2891.25,0.02642
2885.47,0.02632
2879.68,0.02679
2873.89,0.02655
2868.11,0.02661
2862.32,0.02681
2856.54,0.02737
2850.75,0.02739
2844.96,0.02718
2839.18,0.02722
2833.39,0.02711
2827.6,0.02770
2821.82,0.02784
2816.03,0.02752
2810.24,0.02695
2804.46,0.02760
2798.67,0.02782
2792.89,0.02754
2787.1,0.02774
2781.31,0.02789
2775.53,0.02765
2769.74,0.02715
2763.95,0.02749
2758.17,0.02757
2752.38,0.02748
2746.59,0.02737
2740.81,0.02722
2735.02,0.02746
2729.24,0.02744
2723.45,0.02733
2717.66,0.02749
2711.88,0.02758
2706.09,0.02730
2700.3,0.02771
2694.52,0.02755
2688.73,0.02733
2682.94,0.02728
2677.16,0.02698
2671.37,0.02734
2665.59,0.02716
2659.8,0.02741
2654.01,0.02719
2648.23,0.02745
2642.44,0.02733
2636.65,0.02717
2630.87,0.02752
2625.08,0.02715
2619.29,0.02752
2613.51,0.02741
2607.72,0.02780
2601.94,0.02748
2596.15,0.02684
2590.36,0.02731
2584.58,0.02741
2578.79,0.02772
2573,0.02721
2567.22,0.02731
2561.43,0.02748
2555.64,0.02727
2549.86,0.02764
2544.07,0.02695
2538.29,0.02735
2532.5,0.02761
2526.71,0.02705
2520.93,0.02674
2515.14,0.02744
2509.35,0.02712
2503.57,0.02744
2497.78,0.02728
2491.99,0.02714
2486.21,0.02689
2480.42,0.02722
2474.64,0.02694
2468.85,0.02734
2463.06,0.02725
2457.28,0.02706
2451.49,0.02722
2445.7,0.02727
2439.92,0.02740
2434.13,0.02731
2428.34,0.02695
2422.56,0.02728
2416.77,0.02738
2410.99,0.02760
2405.2,0.02739
2399.41,0.02693
2393.63,0.02697
2387.84,0.02689
2382.05,0.02683
2376.27,0.02759
2370.48,0.02756
2364.69,0.02755
2358.91,0.02803
2353.12,0.02747
2347.34,0.02733
2341.55,0.02719
2335.76,0.02727
2329.98,0.02667
2324.19,0.02661
2318.4,0.02689
2312.62,0.02639
2306.83,0.02673
2301.04,0.02707
2295.26,0.02697
2289.47,0.02665
2283.69,0.02672
2277.9,0.02673
2272.11,0.02690
2266.33,0.02692
2260.54,0.02663
2254.75,0.02683
2248.97,0.02655
2243.18,0.02672
2237.39,0.02676
2231.61,0.02639
2225.82,0.02644
2220.04,0.02672
2214.25,0.02663
2208.46,0.02652
2202.68,0.02654
2196.89,0.02632
2191.1,0.02683
2185.32,0.02636
2179.53,0.02639
2173.74,0.02655
2167.96,0.02646
2162.17,0.02642
2156.39,0.02628
2150.6,0.02638
2144.81,0.02652
2139.03,0.02652
2133.24,0.02628
2127.45,0.02635
2121.67,0.02604
2115.88,0.02585
2110.09,0.02582
2104.31,0.02594
2098.52,0.02644
2092.74,0.02647
2086.95,0.02601
2081.16,0.02583
2075.38,0.02596
2069.59,0.02605
2063.8,0.02565
2058.02,0.02617
2052.23,0.02619
2046.44,0.02633
2040.66,0.02597
2034.87,0.02609
2029.09,0.02586
2023.3,0.02600
2017.51,0.02590
2011.73,0.02600
2005.94,0.02632
2000.15,0.02601
1994.37,0.02593
1988.58,0.02574
1982.79,0.02575
1977.01,0.02579
1971.22,0.02574
1965.44,0.02553
1959.65,0.02572
1953.86,0.02602
1948.08,0.02596
1942.29,0.02596
1936.5,0.02601
1930.72,0.02569
1924.93,0.02548
1919.14,0.02559
1913.36,0.02537
1907.57,0.02548
1901.79,0.02521
1896,0.02518
1890.21,0.02494
1884.43,0.02533
1878.64,0.02529
1872.85,0.02523
1867.07,0.02504
1861.28,0.02535
1855.49,0.02455
1849.71,0.02521
1843.92,0.02502
1838.14,0.02480
1832.35,0.02485
1826.56,0.02509
1820.78,0.02470
1814.99,0.02439
1809.2,0.02419
1803.42,0.02458
1797.63,0.02435
1791.84,0.02420
1786.06,0.02349
1780.27,0.02334
1774.49,0.02377
1768.7,0.02299
1762.91,0.02252
1757.13,0.02175
1751.34,0.02169
1745.55,0.02202
1739.77,0.02296
1733.98,0.02436
1728.19,0.02463
1722.41,0.02480
1716.62,0.02410
1710.84,0.02403
1705.05,0.02438
1699.26,0.02462
1693.48,0.02290
1687.69,0.02315
1681.9,0.02302
1676.12,0.02247
1670.33,0.02200
1664.54,0.02214
1658.76,0.02219
1652.97,0.02226
1647.19,0.02264
1641.4,0.02192
1635.61,0.02242
1629.83,0.02224
1624.04,0.02196
1618.25,0.02302
1612.47,0.02277
1606.68,0.02274
1600.89,0.02288
1595.11,0.02240
1589.32,0.02241
1583.54,0.02174
1577.75,0.02204
1571.96,0.02184
1566.18,0.02175
1560.39,0.02248
1554.6,0.02211
1548.82,0.02243
1543.03,0.02226
1537.24,0.02201
1531.46,0.02252
1525.67,0.02311
1519.89,0.02172
1514.1,0.02219
1508.31,0.02286
1502.53,0.02222
1496.74,0.02260
1490.95,0.02278
1485.17,0.02191
1479.38,0.02197
1473.59,0.02192
1467.81,0.02174
1462.02,0.02192
1456.24,0.02199
1450.45,0.02177
1444.66,0.02208
1438.88,0.02203
1433.09,0.02135
1427.3,0.02202
1421.52,0.02162
1415.73,0.02122
1409.94,0.02117
1404.16,0.02121
1398.37,0.02113
1392.59,0.02121
1386.8,0.02111
1381.01,0.02106
1375.23,0.02135
1369.44,0.02133
1363.65,0.02090
1357.87,0.02098
1352.08,0.02074
1346.29,0.02085
1340.51,0.02104
1334.72,0.02027
1328.94,0.02012
1323.15,0.01975
1317.36,0.02012
1311.58,0.01990
1305.79,0.02022
1300,0.01996
1294.22,0.02064
1288.43,0.02124
1282.64,0.02137
1276.86,0.02151
1271.07,0.02209
1265.29,0.02231
1259.5,0.02248
1253.71,0.02253
1247.93,0.02270
1242.14,0.02273
1236.35,0.02280
1230.57,0.02253
1224.78,0.02238
1218.99,0.02177
1213.21,0.02141
1207.42,0.02166
1201.64,0.02135
1195.85,0.02116
1190.06,0.02129
1184.28,0.02068
1178.49,0.02113
1172.7,0.02062
1166.92,0.02041
1161.13,0.02051
1155.34,0.02048
1149.56,0.02015
1143.77,0.02064
1137.99,0.02042
1132.2,0.02066
1126.41,0.02143
1120.63,0.02308
1114.84,0.02257
1109.05,0.02286
1103.27,0.02180
1097.48,0.02172
1091.69,0.02116
1085.91,0.02216
1080.12,0.02246
1074.34,0.02384
1068.55,0.02398
1062.76,0.02435
1056.98,0.02424
1051.19,0.02348
1045.4,0.02341
1039.62,0.02373
1033.83,0.02366
1028.04,0.02311
1022.26,0.02367
1016.47,0.02319
1010.69,0.02342
1004.9,0.02475
999.112,0.02478
993.326,0.02443
987.54,0.02502
981.753,0.02487
975.967,0.02428
970.18,0.02436
964.394,0.02386
958.608,0.02392
952.821,0.02365
947.035,0.02388
941.249,0.02303
935.462,0.02264
929.676,0.02264
923.89,0.02168
918.103,0.02255
912.317,0.02263
906.53,0.02224
900.744,0.02207
894.958,0.02254
889.171,0.02247
883.385,0.02290
877.599,0.02271
871.812,0.02263
866.026,0.02200
860.24,0.02211
854.453,0.02244
848.667,0.02231
842.88,0.02164
837.094,0.02244
831.308,0.02209
825.521,0.02174
819.735,0.02125
813.949,0.02126
808.162,0.02149
802.376,0.02223
796.59,0.02198
790.803,0.02151
785.017,0.02208
779.23,0.02201
773.444,0.02085
767.658,0.02080
761.871,0.02121
756.085,0.02066
750.299,0.02060
744.512,0.02159
738.726,0.02107
732.94,0.02094
727.153,0.02019
721.367,0.02045
715.58,0.02004
709.794,0.01861
704.008,0.01913
698.221,0.01878
692.435,0.01868
686.649,0.01897
680.862,0.01951
675.076,0.01939
669.29,0.01769
663.503,0.01899
657.717,0.01874
651.93,0.01920
646.144,0.01956
640.358,0.01822
634.571,0.01804
628.785,0.01830
622.999,0.01815
617.212,0.01878
611.426,0.01847
605.639,0.02029
599.853,0.01985