File: 01_Data/PEVA/FTIR/IS/PEVA_0.18_IS_T_240809_R8.dpt
7497.33,0.03710
7491.55,0.03730
7485.76,0.02527
7479.97,0.02521
7474.19,0.03626
7468.4,0.02874
7462.61,0.04901
7456.83,0.04687
7451.04,0.03656
7445.26,0.03668
7439.47,0.02055
7433.68,0.02698
7427.9,0.04676
7422.11,0.02915
7416.32,0.02530
7410.54,0.04370
7404.75,0.03847
7398.96,0.02484
7393.18,0.03319
7387.39,0.03901
7381.6,0.02085
7375.82,0.02871
7370.03,0.02923
7364.24,0.02695
7358.46,0.03348
7352.67,0.04843
7346.89,0.04618
7341.1,0.03520
7335.31,0.03397
7329.53,0.03400
7323.74,0.03428
7317.95,0.02311
7312.17,0.04188
7306.38,0.03285
7300.59,0.03105
7294.81,0.02279
7289.02,0.04118
7283.23,0.04299
7277.45,0.03177
7271.66,0.03123
7265.87,0.03261
7260.09,0.02367
7254.3,0.03573
7248.52,0.03237
7242.73,0.03702
7236.94,0.03048
7231.16,0.02980
7225.37,0.02977
7219.58,0.04237
7213.8,0.03665
7208.01,0.04119
7202.22,0.03248
7196.44,0.04272
7190.65,0.03137
7184.86,0.03808
7179.08,0.03280
7173.29,0.02892
7167.5,0.03706
7161.72,0.02811
7155.93,0.02997
7150.15,0.03541
7144.36,0.02650
7138.57,0.03150
7132.79,0.03324
7127,0.02463
7121.21,0.03061
7115.43,0.03344
7109.64,0.02942
7103.85,0.03286
7098.07,0.03659
7092.28,0.04064
7086.49,0.03587
7080.71,0.03119
7074.92,0.03473
7069.13,0.04038
7063.35,0.04069
7057.56,0.03046
7051.78,0.03303
7045.99,0.03343
7040.2,0.03659
7034.42,0.03772
7028.63,0.03641
7022.84,0.02832
7017.06,0.03358
7011.27,0.03606
7005.48,0.02754
6999.7,0.02391
6993.91,0.03515
6988.12,0.03195
6982.34,0.03121
6976.55,0.03206
6970.76,0.03449
6964.98,0.03319
6959.19,0.03961
6953.41,0.03257
6947.62,0.03515
6941.83,0.03537
6936.05,0.03946
6930.26,0.03173
6924.47,0.02634
6918.69,0.04181
6912.9,0.03045
6907.11,0.03164
6901.33,0.03322
6895.54,0.03524
6889.75,0.03931
6883.97,0.03652
6878.18,0.03345
6872.39,0.03558
6866.61,0.03046
6860.82,0.03766
6855.04,0.03276
6849.25,0.03230
6843.46,0.02642
6837.68,0.02670
6831.89,0.03225
6826.1,0.03407
6820.32,0.03776
6814.53,0.04167
6808.74,0.03885
6802.96,0.03791
6797.17,0.03448
6791.38,0.02812
6785.6,0.02811
6779.81,0.03356
6774.03,0.02454
6768.24,0.03545
6762.45,0.03946
6756.67,0.03228
6750.88,0.03566
6745.09,0.03290
6739.31,0.03493
6733.52,0.03289
6727.73,0.02898
6721.95,0.03555
6716.16,0.03171
6710.37,0.03026
6704.59,0.03111
6698.8,0.03637
6693.01,0.03256
6687.23,0.02584
6681.44,0.03166
6675.66,0.03558
6669.87,0.03384
6664.08,0.03258
6658.3,0.03511
6652.51,0.03509
6646.72,0.02534
6640.94,0.02508
6635.15,0.02981
6629.36,0.03955
6623.58,0.03193
6617.79,0.03299
6612,0.03497
6606.22,0.02915
6600.43,0.03196
6594.64,0.02861
6588.86,0.03320
6583.07,0.02915
6577.29,0.03314
6571.5,0.03061
6565.71,0.03158
6559.93,0.03328
6554.14,0.03521
6548.35,0.02883
6542.57,0.03145
6536.78,0.02967
6530.99,0.02966
6525.21,0.03061
6519.42,0.03325
6513.63,0.03295
6507.85,0.03251
6502.06,0.02930
6496.27,0.02950
6490.49,0.03339
6484.7,0.03255
6478.92,0.03318
6473.13,0.03203
6467.34,0.03062
6461.56,0.03489
6455.77,0.03743
6449.98,0.03511
6444.2,0.03061
6438.41,0.03024
6432.62,0.02675
6426.84,0.02659
6421.05,0.03553
6415.26,0.03590
6409.48,0.03656
6403.69,0.02900
6397.9,0.03340
6392.12,0.02897
6386.33,0.03350
6380.55,0.02871
6374.76,0.03000
6368.97,0.03194
6363.19,0.03231
6357.4,0.03039
6351.61,0.02898
6345.83,0.02935
6340.04,0.03272
6334.25,0.03054
6328.47,0.02651
6322.68,0.03142
6316.89,0.03069
6311.11,0.02932
6305.32,0.02929
6299.53,0.03544
6293.75,0.03482
6287.96,0.03030
6282.18,0.02934
6276.39,0.02975
6270.6,0.02838
6264.82,0.03233
6259.03,0.02948
6253.24,0.02829
6247.46,0.03072
6241.67,0.03016
6235.88,0.02799
6230.1,0.03523
6224.31,0.03142
6218.52,0.03065
6212.74,0.03248
6206.95,0.03417
6201.16,0.03213
6195.38,0.03203
6189.59,0.02874
6183.81,0.03109
6178.02,0.03309
6172.23,0.02966
6166.45,0.03423
6160.66,0.02844
6154.87,0.03066
6149.09,0.03176
6143.3,0.03131
6137.51,0.03391
6131.73,0.03117
6125.94,0.03362
6120.15,0.03087
6114.37,0.02605
6108.58,0.02878
6102.79,0.03109
6097.01,0.02911
6091.22,0.03201
6085.44,0.03008
6079.65,0.03274
6073.86,0.03041
6068.08,0.03117
6062.29,0.03084
6056.5,0.02766
6050.72,0.03250
6044.93,0.03209
6039.14,0.03096
6033.36,0.02847
6027.57,0.03062
6021.78,0.02916
6016,0.02795
6010.21,0.03288
6004.42,0.03289
5998.64,0.03078
5992.85,0.03361
5987.07,0.03070
5981.28,0.03159
5975.49,0.02730
5969.71,0.02794
5963.92,0.02917
5958.13,0.02693
5952.35,0.03261
5946.56,0.03090
5940.77,0.03073
5934.99,0.03231
5929.2,0.03109
5923.41,0.02952
5917.63,0.03078
5911.84,0.02803
5906.05,0.03235
5900.27,0.03035
5894.48,0.03294
5888.7,0.02763
5882.91,0.03001
5877.12,0.02778
5871.34,0.03264
5865.55,0.03079
5859.76,0.03098
5853.98,0.03357
5848.19,0.03343
5842.4,0.03146
5836.62,0.03243
5830.83,0.02776
5825.04,0.03207
5819.26,0.02832
5813.47,0.03056
5807.68,0.03006
5801.9,0.02907
5796.11,0.03244
5790.33,0.03164
5784.54,0.03429
5778.75,0.02980
5772.97,0.02800
5767.18,0.02890
5761.39,0.02973
5755.61,0.03195
5749.82,0.02843
5744.03,0.02884
5738.25,0.02962
5732.46,0.03020
5726.67,0.02939
5720.89,0.02903
5715.1,0.03023
5709.31,0.03074
5703.53,0.03065
5697.74,0.02902
5691.96,0.02895
5686.17,0.02756
5680.38,0.03030
5674.6,0.03160
5668.81,0.03083
5663.02,0.03136
5657.24,0.02976
5651.45,0.02712
5645.66,0.03175
5639.88,0.02897
5634.09,0.03104
5628.3,0.03153
5622.52,0.03009
5616.73,0.02814
5610.94,0.03074
5605.16,0.03011
5599.37,0.02985
5593.59,0.02969
5587.8,0.02977
5582.01,0.03017
5576.23,0.03119
5570.44,0.03075
5564.65,0.03056
5558.87,0.02830
5553.08,0.03073
5547.29,0.03102
5541.51,0.03130
5535.72,0.02948
5529.93,0.03099
5524.15,0.03093
5518.36,0.02909
5512.58,0.03043
5506.79,0.02838
5501,0.02938
5495.22,0.03138
5489.43,0.02951
5483.64,0.02961
5477.86,0.02848
5472.07,0.02997
5466.28,0.02880
5460.5,0.03225
5454.71,0.03025
5448.92,0.02948
5443.14,0.03011
5437.35,0.02774
5431.56,0.03004
5425.78,0.02992
5419.99,0.03007
5414.21,0.03033
5408.42,0.03025
5402.63,0.03118
5396.85,0.02942
5391.06,0.02914
5385.27,0.02904
5379.49,0.03082
5373.7,0.03096
5367.91,0.03315
5362.13,0.03042
5356.34,0.02979
5350.55,0.02947
5344.77,0.03094
5338.98,0.03174
5333.19,0.03075
5327.41,0.03182
5321.62,0.02971
5315.84,0.03013
5310.05,0.03024
5304.26,0.03125
5298.48,0.03124
5292.69,0.03213
5286.9,0.02984
5281.12,0.03126
5275.33,0.03031
5269.54,0.03037
5263.76,0.02914
5257.97,0.03141
5252.18,0.03048
5246.4,0.02871
5240.61,0.02853
5234.82,0.03038
5229.04,0.02910
5223.25,0.03018
5217.47,0.02910
5211.68,0.02745
5205.89,0.02980
5200.11,0.03085
5194.32,0.02947
5188.53,0.03113
5182.75,0.02915
5176.96,0.03083
5171.17,0.03211
5165.39,0.03087
5159.6,0.02975
5153.81,0.03032
5148.03,0.03053
5142.24,0.02956
5136.45,0.03091
5130.67,0.03062
5124.88,0.02968
5119.1,0.03097
5113.31,0.03024
5107.52,0.03146
5101.74,0.03043
5095.95,0.03104
5090.16,0.03086
5084.38,0.03072
5078.59,0.02919
5072.8,0.03098
5067.02,0.02969
5061.23,0.03043
5055.44,0.02891
5049.66,0.03101
5043.87,0.03067
5038.08,0.02982
5032.3,0.02937
5026.51,0.02991
5020.73,0.03194
5014.94,0.02932
5009.15,0.03103
5003.37,0.03054
4997.58,0.03043
4991.79,0.02957
4986.01,0.02937
4980.22,0.03011
4974.43,0.03007
4968.65,0.02938
4962.86,0.03087
4957.07,0.02973
4951.29,0.03100
4945.5,0.03070
4939.71,0.02953
4933.93,0.03051
4928.14,0.03040
4922.36,0.03044
4916.57,0.02923
4910.78,0.03042
4905,0.02879
4899.21,0.02923
4893.42,0.02825
4887.64,0.03033
4881.85,0.03034
4876.06,0.02999
4870.28,0.03056
4864.49,0.02955
4858.7,0.03096
4852.92,0.02970
4847.13,0.02868
4841.34,0.02975
4835.56,0.03104
4829.77,0.02992
4823.99,0.03023
4818.2,0.03065
4812.41,0.03128
4806.63,0.03125
4800.84,0.02875
4795.05,0.02991
4789.27,0.03079
4783.48,0.02968
4777.69,0.03028
4771.91,0.02956
4766.12,0.03018
4760.33,0.03053
4754.55,0.03018
4748.76,0.02994
4742.97,0.03037
4737.19,0.03087
4731.4,0.03114
4725.62,0.03038
4719.83,0.02832
4714.04,0.03139
4708.26,0.03029
4702.47,0.03020
4696.68,0.02960
4690.9,0.03073
4685.11,0.02938
4679.32,0.03006
4673.54,0.02982
4667.75,0.03101
4661.96,0.03098
4656.18,0.03030
4650.39,0.03045
4644.6,0.03042
4638.82,0.03008
4633.03,0.03023
4627.25,0.02999
4621.46,0.03025
4615.67,0.02965
4609.89,0.03011
4604.1,0.03002
4598.31,0.02991
4592.53,0.03019
4586.74,0.02996
4580.95,0.03055
4575.17,0.03029
4569.38,0.02950
4563.59,0.03036
4557.81,0.03006
4552.02,0.03103
4546.23,0.03100
4540.45,0.02879
4534.66,0.02976
4528.88,0.02976
4523.09,0.02962
4517.3,0.02984
4511.52,0.03080
4505.73,0.02895
4499.94,0.03038
4494.16,0.02932
4488.37,0.02944
4482.58,0.03073
4476.8,0.02955
4471.01,0.03052
4465.22,0.02959
4459.44,0.02990
4453.65,0.03032
4447.86,0.03079
4442.08,0.03064
4436.29,0.03089
4430.51,0.03016
4424.72,0.03022
4418.93,0.03040
4413.15,0.02983
4407.36,0.02984
4401.57,0.02951
4395.79,0.03041
4390,0.02987
4384.21,0.02996
4378.43,0.03041
4372.64,0.03002
4366.85,0.02978
4361.07,0.02986
4355.28,0.02893
4349.49,0.02891
4343.71,0.02959
4337.92,0.02962
4332.14,0.02998
4326.35,0.02964
4320.56,0.02865
4314.78,0.03067
4308.99,0.02920
4303.2,0.03009
4297.42,0.02979
4291.63,0.02951
4285.84,0.02957
4280.06,0.02933
4274.27,0.02915
4268.48,0.02975
4262.7,0.02996
4256.91,0.02943
4251.13,0.02985
4245.34,0.03019
4239.55,0.02929
4233.77,0.02922
4227.98,0.03048
4222.19,0.02986
4216.41,0.02975
4210.62,0.02987
4204.83,0.03028
4199.05,0.02934
4193.26,0.03016
4187.47,0.02977
4181.69,0.02924
4175.9,0.02990
4170.11,0.03008
4164.33,0.02998
4158.54,0.02992
4152.76,0.02984
4146.97,0.03006
4141.18,0.02967
4135.4,0.02987
4129.61,0.02976
4123.82,0.03014
4118.04,0.02976
4112.25,0.02960
4106.46,0.02978
4100.68,0.02968
4094.89,0.02985
4089.1,0.03027
4083.32,0.02977
4077.53,0.02940
4071.74,0.02966
4065.96,0.02999
4060.17,0.02969
4054.39,0.03009
4048.6,0.03048
4042.81,0.03050
4037.03,0.03049
4031.24,0.02984
4025.45,0.03021
4019.67,0.03015
4013.88,0.02912
4008.09,0.02933
4002.31,0.02867
3996.52,0.02912
3990.73,0.02933
3984.95,0.02945
3979.16,0.02956
3973.37,0.02972
3967.59,0.02963
3961.8,0.02975
3956.02,0.02953
3950.23,0.02968
3944.44,0.02946
3938.66,0.03049
3932.87,0.03059
3927.08,0.03031
3921.3,0.02881
3915.51,0.02997
3909.72,0.02981
3903.94,0.03043
3898.15,0.03031
3892.36,0.03029
3886.58,0.03052
3880.79,0.02889
3875,0.03037
3869.22,0.03016
3863.43,0.02943
3857.65,0.03005
3851.86,0.03104
3846.07,0.02953
3840.29,0.03016
3834.5,0.03039
3828.71,0.03045
3822.93,0.03056
3817.14,0.02988
3811.35,0.02974
3805.57,0.02962
3799.78,0.02980
3793.99,0.02945
3788.21,0.03001
3782.42,0.02941
3776.63,0.02953
3770.85,0.03025
3765.06,0.02976
3759.28,0.02960
3753.49,0.03031
3747.7,0.03132
3741.92,0.02854
3736.13,0.02891
3730.34,0.02889
3724.56,0.02871
3718.77,0.02966
3712.98,0.02927
3707.2,0.02880
3701.41,0.02893
3695.62,0.02950
3689.84,0.02842
3684.05,0.02934
3678.26,0.03025
3672.48,0.03029
3666.69,0.02902
3660.91,0.02865
3655.12,0.02826
3649.33,0.02826
3643.55,0.02781
3637.76,0.02842
3631.97,0.02700
3626.19,0.02711
3620.4,0.02815
3614.61,0.02660
3608.83,0.02752
3603.04,0.02811
3597.25,0.02824
3591.47,0.02867
3585.68,0.02730
3579.89,0.02732
3574.11,0.02750
3568.32,0.02768
3562.54,0.02727
3556.75,0.02755
3550.96,0.02672
3545.18,0.02745
3539.39,0.02708
3533.6,0.02758
3527.82,0.02689
3522.03,0.02711
3516.24,0.02659
3510.46,0.02632
3504.67,0.02656
3498.88,0.02633
3493.1,0.02672
3487.31,0.02661
3481.52,0.02701
3475.74,0.02648
3469.95,0.02561
3464.17,0.02587
3458.38,0.02603
3452.59,0.02567
3446.81,0.02570
3441.02,0.02538
3435.23,0.02593
3429.45,0.02548
3423.66,0.02553
3417.87,0.02562
3412.09,0.02525
3406.3,0.02538
3400.51,0.02581
3394.73,0.02617
3388.94,0.02651
3383.15,0.02552
3377.37,0.02591
3371.58,0.02610
3365.8,0.02605
3360.01,0.02601
3354.22,0.02566
3348.44,0.02499
3342.65,0.02645
3336.86,0.02617
3331.08,0.02559
3325.29,0.02573
3319.5,0.02599
3313.72,0.02646
3307.93,0.02585
3302.14,0.02556
3296.36,0.02531
3290.57,0.02588
3284.78,0.02666
3279,0.02641
3273.21,0.02649
3267.43,0.02691
3261.64,0.02651
3255.85,0.02728
3250.07,0.02611
3244.28,0.02639
3238.49,0.02583
3232.71,0.02686
3226.92,0.02638
3221.13,0.02679
3215.35,0.02658
3209.56,0.02630
3203.77,0.02698
3197.99,0.02635
3192.2,0.02624
3186.41,0.02645
3180.63,0.02673
3174.84,0.02659
3169.06,0.02636
3163.27,0.02658
3157.48,0.02721
3151.7,0.02629
3145.91,0.02619
3140.12,0.02676
3134.34,0.02645
3128.55,0.02695
3122.76,0.02653
3116.98,0.02650
3111.19,0.02675
3105.4,0.02721
3099.62,0.02656
3093.83,0.02623
3088.05,0.02646
3082.26,0.02650
3076.47,0.02655
3070.69,0.02698
3064.9,0.02627
3059.11,0.02619
3053.33,0.02672
3047.54,0.02729
3041.75,0.02656
3035.97,0.02697
3030.18,0.02635
3024.39,0.02649
3018.61,0.02648
3012.82,0.02654
3007.03,0.02615
3001.25,0.02631
2995.46,0.02573
2989.68,0.02651
2983.89,0.02619
2978.1,0.02546
2972.32,0.02585
2966.53,0.02565
2960.74,0.02510
2954.96,0.02547
2949.17,0.02579
2943.38,0.02555
2937.6,0.02533
2931.81,0.02545
2926.02,0.02558
2920.24,0.02615
2914.45,0.02596
2908.66,0.02633
2902.88,0.02681
2897.09,0.02612
2891.31,0.02618
2885.52,0.02644
2879.73,0.02603
2873.95,0.02602
2868.16,0.02631
2862.37,0.02591
2856.59,0.02609
2850.8,0.02646
2845.01,0.02718
2839.23,0.02696
2833.44,0.02691
2827.65,0.02663
2821.87,0.02681
2816.08,0.02701
2810.29,0.02657
2804.51,0.02648
2798.72,0.02735
2792.94,0.02706
2787.15,0.02682
2781.36,0.02694
2775.58,0.02726
2769.79,0.02695
2764,0.02710
2758.22,0.02715
2752.43,0.02681
2746.64,0.02691
2740.86,0.02703
2735.07,0.02710
2729.28,0.02688
2723.5,0.02672
2717.71,0.02699
2711.92,0.02716
2706.14,0.02715
2700.35,0.02675
2694.57,0.02709
2688.78,0.02726
2682.99,0.02709
2677.21,0.02717
2671.42,0.02652
2665.63,0.02718
2659.85,0.02650
2654.06,0.02701
2648.27,0.02693
2642.49,0.02661
2636.7,0.02684
2630.91,0.02716
2625.13,0.02682
2619.34,0.02692
2613.55,0.02657
2607.77,0.02667
2601.98,0.02719
2596.2,0.02754
2590.41,0.02735
2584.62,0.02698
2578.84,0.02692
2573.05,0.02681
2567.26,0.02686
2561.48,0.02684
2555.69,0.02709
2549.9,0.02670
2544.12,0.02657
2538.33,0.02642
2532.54,0.02670
2526.76,0.02680
2520.97,0.02649
2515.18,0.02669
2509.4,0.02700
2503.61,0.02644
2497.83,0.02652
2492.04,0.02635
2486.25,0.02668
2480.47,0.02696
2474.68,0.02696
2468.89,0.02697
2463.11,0.02661
2457.32,0.02656
2451.53,0.02670
2445.75,0.02651
2439.96,0.02667
2434.17,0.02690
2428.39,0.02669
2422.6,0.02685
2416.81,0.02607
2411.03,0.02647
2405.24,0.02586
2399.46,0.02651
2393.67,0.02668
2387.88,0.02668
2382.1,0.02698
2376.31,0.02704
2370.52,0.02713
2364.74,0.02720
2358.95,0.02721
2353.16,0.02682
2347.38,0.02656
2341.59,0.02735
2335.8,0.02673
2330.02,0.02680
2324.23,0.02698
2318.44,0.02689
2312.66,0.02650
2306.87,0.02640
2301.09,0.02639
2295.3,0.02628
2289.51,0.02616
2283.73,0.02607
2277.94,0.02613
2272.15,0.02639
2266.37,0.02621
2260.58,0.02580
2254.79,0.02610
2249.01,0.02597
2243.22,0.02615
2237.43,0.02590
2231.65,0.02599
2225.86,0.02605
2220.07,0.02584
2214.29,0.02578
2208.5,0.02588
2202.72,0.02600
2196.93,0.02558
2191.14,0.02589
2185.36,0.02596
2179.57,0.02566
2173.78,0.02582
2168,0.02576
2162.21,0.02571
2156.42,0.02564
2150.64,0.02531
2144.85,0.02568
2139.06,0.02585
2133.28,0.02602
2127.49,0.02581
2121.7,0.02606
2115.92,0.02543
2110.13,0.02553
2104.35,0.02554
2098.56,0.02569
2092.77,0.02537
2086.99,0.02571
2081.2,0.02524
2075.41,0.02538
2069.63,0.02535
2063.84,0.02572
2058.05,0.02532
2052.27,0.02563
2046.48,0.02556
2040.69,0.02516
2034.91,0.02509
2029.12,0.02551
2023.33,0.02525
2017.55,0.02552
2011.76,0.02560
2005.98,0.02558
2000.19,0.02534
1994.4,0.02559
1988.62,0.02553
1982.83,0.02535
1977.04,0.02540
1971.26,0.02528
1965.47,0.02513
1959.68,0.02554
1953.9,0.02538
1948.11,0.02545
1942.32,0.02523
1936.54,0.02498
1930.75,0.02493
1924.96,0.02486
1919.18,0.02532
1913.39,0.02517
1907.61,0.02518
1901.82,0.02497
1896.03,0.02506
1890.25,0.02507
1884.46,0.02471
1878.67,0.02484
1872.89,0.02475
1867.1,0.02468
1861.31,0.02480
1855.53,0.02475
1849.74,0.02483
1843.95,0.02453
1838.17,0.02431
1832.38,0.02450
1826.6,0.02422
1820.81,0.02398
1815.02,0.02438
1809.24,0.02383
1803.45,0.02372
1797.66,0.02369
1791.88,0.02371
1786.09,0.02363
1780.3,0.02302
1774.52,0.02328
1768.73,0.02243
1762.94,0.02268
1757.16,0.02138
1751.37,0.02179
1745.58,0.02163
1739.8,0.02268
1734.01,0.02312
1728.23,0.02401
1722.44,0.02380
1716.65,0.02413
1710.87,0.02413
1705.08,0.02405
1699.29,0.02250
1693.51,0.02185
1687.72,0.02334
1681.93,0.02209
1676.15,0.02247
1670.36,0.02195
1664.57,0.02190
1658.79,0.02159
1653,0.02245
1647.21,0.02222
1641.43,0.02163
1635.64,0.02174
1629.86,0.02244
1624.07,0.02263
1618.28,0.02237
1612.5,0.02206
1606.71,0.02219
1600.92,0.02194
1595.14,0.02242
1589.35,0.02158
1583.56,0.02160
1577.78,0.02178
1571.99,0.02166
1566.2,0.02142
1560.42,0.02205
1554.63,0.02158
1548.84,0.02119
1543.06,0.02267
1537.27,0.02161
1531.49,0.02182
1525.7,0.02197
1519.91,0.02168
1514.13,0.02180
1508.34,0.02237
1502.55,0.02165
1496.77,0.02226
1490.98,0.02228
1485.19,0.02154
1479.41,0.02145
1473.62,0.02195
1467.83,0.02137
1462.05,0.02133
1456.26,0.02071
1450.47,0.02151
1444.69,0.02138
1438.9,0.02154
1433.12,0.02177
1427.33,0.02113
1421.54,0.02128
1415.76,0.02105
1409.97,0.02115
1404.18,0.02099
1398.4,0.02102
1392.61,0.02052
1386.82,0.02055
1381.04,0.02052
1375.25,0.02024
1369.46,0.02056
1363.68,0.02075
1357.89,0.02071
1352.1,0.02042
1346.32,0.02041
1340.53,0.02030
1334.75,0.02001
1328.96,0.01965
1323.17,0.01970
1317.39,0.01949
1311.6,0.01943
1305.81,0.01955
1300.03,0.01989
1294.24,0.02023
1288.45,0.02063
1282.67,0.02080
1276.88,0.02143
1271.09,0.02133
1265.31,0.02187
1259.52,0.02224
1253.73,0.02215
1247.95,0.02225
1242.16,0.02248
1236.38,0.02171
1230.59,0.02150
1224.8,0.02167
1219.02,0.02173
1213.23,0.02147
1207.44,0.02149
1201.66,0.02095
1195.87,0.02082
1190.08,0.02076
1184.3,0.02039
1178.51,0.02012
1172.72,0.02067
1166.94,0.01943
1161.15,0.01914
1155.36,0.02003
1149.58,0.01984
1143.79,0.01976
1138.01,0.02053
1132.22,0.02077
1126.43,0.02102
1120.65,0.02133
1114.86,0.02182
1109.07,0.02210
1103.29,0.02213
1097.5,0.02149
1091.71,0.02184
1085.93,0.02181
1080.14,0.02252
1074.35,0.02301
1068.57,0.02390
1062.78,0.02357
1056.99,0.02343
1051.21,0.02373
1045.42,0.02308
1039.64,0.02291
1033.85,0.02287
1028.06,0.02277
1022.28,0.02167
1016.49,0.02287
1010.7,0.02335
1004.92,0.02363
999.13,0.02385
993.344,0.02345
987.557,0.02356
981.771,0.02333
975.984,0.02401
970.198,0.02356
964.411,0.02348
958.625,0.02361
952.838,0.02303
947.052,0.02258
941.265,0.02243
935.479,0.02233
929.692,0.02289
923.906,0.02254
918.12,0.02284
912.333,0.02263
906.547,0.02175
900.76,0.02222
894.974,0.02234
889.187,0.02206
883.401,0.02191
877.614,0.02150
871.828,0.02137
866.041,0.02141
860.255,0.02173
854.468,0.02119
848.682,0.02182
842.895,0.02214
837.109,0.02174
831.323,0.02164
825.536,0.02090
819.75,0.02137
813.963,0.02111
808.177,0.02067
802.39,0.02119
796.604,0.02057
790.817,0.02108
785.031,0.02031
779.244,0.02046
773.458,0.02046
767.671,0.02023
761.885,0.02008
756.098,0.01899
750.312,0.02004
744.526,0.02071
738.739,0.02085
732.953,0.02069
727.166,0.01972
721.38,0.01897
715.593,0.01968
709.807,0.01973
704.02,0.01946
698.234,0.01762
692.447,0.02017
686.661,0.01920
680.874,0.01910
675.088,0.01908
669.301,0.01823
663.515,0.01937
657.729,0.01951
651.942,0.01723
646.156,0.01820
640.369,0.01869
634.583,0.01890
628.796,0.01620
623.01,0.01845
617.223,0.01841
611.437,0.01964
605.65,0.01870
599.864,0.02151