File: 01_Data/PEVA/FTIR/IS/PEVA_0.10_IS_T_240808_R13.dpt
7496.93,0.03532
7491.14,0.03438
7485.35,0.01978
7479.57,0.03383
7473.78,0.03431
7468,0.03549
7462.21,0.03808
7456.42,0.05107
7450.64,0.03765
7444.85,0.03310
7439.06,0.02071
7433.28,0.03124
7427.49,0.02825
7421.71,0.03790
7415.92,0.02767
7410.13,0.02728
7404.35,0.04609
7398.56,0.03508
7392.78,0.02865
7386.99,0.02209
7381.2,0.02671
7375.42,0.03051
7369.63,0.03073
7363.84,0.03627
7358.06,0.03066
7352.27,0.03535
7346.49,0.03587
7340.7,0.04211
7334.91,0.04029
7329.13,0.02423
7323.34,0.02269
7317.56,0.03326
7311.77,0.03784
7305.98,0.04343
7300.2,0.03193
7294.41,0.02703
7288.62,0.01956
7282.84,0.04049
7277.05,0.03821
7271.27,0.02871
7265.48,0.03789
7259.69,0.03812
7253.91,0.03797
7248.12,0.04410
7242.34,0.04408
7236.55,0.02622
7230.76,0.02627
7224.98,0.03318
7219.19,0.02815
7213.4,0.02942
7207.62,0.03862
7201.83,0.03380
7196.05,0.03991
7190.26,0.02821
7184.47,0.02546
7178.69,0.03382
7172.9,0.03832
7167.12,0.03236
7161.33,0.03261
7155.54,0.02989
7149.76,0.03778
7143.97,0.04295
7138.18,0.02921
7132.4,0.03704
7126.61,0.03126
7120.83,0.03334
7115.04,0.03052
7109.25,0.04195
7103.47,0.05141
7097.68,0.04399
7091.9,0.03309
7086.11,0.03348
7080.32,0.03663
7074.54,0.03375
7068.75,0.02869
7062.96,0.03456
7057.18,0.03701
7051.39,0.03377
7045.61,0.02789
7039.82,0.04290
7034.03,0.03616
7028.25,0.03308
7022.46,0.03578
7016.68,0.02849
7010.89,0.04121
7005.1,0.03162
6999.32,0.03355
6993.53,0.03111
6987.74,0.03114
6981.96,0.03664
6976.17,0.03040
6970.39,0.03391
6964.6,0.03193
6958.81,0.03434
6953.03,0.03638
6947.24,0.02742
6941.46,0.02923
6935.67,0.03036
6929.88,0.02691
6924.1,0.03792
6918.31,0.03046
6912.52,0.03181
6906.74,0.02541
6900.95,0.03013
6895.17,0.02958
6889.38,0.03539
6883.59,0.03257
6877.81,0.02970
6872.02,0.02997
6866.24,0.03423
6860.45,0.03832
6854.66,0.02906
6848.88,0.03356
6843.09,0.03084
6837.3,0.02725
6831.52,0.03242
6825.73,0.03014
6819.95,0.03588
6814.16,0.03317
6808.37,0.02833
6802.59,0.03663
6796.8,0.03317
6791.02,0.03334
6785.23,0.03702
6779.44,0.03719
6773.66,0.03525
6767.87,0.03025
6762.08,0.02773
6756.3,0.03026
6750.51,0.03334
6744.73,0.02793
6738.94,0.03639
6733.15,0.02841
6727.37,0.03894
6721.58,0.03088
6715.8,0.02314
6710.01,0.03016
6704.22,0.02796
6698.44,0.02937
6692.65,0.03096
6686.86,0.02970
6681.08,0.03225
6675.29,0.03357
6669.51,0.02970
6663.72,0.03259
6657.93,0.02891
6652.15,0.03208
6646.36,0.02601
6640.58,0.02837
6634.79,0.03091
6629,0.03273
6623.22,0.02837
6617.43,0.03031
6611.64,0.02500
6605.86,0.03210
6600.07,0.03153
6594.29,0.02909
6588.5,0.02762
6582.71,0.02609
6576.93,0.03564
6571.14,0.03299
6565.36,0.03739
6559.57,0.03221
6553.78,0.03501
6548,0.03253
6542.21,0.03012
6536.42,0.02901
6530.64,0.02907
6524.85,0.02784
6519.07,0.03113
6513.28,0.03540
6507.49,0.02465
6501.71,0.02677
6495.92,0.02850
6490.14,0.02830
6484.35,0.03573
6478.56,0.03108
6472.78,0.03139
6466.99,0.03361
6461.2,0.03778
6455.42,0.02890
6449.63,0.02959
6443.85,0.03305
6438.06,0.03006
6432.27,0.03432
6426.49,0.03053
6420.7,0.03112
6414.92,0.02857
6409.13,0.02618
6403.34,0.03286
6397.56,0.03156
6391.77,0.03095
6385.98,0.03173
6380.2,0.02657
6374.41,0.02990
6368.63,0.02703
6362.84,0.03056
6357.05,0.03144
6351.27,0.02788
6345.48,0.02822
6339.7,0.02689
6333.91,0.02912
6328.12,0.02828
6322.34,0.02888
6316.55,0.02940
6310.76,0.03339
6304.98,0.02901
6299.19,0.02579
6293.41,0.02999
6287.62,0.03464
6281.83,0.03376
6276.05,0.03614
6270.26,0.03181
6264.48,0.03659
6258.69,0.02968
6252.9,0.03723
6247.12,0.03184
6241.33,0.02487
6235.54,0.02817
6229.76,0.03364
6223.97,0.02715
6218.19,0.02695
6212.4,0.03077
6206.61,0.02799
6200.83,0.02923
6195.04,0.02894
6189.26,0.02804
6183.47,0.02924
6177.68,0.03234
6171.9,0.03220
6166.11,0.02807
6160.32,0.03207
6154.54,0.03317
6148.75,0.03129
6142.97,0.03055
6137.18,0.02930
6131.39,0.03261
6125.61,0.03039
6119.82,0.02999
6114.04,0.02649
6108.25,0.02929
6102.46,0.03201
6096.68,0.02784
6090.89,0.02671
6085.1,0.03100
6079.32,0.03118
6073.53,0.03243
6067.75,0.02984
6061.96,0.03069
6056.17,0.02843
6050.39,0.03061
6044.6,0.02989
6038.82,0.02812
6033.03,0.03090
6027.24,0.02990
6021.46,0.02686
6015.67,0.02969
6009.88,0.02751
6004.1,0.02946
5998.31,0.02875
5992.53,0.02825
5986.74,0.02690
5980.95,0.02786
5975.17,0.02745
5969.38,0.02879
5963.6,0.03017
5957.81,0.02846
5952.02,0.03026
5946.24,0.02918
5940.45,0.03157
5934.66,0.02988
5928.88,0.03089
5923.09,0.02803
5917.31,0.02939
5911.52,0.02880
5905.73,0.03267
5899.95,0.03118
5894.16,0.03191
5888.38,0.03071
5882.59,0.02912
5876.8,0.02863
5871.02,0.02870
5865.23,0.03114
5859.44,0.03006
5853.66,0.02711
5847.87,0.02881
5842.09,0.03039
5836.3,0.02927
5830.51,0.02819
5824.73,0.02821
5818.94,0.02913
5813.16,0.03298
5807.37,0.02845
5801.58,0.03051
5795.8,0.02826
5790.01,0.02936
5784.22,0.03122
5778.44,0.03018
5772.65,0.02957
5766.87,0.02923
5761.08,0.02982
5755.29,0.02971
5749.51,0.03183
5743.72,0.03139
5737.94,0.02911
5732.15,0.02922
5726.36,0.02801
5720.58,0.02967
5714.79,0.03002
5709,0.02971
5703.22,0.03077
5697.43,0.03038
5691.65,0.03098
5685.86,0.02902
5680.07,0.03236
5674.29,0.02952
5668.5,0.03225
5662.72,0.02965
5656.93,0.03039
5651.14,0.03200
5645.36,0.03004
5639.57,0.02859
5633.78,0.02896
5628,0.02892
5622.21,0.02774
5616.43,0.02797
5610.64,0.02935
5604.85,0.02933
5599.07,0.02940
5593.28,0.03157
5587.5,0.02699
5581.71,0.02943
5575.92,0.03131
5570.14,0.02913
5564.35,0.03028
5558.56,0.02864
5552.78,0.03047
5546.99,0.02915
5541.21,0.03017
5535.42,0.02899
5529.63,0.03140
5523.85,0.03262
5518.06,0.02657
5512.28,0.02863
5506.49,0.03150
5500.7,0.02902
5494.92,0.02973
5489.13,0.03344
5483.34,0.03196
5477.56,0.03122
5471.77,0.03036
5465.99,0.02851
5460.2,0.03132
5454.41,0.02780
5448.63,0.02876
5442.84,0.02979
5437.06,0.02789
5431.27,0.03197
5425.48,0.03150
5419.7,0.02746
5413.91,0.02923
5408.12,0.02989
5402.34,0.02939
5396.55,0.03067
5390.77,0.03037
5384.98,0.02885
5379.19,0.02929
5373.41,0.02881
5367.62,0.02959
5361.84,0.03051
5356.05,0.03093
5350.26,0.02879
5344.48,0.02839
5338.69,0.03032
5332.9,0.03082
5327.12,0.02904
5321.33,0.03060
5315.55,0.03042
5309.76,0.02794
5303.97,0.02887
5298.19,0.02927
5292.4,0.03077
5286.62,0.03075
5280.83,0.03017
5275.04,0.02937
5269.26,0.02985
5263.47,0.03074
5257.68,0.03053
5251.9,0.02985
5246.11,0.02801
5240.33,0.02923
5234.54,0.03044
5228.75,0.02926
5222.97,0.03064
5217.18,0.02924
5211.4,0.03163
5205.61,0.02973
5199.82,0.03077
5194.04,0.03106
5188.25,0.03095
5182.46,0.02921
5176.68,0.02972
5170.89,0.02999
5165.11,0.03142
5159.32,0.03093
5153.53,0.03087
5147.75,0.02865
5141.96,0.02993
5136.18,0.03126
5130.39,0.03004
5124.6,0.03162
5118.82,0.03109
5113.03,0.02956
5107.24,0.02925
5101.46,0.02999
5095.67,0.02996
5089.89,0.02957
5084.1,0.02964
5078.31,0.02959
5072.53,0.03108
5066.74,0.02942
5060.96,0.02841
5055.17,0.02757
5049.38,0.03072
5043.6,0.03001
5037.81,0.02868
5032.02,0.03073
5026.24,0.02885
5020.45,0.02948
5014.67,0.03089
5008.88,0.03008
5003.09,0.03006
4997.31,0.02899
4991.52,0.02912
4985.74,0.03099
4979.95,0.02978
4974.16,0.03059
4968.38,0.03025
4962.59,0.03175
4956.8,0.03009
4951.02,0.03011
4945.23,0.02955
4939.45,0.02977
4933.66,0.02985
4927.87,0.02929
4922.09,0.03035
4916.3,0.02851
4910.52,0.03052
4904.73,0.02947
4898.94,0.02949
4893.16,0.02942
4887.37,0.03025
4881.58,0.03040
4875.8,0.02996
4870.01,0.03103
4864.23,0.03054
4858.44,0.03010
4852.65,0.03093
4846.87,0.02940
4841.08,0.02925
4835.3,0.02871
4829.51,0.03124
4823.72,0.03004
4817.94,0.03064
4812.15,0.02827
4806.36,0.02908
4800.58,0.03089
4794.79,0.02934
4789.01,0.03009
4783.22,0.02990
4777.43,0.02888
4771.65,0.02994
4765.86,0.02986
4760.08,0.03010
4754.29,0.02985
4748.5,0.02979
4742.72,0.03053
4736.93,0.03033
4731.14,0.02856
4725.36,0.02984
4719.57,0.03032
4713.79,0.03001
4708,0.02890
4702.21,0.03043
4696.43,0.02944
4690.64,0.02897
4684.86,0.02964
4679.07,0.02924
4673.28,0.02929
4667.5,0.02942
4661.71,0.02980
4655.92,0.02951
4650.14,0.03070
4644.35,0.02950
4638.57,0.02974
4632.78,0.03049
4626.99,0.02900
4621.21,0.02963
4615.42,0.02978
4609.64,0.03027
4603.85,0.02970
4598.06,0.02967
4592.28,0.02967
4586.49,0.02908
4580.7,0.02991
4574.92,0.03063
4569.13,0.02937
4563.35,0.03064
4557.56,0.03011
4551.77,0.03002
4545.99,0.02988
4540.2,0.02979
4534.42,0.02921
4528.63,0.02870
4522.84,0.02982
4517.06,0.03023
4511.27,0.02964
4505.48,0.03002
4499.7,0.02925
4493.91,0.02950
4488.13,0.03006
4482.34,0.03081
4476.55,0.02969
4470.77,0.02876
4464.98,0.02968
4459.2,0.02979
4453.41,0.03033
4447.62,0.02967
4441.84,0.02900
4436.05,0.03015
4430.26,0.03028
4424.48,0.02880
4418.69,0.02972
4412.91,0.02987
4407.12,0.02913
4401.33,0.02980
4395.55,0.02987
4389.76,0.03001
4383.98,0.02956
4378.19,0.02941
4372.4,0.03042
4366.62,0.02951
4360.83,0.03009
4355.04,0.03058
4349.26,0.02990
4343.47,0.02982
4337.69,0.02908
4331.9,0.02978
4326.11,0.02972
4320.33,0.02966
4314.54,0.03019
4308.76,0.03140
4302.97,0.02913
4297.18,0.03024
4291.4,0.03023
4285.61,0.02952
4279.82,0.02979
4274.04,0.02899
4268.25,0.03038
4262.47,0.03038
4256.68,0.03065
4250.89,0.02970
4245.11,0.02936
4239.32,0.02914
4233.54,0.02927
4227.75,0.02968
4221.96,0.03017
4216.18,0.03003
4210.39,0.03051
4204.6,0.02952
4198.82,0.02970
4193.03,0.02972
4187.25,0.02943
4181.46,0.02952
4175.67,0.02941
4169.89,0.02973
4164.1,0.02886
4158.32,0.02970
4152.53,0.02918
4146.74,0.02881
4140.96,0.03019
4135.17,0.03025
4129.38,0.02978
4123.6,0.02972
4117.81,0.03085
4112.03,0.02973
4106.24,0.02977
4100.45,0.03030
4094.67,0.02960
4088.88,0.02998
4083.1,0.02944
4077.31,0.02935
4071.52,0.02945
4065.74,0.02969
4059.95,0.02940
4054.16,0.02969
4048.38,0.02939
4042.59,0.03008
4036.81,0.02985
4031.02,0.02974
4025.23,0.02942
4019.45,0.03004
4013.66,0.02949
4007.88,0.02962
4002.09,0.02878
3996.3,0.02966
3990.52,0.02956
3984.73,0.02866
3978.94,0.02943
3973.16,0.02951
3967.37,0.02985
3961.59,0.02927
3955.8,0.02922
3950.01,0.02930
3944.23,0.03006
3938.44,0.02978
3932.66,0.02946
3926.87,0.03037
3921.08,0.02952
3915.3,0.02988
3909.51,0.02945
3903.72,0.02961
3897.94,0.02984
3892.15,0.02940
3886.37,0.02943
3880.58,0.03018
3874.79,0.02995
3869.01,0.03126
3863.22,0.03071
3857.44,0.03035
3851.65,0.02987
3845.86,0.02944
3840.08,0.03032
3834.29,0.02966
3828.5,0.02985
3822.72,0.03039
3816.93,0.03005
3811.15,0.02967
3805.36,0.02970
3799.57,0.03056
3793.79,0.02934
3788,0.02899
3782.22,0.02935
3776.43,0.02877
3770.64,0.03005
3764.86,0.02962
3759.07,0.03050
3753.28,0.03084
3747.5,0.02991
3741.71,0.02956
3735.93,0.02953
3730.14,0.02931
3724.35,0.02905
3718.57,0.02898
3712.78,0.02925
3707,0.02903
3701.21,0.02980
3695.42,0.02939
3689.64,0.02930
3683.85,0.02880
3678.06,0.02885
3672.28,0.02900
3666.49,0.02906
3660.71,0.02886
3654.92,0.02855
3649.13,0.02890
3643.35,0.02893
3637.56,0.02832
3631.78,0.02882
3625.99,0.02793
3620.2,0.02833
3614.42,0.02755
3608.63,0.02741
3602.84,0.02809
3597.06,0.02904
3591.27,0.02787
3585.49,0.02676
3579.7,0.02722
3573.91,0.02678
3568.13,0.02720
3562.34,0.02734
3556.56,0.02686
3550.77,0.02815
3544.98,0.02661
3539.2,0.02679
3533.41,0.02653
3527.62,0.02679
3521.84,0.02728
3516.05,0.02652
3510.27,0.02649
3504.48,0.02636
3498.69,0.02716
3492.91,0.02642
3487.12,0.02643
3481.34,0.02643
3475.55,0.02714
3469.76,0.02599
3463.98,0.02690
3458.19,0.02636
3452.4,0.02657
3446.62,0.02703
3440.83,0.02636
3435.05,0.02655
3429.26,0.02648
3423.47,0.02569
3417.69,0.02566
3411.9,0.02554
3406.12,0.02598
3400.33,0.02608
3394.54,0.02593
3388.76,0.02544
3382.97,0.02547
3377.18,0.02582
3371.4,0.02544
3365.61,0.02690
3359.83,0.02650
3354.04,0.02664
3348.25,0.02569
3342.47,0.02578
3336.68,0.02574
3330.9,0.02586
3325.11,0.02624
3319.32,0.02611
3313.54,0.02624
3307.75,0.02578
3301.96,0.02586
3296.18,0.02621
3290.39,0.02550
3284.61,0.02577
3278.82,0.02597
3273.03,0.02633
3267.25,0.02582
3261.46,0.02602
3255.68,0.02608
3249.89,0.02756
3244.1,0.02649
3238.32,0.02621
3232.53,0.02716
3226.74,0.02686
3220.96,0.02623
3215.17,0.02656
3209.39,0.02632
3203.6,0.02608
3197.81,0.02699
3192.03,0.02647
3186.24,0.02598
3180.46,0.02632
3174.67,0.02672
3168.88,0.02624
3163.1,0.02667
3157.31,0.02708
3151.52,0.02654
3145.74,0.02666
3139.95,0.02715
3134.17,0.02757
3128.38,0.02660
3122.59,0.02704
3116.81,0.02716
3111.02,0.02668
3105.24,0.02685
3099.45,0.02721
3093.66,0.02655
3087.88,0.02718
3082.09,0.02686
3076.3,0.02631
3070.52,0.02659
3064.73,0.02653
3058.95,0.02671
3053.16,0.02704
3047.37,0.02611
3041.59,0.02670
3035.8,0.02604
3030.02,0.02649
3024.23,0.02702
3018.44,0.02598
3012.66,0.02669
3006.87,0.02615
3001.08,0.02622
2995.3,0.02624
2989.51,0.02609
2983.73,0.02586
2977.94,0.02563
2972.15,0.02534
2966.37,0.02540
2960.58,0.02543
2954.8,0.02541
2949.01,0.02548
2943.22,0.02550
2937.44,0.02551
2931.65,0.02511
2925.86,0.02552
2920.08,0.02632
2914.29,0.02592
2908.51,0.02646
2902.72,0.02590
2896.93,0.02634
2891.15,0.02654
2885.36,0.02614
2879.58,0.02588
2873.79,0.02648
2868,0.02617
2862.22,0.02606
2856.43,0.02628
2850.64,0.02629
2844.86,0.02716
2839.07,0.02689
2833.29,0.02665
2827.5,0.02673
2821.71,0.02730
2815.93,0.02703
2810.14,0.02676
2804.36,0.02687
2798.57,0.02688
2792.78,0.02692
2787,0.02713
2781.21,0.02702
2775.42,0.02679
2769.64,0.02690
2763.85,0.02698
2758.07,0.02716
2752.28,0.02721
2746.49,0.02715
2740.71,0.02680
2734.92,0.02700
2729.14,0.02694
2723.35,0.02689
2717.56,0.02695
2711.78,0.02739
2705.99,0.02697
2700.2,0.02704
2694.42,0.02690
2688.63,0.02672
2682.85,0.02720
2677.06,0.02713
2671.27,0.02722
2665.49,0.02662
2659.7,0.02689
2653.92,0.02676
2648.13,0.02716
2642.34,0.02686
2636.56,0.02703
2630.77,0.02700
2624.98,0.02671
2619.2,0.02677
2613.41,0.02705
2607.63,0.02670
2601.84,0.02723
2596.05,0.02735
2590.27,0.02707
2584.48,0.02671
2578.7,0.02682
2572.91,0.02698
2567.12,0.02706
2561.34,0.02660
2555.55,0.02702
2549.76,0.02673
2543.98,0.02690
2538.19,0.02677
2532.41,0.02673
2526.62,0.02636
2520.83,0.02679
2515.05,0.02707
2509.26,0.02670
2503.48,0.02677
2497.69,0.02698
2491.9,0.02703
2486.12,0.02682
2480.33,0.02677
2474.55,0.02676
2468.76,0.02647
2462.97,0.02677
2457.19,0.02685
2451.4,0.02686
2445.61,0.02685
2439.83,0.02673
2434.04,0.02698
2428.26,0.02698
2422.47,0.02634
2416.68,0.02702
2410.9,0.02668
2405.11,0.02659
2399.32,0.02658
2393.54,0.02680
2387.75,0.02681
2381.97,0.02695
2376.18,0.02675
2370.39,0.02703
2364.61,0.02691
2358.82,0.02756
2353.04,0.02686
2347.25,0.02725
2341.46,0.02699
2335.68,0.02682
2329.89,0.02712
2324.11,0.02675
2318.32,0.02644
2312.53,0.02657
2306.75,0.02694
2300.96,0.02638
2295.17,0.02605
2289.39,0.02598
2283.6,0.02672
2277.82,0.02609
2272.03,0.02636
2266.24,0.02608
2260.46,0.02658
2254.67,0.02627
2248.89,0.02596
2243.1,0.02603
2237.31,0.02628
2231.53,0.02604
2225.74,0.02584
2219.95,0.02636
2214.17,0.02625
2208.38,0.02615
2202.6,0.02615
2196.81,0.02595
2191.02,0.02633
2185.24,0.02631
2179.45,0.02593
2173.67,0.02608
2167.88,0.02605
2162.09,0.02571
2156.31,0.02568
2150.52,0.02594
2144.73,0.02606
2138.95,0.02566
2133.16,0.02602
2127.38,0.02543
2121.59,0.02598
2115.8,0.02557
2110.02,0.02557
2104.23,0.02563
2098.45,0.02599
2092.66,0.02598
2086.87,0.02576
2081.09,0.02591
2075.3,0.02568
2069.51,0.02542
2063.73,0.02567
2057.94,0.02572
2052.16,0.02579
2046.37,0.02586
2040.58,0.02525
2034.8,0.02545
2029.01,0.02541
2023.23,0.02565
2017.44,0.02596
2011.65,0.02542
2005.87,0.02585
2000.08,0.02546
1994.29,0.02536
1988.51,0.02534
1982.72,0.02531
1976.94,0.02531
1971.15,0.02557
1965.36,0.02497
1959.58,0.02517
1953.79,0.02532
1948.01,0.02557
1942.22,0.02546
1936.43,0.02524
1930.65,0.02543
1924.86,0.02566
1919.07,0.02533
1913.29,0.02532
1907.5,0.02528
1901.72,0.02559
1895.93,0.02500
1890.14,0.02539
1884.36,0.02491
1878.57,0.02480
1872.79,0.02518
1867,0.02507
1861.21,0.02503
1855.43,0.02470
1849.64,0.02434
1843.85,0.02493
1838.07,0.02454
1832.28,0.02463
1826.5,0.02491
1820.71,0.02444
1814.92,0.02422
1809.14,0.02391
1803.35,0.02414
1797.57,0.02409
1791.78,0.02375
1785.99,0.02371
1780.21,0.02317
1774.42,0.02318
1768.63,0.02254
1762.85,0.02243
1757.06,0.02166
1751.28,0.02107
1745.49,0.02188
1739.7,0.02246
1733.92,0.02278
1728.13,0.02385
1722.35,0.02409
1716.56,0.02492
1710.77,0.02455
1704.99,0.02412
1699.2,0.02365
1693.41,0.02258
1687.63,0.02289
1681.84,0.02253
1676.06,0.02251
1670.27,0.02195
1664.48,0.02172
1658.7,0.02229
1652.91,0.02160
1647.13,0.02180
1641.34,0.02166
1635.55,0.02226
1629.77,0.02227
1623.98,0.02180
1618.19,0.02216
1612.41,0.02241
1606.62,0.02200
1600.84,0.02212
1595.05,0.02234
1589.26,0.02190
1583.48,0.02153
1577.69,0.02203
1571.91,0.02149
1566.12,0.02154
1560.33,0.02243
1554.55,0.02152
1548.76,0.02156
1542.97,0.02238
1537.19,0.02204
1531.4,0.02157
1525.62,0.02287
1519.83,0.02204
1514.04,0.02239
1508.26,0.02302
1502.47,0.02169
1496.69,0.02218
1490.9,0.02267
1485.11,0.02262
1479.33,0.02188
1473.54,0.02127
1467.75,0.02109
1461.97,0.02140
1456.18,0.02137
1450.4,0.02155
1444.61,0.02138
1438.82,0.02135
1433.04,0.02118
1427.25,0.02176
1421.47,0.02184
1415.68,0.02088
1409.89,0.02075
1404.11,0.02050
1398.32,0.02089
1392.53,0.02065
1386.75,0.02071
1380.96,0.02046
1375.18,0.02073
1369.39,0.02059
1363.6,0.02053
1357.82,0.02028
1352.03,0.02061
1346.25,0.02031
1340.46,0.02051
1334.67,0.02017
1328.89,0.01988
1323.1,0.01993
1317.31,0.01937
1311.53,0.01923
1305.74,0.01956
1299.96,0.01985
1294.17,0.02031
1288.38,0.02060
1282.6,0.02076
1276.81,0.02130
1271.03,0.02160
1265.24,0.02192
1259.45,0.02279
1253.67,0.02242
1247.88,0.02266
1242.09,0.02165
1236.31,0.02188
1230.52,0.02173
1224.74,0.02203
1218.95,0.02174
1213.16,0.02191
1207.38,0.02159
1201.59,0.02110
1195.81,0.02121
1190.02,0.02073
1184.23,0.02051
1178.45,0.02061
1172.66,0.02024
1166.87,0.01982
1161.09,0.02036
1155.3,0.02046
1149.52,0.01982
1143.73,0.01992
1137.94,0.02055
1132.16,0.02102
1126.37,0.02107
1120.59,0.02133
1114.8,0.02262
1109.01,0.02189
1103.23,0.02127
1097.44,0.02209
1091.65,0.02205
1085.87,0.02148
1080.08,0.02215
1074.3,0.02320
1068.51,0.02448
1062.72,0.02345
1056.94,0.02309
1051.15,0.02300
1045.37,0.02350
1039.58,0.02300
1033.79,0.02310
1028.01,0.02299
1022.22,0.02213
1016.43,0.02232
1010.65,0.02343
1004.86,0.02415
999.076,0.02430
993.29,0.02359
987.504,0.02442
981.717,0.02402
975.931,0.02310
970.145,0.02307
964.359,0.02355
958.573,0.02367
952.787,0.02345
947,0.02288
941.214,0.02255
935.428,0.02239
929.642,0.02211
923.856,0.02214
918.07,0.02180
912.284,0.02154
906.497,0.02243
900.711,0.02243
894.925,0.02201
889.139,0.02217
883.353,0.02159
877.567,0.02186
871.78,0.02241
865.994,0.02184
860.208,0.02212
854.422,0.02209
848.636,0.02223
842.85,0.02138
837.064,0.02149
831.277,0.02136
825.491,0.02152
819.705,0.02076
813.919,0.02123
808.133,0.02046
802.347,0.02147
796.56,0.02127
790.774,0.02093
784.988,0.02052
779.202,0.02080
773.416,0.02107
767.63,0.01973
761.844,0.02002
756.057,0.01935
750.271,0.01978
744.485,0.01946
738.699,0.01993
732.913,0.02012
727.127,0.01889
721.34,0.01957
715.554,0.01911
709.768,0.01949
703.982,0.01967
698.196,0.01957
692.41,0.01951
686.624,0.01892
680.837,0.01987
675.051,0.01786
669.265,0.01839
663.479,0.01890
657.693,0.01819
651.907,0.01827
646.12,0.01862
640.334,0.01806
634.548,0.01834
628.762,0.01941
622.976,0.01817
617.19,0.01727
611.404,0.01935
605.617,0.01640
599.831,0.01917