File: 01_Data/PEVA/FTIR/IS/PEVA_0.18_IS_T_240809_R1.dpt
7497.33,0.03586
7491.55,0.02260
7485.76,0.03679
7479.97,0.02453
7474.19,0.04041
7468.4,0.03743
7462.61,0.03341
7456.83,0.03197
7451.04,0.04314
7445.26,0.04791
7439.47,0.04777
7433.68,0.04369
7427.9,0.02732
7422.11,0.03718
7416.32,0.01813
7410.54,0.03639
7404.75,0.04008
7398.96,0.03749
7393.18,0.04632
7387.39,0.04362
7381.6,0.04653
7375.82,0.03350
7370.03,0.04139
7364.24,0.03118
7358.46,0.02474
7352.67,0.04320
7346.89,0.03651
7341.1,0.03631
7335.31,0.03015
7329.53,0.03818
7323.74,0.04388
7317.95,0.02753
7312.17,0.03458
7306.38,0.02720
7300.59,0.02975
7294.81,0.02724
7289.02,0.03208
7283.23,0.02992
7277.45,0.04159
7271.66,0.02577
7265.87,0.03306
7260.09,0.04519
7254.3,0.03112
7248.52,0.03585
7242.73,0.03029
7236.94,0.03569
7231.16,0.04183
7225.37,0.04089
7219.58,0.03620
7213.8,0.03673
7208.01,0.03949
7202.22,0.03605
7196.44,0.03051
7190.65,0.02864
7184.86,0.04000
7179.08,0.04950
7173.29,0.03451
7167.5,0.02685
7161.72,0.03584
7155.93,0.03427
7150.15,0.02091
7144.36,0.03143
7138.57,0.03493
7132.79,0.02461
7127,0.03443
7121.21,0.04187
7115.43,0.03063
7109.64,0.04037
7103.85,0.03995
7098.07,0.04178
7092.28,0.04861
7086.49,0.04115
7080.71,0.03820
7074.92,0.03511
7069.13,0.02802
7063.35,0.03736
7057.56,0.03063
7051.78,0.03383
7045.99,0.02699
7040.2,0.03326
7034.42,0.03612
7028.63,0.03189
7022.84,0.03768
7017.06,0.03774
7011.27,0.04094
7005.48,0.04038
6999.7,0.02819
6993.91,0.02564
6988.12,0.03442
6982.34,0.03638
6976.55,0.03080
6970.76,0.03562
6964.98,0.03288
6959.19,0.03973
6953.41,0.04199
6947.62,0.03321
6941.83,0.03142
6936.05,0.03118
6930.26,0.02882
6924.47,0.03386
6918.69,0.03370
6912.9,0.03720
6907.11,0.03038
6901.33,0.03765
6895.54,0.03691
6889.75,0.03125
6883.97,0.03481
6878.18,0.03781
6872.39,0.03309
6866.61,0.03080
6860.82,0.03004
6855.04,0.02985
6849.25,0.02334
6843.46,0.03637
6837.68,0.03038
6831.89,0.03015
6826.1,0.03066
6820.32,0.03446
6814.53,0.03994
6808.74,0.03589
6802.96,0.03308
6797.17,0.02714
6791.38,0.02596
6785.6,0.04194
6779.81,0.03418
6774.03,0.03310
6768.24,0.03576
6762.45,0.03435
6756.67,0.03669
6750.88,0.03266
6745.09,0.02567
6739.31,0.02903
6733.52,0.03873
6727.73,0.03465
6721.95,0.03047
6716.16,0.02955
6710.37,0.02876
6704.59,0.03230
6698.8,0.03535
6693.01,0.03186
6687.23,0.02591
6681.44,0.03371
6675.66,0.02826
6669.87,0.03400
6664.08,0.03257
6658.3,0.03057
6652.51,0.02545
6646.72,0.03735
6640.94,0.03395
6635.15,0.02672
6629.36,0.02449
6623.58,0.03201
6617.79,0.02783
6612,0.02737
6606.22,0.03130
6600.43,0.03133
6594.64,0.03141
6588.86,0.03353
6583.07,0.02778
6577.29,0.03110
6571.5,0.02718
6565.71,0.02801
6559.93,0.03424
6554.14,0.03148
6548.35,0.02696
6542.57,0.03111
6536.78,0.03189
6530.99,0.03401
6525.21,0.03634
6519.42,0.03502
6513.63,0.03142
6507.85,0.03149
6502.06,0.03277
6496.27,0.03162
6490.49,0.03330
6484.7,0.02949
6478.92,0.03177
6473.13,0.03027
6467.34,0.02894
6461.56,0.02720
6455.77,0.02912
6449.98,0.02784
6444.2,0.03066
6438.41,0.03659
6432.62,0.03052
6426.84,0.02897
6421.05,0.03163
6415.26,0.03424
6409.48,0.03755
6403.69,0.02899
6397.9,0.03520
6392.12,0.03811
6386.33,0.03224
6380.55,0.02761
6374.76,0.02771
6368.97,0.02753
6363.19,0.03089
6357.4,0.03224
6351.61,0.03236
6345.83,0.02696
6340.04,0.02617
6334.25,0.03179
6328.47,0.03339
6322.68,0.03232
6316.89,0.03047
6311.11,0.02671
6305.32,0.02911
6299.53,0.02695
6293.75,0.03242
6287.96,0.03063
6282.18,0.02973
6276.39,0.03265
6270.6,0.03221
6264.82,0.02759
6259.03,0.03289
6253.24,0.03347
6247.46,0.03051
6241.67,0.02540
6235.88,0.03143
6230.1,0.03326
6224.31,0.03334
6218.52,0.03140
6212.74,0.03363
6206.95,0.03100
6201.16,0.03206
6195.38,0.03045
6189.59,0.03223
6183.81,0.03114
6178.02,0.02924
6172.23,0.02699
6166.45,0.02747
6160.66,0.02734
6154.87,0.03058
6149.09,0.02887
6143.3,0.02837
6137.51,0.02937
6131.73,0.02989
6125.94,0.03064
6120.15,0.02787
6114.37,0.02712
6108.58,0.03166
6102.79,0.03016
6097.01,0.03278
6091.22,0.03000
6085.44,0.03188
6079.65,0.03048
6073.86,0.03113
6068.08,0.03081
6062.29,0.02891
6056.5,0.03315
6050.72,0.03025
6044.93,0.02976
6039.14,0.03244
6033.36,0.02875
6027.57,0.03208
6021.78,0.03094
6016,0.03075
6010.21,0.03360
6004.42,0.03387
5998.64,0.02663
5992.85,0.02947
5987.07,0.03090
5981.28,0.02936
5975.49,0.02698
5969.71,0.02882
5963.92,0.03194
5958.13,0.03163
5952.35,0.03043
5946.56,0.02967
5940.77,0.02869
5934.99,0.03147
5929.2,0.02883
5923.41,0.02945
5917.63,0.03011
5911.84,0.02954
5906.05,0.03134
5900.27,0.02974
5894.48,0.03062
5888.7,0.03236
5882.91,0.02918
5877.12,0.03140
5871.34,0.02994
5865.55,0.02881
5859.76,0.02732
5853.98,0.02968
5848.19,0.03243
5842.4,0.03155
5836.62,0.02992
5830.83,0.02817
5825.04,0.02610
5819.26,0.02878
5813.47,0.03140
5807.68,0.03094
5801.9,0.02981
5796.11,0.03044
5790.33,0.03079
5784.54,0.03268
5778.75,0.02808
5772.97,0.02926
5767.18,0.02961
5761.39,0.03119
5755.61,0.02940
5749.82,0.03442
5744.03,0.03007
5738.25,0.03110
5732.46,0.02937
5726.67,0.02805
5720.89,0.03036
5715.1,0.03114
5709.31,0.02956
5703.53,0.02887
5697.74,0.02923
5691.96,0.02775
5686.17,0.03089
5680.38,0.02996
5674.6,0.03089
5668.81,0.03098
5663.02,0.02863
5657.24,0.02974
5651.45,0.03230
5645.66,0.02971
5639.88,0.03005
5634.09,0.02879
5628.3,0.03172
5622.52,0.02914
5616.73,0.03092
5610.94,0.03192
5605.16,0.02966
5599.37,0.03012
5593.59,0.02925
5587.8,0.03030
5582.01,0.03094
5576.23,0.02939
5570.44,0.03027
5564.65,0.03132
5558.87,0.02946
5553.08,0.03127
5547.29,0.03024
5541.51,0.03041
5535.72,0.03188
5529.93,0.02996
5524.15,0.03090
5518.36,0.03046
5512.58,0.02995
5506.79,0.03013
5501,0.02973
5495.22,0.03224
5489.43,0.02961
5483.64,0.03020
5477.86,0.02874
5472.07,0.02945
5466.28,0.03100
5460.5,0.03128
5454.71,0.03347
5448.92,0.02968
5443.14,0.02894
5437.35,0.02800
5431.56,0.03220
5425.78,0.02989
5419.99,0.03013
5414.21,0.03309
5408.42,0.03094
5402.63,0.02962
5396.85,0.02994
5391.06,0.03011
5385.27,0.03014
5379.49,0.03196
5373.7,0.03041
5367.91,0.03085
5362.13,0.03259
5356.34,0.03218
5350.55,0.03104
5344.77,0.03089
5338.98,0.02921
5333.19,0.03093
5327.41,0.03063
5321.62,0.02937
5315.84,0.03013
5310.05,0.02969
5304.26,0.03012
5298.48,0.03127
5292.69,0.03085
5286.9,0.03074
5281.12,0.03041
5275.33,0.03165
5269.54,0.02934
5263.76,0.03067
5257.97,0.03038
5252.18,0.03100
5246.4,0.03059
5240.61,0.03155
5234.82,0.02933
5229.04,0.02886
5223.25,0.02877
5217.47,0.03120
5211.68,0.03159
5205.89,0.02836
5200.11,0.02931
5194.32,0.02947
5188.53,0.03150
5182.75,0.03088
5176.96,0.02956
5171.17,0.02991
5165.39,0.02946
5159.6,0.02953
5153.81,0.03164
5148.03,0.02838
5142.24,0.03060
5136.45,0.03099
5130.67,0.03156
5124.88,0.02943
5119.1,0.03027
5113.31,0.03111
5107.52,0.03083
5101.74,0.03160
5095.95,0.02994
5090.16,0.02946
5084.38,0.03058
5078.59,0.03048
5072.8,0.03106
5067.02,0.03228
5061.23,0.02969
5055.44,0.03080
5049.66,0.03001
5043.87,0.03103
5038.08,0.02968
5032.3,0.03016
5026.51,0.02986
5020.73,0.02949
5014.94,0.03009
5009.15,0.03199
5003.37,0.03141
4997.58,0.02941
4991.79,0.03018
4986.01,0.03079
4980.22,0.02963
4974.43,0.02952
4968.65,0.03113
4962.86,0.03069
4957.07,0.02896
4951.29,0.03034
4945.5,0.02884
4939.71,0.02961
4933.93,0.02973
4928.14,0.03064
4922.36,0.03017
4916.57,0.03103
4910.78,0.03037
4905,0.03017
4899.21,0.03073
4893.42,0.02983
4887.64,0.03066
4881.85,0.03103
4876.06,0.02996
4870.28,0.03090
4864.49,0.02983
4858.7,0.02887
4852.92,0.02953
4847.13,0.03099
4841.34,0.02882
4835.56,0.03056
4829.77,0.03077
4823.99,0.03025
4818.2,0.02959
4812.41,0.03187
4806.63,0.03021
4800.84,0.02937
4795.05,0.03040
4789.27,0.02983
4783.48,0.03085
4777.69,0.03010
4771.91,0.02962
4766.12,0.03065
4760.33,0.02999
4754.55,0.03049
4748.76,0.03146
4742.97,0.03036
4737.19,0.03036
4731.4,0.03030
4725.62,0.03060
4719.83,0.03092
4714.04,0.03037
4708.26,0.03033
4702.47,0.02988
4696.68,0.02922
4690.9,0.03073
4685.11,0.03058
4679.32,0.03094
4673.54,0.02991
4667.75,0.03015
4661.96,0.02995
4656.18,0.02932
4650.39,0.02910
4644.6,0.02889
4638.82,0.02980
4633.03,0.02986
4627.25,0.02917
4621.46,0.02963
4615.67,0.02995
4609.89,0.03056
4604.1,0.03028
4598.31,0.03069
4592.53,0.02975
4586.74,0.03059
4580.95,0.03029
4575.17,0.02994
4569.38,0.02935
4563.59,0.02986
4557.81,0.03079
4552.02,0.03069
4546.23,0.03022
4540.45,0.03014
4534.66,0.03098
4528.88,0.02906
4523.09,0.02967
4517.3,0.02918
4511.52,0.03080
4505.73,0.03025
4499.94,0.03002
4494.16,0.02943
4488.37,0.02987
4482.58,0.03010
4476.8,0.02993
4471.01,0.03070
4465.22,0.03073
4459.44,0.02994
4453.65,0.03142
4447.86,0.03007
4442.08,0.03002
4436.29,0.02940
4430.51,0.03025
4424.72,0.03055
4418.93,0.02923
4413.15,0.03012
4407.36,0.02980
4401.57,0.02879
4395.79,0.02949
4390,0.02893
4384.21,0.02983
4378.43,0.03036
4372.64,0.02991
4366.85,0.03041
4361.07,0.02915
4355.28,0.03016
4349.49,0.03030
4343.71,0.03036
4337.92,0.03022
4332.14,0.02942
4326.35,0.03038
4320.56,0.02991
4314.78,0.02986
4308.99,0.02970
4303.2,0.03030
4297.42,0.03052
4291.63,0.02966
4285.84,0.02951
4280.06,0.02982
4274.27,0.02953
4268.48,0.03043
4262.7,0.03021
4256.91,0.02968
4251.13,0.02998
4245.34,0.02920
4239.55,0.03072
4233.77,0.02922
4227.98,0.03022
4222.19,0.03013
4216.41,0.03011
4210.62,0.02976
4204.83,0.02968
4199.05,0.03005
4193.26,0.02946
4187.47,0.03028
4181.69,0.03000
4175.9,0.02978
4170.11,0.02951
4164.33,0.03017
4158.54,0.03024
4152.76,0.02986
4146.97,0.03001
4141.18,0.02981
4135.4,0.03017
4129.61,0.02996
4123.82,0.03028
4118.04,0.03028
4112.25,0.03052
4106.46,0.03009
4100.68,0.02994
4094.89,0.02974
4089.1,0.03015
4083.32,0.02922
4077.53,0.02953
4071.74,0.02930
4065.96,0.02874
4060.17,0.03006
4054.39,0.02957
4048.6,0.02967
4042.81,0.03004
4037.03,0.02942
4031.24,0.02898
4025.45,0.02996
4019.67,0.02964
4013.88,0.02984
4008.09,0.02939
4002.31,0.02942
3996.52,0.03019
3990.73,0.03004
3984.95,0.02979
3979.16,0.02971
3973.37,0.03045
3967.59,0.02961
3961.8,0.02972
3956.02,0.03051
3950.23,0.03094
3944.44,0.02963
3938.66,0.02970
3932.87,0.03014
3927.08,0.03020
3921.3,0.02967
3915.51,0.02928
3909.72,0.02997
3903.94,0.03132
3898.15,0.03008
3892.36,0.03063
3886.58,0.03135
3880.79,0.02987
3875,0.03022
3869.22,0.03032
3863.43,0.03010
3857.65,0.03028
3851.86,0.02982
3846.07,0.03005
3840.29,0.03029
3834.5,0.02878
3828.71,0.02964
3822.93,0.03090
3817.14,0.03022
3811.35,0.03028
3805.57,0.03004
3799.78,0.02948
3793.99,0.02988
3788.21,0.02980
3782.42,0.02956
3776.63,0.02983
3770.85,0.03051
3765.06,0.03004
3759.28,0.02991
3753.49,0.02990
3747.7,0.02896
3741.92,0.03019
3736.13,0.03149
3730.34,0.02997
3724.56,0.02958
3718.77,0.03012
3712.98,0.03010
3707.2,0.02936
3701.41,0.02897
3695.62,0.02909
3689.84,0.03009
3684.05,0.02966
3678.26,0.03038
3672.48,0.02900
3666.69,0.02872
3660.91,0.02952
3655.12,0.02958
3649.33,0.02655
3643.55,0.02815
3637.76,0.02832
3631.97,0.02841
3626.19,0.02885
3620.4,0.02831
3614.61,0.02689
3608.83,0.02761
3603.04,0.02831
3597.25,0.02840
3591.47,0.02750
3585.68,0.02707
3579.89,0.02779
3574.11,0.02751
3568.32,0.02786
3562.54,0.02702
3556.75,0.02673
3550.96,0.02726
3545.18,0.02745
3539.39,0.02659
3533.6,0.02727
3527.82,0.02685
3522.03,0.02652
3516.24,0.02662
3510.46,0.02641
3504.67,0.02624
3498.88,0.02627
3493.1,0.02684
3487.31,0.02658
3481.52,0.02718
3475.74,0.02685
3469.95,0.02681
3464.17,0.02681
3458.38,0.02629
3452.59,0.02646
3446.81,0.02642
3441.02,0.02590
3435.23,0.02672
3429.45,0.02612
3423.66,0.02636
3417.87,0.02554
3412.09,0.02646
3406.3,0.02638
3400.51,0.02613
3394.73,0.02615
3388.94,0.02676
3383.15,0.02618
3377.37,0.02601
3371.58,0.02593
3365.8,0.02592
3360.01,0.02581
3354.22,0.02623
3348.44,0.02556
3342.65,0.02621
3336.86,0.02575
3331.08,0.02614
3325.29,0.02585
3319.5,0.02580
3313.72,0.02709
3307.93,0.02634
3302.14,0.02680
3296.36,0.02600
3290.57,0.02633
3284.78,0.02602
3279,0.02575
3273.21,0.02663
3267.43,0.02635
3261.64,0.02657
3255.85,0.02679
3250.07,0.02581
3244.28,0.02644
3238.49,0.02649
3232.71,0.02707
3226.92,0.02727
3221.13,0.02644
3215.35,0.02651
3209.56,0.02578
3203.77,0.02575
3197.99,0.02595
3192.2,0.02661
3186.41,0.02648
3180.63,0.02669
3174.84,0.02718
3169.06,0.02671
3163.27,0.02674
3157.48,0.02713
3151.7,0.02770
3145.91,0.02724
3140.12,0.02671
3134.34,0.02735
3128.55,0.02700
3122.76,0.02638
3116.98,0.02712
3111.19,0.02706
3105.4,0.02678
3099.62,0.02705
3093.83,0.02715
3088.05,0.02697
3082.26,0.02677
3076.47,0.02703
3070.69,0.02700
3064.9,0.02658
3059.11,0.02692
3053.33,0.02717
3047.54,0.02686
3041.75,0.02687
3035.97,0.02643
3030.18,0.02657
3024.39,0.02642
3018.61,0.02669
3012.82,0.02682
3007.03,0.02650
3001.25,0.02659
2995.46,0.02625
2989.68,0.02638
2983.89,0.02653
2978.1,0.02613
2972.32,0.02542
2966.53,0.02557
2960.74,0.02633
2954.96,0.02581
2949.17,0.02558
2943.38,0.02574
2937.6,0.02539
2931.81,0.02604
2926.02,0.02546
2920.24,0.02586
2914.45,0.02628
2908.66,0.02624
2902.88,0.02615
2897.09,0.02621
2891.31,0.02663
2885.52,0.02667
2879.73,0.02620
2873.95,0.02658
2868.16,0.02623
2862.37,0.02616
2856.59,0.02682
2850.8,0.02699
2845.01,0.02690
2839.23,0.02696
2833.44,0.02660
2827.65,0.02755
2821.87,0.02727
2816.08,0.02739
2810.29,0.02718
2804.51,0.02746
2798.72,0.02725
2792.94,0.02683
2787.15,0.02703
2781.36,0.02710
2775.58,0.02728
2769.79,0.02692
2764,0.02704
2758.22,0.02718
2752.43,0.02710
2746.64,0.02687
2740.86,0.02736
2735.07,0.02713
2729.28,0.02719
2723.5,0.02729
2717.71,0.02708
2711.92,0.02698
2706.14,0.02674
2700.35,0.02695
2694.57,0.02720
2688.78,0.02698
2682.99,0.02745
2677.21,0.02723
2671.42,0.02705
2665.63,0.02681
2659.85,0.02689
2654.06,0.02692
2648.27,0.02727
2642.49,0.02690
2636.7,0.02722
2630.91,0.02720
2625.13,0.02699
2619.34,0.02660
2613.55,0.02725
2607.77,0.02724
2601.98,0.02717
2596.2,0.02763
2590.41,0.02707
2584.62,0.02670
2578.84,0.02733
2573.05,0.02733
2567.26,0.02748
2561.48,0.02669
2555.69,0.02696
2549.9,0.02700
2544.12,0.02693
2538.33,0.02654
2532.54,0.02689
2526.76,0.02694
2520.97,0.02675
2515.18,0.02670
2509.4,0.02673
2503.61,0.02688
2497.83,0.02713
2492.04,0.02708
2486.25,0.02672
2480.47,0.02670
2474.68,0.02708
2468.89,0.02691
2463.11,0.02656
2457.32,0.02684
2451.53,0.02721
2445.75,0.02705
2439.96,0.02682
2434.17,0.02699
2428.39,0.02691
2422.6,0.02699
2416.81,0.02677
2411.03,0.02681
2405.24,0.02759
2399.46,0.02693
2393.67,0.02684
2387.88,0.02705
2382.1,0.02722
2376.31,0.02710
2370.52,0.02755
2364.74,0.02737
2358.95,0.02676
2353.16,0.02716
2347.38,0.02728
2341.59,0.02677
2335.8,0.02619
2330.02,0.02725
2324.23,0.02670
2318.44,0.02654
2312.66,0.02670
2306.87,0.02681
2301.09,0.02660
2295.3,0.02627
2289.51,0.02635
2283.73,0.02638
2277.94,0.02627
2272.15,0.02606
2266.37,0.02600
2260.58,0.02620
2254.79,0.02646
2249.01,0.02678
2243.22,0.02610
2237.43,0.02602
2231.65,0.02618
2225.86,0.02628
2220.07,0.02643
2214.29,0.02655
2208.5,0.02634
2202.72,0.02629
2196.93,0.02587
2191.14,0.02614
2185.36,0.02613
2179.57,0.02602
2173.78,0.02629
2168,0.02618
2162.21,0.02610
2156.42,0.02608
2150.64,0.02598
2144.85,0.02601
2139.06,0.02600
2133.28,0.02591
2127.49,0.02569
2121.7,0.02630
2115.92,0.02603
2110.13,0.02577
2104.35,0.02588
2098.56,0.02605
2092.77,0.02615
2086.99,0.02558
2081.2,0.02563
2075.41,0.02596
2069.63,0.02585
2063.84,0.02576
2058.05,0.02585
2052.27,0.02606
2046.48,0.02605
2040.69,0.02601
2034.91,0.02574
2029.12,0.02561
2023.33,0.02575
2017.55,0.02546
2011.76,0.02563
2005.98,0.02577
2000.19,0.02579
1994.4,0.02575
1988.62,0.02585
1982.83,0.02555
1977.04,0.02586
1971.26,0.02559
1965.47,0.02550
1959.68,0.02565
1953.9,0.02569
1948.11,0.02572
1942.32,0.02526
1936.54,0.02558
1930.75,0.02541
1924.96,0.02562
1919.18,0.02522
1913.39,0.02550
1907.61,0.02514
1901.82,0.02518
1896.03,0.02553
1890.25,0.02517
1884.46,0.02495
1878.67,0.02530
1872.89,0.02527
1867.1,0.02467
1861.31,0.02461
1855.53,0.02509
1849.74,0.02481
1843.95,0.02485
1838.17,0.02469
1832.38,0.02511
1826.6,0.02500
1820.81,0.02451
1815.02,0.02409
1809.24,0.02440
1803.45,0.02451
1797.66,0.02427
1791.88,0.02343
1786.09,0.02355
1780.3,0.02306
1774.52,0.02366
1768.73,0.02246
1762.94,0.02231
1757.16,0.02182
1751.37,0.02184
1745.58,0.02147
1739.8,0.02290
1734.01,0.02362
1728.23,0.02419
1722.44,0.02480
1716.65,0.02384
1710.87,0.02439
1705.08,0.02432
1699.29,0.02302
1693.51,0.02237
1687.72,0.02328
1681.93,0.02228
1676.15,0.02226
1670.36,0.02228
1664.57,0.02168
1658.79,0.02190
1653,0.02290
1647.21,0.02219
1641.43,0.02202
1635.64,0.02148
1629.86,0.02241
1624.07,0.02252
1618.28,0.02249
1612.5,0.02240
1606.71,0.02249
1600.92,0.02220
1595.14,0.02196
1589.35,0.02219
1583.56,0.02183
1577.78,0.02210
1571.99,0.02151
1566.2,0.02181
1560.42,0.02282
1554.63,0.02194
1548.84,0.02196
1543.06,0.02271
1537.27,0.02221
1531.49,0.02240
1525.7,0.02269
1519.91,0.02274
1514.13,0.02200
1508.34,0.02292
1502.55,0.02238
1496.77,0.02343
1490.98,0.02262
1485.19,0.02207
1479.41,0.02208
1473.62,0.02164
1467.83,0.02161
1462.05,0.02163
1456.26,0.02128
1450.47,0.02149
1444.69,0.02221
1438.9,0.02214
1433.12,0.02202
1427.33,0.02181
1421.54,0.02154
1415.76,0.02138
1409.97,0.02134
1404.18,0.02127
1398.4,0.02149
1392.61,0.02082
1386.82,0.02096
1381.04,0.02051
1375.25,0.02073
1369.46,0.02079
1363.68,0.02097
1357.89,0.02072
1352.1,0.02116
1346.32,0.02072
1340.53,0.02065
1334.75,0.02021
1328.96,0.02026
1323.17,0.02011
1317.39,0.01973
1311.6,0.01977
1305.81,0.01987
1300.03,0.02025
1294.24,0.02073
1288.45,0.02044
1282.67,0.02108
1276.88,0.02129
1271.09,0.02197
1265.31,0.02239
1259.52,0.02251
1253.73,0.02264
1247.95,0.02268
1242.16,0.02224
1236.38,0.02224
1230.59,0.02224
1224.8,0.02209
1219.02,0.02212
1213.23,0.02205
1207.44,0.02151
1201.66,0.02137
1195.87,0.02157
1190.08,0.02093
1184.3,0.02129
1178.51,0.02059
1172.72,0.02000
1166.94,0.02031
1161.15,0.02013
1155.36,0.02056
1149.58,0.02040
1143.79,0.02075
1138.01,0.02057
1132.22,0.02094
1126.43,0.02118
1120.65,0.02170
1114.86,0.02192
1109.07,0.02202
1103.29,0.02208
1097.5,0.02203
1091.71,0.02186
1085.93,0.02236
1080.14,0.02263
1074.35,0.02312
1068.57,0.02400
1062.78,0.02385
1056.99,0.02339
1051.21,0.02400
1045.42,0.02345
1039.64,0.02333
1033.85,0.02276
1028.06,0.02345
1022.28,0.02229
1016.49,0.02247
1010.7,0.02376
1004.92,0.02361
999.13,0.02396
993.344,0.02398
987.557,0.02464
981.771,0.02454
975.984,0.02378
970.198,0.02312
964.411,0.02347
958.625,0.02390
952.838,0.02330
947.052,0.02304
941.265,0.02284
935.479,0.02224
929.692,0.02261
923.906,0.02261
918.12,0.02243
912.333,0.02199
906.547,0.02159
900.76,0.02153
894.974,0.02279
889.187,0.02291
883.401,0.02190
877.614,0.02196
871.828,0.02215
866.041,0.02261
860.255,0.02233
854.468,0.02253
848.682,0.02176
842.895,0.02176
837.109,0.02158
831.323,0.02168
825.536,0.02097
819.75,0.02123
813.963,0.02158
808.177,0.02045
802.39,0.02107
796.604,0.02141
790.817,0.02109
785.031,0.02064
779.244,0.02109
773.458,0.02079
767.671,0.02041
761.885,0.02019
756.098,0.01979
750.312,0.01943
744.526,0.01992
738.739,0.01978
732.953,0.01972
727.166,0.01990
721.38,0.02031
715.593,0.02013
709.807,0.01899
704.02,0.01872
698.234,0.01925
692.447,0.01930
686.661,0.01745
680.874,0.01910
675.088,0.01837
669.301,0.01848
663.515,0.01778
657.729,0.01835
651.942,0.01840
646.156,0.01804
640.369,0.02021
634.583,0.01924
628.796,0.01859
623.01,0.01806
617.223,0.01787
611.437,0.02047
605.65,0.01811
599.864,0.02008