File: 01_Data/PEVA/FTIR/IS/PEVA_0.10_IS_T_240808_R9.dpt
7496.93,0.03542
7491.14,0.03004
7485.35,0.01699
7479.57,0.02509
7473.78,0.03562
7468,0.03357
7462.21,0.03318
7456.42,0.02518
7450.64,0.02992
7444.85,0.03357
7439.06,0.01927
7433.28,0.03822
7427.49,0.03367
7421.71,0.04379
7415.92,0.04254
7410.13,0.03947
7404.35,0.02562
7398.56,0.03724
7392.78,0.04065
7386.99,0.03398
7381.2,0.01416
7375.42,0.02949
7369.63,0.04076
7363.84,0.03594
7358.06,0.04332
7352.27,0.05170
7346.49,0.04228
7340.7,0.03898
7334.91,0.02889
7329.13,0.02654
7323.34,0.02196
7317.56,0.02418
7311.77,0.03402
7305.98,0.04452
7300.2,0.02757
7294.41,0.03393
7288.62,0.04439
7282.84,0.01757
7277.05,0.01683
7271.27,0.04250
7265.48,0.03273
7259.69,0.03117
7253.91,0.03198
7248.12,0.03668
7242.34,0.03258
7236.55,0.03539
7230.76,0.02993
7224.98,0.03485
7219.19,0.03392
7213.4,0.02813
7207.62,0.03285
7201.83,0.03465
7196.05,0.04533
7190.26,0.04878
7184.47,0.04016
7178.69,0.02796
7172.9,0.04153
7167.12,0.04182
7161.33,0.04062
7155.54,0.03342
7149.76,0.02924
7143.97,0.03297
7138.18,0.03084
7132.4,0.03692
7126.61,0.03810
7120.83,0.03517
7115.04,0.03669
7109.25,0.02674
7103.47,0.02736
7097.68,0.03729
7091.9,0.02719
7086.11,0.03438
7080.32,0.03783
7074.54,0.03877
7068.75,0.02999
7062.96,0.03170
7057.18,0.03450
7051.39,0.02916
7045.61,0.02945
7039.82,0.04423
7034.03,0.02992
7028.25,0.03855
7022.46,0.03775
7016.68,0.03182
7010.89,0.03121
7005.1,0.03562
6999.32,0.03395
6993.53,0.03214
6987.74,0.04313
6981.96,0.02302
6976.17,0.03018
6970.39,0.03111
6964.6,0.03549
6958.81,0.02775
6953.03,0.02908
6947.24,0.02546
6941.46,0.02704
6935.67,0.02937
6929.88,0.02889
6924.1,0.02461
6918.31,0.02835
6912.52,0.02279
6906.74,0.03097
6900.95,0.03441
6895.17,0.03508
6889.38,0.02649
6883.59,0.03499
6877.81,0.02988
6872.02,0.03447
6866.24,0.02927
6860.45,0.02375
6854.66,0.02370
6848.88,0.02547
6843.09,0.02885
6837.3,0.03484
6831.52,0.03681
6825.73,0.03229
6819.95,0.03431
6814.16,0.02641
6808.37,0.03850
6802.59,0.03611
6796.8,0.03074
6791.02,0.03150
6785.23,0.02320
6779.44,0.02996
6773.66,0.03552
6767.87,0.03161
6762.08,0.02492
6756.3,0.03484
6750.51,0.02869
6744.73,0.03458
6738.94,0.03119
6733.15,0.03655
6727.37,0.02925
6721.58,0.02764
6715.8,0.03085
6710.01,0.03323
6704.22,0.02755
6698.44,0.02427
6692.65,0.03380
6686.86,0.03357
6681.08,0.03099
6675.29,0.03968
6669.51,0.03229
6663.72,0.02745
6657.93,0.03194
6652.15,0.03325
6646.36,0.03664
6640.58,0.03479
6634.79,0.03396
6629,0.02764
6623.22,0.03018
6617.43,0.02165
6611.64,0.02931
6605.86,0.02599
6600.07,0.03146
6594.29,0.03180
6588.5,0.03293
6582.71,0.03310
6576.93,0.02824
6571.14,0.03303
6565.36,0.03236
6559.57,0.03324
6553.78,0.03700
6548,0.02693
6542.21,0.03541
6536.42,0.03652
6530.64,0.03302
6524.85,0.02896
6519.07,0.02543
6513.28,0.02922
6507.49,0.02945
6501.71,0.02824
6495.92,0.02756
6490.14,0.02806
6484.35,0.02409
6478.56,0.03075
6472.78,0.03210
6466.99,0.02903
6461.2,0.02714
6455.42,0.03493
6449.63,0.03247
6443.85,0.03238
6438.06,0.03223
6432.27,0.02858
6426.49,0.03351
6420.7,0.03162
6414.92,0.02843
6409.13,0.03474
6403.34,0.03456
6397.56,0.02722
6391.77,0.03085
6385.98,0.02679
6380.2,0.02756
6374.41,0.02946
6368.63,0.02681
6362.84,0.03504
6357.05,0.03366
6351.27,0.02695
6345.48,0.02983
6339.7,0.03188
6333.91,0.02640
6328.12,0.02941
6322.34,0.02597
6316.55,0.02902
6310.76,0.03183
6304.98,0.03034
6299.19,0.02989
6293.41,0.03081
6287.62,0.02830
6281.83,0.03055
6276.05,0.02752
6270.26,0.03302
6264.48,0.02978
6258.69,0.02722
6252.9,0.02901
6247.12,0.02920
6241.33,0.02624
6235.54,0.02775
6229.76,0.02852
6223.97,0.03020
6218.19,0.03014
6212.4,0.02593
6206.61,0.02548
6200.83,0.03335
6195.04,0.03136
6189.26,0.03064
6183.47,0.03249
6177.68,0.03512
6171.9,0.02795
6166.11,0.03222
6160.32,0.02548
6154.54,0.03110
6148.75,0.03302
6142.97,0.03230
6137.18,0.03104
6131.39,0.02647
6125.61,0.02652
6119.82,0.03272
6114.04,0.03058
6108.25,0.02611
6102.46,0.02494
6096.68,0.02662
6090.89,0.02953
6085.1,0.03229
6079.32,0.02821
6073.53,0.02714
6067.75,0.02736
6061.96,0.02777
6056.17,0.02737
6050.39,0.02946
6044.6,0.02986
6038.82,0.02737
6033.03,0.02911
6027.24,0.02722
6021.46,0.02958
6015.67,0.03053
6009.88,0.02924
6004.1,0.02970
5998.31,0.02846
5992.53,0.02859
5986.74,0.03020
5980.95,0.02830
5975.17,0.03002
5969.38,0.03135
5963.6,0.03026
5957.81,0.02734
5952.02,0.03185
5946.24,0.03040
5940.45,0.03201
5934.66,0.02797
5928.88,0.02677
5923.09,0.02825
5917.31,0.03318
5911.52,0.03476
5905.73,0.03242
5899.95,0.03190
5894.16,0.02989
5888.38,0.03074
5882.59,0.03210
5876.8,0.03163
5871.02,0.03047
5865.23,0.03124
5859.44,0.02864
5853.66,0.02948
5847.87,0.02857
5842.09,0.02802
5836.3,0.02874
5830.51,0.03235
5824.73,0.03071
5818.94,0.02964
5813.16,0.02892
5807.37,0.02595
5801.58,0.02675
5795.8,0.03077
5790.01,0.02848
5784.22,0.02627
5778.44,0.03347
5772.65,0.02988
5766.87,0.02576
5761.08,0.02924
5755.29,0.03008
5749.51,0.02682
5743.72,0.02673
5737.94,0.02827
5732.15,0.03103
5726.36,0.03102
5720.58,0.02950
5714.79,0.02701
5709,0.03286
5703.22,0.02738
5697.43,0.02805
5691.65,0.03090
5685.86,0.02909
5680.07,0.02933
5674.29,0.02789
5668.5,0.02735
5662.72,0.03010
5656.93,0.03073
5651.14,0.02782
5645.36,0.03256
5639.57,0.03104
5633.78,0.02983
5628,0.02861
5622.21,0.03013
5616.43,0.02929
5610.64,0.02873
5604.85,0.02907
5599.07,0.02869
5593.28,0.02904
5587.5,0.03110
5581.71,0.03228
5575.92,0.03137
5570.14,0.02844
5564.35,0.03004
5558.56,0.03128
5552.78,0.02780
5546.99,0.03032
5541.21,0.03079
5535.42,0.03075
5529.63,0.03031
5523.85,0.02917
5518.06,0.02966
5512.28,0.02993
5506.49,0.03216
5500.7,0.02990
5494.92,0.02978
5489.13,0.03161
5483.34,0.03012
5477.56,0.03114
5471.77,0.02884
5465.99,0.03076
5460.2,0.03129
5454.41,0.03127
5448.63,0.03106
5442.84,0.02990
5437.06,0.03017
5431.27,0.02914
5425.48,0.02855
5419.7,0.02962
5413.91,0.02900
5408.12,0.03152
5402.34,0.03054
5396.55,0.02982
5390.77,0.03166
5384.98,0.02916
5379.19,0.02951
5373.41,0.03103
5367.62,0.02965
5361.84,0.02858
5356.05,0.03173
5350.26,0.02965
5344.48,0.03052
5338.69,0.02864
5332.9,0.03005
5327.12,0.03065
5321.33,0.02806
5315.55,0.02828
5309.76,0.02885
5303.97,0.03040
5298.19,0.03059
5292.4,0.02804
5286.62,0.02878
5280.83,0.02992
5275.04,0.02919
5269.26,0.03035
5263.47,0.02949
5257.68,0.03260
5251.9,0.03071
5246.11,0.03150
5240.33,0.03162
5234.54,0.02992
5228.75,0.03054
5222.97,0.03008
5217.18,0.02880
5211.4,0.03117
5205.61,0.03082
5199.82,0.02827
5194.04,0.02978
5188.25,0.03165
5182.46,0.03028
5176.68,0.02921
5170.89,0.02879
5165.11,0.03096
5159.32,0.02971
5153.53,0.03028
5147.75,0.03039
5141.96,0.02869
5136.18,0.02959
5130.39,0.02929
5124.6,0.02839
5118.82,0.03020
5113.03,0.02997
5107.24,0.02942
5101.46,0.03074
5095.67,0.03071
5089.89,0.03038
5084.1,0.03140
5078.31,0.02943
5072.53,0.03022
5066.74,0.03047
5060.96,0.03064
5055.17,0.02870
5049.38,0.02995
5043.6,0.02906
5037.81,0.02969
5032.02,0.02879
5026.24,0.02849
5020.45,0.02915
5014.67,0.02989
5008.88,0.03050
5003.09,0.02953
4997.31,0.02915
4991.52,0.03017
4985.74,0.03217
4979.95,0.03127
4974.16,0.02947
4968.38,0.02974
4962.59,0.02932
4956.8,0.03074
4951.02,0.02960
4945.23,0.02975
4939.45,0.03097
4933.66,0.03001
4927.87,0.02989
4922.09,0.03089
4916.3,0.03055
4910.52,0.02989
4904.73,0.03037
4898.94,0.03020
4893.16,0.02982
4887.37,0.02911
4881.58,0.02927
4875.8,0.03086
4870.01,0.03056
4864.23,0.02845
4858.44,0.02876
4852.65,0.02958
4846.87,0.03032
4841.08,0.03003
4835.3,0.03016
4829.51,0.02986
4823.72,0.02849
4817.94,0.03084
4812.15,0.02978
4806.36,0.03042
4800.58,0.02939
4794.79,0.03025
4789.01,0.03068
4783.22,0.02935
4777.43,0.03032
4771.65,0.02959
4765.86,0.02918
4760.08,0.03021
4754.29,0.02958
4748.5,0.03058
4742.72,0.03056
4736.93,0.03160
4731.14,0.02972
4725.36,0.03087
4719.57,0.03136
4713.79,0.02886
4708,0.02961
4702.21,0.03017
4696.43,0.02857
4690.64,0.02901
4684.86,0.03121
4679.07,0.03009
4673.28,0.03041
4667.5,0.03103
4661.71,0.02937
4655.92,0.02983
4650.14,0.03028
4644.35,0.02989
4638.57,0.03018
4632.78,0.03051
4626.99,0.03055
4621.21,0.02912
4615.42,0.03010
4609.64,0.02930
4603.85,0.02942
4598.06,0.02996
4592.28,0.02963
4586.49,0.03021
4580.7,0.03045
4574.92,0.02987
4569.13,0.02919
4563.35,0.02931
4557.56,0.02976
4551.77,0.03006
4545.99,0.02961
4540.2,0.02990
4534.42,0.03007
4528.63,0.03095
4522.84,0.02954
4517.06,0.03069
4511.27,0.02948
4505.48,0.03036
4499.7,0.02872
4493.91,0.02980
4488.13,0.02979
4482.34,0.02965
4476.55,0.03037
4470.77,0.02943
4464.98,0.03002
4459.2,0.03007
4453.41,0.03050
4447.62,0.03089
4441.84,0.03048
4436.05,0.03046
4430.26,0.03038
4424.48,0.03027
4418.69,0.02981
4412.91,0.02979
4407.12,0.03014
4401.33,0.03064
4395.55,0.02973
4389.76,0.03021
4383.98,0.03089
4378.19,0.03030
4372.4,0.02960
4366.62,0.02953
4360.83,0.02973
4355.04,0.02977
4349.26,0.02959
4343.47,0.03077
4337.69,0.03036
4331.9,0.02979
4326.11,0.03077
4320.33,0.03069
4314.54,0.03058
4308.76,0.03083
4302.97,0.02951
4297.18,0.03058
4291.4,0.02952
4285.61,0.02996
4279.82,0.02968
4274.04,0.03064
4268.25,0.02959
4262.47,0.02956
4256.68,0.02976
4250.89,0.03119
4245.11,0.02998
4239.32,0.02954
4233.54,0.03000
4227.75,0.03003
4221.96,0.02943
4216.18,0.03007
4210.39,0.02975
4204.6,0.02940
4198.82,0.02967
4193.03,0.03035
4187.25,0.02978
4181.46,0.02995
4175.67,0.03059
4169.89,0.03036
4164.1,0.02970
4158.32,0.02941
4152.53,0.02911
4146.74,0.03021
4140.96,0.03052
4135.17,0.03025
4129.38,0.02977
4123.6,0.02976
4117.81,0.02966
4112.03,0.03042
4106.24,0.03045
4100.45,0.03062
4094.67,0.03021
4088.88,0.03062
4083.1,0.03024
4077.31,0.03018
4071.52,0.03009
4065.74,0.02969
4059.95,0.02961
4054.16,0.02932
4048.38,0.02983
4042.59,0.02974
4036.81,0.03002
4031.02,0.03021
4025.23,0.03080
4019.45,0.03065
4013.66,0.02940
4007.88,0.02973
4002.09,0.03029
3996.3,0.03052
3990.52,0.03013
3984.73,0.03023
3978.94,0.03033
3973.16,0.03022
3967.37,0.03056
3961.59,0.02912
3955.8,0.03031
3950.01,0.03012
3944.23,0.02928
3938.44,0.03035
3932.66,0.03080
3926.87,0.02957
3921.08,0.02906
3915.3,0.03028
3909.51,0.03021
3903.72,0.02984
3897.94,0.03078
3892.15,0.03054
3886.37,0.03062
3880.58,0.02924
3874.79,0.03133
3869.01,0.03076
3863.22,0.03016
3857.44,0.03070
3851.65,0.03014
3845.86,0.03030
3840.08,0.03106
3834.29,0.03117
3828.5,0.03035
3822.72,0.03038
3816.93,0.03002
3811.15,0.03036
3805.36,0.02997
3799.57,0.02968
3793.79,0.02952
3788,0.03002
3782.22,0.03014
3776.43,0.03002
3770.64,0.02936
3764.86,0.02973
3759.07,0.02972
3753.28,0.03087
3747.5,0.03144
3741.71,0.02952
3735.93,0.03020
3730.14,0.02966
3724.35,0.02995
3718.57,0.03038
3712.78,0.02870
3707,0.02991
3701.21,0.02961
3695.42,0.03008
3689.64,0.02999
3683.85,0.02954
3678.06,0.02864
3672.28,0.02952
3666.49,0.02809
3660.71,0.02924
3654.92,0.02878
3649.13,0.02919
3643.35,0.02893
3637.56,0.02814
3631.78,0.02874
3625.99,0.02734
3620.2,0.02826
3614.42,0.02773
3608.63,0.02770
3602.84,0.02730
3597.06,0.02694
3591.27,0.02759
3585.49,0.02748
3579.7,0.02790
3573.91,0.02755
3568.13,0.02803
3562.34,0.02828
3556.56,0.02717
3550.77,0.02703
3544.98,0.02682
3539.2,0.02744
3533.41,0.02702
3527.62,0.02757
3521.84,0.02655
3516.05,0.02674
3510.27,0.02624
3504.48,0.02633
3498.69,0.02722
3492.91,0.02656
3487.12,0.02663
3481.34,0.02604
3475.55,0.02656
3469.76,0.02677
3463.98,0.02631
3458.19,0.02670
3452.4,0.02680
3446.62,0.02665
3440.83,0.02640
3435.05,0.02610
3429.26,0.02605
3423.47,0.02632
3417.69,0.02587
3411.9,0.02626
3406.12,0.02556
3400.33,0.02609
3394.54,0.02578
3388.76,0.02621
3382.97,0.02532
3377.18,0.02588
3371.4,0.02658
3365.61,0.02514
3359.83,0.02576
3354.04,0.02551
3348.25,0.02505
3342.47,0.02657
3336.68,0.02627
3330.9,0.02519
3325.11,0.02526
3319.32,0.02599
3313.54,0.02644
3307.75,0.02646
3301.96,0.02644
3296.18,0.02654
3290.39,0.02671
3284.61,0.02605
3278.82,0.02576
3273.03,0.02598
3267.25,0.02655
3261.46,0.02644
3255.68,0.02590
3249.89,0.02648
3244.1,0.02679
3238.32,0.02646
3232.53,0.02641
3226.74,0.02609
3220.96,0.02647
3215.17,0.02626
3209.39,0.02662
3203.6,0.02656
3197.81,0.02715
3192.03,0.02667
3186.24,0.02630
3180.46,0.02711
3174.67,0.02687
3168.88,0.02742
3163.1,0.02723
3157.31,0.02694
3151.52,0.02648
3145.74,0.02702
3139.95,0.02665
3134.17,0.02706
3128.38,0.02678
3122.59,0.02643
3116.81,0.02698
3111.02,0.02703
3105.24,0.02613
3099.45,0.02726
3093.66,0.02650
3087.88,0.02693
3082.09,0.02663
3076.3,0.02653
3070.52,0.02679
3064.73,0.02670
3058.95,0.02676
3053.16,0.02691
3047.37,0.02670
3041.59,0.02623
3035.8,0.02687
3030.02,0.02695
3024.23,0.02683
3018.44,0.02717
3012.66,0.02687
3006.87,0.02664
3001.08,0.02635
2995.3,0.02622
2989.51,0.02612
2983.73,0.02676
2977.94,0.02614
2972.15,0.02558
2966.37,0.02589
2960.58,0.02553
2954.8,0.02535
2949.01,0.02570
2943.22,0.02573
2937.44,0.02552
2931.65,0.02589
2925.86,0.02636
2920.08,0.02603
2914.29,0.02669
2908.51,0.02588
2902.72,0.02591
2896.93,0.02664
2891.15,0.02666
2885.36,0.02675
2879.58,0.02670
2873.79,0.02636
2868,0.02653
2862.22,0.02664
2856.43,0.02641
2850.64,0.02711
2844.86,0.02698
2839.07,0.02717
2833.29,0.02701
2827.5,0.02723
2821.71,0.02742
2815.93,0.02713
2810.14,0.02725
2804.36,0.02770
2798.57,0.02710
2792.78,0.02652
2787,0.02758
2781.21,0.02714
2775.42,0.02725
2769.64,0.02737
2763.85,0.02718
2758.07,0.02721
2752.28,0.02750
2746.49,0.02764
2740.71,0.02714
2734.92,0.02721
2729.14,0.02729
2723.35,0.02775
2717.56,0.02765
2711.78,0.02719
2705.99,0.02738
2700.2,0.02726
2694.42,0.02765
2688.63,0.02713
2682.85,0.02790
2677.06,0.02691
2671.27,0.02741
2665.49,0.02719
2659.7,0.02689
2653.92,0.02744
2648.13,0.02724
2642.34,0.02741
2636.56,0.02747
2630.77,0.02694
2624.98,0.02750
2619.2,0.02721
2613.41,0.02692
2607.63,0.02750
2601.84,0.02724
2596.05,0.02731
2590.27,0.02718
2584.48,0.02769
2578.7,0.02775
2572.91,0.02743
2567.12,0.02700
2561.34,0.02761
2555.55,0.02768
2549.76,0.02716
2543.98,0.02730
2538.19,0.02709
2532.41,0.02778
2526.62,0.02729
2520.83,0.02695
2515.05,0.02717
2509.26,0.02709
2503.48,0.02712
2497.69,0.02709
2491.9,0.02671
2486.12,0.02726
2480.33,0.02696
2474.55,0.02705
2468.76,0.02722
2462.97,0.02711
2457.19,0.02722
2451.4,0.02739
2445.61,0.02705
2439.83,0.02684
2434.04,0.02701
2428.26,0.02725
2422.47,0.02739
2416.68,0.02702
2410.9,0.02663
2405.11,0.02729
2399.32,0.02694
2393.54,0.02686
2387.75,0.02703
2381.97,0.02702
2376.18,0.02757
2370.39,0.02729
2364.61,0.02739
2358.82,0.02688
2353.04,0.02655
2347.25,0.02753
2341.46,0.02784
2335.68,0.02757
2329.89,0.02807
2324.11,0.02738
2318.32,0.02749
2312.53,0.02706
2306.75,0.02697
2300.96,0.02648
2295.17,0.02671
2289.39,0.02676
2283.6,0.02679
2277.82,0.02653
2272.03,0.02655
2266.24,0.02681
2260.46,0.02661
2254.67,0.02654
2248.89,0.02664
2243.1,0.02620
2237.31,0.02632
2231.53,0.02644
2225.74,0.02639
2219.95,0.02620
2214.17,0.02668
2208.38,0.02650
2202.6,0.02627
2196.81,0.02668
2191.02,0.02641
2185.24,0.02674
2179.45,0.02668
2173.67,0.02633
2167.88,0.02603
2162.09,0.02608
2156.31,0.02615
2150.52,0.02618
2144.73,0.02600
2138.95,0.02628
2133.16,0.02615
2127.38,0.02620
2121.59,0.02636
2115.8,0.02614
2110.02,0.02591
2104.23,0.02620
2098.45,0.02546
2092.66,0.02587
2086.87,0.02599
2081.09,0.02577
2075.3,0.02595
2069.51,0.02575
2063.73,0.02592
2057.94,0.02609
2052.16,0.02613
2046.37,0.02590
2040.58,0.02596
2034.8,0.02641
2029.01,0.02573
2023.23,0.02576
2017.44,0.02608
2011.65,0.02612
2005.87,0.02590
2000.08,0.02580
1994.29,0.02592
1988.51,0.02582
1982.72,0.02592
1976.94,0.02575
1971.15,0.02591
1965.36,0.02570
1959.58,0.02556
1953.79,0.02580
1948.01,0.02549
1942.22,0.02540
1936.43,0.02547
1930.65,0.02531
1924.86,0.02553
1919.07,0.02577
1913.29,0.02553
1907.5,0.02546
1901.72,0.02533
1895.93,0.02541
1890.14,0.02547
1884.36,0.02518
1878.57,0.02524
1872.79,0.02515
1867,0.02520
1861.21,0.02535
1855.43,0.02475
1849.64,0.02509
1843.85,0.02463
1838.07,0.02473
1832.28,0.02478
1826.5,0.02501
1820.71,0.02483
1814.92,0.02460
1809.14,0.02410
1803.35,0.02433
1797.57,0.02387
1791.78,0.02395
1785.99,0.02376
1780.21,0.02340
1774.42,0.02348
1768.63,0.02292
1762.85,0.02201
1757.06,0.02223
1751.28,0.02162
1745.49,0.02213
1739.7,0.02263
1733.92,0.02360
1728.13,0.02374
1722.35,0.02447
1716.56,0.02520
1710.77,0.02437
1704.99,0.02389
1699.2,0.02348
1693.41,0.02228
1687.63,0.02290
1681.84,0.02249
1676.06,0.02274
1670.27,0.02279
1664.48,0.02168
1658.7,0.02214
1652.91,0.02229
1647.13,0.02195
1641.34,0.02224
1635.55,0.02232
1629.77,0.02213
1623.98,0.02221
1618.19,0.02260
1612.41,0.02225
1606.62,0.02260
1600.84,0.02253
1595.05,0.02240
1589.26,0.02225
1583.48,0.02203
1577.69,0.02206
1571.91,0.02218
1566.12,0.02168
1560.33,0.02190
1554.55,0.02205
1548.76,0.02174
1542.97,0.02268
1537.19,0.02220
1531.4,0.02187
1525.62,0.02215
1519.83,0.02274
1514.04,0.02222
1508.26,0.02222
1502.47,0.02182
1496.69,0.02188
1490.9,0.02255
1485.11,0.02221
1479.33,0.02159
1473.54,0.02190
1467.75,0.02142
1461.97,0.02182
1456.18,0.02207
1450.4,0.02159
1444.61,0.02136
1438.82,0.02199
1433.04,0.02164
1427.25,0.02173
1421.47,0.02116
1415.68,0.02114
1409.89,0.02151
1404.11,0.02107
1398.32,0.02113
1392.53,0.02093
1386.75,0.02073
1380.96,0.02102
1375.18,0.02098
1369.39,0.02089
1363.6,0.02106
1357.82,0.02088
1352.03,0.02071
1346.25,0.02028
1340.46,0.02048
1334.67,0.02052
1328.89,0.02043
1323.1,0.01959
1317.31,0.01951
1311.53,0.02024
1305.74,0.01991
1299.96,0.02012
1294.17,0.02033
1288.38,0.02080
1282.6,0.02133
1276.81,0.02187
1271.03,0.02164
1265.24,0.02141
1259.45,0.02261
1253.67,0.02269
1247.88,0.02267
1242.09,0.02197
1236.31,0.02212
1230.52,0.02200
1224.74,0.02220
1218.95,0.02185
1213.16,0.02123
1207.38,0.02177
1201.59,0.02124
1195.81,0.02070
1190.02,0.02112
1184.23,0.02031
1178.45,0.02073
1172.66,0.02092
1166.87,0.02025
1161.09,0.01993
1155.3,0.02019
1149.52,0.01991
1143.73,0.02019
1137.94,0.02020
1132.16,0.02029
1126.37,0.02107
1120.59,0.02185
1114.8,0.02237
1109.01,0.02240
1103.23,0.02167
1097.44,0.02142
1091.65,0.02208
1085.87,0.02204
1080.08,0.02231
1074.3,0.02382
1068.51,0.02408
1062.72,0.02382
1056.94,0.02380
1051.15,0.02379
1045.37,0.02339
1039.58,0.02231
1033.79,0.02234
1028.01,0.02315
1022.22,0.02258
1016.43,0.02329
1010.65,0.02372
1004.86,0.02424
999.076,0.02441
993.29,0.02392
987.504,0.02451
981.717,0.02440
975.931,0.02386
970.145,0.02318
964.359,0.02346
958.573,0.02358
952.787,0.02365
947,0.02263
941.214,0.02256
935.428,0.02305
929.642,0.02256
923.856,0.02248
918.07,0.02252
912.284,0.02248
906.497,0.02227
900.711,0.02206
894.925,0.02284
889.139,0.02211
883.353,0.02202
877.567,0.02175
871.78,0.02207
865.994,0.02142
860.208,0.02155
854.422,0.02150
848.636,0.02154
842.85,0.02194
837.064,0.02039
831.277,0.02139
825.491,0.02122
819.705,0.02119
813.919,0.02079
808.133,0.02091
802.347,0.02164
796.56,0.02087
790.774,0.02131
784.988,0.02104
779.202,0.02081
773.416,0.02049
767.63,0.02001
761.844,0.01994
756.057,0.01903
750.271,0.02046
744.485,0.02001
738.699,0.02053
732.913,0.02034
727.127,0.01926
721.34,0.02013
715.554,0.01982
709.768,0.01923
703.982,0.01929
698.196,0.01965
692.41,0.01890
686.624,0.01832
680.837,0.01808
675.051,0.01863
669.265,0.01856
663.479,0.01722
657.693,0.01858
651.907,0.01834
646.12,0.01891
640.334,0.01941
634.548,0.01843
628.762,0.01845
622.976,0.01780
617.19,0.01913
611.404,0.01923
605.617,0.02018
599.831,0.02059