File: 01_Data/PEVA/FTIR/IS/PEVA_0.26_IS_S_240809_R4.dpt
7497.2,0.10839
7491.41,0.09772
7485.63,0.10304
7479.84,0.10114
7474.05,0.10054
7468.27,0.11881
7462.48,0.08861
7456.7,0.11005
7450.91,0.09305
7445.12,0.10744
7439.34,0.10337
7433.55,0.09684
7427.76,0.09581
7421.98,0.10347
7416.19,0.10459
7410.4,0.09950
7404.62,0.09818
7398.83,0.09999
7393.05,0.10020
7387.26,0.10026
7381.47,0.11213
7375.69,0.10357
7369.9,0.09112
7364.11,0.10100
7358.33,0.10470
7352.54,0.10491
7346.75,0.11652
7340.97,0.09847
7335.18,0.11007
7329.4,0.10364
7323.61,0.08719
7317.82,0.10223
7312.04,0.10624
7306.25,0.10418
7300.46,0.10277
7294.68,0.10406
7288.89,0.11354
7283.1,0.10496
7277.32,0.10101
7271.53,0.10185
7265.75,0.10263
7259.96,0.09913
7254.17,0.09579
7248.39,0.10091
7242.6,0.09650
7236.81,0.10526
7231.03,0.10081
7225.24,0.09558
7219.45,0.10084
7213.67,0.09685
7207.88,0.11683
7202.1,0.09311
7196.31,0.09982
7190.52,0.09558
7184.74,0.09541
7178.95,0.10046
7173.16,0.09577
7167.38,0.09529
7161.59,0.09650
7155.8,0.10582
7150.02,0.10691
7144.23,0.10342
7138.45,0.10165
7132.66,0.09982
7126.87,0.10407
7121.09,0.09448
7115.3,0.09849
7109.51,0.09639
7103.73,0.10209
7097.94,0.09907
7092.15,0.10405
7086.37,0.10023
7080.58,0.10297
7074.8,0.10188
7069.01,0.10002
7063.22,0.10154
7057.44,0.10688
7051.65,0.09771
7045.86,0.10511
7040.08,0.10420
7034.29,0.10782
7028.5,0.10184
7022.72,0.09961
7016.93,0.09966
7011.15,0.09744
7005.36,0.10867
6999.57,0.09616
6993.79,0.09800
6988,0.10715
6982.21,0.09479
6976.43,0.09620
6970.64,0.09996
6964.85,0.09788
6959.07,0.09430
6953.28,0.10283
6947.5,0.10411
6941.71,0.09282
6935.92,0.09887
6930.14,0.09813
6924.35,0.10524
6918.56,0.09994
6912.78,0.10447
6906.99,0.10177
6901.2,0.10859
6895.42,0.10709
6889.63,0.10630
6883.85,0.10463
6878.06,0.10045
6872.27,0.10046
6866.49,0.09311
6860.7,0.10149
6854.91,0.10479
6849.13,0.10819
6843.34,0.10343
6837.55,0.09579
6831.77,0.09818
6825.98,0.09903
6820.2,0.10475
6814.41,0.10742
6808.62,0.10458
6802.84,0.10574
6797.05,0.10180
6791.26,0.09796
6785.48,0.10221
6779.69,0.10621
6773.9,0.10460
6768.12,0.10377
6762.33,0.10528
6756.55,0.10211
6750.76,0.09763
6744.97,0.10250
6739.19,0.09581
6733.4,0.10557
6727.61,0.10064
6721.83,0.10030
6716.04,0.10705
6710.25,0.10159
6704.47,0.10107
6698.68,0.10075
6692.9,0.10104
6687.11,0.10311
6681.32,0.09947
6675.54,0.10489
6669.75,0.10830
6663.96,0.10463
6658.18,0.10338
6652.39,0.09802
6646.6,0.10197
6640.82,0.09852
6635.03,0.10336
6629.25,0.10352
6623.46,0.10106
6617.67,0.10282
6611.89,0.10047
6606.1,0.10297
6600.31,0.09569
6594.53,0.10308
6588.74,0.10501
6582.95,0.10085
6577.17,0.10188
6571.38,0.10401
6565.6,0.10262
6559.81,0.10016
6554.02,0.10320
6548.24,0.10117
6542.45,0.10154
6536.66,0.10460
6530.88,0.10401
6525.09,0.09742
6519.3,0.10314
6513.52,0.10213
6507.73,0.10331
6501.95,0.10680
6496.16,0.10168
6490.37,0.10084
6484.59,0.10256
6478.8,0.10506
6473.01,0.10433
6467.23,0.10570
6461.44,0.10105
6455.65,0.10190
6449.87,0.10247
6444.08,0.10364
6438.3,0.10258
6432.51,0.10084
6426.72,0.09921
6420.94,0.09564
6415.15,0.10658
6409.36,0.09961
6403.58,0.10462
6397.79,0.11003
6392,0.10310
6386.22,0.10250
6380.43,0.10076
6374.65,0.10132
6368.86,0.10548
6363.07,0.10175
6357.29,0.10209
6351.5,0.10490
6345.71,0.10238
6339.93,0.10344
6334.14,0.10211
6328.35,0.10163
6322.57,0.09912
6316.78,0.10229
6310.99,0.09939
6305.21,0.10264
6299.42,0.09711
6293.64,0.09985
6287.85,0.10341
6282.06,0.10279
6276.28,0.10463
6270.49,0.10072
6264.7,0.10085
6258.92,0.10182
6253.13,0.09619
6247.34,0.09995
6241.56,0.10232
6235.77,0.10347
6229.99,0.10359
6224.2,0.09964
6218.41,0.09638
6212.63,0.10226
6206.84,0.10229
6201.05,0.10107
6195.27,0.10305
6189.48,0.10227
6183.69,0.09817
6177.91,0.10029
6172.12,0.10338
6166.34,0.10126
6160.55,0.10108
6154.76,0.10359
6148.98,0.10011
6143.19,0.10363
6137.4,0.10101
6131.62,0.10270
6125.83,0.10270
6120.04,0.10121
6114.26,0.10442
6108.47,0.10336
6102.69,0.10182
6096.9,0.10107
6091.11,0.10074
6085.33,0.10196
6079.54,0.09892
6073.75,0.09855
6067.97,0.09983
6062.18,0.10260
6056.39,0.10170
6050.61,0.09935
6044.82,0.10058
6039.04,0.09987
6033.25,0.10067
6027.46,0.10034
6021.68,0.09770
6015.89,0.09899
6010.1,0.09753
6004.32,0.09691
5998.53,0.09936
5992.74,0.10157
5986.96,0.09852
5981.17,0.09779
5975.39,0.09642
5969.6,0.10062
5963.81,0.10052
5958.03,0.09961
5952.24,0.10147
5946.45,0.09636
5940.67,0.09645
5934.88,0.09626
5929.09,0.09829
5923.31,0.09782
5917.52,0.09753
5911.74,0.09361
5905.95,0.09445
5900.16,0.09794
5894.38,0.09250
5888.59,0.09530
5882.8,0.09229
5877.02,0.08898
5871.23,0.09229
5865.44,0.09125
5859.66,0.08954
5853.87,0.08930
5848.09,0.08817
5842.3,0.08803
5836.51,0.08866
5830.73,0.08673
5824.94,0.08607
5819.15,0.08683
5813.37,0.08750
5807.58,0.08996
5801.79,0.09348
5796.01,0.09190
5790.22,0.08993
5784.44,0.09148
5778.65,0.09307
5772.86,0.09015
5767.08,0.09235
5761.29,0.09329
5755.5,0.09248
5749.72,0.09276
5743.93,0.09229
5738.14,0.09442
5732.36,0.09088
5726.57,0.09304
5720.79,0.09396
5715,0.09245
5709.21,0.09335
5703.43,0.09111
5697.64,0.09354
5691.85,0.09488
5686.07,0.09352
5680.28,0.09547
5674.49,0.09414
5668.71,0.09733
5662.92,0.09598
5657.14,0.09845
5651.35,0.09764
5645.56,0.09647
5639.78,0.09665
5633.99,0.09799
5628.2,0.09714
5622.42,0.09908
5616.63,0.09872
5610.84,0.09753
5605.06,0.09710
5599.27,0.09789
5593.49,0.09606
5587.7,0.09786
5581.91,0.09693
5576.13,0.09844
5570.34,0.10010
5564.55,0.09937
5558.77,0.09712
5552.98,0.09752
5547.19,0.09926
5541.41,0.09994
5535.62,0.09858
5529.84,0.09869
5524.05,0.09932
5518.26,0.09809
5512.48,0.09985
5506.69,0.09953
5500.9,0.09897
5495.12,0.09902
5489.33,0.09989
5483.54,0.10060
5477.76,0.10058
5471.97,0.09972
5466.19,0.10163
5460.4,0.10087
5454.61,0.09899
5448.83,0.09813
5443.04,0.10105
5437.25,0.09962
5431.47,0.09934
5425.68,0.10077
5419.89,0.10051
5414.11,0.09894
5408.32,0.09894
5402.54,0.09929
5396.75,0.10019
5390.96,0.10031
5385.18,0.10115
5379.39,0.09845
5373.6,0.10117
5367.82,0.10087
5362.03,0.10021
5356.24,0.10070
5350.46,0.10081
5344.67,0.09994
5338.89,0.10205
5333.1,0.10018
5327.31,0.10062
5321.53,0.10161
5315.74,0.10233
5309.95,0.09973
5304.17,0.10163
5298.38,0.10297
5292.59,0.10154
5286.81,0.10055
5281.02,0.10201
5275.24,0.10135
5269.45,0.10278
5263.66,0.10046
5257.88,0.10250
5252.09,0.10311
5246.3,0.10356
5240.52,0.10196
5234.73,0.10237
5228.94,0.10151
5223.16,0.10093
5217.37,0.10182
5211.59,0.10038
5205.8,0.10138
5200.01,0.10192
5194.23,0.10121
5188.44,0.10315
5182.65,0.10211
5176.87,0.10156
5171.08,0.10245
5165.29,0.10016
5159.51,0.10185
5153.72,0.10250
5147.94,0.10327
5142.15,0.10075
5136.36,0.10285
5130.58,0.10211
5124.79,0.10244
5119,0.10306
5113.22,0.10119
5107.43,0.10190
5101.64,0.10218
5095.86,0.10319
5090.07,0.10320
5084.29,0.10379
5078.5,0.10417
5072.71,0.10354
5066.93,0.10142
5061.14,0.10205
5055.35,0.10298
5049.57,0.10165
5043.78,0.10231
5037.99,0.10252
5032.21,0.10363
5026.42,0.10304
5020.64,0.10194
5014.85,0.10208
5009.06,0.10262
5003.28,0.10280
4997.49,0.10273
4991.7,0.10230
4985.92,0.10185
4980.13,0.10156
4974.34,0.10318
4968.56,0.10255
4962.77,0.10094
4956.99,0.10382
4951.2,0.10312
4945.41,0.10181
4939.63,0.10278
4933.84,0.10452
4928.05,0.10340
4922.27,0.10185
4916.48,0.10370
4910.69,0.10366
4904.91,0.10154
4899.12,0.10254
4893.34,0.10402
4887.55,0.10237
4881.76,0.10378
4875.98,0.10374
4870.19,0.10147
4864.4,0.10243
4858.62,0.10364
4852.83,0.10258
4847.04,0.10354
4841.26,0.10370
4835.47,0.10360
4829.69,0.10358
4823.9,0.10333
4818.11,0.10169
4812.33,0.10187
4806.54,0.10305
4800.75,0.10323
4794.97,0.10319
4789.18,0.10318
4783.39,0.10257
4777.61,0.10326
4771.82,0.10311
4766.04,0.10291
4760.25,0.10318
4754.46,0.10310
4748.68,0.10387
4742.89,0.10365
4737.1,0.10313
4731.32,0.10318
4725.53,0.10330
4719.74,0.10307
4713.96,0.10179
4708.17,0.10229
4702.39,0.10103
4696.6,0.10168
4690.81,0.10050
4685.03,0.10009
4679.24,0.10041
4673.45,0.10053
4667.67,0.10121
4661.88,0.10093
4656.09,0.10043
4650.31,0.10079
4644.52,0.10119
4638.74,0.09979
4632.95,0.09915
4627.16,0.10008
4621.38,0.10105
4615.59,0.10146
4609.8,0.10250
4604.02,0.10247
4598.23,0.10134
4592.44,0.10139
4586.66,0.10148
4580.87,0.10163
4575.09,0.10103
4569.3,0.10242
4563.51,0.10191
4557.73,0.10219
4551.94,0.10234
4546.15,0.10113
4540.37,0.10148
4534.58,0.10209
4528.79,0.10189
4523.01,0.10144
4517.22,0.10064
4511.44,0.10070
4505.65,0.10103
4499.86,0.10026
4494.08,0.10054
4488.29,0.10009
4482.5,0.09898
4476.72,0.09976
4470.93,0.09871
4465.14,0.09863
4459.36,0.09793
4453.57,0.09716
4447.79,0.09619
4442,0.09353
4436.21,0.09250
4430.43,0.09008
4424.64,0.08784
4418.85,0.08619
4413.07,0.08439
4407.28,0.08273
4401.49,0.08120
4395.71,0.08145
4389.92,0.08041
4384.14,0.07888
4378.35,0.07834
4372.56,0.07672
4366.78,0.07471
4360.99,0.07358
4355.2,0.07227
4349.42,0.07089
4343.63,0.06883
4337.84,0.06799
4332.06,0.06799
4326.27,0.06958
4320.49,0.07136
4314.7,0.07185
4308.91,0.07223
4303.13,0.07292
4297.34,0.07382
4291.55,0.07374
4285.77,0.07307
4279.98,0.07237
4274.19,0.07321
4268.41,0.07376
4262.62,0.07344
4256.84,0.07415
4251.05,0.07380
4245.26,0.07326
4239.48,0.07371
4233.69,0.07433
4227.9,0.07439
4222.12,0.07314
4216.33,0.07263
4210.54,0.07314
4204.76,0.07335
4198.97,0.07400
4193.19,0.07482
4187.4,0.07494
4181.61,0.07478
4175.83,0.07475
4170.04,0.07451
4164.25,0.07432
4158.47,0.07540
4152.68,0.07691
4146.89,0.07754
4141.11,0.07821
4135.32,0.07889
4129.54,0.08008
4123.75,0.07910
4117.96,0.07990
4112.18,0.07895
4106.39,0.07879
4100.6,0.07880
4094.82,0.07805
4089.03,0.07595
4083.24,0.07526
4077.46,0.07570
4071.67,0.07656
4065.89,0.07814
4060.1,0.08044
4054.31,0.08165
4048.53,0.08195
4042.74,0.08189
4036.95,0.08225
4031.17,0.08278
4025.38,0.08249
4019.59,0.08293
4013.81,0.08339
4008.02,0.08356
4002.24,0.08430
3996.45,0.08448
3990.66,0.08579
3984.88,0.08641
3979.09,0.08684
3973.3,0.08725
3967.52,0.08744
3961.73,0.08769
3955.94,0.08789
3950.16,0.08784
3944.37,0.08758
3938.59,0.08774
3932.8,0.08833
3927.01,0.08795
3921.23,0.08751
3915.44,0.08797
3909.65,0.08830
3903.87,0.08821
3898.08,0.08864
3892.29,0.08902
3886.51,0.08906
3880.72,0.08913
3874.94,0.08943
3869.15,0.08828
3863.36,0.08991
3857.58,0.09015
3851.79,0.08820
3846,0.08991
3840.22,0.08945
3834.43,0.08963
3828.64,0.09013
3822.86,0.09102
3817.07,0.09032
3811.29,0.09106
3805.5,0.09156
3799.71,0.09011
3793.93,0.09160
3788.14,0.09275
3782.35,0.09265
3776.57,0.09212
3770.78,0.09292
3764.99,0.09248
3759.21,0.09174
3753.42,0.09168
3747.64,0.09213
3741.85,0.09275
3736.06,0.09252
3730.28,0.09313
3724.49,0.09304
3718.7,0.09369
3712.92,0.09384
3707.13,0.09280
3701.34,0.09127
3695.56,0.09062
3689.77,0.08727
3683.99,0.08672
3678.2,0.08613
3672.41,0.08696
3666.63,0.08651
3660.84,0.08681
3655.05,0.08671
3649.27,0.08739
3643.48,0.08760
3637.69,0.08687
3631.91,0.08663
3626.12,0.08561
3620.34,0.08489
3614.55,0.08399
3608.76,0.08427
3602.98,0.08407
3597.19,0.08261
3591.4,0.08243
3585.62,0.08168
3579.83,0.08093
3574.04,0.08071
3568.26,0.07930
3562.47,0.07816
3556.69,0.07802
3550.9,0.07686
3545.11,0.07679
3539.33,0.07713
3533.54,0.07669
3527.75,0.07604
3521.97,0.07666
3516.18,0.07593
3510.39,0.07484
3504.61,0.07499
3498.82,0.07412
3493.04,0.07323
3487.25,0.07318
3481.46,0.07145
3475.68,0.07042
3469.89,0.07082
3464.1,0.07026
3458.32,0.06869
3452.53,0.06852
3446.74,0.06797
3440.96,0.06679
3435.17,0.06662
3429.39,0.06499
3423.6,0.06437
3417.81,0.06448
3412.03,0.06551
3406.24,0.06702
3400.45,0.06888
3394.67,0.06930
3388.88,0.07017
3383.09,0.07135
3377.31,0.07131
3371.52,0.07194
3365.74,0.07226
3359.95,0.07251
3354.16,0.07391
3348.38,0.07300
3342.59,0.07275
3336.8,0.07171
3331.02,0.07212
3325.23,0.07134
3319.44,0.07098
3313.66,0.06948
3307.87,0.06602
3302.09,0.06452
3296.3,0.06588
3290.51,0.06722
3284.73,0.07015
3278.94,0.07262
3273.15,0.07416
3267.37,0.07533
3261.58,0.07622
3255.79,0.07626
3250.01,0.07629
3244.22,0.07613
3238.44,0.07682
3232.65,0.07594
3226.86,0.07606
3221.08,0.07602
3215.29,0.07600
3209.5,0.07557
3203.72,0.07446
3197.93,0.07466
3192.14,0.07528
3186.36,0.07506
3180.57,0.07571
3174.79,0.07504
3169,0.07517
3163.21,0.07581
3157.43,0.07495
3151.64,0.07447
3145.85,0.07381
3140.07,0.07374
3134.28,0.07320
3128.49,0.07273
3122.71,0.07248
3116.92,0.07180
3111.14,0.07043
3105.35,0.06974
3099.56,0.06814
3093.78,0.06759
3087.99,0.06646
3082.2,0.06520
3076.42,0.06534
3070.63,0.06460
3064.84,0.06360
3059.06,0.06341
3053.27,0.06306
3047.49,0.06295
3041.7,0.06311
3035.91,0.06210
3030.13,0.06109
3024.34,0.06068
3018.55,0.05959
3012.77,0.05920
3006.98,0.05853
3001.19,0.05809
2995.41,0.05755
2989.62,0.05750
2983.84,0.05676
2978.05,0.05632
2972.26,0.05595
2966.48,0.05703
2960.69,0.05860
2954.9,0.06044
2949.12,0.05995
2943.33,0.05984
2937.54,0.05931
2931.76,0.06024
2925.97,0.06175
2920.19,0.06248
2914.4,0.06261
2908.61,0.06296
2902.83,0.06322
2897.04,0.06303
2891.25,0.06278
2885.47,0.06237
2879.68,0.06192
2873.89,0.06239
2868.11,0.06246
2862.32,0.06309
2856.54,0.06341
2850.75,0.06354
2844.96,0.06393
2839.18,0.06310
2833.39,0.06271
2827.6,0.06280
2821.82,0.06287
2816.03,0.06320
2810.24,0.06279
2804.46,0.06369
2798.67,0.06504
2792.89,0.06574
2787.1,0.06626
2781.31,0.06750
2775.53,0.06830
2769.74,0.06865
2763.95,0.06869
2758.17,0.06933
2752.38,0.06844
2746.59,0.06795
2740.81,0.06744
2735.02,0.06683
2729.24,0.06722
2723.45,0.06895
2717.66,0.07032
2711.88,0.07136
2706.09,0.07165
2700.3,0.07237
2694.52,0.07280
2688.73,0.07279
2682.94,0.07271
2677.16,0.07227
2671.37,0.07260
2665.59,0.07253
2659.8,0.07352
2654.01,0.07480
2648.23,0.07513
2642.44,0.07508
2636.65,0.07442
2630.87,0.07403
2625.08,0.07369
2619.29,0.07332
2613.51,0.07345
2607.72,0.07437
2601.94,0.07378
2596.15,0.07347
2590.36,0.07332
2584.58,0.07312
2578.79,0.07345
2573,0.07336
2567.22,0.07427
2561.43,0.07336
2555.64,0.07451
2549.86,0.07474
2544.07,0.07533
2538.29,0.07571
2532.5,0.07578
2526.71,0.07580
2520.93,0.07640
2515.14,0.07751
2509.35,0.07795
2503.57,0.07889
2497.78,0.07893
2491.99,0.07982
2486.21,0.07968
2480.42,0.08010
2474.64,0.07987
2468.85,0.08074
2463.06,0.08072
2457.28,0.08150
2451.49,0.08071
2445.7,0.08009
2439.92,0.08037
2434.13,0.07911
2428.34,0.07919
2422.56,0.07814
2416.77,0.07737
2410.99,0.07703
2405.2,0.07622
2399.41,0.07583
2393.63,0.07520
2387.84,0.07508
2382.05,0.07446
2376.27,0.07456
2370.48,0.07522
2364.69,0.07640
2358.91,0.07708
2353.12,0.07762
2347.34,0.07892
2341.55,0.08054
2335.76,0.08131
2329.98,0.08164
2324.19,0.08206
2318.4,0.08204
2312.62,0.08276
2306.83,0.08256
2301.04,0.08314
2295.26,0.08139
2289.47,0.08089
2283.69,0.07956
2277.9,0.07889
2272.11,0.07943
2266.33,0.08046
2260.54,0.08052
2254.75,0.08062
2248.97,0.08092
2243.18,0.08084
2237.39,0.08071
2231.61,0.08032
2225.82,0.08086
2220.04,0.08109
2214.25,0.08144
2208.46,0.08168
2202.68,0.08276
2196.89,0.08407
2191.1,0.08368
2185.32,0.08476
2179.53,0.08488
2173.74,0.08539
2167.96,0.08467
2162.17,0.08479
2156.39,0.08446
2150.6,0.08480
2144.81,0.08449
2139.03,0.08414
2133.24,0.08394
2127.45,0.08381
2121.67,0.08387
2115.88,0.08305
2110.09,0.08363
2104.31,0.08299
2098.52,0.08349
2092.74,0.08266
2086.95,0.08226
2081.16,0.08204
2075.38,0.08184
2069.59,0.08164
2063.8,0.08186
2058.02,0.08254
2052.23,0.08254
2046.44,0.08352
2040.66,0.08322
2034.87,0.08384
2029.09,0.08367
2023.3,0.08419
2017.51,0.08431
2011.73,0.08476
2005.94,0.08471
2000.15,0.08434
1994.37,0.08386
1988.58,0.08194
1982.79,0.08240
1977.01,0.08106
1971.22,0.08102
1965.44,0.07816
1959.65,0.07629
1953.86,0.07256
1948.08,0.07157
1942.29,0.07347
1936.5,0.07542
1930.72,0.07791
1924.93,0.07903
1919.14,0.07993
1913.36,0.08006
1907.57,0.08073
1901.79,0.08034
1896,0.08081
1890.21,0.08001
1884.43,0.08089
1878.64,0.08046
1872.85,0.08107
1867.07,0.07967
1861.28,0.07909
1855.49,0.07773
1849.71,0.07649
1843.92,0.07401
1838.14,0.07249
1832.35,0.06953
1826.56,0.06664
1820.78,0.06574
1814.99,0.06658
1809.2,0.06707
1803.42,0.06673
1797.63,0.06533
1791.84,0.06388
1786.06,0.06223
1780.27,0.06121
1774.49,0.05978
1768.7,0.05809
1762.91,0.05647
1757.13,0.05516
1751.34,0.05412
1745.55,0.05268
1739.77,0.05107
1733.98,0.04979
1728.19,0.05189
1722.41,0.05829
1716.62,0.06677
1710.84,0.07030
1705.05,0.06779
1699.26,0.06517
1693.48,0.06240
1687.69,0.06148
1681.9,0.06055
1676.12,0.06085
1670.33,0.06011
1664.54,0.06169
1658.76,0.06288
1652.97,0.06220
1647.19,0.06276
1641.4,0.06065
1635.61,0.06064
1629.83,0.06272
1624.04,0.06405
1618.25,0.06366
1612.47,0.06216
1606.68,0.06319
1600.89,0.06463
1595.11,0.06445
1589.32,0.06368
1583.54,0.06068
1577.75,0.05828
1571.96,0.05867
1566.18,0.05984
1560.39,0.06010
1554.6,0.06051
1548.82,0.06052
1543.03,0.05966
1537.24,0.05930
1531.46,0.05989
1525.67,0.05990
1519.89,0.06003
1514.1,0.05894
1508.31,0.05780
1502.53,0.05672
1496.74,0.05764
1490.95,0.05744
1485.17,0.05577
1479.38,0.05473
1473.59,0.05433
1467.81,0.05437
1462.02,0.05619
1456.24,0.05718
1450.45,0.05661
1444.66,0.05562
1438.88,0.05496
1433.09,0.05562
1427.3,0.05605
1421.52,0.05691
1415.73,0.05608
1409.94,0.05628
1404.16,0.05718
1398.37,0.05581
1392.59,0.05502
1386.8,0.05476
1381.01,0.05551
1375.23,0.05667
1369.44,0.05604
1363.65,0.05527
1357.87,0.05448
1352.08,0.05405
1346.29,0.05362
1340.51,0.05295
1334.72,0.05325
1328.94,0.05336
1323.15,0.05318
1317.36,0.05306
1311.58,0.05207
1305.79,0.05137
1300,0.05026
1294.22,0.04821
1288.43,0.04668
1282.64,0.04774
1276.86,0.05401
1271.07,0.06652
1265.29,0.07348
1259.5,0.07031
1253.71,0.06965
1247.93,0.07326
1242.14,0.07454
1236.35,0.07198
1230.57,0.06997
1224.78,0.06850
1218.99,0.06632
1213.21,0.06540
1207.42,0.06437
1201.64,0.06360
1195.85,0.06327
1190.06,0.06239
1184.28,0.06154
1178.49,0.06094
1172.7,0.06027
1166.92,0.05942
1161.13,0.05941
1155.34,0.05893
1149.56,0.05851
1143.77,0.05707
1137.99,0.05606
1132.2,0.05415
1126.41,0.05372
1120.63,0.05920
1114.84,0.06534
1109.05,0.06545
1103.27,0.06854
1097.48,0.07197
1091.69,0.06949
1085.91,0.06757
1080.12,0.06739
1074.34,0.06621
1068.55,0.06626
1062.76,0.06557
1056.98,0.06458
1051.19,0.06427
1045.4,0.06327
1039.62,0.06234
1033.83,0.06143
1028.04,0.06071
1022.26,0.06032
1016.47,0.06556
1010.69,0.06388
1004.9,0.06290
999.112,0.06187
993.326,0.06124
987.54,0.06172
981.753,0.06093
975.967,0.06132
970.18,0.06111
964.394,0.06199
958.608,0.06318
952.821,0.06378
947.035,0.06433
941.249,0.06468
935.462,0.06424
929.676,0.06350
923.89,0.06351
918.103,0.06356
912.317,0.06313
906.53,0.06265
900.744,0.06272
894.958,0.06298
889.171,0.06246
883.385,0.06208
877.599,0.06195
871.812,0.06310
866.026,0.06356
860.24,0.06164
854.453,0.06279
848.667,0.06162
842.88,0.06158
837.094,0.06192
831.308,0.06156
825.521,0.06201
819.735,0.06245
813.949,0.06264
808.162,0.06297
802.376,0.06143
796.59,0.06172
790.803,0.06082
785.017,0.06086
779.23,0.06042
773.444,0.06067
767.658,0.06008
761.871,0.06102
756.085,0.05927
750.299,0.05792
744.512,0.05557
738.726,0.05247
732.94,0.05954
727.153,0.07015
721.367,0.06435
715.58,0.06159
709.794,0.05958
704.008,0.05880
698.221,0.06012
692.435,0.06033
686.649,0.05884
680.862,0.05962
675.076,0.06054
669.29,0.06007
663.503,0.05941
657.717,0.05694
651.93,0.05684
646.144,0.05717
640.358,0.05873
634.571,0.06037
628.785,0.06099
622.999,0.06025
617.212,0.06126
611.426,0.06134
605.639,0.06636
599.853,0.06533