File: 01_Data/PEVA/FTIR/IS/PEVA_0.18_IS_T_240809_R2.dpt
7497.33,0.04819
7491.55,0.04036
7485.76,0.04288
7479.97,0.05709
7474.19,0.03647
7468.4,0.03899
7462.61,0.02340
7456.83,0.02206
7451.04,0.03830
7445.26,0.03800
7439.47,0.02594
7433.68,0.03097
7427.9,0.03756
7422.11,0.04241
7416.32,0.03753
7410.54,0.02310
7404.75,0.02701
7398.96,0.04428
7393.18,0.03038
7387.39,0.04058
7381.6,0.03749
7375.82,0.02413
7370.03,0.02707
7364.24,0.01976
7358.46,0.03830
7352.67,0.03108
7346.89,0.03417
7341.1,0.02740
7335.31,0.03203
7329.53,0.03539
7323.74,0.03641
7317.95,0.03237
7312.17,0.03878
7306.38,0.03144
7300.59,0.02805
7294.81,0.03016
7289.02,0.03057
7283.23,0.03084
7277.45,0.03712
7271.66,0.03217
7265.87,0.03882
7260.09,0.04286
7254.3,0.03450
7248.52,0.02841
7242.73,0.03017
7236.94,0.03297
7231.16,0.03762
7225.37,0.03801
7219.58,0.03453
7213.8,0.03632
7208.01,0.03727
7202.22,0.03813
7196.44,0.02050
7190.65,0.03441
7184.86,0.03851
7179.08,0.03960
7173.29,0.02796
7167.5,0.02780
7161.72,0.03110
7155.93,0.02916
7150.15,0.03012
7144.36,0.02918
7138.57,0.03977
7132.79,0.04195
7127,0.02772
7121.21,0.02230
7115.43,0.02983
7109.64,0.02449
7103.85,0.03309
7098.07,0.03050
7092.28,0.02533
7086.49,0.03258
7080.71,0.02863
7074.92,0.02659
7069.13,0.02801
7063.35,0.03203
7057.56,0.03249
7051.78,0.03028
7045.99,0.03319
7040.2,0.03661
7034.42,0.02820
7028.63,0.03249
7022.84,0.02878
7017.06,0.03332
7011.27,0.02657
7005.48,0.03314
6999.7,0.02946
6993.91,0.04281
6988.12,0.03557
6982.34,0.03576
6976.55,0.02775
6970.76,0.02453
6964.98,0.04123
6959.19,0.03632
6953.41,0.03314
6947.62,0.03382
6941.83,0.03090
6936.05,0.03259
6930.26,0.03649
6924.47,0.03542
6918.69,0.04366
6912.9,0.02372
6907.11,0.03447
6901.33,0.03523
6895.54,0.03547
6889.75,0.03509
6883.97,0.03004
6878.18,0.03320
6872.39,0.03466
6866.61,0.02728
6860.82,0.02660
6855.04,0.03038
6849.25,0.03268
6843.46,0.03301
6837.68,0.03121
6831.89,0.03318
6826.1,0.03679
6820.32,0.03127
6814.53,0.03267
6808.74,0.03466
6802.96,0.02484
6797.17,0.03625
6791.38,0.03004
6785.6,0.03160
6779.81,0.03131
6774.03,0.03364
6768.24,0.02760
6762.45,0.02965
6756.67,0.02909
6750.88,0.03048
6745.09,0.03641
6739.31,0.03074
6733.52,0.03871
6727.73,0.02620
6721.95,0.03205
6716.16,0.03636
6710.37,0.03407
6704.59,0.02411
6698.8,0.02812
6693.01,0.02993
6687.23,0.03176
6681.44,0.03034
6675.66,0.02779
6669.87,0.03547
6664.08,0.03398
6658.3,0.03088
6652.51,0.03760
6646.72,0.03018
6640.94,0.02768
6635.15,0.02846
6629.36,0.02756
6623.58,0.02715
6617.79,0.03885
6612,0.03618
6606.22,0.03964
6600.43,0.03710
6594.64,0.02902
6588.86,0.03328
6583.07,0.02850
6577.29,0.03158
6571.5,0.02786
6565.71,0.03140
6559.93,0.03745
6554.14,0.02837
6548.35,0.03183
6542.57,0.02700
6536.78,0.03238
6530.99,0.03018
6525.21,0.02453
6519.42,0.03121
6513.63,0.02960
6507.85,0.03086
6502.06,0.03279
6496.27,0.03324
6490.49,0.03191
6484.7,0.03411
6478.92,0.03701
6473.13,0.02883
6467.34,0.03429
6461.56,0.03048
6455.77,0.03080
6449.98,0.03370
6444.2,0.03223
6438.41,0.02803
6432.62,0.03488
6426.84,0.02801
6421.05,0.03089
6415.26,0.03370
6409.48,0.03099
6403.69,0.02995
6397.9,0.03125
6392.12,0.02895
6386.33,0.02727
6380.55,0.02996
6374.76,0.03134
6368.97,0.02813
6363.19,0.02908
6357.4,0.02904
6351.61,0.03003
6345.83,0.03474
6340.04,0.03694
6334.25,0.03324
6328.47,0.03557
6322.68,0.02842
6316.89,0.02946
6311.11,0.03139
6305.32,0.03318
6299.53,0.03165
6293.75,0.03277
6287.96,0.02773
6282.18,0.02945
6276.39,0.03214
6270.6,0.02832
6264.82,0.02989
6259.03,0.02716
6253.24,0.02887
6247.46,0.02962
6241.67,0.03251
6235.88,0.03068
6230.1,0.03110
6224.31,0.03325
6218.52,0.03263
6212.74,0.03430
6206.95,0.02448
6201.16,0.02588
6195.38,0.03538
6189.59,0.03444
6183.81,0.03346
6178.02,0.03051
6172.23,0.02792
6166.45,0.03096
6160.66,0.03056
6154.87,0.03209
6149.09,0.03182
6143.3,0.03049
6137.51,0.02966
6131.73,0.02912
6125.94,0.03250
6120.15,0.02883
6114.37,0.02901
6108.58,0.03076
6102.79,0.02762
6097.01,0.02966
6091.22,0.02860
6085.44,0.02579
6079.65,0.02789
6073.86,0.02789
6068.08,0.02863
6062.29,0.02819
6056.5,0.02661
6050.72,0.03358
6044.93,0.03020
6039.14,0.02968
6033.36,0.03244
6027.57,0.02997
6021.78,0.03250
6016,0.02702
6010.21,0.02907
6004.42,0.02597
5998.64,0.02690
5992.85,0.03158
5987.07,0.02997
5981.28,0.02445
5975.49,0.02565
5969.71,0.03033
5963.92,0.03175
5958.13,0.03081
5952.35,0.03060
5946.56,0.03245
5940.77,0.02846
5934.99,0.02885
5929.2,0.02782
5923.41,0.02736
5917.63,0.03147
5911.84,0.03053
5906.05,0.03295
5900.27,0.03044
5894.48,0.03030
5888.7,0.03077
5882.91,0.03102
5877.12,0.03116
5871.34,0.03152
5865.55,0.02801
5859.76,0.02926
5853.98,0.03132
5848.19,0.02877
5842.4,0.02942
5836.62,0.03351
5830.83,0.03245
5825.04,0.03347
5819.26,0.02935
5813.47,0.02987
5807.68,0.02753
5801.9,0.02590
5796.11,0.02871
5790.33,0.02896
5784.54,0.03089
5778.75,0.02968
5772.97,0.02743
5767.18,0.02965
5761.39,0.03153
5755.61,0.03036
5749.82,0.03062
5744.03,0.02859
5738.25,0.03107
5732.46,0.02893
5726.67,0.02878
5720.89,0.03015
5715.1,0.02768
5709.31,0.03199
5703.53,0.02766
5697.74,0.03051
5691.96,0.03011
5686.17,0.03234
5680.38,0.03301
5674.6,0.02997
5668.81,0.03124
5663.02,0.02980
5657.24,0.03322
5651.45,0.03197
5645.66,0.02938
5639.88,0.03058
5634.09,0.03314
5628.3,0.03042
5622.52,0.03068
5616.73,0.02988
5610.94,0.03039
5605.16,0.03100
5599.37,0.02996
5593.59,0.02976
5587.8,0.03069
5582.01,0.03436
5576.23,0.02862
5570.44,0.03036
5564.65,0.02940
5558.87,0.03008
5553.08,0.03001
5547.29,0.03155
5541.51,0.02976
5535.72,0.03037
5529.93,0.03122
5524.15,0.02872
5518.36,0.02877
5512.58,0.03310
5506.79,0.03144
5501,0.03256
5495.22,0.03144
5489.43,0.03457
5483.64,0.03091
5477.86,0.03029
5472.07,0.02833
5466.28,0.02743
5460.5,0.03065
5454.71,0.03227
5448.92,0.03063
5443.14,0.03143
5437.35,0.03110
5431.56,0.02993
5425.78,0.02957
5419.99,0.02650
5414.21,0.02731
5408.42,0.03098
5402.63,0.02867
5396.85,0.03092
5391.06,0.03089
5385.27,0.03141
5379.49,0.02946
5373.7,0.02946
5367.91,0.02890
5362.13,0.03056
5356.34,0.03109
5350.55,0.02807
5344.77,0.02931
5338.98,0.03111
5333.19,0.03130
5327.41,0.03187
5321.62,0.02916
5315.84,0.02809
5310.05,0.02966
5304.26,0.03055
5298.48,0.03323
5292.69,0.03018
5286.9,0.03049
5281.12,0.03165
5275.33,0.03038
5269.54,0.02953
5263.76,0.02990
5257.97,0.02994
5252.18,0.02879
5246.4,0.02981
5240.61,0.03258
5234.82,0.02937
5229.04,0.03016
5223.25,0.03001
5217.47,0.03026
5211.68,0.03063
5205.89,0.02887
5200.11,0.03156
5194.32,0.03008
5188.53,0.03250
5182.75,0.03057
5176.96,0.02944
5171.17,0.02794
5165.39,0.03128
5159.6,0.02997
5153.81,0.03041
5148.03,0.02983
5142.24,0.03120
5136.45,0.03134
5130.67,0.02863
5124.88,0.02868
5119.1,0.03087
5113.31,0.03106
5107.52,0.03084
5101.74,0.03181
5095.95,0.03123
5090.16,0.02983
5084.38,0.03048
5078.59,0.02882
5072.8,0.03059
5067.02,0.02925
5061.23,0.03026
5055.44,0.03091
5049.66,0.03170
5043.87,0.03113
5038.08,0.03132
5032.3,0.03106
5026.51,0.02956
5020.73,0.03135
5014.94,0.03049
5009.15,0.03067
5003.37,0.03077
4997.58,0.03024
4991.79,0.02907
4986.01,0.03108
4980.22,0.03162
4974.43,0.02996
4968.65,0.03086
4962.86,0.03037
4957.07,0.03056
4951.29,0.03069
4945.5,0.02974
4939.71,0.03049
4933.93,0.03034
4928.14,0.03010
4922.36,0.03003
4916.57,0.03116
4910.78,0.02993
4905,0.03101
4899.21,0.02950
4893.42,0.03017
4887.64,0.03064
4881.85,0.02926
4876.06,0.02932
4870.28,0.02952
4864.49,0.03021
4858.7,0.02977
4852.92,0.02982
4847.13,0.02841
4841.34,0.03080
4835.56,0.03120
4829.77,0.02986
4823.99,0.03060
4818.2,0.02963
4812.41,0.03123
4806.63,0.03090
4800.84,0.02897
4795.05,0.02917
4789.27,0.03098
4783.48,0.02970
4777.69,0.02986
4771.91,0.03056
4766.12,0.03065
4760.33,0.03098
4754.55,0.03038
4748.76,0.03051
4742.97,0.02991
4737.19,0.03042
4731.4,0.03112
4725.62,0.03085
4719.83,0.03007
4714.04,0.03128
4708.26,0.03107
4702.47,0.03200
4696.68,0.03010
4690.9,0.03015
4685.11,0.03067
4679.32,0.03033
4673.54,0.03074
4667.75,0.03071
4661.96,0.03080
4656.18,0.02999
4650.39,0.03042
4644.6,0.03064
4638.82,0.03109
4633.03,0.03161
4627.25,0.02979
4621.46,0.02983
4615.67,0.03140
4609.89,0.03057
4604.1,0.03158
4598.31,0.03115
4592.53,0.02998
4586.74,0.03065
4580.95,0.03156
4575.17,0.03046
4569.38,0.02926
4563.59,0.03144
4557.81,0.03075
4552.02,0.03040
4546.23,0.03048
4540.45,0.03018
4534.66,0.02974
4528.88,0.02983
4523.09,0.02998
4517.3,0.03016
4511.52,0.02892
4505.73,0.02977
4499.94,0.02979
4494.16,0.02973
4488.37,0.03100
4482.58,0.03131
4476.8,0.03034
4471.01,0.03033
4465.22,0.03045
4459.44,0.03017
4453.65,0.03027
4447.86,0.03088
4442.08,0.02898
4436.29,0.02898
4430.51,0.03051
4424.72,0.03037
4418.93,0.02993
4413.15,0.02985
4407.36,0.03085
4401.57,0.02998
4395.79,0.02956
4390,0.02991
4384.21,0.03039
4378.43,0.03010
4372.64,0.03006
4366.85,0.03092
4361.07,0.03007
4355.28,0.03060
4349.49,0.03058
4343.71,0.02998
4337.92,0.02943
4332.14,0.03021
4326.35,0.03009
4320.56,0.02951
4314.78,0.02980
4308.99,0.03034
4303.2,0.03047
4297.42,0.03026
4291.63,0.03040
4285.84,0.02942
4280.06,0.03022
4274.27,0.02968
4268.48,0.03019
4262.7,0.03027
4256.91,0.02946
4251.13,0.02980
4245.34,0.03022
4239.55,0.03096
4233.77,0.03033
4227.98,0.03070
4222.19,0.03017
4216.41,0.03011
4210.62,0.03045
4204.83,0.03099
4199.05,0.02986
4193.26,0.03035
4187.47,0.03076
4181.69,0.03052
4175.9,0.02982
4170.11,0.03014
4164.33,0.03054
4158.54,0.03068
4152.76,0.03017
4146.97,0.03086
4141.18,0.03015
4135.4,0.03036
4129.61,0.03019
4123.82,0.03089
4118.04,0.02999
4112.25,0.03027
4106.46,0.03043
4100.68,0.03064
4094.89,0.03071
4089.1,0.03058
4083.32,0.03091
4077.53,0.03034
4071.74,0.03011
4065.96,0.02996
4060.17,0.02918
4054.39,0.02977
4048.6,0.03058
4042.81,0.03043
4037.03,0.03000
4031.24,0.02987
4025.45,0.03013
4019.67,0.03042
4013.88,0.03028
4008.09,0.03014
4002.31,0.03008
3996.52,0.02967
3990.73,0.02978
3984.95,0.02994
3979.16,0.03065
3973.37,0.02992
3967.59,0.03027
3961.8,0.03064
3956.02,0.03012
3950.23,0.02942
3944.44,0.03030
3938.66,0.03034
3932.87,0.03062
3927.08,0.02975
3921.3,0.03008
3915.51,0.03025
3909.72,0.03071
3903.94,0.03055
3898.15,0.03069
3892.36,0.03007
3886.58,0.02945
3880.79,0.02988
3875,0.03038
3869.22,0.02953
3863.43,0.03123
3857.65,0.03048
3851.86,0.02867
3846.07,0.02948
3840.29,0.02920
3834.5,0.03052
3828.71,0.03006
3822.93,0.03012
3817.14,0.03044
3811.35,0.02994
3805.57,0.03055
3799.78,0.02987
3793.99,0.02925
3788.21,0.03020
3782.42,0.03057
3776.63,0.03011
3770.85,0.03116
3765.06,0.03056
3759.28,0.03055
3753.49,0.02988
3747.7,0.03058
3741.92,0.03016
3736.13,0.02962
3730.34,0.03060
3724.56,0.03116
3718.77,0.03019
3712.98,0.02978
3707.2,0.02934
3701.41,0.02994
3695.62,0.03025
3689.84,0.03053
3684.05,0.02940
3678.26,0.03062
3672.48,0.02919
3666.69,0.02885
3660.91,0.02952
3655.12,0.02919
3649.33,0.02919
3643.55,0.02944
3637.76,0.02868
3631.97,0.02868
3626.19,0.02826
3620.4,0.02871
3614.61,0.02886
3608.83,0.02838
3603.04,0.02789
3597.25,0.02728
3591.47,0.02762
3585.68,0.02880
3579.89,0.02843
3574.11,0.02743
3568.32,0.02766
3562.54,0.02816
3556.75,0.02696
3550.96,0.02688
3545.18,0.02744
3539.39,0.02732
3533.6,0.02685
3527.82,0.02710
3522.03,0.02741
3516.24,0.02633
3510.46,0.02738
3504.67,0.02680
3498.88,0.02672
3493.1,0.02680
3487.31,0.02675
3481.52,0.02785
3475.74,0.02688
3469.95,0.02663
3464.17,0.02608
3458.38,0.02610
3452.59,0.02642
3446.81,0.02636
3441.02,0.02626
3435.23,0.02553
3429.45,0.02572
3423.66,0.02747
3417.87,0.02696
3412.09,0.02672
3406.3,0.02685
3400.51,0.02650
3394.73,0.02648
3388.94,0.02642
3383.15,0.02716
3377.37,0.02660
3371.58,0.02531
3365.8,0.02625
3360.01,0.02629
3354.22,0.02677
3348.44,0.02673
3342.65,0.02658
3336.86,0.02674
3331.08,0.02612
3325.29,0.02562
3319.5,0.02640
3313.72,0.02733
3307.93,0.02644
3302.14,0.02658
3296.36,0.02641
3290.57,0.02544
3284.78,0.02710
3279,0.02592
3273.21,0.02700
3267.43,0.02674
3261.64,0.02685
3255.85,0.02651
3250.07,0.02632
3244.28,0.02702
3238.49,0.02658
3232.71,0.02653
3226.92,0.02638
3221.13,0.02722
3215.35,0.02697
3209.56,0.02712
3203.77,0.02712
3197.99,0.02676
3192.2,0.02685
3186.41,0.02667
3180.63,0.02670
3174.84,0.02680
3169.06,0.02732
3163.27,0.02645
3157.48,0.02695
3151.7,0.02729
3145.91,0.02721
3140.12,0.02699
3134.34,0.02684
3128.55,0.02757
3122.76,0.02696
3116.98,0.02716
3111.19,0.02665
3105.4,0.02718
3099.62,0.02752
3093.83,0.02673
3088.05,0.02692
3082.26,0.02714
3076.47,0.02666
3070.69,0.02709
3064.9,0.02691
3059.11,0.02711
3053.33,0.02665
3047.54,0.02639
3041.75,0.02681
3035.97,0.02733
3030.18,0.02739
3024.39,0.02712
3018.61,0.02727
3012.82,0.02717
3007.03,0.02712
3001.25,0.02678
2995.46,0.02687
2989.68,0.02685
2983.89,0.02625
2978.1,0.02643
2972.32,0.02619
2966.53,0.02585
2960.74,0.02578
2954.96,0.02628
2949.17,0.02604
2943.38,0.02564
2937.6,0.02603
2931.81,0.02651
2926.02,0.02633
2920.24,0.02651
2914.45,0.02645
2908.66,0.02671
2902.88,0.02682
2897.09,0.02657
2891.31,0.02621
2885.52,0.02701
2879.73,0.02659
2873.95,0.02683
2868.16,0.02701
2862.37,0.02723
2856.59,0.02723
2850.8,0.02768
2845.01,0.02788
2839.23,0.02770
2833.44,0.02773
2827.65,0.02739
2821.87,0.02724
2816.08,0.02748
2810.29,0.02781
2804.51,0.02725
2798.72,0.02776
2792.94,0.02777
2787.15,0.02775
2781.36,0.02775
2775.58,0.02784
2769.79,0.02714
2764,0.02740
2758.22,0.02787
2752.43,0.02756
2746.64,0.02727
2740.86,0.02749
2735.07,0.02722
2729.28,0.02750
2723.5,0.02767
2717.71,0.02746
2711.92,0.02799
2706.14,0.02725
2700.35,0.02742
2694.57,0.02748
2688.78,0.02762
2682.99,0.02780
2677.21,0.02695
2671.42,0.02752
2665.63,0.02758
2659.85,0.02777
2654.06,0.02740
2648.27,0.02764
2642.49,0.02727
2636.7,0.02702
2630.91,0.02722
2625.13,0.02760
2619.34,0.02746
2613.55,0.02748
2607.77,0.02765
2601.98,0.02747
2596.2,0.02708
2590.41,0.02763
2584.62,0.02744
2578.84,0.02761
2573.05,0.02734
2567.26,0.02709
2561.48,0.02730
2555.69,0.02738
2549.9,0.02732
2544.12,0.02744
2538.33,0.02707
2532.54,0.02727
2526.76,0.02736
2520.97,0.02723
2515.18,0.02767
2509.4,0.02732
2503.61,0.02697
2497.83,0.02708
2492.04,0.02689
2486.25,0.02708
2480.47,0.02740
2474.68,0.02726
2468.89,0.02730
2463.11,0.02731
2457.32,0.02715
2451.53,0.02693
2445.75,0.02675
2439.96,0.02733
2434.17,0.02742
2428.39,0.02700
2422.6,0.02670
2416.81,0.02703
2411.03,0.02731
2405.24,0.02742
2399.46,0.02732
2393.67,0.02725
2387.88,0.02705
2382.1,0.02755
2376.31,0.02749
2370.52,0.02759
2364.74,0.02769
2358.95,0.02673
2353.16,0.02715
2347.38,0.02762
2341.59,0.02723
2335.8,0.02745
2330.02,0.02738
2324.23,0.02713
2318.44,0.02735
2312.66,0.02680
2306.87,0.02703
2301.09,0.02714
2295.3,0.02724
2289.51,0.02737
2283.73,0.02676
2277.94,0.02679
2272.15,0.02660
2266.37,0.02652
2260.58,0.02647
2254.79,0.02654
2249.01,0.02654
2243.22,0.02642
2237.43,0.02663
2231.65,0.02682
2225.86,0.02691
2220.07,0.02662
2214.29,0.02655
2208.5,0.02641
2202.72,0.02611
2196.93,0.02634
2191.14,0.02637
2185.36,0.02637
2179.57,0.02663
2173.78,0.02654
2168,0.02627
2162.21,0.02633
2156.42,0.02655
2150.64,0.02620
2144.85,0.02602
2139.06,0.02641
2133.28,0.02615
2127.49,0.02630
2121.7,0.02632
2115.92,0.02629
2110.13,0.02647
2104.35,0.02633
2098.56,0.02615
2092.77,0.02621
2086.99,0.02635
2081.2,0.02578
2075.41,0.02572
2069.63,0.02583
2063.84,0.02595
2058.05,0.02624
2052.27,0.02601
2046.48,0.02580
2040.69,0.02596
2034.91,0.02655
2029.12,0.02634
2023.33,0.02600
2017.55,0.02651
2011.76,0.02606
2005.98,0.02594
2000.19,0.02582
1994.4,0.02587
1988.62,0.02622
1982.83,0.02625
1977.04,0.02584
1971.26,0.02603
1965.47,0.02620
1959.68,0.02616
1953.9,0.02557
1948.11,0.02573
1942.32,0.02551
1936.54,0.02556
1930.75,0.02594
1924.96,0.02574
1919.18,0.02596
1913.39,0.02563
1907.61,0.02541
1901.82,0.02553
1896.03,0.02515
1890.25,0.02552
1884.46,0.02557
1878.67,0.02527
1872.89,0.02554
1867.1,0.02520
1861.31,0.02549
1855.53,0.02514
1849.74,0.02486
1843.95,0.02520
1838.17,0.02476
1832.38,0.02462
1826.6,0.02487
1820.81,0.02461
1815.02,0.02464
1809.24,0.02405
1803.45,0.02415
1797.66,0.02431
1791.88,0.02434
1786.09,0.02382
1780.3,0.02356
1774.52,0.02342
1768.73,0.02257
1762.94,0.02220
1757.16,0.02187
1751.37,0.02217
1745.58,0.02232
1739.8,0.02269
1734.01,0.02367
1728.23,0.02465
1722.44,0.02509
1716.65,0.02512
1710.87,0.02441
1705.08,0.02430
1699.29,0.02404
1693.51,0.02318
1687.72,0.02326
1681.93,0.02235
1676.15,0.02250
1670.36,0.02186
1664.57,0.02165
1658.79,0.02243
1653,0.02221
1647.21,0.02204
1641.43,0.02189
1635.64,0.02286
1629.86,0.02273
1624.07,0.02245
1618.28,0.02282
1612.5,0.02277
1606.71,0.02279
1600.92,0.02275
1595.14,0.02258
1589.35,0.02252
1583.56,0.02221
1577.78,0.02230
1571.99,0.02214
1566.2,0.02164
1560.42,0.02324
1554.63,0.02159
1548.84,0.02207
1543.06,0.02274
1537.27,0.02188
1531.49,0.02231
1525.7,0.02234
1519.91,0.02244
1514.13,0.02214
1508.34,0.02295
1502.55,0.02205
1496.77,0.02278
1490.98,0.02310
1485.19,0.02247
1479.41,0.02203
1473.62,0.02229
1467.83,0.02146
1462.05,0.02168
1456.26,0.02103
1450.47,0.02196
1444.69,0.02204
1438.9,0.02212
1433.12,0.02223
1427.33,0.02189
1421.54,0.02183
1415.76,0.02124
1409.97,0.02153
1404.18,0.02170
1398.4,0.02117
1392.61,0.02054
1386.82,0.02090
1381.04,0.02126
1375.25,0.02116
1369.46,0.02100
1363.68,0.02112
1357.89,0.02101
1352.1,0.02101
1346.32,0.02107
1340.53,0.02064
1334.75,0.02019
1328.96,0.02015
1323.17,0.02016
1317.39,0.02035
1311.6,0.01957
1305.81,0.01975
1300.03,0.02058
1294.24,0.02061
1288.45,0.02127
1282.67,0.02133
1276.88,0.02132
1271.09,0.02266
1265.31,0.02225
1259.52,0.02290
1253.73,0.02305
1247.95,0.02276
1242.16,0.02264
1236.38,0.02272
1230.59,0.02252
1224.8,0.02197
1219.02,0.02173
1213.23,0.02180
1207.44,0.02197
1201.66,0.02143
1195.87,0.02146
1190.08,0.02147
1184.3,0.02073
1178.51,0.02093
1172.72,0.02041
1166.94,0.02071
1161.15,0.02038
1155.36,0.01989
1149.58,0.02016
1143.79,0.02035
1138.01,0.02071
1132.22,0.02065
1126.43,0.02141
1120.65,0.02198
1114.86,0.02293
1109.07,0.02221
1103.29,0.02193
1097.5,0.02159
1091.71,0.02241
1085.93,0.02254
1080.14,0.02304
1074.35,0.02420
1068.57,0.02433
1062.78,0.02447
1056.99,0.02338
1051.21,0.02338
1045.42,0.02319
1039.64,0.02400
1033.85,0.02324
1028.06,0.02245
1022.28,0.02274
1016.49,0.02356
1010.7,0.02415
1004.92,0.02457
999.13,0.02429
993.344,0.02392
987.557,0.02478
981.771,0.02448
975.984,0.02425
970.198,0.02411
964.411,0.02414
958.625,0.02337
952.838,0.02349
947.052,0.02314
941.265,0.02244
935.479,0.02294
929.692,0.02289
923.906,0.02267
918.12,0.02198
912.333,0.02204
906.547,0.02226
900.76,0.02224
894.974,0.02186
889.187,0.02207
883.401,0.02221
877.614,0.02207
871.828,0.02147
866.041,0.02168
860.255,0.02209
854.468,0.02241
848.682,0.02209
842.895,0.02186
837.109,0.02198
831.323,0.02177
825.536,0.02127
819.75,0.02242
813.963,0.02182
808.177,0.02124
802.39,0.02071
796.604,0.02135
790.817,0.02020
785.031,0.02040
779.244,0.02057
773.458,0.02090
767.671,0.02120
761.885,0.02001
756.098,0.02054
750.312,0.01938
744.526,0.01980
738.739,0.02058
732.953,0.02027
727.166,0.01970
721.38,0.01987
715.593,0.01964
709.807,0.01829
704.02,0.01913
698.234,0.01988
692.447,0.01944
686.661,0.01972
680.874,0.01887
675.088,0.01853
669.301,0.01856
663.515,0.01834
657.729,0.01859
651.942,0.01954
646.156,0.01940
640.369,0.02088
634.583,0.01911
628.796,0.01801
623.01,0.02100
617.223,0.01946
611.437,0.02003
605.65,0.01765
599.864,0.01827