File: 01_Data/PEVA/FTIR/IS/PEVA_0.26_IS_Trans_S_240819_R1.dpt
7496.91,0.94280
7491.12,0.91539
7485.33,0.91990
7479.55,0.93476
7473.76,0.93096
7467.98,0.92926
7462.19,0.93836
7456.4,0.94638
7450.62,0.93565
7444.83,0.94076
7439.04,0.93853
7433.26,0.93094
7427.47,0.92186
7421.69,0.92893
7415.9,0.92979
7410.11,0.92578
7404.33,0.93155
7398.54,0.94941
7392.76,0.94467
7386.97,0.92739
7381.18,0.91390
7375.4,0.93324
7369.61,0.93425
7363.83,0.91708
7358.04,0.91627
7352.25,0.91483
7346.47,0.91701
7340.68,0.91825
7334.89,0.93140
7329.11,0.92436
7323.32,0.92557
7317.54,0.92720
7311.75,0.91847
7305.96,0.92809
7300.18,0.93298
7294.39,0.92236
7288.61,0.92254
7282.82,0.92118
7277.03,0.92342
7271.25,0.92277
7265.46,0.91076
7259.67,0.92970
7253.89,0.92144
7248.1,0.91840
7242.32,0.91267
7236.53,0.89579
7230.74,0.89656
7224.96,0.90904
7219.17,0.91605
7213.39,0.92660
7207.6,0.92126
7201.81,0.90990
7196.03,0.90753
7190.24,0.92406
7184.45,0.90631
7178.67,0.90220
7172.88,0.91182
7167.1,0.91082
7161.31,0.90432
7155.52,0.91317
7149.74,0.91533
7143.95,0.90183
7138.17,0.91452
7132.38,0.91418
7126.59,0.90729
7120.81,0.91590
7115.02,0.91631
7109.23,0.92417
7103.45,0.92534
7097.66,0.92117
7091.88,0.90912
7086.09,0.91351
7080.3,0.90693
7074.52,0.91219
7068.73,0.90572
7062.95,0.91430
7057.16,0.91251
7051.37,0.91779
7045.59,0.91988
7039.8,0.92372
7034.02,0.91214
7028.23,0.91619
7022.44,0.91417
7016.66,0.90925
7010.87,0.91384
7005.08,0.92033
6999.3,0.91323
6993.51,0.90568
6987.73,0.90978
6981.94,0.91620
6976.15,0.91107
6970.37,0.91320
6964.58,0.92079
6958.8,0.90710
6953.01,0.92198
6947.22,0.91855
6941.44,0.92758
6935.65,0.92215
6929.86,0.92786
6924.08,0.92733
6918.29,0.92302
6912.51,0.91343
6906.72,0.91253
6900.93,0.91574
6895.15,0.91389
6889.36,0.90692
6883.58,0.91421
6877.79,0.91893
6872,0.92135
6866.22,0.92035
6860.43,0.91268
6854.64,0.92506
6848.86,0.92042
6843.07,0.92057
6837.29,0.91936
6831.5,0.91802
6825.71,0.91990
6819.93,0.92482
6814.14,0.93010
6808.36,0.92331
6802.57,0.91623
6796.78,0.91668
6791,0.92101
6785.21,0.92064
6779.43,0.92822
6773.64,0.92510
6767.85,0.92413
6762.07,0.91977
6756.28,0.92220
6750.49,0.92789
6744.71,0.92583
6738.92,0.93130
6733.14,0.93176
6727.35,0.92837
6721.56,0.92110
6715.78,0.91944
6709.99,0.93682
6704.21,0.93296
6698.42,0.92345
6692.63,0.93025
6686.85,0.92521
6681.06,0.92628
6675.27,0.92423
6669.49,0.92558
6663.7,0.92941
6657.92,0.92808
6652.13,0.93405
6646.34,0.92995
6640.56,0.93109
6634.77,0.92671
6628.99,0.92691
6623.2,0.92931
6617.41,0.92268
6611.63,0.92019
6605.84,0.92454
6600.05,0.92412
6594.27,0.92230
6588.48,0.92396
6582.7,0.92876
6576.91,0.93218
6571.12,0.92171
6565.34,0.92795
6559.55,0.93018
6553.77,0.93341
6547.98,0.93369
6542.19,0.93084
6536.41,0.92620
6530.62,0.92484
6524.84,0.93317
6519.05,0.93416
6513.26,0.93261
6507.48,0.92862
6501.69,0.92726
6495.9,0.93451
6490.12,0.93038
6484.33,0.93162
6478.55,0.93160
6472.76,0.92797
6466.97,0.93511
6461.19,0.93424
6455.4,0.93013
6449.62,0.93418
6443.83,0.92767
6438.04,0.93145
6432.26,0.93450
6426.47,0.93579
6420.68,0.92229
6414.9,0.92999
6409.11,0.93119
6403.33,0.92826
6397.54,0.92908
6391.75,0.93459
6385.97,0.93383
6380.18,0.93229
6374.4,0.93478
6368.61,0.93606
6362.82,0.93722
6357.04,0.93226
6351.25,0.93055
6345.46,0.93185
6339.68,0.93797
6333.89,0.93414
6328.11,0.93610
6322.32,0.92760
6316.53,0.92950
6310.75,0.93021
6304.96,0.92951
6299.18,0.93321
6293.39,0.92909
6287.6,0.93185
6281.82,0.92891
6276.03,0.93377
6270.24,0.92709
6264.46,0.92874
6258.67,0.93521
6252.89,0.93384
6247.1,0.93094
6241.31,0.93523
6235.53,0.92972
6229.74,0.92872
6223.96,0.93335
6218.17,0.93015
6212.38,0.93348
6206.6,0.92559
6200.81,0.93409
6195.03,0.92619
6189.24,0.92623
6183.45,0.92695
6177.67,0.92488
6171.88,0.92751
6166.09,0.92822
6160.31,0.92214
6154.52,0.92290
6148.74,0.92892
6142.95,0.92800
6137.16,0.92430
6131.38,0.92190
6125.59,0.91954
6119.81,0.92194
6114.02,0.92426
6108.23,0.92143
6102.45,0.92195
6096.66,0.92010
6090.87,0.91926
6085.09,0.91466
6079.3,0.91748
6073.52,0.91115
6067.73,0.90662
6061.94,0.90314
6056.16,0.89906
6050.37,0.90106
6044.59,0.89519
6038.8,0.89192
6033.01,0.88988
6027.23,0.88207
6021.44,0.88214
6015.65,0.87673
6009.87,0.87794
6004.08,0.88244
5998.3,0.88895
5992.51,0.89258
5986.72,0.89604
5980.94,0.89952
5975.15,0.89600
5969.37,0.89608
5963.58,0.89738
5957.79,0.89882
5952.01,0.89658
5946.22,0.88679
5940.44,0.88596
5934.65,0.88018
5928.86,0.87574
5923.08,0.87079
5917.29,0.86431
5911.5,0.85654
5905.72,0.85186
5899.93,0.84338
5894.15,0.83516
5888.36,0.82190
5882.57,0.81327
5876.79,0.80798
5871,0.79834
5865.22,0.79063
5859.43,0.78271
5853.64,0.76967
5847.86,0.76017
5842.07,0.74757
5836.28,0.73280
5830.5,0.72043
5824.71,0.72344
5818.93,0.72875
5813.14,0.74449
5807.35,0.75356
5801.57,0.76688
5795.78,0.78075
5790,0.79148
5784.21,0.80251
5778.42,0.80674
5772.64,0.81369
5766.85,0.81592
5761.06,0.81652
5755.28,0.81419
5749.49,0.81528
5743.71,0.81664
5737.92,0.81492
5732.13,0.81262
5726.35,0.81403
5720.56,0.81511
5714.78,0.81536
5708.99,0.81663
5703.2,0.81405
5697.42,0.81494
5691.63,0.81703
5685.84,0.82500
5680.06,0.82592
5674.27,0.82950
5668.49,0.83833
5662.7,0.84034
5656.91,0.83846
5651.13,0.84157
5645.34,0.84216
5639.56,0.84692
5633.77,0.84938
5627.98,0.85178
5622.2,0.85251
5616.41,0.85626
5610.63,0.85894
5604.84,0.86204
5599.05,0.86441
5593.27,0.86677
5587.48,0.86605
5581.69,0.86870
5575.91,0.86837
5570.12,0.87200
5564.34,0.87424
5558.55,0.87420
5552.76,0.87170
5546.98,0.87216
5541.19,0.87659
5535.41,0.87450
5529.62,0.87260
5523.83,0.87473
5518.05,0.87580
5512.26,0.87567
5506.47,0.87214
5500.69,0.87610
5494.9,0.87045
5489.12,0.87065
5483.33,0.87564
5477.54,0.87011
5471.76,0.86967
5465.97,0.86786
5460.19,0.86777
5454.4,0.87623
5448.61,0.87369
5442.83,0.87192
5437.04,0.87610
5431.25,0.87548
5425.47,0.88115
5419.68,0.88324
5413.9,0.87134
5408.11,0.87563
5402.32,0.88487
5396.54,0.87977
5390.75,0.88452
5384.97,0.88136
5379.18,0.88445
5373.39,0.88728
5367.61,0.89312
5361.82,0.89068
5356.04,0.88526
5350.25,0.88373
5344.46,0.87842
5338.68,0.87681
5332.89,0.89165
5327.1,0.88514
5321.32,0.89736
5315.53,0.89483
5309.75,0.89513
5303.96,0.89532
5298.17,0.89682
5292.39,0.89336
5286.6,0.89593
5280.82,0.89611
5275.03,0.89786
5269.24,0.89173
5263.46,0.88327
5257.67,0.89137
5251.88,0.89066
5246.1,0.88239
5240.31,0.89542
5234.53,0.89445
5228.74,0.89293
5222.95,0.89129
5217.17,0.89580
5211.38,0.89927
5205.6,0.88699
5199.81,0.89710
5194.02,0.89828
5188.24,0.89634
5182.45,0.89766
5176.66,0.89687
5170.88,0.89820
5165.09,0.89680
5159.31,0.89504
5153.52,0.89688
5147.73,0.89840
5141.95,0.89954
5136.16,0.89798
5130.38,0.89898
5124.59,0.89865
5118.8,0.89786
5113.02,0.89714
5107.23,0.89947
5101.45,0.89985
5095.66,0.89895
5089.87,0.90088
5084.09,0.90066
5078.3,0.90254
5072.51,0.90120
5066.73,0.90222
5060.94,0.90388
5055.16,0.90419
5049.37,0.90462
5043.58,0.90382
5037.8,0.90521
5032.01,0.90606
5026.23,0.90474
5020.44,0.90409
5014.65,0.90402
5008.87,0.90569
5003.08,0.90439
4997.29,0.90454
4991.51,0.90608
4985.72,0.90638
4979.94,0.90564
4974.15,0.90536
4968.36,0.90631
4962.58,0.90662
4956.79,0.90466
4951.01,0.90632
4945.22,0.90688
4939.43,0.90596
4933.65,0.90563
4927.86,0.90482
4922.07,0.90815
4916.29,0.90687
4910.5,0.90539
4904.72,0.90639
4898.93,0.90739
4893.14,0.90512
4887.36,0.90479
4881.57,0.90534
4875.79,0.90513
4870,0.90430
4864.21,0.90568
4858.43,0.90599
4852.64,0.90477
4846.85,0.90559
4841.07,0.90561
4835.28,0.90703
4829.5,0.90517
4823.71,0.90518
4817.92,0.90456
4812.14,0.90418
4806.35,0.90307
4800.57,0.90331
4794.78,0.90283
4788.99,0.90281
4783.21,0.90286
4777.42,0.90232
4771.64,0.90210
4765.85,0.90307
4760.06,0.90397
4754.28,0.90338
4748.49,0.90203
4742.7,0.90165
4736.92,0.90126
4731.13,0.89909
4725.35,0.89565
4719.56,0.88954
4713.77,0.88692
4707.99,0.88656
4702.2,0.88218
4696.42,0.87459
4690.63,0.86790
4684.84,0.86482
4679.06,0.86705
4673.27,0.87264
4667.48,0.87781
4661.7,0.87886
4655.91,0.87947
4650.13,0.87896
4644.34,0.87743
4638.55,0.87028
4632.77,0.86603
4626.98,0.86806
4621.2,0.87653
4615.41,0.88341
4609.62,0.88759
4603.84,0.88686
4598.05,0.88784
4592.26,0.88635
4586.48,0.88401
4580.69,0.88401
4574.91,0.88126
4569.12,0.88564
4563.33,0.88907
4557.55,0.89024
4551.76,0.89046
4545.98,0.89035
4540.19,0.88879
4534.4,0.88787
4528.62,0.88787
4522.83,0.88448
4517.05,0.88415
4511.26,0.88039
4505.47,0.87749
4499.69,0.87289
4493.9,0.86652
4488.11,0.86053
4482.33,0.85720
4476.54,0.85362
4470.76,0.84948
4464.97,0.84474
4459.18,0.83669
4453.4,0.82599
4447.61,0.81196
4441.83,0.79504
4436.04,0.77496
4430.25,0.75172
4424.47,0.72576
4418.68,0.69773
4412.89,0.67030
4407.11,0.64506
4401.32,0.62809
4395.54,0.62018
4389.75,0.61409
4383.96,0.59687
4378.18,0.57211
4372.39,0.54104
4366.61,0.50750
4360.82,0.47098
4355.03,0.43973
4349.25,0.41242
4343.46,0.38396
4337.67,0.35828
4331.89,0.35199
4326.1,0.37564
4320.32,0.41157
4314.53,0.44647
4308.74,0.46871
4302.96,0.47851
4297.17,0.48292
4291.39,0.48174
4285.6,0.47693
4279.81,0.47289
4274.03,0.47302
4268.24,0.47797
4262.46,0.48517
4256.67,0.49000
4250.88,0.48931
4245.1,0.48933
4239.31,0.48695
4233.52,0.48219
4227.74,0.47594
4221.95,0.46973
4216.17,0.46658
4210.38,0.46788
4204.59,0.47676
4198.81,0.48905
4193.02,0.50200
4187.24,0.50703
4181.45,0.50382
4175.66,0.49476
4169.88,0.49059
4164.09,0.50134
4158.3,0.51924
4152.52,0.53592
4146.73,0.54841
4140.95,0.56216
4135.16,0.57567
4129.37,0.58615
4123.59,0.58833
4117.8,0.58587
4112.02,0.57997
4106.23,0.57340
4100.44,0.56576
4094.66,0.54825
4088.87,0.51749
4083.08,0.49688
4077.3,0.51289
4071.51,0.54022
4065.73,0.56477
4059.94,0.58833
4054.15,0.60781
4048.37,0.61807
4042.58,0.62286
4036.8,0.62846
4031.01,0.63057
4025.22,0.63068
4019.44,0.63115
4013.65,0.63674
4007.86,0.64287
4002.08,0.65428
3996.29,0.66317
3990.51,0.67309
3984.72,0.68218
3978.93,0.68846
3973.15,0.69249
3967.36,0.69935
3961.58,0.70153
3955.79,0.70272
3950,0.69803
3944.22,0.69893
3938.43,0.70564
3932.65,0.69746
3926.86,0.69845
3921.07,0.69683
3915.29,0.69967
3909.5,0.70648
3903.71,0.68266
3897.93,0.69868
3892.14,0.70110
3886.36,0.70517
3880.57,0.70309
3874.78,0.70676
3869,0.69586
3863.21,0.69981
3857.43,0.70494
3851.64,0.69148
3845.85,0.71590
3840.07,0.69288
3834.28,0.70672
3828.49,0.71805
3822.71,0.70849
3816.92,0.71136
3811.14,0.73755
3805.35,0.72118
3799.56,0.71873
3793.78,0.74922
3787.99,0.75467
3782.21,0.75244
3776.42,0.75769
3770.63,0.75016
3764.85,0.74786
3759.06,0.73867
3753.27,0.72530
3747.49,0.72026
3741.7,0.73900
3735.92,0.71990
3730.13,0.74806
3724.34,0.74926
3718.56,0.76899
3712.77,0.75093
3706.99,0.75310
3701.2,0.74030
3695.41,0.72530
3689.63,0.67222
3683.84,0.67482
3678.06,0.65320
3672.27,0.65207
3666.48,0.67766
3660.7,0.68755
3654.91,0.68399
3649.12,0.65536
3643.34,0.69221
3637.55,0.69265
3631.77,0.67363
3625.98,0.66324
3620.19,0.65164
3614.41,0.64203
3608.62,0.64021
3602.84,0.64297
3597.05,0.62927
3591.26,0.62671
3585.48,0.61405
3579.69,0.61651
3573.9,0.60536
3568.12,0.57874
3562.33,0.57350
3556.55,0.56893
3550.76,0.55570
3544.97,0.54633
3539.19,0.55099
3533.4,0.54736
3527.62,0.53792
3521.83,0.53533
3516.04,0.53487
3510.26,0.52362
3504.47,0.51158
3498.68,0.50265
3492.9,0.48879
3487.11,0.47232
3481.33,0.45382
3475.54,0.44003
3469.75,0.42731
3463.97,0.41462
3458.18,0.40219
3452.4,0.38953
3446.61,0.36736
3440.82,0.34248
3435.04,0.31687
3429.25,0.29575
3423.47,0.28972
3417.68,0.29991
3411.89,0.32254
3406.11,0.35340
3400.32,0.38496
3394.53,0.41142
3388.75,0.43528
3382.96,0.45318
3377.18,0.46889
3371.39,0.48188
3365.6,0.49087
3359.82,0.49995
3354.03,0.50400
3348.25,0.50721
3342.46,0.50336
3336.67,0.49631
3330.89,0.49049
3325.1,0.48579
3319.31,0.47174
3313.53,0.43027
3307.74,0.35080
3301.96,0.29394
3296.17,0.32714
3290.38,0.39744
3284.6,0.45600
3278.81,0.49474
3273.03,0.52302
3267.24,0.54537
3261.45,0.55853
3255.67,0.56563
3249.88,0.57045
3244.09,0.57096
3238.31,0.56872
3232.52,0.56487
3226.74,0.56004
3220.95,0.55847
3215.16,0.55408
3209.38,0.55093
3203.59,0.54670
3197.81,0.54275
3192.02,0.54087
3186.23,0.54134
3180.45,0.54325
3174.66,0.54447
3168.87,0.54519
3163.09,0.54472
3157.3,0.54281
3151.52,0.53947
3145.73,0.53416
3139.94,0.52553
3134.16,0.51425
3128.37,0.49873
3122.59,0.49158
3116.8,0.48684
3111.01,0.47401
3105.23,0.44920
3099.44,0.41734
3093.66,0.39911
3087.87,0.37440
3082.08,0.34177
3076.3,0.33480
3070.51,0.31945
3064.72,0.29257
3058.94,0.28609
3053.15,0.27148
3047.37,0.28432
3041.58,0.28941
3035.79,0.26945
3030.01,0.24177
3024.22,0.21063
3018.44,0.17237
3012.65,0.12872
3006.86,0.08401
3001.08,0.04389
2995.29,0.01611
2989.5,0.00342
2983.72,-0.00007
2977.93,0.00022
2972.15,0.00026
2966.36,0.00078
2960.57,0.00026
2954.79,0.00041
2949,0.00014
2943.22,0.00044
2937.43,0.00080
2931.64,0.00084
2925.86,0.00025
2920.07,0.00032
2914.28,0.00069
2908.5,0.00082
2902.71,0.00023
2896.93,0.00073
2891.14,0.00030
2885.35,0.00065
2879.57,0.00026
2873.78,0.00031
2868,0.00057
2862.21,0.00031
2856.42,0.00040
2850.64,0.00075
2844.85,0.00043
2839.07,0.00828
2833.28,0.02776
2827.49,0.04958
2821.71,0.06155
2815.92,0.07074
2810.13,0.11510
2804.35,0.17021
2798.56,0.21681
2792.78,0.25721
2786.99,0.29130
2781.2,0.32132
2775.42,0.34534
2769.63,0.36041
2763.85,0.36836
2758.06,0.36990
2752.27,0.36302
2746.49,0.35048
2740.7,0.33567
2734.91,0.32490
2729.13,0.33929
2723.34,0.37671
2717.56,0.40756
2711.77,0.42737
2705.98,0.44322
2700.2,0.45491
2694.41,0.46247
2688.63,0.46576
2682.84,0.46123
2677.05,0.45397
2671.27,0.45250
2665.48,0.46368
2659.69,0.48271
2653.91,0.49964
2648.12,0.50880
2642.34,0.50944
2636.55,0.50100
2630.76,0.49007
2624.98,0.48786
2619.19,0.48692
2613.41,0.48587
2607.62,0.48470
2601.83,0.48632
2596.05,0.48730
2590.26,0.48667
2584.47,0.48249
2578.69,0.48058
2572.9,0.48589
2567.12,0.49524
2561.33,0.50008
2555.54,0.50202
2549.76,0.50764
2543.97,0.51562
2538.19,0.52352
2532.4,0.52684
2526.61,0.53280
2520.83,0.54225
2515.04,0.55667
2509.26,0.57031
2503.47,0.58206
2497.68,0.58998
2491.9,0.59479
2486.11,0.59881
2480.32,0.60366
2474.54,0.60927
2468.75,0.61463
2462.97,0.61823
2457.18,0.61797
2451.39,0.61622
2445.61,0.61146
2439.82,0.60560
2434.04,0.59763
2428.25,0.58705
2422.46,0.57335
2416.68,0.56173
2410.89,0.55354
2405.1,0.54434
2399.32,0.53530
2393.53,0.52505
2387.75,0.51641
2381.96,0.49952
2376.17,0.47364
2370.39,0.45251
2364.6,0.44164
2358.82,0.44961
2353.03,0.48893
2347.24,0.52135
2341.46,0.51672
2335.67,0.53591
2329.88,0.54847
2324.1,0.55982
2318.31,0.58371
2312.53,0.60762
2306.74,0.62176
2300.95,0.62831
2295.17,0.62548
2289.38,0.61617
2283.6,0.60371
2277.81,0.59148
2272.02,0.60039
2266.24,0.61462
2260.45,0.62322
2254.67,0.62431
2248.88,0.62492
2243.09,0.62240
2237.31,0.62024
2231.52,0.62138
2225.73,0.62474
2219.95,0.63187
2214.16,0.63483
2208.38,0.63889
2202.59,0.65280
2196.8,0.66860
2191.02,0.67477
2185.23,0.68353
2179.45,0.68969
2173.66,0.69357
2167.87,0.69403
2162.09,0.68962
2156.3,0.68833
2150.51,0.68506
2144.73,0.68444
2138.94,0.68047
2133.16,0.68067
2127.37,0.67824
2121.58,0.67694
2115.8,0.67401
2110.01,0.67189
2104.23,0.67174
2098.44,0.66883
2092.65,0.66704
2086.87,0.66099
2081.08,0.65815
2075.29,0.65343
2069.51,0.65409
2063.72,0.65322
2057.94,0.66061
2052.15,0.66606
2046.36,0.67191
2040.58,0.67526
2034.79,0.67725
2029.01,0.68091
2023.22,0.68400
2017.43,0.68950
2011.65,0.69482
2005.86,0.69756
2000.08,0.69148
1994.29,0.67705
1988.5,0.66127
1982.72,0.65990
1976.93,0.65277
1971.14,0.63671
1965.36,0.60724
1959.57,0.56615
1953.79,0.50813
1948,0.48266
1942.21,0.51607
1936.43,0.56303
1930.64,0.60092
1924.86,0.61898
1919.07,0.62760
1913.28,0.63682
1907.5,0.63888
1901.71,0.64680
1895.92,0.64597
1890.14,0.64605
1884.35,0.65164
1878.57,0.65676
1872.78,0.65161
1866.99,0.63702
1861.21,0.63830
1855.42,0.62421
1849.64,0.59257
1843.85,0.55159
1838.06,0.52702
1832.28,0.47527
1826.49,0.41312
1820.7,0.40390
1814.92,0.42128
1809.13,0.42966
1803.35,0.42438
1797.56,0.40336
1791.77,0.36729
1785.99,0.33957
1780.2,0.29867
1774.42,0.25990
1768.63,0.21230
1762.84,0.16073
1757.06,0.08659
1751.27,0.03189
1745.48,0.00610
1739.7,0.00081
1733.91,0.00060
1728.13,0.00024
1722.34,0.00015
1716.55,0.00044
1710.77,0.00058
1704.98,0.00054
1699.2,0.00213
1693.41,0.02508
1687.62,0.04946
1681.84,0.06438
1676.05,0.07451
1670.27,0.10259
1664.48,0.18378
1658.69,0.26085
1652.91,0.27812
1647.12,0.26480
1641.33,0.19813
1635.55,0.17275
1629.76,0.27482
1623.98,0.31466
1618.19,0.29938
1612.4,0.26013
1606.62,0.28974
1600.83,0.33914
1595.05,0.34917
1589.26,0.33433
1583.47,0.22742
1577.69,0.09863
1571.9,0.16347
1566.11,0.21378
1560.33,0.23336
1554.54,0.26014
1548.76,0.26574
1542.97,0.22866
1537.18,0.21799
1531.4,0.24258
1525.61,0.24607
1519.83,0.26466
1514.04,0.23612
1508.25,0.12911
1502.47,0.07611
1496.68,0.19115
1490.89,0.18935
1485.11,0.11150
1479.32,0.03868
1473.54,0.00478
1467.75,0.00019
1461.96,0.00042
1456.18,0.00042
1450.39,0.00061
1444.61,0.00066
1438.82,0.00066
1433.03,0.00018
1427.25,0.00002
1421.46,0.00026
1415.68,0.00039
1409.89,0.00018
1404.1,0.00158
1398.32,0.00526
1392.53,0.00108
1386.74,0.00029
1380.96,0.00015
1375.17,0.00040
1369.39,0.00104
1363.6,0.00173
1357.81,0.00093
1352.03,0.00082
1346.24,0.00057
1340.46,0.00026
1334.67,0.00025
1328.88,0.00032
1323.1,0.00032
1317.31,0.00048
1311.52,0.00031
1305.74,0.00025
1299.95,0.00013
1294.17,0.00017
1288.38,0.00046
1282.59,0.00043
1276.81,0.00037
1271.02,0.00012
1265.24,0.00037
1259.45,0.00055
1253.66,0.00006
1247.88,0.00039
1242.09,0.00028
1236.3,0.00011
1230.52,0.00034
1224.73,0.00037
1218.95,0.00238
1213.16,0.00257
1207.37,0.00196
1201.59,0.00157
1195.8,0.00216
1190.02,0.00505
1184.23,0.01228
1178.44,0.01209
1172.66,0.00504
1166.87,0.00710
1161.09,0.00755
1155.3,0.00562
1149.51,0.00501
1143.73,0.00478
1137.94,0.00232
1132.15,0.00023
1126.37,0.00030
1120.58,0.00047
1114.8,0.00066
1109.01,0.00057
1103.22,0.00040
1097.44,0.00043
1091.65,0.00026
1085.87,0.00015
1080.08,0.00100
1074.29,0.00448
1068.51,0.00977
1062.72,0.01450
1056.93,0.01952
1051.15,0.02506
1045.36,0.02582
1039.58,0.02326
1033.79,0.01693
1028,0.00874
1022.22,0.00084
1016.43,0.00075
1010.65,0.00681
1004.86,0.00758
999.073,0.00460
993.287,0.00252
987.501,0.00136
981.715,0.00055
975.929,0.00046
970.142,0.00003
964.356,0.00034
958.57,0.00053
952.784,0.00048
946.998,0.00067
941.212,0.00086
935.426,0.00185
929.64,0.00279
923.853,0.00409
918.067,0.00748
912.281,0.01277
906.495,0.01662
900.709,0.02621
894.923,0.03436
889.137,0.04654
883.35,0.03354
877.564,0.00485
871.778,0.00508
865.992,0.02593
860.206,0.03773
854.42,0.03941
848.634,0.03839
842.847,0.03763
837.061,0.02978
831.275,0.02954
825.489,0.07090
819.703,0.13361
813.917,0.16090
808.131,0.16215
802.344,0.17103
796.558,0.12032
790.772,0.13104
784.986,0.10220
779.2,0.08796
773.414,0.06697
767.628,0.05896
761.842,0.10249
756.055,0.16231
750.269,0.14655
744.483,0.06511
738.697,0.00552
732.911,0.00019
727.125,0.00039
721.339,0.01195
715.552,0.02276
709.766,0.00887
703.98,0.00166
698.194,0.00186
692.408,0.00164
686.622,0.00174
680.836,0.00251
675.049,0.00434
669.263,0.01280
663.477,0.02379
657.691,0.01181
651.905,0.00278
646.119,0.00087
640.333,0.00161
634.546,0.00146
628.76,0.00107
622.974,0.00173
617.188,0.00115
611.402,0.00197
605.616,0.00209
599.83,0.00363