File: 01_Data/PEVA/FTIR/IS/PEVA_0.10_IS_S_240808_R10.dpt
7496.93,0.08754
7491.14,0.10994
7485.35,0.09086
7479.57,0.08117
7473.78,0.09584
7468,0.09679
7462.21,0.09306
7456.42,0.09030
7450.64,0.09649
7444.85,0.08686
7439.06,0.10834
7433.28,0.09896
7427.49,0.09470
7421.71,0.09881
7415.92,0.10030
7410.13,0.08926
7404.35,0.09044
7398.56,0.09069
7392.78,0.08599
7386.99,0.09649
7381.2,0.09866
7375.42,0.09783
7369.63,0.08280
7363.84,0.08547
7358.06,0.09789
7352.27,0.10470
7346.49,0.10359
7340.7,0.09875
7334.91,0.11235
7329.13,0.10130
7323.34,0.10274
7317.56,0.09675
7311.77,0.09781
7305.98,0.09848
7300.2,0.09966
7294.41,0.08847
7288.62,0.09534
7282.84,0.11059
7277.05,0.10143
7271.27,0.09838
7265.48,0.09731
7259.69,0.09563
7253.91,0.10851
7248.12,0.10410
7242.34,0.10492
7236.55,0.09092
7230.76,0.09558
7224.98,0.09218
7219.19,0.09532
7213.4,0.08857
7207.62,0.09749
7201.83,0.09956
7196.05,0.09784
7190.26,0.10634
7184.47,0.09748
7178.69,0.10165
7172.9,0.10085
7167.12,0.08885
7161.33,0.09371
7155.54,0.09939
7149.76,0.09213
7143.97,0.10323
7138.18,0.09439
7132.4,0.09270
7126.61,0.10408
7120.83,0.09365
7115.04,0.09135
7109.25,0.09602
7103.47,0.09710
7097.68,0.10516
7091.9,0.10174
7086.11,0.10143
7080.32,0.09999
7074.54,0.08803
7068.75,0.08798
7062.96,0.09848
7057.18,0.09240
7051.39,0.09881
7045.61,0.09744
7039.82,0.09928
7034.03,0.10084
7028.25,0.10408
7022.46,0.09489
7016.68,0.10086
7010.89,0.09066
7005.1,0.09167
6999.32,0.10032
6993.53,0.10627
6987.74,0.09672
6981.96,0.09667
6976.17,0.09667
6970.39,0.09087
6964.6,0.09410
6958.81,0.09916
6953.03,0.09794
6947.24,0.09978
6941.46,0.09645
6935.67,0.09892
6929.88,0.09369
6924.1,0.09848
6918.31,0.10398
6912.52,0.10677
6906.74,0.09657
6900.95,0.09834
6895.17,0.10018
6889.38,0.10196
6883.59,0.09739
6877.81,0.09305
6872.02,0.10601
6866.24,0.10206
6860.45,0.09465
6854.66,0.09177
6848.88,0.09805
6843.09,0.09912
6837.3,0.10230
6831.52,0.09210
6825.73,0.09909
6819.95,0.09823
6814.16,0.10435
6808.37,0.09291
6802.59,0.09522
6796.8,0.10112
6791.02,0.09953
6785.23,0.09703
6779.44,0.10110
6773.66,0.09685
6767.87,0.09143
6762.08,0.09653
6756.3,0.09555
6750.51,0.10762
6744.73,0.09641
6738.94,0.09560
6733.15,0.10114
6727.37,0.09942
6721.58,0.10842
6715.8,0.10241
6710.01,0.09679
6704.22,0.09584
6698.44,0.09485
6692.65,0.09519
6686.86,0.09710
6681.08,0.09244
6675.29,0.09985
6669.51,0.09063
6663.72,0.09944
6657.93,0.09604
6652.15,0.10242
6646.36,0.09997
6640.58,0.09963
6634.79,0.09891
6629,0.09948
6623.22,0.09966
6617.43,0.09846
6611.64,0.09773
6605.86,0.10026
6600.07,0.09702
6594.29,0.09722
6588.5,0.10052
6582.71,0.10210
6576.93,0.09772
6571.14,0.10197
6565.36,0.09731
6559.57,0.09915
6553.78,0.09905
6548,0.09412
6542.21,0.09405
6536.42,0.09714
6530.64,0.09787
6524.85,0.10114
6519.07,0.09130
6513.28,0.09686
6507.49,0.09849
6501.71,0.09546
6495.92,0.09717
6490.14,0.09467
6484.35,0.09705
6478.56,0.10354
6472.78,0.09645
6466.99,0.09475
6461.2,0.09506
6455.42,0.09983
6449.63,0.09929
6443.85,0.09683
6438.06,0.09983
6432.27,0.09831
6426.49,0.09954
6420.7,0.09953
6414.92,0.09849
6409.13,0.09791
6403.34,0.09652
6397.56,0.10118
6391.77,0.09947
6385.98,0.10162
6380.2,0.10122
6374.41,0.10090
6368.63,0.09470
6362.84,0.09262
6357.05,0.09742
6351.27,0.09689
6345.48,0.09818
6339.7,0.10429
6333.91,0.09594
6328.12,0.09871
6322.34,0.09892
6316.55,0.09647
6310.76,0.09545
6304.98,0.09496
6299.19,0.09379
6293.41,0.09412
6287.62,0.10427
6281.83,0.09830
6276.05,0.09922
6270.26,0.09842
6264.48,0.10060
6258.69,0.09869
6252.9,0.10181
6247.12,0.10128
6241.33,0.10057
6235.54,0.09608
6229.76,0.09802
6223.97,0.09859
6218.19,0.09978
6212.4,0.09819
6206.61,0.10040
6200.83,0.10052
6195.04,0.10002
6189.26,0.09652
6183.47,0.09960
6177.68,0.09828
6171.9,0.10244
6166.11,0.10057
6160.32,0.10054
6154.54,0.09666
6148.75,0.09717
6142.97,0.09746
6137.18,0.09758
6131.39,0.10306
6125.61,0.09831
6119.82,0.10065
6114.04,0.09946
6108.25,0.10096
6102.46,0.09929
6096.68,0.09586
6090.89,0.09624
6085.1,0.09662
6079.32,0.09798
6073.53,0.09472
6067.75,0.09817
6061.96,0.09885
6056.17,0.10198
6050.39,0.09770
6044.6,0.09889
6038.82,0.09825
6033.03,0.10115
6027.24,0.09831
6021.46,0.09754
6015.67,0.09805
6009.88,0.09608
6004.1,0.09903
5998.31,0.09958
5992.53,0.09844
5986.74,0.09824
5980.95,0.09825
5975.17,0.09688
5969.38,0.09741
5963.6,0.10125
5957.81,0.09925
5952.02,0.10293
5946.24,0.09950
5940.45,0.09884
5934.66,0.10138
5928.88,0.09926
5923.09,0.09681
5917.31,0.09963
5911.52,0.09869
5905.73,0.09481
5899.95,0.09541
5894.16,0.09464
5888.38,0.09647
5882.59,0.09499
5876.8,0.09718
5871.02,0.09702
5865.23,0.09485
5859.44,0.09458
5853.66,0.09622
5847.87,0.09448
5842.09,0.09323
5836.3,0.09515
5830.51,0.09658
5824.73,0.09066
5818.94,0.09060
5813.16,0.09146
5807.37,0.08853
5801.58,0.08860
5795.8,0.09112
5790.01,0.08890
5784.22,0.08779
5778.44,0.08597
5772.65,0.08516
5766.87,0.08512
5761.08,0.09263
5755.29,0.09254
5749.51,0.09291
5743.72,0.09361
5737.94,0.09417
5732.15,0.09378
5726.36,0.09267
5720.58,0.09769
5714.79,0.09647
5709,0.09744
5703.22,0.09954
5697.43,0.09327
5691.65,0.09336
5685.86,0.09428
5680.07,0.09544
5674.29,0.09360
5668.5,0.09025
5662.72,0.09231
5656.93,0.09261
5651.14,0.09403
5645.36,0.09555
5639.57,0.09561
5633.78,0.09416
5628,0.09570
5622.21,0.09824
5616.43,0.09860
5610.64,0.09866
5604.85,0.09797
5599.07,0.09653
5593.28,0.09843
5587.5,0.09636
5581.71,0.09717
5575.92,0.09703
5570.14,0.09856
5564.35,0.09626
5558.56,0.09630
5552.78,0.09818
5546.99,0.09595
5541.21,0.09521
5535.42,0.09817
5529.63,0.09584
5523.85,0.09616
5518.06,0.09729
5512.28,0.09597
5506.49,0.09735
5500.7,0.09710
5494.92,0.09820
5489.13,0.09826
5483.34,0.09572
5477.56,0.09650
5471.77,0.09534
5465.99,0.09625
5460.2,0.09774
5454.41,0.09844
5448.63,0.09951
5442.84,0.09651
5437.06,0.09727
5431.27,0.09699
5425.48,0.09850
5419.7,0.09863
5413.91,0.09694
5408.12,0.09590
5402.34,0.09777
5396.55,0.09711
5390.77,0.09665
5384.98,0.09952
5379.19,0.09754
5373.41,0.09889
5367.62,0.09765
5361.84,0.09742
5356.05,0.09763
5350.26,0.09947
5344.48,0.10008
5338.69,0.09850
5332.9,0.09941
5327.12,0.09642
5321.33,0.09845
5315.55,0.10058
5309.76,0.10009
5303.97,0.09987
5298.19,0.10056
5292.4,0.09963
5286.62,0.10213
5280.83,0.09830
5275.04,0.09919
5269.26,0.10067
5263.47,0.09878
5257.68,0.09819
5251.9,0.09786
5246.11,0.09847
5240.33,0.10016
5234.54,0.09972
5228.75,0.09881
5222.97,0.09761
5217.18,0.09984
5211.4,0.09918
5205.61,0.09839
5199.82,0.10004
5194.04,0.10061
5188.25,0.09890
5182.46,0.09930
5176.68,0.09958
5170.89,0.09823
5165.11,0.09942
5159.32,0.09880
5153.53,0.09891
5147.75,0.10021
5141.96,0.10039
5136.18,0.10063
5130.39,0.09978
5124.6,0.09927
5118.82,0.10039
5113.03,0.10036
5107.24,0.09961
5101.46,0.09954
5095.67,0.10024
5089.89,0.09937
5084.1,0.09855
5078.31,0.10015
5072.53,0.09997
5066.74,0.09924
5060.96,0.09960
5055.17,0.10074
5049.38,0.10037
5043.6,0.10098
5037.81,0.09977
5032.02,0.09914
5026.24,0.10017
5020.45,0.10042
5014.67,0.10003
5008.88,0.09912
5003.09,0.09924
4997.31,0.10041
4991.52,0.10029
4985.74,0.10149
4979.95,0.09896
4974.16,0.09931
4968.38,0.09983
4962.59,0.09978
4956.8,0.10079
4951.02,0.10059
4945.23,0.09967
4939.45,0.10071
4933.66,0.09984
4927.87,0.09990
4922.09,0.10105
4916.3,0.10252
4910.52,0.10097
4904.73,0.10142
4898.94,0.09921
4893.16,0.10133
4887.37,0.10056
4881.58,0.10182
4875.8,0.10011
4870.01,0.10044
4864.23,0.10086
4858.44,0.10011
4852.65,0.10113
4846.87,0.10174
4841.08,0.10154
4835.3,0.10168
4829.51,0.10132
4823.72,0.10109
4817.94,0.10151
4812.15,0.10305
4806.36,0.10168
4800.58,0.10085
4794.79,0.10268
4789.01,0.10081
4783.22,0.10238
4777.43,0.10194
4771.65,0.10150
4765.86,0.10231
4760.08,0.10092
4754.29,0.10088
4748.5,0.10221
4742.72,0.10233
4736.93,0.10325
4731.14,0.10108
4725.36,0.10254
4719.57,0.10297
4713.79,0.10266
4708,0.10252
4702.21,0.10203
4696.43,0.10171
4690.64,0.10115
4684.86,0.10226
4679.07,0.10243
4673.28,0.10229
4667.5,0.10210
4661.71,0.10291
4655.92,0.10076
4650.14,0.10147
4644.35,0.10189
4638.57,0.10238
4632.78,0.10398
4626.99,0.10201
4621.21,0.10053
4615.42,0.10185
4609.64,0.10173
4603.85,0.10278
4598.06,0.10247
4592.28,0.10252
4586.49,0.10224
4580.7,0.10151
4574.92,0.10149
4569.13,0.10271
4563.35,0.10292
4557.56,0.10306
4551.77,0.10110
4545.99,0.10172
4540.2,0.10157
4534.42,0.10300
4528.63,0.10278
4522.84,0.10227
4517.06,0.10102
4511.27,0.10040
4505.48,0.10151
4499.7,0.10215
4493.91,0.10131
4488.13,0.09988
4482.34,0.10093
4476.55,0.10029
4470.77,0.10101
4464.98,0.10048
4459.2,0.10048
4453.41,0.09962
4447.62,0.09889
4441.84,0.09957
4436.05,0.10011
4430.26,0.09960
4424.48,0.09895
4418.69,0.09738
4412.91,0.09611
4407.12,0.09706
4401.33,0.09543
4395.55,0.09525
4389.76,0.09486
4383.98,0.09221
4378.19,0.09118
4372.4,0.08999
4366.62,0.08877
4360.83,0.08759
4355.04,0.08515
4349.26,0.08137
4343.47,0.07796
4337.69,0.07337
4331.9,0.07210
4326.11,0.06811
4320.33,0.06706
4314.54,0.07560
4308.76,0.08240
4302.97,0.08523
4297.18,0.08704
4291.4,0.08691
4285.61,0.08538
4279.82,0.08413
4274.04,0.08330
4268.25,0.08143
4262.47,0.07806
4256.68,0.07381
4250.89,0.07246
4245.11,0.07649
4239.32,0.08078
4233.54,0.08199
4227.75,0.08138
4221.96,0.08042
4216.18,0.08069
4210.39,0.08042
4204.6,0.07912
4198.82,0.07726
4193.03,0.07697
4187.25,0.07693
4181.46,0.07723
4175.67,0.07824
4169.89,0.07767
4164.1,0.07761
4158.32,0.07775
4152.53,0.07772
4146.74,0.07837
4140.96,0.07879
4135.17,0.07798
4129.38,0.07838
4123.6,0.07832
4117.81,0.07907
4112.03,0.07879
4106.24,0.07944
4100.45,0.07897
4094.67,0.07892
4088.88,0.08059
4083.1,0.08278
4077.31,0.08387
4071.52,0.08436
4065.74,0.08471
4059.95,0.08490
4054.16,0.08579
4048.38,0.08663
4042.59,0.08772
4036.81,0.08842
4031.02,0.08734
4025.23,0.08719
4019.45,0.08726
4013.66,0.08923
4007.88,0.09132
4002.09,0.09180
3996.3,0.09068
3990.52,0.09076
3984.73,0.09047
3978.94,0.09065
3973.16,0.09302
3967.37,0.09228
3961.59,0.09145
3955.8,0.09098
3950.01,0.09152
3944.23,0.09172
3938.44,0.09174
3932.66,0.09109
3926.87,0.09009
3921.08,0.09024
3915.3,0.09011
3909.51,0.09126
3903.72,0.09219
3897.94,0.09128
3892.15,0.09043
3886.37,0.09098
3880.58,0.09044
3874.79,0.09124
3869.01,0.09148
3863.22,0.09190
3857.44,0.09251
3851.65,0.09105
3845.86,0.09189
3840.08,0.09274
3834.29,0.09246
3828.5,0.09272
3822.72,0.09264
3816.93,0.09173
3811.15,0.09228
3805.36,0.09293
3799.57,0.09396
3793.79,0.09436
3788,0.09380
3782.22,0.09303
3776.43,0.09385
3770.64,0.09478
3764.86,0.09536
3759.07,0.09611
3753.28,0.09522
3747.5,0.09511
3741.71,0.09465
3735.93,0.09509
3730.14,0.09579
3724.35,0.09500
3718.57,0.09473
3712.78,0.09391
3707,0.09382
3701.21,0.09539
3695.42,0.09545
3689.64,0.09562
3683.85,0.09341
3678.06,0.09227
3672.28,0.09218
3666.49,0.09275
3660.71,0.09381
3654.92,0.09226
3649.13,0.09027
3643.35,0.08945
3637.56,0.09100
3631.78,0.09172
3625.99,0.09318
3620.2,0.09158
3614.42,0.09014
3608.63,0.08671
3602.84,0.08555
3597.06,0.09036
3591.27,0.09540
3585.49,0.09541
3579.7,0.09552
3573.91,0.09559
3568.13,0.09653
3562.34,0.09704
3556.56,0.09921
3550.77,0.09891
3544.98,0.09857
3539.2,0.09750
3533.41,0.09712
3527.62,0.09724
3521.84,0.09826
3516.05,0.09882
3510.27,0.09785
3504.48,0.09675
3498.69,0.09699
3492.91,0.09789
3487.12,0.09875
3481.34,0.09760
3475.55,0.09692
3469.76,0.09556
3463.98,0.09610
3458.19,0.09612
3452.4,0.09755
3446.62,0.09639
3440.83,0.09604
3435.05,0.09493
3429.26,0.09502
3423.47,0.09654
3417.69,0.09645
3411.9,0.09622
3406.12,0.09532
3400.33,0.09500
3394.54,0.09512
3388.76,0.09537
3382.97,0.09579
3377.18,0.09501
3371.4,0.09400
3365.61,0.09360
3359.83,0.09462
3354.04,0.09501
3348.25,0.09572
3342.47,0.09505
3336.68,0.09495
3330.9,0.09470
3325.11,0.09586
3319.32,0.09680
3313.54,0.09728
3307.75,0.09541
3301.96,0.09447
3296.18,0.09439
3290.39,0.09615
3284.61,0.09555
3278.82,0.09625
3273.03,0.09490
3267.25,0.09438
3261.46,0.09478
3255.68,0.09590
3249.89,0.09625
3244.1,0.09481
3238.32,0.09464
3232.53,0.09476
3226.74,0.09470
3220.96,0.09512
3215.17,0.09446
3209.39,0.09399
3203.6,0.09317
3197.81,0.09328
3192.03,0.09301
3186.24,0.09342
3180.46,0.09227
3174.67,0.09155
3168.88,0.09195
3163.1,0.09196
3157.31,0.09158
3151.52,0.09047
3145.74,0.08937
3139.95,0.08848
3134.17,0.08821
3128.38,0.08888
3122.59,0.08782
3116.81,0.08621
3111.02,0.08441
3105.24,0.08378
3099.45,0.08217
3093.66,0.07925
3087.88,0.07568
3082.09,0.07466
3076.3,0.07367
3070.52,0.07312
3064.73,0.07202
3058.95,0.07042
3053.16,0.06893
3047.37,0.06817
3041.59,0.06584
3035.8,0.06432
3030.02,0.06266
3024.23,0.06175
3018.44,0.06004
3012.66,0.05891
3006.87,0.05843
3001.08,0.05684
2995.3,0.05497
2989.51,0.05425
2983.73,0.05258
2977.94,0.05129
2972.15,0.04976
2966.37,0.04846
2960.58,0.04771
2954.8,0.04675
2949.01,0.04437
2943.22,0.04177
2937.44,0.03890
2931.65,0.04003
2925.86,0.04899
2920.08,0.07398
2914.29,0.09032
2908.51,0.08049
2902.72,0.07430
2896.93,0.07145
2891.15,0.07010
2885.36,0.06810
2879.58,0.06545
2873.79,0.06275
2868,0.06007
2862.22,0.05641
2856.43,0.05412
2850.64,0.07239
2844.86,0.08731
2839.07,0.07859
2833.29,0.07367
2827.5,0.07127
2821.71,0.06990
2815.93,0.06910
2810.14,0.06844
2804.36,0.06808
2798.57,0.06821
2792.78,0.06875
2787,0.06970
2781.21,0.07099
2775.42,0.07231
2769.64,0.07386
2763.85,0.07356
2758.07,0.07376
2752.28,0.07521
2746.49,0.07556
2740.71,0.07427
2734.92,0.07398
2729.14,0.07505
2723.35,0.07552
2717.56,0.07607
2711.78,0.07552
2705.99,0.07628
2700.2,0.07730
2694.42,0.07759
2688.63,0.07621
2682.85,0.07456
2677.06,0.07447
2671.27,0.07536
2665.49,0.07513
2659.7,0.07493
2653.92,0.07376
2648.13,0.07369
2642.34,0.07441
2636.56,0.07503
2630.77,0.07563
2624.98,0.07596
2619.2,0.07694
2613.41,0.07892
2607.63,0.08098
2601.84,0.08295
2596.05,0.08367
2590.27,0.08359
2584.48,0.08464
2578.7,0.08637
2572.91,0.08896
2567.12,0.09038
2561.34,0.08961
2555.55,0.08925
2549.76,0.08972
2543.98,0.09209
2538.19,0.09441
2532.41,0.09372
2526.62,0.09185
2520.83,0.09179
2515.05,0.09394
2509.26,0.09642
2503.48,0.09793
2497.69,0.09736
2491.9,0.09597
2486.12,0.09515
2480.33,0.09635
2474.55,0.09891
2468.76,0.10033
2462.97,0.09948
2457.19,0.09800
2451.4,0.09768
2445.61,0.09963
2439.83,0.10134
2434.04,0.10104
2428.26,0.09840
2422.47,0.09566
2416.68,0.09575
2410.9,0.09789
2405.11,0.10014
2399.32,0.10005
2393.54,0.09821
2387.75,0.09670
2381.97,0.09636
2376.18,0.09878
2370.39,0.10015
2364.61,0.09937
2358.82,0.09518
2353.04,0.09171
2347.25,0.09105
2341.46,0.09253
2335.68,0.09388
2329.89,0.09296
2324.11,0.09112
2318.32,0.09151
2312.53,0.09274
2306.75,0.09597
2300.96,0.09815
2295.17,0.09821
2289.39,0.09571
2283.6,0.09410
2277.82,0.09478
2272.03,0.09817
2266.24,0.10083
2260.46,0.10101
2254.67,0.09830
2248.89,0.09629
2243.1,0.09709
2237.31,0.10071
2231.53,0.10319
2225.74,0.10236
2219.95,0.09939
2214.17,0.09750
2208.38,0.09840
2202.6,0.10117
2196.81,0.10321
2191.02,0.10231
2185.24,0.09937
2179.45,0.09773
2173.67,0.09854
2167.88,0.10095
2162.09,0.10264
2156.31,0.10179
2150.52,0.09854
2144.73,0.09634
2138.95,0.09760
2133.16,0.10144
2127.38,0.10451
2121.59,0.10387
2115.8,0.10096
2110.02,0.09849
2104.23,0.09909
2098.45,0.10223
2092.66,0.10477
2086.87,0.10356
2081.09,0.10012
2075.3,0.09740
2069.51,0.09808
2063.73,0.10061
2057.94,0.10230
2052.16,0.10149
2046.37,0.09859
2040.58,0.09504
2034.8,0.09509
2029.01,0.09641
2023.23,0.09713
2017.44,0.09678
2011.65,0.09708
2005.87,0.09690
2000.08,0.09794
1994.29,0.10065
1988.51,0.10391
1982.72,0.10462
1976.94,0.10190
1971.15,0.09870
1965.36,0.09838
1959.58,0.10074
1953.79,0.10339
1948.01,0.10384
1942.22,0.10115
1936.43,0.09845
1930.65,0.09745
1924.86,0.09940
1919.07,0.10237
1913.29,0.10285
1907.5,0.09958
1901.72,0.09569
1895.93,0.09419
1890.14,0.09738
1884.36,0.10184
1878.57,0.10411
1872.79,0.10295
1867,0.09996
1861.21,0.09857
1855.43,0.10027
1849.64,0.10356
1843.85,0.10437
1838.07,0.10318
1832.28,0.10042
1826.5,0.09778
1820.71,0.09858
1814.92,0.10097
1809.14,0.10288
1803.35,0.10278
1797.57,0.09956
1791.78,0.09688
1785.99,0.09779
1780.21,0.10035
1774.42,0.10157
1768.63,0.10093
1762.85,0.09808
1757.06,0.09431
1751.28,0.09217
1745.49,0.09247
1739.7,0.09503
1733.92,0.09752
1728.13,0.09688
1722.35,0.09350
1716.56,0.09234
1710.77,0.09418
1704.99,0.09805
1699.2,0.09881
1693.41,0.09809
1687.63,0.09645
1681.84,0.09491
1676.06,0.09610
1670.27,0.09844
1664.48,0.09994
1658.7,0.09869
1652.91,0.09567
1647.13,0.09398
1641.34,0.09318
1635.55,0.09534
1629.77,0.09742
1623.98,0.09761
1618.19,0.09486
1612.41,0.09240
1606.62,0.09193
1600.84,0.09396
1595.05,0.09655
1589.26,0.09603
1583.48,0.09367
1577.69,0.09096
1571.91,0.08993
1566.12,0.09225
1560.33,0.09534
1554.55,0.09450
1548.76,0.09233
1542.97,0.08833
1537.19,0.08695
1531.4,0.08961
1525.62,0.09226
1519.83,0.08990
1514.04,0.08480
1508.26,0.08084
1502.47,0.08051
1496.69,0.08070
1490.9,0.07648
1485.11,0.06541
1479.33,0.05916
1473.54,0.05395
1467.75,0.05772
1461.97,0.06242
1456.18,0.06294
1450.4,0.06234
1444.61,0.06114
1438.82,0.06225
1433.04,0.06793
1427.25,0.07763
1421.47,0.07984
1415.68,0.07940
1409.89,0.08601
1404.11,0.09361
1398.32,0.09230
1392.53,0.08355
1386.75,0.07622
1380.96,0.06813
1375.18,0.06883
1369.39,0.07054
1363.6,0.07193
1357.82,0.07006
1352.03,0.06596
1346.25,0.06838
1340.46,0.07757
1334.67,0.08886
1328.89,0.08992
1323.1,0.08061
1317.31,0.07097
1311.53,0.06987
1305.74,0.07559
1299.96,0.08169
1294.17,0.08451
1288.38,0.08087
1282.6,0.07436
1276.81,0.07356
1271.03,0.08161
1265.24,0.09249
1259.45,0.09643
1253.67,0.08971
1247.88,0.07905
1242.09,0.07751
1236.31,0.08694
1230.52,0.09880
1224.74,0.10250
1218.95,0.09329
1213.16,0.08118
1207.38,0.07780
1201.59,0.08699
1195.81,0.10030
1190.02,0.10447
1184.23,0.09493
1178.45,0.07967
1172.66,0.07446
1166.87,0.08367
1161.09,0.09865
1155.3,0.10516
1149.52,0.09685
1143.73,0.08161
1137.94,0.07436
1132.16,0.08333
1126.37,0.10077
1120.59,0.11109
1114.8,0.10274
1109.01,0.08486
1103.23,0.07438
1097.44,0.08210
1091.65,0.09896
1085.87,0.10830
1080.08,0.10148
1074.3,0.08612
1068.51,0.07494
1062.72,0.07989
1056.94,0.10015
1051.15,0.11438
1045.37,0.11100
1039.58,0.09164
1033.79,0.07617
1028.01,0.07881
1022.22,0.09752
1016.43,0.11448
1010.65,0.11755
1004.86,0.09973
999.076,0.07844
993.29,0.07663
987.504,0.09745
981.717,0.12005
975.931,0.12192
970.145,0.09900
964.359,0.07452
958.573,0.07160
952.787,0.09169
947,0.11802
941.214,0.12427
935.428,0.10331
929.642,0.07631
923.856,0.06850
918.07,0.08899
912.284,0.11754
906.497,0.12589
900.711,0.10722
894.925,0.07565
889.139,0.06463
883.353,0.08476
877.567,0.11643
871.78,0.13007
865.994,0.11096
860.208,0.07767
854.422,0.06345
848.636,0.08190
842.85,0.11540
837.064,0.13220
831.277,0.11285
825.491,0.07731
819.705,0.05940
813.919,0.07795
808.133,0.11373
802.347,0.12858
796.56,0.10815
790.774,0.07088
784.988,0.05470
779.202,0.07264
773.416,0.10527
767.63,0.11762
761.844,0.09652
756.057,0.06107
750.271,0.05302
744.485,0.08274
738.699,0.08903
732.913,0.05290
727.127,0.05902
721.34,0.05744
715.554,0.07045
709.768,0.07982
703.982,0.05061
698.196,0.07174
692.41,0.12556
686.624,0.13953
680.837,0.10163
675.051,0.05737
669.265,0.05858
663.479,0.10369
657.693,0.14475
651.907,0.14355
646.12,0.09763
640.334,0.05436
634.548,0.05989
628.762,0.10870
622.976,0.15014
617.19,0.14493
611.404,0.09795
605.617,0.05218
599.831,0.05807