File: 01_Data/PEVA/FTIR/IS/PEVA_0.26_IS_Trans_S_240819_R3.dpt
7496.91,0.93303
7491.12,0.92176
7485.33,0.93032
7479.55,0.91270
7473.76,0.92287
7467.98,0.92902
7462.19,0.92579
7456.4,0.92356
7450.62,0.93754
7444.83,0.92222
7439.04,0.93044
7433.26,0.93089
7427.47,0.92071
7421.69,0.92917
7415.9,0.93054
7410.11,0.91866
7404.33,0.91824
7398.54,0.92688
7392.76,0.92565
7386.97,0.91897
7381.18,0.91540
7375.4,0.91252
7369.61,0.91638
7363.83,0.93308
7358.04,0.91855
7352.25,0.91360
7346.47,0.92049
7340.68,0.92086
7334.89,0.92520
7329.11,0.91462
7323.32,0.91841
7317.54,0.91303
7311.75,0.91191
7305.96,0.92113
7300.18,0.91239
7294.39,0.90445
7288.61,0.91821
7282.82,0.93126
7277.03,0.91686
7271.25,0.91970
7265.46,0.90489
7259.67,0.90347
7253.89,0.90855
7248.1,0.91799
7242.32,0.91219
7236.53,0.90653
7230.74,0.88874
7224.96,0.90698
7219.17,0.91351
7213.39,0.90310
7207.6,0.90315
7201.81,0.90881
7196.03,0.90340
7190.24,0.91873
7184.45,0.90792
7178.67,0.90154
7172.88,0.90141
7167.1,0.91148
7161.31,0.90213
7155.52,0.90427
7149.74,0.90639
7143.95,0.91363
7138.17,0.89172
7132.38,0.90980
7126.59,0.91035
7120.81,0.90360
7115.02,0.90527
7109.23,0.90400
7103.45,0.90534
7097.66,0.90735
7091.88,0.91404
7086.09,0.90933
7080.3,0.90987
7074.52,0.90465
7068.73,0.89971
7062.95,0.90909
7057.16,0.91021
7051.37,0.89460
7045.59,0.90720
7039.8,0.90976
7034.02,0.90318
7028.23,0.91092
7022.44,0.91119
7016.66,0.89970
7010.87,0.89950
7005.08,0.91280
6999.3,0.91392
6993.51,0.90597
6987.73,0.91569
6981.94,0.90767
6976.15,0.91587
6970.37,0.91047
6964.58,0.91926
6958.8,0.91561
6953.01,0.91401
6947.22,0.91503
6941.44,0.91015
6935.65,0.92027
6929.86,0.91555
6924.08,0.91370
6918.29,0.91660
6912.51,0.91781
6906.72,0.91857
6900.93,0.91176
6895.15,0.92204
6889.36,0.91213
6883.58,0.91290
6877.79,0.92061
6872,0.91207
6866.22,0.91424
6860.43,0.91926
6854.64,0.91817
6848.86,0.91708
6843.07,0.92430
6837.29,0.92637
6831.5,0.91343
6825.71,0.91541
6819.93,0.91862
6814.14,0.91381
6808.36,0.92260
6802.57,0.91925
6796.78,0.92112
6791,0.91710
6785.21,0.91820
6779.43,0.91441
6773.64,0.92206
6767.85,0.92483
6762.07,0.92554
6756.28,0.92473
6750.49,0.92690
6744.71,0.92912
6738.92,0.92851
6733.14,0.92285
6727.35,0.92277
6721.56,0.92309
6715.78,0.92302
6709.99,0.92696
6704.21,0.92449
6698.42,0.92644
6692.63,0.92837
6686.85,0.92593
6681.06,0.92673
6675.27,0.92993
6669.49,0.92747
6663.7,0.92569
6657.92,0.92643
6652.13,0.91867
6646.34,0.92999
6640.56,0.92365
6634.77,0.92717
6628.99,0.92372
6623.2,0.91998
6617.41,0.92681
6611.63,0.91938
6605.84,0.91606
6600.05,0.91544
6594.27,0.92104
6588.48,0.92279
6582.7,0.93060
6576.91,0.92723
6571.12,0.92285
6565.34,0.92530
6559.55,0.92725
6553.77,0.93015
6547.98,0.92801
6542.19,0.92696
6536.41,0.92923
6530.62,0.92561
6524.84,0.91976
6519.05,0.92558
6513.26,0.92560
6507.48,0.92773
6501.69,0.92752
6495.9,0.92982
6490.12,0.93009
6484.33,0.92756
6478.55,0.92640
6472.76,0.92182
6466.97,0.92791
6461.19,0.93200
6455.4,0.92903
6449.62,0.93007
6443.83,0.92900
6438.04,0.92727
6432.26,0.92957
6426.47,0.93221
6420.68,0.93178
6414.9,0.92337
6409.11,0.92614
6403.33,0.92557
6397.54,0.92258
6391.75,0.92733
6385.97,0.92954
6380.18,0.92872
6374.4,0.92741
6368.61,0.92567
6362.82,0.92890
6357.04,0.92864
6351.25,0.92707
6345.46,0.93104
6339.68,0.92785
6333.89,0.92389
6328.11,0.92451
6322.32,0.93013
6316.53,0.92784
6310.75,0.92931
6304.96,0.92335
6299.18,0.92269
6293.39,0.93131
6287.6,0.92534
6281.82,0.92681
6276.03,0.92910
6270.24,0.92511
6264.46,0.92676
6258.67,0.93222
6252.89,0.92577
6247.1,0.92634
6241.31,0.93082
6235.53,0.93006
6229.74,0.92298
6223.96,0.92478
6218.17,0.92415
6212.38,0.92513
6206.6,0.92825
6200.81,0.92829
6195.03,0.92279
6189.24,0.92656
6183.45,0.91934
6177.67,0.92483
6171.88,0.91960
6166.09,0.92392
6160.31,0.92613
6154.52,0.92081
6148.74,0.92385
6142.95,0.92661
6137.16,0.92250
6131.38,0.91931
6125.59,0.92309
6119.81,0.91735
6114.02,0.91588
6108.23,0.91643
6102.45,0.91991
6096.66,0.91775
6090.87,0.91827
6085.09,0.91339
6079.3,0.90861
6073.52,0.90904
6067.73,0.90471
6061.94,0.90079
6056.16,0.89420
6050.37,0.88929
6044.59,0.88991
6038.8,0.88541
6033.01,0.88498
6027.23,0.87908
6021.44,0.88089
6015.65,0.87720
6009.87,0.87434
6004.08,0.88310
5998.3,0.88323
5992.51,0.89046
5986.72,0.89139
5980.94,0.89567
5975.15,0.89773
5969.37,0.89849
5963.58,0.89587
5957.79,0.89458
5952.01,0.89117
5946.22,0.88811
5940.44,0.87976
5934.65,0.87670
5928.86,0.87135
5923.08,0.86750
5917.29,0.85721
5911.5,0.85174
5905.72,0.84800
5899.93,0.84212
5894.15,0.83205
5888.36,0.82186
5882.57,0.81604
5876.79,0.80713
5871,0.79918
5865.22,0.79376
5859.43,0.78013
5853.64,0.76912
5847.86,0.75691
5842.07,0.74165
5836.28,0.73083
5830.5,0.72422
5824.71,0.72068
5818.93,0.72962
5813.14,0.74062
5807.35,0.75336
5801.57,0.76932
5795.78,0.77737
5790,0.78962
5784.21,0.79679
5778.42,0.80728
5772.64,0.81610
5766.85,0.81394
5761.06,0.81697
5755.28,0.81630
5749.49,0.81479
5743.71,0.81218
5737.92,0.81135
5732.13,0.81223
5726.35,0.81321
5720.56,0.81625
5714.78,0.81578
5708.99,0.81318
5703.2,0.81143
5697.42,0.81377
5691.63,0.81789
5685.84,0.82000
5680.06,0.82513
5674.27,0.82819
5668.49,0.83299
5662.7,0.83545
5656.91,0.83640
5651.13,0.83936
5645.34,0.84497
5639.56,0.84745
5633.77,0.84727
5627.98,0.84998
5622.2,0.85581
5616.41,0.85640
5610.63,0.85778
5604.84,0.85956
5599.05,0.85890
5593.27,0.86330
5587.48,0.86423
5581.69,0.86717
5575.91,0.86912
5570.12,0.86901
5564.34,0.86882
5558.55,0.87029
5552.76,0.87032
5546.98,0.87242
5541.19,0.87374
5535.41,0.87123
5529.62,0.87440
5523.83,0.87475
5518.05,0.87224
5512.26,0.87416
5506.47,0.87452
5500.69,0.87233
5494.9,0.87011
5489.12,0.87017
5483.33,0.87339
5477.54,0.86995
5471.76,0.86975
5465.97,0.87035
5460.19,0.86961
5454.4,0.87478
5448.61,0.87161
5442.83,0.87325
5437.04,0.87521
5431.25,0.87693
5425.47,0.88174
5419.68,0.88419
5413.9,0.87588
5408.11,0.87882
5402.32,0.88423
5396.54,0.88097
5390.75,0.88498
5384.97,0.88500
5379.18,0.88277
5373.39,0.88427
5367.61,0.88970
5361.82,0.88892
5356.04,0.88885
5350.25,0.88805
5344.46,0.88287
5338.68,0.88113
5332.89,0.88991
5327.1,0.88824
5321.32,0.89538
5315.53,0.89292
5309.75,0.89288
5303.96,0.89547
5298.17,0.89566
5292.39,0.89326
5286.6,0.89501
5280.82,0.89277
5275.03,0.89583
5269.24,0.89001
5263.46,0.88432
5257.67,0.89224
5251.88,0.89212
5246.1,0.88531
5240.31,0.89459
5234.53,0.89255
5228.74,0.89176
5222.95,0.89022
5217.17,0.89457
5211.38,0.89665
5205.6,0.89123
5199.81,0.89629
5194.02,0.89431
5188.24,0.89374
5182.45,0.89448
5176.66,0.89711
5170.88,0.89594
5165.09,0.89500
5159.31,0.89525
5153.52,0.89467
5147.73,0.89727
5141.95,0.89758
5136.16,0.89690
5130.38,0.89700
5124.59,0.89774
5118.8,0.89638
5113.02,0.89662
5107.23,0.89636
5101.45,0.89492
5095.66,0.89752
5089.87,0.89641
5084.09,0.89864
5078.3,0.89878
5072.51,0.90072
5066.73,0.89981
5060.94,0.90051
5055.16,0.90165
5049.37,0.90064
5043.58,0.90140
5037.8,0.90167
5032.01,0.90147
5026.23,0.90222
5020.44,0.90313
5014.65,0.90199
5008.87,0.90192
5003.08,0.90192
4997.29,0.90145
4991.51,0.90272
4985.72,0.90332
4979.94,0.90331
4974.15,0.90348
4968.36,0.90348
4962.58,0.90421
4956.79,0.90462
4951.01,0.90404
4945.22,0.90277
4939.43,0.90386
4933.65,0.90323
4927.86,0.90171
4922.07,0.90514
4916.29,0.90393
4910.5,0.90384
4904.72,0.90463
4898.93,0.90409
4893.14,0.90256
4887.36,0.90375
4881.57,0.90321
4875.79,0.90362
4870,0.90197
4864.21,0.90171
4858.43,0.90468
4852.64,0.90358
4846.85,0.90506
4841.07,0.90174
4835.28,0.90274
4829.5,0.90269
4823.71,0.90290
4817.92,0.90104
4812.14,0.90229
4806.35,0.90214
4800.57,0.90047
4794.78,0.90124
4788.99,0.90143
4783.21,0.89989
4777.42,0.89999
4771.64,0.90165
4765.85,0.90105
4760.06,0.90266
4754.28,0.90132
4748.49,0.90110
4742.7,0.89973
4736.92,0.89949
4731.13,0.89647
4725.35,0.89221
4719.56,0.88763
4713.77,0.88578
4707.99,0.88460
4702.2,0.88009
4696.42,0.87343
4690.63,0.86470
4684.84,0.86151
4679.06,0.86666
4673.27,0.87030
4667.48,0.87561
4661.7,0.87590
4655.91,0.87772
4650.13,0.87783
4644.34,0.87535
4638.55,0.86912
4632.77,0.86223
4626.98,0.86571
4621.2,0.87345
4615.41,0.88127
4609.62,0.88401
4603.84,0.88614
4598.05,0.88460
4592.26,0.88414
4586.48,0.88138
4580.69,0.88040
4574.91,0.88060
4569.12,0.88168
4563.33,0.88692
4557.55,0.88851
4551.76,0.88741
4545.98,0.88677
4540.19,0.88710
4534.4,0.88603
4528.62,0.88423
4522.83,0.88380
4517.05,0.88218
4511.26,0.87884
4505.47,0.87647
4499.69,0.87086
4493.9,0.86516
4488.11,0.85860
4482.33,0.85376
4476.54,0.85059
4470.76,0.84758
4464.97,0.84231
4459.18,0.83367
4453.4,0.82383
4447.61,0.81011
4441.83,0.79215
4436.04,0.77300
4430.25,0.74933
4424.47,0.72355
4418.68,0.69574
4412.89,0.66793
4407.11,0.64316
4401.32,0.62635
4395.54,0.61765
4389.75,0.61314
4383.96,0.59705
4378.18,0.57013
4372.39,0.54002
4366.61,0.50654
4360.82,0.47032
4355.03,0.43933
4349.25,0.41126
4343.46,0.38341
4337.67,0.35764
4331.89,0.35188
4326.1,0.37564
4320.32,0.41090
4314.53,0.44544
4308.74,0.46738
4302.96,0.47782
4297.17,0.48225
4291.39,0.48126
4285.6,0.47583
4279.81,0.47156
4274.03,0.47243
4268.24,0.47676
4262.46,0.48388
4256.67,0.48913
4250.88,0.48827
4245.1,0.48817
4239.31,0.48624
4233.52,0.48093
4227.74,0.47436
4221.95,0.46813
4216.17,0.46494
4210.38,0.46630
4204.59,0.47521
4198.81,0.48826
4193.02,0.49989
4187.24,0.50633
4181.45,0.50240
4175.66,0.49346
4169.88,0.48927
4164.09,0.50003
4158.3,0.51846
4152.52,0.53533
4146.73,0.54731
4140.95,0.56078
4135.16,0.57431
4129.37,0.58428
4123.59,0.58707
4117.8,0.58439
4112.02,0.57871
4106.23,0.57272
4100.44,0.56383
4094.66,0.54656
4088.87,0.51696
4083.08,0.49634
4077.3,0.51211
4071.51,0.53927
4065.73,0.56480
4059.94,0.58748
4054.15,0.60673
4048.37,0.61664
4042.58,0.62303
4036.8,0.62766
4031.01,0.63000
4025.22,0.62955
4019.44,0.62972
4013.65,0.63497
4007.86,0.64222
4002.08,0.65279
3996.29,0.66272
3990.51,0.67204
3984.72,0.68178
3978.93,0.68777
3973.15,0.69319
3967.36,0.69830
3961.58,0.70092
3955.79,0.70235
3950,0.70039
3944.22,0.70095
3938.43,0.70474
3932.65,0.70035
3926.86,0.70146
3921.07,0.69946
3915.29,0.70223
3909.5,0.70641
3903.71,0.69327
3897.93,0.70393
3892.14,0.70634
3886.36,0.71090
3880.57,0.71009
3874.78,0.71226
3869,0.70648
3863.21,0.70780
3857.43,0.71194
3851.64,0.70419
3845.85,0.71965
3840.07,0.70809
3834.28,0.71742
3828.49,0.72434
3822.71,0.71882
3816.92,0.72222
3811.14,0.73822
3805.35,0.72997
3799.56,0.73086
3793.78,0.75004
3787.99,0.75673
3782.21,0.75595
3776.42,0.75998
3770.63,0.75434
3764.85,0.75366
3759.06,0.74715
3753.27,0.74049
3747.49,0.73870
3741.7,0.75228
3735.92,0.74394
3730.13,0.76160
3724.34,0.76517
3718.56,0.77729
3712.77,0.76344
3706.99,0.76325
3701.2,0.74900
3695.41,0.73136
3689.63,0.68723
3683.84,0.67897
3678.06,0.66409
3672.27,0.66363
3666.48,0.68063
3660.7,0.68958
3654.91,0.68905
3649.12,0.67356
3643.34,0.69712
3637.55,0.69746
3631.77,0.68388
3625.98,0.67330
3620.19,0.66258
3614.41,0.65196
3608.62,0.64935
3602.84,0.64826
3597.05,0.63831
3591.26,0.63298
3585.48,0.62124
3579.69,0.62012
3573.9,0.60852
3568.12,0.58711
3562.33,0.57846
3556.55,0.57038
3550.76,0.55851
3544.97,0.55183
3539.19,0.55234
3533.4,0.54914
3527.62,0.54150
3521.83,0.53942
3516.04,0.53642
3510.26,0.52590
3504.47,0.51583
3498.68,0.50495
3492.9,0.49080
3487.11,0.47372
3481.33,0.45577
3475.54,0.44149
3469.75,0.42809
3463.97,0.41562
3458.18,0.40343
3452.4,0.39022
3446.61,0.36924
3440.82,0.34500
3435.04,0.31743
3429.25,0.29724
3423.47,0.29042
3417.68,0.30052
3411.89,0.32416
3406.11,0.35313
3400.32,0.38551
3394.53,0.41287
3388.75,0.43465
3382.96,0.45309
3377.18,0.46871
3371.39,0.48188
3365.6,0.49154
3359.82,0.49882
3354.03,0.50348
3348.25,0.50526
3342.46,0.50283
3336.67,0.49592
3330.89,0.48933
3325.1,0.48480
3319.31,0.47035
3313.53,0.42956
3307.74,0.35084
3301.96,0.29403
3296.17,0.32719
3290.38,0.39683
3284.6,0.45625
3278.81,0.49395
3273.03,0.52278
3267.24,0.54324
3261.45,0.55749
3255.67,0.56424
3249.88,0.56898
3244.09,0.56901
3238.31,0.56822
3232.52,0.56444
3226.74,0.56004
3220.95,0.55737
3215.16,0.55363
3209.38,0.54986
3203.59,0.54528
3197.81,0.54193
3192.02,0.54046
3186.23,0.54121
3180.45,0.54281
3174.66,0.54385
3168.87,0.54415
3163.09,0.54372
3157.3,0.54185
3151.52,0.53942
3145.73,0.53308
3139.94,0.52511
3134.16,0.51403
3128.37,0.49851
3122.59,0.49161
3116.8,0.48742
3111.01,0.47347
3105.23,0.44845
3099.44,0.41776
3093.66,0.39853
3087.87,0.37332
3082.08,0.34204
3076.3,0.33482
3070.51,0.31899
3064.72,0.29280
3058.94,0.28536
3053.15,0.27153
3047.37,0.28451
3041.58,0.28888
3035.79,0.26950
3030.01,0.24191
3024.22,0.21081
3018.44,0.17260
3012.65,0.12899
3006.86,0.08370
3001.08,0.04316
2995.29,0.01623
2989.5,0.00285
2983.72,0.00060
2977.93,0.00048
2972.15,0.00063
2966.36,0.00036
2960.57,0.00022
2954.79,0.00076
2949,0.00034
2943.22,0.00068
2937.43,0.00039
2931.64,0.00082
2925.86,0.00046
2920.07,0.00069
2914.28,0.00040
2908.5,0.00082
2902.71,0.00076
2896.93,0.00047
2891.14,0.00045
2885.35,0.00053
2879.57,0.00091
2873.78,0.00041
2868,0.00087
2862.21,0.00020
2856.42,0.00058
2850.64,0.00077
2844.85,0.00066
2839.07,0.00847
2833.28,0.02804
2827.49,0.04964
2821.71,0.06169
2815.92,0.07136
2810.13,0.11558
2804.35,0.17059
2798.56,0.21660
2792.78,0.25739
2786.99,0.29134
2781.2,0.32101
2775.42,0.34515
2769.63,0.35980
2763.85,0.36831
2758.06,0.36989
2752.27,0.36290
2746.49,0.35065
2740.7,0.33559
2734.91,0.32472
2729.13,0.33879
2723.34,0.37607
2717.56,0.40705
2711.77,0.42690
2705.98,0.44288
2700.2,0.45484
2694.41,0.46251
2688.63,0.46471
2682.84,0.46055
2677.05,0.45339
2671.27,0.45203
2665.48,0.46287
2659.69,0.48193
2653.91,0.49932
2648.12,0.50833
2642.34,0.50916
2636.55,0.50067
2630.76,0.48964
2624.98,0.48694
2619.19,0.48626
2613.41,0.48556
2607.62,0.48449
2601.83,0.48567
2596.05,0.48723
2590.26,0.48626
2584.47,0.48202
2578.69,0.47998
2572.9,0.48603
2567.12,0.49505
2561.33,0.49988
2555.54,0.50190
2549.76,0.50725
2543.97,0.51534
2538.19,0.52298
2532.4,0.52690
2526.61,0.53206
2520.83,0.54227
2515.04,0.55607
2509.26,0.56980
2503.47,0.58216
2497.68,0.58940
2491.9,0.59434
2486.11,0.59861
2480.32,0.60374
2474.54,0.60881
2468.75,0.61493
2462.97,0.61754
2457.18,0.61797
2451.39,0.61613
2445.61,0.61151
2439.82,0.60459
2434.04,0.59689
2428.25,0.58671
2422.46,0.57247
2416.68,0.56153
2410.89,0.55326
2405.1,0.54405
2399.32,0.53476
2393.53,0.52530
2387.75,0.51699
2381.96,0.50975
2376.17,0.50311
2370.39,0.50213
2364.6,0.50656
2358.82,0.51930
2353.03,0.54672
2347.24,0.56883
2341.46,0.58024
2335.67,0.59584
2329.88,0.60786
2324.1,0.61004
2318.31,0.62420
2312.53,0.63853
2306.74,0.64330
2300.95,0.64163
2295.17,0.63372
2289.38,0.62118
2283.6,0.60431
2277.81,0.59333
2272.02,0.60252
2266.24,0.61743
2260.45,0.62412
2254.67,0.62570
2248.88,0.62525
2243.09,0.62232
2237.31,0.62013
2231.52,0.62084
2225.73,0.62444
2219.95,0.63124
2214.16,0.63473
2208.38,0.63774
2202.59,0.65330
2196.8,0.66742
2191.02,0.67515
2185.23,0.68321
2179.45,0.68990
2173.66,0.69344
2167.87,0.69351
2162.09,0.69008
2156.3,0.68710
2150.51,0.68503
2144.73,0.68339
2138.94,0.68089
2133.16,0.67974
2127.37,0.67850
2121.58,0.67632
2115.8,0.67368
2110.01,0.67177
2104.23,0.67102
2098.44,0.66905
2092.65,0.66602
2086.87,0.66122
2081.08,0.65702
2075.29,0.65373
2069.51,0.65314
2063.72,0.65439
2057.94,0.65965
2052.15,0.66597
2046.36,0.67164
2040.58,0.67572
2034.79,0.67738
2029.01,0.68011
2023.22,0.68487
2017.43,0.68958
2011.65,0.69537
2005.86,0.69653
2000.08,0.69219
1994.29,0.67782
1988.5,0.66283
1982.72,0.65984
1976.93,0.65277
1971.14,0.63690
1965.36,0.60796
1959.57,0.56670
1953.79,0.50810
1948,0.48364
1942.21,0.51842
1936.43,0.56389
1930.64,0.60056
1924.86,0.62107
1919.07,0.62999
1913.28,0.63799
1907.5,0.64031
1901.71,0.64684
1895.92,0.64724
1890.14,0.64789
1884.35,0.65300
1878.57,0.65680
1872.78,0.65366
1866.99,0.64209
1861.21,0.63951
1855.42,0.62360
1849.64,0.59493
1843.85,0.55644
1838.06,0.52905
1832.28,0.47717
1826.49,0.41639
1820.7,0.40466
1814.92,0.42207
1809.13,0.43184
1803.35,0.42707
1797.56,0.40653
1791.77,0.37218
1785.99,0.34092
1780.2,0.30035
1774.42,0.26318
1768.63,0.21486
1762.84,0.16190
1757.06,0.08725
1751.27,0.03206
1745.48,0.00633
1739.7,0.00061
1733.91,0.00070
1728.13,0.00042
1722.34,0.00045
1716.55,0.00068
1710.77,0.00050
1704.98,0.00039
1699.2,0.00295
1693.41,0.02560
1687.62,0.04972
1681.84,0.06513
1676.05,0.07573
1670.27,0.10461
1664.48,0.18510
1658.69,0.26181
1652.91,0.28389
1647.12,0.27006
1641.33,0.19915
1635.55,0.17595
1629.76,0.27644
1623.98,0.31774
1618.19,0.30209
1612.4,0.26141
1606.62,0.29149
1600.83,0.34025
1595.05,0.35045
1589.26,0.33463
1583.47,0.22789
1577.69,0.09982
1571.9,0.16566
1566.11,0.21543
1560.33,0.23824
1554.54,0.26416
1548.76,0.26856
1542.97,0.23497
1537.18,0.22238
1531.4,0.24566
1525.61,0.25157
1519.83,0.27141
1514.04,0.24066
1508.25,0.13201
1502.47,0.07750
1496.68,0.19411
1490.89,0.19239
1485.11,0.11262
1479.32,0.03919
1473.54,0.00456
1467.75,-0.00017
1461.96,0.00058
1456.18,0.00062
1450.39,0.00053
1444.61,0.00060
1438.82,0.00026
1433.03,0.00006
1427.25,0.00056
1421.46,0.00030
1415.68,0.00019
1409.89,-0.00000
1404.1,0.00112
1398.32,0.00501
1392.53,0.00138
1386.74,0.00051
1380.96,0.00019
1375.17,0.00041
1369.39,0.00122
1363.6,0.00158
1357.81,0.00042
1352.03,0.00035
1346.24,0.00033
1340.46,0.00033
1334.67,0.00012
1328.88,0.00049
1323.1,0.00037
1317.31,0.00032
1311.52,0.00034
1305.74,0.00018
1299.95,0.00030
1294.17,0.00056
1288.38,0.00026
1282.59,0.00026
1276.81,0.00027
1271.02,0.00022
1265.24,0.00069
1259.45,0.00057
1253.66,0.00030
1247.88,0.00027
1242.09,0.00049
1236.3,0.00020
1230.52,0.00044
1224.73,0.00038
1218.95,0.00229
1213.16,0.00296
1207.37,0.00222
1201.59,0.00130
1195.8,0.00183
1190.02,0.00514
1184.23,0.01245
1178.44,0.01194
1172.66,0.00475
1166.87,0.00694
1161.09,0.00761
1155.3,0.00618
1149.51,0.00462
1143.73,0.00364
1137.94,0.00168
1132.15,0.00013
1126.37,0.00045
1120.58,0.00029
1114.8,0.00035
1109.01,0.00036
1103.22,0.00039
1097.44,0.00062
1091.65,0.00010
1085.87,0.00045
1080.08,0.00104
1074.29,0.00439
1068.51,0.00874
1062.72,0.01420
1056.93,0.01992
1051.15,0.02503
1045.36,0.02625
1039.58,0.02353
1033.79,0.01724
1028,0.00863
1022.22,0.00064
1016.43,0.00090
1010.65,0.00648
1004.86,0.00748
999.073,0.00438
993.287,0.00216
987.501,0.00100
981.715,0.00006
975.929,0.00015
970.142,0.00041
964.356,0.00074
958.57,0.00086
952.784,0.00001
946.998,0.00049
941.212,0.00051
935.426,0.00164
929.64,0.00275
923.853,0.00354
918.067,0.00697
912.281,0.01246
906.495,0.01697
900.709,0.02565
894.923,0.03391
889.137,0.04561
883.35,0.03307
877.564,0.00453
871.778,0.00489
865.992,0.02624
860.206,0.03820
854.42,0.04003
848.634,0.03884
842.847,0.03701
837.061,0.03009
831.275,0.02931
825.489,0.07031
819.703,0.13422
813.917,0.16093
808.131,0.16227
802.344,0.17097
796.558,0.12077
790.772,0.13185
784.986,0.10265
779.2,0.08800
773.414,0.06670
767.628,0.05807
761.842,0.10253
756.055,0.16219
750.269,0.14649
744.483,0.06506
738.697,0.00453
732.911,0.00008
727.125,0.00009
721.339,0.01262
715.552,0.02250
709.766,0.01033
703.98,0.00233
698.194,0.00028
692.408,0.00131
686.622,0.00163
680.836,0.00234
675.049,0.00511
669.263,0.01296
663.477,0.02359
657.691,0.01172
651.905,0.00104
646.119,-0.00005
640.333,0.00107
634.546,0.00167
628.76,0.00162
622.974,0.00082
617.188,0.00100
611.402,0.00298
605.616,0.00182
599.83,0.00545