File: 01_Data/PEVA/FTIR/IS/PEVA_0.26_IS_T_240809_R10.dpt
7497.2,0.04152
7491.41,0.02045
7485.63,0.02541
7479.84,0.02974
7474.05,0.03494
7468.27,0.03910
7462.48,0.04434
7456.7,0.03863
7450.91,0.03195
7445.12,0.02258
7439.34,0.04807
7433.55,0.03796
7427.76,0.04386
7421.98,0.03719
7416.19,0.02699
7410.4,0.03178
7404.62,0.03877
7398.83,0.04540
7393.05,0.02859
7387.26,0.02840
7381.47,0.03645
7375.69,0.03722
7369.9,0.03480
7364.11,0.02945
7358.33,0.02933
7352.54,0.02672
7346.75,0.03135
7340.97,0.03858
7335.18,0.02844
7329.4,0.03189
7323.61,0.04094
7317.82,0.03783
7312.04,0.03645
7306.25,0.03942
7300.46,0.03737
7294.68,0.03732
7288.89,0.03934
7283.1,0.02886
7277.32,0.03307
7271.53,0.03267
7265.75,0.04075
7259.96,0.03634
7254.17,0.03239
7248.39,0.02774
7242.6,0.03616
7236.81,0.03408
7231.03,0.03892
7225.24,0.03259
7219.45,0.03484
7213.67,0.01928
7207.88,0.03877
7202.1,0.02607
7196.31,0.03188
7190.52,0.02096
7184.74,0.02069
7178.95,0.03035
7173.16,0.03580
7167.38,0.03127
7161.59,0.03613
7155.8,0.03872
7150.02,0.03661
7144.23,0.03666
7138.45,0.03267
7132.66,0.03224
7126.87,0.02605
7121.09,0.03197
7115.3,0.03325
7109.51,0.03434
7103.73,0.02763
7097.94,0.03059
7092.15,0.03672
7086.37,0.03904
7080.58,0.03608
7074.8,0.03012
7069.01,0.03240
7063.22,0.03126
7057.44,0.02285
7051.65,0.03075
7045.86,0.03146
7040.08,0.03116
7034.29,0.04025
7028.5,0.03629
7022.72,0.03666
7016.93,0.03331
7011.15,0.04278
7005.36,0.03693
6999.57,0.04025
6993.79,0.03432
6988,0.03649
6982.21,0.03224
6976.43,0.02986
6970.64,0.03258
6964.85,0.03583
6959.07,0.03849
6953.28,0.03181
6947.5,0.03301
6941.71,0.03749
6935.92,0.03130
6930.14,0.03270
6924.35,0.03102
6918.56,0.01863
6912.78,0.02652
6906.99,0.02432
6901.2,0.03327
6895.42,0.03163
6889.63,0.04372
6883.85,0.02476
6878.06,0.02573
6872.27,0.03229
6866.49,0.03300
6860.7,0.03163
6854.91,0.03533
6849.13,0.03078
6843.34,0.03408
6837.55,0.03862
6831.77,0.03880
6825.98,0.03590
6820.2,0.03065
6814.41,0.02994
6808.62,0.03195
6802.84,0.03833
6797.05,0.03058
6791.26,0.03203
6785.48,0.02733
6779.69,0.02962
6773.9,0.03263
6768.12,0.03145
6762.33,0.03368
6756.55,0.03085
6750.76,0.03223
6744.97,0.03440
6739.19,0.03394
6733.4,0.02827
6727.61,0.03137
6721.83,0.03348
6716.04,0.02836
6710.25,0.03170
6704.47,0.03068
6698.68,0.03297
6692.9,0.03246
6687.11,0.03271
6681.32,0.02663
6675.54,0.03069
6669.75,0.02814
6663.96,0.02811
6658.18,0.03688
6652.39,0.03475
6646.6,0.03506
6640.82,0.03463
6635.03,0.03278
6629.25,0.03925
6623.46,0.03046
6617.67,0.03277
6611.89,0.03380
6606.1,0.03377
6600.31,0.03127
6594.53,0.03323
6588.74,0.03031
6582.95,0.02938
6577.17,0.02718
6571.38,0.03174
6565.6,0.02545
6559.81,0.02871
6554.02,0.02995
6548.24,0.03092
6542.45,0.02801
6536.66,0.03601
6530.88,0.03249
6525.09,0.03392
6519.3,0.02988
6513.52,0.03317
6507.73,0.03267
6501.95,0.02932
6496.16,0.03204
6490.37,0.03342
6484.59,0.02811
6478.8,0.03085
6473.01,0.03286
6467.23,0.02934
6461.44,0.02750
6455.65,0.03396
6449.87,0.02804
6444.08,0.02856
6438.3,0.02982
6432.51,0.02988
6426.72,0.03101
6420.94,0.03413
6415.15,0.03321
6409.36,0.03283
6403.58,0.03243
6397.79,0.03079
6392,0.03775
6386.22,0.02669
6380.43,0.02969
6374.65,0.02768
6368.86,0.03068
6363.07,0.02646
6357.29,0.02773
6351.5,0.02781
6345.71,0.03152
6339.93,0.02935
6334.14,0.03090
6328.35,0.03429
6322.57,0.02881
6316.78,0.03533
6310.99,0.03359
6305.21,0.03098
6299.42,0.03094
6293.64,0.03037
6287.85,0.03106
6282.06,0.03175
6276.28,0.02960
6270.49,0.03276
6264.7,0.02971
6258.92,0.02860
6253.13,0.02987
6247.34,0.03139
6241.56,0.03329
6235.77,0.03076
6229.99,0.03179
6224.2,0.02760
6218.41,0.03239
6212.63,0.03073
6206.84,0.02745
6201.05,0.02935
6195.27,0.03378
6189.48,0.03286
6183.69,0.03459
6177.91,0.02859
6172.12,0.02984
6166.34,0.03421
6160.55,0.02954
6154.76,0.02655
6148.98,0.03048
6143.19,0.02790
6137.4,0.03068
6131.62,0.03085
6125.83,0.03282
6120.04,0.02917
6114.26,0.03354
6108.47,0.03239
6102.69,0.03010
6096.9,0.03033
6091.11,0.02818
6085.33,0.02679
6079.54,0.03006
6073.75,0.03050
6067.97,0.02873
6062.18,0.02966
6056.39,0.03190
6050.61,0.02812
6044.82,0.02827
6039.04,0.03092
6033.25,0.03194
6027.46,0.02964
6021.68,0.03232
6015.89,0.02842
6010.1,0.03472
6004.32,0.03273
5998.53,0.03309
5992.74,0.02855
5986.96,0.02743
5981.17,0.03046
5975.39,0.03332
5969.6,0.03147
5963.81,0.03415
5958.03,0.03375
5952.24,0.03049
5946.45,0.02868
5940.67,0.02897
5934.88,0.03137
5929.09,0.02841
5923.31,0.03124
5917.52,0.03102
5911.74,0.02863
5905.95,0.02998
5900.16,0.02805
5894.38,0.03132
5888.59,0.03279
5882.8,0.03043
5877.02,0.03031
5871.23,0.03098
5865.44,0.03163
5859.66,0.03082
5853.87,0.03117
5848.09,0.02853
5842.3,0.02838
5836.51,0.03397
5830.73,0.02969
5824.94,0.03201
5819.15,0.03099
5813.37,0.03036
5807.58,0.03004
5801.79,0.03257
5796.01,0.03095
5790.22,0.03190
5784.44,0.03159
5778.65,0.02904
5772.86,0.03018
5767.08,0.03029
5761.29,0.03068
5755.5,0.02930
5749.72,0.02995
5743.93,0.03393
5738.14,0.03233
5732.36,0.02930
5726.57,0.02991
5720.79,0.03045
5715,0.02936
5709.21,0.03092
5703.43,0.02910
5697.64,0.03112
5691.85,0.03018
5686.07,0.03079
5680.28,0.03055
5674.49,0.02995
5668.71,0.03225
5662.92,0.03086
5657.14,0.02909
5651.35,0.02731
5645.56,0.03162
5639.78,0.03070
5633.99,0.03126
5628.2,0.03379
5622.42,0.03134
5616.63,0.03203
5610.84,0.03161
5605.06,0.03257
5599.27,0.03072
5593.49,0.03187
5587.7,0.03140
5581.91,0.03136
5576.13,0.03345
5570.34,0.03301
5564.55,0.03032
5558.77,0.03077
5552.98,0.03042
5547.19,0.03015
5541.41,0.03176
5535.62,0.02980
5529.84,0.02855
5524.05,0.02962
5518.26,0.02957
5512.48,0.02979
5506.69,0.03140
5500.9,0.03138
5495.12,0.02888
5489.33,0.02940
5483.54,0.02927
5477.76,0.02889
5471.97,0.03168
5466.19,0.03090
5460.4,0.03244
5454.61,0.03176
5448.83,0.03093
5443.04,0.03188
5437.25,0.03152
5431.47,0.03179
5425.68,0.03127
5419.89,0.02973
5414.11,0.03035
5408.32,0.03152
5402.54,0.03038
5396.75,0.03013
5390.96,0.03024
5385.18,0.03115
5379.39,0.02886
5373.6,0.03034
5367.82,0.03218
5362.03,0.03053
5356.24,0.03055
5350.46,0.03219
5344.67,0.02956
5338.89,0.03138
5333.1,0.03063
5327.31,0.03060
5321.53,0.03031
5315.74,0.02958
5309.95,0.03257
5304.17,0.03341
5298.38,0.03127
5292.59,0.03115
5286.81,0.03016
5281.02,0.03043
5275.24,0.03115
5269.45,0.02972
5263.66,0.03007
5257.88,0.03042
5252.09,0.03046
5246.3,0.03186
5240.52,0.03153
5234.73,0.03117
5228.94,0.03175
5223.16,0.03057
5217.37,0.02975
5211.59,0.03027
5205.8,0.02930
5200.01,0.03100
5194.23,0.03164
5188.44,0.02901
5182.65,0.03070
5176.87,0.03088
5171.08,0.03068
5165.29,0.03040
5159.51,0.03040
5153.72,0.03136
5147.94,0.03257
5142.15,0.03086
5136.36,0.03080
5130.58,0.03141
5124.79,0.03229
5119,0.03068
5113.22,0.03106
5107.43,0.02984
5101.64,0.03180
5095.86,0.03126
5090.07,0.03024
5084.29,0.03004
5078.5,0.02951
5072.71,0.02989
5066.93,0.02938
5061.14,0.03120
5055.35,0.03013
5049.57,0.03147
5043.78,0.03149
5037.99,0.03127
5032.21,0.03021
5026.42,0.03066
5020.64,0.03097
5014.85,0.03260
5009.06,0.03081
5003.28,0.02959
4997.49,0.03089
4991.7,0.03065
4985.92,0.03192
4980.13,0.03175
4974.34,0.03143
4968.56,0.03060
4962.77,0.03208
4956.99,0.03157
4951.2,0.03027
4945.41,0.03090
4939.63,0.03097
4933.84,0.03087
4928.05,0.03091
4922.27,0.03146
4916.48,0.03143
4910.69,0.03162
4904.91,0.03100
4899.12,0.03045
4893.34,0.03026
4887.55,0.03154
4881.76,0.03120
4875.98,0.03054
4870.19,0.03034
4864.4,0.03081
4858.62,0.03077
4852.83,0.03105
4847.04,0.03066
4841.26,0.03193
4835.47,0.03033
4829.69,0.03066
4823.9,0.03035
4818.11,0.03162
4812.33,0.03180
4806.54,0.03051
4800.75,0.02957
4794.97,0.03068
4789.18,0.03045
4783.39,0.03050
4777.61,0.03036
4771.82,0.03021
4766.04,0.03099
4760.25,0.03093
4754.46,0.03161
4748.68,0.03102
4742.89,0.03115
4737.1,0.03246
4731.32,0.02956
4725.53,0.03068
4719.74,0.03063
4713.96,0.03014
4708.17,0.03031
4702.39,0.02978
4696.6,0.03001
4690.81,0.03083
4685.03,0.03089
4679.24,0.03032
4673.45,0.03164
4667.67,0.03135
4661.88,0.03109
4656.09,0.03102
4650.31,0.03130
4644.52,0.03027
4638.74,0.03205
4632.95,0.02962
4627.16,0.03031
4621.38,0.03111
4615.59,0.03190
4609.8,0.03061
4604.02,0.03117
4598.23,0.03170
4592.44,0.02995
4586.66,0.03125
4580.87,0.03161
4575.09,0.03070
4569.3,0.03008
4563.51,0.03084
4557.73,0.03133
4551.94,0.02992
4546.15,0.03049
4540.37,0.03062
4534.58,0.03076
4528.79,0.03011
4523.01,0.03052
4517.22,0.03185
4511.44,0.03138
4505.65,0.03046
4499.86,0.03168
4494.08,0.03038
4488.29,0.03087
4482.5,0.03080
4476.72,0.03106
4470.93,0.03127
4465.14,0.03106
4459.36,0.03113
4453.57,0.03093
4447.79,0.03044
4442,0.02926
4436.21,0.03073
4430.43,0.03006
4424.64,0.03096
4418.85,0.03093
4413.07,0.03086
4407.28,0.03128
4401.49,0.03092
4395.71,0.03087
4389.92,0.03059
4384.14,0.03045
4378.35,0.03027
4372.56,0.03066
4366.78,0.03076
4360.99,0.03039
4355.2,0.03028
4349.42,0.03078
4343.63,0.03094
4337.84,0.03081
4332.06,0.03131
4326.27,0.03120
4320.49,0.03019
4314.7,0.03081
4308.91,0.03074
4303.13,0.03054
4297.34,0.03064
4291.55,0.03108
4285.77,0.03052
4279.98,0.03012
4274.19,0.03061
4268.41,0.03056
4262.62,0.03051
4256.84,0.02994
4251.05,0.03012
4245.26,0.03051
4239.48,0.03026
4233.69,0.02963
4227.9,0.03095
4222.12,0.03139
4216.33,0.03096
4210.54,0.03121
4204.76,0.03103
4198.97,0.03052
4193.19,0.02974
4187.4,0.03050
4181.61,0.03044
4175.83,0.03140
4170.04,0.03008
4164.25,0.03005
4158.47,0.03068
4152.68,0.03074
4146.89,0.03041
4141.11,0.03101
4135.32,0.03003
4129.54,0.03084
4123.75,0.03115
4117.96,0.03055
4112.18,0.03033
4106.39,0.03064
4100.6,0.03049
4094.82,0.03025
4089.03,0.03038
4083.24,0.03063
4077.46,0.03102
4071.67,0.03074
4065.89,0.03049
4060.1,0.03064
4054.31,0.03091
4048.53,0.03054
4042.74,0.03020
4036.95,0.03030
4031.17,0.03118
4025.38,0.03121
4019.59,0.03056
4013.81,0.03107
4008.02,0.03038
4002.24,0.02979
3996.45,0.03023
3990.66,0.02994
3984.88,0.03017
3979.09,0.03120
3973.3,0.03078
3967.52,0.03113
3961.73,0.03080
3955.94,0.03039
3950.16,0.03054
3944.37,0.03015
3938.59,0.03007
3932.8,0.03036
3927.01,0.03068
3921.23,0.03036
3915.44,0.03025
3909.65,0.03066
3903.87,0.03089
3898.08,0.03020
3892.29,0.03087
3886.51,0.03102
3880.72,0.03113
3874.94,0.03055
3869.15,0.03056
3863.36,0.02970
3857.58,0.03113
3851.79,0.03089
3846,0.03144
3840.22,0.03070
3834.43,0.03081
3828.64,0.03084
3822.86,0.03136
3817.07,0.03158
3811.29,0.03124
3805.5,0.03068
3799.71,0.03047
3793.93,0.03105
3788.14,0.03068
3782.35,0.03147
3776.57,0.03036
3770.78,0.03115
3764.99,0.03056
3759.21,0.03043
3753.42,0.03089
3747.64,0.02934
3741.85,0.03031
3736.06,0.03063
3730.28,0.03072
3724.49,0.03046
3718.7,0.03055
3712.92,0.03030
3707.13,0.03013
3701.34,0.02958
3695.56,0.03006
3689.77,0.03079
3683.99,0.03080
3678.2,0.03050
3672.41,0.02953
3666.63,0.02893
3660.84,0.02903
3655.05,0.02905
3649.27,0.02913
3643.48,0.02905
3637.69,0.02847
3631.91,0.02888
3626.12,0.02850
3620.34,0.02947
3614.55,0.02871
3608.76,0.02862
3602.98,0.02833
3597.19,0.02868
3591.4,0.02829
3585.62,0.02909
3579.83,0.02852
3574.04,0.02720
3568.26,0.02788
3562.47,0.02843
3556.69,0.02799
3550.9,0.02781
3545.11,0.02739
3539.33,0.02760
3533.54,0.02794
3527.75,0.02727
3521.97,0.02730
3516.18,0.02745
3510.39,0.02669
3504.61,0.02769
3498.82,0.02731
3493.04,0.02713
3487.25,0.02641
3481.46,0.02735
3475.68,0.02698
3469.89,0.02685
3464.1,0.02705
3458.32,0.02663
3452.53,0.02582
3446.74,0.02659
3440.96,0.02730
3435.17,0.02682
3429.39,0.02679
3423.6,0.02783
3417.81,0.02656
3412.03,0.02640
3406.24,0.02647
3400.45,0.02681
3394.67,0.02658
3388.88,0.02737
3383.09,0.02598
3377.31,0.02656
3371.52,0.02671
3365.74,0.02632
3359.95,0.02633
3354.16,0.02682
3348.38,0.02709
3342.59,0.02639
3336.8,0.02631
3331.02,0.02722
3325.23,0.02681
3319.44,0.02703
3313.66,0.02661
3307.87,0.02753
3302.09,0.02661
3296.3,0.02659
3290.51,0.02677
3284.73,0.02656
3278.94,0.02681
3273.15,0.02666
3267.37,0.02660
3261.58,0.02694
3255.79,0.02751
3250.01,0.02756
3244.22,0.02777
3238.44,0.02711
3232.65,0.02665
3226.86,0.02668
3221.08,0.02642
3215.29,0.02690
3209.5,0.02738
3203.72,0.02654
3197.93,0.02740
3192.14,0.02809
3186.36,0.02817
3180.57,0.02686
3174.79,0.02747
3169,0.02734
3163.21,0.02752
3157.43,0.02715
3151.64,0.02802
3145.85,0.02777
3140.07,0.02701
3134.28,0.02771
3128.49,0.02732
3122.71,0.02750
3116.92,0.02732
3111.14,0.02802
3105.35,0.02783
3099.56,0.02749
3093.78,0.02786
3087.99,0.02731
3082.2,0.02762
3076.42,0.02689
3070.63,0.02732
3064.84,0.02782
3059.06,0.02724
3053.27,0.02715
3047.49,0.02777
3041.7,0.02749
3035.91,0.02817
3030.13,0.02772
3024.34,0.02735
3018.55,0.02773
3012.77,0.02706
3006.98,0.02736
3001.19,0.02757
2995.41,0.02692
2989.62,0.02663
2983.84,0.02653
2978.05,0.02643
2972.26,0.02580
2966.48,0.02640
2960.69,0.02620
2954.9,0.02593
2949.12,0.02609
2943.33,0.02609
2937.54,0.02615
2931.76,0.02594
2925.97,0.02652
2920.19,0.02648
2914.4,0.02623
2908.61,0.02633
2902.83,0.02704
2897.04,0.02697
2891.25,0.02692
2885.47,0.02674
2879.68,0.02676
2873.89,0.02704
2868.11,0.02710
2862.32,0.02665
2856.54,0.02675
2850.75,0.02689
2844.96,0.02741
2839.18,0.02802
2833.39,0.02723
2827.6,0.02773
2821.82,0.02775
2816.03,0.02795
2810.24,0.02793
2804.46,0.02766
2798.67,0.02780
2792.89,0.02777
2787.1,0.02778
2781.31,0.02730
2775.53,0.02784
2769.74,0.02730
2763.95,0.02748
2758.17,0.02770
2752.38,0.02806
2746.59,0.02779
2740.81,0.02741
2735.02,0.02754
2729.24,0.02735
2723.45,0.02769
2717.66,0.02799
2711.88,0.02785
2706.09,0.02784
2700.3,0.02775
2694.52,0.02762
2688.73,0.02745
2682.94,0.02734
2677.16,0.02788
2671.37,0.02759
2665.59,0.02792
2659.8,0.02796
2654.01,0.02771
2648.23,0.02768
2642.44,0.02729
2636.65,0.02782
2630.87,0.02813
2625.08,0.02794
2619.29,0.02851
2613.51,0.02789
2607.72,0.02739
2601.94,0.02763
2596.15,0.02785
2590.36,0.02789
2584.58,0.02784
2578.79,0.02769
2573,0.02738
2567.22,0.02713
2561.43,0.02767
2555.64,0.02792
2549.86,0.02747
2544.07,0.02735
2538.29,0.02720
2532.5,0.02755
2526.71,0.02773
2520.93,0.02765
2515.14,0.02790
2509.35,0.02745
2503.57,0.02755
2497.78,0.02782
2491.99,0.02779
2486.21,0.02772
2480.42,0.02795
2474.64,0.02768
2468.85,0.02727
2463.06,0.02781
2457.28,0.02791
2451.49,0.02728
2445.7,0.02770
2439.92,0.02778
2434.13,0.02759
2428.34,0.02778
2422.56,0.02727
2416.77,0.02762
2410.99,0.02725
2405.2,0.02768
2399.41,0.02742
2393.63,0.02726
2387.84,0.02720
2382.05,0.02735
2376.27,0.02730
2370.48,0.02838
2364.69,0.02792
2358.91,0.02797
2353.12,0.02813
2347.34,0.02785
2341.55,0.02786
2335.76,0.02734
2329.98,0.02786
2324.19,0.02769
2318.4,0.02749
2312.62,0.02810
2306.83,0.02721
2301.04,0.02711
2295.26,0.02717
2289.47,0.02719
2283.69,0.02689
2277.9,0.02662
2272.11,0.02700
2266.33,0.02703
2260.54,0.02662
2254.75,0.02699
2248.97,0.02684
2243.18,0.02719
2237.39,0.02699
2231.61,0.02696
2225.82,0.02664
2220.04,0.02658
2214.25,0.02710
2208.46,0.02659
2202.68,0.02683
2196.89,0.02734
2191.1,0.02655
2185.32,0.02684
2179.53,0.02705
2173.74,0.02623
2167.96,0.02618
2162.17,0.02673
2156.39,0.02655
2150.6,0.02665
2144.81,0.02635
2139.03,0.02665
2133.24,0.02650
2127.45,0.02662
2121.67,0.02700
2115.88,0.02670
2110.09,0.02660
2104.31,0.02642
2098.52,0.02680
2092.74,0.02649
2086.95,0.02685
2081.16,0.02644
2075.38,0.02612
2069.59,0.02664
2063.8,0.02641
2058.02,0.02623
2052.23,0.02655
2046.44,0.02636
2040.66,0.02696
2034.87,0.02627
2029.09,0.02634
2023.3,0.02653
2017.51,0.02638
2011.73,0.02599
2005.94,0.02647
2000.15,0.02658
1994.37,0.02642
1988.58,0.02603
1982.79,0.02616
1977.01,0.02623
1971.22,0.02607
1965.44,0.02625
1959.65,0.02616
1953.86,0.02643
1948.08,0.02651
1942.29,0.02629
1936.5,0.02626
1930.72,0.02642
1924.93,0.02593
1919.14,0.02606
1913.36,0.02595
1907.57,0.02606
1901.79,0.02583
1896,0.02603
1890.21,0.02590
1884.43,0.02579
1878.64,0.02613
1872.85,0.02592
1867.07,0.02586
1861.28,0.02573
1855.49,0.02537
1849.71,0.02556
1843.92,0.02545
1838.14,0.02520
1832.35,0.02520
1826.56,0.02513
1820.78,0.02498
1814.99,0.02485
1809.2,0.02498
1803.42,0.02479
1797.63,0.02464
1791.84,0.02487
1786.06,0.02398
1780.27,0.02394
1774.49,0.02406
1768.7,0.02322
1762.91,0.02268
1757.13,0.02230
1751.34,0.02237
1745.55,0.02222
1739.77,0.02278
1733.98,0.02442
1728.19,0.02455
1722.41,0.02468
1716.62,0.02458
1710.84,0.02493
1705.05,0.02444
1699.26,0.02399
1693.48,0.02298
1687.69,0.02309
1681.9,0.02279
1676.12,0.02263
1670.33,0.02266
1664.54,0.02242
1658.76,0.02220
1652.97,0.02228
1647.19,0.02274
1641.4,0.02249
1635.61,0.02239
1629.83,0.02275
1624.04,0.02311
1618.25,0.02274
1612.47,0.02234
1606.68,0.02280
1600.89,0.02274
1595.11,0.02299
1589.32,0.02242
1583.54,0.02229
1577.75,0.02270
1571.96,0.02239
1566.18,0.02233
1560.39,0.02261
1554.6,0.02200
1548.82,0.02224
1543.03,0.02214
1537.24,0.02270
1531.46,0.02292
1525.67,0.02327
1519.89,0.02317
1514.1,0.02236
1508.31,0.02293
1502.53,0.02221
1496.74,0.02267
1490.95,0.02285
1485.17,0.02228
1479.38,0.02226
1473.59,0.02251
1467.81,0.02191
1462.02,0.02198
1456.24,0.02198
1450.45,0.02184
1444.66,0.02177
1438.88,0.02214
1433.09,0.02156
1427.3,0.02221
1421.52,0.02180
1415.73,0.02171
1409.94,0.02146
1404.16,0.02146
1398.37,0.02158
1392.59,0.02160
1386.8,0.02173
1381.01,0.02096
1375.23,0.02131
1369.44,0.02137
1363.65,0.02118
1357.87,0.02126
1352.08,0.02125
1346.29,0.02106
1340.51,0.02066
1334.72,0.02057
1328.94,0.02059
1323.15,0.02014
1317.36,0.01990
1311.58,0.02021
1305.79,0.02037
1300,0.02052
1294.22,0.02063
1288.43,0.02147
1282.64,0.02179
1276.86,0.02187
1271.07,0.02192
1265.29,0.02239
1259.5,0.02293
1253.71,0.02298
1247.93,0.02309
1242.14,0.02268
1236.35,0.02276
1230.57,0.02219
1224.78,0.02231
1218.99,0.02213
1213.21,0.02248
1207.42,0.02206
1201.64,0.02183
1195.85,0.02193
1190.06,0.02143
1184.28,0.02105
1178.49,0.02108
1172.7,0.02093
1166.92,0.02066
1161.13,0.02034
1155.34,0.02076
1149.56,0.02067
1143.77,0.02050
1137.99,0.02124
1132.2,0.02121
1126.41,0.02149
1120.63,0.02196
1114.84,0.02295
1109.05,0.02270
1103.27,0.02275
1097.48,0.02222
1091.69,0.02142
1085.91,0.02260
1080.12,0.02335
1074.34,0.02328
1068.55,0.02412
1062.76,0.02369
1056.98,0.02448
1051.19,0.02345
1045.4,0.02298
1039.62,0.02364
1033.83,0.02322
1028.04,0.02340
1022.26,0.02339
1016.47,0.02356
1010.69,0.02393
1004.9,0.02488
999.112,0.02462
993.326,0.02467
987.54,0.02492
981.753,0.02451
975.967,0.02412
970.18,0.02374
964.394,0.02453
958.608,0.02401
952.821,0.02360
947.035,0.02306
941.249,0.02351
935.462,0.02298
929.676,0.02272
923.89,0.02252
918.103,0.02287
912.317,0.02282
906.53,0.02225
900.744,0.02247
894.958,0.02290
889.171,0.02272
883.385,0.02259
877.599,0.02182
871.812,0.02225
866.026,0.02282
860.24,0.02283
854.453,0.02261
848.667,0.02208
842.88,0.02277
837.094,0.02249
831.308,0.02217
825.521,0.02174
819.735,0.02087
813.949,0.02117
808.162,0.02237
802.376,0.02185
796.59,0.02065
790.803,0.02224
785.017,0.02155
779.23,0.02038
773.444,0.02035
767.658,0.01980
761.871,0.02072
756.085,0.02043
750.299,0.02092
744.512,0.02125
738.726,0.02002
732.94,0.02034
727.153,0.02025
721.367,0.01983
715.58,0.01984
709.794,0.01913
704.008,0.01959
698.221,0.01936
692.435,0.02024
686.649,0.01938
680.862,0.01911
675.076,0.01827
669.29,0.01738
663.503,0.01854
657.717,0.01878
651.93,0.01980
646.144,0.01902
640.358,0.01922
634.571,0.01884
628.785,0.01655
622.999,0.01758
617.212,0.02044
611.426,0.01799
605.639,0.01948
599.853,0.02214