File: 01_Data/PEVA/FTIR/IS/PEVA_0.10_IS_T_240808_R10.dpt
7496.93,0.03896
7491.14,0.04232
7485.35,0.03259
7479.57,0.03387
7473.78,0.04014
7468,0.03402
7462.21,0.02367
7456.42,0.02745
7450.64,0.03160
7444.85,0.02199
7439.06,0.03351
7433.28,0.02087
7427.49,0.03146
7421.71,0.04453
7415.92,0.02837
7410.13,0.02970
7404.35,0.03566
7398.56,0.03067
7392.78,0.04026
7386.99,0.04376
7381.2,0.04722
7375.42,0.03468
7369.63,0.03969
7363.84,0.03725
7358.06,0.04055
7352.27,0.02953
7346.49,0.04082
7340.7,0.03574
7334.91,0.03464
7329.13,0.03897
7323.34,0.03119
7317.56,0.03783
7311.77,0.02861
7305.98,0.03439
7300.2,0.04059
7294.41,0.02709
7288.62,0.02947
7282.84,0.04689
7277.05,0.03358
7271.27,0.02988
7265.48,0.03943
7259.69,0.04715
7253.91,0.04088
7248.12,0.02922
7242.34,0.03346
7236.55,0.03607
7230.76,0.04251
7224.98,0.03064
7219.19,0.03505
7213.4,0.02128
7207.62,0.02456
7201.83,0.03618
7196.05,0.03272
7190.26,0.03319
7184.47,0.03352
7178.69,0.02897
7172.9,0.03493
7167.12,0.03680
7161.33,0.04328
7155.54,0.03167
7149.76,0.03205
7143.97,0.03987
7138.18,0.03182
7132.4,0.03090
7126.61,0.03377
7120.83,0.03775
7115.04,0.05035
7109.25,0.03728
7103.47,0.03586
7097.68,0.03043
7091.9,0.03315
7086.11,0.03299
7080.32,0.03587
7074.54,0.03833
7068.75,0.02921
7062.96,0.03271
7057.18,0.04396
7051.39,0.03890
7045.61,0.03045
7039.82,0.03926
7034.03,0.02630
7028.25,0.04034
7022.46,0.02977
7016.68,0.03736
7010.89,0.03014
7005.1,0.03909
6999.32,0.04076
6993.53,0.03847
6987.74,0.03433
6981.96,0.03358
6976.17,0.03257
6970.39,0.02767
6964.6,0.03530
6958.81,0.03576
6953.03,0.03831
6947.24,0.03844
6941.46,0.03116
6935.67,0.03656
6929.88,0.03418
6924.1,0.02785
6918.31,0.03806
6912.52,0.02796
6906.74,0.02403
6900.95,0.02276
6895.17,0.03307
6889.38,0.03726
6883.59,0.03504
6877.81,0.03069
6872.02,0.03644
6866.24,0.03472
6860.45,0.03224
6854.66,0.03931
6848.88,0.02960
6843.09,0.03287
6837.3,0.03448
6831.52,0.03575
6825.73,0.03246
6819.95,0.04097
6814.16,0.03568
6808.37,0.02789
6802.59,0.03408
6796.8,0.02999
6791.02,0.03788
6785.23,0.03575
6779.44,0.02190
6773.66,0.03194
6767.87,0.03419
6762.08,0.03586
6756.3,0.03147
6750.51,0.02987
6744.73,0.03989
6738.94,0.03501
6733.15,0.03108
6727.37,0.03705
6721.58,0.04095
6715.8,0.03105
6710.01,0.03285
6704.22,0.03034
6698.44,0.03429
6692.65,0.03503
6686.86,0.02708
6681.08,0.02959
6675.29,0.03304
6669.51,0.03197
6663.72,0.03138
6657.93,0.03628
6652.15,0.03581
6646.36,0.02854
6640.58,0.02906
6634.79,0.03150
6629,0.03148
6623.22,0.03186
6617.43,0.03062
6611.64,0.03474
6605.86,0.02672
6600.07,0.02976
6594.29,0.03305
6588.5,0.03405
6582.71,0.03083
6576.93,0.03342
6571.14,0.03014
6565.36,0.02809
6559.57,0.02730
6553.78,0.03243
6548,0.03348
6542.21,0.02921
6536.42,0.03286
6530.64,0.03198
6524.85,0.03367
6519.07,0.03617
6513.28,0.03225
6507.49,0.02883
6501.71,0.03527
6495.92,0.03475
6490.14,0.02793
6484.35,0.03534
6478.56,0.02845
6472.78,0.03080
6466.99,0.02578
6461.2,0.03264
6455.42,0.03402
6449.63,0.02612
6443.85,0.02758
6438.06,0.03150
6432.27,0.02808
6426.49,0.03229
6420.7,0.03309
6414.92,0.03188
6409.13,0.03052
6403.34,0.03180
6397.56,0.02888
6391.77,0.02807
6385.98,0.03557
6380.2,0.03055
6374.41,0.03145
6368.63,0.02465
6362.84,0.02964
6357.05,0.02737
6351.27,0.03141
6345.48,0.03405
6339.7,0.03148
6333.91,0.03427
6328.12,0.02778
6322.34,0.03151
6316.55,0.03302
6310.76,0.03554
6304.98,0.02955
6299.19,0.03188
6293.41,0.03580
6287.62,0.02691
6281.83,0.03063
6276.05,0.03309
6270.26,0.02860
6264.48,0.03329
6258.69,0.02824
6252.9,0.02676
6247.12,0.02686
6241.33,0.02737
6235.54,0.03389
6229.76,0.02943
6223.97,0.03367
6218.19,0.02937
6212.4,0.02818
6206.61,0.03134
6200.83,0.03087
6195.04,0.02594
6189.26,0.02910
6183.47,0.02701
6177.68,0.02945
6171.9,0.03297
6166.11,0.02894
6160.32,0.02698
6154.54,0.03052
6148.75,0.03135
6142.97,0.02559
6137.18,0.03284
6131.39,0.02954
6125.61,0.02563
6119.82,0.02747
6114.04,0.03085
6108.25,0.02523
6102.46,0.03162
6096.68,0.03381
6090.89,0.02771
6085.1,0.03390
6079.32,0.02997
6073.53,0.03268
6067.75,0.02800
6061.96,0.03027
6056.17,0.03102
6050.39,0.02779
6044.6,0.02856
6038.82,0.03090
6033.03,0.02685
6027.24,0.02967
6021.46,0.02656
6015.67,0.03099
6009.88,0.02826
6004.1,0.03010
5998.31,0.02943
5992.53,0.03122
5986.74,0.02898
5980.95,0.02937
5975.17,0.02892
5969.38,0.03113
5963.6,0.02943
5957.81,0.02931
5952.02,0.03214
5946.24,0.03035
5940.45,0.02638
5934.66,0.03021
5928.88,0.02928
5923.09,0.03037
5917.31,0.02846
5911.52,0.03093
5905.73,0.02944
5899.95,0.02903
5894.16,0.02720
5888.38,0.02960
5882.59,0.03018
5876.8,0.03437
5871.02,0.03190
5865.23,0.02922
5859.44,0.03014
5853.66,0.03152
5847.87,0.02825
5842.09,0.02787
5836.3,0.02972
5830.51,0.03184
5824.73,0.02886
5818.94,0.02924
5813.16,0.03065
5807.37,0.02869
5801.58,0.03025
5795.8,0.02884
5790.01,0.02859
5784.22,0.02910
5778.44,0.02947
5772.65,0.03113
5766.87,0.02881
5761.08,0.02922
5755.29,0.03015
5749.51,0.02943
5743.72,0.03048
5737.94,0.03015
5732.15,0.02768
5726.36,0.03022
5720.58,0.03076
5714.79,0.02899
5709,0.03072
5703.22,0.02994
5697.43,0.02609
5691.65,0.02958
5685.86,0.03052
5680.07,0.03154
5674.29,0.02805
5668.5,0.02990
5662.72,0.02940
5656.93,0.03052
5651.14,0.03280
5645.36,0.03086
5639.57,0.03117
5633.78,0.03037
5628,0.02993
5622.21,0.03050
5616.43,0.03230
5610.64,0.02814
5604.85,0.02989
5599.07,0.03032
5593.28,0.02977
5587.5,0.02814
5581.71,0.02821
5575.92,0.03100
5570.14,0.02986
5564.35,0.02896
5558.56,0.02723
5552.78,0.02884
5546.99,0.02775
5541.21,0.02771
5535.42,0.02950
5529.63,0.02867
5523.85,0.02989
5518.06,0.03007
5512.28,0.02891
5506.49,0.02916
5500.7,0.03030
5494.92,0.03155
5489.13,0.02757
5483.34,0.02917
5477.56,0.02892
5471.77,0.02922
5465.99,0.02965
5460.2,0.02964
5454.41,0.03064
5448.63,0.03100
5442.84,0.02923
5437.06,0.02828
5431.27,0.03146
5425.48,0.03187
5419.7,0.02926
5413.91,0.02885
5408.12,0.03037
5402.34,0.03080
5396.55,0.03076
5390.77,0.03372
5384.98,0.03004
5379.19,0.03043
5373.41,0.03068
5367.62,0.03037
5361.84,0.02995
5356.05,0.02895
5350.26,0.03026
5344.48,0.02930
5338.69,0.02910
5332.9,0.02866
5327.12,0.02850
5321.33,0.03013
5315.55,0.02989
5309.76,0.02928
5303.97,0.03132
5298.19,0.02972
5292.4,0.03129
5286.62,0.03154
5280.83,0.03045
5275.04,0.03117
5269.26,0.03028
5263.47,0.02991
5257.68,0.02973
5251.9,0.02887
5246.11,0.02987
5240.33,0.02990
5234.54,0.02906
5228.75,0.03057
5222.97,0.02951
5217.18,0.02884
5211.4,0.02915
5205.61,0.02999
5199.82,0.02744
5194.04,0.02921
5188.25,0.02974
5182.46,0.02959
5176.68,0.03069
5170.89,0.03092
5165.11,0.02927
5159.32,0.02968
5153.53,0.03058
5147.75,0.03191
5141.96,0.03037
5136.18,0.02984
5130.39,0.03072
5124.6,0.03036
5118.82,0.02964
5113.03,0.03049
5107.24,0.03069
5101.46,0.03008
5095.67,0.02836
5089.89,0.03049
5084.1,0.02895
5078.31,0.02990
5072.53,0.02945
5066.74,0.02931
5060.96,0.02861
5055.17,0.03067
5049.38,0.02990
5043.6,0.02967
5037.81,0.02867
5032.02,0.02970
5026.24,0.03074
5020.45,0.02906
5014.67,0.03041
5008.88,0.03073
5003.09,0.03058
4997.31,0.03089
4991.52,0.02969
4985.74,0.02864
4979.95,0.02919
4974.16,0.03005
4968.38,0.03005
4962.59,0.02976
4956.8,0.03072
4951.02,0.03119
4945.23,0.02942
4939.45,0.02999
4933.66,0.03051
4927.87,0.02950
4922.09,0.03046
4916.3,0.02996
4910.52,0.02992
4904.73,0.02840
4898.94,0.02918
4893.16,0.03031
4887.37,0.02957
4881.58,0.02904
4875.8,0.02908
4870.01,0.02995
4864.23,0.03106
4858.44,0.03169
4852.65,0.03064
4846.87,0.02975
4841.08,0.02903
4835.3,0.02926
4829.51,0.02900
4823.72,0.03058
4817.94,0.02999
4812.15,0.02992
4806.36,0.03080
4800.58,0.02985
4794.79,0.02868
4789.01,0.02943
4783.22,0.02967
4777.43,0.02900
4771.65,0.02864
4765.86,0.03019
4760.08,0.02981
4754.29,0.02941
4748.5,0.02995
4742.72,0.02924
4736.93,0.02969
4731.14,0.02821
4725.36,0.03070
4719.57,0.02969
4713.79,0.02952
4708,0.03020
4702.21,0.02965
4696.43,0.02951
4690.64,0.03061
4684.86,0.02929
4679.07,0.03007
4673.28,0.03084
4667.5,0.03079
4661.71,0.02923
4655.92,0.03062
4650.14,0.02999
4644.35,0.02900
4638.57,0.02970
4632.78,0.02900
4626.99,0.02951
4621.21,0.03135
4615.42,0.02872
4609.64,0.03017
4603.85,0.02967
4598.06,0.02987
4592.28,0.02984
4586.49,0.03003
4580.7,0.02976
4574.92,0.03047
4569.13,0.02918
4563.35,0.02857
4557.56,0.02953
4551.77,0.03127
4545.99,0.02987
4540.2,0.02920
4534.42,0.02965
4528.63,0.02966
4522.84,0.03019
4517.06,0.02981
4511.27,0.02931
4505.48,0.02995
4499.7,0.02962
4493.91,0.02972
4488.13,0.03006
4482.34,0.02959
4476.55,0.02978
4470.77,0.02924
4464.98,0.03006
4459.2,0.02956
4453.41,0.02998
4447.62,0.02984
4441.84,0.03057
4436.05,0.02865
4430.26,0.02939
4424.48,0.03000
4418.69,0.02956
4412.91,0.02930
4407.12,0.02971
4401.33,0.02940
4395.55,0.02955
4389.76,0.02912
4383.98,0.02930
4378.19,0.02996
4372.4,0.02924
4366.62,0.02885
4360.83,0.02975
4355.04,0.02966
4349.26,0.02898
4343.47,0.02957
4337.69,0.02993
4331.9,0.02919
4326.11,0.02985
4320.33,0.03016
4314.54,0.02918
4308.76,0.02916
4302.97,0.03034
4297.18,0.03027
4291.4,0.02975
4285.61,0.02950
4279.82,0.02949
4274.04,0.02951
4268.25,0.02971
4262.47,0.02882
4256.68,0.02970
4250.89,0.02972
4245.11,0.03072
4239.32,0.02949
4233.54,0.02915
4227.75,0.02980
4221.96,0.02898
4216.18,0.02936
4210.39,0.02923
4204.6,0.02930
4198.82,0.03002
4193.03,0.02999
4187.25,0.02964
4181.46,0.02985
4175.67,0.03015
4169.89,0.03047
4164.1,0.03051
4158.32,0.03007
4152.53,0.02958
4146.74,0.02951
4140.96,0.03007
4135.17,0.02976
4129.38,0.02968
4123.6,0.02973
4117.81,0.02987
4112.03,0.02986
4106.24,0.02988
4100.45,0.02914
4094.67,0.02919
4088.88,0.02963
4083.1,0.03012
4077.31,0.02938
4071.52,0.03028
4065.74,0.02963
4059.95,0.02985
4054.16,0.02992
4048.38,0.02966
4042.59,0.02955
4036.81,0.02970
4031.02,0.02923
4025.23,0.03014
4019.45,0.02988
4013.66,0.02970
4007.88,0.02990
4002.09,0.02939
3996.3,0.02948
3990.52,0.02914
3984.73,0.02915
3978.94,0.02890
3973.16,0.02957
3967.37,0.02924
3961.59,0.02957
3955.8,0.02980
3950.01,0.02938
3944.23,0.02942
3938.44,0.02971
3932.66,0.02971
3926.87,0.02939
3921.08,0.02948
3915.3,0.02896
3909.51,0.02911
3903.72,0.03039
3897.94,0.02966
3892.15,0.03037
3886.37,0.03059
3880.58,0.02987
3874.79,0.03037
3869.01,0.02998
3863.22,0.02893
3857.44,0.02975
3851.65,0.02843
3845.86,0.02945
3840.08,0.02934
3834.29,0.02978
3828.5,0.02996
3822.72,0.02988
3816.93,0.02912
3811.15,0.02935
3805.36,0.02971
3799.57,0.02994
3793.79,0.02919
3788,0.02921
3782.22,0.03022
3776.43,0.02965
3770.64,0.03010
3764.86,0.03012
3759.07,0.02946
3753.28,0.02980
3747.5,0.02932
3741.71,0.02988
3735.93,0.02951
3730.14,0.03000
3724.35,0.03014
3718.57,0.02931
3712.78,0.02941
3707,0.02857
3701.21,0.03021
3695.42,0.02849
3689.64,0.02954
3683.85,0.02967
3678.06,0.02854
3672.28,0.02879
3666.49,0.02802
3660.71,0.02895
3654.92,0.02869
3649.13,0.02856
3643.35,0.02858
3637.56,0.02752
3631.78,0.02925
3625.99,0.02898
3620.2,0.02780
3614.42,0.02763
3608.63,0.02751
3602.84,0.02683
3597.06,0.02798
3591.27,0.02684
3585.49,0.02670
3579.7,0.02734
3573.91,0.02741
3568.13,0.02733
3562.34,0.02657
3556.56,0.02791
3550.77,0.02693
3544.98,0.02659
3539.2,0.02669
3533.41,0.02668
3527.62,0.02760
3521.84,0.02651
3516.05,0.02635
3510.27,0.02663
3504.48,0.02716
3498.69,0.02652
3492.91,0.02640
3487.12,0.02659
3481.34,0.02599
3475.55,0.02643
3469.76,0.02680
3463.98,0.02674
3458.19,0.02640
3452.4,0.02585
3446.62,0.02639
3440.83,0.02647
3435.05,0.02625
3429.26,0.02610
3423.47,0.02645
3417.69,0.02556
3411.9,0.02629
3406.12,0.02610
3400.33,0.02558
3394.54,0.02580
3388.76,0.02623
3382.97,0.02614
3377.18,0.02573
3371.4,0.02606
3365.61,0.02627
3359.83,0.02556
3354.04,0.02536
3348.25,0.02568
3342.47,0.02563
3336.68,0.02420
3330.9,0.02556
3325.11,0.02575
3319.32,0.02540
3313.54,0.02592
3307.75,0.02663
3301.96,0.02602
3296.18,0.02513
3290.39,0.02598
3284.61,0.02582
3278.82,0.02501
3273.03,0.02556
3267.25,0.02567
3261.46,0.02523
3255.68,0.02558
3249.89,0.02666
3244.1,0.02656
3238.32,0.02745
3232.53,0.02717
3226.74,0.02637
3220.96,0.02697
3215.17,0.02569
3209.39,0.02636
3203.6,0.02566
3197.81,0.02686
3192.03,0.02684
3186.24,0.02713
3180.46,0.02663
3174.67,0.02627
3168.88,0.02680
3163.1,0.02699
3157.31,0.02622
3151.52,0.02573
3145.74,0.02654
3139.95,0.02628
3134.17,0.02603
3128.38,0.02660
3122.59,0.02668
3116.81,0.02652
3111.02,0.02666
3105.24,0.02676
3099.45,0.02728
3093.66,0.02618
3087.88,0.02574
3082.09,0.02636
3076.3,0.02653
3070.52,0.02631
3064.73,0.02622
3058.95,0.02649
3053.16,0.02669
3047.37,0.02621
3041.59,0.02626
3035.8,0.02641
3030.02,0.02655
3024.23,0.02607
3018.44,0.02631
3012.66,0.02581
3006.87,0.02681
3001.08,0.02622
2995.3,0.02651
2989.51,0.02638
2983.73,0.02571
2977.94,0.02539
2972.15,0.02560
2966.37,0.02523
2960.58,0.02603
2954.8,0.02537
2949.01,0.02528
2943.22,0.02527
2937.44,0.02574
2931.65,0.02488
2925.86,0.02459
2920.08,0.02537
2914.29,0.02619
2908.51,0.02586
2902.72,0.02631
2896.93,0.02584
2891.15,0.02546
2885.36,0.02587
2879.58,0.02624
2873.79,0.02592
2868,0.02601
2862.22,0.02628
2856.43,0.02624
2850.64,0.02631
2844.86,0.02658
2839.07,0.02673
2833.29,0.02687
2827.5,0.02695
2821.71,0.02690
2815.93,0.02653
2810.14,0.02653
2804.36,0.02665
2798.57,0.02673
2792.78,0.02668
2787,0.02703
2781.21,0.02697
2775.42,0.02680
2769.64,0.02682
2763.85,0.02690
2758.07,0.02678
2752.28,0.02709
2746.49,0.02720
2740.71,0.02697
2734.92,0.02671
2729.14,0.02697
2723.35,0.02682
2717.56,0.02644
2711.78,0.02740
2705.99,0.02707
2700.2,0.02712
2694.42,0.02678
2688.63,0.02728
2682.85,0.02679
2677.06,0.02663
2671.27,0.02691
2665.49,0.02664
2659.7,0.02684
2653.92,0.02665
2648.13,0.02676
2642.34,0.02659
2636.56,0.02675
2630.77,0.02699
2624.98,0.02643
2619.2,0.02669
2613.41,0.02661
2607.63,0.02680
2601.84,0.02695
2596.05,0.02630
2590.27,0.02666
2584.48,0.02726
2578.7,0.02668
2572.91,0.02716
2567.12,0.02707
2561.34,0.02664
2555.55,0.02659
2549.76,0.02679
2543.98,0.02703
2538.19,0.02692
2532.41,0.02625
2526.62,0.02686
2520.83,0.02695
2515.05,0.02676
2509.26,0.02663
2503.48,0.02642
2497.69,0.02709
2491.9,0.02694
2486.12,0.02689
2480.33,0.02665
2474.55,0.02657
2468.76,0.02645
2462.97,0.02644
2457.19,0.02631
2451.4,0.02633
2445.61,0.02643
2439.83,0.02665
2434.04,0.02661
2428.26,0.02688
2422.47,0.02661
2416.68,0.02677
2410.9,0.02691
2405.11,0.02664
2399.32,0.02666
2393.54,0.02669
2387.75,0.02618
2381.97,0.02655
2376.18,0.02674
2370.39,0.02672
2364.61,0.02682
2358.82,0.02716
2353.04,0.02724
2347.25,0.02662
2341.46,0.02760
2335.68,0.02667
2329.89,0.02682
2324.11,0.02681
2318.32,0.02659
2312.53,0.02618
2306.75,0.02641
2300.96,0.02649
2295.17,0.02608
2289.39,0.02626
2283.6,0.02633
2277.82,0.02592
2272.03,0.02622
2266.24,0.02627
2260.46,0.02623
2254.67,0.02606
2248.89,0.02640
2243.1,0.02629
2237.31,0.02614
2231.53,0.02645
2225.74,0.02609
2219.95,0.02633
2214.17,0.02630
2208.38,0.02618
2202.6,0.02602
2196.81,0.02627
2191.02,0.02571
2185.24,0.02529
2179.45,0.02543
2173.67,0.02568
2167.88,0.02560
2162.09,0.02575
2156.31,0.02590
2150.52,0.02602
2144.73,0.02566
2138.95,0.02561
2133.16,0.02590
2127.38,0.02561
2121.59,0.02562
2115.8,0.02612
2110.02,0.02594
2104.23,0.02606
2098.45,0.02573
2092.66,0.02531
2086.87,0.02563
2081.09,0.02559
2075.3,0.02544
2069.51,0.02548
2063.73,0.02544
2057.94,0.02571
2052.16,0.02567
2046.37,0.02570
2040.58,0.02552
2034.8,0.02563
2029.01,0.02592
2023.23,0.02533
2017.44,0.02566
2011.65,0.02540
2005.87,0.02565
2000.08,0.02539
1994.29,0.02581
1988.51,0.02567
1982.72,0.02537
1976.94,0.02550
1971.15,0.02535
1965.36,0.02545
1959.58,0.02505
1953.79,0.02544
1948.01,0.02514
1942.22,0.02568
1936.43,0.02555
1930.65,0.02505
1924.86,0.02567
1919.07,0.02542
1913.29,0.02506
1907.5,0.02514
1901.72,0.02528
1895.93,0.02475
1890.14,0.02484
1884.36,0.02495
1878.57,0.02474
1872.79,0.02501
1867,0.02482
1861.21,0.02468
1855.43,0.02480
1849.64,0.02494
1843.85,0.02497
1838.07,0.02418
1832.28,0.02438
1826.5,0.02410
1820.71,0.02451
1814.92,0.02400
1809.14,0.02394
1803.35,0.02425
1797.57,0.02392
1791.78,0.02390
1785.99,0.02357
1780.21,0.02316
1774.42,0.02317
1768.63,0.02259
1762.85,0.02220
1757.06,0.02166
1751.28,0.02133
1745.49,0.02158
1739.7,0.02221
1733.92,0.02370
1728.13,0.02362
1722.35,0.02443
1716.56,0.02473
1710.77,0.02425
1704.99,0.02383
1699.2,0.02287
1693.41,0.02262
1687.63,0.02218
1681.84,0.02194
1676.06,0.02188
1670.27,0.02253
1664.48,0.02195
1658.7,0.02157
1652.91,0.02226
1647.13,0.02253
1641.34,0.02199
1635.55,0.02191
1629.77,0.02169
1623.98,0.02187
1618.19,0.02228
1612.41,0.02191
1606.62,0.02192
1600.84,0.02141
1595.05,0.02241
1589.26,0.02208
1583.48,0.02169
1577.69,0.02156
1571.91,0.02191
1566.12,0.02064
1560.33,0.02153
1554.55,0.02123
1548.76,0.02153
1542.97,0.02206
1537.19,0.02176
1531.4,0.02171
1525.62,0.02228
1519.83,0.02172
1514.04,0.02178
1508.26,0.02298
1502.47,0.02181
1496.69,0.02169
1490.9,0.02206
1485.11,0.02169
1479.33,0.02130
1473.54,0.02114
1467.75,0.02125
1461.97,0.02132
1456.18,0.02165
1450.4,0.02122
1444.61,0.02171
1438.82,0.02188
1433.04,0.02191
1427.25,0.02105
1421.47,0.02144
1415.68,0.02089
1409.89,0.02095
1404.11,0.02082
1398.32,0.02084
1392.53,0.02072
1386.75,0.02030
1380.96,0.02048
1375.18,0.02051
1369.39,0.02031
1363.6,0.02050
1357.82,0.02042
1352.03,0.02046
1346.25,0.02016
1340.46,0.01997
1334.67,0.02036
1328.89,0.02002
1323.1,0.01977
1317.31,0.01998
1311.53,0.01920
1305.74,0.01960
1299.96,0.01985
1294.17,0.02018
1288.38,0.02072
1282.6,0.02094
1276.81,0.02126
1271.03,0.02136
1265.24,0.02176
1259.45,0.02198
1253.67,0.02216
1247.88,0.02176
1242.09,0.02227
1236.31,0.02234
1230.52,0.02172
1224.74,0.02145
1218.95,0.02124
1213.16,0.02125
1207.38,0.02152
1201.59,0.02079
1195.81,0.02053
1190.02,0.02059
1184.23,0.02052
1178.45,0.02030
1172.66,0.01947
1166.87,0.01958
1161.09,0.01962
1155.3,0.01928
1149.52,0.02018
1143.73,0.02028
1137.94,0.01974
1132.16,0.02034
1126.37,0.02090
1120.59,0.02172
1114.8,0.02132
1109.01,0.02108
1103.23,0.02116
1097.44,0.02160
1091.65,0.02108
1085.87,0.02147
1080.08,0.02138
1074.3,0.02360
1068.51,0.02396
1062.72,0.02381
1056.94,0.02380
1051.15,0.02363
1045.37,0.02295
1039.58,0.02353
1033.79,0.02242
1028.01,0.02253
1022.22,0.02239
1016.43,0.02265
1010.65,0.02305
1004.86,0.02373
999.076,0.02431
993.29,0.02372
987.504,0.02411
981.717,0.02342
975.931,0.02313
970.145,0.02345
964.359,0.02305
958.573,0.02349
952.787,0.02316
947,0.02304
941.214,0.02272
935.428,0.02264
929.642,0.02200
923.856,0.02189
918.07,0.02239
912.284,0.02202
906.497,0.02180
900.711,0.02125
894.925,0.02157
889.139,0.02227
883.353,0.02150
877.567,0.02124
871.78,0.02154
865.994,0.02200
860.208,0.02197
854.422,0.02152
848.636,0.02116
842.85,0.02133
837.064,0.02121
831.277,0.02150
825.491,0.02094
819.705,0.02179
813.919,0.02068
808.133,0.02116
802.347,0.02088
796.56,0.02080
790.774,0.02142
784.988,0.02074
779.202,0.02035
773.416,0.02056
767.63,0.01982
761.844,0.01991
756.057,0.02008
750.271,0.01938
744.485,0.02010
738.699,0.01972
732.913,0.01951
727.127,0.01927
721.34,0.01834
715.554,0.01832
709.768,0.01905
703.982,0.01915
698.196,0.01901
692.41,0.01881
686.624,0.01917
680.837,0.01838
675.051,0.01904
669.265,0.01906
663.479,0.01795
657.693,0.01852
651.907,0.01850
646.12,0.01833
640.334,0.01788
634.548,0.01783
628.762,0.01687
622.976,0.01701
617.19,0.01808
611.404,0.02013
605.617,0.02023
599.831,0.01942