File: 01_Data/PEVA/FTIR/IS/PEVA_0.26_IS_Trans_S_240819_R10.dpt
7496.91,0.93964
7491.12,0.95120
7485.33,0.92683
7479.55,0.92794
7473.76,0.92970
7467.98,0.95225
7462.19,0.93376
7456.4,0.92547
7450.62,0.93957
7444.83,0.94575
7439.04,0.93097
7433.26,0.93185
7427.47,0.93546
7421.69,0.94905
7415.9,0.93310
7410.11,0.93902
7404.33,0.93778
7398.54,0.95074
7392.76,0.92403
7386.97,0.91726
7381.18,0.92965
7375.4,0.92695
7369.61,0.92465
7363.83,0.91854
7358.04,0.91673
7352.25,0.92996
7346.47,0.91874
7340.68,0.91870
7334.89,0.92614
7329.11,0.91294
7323.32,0.91585
7317.54,0.92652
7311.75,0.92101
7305.96,0.91856
7300.18,0.93025
7294.39,0.91877
7288.61,0.91655
7282.82,0.90946
7277.03,0.91591
7271.25,0.92224
7265.46,0.92611
7259.67,0.91503
7253.89,0.92038
7248.1,0.91728
7242.32,0.90232
7236.53,0.92935
7230.74,0.90543
7224.96,0.91866
7219.17,0.91396
7213.39,0.90672
7207.6,0.92203
7201.81,0.89742
7196.03,0.90359
7190.24,0.91457
7184.45,0.90359
7178.67,0.91615
7172.88,0.92090
7167.1,0.90102
7161.31,0.90951
7155.52,0.90835
7149.74,0.90543
7143.95,0.91637
7138.17,0.90296
7132.38,0.91867
7126.59,0.92191
7120.81,0.91304
7115.02,0.91000
7109.23,0.91648
7103.45,0.91701
7097.66,0.91035
7091.88,0.91189
7086.09,0.92067
7080.3,0.91375
7074.52,0.91931
7068.73,0.90587
7062.95,0.91164
7057.16,0.91244
7051.37,0.93480
7045.59,0.92828
7039.8,0.91339
7034.02,0.92187
7028.23,0.91070
7022.44,0.91827
7016.66,0.92325
7010.87,0.91093
7005.08,0.91674
6999.3,0.92416
6993.51,0.91852
6987.73,0.91820
6981.94,0.90743
6976.15,0.91645
6970.37,0.91636
6964.58,0.92345
6958.8,0.92395
6953.01,0.92806
6947.22,0.91706
6941.44,0.91722
6935.65,0.91672
6929.86,0.92153
6924.08,0.91492
6918.29,0.92375
6912.51,0.93043
6906.72,0.92391
6900.93,0.92288
6895.15,0.92194
6889.36,0.93131
6883.58,0.91967
6877.79,0.93142
6872,0.92243
6866.22,0.92124
6860.43,0.92131
6854.64,0.92214
6848.86,0.92397
6843.07,0.92316
6837.29,0.92555
6831.5,0.91950
6825.71,0.91953
6819.93,0.92532
6814.14,0.93668
6808.36,0.93259
6802.57,0.93205
6796.78,0.92662
6791,0.92670
6785.21,0.92386
6779.43,0.92887
6773.64,0.93186
6767.85,0.91908
6762.07,0.92279
6756.28,0.93102
6750.49,0.92771
6744.71,0.92625
6738.92,0.93215
6733.14,0.92860
6727.35,0.92791
6721.56,0.92929
6715.78,0.92810
6709.99,0.93196
6704.21,0.93924
6698.42,0.93694
6692.63,0.92757
6686.85,0.93539
6681.06,0.93054
6675.27,0.92883
6669.49,0.93136
6663.7,0.93162
6657.92,0.92971
6652.13,0.93304
6646.34,0.93862
6640.56,0.93520
6634.77,0.92888
6628.99,0.93287
6623.2,0.93320
6617.41,0.93805
6611.63,0.93357
6605.84,0.92634
6600.05,0.93062
6594.27,0.93247
6588.48,0.92563
6582.7,0.93094
6576.91,0.93228
6571.12,0.93115
6565.34,0.93496
6559.55,0.93261
6553.77,0.93583
6547.98,0.93460
6542.19,0.93602
6536.41,0.93213
6530.62,0.93793
6524.84,0.93465
6519.05,0.93413
6513.26,0.93670
6507.48,0.93419
6501.69,0.93624
6495.9,0.93377
6490.12,0.93187
6484.33,0.93722
6478.55,0.94138
6472.76,0.93637
6466.97,0.93494
6461.19,0.93282
6455.4,0.93775
6449.62,0.93687
6443.83,0.94309
6438.04,0.93731
6432.26,0.93812
6426.47,0.93485
6420.68,0.93791
6414.9,0.93568
6409.11,0.93505
6403.33,0.93561
6397.54,0.93578
6391.75,0.94152
6385.97,0.93370
6380.18,0.93620
6374.4,0.93430
6368.61,0.93225
6362.82,0.93349
6357.04,0.93514
6351.25,0.93674
6345.46,0.93400
6339.68,0.93666
6333.89,0.93388
6328.11,0.93555
6322.32,0.94124
6316.53,0.93506
6310.75,0.93753
6304.96,0.93890
6299.18,0.93337
6293.39,0.93654
6287.6,0.93611
6281.82,0.93881
6276.03,0.93223
6270.24,0.93314
6264.46,0.94216
6258.67,0.93578
6252.89,0.93365
6247.1,0.93358
6241.31,0.93687
6235.53,0.93216
6229.74,0.93324
6223.96,0.93726
6218.17,0.93462
6212.38,0.93306
6206.6,0.93620
6200.81,0.93332
6195.03,0.92994
6189.24,0.93620
6183.45,0.93165
6177.67,0.93414
6171.88,0.93148
6166.09,0.93316
6160.31,0.93206
6154.52,0.92828
6148.74,0.93316
6142.95,0.93370
6137.16,0.92289
6131.38,0.92615
6125.59,0.92851
6119.81,0.93307
6114.02,0.92551
6108.23,0.92279
6102.45,0.92535
6096.66,0.92018
6090.87,0.92012
6085.09,0.91824
6079.3,0.91757
6073.52,0.91358
6067.73,0.90836
6061.94,0.90605
6056.16,0.90749
6050.37,0.90032
6044.59,0.90427
6038.8,0.89493
6033.01,0.89608
6027.23,0.88803
6021.44,0.88855
6015.65,0.88319
6009.87,0.88427
6004.08,0.89101
5998.3,0.88833
5992.51,0.89928
5986.72,0.90454
5980.94,0.90056
5975.15,0.89626
5969.37,0.90356
5963.58,0.90456
5957.79,0.90335
5952.01,0.90060
5946.22,0.89719
5940.44,0.88957
5934.65,0.88423
5928.86,0.87882
5923.08,0.87397
5917.29,0.86653
5911.5,0.86169
5905.72,0.85582
5899.93,0.84781
5894.15,0.84167
5888.36,0.83077
5882.57,0.81750
5876.79,0.81309
5871,0.80611
5865.22,0.79697
5859.43,0.78974
5853.64,0.77504
5847.86,0.76186
5842.07,0.75043
5836.28,0.73606
5830.5,0.72743
5824.71,0.72755
5818.93,0.73344
5813.14,0.74505
5807.35,0.76474
5801.57,0.77315
5795.78,0.78216
5790,0.79563
5784.21,0.80443
5778.42,0.81393
5772.64,0.81829
5766.85,0.82357
5761.06,0.82412
5755.28,0.82248
5749.49,0.82150
5743.71,0.82217
5737.92,0.81831
5732.13,0.81816
5726.35,0.81946
5720.56,0.82026
5714.78,0.82121
5708.99,0.82208
5703.2,0.82026
5697.42,0.82100
5691.63,0.82138
5685.84,0.82660
5680.06,0.83176
5674.27,0.83844
5668.49,0.83946
5662.7,0.84416
5656.91,0.84597
5651.13,0.84800
5645.34,0.85047
5639.56,0.85190
5633.77,0.85340
5627.98,0.85777
5622.2,0.86113
5616.41,0.86297
5610.63,0.86566
5604.84,0.86884
5599.05,0.86744
5593.27,0.87226
5587.48,0.87016
5581.69,0.87191
5575.91,0.87237
5570.12,0.87311
5564.34,0.87472
5558.55,0.87750
5552.76,0.87401
5546.98,0.87802
5541.19,0.87953
5535.41,0.87696
5529.62,0.88023
5523.83,0.87906
5518.05,0.87871
5512.26,0.88109
5506.47,0.87560
5500.69,0.88025
5494.9,0.87174
5489.12,0.87114
5483.33,0.88035
5477.54,0.87414
5471.76,0.87408
5465.97,0.87204
5460.19,0.87157
5454.4,0.87966
5448.61,0.87251
5442.83,0.87049
5437.04,0.88170
5431.25,0.87521
5425.47,0.88319
5419.68,0.88850
5413.9,0.87272
5408.11,0.88111
5402.32,0.88847
5396.54,0.88086
5390.75,0.88948
5384.97,0.88417
5379.18,0.88812
5373.39,0.88736
5367.61,0.89490
5361.82,0.89393
5356.04,0.88865
5350.25,0.88751
5344.46,0.88052
5338.68,0.87784
5332.89,0.89063
5327.1,0.88934
5321.32,0.89916
5315.53,0.89860
5309.75,0.90161
5303.96,0.89995
5298.17,0.89935
5292.39,0.89851
5286.6,0.89849
5280.82,0.89928
5275.03,0.90260
5269.24,0.89561
5263.46,0.88470
5257.67,0.89637
5251.88,0.89327
5246.1,0.88551
5240.31,0.89788
5234.53,0.89904
5228.74,0.89674
5222.95,0.89530
5217.17,0.89926
5211.38,0.90126
5205.6,0.88856
5199.81,0.90024
5194.02,0.90048
5188.24,0.90118
5182.45,0.90021
5176.66,0.90189
5170.88,0.90029
5165.09,0.90207
5159.31,0.90195
5153.52,0.90067
5147.73,0.90310
5141.95,0.90103
5136.16,0.90428
5130.38,0.90392
5124.59,0.90469
5118.8,0.90140
5113.02,0.90323
5107.23,0.90297
5101.45,0.90359
5095.66,0.90442
5089.87,0.90464
5084.09,0.90558
5078.3,0.90456
5072.51,0.90559
5066.73,0.90636
5060.94,0.90750
5055.16,0.90742
5049.37,0.90539
5043.58,0.90902
5037.8,0.90948
5032.01,0.91157
5026.23,0.90979
5020.44,0.91087
5014.65,0.91080
5008.87,0.91062
5003.08,0.90861
4997.29,0.90940
4991.51,0.90817
4985.72,0.90901
4979.94,0.91049
4974.15,0.91132
4968.36,0.91008
4962.58,0.91176
4956.79,0.91170
4951.01,0.91239
4945.22,0.91129
4939.43,0.90942
4933.65,0.91043
4927.86,0.91054
4922.07,0.91033
4916.29,0.90964
4910.5,0.91242
4904.72,0.91138
4898.93,0.91099
4893.14,0.91069
4887.36,0.90976
4881.57,0.91058
4875.79,0.91011
4870,0.90995
4864.21,0.91006
4858.43,0.91125
4852.64,0.91158
4846.85,0.90979
4841.07,0.90920
4835.28,0.91133
4829.5,0.90947
4823.71,0.91044
4817.92,0.90988
4812.14,0.90743
4806.35,0.90810
4800.57,0.90730
4794.78,0.90682
4788.99,0.90674
4783.21,0.90713
4777.42,0.90719
4771.64,0.90826
4765.85,0.90904
4760.06,0.90895
4754.28,0.90804
4748.49,0.90622
4742.7,0.90496
4736.92,0.90524
4731.13,0.90246
4725.35,0.89938
4719.56,0.89558
4713.77,0.89235
4707.99,0.89136
4702.2,0.88520
4696.42,0.87902
4690.63,0.87248
4684.84,0.86981
4679.06,0.87281
4673.27,0.87699
4667.48,0.88162
4661.7,0.88402
4655.91,0.88371
4650.13,0.88453
4644.34,0.88209
4638.55,0.87501
4632.77,0.86920
4626.98,0.87268
4621.2,0.87979
4615.41,0.88749
4609.62,0.89062
4603.84,0.89184
4598.05,0.89287
4592.26,0.89074
4586.48,0.88768
4580.69,0.88667
4574.91,0.88537
4569.12,0.88818
4563.33,0.89296
4557.55,0.89538
4551.76,0.89605
4545.98,0.89348
4540.19,0.89334
4534.4,0.89292
4528.62,0.89172
4522.83,0.89002
4517.05,0.88683
4511.26,0.88546
4505.47,0.88152
4499.69,0.87886
4493.9,0.87145
4488.11,0.86426
4482.33,0.86048
4476.54,0.85707
4470.76,0.85379
4464.97,0.84790
4459.18,0.84049
4453.4,0.82954
4447.61,0.81688
4441.83,0.79901
4436.04,0.77818
4430.25,0.75476
4424.47,0.72816
4418.68,0.70029
4412.89,0.67220
4407.11,0.64728
4401.32,0.62890
4395.54,0.62110
4389.75,0.61575
4383.96,0.59932
4378.18,0.57375
4372.39,0.54223
4366.61,0.50862
4360.82,0.47319
4355.03,0.44148
4349.25,0.41419
4343.46,0.38530
4337.67,0.35849
4331.89,0.35193
4326.1,0.37540
4320.32,0.41265
4314.53,0.44735
4308.74,0.46930
4302.96,0.47972
4297.17,0.48465
4291.39,0.48333
4285.6,0.47823
4279.81,0.47398
4274.03,0.47510
4268.24,0.47892
4262.46,0.48615
4256.67,0.49103
4250.88,0.49053
4245.1,0.49071
4239.31,0.48801
4233.52,0.48347
4227.74,0.47679
4221.95,0.46990
4216.17,0.46756
4210.38,0.46826
4204.59,0.47734
4198.81,0.48967
4193.02,0.50139
4187.24,0.50898
4181.45,0.50440
4175.66,0.49551
4169.88,0.49117
4164.09,0.50210
4158.3,0.52057
4152.52,0.53703
4146.73,0.55014
4140.95,0.56376
4135.16,0.57751
4129.37,0.58822
4123.59,0.59036
4117.8,0.58766
4112.02,0.58126
4106.23,0.57480
4100.44,0.56743
4094.66,0.54913
4088.87,0.51985
4083.08,0.49866
4077.3,0.51424
4071.51,0.54272
4065.73,0.56752
4059.94,0.59057
4054.15,0.60993
4048.37,0.62027
4042.58,0.62549
4036.8,0.63032
4031.01,0.63285
4025.22,0.63257
4019.44,0.63344
4013.65,0.63762
4007.86,0.64540
4002.08,0.65535
3996.29,0.66591
3990.51,0.67497
3984.72,0.68508
3978.93,0.69108
3973.15,0.69419
3967.36,0.70191
3961.58,0.70287
3955.79,0.70467
3950,0.69940
3944.22,0.70081
3938.43,0.70736
3932.65,0.69843
3926.86,0.69944
3921.07,0.69708
3915.29,0.70139
3909.5,0.70956
3903.71,0.68310
3897.93,0.69838
3892.14,0.70047
3886.36,0.70571
3880.57,0.70341
3874.78,0.70573
3869,0.69606
3863.21,0.69817
3857.43,0.70438
3851.64,0.68692
3845.85,0.71539
3840.07,0.68941
3834.28,0.70564
3828.49,0.71814
3822.71,0.70486
3816.92,0.71017
3811.14,0.73873
3805.35,0.72066
3799.56,0.71692
3793.78,0.75033
3787.99,0.75732
3782.21,0.75377
3776.42,0.76052
3770.63,0.75027
3764.85,0.74932
3759.06,0.73586
3753.27,0.72243
3747.49,0.71506
3741.7,0.73608
3735.92,0.71523
3730.13,0.74551
3724.34,0.74627
3718.56,0.76826
3712.77,0.74840
3706.99,0.75285
3701.2,0.74136
3695.41,0.72540
3689.63,0.66924
3683.84,0.67561
3678.06,0.65037
3672.27,0.64888
3666.48,0.67696
3660.7,0.68937
3654.91,0.68188
3649.12,0.64990
3643.34,0.69157
3637.55,0.69391
3631.77,0.67303
3625.98,0.66239
3620.19,0.64923
3614.41,0.64040
3608.62,0.63888
3602.84,0.64189
3597.05,0.62837
3591.26,0.62548
3585.48,0.61389
3579.69,0.61803
3573.9,0.60692
3568.12,0.57697
3562.33,0.57385
3556.55,0.56927
3550.76,0.55573
3544.97,0.54628
3539.19,0.55237
3533.4,0.54912
3527.62,0.53802
3521.83,0.53608
3516.04,0.53692
3510.26,0.52403
3504.47,0.51346
3498.68,0.50489
3492.9,0.49008
3487.11,0.47290
3481.33,0.45553
3475.54,0.44184
3469.75,0.42961
3463.97,0.41582
3458.18,0.40379
3452.4,0.38957
3446.61,0.36663
3440.82,0.34265
3435.04,0.31648
3429.25,0.29672
3423.47,0.29103
3417.68,0.30020
3411.89,0.32369
3406.11,0.35231
3400.32,0.38441
3394.53,0.41186
3388.75,0.43481
3382.96,0.45176
3377.18,0.46780
3371.39,0.48031
3365.6,0.48916
3359.82,0.49718
3354.03,0.50144
3348.25,0.50383
3342.46,0.50038
3336.67,0.49379
3330.89,0.48785
3325.1,0.48183
3319.31,0.46742
3313.53,0.42672
3307.74,0.34843
3301.96,0.29069
3296.17,0.32422
3290.38,0.39367
3284.6,0.45238
3278.81,0.49134
3273.03,0.51930
3267.24,0.54194
3261.45,0.55446
3255.67,0.56211
3249.88,0.56645
3244.09,0.56804
3238.31,0.56655
3232.52,0.56193
3226.74,0.55677
3220.95,0.55409
3215.16,0.55151
3209.38,0.54806
3203.59,0.54491
3197.81,0.54020
3192.02,0.53958
3186.23,0.53941
3180.45,0.54038
3174.66,0.54242
3168.87,0.54347
3163.09,0.54248
3157.3,0.54175
3151.52,0.53853
3145.73,0.53374
3139.94,0.52464
3134.16,0.51376
3128.37,0.49803
3122.59,0.49111
3116.8,0.48604
3111.01,0.47284
3105.23,0.44829
3099.44,0.41616
3093.66,0.39743
3087.87,0.37319
3082.08,0.34126
3076.3,0.33445
3070.51,0.31834
3064.72,0.29145
3058.94,0.28497
3053.15,0.27034
3047.37,0.28366
3041.58,0.28859
3035.79,0.26916
3030.01,0.24030
3024.22,0.20961
3018.44,0.17153
3012.65,0.12758
3006.86,0.08332
3001.08,0.04324
2995.29,0.01614
2989.5,0.00323
2983.72,0.00052
2977.93,0.00047
2972.15,0.00071
2966.36,0.00091
2960.57,0.00085
2954.79,0.00050
2949,0.00079
2943.22,0.00067
2937.43,0.00072
2931.64,0.00022
2925.86,0.00037
2920.07,0.00048
2914.28,0.00014
2908.5,0.00029
2902.71,0.00046
2896.93,0.00054
2891.14,0.00016
2885.35,0.00039
2879.57,0.00082
2873.78,0.00044
2868,0.00045
2862.21,0.00043
2856.42,0.00055
2850.64,0.00034
2844.85,0.00053
2839.07,0.00824
2833.28,0.02757
2827.49,0.04917
2821.71,0.06140
2815.92,0.07061
2810.13,0.11440
2804.35,0.16987
2798.56,0.21616
2792.78,0.25686
2786.99,0.29102
2781.2,0.32123
2775.42,0.34531
2769.63,0.36065
2763.85,0.36881
2758.06,0.37034
2752.27,0.36321
2746.49,0.35075
2740.7,0.33580
2734.91,0.32512
2729.13,0.33904
2723.34,0.37725
2717.56,0.40826
2711.77,0.42759
2705.98,0.44340
2700.2,0.45590
2694.41,0.46328
2688.63,0.46635
2682.84,0.46203
2677.05,0.45450
2671.27,0.45314
2665.48,0.46406
2659.69,0.48301
2653.91,0.50049
2648.12,0.50985
2642.34,0.51040
2636.55,0.50168
2630.76,0.49059
2624.98,0.48859
2619.19,0.48770
2613.41,0.48740
2607.62,0.48635
2601.83,0.48675
2596.05,0.48859
2590.26,0.48779
2584.47,0.48395
2578.69,0.48161
2572.9,0.48694
2567.12,0.49603
2561.33,0.50164
2555.54,0.50385
2549.76,0.50897
2543.97,0.51771
2538.19,0.52489
2532.4,0.52909
2526.61,0.53394
2520.83,0.54440
2515.04,0.55839
2509.26,0.57279
2503.47,0.58427
2497.68,0.59193
2491.9,0.59701
2486.11,0.60073
2480.32,0.60581
2474.54,0.61188
2468.75,0.61767
2462.97,0.62009
2457.18,0.62064
2451.39,0.61883
2445.61,0.61416
2439.82,0.60795
2434.04,0.59962
2428.25,0.58919
2422.46,0.57462
2416.68,0.56435
2410.89,0.55534
2405.1,0.54629
2399.32,0.53765
2393.53,0.52747
2387.75,0.51802
2381.96,0.49878
2376.17,0.46783
2370.39,0.44127
2364.6,0.42675
2358.82,0.43297
2353.03,0.47629
2347.24,0.51031
2341.46,0.50339
2335.67,0.52218
2329.88,0.53549
2324.1,0.54812
2318.31,0.57509
2312.53,0.60184
2306.74,0.61835
2300.95,0.62766
2295.17,0.62586
2289.38,0.61831
2283.6,0.60587
2277.81,0.59355
2272.02,0.60188
2266.24,0.61710
2260.45,0.62543
2254.67,0.62648
2248.88,0.62771
2243.09,0.62494
2237.31,0.62363
2231.52,0.62366
2225.73,0.62784
2219.95,0.63437
2214.16,0.63778
2208.38,0.64129
2202.59,0.65644
2196.8,0.67163
2191.02,0.67795
2185.23,0.68723
2179.45,0.69300
2173.66,0.69753
2167.87,0.69666
2162.09,0.69389
2156.3,0.69105
2150.51,0.68910
2144.73,0.68708
2138.94,0.68347
2133.16,0.68404
2127.37,0.68160
2121.58,0.68073
2115.8,0.67638
2110.01,0.67534
2104.23,0.67424
2098.44,0.67297
2092.65,0.66931
2086.87,0.66445
2081.08,0.66090
2075.29,0.65686
2069.51,0.65754
2063.72,0.65660
2057.94,0.66413
2052.15,0.66876
2046.36,0.67546
2040.58,0.67729
2034.79,0.68127
2029.01,0.68345
2023.22,0.68815
2017.43,0.69148
2011.65,0.69878
2005.86,0.70109
2000.08,0.69497
1994.29,0.68041
1988.5,0.66405
1982.72,0.66396
1976.93,0.65564
1971.14,0.64011
1965.36,0.60934
1959.57,0.56964
1953.79,0.51003
1948,0.48495
1942.21,0.51762
1936.43,0.56625
1930.64,0.60355
1924.86,0.62152
1919.07,0.63025
1913.28,0.63930
1907.5,0.64182
1901.71,0.64934
1895.92,0.64871
1890.14,0.64738
1884.35,0.65560
1878.57,0.65963
1872.78,0.65546
1866.99,0.63691
1861.21,0.64177
1855.42,0.62625
1849.64,0.59510
1843.85,0.55251
1838.06,0.52929
1832.28,0.47598
1826.49,0.41377
1820.7,0.40520
1814.92,0.42244
1809.13,0.42997
1803.35,0.42574
1797.56,0.40326
1791.77,0.36665
1785.99,0.34002
1780.2,0.29828
1774.42,0.25915
1768.63,0.21157
1762.84,0.15993
1757.06,0.08518
1751.27,0.03104
1745.48,0.00581
1739.7,0.00070
1733.91,0.00080
1728.13,0.00023
1722.34,0.00026
1716.55,0.00047
1710.77,0.00032
1704.98,0.00024
1699.2,0.00189
1693.41,0.02465
1687.62,0.04818
1681.84,0.06283
1676.05,0.07402
1670.27,0.10111
1664.48,0.18161
1658.69,0.25717
1652.91,0.27205
1647.12,0.25936
1641.33,0.19543
1635.55,0.16993
1629.76,0.27229
1623.98,0.31071
1618.19,0.29579
1612.4,0.25847
1606.62,0.28813
1600.83,0.33769
1595.05,0.34743
1589.26,0.33260
1583.47,0.22662
1577.69,0.09799
1571.9,0.16220
1566.11,0.21187
1560.33,0.22956
1554.54,0.25649
1548.76,0.26295
1542.97,0.22459
1537.18,0.21607
1531.4,0.24045
1525.61,0.24323
1519.83,0.26121
1514.04,0.23384
1508.25,0.12669
1502.47,0.07594
1496.68,0.19015
1490.89,0.18798
1485.11,0.11045
1479.32,0.03831
1473.54,0.00463
1467.75,-0.00012
1461.96,0.00035
1456.18,0.00049
1450.39,0.00031
1444.61,0.00049
1438.82,0.00039
1433.03,0.00026
1427.25,0.00049
1421.46,0.00029
1415.68,0.00047
1409.89,0.00007
1404.1,0.00143
1398.32,0.00496
1392.53,0.00162
1386.74,0.00054
1380.96,0.00017
1375.17,0.00022
1369.39,0.00119
1363.6,0.00145
1357.81,0.00057
1352.03,0.00037
1346.24,0.00038
1340.46,0.00059
1334.67,0.00052
1328.88,0.00049
1323.1,0.00009
1317.31,0.00013
1311.52,0.00045
1305.74,0.00049
1299.95,0.00035
1294.17,0.00044
1288.38,0.00027
1282.59,0.00031
1276.81,0.00020
1271.02,0.00049
1265.24,0.00016
1259.45,0.00032
1253.66,0.00041
1247.88,0.00051
1242.09,0.00060
1236.3,0.00031
1230.52,0.00022
1224.73,0.00024
1218.95,0.00241
1213.16,0.00267
1207.37,0.00203
1201.59,0.00148
1195.8,0.00199
1190.02,0.00516
1184.23,0.01171
1178.44,0.01216
1172.66,0.00468
1166.87,0.00735
1161.09,0.00813
1155.3,0.00607
1149.51,0.00438
1143.73,0.00412
1137.94,0.00222
1132.15,0.00044
1126.37,0.00050
1120.58,0.00031
1114.8,0.00006
1109.01,0.00056
1103.22,0.00077
1097.44,0.00060
1091.65,0.00090
1085.87,0.00031
1080.08,0.00047
1074.29,0.00343
1068.51,0.00881
1062.72,0.01409
1056.93,0.01945
1051.15,0.02469
1045.36,0.02587
1039.58,0.02318
1033.79,0.01699
1028,0.00862
1022.22,0.00048
1016.43,0.00056
1010.65,0.00695
1004.86,0.00768
999.073,0.00371
993.287,0.00240
987.501,0.00074
981.715,0.00094
975.929,0.00021
970.142,0.00018
964.356,0.00096
958.57,0.00013
952.784,0.00055
946.998,0.00052
941.212,0.00110
935.426,0.00151
929.64,0.00320
923.853,0.00334
918.067,0.00680
912.281,0.01227
906.495,0.01655
900.709,0.02615
894.923,0.03428
889.137,0.04611
883.35,0.03279
877.564,0.00451
871.778,0.00510
865.992,0.02597
860.206,0.03806
854.42,0.03908
848.634,0.03914
842.847,0.03810
837.061,0.02957
831.275,0.02888
825.489,0.07041
819.703,0.13295
813.917,0.16026
808.131,0.16205
802.344,0.17070
796.558,0.12032
790.772,0.13071
784.986,0.10187
779.2,0.08774
773.414,0.06693
767.628,0.05838
761.842,0.10277
756.055,0.16137
750.269,0.14682
744.483,0.06469
738.697,0.00469
732.911,-0.00001
727.125,0.00014
721.339,0.01253
715.552,0.02176
709.766,0.00865
703.98,0.00237
698.194,0.00072
692.408,0.00022
686.622,0.00058
680.836,0.00133
675.049,0.00438
669.263,0.01224
663.477,0.02300
657.691,0.01164
651.905,0.00202
646.119,0.00039
640.333,0.00194
634.546,0.00113
628.76,0.00120
622.974,0.00347
617.188,0.00208
611.402,-0.00018
605.616,0.00130
599.83,0.00433