File: 01_Data/PEVA/FTIR/IS/PEVA_0.26_IS_S_240809_R5.dpt
7497.2,0.08715
7491.41,0.11569
7485.63,0.09611
7479.84,0.09105
7474.05,0.09506
7468.27,0.10712
7462.48,0.09770
7456.7,0.10512
7450.91,0.08986
7445.12,0.10226
7439.34,0.10428
7433.55,0.10878
7427.76,0.10323
7421.98,0.10784
7416.19,0.10658
7410.4,0.11349
7404.62,0.10256
7398.83,0.09045
7393.05,0.09748
7387.26,0.10306
7381.47,0.09937
7375.69,0.10283
7369.9,0.09940
7364.11,0.10706
7358.33,0.10362
7352.54,0.09571
7346.75,0.09954
7340.97,0.10945
7335.18,0.10597
7329.4,0.11068
7323.61,0.09821
7317.82,0.08837
7312.04,0.09068
7306.25,0.10420
7300.46,0.09502
7294.68,0.09500
7288.89,0.09059
7283.1,0.08808
7277.32,0.11147
7271.53,0.10540
7265.75,0.10290
7259.96,0.09470
7254.17,0.09356
7248.39,0.09902
7242.6,0.09919
7236.81,0.10322
7231.03,0.09561
7225.24,0.09564
7219.45,0.10471
7213.67,0.08649
7207.88,0.09605
7202.1,0.09865
7196.31,0.09441
7190.52,0.09986
7184.74,0.11198
7178.95,0.09896
7173.16,0.09298
7167.38,0.09998
7161.59,0.10804
7155.8,0.09840
7150.02,0.09997
7144.23,0.09852
7138.45,0.09565
7132.66,0.10403
7126.87,0.09514
7121.09,0.09518
7115.3,0.09856
7109.51,0.09951
7103.73,0.09530
7097.94,0.09395
7092.15,0.10036
7086.37,0.10247
7080.58,0.11128
7074.8,0.10060
7069.01,0.09313
7063.22,0.09982
7057.44,0.10050
7051.65,0.10702
7045.86,0.09878
7040.08,0.09598
7034.29,0.10313
7028.5,0.09851
7022.72,0.09369
7016.93,0.10344
7011.15,0.10310
7005.36,0.10333
6999.57,0.10383
6993.79,0.10361
6988,0.10394
6982.21,0.10789
6976.43,0.09877
6970.64,0.10689
6964.85,0.10414
6959.07,0.10010
6953.28,0.10295
6947.5,0.09576
6941.71,0.09958
6935.92,0.09639
6930.14,0.09658
6924.35,0.09596
6918.56,0.09578
6912.78,0.10312
6906.99,0.09334
6901.2,0.10056
6895.42,0.10416
6889.63,0.10388
6883.85,0.09863
6878.06,0.09689
6872.27,0.08981
6866.49,0.10535
6860.7,0.09970
6854.91,0.10082
6849.13,0.10116
6843.34,0.10639
6837.55,0.10510
6831.77,0.10167
6825.98,0.09985
6820.2,0.10624
6814.41,0.09919
6808.62,0.09901
6802.84,0.09819
6797.05,0.09657
6791.26,0.09645
6785.48,0.10010
6779.69,0.10506
6773.9,0.10627
6768.12,0.10014
6762.33,0.09742
6756.55,0.10270
6750.76,0.10552
6744.97,0.11264
6739.19,0.10423
6733.4,0.10055
6727.61,0.09639
6721.83,0.09526
6716.04,0.09907
6710.25,0.10155
6704.47,0.10202
6698.68,0.10050
6692.9,0.09825
6687.11,0.10412
6681.32,0.10029
6675.54,0.10184
6669.75,0.10133
6663.96,0.10141
6658.18,0.10781
6652.39,0.10221
6646.6,0.10064
6640.82,0.10113
6635.03,0.10107
6629.25,0.10148
6623.46,0.09971
6617.67,0.09905
6611.89,0.09655
6606.1,0.10339
6600.31,0.10491
6594.53,0.10219
6588.74,0.10522
6582.95,0.09917
6577.17,0.10315
6571.38,0.10215
6565.6,0.10509
6559.81,0.10654
6554.02,0.10560
6548.24,0.09649
6542.45,0.09698
6536.66,0.10118
6530.88,0.10534
6525.09,0.10360
6519.3,0.10259
6513.52,0.09862
6507.73,0.09997
6501.95,0.10737
6496.16,0.10580
6490.37,0.10356
6484.59,0.10004
6478.8,0.10586
6473.01,0.10319
6467.23,0.09604
6461.44,0.10014
6455.65,0.09938
6449.87,0.09666
6444.08,0.10404
6438.3,0.10167
6432.51,0.10466
6426.72,0.10201
6420.94,0.09720
6415.15,0.10302
6409.36,0.10322
6403.58,0.10475
6397.79,0.10171
6392,0.10041
6386.22,0.10273
6380.43,0.10857
6374.65,0.10815
6368.86,0.10506
6363.07,0.10152
6357.29,0.09686
6351.5,0.10141
6345.71,0.09939
6339.93,0.10077
6334.14,0.10202
6328.35,0.09833
6322.57,0.10341
6316.78,0.10343
6310.99,0.10220
6305.21,0.10076
6299.42,0.10509
6293.64,0.10084
6287.85,0.10248
6282.06,0.09870
6276.28,0.10253
6270.49,0.10224
6264.7,0.10482
6258.92,0.10335
6253.13,0.10179
6247.34,0.09851
6241.56,0.10473
6235.77,0.10066
6229.99,0.10214
6224.2,0.10275
6218.41,0.09919
6212.63,0.10409
6206.84,0.10329
6201.05,0.10013
6195.27,0.10307
6189.48,0.10080
6183.69,0.10074
6177.91,0.09950
6172.12,0.10325
6166.34,0.09783
6160.55,0.10112
6154.76,0.10170
6148.98,0.10414
6143.19,0.09997
6137.4,0.10109
6131.62,0.10127
6125.83,0.10034
6120.04,0.10012
6114.26,0.10288
6108.47,0.10433
6102.69,0.10304
6096.9,0.10039
6091.11,0.10052
6085.33,0.10116
6079.54,0.10224
6073.75,0.09887
6067.97,0.10207
6062.18,0.09973
6056.39,0.10275
6050.61,0.10145
6044.82,0.10140
6039.04,0.09788
6033.25,0.10025
6027.46,0.09903
6021.68,0.09547
6015.89,0.09640
6010.1,0.10171
6004.32,0.10157
5998.53,0.09647
5992.74,0.10076
5986.96,0.10021
5981.17,0.09963
5975.39,0.09666
5969.6,0.10294
5963.81,0.09917
5958.03,0.09944
5952.24,0.10231
5946.45,0.09946
5940.67,0.09642
5934.88,0.09840
5929.09,0.09659
5923.31,0.09844
5917.52,0.09542
5911.74,0.09734
5905.95,0.09801
5900.16,0.09465
5894.38,0.09187
5888.59,0.09205
5882.8,0.09172
5877.02,0.09146
5871.23,0.09052
5865.44,0.08984
5859.66,0.08745
5853.87,0.09008
5848.09,0.08942
5842.3,0.08829
5836.51,0.08405
5830.73,0.08381
5824.94,0.08349
5819.15,0.08682
5813.37,0.08822
5807.58,0.08836
5801.79,0.08971
5796.01,0.08849
5790.22,0.08668
5784.44,0.09211
5778.65,0.09189
5772.86,0.09253
5767.08,0.09384
5761.29,0.09611
5755.5,0.09334
5749.72,0.09286
5743.93,0.09094
5738.14,0.08978
5732.36,0.09158
5726.57,0.09205
5720.79,0.09515
5715,0.09662
5709.21,0.09415
5703.43,0.09243
5697.64,0.09242
5691.85,0.09534
5686.07,0.09441
5680.28,0.09444
5674.49,0.09642
5668.71,0.09695
5662.92,0.09583
5657.14,0.09640
5651.35,0.09884
5645.56,0.09827
5639.78,0.09827
5633.99,0.09810
5628.2,0.09746
5622.42,0.09859
5616.63,0.09772
5610.84,0.09548
5605.06,0.09954
5599.27,0.09721
5593.49,0.09615
5587.7,0.09844
5581.91,0.09860
5576.13,0.09906
5570.34,0.09697
5564.55,0.09873
5558.77,0.09632
5552.98,0.09837
5547.19,0.09986
5541.41,0.09799
5535.62,0.09948
5529.84,0.09890
5524.05,0.10022
5518.26,0.09866
5512.48,0.10073
5506.69,0.09941
5500.9,0.09842
5495.12,0.09934
5489.33,0.09884
5483.54,0.09785
5477.76,0.09841
5471.97,0.09933
5466.19,0.10077
5460.4,0.09918
5454.61,0.10030
5448.83,0.09736
5443.04,0.09843
5437.25,0.09879
5431.47,0.09764
5425.68,0.09844
5419.89,0.09773
5414.11,0.09940
5408.32,0.09986
5402.54,0.10000
5396.75,0.10068
5390.96,0.10099
5385.18,0.09942
5379.39,0.10190
5373.6,0.10092
5367.82,0.10072
5362.03,0.10202
5356.24,0.10121
5350.46,0.10259
5344.67,0.10061
5338.89,0.10137
5333.1,0.10007
5327.31,0.10160
5321.53,0.10238
5315.74,0.10096
5309.95,0.10305
5304.17,0.10237
5298.38,0.10111
5292.59,0.09879
5286.81,0.09940
5281.02,0.10012
5275.24,0.10078
5269.45,0.09927
5263.66,0.10188
5257.88,0.10102
5252.09,0.09944
5246.3,0.10098
5240.52,0.10074
5234.73,0.10065
5228.94,0.10195
5223.16,0.10188
5217.37,0.10197
5211.59,0.10133
5205.8,0.10070
5200.01,0.10307
5194.23,0.10234
5188.44,0.10152
5182.65,0.10167
5176.87,0.10258
5171.08,0.10196
5165.29,0.10224
5159.51,0.10292
5153.72,0.10297
5147.94,0.10280
5142.15,0.10142
5136.36,0.10143
5130.58,0.10169
5124.79,0.10205
5119,0.10179
5113.22,0.10228
5107.43,0.10127
5101.64,0.10289
5095.86,0.10210
5090.07,0.10075
5084.29,0.10176
5078.5,0.10173
5072.71,0.10322
5066.93,0.10249
5061.14,0.10242
5055.35,0.10074
5049.57,0.10094
5043.78,0.10256
5037.99,0.10166
5032.21,0.10037
5026.42,0.10170
5020.64,0.10249
5014.85,0.10311
5009.06,0.10118
5003.28,0.10229
4997.49,0.10168
4991.7,0.10159
4985.92,0.10238
4980.13,0.10268
4974.34,0.10310
4968.56,0.10367
4962.77,0.10232
4956.99,0.10201
4951.2,0.10173
4945.41,0.10329
4939.63,0.10272
4933.84,0.10254
4928.05,0.10486
4922.27,0.10277
4916.48,0.10211
4910.69,0.10263
4904.91,0.10268
4899.12,0.10209
4893.34,0.10341
4887.55,0.10249
4881.76,0.10405
4875.98,0.10253
4870.19,0.10295
4864.4,0.10280
4858.62,0.10314
4852.83,0.10155
4847.04,0.10239
4841.26,0.10152
4835.47,0.10246
4829.69,0.10262
4823.9,0.10319
4818.11,0.10353
4812.33,0.10361
4806.54,0.10223
4800.75,0.10380
4794.97,0.10260
4789.18,0.10250
4783.39,0.10256
4777.61,0.10312
4771.82,0.10249
4766.04,0.10284
4760.25,0.10266
4754.46,0.10248
4748.68,0.10313
4742.89,0.10349
4737.1,0.10338
4731.32,0.10238
4725.53,0.10245
4719.74,0.10117
4713.96,0.10129
4708.17,0.10075
4702.39,0.10087
4696.6,0.10008
4690.81,0.10071
4685.03,0.10003
4679.24,0.09902
4673.45,0.10099
4667.67,0.10085
4661.88,0.10200
4656.09,0.10186
4650.31,0.10103
4644.52,0.09992
4638.74,0.10080
4632.95,0.09998
4627.16,0.10004
4621.38,0.10098
4615.59,0.10146
4609.8,0.10173
4604.02,0.10081
4598.23,0.10188
4592.44,0.10271
4586.66,0.10131
4580.87,0.10283
4575.09,0.10072
4569.3,0.10078
4563.51,0.10172
4557.73,0.10170
4551.94,0.10209
4546.15,0.10130
4540.37,0.10214
4534.58,0.10164
4528.79,0.10192
4523.01,0.10228
4517.22,0.10139
4511.44,0.10097
4505.65,0.10120
4499.86,0.10025
4494.08,0.10044
4488.29,0.09930
4482.5,0.09971
4476.72,0.09801
4470.93,0.09770
4465.14,0.09878
4459.36,0.09710
4453.57,0.09610
4447.79,0.09445
4442,0.09399
4436.21,0.09262
4430.43,0.09041
4424.64,0.08834
4418.85,0.08597
4413.07,0.08409
4407.28,0.08348
4401.49,0.08199
4395.71,0.08047
4389.92,0.08038
4384.14,0.07971
4378.35,0.07787
4372.56,0.07607
4366.78,0.07459
4360.99,0.07218
4355.2,0.07093
4349.42,0.07050
4343.63,0.06932
4337.84,0.06844
4332.06,0.06781
4326.27,0.06823
4320.49,0.06968
4314.7,0.07299
4308.91,0.07263
4303.13,0.07410
4297.34,0.07433
4291.55,0.07388
4285.77,0.07413
4279.98,0.07294
4274.19,0.07265
4268.41,0.07391
4262.62,0.07396
4256.84,0.07471
4251.05,0.07393
4245.26,0.07414
4239.48,0.07411
4233.69,0.07429
4227.9,0.07474
4222.12,0.07284
4216.33,0.07303
4210.54,0.07308
4204.76,0.07342
4198.97,0.07508
4193.19,0.07536
4187.4,0.07465
4181.61,0.07558
4175.83,0.07452
4170.04,0.07418
4164.25,0.07504
4158.47,0.07613
4152.68,0.07709
4146.89,0.07712
4141.11,0.07825
4135.32,0.07862
4129.54,0.08015
4123.75,0.08072
4117.96,0.07873
4112.18,0.07910
4106.39,0.07865
4100.6,0.07858
4094.82,0.07774
4089.03,0.07556
4083.24,0.07496
4077.46,0.07620
4071.67,0.07751
4065.89,0.07821
4060.1,0.07968
4054.31,0.08067
4048.53,0.08154
4042.74,0.08261
4036.95,0.08182
4031.17,0.08210
4025.38,0.08240
4019.59,0.08302
4013.81,0.08290
4008.02,0.08373
4002.24,0.08461
3996.45,0.08441
3990.66,0.08547
3984.88,0.08593
3979.09,0.08750
3973.3,0.08695
3967.52,0.08724
3961.73,0.08751
3955.94,0.08813
3950.16,0.08799
3944.37,0.08785
3938.59,0.08787
3932.8,0.08781
3927.01,0.08716
3921.23,0.08758
3915.44,0.08823
3909.65,0.08858
3903.87,0.08854
3898.08,0.08897
3892.29,0.08906
3886.51,0.08871
3880.72,0.08896
3874.94,0.08912
3869.15,0.08917
3863.36,0.08946
3857.58,0.08889
3851.79,0.08793
3846,0.08955
3840.22,0.08863
3834.43,0.08900
3828.64,0.08994
3822.86,0.09020
3817.07,0.09011
3811.29,0.09022
3805.5,0.09053
3799.71,0.09015
3793.93,0.09173
3788.14,0.09168
3782.35,0.09206
3776.57,0.09231
3770.78,0.09279
3764.99,0.09152
3759.21,0.09143
3753.42,0.09174
3747.64,0.09206
3741.85,0.09267
3736.06,0.09300
3730.28,0.09296
3724.49,0.09406
3718.7,0.09397
3712.92,0.09355
3707.13,0.09273
3701.34,0.09164
3695.56,0.08953
3689.77,0.08648
3683.99,0.08576
3678.2,0.08563
3672.41,0.08563
3666.63,0.08602
3660.84,0.08655
3655.05,0.08613
3649.27,0.08599
3643.48,0.08688
3637.69,0.08660
3631.91,0.08661
3626.12,0.08566
3620.34,0.08472
3614.55,0.08370
3608.76,0.08266
3602.98,0.08231
3597.19,0.08286
3591.4,0.08193
3585.62,0.08138
3579.83,0.08015
3574.04,0.07985
3568.26,0.07956
3562.47,0.07783
3556.69,0.07703
3550.9,0.07703
3545.11,0.07607
3539.33,0.07556
3533.54,0.07622
3527.75,0.07581
3521.97,0.07615
3516.18,0.07448
3510.39,0.07489
3504.61,0.07455
3498.82,0.07408
3493.04,0.07325
3487.25,0.07220
3481.46,0.07192
3475.68,0.07085
3469.89,0.07063
3464.1,0.06918
3458.32,0.06837
3452.53,0.06835
3446.74,0.06717
3440.96,0.06554
3435.17,0.06473
3429.39,0.06456
3423.6,0.06446
3417.81,0.06441
3412.03,0.06538
3406.24,0.06705
3400.45,0.06764
3394.67,0.06885
3388.88,0.06994
3383.09,0.07022
3377.31,0.07092
3371.52,0.07110
3365.74,0.07154
3359.95,0.07272
3354.16,0.07264
3348.38,0.07311
3342.59,0.07200
3336.8,0.07237
3331.02,0.07178
3325.23,0.07132
3319.44,0.07035
3313.66,0.06870
3307.87,0.06588
3302.09,0.06326
3296.3,0.06469
3290.51,0.06723
3284.73,0.07007
3278.94,0.07225
3273.15,0.07391
3267.37,0.07513
3261.58,0.07611
3255.79,0.07571
3250.01,0.07602
3244.22,0.07630
3238.44,0.07615
3232.65,0.07719
3226.86,0.07549
3221.08,0.07555
3215.29,0.07608
3209.5,0.07506
3203.72,0.07455
3197.93,0.07451
3192.14,0.07538
3186.36,0.07427
3180.57,0.07488
3174.79,0.07489
3169,0.07422
3163.21,0.07530
3157.43,0.07492
3151.64,0.07453
3145.85,0.07374
3140.07,0.07376
3134.28,0.07292
3128.49,0.07218
3122.71,0.07175
3116.92,0.07187
3111.14,0.07127
3105.35,0.07015
3099.56,0.06837
3093.78,0.06727
3087.99,0.06686
3082.2,0.06567
3076.42,0.06458
3070.63,0.06467
3064.84,0.06374
3059.06,0.06367
3053.27,0.06319
3047.49,0.06270
3041.7,0.06306
3035.91,0.06256
3030.13,0.06165
3024.34,0.06108
3018.55,0.06043
3012.77,0.05932
3006.98,0.05846
3001.19,0.05825
2995.41,0.05745
2989.62,0.05674
2983.84,0.05636
2978.05,0.05633
2972.26,0.05601
2966.48,0.05656
2960.69,0.05879
2954.9,0.05968
2949.12,0.06031
2943.33,0.05923
2937.54,0.05939
2931.76,0.06063
2925.97,0.06136
2920.19,0.06205
2914.4,0.06214
2908.61,0.06225
2902.83,0.06299
2897.04,0.06300
2891.25,0.06245
2885.47,0.06170
2879.68,0.06138
2873.89,0.06172
2868.11,0.06200
2862.32,0.06197
2856.54,0.06336
2850.75,0.06330
2844.96,0.06365
2839.18,0.06346
2833.39,0.06297
2827.6,0.06212
2821.82,0.06227
2816.03,0.06251
2810.24,0.06314
2804.46,0.06371
2798.67,0.06480
2792.89,0.06573
2787.1,0.06614
2781.31,0.06675
2775.53,0.06834
2769.74,0.06858
2763.95,0.06883
2758.17,0.06889
2752.38,0.06890
2746.59,0.06797
2740.81,0.06723
2735.02,0.06672
2729.24,0.06819
2723.45,0.06872
2717.66,0.07003
2711.88,0.07093
2706.09,0.07186
2700.3,0.07242
2694.52,0.07253
2688.73,0.07255
2682.94,0.07247
2677.16,0.07180
2671.37,0.07181
2665.59,0.07275
2659.8,0.07342
2654.01,0.07465
2648.23,0.07443
2642.44,0.07481
2636.65,0.07394
2630.87,0.07402
2625.08,0.07353
2619.29,0.07366
2613.51,0.07349
2607.72,0.07320
2601.94,0.07357
2596.15,0.07318
2590.36,0.07352
2584.58,0.07341
2578.79,0.07325
2573,0.07295
2567.22,0.07389
2561.43,0.07415
2555.64,0.07396
2549.86,0.07423
2544.07,0.07518
2538.29,0.07513
2532.5,0.07526
2526.71,0.07577
2520.93,0.07591
2515.14,0.07687
2509.35,0.07713
2503.57,0.07872
2497.78,0.07897
2491.99,0.07953
2486.21,0.07949
2480.42,0.07972
2474.64,0.08044
2468.85,0.08047
2463.06,0.08081
2457.28,0.08058
2451.49,0.08100
2445.7,0.08014
2439.92,0.08009
2434.13,0.07927
2428.34,0.07887
2422.56,0.07805
2416.77,0.07703
2410.99,0.07687
2405.2,0.07601
2399.41,0.07599
2393.63,0.07540
2387.84,0.07475
2382.05,0.07423
2376.27,0.07462
2370.48,0.07487
2364.69,0.07525
2358.91,0.07659
2353.12,0.07780
2347.34,0.07884
2341.55,0.07905
2335.76,0.08054
2329.98,0.08135
2324.19,0.08156
2318.4,0.08207
2312.62,0.08249
2306.83,0.08272
2301.04,0.08208
2295.26,0.08178
2289.47,0.08066
2283.69,0.07940
2277.9,0.07863
2272.11,0.07935
2266.33,0.08028
2260.54,0.08078
2254.75,0.08076
2248.97,0.08067
2243.18,0.08033
2237.39,0.08009
2231.61,0.08002
2225.82,0.08013
2220.04,0.08099
2214.25,0.08084
2208.46,0.08149
2202.68,0.08238
2196.89,0.08376
2191.1,0.08365
2185.32,0.08428
2179.53,0.08494
2173.74,0.08495
2167.96,0.08507
2162.17,0.08439
2156.39,0.08443
2150.6,0.08406
2144.81,0.08434
2139.03,0.08407
2133.24,0.08394
2127.45,0.08371
2121.67,0.08361
2115.88,0.08350
2110.09,0.08328
2104.31,0.08312
2098.52,0.08259
2092.74,0.08286
2086.95,0.08208
2081.16,0.08180
2075.38,0.08158
2069.59,0.08186
2063.8,0.08175
2058.02,0.08199
2052.23,0.08254
2046.44,0.08284
2040.66,0.08304
2034.87,0.08312
2029.09,0.08333
2023.3,0.08355
2017.51,0.08406
2011.73,0.08426
2005.94,0.08452
2000.15,0.08393
1994.37,0.08341
1988.58,0.08177
1982.79,0.08188
1977.01,0.08158
1971.22,0.08019
1965.44,0.07814
1959.65,0.07552
1953.86,0.07251
1948.08,0.07116
1942.29,0.07306
1936.5,0.07547
1930.72,0.07790
1924.93,0.07905
1919.14,0.07960
1913.36,0.07984
1907.57,0.07982
1901.79,0.08020
1896,0.08045
1890.21,0.08045
1884.43,0.08061
1878.64,0.08041
1872.85,0.08026
1867.07,0.07964
1861.28,0.07915
1855.49,0.07791
1849.71,0.07621
1843.92,0.07399
1838.14,0.07202
1832.35,0.06942
1826.56,0.06659
1820.78,0.06559
1814.99,0.06663
1809.2,0.06699
1803.42,0.06672
1797.63,0.06522
1791.84,0.06361
1786.06,0.06239
1780.27,0.06094
1774.49,0.05936
1768.7,0.05801
1762.91,0.05644
1757.13,0.05512
1751.34,0.05390
1745.55,0.05290
1739.77,0.05136
1733.98,0.04995
1728.19,0.05159
1722.41,0.05793
1716.62,0.06580
1710.84,0.06936
1705.05,0.06730
1699.26,0.06368
1693.48,0.06173
1687.69,0.06116
1681.9,0.05998
1676.12,0.05999
1670.33,0.05980
1664.54,0.06086
1658.76,0.06292
1652.97,0.06342
1647.19,0.06214
1641.4,0.06057
1635.61,0.05993
1629.83,0.06197
1624.04,0.06353
1618.25,0.06319
1612.47,0.06138
1606.68,0.06233
1600.89,0.06396
1595.11,0.06411
1589.32,0.06308
1583.54,0.06041
1577.75,0.05784
1571.96,0.05875
1566.18,0.05979
1560.39,0.05998
1554.6,0.06069
1548.82,0.06044
1543.03,0.05979
1537.24,0.05888
1531.46,0.05894
1525.67,0.05911
1519.89,0.05917
1514.1,0.05867
1508.31,0.05689
1502.53,0.05674
1496.74,0.05807
1490.95,0.05779
1485.17,0.05569
1479.38,0.05445
1473.59,0.05416
1467.81,0.05403
1462.02,0.05543
1456.24,0.05668
1450.45,0.05643
1444.66,0.05549
1438.88,0.05527
1433.09,0.05555
1427.3,0.05617
1421.52,0.05730
1415.73,0.05577
1409.94,0.05617
1404.16,0.05727
1398.37,0.05579
1392.59,0.05460
1386.8,0.05448
1381.01,0.05536
1375.23,0.05632
1369.44,0.05540
1363.65,0.05453
1357.87,0.05445
1352.08,0.05413
1346.29,0.05346
1340.51,0.05249
1334.72,0.05286
1328.94,0.05335
1323.15,0.05291
1317.36,0.05263
1311.58,0.05185
1305.79,0.05092
1300,0.04976
1294.22,0.04756
1288.43,0.04668
1282.64,0.04747
1276.86,0.05357
1271.07,0.06507
1265.29,0.07287
1259.5,0.06957
1253.71,0.06880
1247.93,0.07190
1242.14,0.07305
1236.35,0.07121
1230.57,0.06944
1224.78,0.06783
1218.99,0.06585
1213.21,0.06464
1207.42,0.06367
1201.64,0.06305
1195.85,0.06292
1190.06,0.06260
1184.28,0.06141
1178.49,0.06047
1172.7,0.06038
1166.92,0.06031
1161.13,0.05887
1155.34,0.05863
1149.56,0.05812
1143.77,0.05657
1137.99,0.05551
1132.2,0.05424
1126.41,0.05327
1120.63,0.05800
1114.84,0.06473
1109.05,0.06401
1103.27,0.06749
1097.48,0.07091
1091.69,0.06852
1085.91,0.06662
1080.12,0.06599
1074.34,0.06585
1068.55,0.06457
1062.76,0.06449
1056.98,0.06426
1051.19,0.06369
1045.4,0.06261
1039.62,0.06261
1033.83,0.06158
1028.04,0.06097
1022.26,0.05973
1016.47,0.06514
1010.69,0.06391
1004.9,0.06262
999.112,0.06117
993.326,0.06094
987.54,0.06134
981.753,0.06039
975.967,0.06059
970.18,0.06055
964.394,0.06219
958.608,0.06350
952.821,0.06390
947.035,0.06413
941.249,0.06360
935.462,0.06312
929.676,0.06311
923.89,0.06269
918.103,0.06301
912.317,0.06258
906.53,0.06237
900.744,0.06141
894.958,0.06190
889.171,0.06120
883.385,0.06108
877.599,0.06149
871.812,0.06252
866.026,0.06274
860.24,0.06242
854.453,0.06205
848.667,0.06166
842.88,0.06117
837.094,0.06165
831.308,0.06156
825.521,0.06175
819.735,0.06302
813.949,0.06229
808.162,0.06179
802.376,0.06175
796.59,0.06172
790.803,0.06060
785.017,0.06059
779.23,0.05997
773.444,0.06011
767.658,0.05841
761.871,0.05861
756.085,0.05900
750.299,0.05710
744.512,0.05466
738.726,0.05162
732.94,0.05933
727.153,0.06830
721.367,0.06337
715.58,0.06049
709.794,0.05902
704.008,0.05895
698.221,0.05883
692.435,0.05846
686.649,0.05880
680.862,0.05841
675.076,0.05898
669.29,0.05948
663.503,0.05832
657.717,0.05635
651.93,0.05526
646.144,0.05656
640.358,0.05712
634.571,0.05929
628.785,0.06046
622.999,0.06168
617.212,0.06346
611.426,0.06158
605.639,0.06299
599.853,0.06700