File: 01_Data/PEVA/FTIR/IS/PEVA_0.10_IS_T_240808_R14.dpt
7496.93,0.03697
7491.14,0.03742
7485.35,0.02614
7479.57,0.03187
7473.78,0.03602
7468,0.03667
7462.21,0.03707
7456.42,0.03605
7450.64,0.03965
7444.85,0.02408
7439.06,0.04796
7433.28,0.03806
7427.49,0.02321
7421.71,0.03636
7415.92,0.03230
7410.13,0.03780
7404.35,0.04110
7398.56,0.03597
7392.78,0.02906
7386.99,0.04486
7381.2,0.03203
7375.42,0.03378
7369.63,0.03710
7363.84,0.02251
7358.06,0.02839
7352.27,0.03731
7346.49,0.03636
7340.7,0.02567
7334.91,0.04149
7329.13,0.02385
7323.34,0.02692
7317.56,0.02834
7311.77,0.02542
7305.98,0.03719
7300.2,0.03237
7294.41,0.04101
7288.62,0.02437
7282.84,0.03573
7277.05,0.04215
7271.27,0.03501
7265.48,0.04467
7259.69,0.03485
7253.91,0.04764
7248.12,0.02554
7242.34,0.03752
7236.55,0.02835
7230.76,0.01970
7224.98,0.04082
7219.19,0.02669
7213.4,0.02609
7207.62,0.03076
7201.83,0.04007
7196.05,0.03027
7190.26,0.03113
7184.47,0.02510
7178.69,0.03059
7172.9,0.02429
7167.12,0.03276
7161.33,0.03643
7155.54,0.02380
7149.76,0.03083
7143.97,0.03174
7138.18,0.03143
7132.4,0.02916
7126.61,0.02633
7120.83,0.02247
7115.04,0.02696
7109.25,0.03558
7103.47,0.03375
7097.68,0.03544
7091.9,0.03942
7086.11,0.02750
7080.32,0.02843
7074.54,0.03772
7068.75,0.04033
7062.96,0.03575
7057.18,0.03412
7051.39,0.02721
7045.61,0.03895
7039.82,0.02976
7034.03,0.03464
7028.25,0.02711
7022.46,0.03671
7016.68,0.02907
7010.89,0.02533
7005.1,0.04085
6999.32,0.04063
6993.53,0.03345
6987.74,0.02934
6981.96,0.04075
6976.17,0.03101
6970.39,0.03659
6964.6,0.03724
6958.81,0.03352
6953.03,0.04087
6947.24,0.03338
6941.46,0.02611
6935.67,0.02682
6929.88,0.03088
6924.1,0.03655
6918.31,0.03146
6912.52,0.03065
6906.74,0.03586
6900.95,0.03421
6895.17,0.03516
6889.38,0.03445
6883.59,0.03142
6877.81,0.02949
6872.02,0.03153
6866.24,0.02953
6860.45,0.03102
6854.66,0.03210
6848.88,0.03159
6843.09,0.04159
6837.3,0.03299
6831.52,0.03058
6825.73,0.03051
6819.95,0.02670
6814.16,0.02763
6808.37,0.02823
6802.59,0.02932
6796.8,0.03015
6791.02,0.03907
6785.23,0.03843
6779.44,0.04054
6773.66,0.02586
6767.87,0.03366
6762.08,0.03584
6756.3,0.02974
6750.51,0.02961
6744.73,0.03616
6738.94,0.03134
6733.15,0.03534
6727.37,0.03306
6721.58,0.03265
6715.8,0.03684
6710.01,0.02673
6704.22,0.03155
6698.44,0.02920
6692.65,0.03109
6686.86,0.03214
6681.08,0.02569
6675.29,0.02789
6669.51,0.02679
6663.72,0.03166
6657.93,0.03260
6652.15,0.04244
6646.36,0.03344
6640.58,0.03055
6634.79,0.02768
6629,0.03290
6623.22,0.02902
6617.43,0.03359
6611.64,0.03326
6605.86,0.02710
6600.07,0.03715
6594.29,0.01962
6588.5,0.02688
6582.71,0.02303
6576.93,0.02872
6571.14,0.02474
6565.36,0.02988
6559.57,0.03152
6553.78,0.03235
6548,0.03329
6542.21,0.02855
6536.42,0.03135
6530.64,0.03076
6524.85,0.03368
6519.07,0.03090
6513.28,0.02725
6507.49,0.03198
6501.71,0.02649
6495.92,0.02947
6490.14,0.03249
6484.35,0.03703
6478.56,0.02777
6472.78,0.03405
6466.99,0.02982
6461.2,0.02852
6455.42,0.02571
6449.63,0.02980
6443.85,0.03293
6438.06,0.03197
6432.27,0.02828
6426.49,0.02791
6420.7,0.02927
6414.92,0.02804
6409.13,0.03027
6403.34,0.03156
6397.56,0.03065
6391.77,0.03396
6385.98,0.03504
6380.2,0.03553
6374.41,0.03350
6368.63,0.02852
6362.84,0.03120
6357.05,0.02720
6351.27,0.02921
6345.48,0.02890
6339.7,0.02795
6333.91,0.02941
6328.12,0.03232
6322.34,0.02984
6316.55,0.02843
6310.76,0.02946
6304.98,0.02773
6299.19,0.02854
6293.41,0.02904
6287.62,0.03167
6281.83,0.02868
6276.05,0.02717
6270.26,0.03082
6264.48,0.03333
6258.69,0.03217
6252.9,0.02699
6247.12,0.02969
6241.33,0.02794
6235.54,0.02723
6229.76,0.02703
6223.97,0.03434
6218.19,0.02899
6212.4,0.03168
6206.61,0.03200
6200.83,0.03049
6195.04,0.03149
6189.26,0.03056
6183.47,0.02938
6177.68,0.03026
6171.9,0.03026
6166.11,0.03058
6160.32,0.02823
6154.54,0.02946
6148.75,0.02911
6142.97,0.03091
6137.18,0.03154
6131.39,0.03395
6125.61,0.03272
6119.82,0.03038
6114.04,0.03327
6108.25,0.02949
6102.46,0.02836
6096.68,0.03003
6090.89,0.03241
6085.1,0.03006
6079.32,0.02995
6073.53,0.03229
6067.75,0.03015
6061.96,0.02888
6056.17,0.03236
6050.39,0.03118
6044.6,0.03282
6038.82,0.02950
6033.03,0.02765
6027.24,0.03214
6021.46,0.02825
6015.67,0.02632
6009.88,0.03265
6004.1,0.03156
5998.31,0.03441
5992.53,0.03063
5986.74,0.02962
5980.95,0.02745
5975.17,0.03028
5969.38,0.03144
5963.6,0.03103
5957.81,0.03187
5952.02,0.03099
5946.24,0.03104
5940.45,0.03174
5934.66,0.02909
5928.88,0.03017
5923.09,0.02821
5917.31,0.03103
5911.52,0.02820
5905.73,0.03055
5899.95,0.03291
5894.16,0.02891
5888.38,0.02797
5882.59,0.02997
5876.8,0.02866
5871.02,0.03086
5865.23,0.02827
5859.44,0.03019
5853.66,0.03002
5847.87,0.03061
5842.09,0.03011
5836.3,0.02770
5830.51,0.02868
5824.73,0.02889
5818.94,0.02827
5813.16,0.03155
5807.37,0.02940
5801.58,0.02833
5795.8,0.02770
5790.01,0.02848
5784.22,0.03106
5778.44,0.03005
5772.65,0.02864
5766.87,0.02729
5761.08,0.02726
5755.29,0.03024
5749.51,0.03015
5743.72,0.02851
5737.94,0.02664
5732.15,0.02905
5726.36,0.03264
5720.58,0.02945
5714.79,0.03048
5709,0.03133
5703.22,0.02884
5697.43,0.02932
5691.65,0.02982
5685.86,0.02850
5680.07,0.03135
5674.29,0.03244
5668.5,0.02777
5662.72,0.02903
5656.93,0.02717
5651.14,0.03253
5645.36,0.02984
5639.57,0.03011
5633.78,0.02872
5628,0.02900
5622.21,0.03084
5616.43,0.03048
5610.64,0.02922
5604.85,0.03076
5599.07,0.03193
5593.28,0.03272
5587.5,0.03042
5581.71,0.02932
5575.92,0.03066
5570.14,0.02916
5564.35,0.03001
5558.56,0.02803
5552.78,0.02879
5546.99,0.02904
5541.21,0.02926
5535.42,0.03123
5529.63,0.02982
5523.85,0.02977
5518.06,0.03085
5512.28,0.02991
5506.49,0.02938
5500.7,0.02858
5494.92,0.03002
5489.13,0.03045
5483.34,0.03033
5477.56,0.03091
5471.77,0.02791
5465.99,0.02990
5460.2,0.02862
5454.41,0.02977
5448.63,0.03166
5442.84,0.03229
5437.06,0.03117
5431.27,0.02902
5425.48,0.02959
5419.7,0.02879
5413.91,0.02658
5408.12,0.02916
5402.34,0.02844
5396.55,0.03156
5390.77,0.02975
5384.98,0.02951
5379.19,0.03084
5373.41,0.03124
5367.62,0.03133
5361.84,0.03031
5356.05,0.03044
5350.26,0.03328
5344.48,0.02784
5338.69,0.03062
5332.9,0.03166
5327.12,0.03252
5321.33,0.02947
5315.55,0.02959
5309.76,0.03119
5303.97,0.03144
5298.19,0.02980
5292.4,0.03017
5286.62,0.02978
5280.83,0.02938
5275.04,0.03103
5269.26,0.03049
5263.47,0.03067
5257.68,0.03000
5251.9,0.02994
5246.11,0.02971
5240.33,0.02857
5234.54,0.02955
5228.75,0.03026
5222.97,0.02771
5217.18,0.03013
5211.4,0.03039
5205.61,0.03006
5199.82,0.02873
5194.04,0.03028
5188.25,0.02977
5182.46,0.02874
5176.68,0.02949
5170.89,0.02887
5165.11,0.03054
5159.32,0.03068
5153.53,0.02982
5147.75,0.02951
5141.96,0.02854
5136.18,0.03005
5130.39,0.02862
5124.6,0.02995
5118.82,0.03164
5113.03,0.03078
5107.24,0.03034
5101.46,0.02871
5095.67,0.02934
5089.89,0.03038
5084.1,0.03093
5078.31,0.02906
5072.53,0.03000
5066.74,0.02878
5060.96,0.03048
5055.17,0.02969
5049.38,0.03059
5043.6,0.02879
5037.81,0.02926
5032.02,0.02982
5026.24,0.03061
5020.45,0.02940
5014.67,0.02931
5008.88,0.03058
5003.09,0.02985
4997.31,0.03036
4991.52,0.03015
4985.74,0.03020
4979.95,0.03000
4974.16,0.03007
4968.38,0.03002
4962.59,0.02946
4956.8,0.02915
4951.02,0.03107
4945.23,0.03119
4939.45,0.02979
4933.66,0.03037
4927.87,0.03018
4922.09,0.03039
4916.3,0.02905
4910.52,0.02977
4904.73,0.02906
4898.94,0.02966
4893.16,0.03006
4887.37,0.03100
4881.58,0.02983
4875.8,0.03019
4870.01,0.02997
4864.23,0.03052
4858.44,0.02901
4852.65,0.02905
4846.87,0.03044
4841.08,0.03034
4835.3,0.03026
4829.51,0.02962
4823.72,0.03087
4817.94,0.03204
4812.15,0.03098
4806.36,0.03031
4800.58,0.02952
4794.79,0.02960
4789.01,0.02908
4783.22,0.02958
4777.43,0.02997
4771.65,0.02913
4765.86,0.02917
4760.08,0.03001
4754.29,0.02923
4748.5,0.02859
4742.72,0.02946
4736.93,0.03040
4731.14,0.03035
4725.36,0.02872
4719.57,0.02923
4713.79,0.02910
4708,0.02943
4702.21,0.02873
4696.43,0.02925
4690.64,0.03026
4684.86,0.03013
4679.07,0.03027
4673.28,0.02910
4667.5,0.03029
4661.71,0.03094
4655.92,0.03012
4650.14,0.02955
4644.35,0.02916
4638.57,0.02947
4632.78,0.02935
4626.99,0.03019
4621.21,0.03061
4615.42,0.02960
4609.64,0.03030
4603.85,0.03010
4598.06,0.02937
4592.28,0.02880
4586.49,0.03089
4580.7,0.02979
4574.92,0.02942
4569.13,0.03043
4563.35,0.03073
4557.56,0.02938
4551.77,0.02872
4545.99,0.02906
4540.2,0.03024
4534.42,0.03015
4528.63,0.02955
4522.84,0.03038
4517.06,0.03086
4511.27,0.02881
4505.48,0.02954
4499.7,0.02887
4493.91,0.03002
4488.13,0.02971
4482.34,0.02958
4476.55,0.02902
4470.77,0.02942
4464.98,0.03017
4459.2,0.02993
4453.41,0.03013
4447.62,0.03052
4441.84,0.02915
4436.05,0.02914
4430.26,0.02971
4424.48,0.02915
4418.69,0.02847
4412.91,0.02939
4407.12,0.02949
4401.33,0.02931
4395.55,0.03034
4389.76,0.03073
4383.98,0.02905
4378.19,0.02891
4372.4,0.03035
4366.62,0.02918
4360.83,0.03026
4355.04,0.02976
4349.26,0.02942
4343.47,0.02994
4337.69,0.02963
4331.9,0.03012
4326.11,0.02994
4320.33,0.02964
4314.54,0.02924
4308.76,0.02921
4302.97,0.02897
4297.18,0.03000
4291.4,0.02942
4285.61,0.03016
4279.82,0.02961
4274.04,0.02972
4268.25,0.02923
4262.47,0.02958
4256.68,0.03047
4250.89,0.02997
4245.11,0.02965
4239.32,0.02935
4233.54,0.02980
4227.75,0.02973
4221.96,0.02981
4216.18,0.02979
4210.39,0.02979
4204.6,0.02937
4198.82,0.02971
4193.03,0.03006
4187.25,0.02931
4181.46,0.02978
4175.67,0.02936
4169.89,0.02998
4164.1,0.03039
4158.32,0.02957
4152.53,0.02934
4146.74,0.02919
4140.96,0.02924
4135.17,0.02960
4129.38,0.02973
4123.6,0.02988
4117.81,0.02915
4112.03,0.02892
4106.24,0.02920
4100.45,0.02959
4094.67,0.02942
4088.88,0.03008
4083.1,0.03052
4077.31,0.02963
4071.52,0.03035
4065.74,0.02944
4059.95,0.02958
4054.16,0.03010
4048.38,0.03004
4042.59,0.02986
4036.81,0.03015
4031.02,0.02935
4025.23,0.02971
4019.45,0.02994
4013.66,0.02933
4007.88,0.03020
4002.09,0.02962
3996.3,0.02956
3990.52,0.02994
3984.73,0.02894
3978.94,0.02968
3973.16,0.03014
3967.37,0.02944
3961.59,0.03019
3955.8,0.02984
3950.01,0.03047
3944.23,0.02983
3938.44,0.02968
3932.66,0.03019
3926.87,0.03059
3921.08,0.02969
3915.3,0.02998
3909.51,0.02931
3903.72,0.02957
3897.94,0.02892
3892.15,0.02924
3886.37,0.02968
3880.58,0.02943
3874.79,0.02975
3869.01,0.02930
3863.22,0.02922
3857.44,0.02946
3851.65,0.02916
3845.86,0.02956
3840.08,0.02970
3834.29,0.03041
3828.5,0.02954
3822.72,0.03003
3816.93,0.03051
3811.15,0.02994
3805.36,0.03013
3799.57,0.03034
3793.79,0.03012
3788,0.03001
3782.22,0.02951
3776.43,0.02946
3770.64,0.02938
3764.86,0.02995
3759.07,0.02976
3753.28,0.02916
3747.5,0.02923
3741.71,0.03022
3735.93,0.02990
3730.14,0.02890
3724.35,0.02971
3718.57,0.03003
3712.78,0.02929
3707,0.02887
3701.21,0.02943
3695.42,0.02997
3689.64,0.02825
3683.85,0.02862
3678.06,0.02880
3672.28,0.02919
3666.49,0.02916
3660.71,0.02842
3654.92,0.02836
3649.13,0.02792
3643.35,0.02794
3637.56,0.02826
3631.78,0.02804
3625.99,0.02756
3620.2,0.02868
3614.42,0.02781
3608.63,0.02744
3602.84,0.02739
3597.06,0.02686
3591.27,0.02779
3585.49,0.02691
3579.7,0.02709
3573.91,0.02762
3568.13,0.02687
3562.34,0.02721
3556.56,0.02752
3550.77,0.02694
3544.98,0.02624
3539.2,0.02738
3533.41,0.02764
3527.62,0.02625
3521.84,0.02661
3516.05,0.02719
3510.27,0.02686
3504.48,0.02614
3498.69,0.02655
3492.91,0.02656
3487.12,0.02624
3481.34,0.02676
3475.55,0.02688
3469.76,0.02638
3463.98,0.02618
3458.19,0.02638
3452.4,0.02585
3446.62,0.02694
3440.83,0.02634
3435.05,0.02667
3429.26,0.02583
3423.47,0.02603
3417.69,0.02645
3411.9,0.02623
3406.12,0.02472
3400.33,0.02538
3394.54,0.02667
3388.76,0.02585
3382.97,0.02682
3377.18,0.02579
3371.4,0.02567
3365.61,0.02619
3359.83,0.02555
3354.04,0.02566
3348.25,0.02582
3342.47,0.02674
3336.68,0.02592
3330.9,0.02654
3325.11,0.02610
3319.32,0.02619
3313.54,0.02632
3307.75,0.02501
3301.96,0.02538
3296.18,0.02677
3290.39,0.02587
3284.61,0.02492
3278.82,0.02571
3273.03,0.02508
3267.25,0.02613
3261.46,0.02617
3255.68,0.02638
3249.89,0.02608
3244.1,0.02647
3238.32,0.02544
3232.53,0.02683
3226.74,0.02641
3220.96,0.02605
3215.17,0.02627
3209.39,0.02636
3203.6,0.02687
3197.81,0.02660
3192.03,0.02660
3186.24,0.02668
3180.46,0.02782
3174.67,0.02715
3168.88,0.02751
3163.1,0.02722
3157.31,0.02649
3151.52,0.02668
3145.74,0.02733
3139.95,0.02714
3134.17,0.02663
3128.38,0.02672
3122.59,0.02719
3116.81,0.02669
3111.02,0.02707
3105.24,0.02664
3099.45,0.02649
3093.66,0.02683
3087.88,0.02657
3082.09,0.02595
3076.3,0.02649
3070.52,0.02665
3064.73,0.02628
3058.95,0.02736
3053.16,0.02612
3047.37,0.02670
3041.59,0.02680
3035.8,0.02646
3030.02,0.02632
3024.23,0.02679
3018.44,0.02689
3012.66,0.02646
3006.87,0.02625
3001.08,0.02632
2995.3,0.02651
2989.51,0.02635
2983.73,0.02609
2977.94,0.02582
2972.15,0.02563
2966.37,0.02578
2960.58,0.02587
2954.8,0.02592
2949.01,0.02576
2943.22,0.02572
2937.44,0.02544
2931.65,0.02466
2925.86,0.02564
2920.08,0.02617
2914.29,0.02591
2908.51,0.02647
2902.72,0.02608
2896.93,0.02661
2891.15,0.02643
2885.36,0.02595
2879.58,0.02605
2873.79,0.02622
2868,0.02643
2862.22,0.02613
2856.43,0.02595
2850.64,0.02649
2844.86,0.02633
2839.07,0.02701
2833.29,0.02712
2827.5,0.02669
2821.71,0.02647
2815.93,0.02728
2810.14,0.02762
2804.36,0.02682
2798.57,0.02703
2792.78,0.02698
2787,0.02696
2781.21,0.02728
2775.42,0.02738
2769.64,0.02759
2763.85,0.02704
2758.07,0.02697
2752.28,0.02751
2746.49,0.02651
2740.71,0.02694
2734.92,0.02738
2729.14,0.02710
2723.35,0.02666
2717.56,0.02698
2711.78,0.02698
2705.99,0.02710
2700.2,0.02711
2694.42,0.02715
2688.63,0.02752
2682.85,0.02697
2677.06,0.02744
2671.27,0.02751
2665.49,0.02680
2659.7,0.02676
2653.92,0.02716
2648.13,0.02745
2642.34,0.02687
2636.56,0.02723
2630.77,0.02716
2624.98,0.02714
2619.2,0.02682
2613.41,0.02710
2607.63,0.02705
2601.84,0.02756
2596.05,0.02725
2590.27,0.02687
2584.48,0.02706
2578.7,0.02706
2572.91,0.02739
2567.12,0.02720
2561.34,0.02674
2555.55,0.02675
2549.76,0.02685
2543.98,0.02708
2538.19,0.02713
2532.41,0.02664
2526.62,0.02716
2520.83,0.02692
2515.05,0.02632
2509.26,0.02657
2503.48,0.02670
2497.69,0.02678
2491.9,0.02713
2486.12,0.02679
2480.33,0.02702
2474.55,0.02684
2468.76,0.02668
2462.97,0.02694
2457.19,0.02680
2451.4,0.02696
2445.61,0.02681
2439.83,0.02683
2434.04,0.02672
2428.26,0.02691
2422.47,0.02693
2416.68,0.02694
2410.9,0.02640
2405.11,0.02673
2399.32,0.02671
2393.54,0.02654
2387.75,0.02669
2381.97,0.02658
2376.18,0.02687
2370.39,0.02712
2364.61,0.02669
2358.82,0.02689
2353.04,0.02674
2347.25,0.02660
2341.46,0.02688
2335.68,0.02654
2329.89,0.02677
2324.11,0.02711
2318.32,0.02651
2312.53,0.02696
2306.75,0.02650
2300.96,0.02653
2295.17,0.02665
2289.39,0.02614
2283.6,0.02653
2277.82,0.02660
2272.03,0.02625
2266.24,0.02651
2260.46,0.02643
2254.67,0.02625
2248.89,0.02669
2243.1,0.02637
2237.31,0.02587
2231.53,0.02649
2225.74,0.02631
2219.95,0.02636
2214.17,0.02650
2208.38,0.02633
2202.6,0.02593
2196.81,0.02610
2191.02,0.02622
2185.24,0.02624
2179.45,0.02609
2173.67,0.02650
2167.88,0.02615
2162.09,0.02584
2156.31,0.02576
2150.52,0.02613
2144.73,0.02609
2138.95,0.02631
2133.16,0.02608
2127.38,0.02592
2121.59,0.02582
2115.8,0.02625
2110.02,0.02592
2104.23,0.02586
2098.45,0.02618
2092.66,0.02597
2086.87,0.02574
2081.09,0.02599
2075.3,0.02573
2069.51,0.02592
2063.73,0.02577
2057.94,0.02578
2052.16,0.02582
2046.37,0.02597
2040.58,0.02590
2034.8,0.02586
2029.01,0.02565
2023.23,0.02600
2017.44,0.02589
2011.65,0.02578
2005.87,0.02569
2000.08,0.02569
1994.29,0.02570
1988.51,0.02571
1982.72,0.02567
1976.94,0.02545
1971.15,0.02569
1965.36,0.02536
1959.58,0.02569
1953.79,0.02538
1948.01,0.02550
1942.22,0.02562
1936.43,0.02548
1930.65,0.02558
1924.86,0.02589
1919.07,0.02552
1913.29,0.02534
1907.5,0.02516
1901.72,0.02524
1895.93,0.02500
1890.14,0.02513
1884.36,0.02530
1878.57,0.02505
1872.79,0.02485
1867,0.02499
1861.21,0.02494
1855.43,0.02463
1849.64,0.02457
1843.85,0.02478
1838.07,0.02488
1832.28,0.02492
1826.5,0.02438
1820.71,0.02443
1814.92,0.02417
1809.14,0.02412
1803.35,0.02453
1797.57,0.02392
1791.78,0.02341
1785.99,0.02352
1780.21,0.02317
1774.42,0.02335
1768.63,0.02268
1762.85,0.02253
1757.06,0.02184
1751.28,0.02151
1745.49,0.02129
1739.7,0.02253
1733.92,0.02364
1728.13,0.02396
1722.35,0.02443
1716.56,0.02481
1710.77,0.02439
1704.99,0.02450
1699.2,0.02361
1693.41,0.02319
1687.63,0.02307
1681.84,0.02188
1676.06,0.02214
1670.27,0.02203
1664.48,0.02194
1658.7,0.02194
1652.91,0.02187
1647.13,0.02160
1641.34,0.02198
1635.55,0.02258
1629.77,0.02234
1623.98,0.02261
1618.19,0.02231
1612.41,0.02214
1606.62,0.02225
1600.84,0.02265
1595.05,0.02250
1589.26,0.02228
1583.48,0.02190
1577.69,0.02174
1571.91,0.02179
1566.12,0.02130
1560.33,0.02217
1554.55,0.02168
1548.76,0.02174
1542.97,0.02250
1537.19,0.02171
1531.4,0.02203
1525.62,0.02234
1519.83,0.02187
1514.04,0.02217
1508.26,0.02262
1502.47,0.02240
1496.69,0.02224
1490.9,0.02209
1485.11,0.02200
1479.33,0.02184
1473.54,0.02144
1467.75,0.02157
1461.97,0.02169
1456.18,0.02107
1450.4,0.02129
1444.61,0.02143
1438.82,0.02196
1433.04,0.02173
1427.25,0.02116
1421.47,0.02124
1415.68,0.02127
1409.89,0.02107
1404.11,0.02100
1398.32,0.02098
1392.53,0.02058
1386.75,0.02091
1380.96,0.02068
1375.18,0.02039
1369.39,0.02079
1363.6,0.02103
1357.82,0.02103
1352.03,0.02076
1346.25,0.02068
1340.46,0.02082
1334.67,0.01993
1328.89,0.01955
1323.1,0.02004
1317.31,0.01952
1311.53,0.01988
1305.74,0.01977
1299.96,0.01967
1294.17,0.02008
1288.38,0.02041
1282.6,0.02081
1276.81,0.02173
1271.03,0.02179
1265.24,0.02180
1259.45,0.02208
1253.67,0.02223
1247.88,0.02236
1242.09,0.02242
1236.31,0.02218
1230.52,0.02161
1224.74,0.02209
1218.95,0.02200
1213.16,0.02156
1207.38,0.02147
1201.59,0.02178
1195.81,0.02118
1190.02,0.02094
1184.23,0.02034
1178.45,0.02045
1172.66,0.02046
1166.87,0.02003
1161.09,0.01993
1155.3,0.01973
1149.52,0.01994
1143.73,0.02028
1137.94,0.02051
1132.16,0.02010
1126.37,0.02036
1120.59,0.02182
1114.8,0.02158
1109.01,0.02193
1103.23,0.02140
1097.44,0.02166
1091.65,0.02148
1085.87,0.02172
1080.08,0.02206
1074.3,0.02371
1068.51,0.02425
1062.72,0.02432
1056.94,0.02407
1051.15,0.02320
1045.37,0.02328
1039.58,0.02256
1033.79,0.02300
1028.01,0.02292
1022.22,0.02367
1016.43,0.02330
1010.65,0.02374
1004.86,0.02369
999.076,0.02420
993.29,0.02440
987.504,0.02423
981.717,0.02440
975.931,0.02382
970.145,0.02426
964.359,0.02356
958.573,0.02355
952.787,0.02354
947,0.02298
941.214,0.02226
935.428,0.02298
929.642,0.02265
923.856,0.02167
918.07,0.02185
912.284,0.02208
906.497,0.02242
900.711,0.02227
894.925,0.02241
889.139,0.02203
883.353,0.02171
877.567,0.02235
871.78,0.02208
865.994,0.02163
860.208,0.02159
854.422,0.02110
848.636,0.02180
842.85,0.02201
837.064,0.02077
831.277,0.02201
825.491,0.02120
819.705,0.02106
813.919,0.02064
808.133,0.02076
802.347,0.02030
796.56,0.02089
790.774,0.02093
784.988,0.01964
779.202,0.02047
773.416,0.02153
767.63,0.02079
761.844,0.01946
756.057,0.01995
750.271,0.01926
744.485,0.02073
738.699,0.01979
732.913,0.02030
727.127,0.02031
721.34,0.01959
715.554,0.01866
709.768,0.01930
703.982,0.01880
698.196,0.01905
692.41,0.01818
686.624,0.01827
680.837,0.01885
675.051,0.01757
669.265,0.01842
663.479,0.01775
657.693,0.01843
651.907,0.01929
646.12,0.01929
640.334,0.01912
634.548,0.01753
628.762,0.01891
622.976,0.01782
617.19,0.01667
611.404,0.01758
605.617,0.01824
599.831,0.01916