File: 01_Data/PEVA/FTIR/IS/PEVA_0.26_IS_Trans_S_240819_R2.dpt
7496.91,0.93216
7491.12,0.94978
7485.33,0.94643
7479.55,0.94780
7473.76,0.92659
7467.98,0.93995
7462.19,0.91874
7456.4,0.94749
7450.62,0.92439
7444.83,0.94624
7439.04,0.93941
7433.26,0.93758
7427.47,0.92433
7421.69,0.93186
7415.9,0.92157
7410.11,0.92525
7404.33,0.94742
7398.54,0.93299
7392.76,0.92478
7386.97,0.92369
7381.18,0.91900
7375.4,0.91774
7369.61,0.92818
7363.83,0.93092
7358.04,0.92601
7352.25,0.93648
7346.47,0.92513
7340.68,0.92173
7334.89,0.94862
7329.11,0.93007
7323.32,0.91994
7317.54,0.91919
7311.75,0.92212
7305.96,0.91284
7300.18,0.92252
7294.39,0.91753
7288.61,0.91735
7282.82,0.91785
7277.03,0.91701
7271.25,0.91557
7265.46,0.92583
7259.67,0.91789
7253.89,0.91647
7248.1,0.93528
7242.32,0.91044
7236.53,0.91991
7230.74,0.89479
7224.96,0.91701
7219.17,0.91350
7213.39,0.91664
7207.6,0.91460
7201.81,0.90960
7196.03,0.92491
7190.24,0.91919
7184.45,0.92208
7178.67,0.91502
7172.88,0.91137
7167.1,0.90342
7161.31,0.90284
7155.52,0.92691
7149.74,0.91670
7143.95,0.91201
7138.17,0.89964
7132.38,0.90726
7126.59,0.90768
7120.81,0.90387
7115.02,0.91473
7109.23,0.91347
7103.45,0.91448
7097.66,0.91320
7091.88,0.91876
7086.09,0.92320
7080.3,0.92287
7074.52,0.92039
7068.73,0.91988
7062.95,0.91510
7057.16,0.92136
7051.37,0.91046
7045.59,0.90323
7039.8,0.92054
7034.02,0.92079
7028.23,0.91290
7022.44,0.90134
7016.66,0.91658
7010.87,0.90259
7005.08,0.91598
6999.3,0.92220
6993.51,0.91536
6987.73,0.91982
6981.94,0.91211
6976.15,0.91547
6970.37,0.91687
6964.58,0.91679
6958.8,0.92286
6953.01,0.92322
6947.22,0.91668
6941.44,0.92230
6935.65,0.91077
6929.86,0.92004
6924.08,0.91743
6918.29,0.91380
6912.51,0.92592
6906.72,0.92083
6900.93,0.92176
6895.15,0.91954
6889.36,0.92704
6883.58,0.92110
6877.79,0.92114
6872,0.91933
6866.22,0.91879
6860.43,0.92309
6854.64,0.92182
6848.86,0.92312
6843.07,0.92302
6837.29,0.91801
6831.5,0.93283
6825.71,0.92023
6819.93,0.92484
6814.14,0.91719
6808.36,0.92925
6802.57,0.93314
6796.78,0.93317
6791,0.92922
6785.21,0.92734
6779.43,0.93309
6773.64,0.92867
6767.85,0.92136
6762.07,0.92300
6756.28,0.92958
6750.49,0.92888
6744.71,0.92468
6738.92,0.92987
6733.14,0.92595
6727.35,0.93928
6721.56,0.93509
6715.78,0.92793
6709.99,0.93026
6704.21,0.92227
6698.42,0.92839
6692.63,0.93513
6686.85,0.93560
6681.06,0.93511
6675.27,0.92552
6669.49,0.92759
6663.7,0.92828
6657.92,0.93102
6652.13,0.92515
6646.34,0.92772
6640.56,0.93030
6634.77,0.92333
6628.99,0.93272
6623.2,0.93405
6617.41,0.92897
6611.63,0.92899
6605.84,0.92837
6600.05,0.93011
6594.27,0.94243
6588.48,0.93004
6582.7,0.93281
6576.91,0.93116
6571.12,0.93463
6565.34,0.93036
6559.55,0.93419
6553.77,0.93537
6547.98,0.93398
6542.19,0.93702
6536.41,0.93557
6530.62,0.93182
6524.84,0.93069
6519.05,0.93256
6513.26,0.93639
6507.48,0.93892
6501.69,0.93236
6495.9,0.93255
6490.12,0.93309
6484.33,0.93145
6478.55,0.93529
6472.76,0.93391
6466.97,0.93307
6461.19,0.93255
6455.4,0.93649
6449.62,0.93541
6443.83,0.93738
6438.04,0.93465
6432.26,0.93464
6426.47,0.94089
6420.68,0.92694
6414.9,0.93418
6409.11,0.93007
6403.33,0.93512
6397.54,0.93638
6391.75,0.94023
6385.97,0.93638
6380.18,0.93481
6374.4,0.93608
6368.61,0.93336
6362.82,0.93362
6357.04,0.93457
6351.25,0.92999
6345.46,0.93251
6339.68,0.93391
6333.89,0.93361
6328.11,0.93766
6322.32,0.93733
6316.53,0.93722
6310.75,0.92976
6304.96,0.93450
6299.18,0.93659
6293.39,0.93094
6287.6,0.93387
6281.82,0.92778
6276.03,0.93067
6270.24,0.93498
6264.46,0.93355
6258.67,0.93235
6252.89,0.93022
6247.1,0.93403
6241.31,0.93760
6235.53,0.92788
6229.74,0.92925
6223.96,0.93110
6218.17,0.92752
6212.38,0.92753
6206.6,0.92995
6200.81,0.93046
6195.03,0.93287
6189.24,0.93162
6183.45,0.93120
6177.67,0.93641
6171.88,0.92828
6166.09,0.93303
6160.31,0.92226
6154.52,0.93201
6148.74,0.93071
6142.95,0.92780
6137.16,0.93127
6131.38,0.92622
6125.59,0.92812
6119.81,0.92824
6114.02,0.92760
6108.23,0.92850
6102.45,0.92108
6096.66,0.92258
6090.87,0.91875
6085.09,0.91533
6079.3,0.91398
6073.52,0.91257
6067.73,0.91297
6061.94,0.91299
6056.16,0.90650
6050.37,0.90130
6044.59,0.89814
6038.8,0.89126
6033.01,0.88717
6027.23,0.88531
6021.44,0.88438
6015.65,0.88520
6009.87,0.88470
6004.08,0.88793
5998.3,0.89315
5992.51,0.89326
5986.72,0.89831
5980.94,0.90253
5975.15,0.90143
5969.37,0.90226
5963.58,0.90214
5957.79,0.90120
5952.01,0.89658
5946.22,0.89377
5940.44,0.89298
5934.65,0.88051
5928.86,0.88156
5923.08,0.87038
5917.29,0.86796
5911.5,0.86302
5905.72,0.85412
5899.93,0.84634
5894.15,0.83590
5888.36,0.82484
5882.57,0.82113
5876.79,0.81159
5871,0.80576
5865.22,0.79628
5859.43,0.78534
5853.64,0.77731
5847.86,0.75905
5842.07,0.75081
5836.28,0.73506
5830.5,0.71996
5824.71,0.72602
5818.93,0.72951
5813.14,0.74468
5807.35,0.75710
5801.57,0.76703
5795.78,0.78336
5790,0.79304
5784.21,0.80447
5778.42,0.81455
5772.64,0.81770
5766.85,0.82229
5761.06,0.82291
5755.28,0.82355
5749.49,0.81816
5743.71,0.81500
5737.92,0.81283
5732.13,0.81442
5726.35,0.81820
5720.56,0.81799
5714.78,0.81922
5708.99,0.82021
5703.2,0.81735
5697.42,0.81706
5691.63,0.81969
5685.84,0.82947
5680.06,0.83181
5674.27,0.83519
5668.49,0.83963
5662.7,0.83939
5656.91,0.84197
5651.13,0.84769
5645.34,0.84851
5639.56,0.84935
5633.77,0.85467
5627.98,0.85387
5622.2,0.85895
5616.41,0.85919
5610.63,0.86268
5604.84,0.86451
5599.05,0.86571
5593.27,0.86905
5587.48,0.86608
5581.69,0.87153
5575.91,0.87285
5570.12,0.87363
5564.34,0.87598
5558.55,0.87232
5552.76,0.87654
5546.98,0.87797
5541.19,0.88337
5535.41,0.87676
5529.62,0.87906
5523.83,0.87545
5518.05,0.87668
5512.26,0.87853
5506.47,0.87775
5500.69,0.87813
5494.9,0.87535
5489.12,0.87041
5483.33,0.87830
5477.54,0.87350
5471.76,0.87133
5465.97,0.87242
5460.19,0.87078
5454.4,0.88042
5448.61,0.87328
5442.83,0.87447
5437.04,0.87796
5431.25,0.87697
5425.47,0.88463
5419.68,0.89019
5413.9,0.87504
5408.11,0.88104
5402.32,0.89103
5396.54,0.88495
5390.75,0.88624
5384.97,0.88377
5379.18,0.88941
5373.39,0.88602
5367.61,0.89071
5361.82,0.89450
5356.04,0.89003
5350.25,0.88742
5344.46,0.88100
5338.68,0.88223
5332.89,0.89333
5327.1,0.89051
5321.32,0.89942
5315.53,0.89877
5309.75,0.89703
5303.96,0.89824
5298.17,0.90190
5292.39,0.89796
5286.6,0.89813
5280.82,0.89772
5275.03,0.90046
5269.24,0.89545
5263.46,0.88467
5257.67,0.89346
5251.88,0.89262
5246.1,0.88797
5240.31,0.89886
5234.53,0.89786
5228.74,0.89429
5222.95,0.89604
5217.17,0.89909
5211.38,0.89956
5205.6,0.89050
5199.81,0.89918
5194.02,0.90106
5188.24,0.89891
5182.45,0.90079
5176.66,0.90017
5170.88,0.90094
5165.09,0.90211
5159.31,0.90017
5153.52,0.90242
5147.73,0.90223
5141.95,0.90015
5136.16,0.90216
5130.38,0.90196
5124.59,0.90086
5118.8,0.90082
5113.02,0.90132
5107.23,0.90254
5101.45,0.90346
5095.66,0.90353
5089.87,0.90235
5084.09,0.90403
5078.3,0.90584
5072.51,0.90478
5066.73,0.90746
5060.94,0.90669
5055.16,0.90665
5049.37,0.90737
5043.58,0.90717
5037.8,0.90688
5032.01,0.90694
5026.23,0.90787
5020.44,0.90660
5014.65,0.90633
5008.87,0.90678
5003.08,0.90559
4997.29,0.90657
4991.51,0.90714
4985.72,0.90694
4979.94,0.90807
4974.15,0.90936
4968.36,0.90877
4962.58,0.90940
4956.79,0.90918
4951.01,0.90909
4945.22,0.90796
4939.43,0.90941
4933.65,0.90894
4927.86,0.91033
4922.07,0.90874
4916.29,0.90905
4910.5,0.90853
4904.72,0.90946
4898.93,0.90735
4893.14,0.90818
4887.36,0.90730
4881.57,0.90816
4875.79,0.90868
4870,0.90744
4864.21,0.90827
4858.43,0.90907
4852.64,0.90750
4846.85,0.90653
4841.07,0.90740
4835.28,0.90897
4829.5,0.90829
4823.71,0.90752
4817.92,0.90675
4812.14,0.90747
4806.35,0.90744
4800.57,0.90676
4794.78,0.90367
4788.99,0.90509
4783.21,0.90600
4777.42,0.90606
4771.64,0.90548
4765.85,0.90566
4760.06,0.90710
4754.28,0.90652
4748.49,0.90796
4742.7,0.90428
4736.92,0.90300
4731.13,0.90075
4725.35,0.89774
4719.56,0.89196
4713.77,0.89028
4707.99,0.89077
4702.2,0.88619
4696.42,0.87953
4690.63,0.87093
4684.84,0.86695
4679.06,0.86930
4673.27,0.87483
4667.48,0.88023
4661.7,0.88134
4655.91,0.88226
4650.13,0.88128
4644.34,0.88030
4638.55,0.87418
4632.77,0.86825
4626.98,0.87096
4621.2,0.87954
4615.41,0.88482
4609.62,0.88778
4603.84,0.89085
4598.05,0.89156
4592.26,0.88840
4586.48,0.88689
4580.69,0.88552
4574.91,0.88499
4569.12,0.88609
4563.33,0.89185
4557.55,0.89344
4551.76,0.89249
4545.98,0.89188
4540.19,0.89210
4534.4,0.88988
4528.62,0.88928
4522.83,0.88759
4517.05,0.88750
4511.26,0.88370
4505.47,0.88084
4499.69,0.87653
4493.9,0.86975
4488.11,0.86281
4482.33,0.85934
4476.54,0.85592
4470.76,0.85130
4464.97,0.84667
4459.18,0.83873
4453.4,0.82732
4447.61,0.81329
4441.83,0.79725
4436.04,0.77647
4430.25,0.75350
4424.47,0.72700
4418.68,0.69883
4412.89,0.67171
4407.11,0.64667
4401.32,0.62895
4395.54,0.62022
4389.75,0.61503
4383.96,0.59843
4378.18,0.57248
4372.39,0.54192
4366.61,0.50904
4360.82,0.47096
4355.03,0.44034
4349.25,0.41212
4343.46,0.38445
4337.67,0.35824
4331.89,0.35174
4326.1,0.37646
4320.32,0.41203
4314.53,0.44709
4308.74,0.46845
4302.96,0.47902
4297.17,0.48420
4291.39,0.48291
4285.6,0.47799
4279.81,0.47250
4274.03,0.47345
4268.24,0.47794
4262.46,0.48468
4256.67,0.48978
4250.88,0.49075
4245.1,0.49004
4239.31,0.48746
4233.52,0.48209
4227.74,0.47581
4221.95,0.46954
4216.17,0.46564
4210.38,0.46778
4204.59,0.47607
4198.81,0.48887
4193.02,0.50133
4187.24,0.50755
4181.45,0.50326
4175.66,0.49432
4169.88,0.49048
4164.09,0.50043
4158.3,0.51998
4152.52,0.53691
4146.73,0.54847
4140.95,0.56183
4135.16,0.57587
4129.37,0.58740
4123.59,0.59040
4117.8,0.58635
4112.02,0.58122
4106.23,0.57455
4100.44,0.56615
4094.66,0.54895
4088.87,0.51850
4083.08,0.49697
4077.3,0.51317
4071.51,0.54148
4065.73,0.56585
4059.94,0.58974
4054.15,0.60783
4048.37,0.61864
4042.58,0.62527
4036.8,0.63025
4031.01,0.63178
4025.22,0.63198
4019.44,0.63307
4013.65,0.63725
4007.86,0.64416
4002.08,0.65540
3996.29,0.66524
3990.51,0.67467
3984.72,0.68364
3978.93,0.69101
3973.15,0.69517
3967.36,0.70163
3961.58,0.70316
3955.79,0.70537
3950,0.70102
3944.22,0.70263
3938.43,0.70743
3932.65,0.70024
3926.86,0.70179
3921.07,0.69939
3915.29,0.70219
3909.5,0.70920
3903.71,0.68842
3897.93,0.70263
3892.14,0.70497
3886.36,0.70992
3880.57,0.70879
3874.78,0.71137
3869,0.70222
3863.21,0.70417
3857.43,0.70998
3851.64,0.69629
3845.85,0.71807
3840.07,0.70007
3834.28,0.71188
3828.49,0.72207
3822.71,0.71363
3816.92,0.71813
3811.14,0.73991
3805.35,0.72669
3799.56,0.72386
3793.78,0.75142
3787.99,0.75836
3782.21,0.75504
3776.42,0.76152
3770.63,0.75352
3764.85,0.75313
3759.06,0.74411
3753.27,0.73287
3747.49,0.72937
3741.7,0.74576
3735.92,0.73268
3730.13,0.75791
3724.34,0.76041
3718.56,0.77500
3712.77,0.75879
3706.99,0.76115
3701.2,0.74981
3695.41,0.73352
3689.63,0.68288
3683.84,0.68205
3678.06,0.66427
3672.27,0.66164
3666.48,0.68429
3660.7,0.69522
3654.91,0.69060
3649.12,0.66724
3643.34,0.69920
3637.55,0.70087
3631.77,0.68339
3625.98,0.67297
3620.19,0.66104
3614.41,0.65082
3608.62,0.64918
3602.84,0.65013
3597.05,0.63853
3591.26,0.63466
3585.48,0.62277
3579.69,0.62272
3573.9,0.61306
3568.12,0.58744
3562.33,0.58119
3556.55,0.57618
3550.76,0.56405
3544.97,0.55399
3539.19,0.55765
3533.4,0.55462
3527.62,0.54488
3521.83,0.54306
3516.04,0.54054
3510.26,0.53054
3504.47,0.51886
3498.68,0.50884
3492.9,0.49516
3487.11,0.47764
3481.33,0.45978
3475.54,0.44575
3469.75,0.43337
3463.97,0.41972
3458.18,0.40725
3452.4,0.39357
3446.61,0.37120
3440.82,0.34675
3435.04,0.32022
3429.25,0.29919
3423.47,0.29312
3417.68,0.30267
3411.89,0.32565
3406.11,0.35551
3400.32,0.38732
3394.53,0.41524
3388.75,0.43920
3382.96,0.45631
3377.18,0.47203
3371.39,0.48536
3365.6,0.49391
3359.82,0.50214
3354.03,0.50716
3348.25,0.50882
3342.46,0.50606
3336.67,0.49871
3330.89,0.49298
3325.1,0.48757
3319.31,0.47367
3313.53,0.43171
3307.74,0.35145
3301.96,0.29436
3296.17,0.32810
3290.38,0.39979
3284.6,0.45806
3278.81,0.49735
3273.03,0.52574
3267.24,0.54873
3261.45,0.56076
3255.67,0.56811
3249.88,0.57282
3244.09,0.57289
3238.31,0.57243
3232.52,0.56723
3226.74,0.56229
3220.95,0.55926
3215.16,0.55587
3209.38,0.55365
3203.59,0.54961
3197.81,0.54413
3192.02,0.54430
3186.23,0.54452
3180.45,0.54529
3174.66,0.54577
3168.87,0.54676
3163.09,0.54556
3157.3,0.54338
3151.52,0.54028
3145.73,0.53567
3139.94,0.52856
3134.16,0.51619
3128.37,0.50104
3122.59,0.49333
3116.8,0.48958
3111.01,0.47537
3105.23,0.45087
3099.44,0.41867
3093.66,0.39897
3087.87,0.37400
3082.08,0.34258
3076.3,0.33508
3070.51,0.32018
3064.72,0.29304
3058.94,0.28605
3053.15,0.27191
3047.37,0.28457
3041.58,0.29022
3035.79,0.27031
3030.01,0.24220
3024.22,0.21111
3018.44,0.17277
3012.65,0.12910
3006.86,0.08400
3001.08,0.04388
2995.29,0.01586
2989.5,0.00307
2983.72,0.00077
2977.93,0.00031
2972.15,0.00054
2966.36,0.00019
2960.57,0.00069
2954.79,0.00046
2949,0.00043
2943.22,0.00111
2937.43,0.00094
2931.64,0.00079
2925.86,0.00073
2920.07,0.00031
2914.28,0.00047
2908.5,0.00106
2902.71,0.00023
2896.93,0.00024
2891.14,0.00073
2885.35,0.00047
2879.57,0.00071
2873.78,0.00043
2868,0.00063
2862.21,0.00062
2856.42,0.00060
2850.64,0.00029
2844.85,0.00081
2839.07,0.00886
2833.28,0.02751
2827.49,0.04945
2821.71,0.06129
2815.92,0.07097
2810.13,0.11496
2804.35,0.17068
2798.56,0.21687
2792.78,0.25753
2786.99,0.29148
2781.2,0.32173
2775.42,0.34565
2769.63,0.36096
2763.85,0.36857
2758.06,0.37064
2752.27,0.36379
2746.49,0.35144
2740.7,0.33619
2734.91,0.32585
2729.13,0.33929
2723.34,0.37722
2717.56,0.40788
2711.77,0.42766
2705.98,0.44401
2700.2,0.45594
2694.41,0.46410
2688.63,0.46620
2682.84,0.46202
2677.05,0.45428
2671.27,0.45390
2665.48,0.46406
2659.69,0.48390
2653.91,0.50035
2648.12,0.51027
2642.34,0.51024
2636.55,0.50199
2630.76,0.49059
2624.98,0.48797
2619.19,0.48822
2613.41,0.48694
2607.62,0.48659
2601.83,0.48701
2596.05,0.48867
2590.26,0.48707
2584.47,0.48372
2578.69,0.48089
2572.9,0.48701
2567.12,0.49590
2561.33,0.50120
2555.54,0.50344
2549.76,0.50823
2543.97,0.51753
2538.19,0.52446
2532.4,0.52871
2526.61,0.53306
2520.83,0.54442
2515.04,0.55739
2509.26,0.57213
2503.47,0.58373
2497.68,0.59130
2491.9,0.59643
2486.11,0.60011
2480.32,0.60551
2474.54,0.61041
2468.75,0.61706
2462.97,0.61911
2457.18,0.62021
2451.39,0.61770
2445.61,0.61335
2439.82,0.60652
2434.04,0.59900
2428.25,0.58856
2422.46,0.57445
2416.68,0.56340
2410.89,0.55450
2405.1,0.54603
2399.32,0.53593
2393.53,0.52692
2387.75,0.51833
2381.96,0.50908
2376.17,0.49748
2370.39,0.49192
2364.6,0.49238
2358.82,0.50418
2353.03,0.53431
2347.24,0.55895
2341.46,0.56693
2335.67,0.58358
2329.88,0.59590
2324.1,0.59992
2318.31,0.61739
2312.53,0.63319
2306.74,0.64050
2300.95,0.64086
2295.17,0.63361
2289.38,0.62192
2283.6,0.60580
2277.81,0.59539
2272.02,0.60310
2266.24,0.61895
2260.45,0.62521
2254.67,0.62720
2248.88,0.62669
2243.09,0.62406
2237.31,0.62256
2231.52,0.62214
2225.73,0.62635
2219.95,0.63250
2214.16,0.63697
2208.38,0.63878
2202.59,0.65585
2196.8,0.66956
2191.02,0.67727
2185.23,0.68528
2179.45,0.69208
2173.66,0.69667
2167.87,0.69544
2162.09,0.69275
2156.3,0.68871
2150.51,0.68850
2144.73,0.68514
2138.94,0.68391
2133.16,0.68163
2127.37,0.68111
2121.58,0.67867
2115.8,0.67571
2110.01,0.67430
2104.23,0.67276
2098.44,0.67174
2092.65,0.66780
2086.87,0.66404
2081.08,0.65853
2075.29,0.65673
2069.51,0.65501
2063.72,0.65657
2057.94,0.66182
2052.15,0.66774
2046.36,0.67378
2040.58,0.67671
2034.79,0.68083
2029.01,0.68190
2023.22,0.68723
2017.43,0.69054
2011.65,0.69842
2005.86,0.69899
2000.08,0.69479
1994.29,0.67882
1988.5,0.66424
1982.72,0.66195
1976.93,0.65494
1971.14,0.63874
1965.36,0.60882
1959.57,0.56849
1953.79,0.50897
1948,0.48452
1942.21,0.51749
1936.43,0.56561
1930.64,0.60181
1924.86,0.62210
1919.07,0.62983
1913.28,0.63937
1907.5,0.64149
1901.71,0.64907
1895.92,0.64827
1890.14,0.64846
1884.35,0.65477
1878.57,0.65819
1872.78,0.65481
1866.99,0.63999
1861.21,0.64101
1855.42,0.62500
1849.64,0.59579
1843.85,0.55459
1838.06,0.52937
1832.28,0.47650
1826.49,0.41510
1820.7,0.40466
1814.92,0.42246
1809.13,0.43095
1803.35,0.42646
1797.56,0.40465
1791.77,0.36932
1785.99,0.34053
1780.2,0.29925
1774.42,0.26124
1768.63,0.21319
1762.84,0.16140
1757.06,0.08652
1751.27,0.03187
1745.48,0.00577
1739.7,0.00090
1733.91,0.00036
1728.13,0.00075
1722.34,0.00019
1716.55,0.00106
1710.77,0.00037
1704.98,0.00048
1699.2,0.00202
1693.41,0.02546
1687.62,0.04923
1681.84,0.06434
1676.05,0.07543
1670.27,0.10370
1664.48,0.18474
1658.69,0.26164
1652.91,0.28070
1647.12,0.26755
1641.33,0.19890
1635.55,0.17354
1629.76,0.27675
1623.98,0.31767
1618.19,0.30262
1612.4,0.26231
1606.62,0.29211
1600.83,0.34150
1595.05,0.35141
1589.26,0.33576
1583.47,0.22817
1577.69,0.09876
1571.9,0.16440
1566.11,0.21433
1560.33,0.23500
1554.54,0.26157
1548.76,0.26697
1542.97,0.23065
1537.18,0.21966
1531.4,0.24422
1525.61,0.24860
1519.83,0.26697
1514.04,0.23782
1508.25,0.13000
1502.47,0.07678
1496.68,0.19263
1490.89,0.19032
1485.11,0.11162
1479.32,0.03867
1473.54,0.00435
1467.75,0.00006
1461.96,0.00027
1456.18,0.00050
1450.39,0.00014
1444.61,0.00042
1438.82,0.00019
1433.03,0.00052
1427.25,0.00035
1421.46,0.00019
1415.68,0.00067
1409.89,-0.00005
1404.1,0.00099
1398.32,0.00469
1392.53,0.00137
1386.74,0.00023
1380.96,0.00019
1375.17,0.00023
1369.39,0.00118
1363.6,0.00131
1357.81,0.00051
1352.03,0.00045
1346.24,0.00047
1340.46,0.00043
1334.67,0.00032
1328.88,0.00017
1323.1,0.00042
1317.31,0.00021
1311.52,0.00017
1305.74,0.00017
1299.95,-0.00012
1294.17,0.00027
1288.38,0.00002
1282.59,0.00043
1276.81,0.00039
1271.02,0.00070
1265.24,0.00047
1259.45,0.00027
1253.66,0.00018
1247.88,0.00027
1242.09,0.00036
1236.3,0.00045
1230.52,0.00020
1224.73,0.00065
1218.95,0.00240
1213.16,0.00237
1207.37,0.00231
1201.59,0.00161
1195.8,0.00216
1190.02,0.00481
1184.23,0.01174
1178.44,0.01186
1172.66,0.00461
1166.87,0.00717
1161.09,0.00759
1155.3,0.00620
1149.51,0.00492
1143.73,0.00403
1137.94,0.00192
1132.15,0.00024
1126.37,0.00068
1120.58,0.00056
1114.8,0.00059
1109.01,0.00035
1103.22,0.00042
1097.44,0.00063
1091.65,0.00044
1085.87,0.00062
1080.08,0.00122
1074.29,0.00424
1068.51,0.00912
1062.72,0.01361
1056.93,0.01975
1051.15,0.02491
1045.36,0.02585
1039.58,0.02288
1033.79,0.01666
1028,0.00852
1022.22,0.00105
1016.43,0.00082
1010.65,0.00648
1004.86,0.00766
999.073,0.00390
993.287,0.00186
987.501,0.00117
981.715,0.00052
975.929,0.00023
970.142,0.00044
964.356,0.00023
958.57,0.00055
952.784,0.00031
946.998,0.00055
941.212,0.00021
935.426,0.00148
929.64,0.00255
923.853,0.00359
918.067,0.00700
912.281,0.01252
906.495,0.01646
900.709,0.02585
894.923,0.03448
889.137,0.04653
883.35,0.03349
877.564,0.00449
871.778,0.00463
865.992,0.02625
860.206,0.03834
854.42,0.03983
848.634,0.03852
842.847,0.03765
837.061,0.03014
831.275,0.02869
825.489,0.07037
819.703,0.13367
813.917,0.15999
808.131,0.16263
802.344,0.17042
796.558,0.12020
790.772,0.13174
784.986,0.10266
779.2,0.08772
773.414,0.06746
767.628,0.05774
761.842,0.10218
756.055,0.16216
750.269,0.14685
744.483,0.06520
738.697,0.00464
732.911,0.00037
727.125,-0.00006
721.339,0.01243
715.552,0.02212
709.766,0.00848
703.98,0.00216
698.194,0.00071
692.408,0.00088
686.622,0.00123
680.836,0.00185
675.049,0.00439
669.263,0.01405
663.477,0.02367
657.691,0.01232
651.905,0.00247
646.119,0.00033
640.333,0.00069
634.546,0.00196
628.76,0.00027
622.974,0.00120
617.188,0.00159
611.402,0.00073
605.616,0.00177
599.83,0.00460