File: 01_Data/PEVA/FTIR/IS/PEVA_0.10_IS_S_240808_R6.dpt
7496.93,0.10421
7491.14,0.09186
7485.35,0.09300
7479.57,0.09489
7473.78,0.09897
7468,0.10298
7462.21,0.08723
7456.42,0.08474
7450.64,0.09520
7444.85,0.10752
7439.06,0.11134
7433.28,0.09833
7427.49,0.10924
7421.71,0.08100
7415.92,0.09174
7410.13,0.07884
7404.35,0.08833
7398.56,0.08421
7392.78,0.10870
7386.99,0.11436
7381.2,0.11115
7375.42,0.10282
7369.63,0.10806
7363.84,0.10406
7358.06,0.08427
7352.27,0.09750
7346.49,0.10009
7340.7,0.10580
7334.91,0.09861
7329.13,0.09181
7323.34,0.09628
7317.56,0.10113
7311.77,0.09284
7305.98,0.09311
7300.2,0.08573
7294.41,0.09551
7288.62,0.09537
7282.84,0.09309
7277.05,0.10057
7271.27,0.09253
7265.48,0.10038
7259.69,0.10003
7253.91,0.09846
7248.12,0.10263
7242.34,0.09183
7236.55,0.09567
7230.76,0.08829
7224.98,0.08557
7219.19,0.09201
7213.4,0.08916
7207.62,0.09784
7201.83,0.09611
7196.05,0.08889
7190.26,0.09701
7184.47,0.09805
7178.69,0.09911
7172.9,0.10441
7167.12,0.08917
7161.33,0.09015
7155.54,0.09267
7149.76,0.09040
7143.97,0.09096
7138.18,0.10538
7132.4,0.09832
7126.61,0.11386
7120.83,0.10653
7115.04,0.10573
7109.25,0.09704
7103.47,0.09195
7097.68,0.09815
7091.9,0.09056
7086.11,0.08772
7080.32,0.09464
7074.54,0.09899
7068.75,0.09559
7062.96,0.09745
7057.18,0.10438
7051.39,0.10218
7045.61,0.09387
7039.82,0.09981
7034.03,0.09819
7028.25,0.08771
7022.46,0.08807
7016.68,0.08894
7010.89,0.09019
7005.1,0.09607
6999.32,0.09851
6993.53,0.10151
6987.74,0.10099
6981.96,0.09672
6976.17,0.09686
6970.39,0.09625
6964.6,0.09261
6958.81,0.09849
6953.03,0.09080
6947.24,0.09420
6941.46,0.10093
6935.67,0.09238
6929.88,0.09329
6924.1,0.09687
6918.31,0.09987
6912.52,0.09371
6906.74,0.09155
6900.95,0.09733
6895.17,0.09612
6889.38,0.09051
6883.59,0.09420
6877.81,0.09882
6872.02,0.09998
6866.24,0.09488
6860.45,0.09288
6854.66,0.09532
6848.88,0.09758
6843.09,0.09293
6837.3,0.09361
6831.52,0.09519
6825.73,0.09246
6819.95,0.09727
6814.16,0.09691
6808.37,0.09841
6802.59,0.09672
6796.8,0.09713
6791.02,0.10019
6785.23,0.09989
6779.44,0.10156
6773.66,0.10047
6767.87,0.09837
6762.08,0.10566
6756.3,0.09453
6750.51,0.09174
6744.73,0.09320
6738.94,0.09353
6733.15,0.09045
6727.37,0.10241
6721.58,0.09853
6715.8,0.09561
6710.01,0.09184
6704.22,0.09420
6698.44,0.09492
6692.65,0.09757
6686.86,0.09640
6681.08,0.09549
6675.29,0.09767
6669.51,0.09284
6663.72,0.09603
6657.93,0.09719
6652.15,0.09552
6646.36,0.10408
6640.58,0.09799
6634.79,0.10243
6629,0.10021
6623.22,0.09698
6617.43,0.09198
6611.64,0.09795
6605.86,0.10086
6600.07,0.09796
6594.29,0.10282
6588.5,0.10061
6582.71,0.10031
6576.93,0.09595
6571.14,0.09450
6565.36,0.09321
6559.57,0.09945
6553.78,0.09474
6548,0.09940
6542.21,0.09847
6536.42,0.09883
6530.64,0.09627
6524.85,0.09054
6519.07,0.09508
6513.28,0.09377
6507.49,0.09843
6501.71,0.09908
6495.92,0.09674
6490.14,0.09572
6484.35,0.09177
6478.56,0.09755
6472.78,0.10000
6466.99,0.09519
6461.2,0.09709
6455.42,0.09052
6449.63,0.09830
6443.85,0.09511
6438.06,0.09954
6432.27,0.09968
6426.49,0.10356
6420.7,0.10046
6414.92,0.09666
6409.13,0.09402
6403.34,0.09721
6397.56,0.09927
6391.77,0.09426
6385.98,0.09469
6380.2,0.10003
6374.41,0.09539
6368.63,0.09547
6362.84,0.09660
6357.05,0.09611
6351.27,0.09748
6345.48,0.09747
6339.7,0.09659
6333.91,0.10248
6328.12,0.10119
6322.34,0.10125
6316.55,0.09738
6310.76,0.09570
6304.98,0.09992
6299.19,0.09674
6293.41,0.09649
6287.62,0.09351
6281.83,0.10048
6276.05,0.09514
6270.26,0.09348
6264.48,0.09705
6258.69,0.09647
6252.9,0.09299
6247.12,0.09187
6241.33,0.09787
6235.54,0.10248
6229.76,0.09865
6223.97,0.09928
6218.19,0.09706
6212.4,0.09954
6206.61,0.10101
6200.83,0.09895
6195.04,0.09926
6189.26,0.09618
6183.47,0.09699
6177.68,0.09480
6171.9,0.09894
6166.11,0.09734
6160.32,0.09590
6154.54,0.09626
6148.75,0.09761
6142.97,0.10277
6137.18,0.09329
6131.39,0.09807
6125.61,0.09947
6119.82,0.09334
6114.04,0.09655
6108.25,0.09822
6102.46,0.09666
6096.68,0.09597
6090.89,0.09646
6085.1,0.09526
6079.32,0.09801
6073.53,0.09764
6067.75,0.09387
6061.96,0.09812
6056.17,0.09578
6050.39,0.09671
6044.6,0.09594
6038.82,0.09509
6033.03,0.09666
6027.24,0.09640
6021.46,0.09861
6015.67,0.09484
6009.88,0.09482
6004.1,0.09582
5998.31,0.09789
5992.53,0.09689
5986.74,0.10002
5980.95,0.09870
5975.17,0.09268
5969.38,0.09611
5963.6,0.09703
5957.81,0.09630
5952.02,0.09924
5946.24,0.09418
5940.45,0.09666
5934.66,0.09610
5928.88,0.09799
5923.09,0.09692
5917.31,0.09440
5911.52,0.09663
5905.73,0.09275
5899.95,0.09410
5894.16,0.09852
5888.38,0.09675
5882.59,0.09404
5876.8,0.09703
5871.02,0.09049
5865.23,0.09766
5859.44,0.09501
5853.66,0.09459
5847.87,0.09268
5842.09,0.08875
5836.3,0.09237
5830.51,0.09301
5824.73,0.09281
5818.94,0.08982
5813.16,0.09091
5807.37,0.08589
5801.58,0.08727
5795.8,0.08774
5790.01,0.08910
5784.22,0.08555
5778.44,0.08509
5772.65,0.08528
5766.87,0.08697
5761.08,0.09019
5755.29,0.09074
5749.51,0.08956
5743.72,0.09222
5737.94,0.09378
5732.15,0.09502
5726.36,0.09664
5720.58,0.09497
5714.79,0.09455
5709,0.09448
5703.22,0.09280
5697.43,0.09131
5691.65,0.08936
5685.86,0.09391
5680.07,0.09219
5674.29,0.09135
5668.5,0.09031
5662.72,0.08822
5656.93,0.09056
5651.14,0.09177
5645.36,0.09378
5639.57,0.09411
5633.78,0.09385
5628,0.09299
5622.21,0.09312
5616.43,0.09578
5610.64,0.09270
5604.85,0.09596
5599.07,0.09634
5593.28,0.09700
5587.5,0.09949
5581.71,0.09629
5575.92,0.09512
5570.14,0.09629
5564.35,0.09652
5558.56,0.09708
5552.78,0.09586
5546.99,0.09408
5541.21,0.09435
5535.42,0.09397
5529.63,0.09529
5523.85,0.09403
5518.06,0.09523
5512.28,0.09558
5506.49,0.09718
5500.7,0.09431
5494.92,0.09471
5489.13,0.09354
5483.34,0.09664
5477.56,0.09527
5471.77,0.09500
5465.99,0.09588
5460.2,0.09808
5454.41,0.09597
5448.63,0.09530
5442.84,0.09553
5437.06,0.09547
5431.27,0.09610
5425.48,0.09495
5419.7,0.09645
5413.91,0.09557
5408.12,0.09533
5402.34,0.09814
5396.55,0.09528
5390.77,0.09325
5384.98,0.09796
5379.19,0.09679
5373.41,0.09774
5367.62,0.09805
5361.84,0.09793
5356.05,0.09863
5350.26,0.09720
5344.48,0.09817
5338.69,0.09814
5332.9,0.09847
5327.12,0.09828
5321.33,0.09767
5315.55,0.09675
5309.76,0.09849
5303.97,0.09848
5298.19,0.09710
5292.4,0.09904
5286.62,0.09710
5280.83,0.09867
5275.04,0.09824
5269.26,0.09716
5263.47,0.09711
5257.68,0.09855
5251.9,0.09835
5246.11,0.09802
5240.33,0.09915
5234.54,0.09724
5228.75,0.09761
5222.97,0.09638
5217.18,0.09839
5211.4,0.09627
5205.61,0.09715
5199.82,0.09820
5194.04,0.09835
5188.25,0.09716
5182.46,0.09765
5176.68,0.09698
5170.89,0.09917
5165.11,0.09817
5159.32,0.09805
5153.53,0.09918
5147.75,0.09844
5141.96,0.09818
5136.18,0.09775
5130.39,0.09700
5124.6,0.09910
5118.82,0.09771
5113.03,0.09830
5107.24,0.09933
5101.46,0.09947
5095.67,0.10026
5089.89,0.09733
5084.1,0.09837
5078.31,0.09835
5072.53,0.09884
5066.74,0.09890
5060.96,0.09815
5055.17,0.09771
5049.38,0.09724
5043.6,0.09915
5037.81,0.09862
5032.02,0.09770
5026.24,0.09756
5020.45,0.09739
5014.67,0.09809
5008.88,0.09946
5003.09,0.09768
4997.31,0.09854
4991.52,0.09866
4985.74,0.09833
4979.95,0.09946
4974.16,0.09907
4968.38,0.09728
4962.59,0.09926
4956.8,0.09941
4951.02,0.09907
4945.23,0.09884
4939.45,0.09925
4933.66,0.09960
4927.87,0.09928
4922.09,0.09762
4916.3,0.09803
4910.52,0.10016
4904.73,0.09882
4898.94,0.09865
4893.16,0.09862
4887.37,0.10034
4881.58,0.09983
4875.8,0.09951
4870.01,0.09801
4864.23,0.09878
4858.44,0.09981
4852.65,0.10033
4846.87,0.09867
4841.08,0.09921
4835.3,0.09907
4829.51,0.09837
4823.72,0.09902
4817.94,0.09825
4812.15,0.09976
4806.36,0.09878
4800.58,0.10108
4794.79,0.10037
4789.01,0.09937
4783.22,0.10002
4777.43,0.09922
4771.65,0.09971
4765.86,0.09823
4760.08,0.10003
4754.29,0.10056
4748.5,0.09928
4742.72,0.10001
4736.93,0.09871
4731.14,0.10032
4725.36,0.10040
4719.57,0.10001
4713.79,0.10008
4708,0.09970
4702.21,0.10059
4696.43,0.10002
4690.64,0.10064
4684.86,0.10098
4679.07,0.10117
4673.28,0.10073
4667.5,0.10052
4661.71,0.10204
4655.92,0.09981
4650.14,0.09980
4644.35,0.10007
4638.57,0.09987
4632.78,0.10050
4626.99,0.09942
4621.21,0.10086
4615.42,0.10126
4609.64,0.09961
4603.85,0.10038
4598.06,0.09923
4592.28,0.09924
4586.49,0.09896
4580.7,0.09949
4574.92,0.10003
4569.13,0.09931
4563.35,0.09945
4557.56,0.09932
4551.77,0.09857
4545.99,0.09870
4540.2,0.09871
4534.42,0.09938
4528.63,0.10054
4522.84,0.09988
4517.06,0.09892
4511.27,0.09954
4505.48,0.09920
4499.7,0.10042
4493.91,0.10016
4488.13,0.09849
4482.34,0.09888
4476.55,0.09837
4470.77,0.09840
4464.98,0.09934
4459.2,0.09849
4453.41,0.09827
4447.62,0.09736
4441.84,0.09779
4436.05,0.09699
4430.26,0.09727
4424.48,0.09680
4418.69,0.09615
4412.91,0.09460
4407.12,0.09414
4401.33,0.09316
4395.55,0.09205
4389.76,0.09145
4383.98,0.08951
4378.19,0.08901
4372.4,0.08748
4366.62,0.08754
4360.83,0.08711
4355.04,0.08363
4349.26,0.08031
4343.47,0.07632
4337.69,0.07267
4331.9,0.07069
4326.11,0.06698
4320.33,0.06605
4314.54,0.07513
4308.76,0.08035
4302.97,0.08308
4297.18,0.08492
4291.4,0.08443
4285.61,0.08443
4279.82,0.08366
4274.04,0.08151
4268.25,0.07890
4262.47,0.07637
4256.68,0.07250
4250.89,0.07112
4245.11,0.07536
4239.32,0.07943
4233.54,0.08066
4227.75,0.07879
4221.96,0.07784
4216.18,0.07894
4210.39,0.07908
4204.6,0.07808
4198.82,0.07629
4193.03,0.07441
4187.25,0.07463
4181.46,0.07606
4175.67,0.07611
4169.89,0.07669
4164.1,0.07556
4158.32,0.07554
4152.53,0.07634
4146.74,0.07681
4140.96,0.07697
4135.17,0.07680
4129.38,0.07688
4123.6,0.07737
4117.81,0.07717
4112.03,0.07754
4106.24,0.07763
4100.45,0.07754
4094.67,0.07726
4088.88,0.07829
4083.1,0.07967
4077.31,0.08244
4071.52,0.08306
4065.74,0.08361
4059.95,0.08319
4054.16,0.08322
4048.38,0.08398
4042.59,0.08529
4036.81,0.08616
4031.02,0.08631
4025.23,0.08547
4019.45,0.08590
4013.66,0.08782
4007.88,0.08848
4002.09,0.09019
3996.3,0.08943
3990.52,0.08863
3984.73,0.08882
3978.94,0.08950
3973.16,0.08990
3967.37,0.08983
3961.59,0.08959
3955.8,0.08956
3950.01,0.08863
3944.23,0.08928
3938.44,0.09014
3932.66,0.08963
3926.87,0.08844
3921.08,0.08720
3915.3,0.08747
3909.51,0.08825
3903.72,0.08889
3897.94,0.08981
3892.15,0.08917
3886.37,0.08893
3880.58,0.08881
3874.79,0.08941
3869.01,0.08940
3863.22,0.09024
3857.44,0.09036
3851.65,0.08965
3845.86,0.08964
3840.08,0.09032
3834.29,0.08986
3828.5,0.09084
3822.72,0.09116
3816.93,0.09092
3811.15,0.09014
3805.36,0.09102
3799.57,0.09173
3793.79,0.09278
3788,0.09231
3782.22,0.09174
3776.43,0.09177
3770.64,0.09212
3764.86,0.09372
3759.07,0.09344
3753.28,0.09206
3747.5,0.09173
3741.71,0.09256
3735.93,0.09256
3730.14,0.09297
3724.35,0.09242
3718.57,0.09335
3712.78,0.09157
3707,0.09165
3701.21,0.09119
3695.42,0.09244
3689.64,0.09272
3683.85,0.09203
3678.06,0.09172
3672.28,0.09027
3666.49,0.09067
3660.71,0.09132
3654.92,0.09046
3649.13,0.08817
3643.35,0.08832
3637.56,0.08837
3631.78,0.08973
3625.99,0.08965
3620.2,0.09000
3614.42,0.08853
3608.63,0.08563
3602.84,0.08410
3597.06,0.08680
3591.27,0.09066
3585.49,0.09312
3579.7,0.09341
3573.91,0.09432
3568.13,0.09403
3562.34,0.09490
3556.56,0.09554
3550.77,0.09570
3544.98,0.09574
3539.2,0.09562
3533.41,0.09461
3527.62,0.09538
3521.84,0.09551
3516.05,0.09656
3510.27,0.09591
3504.48,0.09490
3498.69,0.09469
3492.91,0.09486
3487.12,0.09443
3481.34,0.09543
3475.55,0.09492
3469.76,0.09425
3463.98,0.09347
3458.19,0.09354
3452.4,0.09398
3446.62,0.09367
3440.83,0.09336
3435.05,0.09310
3429.26,0.09267
3423.47,0.09344
3417.69,0.09437
3411.9,0.09343
3406.12,0.09406
3400.33,0.09307
3394.54,0.09207
3388.76,0.09250
3382.97,0.09265
3377.18,0.09220
3371.4,0.09136
3365.61,0.09154
3359.83,0.09197
3354.04,0.09267
3348.25,0.09322
3342.47,0.09384
3336.68,0.09308
3330.9,0.09169
3325.11,0.09311
3319.32,0.09345
3313.54,0.09407
3307.75,0.09351
3301.96,0.09314
3296.18,0.09278
3290.39,0.09356
3284.61,0.09307
3278.82,0.09334
3273.03,0.09322
3267.25,0.09260
3261.46,0.09277
3255.68,0.09220
3249.89,0.09243
3244.1,0.09273
3238.32,0.09296
3232.53,0.09248
3226.74,0.09216
3220.96,0.09128
3215.17,0.09207
3209.39,0.09147
3203.6,0.09090
3197.81,0.08993
3192.03,0.08988
3186.24,0.09029
3180.46,0.09093
3174.67,0.08940
3168.88,0.08951
3163.1,0.08806
3157.31,0.08836
3151.52,0.08791
3145.74,0.08756
3139.95,0.08713
3134.17,0.08647
3128.38,0.08626
3122.59,0.08489
3116.81,0.08393
3111.02,0.08251
3105.24,0.08090
3099.45,0.07877
3093.66,0.07678
3087.88,0.07508
3082.09,0.07339
3076.3,0.07278
3070.52,0.07121
3064.73,0.07002
3058.95,0.06841
3053.16,0.06768
3047.37,0.06583
3041.59,0.06396
3035.8,0.06289
3030.02,0.06159
3024.23,0.06039
3018.44,0.05877
3012.66,0.05820
3006.87,0.05653
3001.08,0.05560
2995.3,0.05434
2989.51,0.05298
2983.73,0.05164
2977.94,0.05010
2972.15,0.04867
2966.37,0.04824
2960.58,0.04611
2954.8,0.04575
2949.01,0.04449
2943.22,0.04102
2937.44,0.03913
2931.65,0.03947
2925.86,0.04853
2920.08,0.07218
2914.29,0.08799
2908.51,0.07847
2902.72,0.07216
2896.93,0.06952
2891.15,0.06821
2885.36,0.06639
2879.58,0.06446
2873.79,0.06190
2868,0.05895
2862.22,0.05447
2856.43,0.05331
2850.64,0.07027
2844.86,0.08409
2839.07,0.07632
2833.29,0.07139
2827.5,0.06931
2821.71,0.06785
2815.93,0.06727
2810.14,0.06675
2804.36,0.06668
2798.57,0.06668
2792.78,0.06740
2787,0.06806
2781.21,0.06913
2775.42,0.07071
2769.64,0.07129
2763.85,0.07174
2758.07,0.07267
2752.28,0.07344
2746.49,0.07356
2740.71,0.07262
2734.92,0.07272
2729.14,0.07337
2723.35,0.07400
2717.56,0.07403
2711.78,0.07401
2705.99,0.07436
2700.2,0.07532
2694.42,0.07595
2688.63,0.07472
2682.85,0.07327
2677.06,0.07230
2671.27,0.07295
2665.49,0.07275
2659.7,0.07223
2653.92,0.07213
2648.13,0.07223
2642.34,0.07265
2636.56,0.07316
2630.77,0.07400
2624.98,0.07507
2619.2,0.07521
2613.41,0.07698
2607.63,0.07877
2601.84,0.08078
2596.05,0.08125
2590.27,0.08131
2584.48,0.08259
2578.7,0.08444
2572.91,0.08679
2567.12,0.08788
2561.34,0.08753
2555.55,0.08700
2549.76,0.08761
2543.98,0.08952
2538.19,0.09143
2532.41,0.09122
2526.62,0.09009
2520.83,0.09001
2515.05,0.09186
2509.26,0.09339
2503.48,0.09480
2497.69,0.09496
2491.9,0.09372
2486.12,0.09372
2480.33,0.09467
2474.55,0.09561
2468.76,0.09723
2462.97,0.09710
2457.19,0.09586
2451.4,0.09604
2445.61,0.09668
2439.83,0.09761
2434.04,0.09779
2428.26,0.09611
2422.47,0.09418
2416.68,0.09341
2410.9,0.09475
2405.11,0.09661
2399.32,0.09685
2393.54,0.09572
2387.75,0.09437
2381.97,0.09518
2376.18,0.09559
2370.39,0.09629
2364.61,0.09510
2358.82,0.09281
2353.04,0.08982
2347.25,0.08894
2341.46,0.08955
2335.68,0.08976
2329.89,0.08984
2324.11,0.08948
2318.32,0.08961
2312.53,0.09122
2306.75,0.09281
2300.96,0.09452
2295.17,0.09435
2289.39,0.09401
2283.6,0.09337
2277.82,0.09349
2272.03,0.09517
2266.24,0.09749
2260.46,0.09736
2254.67,0.09629
2248.89,0.09500
2243.1,0.09527
2237.31,0.09751
2231.53,0.09898
2225.74,0.09846
2219.95,0.09731
2214.17,0.09694
2208.38,0.09716
2202.6,0.09834
2196.81,0.09934
2191.02,0.09857
2185.24,0.09749
2179.45,0.09687
2173.67,0.09683
2167.88,0.09774
2162.09,0.09851
2156.31,0.09754
2150.52,0.09606
2144.73,0.09550
2138.95,0.09648
2133.16,0.09848
2127.38,0.09965
2121.59,0.09990
2115.8,0.09864
2110.02,0.09800
2104.23,0.09813
2098.45,0.09961
2092.66,0.09985
2086.87,0.09898
2081.09,0.09785
2075.3,0.09726
2069.51,0.09742
2063.73,0.09785
2057.94,0.09782
2052.16,0.09725
2046.37,0.09557
2040.58,0.09434
2034.8,0.09405
2029.01,0.09363
2023.23,0.09319
2017.44,0.09223
2011.65,0.09425
2005.87,0.09612
2000.08,0.09770
1994.29,0.09891
1988.51,0.09944
1982.72,0.09913
1976.94,0.09849
1971.15,0.09822
1965.36,0.09831
1959.58,0.09888
1953.79,0.09873
1948.01,0.09831
1942.22,0.09778
1936.43,0.09753
1930.65,0.09775
1924.86,0.09810
1919.07,0.09770
1913.29,0.09698
1907.5,0.09575
1901.72,0.09460
1895.93,0.09437
1890.14,0.09667
1884.36,0.09761
1878.57,0.09819
1872.79,0.09826
1867,0.09830
1861.21,0.09937
1855.43,0.09925
1849.64,0.09920
1843.85,0.09861
1838.07,0.09863
1832.28,0.09897
1826.5,0.09838
1820.71,0.09797
1814.92,0.09710
1809.14,0.09674
1803.35,0.09773
1797.57,0.09777
1791.78,0.09816
1785.99,0.09768
1780.21,0.09646
1774.42,0.09622
1768.63,0.09506
1762.85,0.09549
1757.06,0.09419
1751.28,0.09191
1745.49,0.08972
1739.7,0.08961
1733.92,0.09206
1728.13,0.09359
1722.35,0.09323
1716.56,0.09217
1710.77,0.09168
1704.99,0.09256
1699.2,0.09273
1693.41,0.09522
1687.63,0.09593
1681.84,0.09522
1676.06,0.09315
1670.27,0.09234
1664.48,0.09292
1658.7,0.09468
1652.91,0.09504
1647.13,0.09331
1641.34,0.09068
1635.55,0.08952
1629.77,0.09116
1623.98,0.09310
1618.19,0.09420
1612.41,0.09287
1606.62,0.09029
1600.84,0.08897
1595.05,0.09017
1589.26,0.09248
1583.48,0.09315
1577.69,0.09147
1571.91,0.08823
1566.12,0.08713
1560.33,0.08846
1554.55,0.09121
1548.76,0.09200
1542.97,0.08824
1537.19,0.08411
1531.4,0.08388
1525.62,0.08641
1519.83,0.08801
1514.04,0.08528
1508.26,0.08016
1502.47,0.07578
1496.69,0.07648
1490.9,0.07442
1485.11,0.06478
1479.33,0.05716
1473.54,0.05291
1467.75,0.05546
1461.97,0.06056
1456.18,0.06056
1450.4,0.06085
1444.61,0.05964
1438.82,0.06033
1433.04,0.06477
1427.25,0.07592
1421.47,0.07996
1415.68,0.07749
1409.89,0.08079
1404.11,0.08768
1398.32,0.09017
1392.53,0.08444
1386.75,0.07464
1380.96,0.06495
1375.18,0.06476
1369.39,0.06686
1363.6,0.06971
1357.82,0.07040
1352.03,0.06606
1346.25,0.06639
1340.46,0.07259
1334.67,0.08324
1328.89,0.08715
1323.1,0.08094
1317.31,0.07135
1311.53,0.06775
1305.74,0.07056
1299.96,0.07689
1294.17,0.08168
1288.38,0.08039
1282.6,0.07499
1276.81,0.07198
1271.03,0.07701
1265.24,0.08644
1259.45,0.09203
1253.67,0.08883
1247.88,0.07997
1242.09,0.07674
1236.31,0.08233
1230.52,0.09216
1224.74,0.09748
1218.95,0.09244
1213.16,0.08192
1207.38,0.07688
1201.59,0.08236
1195.81,0.09313
1190.02,0.09899
1184.23,0.09294
1178.45,0.08021
1172.66,0.07485
1166.87,0.08030
1161.09,0.09233
1155.3,0.09962
1149.52,0.09396
1143.73,0.08197
1137.94,0.07475
1132.16,0.08015
1126.37,0.09437
1120.59,0.10356
1114.8,0.09917
1109.01,0.08519
1103.23,0.07552
1097.44,0.08008
1091.65,0.09312
1085.87,0.10150
1080.08,0.09753
1074.3,0.08541
1068.51,0.07535
1062.72,0.07848
1056.94,0.09467
1051.15,0.10684
1045.37,0.10594
1039.58,0.09128
1033.79,0.07753
1028.01,0.07877
1022.22,0.09311
1016.43,0.10680
1010.65,0.11146
1004.86,0.09842
999.076,0.08022
993.29,0.07780
987.504,0.09356
981.717,0.11243
975.931,0.11357
970.145,0.09700
964.359,0.07667
958.573,0.07304
952.787,0.08919
947,0.11111
941.214,0.11683
935.428,0.10033
929.642,0.07754
923.856,0.07047
918.07,0.08708
912.284,0.11034
906.497,0.11722
900.711,0.10253
894.925,0.07706
889.139,0.06742
883.353,0.08339
877.567,0.11038
871.78,0.12064
865.994,0.10565
860.208,0.07722
854.422,0.06591
848.636,0.08099
842.85,0.10975
837.064,0.12283
831.277,0.10624
825.491,0.07753
819.705,0.06359
813.919,0.07927
808.133,0.10760
802.347,0.12050
796.56,0.10173
790.774,0.07091
784.988,0.05794
779.202,0.07272
773.416,0.09826
767.63,0.10957
761.844,0.09210
756.057,0.06040
750.271,0.05524
744.485,0.08094
738.699,0.08397
732.913,0.05182
727.127,0.05712
721.34,0.05413
715.554,0.06824
709.768,0.07463
703.982,0.05275
698.196,0.07242
692.41,0.11900
686.624,0.12918
680.837,0.09623
675.051,0.05907
669.265,0.06054
663.479,0.10213
657.693,0.13778
651.907,0.13255
646.12,0.09158
640.334,0.05701
634.548,0.06149
628.762,0.10424
622.976,0.14108
617.19,0.13547
611.404,0.09434
605.617,0.05711
599.831,0.06373