File: 01_Data/PEVA/FTIR/IS/PEVA_0.10_IS_T_240808_R12.dpt
7496.93,0.02984
7491.14,0.04191
7485.35,0.03888
7479.57,0.03629
7473.78,0.03370
7468,0.04999
7462.21,0.04530
7456.42,0.03447
7450.64,0.03784
7444.85,0.03518
7439.06,0.03325
7433.28,0.03449
7427.49,0.03819
7421.71,0.03860
7415.92,0.04836
7410.13,0.04530
7404.35,0.02381
7398.56,0.01881
7392.78,0.04147
7386.99,0.04274
7381.2,0.03835
7375.42,0.02437
7369.63,0.03100
7363.84,0.03168
7358.06,0.02696
7352.27,0.02855
7346.49,0.04554
7340.7,0.02829
7334.91,0.03565
7329.13,0.03402
7323.34,0.03562
7317.56,0.02829
7311.77,0.03455
7305.98,0.04030
7300.2,0.01967
7294.41,0.04132
7288.62,0.04233
7282.84,0.03522
7277.05,0.03196
7271.27,0.03606
7265.48,0.02109
7259.69,0.03079
7253.91,0.02712
7248.12,0.02650
7242.34,0.04054
7236.55,0.03460
7230.76,0.03448
7224.98,0.03584
7219.19,0.02750
7213.4,0.03265
7207.62,0.02630
7201.83,0.03882
7196.05,0.04259
7190.26,0.03575
7184.47,0.04247
7178.69,0.03414
7172.9,0.03025
7167.12,0.04256
7161.33,0.03372
7155.54,0.03522
7149.76,0.03493
7143.97,0.04308
7138.18,0.03633
7132.4,0.04216
7126.61,0.02747
7120.83,0.03133
7115.04,0.03342
7109.25,0.03096
7103.47,0.04557
7097.68,0.03015
7091.9,0.03200
7086.11,0.03106
7080.32,0.04111
7074.54,0.03144
7068.75,0.03622
7062.96,0.03706
7057.18,0.03619
7051.39,0.03405
7045.61,0.03917
7039.82,0.02410
7034.03,0.03562
7028.25,0.03696
7022.46,0.03473
7016.68,0.03077
7010.89,0.03046
7005.1,0.04242
6999.32,0.02974
6993.53,0.02956
6987.74,0.03740
6981.96,0.02784
6976.17,0.03259
6970.39,0.03126
6964.6,0.03236
6958.81,0.03046
6953.03,0.03055
6947.24,0.03332
6941.46,0.02768
6935.67,0.03480
6929.88,0.03267
6924.1,0.03059
6918.31,0.03511
6912.52,0.02456
6906.74,0.02874
6900.95,0.02613
6895.17,0.02977
6889.38,0.03290
6883.59,0.03098
6877.81,0.03697
6872.02,0.02590
6866.24,0.02656
6860.45,0.03093
6854.66,0.04006
6848.88,0.03730
6843.09,0.03222
6837.3,0.03727
6831.52,0.03441
6825.73,0.02854
6819.95,0.03403
6814.16,0.03296
6808.37,0.03099
6802.59,0.03321
6796.8,0.03350
6791.02,0.02707
6785.23,0.02902
6779.44,0.03052
6773.66,0.02966
6767.87,0.03236
6762.08,0.02646
6756.3,0.03185
6750.51,0.03594
6744.73,0.03136
6738.94,0.03776
6733.15,0.03097
6727.37,0.03196
6721.58,0.03551
6715.8,0.03205
6710.01,0.03100
6704.22,0.03303
6698.44,0.02916
6692.65,0.02969
6686.86,0.03238
6681.08,0.03022
6675.29,0.03386
6669.51,0.03551
6663.72,0.03278
6657.93,0.03784
6652.15,0.03258
6646.36,0.03223
6640.58,0.03193
6634.79,0.03134
6629,0.02820
6623.22,0.02796
6617.43,0.03355
6611.64,0.02728
6605.86,0.03412
6600.07,0.03067
6594.29,0.02657
6588.5,0.03327
6582.71,0.03773
6576.93,0.02743
6571.14,0.02539
6565.36,0.02808
6559.57,0.02656
6553.78,0.03247
6548,0.03110
6542.21,0.02900
6536.42,0.02709
6530.64,0.03325
6524.85,0.03244
6519.07,0.03452
6513.28,0.02946
6507.49,0.03374
6501.71,0.03211
6495.92,0.02667
6490.14,0.02897
6484.35,0.03411
6478.56,0.03134
6472.78,0.02688
6466.99,0.02928
6461.2,0.03816
6455.42,0.02702
6449.63,0.03118
6443.85,0.03087
6438.06,0.03275
6432.27,0.03550
6426.49,0.03140
6420.7,0.02985
6414.92,0.03715
6409.13,0.03073
6403.34,0.03068
6397.56,0.03546
6391.77,0.02818
6385.98,0.03148
6380.2,0.02820
6374.41,0.02945
6368.63,0.03264
6362.84,0.03102
6357.05,0.03100
6351.27,0.02682
6345.48,0.03032
6339.7,0.03040
6333.91,0.03029
6328.12,0.02842
6322.34,0.03194
6316.55,0.02973
6310.76,0.03668
6304.98,0.02842
6299.19,0.02722
6293.41,0.02946
6287.62,0.02717
6281.83,0.02604
6276.05,0.03023
6270.26,0.03297
6264.48,0.03317
6258.69,0.03228
6252.9,0.03116
6247.12,0.03107
6241.33,0.02666
6235.54,0.03162
6229.76,0.03131
6223.97,0.02944
6218.19,0.02859
6212.4,0.02739
6206.61,0.03080
6200.83,0.02737
6195.04,0.02743
6189.26,0.03136
6183.47,0.02992
6177.68,0.03223
6171.9,0.02990
6166.11,0.02959
6160.32,0.03545
6154.54,0.03177
6148.75,0.02765
6142.97,0.03373
6137.18,0.03117
6131.39,0.03028
6125.61,0.03150
6119.82,0.02940
6114.04,0.03342
6108.25,0.03275
6102.46,0.03215
6096.68,0.03196
6090.89,0.03003
6085.1,0.02858
6079.32,0.03219
6073.53,0.03443
6067.75,0.03189
6061.96,0.03114
6056.17,0.02838
6050.39,0.02959
6044.6,0.03199
6038.82,0.02957
6033.03,0.02980
6027.24,0.03086
6021.46,0.02834
6015.67,0.02767
6009.88,0.02767
6004.1,0.02698
5998.31,0.03141
5992.53,0.03293
5986.74,0.03431
5980.95,0.02952
5975.17,0.02838
5969.38,0.03186
5963.6,0.02806
5957.81,0.03008
5952.02,0.03157
5946.24,0.03036
5940.45,0.03012
5934.66,0.03025
5928.88,0.03383
5923.09,0.03021
5917.31,0.02992
5911.52,0.02982
5905.73,0.03113
5899.95,0.03091
5894.16,0.03055
5888.38,0.02995
5882.59,0.02960
5876.8,0.02917
5871.02,0.03242
5865.23,0.03159
5859.44,0.03146
5853.66,0.03109
5847.87,0.02913
5842.09,0.03192
5836.3,0.03177
5830.51,0.02912
5824.73,0.03128
5818.94,0.03215
5813.16,0.03141
5807.37,0.02797
5801.58,0.03124
5795.8,0.03020
5790.01,0.02787
5784.22,0.02861
5778.44,0.02960
5772.65,0.02956
5766.87,0.02723
5761.08,0.02988
5755.29,0.02997
5749.51,0.02931
5743.72,0.03060
5737.94,0.03158
5732.15,0.02999
5726.36,0.03051
5720.58,0.03072
5714.79,0.02997
5709,0.02953
5703.22,0.03268
5697.43,0.03169
5691.65,0.03041
5685.86,0.02698
5680.07,0.02846
5674.29,0.02909
5668.5,0.03127
5662.72,0.03057
5656.93,0.02937
5651.14,0.02972
5645.36,0.03063
5639.57,0.02866
5633.78,0.03068
5628,0.03025
5622.21,0.03153
5616.43,0.02865
5610.64,0.03075
5604.85,0.03238
5599.07,0.02974
5593.28,0.03053
5587.5,0.02805
5581.71,0.03051
5575.92,0.02969
5570.14,0.03192
5564.35,0.03034
5558.56,0.02992
5552.78,0.02956
5546.99,0.03005
5541.21,0.03100
5535.42,0.02969
5529.63,0.02989
5523.85,0.03105
5518.06,0.02881
5512.28,0.03000
5506.49,0.03035
5500.7,0.03023
5494.92,0.03017
5489.13,0.03028
5483.34,0.03006
5477.56,0.03106
5471.77,0.03073
5465.99,0.03010
5460.2,0.03042
5454.41,0.02760
5448.63,0.03061
5442.84,0.02883
5437.06,0.03051
5431.27,0.02922
5425.48,0.02848
5419.7,0.02984
5413.91,0.03173
5408.12,0.02941
5402.34,0.02873
5396.55,0.03017
5390.77,0.03060
5384.98,0.02974
5379.19,0.02943
5373.41,0.02888
5367.62,0.03022
5361.84,0.02872
5356.05,0.03203
5350.26,0.03051
5344.48,0.02953
5338.69,0.02896
5332.9,0.02937
5327.12,0.02989
5321.33,0.02821
5315.55,0.02906
5309.76,0.02967
5303.97,0.02893
5298.19,0.03058
5292.4,0.03168
5286.62,0.02906
5280.83,0.02971
5275.04,0.02968
5269.26,0.02911
5263.47,0.03221
5257.68,0.03007
5251.9,0.03037
5246.11,0.02956
5240.33,0.02924
5234.54,0.02901
5228.75,0.02949
5222.97,0.02920
5217.18,0.02842
5211.4,0.02963
5205.61,0.02828
5199.82,0.03008
5194.04,0.02957
5188.25,0.02928
5182.46,0.02879
5176.68,0.03050
5170.89,0.03019
5165.11,0.02876
5159.32,0.02895
5153.53,0.02899
5147.75,0.03106
5141.96,0.03014
5136.18,0.03060
5130.39,0.03035
5124.6,0.02982
5118.82,0.03150
5113.03,0.02915
5107.24,0.02957
5101.46,0.03008
5095.67,0.02987
5089.89,0.02963
5084.1,0.03061
5078.31,0.03073
5072.53,0.02959
5066.74,0.02943
5060.96,0.02980
5055.17,0.03001
5049.38,0.02971
5043.6,0.02975
5037.81,0.03235
5032.02,0.03075
5026.24,0.02929
5020.45,0.03013
5014.67,0.03038
5008.88,0.02884
5003.09,0.02877
4997.31,0.02946
4991.52,0.02839
4985.74,0.02978
4979.95,0.02964
4974.16,0.02992
4968.38,0.02958
4962.59,0.03088
4956.8,0.02960
4951.02,0.03022
4945.23,0.03042
4939.45,0.03051
4933.66,0.02980
4927.87,0.02849
4922.09,0.02992
4916.3,0.02990
4910.52,0.02978
4904.73,0.02974
4898.94,0.02939
4893.16,0.02970
4887.37,0.02988
4881.58,0.03005
4875.8,0.03088
4870.01,0.03112
4864.23,0.03049
4858.44,0.03070
4852.65,0.02993
4846.87,0.03087
4841.08,0.02924
4835.3,0.02948
4829.51,0.02982
4823.72,0.03091
4817.94,0.02918
4812.15,0.03091
4806.36,0.03082
4800.58,0.02970
4794.79,0.03122
4789.01,0.02916
4783.22,0.02994
4777.43,0.03004
4771.65,0.02926
4765.86,0.03037
4760.08,0.02965
4754.29,0.02888
4748.5,0.03034
4742.72,0.03063
4736.93,0.02973
4731.14,0.02958
4725.36,0.02958
4719.57,0.02946
4713.79,0.02986
4708,0.03027
4702.21,0.02999
4696.43,0.02956
4690.64,0.02949
4684.86,0.02952
4679.07,0.02951
4673.28,0.02985
4667.5,0.02983
4661.71,0.02967
4655.92,0.02991
4650.14,0.02907
4644.35,0.02945
4638.57,0.02986
4632.78,0.02957
4626.99,0.02982
4621.21,0.03056
4615.42,0.03101
4609.64,0.03019
4603.85,0.02963
4598.06,0.03034
4592.28,0.03061
4586.49,0.03016
4580.7,0.03006
4574.92,0.02952
4569.13,0.02947
4563.35,0.02931
4557.56,0.02888
4551.77,0.02978
4545.99,0.02946
4540.2,0.03016
4534.42,0.02907
4528.63,0.02923
4522.84,0.02973
4517.06,0.02963
4511.27,0.02987
4505.48,0.02994
4499.7,0.02911
4493.91,0.02969
4488.13,0.03002
4482.34,0.02982
4476.55,0.02926
4470.77,0.02927
4464.98,0.02926
4459.2,0.03030
4453.41,0.02991
4447.62,0.03011
4441.84,0.02943
4436.05,0.02922
4430.26,0.02964
4424.48,0.02993
4418.69,0.03011
4412.91,0.02946
4407.12,0.02980
4401.33,0.02946
4395.55,0.03045
4389.76,0.03031
4383.98,0.02941
4378.19,0.02922
4372.4,0.02945
4366.62,0.02926
4360.83,0.02948
4355.04,0.02954
4349.26,0.02976
4343.47,0.02893
4337.69,0.02963
4331.9,0.02935
4326.11,0.02962
4320.33,0.02979
4314.54,0.03015
4308.76,0.02910
4302.97,0.02934
4297.18,0.03021
4291.4,0.03023
4285.61,0.02957
4279.82,0.03033
4274.04,0.03021
4268.25,0.02927
4262.47,0.02981
4256.68,0.02964
4250.89,0.02989
4245.11,0.02948
4239.32,0.03054
4233.54,0.03026
4227.75,0.03031
4221.96,0.02958
4216.18,0.02992
4210.39,0.02987
4204.6,0.02871
4198.82,0.02979
4193.03,0.02924
4187.25,0.02960
4181.46,0.02926
4175.67,0.02943
4169.89,0.02957
4164.1,0.02981
4158.32,0.03001
4152.53,0.03037
4146.74,0.03039
4140.96,0.03014
4135.17,0.03038
4129.38,0.02984
4123.6,0.02994
4117.81,0.03064
4112.03,0.02979
4106.24,0.02959
4100.45,0.03038
4094.67,0.02958
4088.88,0.02925
4083.1,0.02979
4077.31,0.02935
4071.52,0.02967
4065.74,0.02918
4059.95,0.02987
4054.16,0.03006
4048.38,0.02966
4042.59,0.03028
4036.81,0.02971
4031.02,0.02983
4025.23,0.02959
4019.45,0.02984
4013.66,0.02981
4007.88,0.03009
4002.09,0.02971
3996.3,0.02921
3990.52,0.02958
3984.73,0.02869
3978.94,0.02955
3973.16,0.03011
3967.37,0.02964
3961.59,0.02972
3955.8,0.02997
3950.01,0.03040
3944.23,0.03015
3938.44,0.03011
3932.66,0.02964
3926.87,0.02977
3921.08,0.02918
3915.3,0.02937
3909.51,0.02914
3903.72,0.02990
3897.94,0.03043
3892.15,0.02934
3886.37,0.02925
3880.58,0.02889
3874.79,0.03041
3869.01,0.03063
3863.22,0.03028
3857.44,0.03045
3851.65,0.03023
3845.86,0.03070
3840.08,0.03093
3834.29,0.03014
3828.5,0.02938
3822.72,0.02978
3816.93,0.03029
3811.15,0.02945
3805.36,0.02968
3799.57,0.02972
3793.79,0.02971
3788,0.02936
3782.22,0.02958
3776.43,0.02933
3770.64,0.02987
3764.86,0.02942
3759.07,0.02879
3753.28,0.03005
3747.5,0.02928
3741.71,0.02853
3735.93,0.03020
3730.14,0.02975
3724.35,0.03008
3718.57,0.02978
3712.78,0.02967
3707,0.02952
3701.21,0.02952
3695.42,0.02885
3689.64,0.02903
3683.85,0.02876
3678.06,0.02874
3672.28,0.02819
3666.49,0.02825
3660.71,0.02833
3654.92,0.02847
3649.13,0.02874
3643.35,0.02804
3637.56,0.02760
3631.78,0.02836
3625.99,0.02805
3620.2,0.02804
3614.42,0.02851
3608.63,0.02876
3602.84,0.02862
3597.06,0.02879
3591.27,0.02720
3585.49,0.02711
3579.7,0.02685
3573.91,0.02693
3568.13,0.02738
3562.34,0.02617
3556.56,0.02705
3550.77,0.02719
3544.98,0.02665
3539.2,0.02665
3533.41,0.02678
3527.62,0.02651
3521.84,0.02650
3516.05,0.02673
3510.27,0.02649
3504.48,0.02616
3498.69,0.02653
3492.91,0.02608
3487.12,0.02653
3481.34,0.02651
3475.55,0.02670
3469.76,0.02547
3463.98,0.02654
3458.19,0.02743
3452.4,0.02626
3446.62,0.02612
3440.83,0.02645
3435.05,0.02551
3429.26,0.02604
3423.47,0.02561
3417.69,0.02690
3411.9,0.02589
3406.12,0.02533
3400.33,0.02595
3394.54,0.02603
3388.76,0.02584
3382.97,0.02642
3377.18,0.02631
3371.4,0.02583
3365.61,0.02616
3359.83,0.02550
3354.04,0.02574
3348.25,0.02540
3342.47,0.02511
3336.68,0.02541
3330.9,0.02536
3325.11,0.02680
3319.32,0.02585
3313.54,0.02578
3307.75,0.02604
3301.96,0.02537
3296.18,0.02614
3290.39,0.02659
3284.61,0.02577
3278.82,0.02541
3273.03,0.02672
3267.25,0.02677
3261.46,0.02598
3255.68,0.02610
3249.89,0.02662
3244.1,0.02589
3238.32,0.02667
3232.53,0.02627
3226.74,0.02625
3220.96,0.02617
3215.17,0.02661
3209.39,0.02666
3203.6,0.02736
3197.81,0.02604
3192.03,0.02666
3186.24,0.02595
3180.46,0.02686
3174.67,0.02685
3168.88,0.02632
3163.1,0.02643
3157.31,0.02695
3151.52,0.02680
3145.74,0.02651
3139.95,0.02719
3134.17,0.02754
3128.38,0.02564
3122.59,0.02700
3116.81,0.02721
3111.02,0.02628
3105.24,0.02683
3099.45,0.02669
3093.66,0.02603
3087.88,0.02652
3082.09,0.02697
3076.3,0.02697
3070.52,0.02743
3064.73,0.02747
3058.95,0.02706
3053.16,0.02699
3047.37,0.02644
3041.59,0.02675
3035.8,0.02642
3030.02,0.02670
3024.23,0.02671
3018.44,0.02689
3012.66,0.02682
3006.87,0.02639
3001.08,0.02637
2995.3,0.02600
2989.51,0.02596
2983.73,0.02617
2977.94,0.02593
2972.15,0.02546
2966.37,0.02554
2960.58,0.02531
2954.8,0.02553
2949.01,0.02528
2943.22,0.02550
2937.44,0.02539
2931.65,0.02535
2925.86,0.02575
2920.08,0.02566
2914.29,0.02589
2908.51,0.02637
2902.72,0.02655
2896.93,0.02696
2891.15,0.02653
2885.36,0.02647
2879.58,0.02658
2873.79,0.02645
2868,0.02679
2862.22,0.02658
2856.43,0.02648
2850.64,0.02596
2844.86,0.02666
2839.07,0.02682
2833.29,0.02677
2827.5,0.02666
2821.71,0.02705
2815.93,0.02712
2810.14,0.02722
2804.36,0.02720
2798.57,0.02689
2792.78,0.02676
2787,0.02676
2781.21,0.02717
2775.42,0.02775
2769.64,0.02724
2763.85,0.02705
2758.07,0.02760
2752.28,0.02716
2746.49,0.02702
2740.71,0.02692
2734.92,0.02750
2729.14,0.02743
2723.35,0.02742
2717.56,0.02671
2711.78,0.02681
2705.99,0.02683
2700.2,0.02692
2694.42,0.02749
2688.63,0.02685
2682.85,0.02709
2677.06,0.02744
2671.27,0.02712
2665.49,0.02712
2659.7,0.02693
2653.92,0.02646
2648.13,0.02714
2642.34,0.02714
2636.56,0.02678
2630.77,0.02728
2624.98,0.02698
2619.2,0.02701
2613.41,0.02710
2607.63,0.02711
2601.84,0.02728
2596.05,0.02736
2590.27,0.02702
2584.48,0.02707
2578.7,0.02713
2572.91,0.02710
2567.12,0.02701
2561.34,0.02662
2555.55,0.02652
2549.76,0.02671
2543.98,0.02648
2538.19,0.02671
2532.41,0.02672
2526.62,0.02661
2520.83,0.02655
2515.05,0.02694
2509.26,0.02686
2503.48,0.02700
2497.69,0.02666
2491.9,0.02688
2486.12,0.02672
2480.33,0.02690
2474.55,0.02667
2468.76,0.02640
2462.97,0.02704
2457.19,0.02688
2451.4,0.02713
2445.61,0.02652
2439.83,0.02697
2434.04,0.02665
2428.26,0.02677
2422.47,0.02675
2416.68,0.02690
2410.9,0.02689
2405.11,0.02661
2399.32,0.02693
2393.54,0.02738
2387.75,0.02708
2381.97,0.02696
2376.18,0.02686
2370.39,0.02687
2364.61,0.02664
2358.82,0.02679
2353.04,0.02747
2347.25,0.02731
2341.46,0.02695
2335.68,0.02698
2329.89,0.02750
2324.11,0.02655
2318.32,0.02690
2312.53,0.02640
2306.75,0.02632
2300.96,0.02648
2295.17,0.02655
2289.39,0.02644
2283.6,0.02657
2277.82,0.02661
2272.03,0.02616
2266.24,0.02645
2260.46,0.02644
2254.67,0.02647
2248.89,0.02620
2243.1,0.02631
2237.31,0.02631
2231.53,0.02630
2225.74,0.02624
2219.95,0.02632
2214.17,0.02612
2208.38,0.02609
2202.6,0.02608
2196.81,0.02654
2191.02,0.02652
2185.24,0.02632
2179.45,0.02603
2173.67,0.02587
2167.88,0.02617
2162.09,0.02630
2156.31,0.02624
2150.52,0.02596
2144.73,0.02640
2138.95,0.02587
2133.16,0.02584
2127.38,0.02603
2121.59,0.02599
2115.8,0.02624
2110.02,0.02566
2104.23,0.02600
2098.45,0.02606
2092.66,0.02591
2086.87,0.02561
2081.09,0.02567
2075.3,0.02567
2069.51,0.02600
2063.73,0.02600
2057.94,0.02581
2052.16,0.02573
2046.37,0.02622
2040.58,0.02614
2034.8,0.02583
2029.01,0.02593
2023.23,0.02598
2017.44,0.02571
2011.65,0.02573
2005.87,0.02550
2000.08,0.02556
1994.29,0.02562
1988.51,0.02573
1982.72,0.02536
1976.94,0.02551
1971.15,0.02588
1965.36,0.02582
1959.58,0.02535
1953.79,0.02556
1948.01,0.02575
1942.22,0.02593
1936.43,0.02559
1930.65,0.02552
1924.86,0.02547
1919.07,0.02552
1913.29,0.02533
1907.5,0.02522
1901.72,0.02510
1895.93,0.02534
1890.14,0.02512
1884.36,0.02511
1878.57,0.02539
1872.79,0.02543
1867,0.02499
1861.21,0.02508
1855.43,0.02477
1849.64,0.02441
1843.85,0.02444
1838.07,0.02464
1832.28,0.02515
1826.5,0.02440
1820.71,0.02436
1814.92,0.02432
1809.14,0.02420
1803.35,0.02398
1797.57,0.02386
1791.78,0.02374
1785.99,0.02371
1780.21,0.02362
1774.42,0.02312
1768.63,0.02276
1762.85,0.02236
1757.06,0.02177
1751.28,0.02159
1745.49,0.02186
1739.7,0.02229
1733.92,0.02334
1728.13,0.02355
1722.35,0.02479
1716.56,0.02485
1710.77,0.02408
1704.99,0.02415
1699.2,0.02360
1693.41,0.02267
1687.63,0.02308
1681.84,0.02249
1676.06,0.02205
1670.27,0.02160
1664.48,0.02193
1658.7,0.02213
1652.91,0.02209
1647.13,0.02181
1641.34,0.02144
1635.55,0.02224
1629.77,0.02240
1623.98,0.02215
1618.19,0.02248
1612.41,0.02253
1606.62,0.02248
1600.84,0.02219
1595.05,0.02262
1589.26,0.02171
1583.48,0.02196
1577.69,0.02249
1571.91,0.02194
1566.12,0.02127
1560.33,0.02158
1554.55,0.02176
1548.76,0.02159
1542.97,0.02157
1537.19,0.02186
1531.4,0.02167
1525.62,0.02186
1519.83,0.02240
1514.04,0.02179
1508.26,0.02241
1502.47,0.02246
1496.69,0.02239
1490.9,0.02241
1485.11,0.02162
1479.33,0.02186
1473.54,0.02212
1467.75,0.02093
1461.97,0.02163
1456.18,0.02154
1450.4,0.02165
1444.61,0.02180
1438.82,0.02176
1433.04,0.02140
1427.25,0.02142
1421.47,0.02105
1415.68,0.02075
1409.89,0.02108
1404.11,0.02059
1398.32,0.02094
1392.53,0.02090
1386.75,0.02096
1380.96,0.02072
1375.18,0.02057
1369.39,0.02055
1363.6,0.02082
1357.82,0.02053
1352.03,0.02057
1346.25,0.02047
1340.46,0.02070
1334.67,0.01997
1328.89,0.01987
1323.1,0.02022
1317.31,0.02012
1311.53,0.01942
1305.74,0.01955
1299.96,0.02013
1294.17,0.02041
1288.38,0.02047
1282.6,0.02075
1276.81,0.02101
1271.03,0.02138
1265.24,0.02215
1259.45,0.02211
1253.67,0.02191
1247.88,0.02230
1242.09,0.02239
1236.31,0.02217
1230.52,0.02182
1224.74,0.02204
1218.95,0.02168
1213.16,0.02190
1207.38,0.02136
1201.59,0.02102
1195.81,0.02126
1190.02,0.02113
1184.23,0.02057
1178.45,0.01987
1172.66,0.02019
1166.87,0.02026
1161.09,0.02046
1155.3,0.02020
1149.52,0.01992
1143.73,0.01987
1137.94,0.02024
1132.16,0.02065
1126.37,0.02170
1120.59,0.02198
1114.8,0.02130
1109.01,0.02099
1103.23,0.02129
1097.44,0.02175
1091.65,0.02237
1085.87,0.02189
1080.08,0.02214
1074.3,0.02269
1068.51,0.02429
1062.72,0.02385
1056.94,0.02349
1051.15,0.02278
1045.37,0.02309
1039.58,0.02297
1033.79,0.02297
1028.01,0.02263
1022.22,0.02240
1016.43,0.02308
1010.65,0.02322
1004.86,0.02385
999.076,0.02376
993.29,0.02441
987.504,0.02410
981.717,0.02428
975.931,0.02382
970.145,0.02355
964.359,0.02378
958.573,0.02333
952.787,0.02283
947,0.02276
941.214,0.02364
935.428,0.02211
929.642,0.02188
923.856,0.02193
918.07,0.02257
912.284,0.02236
906.497,0.02226
900.711,0.02267
894.925,0.02220
889.139,0.02117
883.353,0.02161
877.567,0.02173
871.78,0.02177
865.994,0.02176
860.208,0.02074
854.422,0.02241
848.636,0.02166
842.85,0.02137
837.064,0.02112
831.277,0.02137
825.491,0.02194
819.705,0.02201
813.919,0.02143
808.133,0.02114
802.347,0.02155
796.56,0.02154
790.774,0.02178
784.988,0.01978
779.202,0.02093
773.416,0.02082
767.63,0.02040
761.844,0.02071
756.057,0.01967
750.271,0.01983
744.485,0.01979
738.699,0.02007
732.913,0.01957
727.127,0.01937
721.34,0.01964
715.554,0.01976
709.768,0.01909
703.982,0.01931
698.196,0.01945
692.41,0.01901
686.624,0.01935
680.837,0.01932
675.051,0.01902
669.265,0.01767
663.479,0.01755
657.693,0.01836
651.907,0.01907
646.12,0.01847
640.334,0.01671
634.548,0.01851
628.762,0.01961
622.976,0.01685
617.19,0.01904
611.404,0.01999
605.617,0.01972
599.831,0.01997