File: 01_Data/PEVA/FTIR/IS/PEVA_0.18_IS_Trans_T_240819_R6.dpt
7496.91,0.02115
7491.12,0.02735
7485.33,0.02502
7479.55,0.01206
7473.76,0.02427
7467.98,0.00908
7462.19,0.03230
7456.4,0.01343
7450.62,0.01773
7444.83,0.04565
7439.04,0.02114
7433.26,0.01561
7427.47,0.01788
7421.69,0.02876
7415.9,0.02636
7410.11,0.01971
7404.33,0.02917
7398.54,0.01702
7392.76,0.01089
7386.97,0.01910
7381.18,0.01712
7375.4,0.02249
7369.61,0.03186
7363.83,0.04127
7358.04,0.03064
7352.25,0.02533
7346.47,0.03220
7340.68,0.03419
7334.89,0.01680
7329.11,0.00568
7323.32,0.00988
7317.54,0.01486
7311.75,0.04905
7305.96,0.01132
7300.18,0.02072
7294.39,0.01822
7288.61,0.01696
7282.82,0.01387
7277.03,0.03506
7271.25,0.01921
7265.46,0.01066
7259.67,0.00629
7253.89,0.02424
7248.1,0.01238
7242.32,0.01175
7236.53,0.04594
7230.74,0.01538
7224.96,0.03474
7219.17,0.00964
7213.39,0.01093
7207.6,0.00347
7201.81,0.03542
7196.03,0.01496
7190.24,0.02890
7184.45,0.01950
7178.67,0.01852
7172.88,0.01136
7167.1,0.00874
7161.31,0.01017
7155.52,0.00936
7149.74,0.00825
7143.95,0.01633
7138.17,0.02085
7132.38,0.00420
7126.59,0.01472
7120.81,0.00390
7115.02,0.01198
7109.23,0.01866
7103.45,0.01159
7097.66,0.00884
7091.88,0.00958
7086.09,0.01753
7080.3,0.02512
7074.52,0.00317
7068.73,0.01180
7062.95,0.01290
7057.16,0.02740
7051.37,0.01150
7045.59,0.02265
7039.8,0.00997
7034.02,0.00673
7028.23,0.03575
7022.44,0.00783
7016.66,0.01784
7010.87,0.02674
7005.08,0.00657
6999.3,0.03055
6993.51,0.01736
6987.73,0.00910
6981.94,-0.00084
6976.15,0.01479
6970.37,0.01545
6964.58,0.01570
6958.8,0.00209
6953.01,0.02402
6947.22,0.02185
6941.44,0.01956
6935.65,0.01409
6929.86,0.01647
6924.08,0.00501
6918.29,0.01877
6912.51,0.00783
6906.72,0.00727
6900.93,0.00525
6895.15,0.00996
6889.36,0.01901
6883.58,-0.00051
6877.79,0.00399
6872,0.01092
6866.22,0.01365
6860.43,0.01023
6854.64,0.00237
6848.86,0.02729
6843.07,0.01686
6837.29,0.00795
6831.5,0.00952
6825.71,0.02077
6819.93,0.01880
6814.14,0.00176
6808.36,0.01610
6802.57,0.01713
6796.78,0.00080
6791,0.01173
6785.21,0.01022
6779.43,0.01259
6773.64,0.01044
6767.85,0.00782
6762.07,0.00950
6756.28,0.01307
6750.49,0.00960
6744.71,0.01356
6738.92,0.01363
6733.14,0.00889
6727.35,0.00400
6721.56,0.01244
6715.78,0.00580
6709.99,0.01185
6704.21,0.01113
6698.42,0.00945
6692.63,0.00882
6686.85,0.01132
6681.06,0.01347
6675.27,0.00473
6669.49,0.01879
6663.7,0.00274
6657.92,0.01554
6652.13,0.01689
6646.34,0.00890
6640.56,0.01042
6634.77,0.00491
6628.99,0.00314
6623.2,0.01723
6617.41,0.01703
6611.63,0.01749
6605.84,0.01405
6600.05,0.02098
6594.27,0.00380
6588.48,0.01467
6582.7,0.00655
6576.91,0.00798
6571.12,0.01242
6565.34,0.00767
6559.55,0.00593
6553.77,0.00920
6547.98,0.00778
6542.19,0.01050
6536.41,0.00822
6530.62,0.00744
6524.84,0.00155
6519.05,0.00803
6513.26,0.00664
6507.48,0.01005
6501.69,0.00989
6495.9,0.00887
6490.12,0.00226
6484.33,0.00954
6478.55,0.00625
6472.76,0.01184
6466.97,0.01416
6461.19,0.00587
6455.4,0.00721
6449.62,0.00261
6443.83,0.00173
6438.04,0.01241
6432.26,0.00596
6426.47,0.00793
6420.68,0.00710
6414.9,0.01030
6409.11,0.00018
6403.33,0.00894
6397.54,0.00887
6391.75,0.00707
6385.97,0.00654
6380.18,0.01113
6374.4,0.00086
6368.61,0.00297
6362.82,0.01101
6357.04,0.01085
6351.25,0.01023
6345.46,0.01257
6339.68,0.01002
6333.89,0.00542
6328.11,0.01333
6322.32,0.00588
6316.53,0.00796
6310.75,0.00410
6304.96,0.00917
6299.18,0.01074
6293.39,0.00853
6287.6,0.00717
6281.82,0.01022
6276.03,0.00619
6270.24,0.00608
6264.46,0.00772
6258.67,0.00796
6252.89,0.00517
6247.1,0.00672
6241.31,0.00729
6235.53,0.00806
6229.74,0.00179
6223.96,0.00444
6218.17,0.00875
6212.38,0.01082
6206.6,0.00134
6200.81,0.00382
6195.03,0.01248
6189.24,0.01072
6183.45,0.01247
6177.67,0.00677
6171.88,0.00745
6166.09,0.01069
6160.31,0.01023
6154.52,0.00743
6148.74,0.00684
6142.95,0.00070
6137.16,0.00515
6131.38,0.01277
6125.59,0.00357
6119.81,0.00550
6114.02,0.00571
6108.23,0.00309
6102.45,0.00850
6096.66,0.00575
6090.87,0.00607
6085.09,0.00512
6079.3,0.00429
6073.52,0.00545
6067.73,0.00715
6061.94,0.00595
6056.16,0.00437
6050.37,0.00938
6044.59,0.00339
6038.8,0.00420
6033.01,0.00694
6027.23,0.00478
6021.44,0.00830
6015.65,0.00039
6009.87,0.00497
6004.08,0.00350
5998.3,0.00816
5992.51,-0.00109
5986.72,0.00411
5980.94,0.00194
5975.15,0.00505
5969.37,0.00679
5963.58,0.00834
5957.79,0.00292
5952.01,0.00606
5946.22,0.00392
5940.44,0.00177
5934.65,0.00713
5928.86,0.00591
5923.08,0.00705
5917.29,0.00340
5911.5,0.00853
5905.72,0.00741
5899.93,0.00713
5894.15,0.00391
5888.36,0.00483
5882.57,0.00463
5876.79,0.00313
5871,0.00682
5865.22,0.00692
5859.43,0.00624
5853.64,0.00098
5847.86,0.00260
5842.07,0.00310
5836.28,0.00067
5830.5,0.00548
5824.71,0.00511
5818.93,0.00489
5813.14,0.00546
5807.35,0.00518
5801.57,0.00664
5795.78,0.00640
5790,0.00522
5784.21,0.00262
5778.42,0.00571
5772.64,0.00396
5766.85,0.00373
5761.06,0.00421
5755.28,0.00630
5749.49,0.00418
5743.71,0.00349
5737.92,0.00421
5732.13,0.00408
5726.35,0.00317
5720.56,0.00329
5714.78,0.00612
5708.99,0.00221
5703.2,0.00566
5697.42,0.00070
5691.63,0.00425
5685.84,0.00505
5680.06,0.00461
5674.27,0.00054
5668.49,0.00506
5662.7,0.00588
5656.91,0.00207
5651.13,0.00473
5645.34,0.00352
5639.56,0.00633
5633.77,0.00693
5627.98,0.00258
5622.2,0.00460
5616.41,0.00075
5610.63,0.00650
5604.84,0.00111
5599.05,-0.00007
5593.27,0.00455
5587.48,0.00488
5581.69,0.00403
5575.91,0.00272
5570.12,0.00532
5564.34,0.00714
5558.55,0.00344
5552.76,0.00020
5546.98,0.00202
5541.19,0.00245
5535.41,0.00322
5529.62,0.00401
5523.83,0.00342
5518.05,0.00427
5512.26,0.00501
5506.47,0.00030
5500.69,0.00208
5494.9,0.00303
5489.12,0.00346
5483.33,0.00281
5477.54,0.00199
5471.76,0.00501
5465.97,-0.00006
5460.19,0.00619
5454.4,0.00390
5448.61,0.00084
5442.83,0.00597
5437.04,0.00396
5431.25,0.00396
5425.47,0.00605
5419.68,0.00337
5413.9,0.00299
5408.11,0.00174
5402.32,0.00140
5396.54,0.00223
5390.75,0.00443
5384.97,0.00243
5379.18,0.00294
5373.39,0.00412
5367.61,0.00489
5361.82,0.00191
5356.04,0.00294
5350.25,0.00321
5344.46,0.00268
5338.68,0.00406
5332.89,0.00568
5327.1,0.00345
5321.32,0.00293
5315.53,0.00364
5309.75,0.00252
5303.96,0.00321
5298.17,0.00200
5292.39,0.00447
5286.6,0.00120
5280.82,0.00113
5275.03,0.00222
5269.24,0.00206
5263.46,0.00318
5257.67,0.00164
5251.88,0.00165
5246.1,0.00502
5240.31,0.00050
5234.53,0.00266
5228.74,0.00096
5222.95,0.00348
5217.17,0.00200
5211.38,0.00337
5205.6,0.00247
5199.81,0.00328
5194.02,0.00596
5188.24,0.00138
5182.45,0.00574
5176.66,0.00142
5170.88,0.00297
5165.09,0.00266
5159.31,0.00256
5153.52,0.00369
5147.73,0.00122
5141.95,0.00291
5136.16,0.00066
5130.38,0.00002
5124.59,0.00210
5118.8,0.00270
5113.02,0.00188
5107.23,0.00248
5101.45,0.00018
5095.66,0.00206
5089.87,0.00202
5084.09,0.00309
5078.3,0.00224
5072.51,0.00249
5066.73,0.00338
5060.94,0.00245
5055.16,0.00012
5049.37,0.00297
5043.58,0.00195
5037.8,0.00216
5032.01,0.00227
5026.23,0.00553
5020.44,0.00095
5014.65,0.00240
5008.87,0.00307
5003.08,0.00147
4997.29,0.00241
4991.51,0.00339
4985.72,0.00379
4979.94,0.00315
4974.15,0.00208
4968.36,0.00198
4962.58,0.00125
4956.79,0.00038
4951.01,0.00337
4945.22,0.00126
4939.43,0.00234
4933.65,0.00211
4927.86,0.00252
4922.07,0.00138
4916.29,0.00244
4910.5,0.00309
4904.72,0.00304
4898.93,0.00221
4893.14,0.00229
4887.36,0.00238
4881.57,0.00208
4875.79,0.00112
4870,0.00126
4864.21,0.00257
4858.43,0.00173
4852.64,0.00181
4846.85,0.00246
4841.07,0.00036
4835.28,0.00171
4829.5,0.00179
4823.71,0.00165
4817.92,0.00212
4812.14,0.00158
4806.35,0.00126
4800.57,0.00256
4794.78,0.00076
4788.99,0.00023
4783.21,0.00089
4777.42,0.00224
4771.64,0.00262
4765.85,0.00028
4760.06,0.00130
4754.28,0.00114
4748.49,0.00160
4742.7,0.00250
4736.92,0.00101
4731.13,0.00237
4725.35,0.00163
4719.56,0.00243
4713.77,0.00100
4707.99,0.00198
4702.2,0.00163
4696.42,-0.00002
4690.63,0.00211
4684.84,0.00344
4679.06,0.00209
4673.27,0.00188
4667.48,0.00234
4661.7,0.00310
4655.91,0.00126
4650.13,0.00123
4644.34,0.00105
4638.55,0.00160
4632.77,0.00201
4626.98,0.00134
4621.2,0.00175
4615.41,0.00335
4609.62,0.00149
4603.84,0.00097
4598.05,0.00270
4592.26,0.00218
4586.48,0.00141
4580.69,0.00117
4574.91,0.00200
4569.12,0.00115
4563.33,0.00057
4557.55,0.00266
4551.76,0.00028
4545.98,0.00058
4540.19,0.00080
4534.4,0.00215
4528.62,0.00112
4522.83,0.00056
4517.05,0.00219
4511.26,0.00060
4505.47,0.00114
4499.69,0.00087
4493.9,0.00120
4488.11,0.00152
4482.33,0.00179
4476.54,-0.00011
4470.76,0.00212
4464.97,-0.00068
4459.18,0.00117
4453.4,0.00130
4447.61,0.00240
4441.83,0.00217
4436.04,0.00073
4430.25,0.00228
4424.47,0.00069
4418.68,0.00143
4412.89,0.00269
4407.11,0.00225
4401.32,0.00103
4395.54,0.00195
4389.75,0.00038
4383.96,0.00078
4378.18,0.00069
4372.39,0.00076
4366.61,0.00125
4360.82,0.00104
4355.03,0.00279
4349.25,0.00042
4343.46,0.00242
4337.67,0.00055
4331.89,-0.00019
4326.1,0.00298
4320.32,0.00136
4314.53,0.00056
4308.74,0.00080
4302.96,0.00011
4297.17,0.00121
4291.39,0.00109
4285.6,-0.00011
4279.81,0.00158
4274.03,0.00014
4268.24,0.00154
4262.46,0.00105
4256.67,0.00210
4250.88,0.00125
4245.1,0.00088
4239.31,0.00226
4233.52,0.00098
4227.74,0.00077
4221.95,0.00102
4216.17,0.00140
4210.38,0.00096
4204.59,0.00072
4198.81,0.00198
4193.02,0.00085
4187.24,0.00048
4181.45,0.00098
4175.66,0.00030
4169.88,0.00243
4164.09,0.00096
4158.3,0.00063
4152.52,0.00125
4146.73,0.00089
4140.95,0.00149
4135.16,0.00113
4129.37,0.00093
4123.59,0.00172
4117.8,0.00175
4112.02,0.00047
4106.23,0.00175
4100.44,0.00076
4094.66,0.00149
4088.87,0.00103
4083.08,0.00201
4077.3,0.00093
4071.51,0.00041
4065.73,0.00044
4059.94,0.00194
4054.15,0.00194
4048.37,0.00037
4042.58,0.00093
4036.8,0.00158
4031.01,0.00118
4025.22,0.00075
4019.44,0.00095
4013.65,0.00101
4007.86,0.00094
4002.08,0.00108
3996.29,0.00067
3990.51,0.00166
3984.72,0.00107
3978.93,0.00091
3973.15,0.00096
3967.36,0.00053
3961.58,0.00147
3955.79,0.00085
3950,0.00177
3944.22,0.00050
3938.43,0.00116
3932.65,0.00123
3926.86,0.00019
3921.07,0.00116
3915.29,0.00126
3909.5,0.00125
3903.71,0.00238
3897.93,0.00008
3892.14,0.00102
3886.36,0.00115
3880.57,0.00087
3874.78,0.00046
3869,0.00162
3863.21,0.00212
3857.43,0.00170
3851.64,0.00151
3845.85,0.00079
3840.07,0.00122
3834.28,0.00133
3828.49,0.00155
3822.71,0.00175
3816.92,0.00207
3811.14,0.00068
3805.35,-0.00046
3799.56,0.00088
3793.78,0.00151
3787.99,0.00165
3782.21,0.00137
3776.42,0.00010
3770.63,0.00169
3764.85,0.00102
3759.06,0.00043
3753.27,0.00113
3747.49,0.00135
3741.7,0.00074
3735.92,0.00181
3730.13,0.00065
3724.34,0.00096
3718.56,0.00143
3712.77,0.00218
3706.99,0.00211
3701.2,0.00076
3695.41,0.00087
3689.63,0.00163
3683.84,0.00153
3678.06,0.00135
3672.27,0.00213
3666.48,0.00097
3660.7,0.00065
3654.91,0.00134
3649.12,0.00266
3643.34,0.00204
3637.55,0.00113
3631.77,0.00152
3625.98,0.00125
3620.19,0.00244
3614.41,0.00174
3608.62,0.00180
3602.84,0.00165
3597.05,0.00206
3591.26,0.00068
3585.48,0.00119
3579.69,0.00187
3573.9,0.00115
3568.12,0.00214
3562.33,0.00136
3556.55,0.00146
3550.76,0.00057
3544.97,0.00108
3539.19,0.00097
3533.4,0.00205
3527.62,0.00080
3521.83,0.00078
3516.04,0.00225
3510.26,0.00108
3504.47,0.00060
3498.68,0.00075
3492.9,0.00078
3487.11,0.00085
3481.33,0.00207
3475.54,0.00053
3469.75,0.00046
3463.97,0.00134
3458.18,0.00219
3452.4,0.00160
3446.61,0.00105
3440.82,0.00149
3435.04,-0.00005
3429.25,0.00104
3423.47,0.00203
3417.68,0.00153
3411.89,0.00188
3406.11,0.00292
3400.32,0.00113
3394.53,-0.00012
3388.75,0.00101
3382.96,0.00083
3377.18,0.00132
3371.39,0.00111
3365.6,0.00227
3359.82,0.00140
3354.03,0.00199
3348.25,0.00124
3342.46,0.00188
3336.67,0.00154
3330.89,0.00131
3325.1,0.00183
3319.31,0.00179
3313.53,0.00096
3307.74,0.00097
3301.96,0.00084
3296.17,0.00251
3290.38,0.00181
3284.6,0.00192
3278.81,0.00194
3273.03,0.00291
3267.24,0.00029
3261.45,0.00094
3255.67,0.00169
3249.88,0.00114
3244.09,0.00157
3238.31,0.00080
3232.52,0.00153
3226.74,0.00161
3220.95,0.00062
3215.16,0.00286
3209.38,0.00105
3203.59,0.00086
3197.81,0.00191
3192.02,0.00003
3186.23,0.00149
3180.45,0.00045
3174.66,0.00074
3168.87,0.00083
3163.09,0.00162
3157.3,0.00143
3151.52,0.00188
3145.73,0.00054
3139.94,0.00119
3134.16,0.00098
3128.37,0.00143
3122.59,0.00168
3116.8,0.00019
3111.01,0.00130
3105.23,0.00125
3099.44,0.00103
3093.66,0.00096
3087.87,-0.00033
3082.08,0.00167
3076.3,0.00086
3070.51,0.00054
3064.72,0.00094
3058.94,0.00025
3053.15,0.00145
3047.37,0.00087
3041.58,0.00124
3035.79,0.00071
3030.01,0.00075
3024.22,0.00061
3018.44,0.00081
3012.65,0.00148
3006.86,0.00031
3001.08,0.00099
2995.29,0.00015
2989.5,0.00122
2983.72,0.00094
2977.93,0.00105
2972.15,0.00040
2966.36,0.00033
2960.57,0.00072
2954.79,0.00050
2949,0.00151
2943.22,-0.00000
2937.43,0.00097
2931.64,0.00091
2925.86,0.00144
2920.07,0.00008
2914.28,0.00064
2908.5,0.00079
2902.71,0.00128
2896.93,0.00086
2891.14,0.00092
2885.35,0.00149
2879.57,0.00095
2873.78,0.00085
2868,0.00139
2862.21,0.00073
2856.42,0.00067
2850.64,0.00080
2844.85,0.00102
2839.07,0.00187
2833.28,0.00022
2827.49,0.00011
2821.71,0.00038
2815.92,0.00008
2810.13,0.00145
2804.35,0.00035
2798.56,0.00087
2792.78,0.00064
2786.99,0.00097
2781.2,0.00084
2775.42,0.00061
2769.63,0.00062
2763.85,0.00117
2758.06,0.00063
2752.27,0.00077
2746.49,0.00042
2740.7,0.00057
2734.91,0.00089
2729.13,0.00085
2723.34,0.00050
2717.56,0.00066
2711.77,0.00091
2705.98,0.00042
2700.2,0.00096
2694.41,0.00040
2688.63,0.00077
2682.84,0.00050
2677.05,0.00081
2671.27,0.00041
2665.48,0.00112
2659.69,0.00081
2653.91,0.00090
2648.12,0.00109
2642.34,0.00070
2636.55,0.00021
2630.76,0.00049
2624.98,0.00067
2619.19,0.00065
2613.41,0.00038
2607.62,0.00022
2601.83,0.00114
2596.05,0.00057
2590.26,0.00052
2584.47,0.00044
2578.69,0.00074
2572.9,0.00090
2567.12,0.00020
2561.33,0.00160
2555.54,0.00003
2549.76,0.00064
2543.97,0.00056
2538.19,0.00125
2532.4,0.00078
2526.61,0.00072
2520.83,0.00048
2515.04,0.00092
2509.26,0.00076
2503.47,0.00111
2497.68,0.00046
2491.9,0.00040
2486.11,0.00070
2480.32,0.00075
2474.54,0.00072
2468.75,0.00019
2462.97,0.00045
2457.18,0.00082
2451.39,0.00020
2445.61,0.00062
2439.82,0.00072
2434.04,0.00028
2428.25,0.00096
2422.46,0.00117
2416.68,0.00107
2410.89,0.00116
2405.1,0.00069
2399.32,0.00047
2393.53,-0.00007
2387.75,0.00091
2381.96,0.00007
2376.17,0.00114
2370.39,0.00091
2364.6,0.00068
2358.82,0.00135
2353.03,0.00026
2347.24,0.00065
2341.46,0.00107
2335.67,0.00123
2329.88,0.00108
2324.1,0.00123
2318.31,0.00018
2312.53,0.00075
2306.74,0.00096
2300.95,0.00001
2295.17,0.00016
2289.38,0.00048
2283.6,0.00046
2277.81,0.00023
2272.02,0.00044
2266.24,0.00032
2260.45,0.00037
2254.67,0.00029
2248.88,0.00031
2243.09,0.00122
2237.31,0.00050
2231.52,-0.00009
2225.73,0.00135
2219.95,0.00068
2214.16,0.00071
2208.38,0.00030
2202.59,0.00055
2196.8,0.00024
2191.02,0.00047
2185.23,0.00045
2179.45,0.00070
2173.66,0.00105
2167.87,0.00027
2162.09,0.00028
2156.3,0.00056
2150.51,0.00077
2144.73,0.00083
2138.94,0.00025
2133.16,0.00044
2127.37,0.00099
2121.58,0.00062
2115.8,0.00043
2110.01,0.00042
2104.23,0.00049
2098.44,0.00064
2092.65,0.00035
2086.87,0.00038
2081.08,0.00045
2075.29,0.00060
2069.51,0.00049
2063.72,0.00029
2057.94,0.00018
2052.15,0.00060
2046.36,0.00061
2040.58,0.00049
2034.79,0.00083
2029.01,0.00007
2023.22,0.00060
2017.43,0.00035
2011.65,0.00033
2005.86,0.00097
2000.08,0.00052
1994.29,0.00016
1988.5,0.00076
1982.72,0.00087
1976.93,0.00009
1971.14,0.00018
1965.36,0.00063
1959.57,0.00023
1953.79,0.00051
1948,0.00059
1942.21,0.00072
1936.43,0.00062
1930.64,0.00028
1924.86,0.00067
1919.07,0.00063
1913.28,0.00074
1907.5,0.00056
1901.71,0.00049
1895.92,0.00028
1890.14,0.00059
1884.35,0.00103
1878.57,0.00048
1872.78,0.00062
1866.99,0.00066
1861.21,0.00009
1855.42,0.00044
1849.64,0.00074
1843.85,0.00102
1838.06,0.00063
1832.28,0.00059
1826.49,0.00056
1820.7,0.00028
1814.92,0.00055
1809.13,0.00067
1803.35,0.00076
1797.56,0.00031
1791.77,0.00052
1785.99,0.00045
1780.2,-0.00002
1774.42,0.00016
1768.63,0.00071
1762.84,0.00076
1757.06,0.00081
1751.27,0.00133
1745.48,0.00039
1739.7,0.00106
1733.91,0.00100
1728.13,0.00037
1722.34,0.00086
1716.55,0.00150
1710.77,0.00125
1704.98,0.00087
1699.2,0.00090
1693.41,0.00116
1687.62,0.00058
1681.84,0.00113
1676.05,0.00022
1670.27,0.00112
1664.48,0.00039
1658.69,0.00040
1652.91,0.00069
1647.12,0.00066
1641.33,0.00051
1635.55,0.00077
1629.76,0.00014
1623.98,0.00043
1618.19,0.00066
1612.4,0.00072
1606.62,0.00085
1600.83,0.00060
1595.05,0.00023
1589.26,0.00083
1583.47,0.00108
1577.69,0.00040
1571.9,0.00097
1566.11,0.00146
1560.33,0.00030
1554.54,0.00134
1548.76,0.00097
1542.97,0.00105
1537.18,0.00091
1531.4,0.00047
1525.61,0.00111
1519.83,0.00067
1514.04,0.00164
1508.25,0.00202
1502.47,0.00027
1496.68,0.00044
1490.89,0.00062
1485.11,0.00057
1479.32,0.00121
1473.54,0.00031
1467.75,0.00081
1461.96,0.00022
1456.18,0.00158
1450.39,0.00056
1444.61,0.00010
1438.82,0.00085
1433.03,0.00048
1427.25,0.00052
1421.46,0.00043
1415.68,0.00032
1409.89,0.00073
1404.1,0.00096
1398.32,0.00103
1392.53,0.00076
1386.74,0.00030
1380.96,0.00047
1375.17,0.00019
1369.39,0.00045
1363.6,0.00079
1357.81,0.00005
1352.03,0.00053
1346.24,0.00070
1340.46,0.00017
1334.67,0.00067
1328.88,0.00087
1323.1,0.00063
1317.31,0.00029
1311.52,0.00065
1305.74,0.00052
1299.95,0.00066
1294.17,0.00040
1288.38,0.00063
1282.59,0.00068
1276.81,0.00070
1271.02,0.00031
1265.24,0.00061
1259.45,0.00078
1253.66,0.00058
1247.88,0.00088
1242.09,0.00091
1236.3,0.00054
1230.52,0.00069
1224.73,0.00083
1218.95,0.00070
1213.16,0.00096
1207.37,0.00068
1201.59,0.00063
1195.8,0.00121
1190.02,0.00006
1184.23,0.00047
1178.44,0.00092
1172.66,0.00055
1166.87,0.00084
1161.09,0.00100
1155.3,0.00089
1149.51,0.00064
1143.73,0.00108
1137.94,0.00079
1132.15,0.00074
1126.37,0.00043
1120.58,0.00105
1114.8,0.00088
1109.01,0.00158
1103.22,0.00068
1097.44,0.00097
1091.65,0.00167
1085.87,0.00136
1080.08,0.00165
1074.29,0.00097
1068.51,0.00116
1062.72,0.00114
1056.93,0.00124
1051.15,0.00245
1045.36,0.00104
1039.58,0.00112
1033.79,0.00111
1028,0.00076
1022.22,0.00108
1016.43,0.00139
1010.65,0.00062
1004.86,0.00059
999.073,0.00047
993.287,0.00054
987.501,0.00075
981.715,0.00015
975.929,0.00106
970.142,0.00093
964.356,0.00049
958.57,0.00121
952.784,0.00098
946.998,-0.00013
941.212,0.00135
935.426,0.00082
929.64,0.00059
923.853,0.00136
918.067,0.00141
912.281,0.00071
906.495,0.00090
900.709,0.00137
894.923,0.00103
889.137,0.00058
883.35,0.00057
877.564,0.00122
871.778,0.00158
865.992,-0.00014
860.206,0.00155
854.42,0.00147
848.634,0.00087
842.847,0.00179
837.061,0.00121
831.275,0.00082
825.489,0.00127
819.703,0.00078
813.917,0.00145
808.131,0.00055
802.344,0.00154
796.558,0.00135
790.772,0.00069
784.986,0.00085
779.2,0.00143
773.414,0.00135
767.628,0.00127
761.842,0.00130
756.055,0.00095
750.269,0.00156
744.483,0.00175
738.697,0.00098
732.911,0.00127
727.125,0.00163
721.339,0.00204
715.552,0.00075
709.766,0.00250
703.98,0.00113
698.194,0.00169
692.408,0.00141
686.622,0.00195
680.836,0.00223
675.049,0.00085
669.263,0.00160
663.477,0.00122
657.691,0.00207
651.905,0.00279
646.119,0.00033
640.333,0.00177
634.546,0.00175
628.76,0.00440
622.974,0.00264
617.188,0.00192
611.402,-0.00001
605.616,0.00316
599.83,0.00204