File: 01_Data/PEVA/FTIR/IS/PEVA_0.10_IS_Trans_T_240819_R6.dpt
7496.91,0.03139
7491.12,0.02569
7485.33,0.03233
7479.55,0.02212
7473.76,0.01266
7467.98,0.04083
7462.19,0.03602
7456.4,0.00696
7450.62,0.03824
7444.83,0.01379
7439.04,0.03324
7433.26,0.04468
7427.47,0.01226
7421.69,0.01023
7415.9,0.02090
7410.11,0.01201
7404.33,0.03427
7398.54,0.01840
7392.76,0.03984
7386.97,0.01665
7381.18,0.03013
7375.4,0.03784
7369.61,0.01160
7363.83,0.03301
7358.04,0.01387
7352.25,0.03897
7346.47,0.01315
7340.68,0.01402
7334.89,0.01945
7329.11,0.05029
7323.32,0.03194
7317.54,0.03246
7311.75,-0.00110
7305.96,0.04752
7300.18,0.01332
7294.39,0.02481
7288.61,0.02763
7282.82,0.01710
7277.03,0.02927
7271.25,0.02967
7265.46,0.03140
7259.67,0.00652
7253.89,0.04987
7248.1,0.02652
7242.32,0.01125
7236.53,0.02200
7230.74,0.01378
7224.96,0.03839
7219.17,0.02265
7213.39,0.01393
7207.6,0.02058
7201.81,0.03291
7196.03,0.02168
7190.24,0.02464
7184.45,0.00043
7178.67,0.01865
7172.88,0.01817
7167.1,0.03347
7161.31,0.03105
7155.52,0.01300
7149.74,0.01724
7143.95,0.01486
7138.17,0.03377
7132.38,0.03151
7126.59,0.01773
7120.81,0.00907
7115.02,0.00772
7109.23,0.02944
7103.45,0.01494
7097.66,0.02096
7091.88,0.03510
7086.09,0.02565
7080.3,0.00676
7074.52,0.01715
7068.73,0.02542
7062.95,0.01863
7057.16,0.00665
7051.37,0.02018
7045.59,0.02106
7039.8,0.01306
7034.02,0.01457
7028.23,0.00350
7022.44,0.02124
7016.66,0.00939
7010.87,0.01187
7005.08,0.01903
6999.3,0.01628
6993.51,0.00813
6987.73,0.00818
6981.94,0.01515
6976.15,0.00468
6970.37,0.01069
6964.58,0.01364
6958.8,0.02606
6953.01,0.01497
6947.22,0.02064
6941.44,0.02233
6935.65,0.01480
6929.86,0.02120
6924.08,0.02553
6918.29,0.02867
6912.51,0.01033
6906.72,0.01191
6900.93,0.00707
6895.15,0.02441
6889.36,0.01695
6883.58,0.02031
6877.79,0.01488
6872,0.00839
6866.22,0.01837
6860.43,0.01721
6854.64,0.01541
6848.86,0.00878
6843.07,0.02011
6837.29,0.02230
6831.5,0.00841
6825.71,0.01804
6819.93,0.00815
6814.14,0.00642
6808.36,0.01094
6802.57,0.01257
6796.78,0.02397
6791,0.00441
6785.21,0.01459
6779.43,0.02100
6773.64,0.02380
6767.85,0.01473
6762.07,0.01311
6756.28,0.01699
6750.49,0.01313
6744.71,0.01068
6738.92,0.00176
6733.14,0.00786
6727.35,0.01116
6721.56,0.01510
6715.78,0.00983
6709.99,0.01167
6704.21,0.01806
6698.42,0.01617
6692.63,0.00601
6686.85,0.00808
6681.06,0.02110
6675.27,0.01719
6669.49,0.02058
6663.7,0.01554
6657.92,0.00664
6652.13,0.02235
6646.34,0.01198
6640.56,0.01038
6634.77,0.01530
6628.99,-0.00052
6623.2,0.00756
6617.41,0.00138
6611.63,0.01816
6605.84,0.01530
6600.05,0.01721
6594.27,0.01137
6588.48,0.00708
6582.7,0.01171
6576.91,0.01636
6571.12,0.01963
6565.34,0.00645
6559.55,0.00330
6553.77,0.00842
6547.98,0.00250
6542.19,0.01781
6536.41,0.01036
6530.62,0.01389
6524.84,0.01460
6519.05,0.00607
6513.26,0.01063
6507.48,0.01282
6501.69,0.00156
6495.9,0.00984
6490.12,0.00614
6484.33,0.01775
6478.55,0.00641
6472.76,0.00864
6466.97,-0.00024
6461.19,0.02363
6455.4,0.01502
6449.62,0.00972
6443.83,0.00669
6438.04,0.01787
6432.26,0.00777
6426.47,0.00447
6420.68,0.00582
6414.9,0.01949
6409.11,0.01650
6403.33,-0.00051
6397.54,0.00781
6391.75,0.01400
6385.97,0.01246
6380.18,0.00542
6374.4,0.01760
6368.61,0.01068
6362.82,0.00669
6357.04,0.00683
6351.25,0.00848
6345.46,0.01344
6339.68,0.01396
6333.89,0.00537
6328.11,0.00743
6322.32,0.01290
6316.53,0.01826
6310.75,0.00337
6304.96,0.00830
6299.18,0.00507
6293.39,0.00709
6287.6,0.01376
6281.82,0.00486
6276.03,0.01401
6270.24,0.00486
6264.46,0.00563
6258.67,-0.00031
6252.89,0.01280
6247.1,0.00581
6241.31,0.00620
6235.53,0.00677
6229.74,0.00201
6223.96,0.00552
6218.17,0.01192
6212.38,0.00588
6206.6,0.01115
6200.81,0.00797
6195.03,0.01968
6189.24,0.00938
6183.45,0.00589
6177.67,0.01279
6171.88,0.00581
6166.09,0.00588
6160.31,0.00431
6154.52,0.00425
6148.74,0.00724
6142.95,0.01448
6137.16,0.00875
6131.38,0.00546
6125.59,0.00266
6119.81,0.00468
6114.02,0.00427
6108.23,0.00701
6102.45,0.01236
6096.66,0.01046
6090.87,0.00670
6085.09,0.00869
6079.3,0.00332
6073.52,0.00474
6067.73,0.00988
6061.94,0.00505
6056.16,0.00619
6050.37,0.01124
6044.59,0.00395
6038.8,0.01141
6033.01,-0.00082
6027.23,0.00828
6021.44,0.00072
6015.65,0.00362
6009.87,0.00391
6004.08,0.00218
5998.3,0.01250
5992.51,0.00902
5986.72,0.01070
5980.94,0.00432
5975.15,0.00679
5969.37,0.00260
5963.58,0.00390
5957.79,0.00265
5952.01,0.00330
5946.22,0.00861
5940.44,0.00471
5934.65,0.00799
5928.86,0.00641
5923.08,0.00162
5917.29,0.00636
5911.5,0.00261
5905.72,0.00869
5899.93,0.00581
5894.15,0.00760
5888.36,0.00390
5882.57,0.01001
5876.79,0.00663
5871,0.00186
5865.22,0.00819
5859.43,0.00566
5853.64,0.00486
5847.86,0.00506
5842.07,0.00321
5836.28,0.00223
5830.5,0.00455
5824.71,0.00506
5818.93,0.00534
5813.14,0.00577
5807.35,0.00564
5801.57,0.00506
5795.78,0.00449
5790,0.00348
5784.21,0.00495
5778.42,0.00751
5772.64,0.00119
5766.85,0.00540
5761.06,0.00396
5755.28,0.00563
5749.49,0.01113
5743.71,0.00592
5737.92,0.00503
5732.13,0.00870
5726.35,0.00540
5720.56,0.00596
5714.78,0.00535
5708.99,0.00290
5703.2,0.00115
5697.42,0.00256
5691.63,0.00762
5685.84,0.00333
5680.06,0.00034
5674.27,0.00697
5668.49,-0.00008
5662.7,0.00275
5656.91,0.00627
5651.13,0.00384
5645.34,0.00337
5639.56,0.00435
5633.77,0.00449
5627.98,0.00253
5622.2,0.00105
5616.41,0.00570
5610.63,0.00272
5604.84,0.00409
5599.05,0.00389
5593.27,0.00514
5587.48,0.00446
5581.69,0.00806
5575.91,0.00556
5570.12,0.00473
5564.34,0.00280
5558.55,0.00835
5552.76,0.00160
5546.98,0.00191
5541.19,0.00373
5535.41,0.00224
5529.62,0.00288
5523.83,0.00176
5518.05,0.00602
5512.26,0.00515
5506.47,0.00523
5500.69,0.00565
5494.9,0.00307
5489.12,0.00562
5483.33,0.00366
5477.54,0.00697
5471.76,0.00073
5465.97,0.00532
5460.19,0.00392
5454.4,0.00115
5448.61,0.00388
5442.83,0.00198
5437.04,0.00559
5431.25,0.00214
5425.47,0.00213
5419.68,0.00436
5413.9,0.00559
5408.11,0.00633
5402.32,0.00284
5396.54,0.00385
5390.75,0.00294
5384.97,0.00505
5379.18,0.00319
5373.39,0.00521
5367.61,0.00139
5361.82,0.00470
5356.04,-0.00007
5350.25,0.00112
5344.46,0.00510
5338.68,0.00283
5332.89,0.00518
5327.1,0.00298
5321.32,0.00190
5315.53,0.00318
5309.75,0.00103
5303.96,0.00325
5298.17,0.00186
5292.39,0.00358
5286.6,0.00358
5280.82,0.00538
5275.03,0.00372
5269.24,0.00500
5263.46,0.00349
5257.67,0.00197
5251.88,0.00504
5246.1,0.00440
5240.31,0.00178
5234.53,0.00553
5228.74,0.00222
5222.95,0.00356
5217.17,0.00385
5211.38,0.00105
5205.6,0.00294
5199.81,0.00086
5194.02,0.00416
5188.24,0.00447
5182.45,0.00511
5176.66,0.00509
5170.88,0.00230
5165.09,0.00263
5159.31,0.00327
5153.52,0.00165
5147.73,0.00025
5141.95,0.00445
5136.16,0.00625
5130.38,0.00230
5124.59,0.00127
5118.8,0.00167
5113.02,0.00200
5107.23,0.00305
5101.45,0.00108
5095.66,0.00282
5089.87,0.00285
5084.09,0.00088
5078.3,0.00392
5072.51,0.00068
5066.73,0.00297
5060.94,0.00167
5055.16,0.00231
5049.37,0.00384
5043.58,0.00254
5037.8,0.00174
5032.01,0.00147
5026.23,0.00290
5020.44,0.00294
5014.65,0.00157
5008.87,0.00225
5003.08,0.00429
4997.29,0.00311
4991.51,0.00367
4985.72,0.00413
4979.94,0.00418
4974.15,0.00298
4968.36,0.00513
4962.58,0.00251
4956.79,0.00246
4951.01,0.00174
4945.22,0.00065
4939.43,0.00205
4933.65,0.00225
4927.86,0.00268
4922.07,0.00406
4916.29,0.00134
4910.5,0.00166
4904.72,0.00301
4898.93,0.00168
4893.14,0.00113
4887.36,0.00171
4881.57,0.00206
4875.79,0.00378
4870,0.00102
4864.21,0.00395
4858.43,0.00122
4852.64,0.00292
4846.85,0.00181
4841.07,0.00073
4835.28,0.00375
4829.5,0.00053
4823.71,0.00155
4817.92,0.00217
4812.14,-0.00090
4806.35,0.00291
4800.57,0.00118
4794.78,0.00188
4788.99,0.00242
4783.21,0.00386
4777.42,0.00326
4771.64,0.00072
4765.85,0.00261
4760.06,0.00127
4754.28,0.00178
4748.49,0.00475
4742.7,0.00267
4736.92,0.00321
4731.13,0.00097
4725.35,0.00283
4719.56,0.00170
4713.77,0.00240
4707.99,0.00183
4702.2,0.00365
4696.42,0.00058
4690.63,0.00305
4684.84,0.00267
4679.06,0.00113
4673.27,0.00136
4667.48,0.00301
4661.7,0.00179
4655.91,0.00076
4650.13,0.00240
4644.34,0.00126
4638.55,0.00142
4632.77,0.00165
4626.98,0.00160
4621.2,0.00210
4615.41,0.00305
4609.62,0.00247
4603.84,0.00134
4598.05,0.00308
4592.26,0.00041
4586.48,0.00204
4580.69,0.00162
4574.91,0.00200
4569.12,0.00070
4563.33,0.00108
4557.55,0.00288
4551.76,0.00285
4545.98,0.00139
4540.19,0.00193
4534.4,0.00173
4528.62,0.00087
4522.83,0.00172
4517.05,0.00110
4511.26,0.00233
4505.47,0.00339
4499.69,0.00125
4493.9,0.00151
4488.11,0.00082
4482.33,0.00153
4476.54,0.00244
4470.76,0.00233
4464.97,0.00103
4459.18,0.00098
4453.4,0.00241
4447.61,0.00197
4441.83,0.00107
4436.04,0.00095
4430.25,0.00263
4424.47,0.00038
4418.68,0.00134
4412.89,0.00349
4407.11,0.00100
4401.32,0.00133
4395.54,0.00142
4389.75,0.00097
4383.96,0.00231
4378.18,0.00181
4372.39,0.00288
4366.61,0.00137
4360.82,0.00220
4355.03,0.00165
4349.25,0.00193
4343.46,0.00414
4337.67,0.00055
4331.89,0.00259
4326.1,0.00136
4320.32,0.00144
4314.53,0.00068
4308.74,0.00103
4302.96,0.00114
4297.17,0.00013
4291.39,0.00041
4285.6,0.00167
4279.81,0.00272
4274.03,0.00345
4268.24,0.00095
4262.46,0.00075
4256.67,0.00326
4250.88,-0.00021
4245.1,0.00090
4239.31,0.00097
4233.52,0.00124
4227.74,0.00141
4221.95,0.00146
4216.17,0.00114
4210.38,0.00100
4204.59,0.00089
4198.81,0.00118
4193.02,0.00058
4187.24,0.00158
4181.45,0.00239
4175.66,0.00166
4169.88,0.00081
4164.09,0.00183
4158.3,0.00130
4152.52,0.00072
4146.73,0.00086
4140.95,0.00133
4135.16,0.00050
4129.37,-0.00017
4123.59,0.00351
4117.8,0.00133
4112.02,0.00223
4106.23,0.00071
4100.44,0.00077
4094.66,0.00063
4088.87,0.00066
4083.08,0.00168
4077.3,0.00231
4071.51,0.00156
4065.73,0.00128
4059.94,0.00208
4054.15,0.00042
4048.37,0.00158
4042.58,0.00087
4036.8,0.00108
4031.01,0.00083
4025.22,0.00119
4019.44,0.00169
4013.65,0.00129
4007.86,0.00142
4002.08,0.00076
3996.29,0.00081
3990.51,0.00098
3984.72,0.00102
3978.93,0.00128
3973.15,0.00110
3967.36,0.00209
3961.58,0.00168
3955.79,0.00113
3950,0.00272
3944.22,0.00152
3938.43,-0.00019
3932.65,0.00207
3926.86,0.00106
3921.07,0.00073
3915.29,0.00277
3909.5,0.00186
3903.71,0.00132
3897.93,0.00155
3892.14,0.00171
3886.36,0.00207
3880.57,0.00328
3874.78,0.00029
3869,0.00126
3863.21,0.00187
3857.43,0.00030
3851.64,0.00116
3845.85,0.00079
3840.07,0.00297
3834.28,0.00150
3828.49,0.00160
3822.71,0.00163
3816.92,0.00199
3811.14,-0.00005
3805.35,0.00330
3799.56,0.00219
3793.78,0.00132
3787.99,0.00162
3782.21,0.00058
3776.42,0.00174
3770.63,0.00129
3764.85,0.00048
3759.06,0.00187
3753.27,0.00267
3747.49,0.00299
3741.7,0.00270
3735.92,0.00219
3730.13,0.00254
3724.34,0.00101
3718.56,0.00183
3712.77,0.00134
3706.99,0.00097
3701.2,0.00099
3695.41,0.00133
3689.63,0.00475
3683.84,0.00195
3678.06,0.00257
3672.27,0.00126
3666.48,0.00187
3660.7,0.00089
3654.91,0.00276
3649.12,0.00113
3643.34,0.00146
3637.55,0.00124
3631.77,0.00214
3625.98,0.00220
3620.19,0.00288
3614.41,0.00123
3608.62,0.00039
3602.84,0.00205
3597.05,0.00164
3591.26,0.00132
3585.48,0.00010
3579.69,0.00248
3573.9,0.00127
3568.12,0.00127
3562.33,0.00208
3556.55,0.00217
3550.76,0.00017
3544.97,0.00258
3539.19,0.00101
3533.4,0.00119
3527.62,0.00141
3521.83,0.00117
3516.04,0.00100
3510.26,0.00200
3504.47,0.00102
3498.68,0.00124
3492.9,0.00150
3487.11,0.00035
3481.33,0.00217
3475.54,0.00140
3469.75,-0.00037
3463.97,0.00183
3458.18,0.00050
3452.4,0.00134
3446.61,0.00165
3440.82,0.00181
3435.04,0.00179
3429.25,0.00223
3423.47,0.00056
3417.68,0.00145
3411.89,0.00032
3406.11,0.00175
3400.32,0.00115
3394.53,0.00199
3388.75,0.00253
3382.96,0.00226
3377.18,0.00076
3371.39,0.00111
3365.6,0.00214
3359.82,0.00119
3354.03,0.00253
3348.25,0.00156
3342.46,0.00009
3336.67,0.00164
3330.89,0.00263
3325.1,0.00040
3319.31,0.00123
3313.53,0.00237
3307.74,0.00144
3301.96,0.00161
3296.17,0.00156
3290.38,0.00152
3284.6,0.00042
3278.81,0.00155
3273.03,0.00134
3267.24,0.00236
3261.45,-0.00046
3255.67,0.00176
3249.88,0.00127
3244.09,0.00182
3238.31,0.00138
3232.52,0.00319
3226.74,0.00257
3220.95,0.00208
3215.16,0.00286
3209.38,0.00310
3203.59,-0.00073
3197.81,0.00325
3192.02,0.00346
3186.23,0.00137
3180.45,-0.00008
3174.66,0.00132
3168.87,0.00221
3163.09,0.00116
3157.3,0.00287
3151.52,0.00289
3145.73,0.00193
3139.94,0.00129
3134.16,0.00082
3128.37,0.00181
3122.59,0.00055
3116.8,0.00135
3111.01,-0.00021
3105.23,0.00183
3099.44,0.00096
3093.66,0.00109
3087.87,-0.00005
3082.08,0.00128
3076.3,0.00129
3070.51,0.00155
3064.72,0.00019
3058.94,0.00076
3053.15,0.00043
3047.37,0.00185
3041.58,0.00124
3035.79,0.00110
3030.01,0.00021
3024.22,0.00106
3018.44,0.00053
3012.65,0.00142
3006.86,0.00082
3001.08,0.00045
2995.29,0.00143
2989.5,0.00083
2983.72,0.00112
2977.93,0.00044
2972.15,0.00105
2966.36,0.00123
2960.57,0.00077
2954.79,0.00106
2949,0.00195
2943.22,0.00050
2937.43,0.00124
2931.64,0.00143
2925.86,0.00061
2920.07,0.00107
2914.28,0.00061
2908.5,0.00098
2902.71,0.00116
2896.93,0.00077
2891.14,0.00150
2885.35,0.00030
2879.57,0.00076
2873.78,0.00076
2868,0.00008
2862.21,0.00130
2856.42,0.00123
2850.64,0.00079
2844.85,0.00003
2839.07,0.00173
2833.28,0.00102
2827.49,0.00160
2821.71,0.00007
2815.92,0.00075
2810.13,0.00059
2804.35,0.00049
2798.56,0.00064
2792.78,0.00117
2786.99,0.00090
2781.2,0.00084
2775.42,0.00072
2769.63,0.00090
2763.85,0.00081
2758.06,0.00018
2752.27,0.00093
2746.49,0.00082
2740.7,0.00101
2734.91,0.00015
2729.13,0.00075
2723.34,0.00078
2717.56,0.00068
2711.77,0.00085
2705.98,0.00005
2700.2,0.00003
2694.41,0.00089
2688.63,0.00086
2682.84,0.00101
2677.05,0.00141
2671.27,0.00001
2665.48,0.00083
2659.69,0.00063
2653.91,-0.00013
2648.12,0.00083
2642.34,0.00059
2636.55,0.00077
2630.76,0.00078
2624.98,0.00065
2619.19,0.00032
2613.41,0.00121
2607.62,0.00046
2601.83,0.00073
2596.05,0.00119
2590.26,0.00049
2584.47,0.00044
2578.69,0.00096
2572.9,0.00122
2567.12,0.00083
2561.33,0.00076
2555.54,0.00037
2549.76,0.00114
2543.97,0.00037
2538.19,0.00001
2532.4,0.00049
2526.61,0.00050
2520.83,0.00057
2515.04,0.00083
2509.26,0.00120
2503.47,0.00054
2497.68,0.00099
2491.9,0.00055
2486.11,0.00060
2480.32,0.00086
2474.54,0.00054
2468.75,0.00086
2462.97,0.00062
2457.18,0.00083
2451.39,0.00007
2445.61,0.00046
2439.82,0.00089
2434.04,0.00040
2428.25,0.00080
2422.46,0.00094
2416.68,0.00078
2410.89,0.00108
2405.1,0.00044
2399.32,0.00096
2393.53,0.00029
2387.75,0.00090
2381.96,0.00086
2376.17,0.00118
2370.39,0.00147
2364.6,0.00158
2358.82,0.00133
2353.03,0.00106
2347.24,0.00182
2341.46,0.00173
2335.67,0.00123
2329.88,0.00137
2324.1,0.00081
2318.31,0.00111
2312.53,0.00014
2306.74,0.00088
2300.95,0.00069
2295.17,0.00060
2289.38,0.00103
2283.6,0.00087
2277.81,0.00078
2272.02,0.00012
2266.24,0.00069
2260.45,0.00101
2254.67,0.00067
2248.88,0.00052
2243.09,0.00022
2237.31,0.00069
2231.52,0.00116
2225.73,0.00083
2219.95,0.00047
2214.16,0.00014
2208.38,0.00105
2202.59,0.00086
2196.8,0.00060
2191.02,0.00053
2185.23,0.00100
2179.45,0.00078
2173.66,0.00156
2167.87,0.00065
2162.09,0.00039
2156.3,0.00055
2150.51,0.00061
2144.73,0.00054
2138.94,0.00072
2133.16,0.00063
2127.37,0.00008
2121.58,0.00118
2115.8,0.00106
2110.01,0.00074
2104.23,0.00088
2098.44,0.00111
2092.65,0.00040
2086.87,0.00052
2081.08,0.00083
2075.29,0.00117
2069.51,0.00074
2063.72,0.00035
2057.94,0.00026
2052.15,0.00019
2046.36,0.00038
2040.58,0.00061
2034.79,0.00102
2029.01,0.00031
2023.22,0.00058
2017.43,0.00076
2011.65,0.00091
2005.86,0.00008
2000.08,0.00036
1994.29,0.00062
1988.5,0.00066
1982.72,0.00084
1976.93,0.00036
1971.14,0.00063
1965.36,0.00030
1959.57,0.00085
1953.79,0.00068
1948,0.00020
1942.21,0.00014
1936.43,0.00061
1930.64,0.00059
1924.86,0.00046
1919.07,0.00066
1913.28,0.00045
1907.5,0.00053
1901.71,0.00084
1895.92,0.00009
1890.14,0.00122
1884.35,0.00073
1878.57,0.00062
1872.78,0.00073
1866.99,0.00062
1861.21,0.00065
1855.42,0.00042
1849.64,0.00038
1843.85,0.00052
1838.06,0.00057
1832.28,0.00052
1826.49,0.00074
1820.7,0.00043
1814.92,0.00069
1809.13,0.00066
1803.35,0.00036
1797.56,0.00095
1791.77,0.00026
1785.99,0.00107
1780.2,0.00066
1774.42,0.00105
1768.63,0.00134
1762.84,0.00013
1757.06,0.00022
1751.27,0.00112
1745.48,0.00092
1739.7,0.00090
1733.91,0.00144
1728.13,0.00043
1722.34,0.00037
1716.55,0.00113
1710.77,0.00095
1704.98,0.00087
1699.2,0.00186
1693.41,0.00049
1687.62,0.00151
1681.84,0.00101
1676.05,0.00060
1670.27,0.00082
1664.48,0.00083
1658.69,0.00127
1652.91,0.00169
1647.12,0.00151
1641.33,0.00027
1635.55,0.00090
1629.76,0.00075
1623.98,0.00027
1618.19,0.00078
1612.4,0.00060
1606.62,0.00032
1600.83,0.00047
1595.05,0.00037
1589.26,0.00067
1583.47,0.00163
1577.69,0.00057
1571.9,0.00111
1566.11,0.00145
1560.33,0.00060
1554.54,0.00165
1548.76,0.00036
1542.97,0.00170
1537.18,0.00061
1531.4,-0.00038
1525.61,0.00060
1519.83,0.00178
1514.04,0.00060
1508.25,0.00120
1502.47,0.00065
1496.68,0.00123
1490.89,0.00090
1485.11,0.00066
1479.32,0.00016
1473.54,0.00076
1467.75,0.00054
1461.96,0.00083
1456.18,0.00208
1450.39,0.00082
1444.61,0.00057
1438.82,0.00094
1433.03,0.00107
1427.25,0.00105
1421.46,0.00080
1415.68,0.00072
1409.89,0.00047
1404.1,0.00054
1398.32,0.00047
1392.53,-0.00003
1386.74,0.00087
1380.96,0.00088
1375.17,0.00003
1369.39,0.00096
1363.6,0.00074
1357.81,0.00095
1352.03,0.00121
1346.24,0.00081
1340.46,0.00032
1334.67,0.00068
1328.88,0.00043
1323.1,0.00068
1317.31,0.00030
1311.52,0.00094
1305.74,0.00064
1299.95,0.00030
1294.17,0.00046
1288.38,0.00108
1282.59,0.00076
1276.81,0.00056
1271.02,0.00103
1265.24,0.00014
1259.45,0.00075
1253.66,0.00052
1247.88,0.00053
1242.09,0.00066
1236.3,0.00055
1230.52,0.00139
1224.73,0.00063
1218.95,0.00050
1213.16,0.00072
1207.37,0.00088
1201.59,0.00083
1195.8,0.00112
1190.02,0.00064
1184.23,0.00113
1178.44,0.00094
1172.66,0.00035
1166.87,0.00094
1161.09,0.00089
1155.3,0.00087
1149.51,0.00056
1143.73,0.00102
1137.94,0.00099
1132.15,0.00086
1126.37,0.00101
1120.58,0.00090
1114.8,0.00012
1109.01,0.00135
1103.22,0.00130
1097.44,0.00133
1091.65,0.00257
1085.87,0.00110
1080.08,0.00113
1074.29,0.00118
1068.51,0.00228
1062.72,0.00103
1056.93,0.00027
1051.15,0.00146
1045.36,0.00080
1039.58,0.00082
1033.79,0.00132
1028,0.00184
1022.22,0.00199
1016.43,0.00055
1010.65,0.00163
1004.86,-0.00012
999.073,0.00114
993.287,0.00080
987.501,0.00194
981.715,0.00049
975.929,0.00214
970.142,0.00056
964.356,0.00067
958.57,0.00113
952.784,0.00148
946.998,0.00041
941.212,0.00171
935.426,0.00111
929.64,0.00114
923.853,0.00214
918.067,0.00035
912.281,0.00099
906.495,0.00045
900.709,0.00144
894.923,0.00092
889.137,0.00166
883.35,0.00077
877.564,0.00118
871.778,0.00169
865.992,0.00090
860.206,0.00086
854.42,0.00029
848.634,0.00175
842.847,0.00117
837.061,0.00141
831.275,0.00170
825.489,0.00097
819.703,0.00224
813.917,0.00103
808.131,0.00184
802.344,0.00183
796.558,0.00002
790.772,0.00093
784.986,0.00106
779.2,0.00102
773.414,0.00051
767.628,0.00078
761.842,0.00165
756.055,0.00119
750.269,0.00156
744.483,0.00025
738.697,0.00164
732.911,0.00159
727.125,0.00200
721.339,0.00148
715.552,0.00117
709.766,0.00162
703.98,0.00134
698.194,0.00212
692.408,0.00283
686.622,0.00197
680.836,0.00328
675.049,0.00059
669.263,0.00114
663.477,0.00337
657.691,0.00135
651.905,0.00165
646.119,0.00276
640.333,0.00011
634.546,0.00417
628.76,0.00276
622.974,0.00574
617.188,0.00708
611.402,0.00125
605.616,0.00655
599.83,0.00302