File: 01_Data/PEVA/FTIR/IS/PEVA_0.18_IS_T_240809_R10.dpt
7497.33,0.02915
7491.55,0.04040
7485.76,0.04012
7479.97,0.03006
7474.19,0.03463
7468.4,0.03137
7462.61,0.03361
7456.83,0.04090
7451.04,0.04307
7445.26,0.03548
7439.47,0.03915
7433.68,0.03668
7427.9,0.02764
7422.11,0.03320
7416.32,0.03285
7410.54,0.03111
7404.75,0.03760
7398.96,0.04079
7393.18,0.03462
7387.39,0.02770
7381.6,0.02000
7375.82,0.02642
7370.03,0.03552
7364.24,0.03362
7358.46,0.03224
7352.67,0.03463
7346.89,0.03340
7341.1,0.03103
7335.31,0.03235
7329.53,0.04359
7323.74,0.03580
7317.95,0.03169
7312.17,0.03374
7306.38,0.03942
7300.59,0.03147
7294.81,0.03854
7289.02,0.02991
7283.23,0.04288
7277.45,0.02875
7271.66,0.03492
7265.87,0.03295
7260.09,0.04206
7254.3,0.03813
7248.52,0.04503
7242.73,0.04323
7236.94,0.03053
7231.16,0.02688
7225.37,0.02645
7219.58,0.03672
7213.8,0.03240
7208.01,0.03517
7202.22,0.02923
7196.44,0.02922
7190.65,0.02544
7184.86,0.03365
7179.08,0.02806
7173.29,0.03384
7167.5,0.04499
7161.72,0.03335
7155.93,0.02663
7150.15,0.02970
7144.36,0.02442
7138.57,0.03428
7132.79,0.03717
7127,0.03212
7121.21,0.03094
7115.43,0.04688
7109.64,0.04364
7103.85,0.03424
7098.07,0.04024
7092.28,0.04067
7086.49,0.03578
7080.71,0.04017
7074.92,0.03986
7069.13,0.03818
7063.35,0.04380
7057.56,0.03929
7051.78,0.03392
7045.99,0.03527
7040.2,0.04071
7034.42,0.03450
7028.63,0.02594
7022.84,0.03867
7017.06,0.03177
7011.27,0.02945
7005.48,0.02951
6999.7,0.03888
6993.91,0.03081
6988.12,0.03269
6982.34,0.03116
6976.55,0.03622
6970.76,0.03163
6964.98,0.03197
6959.19,0.02797
6953.41,0.03188
6947.62,0.02844
6941.83,0.03785
6936.05,0.03844
6930.26,0.03319
6924.47,0.03504
6918.69,0.03631
6912.9,0.03419
6907.11,0.03321
6901.33,0.02804
6895.54,0.03301
6889.75,0.03316
6883.97,0.03013
6878.18,0.03806
6872.39,0.03688
6866.61,0.03150
6860.82,0.03414
6855.04,0.03122
6849.25,0.02696
6843.46,0.03054
6837.68,0.03156
6831.89,0.03240
6826.1,0.03329
6820.32,0.03047
6814.53,0.03326
6808.74,0.03600
6802.96,0.02548
6797.17,0.03526
6791.38,0.02934
6785.6,0.02916
6779.81,0.03258
6774.03,0.02745
6768.24,0.03346
6762.45,0.03846
6756.67,0.03700
6750.88,0.03254
6745.09,0.03675
6739.31,0.03623
6733.52,0.03593
6727.73,0.03214
6721.95,0.03097
6716.16,0.03387
6710.37,0.03444
6704.59,0.03244
6698.8,0.04024
6693.01,0.03338
6687.23,0.03387
6681.44,0.03420
6675.66,0.03179
6669.87,0.03348
6664.08,0.03164
6658.3,0.03738
6652.51,0.03813
6646.72,0.02783
6640.94,0.02953
6635.15,0.02722
6629.36,0.03285
6623.58,0.03428
6617.79,0.03033
6612,0.02937
6606.22,0.02905
6600.43,0.03374
6594.64,0.03257
6588.86,0.02719
6583.07,0.02861
6577.29,0.03091
6571.5,0.02643
6565.71,0.02948
6559.93,0.03208
6554.14,0.03248
6548.35,0.02959
6542.57,0.02990
6536.78,0.03436
6530.99,0.03021
6525.21,0.02775
6519.42,0.02994
6513.63,0.03349
6507.85,0.03179
6502.06,0.03034
6496.27,0.03184
6490.49,0.02916
6484.7,0.03231
6478.92,0.02840
6473.13,0.03348
6467.34,0.02554
6461.56,0.03066
6455.77,0.03324
6449.98,0.03312
6444.2,0.03077
6438.41,0.03241
6432.62,0.03059
6426.84,0.03662
6421.05,0.02773
6415.26,0.03133
6409.48,0.03003
6403.69,0.02808
6397.9,0.03460
6392.12,0.03560
6386.33,0.03051
6380.55,0.03175
6374.76,0.02896
6368.97,0.02594
6363.19,0.03422
6357.4,0.03168
6351.61,0.03303
6345.83,0.03361
6340.04,0.03348
6334.25,0.02940
6328.47,0.03123
6322.68,0.02912
6316.89,0.03027
6311.11,0.02913
6305.32,0.02778
6299.53,0.02735
6293.75,0.02937
6287.96,0.03153
6282.18,0.02964
6276.39,0.02899
6270.6,0.02942
6264.82,0.02972
6259.03,0.02979
6253.24,0.03063
6247.46,0.02966
6241.67,0.02974
6235.88,0.02895
6230.1,0.03009
6224.31,0.03031
6218.52,0.03161
6212.74,0.03074
6206.95,0.03440
6201.16,0.02996
6195.38,0.03368
6189.59,0.02617
6183.81,0.03327
6178.02,0.03064
6172.23,0.02632
6166.45,0.02734
6160.66,0.03099
6154.87,0.03041
6149.09,0.03027
6143.3,0.02836
6137.51,0.03237
6131.73,0.02992
6125.94,0.03076
6120.15,0.03464
6114.37,0.03064
6108.58,0.03029
6102.79,0.03112
6097.01,0.02982
6091.22,0.03206
6085.44,0.02854
6079.65,0.02503
6073.86,0.03117
6068.08,0.03274
6062.29,0.03151
6056.5,0.02990
6050.72,0.02938
6044.93,0.02999
6039.14,0.03407
6033.36,0.03151
6027.57,0.02931
6021.78,0.03108
6016,0.03156
6010.21,0.03231
6004.42,0.02935
5998.64,0.02833
5992.85,0.03329
5987.07,0.03334
5981.28,0.02816
5975.49,0.02939
5969.71,0.03111
5963.92,0.03030
5958.13,0.02808
5952.35,0.03160
5946.56,0.02886
5940.77,0.02842
5934.99,0.03057
5929.2,0.02763
5923.41,0.03265
5917.63,0.02869
5911.84,0.02898
5906.05,0.03118
5900.27,0.02813
5894.48,0.03299
5888.7,0.03074
5882.91,0.03263
5877.12,0.03053
5871.34,0.03104
5865.55,0.03204
5859.76,0.03315
5853.98,0.02795
5848.19,0.02859
5842.4,0.03010
5836.62,0.02988
5830.83,0.03059
5825.04,0.03255
5819.26,0.03078
5813.47,0.03073
5807.68,0.03044
5801.9,0.03405
5796.11,0.03391
5790.33,0.03135
5784.54,0.03181
5778.75,0.03108
5772.97,0.03173
5767.18,0.03271
5761.39,0.03007
5755.61,0.02878
5749.82,0.03047
5744.03,0.03472
5738.25,0.03041
5732.46,0.03237
5726.67,0.03103
5720.89,0.03143
5715.1,0.02834
5709.31,0.03064
5703.53,0.03294
5697.74,0.02939
5691.96,0.02915
5686.17,0.02915
5680.38,0.02926
5674.6,0.02821
5668.81,0.02893
5663.02,0.02976
5657.24,0.02918
5651.45,0.02655
5645.66,0.03222
5639.88,0.02922
5634.09,0.03238
5628.3,0.03051
5622.52,0.02940
5616.73,0.03099
5610.94,0.03293
5605.16,0.03207
5599.37,0.03072
5593.59,0.03235
5587.8,0.03258
5582.01,0.03104
5576.23,0.03055
5570.44,0.02902
5564.65,0.03061
5558.87,0.03248
5553.08,0.03018
5547.29,0.02903
5541.51,0.03005
5535.72,0.03132
5529.93,0.02991
5524.15,0.03141
5518.36,0.03079
5512.58,0.03004
5506.79,0.03119
5501,0.03209
5495.22,0.02943
5489.43,0.03042
5483.64,0.03248
5477.86,0.03081
5472.07,0.02991
5466.28,0.02897
5460.5,0.03027
5454.71,0.03236
5448.92,0.03162
5443.14,0.02919
5437.35,0.03202
5431.56,0.02997
5425.78,0.02889
5419.99,0.03186
5414.21,0.03184
5408.42,0.03089
5402.63,0.03158
5396.85,0.03308
5391.06,0.03320
5385.27,0.03048
5379.49,0.03211
5373.7,0.03180
5367.91,0.03047
5362.13,0.02854
5356.34,0.02973
5350.55,0.03240
5344.77,0.03097
5338.98,0.02848
5333.19,0.02991
5327.41,0.03182
5321.62,0.03126
5315.84,0.03020
5310.05,0.03088
5304.26,0.02805
5298.48,0.03122
5292.69,0.03011
5286.9,0.03239
5281.12,0.03212
5275.33,0.03077
5269.54,0.02971
5263.76,0.03210
5257.97,0.03277
5252.18,0.03043
5246.4,0.02978
5240.61,0.02931
5234.82,0.03119
5229.04,0.03017
5223.25,0.03167
5217.47,0.02964
5211.68,0.03020
5205.89,0.02868
5200.11,0.02968
5194.32,0.03188
5188.53,0.03112
5182.75,0.03038
5176.96,0.03158
5171.17,0.03025
5165.39,0.02804
5159.6,0.02990
5153.81,0.03068
5148.03,0.03005
5142.24,0.02929
5136.45,0.03156
5130.67,0.03160
5124.88,0.03087
5119.1,0.03116
5113.31,0.03080
5107.52,0.03156
5101.74,0.03044
5095.95,0.03365
5090.16,0.03233
5084.38,0.03072
5078.59,0.03103
5072.8,0.03008
5067.02,0.03028
5061.23,0.03080
5055.44,0.03155
5049.66,0.03257
5043.87,0.03051
5038.08,0.02994
5032.3,0.03191
5026.51,0.02963
5020.73,0.03027
5014.94,0.03018
5009.15,0.03249
5003.37,0.03114
4997.58,0.03154
4991.79,0.02994
4986.01,0.03123
4980.22,0.03089
4974.43,0.03093
4968.65,0.03139
4962.86,0.03004
4957.07,0.03037
4951.29,0.03107
4945.5,0.03195
4939.71,0.03083
4933.93,0.03029
4928.14,0.02946
4922.36,0.02890
4916.57,0.03106
4910.78,0.03193
4905,0.03159
4899.21,0.03104
4893.42,0.03096
4887.64,0.03054
4881.85,0.03144
4876.06,0.03102
4870.28,0.03153
4864.49,0.03004
4858.7,0.03078
4852.92,0.03097
4847.13,0.03012
4841.34,0.03091
4835.56,0.03112
4829.77,0.03069
4823.99,0.03004
4818.2,0.03201
4812.41,0.02965
4806.63,0.03147
4800.84,0.03100
4795.05,0.03045
4789.27,0.03017
4783.48,0.03187
4777.69,0.03180
4771.91,0.03102
4766.12,0.03093
4760.33,0.03009
4754.55,0.03078
4748.76,0.03116
4742.97,0.03056
4737.19,0.03138
4731.4,0.03107
4725.62,0.02997
4719.83,0.03083
4714.04,0.03062
4708.26,0.03054
4702.47,0.03107
4696.68,0.03128
4690.9,0.03232
4685.11,0.03054
4679.32,0.02992
4673.54,0.03098
4667.75,0.03068
4661.96,0.03135
4656.18,0.03131
4650.39,0.03080
4644.6,0.03053
4638.82,0.03106
4633.03,0.03001
4627.25,0.03016
4621.46,0.03169
4615.67,0.03147
4609.89,0.03078
4604.1,0.02984
4598.31,0.03027
4592.53,0.03054
4586.74,0.03079
4580.95,0.03079
4575.17,0.03111
4569.38,0.03072
4563.59,0.03085
4557.81,0.03060
4552.02,0.03073
4546.23,0.03139
4540.45,0.03022
4534.66,0.03080
4528.88,0.03110
4523.09,0.03102
4517.3,0.03060
4511.52,0.03105
4505.73,0.03176
4499.94,0.03055
4494.16,0.03081
4488.37,0.03037
4482.58,0.03112
4476.8,0.03057
4471.01,0.03067
4465.22,0.03115
4459.44,0.03094
4453.65,0.03119
4447.86,0.03143
4442.08,0.03088
4436.29,0.03051
4430.51,0.03138
4424.72,0.03119
4418.93,0.03066
4413.15,0.03070
4407.36,0.03026
4401.57,0.02989
4395.79,0.03100
4390,0.03081
4384.21,0.03106
4378.43,0.03061
4372.64,0.03012
4366.85,0.03099
4361.07,0.03086
4355.28,0.03018
4349.49,0.02945
4343.71,0.03047
4337.92,0.03097
4332.14,0.03096
4326.35,0.02995
4320.56,0.03032
4314.78,0.03019
4308.99,0.03016
4303.2,0.03135
4297.42,0.03049
4291.63,0.03093
4285.84,0.03083
4280.06,0.03027
4274.27,0.03082
4268.48,0.03116
4262.7,0.03099
4256.91,0.03023
4251.13,0.03178
4245.34,0.03078
4239.55,0.03074
4233.77,0.03088
4227.98,0.03014
4222.19,0.03032
4216.41,0.03069
4210.62,0.03069
4204.83,0.03031
4199.05,0.02995
4193.26,0.03051
4187.47,0.03013
4181.69,0.03086
4175.9,0.03026
4170.11,0.03008
4164.33,0.03091
4158.54,0.03017
4152.76,0.03114
4146.97,0.02984
4141.18,0.03018
4135.4,0.03048
4129.61,0.03114
4123.82,0.03089
4118.04,0.03121
4112.25,0.03061
4106.46,0.03032
4100.68,0.03026
4094.89,0.03039
4089.1,0.03036
4083.32,0.03047
4077.53,0.02977
4071.74,0.03043
4065.96,0.02955
4060.17,0.02990
4054.39,0.02971
4048.6,0.03051
4042.81,0.03080
4037.03,0.02963
4031.24,0.03065
4025.45,0.03094
4019.67,0.03096
4013.88,0.03045
4008.09,0.03033
4002.31,0.03007
3996.52,0.03048
3990.73,0.03104
3984.95,0.03044
3979.16,0.03009
3973.37,0.03087
3967.59,0.03018
3961.8,0.02993
3956.02,0.03069
3950.23,0.03066
3944.44,0.03027
3938.66,0.03018
3932.87,0.03061
3927.08,0.03037
3921.3,0.03039
3915.51,0.03048
3909.72,0.03066
3903.94,0.03140
3898.15,0.03083
3892.36,0.03116
3886.58,0.03081
3880.79,0.03007
3875,0.03081
3869.22,0.03136
3863.43,0.03038
3857.65,0.03040
3851.86,0.03106
3846.07,0.03056
3840.29,0.03186
3834.5,0.03062
3828.71,0.03077
3822.93,0.03123
3817.14,0.03024
3811.35,0.03068
3805.57,0.03020
3799.78,0.03023
3793.99,0.03065
3788.21,0.03032
3782.42,0.03010
3776.63,0.03058
3770.85,0.03108
3765.06,0.02973
3759.28,0.03104
3753.49,0.03103
3747.7,0.03052
3741.92,0.03049
3736.13,0.03206
3730.34,0.03048
3724.56,0.03119
3718.77,0.03055
3712.98,0.02959
3707.2,0.03005
3701.41,0.02991
3695.62,0.02945
3689.84,0.02905
3684.05,0.02932
3678.26,0.03053
3672.48,0.02899
3666.69,0.02935
3660.91,0.03008
3655.12,0.02996
3649.33,0.02938
3643.55,0.02895
3637.76,0.02814
3631.97,0.02936
3626.19,0.02852
3620.4,0.02815
3614.61,0.02806
3608.83,0.02873
3603.04,0.02871
3597.25,0.02755
3591.47,0.02878
3585.68,0.02766
3579.89,0.02743
3574.11,0.02799
3568.32,0.02835
3562.54,0.02766
3556.75,0.02702
3550.96,0.02751
3545.18,0.02779
3539.39,0.02743
3533.6,0.02714
3527.82,0.02786
3522.03,0.02693
3516.24,0.02637
3510.46,0.02721
3504.67,0.02694
3498.88,0.02680
3493.1,0.02721
3487.31,0.02724
3481.52,0.02779
3475.74,0.02755
3469.95,0.02709
3464.17,0.02667
3458.38,0.02752
3452.59,0.02638
3446.81,0.02704
3441.02,0.02665
3435.23,0.02688
3429.45,0.02660
3423.66,0.02798
3417.87,0.02654
3412.09,0.02724
3406.3,0.02651
3400.51,0.02632
3394.73,0.02662
3388.94,0.02660
3383.15,0.02582
3377.37,0.02635
3371.58,0.02685
3365.8,0.02610
3360.01,0.02606
3354.22,0.02671
3348.44,0.02665
3342.65,0.02625
3336.86,0.02668
3331.08,0.02636
3325.29,0.02622
3319.5,0.02684
3313.72,0.02696
3307.93,0.02631
3302.14,0.02669
3296.36,0.02719
3290.57,0.02697
3284.78,0.02601
3279,0.02663
3273.21,0.02694
3267.43,0.02663
3261.64,0.02751
3255.85,0.02729
3250.07,0.02649
3244.28,0.02676
3238.49,0.02648
3232.71,0.02646
3226.92,0.02718
3221.13,0.02737
3215.35,0.02734
3209.56,0.02649
3203.77,0.02754
3197.99,0.02744
3192.2,0.02730
3186.41,0.02748
3180.63,0.02718
3174.84,0.02817
3169.06,0.02771
3163.27,0.02765
3157.48,0.02705
3151.7,0.02697
3145.91,0.02786
3140.12,0.02675
3134.34,0.02707
3128.55,0.02704
3122.76,0.02761
3116.98,0.02735
3111.19,0.02731
3105.4,0.02716
3099.62,0.02687
3093.83,0.02786
3088.05,0.02753
3082.26,0.02709
3076.47,0.02685
3070.69,0.02772
3064.9,0.02688
3059.11,0.02718
3053.33,0.02715
3047.54,0.02714
3041.75,0.02770
3035.97,0.02761
3030.18,0.02654
3024.39,0.02714
3018.61,0.02753
3012.82,0.02723
3007.03,0.02679
3001.25,0.02690
2995.46,0.02686
2989.68,0.02667
2983.89,0.02659
2978.1,0.02644
2972.32,0.02625
2966.53,0.02601
2960.74,0.02570
2954.96,0.02608
2949.17,0.02626
2943.38,0.02583
2937.6,0.02586
2931.81,0.02577
2926.02,0.02634
2920.24,0.02583
2914.45,0.02658
2908.66,0.02706
2902.88,0.02644
2897.09,0.02635
2891.31,0.02712
2885.52,0.02678
2879.73,0.02717
2873.95,0.02699
2868.16,0.02699
2862.37,0.02692
2856.59,0.02657
2850.8,0.02669
2845.01,0.02740
2839.23,0.02744
2833.44,0.02722
2827.65,0.02765
2821.87,0.02783
2816.08,0.02765
2810.29,0.02759
2804.51,0.02740
2798.72,0.02785
2792.94,0.02756
2787.15,0.02786
2781.36,0.02786
2775.58,0.02768
2769.79,0.02794
2764,0.02757
2758.22,0.02784
2752.43,0.02811
2746.64,0.02752
2740.86,0.02780
2735.07,0.02781
2729.28,0.02792
2723.5,0.02819
2717.71,0.02813
2711.92,0.02800
2706.14,0.02793
2700.35,0.02759
2694.57,0.02725
2688.78,0.02746
2682.99,0.02788
2677.21,0.02782
2671.42,0.02778
2665.63,0.02759
2659.85,0.02728
2654.06,0.02745
2648.27,0.02777
2642.49,0.02708
2636.7,0.02731
2630.91,0.02728
2625.13,0.02753
2619.34,0.02787
2613.55,0.02806
2607.77,0.02780
2601.98,0.02744
2596.2,0.02793
2590.41,0.02779
2584.62,0.02770
2578.84,0.02738
2573.05,0.02773
2567.26,0.02790
2561.48,0.02736
2555.69,0.02770
2549.9,0.02776
2544.12,0.02761
2538.33,0.02740
2532.54,0.02788
2526.76,0.02743
2520.97,0.02748
2515.18,0.02745
2509.4,0.02792
2503.61,0.02803
2497.83,0.02747
2492.04,0.02772
2486.25,0.02753
2480.47,0.02752
2474.68,0.02780
2468.89,0.02734
2463.11,0.02786
2457.32,0.02744
2451.53,0.02765
2445.75,0.02762
2439.96,0.02754
2434.17,0.02751
2428.39,0.02709
2422.6,0.02728
2416.81,0.02743
2411.03,0.02730
2405.24,0.02765
2399.46,0.02741
2393.67,0.02802
2387.88,0.02731
2382.1,0.02747
2376.31,0.02740
2370.52,0.02796
2364.74,0.02833
2358.95,0.02744
2353.16,0.02803
2347.38,0.02700
2341.59,0.02774
2335.8,0.02761
2330.02,0.02672
2324.23,0.02737
2318.44,0.02708
2312.66,0.02718
2306.87,0.02700
2301.09,0.02723
2295.3,0.02740
2289.51,0.02730
2283.73,0.02703
2277.94,0.02666
2272.15,0.02698
2266.37,0.02706
2260.58,0.02691
2254.79,0.02691
2249.01,0.02673
2243.22,0.02685
2237.43,0.02666
2231.65,0.02670
2225.86,0.02694
2220.07,0.02676
2214.29,0.02663
2208.5,0.02659
2202.72,0.02705
2196.93,0.02682
2191.14,0.02702
2185.36,0.02688
2179.57,0.02660
2173.78,0.02660
2168,0.02651
2162.21,0.02656
2156.42,0.02676
2150.64,0.02672
2144.85,0.02620
2139.06,0.02631
2133.28,0.02670
2127.49,0.02643
2121.7,0.02646
2115.92,0.02662
2110.13,0.02631
2104.35,0.02666
2098.56,0.02626
2092.77,0.02640
2086.99,0.02675
2081.2,0.02593
2075.41,0.02664
2069.63,0.02652
2063.84,0.02649
2058.05,0.02655
2052.27,0.02613
2046.48,0.02616
2040.69,0.02622
2034.91,0.02647
2029.12,0.02649
2023.33,0.02633
2017.55,0.02636
2011.76,0.02634
2005.98,0.02656
2000.19,0.02644
1994.4,0.02625
1988.62,0.02619
1982.83,0.02630
1977.04,0.02614
1971.26,0.02626
1965.47,0.02639
1959.68,0.02621
1953.9,0.02588
1948.11,0.02622
1942.32,0.02584
1936.54,0.02604
1930.75,0.02583
1924.96,0.02602
1919.18,0.02582
1913.39,0.02575
1907.61,0.02591
1901.82,0.02615
1896.03,0.02548
1890.25,0.02560
1884.46,0.02550
1878.67,0.02562
1872.89,0.02574
1867.1,0.02563
1861.31,0.02569
1855.53,0.02545
1849.74,0.02523
1843.95,0.02547
1838.17,0.02500
1832.38,0.02507
1826.6,0.02479
1820.81,0.02505
1815.02,0.02490
1809.24,0.02450
1803.45,0.02468
1797.66,0.02458
1791.88,0.02407
1786.09,0.02407
1780.3,0.02371
1774.52,0.02402
1768.73,0.02321
1762.94,0.02310
1757.16,0.02264
1751.37,0.02175
1745.58,0.02228
1739.8,0.02286
1734.01,0.02347
1728.23,0.02476
1722.44,0.02518
1716.65,0.02500
1710.87,0.02429
1705.08,0.02441
1699.29,0.02483
1693.51,0.02275
1687.72,0.02300
1681.93,0.02276
1676.15,0.02231
1670.36,0.02228
1664.57,0.02230
1658.79,0.02250
1653,0.02335
1647.21,0.02252
1641.43,0.02249
1635.64,0.02172
1629.86,0.02186
1624.07,0.02247
1618.28,0.02249
1612.5,0.02272
1606.71,0.02260
1600.92,0.02267
1595.14,0.02274
1589.35,0.02187
1583.56,0.02191
1577.78,0.02234
1571.99,0.02179
1566.2,0.02192
1560.42,0.02237
1554.63,0.02209
1548.84,0.02194
1543.06,0.02283
1537.27,0.02219
1531.49,0.02297
1525.7,0.02281
1519.91,0.02194
1514.13,0.02206
1508.34,0.02300
1502.55,0.02260
1496.77,0.02291
1490.98,0.02223
1485.19,0.02224
1479.41,0.02208
1473.62,0.02248
1467.83,0.02159
1462.05,0.02198
1456.26,0.02139
1450.47,0.02211
1444.69,0.02200
1438.9,0.02201
1433.12,0.02160
1427.33,0.02207
1421.54,0.02166
1415.76,0.02152
1409.97,0.02157
1404.18,0.02130
1398.4,0.02124
1392.61,0.02154
1386.82,0.02120
1381.04,0.02099
1375.25,0.02124
1369.46,0.02115
1363.68,0.02089
1357.89,0.02095
1352.1,0.02089
1346.32,0.02091
1340.53,0.02083
1334.75,0.02024
1328.96,0.02041
1323.17,0.02039
1317.39,0.02032
1311.6,0.02034
1305.81,0.02008
1300.03,0.02031
1294.24,0.02053
1288.45,0.02101
1282.67,0.02168
1276.88,0.02192
1271.09,0.02197
1265.31,0.02188
1259.52,0.02240
1253.73,0.02294
1247.95,0.02299
1242.16,0.02275
1236.38,0.02254
1230.59,0.02237
1224.8,0.02254
1219.02,0.02190
1213.23,0.02174
1207.44,0.02172
1201.66,0.02109
1195.87,0.02178
1190.08,0.02110
1184.3,0.02132
1178.51,0.02126
1172.72,0.02086
1166.94,0.02049
1161.15,0.02017
1155.36,0.02047
1149.58,0.02008
1143.79,0.02036
1138.01,0.02066
1132.22,0.02104
1126.43,0.02066
1120.65,0.02203
1114.86,0.02170
1109.07,0.02182
1103.29,0.02218
1097.5,0.02181
1091.71,0.02150
1085.93,0.02186
1080.14,0.02311
1074.35,0.02278
1068.57,0.02377
1062.78,0.02508
1056.99,0.02409
1051.21,0.02422
1045.42,0.02406
1039.64,0.02437
1033.85,0.02390
1028.06,0.02265
1022.28,0.02238
1016.49,0.02275
1010.7,0.02432
1004.92,0.02414
999.13,0.02467
993.344,0.02452
987.557,0.02417
981.771,0.02392
975.984,0.02435
970.198,0.02410
964.411,0.02358
958.625,0.02342
952.838,0.02372
947.052,0.02325
941.265,0.02272
935.479,0.02279
929.692,0.02265
923.906,0.02279
918.12,0.02287
912.333,0.02241
906.547,0.02255
900.76,0.02228
894.974,0.02245
889.187,0.02365
883.401,0.02218
877.614,0.02167
871.828,0.02185
866.041,0.02157
860.255,0.02281
854.468,0.02236
848.682,0.02247
842.895,0.02200
837.109,0.02185
831.323,0.02189
825.536,0.02173
819.75,0.02245
813.963,0.02216
808.177,0.02139
802.39,0.02143
796.604,0.02052
790.817,0.02176
785.031,0.02093
779.244,0.02008
773.458,0.02110
767.671,0.02118
761.885,0.02029
756.098,0.02014
750.312,0.02097
744.526,0.02090
738.739,0.01949
732.953,0.01976
727.166,0.01995
721.38,0.01999
715.593,0.01945
709.807,0.02006
704.02,0.01943
698.234,0.01969
692.447,0.01867
686.661,0.01931
680.874,0.01924
675.088,0.01836
669.301,0.01800
663.515,0.01899
657.729,0.01832
651.942,0.01859
646.156,0.01761
640.369,0.01828
634.583,0.01918
628.796,0.01812
623.01,0.01809
617.223,0.01909
611.437,0.01838
605.65,0.01833
599.864,0.02072