File: 01_Data/PEVA/FTIR/IS/PEVA_0.18_IS_Trans_S_240819_R7.dpt
7496.91,0.94234
7491.12,0.92651
7485.33,0.92101
7479.55,0.93377
7473.76,0.92992
7467.98,0.95697
7462.19,0.94191
7456.4,0.94028
7450.62,0.94574
7444.83,0.95154
7439.04,0.92583
7433.26,0.92743
7427.47,0.91698
7421.69,0.93276
7415.9,0.93614
7410.11,0.92527
7404.33,0.91986
7398.54,0.93788
7392.76,0.94579
7386.97,0.94107
7381.18,0.92091
7375.4,0.92320
7369.61,0.92492
7363.83,0.92122
7358.04,0.93312
7352.25,0.92091
7346.47,0.93370
7340.68,0.92360
7334.89,0.93124
7329.11,0.92336
7323.32,0.93030
7317.54,0.92064
7311.75,0.92010
7305.96,0.92171
7300.18,0.92151
7294.39,0.92761
7288.61,0.91126
7282.82,0.92074
7277.03,0.93062
7271.25,0.93806
7265.46,0.91227
7259.67,0.93185
7253.89,0.92765
7248.1,0.92829
7242.32,0.91875
7236.53,0.92198
7230.74,0.89892
7224.96,0.91440
7219.17,0.91559
7213.39,0.91551
7207.6,0.90500
7201.81,0.91008
7196.03,0.91653
7190.24,0.91766
7184.45,0.91441
7178.67,0.91027
7172.88,0.91588
7167.1,0.90013
7161.31,0.90308
7155.52,0.91198
7149.74,0.93305
7143.95,0.91626
7138.17,0.91217
7132.38,0.92245
7126.59,0.91772
7120.81,0.91851
7115.02,0.91738
7109.23,0.91745
7103.45,0.91557
7097.66,0.89920
7091.88,0.91267
7086.09,0.91714
7080.3,0.90566
7074.52,0.91922
7068.73,0.90941
7062.95,0.92197
7057.16,0.92179
7051.37,0.92774
7045.59,0.90262
7039.8,0.91496
7034.02,0.91761
7028.23,0.92967
7022.44,0.93713
7016.66,0.91731
7010.87,0.91948
7005.08,0.91100
6999.3,0.92650
6993.51,0.91964
6987.73,0.92380
6981.94,0.91525
6976.15,0.91730
6970.37,0.92638
6964.58,0.91902
6958.8,0.91699
6953.01,0.92275
6947.22,0.91993
6941.44,0.92293
6935.65,0.92405
6929.86,0.92346
6924.08,0.92581
6918.29,0.91857
6912.51,0.92460
6906.72,0.92719
6900.93,0.92375
6895.15,0.92619
6889.36,0.92884
6883.58,0.92002
6877.79,0.91736
6872,0.92813
6866.22,0.93690
6860.43,0.92162
6854.64,0.92409
6848.86,0.92032
6843.07,0.92753
6837.29,0.93242
6831.5,0.93166
6825.71,0.93229
6819.93,0.92622
6814.14,0.93302
6808.36,0.93097
6802.57,0.92892
6796.78,0.92842
6791,0.94423
6785.21,0.92887
6779.43,0.93350
6773.64,0.92094
6767.85,0.93635
6762.07,0.92881
6756.28,0.92155
6750.49,0.93024
6744.71,0.92803
6738.92,0.93282
6733.14,0.92676
6727.35,0.93699
6721.56,0.93125
6715.78,0.92475
6709.99,0.93395
6704.21,0.92120
6698.42,0.93169
6692.63,0.92844
6686.85,0.93159
6681.06,0.93394
6675.27,0.93081
6669.49,0.93882
6663.7,0.93821
6657.92,0.93885
6652.13,0.93641
6646.34,0.93414
6640.56,0.92995
6634.77,0.93147
6628.99,0.93244
6623.2,0.92861
6617.41,0.93645
6611.63,0.93604
6605.84,0.93615
6600.05,0.93160
6594.27,0.93115
6588.48,0.93456
6582.7,0.93620
6576.91,0.93108
6571.12,0.92857
6565.34,0.93490
6559.55,0.92564
6553.77,0.93965
6547.98,0.93913
6542.19,0.93491
6536.41,0.93420
6530.62,0.93743
6524.84,0.93590
6519.05,0.93047
6513.26,0.93043
6507.48,0.93302
6501.69,0.94039
6495.9,0.94197
6490.12,0.93105
6484.33,0.93118
6478.55,0.93488
6472.76,0.92962
6466.97,0.93592
6461.19,0.93987
6455.4,0.93233
6449.62,0.93358
6443.83,0.93311
6438.04,0.93311
6432.26,0.94222
6426.47,0.93639
6420.68,0.94195
6414.9,0.93392
6409.11,0.93935
6403.33,0.94224
6397.54,0.93699
6391.75,0.93382
6385.97,0.93148
6380.18,0.93232
6374.4,0.93350
6368.61,0.93081
6362.82,0.93680
6357.04,0.94078
6351.25,0.93521
6345.46,0.93282
6339.68,0.93140
6333.89,0.93126
6328.11,0.93357
6322.32,0.93177
6316.53,0.93528
6310.75,0.93707
6304.96,0.93320
6299.18,0.93768
6293.39,0.93663
6287.6,0.93767
6281.82,0.93754
6276.03,0.93971
6270.24,0.93537
6264.46,0.93579
6258.67,0.94305
6252.89,0.93543
6247.1,0.93141
6241.31,0.93457
6235.53,0.93925
6229.74,0.93820
6223.96,0.93627
6218.17,0.93910
6212.38,0.93508
6206.6,0.93520
6200.81,0.93071
6195.03,0.92869
6189.24,0.93013
6183.45,0.93437
6177.67,0.93590
6171.88,0.93343
6166.09,0.92889
6160.31,0.93439
6154.52,0.93115
6148.74,0.93003
6142.95,0.93036
6137.16,0.93245
6131.38,0.93743
6125.59,0.92992
6119.81,0.92863
6114.02,0.92886
6108.23,0.93227
6102.45,0.93284
6096.66,0.93021
6090.87,0.93036
6085.09,0.93211
6079.3,0.92638
6073.52,0.92626
6067.73,0.92332
6061.94,0.92878
6056.16,0.92849
6050.37,0.92768
6044.59,0.92449
6038.8,0.92350
6033.01,0.92376
6027.23,0.91974
6021.44,0.92251
6015.65,0.92559
6009.87,0.92242
6004.08,0.91935
5998.3,0.92102
5992.51,0.91705
5986.72,0.91429
5980.94,0.92263
5975.15,0.91312
5969.37,0.91525
5963.58,0.91723
5957.79,0.91426
5952.01,0.91416
5946.22,0.91484
5940.44,0.91351
5934.65,0.90988
5928.86,0.90883
5923.08,0.90663
5917.29,0.90892
5911.5,0.90841
5905.72,0.90613
5899.93,0.90138
5894.15,0.90036
5888.36,0.90173
5882.57,0.89514
5876.79,0.88797
5871,0.87847
5865.22,0.87087
5859.43,0.86773
5853.64,0.85772
5847.86,0.84801
5842.07,0.83953
5836.28,0.83512
5830.5,0.82345
5824.71,0.81558
5818.93,0.80387
5813.14,0.79629
5807.35,0.78836
5801.57,0.77694
5795.78,0.76717
5790,0.74974
5784.21,0.73151
5778.42,0.71450
5772.64,0.71598
5766.85,0.74676
5761.06,0.78084
5755.28,0.80421
5749.49,0.82036
5743.71,0.83361
5737.92,0.84386
5732.13,0.84701
5726.35,0.85184
5720.56,0.85679
5714.78,0.85482
5708.99,0.85532
5703.2,0.84815
5697.42,0.84293
5691.63,0.83821
5685.84,0.83152
5680.06,0.82765
5674.27,0.81978
5668.49,0.81331
5662.7,0.81054
5656.91,0.82577
5651.13,0.83997
5645.34,0.85118
5639.56,0.85327
5633.77,0.85804
5627.98,0.86540
5622.2,0.86647
5616.41,0.86861
5610.63,0.87158
5604.84,0.87170
5599.05,0.87223
5593.27,0.87534
5587.48,0.87313
5581.69,0.87526
5575.91,0.87359
5570.12,0.87222
5564.34,0.87233
5558.55,0.87095
5552.76,0.86785
5546.98,0.86756
5541.19,0.87297
5535.41,0.86981
5529.62,0.87074
5523.83,0.87076
5518.05,0.87310
5512.26,0.87453
5506.47,0.86758
5500.69,0.87194
5494.9,0.86377
5489.12,0.86305
5483.33,0.87594
5477.54,0.86957
5471.76,0.87101
5465.97,0.87034
5460.19,0.86878
5454.4,0.87538
5448.61,0.87032
5442.83,0.86580
5437.04,0.87244
5431.25,0.86763
5425.47,0.87547
5419.68,0.88475
5413.9,0.86664
5408.11,0.87526
5402.32,0.88882
5396.54,0.87994
5390.75,0.88571
5384.97,0.88221
5379.18,0.88562
5373.39,0.88367
5367.61,0.89362
5361.82,0.89389
5356.04,0.88551
5350.25,0.88294
5344.46,0.87621
5338.68,0.87745
5332.89,0.88919
5327.1,0.88905
5321.32,0.89966
5315.53,0.89689
5309.75,0.89613
5303.96,0.89557
5298.17,0.89980
5292.39,0.89499
5286.6,0.89433
5280.82,0.89460
5275.03,0.89921
5269.24,0.89392
5263.46,0.88137
5257.67,0.89388
5251.88,0.89365
5246.1,0.88401
5240.31,0.89742
5234.53,0.89576
5228.74,0.89100
5222.95,0.89055
5217.17,0.89639
5211.38,0.89750
5205.6,0.88611
5199.81,0.89904
5194.02,0.89978
5188.24,0.89515
5182.45,0.89690
5176.66,0.89821
5170.88,0.89709
5165.09,0.89845
5159.31,0.89655
5153.52,0.89817
5147.73,0.89887
5141.95,0.89927
5136.16,0.90128
5130.38,0.90078
5124.59,0.90312
5118.8,0.90278
5113.02,0.90232
5107.23,0.90272
5101.45,0.90359
5095.66,0.90197
5089.87,0.90568
5084.09,0.90424
5078.3,0.90676
5072.51,0.90487
5066.73,0.90413
5060.94,0.90693
5055.16,0.90540
5049.37,0.90529
5043.58,0.90577
5037.8,0.90651
5032.01,0.90736
5026.23,0.90574
5020.44,0.90548
5014.65,0.90655
5008.87,0.90584
5003.08,0.90400
4997.29,0.90350
4991.51,0.90383
4985.72,0.90356
4979.94,0.90275
4974.15,0.90204
4968.36,0.90029
4962.58,0.90014
4956.79,0.90316
4951.01,0.90461
4945.22,0.90591
4939.43,0.90511
4933.65,0.90648
4927.86,0.90708
4922.07,0.90625
4916.29,0.90750
4910.5,0.90798
4904.72,0.90687
4898.93,0.90719
4893.14,0.90789
4887.36,0.90649
4881.57,0.90557
4875.79,0.90608
4870,0.90628
4864.21,0.90504
4858.43,0.90737
4852.64,0.90814
4846.85,0.90805
4841.07,0.90849
4835.28,0.90869
4829.5,0.90890
4823.71,0.90824
4817.92,0.90955
4812.14,0.91203
4806.35,0.91199
4800.57,0.91183
4794.78,0.91189
4788.99,0.91210
4783.21,0.91081
4777.42,0.91079
4771.64,0.91099
4765.85,0.90970
4760.06,0.90837
4754.28,0.91026
4748.49,0.91054
4742.7,0.90898
4736.92,0.90981
4731.13,0.91062
4725.35,0.91076
4719.56,0.90941
4713.77,0.90917
4707.99,0.90945
4702.2,0.90685
4696.42,0.90525
4690.63,0.90705
4684.84,0.90305
4679.06,0.89921
4673.27,0.89851
4667.48,0.90181
4661.7,0.90388
4655.91,0.90513
4650.13,0.90759
4644.34,0.90964
4638.55,0.90858
4632.77,0.90993
4626.98,0.91189
4621.2,0.91147
4615.41,0.91070
4609.62,0.91179
4603.84,0.91110
4598.05,0.90956
4592.26,0.91020
4586.48,0.91010
4580.69,0.91017
4574.91,0.91057
4569.12,0.91037
4563.33,0.90992
4557.55,0.90826
4551.76,0.90667
4545.98,0.90825
4540.19,0.90658
4534.4,0.90474
4528.62,0.90361
4522.83,0.90185
4517.05,0.89856
4511.26,0.89731
4505.47,0.89513
4499.69,0.89268
4493.9,0.88889
4488.11,0.88629
4482.33,0.88360
4476.54,0.87931
4470.76,0.87309
4464.97,0.86985
4459.18,0.86437
4453.4,0.85558
4447.61,0.84793
4441.83,0.83742
4436.04,0.82823
4430.25,0.81922
4424.47,0.81292
4418.68,0.80622
4412.89,0.79660
4407.11,0.78324
4401.32,0.76972
4395.54,0.75287
4389.75,0.73511
4383.96,0.71641
4378.18,0.69464
4372.39,0.67159
4366.61,0.64542
4360.82,0.61421
4355.03,0.57144
4349.25,0.51172
4343.46,0.44493
4337.67,0.39466
4331.89,0.34731
4326.1,0.28021
4320.32,0.28443
4314.53,0.44161
4308.74,0.55059
4302.96,0.59596
4297.17,0.60999
4291.39,0.60508
4285.6,0.59070
4279.81,0.57606
4274.03,0.55306
4268.24,0.51403
4262.46,0.45509
4256.67,0.38580
4250.88,0.36366
4245.1,0.45286
4239.31,0.51944
4233.52,0.53369
4227.74,0.51843
4221.95,0.49992
4216.17,0.50060
4210.38,0.50423
4204.59,0.49326
4198.81,0.46776
4193.02,0.45210
4187.24,0.45124
4181.45,0.45508
4175.66,0.45767
4169.88,0.46122
4164.09,0.46626
4158.3,0.47103
4152.52,0.47394
4146.73,0.47771
4140.95,0.48282
4135.16,0.48916
4129.37,0.49428
4123.59,0.49782
4117.8,0.49973
4112.02,0.50211
4106.23,0.50158
4100.44,0.50281
4094.66,0.51016
4088.87,0.53079
4083.08,0.55603
4077.3,0.57199
4071.51,0.58446
4065.73,0.59354
4059.94,0.60133
4054.15,0.60868
4048.37,0.61464
4042.58,0.62193
4036.8,0.62913
4031.01,0.63247
4025.22,0.63384
4019.44,0.64284
4013.65,0.66721
4007.86,0.68196
4002.08,0.68977
3996.29,0.68958
3990.51,0.68780
3984.72,0.68611
3978.93,0.68318
3973.15,0.68313
3967.36,0.69207
3961.58,0.69610
3955.79,0.70014
3950,0.69424
3944.22,0.69640
3938.43,0.70185
3932.65,0.68720
3926.86,0.68710
3921.07,0.68448
3915.29,0.68645
3909.5,0.69510
3903.71,0.66655
3897.93,0.68319
3892.14,0.68322
3886.36,0.68594
3880.57,0.68469
3874.78,0.68982
3869,0.68158
3863.21,0.69066
3857.43,0.70232
3851.64,0.68591
3845.85,0.71479
3840.07,0.68557
3834.28,0.70006
3828.49,0.71231
3822.71,0.69667
3816.92,0.69779
3811.14,0.72736
3805.35,0.71350
3799.56,0.71488
3793.78,0.74745
3787.99,0.75365
3782.21,0.74962
3776.42,0.75929
3770.63,0.74912
3764.85,0.75229
3759.06,0.74492
3753.27,0.73011
3747.49,0.71514
3741.7,0.73607
3735.92,0.71320
3730.13,0.74311
3724.34,0.73701
3718.56,0.75586
3712.77,0.73640
3706.99,0.74763
3701.2,0.74418
3695.41,0.74406
3689.63,0.70395
3683.84,0.73639
3678.06,0.71235
3672.27,0.70294
3666.48,0.72464
3660.7,0.72600
3654.91,0.70226
3649.12,0.65244
3643.34,0.69030
3637.55,0.70617
3631.77,0.70015
3625.98,0.70383
3620.19,0.69356
3614.41,0.67639
3608.62,0.65520
3602.84,0.65668
3597.05,0.69591
3591.26,0.74849
3585.48,0.76523
3579.69,0.78903
3573.9,0.79646
3568.12,0.77496
3562.33,0.79420
3556.55,0.80944
3550.76,0.80769
3544.97,0.80202
3539.19,0.81789
3533.4,0.81971
3527.62,0.80982
3521.83,0.81586
3516.04,0.82368
3510.26,0.81707
3504.47,0.81175
3498.68,0.81600
3492.9,0.81642
3487.11,0.80728
3481.33,0.78946
3475.54,0.76767
3469.75,0.72498
3463.97,0.67702
3458.18,0.65445
3452.4,0.66615
3446.61,0.69249
3440.82,0.73262
3435.04,0.76544
3429.25,0.78451
3423.47,0.79218
3417.68,0.79937
3411.89,0.80684
3406.11,0.80749
3400.32,0.80638
3394.53,0.80385
3388.75,0.80322
3382.96,0.79813
3377.18,0.79558
3371.39,0.79656
3365.6,0.79641
3359.82,0.80055
3354.03,0.80499
3348.25,0.81213
3342.46,0.81317
3336.67,0.81337
3330.89,0.81858
3325.1,0.81942
3319.31,0.81796
3313.53,0.81852
3307.74,0.82016
3301.96,0.81969
3296.17,0.81858
3290.38,0.81906
3284.6,0.81941
3278.81,0.81570
3273.03,0.81481
3267.24,0.81601
3261.45,0.81300
3255.67,0.81164
3249.88,0.81217
3244.09,0.80685
3238.31,0.80526
3232.52,0.80264
3226.74,0.79926
3220.95,0.79312
3215.16,0.78834
3209.38,0.78493
3203.59,0.77787
3197.81,0.77141
3192.02,0.76796
3186.23,0.76087
3180.45,0.75575
3174.66,0.75209
3168.87,0.74685
3163.09,0.73996
3157.3,0.73537
3151.52,0.72926
3145.73,0.72259
3139.94,0.71546
3134.16,0.70605
3128.37,0.69489
3122.59,0.67955
3116.8,0.66379
3111.01,0.64451
3105.23,0.62060
3099.44,0.58640
3093.66,0.54422
3087.87,0.50754
3082.08,0.48143
3076.3,0.46030
3070.51,0.43978
3064.72,0.41655
3058.94,0.39176
3053.15,0.36536
3047.37,0.33404
3041.58,0.30053
3035.79,0.26573
3030.01,0.23176
3024.22,0.20303
3018.44,0.17912
3012.65,0.16035
3006.86,0.14224
3001.08,0.11926
2995.29,0.09072
2989.5,0.06073
2983.72,0.03382
2977.93,0.01347
2972.15,0.00322
2966.36,0.00022
2960.57,0.00057
2954.79,0.00027
2949,0.00094
2943.22,0.00082
2937.43,0.00035
2931.64,0.00086
2925.86,0.00070
2920.07,0.00091
2914.28,0.00041
2908.5,0.00042
2902.71,0.00042
2896.93,0.00029
2891.14,0.00083
2885.35,0.00062
2879.57,0.00100
2873.78,0.00069
2868,0.00049
2862.21,0.00032
2856.42,0.00075
2850.64,0.00058
2844.85,0.00062
2839.07,0.00075
2833.28,0.00016
2827.49,0.00262
2821.71,0.00885
2815.92,0.02006
2810.13,0.03568
2804.35,0.05594
2798.56,0.08075
2792.78,0.10997
2786.99,0.14404
2781.2,0.17987
2775.42,0.21216
2769.63,0.23588
2763.85,0.25160
2758.06,0.26430
2752.27,0.27378
2746.49,0.27745
2740.7,0.27842
2734.91,0.28323
2729.13,0.29436
2723.34,0.30927
2717.56,0.32326
2711.77,0.33589
2705.98,0.34589
2700.2,0.35023
2694.41,0.34289
2688.63,0.32847
2682.84,0.31668
2677.05,0.31044
2671.27,0.30874
2665.48,0.31353
2659.69,0.32226
2653.91,0.33220
2648.12,0.34070
2642.34,0.34385
2636.55,0.34568
2630.76,0.36054
2624.98,0.38504
2619.19,0.41054
2613.41,0.43446
2607.62,0.45661
2601.83,0.47818
2596.05,0.49689
2590.26,0.51869
2584.47,0.54419
2578.69,0.56750
2572.9,0.58707
2567.12,0.60546
2561.33,0.62101
2555.54,0.62996
2549.76,0.63681
2543.97,0.65376
2538.19,0.66324
2532.4,0.65686
2526.61,0.65942
2520.83,0.67761
2515.04,0.69096
2509.26,0.70028
2503.47,0.70542
2497.68,0.70390
2491.9,0.70102
2486.11,0.69904
2480.32,0.69344
2474.54,0.69022
2468.75,0.70667
2462.97,0.72425
2457.18,0.73612
2451.39,0.74671
2445.61,0.75696
2439.82,0.75921
2434.04,0.75763
2428.25,0.75653
2422.46,0.74803
2416.68,0.73784
2410.89,0.73994
2405.1,0.74488
2399.32,0.74403
2393.53,0.74429
2387.75,0.74585
2381.96,0.72966
2376.17,0.68470
2370.39,0.64115
2364.6,0.60715
2358.82,0.58867
2353.03,0.60198
2347.24,0.61056
2341.46,0.57559
2335.67,0.57422
2329.88,0.57765
2324.1,0.59222
2318.31,0.61625
2312.53,0.64108
2306.74,0.66618
2300.95,0.68672
2295.17,0.70282
2289.38,0.71742
2283.6,0.72810
2277.81,0.72912
2272.02,0.73437
2266.24,0.74534
2260.45,0.74925
2254.67,0.75081
2248.88,0.75678
2243.09,0.76550
2237.31,0.77797
2231.52,0.79130
2225.73,0.79659
2219.95,0.79458
2214.16,0.79385
2208.38,0.79375
2202.59,0.78927
2196.8,0.77873
2191.02,0.77055
2185.23,0.76455
2179.45,0.75626
2173.66,0.75017
2167.87,0.74729
2162.09,0.74355
2156.3,0.73850
2150.51,0.74104
2144.73,0.75195
2138.94,0.76454
2133.16,0.77562
2127.37,0.78668
2121.58,0.79262
2115.8,0.79278
2110.01,0.79603
2104.23,0.79870
2098.44,0.79617
2092.65,0.79342
2086.87,0.79529
2081.08,0.79363
2075.29,0.78730
2069.51,0.78449
2063.72,0.78003
2057.94,0.77211
2052.15,0.76215
2046.36,0.75479
2040.58,0.74193
2034.79,0.72871
2029.01,0.71654
2023.22,0.70078
2017.43,0.69272
2011.65,0.73063
2005.86,0.76465
2000.08,0.77951
1994.29,0.78403
1988.5,0.79442
1982.72,0.80335
1976.93,0.79974
1971.14,0.79615
1965.36,0.79165
1959.57,0.79021
1953.79,0.78341
1948,0.78290
1942.21,0.77480
1936.43,0.78020
1930.64,0.77734
1924.86,0.77038
1919.07,0.75705
1913.28,0.75174
1907.5,0.73817
1901.71,0.72713
1895.92,0.70648
1890.14,0.70848
1884.35,0.72334
1878.57,0.71738
1872.78,0.70237
1866.99,0.68199
1861.21,0.69677
1855.42,0.69882
1849.64,0.69774
1843.85,0.67983
1838.06,0.67986
1832.28,0.65968
1826.49,0.63453
1820.7,0.61942
1814.92,0.59847
1809.13,0.57433
1803.35,0.54879
1797.56,0.51095
1791.77,0.46803
1785.99,0.43761
1780.2,0.38558
1774.42,0.32595
1768.63,0.22938
1762.84,0.12804
1757.06,0.05046
1751.27,0.00838
1745.48,0.00038
1739.7,0.00078
1733.91,0.00086
1728.13,0.00090
1722.34,0.01373
1716.55,0.07351
1710.77,0.15291
1704.98,0.19592
1699.2,0.20072
1693.41,0.26462
1687.62,0.34366
1681.84,0.43190
1676.05,0.47846
1670.27,0.49710
1664.48,0.52565
1658.69,0.52657
1652.91,0.48356
1647.12,0.46653
1641.33,0.55292
1635.55,0.58457
1629.76,0.63308
1623.98,0.63391
1618.19,0.63852
1612.4,0.65895
1606.62,0.65985
1600.83,0.65687
1595.05,0.65310
1589.26,0.65505
1583.47,0.64740
1577.69,0.62121
1571.9,0.61506
1566.11,0.59825
1560.33,0.56799
1554.54,0.57169
1548.76,0.57795
1542.97,0.53293
1537.18,0.54084
1531.4,0.53670
1525.61,0.50836
1519.83,0.48315
1514.04,0.48190
1508.25,0.43843
1502.47,0.43048
1496.68,0.38400
1490.89,0.33300
1485.11,0.24500
1479.32,0.11086
1473.54,0.00554
1467.75,0.00032
1461.96,0.00051
1456.18,0.00106
1450.39,0.00508
1444.61,0.01017
1438.82,0.01166
1433.03,0.02344
1427.25,0.06592
1421.46,0.13550
1415.68,0.21692
1409.89,0.26743
1404.1,0.28486
1398.32,0.25817
1392.53,0.18342
1386.74,0.07711
1380.96,0.01113
1375.17,0.00083
1369.39,0.00033
1363.6,0.00268
1357.81,0.01361
1352.03,0.03875
1346.24,0.11921
1340.46,0.21983
1334.67,0.30683
1328.88,0.32522
1323.1,0.29737
1317.31,0.24461
1311.52,0.19397
1305.74,0.16039
1299.95,0.14078
1294.17,0.12729
1288.38,0.10745
1282.59,0.07690
1276.81,0.04343
1271.02,0.01596
1265.24,0.00220
1259.45,0.00029
1253.66,0.00031
1247.88,0.00034
1242.09,0.00046
1236.3,0.00030
1230.52,0.00032
1224.73,0.00015
1218.95,0.00380
1213.16,0.01799
1207.37,0.04871
1201.59,0.09083
1195.8,0.13086
1190.02,0.16565
1184.23,0.19191
1178.44,0.20809
1172.66,0.22125
1166.87,0.22279
1161.09,0.20988
1155.3,0.17965
1149.51,0.14573
1143.73,0.13488
1137.94,0.13193
1132.15,0.12234
1126.37,0.12085
1120.58,0.13232
1114.8,0.14630
1109.01,0.15763
1103.22,0.16268
1097.44,0.15735
1091.65,0.14330
1085.87,0.12633
1080.08,0.10948
1074.29,0.09510
1068.51,0.08242
1062.72,0.07605
1056.93,0.06636
1051.15,0.04567
1045.36,0.02958
1039.58,0.02456
1033.79,0.01378
1028,0.00304
1022.22,0.00053
1016.43,0.00194
1010.65,0.02051
1004.86,0.08324
999.073,0.15821
993.287,0.20837
987.501,0.23339
981.715,0.23446
975.929,0.21524
970.142,0.18375
964.356,0.15342
958.57,0.14256
952.784,0.15351
946.998,0.17356
941.212,0.18107
935.426,0.19070
929.64,0.27850
923.853,0.38698
918.067,0.43920
912.281,0.46132
906.495,0.47623
900.709,0.48515
894.923,0.48280
889.137,0.48879
883.35,0.50070
877.564,0.50242
871.778,0.49876
865.992,0.50376
860.206,0.51926
854.42,0.53288
848.634,0.55601
842.847,0.57268
837.061,0.58506
831.275,0.60518
825.489,0.62129
819.703,0.61629
813.917,0.60163
808.131,0.58954
802.344,0.57145
796.558,0.56892
790.772,0.60434
784.986,0.62669
779.2,0.60652
773.414,0.58793
767.628,0.58295
761.842,0.56566
756.055,0.53068
750.269,0.49504
744.483,0.42712
738.697,0.30888
732.911,0.10236
727.125,0.01150
721.339,0.00355
715.552,0.05111
709.766,0.27274
703.98,0.47701
698.194,0.62202
692.408,0.70086
686.622,0.72242
680.836,0.75522
675.049,0.75643
669.263,0.69165
663.477,0.74486
657.691,0.72330
651.905,0.64582
646.119,0.57204
640.333,0.57604
634.546,0.57099
628.76,0.49376
622.974,0.54635
617.188,0.51759
611.402,0.27088
605.616,0.27320
599.83,0.52335