File: 01_Data/PEVA/FTIR/IS/PEVA_0.18_IS_Trans_S_240819_R3.dpt
7496.91,0.93206
7491.12,0.95177
7485.33,0.92343
7479.55,0.94254
7473.76,0.92080
7467.98,0.92932
7462.19,0.93894
7456.4,0.93156
7450.62,0.94066
7444.83,0.92721
7439.04,0.93079
7433.26,0.95049
7427.47,0.93886
7421.69,0.93111
7415.9,0.92310
7410.11,0.93981
7404.33,0.94098
7398.54,0.92691
7392.76,0.93429
7386.97,0.94075
7381.18,0.92603
7375.4,0.92168
7369.61,0.92306
7363.83,0.92488
7358.04,0.93068
7352.25,0.92620
7346.47,0.92557
7340.68,0.91958
7334.89,0.94077
7329.11,0.93772
7323.32,0.91513
7317.54,0.92107
7311.75,0.92587
7305.96,0.92857
7300.18,0.91402
7294.39,0.90829
7288.61,0.93315
7282.82,0.94264
7277.03,0.92047
7271.25,0.93010
7265.46,0.92811
7259.67,0.93376
7253.89,0.92048
7248.1,0.91772
7242.32,0.89985
7236.53,0.92191
7230.74,0.89540
7224.96,0.91186
7219.17,0.89880
7213.39,0.91764
7207.6,0.91523
7201.81,0.91317
7196.03,0.91062
7190.24,0.91451
7184.45,0.91399
7178.67,0.90338
7172.88,0.91890
7167.1,0.90889
7161.31,0.91560
7155.52,0.90679
7149.74,0.92092
7143.95,0.91036
7138.17,0.92731
7132.38,0.91116
7126.59,0.92887
7120.81,0.92900
7115.02,0.92066
7109.23,0.93106
7103.45,0.91541
7097.66,0.91573
7091.88,0.91897
7086.09,0.91070
7080.3,0.90510
7074.52,0.91282
7068.73,0.91580
7062.95,0.91632
7057.16,0.90754
7051.37,0.90767
7045.59,0.91856
7039.8,0.92153
7034.02,0.91817
7028.23,0.91555
7022.44,0.91766
7016.66,0.92335
7010.87,0.91797
7005.08,0.91387
6999.3,0.92233
6993.51,0.92141
6987.73,0.91782
6981.94,0.92188
6976.15,0.91718
6970.37,0.91331
6964.58,0.91821
6958.8,0.90688
6953.01,0.92037
6947.22,0.91922
6941.44,0.91957
6935.65,0.92489
6929.86,0.92443
6924.08,0.92515
6918.29,0.92099
6912.51,0.93046
6906.72,0.91319
6900.93,0.92850
6895.15,0.92435
6889.36,0.92971
6883.58,0.92069
6877.79,0.93073
6872,0.92449
6866.22,0.92651
6860.43,0.93464
6854.64,0.93181
6848.86,0.92190
6843.07,0.92119
6837.29,0.92804
6831.5,0.92619
6825.71,0.92676
6819.93,0.92818
6814.14,0.93092
6808.36,0.92766
6802.57,0.91561
6796.78,0.92761
6791,0.93111
6785.21,0.93154
6779.43,0.93778
6773.64,0.92784
6767.85,0.92680
6762.07,0.92916
6756.28,0.93431
6750.49,0.93202
6744.71,0.93672
6738.92,0.93451
6733.14,0.93198
6727.35,0.93713
6721.56,0.93598
6715.78,0.93085
6709.99,0.93639
6704.21,0.93552
6698.42,0.92934
6692.63,0.93458
6686.85,0.93125
6681.06,0.92989
6675.27,0.93245
6669.49,0.93347
6663.7,0.93478
6657.92,0.94090
6652.13,0.93670
6646.34,0.93609
6640.56,0.93965
6634.77,0.93518
6628.99,0.93175
6623.2,0.93195
6617.41,0.93146
6611.63,0.93963
6605.84,0.93848
6600.05,0.94138
6594.27,0.93721
6588.48,0.93789
6582.7,0.92888
6576.91,0.92793
6571.12,0.93281
6565.34,0.93112
6559.55,0.93780
6553.77,0.93206
6547.98,0.93305
6542.19,0.93134
6536.41,0.93576
6530.62,0.94045
6524.84,0.93153
6519.05,0.93323
6513.26,0.93364
6507.48,0.92979
6501.69,0.93298
6495.9,0.93312
6490.12,0.93578
6484.33,0.92856
6478.55,0.93183
6472.76,0.93314
6466.97,0.94213
6461.19,0.93471
6455.4,0.92897
6449.62,0.93663
6443.83,0.93148
6438.04,0.93412
6432.26,0.93286
6426.47,0.92742
6420.68,0.93689
6414.9,0.94139
6409.11,0.93672
6403.33,0.93438
6397.54,0.93970
6391.75,0.94079
6385.97,0.93641
6380.18,0.93481
6374.4,0.93393
6368.61,0.93516
6362.82,0.93686
6357.04,0.93779
6351.25,0.94006
6345.46,0.93375
6339.68,0.93488
6333.89,0.93940
6328.11,0.94491
6322.32,0.93919
6316.53,0.93172
6310.75,0.93262
6304.96,0.93969
6299.18,0.93284
6293.39,0.93753
6287.6,0.93425
6281.82,0.93635
6276.03,0.94260
6270.24,0.93629
6264.46,0.92953
6258.67,0.93444
6252.89,0.94369
6247.1,0.93611
6241.31,0.93693
6235.53,0.93662
6229.74,0.93128
6223.96,0.93468
6218.17,0.93039
6212.38,0.93555
6206.6,0.92843
6200.81,0.93253
6195.03,0.93637
6189.24,0.93108
6183.45,0.93368
6177.67,0.92679
6171.88,0.93023
6166.09,0.93086
6160.31,0.93171
6154.52,0.93092
6148.74,0.93568
6142.95,0.93254
6137.16,0.92969
6131.38,0.93268
6125.59,0.93026
6119.81,0.93103
6114.02,0.93269
6108.23,0.93080
6102.45,0.93053
6096.66,0.92756
6090.87,0.92794
6085.09,0.92222
6079.3,0.92166
6073.52,0.92477
6067.73,0.93212
6061.94,0.92914
6056.16,0.92475
6050.37,0.92326
6044.59,0.92208
6038.8,0.92406
6033.01,0.92460
6027.23,0.92258
6021.44,0.91969
6015.65,0.92090
6009.87,0.92481
6004.08,0.91866
5998.3,0.91864
5992.51,0.91281
5986.72,0.91556
5980.94,0.91429
5975.15,0.91503
5969.37,0.91710
5963.58,0.91461
5957.79,0.91641
5952.01,0.91035
5946.22,0.91221
5940.44,0.90564
5934.65,0.90648
5928.86,0.90841
5923.08,0.90990
5917.29,0.90716
5911.5,0.90779
5905.72,0.90213
5899.93,0.89814
5894.15,0.89892
5888.36,0.89876
5882.57,0.89493
5876.79,0.88624
5871,0.87984
5865.22,0.87430
5859.43,0.86278
5853.64,0.85121
5847.86,0.84625
5842.07,0.83896
5836.28,0.83177
5830.5,0.82252
5824.71,0.81192
5818.93,0.80482
5813.14,0.79178
5807.35,0.78432
5801.57,0.77419
5795.78,0.76142
5790,0.74543
5784.21,0.73014
5778.42,0.71336
5772.64,0.71495
5766.85,0.74420
5761.06,0.77780
5755.28,0.80177
5749.49,0.81959
5743.71,0.83089
5737.92,0.84356
5732.13,0.84559
5726.35,0.84911
5720.56,0.85762
5714.78,0.85806
5708.99,0.85326
5703.2,0.84661
5697.42,0.83891
5691.63,0.83449
5685.84,0.82930
5680.06,0.82230
5674.27,0.81711
5668.49,0.80810
5662.7,0.80819
5656.91,0.82271
5651.13,0.83470
5645.34,0.84819
5639.56,0.85383
5633.77,0.85529
5627.98,0.86129
5622.2,0.86488
5616.41,0.86450
5610.63,0.86871
5604.84,0.86973
5599.05,0.87298
5593.27,0.87076
5587.48,0.87463
5581.69,0.87417
5575.91,0.87111
5570.12,0.86953
5564.34,0.86923
5558.55,0.87034
5552.76,0.86697
5546.98,0.86579
5541.19,0.86957
5535.41,0.87093
5529.62,0.87148
5523.83,0.87030
5518.05,0.86781
5512.26,0.87032
5506.47,0.86572
5500.69,0.86876
5494.9,0.86317
5489.12,0.86085
5483.33,0.87177
5477.54,0.86612
5471.76,0.87014
5465.97,0.86827
5460.19,0.86871
5454.4,0.87490
5448.61,0.86569
5442.83,0.85971
5437.04,0.86828
5431.25,0.86474
5425.47,0.87112
5419.68,0.88078
5413.9,0.86345
5408.11,0.87464
5402.32,0.88524
5396.54,0.87707
5390.75,0.88490
5384.97,0.88108
5379.18,0.88168
5373.39,0.87927
5367.61,0.89083
5361.82,0.88772
5356.04,0.88401
5350.25,0.88243
5344.46,0.87213
5338.68,0.87368
5332.89,0.88649
5327.1,0.88732
5321.32,0.89934
5315.53,0.89357
5309.75,0.89242
5303.96,0.89643
5298.17,0.89627
5292.39,0.89395
5286.6,0.89436
5280.82,0.89330
5275.03,0.89906
5269.24,0.89280
5263.46,0.88093
5257.67,0.89347
5251.88,0.88940
5246.1,0.87911
5240.31,0.89598
5234.53,0.89122
5228.74,0.88889
5222.95,0.89065
5217.17,0.89427
5211.38,0.89807
5205.6,0.88073
5199.81,0.89437
5194.02,0.89633
5188.24,0.89251
5182.45,0.89236
5176.66,0.89442
5170.88,0.89692
5165.09,0.89375
5159.31,0.89523
5153.52,0.89574
5147.73,0.89813
5141.95,0.89883
5136.16,0.89906
5130.38,0.90103
5124.59,0.90158
5118.8,0.89942
5113.02,0.90070
5107.23,0.90198
5101.45,0.90166
5095.66,0.90197
5089.87,0.89975
5084.09,0.90426
5078.3,0.90245
5072.51,0.90400
5066.73,0.90384
5060.94,0.90400
5055.16,0.90473
5049.37,0.90529
5043.58,0.90426
5037.8,0.90465
5032.01,0.90353
5026.23,0.90440
5020.44,0.90500
5014.65,0.90498
5008.87,0.90261
5003.08,0.90297
4997.29,0.90148
4991.51,0.90125
4985.72,0.90035
4979.94,0.90118
4974.15,0.90043
4968.36,0.89872
4962.58,0.89823
4956.79,0.90118
4951.01,0.90313
4945.22,0.90492
4939.43,0.90616
4933.65,0.90601
4927.86,0.90658
4922.07,0.90502
4916.29,0.90469
4910.5,0.90630
4904.72,0.90584
4898.93,0.90490
4893.14,0.90360
4887.36,0.90362
4881.57,0.90540
4875.79,0.90463
4870,0.90511
4864.21,0.90525
4858.43,0.90528
4852.64,0.90718
4846.85,0.90780
4841.07,0.90590
4835.28,0.90684
4829.5,0.90706
4823.71,0.90885
4817.92,0.90988
4812.14,0.90782
4806.35,0.90835
4800.57,0.91085
4794.78,0.91101
4788.99,0.90991
4783.21,0.90961
4777.42,0.90846
4771.64,0.90853
4765.85,0.90853
4760.06,0.90758
4754.28,0.90730
4748.49,0.90780
4742.7,0.90848
4736.92,0.90872
4731.13,0.90824
4725.35,0.90820
4719.56,0.90814
4713.77,0.90661
4707.99,0.90733
4702.2,0.90634
4696.42,0.90491
4690.63,0.90346
4684.84,0.90133
4679.06,0.89866
4673.27,0.89881
4667.48,0.90088
4661.7,0.90178
4655.91,0.90646
4650.13,0.90579
4644.34,0.90643
4638.55,0.90811
4632.77,0.91080
4626.98,0.90991
4621.2,0.90965
4615.41,0.90877
4609.62,0.90930
4603.84,0.90919
4598.05,0.90863
4592.26,0.90839
4586.48,0.90815
4580.69,0.90893
4574.91,0.90807
4569.12,0.90816
4563.33,0.90699
4557.55,0.90612
4551.76,0.90620
4545.98,0.90524
4540.19,0.90322
4534.4,0.90218
4528.62,0.90068
4522.83,0.89919
4517.05,0.89620
4511.26,0.89449
4505.47,0.89314
4499.69,0.88876
4493.9,0.88678
4488.11,0.88354
4482.33,0.87882
4476.54,0.87655
4470.76,0.87270
4464.97,0.86731
4459.18,0.86104
4453.4,0.85350
4447.61,0.84381
4441.83,0.83573
4436.04,0.82443
4430.25,0.81742
4424.47,0.81170
4418.68,0.80358
4412.89,0.79408
4407.11,0.78231
4401.32,0.76740
4395.54,0.75088
4389.75,0.73328
4383.96,0.71293
4378.18,0.69175
4372.39,0.66809
4366.61,0.64321
4360.82,0.61200
4355.03,0.56768
4349.25,0.50866
4343.46,0.44316
4337.67,0.39108
4331.89,0.34489
4326.1,0.27757
4320.32,0.28181
4314.53,0.43928
4308.74,0.54785
4302.96,0.59282
4297.17,0.60678
4291.39,0.60026
4285.6,0.58829
4279.81,0.57274
4274.03,0.54900
4268.24,0.51111
4262.46,0.45225
4256.67,0.38352
4250.88,0.35958
4245.1,0.44940
4239.31,0.51702
4233.52,0.53042
4227.74,0.51440
4221.95,0.49674
4216.17,0.49770
4210.38,0.50049
4204.59,0.48985
4198.81,0.46608
4193.02,0.44934
4187.24,0.44856
4181.45,0.45202
4175.66,0.45460
4169.88,0.45823
4164.09,0.46289
4158.3,0.46817
4152.52,0.47101
4146.73,0.47436
4140.95,0.48098
4135.16,0.48681
4129.37,0.49107
4123.59,0.49442
4117.8,0.49721
4112.02,0.49920
4106.23,0.49832
4100.44,0.49863
4094.66,0.50617
4088.87,0.52733
4083.08,0.55228
4077.3,0.57003
4071.51,0.58185
4065.73,0.59016
4059.94,0.59759
4054.15,0.60606
4048.37,0.61160
4042.58,0.61844
4036.8,0.62664
4031.01,0.63055
4025.22,0.63032
4019.44,0.63990
4013.65,0.66513
4007.86,0.67862
4002.08,0.68688
3996.29,0.68791
3990.51,0.68615
3984.72,0.68387
3978.93,0.67968
3973.15,0.67981
3967.36,0.68892
3961.58,0.69219
3955.79,0.69787
3950,0.69108
3944.22,0.69127
3938.43,0.69865
3932.65,0.68382
3926.86,0.68173
3921.07,0.67954
3915.29,0.68357
3909.5,0.69259
3903.71,0.66003
3897.93,0.67747
3892.14,0.67867
3886.36,0.68042
3880.57,0.67772
3874.78,0.68307
3869,0.67426
3863.21,0.68282
3857.43,0.69536
3851.64,0.67805
3845.85,0.70940
3840.07,0.67470
3834.28,0.69224
3828.49,0.70544
3822.71,0.68850
3816.92,0.68921
3811.14,0.72402
3805.35,0.70726
3799.56,0.70495
3793.78,0.74325
3787.99,0.74972
3782.21,0.74307
3776.42,0.75455
3770.63,0.74461
3764.85,0.74776
3759.06,0.73746
3753.27,0.72156
3747.49,0.70856
3741.7,0.72803
3735.92,0.70173
3730.13,0.73756
3724.34,0.73183
3718.56,0.75033
3712.77,0.72983
3706.99,0.74334
3701.2,0.74096
3695.41,0.74052
3689.63,0.69916
3683.84,0.73619
3678.06,0.70788
3672.27,0.69828
3666.48,0.72474
3660.7,0.72672
3654.91,0.70076
3649.12,0.64629
3643.34,0.69072
3637.55,0.70663
3631.77,0.69974
3625.98,0.70171
3620.19,0.69048
3614.41,0.67280
3608.62,0.65114
3602.84,0.65455
3597.05,0.69162
3591.26,0.74667
3585.48,0.76065
3579.69,0.78723
3573.9,0.79567
3568.12,0.77244
3562.33,0.79273
3556.55,0.81173
3550.76,0.80791
3544.97,0.80284
3539.19,0.82022
3533.4,0.82179
3527.62,0.80907
3521.83,0.81508
3516.04,0.82489
3510.26,0.81753
3504.47,0.81079
3498.68,0.81550
3492.9,0.81639
3487.11,0.80649
3481.33,0.78966
3475.54,0.76687
3469.75,0.72481
3463.97,0.67513
3458.18,0.65276
3452.4,0.66431
3446.61,0.68900
3440.82,0.73099
3435.04,0.76439
3429.25,0.78351
3423.47,0.79169
3417.68,0.79940
3411.89,0.80576
3406.11,0.80692
3400.32,0.80549
3394.53,0.80277
3388.75,0.80188
3382.96,0.79732
3377.18,0.79679
3371.39,0.79384
3365.6,0.79438
3359.82,0.79907
3354.03,0.80522
3348.25,0.80998
3342.46,0.81196
3336.67,0.81285
3330.89,0.81482
3325.1,0.81649
3319.31,0.81848
3313.53,0.81925
3307.74,0.81899
3301.96,0.81967
3296.17,0.81975
3290.38,0.81717
3284.6,0.81718
3278.81,0.81661
3273.03,0.81484
3267.24,0.81658
3261.45,0.81445
3255.67,0.81182
3249.88,0.81057
3244.09,0.80611
3238.31,0.80498
3232.52,0.80110
3226.74,0.79830
3220.95,0.79206
3215.16,0.78587
3209.38,0.78067
3203.59,0.77602
3197.81,0.76960
3192.02,0.76482
3186.23,0.75881
3180.45,0.75281
3174.66,0.74724
3168.87,0.74234
3163.09,0.73815
3157.3,0.73206
3151.52,0.72647
3145.73,0.72048
3139.94,0.71276
3134.16,0.70281
3128.37,0.69245
3122.59,0.67706
3116.8,0.65995
3111.01,0.64232
3105.23,0.61747
3099.44,0.58361
3093.66,0.54243
3087.87,0.50434
3082.08,0.47886
3076.3,0.45822
3070.51,0.43733
3064.72,0.41328
3058.94,0.38889
3053.15,0.36179
3047.37,0.33102
3041.58,0.29787
3035.79,0.26212
3030.01,0.22915
3024.22,0.20069
3018.44,0.17603
3012.65,0.15783
3006.86,0.14001
3001.08,0.11676
2995.29,0.08854
2989.5,0.05941
2983.72,0.03279
2977.93,0.01257
2972.15,0.00313
2966.36,0.00075
2960.57,0.00050
2954.79,0.00037
2949,0.00050
2943.22,0.00071
2937.43,0.00035
2931.64,0.00049
2925.86,0.00037
2920.07,0.00073
2914.28,0.00066
2908.5,0.00004
2902.71,0.00063
2896.93,0.00036
2891.14,0.00036
2885.35,0.00030
2879.57,0.00063
2873.78,-0.00003
2868,0.00022
2862.21,0.00052
2856.42,0.00023
2850.64,0.00054
2844.85,0.00018
2839.07,0.00023
2833.28,0.00022
2827.49,0.00242
2821.71,0.00828
2815.92,0.01945
2810.13,0.03507
2804.35,0.05466
2798.56,0.07914
2792.78,0.10806
2786.99,0.14183
2781.2,0.17723
2775.42,0.20866
2769.63,0.23279
2763.85,0.24862
2758.06,0.26114
2752.27,0.27113
2746.49,0.27459
2740.7,0.27551
2734.91,0.28075
2729.13,0.29138
2723.34,0.30676
2717.56,0.32021
2711.77,0.33251
2705.98,0.34285
2700.2,0.34637
2694.41,0.34015
2688.63,0.32502
2682.84,0.31321
2677.05,0.30779
2671.27,0.30588
2665.48,0.31010
2659.69,0.31868
2653.91,0.32838
2648.12,0.33684
2642.34,0.34013
2636.55,0.34247
2630.76,0.35640
2624.98,0.38153
2619.19,0.40692
2613.41,0.43061
2607.62,0.45351
2601.83,0.47415
2596.05,0.49289
2590.26,0.51471
2584.47,0.54085
2578.69,0.56342
2572.9,0.58294
2567.12,0.60253
2561.33,0.61755
2555.54,0.62544
2549.76,0.63324
2543.97,0.64992
2538.19,0.65918
2532.4,0.65309
2526.61,0.65690
2520.83,0.67356
2515.04,0.68707
2509.26,0.69726
2503.47,0.70172
2497.68,0.69895
2491.9,0.69732
2486.11,0.69502
2480.32,0.68831
2474.54,0.68511
2468.75,0.70282
2462.97,0.71901
2457.18,0.73044
2451.39,0.74349
2445.61,0.75230
2439.82,0.75341
2434.04,0.75287
2428.25,0.75260
2422.46,0.74272
2416.68,0.73299
2410.89,0.73653
2405.1,0.74018
2399.32,0.73888
2393.53,0.74075
2387.75,0.74238
2381.96,0.72176
2376.17,0.67458
2370.39,0.62811
2364.6,0.59095
2358.82,0.57023
2353.03,0.58791
2347.24,0.59859
2341.46,0.56083
2335.67,0.56145
2329.88,0.56491
2324.1,0.57966
2318.31,0.60612
2312.53,0.63281
2306.74,0.65851
2300.95,0.67957
2295.17,0.69708
2289.38,0.71347
2283.6,0.72267
2277.81,0.72394
2272.02,0.73068
2266.24,0.73997
2260.45,0.74301
2254.67,0.74642
2248.88,0.75216
2243.09,0.75891
2237.31,0.77317
2231.52,0.78711
2225.73,0.79009
2219.95,0.78850
2214.16,0.78960
2208.38,0.78858
2202.59,0.78245
2196.8,0.77396
2191.02,0.76617
2185.23,0.75812
2179.45,0.75070
2173.66,0.74600
2167.87,0.74195
2162.09,0.73715
2156.3,0.73492
2150.51,0.73667
2144.73,0.74574
2138.94,0.75989
2133.16,0.77245
2127.37,0.78176
2121.58,0.78740
2115.8,0.79043
2110.01,0.79273
2104.23,0.79333
2098.44,0.79294
2092.65,0.79165
2086.87,0.79042
2081.08,0.78861
2075.29,0.78539
2069.51,0.78135
2063.72,0.77385
2057.94,0.76891
2052.15,0.75985
2046.36,0.74950
2040.58,0.73637
2034.79,0.72603
2029.01,0.71208
2023.22,0.69478
2017.43,0.68804
2011.65,0.72695
2005.86,0.75775
2000.08,0.77388
1994.29,0.78010
1988.5,0.78736
1982.72,0.79666
1976.93,0.79618
1971.14,0.79189
1965.36,0.78314
1959.57,0.78424
1953.79,0.77949
1948,0.77625
1942.21,0.76692
1936.43,0.77691
1930.64,0.77270
1924.86,0.76210
1919.07,0.75170
1913.28,0.74845
1907.5,0.73104
1901.71,0.72176
1895.92,0.70316
1890.14,0.70220
1884.35,0.71643
1878.57,0.71399
1872.78,0.69757
1866.99,0.67296
1861.21,0.69153
1855.42,0.69468
1849.64,0.69071
1843.85,0.67158
1838.06,0.67495
1832.28,0.65279
1826.49,0.62592
1820.7,0.61461
1814.92,0.59256
1809.13,0.56666
1803.35,0.54278
1797.56,0.50321
1791.77,0.45892
1785.99,0.43138
1780.2,0.37853
1774.42,0.31953
1768.63,0.22417
1762.84,0.12448
1757.06,0.04839
1751.27,0.00777
1745.48,0.00054
1739.7,0.00057
1733.91,0.00098
1728.13,0.00051
1722.34,0.01322
1716.55,0.07332
1710.77,0.15235
1704.98,0.19309
1699.2,0.19566
1693.41,0.25992
1687.62,0.33750
1681.84,0.42514
1676.05,0.47354
1670.27,0.48983
1664.48,0.52087
1658.69,0.52221
1652.91,0.47625
1647.12,0.46012
1641.33,0.54825
1635.55,0.57876
1629.76,0.63043
1623.98,0.62888
1618.19,0.63344
1612.4,0.65538
1606.62,0.65551
1600.83,0.65200
1595.05,0.64896
1589.26,0.65035
1583.47,0.64132
1577.69,0.61391
1571.9,0.60818
1566.11,0.58928
1560.33,0.55747
1554.54,0.56378
1548.76,0.56863
1542.97,0.52000
1537.18,0.53237
1531.4,0.52732
1525.61,0.49710
1519.83,0.47353
1514.04,0.47289
1508.25,0.42712
1502.47,0.42432
1496.68,0.37620
1490.89,0.32694
1485.11,0.24038
1479.32,0.10828
1473.54,0.00515
1467.75,-0.00010
1461.96,0.00054
1456.18,0.00082
1450.39,0.00473
1444.61,0.00925
1438.82,0.01131
1433.03,0.02248
1427.25,0.06390
1421.46,0.13274
1415.68,0.21246
1409.89,0.26395
1404.1,0.28101
1398.32,0.25351
1392.53,0.18058
1386.74,0.07553
1380.96,0.01097
1375.17,0.00079
1369.39,0.00062
1363.6,0.00227
1357.81,0.01319
1352.03,0.03762
1346.24,0.11645
1340.46,0.21597
1334.67,0.30210
1328.88,0.32147
1323.1,0.29313
1317.31,0.24007
1311.52,0.19102
1305.74,0.15758
1299.95,0.13825
1294.17,0.12475
1288.38,0.10492
1282.59,0.07567
1276.81,0.04270
1271.02,0.01551
1265.24,0.00266
1259.45,0.00040
1253.66,0.00005
1247.88,0.00056
1242.09,0.00021
1236.3,0.00061
1230.52,0.00020
1224.73,0.00037
1218.95,0.00361
1213.16,0.01704
1207.37,0.04735
1201.59,0.08858
1195.8,0.12799
1190.02,0.16226
1184.23,0.18875
1178.44,0.20499
1172.66,0.21721
1166.87,0.22014
1161.09,0.20701
1155.3,0.17675
1149.51,0.14261
1143.73,0.13246
1137.94,0.12842
1132.15,0.11951
1126.37,0.11791
1120.58,0.12982
1114.8,0.14254
1109.01,0.15493
1103.22,0.15980
1097.44,0.15355
1091.65,0.14014
1085.87,0.12339
1080.08,0.10701
1074.29,0.09289
1068.51,0.08048
1062.72,0.07368
1056.93,0.06411
1051.15,0.04462
1045.36,0.02830
1039.58,0.02425
1033.79,0.01336
1028,0.00256
1022.22,0.00062
1016.43,0.00149
1010.65,0.01960
1004.86,0.08065
999.073,0.15475
993.287,0.20461
987.501,0.22889
981.715,0.23128
975.929,0.21248
970.142,0.18021
964.356,0.14958
958.57,0.13942
952.784,0.14964
946.998,0.16969
941.212,0.17742
935.426,0.18748
929.64,0.27296
923.853,0.38099
918.067,0.43526
912.281,0.45582
906.495,0.46896
900.709,0.48053
894.923,0.47861
889.137,0.48048
883.35,0.49422
877.564,0.49913
871.778,0.49312
865.992,0.49485
860.206,0.51457
854.42,0.52809
848.634,0.54788
842.847,0.56634
837.061,0.58236
831.275,0.59822
825.489,0.61210
819.703,0.61143
813.917,0.59802
808.131,0.58030
802.344,0.56330
796.558,0.56750
790.772,0.59806
784.986,0.61596
779.2,0.60467
773.414,0.58657
767.628,0.57374
761.842,0.55906
756.055,0.52955
750.269,0.48700
744.483,0.42102
738.697,0.30501
732.911,0.10034
727.125,0.01106
721.339,0.00361
715.552,0.04951
709.766,0.26819
703.98,0.47495
698.194,0.60777
692.408,0.69241
686.622,0.72265
680.836,0.73690
675.049,0.74367
669.263,0.69010
663.477,0.73389
657.691,0.70874
651.905,0.64452
646.119,0.56687
640.333,0.56110
634.546,0.56406
628.76,0.49121
622.974,0.53932
617.188,0.50820
611.402,0.26844
605.616,0.27017
599.83,0.51113