File: 01_Data/PEVA/FTIR/IS/PEVA_0.26_IS_Trans_S_240819_R11.dpt
7496.91,0.93075
7491.12,0.95158
7485.33,0.93826
7479.55,0.93351
7473.76,0.93630
7467.98,0.92958
7462.19,0.93450
7456.4,0.92816
7450.62,0.94542
7444.83,0.94358
7439.04,0.94216
7433.26,0.92399
7427.47,0.93945
7421.69,0.92819
7415.9,0.91806
7410.11,0.92199
7404.33,0.92158
7398.54,0.92799
7392.76,0.93408
7386.97,0.92754
7381.18,0.91064
7375.4,0.92134
7369.61,0.91441
7363.83,0.92359
7358.04,0.93147
7352.25,0.92747
7346.47,0.94051
7340.68,0.90287
7334.89,0.91819
7329.11,0.91489
7323.32,0.92257
7317.54,0.92493
7311.75,0.90817
7305.96,0.90702
7300.18,0.93362
7294.39,0.91551
7288.61,0.90959
7282.82,0.92746
7277.03,0.93075
7271.25,0.92230
7265.46,0.91320
7259.67,0.92100
7253.89,0.91321
7248.1,0.92168
7242.32,0.89732
7236.53,0.89939
7230.74,0.89737
7224.96,0.91531
7219.17,0.91469
7213.39,0.91214
7207.6,0.91504
7201.81,0.90550
7196.03,0.91937
7190.24,0.91250
7184.45,0.90391
7178.67,0.89949
7172.88,0.92643
7167.1,0.90119
7161.31,0.90359
7155.52,0.91209
7149.74,0.91170
7143.95,0.90158
7138.17,0.90478
7132.38,0.91656
7126.59,0.90660
7120.81,0.91722
7115.02,0.90747
7109.23,0.91395
7103.45,0.90135
7097.66,0.90705
7091.88,0.90295
7086.09,0.90717
7080.3,0.90193
7074.52,0.90493
7068.73,0.89174
7062.95,0.91044
7057.16,0.91774
7051.37,0.91083
7045.59,0.91735
7039.8,0.90963
7034.02,0.90970
7028.23,0.91168
7022.44,0.91925
7016.66,0.91196
7010.87,0.91498
7005.08,0.91306
6999.3,0.90717
6993.51,0.90425
6987.73,0.91444
6981.94,0.91055
6976.15,0.91253
6970.37,0.91218
6964.58,0.92312
6958.8,0.92143
6953.01,0.91917
6947.22,0.92315
6941.44,0.92584
6935.65,0.91126
6929.86,0.91572
6924.08,0.92099
6918.29,0.91922
6912.51,0.92401
6906.72,0.92088
6900.93,0.91005
6895.15,0.92103
6889.36,0.91115
6883.58,0.92598
6877.79,0.91689
6872,0.92309
6866.22,0.93391
6860.43,0.91735
6854.64,0.91880
6848.86,0.91267
6843.07,0.91334
6837.29,0.91370
6831.5,0.91604
6825.71,0.92478
6819.93,0.93150
6814.14,0.92737
6808.36,0.92931
6802.57,0.91732
6796.78,0.91320
6791,0.91557
6785.21,0.92461
6779.43,0.92137
6773.64,0.93020
6767.85,0.91653
6762.07,0.92142
6756.28,0.92439
6750.49,0.92461
6744.71,0.93129
6738.92,0.93099
6733.14,0.93001
6727.35,0.92565
6721.56,0.92730
6715.78,0.92261
6709.99,0.92813
6704.21,0.93272
6698.42,0.92679
6692.63,0.92402
6686.85,0.92250
6681.06,0.93591
6675.27,0.92745
6669.49,0.92486
6663.7,0.92270
6657.92,0.93131
6652.13,0.92888
6646.34,0.92427
6640.56,0.92988
6634.77,0.93454
6628.99,0.93707
6623.2,0.92638
6617.41,0.92387
6611.63,0.92162
6605.84,0.91919
6600.05,0.92592
6594.27,0.93151
6588.48,0.92446
6582.7,0.92877
6576.91,0.92857
6571.12,0.92894
6565.34,0.92796
6559.55,0.92609
6553.77,0.92429
6547.98,0.92523
6542.19,0.92520
6536.41,0.92814
6530.62,0.93483
6524.84,0.92990
6519.05,0.93359
6513.26,0.93360
6507.48,0.93068
6501.69,0.93230
6495.9,0.92980
6490.12,0.93312
6484.33,0.93084
6478.55,0.93159
6472.76,0.93187
6466.97,0.93010
6461.19,0.92866
6455.4,0.93300
6449.62,0.92973
6443.83,0.93055
6438.04,0.93322
6432.26,0.92983
6426.47,0.92989
6420.68,0.93169
6414.9,0.93169
6409.11,0.92319
6403.33,0.92845
6397.54,0.93270
6391.75,0.93087
6385.97,0.93296
6380.18,0.93571
6374.4,0.93500
6368.61,0.92769
6362.82,0.92809
6357.04,0.93052
6351.25,0.92632
6345.46,0.93399
6339.68,0.93190
6333.89,0.92811
6328.11,0.92879
6322.32,0.93270
6316.53,0.92987
6310.75,0.93570
6304.96,0.92917
6299.18,0.93179
6293.39,0.93656
6287.6,0.93779
6281.82,0.93446
6276.03,0.93231
6270.24,0.93415
6264.46,0.92878
6258.67,0.93670
6252.89,0.92743
6247.1,0.93196
6241.31,0.92982
6235.53,0.92783
6229.74,0.92834
6223.96,0.92914
6218.17,0.92613
6212.38,0.92831
6206.6,0.93338
6200.81,0.92683
6195.03,0.92827
6189.24,0.92537
6183.45,0.93131
6177.67,0.92626
6171.88,0.92727
6166.09,0.92645
6160.31,0.92655
6154.52,0.92606
6148.74,0.92775
6142.95,0.92603
6137.16,0.92193
6131.38,0.92604
6125.59,0.92506
6119.81,0.92247
6114.02,0.92609
6108.23,0.91971
6102.45,0.92232
6096.66,0.92162
6090.87,0.91735
6085.09,0.91295
6079.3,0.90709
6073.52,0.90837
6067.73,0.90599
6061.94,0.90533
6056.16,0.89614
6050.37,0.89796
6044.59,0.89377
6038.8,0.88745
6033.01,0.88728
6027.23,0.88532
6021.44,0.88165
6015.65,0.88266
6009.87,0.88144
6004.08,0.88188
5998.3,0.88840
5992.51,0.89290
5986.72,0.89519
5980.94,0.90291
5975.15,0.90191
5969.37,0.89790
5963.58,0.89876
5957.79,0.89883
5952.01,0.89430
5946.22,0.89393
5940.44,0.88693
5934.65,0.87981
5928.86,0.87753
5923.08,0.87011
5917.29,0.86565
5911.5,0.85512
5905.72,0.85280
5899.93,0.84382
5894.15,0.83690
5888.36,0.83092
5882.57,0.81833
5876.79,0.80958
5871,0.80034
5865.22,0.79302
5859.43,0.78456
5853.64,0.77418
5847.86,0.75907
5842.07,0.74676
5836.28,0.73198
5830.5,0.72204
5824.71,0.72719
5818.93,0.73416
5813.14,0.74578
5807.35,0.75238
5801.57,0.77016
5795.78,0.78699
5790,0.79261
5784.21,0.80565
5778.42,0.81303
5772.64,0.81779
5766.85,0.81812
5761.06,0.81698
5755.28,0.81845
5749.49,0.81661
5743.71,0.81718
5737.92,0.81454
5732.13,0.81207
5726.35,0.81403
5720.56,0.81542
5714.78,0.81844
5708.99,0.81575
5703.2,0.81614
5697.42,0.81735
5691.63,0.82388
5685.84,0.82329
5680.06,0.82777
5674.27,0.83071
5668.49,0.83702
5662.7,0.83986
5656.91,0.83973
5651.13,0.83981
5645.34,0.84676
5639.56,0.84897
5633.77,0.85086
5627.98,0.85252
5622.2,0.85567
5616.41,0.85785
5610.63,0.86098
5604.84,0.85891
5599.05,0.86312
5593.27,0.86378
5587.48,0.86690
5581.69,0.86935
5575.91,0.87106
5570.12,0.87192
5564.34,0.87135
5558.55,0.87720
5552.76,0.87409
5546.98,0.87594
5541.19,0.87707
5535.41,0.87546
5529.62,0.87444
5523.83,0.87610
5518.05,0.87413
5512.26,0.87739
5506.47,0.87530
5500.69,0.87726
5494.9,0.87140
5489.12,0.86972
5483.33,0.87557
5477.54,0.87392
5471.76,0.87328
5465.97,0.87249
5460.19,0.87189
5454.4,0.87488
5448.61,0.87240
5442.83,0.86778
5437.04,0.87734
5431.25,0.87552
5425.47,0.87987
5419.68,0.88895
5413.9,0.87521
5408.11,0.88152
5402.32,0.88664
5396.54,0.88363
5390.75,0.88565
5384.97,0.88002
5379.18,0.88685
5373.39,0.88358
5367.61,0.89357
5361.82,0.89116
5356.04,0.88904
5350.25,0.88374
5344.46,0.88028
5338.68,0.88300
5332.89,0.88968
5327.1,0.89033
5321.32,0.89861
5315.53,0.89701
5309.75,0.89650
5303.96,0.89564
5298.17,0.89856
5292.39,0.89985
5286.6,0.89593
5280.82,0.89361
5275.03,0.89799
5269.24,0.89403
5263.46,0.88524
5257.67,0.89274
5251.88,0.89427
5246.1,0.88520
5240.31,0.89494
5234.53,0.89543
5228.74,0.89477
5222.95,0.89368
5217.17,0.89711
5211.38,0.89842
5205.6,0.88957
5199.81,0.89961
5194.02,0.89809
5188.24,0.89865
5182.45,0.89739
5176.66,0.89847
5170.88,0.89948
5165.09,0.90058
5159.31,0.89829
5153.52,0.89923
5147.73,0.90155
5141.95,0.89763
5136.16,0.89866
5130.38,0.90092
5124.59,0.89992
5118.8,0.89997
5113.02,0.90046
5107.23,0.90103
5101.45,0.90345
5095.66,0.90099
5089.87,0.90009
5084.09,0.90210
5078.3,0.90244
5072.51,0.90393
5066.73,0.90741
5060.94,0.90600
5055.16,0.90691
5049.37,0.90603
5043.58,0.90586
5037.8,0.90604
5032.01,0.90832
5026.23,0.90781
5020.44,0.90897
5014.65,0.90852
5008.87,0.90687
5003.08,0.90735
4997.29,0.90768
4991.51,0.90853
4985.72,0.90843
4979.94,0.90739
4974.15,0.90711
4968.36,0.90793
4962.58,0.90871
4956.79,0.90838
4951.01,0.90970
4945.22,0.90863
4939.43,0.90936
4933.65,0.90840
4927.86,0.90866
4922.07,0.90820
4916.29,0.90809
4910.5,0.91033
4904.72,0.90863
4898.93,0.90989
4893.14,0.90866
4887.36,0.91012
4881.57,0.90907
4875.79,0.90739
4870,0.90737
4864.21,0.90823
4858.43,0.90934
4852.64,0.90765
4846.85,0.90713
4841.07,0.90699
4835.28,0.90853
4829.5,0.90773
4823.71,0.90814
4817.92,0.90620
4812.14,0.90697
4806.35,0.90636
4800.57,0.90675
4794.78,0.90558
4788.99,0.90385
4783.21,0.90560
4777.42,0.90529
4771.64,0.90577
4765.85,0.90653
4760.06,0.90686
4754.28,0.90674
4748.49,0.90557
4742.7,0.90534
4736.92,0.90326
4731.13,0.90093
4725.35,0.89785
4719.56,0.89258
4713.77,0.89068
4707.99,0.88908
4702.2,0.88521
4696.42,0.87891
4690.63,0.86984
4684.84,0.86606
4679.06,0.87016
4673.27,0.87626
4667.48,0.88072
4661.7,0.88158
4655.91,0.88306
4650.13,0.88141
4644.34,0.88002
4638.55,0.87489
4632.77,0.86807
4626.98,0.87082
4621.2,0.87927
4615.41,0.88622
4609.62,0.88800
4603.84,0.89058
4598.05,0.89145
4592.26,0.88859
4586.48,0.88704
4580.69,0.88652
4574.91,0.88406
4569.12,0.88688
4563.33,0.89185
4557.55,0.89214
4551.76,0.89457
4545.98,0.89267
4540.19,0.89185
4534.4,0.89072
4528.62,0.89109
4522.83,0.88873
4517.05,0.88712
4511.26,0.88431
4505.47,0.88031
4499.69,0.87677
4493.9,0.86998
4488.11,0.86363
4482.33,0.85937
4476.54,0.85685
4470.76,0.85199
4464.97,0.84724
4459.18,0.84091
4453.4,0.82951
4447.61,0.81602
4441.83,0.79760
4436.04,0.77823
4430.25,0.75365
4424.47,0.72826
4418.68,0.69952
4412.89,0.67263
4407.11,0.64786
4401.32,0.62934
4395.54,0.62031
4389.75,0.61553
4383.96,0.59906
4378.18,0.57342
4372.39,0.54248
4366.61,0.50873
4360.82,0.47293
4355.03,0.44165
4349.25,0.41430
4343.46,0.38483
4337.67,0.36017
4331.89,0.35324
4326.1,0.37608
4320.32,0.41279
4314.53,0.44792
4308.74,0.47005
4302.96,0.47945
4297.17,0.48458
4291.39,0.48358
4285.6,0.47906
4279.81,0.47376
4274.03,0.47487
4268.24,0.47949
4262.46,0.48635
4256.67,0.49046
4250.88,0.49112
4245.1,0.49104
4239.31,0.48818
4233.52,0.48288
4227.74,0.47673
4221.95,0.47030
4216.17,0.46746
4210.38,0.46856
4204.59,0.47777
4198.81,0.49070
4193.02,0.50239
4187.24,0.50850
4181.45,0.50443
4175.66,0.49570
4169.88,0.49185
4164.09,0.50127
4158.3,0.52103
4152.52,0.53816
4146.73,0.55075
4140.95,0.56343
4135.16,0.57780
4129.37,0.58759
4123.59,0.59095
4117.8,0.58802
4112.02,0.58174
4106.23,0.57564
4100.44,0.56711
4094.66,0.54908
4088.87,0.51922
4083.08,0.49847
4077.3,0.51414
4071.51,0.54290
4065.73,0.56703
4059.94,0.59123
4054.15,0.61060
4048.37,0.62067
4042.58,0.62600
4036.8,0.63141
4031.01,0.63298
4025.22,0.63352
4019.44,0.63331
4013.65,0.63903
4007.86,0.64554
4002.08,0.65677
3996.29,0.66587
3990.51,0.67559
3984.72,0.68587
3978.93,0.69097
3973.15,0.69548
3967.36,0.70329
3961.58,0.70404
3955.79,0.70560
3950,0.70161
3944.22,0.70172
3938.43,0.70814
3932.65,0.70145
3926.86,0.70181
3921.07,0.69983
3915.29,0.70239
3909.5,0.71006
3903.71,0.68751
3897.93,0.70032
3892.14,0.70458
3886.36,0.70970
3880.57,0.70660
3874.78,0.71108
3869,0.69944
3863.21,0.70250
3857.43,0.71149
3851.64,0.68987
3845.85,0.71893
3840.07,0.69925
3834.28,0.70920
3828.49,0.72118
3822.71,0.71406
3816.92,0.71515
3811.14,0.74045
3805.35,0.72593
3799.56,0.72113
3793.78,0.75049
3787.99,0.75925
3782.21,0.75643
3776.42,0.76074
3770.63,0.75526
3764.85,0.75218
3759.06,0.74250
3753.27,0.73309
3747.49,0.72529
3741.7,0.74052
3735.92,0.72758
3730.13,0.75003
3724.34,0.75430
3718.56,0.77239
3712.77,0.75817
3706.99,0.75652
3701.2,0.74530
3695.41,0.73069
3689.63,0.67778
3683.84,0.67806
3678.06,0.66083
3672.27,0.65537
3666.48,0.67997
3660.7,0.69375
3654.91,0.68819
3649.12,0.65914
3643.34,0.69407
3637.55,0.69745
3631.77,0.68041
3625.98,0.66522
3620.19,0.65659
3614.41,0.64682
3608.62,0.64360
3602.84,0.64605
3597.05,0.63271
3591.26,0.63136
3585.48,0.61770
3579.69,0.62035
3573.9,0.60974
3568.12,0.58415
3562.33,0.57672
3556.55,0.57258
3550.76,0.55987
3544.97,0.54970
3539.19,0.55470
3533.4,0.55060
3527.62,0.54186
3521.83,0.53855
3516.04,0.53826
3510.26,0.52656
3504.47,0.51479
3498.68,0.50566
3492.9,0.49190
3487.11,0.47391
3481.33,0.45607
3475.54,0.44376
3469.75,0.42990
3463.97,0.41558
3458.18,0.40371
3452.4,0.39029
3446.61,0.36830
3440.82,0.34441
3435.04,0.31830
3429.25,0.29800
3423.47,0.29151
3417.68,0.30144
3411.89,0.32346
3406.11,0.35357
3400.32,0.38573
3394.53,0.41238
3388.75,0.43535
3382.96,0.45315
3377.18,0.46857
3371.39,0.48173
3365.6,0.48928
3359.82,0.49704
3354.03,0.50148
3348.25,0.50427
3342.46,0.50100
3336.67,0.49387
3330.89,0.48766
3325.1,0.48217
3319.31,0.46695
3313.53,0.42605
3307.74,0.34815
3301.96,0.29139
3296.17,0.32458
3290.38,0.39362
3284.6,0.45203
3278.81,0.49150
3273.03,0.51906
3267.24,0.54167
3261.45,0.55430
3255.67,0.56211
3249.88,0.56645
3244.09,0.56736
3238.31,0.56631
3232.52,0.56289
3226.74,0.55772
3220.95,0.55462
3215.16,0.55100
3209.38,0.54863
3203.59,0.54483
3197.81,0.53981
3192.02,0.53911
3186.23,0.53926
3180.45,0.54105
3174.66,0.54254
3168.87,0.54423
3163.09,0.54244
3157.3,0.54162
3151.52,0.53831
3145.73,0.53300
3139.94,0.52510
3134.16,0.51316
3128.37,0.49822
3122.59,0.49088
3116.8,0.48652
3111.01,0.47272
3105.23,0.44804
3099.44,0.41655
3093.66,0.39810
3087.87,0.37230
3082.08,0.34156
3076.3,0.33439
3070.51,0.31876
3064.72,0.29167
3058.94,0.28500
3053.15,0.27100
3047.37,0.28361
3041.58,0.28815
3035.79,0.26860
3030.01,0.24028
3024.22,0.20971
3018.44,0.17144
3012.65,0.12839
3006.86,0.08339
3001.08,0.04364
2995.29,0.01550
2989.5,0.00343
2983.72,0.00075
2977.93,0.00037
2972.15,0.00047
2966.36,0.00108
2960.57,0.00067
2954.79,0.00037
2949,0.00069
2943.22,0.00066
2937.43,0.00024
2931.64,0.00067
2925.86,0.00043
2920.07,0.00066
2914.28,0.00062
2908.5,0.00083
2902.71,0.00036
2896.93,0.00026
2891.14,0.00058
2885.35,0.00071
2879.57,0.00029
2873.78,0.00036
2868,0.00025
2862.21,0.00032
2856.42,-0.00001
2850.64,0.00080
2844.85,0.00116
2839.07,0.00881
2833.28,0.02759
2827.49,0.04933
2821.71,0.06114
2815.92,0.07070
2810.13,0.11466
2804.35,0.17067
2798.56,0.21636
2792.78,0.25737
2786.99,0.29156
2781.2,0.32173
2775.42,0.34565
2769.63,0.36078
2763.85,0.36936
2758.06,0.37076
2752.27,0.36371
2746.49,0.35188
2740.7,0.33649
2734.91,0.32593
2729.13,0.33951
2723.34,0.37747
2717.56,0.40804
2711.77,0.42844
2705.98,0.44387
2700.2,0.45685
2694.41,0.46412
2688.63,0.46732
2682.84,0.46202
2677.05,0.45473
2671.27,0.45331
2665.48,0.46497
2659.69,0.48377
2653.91,0.50092
2648.12,0.51051
2642.34,0.51037
2636.55,0.50259
2630.76,0.49118
2624.98,0.48962
2619.19,0.48823
2613.41,0.48795
2607.62,0.48631
2601.83,0.48805
2596.05,0.48909
2590.26,0.48863
2584.47,0.48427
2578.69,0.48210
2572.9,0.48803
2567.12,0.49724
2561.33,0.50261
2555.54,0.50402
2549.76,0.51004
2543.97,0.51790
2538.19,0.52607
2532.4,0.52904
2526.61,0.53525
2520.83,0.54543
2515.04,0.55889
2509.26,0.57296
2503.47,0.58525
2497.68,0.59347
2491.9,0.59772
2486.11,0.60269
2480.32,0.60705
2474.54,0.61315
2468.75,0.61800
2462.97,0.62208
2457.18,0.62146
2451.39,0.62003
2445.61,0.61554
2439.82,0.60892
2434.04,0.60134
2428.25,0.58994
2422.46,0.57625
2416.68,0.56479
2410.89,0.55687
2405.1,0.54775
2399.32,0.53918
2393.53,0.52858
2387.75,0.51968
2381.96,0.50380
2376.17,0.47989
2370.39,0.46098
2364.6,0.44999
2358.82,0.45838
2353.03,0.49591
2347.24,0.52882
2341.46,0.52519
2335.67,0.54409
2329.88,0.55694
2324.1,0.56675
2318.31,0.59076
2312.53,0.61401
2306.74,0.62791
2300.95,0.63342
2295.17,0.63065
2289.38,0.62090
2283.6,0.60842
2277.81,0.59597
2272.02,0.60517
2266.24,0.61891
2260.45,0.62781
2254.67,0.62892
2248.88,0.62979
2243.09,0.62728
2237.31,0.62491
2231.52,0.62598
2225.73,0.62933
2219.95,0.63672
2214.16,0.63920
2208.38,0.64360
2202.59,0.65819
2196.8,0.67401
2191.02,0.68000
2185.23,0.68881
2179.45,0.69585
2173.66,0.69946
2167.87,0.69984
2162.09,0.69531
2156.3,0.69383
2150.51,0.69073
2144.73,0.69015
2138.94,0.68576
2133.16,0.68570
2127.37,0.68403
2121.58,0.68274
2115.8,0.67948
2110.01,0.67760
2104.23,0.67744
2098.44,0.67451
2092.65,0.67233
2086.87,0.66663
2081.08,0.66380
2075.29,0.65934
2069.51,0.65973
2063.72,0.65861
2057.94,0.66577
2052.15,0.67179
2046.36,0.67804
2040.58,0.68103
2034.79,0.68384
2029.01,0.68691
2023.22,0.69039
2017.43,0.69569
2011.65,0.70186
2005.86,0.70399
2000.08,0.69792
1994.29,0.68360
1988.5,0.66747
1982.72,0.66619
1976.93,0.65876
1971.14,0.64253
1965.36,0.61276
1959.57,0.57194
1953.79,0.51259
1948,0.48715
1942.21,0.52097
1936.43,0.56858
1930.64,0.60645
1924.86,0.62548
1919.07,0.63384
1913.28,0.64281
1907.5,0.64494
1901.71,0.65258
1895.92,0.65203
1890.14,0.65193
1884.35,0.65858
1878.57,0.66285
1872.78,0.65899
1866.99,0.64258
1861.21,0.64489
1855.42,0.62919
1849.64,0.59904
1843.85,0.55712
1838.06,0.53212
1832.28,0.48040
1826.49,0.41723
1820.7,0.40760
1814.92,0.42529
1809.13,0.43334
1803.35,0.42906
1797.56,0.40668
1791.77,0.36996
1785.99,0.34253
1780.2,0.30067
1774.42,0.26246
1768.63,0.21334
1762.84,0.16125
1757.06,0.08634
1751.27,0.03133
1745.48,0.00535
1739.7,0.00068
1733.91,0.00043
1728.13,0.00017
1722.34,0.00076
1716.55,0.00061
1710.77,0.00044
1704.98,0.00035
1699.2,0.00275
1693.41,0.02518
1687.62,0.04877
1681.84,0.06402
1676.05,0.07456
1670.27,0.10314
1664.48,0.18359
1658.69,0.25973
1652.91,0.27710
1647.12,0.26438
1641.33,0.19762
1635.55,0.17243
1629.76,0.27502
1623.98,0.31533
1618.19,0.30097
1612.4,0.26111
1606.62,0.29120
1600.83,0.34029
1595.05,0.35098
1589.26,0.33559
1583.47,0.22859
1577.69,0.09883
1571.9,0.16451
1566.11,0.21437
1560.33,0.23508
1554.54,0.25957
1548.76,0.26627
1542.97,0.23008
1537.18,0.21836
1531.4,0.24334
1525.61,0.24800
1519.83,0.26573
1514.04,0.23734
1508.25,0.12987
1502.47,0.07694
1496.68,0.19268
1490.89,0.19089
1485.11,0.11205
1479.32,0.03858
1473.54,0.00463
1467.75,0.00025
1461.96,0.00046
1456.18,0.00072
1450.39,0.00026
1444.61,0.00026
1438.82,0.00028
1433.03,0.00023
1427.25,0.00010
1421.46,0.00042
1415.68,0.00039
1409.89,0.00006
1404.1,0.00127
1398.32,0.00533
1392.53,0.00133
1386.74,0.00015
1380.96,0.00040
1375.17,0.00009
1369.39,0.00136
1363.6,0.00166
1357.81,0.00057
1352.03,0.00041
1346.24,0.00070
1340.46,0.00032
1334.67,0.00029
1328.88,0.00016
1323.1,0.00042
1317.31,0.00038
1311.52,0.00034
1305.74,0.00037
1299.95,0.00016
1294.17,0.00018
1288.38,0.00012
1282.59,0.00041
1276.81,0.00021
1271.02,0.00016
1265.24,0.00038
1259.45,0.00013
1253.66,0.00018
1247.88,0.00036
1242.09,0.00027
1236.3,0.00018
1230.52,0.00028
1224.73,0.00041
1218.95,0.00240
1213.16,0.00258
1207.37,0.00210
1201.59,0.00139
1195.8,0.00205
1190.02,0.00515
1184.23,0.01229
1178.44,0.01232
1172.66,0.00493
1166.87,0.00703
1161.09,0.00738
1155.3,0.00618
1149.51,0.00472
1143.73,0.00439
1137.94,0.00203
1132.15,0.00012
1126.37,0.00023
1120.58,0.00038
1114.8,0.00025
1109.01,0.00053
1103.22,0.00051
1097.44,0.00062
1091.65,0.00012
1085.87,0.00056
1080.08,0.00089
1074.29,0.00365
1068.51,0.00949
1062.72,0.01385
1056.93,0.01958
1051.15,0.02495
1045.36,0.02591
1039.58,0.02255
1033.79,0.01723
1028,0.00815
1022.22,0.00070
1016.43,0.00113
1010.65,0.00648
1004.86,0.00800
999.073,0.00401
993.287,0.00200
987.501,0.00127
981.715,0.00064
975.929,0.00039
970.142,0.00020
964.356,0.00031
958.57,0.00060
952.784,0.00032
946.998,0.00010
941.212,0.00092
935.426,0.00157
929.64,0.00320
923.853,0.00368
918.067,0.00768
912.281,0.01305
906.495,0.01662
900.709,0.02661
894.923,0.03492
889.137,0.04685
883.35,0.03376
877.564,0.00437
871.778,0.00499
865.992,0.02633
860.206,0.03870
854.42,0.04048
848.634,0.03927
842.847,0.03796
837.061,0.03021
831.275,0.02951
825.489,0.07081
819.703,0.13416
813.917,0.16115
808.131,0.16303
802.344,0.17187
796.558,0.12179
790.772,0.13207
784.986,0.10341
779.2,0.08816
773.414,0.06737
767.628,0.05859
761.842,0.10345
756.055,0.16285
750.269,0.14687
744.483,0.06571
738.697,0.00428
732.911,0.00023
727.125,0.00070
721.339,0.01201
715.552,0.02301
709.766,0.00915
703.98,0.00342
698.194,0.00102
692.408,0.00110
686.622,0.00123
680.836,0.00238
675.049,0.00556
669.263,0.01407
663.477,0.02403
657.691,0.01244
651.905,0.00104
646.119,0.00091
640.333,0.00181
634.546,0.00116
628.76,0.00157
622.974,0.00169
617.188,0.00057
611.402,0.00234
605.616,-0.00012
599.83,0.00649