File: 01_Data/PEVA/FTIR/IS/PEVA_0.18_IS_T_240809_R5.dpt
7497.33,0.04516
7491.55,0.02999
7485.76,0.03784
7479.97,0.05084
7474.19,0.02769
7468.4,0.03672
7462.61,0.04283
7456.83,0.04062
7451.04,0.05398
7445.26,0.03583
7439.47,0.02543
7433.68,0.04779
7427.9,0.04717
7422.11,0.03944
7416.32,0.04882
7410.54,0.03759
7404.75,0.02927
7398.96,0.03672
7393.18,0.03768
7387.39,0.04057
7381.6,0.03624
7375.82,0.04516
7370.03,0.04153
7364.24,0.03188
7358.46,0.02449
7352.67,0.04244
7346.89,0.03920
7341.1,0.03509
7335.31,0.02887
7329.53,0.04421
7323.74,0.01866
7317.95,0.02589
7312.17,0.02515
7306.38,0.03985
7300.59,0.02433
7294.81,0.04146
7289.02,0.03273
7283.23,0.02687
7277.45,0.02138
7271.66,0.04063
7265.87,0.03690
7260.09,0.04228
7254.3,0.02528
7248.52,0.03578
7242.73,0.03761
7236.94,0.04452
7231.16,0.01966
7225.37,0.03828
7219.58,0.03547
7213.8,0.02927
7208.01,0.04741
7202.22,0.03105
7196.44,0.04701
7190.65,0.02595
7184.86,0.03257
7179.08,0.03040
7173.29,0.03238
7167.5,0.03369
7161.72,0.04049
7155.93,0.02463
7150.15,0.03245
7144.36,0.04166
7138.57,0.03338
7132.79,0.02910
7127,0.03036
7121.21,0.03722
7115.43,0.03932
7109.64,0.03087
7103.85,0.02903
7098.07,0.04146
7092.28,0.03175
7086.49,0.04024
7080.71,0.03879
7074.92,0.03729
7069.13,0.03078
7063.35,0.02767
7057.56,0.03362
7051.78,0.03500
7045.99,0.03789
7040.2,0.03099
7034.42,0.04182
7028.63,0.02606
7022.84,0.03364
7017.06,0.02908
7011.27,0.03729
7005.48,0.04435
6999.7,0.02726
6993.91,0.03319
6988.12,0.03078
6982.34,0.03544
6976.55,0.02823
6970.76,0.03043
6964.98,0.02975
6959.19,0.03407
6953.41,0.03751
6947.62,0.02819
6941.83,0.04178
6936.05,0.04437
6930.26,0.03048
6924.47,0.03290
6918.69,0.03971
6912.9,0.03793
6907.11,0.03902
6901.33,0.03311
6895.54,0.02937
6889.75,0.02839
6883.97,0.03444
6878.18,0.03765
6872.39,0.03641
6866.61,0.03192
6860.82,0.03313
6855.04,0.02984
6849.25,0.02916
6843.46,0.03964
6837.68,0.03210
6831.89,0.03279
6826.1,0.03319
6820.32,0.04342
6814.53,0.02854
6808.74,0.03285
6802.96,0.04518
6797.17,0.03154
6791.38,0.02966
6785.6,0.03022
6779.81,0.02596
6774.03,0.03333
6768.24,0.03419
6762.45,0.03162
6756.67,0.03013
6750.88,0.03102
6745.09,0.02865
6739.31,0.03021
6733.52,0.01952
6727.73,0.03037
6721.95,0.03148
6716.16,0.03366
6710.37,0.03703
6704.59,0.02936
6698.8,0.02843
6693.01,0.03395
6687.23,0.03760
6681.44,0.03905
6675.66,0.03346
6669.87,0.04026
6664.08,0.03347
6658.3,0.03408
6652.51,0.03410
6646.72,0.03388
6640.94,0.03132
6635.15,0.03194
6629.36,0.03280
6623.58,0.02748
6617.79,0.02972
6612,0.02679
6606.22,0.02777
6600.43,0.02900
6594.64,0.03504
6588.86,0.03195
6583.07,0.03080
6577.29,0.03000
6571.5,0.03152
6565.71,0.03827
6559.93,0.03076
6554.14,0.03257
6548.35,0.03462
6542.57,0.03231
6536.78,0.03017
6530.99,0.03213
6525.21,0.02865
6519.42,0.03088
6513.63,0.03035
6507.85,0.02986
6502.06,0.02920
6496.27,0.03602
6490.49,0.02625
6484.7,0.03090
6478.92,0.03037
6473.13,0.02828
6467.34,0.03299
6461.56,0.03128
6455.77,0.03456
6449.98,0.03175
6444.2,0.03714
6438.41,0.03933
6432.62,0.03819
6426.84,0.03182
6421.05,0.03399
6415.26,0.03474
6409.48,0.03284
6403.69,0.03274
6397.9,0.02745
6392.12,0.03113
6386.33,0.03230
6380.55,0.03360
6374.76,0.03053
6368.97,0.03244
6363.19,0.03474
6357.4,0.03442
6351.61,0.03594
6345.83,0.03367
6340.04,0.02753
6334.25,0.02992
6328.47,0.02914
6322.68,0.02736
6316.89,0.02916
6311.11,0.03000
6305.32,0.03036
6299.53,0.03112
6293.75,0.02978
6287.96,0.02908
6282.18,0.02954
6276.39,0.03252
6270.6,0.02946
6264.82,0.02961
6259.03,0.03451
6253.24,0.02985
6247.46,0.02920
6241.67,0.03014
6235.88,0.03190
6230.1,0.02992
6224.31,0.02986
6218.52,0.03166
6212.74,0.02897
6206.95,0.03254
6201.16,0.03244
6195.38,0.03448
6189.59,0.02712
6183.81,0.02678
6178.02,0.03194
6172.23,0.03272
6166.45,0.03125
6160.66,0.02846
6154.87,0.03022
6149.09,0.03075
6143.3,0.03167
6137.51,0.03462
6131.73,0.03071
6125.94,0.03235
6120.15,0.03465
6114.37,0.03387
6108.58,0.02976
6102.79,0.03260
6097.01,0.03143
6091.22,0.03052
6085.44,0.03154
6079.65,0.03006
6073.86,0.02927
6068.08,0.03143
6062.29,0.03274
6056.5,0.03104
6050.72,0.02990
6044.93,0.03102
6039.14,0.02940
6033.36,0.02996
6027.57,0.03236
6021.78,0.03002
6016,0.03021
6010.21,0.03155
6004.42,0.03111
5998.64,0.02930
5992.85,0.02877
5987.07,0.03615
5981.28,0.02738
5975.49,0.02937
5969.71,0.03136
5963.92,0.03015
5958.13,0.02762
5952.35,0.02908
5946.56,0.03063
5940.77,0.02808
5934.99,0.03034
5929.2,0.03045
5923.41,0.03183
5917.63,0.02965
5911.84,0.03077
5906.05,0.02807
5900.27,0.02967
5894.48,0.02964
5888.7,0.03128
5882.91,0.03222
5877.12,0.03031
5871.34,0.03071
5865.55,0.03061
5859.76,0.03233
5853.98,0.02952
5848.19,0.03515
5842.4,0.03034
5836.62,0.03113
5830.83,0.03149
5825.04,0.02927
5819.26,0.03307
5813.47,0.03433
5807.68,0.02915
5801.9,0.02772
5796.11,0.02944
5790.33,0.03117
5784.54,0.02990
5778.75,0.03238
5772.97,0.03207
5767.18,0.03026
5761.39,0.02902
5755.61,0.03153
5749.82,0.03049
5744.03,0.03074
5738.25,0.03131
5732.46,0.02933
5726.67,0.03185
5720.89,0.02970
5715.1,0.03007
5709.31,0.02881
5703.53,0.03028
5697.74,0.03345
5691.96,0.03055
5686.17,0.02871
5680.38,0.03140
5674.6,0.03154
5668.81,0.02998
5663.02,0.03149
5657.24,0.02940
5651.45,0.03000
5645.66,0.02813
5639.88,0.03035
5634.09,0.03116
5628.3,0.03031
5622.52,0.02979
5616.73,0.02938
5610.94,0.03204
5605.16,0.03051
5599.37,0.03360
5593.59,0.03119
5587.8,0.02919
5582.01,0.03251
5576.23,0.02925
5570.44,0.02978
5564.65,0.03017
5558.87,0.02917
5553.08,0.03175
5547.29,0.03037
5541.51,0.03081
5535.72,0.03243
5529.93,0.03064
5524.15,0.02936
5518.36,0.02962
5512.58,0.03051
5506.79,0.03056
5501,0.03287
5495.22,0.03216
5489.43,0.03137
5483.64,0.03237
5477.86,0.03107
5472.07,0.03013
5466.28,0.03196
5460.5,0.03223
5454.71,0.02862
5448.92,0.03080
5443.14,0.02942
5437.35,0.03113
5431.56,0.02995
5425.78,0.03330
5419.99,0.03127
5414.21,0.02907
5408.42,0.03187
5402.63,0.03193
5396.85,0.03149
5391.06,0.03394
5385.27,0.03173
5379.49,0.03144
5373.7,0.03075
5367.91,0.03144
5362.13,0.03061
5356.34,0.02894
5350.55,0.03065
5344.77,0.03119
5338.98,0.03067
5333.19,0.02807
5327.41,0.02935
5321.62,0.03007
5315.84,0.02977
5310.05,0.03143
5304.26,0.03073
5298.48,0.03065
5292.69,0.03191
5286.9,0.03035
5281.12,0.03056
5275.33,0.02916
5269.54,0.03006
5263.76,0.02971
5257.97,0.03198
5252.18,0.03074
5246.4,0.03016
5240.61,0.03012
5234.82,0.02897
5229.04,0.03005
5223.25,0.02977
5217.47,0.03101
5211.68,0.03044
5205.89,0.03025
5200.11,0.03215
5194.32,0.02982
5188.53,0.03113
5182.75,0.03215
5176.96,0.03061
5171.17,0.02903
5165.39,0.02829
5159.6,0.02980
5153.81,0.03002
5148.03,0.03163
5142.24,0.03177
5136.45,0.02912
5130.67,0.02950
5124.88,0.03060
5119.1,0.02979
5113.31,0.02974
5107.52,0.03119
5101.74,0.03039
5095.95,0.02978
5090.16,0.03025
5084.38,0.03044
5078.59,0.03223
5072.8,0.03107
5067.02,0.03150
5061.23,0.02973
5055.44,0.02957
5049.66,0.03132
5043.87,0.03050
5038.08,0.02906
5032.3,0.03138
5026.51,0.03113
5020.73,0.03068
5014.94,0.03042
5009.15,0.02947
5003.37,0.03099
4997.58,0.03140
4991.79,0.02940
4986.01,0.02910
4980.22,0.03078
4974.43,0.03090
4968.65,0.03058
4962.86,0.02931
4957.07,0.03135
4951.29,0.03043
4945.5,0.03023
4939.71,0.03055
4933.93,0.03104
4928.14,0.03086
4922.36,0.03055
4916.57,0.03111
4910.78,0.03007
4905,0.03000
4899.21,0.03055
4893.42,0.03147
4887.64,0.02972
4881.85,0.03005
4876.06,0.03016
4870.28,0.03016
4864.49,0.02952
4858.7,0.02982
4852.92,0.03128
4847.13,0.03025
4841.34,0.03017
4835.56,0.03104
4829.77,0.03148
4823.99,0.03023
4818.2,0.02989
4812.41,0.02987
4806.63,0.02942
4800.84,0.02972
4795.05,0.03097
4789.27,0.03051
4783.48,0.03016
4777.69,0.03008
4771.91,0.03110
4766.12,0.02939
4760.33,0.03012
4754.55,0.03008
4748.76,0.02999
4742.97,0.03100
4737.19,0.03074
4731.4,0.03109
4725.62,0.03213
4719.83,0.03023
4714.04,0.03199
4708.26,0.03102
4702.47,0.02978
4696.68,0.03108
4690.9,0.03061
4685.11,0.03033
4679.32,0.03059
4673.54,0.03044
4667.75,0.03005
4661.96,0.03110
4656.18,0.03020
4650.39,0.02920
4644.6,0.03087
4638.82,0.03040
4633.03,0.02979
4627.25,0.03054
4621.46,0.02972
4615.67,0.03029
4609.89,0.02942
4604.1,0.03050
4598.31,0.03009
4592.53,0.03113
4586.74,0.03031
4580.95,0.03010
4575.17,0.03023
4569.38,0.02999
4563.59,0.03012
4557.81,0.03081
4552.02,0.03007
4546.23,0.03071
4540.45,0.03036
4534.66,0.03056
4528.88,0.03024
4523.09,0.03072
4517.3,0.02998
4511.52,0.02924
4505.73,0.03064
4499.94,0.03119
4494.16,0.03099
4488.37,0.03074
4482.58,0.03019
4476.8,0.03045
4471.01,0.02972
4465.22,0.02880
4459.44,0.02936
4453.65,0.03023
4447.86,0.03059
4442.08,0.02949
4436.29,0.02935
4430.51,0.03053
4424.72,0.02999
4418.93,0.03050
4413.15,0.03046
4407.36,0.03020
4401.57,0.03009
4395.79,0.03150
4390,0.03133
4384.21,0.03093
4378.43,0.03062
4372.64,0.02952
4366.85,0.02939
4361.07,0.03026
4355.28,0.03072
4349.49,0.03047
4343.71,0.03017
4337.92,0.02999
4332.14,0.02926
4326.35,0.03118
4320.56,0.03098
4314.78,0.03078
4308.99,0.03025
4303.2,0.03094
4297.42,0.02990
4291.63,0.03012
4285.84,0.02983
4280.06,0.02990
4274.27,0.03015
4268.48,0.03076
4262.7,0.03102
4256.91,0.03055
4251.13,0.02973
4245.34,0.02953
4239.55,0.02977
4233.77,0.03046
4227.98,0.02981
4222.19,0.02963
4216.41,0.02950
4210.62,0.02910
4204.83,0.03008
4199.05,0.03033
4193.26,0.03042
4187.47,0.03025
4181.69,0.03059
4175.9,0.03047
4170.11,0.02968
4164.33,0.03005
4158.54,0.03002
4152.76,0.02960
4146.97,0.03028
4141.18,0.03018
4135.4,0.03105
4129.61,0.03068
4123.82,0.03000
4118.04,0.03012
4112.25,0.02946
4106.46,0.02920
4100.68,0.03003
4094.89,0.02955
4089.1,0.02944
4083.32,0.03033
4077.53,0.03073
4071.74,0.03046
4065.96,0.03084
4060.17,0.03029
4054.39,0.03042
4048.6,0.02951
4042.81,0.02958
4037.03,0.03044
4031.24,0.03059
4025.45,0.03113
4019.67,0.03087
4013.88,0.03092
4008.09,0.03002
4002.31,0.02946
3996.52,0.03031
3990.73,0.03060
3984.95,0.02989
3979.16,0.03052
3973.37,0.02977
3967.59,0.03008
3961.8,0.02972
3956.02,0.03042
3950.23,0.03049
3944.44,0.03042
3938.66,0.03017
3932.87,0.03001
3927.08,0.03028
3921.3,0.03003
3915.51,0.02995
3909.72,0.03119
3903.94,0.03060
3898.15,0.03060
3892.36,0.03032
3886.58,0.03055
3880.79,0.03030
3875,0.03054
3869.22,0.03031
3863.43,0.03010
3857.65,0.03075
3851.86,0.03008
3846.07,0.02979
3840.29,0.03035
3834.5,0.02958
3828.71,0.03105
3822.93,0.03165
3817.14,0.03090
3811.35,0.03007
3805.57,0.03017
3799.78,0.02898
3793.99,0.03036
3788.21,0.03046
3782.42,0.03003
3776.63,0.02943
3770.85,0.03036
3765.06,0.02971
3759.28,0.03076
3753.49,0.03089
3747.7,0.02958
3741.92,0.03086
3736.13,0.03114
3730.34,0.03088
3724.56,0.03063
3718.77,0.03038
3712.98,0.03006
3707.2,0.03021
3701.41,0.02924
3695.62,0.02943
3689.84,0.02916
3684.05,0.03004
3678.26,0.03013
3672.48,0.02952
3666.69,0.02922
3660.91,0.02833
3655.12,0.02841
3649.33,0.02884
3643.55,0.02823
3637.76,0.02825
3631.97,0.02836
3626.19,0.02826
3620.4,0.02699
3614.61,0.02782
3608.83,0.02817
3603.04,0.02841
3597.25,0.02735
3591.47,0.02767
3585.68,0.02771
3579.89,0.02677
3574.11,0.02720
3568.32,0.02828
3562.54,0.02676
3556.75,0.02755
3550.96,0.02782
3545.18,0.02737
3539.39,0.02738
3533.6,0.02648
3527.82,0.02617
3522.03,0.02677
3516.24,0.02724
3510.46,0.02677
3504.67,0.02655
3498.88,0.02726
3493.1,0.02658
3487.31,0.02652
3481.52,0.02668
3475.74,0.02706
3469.95,0.02642
3464.17,0.02716
3458.38,0.02607
3452.59,0.02634
3446.81,0.02598
3441.02,0.02635
3435.23,0.02634
3429.45,0.02684
3423.66,0.02711
3417.87,0.02685
3412.09,0.02635
3406.3,0.02647
3400.51,0.02645
3394.73,0.02621
3388.94,0.02644
3383.15,0.02684
3377.37,0.02706
3371.58,0.02570
3365.8,0.02641
3360.01,0.02563
3354.22,0.02609
3348.44,0.02584
3342.65,0.02577
3336.86,0.02676
3331.08,0.02628
3325.29,0.02649
3319.5,0.02615
3313.72,0.02654
3307.93,0.02587
3302.14,0.02714
3296.36,0.02657
3290.57,0.02571
3284.78,0.02663
3279,0.02712
3273.21,0.02709
3267.43,0.02701
3261.64,0.02609
3255.85,0.02738
3250.07,0.02623
3244.28,0.02693
3238.49,0.02752
3232.71,0.02723
3226.92,0.02667
3221.13,0.02716
3215.35,0.02674
3209.56,0.02710
3203.77,0.02699
3197.99,0.02669
3192.2,0.02708
3186.41,0.02659
3180.63,0.02651
3174.84,0.02670
3169.06,0.02644
3163.27,0.02635
3157.48,0.02662
3151.7,0.02724
3145.91,0.02689
3140.12,0.02763
3134.34,0.02735
3128.55,0.02657
3122.76,0.02602
3116.98,0.02729
3111.19,0.02750
3105.4,0.02743
3099.62,0.02634
3093.83,0.02647
3088.05,0.02630
3082.26,0.02699
3076.47,0.02735
3070.69,0.02687
3064.9,0.02643
3059.11,0.02694
3053.33,0.02695
3047.54,0.02662
3041.75,0.02659
3035.97,0.02680
3030.18,0.02679
3024.39,0.02706
3018.61,0.02698
3012.82,0.02699
3007.03,0.02673
3001.25,0.02615
2995.46,0.02645
2989.68,0.02618
2983.89,0.02593
2978.1,0.02599
2972.32,0.02507
2966.53,0.02562
2960.74,0.02564
2954.96,0.02563
2949.17,0.02542
2943.38,0.02606
2937.6,0.02532
2931.81,0.02567
2926.02,0.02683
2920.24,0.02641
2914.45,0.02610
2908.66,0.02642
2902.88,0.02627
2897.09,0.02648
2891.31,0.02675
2885.52,0.02662
2879.73,0.02642
2873.95,0.02666
2868.16,0.02664
2862.37,0.02644
2856.59,0.02667
2850.8,0.02726
2845.01,0.02689
2839.23,0.02771
2833.44,0.02704
2827.65,0.02686
2821.87,0.02723
2816.08,0.02697
2810.29,0.02747
2804.51,0.02764
2798.72,0.02781
2792.94,0.02731
2787.15,0.02796
2781.36,0.02776
2775.58,0.02751
2769.79,0.02790
2764,0.02762
2758.22,0.02742
2752.43,0.02695
2746.64,0.02735
2740.86,0.02728
2735.07,0.02729
2729.28,0.02743
2723.5,0.02757
2717.71,0.02777
2711.92,0.02711
2706.14,0.02724
2700.35,0.02719
2694.57,0.02731
2688.78,0.02722
2682.99,0.02729
2677.21,0.02747
2671.42,0.02774
2665.63,0.02695
2659.85,0.02744
2654.06,0.02761
2648.27,0.02762
2642.49,0.02724
2636.7,0.02733
2630.91,0.02728
2625.13,0.02738
2619.34,0.02714
2613.55,0.02721
2607.77,0.02733
2601.98,0.02719
2596.2,0.02708
2590.41,0.02729
2584.62,0.02726
2578.84,0.02730
2573.05,0.02757
2567.26,0.02724
2561.48,0.02712
2555.69,0.02715
2549.9,0.02720
2544.12,0.02714
2538.33,0.02686
2532.54,0.02767
2526.76,0.02734
2520.97,0.02707
2515.18,0.02707
2509.4,0.02668
2503.61,0.02740
2497.83,0.02750
2492.04,0.02687
2486.25,0.02692
2480.47,0.02687
2474.68,0.02711
2468.89,0.02709
2463.11,0.02720
2457.32,0.02685
2451.53,0.02715
2445.75,0.02739
2439.96,0.02744
2434.17,0.02724
2428.39,0.02712
2422.6,0.02703
2416.81,0.02698
2411.03,0.02724
2405.24,0.02686
2399.46,0.02692
2393.67,0.02691
2387.88,0.02691
2382.1,0.02717
2376.31,0.02739
2370.52,0.02753
2364.74,0.02778
2358.95,0.02728
2353.16,0.02719
2347.38,0.02722
2341.59,0.02689
2335.8,0.02724
2330.02,0.02704
2324.23,0.02744
2318.44,0.02677
2312.66,0.02668
2306.87,0.02659
2301.09,0.02628
2295.3,0.02650
2289.51,0.02640
2283.73,0.02642
2277.94,0.02639
2272.15,0.02643
2266.37,0.02665
2260.58,0.02665
2254.79,0.02668
2249.01,0.02620
2243.22,0.02653
2237.43,0.02625
2231.65,0.02627
2225.86,0.02638
2220.07,0.02656
2214.29,0.02667
2208.5,0.02658
2202.72,0.02637
2196.93,0.02614
2191.14,0.02633
2185.36,0.02638
2179.57,0.02620
2173.78,0.02615
2168,0.02615
2162.21,0.02606
2156.42,0.02646
2150.64,0.02637
2144.85,0.02610
2139.06,0.02611
2133.28,0.02630
2127.49,0.02634
2121.7,0.02590
2115.92,0.02604
2110.13,0.02622
2104.35,0.02583
2098.56,0.02609
2092.77,0.02603
2086.99,0.02607
2081.2,0.02590
2075.41,0.02589
2069.63,0.02575
2063.84,0.02615
2058.05,0.02593
2052.27,0.02619
2046.48,0.02616
2040.69,0.02568
2034.91,0.02613
2029.12,0.02582
2023.33,0.02561
2017.55,0.02573
2011.76,0.02599
2005.98,0.02569
2000.19,0.02558
1994.4,0.02560
1988.62,0.02560
1982.83,0.02564
1977.04,0.02560
1971.26,0.02561
1965.47,0.02583
1959.68,0.02560
1953.9,0.02568
1948.11,0.02597
1942.32,0.02602
1936.54,0.02582
1930.75,0.02572
1924.96,0.02554
1919.18,0.02526
1913.39,0.02535
1907.61,0.02555
1901.82,0.02555
1896.03,0.02556
1890.25,0.02532
1884.46,0.02512
1878.67,0.02561
1872.89,0.02528
1867.1,0.02541
1861.31,0.02523
1855.53,0.02503
1849.74,0.02484
1843.95,0.02488
1838.17,0.02473
1832.38,0.02504
1826.6,0.02482
1820.81,0.02459
1815.02,0.02455
1809.24,0.02414
1803.45,0.02395
1797.66,0.02462
1791.88,0.02397
1786.09,0.02359
1780.3,0.02369
1774.52,0.02336
1768.73,0.02262
1762.94,0.02277
1757.16,0.02166
1751.37,0.02171
1745.58,0.02229
1739.8,0.02284
1734.01,0.02289
1728.23,0.02417
1722.44,0.02505
1716.65,0.02419
1710.87,0.02402
1705.08,0.02414
1699.29,0.02399
1693.51,0.02269
1687.72,0.02305
1681.93,0.02182
1676.15,0.02231
1670.36,0.02239
1664.57,0.02198
1658.79,0.02176
1653,0.02153
1647.21,0.02178
1641.43,0.02213
1635.64,0.02221
1629.86,0.02205
1624.07,0.02258
1618.28,0.02238
1612.5,0.02261
1606.71,0.02224
1600.92,0.02251
1595.14,0.02264
1589.35,0.02227
1583.56,0.02170
1577.78,0.02183
1571.99,0.02186
1566.2,0.02161
1560.42,0.02235
1554.63,0.02160
1548.84,0.02195
1543.06,0.02254
1537.27,0.02212
1531.49,0.02235
1525.7,0.02214
1519.91,0.02292
1514.13,0.02248
1508.34,0.02262
1502.55,0.02232
1496.77,0.02213
1490.98,0.02271
1485.19,0.02234
1479.41,0.02225
1473.62,0.02197
1467.83,0.02172
1462.05,0.02149
1456.26,0.02155
1450.47,0.02182
1444.69,0.02179
1438.9,0.02149
1433.12,0.02163
1427.33,0.02129
1421.54,0.02139
1415.76,0.02074
1409.97,0.02111
1404.18,0.02143
1398.4,0.02112
1392.61,0.02053
1386.82,0.02082
1381.04,0.02076
1375.25,0.02074
1369.46,0.02097
1363.68,0.02075
1357.89,0.02065
1352.1,0.02067
1346.32,0.02040
1340.53,0.02057
1334.75,0.02046
1328.96,0.02017
1323.17,0.01980
1317.39,0.01965
1311.6,0.01945
1305.81,0.01978
1300.03,0.01997
1294.24,0.02037
1288.45,0.02062
1282.67,0.02100
1276.88,0.02111
1271.09,0.02173
1265.31,0.02216
1259.52,0.02255
1253.73,0.02298
1247.95,0.02247
1242.16,0.02235
1236.38,0.02222
1230.59,0.02214
1224.8,0.02206
1219.02,0.02184
1213.23,0.02202
1207.44,0.02193
1201.66,0.02148
1195.87,0.02144
1190.08,0.02070
1184.3,0.02053
1178.51,0.02073
1172.72,0.02018
1166.94,0.02013
1161.15,0.02014
1155.36,0.02028
1149.58,0.02020
1143.79,0.02099
1138.01,0.02041
1132.22,0.02078
1126.43,0.02057
1120.65,0.02185
1114.86,0.02203
1109.07,0.02219
1103.29,0.02258
1097.5,0.02162
1091.71,0.02161
1085.93,0.02180
1080.14,0.02243
1074.35,0.02365
1068.57,0.02361
1062.78,0.02370
1056.99,0.02401
1051.21,0.02361
1045.42,0.02284
1039.64,0.02307
1033.85,0.02304
1028.06,0.02339
1022.28,0.02237
1016.49,0.02306
1010.7,0.02321
1004.92,0.02491
999.13,0.02465
993.344,0.02442
987.557,0.02428
981.771,0.02450
975.984,0.02405
970.198,0.02390
964.411,0.02384
958.625,0.02361
952.838,0.02381
947.052,0.02271
941.265,0.02279
935.479,0.02261
929.692,0.02272
923.906,0.02241
918.12,0.02240
912.333,0.02291
906.547,0.02217
900.76,0.02222
894.974,0.02229
889.187,0.02186
883.401,0.02217
877.614,0.02162
871.828,0.02234
866.041,0.02172
860.255,0.02170
854.468,0.02265
848.682,0.02188
842.895,0.02260
837.109,0.02154
831.323,0.02074
825.536,0.02115
819.75,0.02091
813.963,0.02145
808.177,0.02129
802.39,0.02131
796.604,0.02109
790.817,0.02157
785.031,0.02114
779.244,0.02110
773.458,0.02093
767.671,0.02043
761.885,0.02076
756.098,0.02000
750.312,0.01928
744.526,0.01954
738.739,0.02054
732.953,0.02031
727.166,0.01949
721.38,0.02108
715.593,0.02017
709.807,0.01930
704.02,0.01944
698.234,0.02009
692.447,0.01957
686.661,0.01863
680.874,0.01833
675.088,0.01811
669.301,0.01888
663.515,0.01876
657.729,0.01904
651.942,0.01880
646.156,0.01844
640.369,0.01867
634.583,0.01922
628.796,0.01913
623.01,0.01814
617.223,0.01865
611.437,0.01717
605.65,0.01826
599.864,0.02024