File: 01_Data/PEVA/FTIR/IS/PEVA_0.26_IS_S_240809_R3.dpt
7497.2,0.11582
7491.41,0.10144
7485.63,0.10569
7479.84,0.10213
7474.05,0.09628
7468.27,0.10848
7462.48,0.09626
7456.7,0.10481
7450.91,0.10178
7445.12,0.09818
7439.34,0.10717
7433.55,0.09930
7427.76,0.10038
7421.98,0.10547
7416.19,0.10436
7410.4,0.10179
7404.62,0.10881
7398.83,0.10513
7393.05,0.10321
7387.26,0.09370
7381.47,0.11100
7375.69,0.09097
7369.9,0.10110
7364.11,0.10888
7358.33,0.11087
7352.54,0.10135
7346.75,0.10351
7340.97,0.10558
7335.18,0.09659
7329.4,0.09781
7323.61,0.10311
7317.82,0.09012
7312.04,0.09725
7306.25,0.09968
7300.46,0.08336
7294.68,0.09366
7288.89,0.09916
7283.1,0.10824
7277.32,0.09600
7271.53,0.09284
7265.75,0.09656
7259.96,0.09561
7254.17,0.10324
7248.39,0.10381
7242.6,0.10124
7236.81,0.10357
7231.03,0.09121
7225.24,0.09655
7219.45,0.09875
7213.67,0.09080
7207.88,0.10158
7202.1,0.09942
7196.31,0.08968
7190.52,0.09940
7184.74,0.10055
7178.95,0.09661
7173.16,0.08993
7167.38,0.09597
7161.59,0.09714
7155.8,0.10419
7150.02,0.10143
7144.23,0.10061
7138.45,0.09705
7132.66,0.09944
7126.87,0.09760
7121.09,0.09514
7115.3,0.10092
7109.51,0.10135
7103.73,0.10537
7097.94,0.09531
7092.15,0.09434
7086.37,0.09601
7080.58,0.10497
7074.8,0.10529
7069.01,0.09664
7063.22,0.09957
7057.44,0.10159
7051.65,0.08799
7045.86,0.10245
7040.08,0.09833
7034.29,0.10125
7028.5,0.10019
7022.72,0.10251
7016.93,0.10000
7011.15,0.09432
7005.36,0.10291
6999.57,0.09336
6993.79,0.10146
6988,0.09231
6982.21,0.09752
6976.43,0.09800
6970.64,0.09613
6964.85,0.10307
6959.07,0.10219
6953.28,0.09637
6947.5,0.10490
6941.71,0.09485
6935.92,0.10631
6930.14,0.10140
6924.35,0.10345
6918.56,0.10567
6912.78,0.09930
6906.99,0.09634
6901.2,0.10024
6895.42,0.10848
6889.63,0.10230
6883.85,0.09976
6878.06,0.10561
6872.27,0.09899
6866.49,0.09807
6860.7,0.09410
6854.91,0.09953
6849.13,0.09956
6843.34,0.09743
6837.55,0.09983
6831.77,0.09908
6825.98,0.10009
6820.2,0.09840
6814.41,0.09834
6808.62,0.09624
6802.84,0.09809
6797.05,0.10112
6791.26,0.10060
6785.48,0.10172
6779.69,0.09834
6773.9,0.10378
6768.12,0.10309
6762.33,0.09887
6756.55,0.09971
6750.76,0.09885
6744.97,0.09477
6739.19,0.09845
6733.4,0.10149
6727.61,0.10606
6721.83,0.09603
6716.04,0.09540
6710.25,0.10148
6704.47,0.10294
6698.68,0.09982
6692.9,0.10529
6687.11,0.09849
6681.32,0.10105
6675.54,0.09723
6669.75,0.10099
6663.96,0.10042
6658.18,0.10023
6652.39,0.10329
6646.6,0.09794
6640.82,0.09389
6635.03,0.09872
6629.25,0.09126
6623.46,0.09796
6617.67,0.09280
6611.89,0.10077
6606.1,0.10104
6600.31,0.10054
6594.53,0.09546
6588.74,0.09995
6582.95,0.09721
6577.17,0.10244
6571.38,0.09953
6565.6,0.10295
6559.81,0.09884
6554.02,0.09951
6548.24,0.09888
6542.45,0.09920
6536.66,0.10147
6530.88,0.09804
6525.09,0.09753
6519.3,0.09985
6513.52,0.09871
6507.73,0.10067
6501.95,0.10109
6496.16,0.09473
6490.37,0.10181
6484.59,0.10022
6478.8,0.09898
6473.01,0.10135
6467.23,0.09718
6461.44,0.09482
6455.65,0.10042
6449.87,0.09887
6444.08,0.09828
6438.3,0.10236
6432.51,0.10014
6426.72,0.10320
6420.94,0.10131
6415.15,0.09959
6409.36,0.10305
6403.58,0.10030
6397.79,0.09670
6392,0.09910
6386.22,0.09885
6380.43,0.10446
6374.65,0.10087
6368.86,0.09783
6363.07,0.09658
6357.29,0.10266
6351.5,0.09492
6345.71,0.10058
6339.93,0.10355
6334.14,0.10313
6328.35,0.10114
6322.57,0.10097
6316.78,0.09834
6310.99,0.09964
6305.21,0.10108
6299.42,0.10365
6293.64,0.09755
6287.85,0.09476
6282.06,0.09830
6276.28,0.09714
6270.49,0.09724
6264.7,0.09742
6258.92,0.10118
6253.13,0.09632
6247.34,0.09977
6241.56,0.09668
6235.77,0.09780
6229.99,0.09616
6224.2,0.09600
6218.41,0.10076
6212.63,0.09875
6206.84,0.10130
6201.05,0.09864
6195.27,0.09798
6189.48,0.09957
6183.69,0.09768
6177.91,0.10101
6172.12,0.10017
6166.34,0.09545
6160.55,0.09695
6154.76,0.10067
6148.98,0.09810
6143.19,0.10079
6137.4,0.10187
6131.62,0.09864
6125.83,0.09553
6120.04,0.09994
6114.26,0.09865
6108.47,0.09753
6102.69,0.09850
6096.9,0.10146
6091.11,0.09845
6085.33,0.09859
6079.54,0.09791
6073.75,0.09784
6067.97,0.09840
6062.18,0.10159
6056.39,0.10188
6050.61,0.09696
6044.82,0.09449
6039.04,0.09640
6033.25,0.09476
6027.46,0.09495
6021.68,0.09308
6015.89,0.09604
6010.1,0.09713
6004.32,0.09732
5998.53,0.09580
5992.74,0.09778
5986.96,0.09588
5981.17,0.09664
5975.39,0.09723
5969.6,0.09797
5963.81,0.09769
5958.03,0.09791
5952.24,0.09752
5946.45,0.09576
5940.67,0.09600
5934.88,0.09412
5929.09,0.09523
5923.31,0.09483
5917.52,0.09556
5911.74,0.09450
5905.95,0.09253
5900.16,0.09105
5894.38,0.09596
5888.59,0.09053
5882.8,0.09348
5877.02,0.09226
5871.23,0.08978
5865.44,0.09096
5859.66,0.08603
5853.87,0.08717
5848.09,0.08881
5842.3,0.08567
5836.51,0.08317
5830.73,0.08488
5824.94,0.08434
5819.15,0.08378
5813.37,0.08512
5807.58,0.08851
5801.79,0.08940
5796.01,0.08920
5790.22,0.09019
5784.44,0.08999
5778.65,0.08833
5772.86,0.09008
5767.08,0.09135
5761.29,0.09153
5755.5,0.09022
5749.72,0.08861
5743.93,0.09009
5738.14,0.09227
5732.36,0.09322
5726.57,0.08960
5720.79,0.09120
5715,0.09213
5709.21,0.08872
5703.43,0.09031
5697.64,0.08974
5691.85,0.09306
5686.07,0.09200
5680.28,0.09275
5674.49,0.09325
5668.71,0.09110
5662.92,0.09489
5657.14,0.09486
5651.35,0.09387
5645.56,0.09462
5639.78,0.09466
5633.99,0.09464
5628.2,0.09359
5622.42,0.09284
5616.63,0.09562
5610.84,0.09498
5605.06,0.09379
5599.27,0.09431
5593.49,0.09648
5587.7,0.09796
5581.91,0.09566
5576.13,0.09668
5570.34,0.09774
5564.55,0.09898
5558.77,0.09577
5552.98,0.09530
5547.19,0.09465
5541.41,0.09568
5535.62,0.09672
5529.84,0.09809
5524.05,0.09700
5518.26,0.09619
5512.48,0.09721
5506.69,0.09675
5500.9,0.09557
5495.12,0.09670
5489.33,0.09467
5483.54,0.09750
5477.76,0.09646
5471.97,0.09639
5466.19,0.09729
5460.4,0.09610
5454.61,0.09679
5448.83,0.09757
5443.04,0.09547
5437.25,0.09756
5431.47,0.09723
5425.68,0.09777
5419.89,0.09983
5414.11,0.09900
5408.32,0.09716
5402.54,0.09717
5396.75,0.09897
5390.96,0.09859
5385.18,0.09804
5379.39,0.09904
5373.6,0.09530
5367.82,0.09775
5362.03,0.09990
5356.24,0.09843
5350.46,0.09869
5344.67,0.09778
5338.89,0.09800
5333.1,0.09815
5327.31,0.09946
5321.53,0.09885
5315.74,0.09894
5309.95,0.09816
5304.17,0.09913
5298.38,0.09997
5292.59,0.09968
5286.81,0.10017
5281.02,0.09812
5275.24,0.09771
5269.45,0.09873
5263.66,0.09859
5257.88,0.09947
5252.09,0.10103
5246.3,0.10032
5240.52,0.09738
5234.73,0.09736
5228.94,0.09808
5223.16,0.09793
5217.37,0.09862
5211.59,0.09971
5205.8,0.10024
5200.01,0.09942
5194.23,0.09847
5188.44,0.09927
5182.65,0.09913
5176.87,0.09737
5171.08,0.09943
5165.29,0.09918
5159.51,0.10024
5153.72,0.09903
5147.94,0.09902
5142.15,0.09932
5136.36,0.09893
5130.58,0.09837
5124.79,0.09962
5119,0.09872
5113.22,0.10072
5107.43,0.09934
5101.64,0.09840
5095.86,0.10064
5090.07,0.09953
5084.29,0.09984
5078.5,0.09953
5072.71,0.10021
5066.93,0.10068
5061.14,0.09973
5055.35,0.09942
5049.57,0.10039
5043.78,0.09935
5037.99,0.10012
5032.21,0.10023
5026.42,0.09966
5020.64,0.09991
5014.85,0.09964
5009.06,0.09947
5003.28,0.10024
4997.49,0.09991
4991.7,0.10125
4985.92,0.10008
4980.13,0.10037
4974.34,0.09894
4968.56,0.10040
4962.77,0.10051
4956.99,0.10005
4951.2,0.09930
4945.41,0.10099
4939.63,0.10094
4933.84,0.10009
4928.05,0.10124
4922.27,0.09973
4916.48,0.09997
4910.69,0.10002
4904.91,0.10034
4899.12,0.09953
4893.34,0.10075
4887.55,0.10060
4881.76,0.10182
4875.98,0.10051
4870.19,0.10119
4864.4,0.09982
4858.62,0.09991
4852.83,0.09980
4847.04,0.10035
4841.26,0.10081
4835.47,0.10090
4829.69,0.09956
4823.9,0.09982
4818.11,0.10110
4812.33,0.09941
4806.54,0.10036
4800.75,0.10120
4794.97,0.10014
4789.18,0.10089
4783.39,0.09961
4777.61,0.10013
4771.82,0.10031
4766.04,0.10108
4760.25,0.10098
4754.46,0.10039
4748.68,0.09962
4742.89,0.10065
4737.1,0.10000
4731.32,0.10078
4725.53,0.10143
4719.74,0.09949
4713.96,0.09875
4708.17,0.09866
4702.39,0.09952
4696.6,0.09790
4690.81,0.09704
4685.03,0.09594
4679.24,0.09757
4673.45,0.09740
4667.67,0.09780
4661.88,0.09932
4656.09,0.09861
4650.31,0.09866
4644.52,0.09781
4638.74,0.09783
4632.95,0.09699
4627.16,0.09690
4621.38,0.09736
4615.59,0.09932
4609.8,0.09967
4604.02,0.09938
4598.23,0.09989
4592.44,0.09880
4586.66,0.09927
4580.87,0.09933
4575.09,0.09826
4569.3,0.09907
4563.51,0.09935
4557.73,0.09967
4551.94,0.10075
4546.15,0.09997
4540.37,0.10002
4534.58,0.10009
4528.79,0.09935
4523.01,0.09855
4517.22,0.09880
4511.44,0.09835
4505.65,0.09919
4499.86,0.09894
4494.08,0.09812
4488.29,0.09728
4482.5,0.09745
4476.72,0.09617
4470.93,0.09520
4465.14,0.09499
4459.36,0.09577
4453.57,0.09445
4447.79,0.09430
4442,0.09222
4436.21,0.09014
4430.43,0.08925
4424.64,0.08597
4418.85,0.08474
4413.07,0.08273
4407.28,0.08061
4401.49,0.08070
4395.71,0.07965
4389.92,0.07896
4384.14,0.07771
4378.35,0.07677
4372.56,0.07466
4366.78,0.07336
4360.99,0.07118
4355.2,0.06929
4349.42,0.06824
4343.63,0.06729
4337.84,0.06671
4332.06,0.06622
4326.27,0.06764
4320.49,0.06858
4314.7,0.06961
4308.91,0.07041
4303.13,0.07171
4297.34,0.07230
4291.55,0.07160
4285.77,0.07308
4279.98,0.07108
4274.19,0.07190
4268.41,0.07213
4262.62,0.07218
4256.84,0.07249
4251.05,0.07275
4245.26,0.07276
4239.48,0.07286
4233.69,0.07309
4227.9,0.07158
4222.12,0.07046
4216.33,0.07098
4210.54,0.07086
4204.76,0.07141
4198.97,0.07180
4193.19,0.07347
4187.4,0.07368
4181.61,0.07429
4175.83,0.07269
4170.04,0.07217
4164.25,0.07271
4158.47,0.07368
4152.68,0.07456
4146.89,0.07526
4141.11,0.07614
4135.32,0.07679
4129.54,0.07814
4123.75,0.07737
4117.96,0.07805
4112.18,0.07775
4106.39,0.07660
4100.6,0.07673
4094.82,0.07552
4089.03,0.07320
4083.24,0.07328
4077.46,0.07290
4071.67,0.07492
4065.89,0.07659
4060.1,0.07740
4054.31,0.07814
4048.53,0.08017
4042.74,0.08056
4036.95,0.08061
4031.17,0.08043
4025.38,0.08131
4019.59,0.08081
4013.81,0.08119
4008.02,0.08162
4002.24,0.08204
3996.45,0.08242
3990.66,0.08345
3984.88,0.08464
3979.09,0.08507
3973.3,0.08535
3967.52,0.08593
3961.73,0.08581
3955.94,0.08570
3950.16,0.08575
3944.37,0.08554
3938.59,0.08583
3932.8,0.08599
3927.01,0.08546
3921.23,0.08520
3915.44,0.08521
3909.65,0.08596
3903.87,0.08604
3898.08,0.08631
3892.29,0.08643
3886.51,0.08668
3880.72,0.08765
3874.94,0.08693
3869.15,0.08711
3863.36,0.08780
3857.58,0.08697
3851.79,0.08634
3846,0.08729
3840.22,0.08751
3834.43,0.08698
3828.64,0.08743
3822.86,0.08846
3817.07,0.08794
3811.29,0.08820
3805.5,0.08909
3799.71,0.08851
3793.93,0.08901
3788.14,0.08944
3782.35,0.08971
3776.57,0.08907
3770.78,0.09034
3764.99,0.08909
3759.21,0.08903
3753.42,0.08982
3747.64,0.09005
3741.85,0.09066
3736.06,0.09046
3730.28,0.09051
3724.49,0.09164
3718.7,0.09198
3712.92,0.09170
3707.13,0.09077
3701.34,0.08936
3695.56,0.08890
3689.77,0.08640
3683.99,0.08421
3678.2,0.08261
3672.41,0.08386
3666.63,0.08339
3660.84,0.08450
3655.05,0.08431
3649.27,0.08359
3643.48,0.08417
3637.69,0.08496
3631.91,0.08477
3626.12,0.08333
3620.34,0.08259
3614.55,0.08252
3608.76,0.08204
3602.98,0.08096
3597.19,0.08002
3591.4,0.07953
3585.62,0.07899
3579.83,0.07900
3574.04,0.07910
3568.26,0.07727
3562.47,0.07618
3556.69,0.07563
3550.9,0.07441
3545.11,0.07420
3539.33,0.07463
3533.54,0.07420
3527.75,0.07359
3521.97,0.07403
3516.18,0.07337
3510.39,0.07273
3504.61,0.07197
3498.82,0.07182
3493.04,0.07046
3487.25,0.06979
3481.46,0.06943
3475.68,0.06910
3469.89,0.06809
3464.1,0.06736
3458.32,0.06808
3452.53,0.06740
3446.74,0.06696
3440.96,0.06582
3435.17,0.06330
3429.39,0.06357
3423.6,0.06318
3417.81,0.06267
3412.03,0.06360
3406.24,0.06497
3400.45,0.06670
3394.67,0.06730
3388.88,0.06821
3383.09,0.06898
3377.31,0.06976
3371.52,0.06988
3365.74,0.07039
3359.95,0.07146
3354.16,0.07119
3348.38,0.07112
3342.59,0.07038
3336.8,0.07030
3331.02,0.07048
3325.23,0.06985
3319.44,0.06919
3313.66,0.06779
3307.87,0.06420
3302.09,0.06203
3296.3,0.06357
3290.51,0.06549
3284.73,0.06752
3278.94,0.06982
3273.15,0.07137
3267.37,0.07360
3261.58,0.07349
3255.79,0.07472
3250.01,0.07504
3244.22,0.07452
3238.44,0.07443
3232.65,0.07440
3226.86,0.07371
3221.08,0.07347
3215.29,0.07272
3209.5,0.07387
3203.72,0.07345
3197.93,0.07299
3192.14,0.07305
3186.36,0.07283
3180.57,0.07325
3174.79,0.07296
3169,0.07325
3163.21,0.07302
3157.43,0.07330
3151.64,0.07268
3145.85,0.07200
3140.07,0.07217
3134.28,0.07112
3128.49,0.07097
3122.71,0.07011
3116.92,0.06982
3111.14,0.06954
3105.35,0.06794
3099.56,0.06706
3093.78,0.06596
3087.99,0.06527
3082.2,0.06354
3076.42,0.06326
3070.63,0.06222
3064.84,0.06212
3059.06,0.06147
3053.27,0.06117
3047.49,0.06158
3041.7,0.06152
3035.91,0.06122
3030.13,0.06038
3024.34,0.05946
3018.55,0.05887
3012.77,0.05731
3006.98,0.05709
3001.19,0.05640
2995.41,0.05581
2989.62,0.05566
2983.84,0.05519
2978.05,0.05536
2972.26,0.05530
2966.48,0.05629
2960.69,0.05765
2954.9,0.05888
2949.12,0.05814
2943.33,0.05752
2937.54,0.05771
2931.76,0.05845
2925.97,0.06090
2920.19,0.06049
2914.4,0.06096
2908.61,0.06158
2902.83,0.06140
2897.04,0.06099
2891.25,0.06172
2885.47,0.06031
2879.68,0.05955
2873.89,0.06098
2868.11,0.06077
2862.32,0.06124
2856.54,0.06216
2850.75,0.06227
2844.96,0.06158
2839.18,0.06209
2833.39,0.06153
2827.6,0.06113
2821.82,0.06116
2816.03,0.06123
2810.24,0.06110
2804.46,0.06203
2798.67,0.06285
2792.89,0.06391
2787.1,0.06466
2781.31,0.06564
2775.53,0.06629
2769.74,0.06677
2763.95,0.06736
2758.17,0.06723
2752.38,0.06721
2746.59,0.06583
2740.81,0.06590
2735.02,0.06522
2729.24,0.06550
2723.45,0.06683
2717.66,0.06828
2711.88,0.06953
2706.09,0.07020
2700.3,0.07040
2694.52,0.07087
2688.73,0.07083
2682.94,0.07065
2677.16,0.07046
2671.37,0.07014
2665.59,0.07085
2659.8,0.07175
2654.01,0.07219
2648.23,0.07292
2642.44,0.07310
2636.65,0.07262
2630.87,0.07197
2625.08,0.07180
2619.29,0.07176
2613.51,0.07164
2607.72,0.07167
2601.94,0.07176
2596.15,0.07182
2590.36,0.07156
2584.58,0.07149
2578.79,0.07132
2573,0.07136
2567.22,0.07214
2561.43,0.07200
2555.64,0.07258
2549.86,0.07228
2544.07,0.07298
2538.29,0.07344
2532.5,0.07384
2526.71,0.07399
2520.93,0.07422
2515.14,0.07455
2509.35,0.07578
2503.57,0.07692
2497.78,0.07735
2491.99,0.07744
2486.21,0.07815
2480.42,0.07809
2474.64,0.07869
2468.85,0.07835
2463.06,0.07905
2457.28,0.07919
2451.49,0.07889
2445.7,0.07850
2439.92,0.07792
2434.13,0.07730
2428.34,0.07673
2422.56,0.07589
2416.77,0.07515
2410.99,0.07484
2405.2,0.07423
2399.41,0.07388
2393.63,0.07334
2387.84,0.07314
2382.05,0.07260
2376.27,0.07259
2370.48,0.07351
2364.69,0.07353
2358.91,0.07499
2353.12,0.07558
2347.34,0.07678
2341.55,0.07785
2335.76,0.07863
2329.98,0.07953
2324.19,0.07977
2318.4,0.08017
2312.62,0.08039
2306.83,0.08085
2301.04,0.08013
2295.26,0.07974
2289.47,0.07843
2283.69,0.07723
2277.9,0.07689
2272.11,0.07743
2266.33,0.07803
2260.54,0.07867
2254.75,0.07917
2248.97,0.07894
2243.18,0.07886
2237.39,0.07815
2231.61,0.07871
2225.82,0.07858
2220.04,0.07925
2214.25,0.07929
2208.46,0.07932
2202.68,0.08036
2196.89,0.08127
2191.1,0.08172
2185.32,0.08208
2179.53,0.08248
2173.74,0.08269
2167.96,0.08282
2162.17,0.08239
2156.39,0.08238
2150.6,0.08219
2144.81,0.08208
2139.03,0.08186
2133.24,0.08185
2127.45,0.08202
2121.67,0.08149
2115.88,0.08135
2110.09,0.08116
2104.31,0.08117
2098.52,0.08106
2092.74,0.08046
2086.95,0.08008
2081.16,0.07984
2075.38,0.08009
2069.59,0.07977
2063.8,0.08031
2058.02,0.08040
2052.23,0.08066
2046.44,0.08093
2040.66,0.08130
2034.87,0.08117
2029.09,0.08110
2023.3,0.08199
2017.51,0.08227
2011.73,0.08254
2005.94,0.08234
2000.15,0.08227
1994.37,0.08090
1988.58,0.08034
1982.79,0.07967
1977.01,0.07941
1971.22,0.07821
1965.44,0.07649
1959.65,0.07410
1953.86,0.07070
1948.08,0.06955
1942.29,0.07127
1936.5,0.07373
1930.72,0.07579
1924.93,0.07716
1919.14,0.07742
1913.36,0.07774
1907.57,0.07793
1901.79,0.07819
1896,0.07844
1890.21,0.07853
1884.43,0.07867
1878.64,0.07846
1872.85,0.07850
1867.07,0.07743
1861.28,0.07697
1855.49,0.07596
1849.71,0.07478
1843.92,0.07206
1838.14,0.07037
1832.35,0.06783
1826.56,0.06495
1820.78,0.06425
1814.99,0.06493
1809.2,0.06498
1803.42,0.06495
1797.63,0.06373
1791.84,0.06222
1786.06,0.06084
1780.27,0.05948
1774.49,0.05829
1768.7,0.05614
1762.91,0.05520
1757.13,0.05336
1751.34,0.05232
1745.55,0.05145
1739.77,0.05019
1733.98,0.04827
1728.19,0.05025
1722.41,0.05668
1716.62,0.06415
1710.84,0.06819
1705.05,0.06601
1699.26,0.06288
1693.48,0.06037
1687.69,0.05966
1681.9,0.05860
1676.12,0.05868
1670.33,0.05874
1664.54,0.05960
1658.76,0.06152
1652.97,0.06149
1647.19,0.06161
1641.4,0.05900
1635.61,0.05832
1629.83,0.06085
1624.04,0.06228
1618.25,0.06177
1612.47,0.06000
1606.68,0.06075
1600.89,0.06233
1595.11,0.06257
1589.32,0.06196
1583.54,0.05923
1577.75,0.05629
1571.96,0.05732
1566.18,0.05811
1560.39,0.05787
1554.6,0.05862
1548.82,0.05906
1543.03,0.05800
1537.24,0.05762
1531.46,0.05806
1525.67,0.05802
1519.89,0.05800
1514.1,0.05709
1508.31,0.05528
1502.53,0.05515
1496.74,0.05664
1490.95,0.05614
1485.17,0.05449
1479.38,0.05322
1473.59,0.05262
1467.81,0.05299
1462.02,0.05422
1456.24,0.05463
1450.45,0.05508
1444.66,0.05432
1438.88,0.05382
1433.09,0.05408
1427.3,0.05433
1421.52,0.05555
1415.73,0.05434
1409.94,0.05454
1404.16,0.05590
1398.37,0.05470
1392.59,0.05368
1386.8,0.05362
1381.01,0.05414
1375.23,0.05517
1369.44,0.05436
1363.65,0.05338
1357.87,0.05325
1352.08,0.05278
1346.29,0.05178
1340.51,0.05071
1334.72,0.05134
1328.94,0.05160
1323.15,0.05114
1317.36,0.05128
1311.58,0.05050
1305.79,0.04971
1300,0.04876
1294.22,0.04685
1288.43,0.04540
1282.64,0.04632
1276.86,0.05229
1271.07,0.06420
1265.29,0.07165
1259.5,0.06809
1253.71,0.06764
1247.93,0.07094
1242.14,0.07189
1236.35,0.07014
1230.57,0.06813
1224.78,0.06621
1218.99,0.06439
1213.21,0.06297
1207.42,0.06243
1201.64,0.06136
1195.85,0.06127
1190.06,0.06053
1184.28,0.05994
1178.49,0.05899
1172.7,0.05869
1166.92,0.05835
1161.13,0.05809
1155.34,0.05688
1149.56,0.05673
1143.77,0.05573
1137.99,0.05440
1132.2,0.05307
1126.41,0.05197
1120.63,0.05774
1114.84,0.06335
1109.05,0.06294
1103.27,0.06638
1097.48,0.06948
1091.69,0.06642
1085.91,0.06520
1080.12,0.06494
1074.34,0.06429
1068.55,0.06421
1062.76,0.06313
1056.98,0.06268
1051.19,0.06212
1045.4,0.06189
1039.62,0.06115
1033.83,0.06092
1028.04,0.05895
1022.26,0.05861
1016.47,0.06452
1010.69,0.06264
1004.9,0.06084
999.112,0.05976
993.326,0.05985
987.54,0.05933
981.753,0.05933
975.967,0.05956
970.18,0.06001
964.394,0.06045
958.608,0.06097
952.821,0.06234
947.035,0.06249
941.249,0.06263
935.462,0.06205
929.676,0.06199
923.89,0.06171
918.103,0.06183
912.317,0.06102
906.53,0.06100
900.744,0.06068
894.958,0.06130
889.171,0.06064
883.385,0.06001
877.599,0.05944
871.812,0.06126
866.026,0.06094
860.24,0.06159
854.453,0.06112
848.667,0.06044
842.88,0.05930
837.094,0.06087
831.308,0.06029
825.521,0.05980
819.735,0.06037
813.949,0.06161
808.162,0.06098
802.376,0.06054
796.59,0.05940
790.803,0.05886
785.017,0.05890
779.23,0.05891
773.444,0.05838
767.658,0.05737
761.871,0.05764
756.085,0.05820
750.299,0.05613
744.512,0.05410
738.726,0.04974
732.94,0.05716
727.153,0.06706
721.367,0.06277
715.58,0.05938
709.794,0.05827
704.008,0.05657
698.221,0.05739
692.435,0.05762
686.649,0.05733
680.862,0.05815
675.076,0.05881
669.29,0.05873
663.503,0.05572
657.717,0.05680
651.93,0.05503
646.144,0.05569
640.358,0.05791
634.571,0.05816
628.785,0.06074
622.999,0.06016
617.212,0.06182
611.426,0.06150
605.639,0.06361
599.853,0.06350