File: 01_Data/PEVA/FTIR/IS/PEVA_0.26_IS_Trans_T_240819_R5.dpt
7496.91,0.01899
7491.12,0.02744
7485.33,0.02597
7479.55,0.01534
7473.76,0.02906
7467.98,0.03136
7462.19,0.03900
7456.4,0.02150
7450.62,0.02169
7444.83,0.02589
7439.04,0.02217
7433.26,0.01777
7427.47,0.01979
7421.69,0.05846
7415.9,0.02440
7410.11,0.03835
7404.33,0.00603
7398.54,0.02260
7392.76,0.03351
7386.97,0.02134
7381.18,0.04713
7375.4,0.00960
7369.61,0.02619
7363.83,0.03489
7358.04,0.01478
7352.25,0.04871
7346.47,0.01981
7340.68,0.02513
7334.89,0.00846
7329.11,0.02645
7323.32,-0.00065
7317.54,0.03294
7311.75,0.03468
7305.96,0.00754
7300.18,0.01444
7294.39,0.00325
7288.61,0.02607
7282.82,0.03537
7277.03,0.01563
7271.25,0.04646
7265.46,0.00656
7259.67,0.00750
7253.89,0.01304
7248.1,0.03205
7242.32,0.03761
7236.53,0.01594
7230.74,0.03658
7224.96,0.03986
7219.17,0.03900
7213.39,0.02173
7207.6,0.02298
7201.81,0.01172
7196.03,0.02052
7190.24,0.03457
7184.45,0.01606
7178.67,0.01407
7172.88,0.01838
7167.1,0.02512
7161.31,0.02510
7155.52,0.01486
7149.74,0.02161
7143.95,0.00820
7138.17,0.02052
7132.38,0.01156
7126.59,0.02922
7120.81,0.01269
7115.02,0.01847
7109.23,0.01548
7103.45,0.03815
7097.66,0.02653
7091.88,0.00994
7086.09,0.01629
7080.3,0.01302
7074.52,0.01048
7068.73,0.02211
7062.95,0.03127
7057.16,0.00891
7051.37,-0.00080
7045.59,0.02588
7039.8,0.01890
7034.02,0.00826
7028.23,0.02637
7022.44,0.01510
7016.66,0.02269
7010.87,0.02324
7005.08,0.01594
6999.3,0.01351
6993.51,0.00693
6987.73,0.02728
6981.94,0.02001
6976.15,0.00955
6970.37,-0.00006
6964.58,0.00778
6958.8,0.01623
6953.01,0.01089
6947.22,0.02490
6941.44,0.00335
6935.65,0.01473
6929.86,0.02052
6924.08,0.03363
6918.29,0.00225
6912.51,0.01829
6906.72,0.02354
6900.93,0.01056
6895.15,0.03172
6889.36,0.00382
6883.58,0.01003
6877.79,0.01767
6872,0.01135
6866.22,0.00656
6860.43,0.00107
6854.64,0.01560
6848.86,0.02396
6843.07,0.01801
6837.29,0.02858
6831.5,0.01644
6825.71,0.01360
6819.93,0.01972
6814.14,0.01665
6808.36,0.01468
6802.57,0.01348
6796.78,0.00903
6791,0.01149
6785.21,0.00453
6779.43,0.01181
6773.64,0.00903
6767.85,0.01961
6762.07,0.00038
6756.28,0.02795
6750.49,0.00881
6744.71,-0.00084
6738.92,0.02177
6733.14,0.01921
6727.35,0.01375
6721.56,0.00433
6715.78,0.01342
6709.99,0.01251
6704.21,0.01023
6698.42,0.01809
6692.63,0.01036
6686.85,0.01301
6681.06,0.01315
6675.27,0.00616
6669.49,0.01442
6663.7,0.00570
6657.92,0.00915
6652.13,0.01422
6646.34,0.01566
6640.56,0.00481
6634.77,0.00497
6628.99,0.01287
6623.2,0.00866
6617.41,0.01002
6611.63,0.01360
6605.84,0.01984
6600.05,0.00788
6594.27,0.00582
6588.48,0.01996
6582.7,0.00206
6576.91,0.00661
6571.12,0.01781
6565.34,0.01584
6559.55,0.01407
6553.77,0.01006
6547.98,0.01276
6542.19,0.00891
6536.41,0.00882
6530.62,0.01261
6524.84,0.01162
6519.05,-0.00174
6513.26,0.01387
6507.48,0.02002
6501.69,-0.00489
6495.9,0.01353
6490.12,0.01149
6484.33,0.00200
6478.55,0.00806
6472.76,0.00743
6466.97,0.01270
6461.19,-0.00017
6455.4,0.01511
6449.62,0.01559
6443.83,0.01200
6438.04,0.01656
6432.26,0.00755
6426.47,0.01169
6420.68,0.01106
6414.9,0.01939
6409.11,0.00789
6403.33,0.01371
6397.54,0.00854
6391.75,0.01055
6385.97,0.00921
6380.18,0.00638
6374.4,0.01074
6368.61,0.01504
6362.82,0.00769
6357.04,0.01167
6351.25,0.01966
6345.46,0.00729
6339.68,0.01077
6333.89,0.02244
6328.11,0.01595
6322.32,0.01693
6316.53,-0.00152
6310.75,0.01238
6304.96,0.01276
6299.18,0.01342
6293.39,0.00726
6287.6,0.00832
6281.82,0.00380
6276.03,0.01796
6270.24,0.00802
6264.46,0.01063
6258.67,0.00581
6252.89,0.00990
6247.1,0.00643
6241.31,0.01142
6235.53,0.00864
6229.74,0.00721
6223.96,0.00949
6218.17,0.00198
6212.38,0.01290
6206.6,0.01265
6200.81,0.00503
6195.03,0.01013
6189.24,0.00207
6183.45,0.00582
6177.67,0.00626
6171.88,0.00805
6166.09,0.01117
6160.31,0.00569
6154.52,0.01381
6148.74,0.01332
6142.95,0.00767
6137.16,0.00979
6131.38,0.00335
6125.59,0.00658
6119.81,0.00670
6114.02,0.01080
6108.23,0.01153
6102.45,0.01695
6096.66,0.00332
6090.87,0.01058
6085.09,0.01411
6079.3,0.00771
6073.52,0.00955
6067.73,0.00363
6061.94,0.00898
6056.16,0.00956
6050.37,0.01202
6044.59,0.00465
6038.8,0.00016
6033.01,0.00441
6027.23,0.01343
6021.44,0.00860
6015.65,0.00694
6009.87,0.00042
6004.08,0.01291
5998.3,0.01014
5992.51,0.00758
5986.72,0.00473
5980.94,0.00826
5975.15,0.00625
5969.37,0.00468
5963.58,0.00694
5957.79,0.01199
5952.01,0.00012
5946.22,0.00705
5940.44,0.00405
5934.65,0.00390
5928.86,0.00565
5923.08,0.01027
5917.29,0.01203
5911.5,0.00814
5905.72,0.00555
5899.93,0.00593
5894.15,0.00424
5888.36,0.00327
5882.57,0.00975
5876.79,0.00282
5871,0.00610
5865.22,0.00712
5859.43,0.01073
5853.64,0.00561
5847.86,0.00935
5842.07,-0.00128
5836.28,0.00696
5830.5,0.00265
5824.71,0.00928
5818.93,0.00731
5813.14,0.00416
5807.35,0.00542
5801.57,0.00707
5795.78,0.00682
5790,0.00545
5784.21,0.00467
5778.42,0.00328
5772.64,0.00889
5766.85,0.00613
5761.06,0.00408
5755.28,0.00383
5749.49,0.00083
5743.71,0.00677
5737.92,0.00475
5732.13,0.00479
5726.35,0.00656
5720.56,0.00512
5714.78,0.00272
5708.99,0.00743
5703.2,0.00792
5697.42,0.00545
5691.63,0.00572
5685.84,0.00653
5680.06,0.00636
5674.27,0.00678
5668.49,0.00281
5662.7,0.00314
5656.91,0.00295
5651.13,0.00479
5645.34,0.00354
5639.56,0.00306
5633.77,0.00231
5627.98,0.00908
5622.2,0.00010
5616.41,0.01004
5610.63,0.00567
5604.84,0.00263
5599.05,0.00540
5593.27,0.00768
5587.48,0.00464
5581.69,0.00577
5575.91,0.00520
5570.12,0.00633
5564.34,0.00021
5558.55,0.00321
5552.76,0.00381
5546.98,0.00651
5541.19,0.00398
5535.41,0.00450
5529.62,0.00326
5523.83,0.00518
5518.05,0.00553
5512.26,0.00487
5506.47,0.00513
5500.69,0.01018
5494.9,0.00297
5489.12,0.00371
5483.33,0.00274
5477.54,0.00054
5471.76,0.00377
5465.97,0.00303
5460.19,0.00133
5454.4,0.00182
5448.61,0.00375
5442.83,0.00108
5437.04,0.00773
5431.25,0.00362
5425.47,0.00252
5419.68,0.00654
5413.9,0.00374
5408.11,0.00432
5402.32,0.00766
5396.54,0.00284
5390.75,0.00138
5384.97,0.00691
5379.18,0.00551
5373.39,0.00309
5367.61,0.00382
5361.82,0.00455
5356.04,0.00155
5350.25,0.00626
5344.46,0.00256
5338.68,0.00373
5332.89,0.00427
5327.1,0.00591
5321.32,0.00281
5315.53,0.00288
5309.75,0.00518
5303.96,0.00399
5298.17,0.00491
5292.39,0.00645
5286.6,0.00171
5280.82,0.00484
5275.03,0.00447
5269.24,0.00294
5263.46,0.00523
5257.67,0.00141
5251.88,0.00310
5246.1,0.00254
5240.31,0.00581
5234.53,0.00365
5228.74,0.00278
5222.95,0.00364
5217.17,0.00348
5211.38,0.00497
5205.6,0.00572
5199.81,0.00394
5194.02,0.00065
5188.24,0.00448
5182.45,0.00272
5176.66,0.00158
5170.88,0.00365
5165.09,0.00465
5159.31,0.00439
5153.52,0.00441
5147.73,0.00303
5141.95,0.00280
5136.16,0.00036
5130.38,0.00501
5124.59,0.00164
5118.8,0.00187
5113.02,0.00200
5107.23,0.00235
5101.45,0.00257
5095.66,0.00352
5089.87,0.00494
5084.09,0.00143
5078.3,0.00149
5072.51,0.00191
5066.73,0.00062
5060.94,0.00347
5055.16,0.00378
5049.37,0.00456
5043.58,0.00362
5037.8,0.00365
5032.01,0.00265
5026.23,0.00227
5020.44,0.00116
5014.65,0.00176
5008.87,0.00020
5003.08,0.00311
4997.29,0.00339
4991.51,0.00327
4985.72,0.00261
4979.94,0.00273
4974.15,0.00130
4968.36,0.00476
4962.58,0.00351
4956.79,0.00216
4951.01,0.00199
4945.22,0.00174
4939.43,0.00358
4933.65,0.00370
4927.86,0.00099
4922.07,0.00084
4916.29,0.00130
4910.5,0.00343
4904.72,0.00282
4898.93,0.00165
4893.14,0.00119
4887.36,0.00079
4881.57,0.00403
4875.79,0.00362
4870,0.00012
4864.21,0.00158
4858.43,0.00150
4852.64,0.00187
4846.85,0.00387
4841.07,0.00174
4835.28,0.00265
4829.5,0.00219
4823.71,0.00188
4817.92,0.00195
4812.14,0.00107
4806.35,0.00321
4800.57,0.00184
4794.78,0.00348
4788.99,0.00185
4783.21,0.00340
4777.42,0.00155
4771.64,0.00048
4765.85,-0.00003
4760.06,0.00320
4754.28,0.00185
4748.49,0.00482
4742.7,0.00253
4736.92,0.00161
4731.13,0.00046
4725.35,0.00359
4719.56,0.00072
4713.77,0.00467
4707.99,0.00160
4702.2,0.00176
4696.42,0.00075
4690.63,0.00172
4684.84,0.00353
4679.06,0.00144
4673.27,0.00129
4667.48,0.00269
4661.7,0.00155
4655.91,0.00163
4650.13,0.00029
4644.34,0.00199
4638.55,0.00250
4632.77,0.00177
4626.98,0.00144
4621.2,0.00191
4615.41,0.00238
4609.62,0.00082
4603.84,0.00131
4598.05,0.00339
4592.26,-0.00067
4586.48,0.00169
4580.69,0.00304
4574.91,0.00173
4569.12,0.00064
4563.33,0.00152
4557.55,0.00048
4551.76,0.00225
4545.98,0.00108
4540.19,0.00186
4534.4,0.00305
4528.62,0.00095
4522.83,0.00139
4517.05,0.00223
4511.26,0.00272
4505.47,0.00211
4499.69,0.00189
4493.9,0.00182
4488.11,0.00134
4482.33,0.00153
4476.54,0.00189
4470.76,0.00167
4464.97,0.00139
4459.18,0.00344
4453.4,0.00079
4447.61,0.00226
4441.83,0.00215
4436.04,0.00135
4430.25,0.00230
4424.47,0.00261
4418.68,0.00060
4412.89,0.00126
4407.11,0.00281
4401.32,0.00198
4395.54,0.00177
4389.75,0.00186
4383.96,0.00120
4378.18,0.00235
4372.39,0.00158
4366.61,0.00082
4360.82,0.00164
4355.03,0.00066
4349.25,0.00287
4343.46,0.00242
4337.67,0.00080
4331.89,0.00152
4326.1,0.00236
4320.32,0.00084
4314.53,0.00170
4308.74,0.00072
4302.96,0.00088
4297.17,0.00074
4291.39,0.00201
4285.6,0.00167
4279.81,0.00049
4274.03,0.00138
4268.24,0.00144
4262.46,0.00141
4256.67,0.00186
4250.88,0.00036
4245.1,0.00225
4239.31,0.00153
4233.52,0.00127
4227.74,0.00187
4221.95,0.00057
4216.17,0.00238
4210.38,0.00224
4204.59,0.00081
4198.81,0.00165
4193.02,-0.00001
4187.24,0.00182
4181.45,0.00155
4175.66,0.00225
4169.88,0.00272
4164.09,0.00126
4158.3,0.00182
4152.52,0.00164
4146.73,0.00019
4140.95,0.00113
4135.16,0.00224
4129.37,0.00143
4123.59,0.00113
4117.8,0.00015
4112.02,0.00225
4106.23,0.00032
4100.44,0.00179
4094.66,0.00030
4088.87,0.00087
4083.08,0.00201
4077.3,0.00180
4071.51,0.00202
4065.73,0.00168
4059.94,0.00199
4054.15,0.00216
4048.37,0.00185
4042.58,0.00217
4036.8,0.00090
4031.01,0.00137
4025.22,0.00230
4019.44,0.00233
4013.65,0.00148
4007.86,0.00104
4002.08,0.00126
3996.29,0.00146
3990.51,0.00123
3984.72,0.00144
3978.93,-0.00012
3973.15,0.00149
3967.36,0.00151
3961.58,0.00083
3955.79,0.00038
3950,0.00158
3944.22,0.00192
3938.43,0.00160
3932.65,0.00152
3926.86,0.00145
3921.07,0.00297
3915.29,0.00170
3909.5,0.00159
3903.71,0.00225
3897.93,0.00025
3892.14,0.00127
3886.36,0.00130
3880.57,-0.00056
3874.78,0.00232
3869,0.00263
3863.21,0.00315
3857.43,0.00243
3851.64,0.00208
3845.85,0.00103
3840.07,0.00416
3834.28,0.00136
3828.49,0.00069
3822.71,0.00197
3816.92,0.00256
3811.14,0.00145
3805.35,0.00164
3799.56,-0.00004
3793.78,0.00141
3787.99,0.00043
3782.21,0.00184
3776.42,0.00093
3770.63,0.00230
3764.85,0.00272
3759.06,0.00180
3753.27,0.00249
3747.49,0.00092
3741.7,0.00071
3735.92,0.00221
3730.13,0.00197
3724.34,0.00043
3718.56,0.00208
3712.77,0.00201
3706.99,0.00152
3701.2,0.00233
3695.41,0.00099
3689.63,0.00021
3683.84,0.00168
3678.06,0.00207
3672.27,0.00191
3666.48,0.00133
3660.7,0.00081
3654.91,0.00279
3649.12,0.00199
3643.34,0.00126
3637.55,0.00119
3631.77,0.00037
3625.98,0.00169
3620.19,0.00144
3614.41,0.00142
3608.62,0.00130
3602.84,0.00075
3597.05,0.00118
3591.26,0.00125
3585.48,0.00198
3579.69,0.00072
3573.9,0.00115
3568.12,0.00099
3562.33,0.00198
3556.55,0.00166
3550.76,0.00106
3544.97,0.00181
3539.19,0.00099
3533.4,0.00138
3527.62,0.00153
3521.83,0.00230
3516.04,0.00127
3510.26,0.00103
3504.47,0.00188
3498.68,0.00049
3492.9,0.00297
3487.11,0.00254
3481.33,0.00142
3475.54,0.00143
3469.75,0.00200
3463.97,0.00072
3458.18,0.00165
3452.4,0.00175
3446.61,0.00201
3440.82,0.00090
3435.04,0.00260
3429.25,0.00139
3423.47,0.00123
3417.68,0.00182
3411.89,0.00188
3406.11,0.00036
3400.32,0.00211
3394.53,0.00354
3388.75,0.00159
3382.96,0.00180
3377.18,0.00220
3371.39,-0.00000
3365.6,0.00151
3359.82,0.00159
3354.03,0.00237
3348.25,0.00261
3342.46,0.00074
3336.67,0.00118
3330.89,0.00135
3325.1,0.00171
3319.31,0.00118
3313.53,0.00074
3307.74,0.00159
3301.96,0.00186
3296.17,0.00355
3290.38,0.00199
3284.6,0.00312
3278.81,0.00179
3273.03,0.00117
3267.24,0.00325
3261.45,0.00123
3255.67,0.00217
3249.88,0.00228
3244.09,0.00133
3238.31,0.00313
3232.52,0.00145
3226.74,0.00363
3220.95,0.00332
3215.16,-0.00015
3209.38,0.00111
3203.59,0.00174
3197.81,0.00188
3192.02,0.00264
3186.23,0.00274
3180.45,0.00100
3174.66,0.00269
3168.87,0.00260
3163.09,0.00110
3157.3,0.00109
3151.52,0.00250
3145.73,-0.00038
3139.94,0.00152
3134.16,0.00156
3128.37,0.00227
3122.59,0.00049
3116.8,0.00102
3111.01,0.00145
3105.23,0.00073
3099.44,0.00083
3093.66,0.00105
3087.87,0.00047
3082.08,0.00200
3076.3,0.00127
3070.51,0.00171
3064.72,0.00154
3058.94,0.00129
3053.15,0.00173
3047.37,0.00045
3041.58,0.00122
3035.79,0.00111
3030.01,0.00129
3024.22,0.00085
3018.44,0.00105
3012.65,0.00069
3006.86,0.00168
3001.08,0.00089
2995.29,0.00113
2989.5,0.00134
2983.72,0.00113
2977.93,0.00147
2972.15,0.00114
2966.36,0.00105
2960.57,0.00221
2954.79,0.00138
2949,0.00049
2943.22,0.00103
2937.43,0.00105
2931.64,0.00107
2925.86,0.00134
2920.07,0.00159
2914.28,0.00179
2908.5,0.00039
2902.71,0.00080
2896.93,0.00075
2891.14,0.00154
2885.35,0.00064
2879.57,0.00077
2873.78,0.00136
2868,0.00130
2862.21,0.00080
2856.42,0.00102
2850.64,0.00110
2844.85,0.00047
2839.07,0.00090
2833.28,0.00058
2827.49,0.00103
2821.71,0.00082
2815.92,0.00033
2810.13,0.00181
2804.35,0.00003
2798.56,0.00078
2792.78,0.00078
2786.99,0.00112
2781.2,0.00076
2775.42,0.00129
2769.63,0.00069
2763.85,0.00098
2758.06,0.00075
2752.27,0.00065
2746.49,0.00146
2740.7,0.00134
2734.91,0.00097
2729.13,0.00162
2723.34,0.00153
2717.56,0.00092
2711.77,0.00129
2705.98,0.00028
2700.2,0.00110
2694.41,0.00038
2688.63,0.00069
2682.84,0.00083
2677.05,0.00066
2671.27,0.00030
2665.48,0.00041
2659.69,0.00038
2653.91,0.00093
2648.12,0.00039
2642.34,0.00058
2636.55,0.00069
2630.76,0.00101
2624.98,0.00005
2619.19,0.00099
2613.41,0.00163
2607.62,-0.00008
2601.83,0.00077
2596.05,0.00059
2590.26,0.00100
2584.47,0.00017
2578.69,0.00092
2572.9,0.00031
2567.12,0.00009
2561.33,0.00124
2555.54,-0.00020
2549.76,0.00136
2543.97,0.00112
2538.19,0.00168
2532.4,0.00128
2526.61,0.00098
2520.83,0.00077
2515.04,0.00091
2509.26,0.00103
2503.47,0.00077
2497.68,0.00096
2491.9,0.00008
2486.11,0.00014
2480.32,0.00096
2474.54,0.00056
2468.75,0.00054
2462.97,0.00067
2457.18,0.00069
2451.39,0.00073
2445.61,0.00070
2439.82,0.00030
2434.04,0.00161
2428.25,0.00095
2422.46,0.00070
2416.68,0.00110
2410.89,0.00121
2405.1,-0.00007
2399.32,0.00079
2393.53,0.00040
2387.75,0.00025
2381.96,0.00133
2376.17,0.00118
2370.39,0.00101
2364.6,0.00158
2358.82,0.00109
2353.03,0.00081
2347.24,0.00129
2341.46,0.00122
2335.67,0.00176
2329.88,0.00081
2324.1,0.00032
2318.31,0.00215
2312.53,0.00121
2306.74,0.00139
2300.95,0.00034
2295.17,0.00055
2289.38,0.00031
2283.6,0.00027
2277.81,0.00081
2272.02,0.00023
2266.24,0.00072
2260.45,0.00145
2254.67,0.00076
2248.88,0.00044
2243.09,0.00117
2237.31,0.00068
2231.52,0.00117
2225.73,0.00094
2219.95,0.00102
2214.16,0.00030
2208.38,0.00087
2202.59,0.00045
2196.8,0.00080
2191.02,0.00072
2185.23,0.00085
2179.45,0.00029
2173.66,0.00089
2167.87,0.00076
2162.09,0.00080
2156.3,0.00113
2150.51,0.00114
2144.73,0.00060
2138.94,0.00063
2133.16,0.00058
2127.37,0.00131
2121.58,0.00025
2115.8,0.00069
2110.01,0.00039
2104.23,0.00029
2098.44,0.00062
2092.65,0.00090
2086.87,0.00042
2081.08,0.00083
2075.29,0.00055
2069.51,0.00125
2063.72,0.00028
2057.94,0.00087
2052.15,0.00117
2046.36,0.00035
2040.58,0.00076
2034.79,0.00076
2029.01,-0.00016
2023.22,0.00060
2017.43,0.00053
2011.65,0.00054
2005.86,0.00102
2000.08,0.00014
1994.29,0.00021
1988.5,0.00055
1982.72,0.00068
1976.93,0.00091
1971.14,0.00114
1965.36,0.00033
1959.57,0.00070
1953.79,-0.00011
1948,0.00075
1942.21,0.00071
1936.43,0.00089
1930.64,0.00059
1924.86,0.00063
1919.07,0.00005
1913.28,0.00083
1907.5,0.00112
1901.71,0.00022
1895.92,0.00126
1890.14,0.00009
1884.35,0.00055
1878.57,0.00073
1872.78,0.00061
1866.99,0.00102
1861.21,0.00040
1855.42,0.00084
1849.64,0.00057
1843.85,0.00052
1838.06,0.00073
1832.28,0.00026
1826.49,0.00087
1820.7,0.00072
1814.92,0.00026
1809.13,0.00066
1803.35,0.00076
1797.56,0.00079
1791.77,0.00049
1785.99,0.00105
1780.2,0.00076
1774.42,0.00037
1768.63,0.00073
1762.84,0.00033
1757.06,0.00099
1751.27,0.00096
1745.48,0.00103
1739.7,0.00005
1733.91,0.00092
1728.13,0.00137
1722.34,0.00061
1716.55,0.00124
1710.77,0.00053
1704.98,0.00001
1699.2,0.00094
1693.41,0.00032
1687.62,0.00116
1681.84,0.00062
1676.05,0.00115
1670.27,0.00102
1664.48,0.00088
1658.69,0.00058
1652.91,0.00285
1647.12,0.00077
1641.33,0.00077
1635.55,0.00131
1629.76,-0.00002
1623.98,0.00058
1618.19,0.00155
1612.4,0.00142
1606.62,0.00126
1600.83,0.00124
1595.05,0.00077
1589.26,0.00004
1583.47,0.00025
1577.69,0.00083
1571.9,0.00154
1566.11,0.00008
1560.33,0.00205
1554.54,0.00121
1548.76,0.00119
1542.97,0.00191
1537.18,0.00064
1531.4,0.00027
1525.61,0.00097
1519.83,0.00094
1514.04,0.00137
1508.25,0.00097
1502.47,-0.00009
1496.68,0.00074
1490.89,0.00139
1485.11,0.00048
1479.32,0.00063
1473.54,0.00052
1467.75,0.00048
1461.96,0.00139
1456.18,0.00048
1450.39,0.00148
1444.61,0.00032
1438.82,0.00075
1433.03,0.00055
1427.25,0.00088
1421.46,0.00090
1415.68,0.00147
1409.89,0.00052
1404.1,0.00080
1398.32,0.00087
1392.53,0.00033
1386.74,0.00093
1380.96,0.00043
1375.17,0.00115
1369.39,0.00057
1363.6,0.00046
1357.81,0.00044
1352.03,0.00087
1346.24,0.00096
1340.46,0.00082
1334.67,0.00041
1328.88,0.00086
1323.1,0.00037
1317.31,0.00101
1311.52,0.00121
1305.74,-0.00021
1299.95,0.00075
1294.17,0.00085
1288.38,0.00075
1282.59,0.00105
1276.81,0.00101
1271.02,0.00048
1265.24,0.00088
1259.45,0.00125
1253.66,0.00070
1247.88,0.00031
1242.09,0.00058
1236.3,0.00084
1230.52,0.00046
1224.73,0.00062
1218.95,0.00109
1213.16,0.00037
1207.37,0.00048
1201.59,0.00086
1195.8,0.00040
1190.02,0.00116
1184.23,0.00119
1178.44,0.00052
1172.66,0.00081
1166.87,0.00002
1161.09,0.00135
1155.3,0.00142
1149.51,0.00076
1143.73,0.00154
1137.94,0.00128
1132.15,0.00063
1126.37,0.00085
1120.58,0.00071
1114.8,0.00126
1109.01,0.00161
1103.22,0.00150
1097.44,0.00004
1091.65,0.00175
1085.87,0.00140
1080.08,0.00071
1074.29,0.00167
1068.51,0.00121
1062.72,0.00136
1056.93,0.00058
1051.15,0.00057
1045.36,0.00086
1039.58,0.00136
1033.79,0.00169
1028,0.00075
1022.22,0.00229
1016.43,0.00038
1010.65,0.00204
1004.86,0.00141
999.073,0.00032
993.287,0.00159
987.501,0.00151
981.715,0.00200
975.929,0.00072
970.142,0.00040
964.356,0.00100
958.57,0.00095
952.784,0.00143
946.998,0.00121
941.212,0.00026
935.426,0.00148
929.64,0.00145
923.853,0.00084
918.067,0.00063
912.281,0.00137
906.495,0.00122
900.709,0.00058
894.923,0.00075
889.137,0.00162
883.35,0.00141
877.564,0.00110
871.778,0.00046
865.992,0.00119
860.206,0.00195
854.42,0.00164
848.634,0.00136
842.847,0.00191
837.061,0.00137
831.275,0.00102
825.489,0.00239
819.703,0.00020
813.917,0.00195
808.131,0.00218
802.344,0.00234
796.558,0.00057
790.772,0.00078
784.986,0.00098
779.2,0.00159
773.414,0.00102
767.628,0.00066
761.842,0.00239
756.055,0.00118
750.269,0.00231
744.483,0.00183
738.697,-0.00019
732.911,0.00286
727.125,0.00166
721.339,0.00154
715.552,0.00139
709.766,0.00216
703.98,0.00075
698.194,0.00109
692.408,0.00249
686.622,0.00236
680.836,0.00305
675.049,0.00245
669.263,0.00238
663.477,0.00091
657.691,0.00303
651.905,0.00349
646.119,0.00239
640.333,0.00323
634.546,0.00058
628.76,0.00420
622.974,0.00388
617.188,0.00355
611.402,0.00194
605.616,0.00742
599.83,0.00744