File: 01_Data/PEVA/FTIR/IS/PEVA_0.10_IS_Trans_S_240819_R9.dpt
7496.91,0.93029
7491.12,0.92591
7485.33,0.94495
7479.55,0.93335
7473.76,0.93119
7467.98,0.92461
7462.19,0.91982
7456.4,0.94509
7450.62,0.94604
7444.83,0.92690
7439.04,0.93183
7433.26,0.93357
7427.47,0.94318
7421.69,0.92954
7415.9,0.93764
7410.11,0.93718
7404.33,0.94492
7398.54,0.92228
7392.76,0.92496
7386.97,0.93356
7381.18,0.92489
7375.4,0.91776
7369.61,0.92323
7363.83,0.93320
7358.04,0.92639
7352.25,0.93616
7346.47,0.92536
7340.68,0.91487
7334.89,0.92181
7329.11,0.91548
7323.32,0.90477
7317.54,0.92543
7311.75,0.93472
7305.96,0.92398
7300.18,0.92054
7294.39,0.93386
7288.61,0.92047
7282.82,0.92826
7277.03,0.92507
7271.25,0.92420
7265.46,0.91783
7259.67,0.93883
7253.89,0.92900
7248.1,0.93868
7242.32,0.91483
7236.53,0.92711
7230.74,0.91427
7224.96,0.91744
7219.17,0.91428
7213.39,0.92117
7207.6,0.92789
7201.81,0.91605
7196.03,0.92315
7190.24,0.93034
7184.45,0.92463
7178.67,0.92346
7172.88,0.91497
7167.1,0.91266
7161.31,0.90784
7155.52,0.93156
7149.74,0.93933
7143.95,0.91817
7138.17,0.91275
7132.38,0.92716
7126.59,0.92358
7120.81,0.92898
7115.02,0.93217
7109.23,0.93584
7103.45,0.93176
7097.66,0.92437
7091.88,0.92589
7086.09,0.92821
7080.3,0.93050
7074.52,0.92369
7068.73,0.90588
7062.95,0.91276
7057.16,0.91647
7051.37,0.92918
7045.59,0.93230
7039.8,0.93669
7034.02,0.93742
7028.23,0.92154
7022.44,0.92107
7016.66,0.92690
7010.87,0.92578
7005.08,0.91845
6999.3,0.92810
6993.51,0.92159
6987.73,0.93176
6981.94,0.92207
6976.15,0.92443
6970.37,0.92098
6964.58,0.92919
6958.8,0.92505
6953.01,0.92668
6947.22,0.92268
6941.44,0.92920
6935.65,0.93090
6929.86,0.92219
6924.08,0.92736
6918.29,0.93839
6912.51,0.93170
6906.72,0.92682
6900.93,0.93746
6895.15,0.93514
6889.36,0.92892
6883.58,0.92946
6877.79,0.92683
6872,0.93309
6866.22,0.93382
6860.43,0.93903
6854.64,0.93812
6848.86,0.92968
6843.07,0.93096
6837.29,0.93005
6831.5,0.93787
6825.71,0.93156
6819.93,0.92524
6814.14,0.93615
6808.36,0.93687
6802.57,0.93312
6796.78,0.93265
6791,0.93595
6785.21,0.93051
6779.43,0.92625
6773.64,0.93482
6767.85,0.92841
6762.07,0.92843
6756.28,0.93191
6750.49,0.93744
6744.71,0.94013
6738.92,0.92709
6733.14,0.93152
6727.35,0.93603
6721.56,0.93650
6715.78,0.93989
6709.99,0.93063
6704.21,0.93814
6698.42,0.93731
6692.63,0.93781
6686.85,0.93803
6681.06,0.93175
6675.27,0.93280
6669.49,0.93484
6663.7,0.92736
6657.92,0.93395
6652.13,0.93347
6646.34,0.93865
6640.56,0.93688
6634.77,0.93325
6628.99,0.92749
6623.2,0.93221
6617.41,0.93270
6611.63,0.92862
6605.84,0.92886
6600.05,0.93356
6594.27,0.92938
6588.48,0.93375
6582.7,0.93259
6576.91,0.93294
6571.12,0.93918
6565.34,0.93805
6559.55,0.93435
6553.77,0.93185
6547.98,0.93616
6542.19,0.93304
6536.41,0.92874
6530.62,0.93200
6524.84,0.93418
6519.05,0.93605
6513.26,0.93686
6507.48,0.94101
6501.69,0.94490
6495.9,0.94052
6490.12,0.93778
6484.33,0.93032
6478.55,0.93189
6472.76,0.93683
6466.97,0.93139
6461.19,0.93086
6455.4,0.93461
6449.62,0.93427
6443.83,0.94120
6438.04,0.93448
6432.26,0.93410
6426.47,0.93584
6420.68,0.93385
6414.9,0.93314
6409.11,0.93897
6403.33,0.93707
6397.54,0.94068
6391.75,0.94052
6385.97,0.93332
6380.18,0.93903
6374.4,0.94197
6368.61,0.93941
6362.82,0.93606
6357.04,0.93673
6351.25,0.93806
6345.46,0.93422
6339.68,0.93465
6333.89,0.93728
6328.11,0.93744
6322.32,0.94117
6316.53,0.93908
6310.75,0.93395
6304.96,0.93662
6299.18,0.93971
6293.39,0.93570
6287.6,0.93669
6281.82,0.93593
6276.03,0.93233
6270.24,0.92988
6264.46,0.93916
6258.67,0.93541
6252.89,0.93443
6247.1,0.93175
6241.31,0.93616
6235.53,0.93338
6229.74,0.93771
6223.96,0.93616
6218.17,0.93495
6212.38,0.93975
6206.6,0.93256
6200.81,0.93520
6195.03,0.93355
6189.24,0.93228
6183.45,0.93979
6177.67,0.94012
6171.88,0.93391
6166.09,0.93382
6160.31,0.93778
6154.52,0.93192
6148.74,0.93433
6142.95,0.93103
6137.16,0.93244
6131.38,0.93767
6125.59,0.93228
6119.81,0.93277
6114.02,0.93636
6108.23,0.92966
6102.45,0.92947
6096.66,0.93617
6090.87,0.93766
6085.09,0.93411
6079.3,0.93230
6073.52,0.92731
6067.73,0.93271
6061.94,0.93038
6056.16,0.92853
6050.37,0.93381
6044.59,0.93235
6038.8,0.93038
6033.01,0.92921
6027.23,0.92834
6021.44,0.93000
6015.65,0.92480
6009.87,0.92741
6004.08,0.92827
5998.3,0.92873
5992.51,0.93272
5986.72,0.92639
5980.94,0.92852
5975.15,0.92909
5969.37,0.92215
5963.58,0.92538
5957.79,0.92504
5952.01,0.92657
5946.22,0.92019
5940.44,0.92305
5934.65,0.92174
5928.86,0.92271
5923.08,0.92067
5917.29,0.91772
5911.5,0.91733
5905.72,0.91462
5899.93,0.91385
5894.15,0.91398
5888.36,0.91785
5882.57,0.91198
5876.79,0.90701
5871,0.90197
5865.22,0.89972
5859.43,0.89314
5853.64,0.89237
5847.86,0.88259
5842.07,0.87530
5836.28,0.87067
5830.5,0.86453
5824.71,0.86278
5818.93,0.85486
5813.14,0.84885
5807.35,0.84211
5801.57,0.83297
5795.78,0.82156
5790,0.80877
5784.21,0.78852
5778.42,0.77209
5772.64,0.77282
5766.85,0.79574
5761.06,0.82487
5755.28,0.84167
5749.49,0.85948
5743.71,0.86902
5737.92,0.87381
5732.13,0.88055
5726.35,0.88119
5720.56,0.88854
5714.78,0.88858
5708.99,0.88732
5703.2,0.88408
5697.42,0.87871
5691.63,0.87373
5685.84,0.86905
5680.06,0.86489
5674.27,0.85960
5668.49,0.85197
5662.7,0.85100
5656.91,0.85968
5651.13,0.87247
5645.34,0.87948
5639.56,0.88411
5633.77,0.88533
5627.98,0.88767
5622.2,0.89186
5616.41,0.89077
5610.63,0.89359
5604.84,0.89583
5599.05,0.89858
5593.27,0.89782
5587.48,0.89830
5581.69,0.89972
5575.91,0.89982
5570.12,0.89586
5564.34,0.89326
5558.55,0.89402
5552.76,0.89050
5546.98,0.89481
5541.19,0.89520
5535.41,0.89346
5529.62,0.89748
5523.83,0.89203
5518.05,0.89539
5512.26,0.89406
5506.47,0.89099
5500.69,0.89371
5494.9,0.89156
5489.12,0.88694
5483.33,0.89433
5477.54,0.89148
5471.76,0.89589
5465.97,0.89391
5460.19,0.89016
5454.4,0.89740
5448.61,0.88942
5442.83,0.88768
5437.04,0.89460
5431.25,0.89035
5425.47,0.89772
5419.68,0.90259
5413.9,0.88671
5408.11,0.89372
5402.32,0.90534
5396.54,0.90046
5390.75,0.90540
5384.97,0.90012
5379.18,0.90427
5373.39,0.90225
5367.61,0.91038
5361.82,0.90883
5356.04,0.90297
5350.25,0.90026
5344.46,0.89199
5338.68,0.89389
5332.89,0.90788
5327.1,0.90537
5321.32,0.91352
5315.53,0.91292
5309.75,0.90833
5303.96,0.90867
5298.17,0.91155
5292.39,0.91088
5286.6,0.91139
5280.82,0.90878
5275.03,0.91197
5269.24,0.90865
5263.46,0.89922
5257.67,0.90784
5251.88,0.90737
5246.1,0.89699
5240.31,0.91097
5234.53,0.90837
5228.74,0.90756
5222.95,0.90898
5217.17,0.91090
5211.38,0.91190
5205.6,0.89818
5199.81,0.90898
5194.02,0.91272
5188.24,0.91096
5182.45,0.91257
5176.66,0.91481
5170.88,0.91250
5165.09,0.91081
5159.31,0.91127
5153.52,0.91380
5147.73,0.91847
5141.95,0.91721
5136.16,0.91594
5130.38,0.91589
5124.59,0.91763
5118.8,0.91752
5113.02,0.91767
5107.23,0.91707
5101.45,0.91634
5095.66,0.91521
5089.87,0.91713
5084.09,0.91884
5078.3,0.92015
5072.51,0.91831
5066.73,0.91733
5060.94,0.91699
5055.16,0.91828
5049.37,0.91906
5043.58,0.91991
5037.8,0.92110
5032.01,0.91872
5026.23,0.91764
5020.44,0.91780
5014.65,0.91959
5008.87,0.91985
5003.08,0.91958
4997.29,0.91872
4991.51,0.91683
4985.72,0.91497
4979.94,0.91385
4974.15,0.91523
4968.36,0.91577
4962.58,0.91611
4956.79,0.91568
4951.01,0.91634
4945.22,0.91689
4939.43,0.92030
4933.65,0.92022
4927.86,0.91879
4922.07,0.91684
4916.29,0.91745
4910.5,0.91862
4904.72,0.91830
4898.93,0.91975
4893.14,0.91807
4887.36,0.91895
4881.57,0.91687
4875.79,0.91816
4870,0.91927
4864.21,0.91917
4858.43,0.91913
4852.64,0.91842
4846.85,0.91815
4841.07,0.92032
4835.28,0.92274
4829.5,0.92232
4823.71,0.92235
4817.92,0.92198
4812.14,0.92126
4806.35,0.92379
4800.57,0.92481
4794.78,0.92325
4788.99,0.92341
4783.21,0.92350
4777.42,0.92207
4771.64,0.92431
4765.85,0.92501
4760.06,0.92742
4754.28,0.92567
4748.49,0.92480
4742.7,0.92334
4736.92,0.92408
4731.13,0.92486
4725.35,0.92617
4719.56,0.92688
4713.77,0.92629
4707.99,0.92388
4702.2,0.92382
4696.42,0.92705
4690.63,0.92762
4684.84,0.92719
4679.06,0.92471
4673.27,0.92351
4667.48,0.92365
4661.7,0.92500
4655.91,0.92717
4650.13,0.92706
4644.34,0.92761
4638.55,0.92492
4632.77,0.92350
4626.98,0.92449
4621.2,0.92753
4615.41,0.92749
4609.62,0.92577
4603.84,0.92470
4598.05,0.92425
4592.26,0.92425
4586.48,0.92633
4580.69,0.92628
4574.91,0.92454
4569.12,0.92258
4563.33,0.92149
4557.55,0.92206
4551.76,0.92288
4545.98,0.92221
4540.19,0.92248
4534.4,0.91995
4528.62,0.91812
4522.83,0.91891
4517.05,0.91860
4511.26,0.91989
4505.47,0.91697
4499.69,0.91501
4493.9,0.91353
4488.11,0.91324
4482.33,0.91337
4476.54,0.91250
4470.76,0.91226
4464.97,0.90733
4459.18,0.90500
4453.4,0.90233
4447.61,0.90125
4441.83,0.89899
4436.04,0.89572
4430.25,0.89053
4424.47,0.88472
4418.68,0.87942
4412.89,0.87252
4407.11,0.86259
4401.32,0.85058
4395.54,0.83777
4389.75,0.82385
4383.96,0.81095
4378.18,0.79884
4372.39,0.78391
4366.61,0.76832
4360.82,0.74860
4355.03,0.71661
4349.25,0.67009
4343.46,0.60904
4337.67,0.55338
4331.89,0.49653
4326.1,0.40199
4320.32,0.38076
4314.53,0.55918
4308.74,0.67435
4302.96,0.72140
4297.17,0.73585
4291.39,0.73248
4285.6,0.72157
4279.81,0.70902
4274.03,0.69451
4268.24,0.66587
4262.46,0.61039
4256.67,0.53147
4250.88,0.48581
4245.1,0.58218
4239.31,0.65610
4233.52,0.67164
4227.74,0.65630
4221.95,0.63627
4216.17,0.63589
4210.38,0.64018
4204.59,0.63019
4198.81,0.60291
4193.02,0.58478
4187.24,0.58506
4181.45,0.58863
4175.66,0.59044
4169.88,0.59203
4164.09,0.59513
4158.3,0.59809
4152.52,0.59849
4146.73,0.60060
4140.95,0.60455
4135.16,0.60887
4129.37,0.61327
4123.59,0.61625
4117.8,0.61818
4112.02,0.61850
4106.23,0.61513
4100.44,0.61470
4094.66,0.62092
4088.87,0.64309
4083.08,0.66866
4077.3,0.68621
4071.51,0.69630
4065.73,0.70573
4059.94,0.71435
4054.15,0.72368
4048.37,0.72928
4042.58,0.73589
4036.8,0.74282
4031.01,0.74416
4025.22,0.74134
4019.44,0.74699
4013.65,0.76905
4007.86,0.78013
4002.08,0.78503
3996.29,0.78465
3990.51,0.78381
3984.72,0.78467
3978.93,0.78425
3973.15,0.78416
3967.36,0.79096
3961.58,0.79066
3955.79,0.79281
3950,0.78524
3944.22,0.78523
3938.43,0.78928
3932.65,0.77270
3926.86,0.77007
3921.07,0.76798
3915.29,0.76927
3909.5,0.77616
3903.71,0.74958
3897.93,0.76511
3892.14,0.76307
3886.36,0.76496
3880.57,0.76202
3874.78,0.76681
3869,0.75923
3863.21,0.76628
3857.43,0.77590
3851.64,0.75983
3845.85,0.78678
3840.07,0.75960
3834.28,0.77322
3828.49,0.78512
3822.71,0.77001
3816.92,0.76944
3811.14,0.79614
3805.35,0.78400
3799.56,0.78427
3793.78,0.81380
3787.99,0.81848
3782.21,0.81311
3776.42,0.82142
3770.63,0.81319
3764.85,0.81576
3759.06,0.80725
3753.27,0.79407
3747.49,0.78099
3741.7,0.79726
3735.92,0.77647
3730.13,0.80495
3724.34,0.80134
3718.56,0.81677
3712.77,0.79795
3706.99,0.81032
3701.2,0.80944
3695.41,0.81434
3689.63,0.78400
3683.84,0.81488
3678.06,0.79058
3672.27,0.78268
3666.48,0.80547
3660.7,0.80954
3654.91,0.78901
3649.12,0.74205
3643.34,0.77807
3637.55,0.79305
3631.77,0.78772
3625.98,0.79140
3620.19,0.78025
3614.41,0.75896
3608.62,0.73635
3602.84,0.73341
3597.05,0.77142
3591.26,0.81962
3585.48,0.83397
3579.69,0.85679
3573.9,0.86326
3568.12,0.84541
3562.33,0.86524
3556.55,0.88163
3550.76,0.87862
3544.97,0.87279
3539.19,0.88699
3533.4,0.88692
3527.62,0.87728
3521.83,0.88338
3516.04,0.89256
3510.26,0.88634
3504.47,0.88156
3498.68,0.88761
3492.9,0.88872
3487.11,0.88594
3481.33,0.88228
3475.54,0.88380
3469.75,0.88135
3463.97,0.87776
3458.18,0.87744
3452.4,0.87737
3446.61,0.86890
3440.82,0.87165
3435.04,0.87124
3429.25,0.87021
3423.47,0.87087
3417.68,0.87302
3411.89,0.87402
3406.11,0.87307
3400.32,0.86929
3394.53,0.86714
3388.75,0.86741
3382.96,0.86635
3377.18,0.86432
3371.39,0.86077
3365.6,0.85938
3359.82,0.86292
3354.03,0.86608
3348.25,0.87114
3342.46,0.87160
3336.67,0.87017
3330.89,0.87349
3325.1,0.87403
3319.31,0.87645
3313.53,0.87620
3307.74,0.87609
3301.96,0.87699
3296.17,0.87657
3290.38,0.87525
3284.6,0.87818
3278.81,0.87615
3273.03,0.87374
3267.24,0.87287
3261.45,0.87391
3255.67,0.87341
3249.88,0.87308
3244.09,0.86993
3238.31,0.87015
3232.52,0.86768
3226.74,0.86626
3220.95,0.86242
3215.16,0.86129
3209.38,0.85936
3203.59,0.85606
3197.81,0.85128
3192.02,0.84847
3186.23,0.84550
3180.45,0.84264
3174.66,0.83987
3168.87,0.83631
3163.09,0.83384
3157.3,0.82996
3151.52,0.82573
3145.73,0.82085
3139.94,0.81675
3134.16,0.80910
3128.37,0.80476
3122.59,0.79324
3116.8,0.78127
3111.01,0.76826
3105.23,0.75057
3099.44,0.72209
3093.66,0.68665
3087.87,0.65310
3082.08,0.63133
3076.3,0.61697
3070.51,0.60369
3064.72,0.58441
3058.94,0.56475
3053.15,0.54201
3047.37,0.51499
3041.58,0.48481
3035.79,0.45191
3030.01,0.42304
3024.22,0.39904
3018.44,0.37437
3012.65,0.34766
3006.86,0.31967
3001.08,0.28691
2995.29,0.24808
2989.5,0.20035
2983.72,0.14228
2977.93,0.07931
2972.15,0.02847
2966.36,0.00557
2960.57,0.00167
2954.79,0.00087
2949,0.00134
2943.22,0.00115
2937.43,0.00027
2931.64,0.00113
2925.86,0.00072
2920.07,0.00080
2914.28,0.00085
2908.5,0.00060
2902.71,0.00108
2896.93,0.00081
2891.14,0.00068
2885.35,0.00071
2879.57,0.00079
2873.78,0.00087
2868,0.00087
2862.21,0.00055
2856.42,0.00101
2850.64,0.00080
2844.85,0.00099
2839.07,0.00088
2833.28,0.00465
2827.49,0.01753
2821.71,0.04051
2815.92,0.07067
2810.13,0.10348
2804.35,0.13800
2798.56,0.17663
2792.78,0.22033
2786.99,0.26854
2781.2,0.31498
2775.42,0.35496
2769.63,0.38584
2763.85,0.40794
2758.06,0.42596
2752.27,0.43973
2746.49,0.44293
2740.7,0.44086
2734.91,0.44286
2729.13,0.45256
2723.34,0.46755
2717.56,0.48224
2711.77,0.49276
2705.98,0.50312
2700.2,0.51070
2694.41,0.50863
2688.63,0.49700
2682.84,0.48602
2677.05,0.47672
2671.27,0.46737
2665.48,0.46257
2659.69,0.46450
2653.91,0.47152
2648.12,0.47888
2642.34,0.47883
2636.55,0.47664
2630.76,0.49072
2624.98,0.51745
2619.19,0.54277
2613.41,0.56741
2607.62,0.58950
2601.83,0.60782
2596.05,0.62405
2590.26,0.64354
2584.47,0.66327
2578.69,0.68195
2572.9,0.69866
2567.12,0.71323
2561.33,0.72391
2555.54,0.73175
2549.76,0.73623
2543.97,0.75147
2538.19,0.76418
2532.4,0.75994
2526.61,0.75937
2520.83,0.77478
2515.04,0.79093
2509.26,0.80170
2503.47,0.80798
2497.68,0.81217
2491.9,0.81611
2486.11,0.82056
2480.32,0.82345
2474.54,0.82305
2468.75,0.83514
2462.97,0.84381
2457.18,0.84630
2451.39,0.84846
2445.61,0.84898
2439.82,0.84777
2434.04,0.84370
2428.25,0.83945
2422.46,0.83237
2416.68,0.82700
2410.89,0.83104
2405.1,0.83559
2399.32,0.83720
2393.53,0.83799
2387.75,0.83735
2381.96,0.82140
2376.17,0.78338
2370.39,0.74106
2364.6,0.70630
2358.82,0.68920
2353.03,0.69876
2347.24,0.70374
2341.46,0.67460
2335.67,0.67849
2329.88,0.68062
2324.1,0.69538
2318.31,0.72447
2312.53,0.75163
2306.74,0.77555
2300.95,0.79284
2295.17,0.80406
2289.38,0.81466
2283.6,0.82368
2277.81,0.82665
2272.02,0.83276
2266.24,0.84124
2260.45,0.84602
2254.67,0.84863
2248.88,0.85143
2243.09,0.85349
2237.31,0.86225
2231.52,0.86749
2225.73,0.86531
2219.95,0.86556
2214.16,0.87154
2208.38,0.87546
2202.59,0.87508
2196.8,0.87055
2191.02,0.86644
2185.23,0.86613
2179.45,0.86986
2173.66,0.87302
2167.87,0.87188
2162.09,0.86463
2156.3,0.85706
2150.51,0.85478
2144.73,0.86170
2138.94,0.87254
2133.16,0.87992
2127.37,0.88095
2121.58,0.88048
2115.8,0.88266
2110.01,0.88819
2104.23,0.89149
2098.44,0.88981
2092.65,0.88307
2086.87,0.87688
2081.08,0.87668
2075.29,0.87992
2069.51,0.88147
2063.72,0.87470
2057.94,0.86675
2052.15,0.85680
2046.36,0.85127
2040.58,0.84691
2034.79,0.84336
2029.01,0.83050
2023.22,0.80852
2017.43,0.79657
2011.65,0.83268
2005.86,0.86621
2000.08,0.88450
1994.29,0.88566
1988.5,0.88197
1982.72,0.88153
1976.93,0.88314
1971.14,0.88865
1965.36,0.88818
1959.57,0.88942
1953.79,0.88122
1948,0.87357
1942.21,0.86693
1936.43,0.88275
1930.64,0.88785
1924.86,0.87894
1919.07,0.86439
1913.28,0.85857
1907.5,0.84753
1901.71,0.84909
1895.92,0.84552
1890.14,0.85853
1884.35,0.87645
1878.57,0.87833
1872.78,0.87817
1866.99,0.87357
1861.21,0.90171
1855.42,0.90577
1849.64,0.89353
1843.85,0.86933
1838.06,0.88343
1832.28,0.88458
1826.49,0.88189
1820.7,0.88805
1814.92,0.87953
1809.13,0.86559
1803.35,0.86746
1797.56,0.87051
1791.77,0.87031
1785.99,0.89139
1780.2,0.87371
1774.42,0.85036
1768.63,0.84760
1762.84,0.85471
1757.06,0.84078
1751.27,0.79606
1745.48,0.76102
1739.7,0.75717
1733.91,0.77508
1728.13,0.81651
1722.34,0.80844
1716.55,0.75962
1710.77,0.78380
1704.98,0.78758
1699.2,0.78095
1693.41,0.83329
1687.62,0.83992
1681.84,0.83592
1676.05,0.84462
1670.27,0.81995
1664.48,0.83590
1658.69,0.84572
1652.91,0.81535
1647.12,0.81317
1641.33,0.83041
1635.55,0.79635
1629.76,0.81797
1623.98,0.81369
1618.19,0.82377
1612.4,0.83768
1606.62,0.82621
1600.83,0.81743
1595.05,0.81107
1589.26,0.82004
1583.47,0.83077
1577.69,0.81315
1571.9,0.80884
1566.11,0.79662
1560.33,0.77204
1554.54,0.78192
1548.76,0.79543
1542.97,0.74806
1537.18,0.75273
1531.4,0.75085
1525.61,0.73133
1519.83,0.71966
1514.04,0.72787
1508.25,0.67714
1502.47,0.66740
1496.68,0.62136
1490.89,0.57963
1485.11,0.48763
1479.32,0.28228
1473.54,0.02164
1467.75,0.00053
1461.96,0.00073
1456.18,0.01979
1450.39,0.07931
1444.61,0.13891
1438.82,0.18818
1433.03,0.30685
1427.25,0.49906
1421.46,0.61772
1415.68,0.67071
1409.89,0.69789
1404.1,0.71468
1398.32,0.71619
1392.53,0.71481
1386.74,0.65509
1380.96,0.44294
1375.17,0.38357
1369.39,0.37172
1363.6,0.40865
1357.81,0.46942
1352.03,0.46991
1346.24,0.52686
1340.46,0.58084
1334.67,0.65649
1328.88,0.68479
1323.1,0.66421
1317.31,0.60970
1311.52,0.56435
1305.74,0.54569
1299.95,0.55405
1294.17,0.58855
1288.38,0.62402
1282.59,0.64392
1276.81,0.65202
1271.02,0.65815
1265.24,0.67993
1259.45,0.70285
1253.66,0.71545
1247.88,0.71943
1242.09,0.72654
1236.3,0.73456
1230.52,0.74451
1224.73,0.75337
1218.95,0.75754
1213.16,0.75434
1207.37,0.75021
1201.59,0.75482
1195.8,0.75916
1190.02,0.75923
1184.23,0.75774
1178.44,0.74584
1172.66,0.74376
1166.87,0.74330
1161.09,0.74668
1155.3,0.74959
1149.51,0.74996
1143.73,0.75270
1137.94,0.76006
1132.15,0.76728
1126.37,0.77404
1120.58,0.77452
1114.8,0.76941
1109.01,0.76569
1103.22,0.76276
1097.44,0.75656
1091.65,0.74461
1085.87,0.72853
1080.08,0.71754
1074.29,0.73450
1068.51,0.74965
1062.72,0.75552
1056.93,0.76818
1051.15,0.76433
1045.36,0.77177
1039.58,0.77171
1033.79,0.76661
1028,0.75236
1022.22,0.72522
1016.43,0.71821
1010.65,0.75596
1004.86,0.78686
999.073,0.80660
993.287,0.81955
987.501,0.82989
981.715,0.82936
975.929,0.81568
970.142,0.80234
964.356,0.80377
958.57,0.81707
952.784,0.83285
946.998,0.83687
941.212,0.82910
935.426,0.82513
929.64,0.83202
923.853,0.84450
918.067,0.85091
912.281,0.84020
906.495,0.82645
900.709,0.82788
894.923,0.82851
889.137,0.83578
883.35,0.84946
877.564,0.85272
871.778,0.84085
865.992,0.83307
860.206,0.83963
854.42,0.85296
848.634,0.86076
842.847,0.85191
837.061,0.83536
831.275,0.82499
825.489,0.83207
819.703,0.84549
813.917,0.84763
808.131,0.83246
802.344,0.80417
796.558,0.78430
790.772,0.78233
784.986,0.78048
779.2,0.75925
773.414,0.72603
767.628,0.70936
761.842,0.71437
756.055,0.71863
750.269,0.70386
744.483,0.64626
738.697,0.50932
732.911,0.16765
727.125,0.04793
721.339,0.02212
715.552,0.13271
709.766,0.42366
703.98,0.63802
698.194,0.76150
692.408,0.79944
686.622,0.79452
680.836,0.80959
675.049,0.84628
669.263,0.83656
663.477,0.88975
657.691,0.86804
651.905,0.85210
646.119,0.87048
640.333,0.91436
634.546,0.93824
628.76,0.93176
622.974,0.89604
617.188,0.87242
611.402,0.89464
605.616,0.92545
599.83,0.94302