File: 01_Data/PEVA/FTIR/IS/PEVA_0.26_IS_Trans_S_240819_R6.dpt
7496.91,0.93550
7491.12,0.95128
7485.33,0.92380
7479.55,0.93692
7473.76,0.92449
7467.98,0.93148
7462.19,0.93054
7456.4,0.93351
7450.62,0.93765
7444.83,0.94606
7439.04,0.93577
7433.26,0.93974
7427.47,0.94650
7421.69,0.94205
7415.9,0.92250
7410.11,0.93022
7404.33,0.93460
7398.54,0.93570
7392.76,0.94736
7386.97,0.92528
7381.18,0.93471
7375.4,0.93202
7369.61,0.92816
7363.83,0.93345
7358.04,0.93518
7352.25,0.93635
7346.47,0.92711
7340.68,0.92657
7334.89,0.91917
7329.11,0.91774
7323.32,0.91621
7317.54,0.93618
7311.75,0.91403
7305.96,0.91527
7300.18,0.91786
7294.39,0.91517
7288.61,0.93305
7282.82,0.90846
7277.03,0.90862
7271.25,0.92801
7265.46,0.92401
7259.67,0.92224
7253.89,0.91572
7248.1,0.91604
7242.32,0.91166
7236.53,0.91043
7230.74,0.90283
7224.96,0.91636
7219.17,0.90573
7213.39,0.90794
7207.6,0.92080
7201.81,0.91246
7196.03,0.92202
7190.24,0.91587
7184.45,0.91382
7178.67,0.90421
7172.88,0.91739
7167.1,0.91528
7161.31,0.90886
7155.52,0.90547
7149.74,0.92270
7143.95,0.92272
7138.17,0.93029
7132.38,0.93293
7126.59,0.92430
7120.81,0.90663
7115.02,0.92665
7109.23,0.90989
7103.45,0.90603
7097.66,0.91649
7091.88,0.90942
7086.09,0.92365
7080.3,0.91738
7074.52,0.91406
7068.73,0.90520
7062.95,0.89943
7057.16,0.91322
7051.37,0.91877
7045.59,0.92309
7039.8,0.92475
7034.02,0.91998
7028.23,0.91549
7022.44,0.92150
7016.66,0.91339
7010.87,0.92450
7005.08,0.91666
6999.3,0.92384
6993.51,0.91303
6987.73,0.91016
6981.94,0.91815
6976.15,0.91121
6970.37,0.91664
6964.58,0.92768
6958.8,0.91953
6953.01,0.91946
6947.22,0.92165
6941.44,0.92538
6935.65,0.92097
6929.86,0.92423
6924.08,0.92582
6918.29,0.92141
6912.51,0.92628
6906.72,0.92390
6900.93,0.92584
6895.15,0.91872
6889.36,0.92269
6883.58,0.92244
6877.79,0.92912
6872,0.92977
6866.22,0.92929
6860.43,0.92344
6854.64,0.92853
6848.86,0.92471
6843.07,0.92564
6837.29,0.92329
6831.5,0.92969
6825.71,0.92791
6819.93,0.92946
6814.14,0.93310
6808.36,0.92166
6802.57,0.92743
6796.78,0.92694
6791,0.92785
6785.21,0.92596
6779.43,0.92880
6773.64,0.92580
6767.85,0.92121
6762.07,0.92870
6756.28,0.92255
6750.49,0.93359
6744.71,0.92845
6738.92,0.92406
6733.14,0.92811
6727.35,0.93195
6721.56,0.92787
6715.78,0.93036
6709.99,0.93175
6704.21,0.93464
6698.42,0.93037
6692.63,0.92985
6686.85,0.93718
6681.06,0.93599
6675.27,0.92705
6669.49,0.93239
6663.7,0.93048
6657.92,0.92975
6652.13,0.93211
6646.34,0.93339
6640.56,0.93750
6634.77,0.93724
6628.99,0.93143
6623.2,0.93474
6617.41,0.93463
6611.63,0.92485
6605.84,0.92631
6600.05,0.93232
6594.27,0.93218
6588.48,0.93165
6582.7,0.93434
6576.91,0.92976
6571.12,0.92843
6565.34,0.93697
6559.55,0.93446
6553.77,0.92969
6547.98,0.93167
6542.19,0.93295
6536.41,0.93790
6530.62,0.93270
6524.84,0.93907
6519.05,0.93648
6513.26,0.92955
6507.48,0.92811
6501.69,0.93101
6495.9,0.93414
6490.12,0.92984
6484.33,0.93376
6478.55,0.94003
6472.76,0.93589
6466.97,0.93138
6461.19,0.93656
6455.4,0.93992
6449.62,0.93145
6443.83,0.93806
6438.04,0.93429
6432.26,0.93276
6426.47,0.93715
6420.68,0.93716
6414.9,0.94207
6409.11,0.93359
6403.33,0.93725
6397.54,0.93523
6391.75,0.93684
6385.97,0.93056
6380.18,0.94070
6374.4,0.93749
6368.61,0.93494
6362.82,0.93278
6357.04,0.93093
6351.25,0.93709
6345.46,0.93494
6339.68,0.93581
6333.89,0.93474
6328.11,0.93934
6322.32,0.93573
6316.53,0.94122
6310.75,0.93798
6304.96,0.93069
6299.18,0.92919
6293.39,0.93604
6287.6,0.93309
6281.82,0.92687
6276.03,0.93612
6270.24,0.93554
6264.46,0.93596
6258.67,0.93227
6252.89,0.93653
6247.1,0.93379
6241.31,0.92976
6235.53,0.92925
6229.74,0.93437
6223.96,0.93530
6218.17,0.93154
6212.38,0.93315
6206.6,0.93454
6200.81,0.93020
6195.03,0.93416
6189.24,0.93096
6183.45,0.93081
6177.67,0.92941
6171.88,0.93119
6166.09,0.92967
6160.31,0.93114
6154.52,0.93159
6148.74,0.92766
6142.95,0.92838
6137.16,0.92380
6131.38,0.92356
6125.59,0.92424
6119.81,0.92289
6114.02,0.92600
6108.23,0.92864
6102.45,0.92430
6096.66,0.92368
6090.87,0.91945
6085.09,0.92098
6079.3,0.91584
6073.52,0.91390
6067.73,0.91227
6061.94,0.90763
6056.16,0.90299
6050.37,0.90296
6044.59,0.89977
6038.8,0.89454
6033.01,0.89394
6027.23,0.88746
6021.44,0.88600
6015.65,0.88404
6009.87,0.87967
6004.08,0.88777
5998.3,0.89147
5992.51,0.89525
5986.72,0.89848
5980.94,0.90067
5975.15,0.90153
5969.37,0.90399
5963.58,0.90100
5957.79,0.90135
5952.01,0.89769
5946.22,0.89523
5940.44,0.89152
5934.65,0.88197
5928.86,0.87693
5923.08,0.87018
5917.29,0.86431
5911.5,0.86154
5905.72,0.85457
5899.93,0.85003
5894.15,0.83851
5888.36,0.83022
5882.57,0.82463
5876.79,0.81205
5871,0.80408
5865.22,0.79499
5859.43,0.78661
5853.64,0.77334
5847.86,0.76301
5842.07,0.74615
5836.28,0.73690
5830.5,0.72352
5824.71,0.72494
5818.93,0.73249
5813.14,0.74488
5807.35,0.76091
5801.57,0.77336
5795.78,0.78520
5790,0.79605
5784.21,0.80566
5778.42,0.81322
5772.64,0.81621
5766.85,0.82305
5761.06,0.82161
5755.28,0.81926
5749.49,0.82041
5743.71,0.81925
5737.92,0.81585
5732.13,0.81370
5726.35,0.81679
5720.56,0.81787
5714.78,0.81671
5708.99,0.81650
5703.2,0.81844
5697.42,0.81643
5691.63,0.82287
5685.84,0.82479
5680.06,0.83119
5674.27,0.83402
5668.49,0.83930
5662.7,0.84334
5656.91,0.84070
5651.13,0.84442
5645.34,0.84850
5639.56,0.85050
5633.77,0.85244
5627.98,0.85502
5622.2,0.85717
5616.41,0.86107
5610.63,0.86160
5604.84,0.86297
5599.05,0.86489
5593.27,0.86947
5587.48,0.87020
5581.69,0.87080
5575.91,0.87035
5570.12,0.87423
5564.34,0.87779
5558.55,0.87536
5552.76,0.87369
5546.98,0.87744
5541.19,0.87575
5535.41,0.87500
5529.62,0.87879
5523.83,0.87785
5518.05,0.87792
5512.26,0.87696
5506.47,0.87608
5500.69,0.87758
5494.9,0.87288
5489.12,0.87063
5483.33,0.87674
5477.54,0.87242
5471.76,0.87309
5465.97,0.87364
5460.19,0.87090
5454.4,0.87670
5448.61,0.87269
5442.83,0.87262
5437.04,0.87766
5431.25,0.87842
5425.47,0.88580
5419.68,0.88959
5413.9,0.87849
5408.11,0.88146
5402.32,0.88917
5396.54,0.88274
5390.75,0.88626
5384.97,0.88254
5379.18,0.88726
5373.39,0.88731
5367.61,0.89368
5361.82,0.89097
5356.04,0.88974
5350.25,0.88731
5344.46,0.88098
5338.68,0.88346
5332.89,0.89037
5327.1,0.88950
5321.32,0.89906
5315.53,0.89853
5309.75,0.89750
5303.96,0.89906
5298.17,0.89836
5292.39,0.89935
5286.6,0.89800
5280.82,0.89646
5275.03,0.89982
5269.24,0.89727
5263.46,0.88742
5257.67,0.89663
5251.88,0.89426
5246.1,0.88769
5240.31,0.89815
5234.53,0.89937
5228.74,0.89577
5222.95,0.89375
5217.17,0.89779
5211.38,0.90030
5205.6,0.88985
5199.81,0.89922
5194.02,0.90027
5188.24,0.89891
5182.45,0.89776
5176.66,0.90019
5170.88,0.90003
5165.09,0.89973
5159.31,0.90011
5153.52,0.89998
5147.73,0.90151
5141.95,0.90208
5136.16,0.90239
5130.38,0.90019
5124.59,0.90139
5118.8,0.90077
5113.02,0.90091
5107.23,0.90046
5101.45,0.90007
5095.66,0.90186
5089.87,0.90295
5084.09,0.90399
5078.3,0.90294
5072.51,0.90535
5066.73,0.90583
5060.94,0.90487
5055.16,0.90568
5049.37,0.90508
5043.58,0.90715
5037.8,0.90606
5032.01,0.90555
5026.23,0.90757
5020.44,0.90646
5014.65,0.90862
5008.87,0.90744
5003.08,0.90776
4997.29,0.90765
4991.51,0.90688
4985.72,0.90648
4979.94,0.90662
4974.15,0.90718
4968.36,0.90839
4962.58,0.90887
4956.79,0.90768
4951.01,0.90927
4945.22,0.90696
4939.43,0.90709
4933.65,0.90698
4927.86,0.90748
4922.07,0.90674
4916.29,0.90686
4910.5,0.90738
4904.72,0.90855
4898.93,0.90869
4893.14,0.90772
4887.36,0.90947
4881.57,0.90746
4875.79,0.90830
4870,0.90827
4864.21,0.90927
4858.43,0.90693
4852.64,0.90614
4846.85,0.90821
4841.07,0.90851
4835.28,0.90866
4829.5,0.90780
4823.71,0.90715
4817.92,0.90686
4812.14,0.90623
4806.35,0.90569
4800.57,0.90468
4794.78,0.90400
4788.99,0.90321
4783.21,0.90373
4777.42,0.90401
4771.64,0.90463
4765.85,0.90503
4760.06,0.90638
4754.28,0.90678
4748.49,0.90439
4742.7,0.90457
4736.92,0.90366
4731.13,0.90027
4725.35,0.89692
4719.56,0.89275
4713.77,0.89030
4707.99,0.88644
4702.2,0.88460
4696.42,0.87786
4690.63,0.87163
4684.84,0.86757
4679.06,0.86952
4673.27,0.87551
4667.48,0.87951
4661.7,0.88089
4655.91,0.88125
4650.13,0.88097
4644.34,0.87849
4638.55,0.87361
4632.77,0.86689
4626.98,0.86966
4621.2,0.87762
4615.41,0.88474
4609.62,0.88939
4603.84,0.89000
4598.05,0.88959
4592.26,0.88809
4586.48,0.88697
4580.69,0.88553
4574.91,0.88379
4569.12,0.88675
4563.33,0.89114
4557.55,0.89330
4551.76,0.89279
4545.98,0.89091
4540.19,0.89054
4534.4,0.88932
4528.62,0.88922
4522.83,0.88729
4517.05,0.88625
4511.26,0.88341
4505.47,0.88008
4499.69,0.87533
4493.9,0.86836
4488.11,0.86202
4482.33,0.85691
4476.54,0.85549
4470.76,0.85154
4464.97,0.84597
4459.18,0.83750
4453.4,0.82788
4447.61,0.81391
4441.83,0.79718
4436.04,0.77689
4430.25,0.75340
4424.47,0.72602
4418.68,0.69939
4412.89,0.67096
4407.11,0.64616
4401.32,0.62845
4395.54,0.61996
4389.75,0.61449
4383.96,0.59864
4378.18,0.57281
4372.39,0.54212
4366.61,0.50789
4360.82,0.47229
4355.03,0.44130
4349.25,0.41329
4343.46,0.38476
4337.67,0.35850
4331.89,0.35198
4326.1,0.37564
4320.32,0.41152
4314.53,0.44656
4308.74,0.46825
4302.96,0.47912
4297.17,0.48358
4291.39,0.48241
4285.6,0.47709
4279.81,0.47256
4274.03,0.47329
4268.24,0.47784
4262.46,0.48506
4256.67,0.48964
4250.88,0.48974
4245.1,0.48959
4239.31,0.48626
4233.52,0.48239
4227.74,0.47507
4221.95,0.46992
4216.17,0.46680
4210.38,0.46778
4204.59,0.47660
4198.81,0.48918
4193.02,0.50075
4187.24,0.50765
4181.45,0.50372
4175.66,0.49445
4169.88,0.49101
4164.09,0.50126
4158.3,0.51986
4152.52,0.53615
4146.73,0.54878
4140.95,0.56214
4135.16,0.57617
4129.37,0.58638
4123.59,0.58892
4117.8,0.58655
4112.02,0.58080
4106.23,0.57437
4100.44,0.56624
4094.66,0.54795
4088.87,0.51912
4083.08,0.49821
4077.3,0.51304
4071.51,0.54125
4065.73,0.56650
4059.94,0.58977
4054.15,0.60864
4048.37,0.61955
4042.58,0.62436
4036.8,0.62961
4031.01,0.63133
4025.22,0.63173
4019.44,0.63303
4013.65,0.63725
4007.86,0.64390
4002.08,0.65498
3996.29,0.66397
3990.51,0.67416
3984.72,0.68396
3978.93,0.68985
3973.15,0.69474
3967.36,0.70183
3961.58,0.70321
3955.79,0.70477
3950,0.70026
3944.22,0.70162
3938.43,0.70600
3932.65,0.69994
3926.86,0.70104
3921.07,0.69945
3915.29,0.70158
3909.5,0.70894
3903.71,0.68735
3897.93,0.70262
3892.14,0.70443
3886.36,0.70848
3880.57,0.70750
3874.78,0.70967
3869,0.70235
3863.21,0.70226
3857.43,0.70946
3851.64,0.69593
3845.85,0.71851
3840.07,0.69888
3834.28,0.71217
3828.49,0.72163
3822.71,0.71346
3816.92,0.71802
3811.14,0.73945
3805.35,0.72682
3799.56,0.72388
3793.78,0.75142
3787.99,0.75766
3782.21,0.75500
3776.42,0.76037
3770.63,0.75296
3764.85,0.75172
3759.06,0.74209
3753.27,0.73127
3747.49,0.72742
3741.7,0.74676
3735.92,0.73054
3730.13,0.75587
3724.34,0.75810
3718.56,0.77416
3712.77,0.75655
3706.99,0.75930
3701.2,0.74739
3695.41,0.73005
3689.63,0.68039
3683.84,0.67763
3678.06,0.65749
3672.27,0.65601
3666.48,0.67950
3660.7,0.68971
3654.91,0.68564
3649.12,0.66136
3643.34,0.69376
3637.55,0.69571
3631.77,0.67836
3625.98,0.66900
3620.19,0.65609
3614.41,0.64716
3608.62,0.64440
3602.84,0.64596
3597.05,0.63328
3591.26,0.63019
3585.48,0.61725
3579.69,0.61744
3573.9,0.60735
3568.12,0.58214
3562.33,0.57587
3556.55,0.56902
3550.76,0.55645
3544.97,0.54810
3539.19,0.55137
3533.4,0.54807
3527.62,0.53805
3521.83,0.53657
3516.04,0.53457
3510.26,0.52437
3504.47,0.51317
3498.68,0.50354
3492.9,0.48894
3487.11,0.47107
3481.33,0.45364
3475.54,0.44049
3469.75,0.42727
3463.97,0.41405
3458.18,0.40252
3452.4,0.38831
3446.61,0.36685
3440.82,0.34168
3435.04,0.31591
3429.25,0.29584
3423.47,0.28991
3417.68,0.29947
3411.89,0.32282
3406.11,0.35183
3400.32,0.38369
3394.53,0.41139
3388.75,0.43391
3382.96,0.45141
3377.18,0.46768
3371.39,0.48084
3365.6,0.48915
3359.82,0.49589
3354.03,0.50286
3348.25,0.50373
3342.46,0.50062
3336.67,0.49312
3330.89,0.48778
3325.1,0.48269
3319.31,0.46870
3313.53,0.42690
3307.74,0.34864
3301.96,0.29272
3296.17,0.32502
3290.38,0.39606
3284.6,0.45382
3278.81,0.49209
3273.03,0.51995
3267.24,0.54146
3261.45,0.55551
3255.67,0.56344
3249.88,0.56742
3244.09,0.56784
3238.31,0.56645
3232.52,0.56279
3226.74,0.55819
3220.95,0.55503
3215.16,0.55243
3209.38,0.54758
3203.59,0.54510
3197.81,0.54093
3192.02,0.53991
3186.23,0.53999
3180.45,0.54203
3174.66,0.54303
3168.87,0.54365
3163.09,0.54268
3157.3,0.54080
3151.52,0.53727
3145.73,0.53261
3139.94,0.52590
3134.16,0.51295
3128.37,0.49828
3122.59,0.49014
3116.8,0.48678
3111.01,0.47240
3105.23,0.44876
3099.44,0.41717
3093.66,0.39789
3087.87,0.37261
3082.08,0.34202
3076.3,0.33429
3070.51,0.31883
3064.72,0.29203
3058.94,0.28514
3053.15,0.27062
3047.37,0.28419
3041.58,0.28814
3035.79,0.26856
3030.01,0.24049
3024.22,0.20968
3018.44,0.17196
3012.65,0.12858
3006.86,0.08344
3001.08,0.04365
2995.29,0.01586
2989.5,0.00288
2983.72,0.00022
2977.93,0.00035
2972.15,0.00069
2966.36,0.00035
2960.57,0.00019
2954.79,0.00058
2949,0.00051
2943.22,0.00054
2937.43,0.00043
2931.64,0.00071
2925.86,0.00036
2920.07,0.00065
2914.28,0.00072
2908.5,0.00034
2902.71,0.00071
2896.93,0.00045
2891.14,0.00031
2885.35,0.00060
2879.57,0.00005
2873.78,0.00038
2868,0.00023
2862.21,0.00038
2856.42,0.00049
2850.64,0.00031
2844.85,0.00126
2839.07,0.00866
2833.28,0.02725
2827.49,0.04942
2821.71,0.06116
2815.92,0.07085
2810.13,0.11527
2804.35,0.17029
2798.56,0.21611
2792.78,0.25682
2786.99,0.29082
2781.2,0.32057
2775.42,0.34480
2769.63,0.35972
2763.85,0.36787
2758.06,0.36966
2752.27,0.36274
2746.49,0.35008
2740.7,0.33571
2734.91,0.32444
2729.13,0.33842
2723.34,0.37605
2717.56,0.40712
2711.77,0.42682
2705.98,0.44267
2700.2,0.45478
2694.41,0.46258
2688.63,0.46514
2682.84,0.46035
2677.05,0.45295
2671.27,0.45232
2665.48,0.46281
2659.69,0.48238
2653.91,0.49917
2648.12,0.50860
2642.34,0.50902
2636.55,0.50069
2630.76,0.48951
2624.98,0.48696
2619.19,0.48658
2613.41,0.48604
2607.62,0.48482
2601.83,0.48584
2596.05,0.48717
2590.26,0.48677
2584.47,0.48237
2578.69,0.48017
2572.9,0.48536
2567.12,0.49473
2561.33,0.50048
2555.54,0.50223
2549.76,0.50739
2543.97,0.51578
2538.19,0.52366
2532.4,0.52756
2526.61,0.53294
2520.83,0.54297
2515.04,0.55607
2509.26,0.57033
2503.47,0.58235
2497.68,0.58988
2491.9,0.59470
2486.11,0.59906
2480.32,0.60400
2474.54,0.60977
2468.75,0.61494
2462.97,0.61855
2457.18,0.61850
2451.39,0.61691
2445.61,0.61201
2439.82,0.60586
2434.04,0.59820
2428.25,0.58712
2422.46,0.57327
2416.68,0.56214
2410.89,0.55378
2405.1,0.54455
2399.32,0.53608
2393.53,0.52583
2387.75,0.51712
2381.96,0.50569
2376.17,0.49034
2370.39,0.48021
2364.6,0.47766
2358.82,0.48961
2353.03,0.52132
2347.24,0.54859
2341.46,0.55183
2335.67,0.56982
2329.88,0.58109
2324.1,0.58877
2318.31,0.60659
2312.53,0.62564
2306.74,0.63496
2300.95,0.63651
2295.17,0.63081
2289.38,0.61965
2283.6,0.60543
2277.81,0.59293
2272.02,0.60210
2266.24,0.61628
2260.45,0.62427
2254.67,0.62557
2248.88,0.62589
2243.09,0.62309
2237.31,0.62073
2231.52,0.62152
2225.73,0.62485
2219.95,0.63204
2214.16,0.63516
2208.38,0.63875
2202.59,0.65370
2196.8,0.66868
2191.02,0.67591
2185.23,0.68409
2179.45,0.69057
2173.66,0.69411
2167.87,0.69460
2162.09,0.69071
2156.3,0.68878
2150.51,0.68585
2144.73,0.68450
2138.94,0.68118
2133.16,0.68118
2127.37,0.67941
2121.58,0.67764
2115.8,0.67432
2110.01,0.67230
2104.23,0.67190
2098.44,0.67028
2092.65,0.66741
2086.87,0.66196
2081.08,0.65801
2075.29,0.65438
2069.51,0.65456
2063.72,0.65445
2057.94,0.66031
2052.15,0.66645
2046.36,0.67218
2040.58,0.67551
2034.79,0.67788
2029.01,0.68073
2023.22,0.68457
2017.43,0.69001
2011.65,0.69571
2005.86,0.69734
2000.08,0.69227
1994.29,0.67753
1988.5,0.66259
1982.72,0.65999
1976.93,0.65334
1971.14,0.63714
1965.36,0.60761
1959.57,0.56700
1953.79,0.50825
1948,0.48312
1942.21,0.51680
1936.43,0.56416
1930.64,0.60123
1924.86,0.62038
1919.07,0.62824
1913.28,0.63762
1907.5,0.63961
1901.71,0.64707
1895.92,0.64643
1890.14,0.64668
1884.35,0.65268
1878.57,0.65743
1872.78,0.65282
1866.99,0.63835
1861.21,0.63915
1855.42,0.62367
1849.64,0.59394
1843.85,0.55323
1838.06,0.52797
1832.28,0.47539
1826.49,0.41419
1820.7,0.40427
1814.92,0.42173
1809.13,0.43019
1803.35,0.42561
1797.56,0.40414
1791.77,0.36840
1785.99,0.33958
1780.2,0.29843
1774.42,0.26011
1768.63,0.21298
1762.84,0.16058
1757.06,0.08593
1751.27,0.03094
1745.48,0.00604
1739.7,0.00048
1733.91,0.00033
1728.13,0.00030
1722.34,0.00027
1716.55,0.00048
1710.77,0.00023
1704.98,0.00009
1699.2,0.00176
1693.41,0.02491
1687.62,0.04850
1681.84,0.06425
1676.05,0.07508
1670.27,0.10244
1664.48,0.18269
1658.69,0.25857
1652.91,0.27719
1647.12,0.26509
1641.33,0.19701
1635.55,0.17200
1629.76,0.27363
1623.98,0.31362
1618.19,0.29860
1612.4,0.25911
1606.62,0.28920
1600.83,0.33789
1595.05,0.34861
1589.26,0.33275
1583.47,0.22694
1577.69,0.09850
1571.9,0.16390
1566.11,0.21345
1560.33,0.23431
1554.54,0.25966
1548.76,0.26570
1542.97,0.22883
1537.18,0.21852
1531.4,0.24279
1525.61,0.24766
1519.83,0.26608
1514.04,0.23680
1508.25,0.12962
1502.47,0.07659
1496.68,0.19156
1490.89,0.18976
1485.11,0.11173
1479.32,0.03859
1473.54,0.00478
1467.75,0.00013
1461.96,0.00029
1456.18,0.00044
1450.39,0.00018
1444.61,0.00045
1438.82,0.00039
1433.03,0.00052
1427.25,0.00063
1421.46,0.00041
1415.68,0.00015
1409.89,0.00011
1404.1,0.00140
1398.32,0.00524
1392.53,0.00104
1386.74,0.00020
1380.96,0.00033
1375.17,0.00024
1369.39,0.00118
1363.6,0.00141
1357.81,0.00089
1352.03,0.00046
1346.24,0.00029
1340.46,0.00031
1334.67,0.00021
1328.88,0.00008
1323.1,0.00022
1317.31,0.00052
1311.52,0.00022
1305.74,0.00038
1299.95,0.00006
1294.17,0.00014
1288.38,0.00023
1282.59,0.00024
1276.81,0.00035
1271.02,0.00021
1265.24,0.00026
1259.45,0.00028
1253.66,0.00030
1247.88,0.00019
1242.09,0.00057
1236.3,0.00053
1230.52,0.00019
1224.73,0.00023
1218.95,0.00231
1213.16,0.00249
1207.37,0.00175
1201.59,0.00132
1195.8,0.00181
1190.02,0.00499
1184.23,0.01206
1178.44,0.01193
1172.66,0.00434
1166.87,0.00662
1161.09,0.00747
1155.3,0.00569
1149.51,0.00473
1143.73,0.00386
1137.94,0.00209
1132.15,0.00057
1126.37,0.00037
1120.58,0.00013
1114.8,0.00062
1109.01,0.00088
1103.22,0.00055
1097.44,0.00014
1091.65,0.00046
1085.87,0.00085
1080.08,0.00094
1074.29,0.00431
1068.51,0.00973
1062.72,0.01425
1056.93,0.01978
1051.15,0.02490
1045.36,0.02568
1039.58,0.02298
1033.79,0.01797
1028,0.00907
1022.22,0.00093
1016.43,0.00119
1010.65,0.00685
1004.86,0.00771
999.073,0.00428
993.287,0.00205
987.501,0.00146
981.715,0.00051
975.929,0.00033
970.142,0.00019
964.356,0.00054
958.57,0.00026
952.784,0.00053
946.998,0.00041
941.212,0.00036
935.426,0.00188
929.64,0.00306
923.853,0.00378
918.067,0.00746
912.281,0.01238
906.495,0.01703
900.709,0.02601
894.923,0.03411
889.137,0.04611
883.35,0.03304
877.564,0.00464
871.778,0.00515
865.992,0.02678
860.206,0.03838
854.42,0.04011
848.634,0.03862
842.847,0.03779
837.061,0.02983
831.275,0.02878
825.489,0.07089
819.703,0.13257
813.917,0.16004
808.131,0.16205
802.344,0.17046
796.558,0.12007
790.772,0.13111
784.986,0.10262
779.2,0.08780
773.414,0.06639
767.628,0.05861
761.842,0.10223
756.055,0.16105
750.269,0.14547
744.483,0.06428
738.697,0.00468
732.911,0.00013
727.125,0.00103
721.339,0.01257
715.552,0.02247
709.766,0.00875
703.98,0.00229
698.194,0.00034
692.408,0.00073
686.622,0.00119
680.836,0.00267
675.049,0.00546
669.263,0.01321
663.477,0.02409
657.691,0.01254
651.905,0.00065
646.119,0.00065
640.333,0.00170
634.546,0.00082
628.76,0.00132
622.974,0.00102
617.188,0.00074
611.402,0.00069
605.616,0.00130
599.83,0.00528