File: 01_Data/PEVA/FTIR/IS/PEVA_0.18_IS_S_240809_R4.dpt
7497.33,0.10296
7491.55,0.09286
7485.76,0.09154
7479.97,0.10110
7474.19,0.09759
7468.4,0.11044
7462.61,0.10318
7456.83,0.09954
7451.04,0.10210
7445.26,0.10720
7439.47,0.09834
7433.68,0.09857
7427.9,0.10101
7422.11,0.09412
7416.32,0.09655
7410.54,0.09986
7404.75,0.10620
7398.96,0.11027
7393.18,0.09959
7387.39,0.09311
7381.6,0.11615
7375.82,0.09638
7370.03,0.09651
7364.24,0.09887
7358.46,0.10201
7352.67,0.10246
7346.89,0.09361
7341.1,0.08957
7335.31,0.10303
7329.53,0.09500
7323.74,0.09661
7317.95,0.09832
7312.17,0.10259
7306.38,0.10636
7300.59,0.10573
7294.81,0.10410
7289.02,0.09647
7283.23,0.09794
7277.45,0.10117
7271.66,0.10733
7265.87,0.08887
7260.09,0.10375
7254.3,0.10006
7248.52,0.09133
7242.73,0.09333
7236.94,0.10136
7231.16,0.09220
7225.37,0.09519
7219.58,0.10680
7213.8,0.10918
7208.01,0.09660
7202.22,0.10574
7196.44,0.09878
7190.65,0.10157
7184.86,0.09721
7179.08,0.10872
7173.29,0.09885
7167.5,0.09570
7161.72,0.08899
7155.93,0.09320
7150.15,0.09667
7144.36,0.10047
7138.57,0.09124
7132.79,0.08618
7127,0.10102
7121.21,0.08958
7115.43,0.08699
7109.64,0.08960
7103.85,0.09961
7098.07,0.10560
7092.28,0.10269
7086.49,0.09801
7080.71,0.10033
7074.92,0.09543
7069.13,0.09455
7063.35,0.09296
7057.56,0.09332
7051.78,0.09935
7045.99,0.09659
7040.2,0.10043
7034.42,0.09668
7028.63,0.10443
7022.84,0.10780
7017.06,0.09910
7011.27,0.10373
7005.48,0.09282
6999.7,0.10201
6993.91,0.09513
6988.12,0.10262
6982.34,0.09545
6976.55,0.09636
6970.76,0.09562
6964.98,0.09364
6959.19,0.09404
6953.41,0.09855
6947.62,0.10084
6941.83,0.09301
6936.05,0.10183
6930.26,0.10420
6924.47,0.09534
6918.69,0.09697
6912.9,0.09699
6907.11,0.10569
6901.33,0.09413
6895.54,0.10081
6889.75,0.09840
6883.97,0.10590
6878.18,0.10467
6872.39,0.09878
6866.61,0.10056
6860.82,0.10149
6855.04,0.09691
6849.25,0.09715
6843.46,0.09436
6837.68,0.09406
6831.89,0.10497
6826.1,0.09889
6820.32,0.10590
6814.53,0.09635
6808.74,0.10425
6802.96,0.09780
6797.17,0.09959
6791.38,0.09884
6785.6,0.09901
6779.81,0.10371
6774.03,0.10363
6768.24,0.10421
6762.45,0.10162
6756.67,0.09362
6750.88,0.09754
6745.09,0.10035
6739.31,0.09865
6733.52,0.09915
6727.73,0.10459
6721.95,0.10130
6716.16,0.09611
6710.37,0.09995
6704.59,0.09997
6698.8,0.10189
6693.01,0.10404
6687.23,0.10444
6681.44,0.09412
6675.66,0.10078
6669.87,0.10002
6664.08,0.09862
6658.3,0.10008
6652.51,0.09466
6646.72,0.09755
6640.94,0.09953
6635.15,0.09794
6629.36,0.09864
6623.58,0.09792
6617.79,0.09987
6612,0.09852
6606.22,0.09981
6600.43,0.10145
6594.64,0.10057
6588.86,0.09987
6583.07,0.09677
6577.29,0.10117
6571.5,0.10098
6565.71,0.09875
6559.93,0.10072
6554.14,0.10055
6548.35,0.10018
6542.57,0.09978
6536.78,0.09824
6530.99,0.10356
6525.21,0.09884
6519.42,0.09619
6513.63,0.10108
6507.85,0.10214
6502.06,0.09486
6496.27,0.10140
6490.49,0.09802
6484.7,0.09731
6478.92,0.09787
6473.13,0.10084
6467.34,0.10119
6461.56,0.09965
6455.77,0.09882
6449.98,0.09765
6444.2,0.09916
6438.41,0.09962
6432.62,0.10151
6426.84,0.09829
6421.05,0.09995
6415.26,0.10175
6409.48,0.10112
6403.69,0.10231
6397.9,0.10114
6392.12,0.10205
6386.33,0.10378
6380.55,0.09848
6374.76,0.09752
6368.97,0.09926
6363.19,0.10108
6357.4,0.09955
6351.61,0.10091
6345.83,0.09842
6340.04,0.09995
6334.25,0.09970
6328.47,0.10199
6322.68,0.09842
6316.89,0.10061
6311.11,0.10059
6305.32,0.10414
6299.53,0.10002
6293.75,0.10206
6287.96,0.10303
6282.18,0.09606
6276.39,0.09671
6270.6,0.10037
6264.82,0.10283
6259.03,0.09938
6253.24,0.09831
6247.46,0.09873
6241.67,0.10429
6235.88,0.10244
6230.1,0.10161
6224.31,0.10144
6218.52,0.10058
6212.74,0.10138
6206.95,0.10624
6201.16,0.10125
6195.38,0.10146
6189.59,0.09921
6183.81,0.09774
6178.02,0.09990
6172.23,0.09788
6166.45,0.09804
6160.66,0.10160
6154.87,0.09917
6149.09,0.09789
6143.3,0.10172
6137.51,0.09936
6131.73,0.09799
6125.94,0.10075
6120.15,0.09929
6114.37,0.09663
6108.58,0.09928
6102.79,0.10154
6097.01,0.09983
6091.22,0.09889
6085.44,0.10187
6079.65,0.09993
6073.86,0.10118
6068.08,0.09825
6062.29,0.09991
6056.5,0.10097
6050.72,0.09794
6044.93,0.09709
6039.14,0.10041
6033.36,0.09714
6027.57,0.10072
6021.78,0.09811
6016,0.09729
6010.21,0.09567
6004.42,0.10071
5998.64,0.09783
5992.85,0.09832
5987.07,0.09795
5981.28,0.09933
5975.49,0.09746
5969.71,0.10099
5963.92,0.09683
5958.13,0.09686
5952.35,0.09823
5946.56,0.10089
5940.77,0.10073
5934.99,0.09676
5929.2,0.09817
5923.41,0.09679
5917.63,0.09633
5911.84,0.09711
5906.05,0.09724
5900.27,0.09593
5894.48,0.09907
5888.7,0.09898
5882.91,0.09398
5877.12,0.09421
5871.34,0.09787
5865.55,0.09654
5859.76,0.09651
5853.98,0.09522
5848.19,0.09002
5842.4,0.09353
5836.62,0.09221
5830.83,0.08980
5825.04,0.08824
5819.26,0.08822
5813.47,0.08797
5807.68,0.08880
5801.9,0.08845
5796.11,0.08594
5790.33,0.08666
5784.54,0.08143
5778.75,0.08328
5772.97,0.08356
5767.18,0.08663
5761.39,0.08947
5755.61,0.08989
5749.82,0.09113
5744.03,0.08957
5738.25,0.09161
5732.46,0.09389
5726.67,0.09350
5720.89,0.09135
5715.1,0.09561
5709.31,0.09018
5703.53,0.09298
5697.74,0.09120
5691.96,0.09188
5686.17,0.09092
5680.38,0.09046
5674.6,0.09150
5668.81,0.08969
5663.02,0.08885
5657.24,0.09052
5651.45,0.09221
5645.66,0.09077
5639.88,0.09393
5634.09,0.09461
5628.3,0.09509
5622.52,0.09521
5616.73,0.09483
5610.94,0.09441
5605.16,0.09607
5599.37,0.09788
5593.59,0.09775
5587.8,0.09612
5582.01,0.09625
5576.23,0.09573
5570.44,0.09627
5564.65,0.09425
5558.87,0.09749
5553.08,0.09621
5547.29,0.09499
5541.51,0.09533
5535.72,0.09494
5529.93,0.09622
5524.15,0.09560
5518.36,0.09375
5512.58,0.09420
5506.79,0.09413
5501,0.09386
5495.22,0.09477
5489.43,0.09477
5483.64,0.09569
5477.86,0.09556
5472.07,0.09360
5466.28,0.09571
5460.5,0.09702
5454.71,0.09518
5448.92,0.09732
5443.14,0.09751
5437.35,0.09642
5431.56,0.09487
5425.78,0.09802
5419.99,0.09646
5414.21,0.09664
5408.42,0.09834
5402.63,0.09664
5396.85,0.09789
5391.06,0.09998
5385.27,0.09675
5379.49,0.09930
5373.7,0.09945
5367.91,0.09838
5362.13,0.09746
5356.34,0.09693
5350.55,0.09788
5344.77,0.09743
5338.98,0.09879
5333.19,0.09824
5327.41,0.09872
5321.62,0.09830
5315.84,0.09854
5310.05,0.09902
5304.26,0.09818
5298.48,0.09861
5292.69,0.09878
5286.9,0.10007
5281.12,0.09686
5275.33,0.09830
5269.54,0.09675
5263.76,0.09856
5257.97,0.09841
5252.18,0.09738
5246.4,0.09981
5240.61,0.09826
5234.82,0.09807
5229.04,0.09807
5223.25,0.09903
5217.47,0.09931
5211.68,0.09879
5205.89,0.09933
5200.11,0.09852
5194.32,0.09848
5188.53,0.09857
5182.75,0.10025
5176.96,0.09926
5171.17,0.09925
5165.39,0.09911
5159.6,0.09880
5153.81,0.09798
5148.03,0.09940
5142.24,0.09849
5136.45,0.10000
5130.67,0.10036
5124.88,0.09926
5119.1,0.09789
5113.31,0.09918
5107.52,0.09940
5101.74,0.09998
5095.95,0.10007
5090.16,0.09865
5084.38,0.09989
5078.59,0.09898
5072.8,0.09960
5067.02,0.09862
5061.23,0.09910
5055.44,0.10029
5049.66,0.09927
5043.87,0.09810
5038.08,0.09791
5032.3,0.09959
5026.51,0.09922
5020.73,0.09950
5014.94,0.09986
5009.15,0.09961
5003.37,0.10042
4997.58,0.09949
4991.79,0.09906
4986.01,0.10061
4980.22,0.09975
4974.43,0.09893
4968.65,0.09869
4962.86,0.10058
4957.07,0.09903
4951.29,0.10032
4945.5,0.09999
4939.71,0.09894
4933.93,0.09970
4928.14,0.10019
4922.36,0.10009
4916.57,0.10006
4910.78,0.09965
4905,0.09983
4899.21,0.10041
4893.42,0.10026
4887.64,0.09941
4881.85,0.10032
4876.06,0.10115
4870.28,0.09950
4864.49,0.10030
4858.7,0.10044
4852.92,0.09979
4847.13,0.10081
4841.34,0.10010
4835.56,0.10005
4829.77,0.10074
4823.99,0.10076
4818.2,0.10119
4812.41,0.09998
4806.63,0.10041
4800.84,0.10163
4795.05,0.10043
4789.27,0.10048
4783.48,0.10008
4777.69,0.10147
4771.91,0.10124
4766.12,0.10254
4760.33,0.10053
4754.55,0.09966
4748.76,0.10150
4742.97,0.10126
4737.19,0.10083
4731.4,0.10293
4725.62,0.10048
4719.83,0.10190
4714.04,0.10133
4708.26,0.10174
4702.47,0.09998
4696.68,0.10136
4690.9,0.10054
4685.11,0.09961
4679.32,0.10051
4673.54,0.09959
4667.75,0.10009
4661.96,0.10003
4656.18,0.10030
4650.39,0.10054
4644.6,0.10050
4638.82,0.10118
4633.03,0.10109
4627.25,0.10097
4621.46,0.09950
4615.67,0.09938
4609.89,0.09949
4604.1,0.09989
4598.31,0.09988
4592.53,0.10042
4586.74,0.09981
4580.95,0.09976
4575.17,0.09943
4569.38,0.10070
4563.59,0.10091
4557.81,0.10066
4552.02,0.10038
4546.23,0.10052
4540.45,0.10051
4534.66,0.10010
4528.88,0.10003
4523.09,0.10122
4517.3,0.09987
4511.52,0.09927
4505.73,0.09952
4499.94,0.09925
4494.16,0.09985
4488.37,0.09937
4482.58,0.09956
4476.8,0.09885
4471.01,0.09736
4465.22,0.09842
4459.44,0.09675
4453.65,0.09692
4447.86,0.09531
4442.08,0.09468
4436.29,0.09421
4430.51,0.09338
4424.72,0.09363
4418.93,0.09193
4413.15,0.09111
4407.36,0.09031
4401.57,0.08889
4395.79,0.08729
4390,0.08561
4384.21,0.08573
4378.43,0.08228
4372.64,0.08075
4366.85,0.07944
4361.07,0.07807
4355.28,0.07479
4349.49,0.07229
4343.71,0.07034
4337.92,0.06757
4332.14,0.06551
4326.35,0.06232
4320.56,0.06357
4314.78,0.06933
4308.99,0.07480
4303.2,0.07754
4297.42,0.07809
4291.63,0.07732
4285.84,0.07620
4280.06,0.07697
4274.27,0.07615
4268.48,0.07343
4262.7,0.07119
4256.91,0.06720
4251.13,0.06658
4245.34,0.07024
4239.55,0.07405
4233.77,0.07499
4227.98,0.07302
4222.19,0.07147
4216.41,0.07260
4210.62,0.07277
4204.83,0.07175
4199.05,0.07109
4193.26,0.06982
4187.47,0.06925
4181.69,0.07111
4175.9,0.06916
4170.11,0.07051
4164.33,0.07022
4158.54,0.07041
4152.76,0.07095
4146.97,0.07085
4141.18,0.07109
4135.4,0.07189
4129.61,0.07204
4123.82,0.07226
4118.04,0.07277
4112.25,0.07174
4106.46,0.07230
4100.68,0.07211
4094.89,0.07297
4089.1,0.07445
4083.32,0.07467
4077.53,0.07627
4071.74,0.07778
4065.96,0.07790
4060.17,0.07791
4054.39,0.07846
4048.6,0.07952
4042.81,0.07962
4037.03,0.07956
4031.24,0.08101
4025.45,0.08001
4019.67,0.08108
4013.88,0.08220
4008.09,0.08266
4002.31,0.08357
3996.52,0.08332
3990.73,0.08423
3984.95,0.08373
3979.16,0.08356
3973.37,0.08278
3967.59,0.08333
3961.8,0.08404
3956.02,0.08478
3950.23,0.08413
3944.44,0.08411
3938.66,0.08367
3932.87,0.08411
3927.08,0.08350
3921.3,0.08390
3915.51,0.08329
3909.72,0.08337
3903.94,0.08377
3898.15,0.08365
3892.36,0.08422
3886.58,0.08544
3880.79,0.08461
3875,0.08494
3869.22,0.08512
3863.43,0.08674
3857.65,0.08719
3851.86,0.08567
3846.07,0.08710
3840.29,0.08748
3834.5,0.08710
3828.71,0.08774
3822.93,0.08751
3817.14,0.08744
3811.35,0.08843
3805.57,0.08797
3799.78,0.08913
3793.99,0.08926
3788.21,0.08989
3782.42,0.09074
3776.63,0.09058
3770.85,0.09052
3765.06,0.08999
3759.28,0.09063
3753.49,0.09036
3747.7,0.08929
3741.92,0.09054
3736.13,0.09091
3730.34,0.08959
3724.56,0.09017
3718.77,0.08875
3712.98,0.08867
3707.2,0.08876
3701.41,0.08781
3695.62,0.08762
3689.84,0.08732
3684.05,0.08599
3678.26,0.08622
3672.48,0.08544
3666.69,0.08508
3660.91,0.08544
3655.12,0.08447
3649.33,0.08284
3643.55,0.08260
3637.76,0.08401
3631.97,0.08452
3626.19,0.08462
3620.4,0.08429
3614.61,0.08362
3608.83,0.08226
3603.04,0.08064
3597.25,0.08489
3591.47,0.08840
3585.68,0.08967
3579.89,0.09031
3574.11,0.09153
3568.32,0.09178
3562.54,0.09105
3556.75,0.09146
3550.96,0.09257
3545.18,0.09242
3539.39,0.09210
3533.6,0.09214
3527.82,0.09234
3522.03,0.09251
3516.24,0.09230
3510.46,0.09196
3504.67,0.09123
3498.88,0.09128
3493.1,0.09125
3487.31,0.09063
3481.52,0.08876
3475.74,0.08688
3469.95,0.08292
3464.17,0.08017
3458.38,0.07840
3452.59,0.07917
3446.81,0.08065
3441.02,0.08396
3435.23,0.08567
3429.45,0.08734
3423.66,0.08853
3417.87,0.08887
3412.09,0.08958
3406.3,0.08878
3400.51,0.08972
3394.73,0.08972
3388.94,0.08868
3383.15,0.08852
3377.37,0.08874
3371.58,0.08840
3365.8,0.08854
3360.01,0.08930
3354.22,0.08916
3348.44,0.08924
3342.65,0.09020
3336.86,0.08966
3331.08,0.09042
3325.29,0.08999
3319.5,0.08896
3313.72,0.09003
3307.93,0.09040
3302.14,0.08954
3296.36,0.08926
3290.57,0.08978
3284.78,0.08893
3279,0.08862
3273.21,0.08890
3267.43,0.08849
3261.64,0.08879
3255.85,0.08834
3250.07,0.08797
3244.28,0.08826
3238.49,0.08779
3232.71,0.08789
3226.92,0.08784
3221.13,0.08687
3215.35,0.08611
3209.56,0.08724
3203.77,0.08648
3197.99,0.08548
3192.2,0.08563
3186.41,0.08487
3180.63,0.08558
3174.84,0.08514
3169.06,0.08423
3163.27,0.08419
3157.48,0.08282
3151.7,0.08329
3145.91,0.08350
3140.12,0.08206
3134.34,0.08179
3128.55,0.08041
3122.76,0.07884
3116.98,0.07784
3111.19,0.07687
3105.4,0.07457
3099.62,0.07183
3093.83,0.06967
3088.05,0.06777
3082.26,0.06653
3076.47,0.06490
3070.69,0.06392
3064.9,0.06271
3059.11,0.06130
3053.33,0.06053
3047.54,0.05989
3041.75,0.05813
3035.97,0.05705
3030.18,0.05686
3024.39,0.05573
3018.61,0.05544
3012.82,0.05530
3007.03,0.05446
3001.25,0.05386
2995.46,0.05326
2989.68,0.05258
2983.89,0.05146
2978.1,0.05148
2972.32,0.04966
2966.53,0.04868
2960.74,0.04821
2954.96,0.04652
2949.17,0.04503
2943.38,0.04226
2937.6,0.03904
2931.81,0.03963
2926.02,0.04841
2920.24,0.07219
2914.45,0.08726
2908.66,0.07864
2902.88,0.07261
2897.09,0.06999
2891.31,0.06848
2885.52,0.06715
2879.73,0.06463
2873.95,0.06232
2868.16,0.05960
2862.37,0.05570
2856.59,0.05391
2850.8,0.07084
2845.01,0.08358
2839.23,0.07725
2833.44,0.07216
2827.65,0.06853
2821.87,0.06797
2816.08,0.06749
2810.29,0.06696
2804.51,0.06669
2798.72,0.06725
2792.94,0.06747
2787.15,0.06794
2781.36,0.06812
2775.58,0.06831
2769.79,0.06807
2764,0.06766
2758.22,0.06778
2752.43,0.06795
2746.64,0.06791
2740.86,0.06661
2735.07,0.06639
2729.28,0.06643
2723.5,0.06649
2717.71,0.06689
2711.92,0.06751
2706.14,0.06810
2700.35,0.06740
2694.57,0.06718
2688.78,0.06730
2682.99,0.06668
2677.21,0.06614
2671.42,0.06687
2665.63,0.06666
2659.85,0.06696
2654.06,0.06776
2648.27,0.06825
2642.49,0.06868
2636.7,0.06871
2630.91,0.06951
2625.13,0.07043
2619.34,0.07131
2613.55,0.07294
2607.77,0.07360
2601.98,0.07436
2596.2,0.07569
2590.41,0.07663
2584.62,0.07808
2578.84,0.07860
2573.05,0.07998
2567.26,0.08070
2561.48,0.08094
2555.69,0.08181
2549.9,0.08203
2544.12,0.08306
2538.33,0.08350
2532.54,0.08323
2526.76,0.08294
2520.97,0.08360
2515.18,0.08496
2509.4,0.08568
2503.61,0.08582
2497.83,0.08596
2492.04,0.08586
2486.25,0.08557
2480.47,0.08596
2474.68,0.08565
2468.89,0.08649
2463.11,0.08788
2457.32,0.08986
2451.53,0.09088
2445.75,0.09143
2439.96,0.09220
2434.17,0.09275
2428.39,0.09167
2422.6,0.09165
2416.81,0.09159
2411.03,0.09128
2405.24,0.09083
2399.46,0.09172
2393.67,0.09185
2387.88,0.09069
2382.1,0.09090
2376.31,0.09145
2370.52,0.09029
2364.74,0.08915
2358.95,0.08883
2353.16,0.08696
2347.38,0.08461
2341.59,0.08387
2335.8,0.08370
2330.02,0.08243
2324.23,0.08194
2318.44,0.08307
2312.66,0.08378
2306.87,0.08292
2301.09,0.08337
2295.3,0.08473
2289.51,0.08505
2283.73,0.08438
2277.94,0.08571
2272.15,0.08626
2266.37,0.08643
2260.58,0.08689
2254.79,0.08829
2249.01,0.08847
2243.22,0.08856
2237.43,0.09066
2231.65,0.09287
2225.86,0.09241
2220.07,0.09262
2214.29,0.09422
2208.5,0.09397
2202.72,0.09294
2196.93,0.09348
2191.14,0.09350
2185.36,0.09207
2179.57,0.09206
2173.78,0.09291
2168,0.09154
2162.21,0.09008
2156.42,0.09117
2150.64,0.09210
2144.85,0.09140
2139.06,0.09172
2133.28,0.09427
2127.49,0.09402
2121.7,0.09297
2115.92,0.09433
2110.13,0.09473
2104.35,0.09272
2098.56,0.09152
2092.77,0.09302
2086.99,0.09244
2081.2,0.09037
2075.41,0.09060
2069.63,0.09110
2063.84,0.08903
2058.05,0.08780
2052.27,0.08827
2046.48,0.08691
2040.69,0.08519
2034.91,0.08467
2029.12,0.08475
2023.33,0.08247
2017.55,0.08271
2011.76,0.08637
2005.98,0.08853
2000.19,0.08851
1994.4,0.09062
1988.62,0.09274
1982.83,0.09186
1977.04,0.09188
1971.26,0.09359
1965.47,0.09284
1959.68,0.09172
1953.9,0.09257
1948.11,0.09350
1942.32,0.09208
1936.54,0.09160
1930.75,0.09296
1924.96,0.09175
1919.18,0.08966
1913.39,0.09019
1907.61,0.08950
1901.82,0.08631
1896.03,0.08557
1890.25,0.08711
1884.46,0.08623
1878.67,0.08451
1872.89,0.08519
1867.1,0.08453
1861.31,0.08243
1855.53,0.08336
1849.74,0.08448
1843.95,0.08197
1838.17,0.08083
1832.38,0.08204
1826.6,0.07921
1820.81,0.07633
1815.02,0.07679
1809.24,0.07550
1803.45,0.07292
1797.66,0.07264
1791.88,0.07049
1786.09,0.06822
1780.3,0.06803
1774.52,0.06540
1768.73,0.06362
1762.94,0.06249
1757.16,0.06293
1751.37,0.06574
1745.58,0.07275
1739.8,0.06977
1734.01,0.05980
1728.23,0.05495
1722.44,0.05583
1716.65,0.05727
1710.87,0.05859
1705.08,0.05917
1699.29,0.06019
1693.51,0.06045
1687.72,0.06395
1681.93,0.06823
1676.15,0.06809
1670.36,0.07163
1664.57,0.07248
1658.79,0.06969
1653,0.06987
1647.21,0.06902
1641.43,0.07079
1635.64,0.07522
1629.86,0.07776
1624.07,0.07614
1618.28,0.07701
1612.5,0.08001
1606.71,0.07730
1600.92,0.07630
1595.14,0.07868
1589.35,0.07816
1583.56,0.07515
1577.78,0.07756
1571.99,0.07800
1566.2,0.07395
1560.42,0.07387
1554.63,0.07655
1548.84,0.07445
1543.06,0.07258
1537.27,0.07669
1531.49,0.07451
1525.7,0.07232
1519.91,0.07397
1514.13,0.07231
1508.34,0.06910
1502.55,0.07031
1496.77,0.06672
1490.98,0.06346
1485.19,0.05984
1479.41,0.05450
1473.62,0.05310
1467.83,0.05699
1462.05,0.06178
1456.26,0.06344
1450.47,0.06273
1444.69,0.06134
1438.9,0.06122
1433.12,0.06031
1427.33,0.05954
1421.54,0.05984
1415.76,0.05953
1409.97,0.06049
1404.18,0.06115
1398.4,0.05859
1392.61,0.05670
1386.82,0.05375
1381.04,0.05322
1375.25,0.05459
1369.46,0.05596
1363.68,0.05654
1357.89,0.05665
1352.1,0.05697
1346.32,0.05763
1340.53,0.05959
1334.75,0.06111
1328.96,0.06131
1323.17,0.06236
1317.39,0.06025
1311.6,0.06053
1305.81,0.06083
1300.03,0.06086
1294.24,0.06233
1288.45,0.06250
1282.67,0.06364
1276.88,0.06473
1271.09,0.06674
1265.31,0.06816
1259.52,0.06956
1253.73,0.06897
1247.95,0.06325
1242.16,0.05439
1236.38,0.04813
1230.59,0.04821
1224.8,0.05111
1219.02,0.05437
1213.23,0.05524
1207.44,0.05658
1201.66,0.05722
1195.87,0.05807
1190.08,0.05928
1184.3,0.05910
1178.51,0.06023
1172.72,0.06039
1166.94,0.05957
1161.15,0.05965
1155.36,0.05959
1149.58,0.05817
1143.79,0.05822
1138.01,0.05860
1132.22,0.05802
1126.43,0.05916
1120.65,0.05980
1114.86,0.06004
1109.07,0.06045
1103.29,0.06088
1097.5,0.06097
1091.71,0.06044
1085.93,0.06180
1080.14,0.06234
1074.35,0.06170
1068.57,0.06305
1062.78,0.06273
1056.99,0.06330
1051.21,0.06294
1045.42,0.06345
1039.64,0.06357
1033.85,0.06332
1028.06,0.06424
1022.28,0.06328
1016.49,0.06185
1010.7,0.06092
1004.92,0.06063
999.13,0.06132
993.344,0.06175
987.557,0.06285
981.771,0.06101
975.984,0.06083
970.198,0.06113
964.411,0.05907
958.625,0.05824
952.838,0.05953
947.052,0.06035
941.265,0.05898
935.479,0.05880
929.692,0.06274
923.906,0.06630
918.12,0.06544
912.333,0.06909
906.547,0.07208
900.76,0.06867
894.974,0.06801
889.187,0.07244
883.401,0.07210
877.614,0.06755
871.828,0.07167
866.041,0.07463
860.255,0.07024
854.468,0.06989
848.682,0.07753
842.895,0.07736
837.109,0.07136
831.323,0.07687
825.536,0.08345
819.75,0.07570
813.963,0.07260
808.177,0.07991
802.39,0.07691
796.604,0.06905
790.817,0.07704
785.031,0.08439
779.244,0.07302
773.458,0.07032
767.671,0.07965
761.885,0.07377
756.098,0.06391
750.312,0.06998
744.526,0.06625
738.739,0.05561
732.953,0.05503
727.166,0.05604
721.38,0.05796
715.593,0.06217
709.807,0.06631
704.02,0.06528
698.234,0.08448
692.447,0.08808
686.661,0.07303
680.874,0.09164
675.088,0.09597
669.301,0.07242
663.515,0.08133
657.729,0.09558
651.942,0.07302
646.156,0.06305
640.369,0.08072
634.583,0.07998
628.796,0.05933
623.01,0.06649
617.223,0.08186
611.437,0.06137
605.65,0.05517
599.864,0.06837