File: 01_Data/PEVA/FTIR/IS/PEVA_0.10_IS_T_240808_R11.dpt
7496.93,0.05053
7491.14,0.04128
7485.35,0.04712
7479.57,0.02562
7473.78,0.02695
7468,0.02907
7462.21,0.05099
7456.42,0.03137
7450.64,0.04274
7444.85,0.03636
7439.06,0.04078
7433.28,0.02427
7427.49,0.03373
7421.71,0.03546
7415.92,0.04035
7410.13,0.02791
7404.35,0.03885
7398.56,0.02946
7392.78,0.02424
7386.99,0.02861
7381.2,0.03285
7375.42,0.02985
7369.63,0.03754
7363.84,0.04626
7358.06,0.03285
7352.27,0.03866
7346.49,0.04593
7340.7,0.03312
7334.91,0.03476
7329.13,0.03815
7323.34,0.03427
7317.56,0.02330
7311.77,0.03793
7305.98,0.03479
7300.2,0.03240
7294.41,0.02085
7288.62,0.02445
7282.84,0.03766
7277.05,0.03296
7271.27,0.04097
7265.48,0.03790
7259.69,0.02525
7253.91,0.03350
7248.12,0.03821
7242.34,0.03674
7236.55,0.02482
7230.76,0.02162
7224.98,0.03120
7219.19,0.04736
7213.4,0.03255
7207.62,0.03056
7201.83,0.02583
7196.05,0.04231
7190.26,0.02952
7184.47,0.02857
7178.69,0.03524
7172.9,0.03156
7167.12,0.04348
7161.33,0.03713
7155.54,0.02932
7149.76,0.02141
7143.97,0.03836
7138.18,0.03777
7132.4,0.03568
7126.61,0.03690
7120.83,0.03156
7115.04,0.03605
7109.25,0.02586
7103.47,0.02428
7097.68,0.03026
7091.9,0.03541
7086.11,0.03779
7080.32,0.02730
7074.54,0.03268
7068.75,0.03737
7062.96,0.02643
7057.18,0.03033
7051.39,0.02890
7045.61,0.03607
7039.82,0.03557
7034.03,0.02919
7028.25,0.04105
7022.46,0.04183
7016.68,0.03721
7010.89,0.03248
7005.1,0.03489
6999.32,0.04477
6993.53,0.03179
6987.74,0.03098
6981.96,0.03490
6976.17,0.03700
6970.39,0.02954
6964.6,0.02874
6958.81,0.03079
6953.03,0.03382
6947.24,0.03202
6941.46,0.03386
6935.67,0.03873
6929.88,0.03299
6924.1,0.03069
6918.31,0.03319
6912.52,0.03620
6906.74,0.03199
6900.95,0.03585
6895.17,0.03253
6889.38,0.03234
6883.59,0.02767
6877.81,0.03186
6872.02,0.03400
6866.24,0.02820
6860.45,0.03292
6854.66,0.03241
6848.88,0.02844
6843.09,0.03328
6837.3,0.04081
6831.52,0.03184
6825.73,0.03404
6819.95,0.03005
6814.16,0.03864
6808.37,0.03367
6802.59,0.03374
6796.8,0.03329
6791.02,0.03815
6785.23,0.03475
6779.44,0.02801
6773.66,0.03211
6767.87,0.03318
6762.08,0.03250
6756.3,0.03280
6750.51,0.03086
6744.73,0.03198
6738.94,0.02839
6733.15,0.03124
6727.37,0.02930
6721.58,0.02543
6715.8,0.02933
6710.01,0.02888
6704.22,0.03304
6698.44,0.04085
6692.65,0.03407
6686.86,0.03267
6681.08,0.03312
6675.29,0.03311
6669.51,0.03777
6663.72,0.03637
6657.93,0.03186
6652.15,0.03165
6646.36,0.02981
6640.58,0.02944
6634.79,0.02930
6629,0.03244
6623.22,0.02921
6617.43,0.02950
6611.64,0.02944
6605.86,0.02839
6600.07,0.02726
6594.29,0.02881
6588.5,0.03628
6582.71,0.03472
6576.93,0.03183
6571.14,0.02535
6565.36,0.02836
6559.57,0.02918
6553.78,0.03109
6548,0.03567
6542.21,0.03173
6536.42,0.02735
6530.64,0.03558
6524.85,0.03736
6519.07,0.03380
6513.28,0.03028
6507.49,0.03162
6501.71,0.02623
6495.92,0.03162
6490.14,0.03046
6484.35,0.03520
6478.56,0.03762
6472.78,0.03157
6466.99,0.02872
6461.2,0.03168
6455.42,0.02901
6449.63,0.03020
6443.85,0.03464
6438.06,0.02991
6432.27,0.02518
6426.49,0.02505
6420.7,0.02876
6414.92,0.03207
6409.13,0.02857
6403.34,0.03258
6397.56,0.03134
6391.77,0.03199
6385.98,0.02991
6380.2,0.03093
6374.41,0.03072
6368.63,0.03246
6362.84,0.03001
6357.05,0.02689
6351.27,0.02930
6345.48,0.03386
6339.7,0.02669
6333.91,0.03345
6328.12,0.03392
6322.34,0.03706
6316.55,0.03346
6310.76,0.03345
6304.98,0.03271
6299.19,0.02701
6293.41,0.03445
6287.62,0.03041
6281.83,0.02727
6276.05,0.03145
6270.26,0.03433
6264.48,0.03157
6258.69,0.02866
6252.9,0.03582
6247.12,0.03062
6241.33,0.02726
6235.54,0.03215
6229.76,0.03160
6223.97,0.03441
6218.19,0.03109
6212.4,0.02926
6206.61,0.02717
6200.83,0.02767
6195.04,0.03021
6189.26,0.02885
6183.47,0.03208
6177.68,0.03043
6171.9,0.03044
6166.11,0.02789
6160.32,0.02901
6154.54,0.03342
6148.75,0.03141
6142.97,0.03136
6137.18,0.02954
6131.39,0.02518
6125.61,0.02837
6119.82,0.03242
6114.04,0.02734
6108.25,0.02833
6102.46,0.03174
6096.68,0.02700
6090.89,0.02959
6085.1,0.02914
6079.32,0.03127
6073.53,0.03094
6067.75,0.02952
6061.96,0.02818
6056.17,0.02982
6050.39,0.03207
6044.6,0.02919
6038.82,0.02995
6033.03,0.02963
6027.24,0.03018
6021.46,0.03104
6015.67,0.03064
6009.88,0.03331
6004.1,0.03250
5998.31,0.03090
5992.53,0.02981
5986.74,0.02959
5980.95,0.03091
5975.17,0.03009
5969.38,0.03234
5963.6,0.02711
5957.81,0.02663
5952.02,0.02979
5946.24,0.02656
5940.45,0.02654
5934.66,0.02817
5928.88,0.03170
5923.09,0.03173
5917.31,0.02816
5911.52,0.02860
5905.73,0.02982
5899.95,0.02694
5894.16,0.02787
5888.38,0.02870
5882.59,0.03162
5876.8,0.02962
5871.02,0.03013
5865.23,0.02796
5859.44,0.02700
5853.66,0.02772
5847.87,0.03006
5842.09,0.02919
5836.3,0.02896
5830.51,0.02901
5824.73,0.02993
5818.94,0.02917
5813.16,0.02906
5807.37,0.03112
5801.58,0.02918
5795.8,0.02956
5790.01,0.02920
5784.22,0.02753
5778.44,0.03155
5772.65,0.02914
5766.87,0.02990
5761.08,0.02965
5755.29,0.03007
5749.51,0.03002
5743.72,0.02947
5737.94,0.03134
5732.15,0.02991
5726.36,0.02930
5720.58,0.03030
5714.79,0.02831
5709,0.02880
5703.22,0.03071
5697.43,0.02835
5691.65,0.03205
5685.86,0.03198
5680.07,0.03160
5674.29,0.03027
5668.5,0.03005
5662.72,0.03262
5656.93,0.03204
5651.14,0.02906
5645.36,0.03137
5639.57,0.03082
5633.78,0.03048
5628,0.02945
5622.21,0.03069
5616.43,0.03050
5610.64,0.03151
5604.85,0.03159
5599.07,0.02913
5593.28,0.03264
5587.5,0.03155
5581.71,0.03305
5575.92,0.03505
5570.14,0.03024
5564.35,0.02963
5558.56,0.02907
5552.78,0.03129
5546.99,0.03064
5541.21,0.02911
5535.42,0.03075
5529.63,0.03076
5523.85,0.02982
5518.06,0.03076
5512.28,0.02766
5506.49,0.02804
5500.7,0.02991
5494.92,0.02988
5489.13,0.02586
5483.34,0.02975
5477.56,0.02884
5471.77,0.03004
5465.99,0.02923
5460.2,0.03136
5454.41,0.02782
5448.63,0.02962
5442.84,0.02706
5437.06,0.02934
5431.27,0.03162
5425.48,0.03005
5419.7,0.03110
5413.91,0.03137
5408.12,0.03067
5402.34,0.03042
5396.55,0.02982
5390.77,0.03021
5384.98,0.03016
5379.19,0.03140
5373.41,0.02877
5367.62,0.02807
5361.84,0.02993
5356.05,0.03025
5350.26,0.02960
5344.48,0.02988
5338.69,0.03045
5332.9,0.03050
5327.12,0.02910
5321.33,0.03048
5315.55,0.02989
5309.76,0.03157
5303.97,0.02970
5298.19,0.02941
5292.4,0.03065
5286.62,0.02986
5280.83,0.03127
5275.04,0.02966
5269.26,0.02926
5263.47,0.02971
5257.68,0.03141
5251.9,0.03118
5246.11,0.03037
5240.33,0.03148
5234.54,0.03119
5228.75,0.03219
5222.97,0.02938
5217.18,0.02842
5211.4,0.03118
5205.61,0.02953
5199.82,0.02953
5194.04,0.02924
5188.25,0.02896
5182.46,0.02953
5176.68,0.03029
5170.89,0.02994
5165.11,0.02913
5159.32,0.03010
5153.53,0.02951
5147.75,0.02846
5141.96,0.02848
5136.18,0.02842
5130.39,0.02884
5124.6,0.03007
5118.82,0.02966
5113.03,0.03058
5107.24,0.02952
5101.46,0.02827
5095.67,0.02955
5089.89,0.02877
5084.1,0.03009
5078.31,0.03034
5072.53,0.02882
5066.74,0.02967
5060.96,0.02977
5055.17,0.02990
5049.38,0.03009
5043.6,0.03028
5037.81,0.03017
5032.02,0.02878
5026.24,0.02942
5020.45,0.03031
5014.67,0.03037
5008.88,0.03197
5003.09,0.03011
4997.31,0.03041
4991.52,0.03096
4985.74,0.03189
4979.95,0.03053
4974.16,0.02958
4968.38,0.02911
4962.59,0.02893
4956.8,0.03021
4951.02,0.03009
4945.23,0.03070
4939.45,0.03004
4933.66,0.03043
4927.87,0.02995
4922.09,0.03026
4916.3,0.02952
4910.52,0.03016
4904.73,0.03055
4898.94,0.03071
4893.16,0.03082
4887.37,0.03012
4881.58,0.02989
4875.8,0.03005
4870.01,0.02925
4864.23,0.02877
4858.44,0.02971
4852.65,0.02783
4846.87,0.03004
4841.08,0.02965
4835.3,0.02969
4829.51,0.02979
4823.72,0.03075
4817.94,0.02971
4812.15,0.02900
4806.36,0.02938
4800.58,0.02985
4794.79,0.02987
4789.01,0.02967
4783.22,0.03043
4777.43,0.02858
4771.65,0.02938
4765.86,0.02988
4760.08,0.02952
4754.29,0.03074
4748.5,0.02932
4742.72,0.03022
4736.93,0.02923
4731.14,0.02978
4725.36,0.02957
4719.57,0.03024
4713.79,0.03059
4708,0.02937
4702.21,0.02954
4696.43,0.02950
4690.64,0.02952
4684.86,0.03075
4679.07,0.02948
4673.28,0.03083
4667.5,0.03079
4661.71,0.03104
4655.92,0.02860
4650.14,0.02967
4644.35,0.03062
4638.57,0.02952
4632.78,0.02934
4626.99,0.02944
4621.21,0.03031
4615.42,0.02941
4609.64,0.02942
4603.85,0.03030
4598.06,0.03032
4592.28,0.02919
4586.49,0.02916
4580.7,0.02995
4574.92,0.02969
4569.13,0.02993
4563.35,0.03049
4557.56,0.02950
4551.77,0.02880
4545.99,0.03016
4540.2,0.03054
4534.42,0.02914
4528.63,0.02930
4522.84,0.03009
4517.06,0.02990
4511.27,0.02904
4505.48,0.03006
4499.7,0.02984
4493.91,0.02947
4488.13,0.02947
4482.34,0.02847
4476.55,0.03052
4470.77,0.02885
4464.98,0.02965
4459.2,0.02933
4453.41,0.02942
4447.62,0.02983
4441.84,0.02990
4436.05,0.02957
4430.26,0.02949
4424.48,0.02945
4418.69,0.02967
4412.91,0.02984
4407.12,0.02906
4401.33,0.02928
4395.55,0.02968
4389.76,0.02913
4383.98,0.02930
4378.19,0.02861
4372.4,0.02936
4366.62,0.02996
4360.83,0.03035
4355.04,0.02979
4349.26,0.02878
4343.47,0.02952
4337.69,0.02975
4331.9,0.02919
4326.11,0.02968
4320.33,0.02993
4314.54,0.02967
4308.76,0.02918
4302.97,0.02942
4297.18,0.02988
4291.4,0.02970
4285.61,0.02974
4279.82,0.02975
4274.04,0.02919
4268.25,0.02988
4262.47,0.02933
4256.68,0.02937
4250.89,0.03007
4245.11,0.02978
4239.32,0.02868
4233.54,0.02907
4227.75,0.02902
4221.96,0.02951
4216.18,0.03016
4210.39,0.02974
4204.6,0.03039
4198.82,0.02942
4193.03,0.02941
4187.25,0.03009
4181.46,0.02932
4175.67,0.02952
4169.89,0.02929
4164.1,0.02999
4158.32,0.02983
4152.53,0.02952
4146.74,0.03071
4140.96,0.02983
4135.17,0.02969
4129.38,0.03029
4123.6,0.02887
4117.81,0.02931
4112.03,0.03049
4106.24,0.02989
4100.45,0.02982
4094.67,0.02939
4088.88,0.02915
4083.1,0.02922
4077.31,0.03003
4071.52,0.03012
4065.74,0.02909
4059.95,0.02964
4054.16,0.02974
4048.38,0.02984
4042.59,0.02933
4036.81,0.02964
4031.02,0.02950
4025.23,0.03033
4019.45,0.03034
4013.66,0.02920
4007.88,0.02969
4002.09,0.02993
3996.3,0.02940
3990.52,0.03001
3984.73,0.02937
3978.94,0.02949
3973.16,0.02947
3967.37,0.03013
3961.59,0.02957
3955.8,0.02967
3950.01,0.02901
3944.23,0.02941
3938.44,0.02961
3932.66,0.02882
3926.87,0.02957
3921.08,0.02968
3915.3,0.02930
3909.51,0.03019
3903.72,0.03079
3897.94,0.03053
3892.15,0.02978
3886.37,0.02922
3880.58,0.03031
3874.79,0.03024
3869.01,0.02924
3863.22,0.02953
3857.44,0.02985
3851.65,0.02952
3845.86,0.02972
3840.08,0.02923
3834.29,0.02938
3828.5,0.02974
3822.72,0.03008
3816.93,0.02884
3811.15,0.02975
3805.36,0.03037
3799.57,0.03050
3793.79,0.02927
3788,0.02929
3782.22,0.02980
3776.43,0.02938
3770.64,0.02955
3764.86,0.02911
3759.07,0.02906
3753.28,0.02963
3747.5,0.02900
3741.71,0.02936
3735.93,0.02910
3730.14,0.02900
3724.35,0.02909
3718.57,0.02915
3712.78,0.02913
3707,0.02838
3701.21,0.02890
3695.42,0.02905
3689.64,0.02832
3683.85,0.02828
3678.06,0.02918
3672.28,0.02927
3666.49,0.02819
3660.71,0.02791
3654.92,0.02795
3649.13,0.02831
3643.35,0.02805
3637.56,0.02807
3631.78,0.02757
3625.99,0.02752
3620.2,0.02795
3614.42,0.02758
3608.63,0.02824
3602.84,0.02798
3597.06,0.02786
3591.27,0.02711
3585.49,0.02749
3579.7,0.02731
3573.91,0.02656
3568.13,0.02712
3562.34,0.02640
3556.56,0.02627
3550.77,0.02652
3544.98,0.02668
3539.2,0.02602
3533.41,0.02640
3527.62,0.02696
3521.84,0.02716
3516.05,0.02732
3510.27,0.02641
3504.48,0.02659
3498.69,0.02617
3492.91,0.02656
3487.12,0.02641
3481.34,0.02656
3475.55,0.02624
3469.76,0.02660
3463.98,0.02637
3458.19,0.02599
3452.4,0.02554
3446.62,0.02599
3440.83,0.02624
3435.05,0.02657
3429.26,0.02617
3423.47,0.02614
3417.69,0.02557
3411.9,0.02667
3406.12,0.02539
3400.33,0.02634
3394.54,0.02632
3388.76,0.02553
3382.97,0.02616
3377.18,0.02560
3371.4,0.02533
3365.61,0.02612
3359.83,0.02593
3354.04,0.02622
3348.25,0.02585
3342.47,0.02605
3336.68,0.02568
3330.9,0.02618
3325.11,0.02612
3319.32,0.02606
3313.54,0.02534
3307.75,0.02595
3301.96,0.02637
3296.18,0.02494
3290.39,0.02535
3284.61,0.02578
3278.82,0.02572
3273.03,0.02558
3267.25,0.02656
3261.46,0.02603
3255.68,0.02674
3249.89,0.02628
3244.1,0.02686
3238.32,0.02674
3232.53,0.02737
3226.74,0.02748
3220.96,0.02646
3215.17,0.02655
3209.39,0.02686
3203.6,0.02601
3197.81,0.02569
3192.03,0.02627
3186.24,0.02668
3180.46,0.02564
3174.67,0.02630
3168.88,0.02652
3163.1,0.02674
3157.31,0.02696
3151.52,0.02614
3145.74,0.02596
3139.95,0.02695
3134.17,0.02834
3128.38,0.02642
3122.59,0.02684
3116.81,0.02670
3111.02,0.02635
3105.24,0.02687
3099.45,0.02695
3093.66,0.02656
3087.88,0.02693
3082.09,0.02683
3076.3,0.02669
3070.52,0.02619
3064.73,0.02661
3058.95,0.02662
3053.16,0.02689
3047.37,0.02660
3041.59,0.02633
3035.8,0.02653
3030.02,0.02670
3024.23,0.02657
3018.44,0.02656
3012.66,0.02704
3006.87,0.02614
3001.08,0.02650
2995.3,0.02602
2989.51,0.02575
2983.73,0.02590
2977.94,0.02507
2972.15,0.02555
2966.37,0.02503
2960.58,0.02505
2954.8,0.02526
2949.01,0.02510
2943.22,0.02532
2937.44,0.02537
2931.65,0.02509
2925.86,0.02612
2920.08,0.02562
2914.29,0.02613
2908.51,0.02606
2902.72,0.02612
2896.93,0.02604
2891.15,0.02605
2885.36,0.02564
2879.58,0.02610
2873.79,0.02563
2868,0.02596
2862.22,0.02661
2856.43,0.02610
2850.64,0.02695
2844.86,0.02670
2839.07,0.02671
2833.29,0.02722
2827.5,0.02694
2821.71,0.02689
2815.93,0.02703
2810.14,0.02684
2804.36,0.02704
2798.57,0.02688
2792.78,0.02633
2787,0.02716
2781.21,0.02684
2775.42,0.02723
2769.64,0.02716
2763.85,0.02716
2758.07,0.02659
2752.28,0.02661
2746.49,0.02674
2740.71,0.02707
2734.92,0.02750
2729.14,0.02743
2723.35,0.02646
2717.56,0.02701
2711.78,0.02707
2705.99,0.02717
2700.2,0.02751
2694.42,0.02709
2688.63,0.02660
2682.85,0.02715
2677.06,0.02672
2671.27,0.02696
2665.49,0.02674
2659.7,0.02647
2653.92,0.02678
2648.13,0.02709
2642.34,0.02704
2636.56,0.02682
2630.77,0.02694
2624.98,0.02744
2619.2,0.02680
2613.41,0.02682
2607.63,0.02686
2601.84,0.02691
2596.05,0.02685
2590.27,0.02627
2584.48,0.02660
2578.7,0.02687
2572.91,0.02689
2567.12,0.02718
2561.34,0.02685
2555.55,0.02661
2549.76,0.02699
2543.98,0.02652
2538.19,0.02698
2532.41,0.02690
2526.62,0.02625
2520.83,0.02659
2515.05,0.02670
2509.26,0.02666
2503.48,0.02680
2497.69,0.02691
2491.9,0.02652
2486.12,0.02662
2480.33,0.02664
2474.55,0.02685
2468.76,0.02679
2462.97,0.02666
2457.19,0.02678
2451.4,0.02645
2445.61,0.02642
2439.83,0.02653
2434.04,0.02652
2428.26,0.02643
2422.47,0.02677
2416.68,0.02657
2410.9,0.02626
2405.11,0.02734
2399.32,0.02661
2393.54,0.02663
2387.75,0.02658
2381.97,0.02657
2376.18,0.02640
2370.39,0.02713
2364.61,0.02731
2358.82,0.02712
2353.04,0.02692
2347.25,0.02688
2341.46,0.02697
2335.68,0.02682
2329.89,0.02695
2324.11,0.02606
2318.32,0.02661
2312.53,0.02657
2306.75,0.02641
2300.96,0.02663
2295.17,0.02668
2289.39,0.02634
2283.6,0.02597
2277.82,0.02636
2272.03,0.02630
2266.24,0.02647
2260.46,0.02589
2254.67,0.02633
2248.89,0.02613
2243.1,0.02620
2237.31,0.02609
2231.53,0.02591
2225.74,0.02616
2219.95,0.02608
2214.17,0.02605
2208.38,0.02615
2202.6,0.02629
2196.81,0.02622
2191.02,0.02613
2185.24,0.02609
2179.45,0.02620
2173.67,0.02609
2167.88,0.02583
2162.09,0.02570
2156.31,0.02601
2150.52,0.02606
2144.73,0.02585
2138.95,0.02567
2133.16,0.02569
2127.38,0.02559
2121.59,0.02577
2115.8,0.02561
2110.02,0.02591
2104.23,0.02601
2098.45,0.02622
2092.66,0.02577
2086.87,0.02539
2081.09,0.02574
2075.3,0.02555
2069.51,0.02562
2063.73,0.02591
2057.94,0.02562
2052.16,0.02580
2046.37,0.02555
2040.58,0.02560
2034.8,0.02580
2029.01,0.02567
2023.23,0.02550
2017.44,0.02575
2011.65,0.02548
2005.87,0.02548
2000.08,0.02546
1994.29,0.02539
1988.51,0.02544
1982.72,0.02561
1976.94,0.02561
1971.15,0.02547
1965.36,0.02553
1959.58,0.02560
1953.79,0.02519
1948.01,0.02520
1942.22,0.02560
1936.43,0.02530
1930.65,0.02538
1924.86,0.02585
1919.07,0.02535
1913.29,0.02530
1907.5,0.02543
1901.72,0.02528
1895.93,0.02507
1890.14,0.02464
1884.36,0.02507
1878.57,0.02478
1872.79,0.02487
1867,0.02505
1861.21,0.02475
1855.43,0.02467
1849.64,0.02457
1843.85,0.02489
1838.07,0.02481
1832.28,0.02465
1826.5,0.02429
1820.71,0.02422
1814.92,0.02418
1809.14,0.02379
1803.35,0.02374
1797.57,0.02374
1791.78,0.02421
1785.99,0.02330
1780.21,0.02303
1774.42,0.02341
1768.63,0.02243
1762.85,0.02227
1757.06,0.02136
1751.28,0.02164
1745.49,0.02170
1739.7,0.02225
1733.92,0.02341
1728.13,0.02388
1722.35,0.02462
1716.56,0.02384
1710.77,0.02364
1704.99,0.02437
1699.2,0.02313
1693.41,0.02254
1687.63,0.02263
1681.84,0.02197
1676.06,0.02136
1670.27,0.02152
1664.48,0.02143
1658.7,0.02185
1652.91,0.02181
1647.13,0.02201
1641.34,0.02156
1635.55,0.02207
1629.77,0.02156
1623.98,0.02214
1618.19,0.02233
1612.41,0.02192
1606.62,0.02203
1600.84,0.02189
1595.05,0.02168
1589.26,0.02188
1583.48,0.02145
1577.69,0.02143
1571.91,0.02158
1566.12,0.02150
1560.33,0.02168
1554.55,0.02073
1548.76,0.02149
1542.97,0.02236
1537.19,0.02122
1531.4,0.02182
1525.62,0.02166
1519.83,0.02158
1514.04,0.02180
1508.26,0.02191
1502.47,0.02174
1496.69,0.02176
1490.9,0.02183
1485.11,0.02173
1479.33,0.02179
1473.54,0.02103
1467.75,0.02106
1461.97,0.02099
1456.18,0.02082
1450.4,0.02173
1444.61,0.02128
1438.82,0.02147
1433.04,0.02135
1427.25,0.02098
1421.47,0.02070
1415.68,0.02101
1409.89,0.02073
1404.11,0.02070
1398.32,0.02048
1392.53,0.02042
1386.75,0.02060
1380.96,0.02067
1375.18,0.02020
1369.39,0.02051
1363.6,0.02052
1357.82,0.02077
1352.03,0.02050
1346.25,0.02045
1340.46,0.02046
1334.67,0.01991
1328.89,0.01969
1323.1,0.01979
1317.31,0.01914
1311.53,0.01912
1305.74,0.01977
1299.96,0.02018
1294.17,0.02021
1288.38,0.02060
1282.6,0.02114
1276.81,0.02143
1271.03,0.02110
1265.24,0.02104
1259.45,0.02180
1253.67,0.02216
1247.88,0.02216
1242.09,0.02234
1236.31,0.02198
1230.52,0.02187
1224.74,0.02157
1218.95,0.02142
1213.16,0.02141
1207.38,0.02114
1201.59,0.02088
1195.81,0.02088
1190.02,0.02103
1184.23,0.02047
1178.45,0.02022
1172.66,0.02042
1166.87,0.02001
1161.09,0.01931
1155.3,0.02022
1149.52,0.01933
1143.73,0.01909
1137.94,0.02112
1132.16,0.02040
1126.37,0.02114
1120.59,0.02142
1114.8,0.02182
1109.01,0.02129
1103.23,0.02098
1097.44,0.02095
1091.65,0.02150
1085.87,0.02134
1080.08,0.02186
1074.3,0.02311
1068.51,0.02430
1062.72,0.02464
1056.94,0.02398
1051.15,0.02346
1045.37,0.02278
1039.58,0.02317
1033.79,0.02287
1028.01,0.02279
1022.22,0.02238
1016.43,0.02297
1010.65,0.02311
1004.86,0.02365
999.076,0.02392
993.29,0.02376
987.504,0.02410
981.717,0.02356
975.931,0.02308
970.145,0.02257
964.359,0.02311
958.573,0.02299
952.787,0.02284
947,0.02315
941.214,0.02293
935.428,0.02167
929.642,0.02174
923.856,0.02238
918.07,0.02206
912.284,0.02232
906.497,0.02223
900.711,0.02178
894.925,0.02202
889.139,0.02152
883.353,0.02185
877.567,0.02184
871.78,0.02158
865.994,0.02135
860.208,0.02141
854.422,0.02173
848.636,0.02203
842.85,0.02199
837.064,0.02118
831.277,0.02065
825.491,0.02156
819.705,0.02171
813.919,0.02126
808.133,0.02072
802.347,0.02043
796.56,0.02102
790.774,0.02053
784.988,0.02166
779.202,0.02072
773.416,0.02008
767.63,0.02049
761.844,0.02021
756.057,0.01981
750.271,0.01986
744.485,0.02030
738.699,0.01915
732.913,0.01961
727.127,0.01941
721.34,0.01919
715.554,0.01908
709.768,0.01889
703.982,0.01817
698.196,0.01917
692.41,0.01894
686.624,0.01876
680.837,0.01827
675.051,0.01988
669.265,0.01815
663.479,0.01866
657.693,0.01849
651.907,0.01841
646.12,0.01795
640.334,0.01935
634.548,0.01822
628.762,0.02015
622.976,0.01704
617.19,0.01808
611.404,0.01731
605.617,0.01796
599.831,0.01786