File: 01_Data/PEVA/FTIR/IS/PEVA_0.26_IS_T_240809_R9.dpt
7497.2,0.03240
7491.41,0.04675
7485.63,0.03171
7479.84,0.02943
7474.05,0.03552
7468.27,0.04588
7462.48,0.03431
7456.7,0.04336
7450.91,0.03288
7445.12,0.02954
7439.34,0.03881
7433.55,0.03117
7427.76,0.02292
7421.98,0.02445
7416.19,0.03587
7410.4,0.04080
7404.62,0.03689
7398.83,0.03423
7393.05,0.03832
7387.26,0.04453
7381.47,0.03936
7375.69,0.03347
7369.9,0.02409
7364.11,0.04107
7358.33,0.02522
7352.54,0.02923
7346.75,0.03026
7340.97,0.03681
7335.18,0.02927
7329.4,0.03429
7323.61,0.02917
7317.82,0.03207
7312.04,0.02756
7306.25,0.03741
7300.46,0.03331
7294.68,0.03239
7288.89,0.03310
7283.1,0.02516
7277.32,0.04130
7271.53,0.03154
7265.75,0.04655
7259.96,0.04020
7254.17,0.03671
7248.39,0.03976
7242.6,0.03074
7236.81,0.03455
7231.03,0.03615
7225.24,0.02322
7219.45,0.02857
7213.67,0.03029
7207.88,0.02581
7202.1,0.03620
7196.31,0.02863
7190.52,0.02883
7184.74,0.03589
7178.95,0.03379
7173.16,0.03387
7167.38,0.03237
7161.59,0.04002
7155.8,0.03995
7150.02,0.02694
7144.23,0.02899
7138.45,0.02446
7132.66,0.02909
7126.87,0.03644
7121.09,0.03884
7115.3,0.03577
7109.51,0.03362
7103.73,0.03187
7097.94,0.02923
7092.15,0.02998
7086.37,0.03094
7080.58,0.03691
7074.8,0.02756
7069.01,0.02462
7063.22,0.03688
7057.44,0.03271
7051.65,0.03258
7045.86,0.02800
7040.08,0.02889
7034.29,0.03315
7028.5,0.03328
7022.72,0.03384
7016.93,0.02534
7011.15,0.04264
7005.36,0.03271
6999.57,0.03563
6993.79,0.03708
6988,0.03257
6982.21,0.02707
6976.43,0.02636
6970.64,0.03595
6964.85,0.03234
6959.07,0.03546
6953.28,0.03571
6947.5,0.03273
6941.71,0.03174
6935.92,0.03871
6930.14,0.03057
6924.35,0.02878
6918.56,0.03105
6912.78,0.02698
6906.99,0.03112
6901.2,0.03560
6895.42,0.03931
6889.63,0.03495
6883.85,0.03016
6878.06,0.03624
6872.27,0.03528
6866.49,0.02995
6860.7,0.03309
6854.91,0.03311
6849.13,0.03109
6843.34,0.03691
6837.55,0.03574
6831.77,0.03603
6825.98,0.03810
6820.2,0.03431
6814.41,0.03624
6808.62,0.03303
6802.84,0.03523
6797.05,0.03256
6791.26,0.03055
6785.48,0.03274
6779.69,0.02932
6773.9,0.02669
6768.12,0.03240
6762.33,0.03023
6756.55,0.02933
6750.76,0.03098
6744.97,0.03173
6739.19,0.03673
6733.4,0.03183
6727.61,0.02979
6721.83,0.03533
6716.04,0.03472
6710.25,0.03544
6704.47,0.02936
6698.68,0.02931
6692.9,0.02908
6687.11,0.03864
6681.32,0.03243
6675.54,0.02892
6669.75,0.02683
6663.96,0.03611
6658.18,0.03773
6652.39,0.03943
6646.6,0.02945
6640.82,0.03354
6635.03,0.02980
6629.25,0.03373
6623.46,0.03393
6617.67,0.03157
6611.89,0.03157
6606.1,0.02724
6600.31,0.02712
6594.53,0.02999
6588.74,0.03112
6582.95,0.03358
6577.17,0.03082
6571.38,0.03301
6565.6,0.02668
6559.81,0.03243
6554.02,0.03139
6548.24,0.02956
6542.45,0.03316
6536.66,0.03095
6530.88,0.03140
6525.09,0.02952
6519.3,0.03077
6513.52,0.03193
6507.73,0.03039
6501.95,0.03008
6496.16,0.03040
6490.37,0.03379
6484.59,0.03507
6478.8,0.03452
6473.01,0.02973
6467.23,0.03071
6461.44,0.02577
6455.65,0.02450
6449.87,0.02867
6444.08,0.03203
6438.3,0.03657
6432.51,0.03486
6426.72,0.03308
6420.94,0.03227
6415.15,0.03348
6409.36,0.03740
6403.58,0.03938
6397.79,0.02789
6392,0.02486
6386.22,0.03057
6380.43,0.03243
6374.65,0.03002
6368.86,0.03121
6363.07,0.03161
6357.29,0.03322
6351.5,0.03230
6345.71,0.03044
6339.93,0.03131
6334.14,0.03487
6328.35,0.03135
6322.57,0.03119
6316.78,0.02873
6310.99,0.02536
6305.21,0.03256
6299.42,0.03526
6293.64,0.03121
6287.85,0.03321
6282.06,0.02672
6276.28,0.02882
6270.49,0.03134
6264.7,0.02776
6258.92,0.03316
6253.13,0.03062
6247.34,0.03390
6241.56,0.03187
6235.77,0.03249
6229.99,0.02703
6224.2,0.03185
6218.41,0.03453
6212.63,0.03299
6206.84,0.03251
6201.05,0.03306
6195.27,0.02852
6189.48,0.03113
6183.69,0.03162
6177.91,0.02888
6172.12,0.03146
6166.34,0.03064
6160.55,0.03245
6154.76,0.02921
6148.98,0.03190
6143.19,0.03102
6137.4,0.03097
6131.62,0.03189
6125.83,0.03263
6120.04,0.03122
6114.26,0.02845
6108.47,0.02846
6102.69,0.02781
6096.9,0.03024
6091.11,0.02981
6085.33,0.03043
6079.54,0.03250
6073.75,0.03026
6067.97,0.03030
6062.18,0.03051
6056.39,0.03323
6050.61,0.03303
6044.82,0.03223
6039.04,0.03198
6033.25,0.02610
6027.46,0.03104
6021.68,0.03090
6015.89,0.03002
6010.1,0.03093
6004.32,0.02979
5998.53,0.02995
5992.74,0.02844
5986.96,0.02903
5981.17,0.03082
5975.39,0.03134
5969.6,0.02924
5963.81,0.02932
5958.03,0.03012
5952.24,0.03041
5946.45,0.03128
5940.67,0.02910
5934.88,0.03123
5929.09,0.03303
5923.31,0.03145
5917.52,0.02960
5911.74,0.03105
5905.95,0.03089
5900.16,0.03217
5894.38,0.03250
5888.59,0.02829
5882.8,0.02835
5877.02,0.03002
5871.23,0.02912
5865.44,0.03081
5859.66,0.03024
5853.87,0.02948
5848.09,0.02946
5842.3,0.02984
5836.51,0.02920
5830.73,0.03123
5824.94,0.02959
5819.15,0.02929
5813.37,0.02941
5807.58,0.03247
5801.79,0.02970
5796.01,0.02993
5790.22,0.03037
5784.44,0.03028
5778.65,0.02985
5772.86,0.03296
5767.08,0.02985
5761.29,0.02856
5755.5,0.03151
5749.72,0.03029
5743.93,0.02947
5738.14,0.03036
5732.36,0.03166
5726.57,0.03065
5720.79,0.02912
5715,0.03024
5709.21,0.03199
5703.43,0.02999
5697.64,0.02918
5691.85,0.02922
5686.07,0.02922
5680.28,0.03053
5674.49,0.02938
5668.71,0.03140
5662.92,0.02816
5657.14,0.02999
5651.35,0.03212
5645.56,0.03022
5639.78,0.03158
5633.99,0.03125
5628.2,0.03178
5622.42,0.03117
5616.63,0.02929
5610.84,0.02916
5605.06,0.03000
5599.27,0.03259
5593.49,0.03227
5587.7,0.03109
5581.91,0.03033
5576.13,0.03063
5570.34,0.03084
5564.55,0.03035
5558.77,0.03107
5552.98,0.03066
5547.19,0.03010
5541.41,0.03109
5535.62,0.03038
5529.84,0.02935
5524.05,0.03029
5518.26,0.02972
5512.48,0.02843
5506.69,0.03148
5500.9,0.03001
5495.12,0.03047
5489.33,0.03012
5483.54,0.03154
5477.76,0.02949
5471.97,0.03036
5466.19,0.02696
5460.4,0.02992
5454.61,0.03049
5448.83,0.03206
5443.04,0.02990
5437.25,0.02840
5431.47,0.02972
5425.68,0.02957
5419.89,0.02938
5414.11,0.02914
5408.32,0.02868
5402.54,0.02854
5396.75,0.02811
5390.96,0.02905
5385.18,0.03297
5379.39,0.02983
5373.6,0.02880
5367.82,0.03003
5362.03,0.03063
5356.24,0.03093
5350.46,0.03019
5344.67,0.03245
5338.89,0.02971
5333.1,0.02981
5327.31,0.03221
5321.53,0.03156
5315.74,0.03029
5309.95,0.02879
5304.17,0.02983
5298.38,0.03070
5292.59,0.02806
5286.81,0.03078
5281.02,0.03088
5275.24,0.03105
5269.45,0.02957
5263.66,0.03099
5257.88,0.03132
5252.09,0.03060
5246.3,0.02943
5240.52,0.03146
5234.73,0.03232
5228.94,0.03216
5223.16,0.03137
5217.37,0.03033
5211.59,0.03131
5205.8,0.03113
5200.01,0.03065
5194.23,0.03023
5188.44,0.03043
5182.65,0.03210
5176.87,0.03055
5171.08,0.02813
5165.29,0.03018
5159.51,0.03051
5153.72,0.03008
5147.94,0.03073
5142.15,0.02967
5136.36,0.03075
5130.58,0.03162
5124.79,0.03085
5119,0.02997
5113.22,0.03043
5107.43,0.03034
5101.64,0.03124
5095.86,0.02960
5090.07,0.02976
5084.29,0.03066
5078.5,0.02985
5072.71,0.03041
5066.93,0.02974
5061.14,0.03126
5055.35,0.03225
5049.57,0.03063
5043.78,0.03198
5037.99,0.03152
5032.21,0.03130
5026.42,0.03022
5020.64,0.02969
5014.85,0.02996
5009.06,0.03041
5003.28,0.02959
4997.49,0.03066
4991.7,0.03112
4985.92,0.03030
4980.13,0.03021
4974.34,0.02979
4968.56,0.03032
4962.77,0.02982
4956.99,0.03058
4951.2,0.02933
4945.41,0.03049
4939.63,0.03060
4933.84,0.03110
4928.05,0.03103
4922.27,0.03092
4916.48,0.03053
4910.69,0.03090
4904.91,0.02979
4899.12,0.02893
4893.34,0.02937
4887.55,0.03057
4881.76,0.03052
4875.98,0.02966
4870.19,0.03046
4864.4,0.03013
4858.62,0.02940
4852.83,0.02959
4847.04,0.03108
4841.26,0.03093
4835.47,0.03010
4829.69,0.03051
4823.9,0.03172
4818.11,0.03034
4812.33,0.03042
4806.54,0.03096
4800.75,0.03149
4794.97,0.03057
4789.18,0.03037
4783.39,0.03016
4777.61,0.03054
4771.82,0.02997
4766.04,0.02996
4760.25,0.02895
4754.46,0.03079
4748.68,0.02894
4742.89,0.03029
4737.1,0.03046
4731.32,0.03159
4725.53,0.03019
4719.74,0.02990
4713.96,0.03035
4708.17,0.03056
4702.39,0.03073
4696.6,0.03020
4690.81,0.03072
4685.03,0.03048
4679.24,0.02967
4673.45,0.03076
4667.67,0.03041
4661.88,0.03036
4656.09,0.03108
4650.31,0.03056
4644.52,0.03010
4638.74,0.03003
4632.95,0.02923
4627.16,0.02947
4621.38,0.02975
4615.59,0.02921
4609.8,0.02889
4604.02,0.03026
4598.23,0.03101
4592.44,0.02990
4586.66,0.03024
4580.87,0.03078
4575.09,0.03130
4569.3,0.03176
4563.51,0.03044
4557.73,0.03018
4551.94,0.03130
4546.15,0.03015
4540.37,0.02934
4534.58,0.02949
4528.79,0.02932
4523.01,0.03081
4517.22,0.03048
4511.44,0.03109
4505.65,0.03024
4499.86,0.02959
4494.08,0.03055
4488.29,0.02951
4482.5,0.03024
4476.72,0.03077
4470.93,0.03114
4465.14,0.02963
4459.36,0.03090
4453.57,0.03026
4447.79,0.02941
4442,0.03043
4436.21,0.03043
4430.43,0.02976
4424.64,0.02843
4418.85,0.02939
4413.07,0.03030
4407.28,0.02959
4401.49,0.03077
4395.71,0.03022
4389.92,0.03010
4384.14,0.03023
4378.35,0.03009
4372.56,0.02997
4366.78,0.02944
4360.99,0.03040
4355.2,0.02935
4349.42,0.02997
4343.63,0.03029
4337.84,0.02918
4332.06,0.03062
4326.27,0.02997
4320.49,0.02911
4314.7,0.02927
4308.91,0.03009
4303.13,0.03025
4297.34,0.03022
4291.55,0.03079
4285.77,0.02940
4279.98,0.02988
4274.19,0.03030
4268.41,0.02947
4262.62,0.03006
4256.84,0.03039
4251.05,0.03007
4245.26,0.03047
4239.48,0.03008
4233.69,0.02981
4227.9,0.03016
4222.12,0.03034
4216.33,0.03027
4210.54,0.03031
4204.76,0.03005
4198.97,0.02996
4193.19,0.02962
4187.4,0.03015
4181.61,0.02987
4175.83,0.03009
4170.04,0.02999
4164.25,0.02936
4158.47,0.03025
4152.68,0.02994
4146.89,0.02952
4141.11,0.03055
4135.32,0.02993
4129.54,0.03026
4123.75,0.03049
4117.96,0.02979
4112.18,0.03010
4106.39,0.02948
4100.6,0.03048
4094.82,0.03019
4089.03,0.03025
4083.24,0.03047
4077.46,0.02964
4071.67,0.02983
4065.89,0.02993
4060.1,0.02942
4054.31,0.02957
4048.53,0.02989
4042.74,0.02947
4036.95,0.02970
4031.17,0.03080
4025.38,0.02928
4019.59,0.02990
4013.81,0.03001
4008.02,0.02998
4002.24,0.03014
3996.45,0.02991
3990.66,0.02987
3984.88,0.03017
3979.09,0.02952
3973.3,0.02982
3967.52,0.02985
3961.73,0.03051
3955.94,0.02989
3950.16,0.03083
3944.37,0.02969
3938.59,0.03022
3932.8,0.02971
3927.01,0.02978
3921.23,0.03008
3915.44,0.02994
3909.65,0.03026
3903.87,0.03015
3898.08,0.02925
3892.29,0.03030
3886.51,0.03042
3880.72,0.02960
3874.94,0.02938
3869.15,0.03009
3863.36,0.03043
3857.58,0.03086
3851.79,0.02937
3846,0.03085
3840.22,0.03058
3834.43,0.02971
3828.64,0.02960
3822.86,0.03060
3817.07,0.03043
3811.29,0.03026
3805.5,0.02930
3799.71,0.03064
3793.93,0.02998
3788.14,0.02934
3782.35,0.02926
3776.57,0.03014
3770.78,0.02965
3764.99,0.02970
3759.21,0.02972
3753.42,0.03035
3747.64,0.03005
3741.85,0.02882
3736.06,0.03056
3730.28,0.02901
3724.49,0.03005
3718.7,0.02965
3712.92,0.02968
3707.13,0.02903
3701.34,0.02933
3695.56,0.02925
3689.77,0.02851
3683.99,0.02928
3678.2,0.02833
3672.41,0.02888
3666.63,0.02908
3660.84,0.02841
3655.05,0.02899
3649.27,0.02766
3643.48,0.02870
3637.69,0.02771
3631.91,0.02844
3626.12,0.02873
3620.34,0.02899
3614.55,0.02777
3608.76,0.02747
3602.98,0.02730
3597.19,0.02740
3591.4,0.02740
3585.62,0.02743
3579.83,0.02695
3574.04,0.02701
3568.26,0.02798
3562.47,0.02662
3556.69,0.02656
3550.9,0.02631
3545.11,0.02673
3539.33,0.02678
3533.54,0.02691
3527.75,0.02624
3521.97,0.02660
3516.18,0.02611
3510.39,0.02698
3504.61,0.02646
3498.82,0.02678
3493.04,0.02661
3487.25,0.02665
3481.46,0.02671
3475.68,0.02608
3469.89,0.02708
3464.1,0.02635
3458.32,0.02660
3452.53,0.02657
3446.74,0.02634
3440.96,0.02692
3435.17,0.02658
3429.39,0.02639
3423.6,0.02714
3417.81,0.02699
3412.03,0.02615
3406.24,0.02595
3400.45,0.02609
3394.67,0.02556
3388.88,0.02601
3383.09,0.02615
3377.31,0.02555
3371.52,0.02603
3365.74,0.02625
3359.95,0.02572
3354.16,0.02599
3348.38,0.02573
3342.59,0.02578
3336.8,0.02625
3331.02,0.02654
3325.23,0.02692
3319.44,0.02580
3313.66,0.02681
3307.87,0.02619
3302.09,0.02602
3296.3,0.02662
3290.51,0.02589
3284.73,0.02631
3278.94,0.02585
3273.15,0.02636
3267.37,0.02618
3261.58,0.02691
3255.79,0.02642
3250.01,0.02617
3244.22,0.02779
3238.44,0.02581
3232.65,0.02571
3226.86,0.02692
3221.08,0.02718
3215.29,0.02668
3209.5,0.02719
3203.72,0.02651
3197.93,0.02640
3192.14,0.02635
3186.36,0.02731
3180.57,0.02704
3174.79,0.02629
3169,0.02650
3163.21,0.02668
3157.43,0.02658
3151.64,0.02700
3145.85,0.02616
3140.07,0.02708
3134.28,0.02721
3128.49,0.02689
3122.71,0.02621
3116.92,0.02744
3111.14,0.02725
3105.35,0.02650
3099.56,0.02689
3093.78,0.02666
3087.99,0.02658
3082.2,0.02669
3076.42,0.02623
3070.63,0.02649
3064.84,0.02649
3059.06,0.02654
3053.27,0.02672
3047.49,0.02631
3041.7,0.02664
3035.91,0.02717
3030.13,0.02738
3024.34,0.02672
3018.55,0.02645
3012.77,0.02640
3006.98,0.02615
3001.19,0.02594
2995.41,0.02640
2989.62,0.02580
2983.84,0.02560
2978.05,0.02605
2972.26,0.02555
2966.48,0.02537
2960.69,0.02581
2954.9,0.02520
2949.12,0.02535
2943.33,0.02532
2937.54,0.02575
2931.76,0.02586
2925.97,0.02588
2920.19,0.02613
2914.4,0.02577
2908.61,0.02609
2902.83,0.02571
2897.04,0.02594
2891.25,0.02586
2885.47,0.02586
2879.68,0.02691
2873.89,0.02684
2868.11,0.02595
2862.32,0.02617
2856.54,0.02635
2850.75,0.02649
2844.96,0.02677
2839.18,0.02718
2833.39,0.02728
2827.6,0.02733
2821.82,0.02734
2816.03,0.02736
2810.24,0.02708
2804.46,0.02697
2798.67,0.02714
2792.89,0.02719
2787.1,0.02733
2781.31,0.02712
2775.53,0.02736
2769.74,0.02708
2763.95,0.02735
2758.17,0.02698
2752.38,0.02764
2746.59,0.02713
2740.81,0.02703
2735.02,0.02722
2729.24,0.02726
2723.45,0.02687
2717.66,0.02701
2711.88,0.02653
2706.09,0.02696
2700.3,0.02681
2694.52,0.02723
2688.73,0.02690
2682.94,0.02751
2677.16,0.02739
2671.37,0.02700
2665.59,0.02725
2659.8,0.02718
2654.01,0.02703
2648.23,0.02685
2642.44,0.02715
2636.65,0.02692
2630.87,0.02679
2625.08,0.02729
2619.29,0.02700
2613.51,0.02738
2607.72,0.02669
2601.94,0.02670
2596.15,0.02706
2590.36,0.02718
2584.58,0.02696
2578.79,0.02738
2573,0.02712
2567.22,0.02711
2561.43,0.02704
2555.64,0.02689
2549.86,0.02728
2544.07,0.02699
2538.29,0.02735
2532.5,0.02683
2526.71,0.02648
2520.93,0.02667
2515.14,0.02670
2509.35,0.02686
2503.57,0.02712
2497.78,0.02718
2491.99,0.02703
2486.21,0.02696
2480.42,0.02687
2474.64,0.02700
2468.85,0.02690
2463.06,0.02692
2457.28,0.02704
2451.49,0.02680
2445.7,0.02685
2439.92,0.02663
2434.13,0.02663
2428.34,0.02656
2422.56,0.02632
2416.77,0.02687
2410.99,0.02648
2405.2,0.02664
2399.41,0.02627
2393.63,0.02665
2387.84,0.02644
2382.05,0.02676
2376.27,0.02665
2370.48,0.02721
2364.69,0.02708
2358.91,0.02743
2353.12,0.02690
2347.34,0.02737
2341.55,0.02689
2335.76,0.02733
2329.98,0.02685
2324.19,0.02712
2318.4,0.02676
2312.62,0.02645
2306.83,0.02665
2301.04,0.02660
2295.26,0.02606
2289.47,0.02635
2283.69,0.02633
2277.9,0.02646
2272.11,0.02631
2266.33,0.02625
2260.54,0.02627
2254.75,0.02628
2248.97,0.02630
2243.18,0.02629
2237.39,0.02624
2231.61,0.02591
2225.82,0.02581
2220.04,0.02631
2214.25,0.02620
2208.46,0.02627
2202.68,0.02631
2196.89,0.02610
2191.1,0.02593
2185.32,0.02631
2179.53,0.02611
2173.74,0.02604
2167.96,0.02604
2162.17,0.02594
2156.39,0.02638
2150.6,0.02593
2144.81,0.02565
2139.03,0.02620
2133.24,0.02595
2127.45,0.02586
2121.67,0.02606
2115.88,0.02526
2110.09,0.02593
2104.31,0.02574
2098.52,0.02577
2092.74,0.02560
2086.95,0.02584
2081.16,0.02616
2075.38,0.02551
2069.59,0.02573
2063.8,0.02612
2058.02,0.02543
2052.23,0.02563
2046.44,0.02568
2040.66,0.02546
2034.87,0.02532
2029.09,0.02529
2023.3,0.02589
2017.51,0.02563
2011.73,0.02547
2005.94,0.02550
2000.15,0.02558
1994.37,0.02564
1988.58,0.02570
1982.79,0.02577
1977.01,0.02553
1971.22,0.02566
1965.44,0.02552
1959.65,0.02553
1953.86,0.02560
1948.08,0.02539
1942.29,0.02535
1936.5,0.02544
1930.72,0.02524
1924.93,0.02528
1919.14,0.02517
1913.36,0.02553
1907.57,0.02490
1901.79,0.02490
1896,0.02520
1890.21,0.02516
1884.43,0.02526
1878.64,0.02495
1872.85,0.02492
1867.07,0.02482
1861.28,0.02495
1855.49,0.02477
1849.71,0.02480
1843.92,0.02459
1838.14,0.02495
1832.35,0.02478
1826.56,0.02438
1820.78,0.02434
1814.99,0.02413
1809.2,0.02414
1803.42,0.02401
1797.63,0.02395
1791.84,0.02347
1786.06,0.02350
1780.27,0.02319
1774.49,0.02324
1768.7,0.02269
1762.91,0.02243
1757.13,0.02199
1751.34,0.02181
1745.55,0.02130
1739.77,0.02223
1733.98,0.02377
1728.19,0.02390
1722.41,0.02457
1716.62,0.02455
1710.84,0.02409
1705.05,0.02398
1699.26,0.02300
1693.48,0.02274
1687.69,0.02250
1681.9,0.02196
1676.12,0.02207
1670.33,0.02163
1664.54,0.02173
1658.76,0.02185
1652.97,0.02136
1647.19,0.02260
1641.4,0.02208
1635.61,0.02150
1629.83,0.02180
1624.04,0.02220
1618.25,0.02203
1612.47,0.02231
1606.68,0.02183
1600.89,0.02228
1595.11,0.02222
1589.32,0.02159
1583.54,0.02186
1577.75,0.02163
1571.96,0.02184
1566.18,0.02184
1560.39,0.02200
1554.6,0.02171
1548.82,0.02144
1543.03,0.02233
1537.24,0.02162
1531.46,0.02176
1525.67,0.02193
1519.89,0.02165
1514.1,0.02221
1508.31,0.02216
1502.53,0.02171
1496.74,0.02221
1490.95,0.02266
1485.17,0.02162
1479.38,0.02158
1473.59,0.02189
1467.81,0.02094
1462.02,0.02133
1456.24,0.02192
1450.45,0.02163
1444.66,0.02176
1438.88,0.02167
1433.09,0.02174
1427.3,0.02178
1421.52,0.02100
1415.73,0.02129
1409.94,0.02118
1404.16,0.02101
1398.37,0.02122
1392.59,0.02087
1386.8,0.02090
1381.01,0.02090
1375.23,0.02090
1369.44,0.02074
1363.65,0.02092
1357.87,0.02083
1352.08,0.02043
1346.29,0.02046
1340.51,0.02045
1334.72,0.02042
1328.94,0.01982
1323.15,0.01946
1317.36,0.01930
1311.58,0.01959
1305.79,0.01976
1300,0.01975
1294.22,0.02043
1288.43,0.02066
1282.64,0.02121
1276.86,0.02147
1271.07,0.02164
1265.29,0.02177
1259.5,0.02226
1253.71,0.02238
1247.93,0.02301
1242.14,0.02221
1236.35,0.02211
1230.57,0.02234
1224.78,0.02170
1218.99,0.02158
1213.21,0.02204
1207.42,0.02118
1201.64,0.02113
1195.85,0.02123
1190.06,0.02069
1184.28,0.02055
1178.49,0.02051
1172.7,0.02014
1166.92,0.02034
1161.13,0.02023
1155.34,0.01992
1149.56,0.02026
1143.77,0.02015
1137.99,0.02086
1132.2,0.01996
1126.41,0.02123
1120.63,0.02237
1114.84,0.02224
1109.05,0.02195
1103.27,0.02138
1097.48,0.02216
1091.69,0.02169
1085.91,0.02173
1080.12,0.02204
1074.34,0.02338
1068.55,0.02369
1062.76,0.02401
1056.98,0.02415
1051.19,0.02327
1045.4,0.02325
1039.62,0.02313
1033.83,0.02260
1028.04,0.02313
1022.26,0.02317
1016.47,0.02288
1010.69,0.02333
1004.9,0.02444
999.112,0.02374
993.326,0.02407
987.54,0.02444
981.753,0.02367
975.967,0.02341
970.18,0.02442
964.394,0.02411
958.608,0.02312
952.821,0.02300
947.035,0.02308
941.249,0.02207
935.462,0.02242
929.676,0.02239
923.89,0.02241
918.103,0.02273
912.317,0.02136
906.53,0.02279
900.744,0.02313
894.958,0.02195
889.171,0.02255
883.385,0.02200
877.599,0.02258
871.812,0.02238
866.026,0.02241
860.24,0.02181
854.453,0.02240
848.667,0.02237
842.88,0.02241
837.094,0.02172
831.308,0.02176
825.521,0.02262
819.735,0.02211
813.949,0.02151
808.162,0.02148
802.376,0.02132
796.59,0.02145
790.803,0.02135
785.017,0.02097
779.23,0.02095
773.444,0.02053
767.658,0.02097
761.871,0.02060
756.085,0.01997
750.299,0.02021
744.512,0.02009
738.726,0.02026
732.94,0.01986
727.153,0.01971
721.367,0.01973
715.58,0.01921
709.794,0.01924
704.008,0.02003
698.221,0.01838
692.435,0.01965
686.649,0.01953
680.862,0.01829
675.076,0.01897
669.29,0.01897
663.503,0.01809
657.717,0.01871
651.93,0.01883
646.144,0.01884
640.358,0.01790
634.571,0.01764
628.785,0.01799
622.999,0.01954
617.212,0.02076
611.426,0.02071
605.639,0.01716
599.853,0.01756