File: 01_Data/PEVA/FTIR/IS/PEVA_0.10_IS_Trans_S_240819_R4.dpt
7496.91,0.92829
7491.12,0.92875
7485.33,0.94872
7479.55,0.93415
7473.76,0.94336
7467.98,0.94055
7462.19,0.92871
7456.4,0.93614
7450.62,0.93332
7444.83,0.92604
7439.04,0.93347
7433.26,0.93572
7427.47,0.92709
7421.69,0.92494
7415.9,0.93595
7410.11,0.92881
7404.33,0.91706
7398.54,0.91983
7392.76,0.92708
7386.97,0.94381
7381.18,0.92871
7375.4,0.92606
7369.61,0.92422
7363.83,0.92203
7358.04,0.93170
7352.25,0.93821
7346.47,0.91665
7340.68,0.91279
7334.89,0.93192
7329.11,0.92398
7323.32,0.92119
7317.54,0.93851
7311.75,0.91515
7305.96,0.92913
7300.18,0.93244
7294.39,0.91802
7288.61,0.92552
7282.82,0.91782
7277.03,0.92774
7271.25,0.93371
7265.46,0.92783
7259.67,0.91134
7253.89,0.90051
7248.1,0.92757
7242.32,0.91801
7236.53,0.91807
7230.74,0.91481
7224.96,0.91248
7219.17,0.90173
7213.39,0.92315
7207.6,0.91431
7201.81,0.91014
7196.03,0.90967
7190.24,0.92146
7184.45,0.91245
7178.67,0.91000
7172.88,0.90922
7167.1,0.90369
7161.31,0.90627
7155.52,0.91396
7149.74,0.92656
7143.95,0.92213
7138.17,0.91981
7132.38,0.93068
7126.59,0.91764
7120.81,0.91689
7115.02,0.91544
7109.23,0.92118
7103.45,0.91513
7097.66,0.92022
7091.88,0.92504
7086.09,0.91296
7080.3,0.91014
7074.52,0.91805
7068.73,0.91897
7062.95,0.93037
7057.16,0.91882
7051.37,0.91558
7045.59,0.91684
7039.8,0.90759
7034.02,0.92508
7028.23,0.93725
7022.44,0.91867
7016.66,0.91923
7010.87,0.91438
7005.08,0.92642
6999.3,0.93335
6993.51,0.92607
6987.73,0.92128
6981.94,0.91841
6976.15,0.90708
6970.37,0.91559
6964.58,0.91189
6958.8,0.91778
6953.01,0.91823
6947.22,0.92182
6941.44,0.92434
6935.65,0.91728
6929.86,0.92686
6924.08,0.91739
6918.29,0.92069
6912.51,0.92051
6906.72,0.93018
6900.93,0.92436
6895.15,0.92084
6889.36,0.92468
6883.58,0.92637
6877.79,0.92452
6872,0.92112
6866.22,0.93149
6860.43,0.92848
6854.64,0.92443
6848.86,0.92724
6843.07,0.92333
6837.29,0.92724
6831.5,0.93003
6825.71,0.93485
6819.93,0.92822
6814.14,0.93405
6808.36,0.92908
6802.57,0.92115
6796.78,0.91881
6791,0.93165
6785.21,0.92801
6779.43,0.92737
6773.64,0.92554
6767.85,0.92635
6762.07,0.92243
6756.28,0.92499
6750.49,0.93151
6744.71,0.93003
6738.92,0.93448
6733.14,0.93332
6727.35,0.92771
6721.56,0.92972
6715.78,0.93144
6709.99,0.92980
6704.21,0.93405
6698.42,0.93359
6692.63,0.93654
6686.85,0.93225
6681.06,0.94139
6675.27,0.93906
6669.49,0.93036
6663.7,0.92972
6657.92,0.93113
6652.13,0.93085
6646.34,0.93472
6640.56,0.93352
6634.77,0.92248
6628.99,0.92745
6623.2,0.92530
6617.41,0.93163
6611.63,0.94698
6605.84,0.93658
6600.05,0.92939
6594.27,0.93002
6588.48,0.92539
6582.7,0.92974
6576.91,0.93642
6571.12,0.93237
6565.34,0.92997
6559.55,0.92998
6553.77,0.92410
6547.98,0.93211
6542.19,0.93202
6536.41,0.93486
6530.62,0.93603
6524.84,0.93001
6519.05,0.93233
6513.26,0.92743
6507.48,0.93137
6501.69,0.93401
6495.9,0.93251
6490.12,0.92452
6484.33,0.92869
6478.55,0.92795
6472.76,0.93392
6466.97,0.93166
6461.19,0.93659
6455.4,0.93307
6449.62,0.92362
6443.83,0.92769
6438.04,0.93436
6432.26,0.93573
6426.47,0.94264
6420.68,0.93522
6414.9,0.92880
6409.11,0.93335
6403.33,0.93114
6397.54,0.93498
6391.75,0.93399
6385.97,0.93544
6380.18,0.92703
6374.4,0.92772
6368.61,0.93576
6362.82,0.93626
6357.04,0.93903
6351.25,0.93373
6345.46,0.93019
6339.68,0.93066
6333.89,0.93023
6328.11,0.92982
6322.32,0.93741
6316.53,0.93386
6310.75,0.93015
6304.96,0.93252
6299.18,0.93277
6293.39,0.93451
6287.6,0.93576
6281.82,0.93282
6276.03,0.93130
6270.24,0.93055
6264.46,0.92989
6258.67,0.93193
6252.89,0.93784
6247.1,0.93851
6241.31,0.92545
6235.53,0.92555
6229.74,0.93015
6223.96,0.93577
6218.17,0.92984
6212.38,0.92915
6206.6,0.93245
6200.81,0.93163
6195.03,0.92914
6189.24,0.92843
6183.45,0.93224
6177.67,0.93719
6171.88,0.92973
6166.09,0.92948
6160.31,0.92934
6154.52,0.93349
6148.74,0.93206
6142.95,0.93223
6137.16,0.92890
6131.38,0.93124
6125.59,0.92544
6119.81,0.93167
6114.02,0.93434
6108.23,0.92879
6102.45,0.92782
6096.66,0.92756
6090.87,0.92990
6085.09,0.93151
6079.3,0.93391
6073.52,0.92915
6067.73,0.92682
6061.94,0.92902
6056.16,0.92439
6050.37,0.92650
6044.59,0.92287
6038.8,0.92399
6033.01,0.92739
6027.23,0.92536
6021.44,0.92433
6015.65,0.92376
6009.87,0.92562
6004.08,0.92192
5998.3,0.92390
5992.51,0.92294
5986.72,0.92342
5980.94,0.91862
5975.15,0.91985
5969.37,0.92122
5963.58,0.92254
5957.79,0.92118
5952.01,0.91773
5946.22,0.91848
5940.44,0.92007
5934.65,0.91876
5928.86,0.91394
5923.08,0.91657
5917.29,0.91458
5911.5,0.91254
5905.72,0.91044
5899.93,0.90914
5894.15,0.91022
5888.36,0.90610
5882.57,0.90567
5876.79,0.90819
5871,0.90332
5865.22,0.89317
5859.43,0.88908
5853.64,0.88462
5847.86,0.87931
5842.07,0.87725
5836.28,0.87177
5830.5,0.86723
5824.71,0.85315
5818.93,0.84478
5813.14,0.84110
5807.35,0.83728
5801.57,0.83120
5795.78,0.81525
5790,0.80171
5784.21,0.78538
5778.42,0.76689
5772.64,0.76838
5766.85,0.79417
5761.06,0.81940
5755.28,0.83976
5749.49,0.85167
5743.71,0.86431
5737.92,0.86971
5732.13,0.87127
5726.35,0.87518
5720.56,0.88099
5714.78,0.88041
5708.99,0.88172
5703.2,0.87869
5697.42,0.87855
5691.63,0.87180
5685.84,0.86375
5680.06,0.86013
5674.27,0.85516
5668.49,0.84777
5662.7,0.84541
5656.91,0.85376
5651.13,0.86440
5645.34,0.87209
5639.56,0.88046
5633.77,0.87901
5627.98,0.88675
5622.2,0.88524
5616.41,0.88818
5610.63,0.89237
5604.84,0.89251
5599.05,0.89224
5593.27,0.89779
5587.48,0.89341
5581.69,0.89026
5575.91,0.88937
5570.12,0.89281
5564.34,0.89371
5558.55,0.89150
5552.76,0.88774
5546.98,0.88715
5541.19,0.88885
5535.41,0.89040
5529.62,0.89350
5523.83,0.89093
5518.05,0.89015
5512.26,0.89174
5506.47,0.88501
5500.69,0.88828
5494.9,0.88743
5489.12,0.88720
5483.33,0.89210
5477.54,0.88372
5471.76,0.88816
5465.97,0.88806
5460.19,0.88822
5454.4,0.89604
5448.61,0.88760
5442.83,0.87980
5437.04,0.88946
5431.25,0.88324
5425.47,0.89166
5419.68,0.90093
5413.9,0.88163
5408.11,0.88941
5402.32,0.89794
5396.54,0.89166
5390.75,0.89980
5384.97,0.89784
5379.18,0.90016
5373.39,0.89801
5367.61,0.90213
5361.82,0.89897
5356.04,0.89821
5350.25,0.89621
5344.46,0.89112
5338.68,0.88928
5332.89,0.89829
5327.1,0.89717
5321.32,0.91052
5315.53,0.90890
5309.75,0.90582
5303.96,0.90678
5298.17,0.90643
5292.39,0.90288
5286.6,0.90383
5280.82,0.90775
5275.03,0.91218
5269.24,0.90357
5263.46,0.89255
5257.67,0.90234
5251.88,0.90421
5246.1,0.89678
5240.31,0.90988
5234.53,0.90701
5228.74,0.90079
5222.95,0.89821
5217.17,0.90326
5211.38,0.90778
5205.6,0.89771
5199.81,0.90841
5194.02,0.90806
5188.24,0.90510
5182.45,0.90691
5176.66,0.91181
5170.88,0.91245
5165.09,0.91052
5159.31,0.90817
5153.52,0.90908
5147.73,0.91114
5141.95,0.91120
5136.16,0.91223
5130.38,0.91264
5124.59,0.91288
5118.8,0.90902
5113.02,0.91189
5107.23,0.91487
5101.45,0.91492
5095.66,0.91215
5089.87,0.91166
5084.09,0.91325
5078.3,0.91264
5072.51,0.91483
5066.73,0.91663
5060.94,0.91477
5055.16,0.91408
5049.37,0.91285
5043.58,0.91320
5037.8,0.91646
5032.01,0.91659
5026.23,0.91555
5020.44,0.91578
5014.65,0.91492
5008.87,0.91272
5003.08,0.91371
4997.29,0.91560
4991.51,0.91409
4985.72,0.91248
4979.94,0.91042
4974.15,0.90968
4968.36,0.91284
4962.58,0.91305
4956.79,0.91476
4951.01,0.91208
4945.22,0.91405
4939.43,0.91202
4933.65,0.91503
4927.86,0.91790
4922.07,0.91704
4916.29,0.91609
4910.5,0.91547
4904.72,0.91399
4898.93,0.91523
4893.14,0.91783
4887.36,0.91537
4881.57,0.91424
4875.79,0.91242
4870,0.91249
4864.21,0.91556
4858.43,0.91592
4852.64,0.91656
4846.85,0.91549
4841.07,0.91527
4835.28,0.91575
4829.5,0.91875
4823.71,0.91968
4817.92,0.91946
4812.14,0.91836
4806.35,0.91823
4800.57,0.91763
4794.78,0.91883
4788.99,0.92107
4783.21,0.92035
4777.42,0.92018
4771.64,0.91940
4765.85,0.91938
4760.06,0.92114
4754.28,0.92227
4748.49,0.92155
4742.7,0.92078
4736.92,0.91923
4731.13,0.91887
4725.35,0.92112
4719.56,0.92271
4713.77,0.92329
4707.99,0.92144
4702.2,0.92046
4696.42,0.92003
4690.63,0.92105
4684.84,0.92253
4679.06,0.92228
4673.27,0.92061
4667.48,0.91951
4661.7,0.91962
4655.91,0.92161
4650.13,0.92237
4644.34,0.92244
4638.55,0.92150
4632.77,0.92109
4626.98,0.91971
4621.2,0.92032
4615.41,0.92197
4609.62,0.92232
4603.84,0.92106
4598.05,0.91993
4592.26,0.91965
4586.48,0.92039
4580.69,0.92313
4574.91,0.92217
4569.12,0.91966
4563.33,0.91907
4557.55,0.91926
4551.76,0.91856
4545.98,0.91891
4540.19,0.91873
4534.4,0.91716
4528.62,0.91660
4522.83,0.91501
4517.05,0.91481
4511.26,0.91528
4505.47,0.91394
4499.69,0.91196
4493.9,0.91092
4488.11,0.90903
4482.33,0.90816
4476.54,0.90812
4470.76,0.90564
4464.97,0.90385
4459.18,0.90027
4453.4,0.89956
4447.61,0.89665
4441.83,0.89461
4436.04,0.89166
4430.25,0.88640
4424.47,0.88044
4418.68,0.87459
4412.89,0.86760
4407.11,0.85816
4401.32,0.84704
4395.54,0.83336
4389.75,0.81932
4383.96,0.80694
4378.18,0.79364
4372.39,0.77981
4366.61,0.76390
4360.82,0.74466
4355.03,0.71405
4349.25,0.66698
4343.46,0.60547
4337.67,0.55060
4331.89,0.49439
4326.1,0.40109
4320.32,0.37874
4314.53,0.55577
4308.74,0.67208
4302.96,0.71824
4297.17,0.73277
4291.39,0.72895
4285.6,0.71814
4279.81,0.70641
4274.03,0.69138
4268.24,0.66224
4262.46,0.60736
4256.67,0.52758
4250.88,0.48253
4245.1,0.57877
4239.31,0.65232
4233.52,0.66923
4227.74,0.65361
4221.95,0.63363
4216.17,0.63351
4210.38,0.63736
4204.59,0.62713
4198.81,0.59885
4193.02,0.58128
4187.24,0.58243
4181.45,0.58541
4175.66,0.58658
4169.88,0.58976
4164.09,0.59312
4158.3,0.59489
4152.52,0.59587
4146.73,0.59798
4140.95,0.60103
4135.16,0.60568
4129.37,0.61065
4123.59,0.61398
4117.8,0.61532
4112.02,0.61472
4106.23,0.61218
4100.44,0.61116
4094.66,0.61772
4088.87,0.64016
4083.08,0.66706
4077.3,0.68264
4071.51,0.69259
4065.73,0.70128
4059.94,0.71014
4054.15,0.71924
4048.37,0.72674
4042.58,0.73278
4036.8,0.73900
4031.01,0.73907
4025.22,0.73704
4019.44,0.74387
4013.65,0.76703
4007.86,0.77708
4002.08,0.78180
3996.29,0.78062
3990.51,0.77947
3984.72,0.78134
3978.93,0.78120
3973.15,0.78070
3967.36,0.78640
3961.58,0.78575
3955.79,0.78750
3950,0.78219
3944.22,0.78169
3938.43,0.78538
3932.65,0.76837
3926.86,0.76443
3921.07,0.76240
3915.29,0.76506
3909.5,0.77360
3903.71,0.74447
3897.93,0.75871
3892.14,0.75746
3886.36,0.75862
3880.57,0.75832
3874.78,0.76282
3869,0.75391
3863.21,0.75997
3857.43,0.76890
3851.64,0.75388
3845.85,0.78241
3840.07,0.75343
3834.28,0.76881
3828.49,0.77898
3822.71,0.76153
3816.92,0.76295
3811.14,0.79164
3805.35,0.78014
3799.56,0.77943
3793.78,0.80899
3787.99,0.81257
3782.21,0.80764
3776.42,0.81653
3770.63,0.80949
3764.85,0.81143
3759.06,0.80162
3753.27,0.78618
3747.49,0.77238
3741.7,0.78757
3735.92,0.76152
3730.13,0.78534
3724.34,0.78026
3718.56,0.80264
3712.77,0.78654
3706.99,0.79349
3701.2,0.79553
3695.41,0.80145
3689.63,0.77323
3683.84,0.80350
3678.06,0.78007
3672.27,0.77475
3666.48,0.80269
3660.7,0.80625
3654.91,0.78372
3649.12,0.73374
3643.34,0.77089
3637.55,0.78393
3631.77,0.77651
3625.98,0.77653
3620.19,0.76755
3614.41,0.74991
3608.62,0.72459
3602.84,0.72323
3597.05,0.76136
3591.26,0.80877
3585.48,0.82433
3579.69,0.84905
3573.9,0.85583
3568.12,0.83968
3562.33,0.86069
3556.55,0.87719
3550.76,0.87308
3544.97,0.86560
3539.19,0.88232
3533.4,0.88265
3527.62,0.87396
3521.83,0.87981
3516.04,0.88744
3510.26,0.88017
3504.47,0.87467
3498.68,0.88243
3492.9,0.88590
3487.11,0.88313
3481.33,0.87720
3475.54,0.87833
3469.75,0.87630
3463.97,0.87382
3458.18,0.87494
3452.4,0.87326
3446.61,0.86348
3440.82,0.86490
3435.04,0.86553
3429.25,0.86852
3423.47,0.86809
3417.68,0.86880
3411.89,0.86900
3406.11,0.86698
3400.32,0.86663
3394.53,0.86445
3388.75,0.86606
3382.96,0.86215
3377.18,0.85829
3371.39,0.85522
3365.6,0.85612
3359.82,0.86173
3354.03,0.86481
3348.25,0.86666
3342.46,0.86754
3336.67,0.86709
3330.89,0.87015
3325.1,0.87064
3319.31,0.87297
3313.53,0.87234
3307.74,0.87050
3301.96,0.87267
3296.17,0.87299
3290.38,0.87436
3284.6,0.87317
3278.81,0.87141
3273.03,0.86789
3267.24,0.87057
3261.45,0.87134
3255.67,0.87058
3249.88,0.87049
3244.09,0.86558
3238.31,0.86594
3232.52,0.86523
3226.74,0.86340
3220.95,0.86238
3215.16,0.85829
3209.38,0.85515
3203.59,0.85312
3197.81,0.84949
3192.02,0.84653
3186.23,0.84234
3180.45,0.83957
3174.66,0.83596
3168.87,0.83376
3163.09,0.83238
3157.3,0.82904
3151.52,0.82356
3145.73,0.81798
3139.94,0.81441
3134.16,0.80806
3128.37,0.80214
3122.59,0.78985
3116.8,0.77810
3111.01,0.76618
3105.23,0.74901
3099.44,0.72077
3093.66,0.68325
3087.87,0.64984
3082.08,0.62911
3076.3,0.61609
3070.51,0.60109
3064.72,0.58151
3058.94,0.56304
3053.15,0.54113
3047.37,0.51448
3041.58,0.48238
3035.79,0.45015
3030.01,0.42186
3024.22,0.39810
3018.44,0.37349
3012.65,0.34699
3006.86,0.32036
3001.08,0.28688
2995.29,0.24748
2989.5,0.19981
2983.72,0.14250
2977.93,0.07942
2972.15,0.02934
2966.36,0.00574
2960.57,0.00131
2954.79,0.00095
2949,0.00094
2943.22,0.00104
2937.43,0.00075
2931.64,0.00091
2925.86,0.00082
2920.07,0.00081
2914.28,0.00084
2908.5,0.00114
2902.71,0.00081
2896.93,0.00104
2891.14,0.00079
2885.35,0.00054
2879.57,0.00067
2873.78,0.00103
2868,0.00108
2862.21,0.00087
2856.42,0.00083
2850.64,0.00080
2844.85,0.00124
2839.07,0.00034
2833.28,0.00432
2827.49,0.01701
2821.71,0.04007
2815.92,0.06980
2810.13,0.10247
2804.35,0.13777
2798.56,0.17563
2792.78,0.21902
2786.99,0.26696
2781.2,0.31334
2775.42,0.35329
2769.63,0.38431
2763.85,0.40547
2758.06,0.42377
2752.27,0.43813
2746.49,0.44077
2740.7,0.43811
2734.91,0.44051
2729.13,0.45114
2723.34,0.46618
2717.56,0.47954
2711.77,0.49032
2705.98,0.50053
2700.2,0.50926
2694.41,0.50710
2688.63,0.49503
2682.84,0.48383
2677.05,0.47457
2671.27,0.46577
2665.48,0.46075
2659.69,0.46223
2653.91,0.46919
2648.12,0.47688
2642.34,0.47708
2636.55,0.47521
2630.76,0.48875
2624.98,0.51522
2619.19,0.53989
2613.41,0.56467
2607.62,0.58757
2601.83,0.60600
2596.05,0.62117
2590.26,0.63969
2584.47,0.65983
2578.69,0.67921
2572.9,0.69724
2567.12,0.71085
2561.33,0.72089
2555.54,0.72773
2549.76,0.73263
2543.97,0.74832
2538.19,0.76193
2532.4,0.75782
2526.61,0.75605
2520.83,0.76998
2515.04,0.78655
2509.26,0.79857
2503.47,0.80593
2497.68,0.80984
2491.9,0.81266
2486.11,0.81591
2480.32,0.81958
2474.54,0.82062
2468.75,0.83224
2462.97,0.84056
2457.18,0.84226
2451.39,0.84335
2445.61,0.84469
2439.82,0.84456
2434.04,0.84155
2428.25,0.83647
2422.46,0.82813
2416.68,0.82152
2410.89,0.82622
2405.1,0.83200
2399.32,0.83488
2393.53,0.83560
2387.75,0.82893
2381.96,0.77856
2376.17,0.67663
2370.39,0.58082
2364.6,0.51440
2358.82,0.49402
2353.03,0.53894
2347.24,0.57119
2341.46,0.51648
2335.67,0.52648
2329.88,0.53679
2324.1,0.56643
2318.31,0.61652
2312.53,0.66407
2306.74,0.71058
2300.95,0.74985
2295.17,0.77677
2289.38,0.79887
2283.6,0.81458
2277.81,0.81354
2272.02,0.81774
2266.24,0.82882
2260.45,0.83806
2254.67,0.84379
2248.88,0.84531
2243.09,0.84523
2237.31,0.85352
2231.52,0.86218
2225.73,0.86429
2219.95,0.86581
2214.16,0.86887
2208.38,0.86830
2202.59,0.86623
2196.8,0.86459
2191.02,0.86530
2185.23,0.86691
2179.45,0.86805
2173.66,0.86671
2167.87,0.86254
2162.09,0.85828
2156.3,0.85585
2150.51,0.85602
2144.73,0.85952
2138.94,0.86562
2133.16,0.87055
2127.37,0.87440
2121.58,0.87954
2115.8,0.88452
2110.01,0.88671
2104.23,0.88372
2098.44,0.87882
2092.65,0.87526
2086.87,0.87684
2081.08,0.87995
2075.29,0.87925
2069.51,0.87338
2063.72,0.86273
2057.94,0.85792
2052.15,0.85562
2046.36,0.85406
2040.58,0.84652
2034.79,0.83604
2029.01,0.81901
2023.22,0.80008
2017.43,0.79388
2011.65,0.83544
2005.86,0.86771
2000.08,0.87753
1994.29,0.87368
1988.5,0.87175
1982.72,0.88000
1976.93,0.88771
1971.14,0.89010
1965.36,0.88056
1959.57,0.87580
1953.79,0.87077
1948,0.87243
1942.21,0.87171
1936.43,0.88502
1930.64,0.88111
1924.86,0.86515
1919.07,0.85177
1913.28,0.85725
1907.5,0.85352
1901.71,0.85235
1895.92,0.83948
1890.14,0.84353
1884.35,0.86298
1878.57,0.87534
1872.78,0.88419
1866.99,0.87705
1861.21,0.89643
1855.42,0.89069
1849.64,0.87873
1843.85,0.86475
1838.06,0.88980
1832.28,0.88998
1826.49,0.87560
1820.7,0.87327
1814.92,0.86522
1809.13,0.86200
1803.35,0.87416
1797.56,0.87606
1791.77,0.86361
1785.99,0.87517
1780.2,0.85799
1774.42,0.84438
1768.63,0.85550
1762.84,0.86314
1757.06,0.83977
1751.27,0.78738
1745.48,0.75635
1739.7,0.76268
1733.91,0.78414
1728.13,0.82784
1722.34,0.81091
1716.55,0.75682
1710.77,0.78572
1704.98,0.78923
1699.2,0.78864
1693.41,0.84268
1687.62,0.83904
1681.84,0.81961
1676.05,0.82711
1670.27,0.81222
1664.48,0.84212
1658.69,0.85455
1652.91,0.81109
1647.12,0.79564
1641.33,0.81295
1635.55,0.78852
1629.76,0.82444
1623.98,0.82054
1618.19,0.82105
1612.4,0.82193
1606.62,0.80878
1600.83,0.81142
1595.05,0.81864
1589.26,0.82964
1583.47,0.82895
1577.69,0.79689
1571.9,0.78990
1566.11,0.79032
1560.33,0.77404
1554.54,0.78579
1548.76,0.78874
1542.97,0.72881
1537.18,0.73708
1531.4,0.74836
1525.61,0.73622
1519.83,0.71756
1514.04,0.71583
1508.25,0.66080
1502.47,0.66307
1496.68,0.62417
1490.89,0.57660
1485.11,0.47992
1479.32,0.28008
1473.54,0.02051
1467.75,0.00053
1461.96,0.00088
1456.18,0.02013
1450.39,0.07942
1444.61,0.13825
1438.82,0.18755
1433.03,0.30725
1427.25,0.49893
1421.46,0.60887
1415.68,0.66347
1409.89,0.70219
1404.1,0.72250
1398.32,0.71446
1392.53,0.70206
1386.74,0.64692
1380.96,0.44356
1375.17,0.38534
1369.39,0.37308
1363.6,0.40784
1357.81,0.46430
1352.03,0.46332
1346.24,0.52347
1340.46,0.58403
1334.67,0.66500
1328.88,0.68488
1323.1,0.65420
1317.31,0.60045
1311.52,0.56223
1305.74,0.55020
1299.95,0.56035
1294.17,0.59021
1288.38,0.61796
1282.59,0.63492
1276.81,0.64838
1271.02,0.66409
1265.24,0.68901
1259.45,0.70500
1253.66,0.70803
1247.88,0.70821
1242.09,0.72346
1236.3,0.74319
1230.52,0.75622
1224.73,0.75666
1218.95,0.74875
1213.16,0.74156
1207.37,0.74665
1201.59,0.76439
1195.8,0.77227
1190.02,0.76345
1184.23,0.74945
1178.44,0.73354
1172.66,0.74064
1166.87,0.75305
1161.09,0.76017
1155.3,0.75559
1149.51,0.74369
1143.73,0.74061
1137.94,0.75375
1132.15,0.77241
1126.37,0.78503
1120.58,0.77967
1114.8,0.76289
1109.01,0.75241
1103.22,0.75537
1097.44,0.76081
1091.65,0.75401
1085.87,0.73014
1080.08,0.70884
1074.29,0.71955
1068.51,0.74129
1062.72,0.75869
1056.93,0.77783
1051.15,0.76974
1045.36,0.76482
1039.58,0.75674
1033.79,0.75577
1028,0.75351
1022.22,0.73379
1016.43,0.72237
1010.65,0.75109
1004.86,0.77348
999.073,0.79366
993.287,0.81792
987.501,0.83843
981.715,0.83642
975.929,0.81137
970.142,0.79000
964.356,0.79204
958.57,0.81554
952.784,0.84142
946.998,0.84354
941.212,0.82558
935.426,0.81152
929.64,0.81995
923.853,0.84186
918.067,0.85904
912.281,0.84785
906.495,0.82341
900.709,0.81397
894.923,0.81402
889.137,0.83193
883.35,0.85727
877.564,0.85970
871.778,0.83843
865.992,0.82139
860.206,0.82632
854.42,0.84773
848.634,0.86543
842.847,0.85936
837.061,0.83375
831.275,0.81449
825.489,0.81905
819.703,0.84128
813.917,0.85160
808.131,0.83671
802.344,0.80006
796.558,0.77334
790.772,0.77180
784.986,0.77729
779.2,0.76259
773.414,0.72815
767.628,0.70596
761.842,0.70398
756.055,0.70864
750.269,0.70313
744.483,0.64794
738.697,0.50551
732.911,0.16506
727.125,0.04768
721.339,0.02230
715.552,0.13162
709.766,0.41854
703.98,0.62802
698.194,0.75299
692.408,0.77862
686.622,0.75750
680.836,0.76077
675.049,0.80206
669.263,0.75421
663.477,0.86896
657.691,0.83578
651.905,0.81080
646.119,0.83391
640.333,0.89208
634.546,0.93455
628.76,0.93464
622.974,0.89360
617.188,0.85885
611.402,0.88038
605.616,0.91673
599.83,0.94318