File: 01_Data/PEVA/FTIR/IS/PEVA_0.26_IS_S_240809_R10.dpt
7497.2,0.10319
7491.41,0.10837
7485.63,0.09555
7479.84,0.10954
7474.05,0.10304
7468.27,0.12161
7462.48,0.10340
7456.7,0.10186
7450.91,0.10243
7445.12,0.10306
7439.34,0.10850
7433.55,0.10677
7427.76,0.10691
7421.98,0.10342
7416.19,0.10393
7410.4,0.10373
7404.62,0.10311
7398.83,0.09946
7393.05,0.09906
7387.26,0.10550
7381.47,0.10814
7375.69,0.09989
7369.9,0.09688
7364.11,0.09974
7358.33,0.11594
7352.54,0.10893
7346.75,0.10252
7340.97,0.10107
7335.18,0.09760
7329.4,0.10098
7323.61,0.11186
7317.82,0.11238
7312.04,0.10350
7306.25,0.10267
7300.46,0.10205
7294.68,0.10217
7288.89,0.10095
7283.1,0.10745
7277.32,0.10615
7271.53,0.09883
7265.75,0.09754
7259.96,0.10305
7254.17,0.10226
7248.39,0.09580
7242.6,0.10250
7236.81,0.09700
7231.03,0.10563
7225.24,0.10228
7219.45,0.10281
7213.67,0.09879
7207.88,0.10472
7202.1,0.09836
7196.31,0.10333
7190.52,0.10637
7184.74,0.10867
7178.95,0.10250
7173.16,0.10791
7167.38,0.10345
7161.59,0.10438
7155.8,0.09507
7150.02,0.09458
7144.23,0.09377
7138.45,0.10058
7132.66,0.10461
7126.87,0.10319
7121.09,0.10387
7115.3,0.10023
7109.51,0.10573
7103.73,0.10877
7097.94,0.09548
7092.15,0.10700
7086.37,0.10018
7080.58,0.09137
7074.8,0.09921
7069.01,0.09690
7063.22,0.09469
7057.44,0.10180
7051.65,0.10207
7045.86,0.09848
7040.08,0.09204
7034.29,0.10237
7028.5,0.10374
7022.72,0.10555
7016.93,0.10625
7011.15,0.09831
7005.36,0.10250
6999.57,0.10240
6993.79,0.10206
6988,0.10102
6982.21,0.10092
6976.43,0.10524
6970.64,0.09941
6964.85,0.10094
6959.07,0.09569
6953.28,0.10155
6947.5,0.10206
6941.71,0.10412
6935.92,0.10505
6930.14,0.10490
6924.35,0.10294
6918.56,0.10258
6912.78,0.10250
6906.99,0.10807
6901.2,0.09979
6895.42,0.10491
6889.63,0.10750
6883.85,0.10026
6878.06,0.10080
6872.27,0.10193
6866.49,0.10249
6860.7,0.09902
6854.91,0.09913
6849.13,0.09851
6843.34,0.09873
6837.55,0.10549
6831.77,0.10177
6825.98,0.10237
6820.2,0.10220
6814.41,0.10486
6808.62,0.10482
6802.84,0.10353
6797.05,0.10515
6791.26,0.10764
6785.48,0.10711
6779.69,0.10498
6773.9,0.10418
6768.12,0.09565
6762.33,0.09853
6756.55,0.09851
6750.76,0.09915
6744.97,0.09851
6739.19,0.09870
6733.4,0.10309
6727.61,0.10519
6721.83,0.10205
6716.04,0.10007
6710.25,0.10209
6704.47,0.10365
6698.68,0.09870
6692.9,0.09967
6687.11,0.10783
6681.32,0.10678
6675.54,0.10460
6669.75,0.10658
6663.96,0.10467
6658.18,0.10501
6652.39,0.10369
6646.6,0.10336
6640.82,0.09854
6635.03,0.09874
6629.25,0.10055
6623.46,0.09664
6617.67,0.10092
6611.89,0.10571
6606.1,0.09897
6600.31,0.10093
6594.53,0.10711
6588.74,0.10031
6582.95,0.09874
6577.17,0.10344
6571.38,0.10482
6565.6,0.09967
6559.81,0.10404
6554.02,0.10485
6548.24,0.10396
6542.45,0.10234
6536.66,0.10350
6530.88,0.10214
6525.09,0.09634
6519.3,0.09962
6513.52,0.10306
6507.73,0.10229
6501.95,0.09941
6496.16,0.10378
6490.37,0.10495
6484.59,0.10482
6478.8,0.10074
6473.01,0.10345
6467.23,0.10500
6461.44,0.09900
6455.65,0.09645
6449.87,0.09793
6444.08,0.09692
6438.3,0.10035
6432.51,0.10617
6426.72,0.10063
6420.94,0.09922
6415.15,0.10117
6409.36,0.09960
6403.58,0.10237
6397.79,0.10558
6392,0.10232
6386.22,0.10021
6380.43,0.10545
6374.65,0.10110
6368.86,0.10642
6363.07,0.10296
6357.29,0.10323
6351.5,0.10399
6345.71,0.10257
6339.93,0.10260
6334.14,0.10618
6328.35,0.10098
6322.57,0.10121
6316.78,0.10927
6310.99,0.10334
6305.21,0.10429
6299.42,0.10163
6293.64,0.09992
6287.85,0.10127
6282.06,0.10412
6276.28,0.10346
6270.49,0.09982
6264.7,0.10275
6258.92,0.10566
6253.13,0.10611
6247.34,0.10202
6241.56,0.10116
6235.77,0.09994
6229.99,0.09515
6224.2,0.09775
6218.41,0.10150
6212.63,0.10164
6206.84,0.10372
6201.05,0.10425
6195.27,0.09953
6189.48,0.09922
6183.69,0.10104
6177.91,0.09786
6172.12,0.09917
6166.34,0.09992
6160.55,0.09951
6154.76,0.10196
6148.98,0.10187
6143.19,0.10467
6137.4,0.10358
6131.62,0.10165
6125.83,0.10342
6120.04,0.10408
6114.26,0.10088
6108.47,0.10279
6102.69,0.10247
6096.9,0.09897
6091.11,0.10192
6085.33,0.10196
6079.54,0.10281
6073.75,0.10025
6067.97,0.09901
6062.18,0.10275
6056.39,0.10134
6050.61,0.09975
6044.82,0.09933
6039.04,0.09874
6033.25,0.09779
6027.46,0.09917
6021.68,0.09545
6015.89,0.09551
6010.1,0.10011
6004.32,0.09760
5998.53,0.09956
5992.74,0.10061
5986.96,0.09943
5981.17,0.09999
5975.39,0.10184
5969.6,0.09857
5963.81,0.09965
5958.03,0.09676
5952.24,0.09965
5946.45,0.09815
5940.67,0.09900
5934.88,0.09843
5929.09,0.09825
5923.31,0.09522
5917.52,0.09613
5911.74,0.09580
5905.95,0.09408
5900.16,0.09559
5894.38,0.09292
5888.59,0.09534
5882.8,0.09188
5877.02,0.09259
5871.23,0.08929
5865.44,0.08917
5859.66,0.09102
5853.87,0.09120
5848.09,0.08794
5842.3,0.08840
5836.51,0.08870
5830.73,0.08618
5824.94,0.08440
5819.15,0.08697
5813.37,0.08751
5807.58,0.08910
5801.79,0.08863
5796.01,0.09131
5790.22,0.09225
5784.44,0.09091
5778.65,0.09523
5772.86,0.09124
5767.08,0.09173
5761.29,0.09186
5755.5,0.09424
5749.72,0.09402
5743.93,0.09449
5738.14,0.09395
5732.36,0.09333
5726.57,0.09283
5720.79,0.09423
5715,0.09488
5709.21,0.09477
5703.43,0.09247
5697.64,0.09247
5691.85,0.09479
5686.07,0.09122
5680.28,0.09412
5674.49,0.09368
5668.71,0.09587
5662.92,0.09518
5657.14,0.09665
5651.35,0.09645
5645.56,0.09689
5639.78,0.09616
5633.99,0.09546
5628.2,0.09794
5622.42,0.09850
5616.63,0.09808
5610.84,0.09659
5605.06,0.09846
5599.27,0.09711
5593.49,0.09854
5587.7,0.09698
5581.91,0.09481
5576.13,0.09875
5570.34,0.09539
5564.55,0.10000
5558.77,0.09991
5552.98,0.09632
5547.19,0.09742
5541.41,0.09801
5535.62,0.09961
5529.84,0.10010
5524.05,0.10174
5518.26,0.09943
5512.48,0.09840
5506.69,0.10105
5500.9,0.09960
5495.12,0.09797
5489.33,0.09830
5483.54,0.09816
5477.76,0.09681
5471.97,0.09896
5466.19,0.10035
5460.4,0.10015
5454.61,0.09768
5448.83,0.10025
5443.04,0.09775
5437.25,0.09704
5431.47,0.09997
5425.68,0.09959
5419.89,0.09907
5414.11,0.09758
5408.32,0.09957
5402.54,0.10149
5396.75,0.10161
5390.96,0.10101
5385.18,0.10123
5379.39,0.10077
5373.6,0.09946
5367.82,0.09975
5362.03,0.10212
5356.24,0.10238
5350.46,0.10058
5344.67,0.10094
5338.89,0.10035
5333.1,0.09797
5327.31,0.10020
5321.53,0.10333
5315.74,0.10023
5309.95,0.10295
5304.17,0.10097
5298.38,0.10158
5292.59,0.09913
5286.81,0.09931
5281.02,0.09964
5275.24,0.09997
5269.45,0.09869
5263.66,0.09868
5257.88,0.09959
5252.09,0.10301
5246.3,0.10097
5240.52,0.10126
5234.73,0.10101
5228.94,0.10262
5223.16,0.10001
5217.37,0.10129
5211.59,0.10265
5205.8,0.10340
5200.01,0.10038
5194.23,0.10059
5188.44,0.09997
5182.65,0.10063
5176.87,0.10115
5171.08,0.10282
5165.29,0.10274
5159.51,0.10256
5153.72,0.10086
5147.94,0.09999
5142.15,0.10068
5136.36,0.10131
5130.58,0.10112
5124.79,0.10257
5119,0.10088
5113.22,0.10059
5107.43,0.10068
5101.64,0.10102
5095.86,0.10085
5090.07,0.10238
5084.29,0.10163
5078.5,0.10255
5072.71,0.10264
5066.93,0.10105
5061.14,0.10246
5055.35,0.10024
5049.57,0.10083
5043.78,0.10313
5037.99,0.10337
5032.21,0.10266
5026.42,0.10048
5020.64,0.10166
5014.85,0.10294
5009.06,0.10284
5003.28,0.10239
4997.49,0.10213
4991.7,0.10078
4985.92,0.09997
4980.13,0.10225
4974.34,0.10267
4968.56,0.10176
4962.77,0.10242
4956.99,0.10169
4951.2,0.10289
4945.41,0.10273
4939.63,0.10253
4933.84,0.10307
4928.05,0.10345
4922.27,0.10322
4916.48,0.10233
4910.69,0.10090
4904.91,0.10339
4899.12,0.10276
4893.34,0.10293
4887.55,0.10173
4881.76,0.10227
4875.98,0.10228
4870.19,0.10283
4864.4,0.10196
4858.62,0.10203
4852.83,0.10235
4847.04,0.10196
4841.26,0.10242
4835.47,0.10294
4829.69,0.10306
4823.9,0.10250
4818.11,0.10168
4812.33,0.10141
4806.54,0.10186
4800.75,0.10241
4794.97,0.10220
4789.18,0.10193
4783.39,0.10219
4777.61,0.10130
4771.82,0.10207
4766.04,0.10321
4760.25,0.10150
4754.46,0.10214
4748.68,0.10244
4742.89,0.10172
4737.1,0.10311
4731.32,0.10187
4725.53,0.10268
4719.74,0.10121
4713.96,0.10066
4708.17,0.10083
4702.39,0.10090
4696.6,0.10069
4690.81,0.09915
4685.03,0.09985
4679.24,0.09935
4673.45,0.09934
4667.67,0.10055
4661.88,0.10038
4656.09,0.10019
4650.31,0.10098
4644.52,0.10033
4638.74,0.10025
4632.95,0.09957
4627.16,0.09977
4621.38,0.10043
4615.59,0.10158
4609.8,0.10155
4604.02,0.10070
4598.23,0.10157
4592.44,0.10198
4586.66,0.10038
4580.87,0.10096
4575.09,0.10033
4569.3,0.10031
4563.51,0.10195
4557.73,0.10081
4551.94,0.10150
4546.15,0.10180
4540.37,0.10070
4534.58,0.10172
4528.79,0.10170
4523.01,0.10101
4517.22,0.10054
4511.44,0.10094
4505.65,0.10104
4499.86,0.10036
4494.08,0.09996
4488.29,0.09941
4482.5,0.09907
4476.72,0.09879
4470.93,0.09813
4465.14,0.09831
4459.36,0.09617
4453.57,0.09623
4447.79,0.09536
4442,0.09306
4436.21,0.09144
4430.43,0.08958
4424.64,0.08797
4418.85,0.08534
4413.07,0.08347
4407.28,0.08252
4401.49,0.08156
4395.71,0.08039
4389.92,0.08031
4384.14,0.07946
4378.35,0.07810
4372.56,0.07573
4366.78,0.07443
4360.99,0.07202
4355.2,0.07070
4349.42,0.07058
4343.63,0.06913
4337.84,0.06756
4332.06,0.06736
4326.27,0.06855
4320.49,0.07025
4314.7,0.07187
4308.91,0.07266
4303.13,0.07239
4297.34,0.07318
4291.55,0.07342
4285.77,0.07309
4279.98,0.07180
4274.19,0.07347
4268.41,0.07219
4262.62,0.07379
4256.84,0.07324
4251.05,0.07355
4245.26,0.07385
4239.48,0.07325
4233.69,0.07341
4227.9,0.07299
4222.12,0.07271
4216.33,0.07216
4210.54,0.07282
4204.76,0.07334
4198.97,0.07362
4193.19,0.07386
4187.4,0.07524
4181.61,0.07491
4175.83,0.07349
4170.04,0.07381
4164.25,0.07426
4158.47,0.07519
4152.68,0.07722
4146.89,0.07664
4141.11,0.07808
4135.32,0.07828
4129.54,0.07945
4123.75,0.07962
4117.96,0.07928
4112.18,0.07878
4106.39,0.07854
4100.6,0.07891
4094.82,0.07784
4089.03,0.07519
4083.24,0.07414
4077.46,0.07457
4071.67,0.07679
4065.89,0.07809
4060.1,0.07973
4054.31,0.08063
4048.53,0.08095
4042.74,0.08131
4036.95,0.08150
4031.17,0.08226
4025.38,0.08179
4019.59,0.08174
4013.81,0.08201
4008.02,0.08327
4002.24,0.08335
3996.45,0.08437
3990.66,0.08514
3984.88,0.08579
3979.09,0.08644
3973.3,0.08623
3967.52,0.08663
3961.73,0.08736
3955.94,0.08710
3950.16,0.08726
3944.37,0.08742
3938.59,0.08771
3932.8,0.08717
3927.01,0.08796
3921.23,0.08700
3915.44,0.08720
3909.65,0.08776
3903.87,0.08628
3898.08,0.08702
3892.29,0.08809
3886.51,0.08807
3880.72,0.08867
3874.94,0.08863
3869.15,0.08864
3863.36,0.08818
3857.58,0.08897
3851.79,0.08863
3846,0.08900
3840.22,0.08897
3834.43,0.08830
3828.64,0.08886
3822.86,0.08919
3817.07,0.09008
3811.29,0.08999
3805.5,0.08915
3799.71,0.08969
3793.93,0.09046
3788.14,0.09158
3782.35,0.09172
3776.57,0.09199
3770.78,0.09170
3764.99,0.09174
3759.21,0.09117
3753.42,0.09222
3747.64,0.09176
3741.85,0.09155
3736.06,0.09232
3730.28,0.09262
3724.49,0.09279
3718.7,0.09299
3712.92,0.09279
3707.13,0.09286
3701.34,0.09090
3695.56,0.08931
3689.77,0.08651
3683.99,0.08587
3678.2,0.08467
3672.41,0.08414
3666.63,0.08493
3660.84,0.08533
3655.05,0.08552
3649.27,0.08530
3643.48,0.08647
3637.69,0.08596
3631.91,0.08579
3626.12,0.08483
3620.34,0.08435
3614.55,0.08338
3608.76,0.08256
3602.98,0.08313
3597.19,0.08207
3591.4,0.08119
3585.62,0.08119
3579.83,0.08057
3574.04,0.07888
3568.26,0.07835
3562.47,0.07725
3556.69,0.07674
3550.9,0.07664
3545.11,0.07602
3539.33,0.07545
3533.54,0.07514
3527.75,0.07534
3521.97,0.07472
3516.18,0.07459
3510.39,0.07395
3504.61,0.07332
3498.82,0.07322
3493.04,0.07172
3487.25,0.07126
3481.46,0.07037
3475.68,0.06991
3469.89,0.06929
3464.1,0.06896
3458.32,0.06839
3452.53,0.06750
3446.74,0.06723
3440.96,0.06601
3435.17,0.06516
3429.39,0.06424
3423.6,0.06468
3417.81,0.06458
3412.03,0.06515
3406.24,0.06615
3400.45,0.06771
3394.67,0.06869
3388.88,0.06880
3383.09,0.06925
3377.31,0.07075
3371.52,0.07122
3365.74,0.07172
3359.95,0.07187
3354.16,0.07257
3348.38,0.07223
3342.59,0.07236
3336.8,0.07142
3331.02,0.07123
3325.23,0.07140
3319.44,0.07011
3313.66,0.06840
3307.87,0.06522
3302.09,0.06388
3296.3,0.06497
3290.51,0.06722
3284.73,0.06911
3278.94,0.07117
3273.15,0.07301
3267.37,0.07403
3261.58,0.07491
3255.79,0.07473
3250.01,0.07581
3244.22,0.07570
3238.44,0.07528
3232.65,0.07537
3226.86,0.07603
3221.08,0.07505
3215.29,0.07451
3209.5,0.07525
3203.72,0.07432
3197.93,0.07400
3192.14,0.07373
3186.36,0.07416
3180.57,0.07396
3174.79,0.07397
3169,0.07425
3163.21,0.07408
3157.43,0.07421
3151.64,0.07388
3145.85,0.07442
3140.07,0.07373
3134.28,0.07229
3128.49,0.07196
3122.71,0.07200
3116.92,0.07165
3111.14,0.07040
3105.35,0.06988
3099.56,0.06818
3093.78,0.06778
3087.99,0.06658
3082.2,0.06559
3076.42,0.06500
3070.63,0.06415
3064.84,0.06309
3059.06,0.06331
3053.27,0.06239
3047.49,0.06303
3041.7,0.06318
3035.91,0.06234
3030.13,0.06109
3024.34,0.06029
3018.55,0.05966
3012.77,0.05799
3006.98,0.05766
3001.19,0.05824
2995.41,0.05775
2989.62,0.05682
2983.84,0.05610
2978.05,0.05593
2972.26,0.05620
2966.48,0.05673
2960.69,0.05790
2954.9,0.05985
2949.12,0.05927
2943.33,0.05945
2937.54,0.05881
2931.76,0.05999
2925.97,0.06120
2920.19,0.06203
2914.4,0.06225
2908.61,0.06275
2902.83,0.06219
2897.04,0.06231
2891.25,0.06192
2885.47,0.06097
2879.68,0.06119
2873.89,0.06097
2868.11,0.06180
2862.32,0.06189
2856.54,0.06290
2850.75,0.06296
2844.96,0.06278
2839.18,0.06291
2833.39,0.06264
2827.6,0.06275
2821.82,0.06206
2816.03,0.06193
2810.24,0.06267
2804.46,0.06315
2798.67,0.06394
2792.89,0.06489
2787.1,0.06604
2781.31,0.06676
2775.53,0.06750
2769.74,0.06796
2763.95,0.06804
2758.17,0.06832
2752.38,0.06807
2746.59,0.06793
2740.81,0.06731
2735.02,0.06683
2729.24,0.06748
2723.45,0.06850
2717.66,0.07007
2711.88,0.07037
2706.09,0.07112
2700.3,0.07153
2694.52,0.07213
2688.73,0.07190
2682.94,0.07171
2677.16,0.07180
2671.37,0.07159
2665.59,0.07171
2659.8,0.07297
2654.01,0.07370
2648.23,0.07425
2642.44,0.07428
2636.65,0.07374
2630.87,0.07336
2625.08,0.07263
2619.29,0.07295
2613.51,0.07308
2607.72,0.07319
2601.94,0.07268
2596.15,0.07300
2590.36,0.07271
2584.58,0.07264
2578.79,0.07249
2573,0.07295
2567.22,0.07319
2561.43,0.07333
2555.64,0.07385
2549.86,0.07367
2544.07,0.07414
2538.29,0.07452
2532.5,0.07489
2526.71,0.07531
2520.93,0.07538
2515.14,0.07673
2509.35,0.07720
2503.57,0.07791
2497.78,0.07881
2491.99,0.07890
2486.21,0.07899
2480.42,0.07954
2474.64,0.07974
2468.85,0.07999
2463.06,0.08021
2457.28,0.07976
2451.49,0.07982
2445.7,0.07982
2439.92,0.07943
2434.13,0.07886
2428.34,0.07815
2422.56,0.07731
2416.77,0.07664
2410.99,0.07591
2405.2,0.07532
2399.41,0.07491
2393.63,0.07413
2387.84,0.07378
2382.05,0.07393
2376.27,0.07426
2370.48,0.07412
2364.69,0.07518
2358.91,0.07650
2353.12,0.07785
2347.34,0.07885
2341.55,0.07945
2335.76,0.08042
2329.98,0.08117
2324.19,0.08102
2318.4,0.08123
2312.62,0.08229
2306.83,0.08172
2301.04,0.08173
2295.26,0.08102
2289.47,0.08016
2283.69,0.07938
2277.9,0.07802
2272.11,0.07877
2266.33,0.07947
2260.54,0.08034
2254.75,0.07991
2248.97,0.07993
2243.18,0.07993
2237.39,0.07967
2231.61,0.07938
2225.82,0.07992
2220.04,0.08010
2214.25,0.08018
2208.46,0.08059
2202.68,0.08173
2196.89,0.08267
2191.1,0.08305
2185.32,0.08345
2179.53,0.08392
2173.74,0.08436
2167.96,0.08436
2162.17,0.08433
2156.39,0.08386
2150.6,0.08365
2144.81,0.08391
2139.03,0.08314
2133.24,0.08359
2127.45,0.08278
2121.67,0.08306
2115.88,0.08265
2110.09,0.08267
2104.31,0.08226
2098.52,0.08255
2092.74,0.08209
2086.95,0.08166
2081.16,0.08147
2075.38,0.08084
2069.59,0.08136
2063.8,0.08079
2058.02,0.08188
2052.23,0.08177
2046.44,0.08231
2040.66,0.08238
2034.87,0.08240
2029.09,0.08242
2023.3,0.08296
2017.51,0.08336
2011.73,0.08358
2005.94,0.08400
2000.15,0.08330
1994.37,0.08274
1988.58,0.08107
1982.79,0.08139
1977.01,0.08041
1971.22,0.07973
1965.44,0.07751
1959.65,0.07554
1953.86,0.07198
1948.08,0.07073
1942.29,0.07277
1936.5,0.07445
1930.72,0.07742
1924.93,0.07810
1919.14,0.07929
1913.36,0.07870
1907.57,0.07944
1901.79,0.07927
1896,0.07977
1890.21,0.07946
1884.43,0.08009
1878.64,0.07958
1872.85,0.07961
1867.07,0.07877
1861.28,0.07860
1855.49,0.07708
1849.71,0.07575
1843.92,0.07287
1838.14,0.07127
1832.35,0.06860
1826.56,0.06640
1820.78,0.06554
1814.99,0.06576
1809.2,0.06646
1803.42,0.06566
1797.63,0.06486
1791.84,0.06338
1786.06,0.06175
1780.27,0.06036
1774.49,0.05925
1768.7,0.05779
1762.91,0.05622
1757.13,0.05463
1751.34,0.05388
1745.55,0.05223
1739.77,0.05102
1733.98,0.04963
1728.19,0.05105
1722.41,0.05693
1716.62,0.06480
1710.84,0.06883
1705.05,0.06686
1699.26,0.06322
1693.48,0.06109
1687.69,0.06062
1681.9,0.05942
1676.12,0.05937
1670.33,0.05909
1664.54,0.06055
1658.76,0.06203
1652.97,0.06174
1647.19,0.06192
1641.4,0.06000
1635.61,0.05936
1629.83,0.06152
1624.04,0.06346
1618.25,0.06203
1612.47,0.06156
1606.68,0.06168
1600.89,0.06350
1595.11,0.06341
1589.32,0.06274
1583.54,0.05934
1577.75,0.05745
1571.96,0.05813
1566.18,0.05886
1560.39,0.05876
1554.6,0.05991
1548.82,0.05964
1543.03,0.05921
1537.24,0.05780
1531.46,0.05905
1525.67,0.05885
1519.89,0.05891
1514.1,0.05782
1508.31,0.05607
1502.53,0.05591
1496.74,0.05728
1490.95,0.05721
1485.17,0.05551
1479.38,0.05437
1473.59,0.05321
1467.81,0.05392
1462.02,0.05563
1456.24,0.05520
1450.45,0.05566
1444.66,0.05479
1438.88,0.05459
1433.09,0.05540
1427.3,0.05500
1421.52,0.05645
1415.73,0.05567
1409.94,0.05609
1404.16,0.05661
1398.37,0.05558
1392.59,0.05445
1386.8,0.05395
1381.01,0.05479
1375.23,0.05576
1369.44,0.05533
1363.65,0.05433
1357.87,0.05354
1352.08,0.05375
1346.29,0.05266
1340.51,0.05203
1334.72,0.05249
1328.94,0.05279
1323.15,0.05235
1317.36,0.05218
1311.58,0.05126
1305.79,0.05051
1300,0.04972
1294.22,0.04742
1288.43,0.04564
1282.64,0.04731
1276.86,0.05352
1271.07,0.06469
1265.29,0.07180
1259.5,0.06924
1253.71,0.06812
1247.93,0.07217
1242.14,0.07277
1236.35,0.07057
1230.57,0.06879
1224.78,0.06789
1218.99,0.06569
1213.21,0.06471
1207.42,0.06386
1201.64,0.06258
1195.85,0.06176
1190.06,0.06170
1184.28,0.06113
1178.49,0.06021
1172.7,0.05979
1166.92,0.05963
1161.13,0.05886
1155.34,0.05836
1149.56,0.05785
1143.77,0.05690
1137.99,0.05520
1132.2,0.05320
1126.41,0.05270
1120.63,0.05797
1114.84,0.06396
1109.05,0.06326
1103.27,0.06704
1097.48,0.07026
1091.69,0.06767
1085.91,0.06654
1080.12,0.06647
1074.34,0.06590
1068.55,0.06432
1062.76,0.06400
1056.98,0.06362
1051.19,0.06305
1045.4,0.06228
1039.62,0.06200
1033.83,0.06112
1028.04,0.06056
1022.26,0.05958
1016.47,0.06463
1010.69,0.06310
1004.9,0.06278
999.112,0.06172
993.326,0.06135
987.54,0.06045
981.753,0.06058
975.967,0.06056
970.18,0.06060
964.394,0.06137
958.608,0.06231
952.821,0.06323
947.035,0.06357
941.249,0.06358
935.462,0.06333
929.676,0.06200
923.89,0.06250
918.103,0.06252
912.317,0.06278
906.53,0.06200
900.744,0.06131
894.958,0.06176
889.171,0.06130
883.385,0.06037
877.599,0.06047
871.812,0.06183
866.026,0.06296
860.24,0.06125
854.453,0.06141
848.667,0.06114
842.88,0.06145
837.094,0.06135
831.308,0.06122
825.521,0.06162
819.735,0.06204
813.949,0.06128
808.162,0.06200
802.376,0.06192
796.59,0.06147
790.803,0.06048
785.017,0.06008
779.23,0.05973
773.444,0.05910
767.658,0.05867
761.871,0.05917
756.085,0.05870
750.299,0.05613
744.512,0.05395
738.726,0.05126
732.94,0.05867
727.153,0.06830
721.367,0.06399
715.58,0.06057
709.794,0.05915
704.008,0.05901
698.221,0.05928
692.435,0.05836
686.649,0.05851
680.862,0.05825
675.076,0.06049
669.29,0.05863
663.503,0.05879
657.717,0.05693
651.93,0.05652
646.144,0.05661
640.358,0.05752
634.571,0.05967
628.785,0.06109
622.999,0.06013
617.212,0.06172
611.426,0.06540
605.639,0.06370
599.853,0.06421