File: 01_Data/PEVA/FTIR/IS/PEVA_0.18_IS_Trans_S_240819_R8.dpt
7496.91,0.94951
7491.12,0.93835
7485.33,0.93401
7479.55,0.93611
7473.76,0.94503
7467.98,0.92986
7462.19,0.95515
7456.4,0.94246
7450.62,0.93411
7444.83,0.94139
7439.04,0.93773
7433.26,0.92777
7427.47,0.93493
7421.69,0.93032
7415.9,0.93380
7410.11,0.93540
7404.33,0.93296
7398.54,0.93298
7392.76,0.92758
7386.97,0.94147
7381.18,0.92669
7375.4,0.91472
7369.61,0.90935
7363.83,0.92699
7358.04,0.91397
7352.25,0.93729
7346.47,0.90204
7340.68,0.92513
7334.89,0.92716
7329.11,0.90814
7323.32,0.92757
7317.54,0.93225
7311.75,0.90841
7305.96,0.91773
7300.18,0.93642
7294.39,0.91557
7288.61,0.92794
7282.82,0.93035
7277.03,0.92494
7271.25,0.92979
7265.46,0.92162
7259.67,0.93378
7253.89,0.92976
7248.1,0.91793
7242.32,0.89336
7236.53,0.92152
7230.74,0.90911
7224.96,0.91677
7219.17,0.90086
7213.39,0.92132
7207.6,0.91824
7201.81,0.91368
7196.03,0.92479
7190.24,0.90922
7184.45,0.91290
7178.67,0.90599
7172.88,0.91383
7167.1,0.91003
7161.31,0.91417
7155.52,0.92635
7149.74,0.92576
7143.95,0.91103
7138.17,0.90872
7132.38,0.92318
7126.59,0.91577
7120.81,0.92301
7115.02,0.92377
7109.23,0.91151
7103.45,0.91590
7097.66,0.91856
7091.88,0.91146
7086.09,0.92161
7080.3,0.92957
7074.52,0.91810
7068.73,0.90416
7062.95,0.92002
7057.16,0.92071
7051.37,0.91552
7045.59,0.91880
7039.8,0.92418
7034.02,0.92541
7028.23,0.92319
7022.44,0.90947
7016.66,0.91264
7010.87,0.91873
7005.08,0.92385
6999.3,0.92087
6993.51,0.93197
6987.73,0.92546
6981.94,0.92007
6976.15,0.92045
6970.37,0.91692
6964.58,0.92600
6958.8,0.92063
6953.01,0.91775
6947.22,0.92485
6941.44,0.92170
6935.65,0.92409
6929.86,0.91699
6924.08,0.91710
6918.29,0.91819
6912.51,0.92557
6906.72,0.91809
6900.93,0.93127
6895.15,0.92324
6889.36,0.92917
6883.58,0.92739
6877.79,0.92879
6872,0.92544
6866.22,0.92098
6860.43,0.92359
6854.64,0.93890
6848.86,0.92575
6843.07,0.93256
6837.29,0.92865
6831.5,0.93451
6825.71,0.93563
6819.93,0.92860
6814.14,0.93533
6808.36,0.93688
6802.57,0.92518
6796.78,0.92949
6791,0.92829
6785.21,0.93228
6779.43,0.94207
6773.64,0.93304
6767.85,0.93793
6762.07,0.93488
6756.28,0.93785
6750.49,0.92869
6744.71,0.92603
6738.92,0.92629
6733.14,0.93000
6727.35,0.92422
6721.56,0.92819
6715.78,0.93224
6709.99,0.92762
6704.21,0.94545
6698.42,0.93668
6692.63,0.93650
6686.85,0.93628
6681.06,0.93705
6675.27,0.93360
6669.49,0.93168
6663.7,0.93972
6657.92,0.93851
6652.13,0.93362
6646.34,0.94264
6640.56,0.93847
6634.77,0.92889
6628.99,0.93257
6623.2,0.94048
6617.41,0.94033
6611.63,0.93938
6605.84,0.94238
6600.05,0.93451
6594.27,0.94368
6588.48,0.94147
6582.7,0.93494
6576.91,0.93701
6571.12,0.93460
6565.34,0.93417
6559.55,0.93422
6553.77,0.93738
6547.98,0.93726
6542.19,0.93548
6536.41,0.93449
6530.62,0.94263
6524.84,0.94009
6519.05,0.93636
6513.26,0.93560
6507.48,0.93733
6501.69,0.93471
6495.9,0.93089
6490.12,0.93341
6484.33,0.93374
6478.55,0.93450
6472.76,0.93519
6466.97,0.93393
6461.19,0.93935
6455.4,0.94079
6449.62,0.93397
6443.83,0.93778
6438.04,0.93592
6432.26,0.94015
6426.47,0.93829
6420.68,0.93188
6414.9,0.93390
6409.11,0.93880
6403.33,0.93787
6397.54,0.93517
6391.75,0.93882
6385.97,0.93356
6380.18,0.93899
6374.4,0.94080
6368.61,0.93304
6362.82,0.93937
6357.04,0.93505
6351.25,0.93512
6345.46,0.93345
6339.68,0.93320
6333.89,0.93904
6328.11,0.93406
6322.32,0.93938
6316.53,0.93514
6310.75,0.93810
6304.96,0.93754
6299.18,0.93837
6293.39,0.93661
6287.6,0.93624
6281.82,0.93876
6276.03,0.93703
6270.24,0.94449
6264.46,0.93723
6258.67,0.93648
6252.89,0.93619
6247.1,0.94038
6241.31,0.93836
6235.53,0.93573
6229.74,0.92972
6223.96,0.93820
6218.17,0.93727
6212.38,0.93324
6206.6,0.93477
6200.81,0.93682
6195.03,0.93320
6189.24,0.93380
6183.45,0.93313
6177.67,0.93657
6171.88,0.93309
6166.09,0.93684
6160.31,0.93240
6154.52,0.92962
6148.74,0.93329
6142.95,0.93516
6137.16,0.93084
6131.38,0.93185
6125.59,0.93063
6119.81,0.92764
6114.02,0.93511
6108.23,0.93516
6102.45,0.93205
6096.66,0.93476
6090.87,0.93220
6085.09,0.93028
6079.3,0.93185
6073.52,0.92876
6067.73,0.92883
6061.94,0.93012
6056.16,0.92854
6050.37,0.93078
6044.59,0.92533
6038.8,0.92248
6033.01,0.92404
6027.23,0.92334
6021.44,0.92594
6015.65,0.92436
6009.87,0.92351
6004.08,0.91813
5998.3,0.92491
5992.51,0.92332
5986.72,0.92262
5980.94,0.91898
5975.15,0.92087
5969.37,0.91741
5963.58,0.92054
5957.79,0.91555
5952.01,0.91699
5946.22,0.91293
5940.44,0.91013
5934.65,0.90728
5928.86,0.90815
5923.08,0.90776
5917.29,0.90866
5911.5,0.91170
5905.72,0.90651
5899.93,0.90517
5894.15,0.90046
5888.36,0.89999
5882.57,0.89298
5876.79,0.88523
5871,0.88038
5865.22,0.87296
5859.43,0.86481
5853.64,0.85650
5847.86,0.85103
5842.07,0.83893
5836.28,0.82910
5830.5,0.82447
5824.71,0.81132
5818.93,0.80738
5813.14,0.79598
5807.35,0.78547
5801.57,0.77878
5795.78,0.76714
5790,0.74813
5784.21,0.73053
5778.42,0.71667
5772.64,0.72152
5766.85,0.74738
5761.06,0.77738
5755.28,0.80750
5749.49,0.82546
5743.71,0.83695
5737.92,0.84398
5732.13,0.84753
5726.35,0.85532
5720.56,0.85817
5714.78,0.85754
5708.99,0.85349
5703.2,0.85188
5697.42,0.84350
5691.63,0.83944
5685.84,0.83328
5680.06,0.82686
5674.27,0.82074
5668.49,0.81051
5662.7,0.81023
5656.91,0.82178
5651.13,0.83660
5645.34,0.84756
5639.56,0.85429
5633.77,0.85442
5627.98,0.86179
5622.2,0.86699
5616.41,0.86701
5610.63,0.87204
5604.84,0.87287
5599.05,0.87588
5593.27,0.87487
5587.48,0.87531
5581.69,0.87329
5575.91,0.87671
5570.12,0.87166
5564.34,0.87285
5558.55,0.87136
5552.76,0.86972
5546.98,0.87183
5541.19,0.87279
5535.41,0.86954
5529.62,0.87208
5523.83,0.87306
5518.05,0.87047
5512.26,0.87187
5506.47,0.86832
5500.69,0.87036
5494.9,0.86792
5489.12,0.86669
5483.33,0.87544
5477.54,0.87165
5471.76,0.87329
5465.97,0.87238
5460.19,0.87098
5454.4,0.87634
5448.61,0.87138
5442.83,0.86655
5437.04,0.87309
5431.25,0.87206
5425.47,0.87669
5419.68,0.88531
5413.9,0.86953
5408.11,0.87613
5402.32,0.88645
5396.54,0.88115
5390.75,0.88882
5384.97,0.88385
5379.18,0.88746
5373.39,0.88510
5367.61,0.89310
5361.82,0.89230
5356.04,0.88800
5350.25,0.88670
5344.46,0.87844
5338.68,0.87944
5332.89,0.89014
5327.1,0.89150
5321.32,0.89993
5315.53,0.89771
5309.75,0.89632
5303.96,0.89753
5298.17,0.89890
5292.39,0.89579
5286.6,0.89482
5280.82,0.89516
5275.03,0.90165
5269.24,0.89640
5263.46,0.88564
5257.67,0.89537
5251.88,0.89546
5246.1,0.88666
5240.31,0.89973
5234.53,0.89752
5228.74,0.89397
5222.95,0.89356
5217.17,0.89730
5211.38,0.89919
5205.6,0.89205
5199.81,0.90069
5194.02,0.89899
5188.24,0.89684
5182.45,0.90003
5176.66,0.89903
5170.88,0.89917
5165.09,0.89927
5159.31,0.89841
5153.52,0.89702
5147.73,0.90102
5141.95,0.90141
5136.16,0.90232
5130.38,0.90266
5124.59,0.90415
5118.8,0.90324
5113.02,0.90413
5107.23,0.90416
5101.45,0.90475
5095.66,0.90307
5089.87,0.90287
5084.09,0.90477
5078.3,0.90386
5072.51,0.90638
5066.73,0.90508
5060.94,0.90650
5055.16,0.90755
5049.37,0.90673
5043.58,0.90800
5037.8,0.91016
5032.01,0.90685
5026.23,0.90707
5020.44,0.90702
5014.65,0.90637
5008.87,0.90606
5003.08,0.90567
4997.29,0.90585
4991.51,0.90250
4985.72,0.90245
4979.94,0.90352
4974.15,0.90316
4968.36,0.90105
4962.58,0.90059
4956.79,0.90452
4951.01,0.90455
4945.22,0.90578
4939.43,0.90697
4933.65,0.90799
4927.86,0.90857
4922.07,0.90786
4916.29,0.90914
4910.5,0.90881
4904.72,0.90729
4898.93,0.90901
4893.14,0.90922
4887.36,0.90636
4881.57,0.90594
4875.79,0.90784
4870,0.90678
4864.21,0.90525
4858.43,0.90822
4852.64,0.90984
4846.85,0.90904
4841.07,0.90905
4835.28,0.91145
4829.5,0.91205
4823.71,0.91120
4817.92,0.91204
4812.14,0.91132
4806.35,0.91262
4800.57,0.91244
4794.78,0.91313
4788.99,0.91276
4783.21,0.91026
4777.42,0.91198
4771.64,0.91212
4765.85,0.91204
4760.06,0.90952
4754.28,0.91062
4748.49,0.91087
4742.7,0.91007
4736.92,0.91167
4731.13,0.91207
4725.35,0.90993
4719.56,0.90882
4713.77,0.91044
4707.99,0.91012
4702.2,0.90646
4696.42,0.90646
4690.63,0.90682
4684.84,0.90354
4679.06,0.89921
4673.27,0.89906
4667.48,0.90256
4661.7,0.90246
4655.91,0.90585
4650.13,0.90877
4644.34,0.90815
4638.55,0.90925
4632.77,0.91182
4626.98,0.91123
4621.2,0.91173
4615.41,0.91296
4609.62,0.91369
4603.84,0.91068
4598.05,0.90939
4592.26,0.91202
4586.48,0.91259
4580.69,0.91100
4574.91,0.91112
4569.12,0.91166
4563.33,0.91093
4557.55,0.90926
4551.76,0.90927
4545.98,0.90859
4540.19,0.90696
4534.4,0.90505
4528.62,0.90400
4522.83,0.90128
4517.05,0.89869
4511.26,0.89869
4505.47,0.89607
4499.69,0.89251
4493.9,0.88900
4488.11,0.88761
4482.33,0.88317
4476.54,0.87924
4470.76,0.87604
4464.97,0.87144
4459.18,0.86503
4453.4,0.85692
4447.61,0.84792
4441.83,0.83801
4436.04,0.82829
4430.25,0.81971
4424.47,0.81498
4418.68,0.80681
4412.89,0.79737
4407.11,0.78501
4401.32,0.76951
4395.54,0.75374
4389.75,0.73710
4383.96,0.71712
4378.18,0.69504
4372.39,0.67229
4366.61,0.64566
4360.82,0.61495
4355.03,0.57142
4349.25,0.51256
4343.46,0.44666
4337.67,0.39502
4331.89,0.34793
4326.1,0.27992
4320.32,0.28524
4314.53,0.44220
4308.74,0.55135
4302.96,0.59685
4297.17,0.61055
4291.39,0.60466
4285.6,0.59182
4279.81,0.57706
4274.03,0.55291
4268.24,0.51430
4262.46,0.45588
4256.67,0.38603
4250.88,0.36271
4245.1,0.45252
4239.31,0.51978
4233.52,0.53312
4227.74,0.51793
4221.95,0.49994
4216.17,0.50053
4210.38,0.50404
4204.59,0.49354
4198.81,0.46907
4193.02,0.45231
4187.24,0.45218
4181.45,0.45446
4175.66,0.45765
4169.88,0.46176
4164.09,0.46719
4158.3,0.47095
4152.52,0.47411
4146.73,0.47783
4140.95,0.48337
4135.16,0.49010
4129.37,0.49411
4123.59,0.49779
4117.8,0.50097
4112.02,0.50262
4106.23,0.50154
4100.44,0.50366
4094.66,0.50986
4088.87,0.53116
4083.08,0.55528
4077.3,0.57274
4071.51,0.58488
4065.73,0.59348
4059.94,0.60215
4054.15,0.60923
4048.37,0.61555
4042.58,0.62188
4036.8,0.62954
4031.01,0.63403
4025.22,0.63345
4019.44,0.64337
4013.65,0.66922
4007.86,0.68205
4002.08,0.68961
3996.29,0.69041
3990.51,0.68882
3984.72,0.68691
3978.93,0.68479
3973.15,0.68436
3967.36,0.69267
3961.58,0.69646
3955.79,0.70133
3950,0.69570
3944.22,0.69688
3938.43,0.70331
3932.65,0.68856
3926.86,0.68713
3921.07,0.68448
3915.29,0.68738
3909.5,0.69584
3903.71,0.66819
3897.93,0.68482
3892.14,0.68502
3886.36,0.68671
3880.57,0.68583
3874.78,0.69089
3869,0.68369
3863.21,0.69210
3857.43,0.70266
3851.64,0.68811
3845.85,0.71554
3840.07,0.68731
3834.28,0.70086
3828.49,0.71320
3822.71,0.69801
3816.92,0.69970
3811.14,0.72776
3805.35,0.71530
3799.56,0.71529
3793.78,0.74794
3787.99,0.75444
3782.21,0.75018
3776.42,0.75930
3770.63,0.75136
3764.85,0.75386
3759.06,0.74524
3753.27,0.73139
3747.49,0.71730
3741.7,0.73234
3735.92,0.70499
3730.13,0.72969
3724.34,0.72395
3718.56,0.74799
3712.77,0.73288
3706.99,0.73672
3701.2,0.73327
3695.41,0.73361
3689.63,0.70082
3683.84,0.73300
3678.06,0.71087
3672.27,0.70335
3666.48,0.72535
3660.7,0.72542
3654.91,0.70164
3649.12,0.65234
3643.34,0.68915
3637.55,0.70070
3631.77,0.69239
3625.98,0.69391
3620.19,0.68731
3614.41,0.67395
3608.62,0.65154
3602.84,0.65065
3597.05,0.68899
3591.26,0.74214
3585.48,0.76032
3579.69,0.78524
3573.9,0.79465
3568.12,0.77360
3562.33,0.79155
3556.55,0.80762
3550.76,0.80568
3544.97,0.80166
3539.19,0.81820
3533.4,0.81938
3527.62,0.80897
3521.83,0.81492
3516.04,0.82293
3510.26,0.81722
3504.47,0.81185
3498.68,0.81673
3492.9,0.81545
3487.11,0.80699
3481.33,0.78978
3475.54,0.76819
3469.75,0.72585
3463.97,0.67653
3458.18,0.65456
3452.4,0.66594
3446.61,0.69230
3440.82,0.73343
3435.04,0.76592
3429.25,0.78430
3423.47,0.79404
3417.68,0.80102
3411.89,0.80701
3406.11,0.80823
3400.32,0.80749
3394.53,0.80442
3388.75,0.80468
3382.96,0.79904
3377.18,0.79798
3371.39,0.79648
3365.6,0.79683
3359.82,0.80098
3354.03,0.80714
3348.25,0.81182
3342.46,0.81438
3336.67,0.81463
3330.89,0.81870
3325.1,0.81902
3319.31,0.82005
3313.53,0.82048
3307.74,0.82091
3301.96,0.82162
3296.17,0.81931
3290.38,0.82005
3284.6,0.82076
3278.81,0.81780
3273.03,0.81645
3267.24,0.81799
3261.45,0.81460
3255.67,0.81388
3249.88,0.81326
3244.09,0.80898
3238.31,0.80811
3232.52,0.80288
3226.74,0.79936
3220.95,0.79492
3215.16,0.79091
3209.38,0.78497
3203.59,0.77937
3197.81,0.77197
3192.02,0.76865
3186.23,0.76125
3180.45,0.75573
3174.66,0.75174
3168.87,0.74618
3163.09,0.74141
3157.3,0.73623
3151.52,0.73033
3145.73,0.72314
3139.94,0.71580
3134.16,0.70679
3128.37,0.69417
3122.59,0.68011
3116.8,0.66372
3111.01,0.64495
3105.23,0.62012
3099.44,0.58688
3093.66,0.54441
3087.87,0.50710
3082.08,0.48184
3076.3,0.46043
3070.51,0.44045
3064.72,0.41646
3058.94,0.39207
3053.15,0.36470
3047.37,0.33392
3041.58,0.30057
3035.79,0.26491
3030.01,0.23091
3024.22,0.20192
3018.44,0.17798
3012.65,0.15948
3006.86,0.14194
3001.08,0.11830
2995.29,0.08987
2989.5,0.06061
2983.72,0.03360
2977.93,0.01347
2972.15,0.00292
2966.36,0.00108
2960.57,0.00059
2954.79,0.00059
2949,0.00053
2943.22,0.00102
2937.43,0.00083
2931.64,0.00033
2925.86,0.00063
2920.07,0.00068
2914.28,0.00101
2908.5,0.00048
2902.71,0.00055
2896.93,0.00052
2891.14,0.00059
2885.35,0.00076
2879.57,0.00039
2873.78,0.00064
2868,0.00039
2862.21,0.00022
2856.42,0.00070
2850.64,0.00076
2844.85,0.00092
2839.07,0.00052
2833.28,0.00039
2827.49,0.00243
2821.71,0.00867
2815.92,0.01959
2810.13,0.03516
2804.35,0.05538
2798.56,0.07996
2792.78,0.10954
2786.99,0.14333
2781.2,0.17895
2775.42,0.21130
2769.63,0.23502
2763.85,0.25079
2758.06,0.26341
2752.27,0.27342
2746.49,0.27705
2740.7,0.27783
2734.91,0.28280
2729.13,0.29398
2723.34,0.30851
2717.56,0.32268
2711.77,0.33554
2705.98,0.34516
2700.2,0.34958
2694.41,0.34245
2688.63,0.32761
2682.84,0.31601
2677.05,0.31009
2671.27,0.30839
2665.48,0.31327
2659.69,0.32196
2653.91,0.33123
2648.12,0.33999
2642.34,0.34339
2636.55,0.34562
2630.76,0.35979
2624.98,0.38495
2619.19,0.40990
2613.41,0.43374
2607.62,0.45668
2601.83,0.47786
2596.05,0.49676
2590.26,0.51838
2584.47,0.54429
2578.69,0.56725
2572.9,0.58661
2567.12,0.60613
2561.33,0.62117
2555.54,0.62944
2549.76,0.63731
2543.97,0.65384
2538.19,0.66277
2532.4,0.65660
2526.61,0.66005
2520.83,0.67699
2515.04,0.69113
2509.26,0.70164
2503.47,0.70593
2497.68,0.70373
2491.9,0.70191
2486.11,0.69928
2480.32,0.69319
2474.54,0.68997
2468.75,0.70738
2462.97,0.72374
2457.18,0.73601
2451.39,0.74780
2445.61,0.75706
2439.82,0.75858
2434.04,0.75818
2428.25,0.75665
2422.46,0.74748
2416.68,0.73810
2410.89,0.74082
2405.1,0.74488
2399.32,0.74392
2393.53,0.74492
2387.75,0.74181
2381.96,0.69197
2376.17,0.59110
2370.39,0.49807
2364.6,0.43376
2358.82,0.41357
2353.03,0.45870
2347.24,0.49180
2341.46,0.43622
2335.67,0.44102
2329.88,0.44948
2324.1,0.47633
2318.31,0.52228
2312.53,0.56537
2306.74,0.61081
2300.95,0.64890
2295.17,0.67829
2289.38,0.70460
2283.6,0.72241
2277.81,0.72243
2272.02,0.72674
2266.24,0.73752
2260.45,0.74307
2254.67,0.74750
2248.88,0.75486
2243.09,0.76363
2237.31,0.77792
2231.52,0.79199
2225.73,0.79603
2219.95,0.79442
2214.16,0.79417
2208.38,0.79381
2202.59,0.78885
2196.8,0.77959
2191.02,0.77072
2185.23,0.76350
2179.45,0.75684
2173.66,0.75030
2167.87,0.74716
2162.09,0.74305
2156.3,0.73957
2150.51,0.74095
2144.73,0.75139
2138.94,0.76511
2133.16,0.77682
2127.37,0.78657
2121.58,0.79281
2115.8,0.79432
2110.01,0.79638
2104.23,0.79875
2098.44,0.79738
2092.65,0.79503
2086.87,0.79529
2081.08,0.79403
2075.29,0.78892
2069.51,0.78514
2063.72,0.77959
2057.94,0.77338
2052.15,0.76384
2046.36,0.75467
2040.58,0.74220
2034.79,0.72987
2029.01,0.71658
2023.22,0.70065
2017.43,0.69321
2011.65,0.73155
2005.86,0.76451
2000.08,0.77993
1994.29,0.78493
1988.5,0.79388
1982.72,0.80313
1976.93,0.80105
1971.14,0.79659
1965.36,0.79073
1959.57,0.79035
1953.79,0.78436
1948,0.78270
1942.21,0.77563
1936.43,0.78119
1930.64,0.77759
1924.86,0.76975
1919.07,0.75813
1913.28,0.75302
1907.5,0.73790
1901.71,0.72763
1895.92,0.70798
1890.14,0.70859
1884.35,0.72306
1878.57,0.71828
1872.78,0.70279
1866.99,0.68188
1861.21,0.69721
1855.42,0.69893
1849.64,0.69737
1843.85,0.68056
1838.06,0.68058
1832.28,0.65968
1826.49,0.63410
1820.7,0.61928
1814.92,0.59803
1809.13,0.57365
1803.35,0.54877
1797.56,0.50978
1791.77,0.46688
1785.99,0.43649
1780.2,0.38451
1774.42,0.32509
1768.63,0.22811
1762.84,0.12692
1757.06,0.04964
1751.27,0.00789
1745.48,0.00042
1739.7,0.00034
1733.91,0.00098
1728.13,0.00088
1722.34,0.01310
1716.55,0.07229
1710.77,0.15135
1704.98,0.19530
1699.2,0.19962
1693.41,0.26337
1687.62,0.34259
1681.84,0.43140
1676.05,0.47804
1670.27,0.49715
1664.48,0.52543
1658.69,0.52571
1652.91,0.48376
1647.12,0.46697
1641.33,0.55153
1635.55,0.58359
1629.76,0.63273
1623.98,0.63241
1618.19,0.63652
1612.4,0.65851
1606.62,0.65925
1600.83,0.65637
1595.05,0.65342
1589.26,0.65473
1583.47,0.64618
1577.69,0.62193
1571.9,0.61566
1566.11,0.59690
1560.33,0.56729
1554.54,0.57272
1548.76,0.57667
1542.97,0.53126
1537.18,0.54201
1531.4,0.53585
1525.61,0.50775
1519.83,0.48409
1514.04,0.48087
1508.25,0.43783
1502.47,0.43068
1496.68,0.38346
1490.89,0.33315
1485.11,0.24431
1479.32,0.11048
1473.54,0.00504
1467.75,0.00042
1461.96,0.00020
1456.18,0.00105
1450.39,0.00477
1444.61,0.00957
1438.82,0.01170
1433.03,0.02302
1427.25,0.06553
1421.46,0.13484
1415.68,0.21604
1409.89,0.26675
1404.1,0.28399
1398.32,0.25680
1392.53,0.18269
1386.74,0.07648
1380.96,0.01085
1375.17,0.00041
1369.39,0.00050
1363.6,0.00241
1357.81,0.01352
1352.03,0.03848
1346.24,0.11853
1340.46,0.21881
1334.67,0.30559
1328.88,0.32454
1323.1,0.29589
1317.31,0.24320
1311.52,0.19320
1305.74,0.15919
1299.95,0.14013
1294.17,0.12610
1288.38,0.10626
1282.59,0.07624
1276.81,0.04309
1271.02,0.01594
1265.24,0.00267
1259.45,0.00031
1253.66,0.00034
1247.88,0.00005
1242.09,0.00055
1236.3,0.00045
1230.52,0.00056
1224.73,0.00054
1218.95,0.00351
1213.16,0.01705
1207.37,0.04797
1201.59,0.08974
1195.8,0.13001
1190.02,0.16473
1184.23,0.19078
1178.44,0.20700
1172.66,0.22037
1166.87,0.22245
1161.09,0.20934
1155.3,0.17943
1149.51,0.14553
1143.73,0.13397
1137.94,0.13097
1132.15,0.12124
1126.37,0.12004
1120.58,0.13177
1114.8,0.14561
1109.01,0.15733
1103.22,0.16205
1097.44,0.15591
1091.65,0.14173
1085.87,0.12580
1080.08,0.10892
1074.29,0.09476
1068.51,0.08185
1062.72,0.07538
1056.93,0.06563
1051.15,0.04552
1045.36,0.02873
1039.58,0.02475
1033.79,0.01367
1028,0.00346
1022.22,0.00047
1016.43,0.00120
1010.65,0.01997
1004.86,0.08221
999.073,0.15757
993.287,0.20764
987.501,0.23235
981.715,0.23440
975.929,0.21516
970.142,0.18250
964.356,0.15206
958.57,0.14168
952.784,0.15194
946.998,0.17261
941.212,0.18033
935.426,0.19002
929.64,0.27729
923.853,0.38571
918.067,0.43912
912.281,0.46023
906.495,0.47439
900.709,0.48508
894.923,0.48258
889.137,0.48593
883.35,0.49950
877.564,0.50308
871.778,0.49749
865.992,0.50160
860.206,0.51946
854.42,0.53326
848.634,0.55366
842.847,0.57248
837.061,0.58660
831.275,0.60358
825.489,0.62016
819.703,0.61687
813.917,0.60264
808.131,0.58658
802.344,0.56977
796.558,0.57065
790.772,0.60331
784.986,0.62433
779.2,0.60812
773.414,0.58878
767.628,0.58079
761.842,0.56538
756.055,0.53309
750.269,0.49330
744.483,0.42577
738.697,0.30820
732.911,0.10146
727.125,0.01083
721.339,0.00284
715.552,0.04942
709.766,0.27019
703.98,0.47443
698.194,0.60621
692.408,0.68150
686.622,0.69407
680.836,0.71160
675.049,0.72029
669.263,0.62736
663.477,0.71986
657.691,0.69176
651.905,0.62237
646.119,0.55372
640.333,0.56119
634.546,0.56624
628.76,0.49174
622.974,0.54269
617.188,0.51111
611.402,0.27260
605.616,0.27250
599.83,0.51892