File: 01_Data/PEVA/FTIR/IS/PEVA_0.10_IS_Trans_S_240819_R10.dpt
7496.91,0.93712
7491.12,0.95613
7485.33,0.94319
7479.55,0.95443
7473.76,0.94876
7467.98,0.93995
7462.19,0.94427
7456.4,0.94066
7450.62,0.92194
7444.83,0.94512
7439.04,0.94307
7433.26,0.94148
7427.47,0.94584
7421.69,0.95736
7415.9,0.94602
7410.11,0.94331
7404.33,0.91929
7398.54,0.93481
7392.76,0.93610
7386.97,0.92494
7381.18,0.91976
7375.4,0.92847
7369.61,0.92834
7363.83,0.94149
7358.04,0.92867
7352.25,0.94734
7346.47,0.93523
7340.68,0.90677
7334.89,0.93167
7329.11,0.92375
7323.32,0.93021
7317.54,0.92531
7311.75,0.92499
7305.96,0.91646
7300.18,0.92569
7294.39,0.91836
7288.61,0.92043
7282.82,0.92319
7277.03,0.94619
7271.25,0.94174
7265.46,0.92951
7259.67,0.94162
7253.89,0.92896
7248.1,0.93404
7242.32,0.91312
7236.53,0.91614
7230.74,0.90583
7224.96,0.91688
7219.17,0.91146
7213.39,0.91851
7207.6,0.93147
7201.81,0.91074
7196.03,0.91615
7190.24,0.91850
7184.45,0.92050
7178.67,0.92893
7172.88,0.93001
7167.1,0.89661
7161.31,0.90975
7155.52,0.91874
7149.74,0.93166
7143.95,0.93544
7138.17,0.91198
7132.38,0.93302
7126.59,0.92953
7120.81,0.92832
7115.02,0.92932
7109.23,0.93710
7103.45,0.92530
7097.66,0.92687
7091.88,0.92703
7086.09,0.93217
7080.3,0.92222
7074.52,0.92305
7068.73,0.92491
7062.95,0.91530
7057.16,0.91578
7051.37,0.93079
7045.59,0.93008
7039.8,0.92960
7034.02,0.92389
7028.23,0.93316
7022.44,0.93119
7016.66,0.92531
7010.87,0.93288
7005.08,0.92821
6999.3,0.92355
6993.51,0.93568
6987.73,0.92490
6981.94,0.92924
6976.15,0.93671
6970.37,0.93387
6964.58,0.93292
6958.8,0.92856
6953.01,0.93176
6947.22,0.93182
6941.44,0.92180
6935.65,0.93363
6929.86,0.93758
6924.08,0.93133
6918.29,0.92473
6912.51,0.93488
6906.72,0.92893
6900.93,0.93735
6895.15,0.93046
6889.36,0.92824
6883.58,0.92527
6877.79,0.92419
6872,0.93340
6866.22,0.93585
6860.43,0.92953
6854.64,0.93109
6848.86,0.93770
6843.07,0.93495
6837.29,0.93142
6831.5,0.93808
6825.71,0.92812
6819.93,0.93888
6814.14,0.92961
6808.36,0.93431
6802.57,0.93970
6796.78,0.93276
6791,0.92911
6785.21,0.93808
6779.43,0.93692
6773.64,0.92882
6767.85,0.93171
6762.07,0.94016
6756.28,0.93617
6750.49,0.94597
6744.71,0.93627
6738.92,0.93143
6733.14,0.94309
6727.35,0.93517
6721.56,0.93476
6715.78,0.94013
6709.99,0.93485
6704.21,0.93462
6698.42,0.93685
6692.63,0.94555
6686.85,0.94549
6681.06,0.93786
6675.27,0.94064
6669.49,0.94497
6663.7,0.93947
6657.92,0.93852
6652.13,0.93391
6646.34,0.94715
6640.56,0.94453
6634.77,0.93431
6628.99,0.93844
6623.2,0.93714
6617.41,0.93017
6611.63,0.94476
6605.84,0.93461
6600.05,0.94178
6594.27,0.94911
6588.48,0.94171
6582.7,0.93936
6576.91,0.93615
6571.12,0.94118
6565.34,0.93961
6559.55,0.93700
6553.77,0.93791
6547.98,0.93822
6542.19,0.93946
6536.41,0.93795
6530.62,0.94525
6524.84,0.94384
6519.05,0.93922
6513.26,0.93976
6507.48,0.93781
6501.69,0.93928
6495.9,0.93833
6490.12,0.94571
6484.33,0.94714
6478.55,0.93912
6472.76,0.93557
6466.97,0.94007
6461.19,0.94580
6455.4,0.93402
6449.62,0.94585
6443.83,0.93566
6438.04,0.94474
6432.26,0.94630
6426.47,0.94351
6420.68,0.94540
6414.9,0.94511
6409.11,0.93594
6403.33,0.93883
6397.54,0.94115
6391.75,0.93469
6385.97,0.93884
6380.18,0.94706
6374.4,0.94072
6368.61,0.93808
6362.82,0.94004
6357.04,0.94407
6351.25,0.94111
6345.46,0.94110
6339.68,0.93679
6333.89,0.94136
6328.11,0.94028
6322.32,0.95279
6316.53,0.94790
6310.75,0.94003
6304.96,0.93889
6299.18,0.94110
6293.39,0.93743
6287.6,0.94183
6281.82,0.94193
6276.03,0.94134
6270.24,0.93706
6264.46,0.94060
6258.67,0.93756
6252.89,0.94384
6247.1,0.94466
6241.31,0.94490
6235.53,0.93894
6229.74,0.94349
6223.96,0.93742
6218.17,0.94278
6212.38,0.93722
6206.6,0.94006
6200.81,0.93928
6195.03,0.93524
6189.24,0.93870
6183.45,0.94375
6177.67,0.94510
6171.88,0.93656
6166.09,0.93437
6160.31,0.93807
6154.52,0.93879
6148.74,0.94382
6142.95,0.93836
6137.16,0.94183
6131.38,0.93503
6125.59,0.93718
6119.81,0.93767
6114.02,0.93865
6108.23,0.94077
6102.45,0.93960
6096.66,0.93373
6090.87,0.93748
6085.09,0.94013
6079.3,0.93922
6073.52,0.93565
6067.73,0.93587
6061.94,0.93520
6056.16,0.92945
6050.37,0.92885
6044.59,0.93368
6038.8,0.93648
6033.01,0.93318
6027.23,0.93173
6021.44,0.93276
6015.65,0.93428
6009.87,0.93151
6004.08,0.94066
5998.3,0.93507
5992.51,0.92779
5986.72,0.93345
5980.94,0.93418
5975.15,0.93191
5969.37,0.92959
5963.58,0.93538
5957.79,0.92788
5952.01,0.92963
5946.22,0.92826
5940.44,0.92687
5934.65,0.93402
5928.86,0.92501
5923.08,0.92657
5917.29,0.92105
5911.5,0.92257
5905.72,0.92169
5899.93,0.92211
5894.15,0.92050
5888.36,0.91730
5882.57,0.91844
5876.79,0.91475
5871,0.91487
5865.22,0.90780
5859.43,0.89973
5853.64,0.89556
5847.86,0.88926
5842.07,0.88084
5836.28,0.87763
5830.5,0.87258
5824.71,0.86169
5818.93,0.85929
5813.14,0.84839
5807.35,0.84705
5801.57,0.83530
5795.78,0.82799
5790,0.81653
5784.21,0.79707
5778.42,0.77470
5772.64,0.77357
5766.85,0.79947
5761.06,0.82726
5755.28,0.85343
5749.49,0.86334
5743.71,0.87001
5737.92,0.87672
5732.13,0.88101
5726.35,0.89041
5720.56,0.89309
5714.78,0.89196
5708.99,0.88622
5703.2,0.88323
5697.42,0.88047
5691.63,0.88159
5685.84,0.87793
5680.06,0.86869
5674.27,0.86171
5668.49,0.85796
5662.7,0.85304
5656.91,0.86313
5651.13,0.87761
5645.34,0.88259
5639.56,0.88791
5633.77,0.89419
5627.98,0.89579
5622.2,0.89656
5616.41,0.89798
5610.63,0.89728
5604.84,0.90077
5599.05,0.90330
5593.27,0.90227
5587.48,0.90520
5581.69,0.90310
5575.91,0.90023
5570.12,0.90038
5564.34,0.89790
5558.55,0.89879
5552.76,0.90005
5546.98,0.89810
5541.19,0.89802
5535.41,0.89549
5529.62,0.89479
5523.83,0.89547
5518.05,0.89615
5512.26,0.89944
5506.47,0.89173
5500.69,0.89614
5494.9,0.89128
5489.12,0.88671
5483.33,0.89948
5477.54,0.89319
5471.76,0.89449
5465.97,0.89112
5460.19,0.88966
5454.4,0.89768
5448.61,0.88992
5442.83,0.88373
5437.04,0.89494
5431.25,0.88889
5425.47,0.89404
5419.68,0.90399
5413.9,0.88778
5408.11,0.89743
5402.32,0.90887
5396.54,0.90326
5390.75,0.90493
5384.97,0.90205
5379.18,0.90747
5373.39,0.90760
5367.61,0.91262
5361.82,0.91004
5356.04,0.90097
5350.25,0.89988
5344.46,0.89251
5338.68,0.89245
5332.89,0.90832
5327.1,0.90329
5321.32,0.91436
5315.53,0.91583
5309.75,0.91402
5303.96,0.91078
5298.17,0.91614
5292.39,0.91024
5286.6,0.91043
5280.82,0.91278
5275.03,0.91906
5269.24,0.91318
5263.46,0.89653
5257.67,0.90931
5251.88,0.91079
5246.1,0.89590
5240.31,0.91545
5234.53,0.91256
5228.74,0.90636
5222.95,0.90696
5217.17,0.91196
5211.38,0.91389
5205.6,0.90181
5199.81,0.91683
5194.02,0.91631
5188.24,0.91195
5182.45,0.91435
5176.66,0.91729
5170.88,0.91541
5165.09,0.91654
5159.31,0.91331
5153.52,0.91538
5147.73,0.92001
5141.95,0.91759
5136.16,0.92147
5130.38,0.91994
5124.59,0.92227
5118.8,0.91899
5113.02,0.92012
5107.23,0.92151
5101.45,0.92319
5095.66,0.92058
5089.87,0.92161
5084.09,0.92187
5078.3,0.92178
5072.51,0.92069
5066.73,0.92234
5060.94,0.92237
5055.16,0.92252
5049.37,0.92138
5043.58,0.92224
5037.8,0.92290
5032.01,0.92340
5026.23,0.92312
5020.44,0.92239
5014.65,0.92401
5008.87,0.92289
5003.08,0.92250
4997.29,0.92128
4991.51,0.92163
4985.72,0.92040
4979.94,0.91933
4974.15,0.91962
4968.36,0.91908
4962.58,0.92000
4956.79,0.92244
4951.01,0.92201
4945.22,0.92248
4939.43,0.92086
4933.65,0.92178
4927.86,0.92262
4922.07,0.92423
4916.29,0.92307
4910.5,0.92337
4904.72,0.92307
4898.93,0.92448
4893.14,0.92430
4887.36,0.92389
4881.57,0.92100
4875.79,0.92269
4870,0.92179
4864.21,0.92282
4858.43,0.92381
4852.64,0.92411
4846.85,0.92378
4841.07,0.92436
4835.28,0.92499
4829.5,0.92623
4823.71,0.92788
4817.92,0.92717
4812.14,0.92721
4806.35,0.92615
4800.57,0.92903
4794.78,0.92869
4788.99,0.92972
4783.21,0.92866
4777.42,0.92908
4771.64,0.92837
4765.85,0.92880
4760.06,0.92986
4754.28,0.92955
4748.49,0.92878
4742.7,0.92873
4736.92,0.92843
4731.13,0.92928
4725.35,0.93064
4719.56,0.93201
4713.77,0.93073
4707.99,0.92982
4702.2,0.92970
4696.42,0.92930
4690.63,0.93129
4684.84,0.93123
4679.06,0.93059
4673.27,0.92874
4667.48,0.92937
4661.7,0.92955
4655.91,0.92974
4650.13,0.92996
4644.34,0.93067
4638.55,0.92995
4632.77,0.92907
4626.98,0.92935
4621.2,0.92901
4615.41,0.92989
4609.62,0.93013
4603.84,0.92971
4598.05,0.92941
4592.26,0.92995
4586.48,0.92953
4580.69,0.93018
4574.91,0.92897
4569.12,0.92789
4563.33,0.92566
4557.55,0.92704
4551.76,0.92620
4545.98,0.92704
4540.19,0.92662
4534.4,0.92485
4528.62,0.92369
4522.83,0.92372
4517.05,0.92448
4511.26,0.92231
4505.47,0.92141
4499.69,0.92008
4493.9,0.91822
4488.11,0.91775
4482.33,0.91706
4476.54,0.91548
4470.76,0.91437
4464.97,0.91125
4459.18,0.90943
4453.4,0.90763
4447.61,0.90537
4441.83,0.90185
4436.04,0.89819
4430.25,0.89447
4424.47,0.89012
4418.68,0.88303
4412.89,0.87463
4407.11,0.86609
4401.32,0.85316
4395.54,0.84036
4389.75,0.82793
4383.96,0.81449
4378.18,0.80098
4372.39,0.78631
4366.61,0.77012
4360.82,0.75097
4355.03,0.71903
4349.25,0.67257
4343.46,0.60979
4337.67,0.55374
4331.89,0.49668
4326.1,0.40269
4320.32,0.38168
4314.53,0.56035
4308.74,0.67835
4302.96,0.72295
4297.17,0.73700
4291.39,0.73391
4285.6,0.72370
4279.81,0.71285
4274.03,0.69863
4268.24,0.66732
4262.46,0.61150
4256.67,0.53042
4250.88,0.48661
4245.1,0.58395
4239.31,0.65941
4233.52,0.67377
4227.74,0.65792
4221.95,0.63795
4216.17,0.63809
4210.38,0.64268
4204.59,0.63145
4198.81,0.60352
4193.02,0.58483
4187.24,0.58683
4181.45,0.59027
4175.66,0.59250
4169.88,0.59474
4164.09,0.59639
4158.3,0.59901
4152.52,0.59954
4146.73,0.60131
4140.95,0.60589
4135.16,0.61131
4129.37,0.61496
4123.59,0.61797
4117.8,0.61907
4112.02,0.61933
4106.23,0.61733
4100.44,0.61757
4094.66,0.62369
4088.87,0.64525
4083.08,0.67070
4077.3,0.68655
4071.51,0.69878
4065.73,0.70866
4059.94,0.71686
4054.15,0.72439
4048.37,0.73072
4042.58,0.73693
4036.8,0.74543
4031.01,0.74769
4025.22,0.74419
4019.44,0.74837
4013.65,0.76974
4007.86,0.78035
4002.08,0.78849
3996.29,0.78847
3990.51,0.78677
3984.72,0.78640
3978.93,0.78458
3973.15,0.78351
3967.36,0.79282
3961.58,0.79288
3955.79,0.79480
3950,0.78383
3944.22,0.78216
3938.43,0.78973
3932.65,0.77037
3926.86,0.76978
3921.07,0.76762
3915.29,0.76723
3909.5,0.77681
3903.71,0.73865
3897.93,0.75928
3892.14,0.75889
3886.36,0.76106
3880.57,0.75590
3874.78,0.76068
3869,0.74822
3863.21,0.75809
3857.43,0.77079
3851.64,0.74931
3845.85,0.78355
3840.07,0.74421
3834.28,0.76305
3828.49,0.77944
3822.71,0.75875
3816.92,0.76003
3811.14,0.79465
3805.35,0.77403
3799.56,0.77232
3793.78,0.81359
3787.99,0.81955
3782.21,0.81151
3776.42,0.81989
3770.63,0.80789
3764.85,0.81100
3759.06,0.79979
3753.27,0.78146
3747.49,0.76411
3741.7,0.78681
3735.92,0.75671
3730.13,0.79707
3724.34,0.79209
3718.56,0.81400
3712.77,0.78794
3706.99,0.80403
3701.2,0.80518
3695.41,0.81029
3689.63,0.77079
3683.84,0.81356
3678.06,0.78022
3672.27,0.76940
3666.48,0.80220
3660.7,0.80867
3654.91,0.78302
3649.12,0.72439
3643.34,0.77612
3637.55,0.79154
3631.77,0.77889
3625.98,0.78358
3620.19,0.76917
3614.41,0.74999
3608.62,0.72924
3602.84,0.73093
3597.05,0.76513
3591.26,0.81510
3585.48,0.82726
3579.69,0.85715
3573.9,0.86357
3568.12,0.83656
3562.33,0.85904
3556.55,0.88130
3550.76,0.87688
3544.97,0.86975
3539.19,0.89027
3533.4,0.88695
3527.62,0.87113
3521.83,0.88208
3516.04,0.89559
3510.26,0.88749
3504.47,0.88121
3498.68,0.88629
3492.9,0.88913
3487.11,0.88643
3481.33,0.88303
3475.54,0.88737
3469.75,0.88402
3463.97,0.87782
3458.18,0.87867
3452.4,0.87887
3446.61,0.86967
3440.82,0.87396
3435.04,0.87426
3429.25,0.87117
3423.47,0.87068
3417.68,0.87402
3411.89,0.87861
3406.11,0.87658
3400.32,0.87203
3394.53,0.86778
3388.75,0.87012
3382.96,0.86907
3377.18,0.86829
3371.39,0.86465
3365.6,0.86088
3359.82,0.86427
3354.03,0.86818
3348.25,0.87348
3342.46,0.87621
3336.67,0.87511
3330.89,0.87509
3325.1,0.87616
3319.31,0.87882
3313.53,0.87925
3307.74,0.87966
3301.96,0.88146
3296.17,0.87750
3290.38,0.87667
3284.6,0.87919
3278.81,0.87952
3273.03,0.87645
3267.24,0.87681
3261.45,0.87494
3255.67,0.87420
3249.88,0.87739
3244.09,0.87508
3238.31,0.87391
3232.52,0.86966
3226.74,0.86713
3220.95,0.86576
3215.16,0.86248
3209.38,0.86166
3203.59,0.85844
3197.81,0.85179
3192.02,0.84958
3186.23,0.84873
3180.45,0.84735
3174.66,0.84398
3168.87,0.83894
3163.09,0.83483
3157.3,0.83273
3151.52,0.82956
3145.73,0.82515
3139.94,0.81811
3134.16,0.81014
3128.37,0.80465
3122.59,0.79561
3116.8,0.78350
3111.01,0.76951
3105.23,0.75095
3099.44,0.72246
3093.66,0.68820
3087.87,0.65502
3082.08,0.63149
3076.3,0.61675
3070.51,0.60305
3064.72,0.58575
3058.94,0.56553
3053.15,0.54202
3047.37,0.51511
3041.58,0.48492
3035.79,0.45140
3030.01,0.42197
3024.22,0.39803
3018.44,0.37371
3012.65,0.34666
3006.86,0.31863
3001.08,0.28582
2995.29,0.24655
2989.5,0.19947
2983.72,0.14118
2977.93,0.07878
2972.15,0.02817
2966.36,0.00577
2960.57,0.00092
2954.79,0.00109
2949,0.00093
2943.22,0.00094
2937.43,0.00075
2931.64,0.00094
2925.86,0.00130
2920.07,0.00088
2914.28,0.00119
2908.5,0.00140
2902.71,0.00120
2896.93,0.00072
2891.14,0.00075
2885.35,0.00102
2879.57,0.00067
2873.78,0.00100
2868,0.00112
2862.21,0.00060
2856.42,0.00082
2850.64,0.00061
2844.85,0.00084
2839.07,0.00071
2833.28,0.00398
2827.49,0.01679
2821.71,0.03945
2815.92,0.06923
2810.13,0.10194
2804.35,0.13738
2798.56,0.17576
2792.78,0.21945
2786.99,0.26778
2781.2,0.31475
2775.42,0.35418
2769.63,0.38522
2763.85,0.40822
2758.06,0.42606
2752.27,0.43916
2746.49,0.44312
2740.7,0.44109
2734.91,0.44350
2729.13,0.45206
2723.34,0.46749
2717.56,0.48249
2711.77,0.49384
2705.98,0.50318
2700.2,0.51044
2694.41,0.50885
2688.63,0.49793
2682.84,0.48717
2677.05,0.47752
2671.27,0.46663
2665.48,0.46171
2659.69,0.46513
2653.91,0.47281
2648.12,0.47995
2642.34,0.47876
2636.55,0.47645
2630.76,0.49081
2624.98,0.51816
2619.19,0.54453
2613.41,0.56820
2607.62,0.58916
2601.83,0.60841
2596.05,0.62547
2590.26,0.64546
2584.47,0.66580
2578.69,0.68277
2572.9,0.69889
2567.12,0.71409
2561.33,0.72696
2555.54,0.73524
2549.76,0.73883
2543.97,0.75171
2538.19,0.76437
2532.4,0.76212
2526.61,0.76375
2520.83,0.77830
2515.04,0.79218
2509.26,0.80137
2503.47,0.80890
2497.68,0.81601
2491.9,0.82194
2486.11,0.82499
2480.32,0.82464
2474.54,0.82389
2468.75,0.83697
2462.97,0.84763
2457.18,0.85147
2451.39,0.85150
2445.61,0.84981
2439.82,0.84787
2434.04,0.84660
2428.25,0.84414
2422.46,0.83739
2416.68,0.82970
2410.89,0.83173
2405.1,0.83601
2399.32,0.83969
2393.53,0.84323
2387.75,0.84215
2381.96,0.82104
2376.17,0.77375
2370.39,0.72753
2364.6,0.69060
2358.82,0.67492
2353.03,0.68797
2347.24,0.69419
2341.46,0.66114
2335.67,0.66431
2329.88,0.66919
2324.1,0.68767
2318.31,0.71894
2312.53,0.74658
2306.74,0.77128
2300.95,0.79055
2295.17,0.80600
2289.38,0.81906
2283.6,0.82798
2277.81,0.82801
2272.02,0.83208
2266.24,0.84189
2260.45,0.84912
2254.67,0.85424
2248.88,0.85587
2243.09,0.85472
2237.31,0.86138
2231.52,0.86854
2225.73,0.86977
2219.95,0.87181
2214.16,0.87642
2208.38,0.87749
2202.59,0.87454
2196.8,0.87117
2191.02,0.87053
2185.23,0.87264
2179.45,0.87548
2173.66,0.87541
2167.87,0.87131
2162.09,0.86462
2156.3,0.86058
2150.51,0.86143
2144.73,0.86720
2138.94,0.87459
2133.16,0.87943
2127.37,0.88150
2121.58,0.88507
2115.8,0.88942
2110.01,0.89392
2104.23,0.89323
2098.44,0.88869
2092.65,0.88328
2086.87,0.88139
2081.08,0.88442
2075.29,0.88542
2069.51,0.88249
2063.72,0.87241
2057.94,0.86596
2052.15,0.86118
2046.36,0.85843
2040.58,0.85207
2034.79,0.84515
2029.01,0.82839
2023.22,0.80791
2017.43,0.79767
2011.65,0.83885
2005.86,0.87291
2000.08,0.88686
1994.29,0.88300
1988.5,0.87977
1982.72,0.88512
1976.93,0.89073
1971.14,0.89475
1965.36,0.88851
1959.57,0.88710
1953.79,0.87961
1948,0.87650
1942.21,0.87100
1936.43,0.89006
1930.64,0.89000
1924.86,0.87391
1919.07,0.85831
1913.28,0.86141
1907.5,0.85369
1901.71,0.85644
1895.92,0.84669
1890.14,0.85226
1884.35,0.87232
1878.57,0.88021
1872.78,0.88445
1866.99,0.87481
1861.21,0.90462
1855.42,0.90239
1849.64,0.88756
1843.85,0.86285
1838.06,0.88964
1832.28,0.88975
1826.49,0.87874
1820.7,0.88396
1814.92,0.87406
1809.13,0.86340
1803.35,0.87156
1797.56,0.87268
1791.77,0.86243
1785.99,0.88419
1780.2,0.86338
1774.42,0.84018
1768.63,0.84812
1762.84,0.85753
1757.06,0.83449
1751.27,0.77641
1745.48,0.73900
1739.7,0.74296
1733.91,0.76381
1728.13,0.81895
1722.34,0.80539
1716.55,0.73502
1710.77,0.76849
1704.98,0.77077
1699.2,0.76464
1693.41,0.83372
1687.62,0.83285
1681.84,0.81727
1676.05,0.82802
1670.27,0.80371
1664.48,0.83687
1658.69,0.85211
1652.91,0.80205
1647.12,0.79211
1641.33,0.81834
1635.55,0.78145
1629.76,0.82107
1623.98,0.81569
1618.19,0.82088
1612.4,0.82997
1606.62,0.81481
1600.83,0.81391
1595.05,0.81733
1589.26,0.83163
1583.47,0.83627
1577.69,0.80074
1571.9,0.79165
1566.11,0.78753
1560.33,0.76234
1554.54,0.77880
1548.76,0.79085
1542.97,0.71919
1537.18,0.73129
1531.4,0.74087
1525.61,0.72402
1519.83,0.70828
1514.04,0.71491
1508.25,0.64937
1502.47,0.65893
1496.68,0.61832
1490.89,0.57386
1485.11,0.48043
1479.32,0.28098
1473.54,0.02075
1467.75,0.00041
1461.96,0.00060
1456.18,0.01938
1450.39,0.07840
1444.61,0.13691
1438.82,0.18583
1433.03,0.30568
1427.25,0.49892
1421.46,0.60753
1415.68,0.65906
1409.89,0.69802
1404.1,0.72181
1398.32,0.71485
1392.53,0.70547
1386.74,0.64437
1380.96,0.44191
1375.17,0.38226
1369.39,0.37266
1363.6,0.40764
1357.81,0.46657
1352.03,0.46472
1346.24,0.52273
1340.46,0.57983
1334.67,0.66537
1328.88,0.69025
1323.1,0.65895
1317.31,0.59977
1311.52,0.56017
1305.74,0.54870
1299.95,0.56135
1294.17,0.59280
1288.38,0.62007
1282.59,0.63455
1276.81,0.64511
1271.02,0.66049
1265.24,0.69053
1259.45,0.71038
1253.66,0.71244
1247.88,0.70744
1242.09,0.71814
1236.3,0.73866
1230.52,0.75789
1224.73,0.76276
1218.95,0.75445
1213.16,0.74213
1207.37,0.74176
1201.59,0.75989
1195.8,0.77357
1190.02,0.76903
1184.23,0.75342
1178.44,0.73238
1172.66,0.73404
1166.87,0.74671
1161.09,0.76043
1155.3,0.75987
1149.51,0.74695
1143.73,0.73877
1137.94,0.74882
1132.15,0.77122
1126.37,0.79064
1120.58,0.78883
1114.8,0.76816
1109.01,0.75231
1103.22,0.74950
1097.44,0.75770
1091.65,0.75900
1085.87,0.74137
1080.08,0.71851
1074.29,0.72296
1068.51,0.73773
1062.72,0.75476
1056.93,0.78135
1051.15,0.78034
1045.36,0.77442
1039.58,0.76004
1033.79,0.75301
1028,0.75166
1022.22,0.73875
1016.43,0.73223
1010.65,0.76146
1004.86,0.77731
999.073,0.78908
993.287,0.81525
987.501,0.84457
981.715,0.85080
975.929,0.82459
970.142,0.79289
964.356,0.78620
958.57,0.80980
952.784,0.84466
946.998,0.85804
941.212,0.84033
935.426,0.81763
929.64,0.81370
923.853,0.83573
918.067,0.86217
912.281,0.86159
906.495,0.83834
900.709,0.82011
894.923,0.81048
889.137,0.82681
883.35,0.86088
877.564,0.87543
871.778,0.85432
865.992,0.82584
860.206,0.81991
854.42,0.84236
848.634,0.87128
842.847,0.87726
837.061,0.84959
831.275,0.81907
825.489,0.81281
819.703,0.83506
813.917,0.85745
808.131,0.85274
802.344,0.81738
796.558,0.77885
790.772,0.76446
784.986,0.77183
779.2,0.76799
773.414,0.74159
767.628,0.71834
761.842,0.70746
756.055,0.70580
750.269,0.70152
744.483,0.65598
738.697,0.51137
732.911,0.16660
727.125,0.04726
721.339,0.02098
715.552,0.13287
709.766,0.41950
703.98,0.62884
698.194,0.77124
692.408,0.81787
686.622,0.79858
680.836,0.79239
675.049,0.82679
669.263,0.83086
663.477,0.91018
657.691,0.88608
651.905,0.85185
646.119,0.84996
640.333,0.89458
634.546,0.94219
628.76,0.95465
622.974,0.91541
617.188,0.87129
611.402,0.87427
605.616,0.90954
599.83,0.94758