File: 01_Data/PEVA/FTIR/IS/PEVA_0.10_IS_T_240808_R5.dpt
7496.93,0.03726
7491.14,0.02532
7485.35,0.03382
7479.57,0.04010
7473.78,0.04052
7468,0.03387
7462.21,0.04620
7456.42,0.04531
7450.64,0.05190
7444.85,0.02507
7439.06,0.03263
7433.28,0.02568
7427.49,0.03356
7421.71,0.03267
7415.92,0.03611
7410.13,0.03752
7404.35,0.03977
7398.56,0.03221
7392.78,0.03700
7386.99,0.03973
7381.2,0.04063
7375.42,0.03639
7369.63,0.03818
7363.84,0.04090
7358.06,0.04497
7352.27,0.02777
7346.49,0.03316
7340.7,0.03552
7334.91,0.03393
7329.13,0.03363
7323.34,0.03294
7317.56,0.02858
7311.77,0.03528
7305.98,0.03794
7300.2,0.03090
7294.41,0.02888
7288.62,0.02831
7282.84,0.03753
7277.05,0.03748
7271.27,0.03434
7265.48,0.02997
7259.69,0.03406
7253.91,0.03102
7248.12,0.02820
7242.34,0.02612
7236.55,0.04864
7230.76,0.02906
7224.98,0.03060
7219.19,0.03008
7213.4,0.03119
7207.62,0.02791
7201.83,0.04777
7196.05,0.03392
7190.26,0.04035
7184.47,0.03230
7178.69,0.03790
7172.9,0.03165
7167.12,0.02139
7161.33,0.04032
7155.54,0.03267
7149.76,0.02931
7143.97,0.03283
7138.18,0.03486
7132.4,0.02848
7126.61,0.03448
7120.83,0.02663
7115.04,0.04364
7109.25,0.04363
7103.47,0.03026
7097.68,0.02790
7091.9,0.03711
7086.11,0.02945
7080.32,0.04175
7074.54,0.03546
7068.75,0.03336
7062.96,0.04009
7057.18,0.04274
7051.39,0.02979
7045.61,0.02664
7039.82,0.03083
7034.03,0.03213
7028.25,0.04046
7022.46,0.03433
7016.68,0.03380
7010.89,0.02726
7005.1,0.03346
6999.32,0.03178
6993.53,0.03060
6987.74,0.02624
6981.96,0.03476
6976.17,0.03477
6970.39,0.03473
6964.6,0.03547
6958.81,0.02825
6953.03,0.02597
6947.24,0.02902
6941.46,0.02549
6935.67,0.03587
6929.88,0.03202
6924.1,0.02789
6918.31,0.03005
6912.52,0.03309
6906.74,0.03448
6900.95,0.03300
6895.17,0.03337
6889.38,0.03785
6883.59,0.03088
6877.81,0.03363
6872.02,0.04077
6866.24,0.03087
6860.45,0.02267
6854.66,0.03060
6848.88,0.03350
6843.09,0.02674
6837.3,0.02858
6831.52,0.02562
6825.73,0.03721
6819.95,0.03925
6814.16,0.03061
6808.37,0.02368
6802.59,0.02796
6796.8,0.02673
6791.02,0.03354
6785.23,0.04280
6779.44,0.03203
6773.66,0.03043
6767.87,0.03219
6762.08,0.03876
6756.3,0.03222
6750.51,0.03753
6744.73,0.02765
6738.94,0.03201
6733.15,0.03062
6727.37,0.03769
6721.58,0.03561
6715.8,0.03728
6710.01,0.03458
6704.22,0.03524
6698.44,0.03177
6692.65,0.03010
6686.86,0.03260
6681.08,0.02968
6675.29,0.03224
6669.51,0.03099
6663.72,0.03108
6657.93,0.03197
6652.15,0.03779
6646.36,0.03194
6640.58,0.03186
6634.79,0.03338
6629,0.02646
6623.22,0.02989
6617.43,0.03195
6611.64,0.03075
6605.86,0.03507
6600.07,0.03798
6594.29,0.02767
6588.5,0.03239
6582.71,0.02781
6576.93,0.03031
6571.14,0.03609
6565.36,0.03508
6559.57,0.02976
6553.78,0.03562
6548,0.03453
6542.21,0.02865
6536.42,0.02432
6530.64,0.03121
6524.85,0.03405
6519.07,0.02718
6513.28,0.03255
6507.49,0.03624
6501.71,0.03184
6495.92,0.03427
6490.14,0.03112
6484.35,0.02974
6478.56,0.03133
6472.78,0.03357
6466.99,0.03369
6461.2,0.03693
6455.42,0.03477
6449.63,0.02798
6443.85,0.02933
6438.06,0.03021
6432.27,0.03082
6426.49,0.03862
6420.7,0.03336
6414.92,0.02971
6409.13,0.03185
6403.34,0.03295
6397.56,0.02683
6391.77,0.02969
6385.98,0.02808
6380.2,0.02605
6374.41,0.03088
6368.63,0.03276
6362.84,0.02761
6357.05,0.02984
6351.27,0.03044
6345.48,0.02817
6339.7,0.03017
6333.91,0.03292
6328.12,0.02681
6322.34,0.02677
6316.55,0.02583
6310.76,0.03322
6304.98,0.03187
6299.19,0.02931
6293.41,0.03282
6287.62,0.03145
6281.83,0.03447
6276.05,0.03158
6270.26,0.02985
6264.48,0.03290
6258.69,0.02755
6252.9,0.02972
6247.12,0.03311
6241.33,0.03299
6235.54,0.02974
6229.76,0.03332
6223.97,0.02839
6218.19,0.03309
6212.4,0.02753
6206.61,0.03190
6200.83,0.03072
6195.04,0.02939
6189.26,0.02946
6183.47,0.03187
6177.68,0.02708
6171.9,0.02645
6166.11,0.02943
6160.32,0.03139
6154.54,0.02881
6148.75,0.02684
6142.97,0.03037
6137.18,0.03108
6131.39,0.03159
6125.61,0.02817
6119.82,0.02955
6114.04,0.02717
6108.25,0.03103
6102.46,0.03080
6096.68,0.02780
6090.89,0.02296
6085.1,0.02651
6079.32,0.02954
6073.53,0.03437
6067.75,0.02810
6061.96,0.03032
6056.17,0.03225
6050.39,0.02891
6044.6,0.02993
6038.82,0.02995
6033.03,0.02763
6027.24,0.02878
6021.46,0.02960
6015.67,0.02797
6009.88,0.03006
6004.1,0.03129
5998.31,0.03139
5992.53,0.02867
5986.74,0.02879
5980.95,0.02688
5975.17,0.02717
5969.38,0.03018
5963.6,0.02896
5957.81,0.03248
5952.02,0.02766
5946.24,0.02990
5940.45,0.02824
5934.66,0.03006
5928.88,0.03094
5923.09,0.03063
5917.31,0.03042
5911.52,0.03113
5905.73,0.03390
5899.95,0.03263
5894.16,0.03039
5888.38,0.02931
5882.59,0.02883
5876.8,0.03122
5871.02,0.03107
5865.23,0.03148
5859.44,0.02961
5853.66,0.02784
5847.87,0.02755
5842.09,0.03291
5836.3,0.02867
5830.51,0.02917
5824.73,0.03057
5818.94,0.02989
5813.16,0.03158
5807.37,0.02840
5801.58,0.02966
5795.8,0.02759
5790.01,0.02945
5784.22,0.02798
5778.44,0.03030
5772.65,0.02844
5766.87,0.03198
5761.08,0.03134
5755.29,0.02956
5749.51,0.03307
5743.72,0.03056
5737.94,0.02698
5732.15,0.02906
5726.36,0.02998
5720.58,0.02938
5714.79,0.02894
5709,0.02689
5703.22,0.02677
5697.43,0.02903
5691.65,0.03031
5685.86,0.03020
5680.07,0.02937
5674.29,0.03328
5668.5,0.03106
5662.72,0.02717
5656.93,0.02826
5651.14,0.02873
5645.36,0.03128
5639.57,0.02847
5633.78,0.02895
5628,0.03231
5622.21,0.03013
5616.43,0.02783
5610.64,0.02891
5604.85,0.02988
5599.07,0.03104
5593.28,0.03095
5587.5,0.02794
5581.71,0.03003
5575.92,0.03228
5570.14,0.02971
5564.35,0.02955
5558.56,0.03037
5552.78,0.02905
5546.99,0.03083
5541.21,0.03007
5535.42,0.02970
5529.63,0.03125
5523.85,0.03052
5518.06,0.03113
5512.28,0.02857
5506.49,0.03024
5500.7,0.03060
5494.92,0.03132
5489.13,0.03176
5483.34,0.02935
5477.56,0.02818
5471.77,0.03049
5465.99,0.03070
5460.2,0.03023
5454.41,0.03083
5448.63,0.02856
5442.84,0.03227
5437.06,0.03170
5431.27,0.03033
5425.48,0.02811
5419.7,0.03051
5413.91,0.03025
5408.12,0.03045
5402.34,0.03030
5396.55,0.03153
5390.77,0.02857
5384.98,0.02802
5379.19,0.02770
5373.41,0.02898
5367.62,0.02845
5361.84,0.02929
5356.05,0.03251
5350.26,0.03062
5344.48,0.02829
5338.69,0.02905
5332.9,0.03100
5327.12,0.03055
5321.33,0.02995
5315.55,0.03014
5309.76,0.02965
5303.97,0.02944
5298.19,0.02889
5292.4,0.03042
5286.62,0.03058
5280.83,0.02984
5275.04,0.02983
5269.26,0.03083
5263.47,0.02896
5257.68,0.02906
5251.9,0.03074
5246.11,0.02993
5240.33,0.02825
5234.54,0.02990
5228.75,0.02915
5222.97,0.02914
5217.18,0.03027
5211.4,0.03203
5205.61,0.02875
5199.82,0.03058
5194.04,0.03031
5188.25,0.02930
5182.46,0.03061
5176.68,0.03033
5170.89,0.02849
5165.11,0.03130
5159.32,0.03016
5153.53,0.02883
5147.75,0.03013
5141.96,0.03082
5136.18,0.02907
5130.39,0.02937
5124.6,0.02900
5118.82,0.02998
5113.03,0.03019
5107.24,0.02886
5101.46,0.03027
5095.67,0.02869
5089.89,0.02865
5084.1,0.03060
5078.31,0.02998
5072.53,0.02815
5066.74,0.02879
5060.96,0.02986
5055.17,0.03112
5049.38,0.03042
5043.6,0.02876
5037.81,0.02998
5032.02,0.02845
5026.24,0.02911
5020.45,0.02885
5014.67,0.03004
5008.88,0.02971
5003.09,0.03005
4997.31,0.02945
4991.52,0.02943
4985.74,0.02950
4979.95,0.02959
4974.16,0.03002
4968.38,0.03068
4962.59,0.02970
4956.8,0.02896
4951.02,0.02893
4945.23,0.02931
4939.45,0.02929
4933.66,0.03050
4927.87,0.02943
4922.09,0.03000
4916.3,0.03037
4910.52,0.03058
4904.73,0.02961
4898.94,0.02922
4893.16,0.02927
4887.37,0.02970
4881.58,0.02966
4875.8,0.03136
4870.01,0.03023
4864.23,0.02970
4858.44,0.03075
4852.65,0.02952
4846.87,0.02991
4841.08,0.02886
4835.3,0.03010
4829.51,0.02970
4823.72,0.02945
4817.94,0.02981
4812.15,0.02826
4806.36,0.02923
4800.58,0.02944
4794.79,0.02848
4789.01,0.02934
4783.22,0.02903
4777.43,0.02896
4771.65,0.02995
4765.86,0.02943
4760.08,0.02960
4754.29,0.02965
4748.5,0.02874
4742.72,0.02881
4736.93,0.02882
4731.14,0.02891
4725.36,0.02922
4719.57,0.02915
4713.79,0.02895
4708,0.02912
4702.21,0.02967
4696.43,0.03007
4690.64,0.02988
4684.86,0.03027
4679.07,0.02958
4673.28,0.02986
4667.5,0.03050
4661.71,0.02910
4655.92,0.02989
4650.14,0.02995
4644.35,0.02936
4638.57,0.02886
4632.78,0.02901
4626.99,0.03022
4621.21,0.03048
4615.42,0.02849
4609.64,0.02979
4603.85,0.02925
4598.06,0.02906
4592.28,0.02997
4586.49,0.02924
4580.7,0.02835
4574.92,0.02908
4569.13,0.02965
4563.35,0.03016
4557.56,0.03050
4551.77,0.02913
4545.99,0.02960
4540.2,0.02900
4534.42,0.02849
4528.63,0.02950
4522.84,0.02948
4517.06,0.02983
4511.27,0.02997
4505.48,0.02855
4499.7,0.03017
4493.91,0.02978
4488.13,0.02918
4482.34,0.02960
4476.55,0.02901
4470.77,0.02969
4464.98,0.02882
4459.2,0.02804
4453.41,0.02948
4447.62,0.02922
4441.84,0.02961
4436.05,0.02944
4430.26,0.02883
4424.48,0.02990
4418.69,0.02919
4412.91,0.02922
4407.12,0.03008
4401.33,0.02937
4395.55,0.02910
4389.76,0.02850
4383.98,0.02921
4378.19,0.02871
4372.4,0.02950
4366.62,0.02956
4360.83,0.02919
4355.04,0.02920
4349.26,0.02897
4343.47,0.02828
4337.69,0.02909
4331.9,0.02922
4326.11,0.02876
4320.33,0.02960
4314.54,0.02924
4308.76,0.02886
4302.97,0.02935
4297.18,0.02953
4291.4,0.02906
4285.61,0.02940
4279.82,0.02935
4274.04,0.02846
4268.25,0.02934
4262.47,0.02995
4256.68,0.02958
4250.89,0.02945
4245.11,0.02945
4239.32,0.02874
4233.54,0.03048
4227.75,0.03026
4221.96,0.03003
4216.18,0.02939
4210.39,0.02957
4204.6,0.02938
4198.82,0.02930
4193.03,0.02971
4187.25,0.02924
4181.46,0.02895
4175.67,0.02920
4169.89,0.02900
4164.1,0.02923
4158.32,0.02906
4152.53,0.02928
4146.74,0.02914
4140.96,0.02935
4135.17,0.02973
4129.38,0.02912
4123.6,0.02905
4117.81,0.02910
4112.03,0.02849
4106.24,0.02905
4100.45,0.02905
4094.67,0.02954
4088.88,0.02918
4083.1,0.02907
4077.31,0.02935
4071.52,0.02902
4065.74,0.02988
4059.95,0.02994
4054.16,0.02962
4048.38,0.02980
4042.59,0.02926
4036.81,0.02950
4031.02,0.02916
4025.23,0.02893
4019.45,0.02941
4013.66,0.02955
4007.88,0.02910
4002.09,0.02953
3996.3,0.02996
3990.52,0.03004
3984.73,0.02908
3978.94,0.02939
3973.16,0.02946
3967.37,0.02951
3961.59,0.02865
3955.8,0.02942
3950.01,0.02961
3944.23,0.02939
3938.44,0.02901
3932.66,0.02941
3926.87,0.03006
3921.08,0.02943
3915.3,0.02908
3909.51,0.02974
3903.72,0.03065
3897.94,0.02909
3892.15,0.02974
3886.37,0.02985
3880.58,0.03017
3874.79,0.02968
3869.01,0.02949
3863.22,0.02885
3857.44,0.02939
3851.65,0.02955
3845.86,0.03015
3840.08,0.02982
3834.29,0.02928
3828.5,0.02924
3822.72,0.03009
3816.93,0.02992
3811.15,0.03080
3805.36,0.03002
3799.57,0.03003
3793.79,0.02906
3788,0.02973
3782.22,0.02920
3776.43,0.02861
3770.64,0.02941
3764.86,0.02958
3759.07,0.02973
3753.28,0.02951
3747.5,0.02872
3741.71,0.03032
3735.93,0.02996
3730.14,0.02933
3724.35,0.02961
3718.57,0.02939
3712.78,0.02973
3707,0.02958
3701.21,0.02832
3695.42,0.02875
3689.64,0.02925
3683.85,0.02837
3678.06,0.03058
3672.28,0.03003
3666.49,0.02829
3660.71,0.02792
3654.92,0.02786
3649.13,0.02930
3643.35,0.02835
3637.56,0.02830
3631.78,0.02845
3625.99,0.02839
3620.2,0.02790
3614.42,0.02931
3608.63,0.02837
3602.84,0.02724
3597.06,0.02687
3591.27,0.02791
3585.49,0.02700
3579.7,0.02719
3573.91,0.02686
3568.13,0.02700
3562.34,0.02710
3556.56,0.02673
3550.77,0.02649
3544.98,0.02689
3539.2,0.02680
3533.41,0.02671
3527.62,0.02619
3521.84,0.02612
3516.05,0.02624
3510.27,0.02642
3504.48,0.02660
3498.69,0.02686
3492.91,0.02610
3487.12,0.02562
3481.34,0.02710
3475.55,0.02584
3469.76,0.02599
3463.98,0.02527
3458.19,0.02568
3452.4,0.02618
3446.62,0.02594
3440.83,0.02533
3435.05,0.02552
3429.26,0.02620
3423.47,0.02507
3417.69,0.02553
3411.9,0.02576
3406.12,0.02550
3400.33,0.02543
3394.54,0.02489
3388.76,0.02529
3382.97,0.02613
3377.18,0.02594
3371.4,0.02570
3365.61,0.02561
3359.83,0.02603
3354.04,0.02625
3348.25,0.02559
3342.47,0.02560
3336.68,0.02488
3330.9,0.02528
3325.11,0.02591
3319.32,0.02533
3313.54,0.02550
3307.75,0.02558
3301.96,0.02448
3296.18,0.02569
3290.39,0.02680
3284.61,0.02635
3278.82,0.02522
3273.03,0.02655
3267.25,0.02618
3261.46,0.02610
3255.68,0.02584
3249.89,0.02597
3244.1,0.02650
3238.32,0.02683
3232.53,0.02635
3226.74,0.02668
3220.96,0.02533
3215.17,0.02667
3209.39,0.02634
3203.6,0.02530
3197.81,0.02652
3192.03,0.02600
3186.24,0.02591
3180.46,0.02661
3174.67,0.02501
3168.88,0.02602
3163.1,0.02589
3157.31,0.02644
3151.52,0.02602
3145.74,0.02638
3139.95,0.02560
3134.17,0.02656
3128.38,0.02637
3122.59,0.02639
3116.81,0.02669
3111.02,0.02653
3105.24,0.02651
3099.45,0.02637
3093.66,0.02651
3087.88,0.02572
3082.09,0.02626
3076.3,0.02634
3070.52,0.02628
3064.73,0.02602
3058.95,0.02670
3053.16,0.02624
3047.37,0.02589
3041.59,0.02604
3035.8,0.02632
3030.02,0.02637
3024.23,0.02603
3018.44,0.02630
3012.66,0.02735
3006.87,0.02609
3001.08,0.02634
2995.3,0.02625
2989.51,0.02562
2983.73,0.02490
2977.94,0.02565
2972.15,0.02532
2966.37,0.02504
2960.58,0.02544
2954.8,0.02561
2949.01,0.02568
2943.22,0.02492
2937.44,0.02511
2931.65,0.02527
2925.86,0.02530
2920.08,0.02554
2914.29,0.02567
2908.51,0.02609
2902.72,0.02656
2896.93,0.02598
2891.15,0.02612
2885.36,0.02584
2879.58,0.02591
2873.79,0.02589
2868,0.02598
2862.22,0.02563
2856.43,0.02622
2850.64,0.02590
2844.86,0.02575
2839.07,0.02681
2833.29,0.02621
2827.5,0.02678
2821.71,0.02705
2815.93,0.02597
2810.14,0.02653
2804.36,0.02674
2798.57,0.02641
2792.78,0.02695
2787,0.02691
2781.21,0.02666
2775.42,0.02673
2769.64,0.02642
2763.85,0.02673
2758.07,0.02673
2752.28,0.02669
2746.49,0.02678
2740.71,0.02668
2734.92,0.02686
2729.14,0.02689
2723.35,0.02697
2717.56,0.02644
2711.78,0.02640
2705.99,0.02680
2700.2,0.02657
2694.42,0.02686
2688.63,0.02641
2682.85,0.02697
2677.06,0.02670
2671.27,0.02656
2665.49,0.02692
2659.7,0.02682
2653.92,0.02671
2648.13,0.02669
2642.34,0.02677
2636.56,0.02683
2630.77,0.02692
2624.98,0.02613
2619.2,0.02670
2613.41,0.02633
2607.63,0.02674
2601.84,0.02670
2596.05,0.02666
2590.27,0.02644
2584.48,0.02659
2578.7,0.02651
2572.91,0.02628
2567.12,0.02688
2561.34,0.02682
2555.55,0.02672
2549.76,0.02654
2543.98,0.02647
2538.19,0.02658
2532.41,0.02640
2526.62,0.02661
2520.83,0.02649
2515.05,0.02628
2509.26,0.02611
2503.48,0.02643
2497.69,0.02661
2491.9,0.02663
2486.12,0.02654
2480.33,0.02613
2474.55,0.02673
2468.76,0.02634
2462.97,0.02654
2457.19,0.02662
2451.4,0.02627
2445.61,0.02585
2439.83,0.02596
2434.04,0.02675
2428.26,0.02617
2422.47,0.02617
2416.68,0.02625
2410.9,0.02642
2405.11,0.02658
2399.32,0.02636
2393.54,0.02595
2387.75,0.02618
2381.97,0.02637
2376.18,0.02648
2370.39,0.02695
2364.61,0.02682
2358.82,0.02702
2353.04,0.02618
2347.25,0.02684
2341.46,0.02660
2335.68,0.02685
2329.89,0.02682
2324.11,0.02678
2318.32,0.02622
2312.53,0.02660
2306.75,0.02650
2300.96,0.02654
2295.17,0.02585
2289.39,0.02579
2283.6,0.02577
2277.82,0.02608
2272.03,0.02622
2266.24,0.02591
2260.46,0.02639
2254.67,0.02644
2248.89,0.02587
2243.1,0.02621
2237.31,0.02628
2231.53,0.02595
2225.74,0.02609
2219.95,0.02603
2214.17,0.02558
2208.38,0.02556
2202.6,0.02569
2196.81,0.02573
2191.02,0.02580
2185.24,0.02544
2179.45,0.02513
2173.67,0.02574
2167.88,0.02559
2162.09,0.02555
2156.31,0.02550
2150.52,0.02611
2144.73,0.02582
2138.95,0.02560
2133.16,0.02535
2127.38,0.02548
2121.59,0.02594
2115.8,0.02575
2110.02,0.02538
2104.23,0.02561
2098.45,0.02564
2092.66,0.02569
2086.87,0.02543
2081.09,0.02509
2075.3,0.02533
2069.51,0.02577
2063.73,0.02543
2057.94,0.02555
2052.16,0.02544
2046.37,0.02517
2040.58,0.02526
2034.8,0.02500
2029.01,0.02554
2023.23,0.02533
2017.44,0.02504
2011.65,0.02513
2005.87,0.02542
2000.08,0.02508
1994.29,0.02554
1988.51,0.02520
1982.72,0.02511
1976.94,0.02539
1971.15,0.02514
1965.36,0.02522
1959.58,0.02516
1953.79,0.02502
1948.01,0.02518
1942.22,0.02530
1936.43,0.02520
1930.65,0.02504
1924.86,0.02466
1919.07,0.02506
1913.29,0.02492
1907.5,0.02505
1901.72,0.02497
1895.93,0.02488
1890.14,0.02482
1884.36,0.02468
1878.57,0.02462
1872.79,0.02479
1867,0.02509
1861.21,0.02498
1855.43,0.02478
1849.64,0.02468
1843.85,0.02442
1838.07,0.02432
1832.28,0.02430
1826.5,0.02402
1820.71,0.02401
1814.92,0.02390
1809.14,0.02384
1803.35,0.02383
1797.57,0.02364
1791.78,0.02322
1785.99,0.02311
1780.21,0.02289
1774.42,0.02324
1768.63,0.02264
1762.85,0.02196
1757.06,0.02142
1751.28,0.02121
1745.49,0.02198
1739.7,0.02270
1733.92,0.02301
1728.13,0.02385
1722.35,0.02414
1716.56,0.02487
1710.77,0.02405
1704.99,0.02369
1699.2,0.02346
1693.41,0.02217
1687.63,0.02228
1681.84,0.02256
1676.06,0.02196
1670.27,0.02144
1664.48,0.02162
1658.7,0.02127
1652.91,0.02274
1647.13,0.02137
1641.34,0.02145
1635.55,0.02165
1629.77,0.02192
1623.98,0.02181
1618.19,0.02198
1612.41,0.02230
1606.62,0.02199
1600.84,0.02150
1595.05,0.02180
1589.26,0.02181
1583.48,0.02163
1577.69,0.02187
1571.91,0.02119
1566.12,0.02123
1560.33,0.02270
1554.55,0.02102
1548.76,0.02151
1542.97,0.02145
1537.19,0.02180
1531.4,0.02201
1525.62,0.02199
1519.83,0.02245
1514.04,0.02198
1508.26,0.02215
1502.47,0.02231
1496.69,0.02189
1490.9,0.02204
1485.11,0.02149
1479.33,0.02167
1473.54,0.02145
1467.75,0.02135
1461.97,0.02154
1456.18,0.02098
1450.4,0.02098
1444.61,0.02097
1438.82,0.02130
1433.04,0.02134
1427.25,0.02108
1421.47,0.02122
1415.68,0.02060
1409.89,0.02069
1404.11,0.02070
1398.32,0.02066
1392.53,0.02030
1386.75,0.02017
1380.96,0.02022
1375.18,0.02038
1369.39,0.02034
1363.6,0.02065
1357.82,0.02067
1352.03,0.02039
1346.25,0.02025
1340.46,0.02009
1334.67,0.01985
1328.89,0.01966
1323.1,0.01969
1317.31,0.01932
1311.53,0.01933
1305.74,0.01934
1299.96,0.01989
1294.17,0.02023
1288.38,0.02031
1282.6,0.02092
1276.81,0.02094
1271.03,0.02152
1265.24,0.02146
1259.45,0.02195
1253.67,0.02206
1247.88,0.02216
1242.09,0.02173
1236.31,0.02195
1230.52,0.02128
1224.74,0.02122
1218.95,0.02102
1213.16,0.02188
1207.38,0.02127
1201.59,0.02091
1195.81,0.02104
1190.02,0.02076
1184.23,0.02005
1178.45,0.01989
1172.66,0.01960
1166.87,0.02000
1161.09,0.01973
1155.3,0.01952
1149.52,0.01961
1143.73,0.01978
1137.94,0.01993
1132.16,0.02008
1126.37,0.02063
1120.59,0.02111
1114.8,0.02173
1109.01,0.02197
1103.23,0.02063
1097.44,0.02144
1091.65,0.02149
1085.87,0.02104
1080.08,0.02259
1074.3,0.02292
1068.51,0.02373
1062.72,0.02356
1056.94,0.02360
1051.15,0.02332
1045.37,0.02316
1039.58,0.02282
1033.79,0.02294
1028.01,0.02278
1022.22,0.02278
1016.43,0.02243
1010.65,0.02322
1004.86,0.02400
999.076,0.02411
993.29,0.02388
987.504,0.02373
981.717,0.02408
975.931,0.02394
970.145,0.02369
964.359,0.02256
958.573,0.02277
952.787,0.02317
947,0.02253
941.214,0.02229
935.428,0.02288
929.642,0.02246
923.856,0.02197
918.07,0.02251
912.284,0.02265
906.497,0.02246
900.711,0.02240
894.925,0.02107
889.139,0.02179
883.353,0.02137
877.567,0.02139
871.78,0.02164
865.994,0.02183
860.208,0.02121
854.422,0.02112
848.636,0.02029
842.85,0.02121
837.064,0.02145
831.277,0.02137
825.491,0.02002
819.705,0.02176
813.919,0.02137
808.133,0.02148
802.347,0.02059
796.56,0.02105
790.774,0.02104
784.988,0.02051
779.202,0.02023
773.416,0.02077
767.63,0.02029
761.844,0.02032
756.057,0.01989
750.271,0.01957
744.485,0.02027
738.699,0.02066
732.913,0.01980
727.127,0.01916
721.34,0.01909
715.554,0.01941
709.768,0.01898
703.982,0.01893
698.196,0.01869
692.41,0.01807
686.624,0.01922
680.837,0.01953
675.051,0.01804
669.265,0.01944
663.479,0.01969
657.693,0.01924
651.907,0.01856
646.12,0.01793
640.334,0.01814
634.548,0.01844
628.762,0.01874
622.976,0.01915
617.19,0.01888
611.404,0.01847
605.617,0.01639
599.831,0.01691