File: 01_Data/PEVA/FTIR/IS/PEVA_0.26_IS_T_240809_R5.dpt
7497.2,0.01721
7491.41,0.04810
7485.63,0.04514
7479.84,0.03243
7474.05,0.04360
7468.27,0.03914
7462.48,0.03131
7456.7,0.02855
7450.91,0.03876
7445.12,0.02233
7439.34,0.03202
7433.55,0.03149
7427.76,0.03450
7421.98,0.03865
7416.19,0.03677
7410.4,0.03980
7404.62,0.04443
7398.83,0.03635
7393.05,0.03424
7387.26,0.03033
7381.47,0.03295
7375.69,0.04025
7369.9,0.02817
7364.11,0.03216
7358.33,0.02894
7352.54,0.03538
7346.75,0.03161
7340.97,0.02908
7335.18,0.03331
7329.4,0.04260
7323.61,0.03079
7317.82,0.04838
7312.04,0.03635
7306.25,0.03274
7300.46,0.04057
7294.68,0.04452
7288.89,0.04642
7283.1,0.02840
7277.32,0.03231
7271.53,0.03728
7265.75,0.03185
7259.96,0.03729
7254.17,0.03200
7248.39,0.03419
7242.6,0.03932
7236.81,0.03965
7231.03,0.03314
7225.24,0.03000
7219.45,0.02454
7213.67,0.01811
7207.88,0.03494
7202.1,0.02520
7196.31,0.02864
7190.52,0.04049
7184.74,0.03674
7178.95,0.02885
7173.16,0.02998
7167.38,0.04030
7161.59,0.03095
7155.8,0.04111
7150.02,0.03890
7144.23,0.02589
7138.45,0.02575
7132.66,0.02666
7126.87,0.02998
7121.09,0.03302
7115.3,0.03154
7109.51,0.02934
7103.73,0.03590
7097.94,0.04094
7092.15,0.03109
7086.37,0.03183
7080.58,0.04033
7074.8,0.03614
7069.01,0.03068
7063.22,0.03030
7057.44,0.03064
7051.65,0.03212
7045.86,0.02807
7040.08,0.03118
7034.29,0.03265
7028.5,0.03129
7022.72,0.03046
7016.93,0.03557
7011.15,0.02744
7005.36,0.02400
6999.57,0.03152
6993.79,0.02735
6988,0.02061
6982.21,0.04031
6976.43,0.03367
6970.64,0.03082
6964.85,0.04012
6959.07,0.03361
6953.28,0.03102
6947.5,0.03439
6941.71,0.03275
6935.92,0.03361
6930.14,0.04401
6924.35,0.02663
6918.56,0.02832
6912.78,0.03733
6906.99,0.02704
6901.2,0.02989
6895.42,0.03777
6889.63,0.02739
6883.85,0.03426
6878.06,0.03295
6872.27,0.03606
6866.49,0.03133
6860.7,0.02922
6854.91,0.03312
6849.13,0.03276
6843.34,0.02611
6837.55,0.03116
6831.77,0.03181
6825.98,0.03201
6820.2,0.04037
6814.41,0.03966
6808.62,0.03734
6802.84,0.03308
6797.05,0.03309
6791.26,0.03257
6785.48,0.02677
6779.69,0.02913
6773.9,0.03501
6768.12,0.02750
6762.33,0.03084
6756.55,0.03185
6750.76,0.03238
6744.97,0.03210
6739.19,0.02692
6733.4,0.03721
6727.61,0.03178
6721.83,0.02595
6716.04,0.03183
6710.25,0.02855
6704.47,0.03076
6698.68,0.03422
6692.9,0.03374
6687.11,0.03062
6681.32,0.02753
6675.54,0.03520
6669.75,0.03687
6663.96,0.03138
6658.18,0.03261
6652.39,0.02394
6646.6,0.03361
6640.82,0.03056
6635.03,0.03060
6629.25,0.03131
6623.46,0.03312
6617.67,0.02719
6611.89,0.03272
6606.1,0.03247
6600.31,0.03634
6594.53,0.03244
6588.74,0.03398
6582.95,0.03508
6577.17,0.03060
6571.38,0.03048
6565.6,0.03240
6559.81,0.03289
6554.02,0.02646
6548.24,0.03175
6542.45,0.02320
6536.66,0.03128
6530.88,0.03580
6525.09,0.03277
6519.3,0.02787
6513.52,0.03235
6507.73,0.03366
6501.95,0.03375
6496.16,0.03728
6490.37,0.02582
6484.59,0.03424
6478.8,0.02519
6473.01,0.03052
6467.23,0.02621
6461.44,0.03327
6455.65,0.03273
6449.87,0.03362
6444.08,0.03548
6438.3,0.03108
6432.51,0.02502
6426.72,0.03247
6420.94,0.03171
6415.15,0.03337
6409.36,0.02904
6403.58,0.03190
6397.79,0.03207
6392,0.03061
6386.22,0.03089
6380.43,0.03240
6374.65,0.03107
6368.86,0.03406
6363.07,0.03677
6357.29,0.03208
6351.5,0.03212
6345.71,0.02824
6339.93,0.03220
6334.14,0.03524
6328.35,0.03092
6322.57,0.03354
6316.78,0.03689
6310.99,0.03178
6305.21,0.03443
6299.42,0.02924
6293.64,0.02739
6287.85,0.03382
6282.06,0.02914
6276.28,0.03262
6270.49,0.03316
6264.7,0.03401
6258.92,0.03151
6253.13,0.03261
6247.34,0.03557
6241.56,0.02932
6235.77,0.03116
6229.99,0.03153
6224.2,0.03213
6218.41,0.03013
6212.63,0.03051
6206.84,0.03323
6201.05,0.02846
6195.27,0.02871
6189.48,0.03044
6183.69,0.03001
6177.91,0.02866
6172.12,0.03354
6166.34,0.03210
6160.55,0.03065
6154.76,0.03473
6148.98,0.03299
6143.19,0.03195
6137.4,0.02942
6131.62,0.02931
6125.83,0.02911
6120.04,0.03007
6114.26,0.03274
6108.47,0.03060
6102.69,0.03058
6096.9,0.03164
6091.11,0.03021
6085.33,0.03256
6079.54,0.02760
6073.75,0.02747
6067.97,0.03038
6062.18,0.03101
6056.39,0.03289
6050.61,0.02883
6044.82,0.03474
6039.04,0.03218
6033.25,0.03158
6027.46,0.03326
6021.68,0.02999
6015.89,0.03058
6010.1,0.02483
6004.32,0.03107
5998.53,0.03121
5992.74,0.02900
5986.96,0.02970
5981.17,0.03305
5975.39,0.03238
5969.6,0.03104
5963.81,0.03152
5958.03,0.03057
5952.24,0.03053
5946.45,0.03134
5940.67,0.02955
5934.88,0.02868
5929.09,0.03154
5923.31,0.03001
5917.52,0.03064
5911.74,0.03017
5905.95,0.02982
5900.16,0.02795
5894.38,0.03247
5888.59,0.03069
5882.8,0.02874
5877.02,0.03197
5871.23,0.02713
5865.44,0.03174
5859.66,0.02957
5853.87,0.02892
5848.09,0.03106
5842.3,0.03260
5836.51,0.03079
5830.73,0.02950
5824.94,0.02892
5819.15,0.03182
5813.37,0.02831
5807.58,0.02922
5801.79,0.02988
5796.01,0.03057
5790.22,0.02995
5784.44,0.03143
5778.65,0.03221
5772.86,0.03183
5767.08,0.03070
5761.29,0.03006
5755.5,0.03031
5749.72,0.03218
5743.93,0.03065
5738.14,0.03064
5732.36,0.03094
5726.57,0.03097
5720.79,0.03170
5715,0.03399
5709.21,0.03386
5703.43,0.03021
5697.64,0.03064
5691.85,0.03091
5686.07,0.03033
5680.28,0.03171
5674.49,0.03173
5668.71,0.03003
5662.92,0.03222
5657.14,0.03169
5651.35,0.02694
5645.56,0.03323
5639.78,0.02679
5633.99,0.02826
5628.2,0.03167
5622.42,0.03275
5616.63,0.03006
5610.84,0.03136
5605.06,0.02944
5599.27,0.02942
5593.49,0.03097
5587.7,0.03226
5581.91,0.03071
5576.13,0.03091
5570.34,0.03021
5564.55,0.02988
5558.77,0.03287
5552.98,0.03138
5547.19,0.03126
5541.41,0.03105
5535.62,0.03243
5529.84,0.03131
5524.05,0.03113
5518.26,0.03088
5512.48,0.03163
5506.69,0.02918
5500.9,0.03017
5495.12,0.03176
5489.33,0.03093
5483.54,0.02935
5477.76,0.03086
5471.97,0.02980
5466.19,0.02976
5460.4,0.02938
5454.61,0.02938
5448.83,0.03233
5443.04,0.02985
5437.25,0.02990
5431.47,0.03158
5425.68,0.03181
5419.89,0.03222
5414.11,0.03102
5408.32,0.03040
5402.54,0.03118
5396.75,0.03080
5390.96,0.03341
5385.18,0.03118
5379.39,0.02916
5373.6,0.03144
5367.82,0.03092
5362.03,0.02999
5356.24,0.03149
5350.46,0.03055
5344.67,0.03033
5338.89,0.03046
5333.1,0.03090
5327.31,0.02992
5321.53,0.03318
5315.74,0.03041
5309.95,0.03022
5304.17,0.03080
5298.38,0.03127
5292.59,0.03166
5286.81,0.02998
5281.02,0.02925
5275.24,0.03124
5269.45,0.03017
5263.66,0.03028
5257.88,0.02997
5252.09,0.03025
5246.3,0.03239
5240.52,0.03137
5234.73,0.03057
5228.94,0.03291
5223.16,0.03133
5217.37,0.02978
5211.59,0.03092
5205.8,0.02999
5200.01,0.03080
5194.23,0.03021
5188.44,0.03034
5182.65,0.03172
5176.87,0.03195
5171.08,0.03071
5165.29,0.03031
5159.51,0.03092
5153.72,0.02889
5147.94,0.03048
5142.15,0.03029
5136.36,0.02989
5130.58,0.03113
5124.79,0.03027
5119,0.03141
5113.22,0.02952
5107.43,0.03136
5101.64,0.03077
5095.86,0.03246
5090.07,0.03054
5084.29,0.03220
5078.5,0.03097
5072.71,0.02927
5066.93,0.03007
5061.14,0.03161
5055.35,0.03106
5049.57,0.03005
5043.78,0.03081
5037.99,0.03279
5032.21,0.03120
5026.42,0.03054
5020.64,0.03109
5014.85,0.03040
5009.06,0.02988
5003.28,0.03072
4997.49,0.03170
4991.7,0.02997
4985.92,0.03006
4980.13,0.02984
4974.34,0.03007
4968.56,0.03067
4962.77,0.03126
4956.99,0.03085
4951.2,0.03090
4945.41,0.03105
4939.63,0.03057
4933.84,0.03112
4928.05,0.02921
4922.27,0.03058
4916.48,0.03079
4910.69,0.02899
4904.91,0.03089
4899.12,0.03064
4893.34,0.03074
4887.55,0.03022
4881.76,0.03133
4875.98,0.03087
4870.19,0.02996
4864.4,0.02952
4858.62,0.03022
4852.83,0.03025
4847.04,0.03161
4841.26,0.03129
4835.47,0.03048
4829.69,0.03089
4823.9,0.03129
4818.11,0.03164
4812.33,0.03011
4806.54,0.03043
4800.75,0.03052
4794.97,0.03145
4789.18,0.03027
4783.39,0.03085
4777.61,0.03007
4771.82,0.03151
4766.04,0.03117
4760.25,0.03069
4754.46,0.02983
4748.68,0.02946
4742.89,0.02910
4737.1,0.03103
4731.32,0.03104
4725.53,0.03031
4719.74,0.02984
4713.96,0.03000
4708.17,0.03082
4702.39,0.03207
4696.6,0.03064
4690.81,0.03064
4685.03,0.03046
4679.24,0.03115
4673.45,0.03029
4667.67,0.03122
4661.88,0.03191
4656.09,0.03127
4650.31,0.03073
4644.52,0.03138
4638.74,0.03025
4632.95,0.03044
4627.16,0.03008
4621.38,0.03050
4615.59,0.02996
4609.8,0.02974
4604.02,0.03075
4598.23,0.03133
4592.44,0.03012
4586.66,0.03077
4580.87,0.03049
4575.09,0.03046
4569.3,0.03035
4563.51,0.03091
4557.73,0.03091
4551.94,0.03053
4546.15,0.03042
4540.37,0.03094
4534.58,0.03225
4528.79,0.03157
4523.01,0.03079
4517.22,0.03106
4511.44,0.03028
4505.65,0.03047
4499.86,0.03028
4494.08,0.03077
4488.29,0.03078
4482.5,0.03057
4476.72,0.02987
4470.93,0.03016
4465.14,0.03105
4459.36,0.03105
4453.57,0.03140
4447.79,0.03073
4442,0.03111
4436.21,0.03189
4430.43,0.03134
4424.64,0.03078
4418.85,0.03056
4413.07,0.03116
4407.28,0.02996
4401.49,0.02996
4395.71,0.03174
4389.92,0.03113
4384.14,0.03070
4378.35,0.03004
4372.56,0.03102
4366.78,0.03044
4360.99,0.03076
4355.2,0.02992
4349.42,0.03005
4343.63,0.03038
4337.84,0.03028
4332.06,0.03091
4326.27,0.03012
4320.49,0.03075
4314.7,0.03154
4308.91,0.03126
4303.13,0.03100
4297.34,0.03022
4291.55,0.03044
4285.77,0.03043
4279.98,0.02978
4274.19,0.03114
4268.41,0.03143
4262.62,0.03179
4256.84,0.03120
4251.05,0.03039
4245.26,0.03052
4239.48,0.03065
4233.69,0.03017
4227.9,0.03086
4222.12,0.03075
4216.33,0.03134
4210.54,0.03052
4204.76,0.03006
4198.97,0.03052
4193.19,0.03126
4187.4,0.03040
4181.61,0.03047
4175.83,0.03088
4170.04,0.03057
4164.25,0.03066
4158.47,0.03114
4152.68,0.03028
4146.89,0.03114
4141.11,0.03074
4135.32,0.03064
4129.54,0.03127
4123.75,0.03084
4117.96,0.03129
4112.18,0.03152
4106.39,0.03121
4100.6,0.03121
4094.82,0.03143
4089.03,0.03051
4083.24,0.03023
4077.46,0.03072
4071.67,0.03084
4065.89,0.03094
4060.1,0.03093
4054.31,0.03062
4048.53,0.02999
4042.74,0.03014
4036.95,0.03026
4031.17,0.03051
4025.38,0.03035
4019.59,0.03113
4013.81,0.03091
4008.02,0.03057
4002.24,0.03081
3996.45,0.03028
3990.66,0.03037
3984.88,0.03049
3979.09,0.03100
3973.3,0.03060
3967.52,0.03002
3961.73,0.03057
3955.94,0.03050
3950.16,0.02987
3944.37,0.03085
3938.59,0.03101
3932.8,0.03171
3927.01,0.03155
3921.23,0.03088
3915.44,0.03086
3909.65,0.03078
3903.87,0.03051
3898.08,0.02997
3892.29,0.03034
3886.51,0.03060
3880.72,0.03120
3874.94,0.03131
3869.15,0.02934
3863.36,0.03049
3857.58,0.03082
3851.79,0.02892
3846,0.03105
3840.22,0.03150
3834.43,0.03061
3828.64,0.03063
3822.86,0.03156
3817.07,0.03190
3811.29,0.03109
3805.5,0.03028
3799.71,0.03128
3793.93,0.03066
3788.14,0.03095
3782.35,0.03059
3776.57,0.02989
3770.78,0.03096
3764.99,0.03015
3759.21,0.03002
3753.42,0.02984
3747.64,0.03120
3741.85,0.03047
3736.06,0.02975
3730.28,0.03011
3724.49,0.03000
3718.7,0.03066
3712.92,0.03036
3707.13,0.02982
3701.34,0.02998
3695.56,0.03066
3689.77,0.03002
3683.99,0.02968
3678.2,0.03044
3672.41,0.02997
3666.63,0.02932
3660.84,0.02974
3655.05,0.02946
3649.27,0.02913
3643.48,0.02855
3637.69,0.02918
3631.91,0.02997
3626.12,0.02858
3620.34,0.02928
3614.55,0.02858
3608.76,0.02810
3602.98,0.02860
3597.19,0.02756
3591.4,0.02814
3585.62,0.02798
3579.83,0.02802
3574.04,0.02798
3568.26,0.02778
3562.47,0.02738
3556.69,0.02697
3550.9,0.02797
3545.11,0.02736
3539.33,0.02842
3533.54,0.02818
3527.75,0.02756
3521.97,0.02677
3516.18,0.02725
3510.39,0.02747
3504.61,0.02696
3498.82,0.02728
3493.04,0.02657
3487.25,0.02754
3481.46,0.02704
3475.68,0.02756
3469.89,0.02704
3464.1,0.02693
3458.32,0.02664
3452.53,0.02661
3446.74,0.02658
3440.96,0.02642
3435.17,0.02686
3429.39,0.02678
3423.6,0.02753
3417.81,0.02671
3412.03,0.02666
3406.24,0.02645
3400.45,0.02585
3394.67,0.02653
3388.88,0.02655
3383.09,0.02697
3377.31,0.02611
3371.52,0.02712
3365.74,0.02609
3359.95,0.02657
3354.16,0.02581
3348.38,0.02647
3342.59,0.02662
3336.8,0.02642
3331.02,0.02616
3325.23,0.02731
3319.44,0.02657
3313.66,0.02722
3307.87,0.02623
3302.09,0.02704
3296.3,0.02650
3290.51,0.02703
3284.73,0.02621
3278.94,0.02628
3273.15,0.02686
3267.37,0.02616
3261.58,0.02679
3255.79,0.02726
3250.01,0.02597
3244.22,0.02626
3238.44,0.02702
3232.65,0.02754
3226.86,0.02737
3221.08,0.02747
3215.29,0.02722
3209.5,0.02682
3203.72,0.02710
3197.93,0.02681
3192.14,0.02757
3186.36,0.02645
3180.57,0.02739
3174.79,0.02677
3169,0.02725
3163.21,0.02652
3157.43,0.02672
3151.64,0.02689
3145.85,0.02725
3140.07,0.02776
3134.28,0.02753
3128.49,0.02703
3122.71,0.02720
3116.92,0.02690
3111.14,0.02711
3105.35,0.02740
3099.56,0.02687
3093.78,0.02791
3087.99,0.02749
3082.2,0.02725
3076.42,0.02783
3070.63,0.02707
3064.84,0.02766
3059.06,0.02710
3053.27,0.02757
3047.49,0.02791
3041.7,0.02735
3035.91,0.02712
3030.13,0.02779
3024.34,0.02725
3018.55,0.02756
3012.77,0.02760
3006.98,0.02725
3001.19,0.02696
2995.41,0.02701
2989.62,0.02662
2983.84,0.02657
2978.05,0.02641
2972.26,0.02638
2966.48,0.02575
2960.69,0.02535
2954.9,0.02574
2949.12,0.02574
2943.33,0.02615
2937.54,0.02610
2931.76,0.02616
2925.97,0.02607
2920.19,0.02639
2914.4,0.02665
2908.61,0.02654
2902.83,0.02716
2897.04,0.02639
2891.25,0.02670
2885.47,0.02665
2879.68,0.02669
2873.89,0.02669
2868.11,0.02666
2862.32,0.02666
2856.54,0.02670
2850.75,0.02687
2844.96,0.02770
2839.18,0.02744
2833.39,0.02821
2827.6,0.02770
2821.82,0.02730
2816.03,0.02732
2810.24,0.02797
2804.46,0.02782
2798.67,0.02759
2792.89,0.02773
2787.1,0.02756
2781.31,0.02799
2775.53,0.02789
2769.74,0.02732
2763.95,0.02767
2758.17,0.02783
2752.38,0.02777
2746.59,0.02812
2740.81,0.02782
2735.02,0.02768
2729.24,0.02762
2723.45,0.02748
2717.66,0.02793
2711.88,0.02792
2706.09,0.02796
2700.3,0.02759
2694.52,0.02772
2688.73,0.02774
2682.94,0.02805
2677.16,0.02777
2671.37,0.02780
2665.59,0.02766
2659.8,0.02787
2654.01,0.02784
2648.23,0.02731
2642.44,0.02751
2636.65,0.02754
2630.87,0.02745
2625.08,0.02777
2619.29,0.02777
2613.51,0.02743
2607.72,0.02756
2601.94,0.02769
2596.15,0.02742
2590.36,0.02758
2584.58,0.02729
2578.79,0.02778
2573,0.02788
2567.22,0.02764
2561.43,0.02761
2555.64,0.02761
2549.86,0.02783
2544.07,0.02773
2538.29,0.02752
2532.5,0.02758
2526.71,0.02786
2520.93,0.02754
2515.14,0.02751
2509.35,0.02727
2503.57,0.02754
2497.78,0.02743
2491.99,0.02754
2486.21,0.02756
2480.42,0.02755
2474.64,0.02717
2468.85,0.02754
2463.06,0.02756
2457.28,0.02727
2451.49,0.02720
2445.7,0.02763
2439.92,0.02749
2434.13,0.02729
2428.34,0.02729
2422.56,0.02730
2416.77,0.02729
2410.99,0.02774
2405.2,0.02754
2399.41,0.02765
2393.63,0.02791
2387.84,0.02727
2382.05,0.02757
2376.27,0.02718
2370.48,0.02770
2364.69,0.02734
2358.91,0.02739
2353.12,0.02794
2347.34,0.02754
2341.55,0.02753
2335.76,0.02773
2329.98,0.02793
2324.19,0.02840
2318.4,0.02717
2312.62,0.02740
2306.83,0.02761
2301.04,0.02695
2295.26,0.02671
2289.47,0.02718
2283.69,0.02685
2277.9,0.02666
2272.11,0.02680
2266.33,0.02659
2260.54,0.02713
2254.75,0.02700
2248.97,0.02689
2243.18,0.02698
2237.39,0.02681
2231.61,0.02712
2225.82,0.02706
2220.04,0.02686
2214.25,0.02643
2208.46,0.02630
2202.68,0.02690
2196.89,0.02678
2191.1,0.02677
2185.32,0.02668
2179.53,0.02678
2173.74,0.02676
2167.96,0.02648
2162.17,0.02652
2156.39,0.02696
2150.6,0.02639
2144.81,0.02636
2139.03,0.02648
2133.24,0.02644
2127.45,0.02658
2121.67,0.02646
2115.88,0.02658
2110.09,0.02654
2104.31,0.02615
2098.52,0.02613
2092.74,0.02625
2086.95,0.02636
2081.16,0.02680
2075.38,0.02651
2069.59,0.02636
2063.8,0.02644
2058.02,0.02641
2052.23,0.02638
2046.44,0.02627
2040.66,0.02640
2034.87,0.02623
2029.09,0.02645
2023.3,0.02652
2017.51,0.02645
2011.73,0.02634
2005.94,0.02632
2000.15,0.02629
1994.37,0.02626
1988.58,0.02626
1982.79,0.02592
1977.01,0.02618
1971.22,0.02627
1965.44,0.02625
1959.65,0.02623
1953.86,0.02603
1948.08,0.02596
1942.29,0.02611
1936.5,0.02608
1930.72,0.02582
1924.93,0.02602
1919.14,0.02555
1913.36,0.02586
1907.57,0.02578
1901.79,0.02597
1896,0.02575
1890.21,0.02552
1884.43,0.02576
1878.64,0.02549
1872.85,0.02605
1867.07,0.02548
1861.28,0.02549
1855.49,0.02533
1849.71,0.02524
1843.92,0.02500
1838.14,0.02480
1832.35,0.02507
1826.56,0.02538
1820.78,0.02501
1814.99,0.02484
1809.2,0.02468
1803.42,0.02484
1797.63,0.02430
1791.84,0.02419
1786.06,0.02413
1780.27,0.02398
1774.49,0.02379
1768.7,0.02296
1762.91,0.02294
1757.13,0.02214
1751.34,0.02179
1745.55,0.02246
1739.77,0.02335
1733.98,0.02428
1728.19,0.02461
1722.41,0.02493
1716.62,0.02493
1710.84,0.02467
1705.05,0.02435
1699.26,0.02350
1693.48,0.02309
1687.69,0.02330
1681.9,0.02297
1676.12,0.02265
1670.33,0.02230
1664.54,0.02243
1658.76,0.02207
1652.97,0.02217
1647.19,0.02210
1641.4,0.02234
1635.61,0.02246
1629.83,0.02237
1624.04,0.02289
1618.25,0.02271
1612.47,0.02324
1606.68,0.02276
1600.89,0.02229
1595.11,0.02306
1589.32,0.02217
1583.54,0.02217
1577.75,0.02229
1571.96,0.02243
1566.18,0.02212
1560.39,0.02269
1554.6,0.02212
1548.82,0.02204
1543.03,0.02234
1537.24,0.02201
1531.46,0.02250
1525.67,0.02262
1519.89,0.02252
1514.1,0.02256
1508.31,0.02344
1502.53,0.02247
1496.74,0.02287
1490.95,0.02225
1485.17,0.02242
1479.38,0.02224
1473.59,0.02202
1467.81,0.02161
1462.02,0.02213
1456.24,0.02175
1450.45,0.02175
1444.66,0.02198
1438.88,0.02280
1433.09,0.02176
1427.3,0.02210
1421.52,0.02197
1415.73,0.02152
1409.94,0.02162
1404.16,0.02105
1398.37,0.02119
1392.59,0.02096
1386.8,0.02144
1381.01,0.02108
1375.23,0.02135
1369.44,0.02085
1363.65,0.02119
1357.87,0.02083
1352.08,0.02117
1346.29,0.02109
1340.51,0.02090
1334.72,0.02060
1328.94,0.02028
1323.15,0.01996
1317.36,0.02005
1311.58,0.02004
1305.79,0.01993
1300,0.02061
1294.22,0.02088
1288.43,0.02100
1282.64,0.02185
1276.86,0.02141
1271.07,0.02220
1265.29,0.02198
1259.5,0.02238
1253.71,0.02292
1247.93,0.02259
1242.14,0.02270
1236.35,0.02236
1230.57,0.02227
1224.78,0.02209
1218.99,0.02189
1213.21,0.02201
1207.42,0.02181
1201.64,0.02159
1195.85,0.02117
1190.06,0.02128
1184.28,0.02087
1178.49,0.02091
1172.7,0.02042
1166.92,0.02059
1161.13,0.02057
1155.34,0.02033
1149.56,0.02030
1143.77,0.02088
1137.99,0.02036
1132.2,0.02115
1126.41,0.02095
1120.63,0.02184
1114.84,0.02220
1109.05,0.02114
1103.27,0.02192
1097.48,0.02238
1091.69,0.02204
1085.91,0.02163
1080.12,0.02272
1074.34,0.02424
1068.55,0.02468
1062.76,0.02324
1056.98,0.02404
1051.19,0.02363
1045.4,0.02374
1039.62,0.02318
1033.83,0.02363
1028.04,0.02371
1022.26,0.02317
1016.47,0.02293
1010.69,0.02337
1004.9,0.02446
999.112,0.02472
993.326,0.02447
987.54,0.02424
981.753,0.02444
975.967,0.02448
970.18,0.02415
964.394,0.02348
958.608,0.02380
952.821,0.02348
947.035,0.02319
941.249,0.02272
935.462,0.02237
929.676,0.02297
923.89,0.02293
918.103,0.02238
912.317,0.02236
906.53,0.02301
900.744,0.02271
894.958,0.02223
889.171,0.02287
883.385,0.02194
877.599,0.02245
871.812,0.02207
866.026,0.02184
860.24,0.02199
854.453,0.02208
848.667,0.02212
842.88,0.02227
837.094,0.02223
831.308,0.02235
825.521,0.02178
819.735,0.02171
813.949,0.02184
808.162,0.02172
802.376,0.02131
796.59,0.02139
790.803,0.02127
785.017,0.02129
779.23,0.02140
773.444,0.02031
767.658,0.02096
761.871,0.02116
756.085,0.02023
750.299,0.01986
744.512,0.01977
738.726,0.02028
732.94,0.02079
727.153,0.02028
721.367,0.01978
715.58,0.01964
709.794,0.01957
704.008,0.01878
698.221,0.01892
692.435,0.01953
686.649,0.02020
680.862,0.01936
675.076,0.01895
669.29,0.01967
663.503,0.02016
657.717,0.01922
651.93,0.01807
646.144,0.01862
640.358,0.01828
634.571,0.01990
628.785,0.01862
622.999,0.01945
617.212,0.01900
611.426,0.01803
605.639,0.01986
599.853,0.01645