File: 01_Data/PEVA/FTIR/IS/PEVA_0.26_IS_Trans_S_240819_R4.dpt
7496.91,0.97809
7491.12,0.97946
7485.33,0.96331
7479.55,0.99009
7473.76,0.99026
7467.98,0.97231
7462.19,0.97358
7456.4,0.99301
7450.62,0.98577
7444.83,0.98438
7439.04,0.99641
7433.26,0.98076
7427.47,0.98315
7421.69,0.99860
7415.9,0.97837
7410.11,0.98696
7404.33,0.97447
7398.54,0.97728
7392.76,0.98959
7386.97,0.97864
7381.18,0.96663
7375.4,0.97725
7369.61,0.97955
7363.83,0.96275
7358.04,0.97016
7352.25,0.97891
7346.47,0.97211
7340.68,0.96186
7334.89,0.97875
7329.11,0.96007
7323.32,0.96645
7317.54,0.98190
7311.75,0.97240
7305.96,0.97049
7300.18,0.98581
7294.39,0.95375
7288.61,0.96265
7282.82,0.96395
7277.03,0.97475
7271.25,0.96205
7265.46,0.97367
7259.67,0.96911
7253.89,0.96054
7248.1,0.95980
7242.32,0.95338
7236.53,0.97528
7230.74,0.94953
7224.96,0.95972
7219.17,0.95443
7213.39,0.95467
7207.6,0.97476
7201.81,0.96770
7196.03,0.95904
7190.24,0.97424
7184.45,0.95336
7178.67,0.95680
7172.88,0.96483
7167.1,0.96312
7161.31,0.95792
7155.52,0.97369
7149.74,0.95200
7143.95,0.95780
7138.17,0.96614
7132.38,0.96420
7126.59,0.95889
7120.81,0.95892
7115.02,0.95517
7109.23,0.95636
7103.45,0.95735
7097.66,0.95913
7091.88,0.95621
7086.09,0.95029
7080.3,0.97097
7074.52,0.95642
7068.73,0.95092
7062.95,0.95757
7057.16,0.95408
7051.37,0.95353
7045.59,0.96398
7039.8,0.96499
7034.02,0.96393
7028.23,0.96360
7022.44,0.95459
7016.66,0.95801
7010.87,0.95990
7005.08,0.96206
6999.3,0.96297
6993.51,0.96392
6987.73,0.96008
6981.94,0.96451
6976.15,0.96188
6970.37,0.95659
6964.58,0.95678
6958.8,0.97115
6953.01,0.96133
6947.22,0.96755
6941.44,0.97473
6935.65,0.96697
6929.86,0.96512
6924.08,0.96627
6918.29,0.96033
6912.51,0.96119
6906.72,0.96796
6900.93,0.96704
6895.15,0.97417
6889.36,0.97140
6883.58,0.97656
6877.79,0.96110
6872,0.96411
6866.22,0.96308
6860.43,0.95897
6854.64,0.96905
6848.86,0.97165
6843.07,0.98340
6837.29,0.97026
6831.5,0.97687
6825.71,0.96852
6819.93,0.96279
6814.14,0.97328
6808.36,0.97515
6802.57,0.96560
6796.78,0.97786
6791,0.97753
6785.21,0.96963
6779.43,0.97463
6773.64,0.96786
6767.85,0.96781
6762.07,0.97320
6756.28,0.97607
6750.49,0.96922
6744.71,0.97122
6738.92,0.97075
6733.14,0.97272
6727.35,0.97459
6721.56,0.97585
6715.78,0.97920
6709.99,0.97966
6704.21,0.97640
6698.42,0.98363
6692.63,0.97244
6686.85,0.97724
6681.06,0.97983
6675.27,0.97591
6669.49,0.97967
6663.7,0.97415
6657.92,0.97458
6652.13,0.97001
6646.34,0.98248
6640.56,0.98009
6634.77,0.98027
6628.99,0.97275
6623.2,0.98072
6617.41,0.97569
6611.63,0.97570
6605.84,0.97374
6600.05,0.96998
6594.27,0.97802
6588.48,0.97382
6582.7,0.97143
6576.91,0.97800
6571.12,0.98321
6565.34,0.97745
6559.55,0.97603
6553.77,0.97155
6547.98,0.98077
6542.19,0.98455
6536.41,0.98705
6530.62,0.97651
6524.84,0.98002
6519.05,0.98037
6513.26,0.97934
6507.48,0.97764
6501.69,0.98392
6495.9,0.97780
6490.12,0.98255
6484.33,0.97869
6478.55,0.97865
6472.76,0.98018
6466.97,0.97919
6461.19,0.98064
6455.4,0.98083
6449.62,0.97831
6443.83,0.98174
6438.04,0.98677
6432.26,0.98275
6426.47,0.98568
6420.68,0.98178
6414.9,0.98836
6409.11,0.98339
6403.33,0.98238
6397.54,0.97942
6391.75,0.98718
6385.97,0.97998
6380.18,0.98338
6374.4,0.97452
6368.61,0.97564
6362.82,0.97397
6357.04,0.97679
6351.25,0.97831
6345.46,0.97802
6339.68,0.97955
6333.89,0.97947
6328.11,0.97619
6322.32,0.98602
6316.53,0.98820
6310.75,0.97897
6304.96,0.98086
6299.18,0.98114
6293.39,0.98472
6287.6,0.98191
6281.82,0.98118
6276.03,0.98208
6270.24,0.98074
6264.46,0.97728
6258.67,0.97500
6252.89,0.98198
6247.1,0.98531
6241.31,0.97362
6235.53,0.98205
6229.74,0.97847
6223.96,0.97659
6218.17,0.98606
6212.38,0.98170
6206.6,0.98093
6200.81,0.98012
6195.03,0.98376
6189.24,0.97574
6183.45,0.97742
6177.67,0.97736
6171.88,0.97419
6166.09,0.97735
6160.31,0.97701
6154.52,0.97457
6148.74,0.97714
6142.95,0.97442
6137.16,0.97355
6131.38,0.97019
6125.59,0.97396
6119.81,0.97209
6114.02,0.97360
6108.23,0.96870
6102.45,0.96752
6096.66,0.96505
6090.87,0.96821
6085.09,0.96126
6079.3,0.95823
6073.52,0.96378
6067.73,0.95627
6061.94,0.95330
6056.16,0.94607
6050.37,0.94680
6044.59,0.94010
6038.8,0.93994
6033.01,0.93674
6027.23,0.93186
6021.44,0.92827
6015.65,0.92877
6009.87,0.92718
6004.08,0.93208
5998.3,0.93863
5992.51,0.94076
5986.72,0.94164
5980.94,0.94451
5975.15,0.95123
5969.37,0.94794
5963.58,0.94251
5957.79,0.94896
5952.01,0.94286
5946.22,0.93582
5940.44,0.93322
5934.65,0.92979
5928.86,0.92074
5923.08,0.91718
5917.29,0.91246
5911.5,0.90459
5905.72,0.89734
5899.93,0.89114
5894.15,0.88131
5888.36,0.87179
5882.57,0.85874
5876.79,0.84983
5871,0.84642
5865.22,0.83932
5859.43,0.82658
5853.64,0.81391
5847.86,0.80049
5842.07,0.78590
5836.28,0.77250
5830.5,0.76212
5824.71,0.76008
5818.93,0.76723
5813.14,0.78253
5807.35,0.79677
5801.57,0.81205
5795.78,0.82358
5790,0.83257
5784.21,0.84195
5778.42,0.85471
5772.64,0.86081
5766.85,0.86467
5761.06,0.86404
5755.28,0.86337
5749.49,0.86457
5743.71,0.86065
5737.92,0.85765
5732.13,0.85625
5726.35,0.85507
5720.56,0.86150
5714.78,0.85905
5708.99,0.86070
5703.2,0.85804
5697.42,0.85852
5691.63,0.86659
5685.84,0.86875
5680.06,0.87407
5674.27,0.87839
5668.49,0.88250
5662.7,0.88386
5656.91,0.88551
5651.13,0.88767
5645.34,0.89057
5639.56,0.89270
5633.77,0.89555
5627.98,0.89807
5622.2,0.90178
5616.41,0.90535
5610.63,0.90715
5604.84,0.90577
5599.05,0.91004
5593.27,0.91267
5587.48,0.91191
5581.69,0.91635
5575.91,0.91543
5570.12,0.91728
5564.34,0.91847
5558.55,0.92117
5552.76,0.92305
5546.98,0.92127
5541.19,0.92411
5535.41,0.92286
5529.62,0.92246
5523.83,0.92473
5518.05,0.92322
5512.26,0.92354
5506.47,0.92354
5500.69,0.92339
5494.9,0.92202
5489.12,0.92208
5483.33,0.92161
5477.54,0.91963
5471.76,0.92005
5465.97,0.92149
5460.19,0.91872
5454.4,0.92446
5448.61,0.92185
5442.83,0.92119
5437.04,0.92825
5431.25,0.92283
5425.47,0.92982
5419.68,0.93292
5413.9,0.92663
5408.11,0.92839
5402.32,0.93449
5396.54,0.93223
5390.75,0.93463
5384.97,0.93135
5379.18,0.93569
5373.39,0.93681
5367.61,0.94047
5361.82,0.94097
5356.04,0.93978
5350.25,0.93669
5344.46,0.93395
5338.68,0.93387
5332.89,0.93978
5327.1,0.93977
5321.32,0.94442
5315.53,0.94511
5309.75,0.94607
5303.96,0.94714
5298.17,0.94639
5292.39,0.94703
5286.6,0.94617
5280.82,0.94395
5275.03,0.94518
5269.24,0.94342
5263.46,0.93697
5257.67,0.94219
5251.88,0.94063
5246.1,0.93931
5240.31,0.94587
5234.53,0.94509
5228.74,0.94241
5222.95,0.94431
5217.17,0.94449
5211.38,0.94695
5205.6,0.94080
5199.81,0.94713
5194.02,0.94699
5188.24,0.94693
5182.45,0.94691
5176.66,0.94610
5170.88,0.94646
5165.09,0.94611
5159.31,0.94639
5153.52,0.94682
5147.73,0.94669
5141.95,0.94693
5136.16,0.95116
5130.38,0.94731
5124.59,0.94677
5118.8,0.94541
5113.02,0.94737
5107.23,0.94669
5101.45,0.94707
5095.66,0.94730
5089.87,0.94865
5084.09,0.95084
5078.3,0.94951
5072.51,0.94902
5066.73,0.94982
5060.94,0.95040
5055.16,0.95194
5049.37,0.95021
5043.58,0.95309
5037.8,0.95163
5032.01,0.95208
5026.23,0.95187
5020.44,0.95316
5014.65,0.95428
5008.87,0.95414
5003.08,0.95301
4997.29,0.95214
4991.51,0.95368
4985.72,0.95340
4979.94,0.95357
4974.15,0.95389
4968.36,0.95366
4962.58,0.95463
4956.79,0.95442
4951.01,0.95391
4945.22,0.95355
4939.43,0.95620
4933.65,0.95510
4927.86,0.95434
4922.07,0.95486
4916.29,0.95291
4910.5,0.95331
4904.72,0.95412
4898.93,0.95423
4893.14,0.95274
4887.36,0.95262
4881.57,0.95362
4875.79,0.95523
4870,0.95326
4864.21,0.95338
4858.43,0.95414
4852.64,0.95381
4846.85,0.95384
4841.07,0.95375
4835.28,0.95444
4829.5,0.95332
4823.71,0.95305
4817.92,0.95315
4812.14,0.95358
4806.35,0.95252
4800.57,0.95136
4794.78,0.95075
4788.99,0.94973
4783.21,0.95042
4777.42,0.95116
4771.64,0.95158
4765.85,0.94979
4760.06,0.95286
4754.28,0.95238
4748.49,0.95014
4742.7,0.94980
4736.92,0.94835
4731.13,0.94684
4725.35,0.94315
4719.56,0.93672
4713.77,0.93458
4707.99,0.93277
4702.2,0.93034
4696.42,0.92314
4690.63,0.91243
4684.84,0.91087
4679.06,0.91544
4673.27,0.91925
4667.48,0.92421
4661.7,0.92550
4655.91,0.92704
4650.13,0.92635
4644.34,0.92365
4638.55,0.91736
4632.77,0.91115
4626.98,0.91368
4621.2,0.92235
4615.41,0.93052
4609.62,0.93324
4603.84,0.93719
4598.05,0.93511
4592.26,0.93366
4586.48,0.93086
4580.69,0.92979
4574.91,0.92887
4569.12,0.93100
4563.33,0.93685
4557.55,0.93797
4551.76,0.93852
4545.98,0.93618
4540.19,0.93637
4534.4,0.93584
4528.62,0.93440
4522.83,0.93388
4517.05,0.93080
4511.26,0.92844
4505.47,0.92483
4499.69,0.92057
4493.9,0.91300
4488.11,0.90633
4482.33,0.90137
4476.54,0.90004
4470.76,0.89545
4464.97,0.88928
4459.18,0.88193
4453.4,0.86974
4447.61,0.85545
4441.83,0.83795
4436.04,0.81650
4430.25,0.79025
4424.47,0.76362
4418.68,0.73375
4412.89,0.70463
4407.11,0.67835
4401.32,0.65930
4395.54,0.65093
4389.75,0.64480
4383.96,0.62791
4378.18,0.60102
4372.39,0.56895
4366.61,0.53349
4360.82,0.49534
4355.03,0.46219
4349.25,0.43360
4343.46,0.40375
4337.67,0.37710
4331.89,0.36993
4326.1,0.39447
4320.32,0.43170
4314.53,0.46965
4308.74,0.49264
4302.96,0.50217
4297.17,0.50666
4291.39,0.50772
4285.6,0.50157
4279.81,0.49711
4274.03,0.49775
4268.24,0.50194
4262.46,0.50942
4256.67,0.51429
4250.88,0.51494
4245.1,0.51435
4239.31,0.51199
4233.52,0.50552
4227.74,0.49890
4221.95,0.49299
4216.17,0.48983
4210.38,0.49088
4204.59,0.50067
4198.81,0.51332
4193.02,0.52687
4187.24,0.53333
4181.45,0.52875
4175.66,0.51903
4169.88,0.51472
4164.09,0.52530
4158.3,0.54547
4152.52,0.56376
4146.73,0.57720
4140.95,0.59014
4135.16,0.60586
4129.37,0.61603
4123.59,0.61980
4117.8,0.61569
4112.02,0.60985
4106.23,0.60323
4100.44,0.59483
4094.66,0.57544
4088.87,0.54512
4083.08,0.52292
4077.3,0.53931
4071.51,0.56896
4065.73,0.59479
4059.94,0.61958
4054.15,0.63879
4048.37,0.65034
4042.58,0.65715
4036.8,0.66211
4031.01,0.66454
4025.22,0.66321
4019.44,0.66520
4013.65,0.66972
4007.86,0.67752
4002.08,0.68870
3996.29,0.69911
3990.51,0.70844
3984.72,0.71862
3978.93,0.72563
3973.15,0.73081
3967.36,0.73765
3961.58,0.74000
3955.79,0.74212
3950,0.73983
3944.22,0.74064
3938.43,0.74439
3932.65,0.74010
3926.86,0.74073
3921.07,0.73874
3915.29,0.74077
3909.5,0.74637
3903.71,0.73340
3897.93,0.74485
3892.14,0.74784
3886.36,0.74987
3880.57,0.75038
3874.78,0.75273
3869,0.74718
3863.21,0.74863
3857.43,0.75306
3851.64,0.74531
3845.85,0.76035
3840.07,0.74770
3834.28,0.75679
3828.49,0.76471
3822.71,0.76039
3816.92,0.76431
3811.14,0.78087
3805.35,0.77154
3799.56,0.77215
3793.78,0.79220
3787.99,0.79837
3782.21,0.79933
3776.42,0.80260
3770.63,0.79790
3764.85,0.79667
3759.06,0.78886
3753.27,0.78271
3747.49,0.78370
3741.7,0.79703
3735.92,0.78714
3730.13,0.80519
3724.34,0.80899
3718.56,0.82182
3712.77,0.80786
3706.99,0.80593
3701.2,0.79280
3695.41,0.77381
3689.63,0.72855
3683.84,0.71795
3678.06,0.70382
3672.27,0.70505
3666.48,0.72110
3660.7,0.72951
3654.91,0.72993
3649.12,0.71551
3643.34,0.73708
3637.55,0.73805
3631.77,0.72437
3625.98,0.71098
3620.19,0.69995
3614.41,0.69121
3608.62,0.68750
3602.84,0.68574
3597.05,0.67554
3591.26,0.66911
3585.48,0.65772
3579.69,0.65549
3573.9,0.64329
3568.12,0.62203
3562.33,0.61232
3556.55,0.60355
3550.76,0.59214
3544.97,0.58351
3539.19,0.58383
3533.4,0.58106
3527.62,0.57245
3521.83,0.57061
3516.04,0.56657
3510.26,0.55541
3504.47,0.54459
3498.68,0.53319
3492.9,0.51869
3487.11,0.50080
3481.33,0.48253
3475.54,0.46739
3469.75,0.45259
3463.97,0.43859
3458.18,0.42565
3452.4,0.41113
3446.61,0.38996
3440.82,0.36224
3435.04,0.33359
3429.25,0.31274
3423.47,0.30720
3417.68,0.31716
3411.89,0.34167
3406.11,0.37263
3400.32,0.40664
3394.53,0.43520
3388.75,0.45762
3382.96,0.47706
3377.18,0.49340
3371.39,0.50676
3365.6,0.51593
3359.82,0.52511
3354.03,0.53071
3348.25,0.53312
3342.46,0.52851
3336.67,0.52089
3330.89,0.51470
3325.1,0.50961
3319.31,0.49399
3313.53,0.45095
3307.74,0.36749
3301.96,0.30674
3296.17,0.34295
3290.38,0.41676
3284.6,0.47761
3278.81,0.52078
3273.03,0.54957
3267.24,0.57282
3261.45,0.58579
3255.67,0.59393
3249.88,0.59888
3244.09,0.59951
3238.31,0.59779
3232.52,0.59362
3226.74,0.58795
3220.95,0.58497
3215.16,0.58292
3209.38,0.57898
3203.59,0.57461
3197.81,0.56990
3192.02,0.56856
3186.23,0.56945
3180.45,0.57159
3174.66,0.57280
3168.87,0.57254
3163.09,0.57200
3157.3,0.57067
3151.52,0.56694
3145.73,0.56170
3139.94,0.55298
3134.16,0.54010
3128.37,0.52528
3122.59,0.51819
3116.8,0.51348
3111.01,0.49788
3105.23,0.47225
3099.44,0.43965
3093.66,0.41917
3087.87,0.39266
3082.08,0.35949
3076.3,0.35179
3070.51,0.33644
3064.72,0.30793
3058.94,0.30101
3053.15,0.28529
3047.37,0.29819
3041.58,0.30349
3035.79,0.28349
3030.01,0.25393
3024.22,0.22092
3018.44,0.18073
3012.65,0.13539
3006.86,0.08799
3001.08,0.04631
2995.29,0.01725
2989.5,0.00382
2983.72,0.00074
2977.93,0.00050
2972.15,0.00039
2966.36,0.00110
2960.57,0.00003
2954.79,0.00042
2949,0.00051
2943.22,0.00069
2937.43,0.00076
2931.64,0.00053
2925.86,0.00061
2920.07,0.00042
2914.28,0.00038
2908.5,0.00050
2902.71,0.00035
2896.93,0.00067
2891.14,0.00095
2885.35,0.00044
2879.57,0.00067
2873.78,0.00044
2868,0.00076
2862.21,0.00035
2856.42,0.00031
2850.64,0.00052
2844.85,0.00128
2839.07,0.00909
2833.28,0.02895
2827.49,0.05194
2821.71,0.06433
2815.92,0.07434
2810.13,0.12064
2804.35,0.17896
2798.56,0.22768
2792.78,0.27035
2786.99,0.30634
2781.2,0.33778
2775.42,0.36354
2769.63,0.37960
2763.85,0.38809
2758.06,0.38946
2752.27,0.38230
2746.49,0.36909
2740.7,0.35352
2734.91,0.34264
2729.13,0.35640
2723.34,0.39640
2717.56,0.42925
2711.77,0.44999
2705.98,0.46733
2700.2,0.47952
2694.41,0.48792
2688.63,0.49033
2682.84,0.48590
2677.05,0.47744
2671.27,0.47740
2665.48,0.48812
2659.69,0.50876
2653.91,0.52665
2648.12,0.53673
2642.34,0.53654
2636.55,0.52784
2630.76,0.51620
2624.98,0.51389
2619.19,0.51340
2613.41,0.51226
2607.62,0.51142
2601.83,0.51211
2596.05,0.51454
2590.26,0.51259
2584.47,0.50892
2578.69,0.50663
2572.9,0.51297
2567.12,0.52160
2561.33,0.52738
2555.54,0.52972
2549.76,0.53505
2543.97,0.54460
2538.19,0.55232
2532.4,0.55661
2526.61,0.56172
2520.83,0.57299
2515.04,0.58673
2509.26,0.60256
2503.47,0.61433
2497.68,0.62308
2491.9,0.62804
2486.11,0.63193
2480.32,0.63751
2474.54,0.64317
2468.75,0.64990
2462.97,0.65229
2457.18,0.65297
2451.39,0.65080
2445.61,0.64640
2439.82,0.63903
2434.04,0.63092
2428.25,0.61955
2422.46,0.60469
2416.68,0.59355
2410.89,0.58411
2405.1,0.57493
2399.32,0.56470
2393.53,0.55510
2387.75,0.54576
2381.96,0.53785
2376.17,0.52912
2370.39,0.52653
2364.6,0.52993
2358.82,0.54340
2353.03,0.57270
2347.24,0.59729
2341.46,0.60798
2335.67,0.62465
2329.88,0.63781
2324.1,0.64061
2318.31,0.65764
2312.53,0.67287
2306.74,0.67943
2300.95,0.67744
2295.17,0.67002
2289.38,0.65675
2283.6,0.63974
2277.81,0.62820
2272.02,0.63657
2266.24,0.65302
2260.45,0.66007
2254.67,0.66185
2248.88,0.66067
2243.09,0.65874
2237.31,0.65594
2231.52,0.65650
2225.73,0.66086
2219.95,0.66750
2214.16,0.67159
2208.38,0.67455
2202.59,0.69152
2196.8,0.70592
2191.02,0.71468
2185.23,0.72249
2179.45,0.73041
2173.66,0.73345
2167.87,0.73450
2162.09,0.73059
2156.3,0.72756
2150.51,0.72580
2144.73,0.72351
2138.94,0.72104
2133.16,0.71926
2127.37,0.71889
2121.58,0.71591
2115.8,0.71372
2110.01,0.71113
2104.23,0.71062
2098.44,0.70860
2092.65,0.70566
2086.87,0.70023
2081.08,0.69581
2075.29,0.69295
2069.51,0.69189
2063.72,0.69303
2057.94,0.69860
2052.15,0.70543
2046.36,0.71147
2040.58,0.71589
2034.79,0.71793
2029.01,0.72067
2023.22,0.72507
2017.43,0.73144
2011.65,0.73713
2005.86,0.73817
2000.08,0.73356
1994.29,0.71798
1988.5,0.70262
1982.72,0.69904
1976.93,0.69184
1971.14,0.67434
1965.36,0.64446
1959.57,0.60049
1953.79,0.53761
1948,0.51149
1942.21,0.54841
1936.43,0.59667
1930.64,0.63613
1924.86,0.65804
1919.07,0.66740
1913.28,0.67569
1907.5,0.67879
1901.71,0.68542
1895.92,0.68591
1890.14,0.68690
1884.35,0.69230
1878.57,0.69594
1872.78,0.69305
1866.99,0.68129
1861.21,0.67826
1855.42,0.66057
1849.64,0.63080
1843.85,0.59054
1838.06,0.56061
1832.28,0.50577
1826.49,0.44160
1820.7,0.42859
1814.92,0.44719
1809.13,0.45764
1803.35,0.45253
1797.56,0.43072
1791.77,0.39439
1785.99,0.36075
1780.2,0.31784
1774.42,0.27841
1768.63,0.22723
1762.84,0.17114
1757.06,0.09160
1751.27,0.03338
1745.48,0.00658
1739.7,0.00078
1733.91,0.00011
1728.13,0.00013
1722.34,0.00073
1716.55,0.00028
1710.77,0.00044
1704.98,0.00048
1699.2,0.00222
1693.41,0.02670
1687.62,0.05244
1681.84,0.06862
1676.05,0.07962
1670.27,0.10991
1664.48,0.19526
1658.69,0.27635
1652.91,0.29984
1647.12,0.28582
1641.33,0.20999
1635.55,0.18547
1629.76,0.29188
1623.98,0.33630
1618.19,0.32010
1612.4,0.27590
1606.62,0.30798
1600.83,0.36016
1595.05,0.37088
1589.26,0.35381
1583.47,0.24063
1577.69,0.10501
1571.9,0.17513
1566.11,0.22800
1560.33,0.25226
1554.54,0.27967
1548.76,0.28422
1542.97,0.24893
1537.18,0.23437
1531.4,0.26040
1525.61,0.26731
1519.83,0.28848
1514.04,0.25408
1508.25,0.13961
1502.47,0.08156
1496.68,0.20539
1490.89,0.20335
1485.11,0.11869
1479.32,0.04097
1473.54,0.00480
1467.75,0.00017
1461.96,0.00069
1456.18,0.00067
1450.39,0.00040
1444.61,0.00087
1438.82,0.00055
1433.03,0.00031
1427.25,0.00015
1421.46,0.00025
1415.68,-0.00002
1409.89,0.00016
1404.1,0.00145
1398.32,0.00531
1392.53,0.00189
1386.74,0.00010
1380.96,0.00044
1375.17,0.00035
1369.39,0.00126
1363.6,0.00162
1357.81,0.00064
1352.03,0.00044
1346.24,0.00056
1340.46,0.00030
1334.67,0.00021
1328.88,0.00029
1323.1,0.00035
1317.31,0.00035
1311.52,0.00041
1305.74,0.00026
1299.95,0.00023
1294.17,0.00078
1288.38,0.00028
1282.59,0.00029
1276.81,0.00019
1271.02,0.00014
1265.24,0.00027
1259.45,0.00061
1253.66,0.00019
1247.88,0.00027
1242.09,0.00015
1236.3,0.00027
1230.52,0.00058
1224.73,0.00036
1218.95,0.00240
1213.16,0.00283
1207.37,0.00247
1201.59,0.00157
1195.8,0.00249
1190.02,0.00577
1184.23,0.01254
1178.44,0.01271
1172.66,0.00522
1166.87,0.00744
1161.09,0.00803
1155.3,0.00627
1149.51,0.00474
1143.73,0.00429
1137.94,0.00192
1132.15,0.00030
1126.37,0.00065
1120.58,0.00115
1114.8,0.00061
1109.01,0.00055
1103.22,0.00003
1097.44,0.00096
1091.65,0.00095
1085.87,0.00089
1080.08,0.00112
1074.29,0.00391
1068.51,0.00974
1062.72,0.01496
1056.93,0.02092
1051.15,0.02608
1045.36,0.02720
1039.58,0.02425
1033.79,0.01811
1028,0.00910
1022.22,0.00109
1016.43,0.00058
1010.65,0.00772
1004.86,0.00855
999.073,0.00450
993.287,0.00219
987.501,0.00089
981.715,0.00056
975.929,0.00008
970.142,0.00092
964.356,0.00021
958.57,0.00010
952.784,0.00050
946.998,0.00040
941.212,0.00063
935.426,0.00184
929.64,0.00318
923.853,0.00366
918.067,0.00772
912.281,0.01293
906.495,0.01812
900.709,0.02785
894.923,0.03662
889.137,0.04891
883.35,0.03524
877.564,0.00482
871.778,0.00513
865.992,0.02810
860.206,0.04082
854.42,0.04169
848.634,0.04106
842.847,0.03981
837.061,0.03200
831.275,0.03138
825.489,0.07485
819.703,0.14142
813.917,0.16948
808.131,0.17189
802.344,0.18045
796.558,0.12728
790.772,0.13947
784.986,0.10901
779.2,0.09350
773.414,0.07128
767.628,0.06177
761.842,0.10872
756.055,0.17131
750.269,0.15459
744.483,0.06829
738.697,0.00531
732.911,0.00021
727.125,0.00020
721.339,0.01255
715.552,0.02317
709.766,0.00979
703.98,0.00257
698.194,0.00115
692.408,0.00130
686.622,0.00122
680.836,0.00154
675.049,0.00518
669.263,0.01273
663.477,0.02481
657.691,0.01381
651.905,0.00357
646.119,0.00096
640.333,0.00195
634.546,0.00155
628.76,0.00136
622.974,0.00148
617.188,0.00153
611.402,0.00214
605.616,0.00213
599.83,0.00447