File: 01_Data/PEVA/FTIR/IS/PEVA_0.10_IS_T_240808_R4.dpt
7496.93,0.02595
7491.14,0.03056
7485.35,0.02568
7479.57,0.03607
7473.78,0.04107
7468,0.04639
7462.21,0.03566
7456.42,0.03115
7450.64,0.02529
7444.85,0.04148
7439.06,0.04351
7433.28,0.04316
7427.49,0.04010
7421.71,0.02575
7415.92,0.03982
7410.13,0.03081
7404.35,0.02404
7398.56,0.03452
7392.78,0.03001
7386.99,0.03528
7381.2,0.03477
7375.42,0.03618
7369.63,0.02847
7363.84,0.03592
7358.06,0.04716
7352.27,0.04331
7346.49,0.03259
7340.7,0.02437
7334.91,0.03821
7329.13,0.04242
7323.34,0.04171
7317.56,0.03717
7311.77,0.03721
7305.98,0.03071
7300.2,0.02765
7294.41,0.03313
7288.62,0.02459
7282.84,0.03999
7277.05,0.03306
7271.27,0.03958
7265.48,0.03351
7259.69,0.03766
7253.91,0.03519
7248.12,0.03621
7242.34,0.02031
7236.55,0.02749
7230.76,0.02803
7224.98,0.04773
7219.19,0.03343
7213.4,0.03249
7207.62,0.03732
7201.83,0.03824
7196.05,0.02591
7190.26,0.03208
7184.47,0.03398
7178.69,0.03400
7172.9,0.03098
7167.12,0.02877
7161.33,0.02542
7155.54,0.03113
7149.76,0.02401
7143.97,0.01808
7138.18,0.02804
7132.4,0.01891
7126.61,0.03783
7120.83,0.03731
7115.04,0.04061
7109.25,0.03682
7103.47,0.03421
7097.68,0.03208
7091.9,0.03461
7086.11,0.03459
7080.32,0.03454
7074.54,0.03709
7068.75,0.03043
7062.96,0.02743
7057.18,0.03106
7051.39,0.03401
7045.61,0.02722
7039.82,0.03928
7034.03,0.03065
7028.25,0.02374
7022.46,0.02868
7016.68,0.03481
7010.89,0.03568
7005.1,0.03057
6999.32,0.03265
6993.53,0.03234
6987.74,0.02238
6981.96,0.03499
6976.17,0.03771
6970.39,0.03575
6964.6,0.04418
6958.81,0.03052
6953.03,0.02887
6947.24,0.03215
6941.46,0.03243
6935.67,0.03816
6929.88,0.03295
6924.1,0.03506
6918.31,0.03652
6912.52,0.02554
6906.74,0.02719
6900.95,0.03618
6895.17,0.03233
6889.38,0.02982
6883.59,0.02604
6877.81,0.03377
6872.02,0.03450
6866.24,0.03476
6860.45,0.02492
6854.66,0.03409
6848.88,0.03424
6843.09,0.03756
6837.3,0.03386
6831.52,0.02785
6825.73,0.03105
6819.95,0.02801
6814.16,0.03174
6808.37,0.04148
6802.59,0.04041
6796.8,0.02877
6791.02,0.02685
6785.23,0.03465
6779.44,0.02633
6773.66,0.02466
6767.87,0.03552
6762.08,0.02513
6756.3,0.02743
6750.51,0.03514
6744.73,0.03523
6738.94,0.03117
6733.15,0.03159
6727.37,0.02438
6721.58,0.03206
6715.8,0.02865
6710.01,0.03323
6704.22,0.03045
6698.44,0.03779
6692.65,0.03131
6686.86,0.02995
6681.08,0.02962
6675.29,0.03264
6669.51,0.02586
6663.72,0.03031
6657.93,0.03589
6652.15,0.02828
6646.36,0.03238
6640.58,0.03199
6634.79,0.02822
6629,0.03583
6623.22,0.03046
6617.43,0.03349
6611.64,0.03345
6605.86,0.02862
6600.07,0.03449
6594.29,0.02867
6588.5,0.03382
6582.71,0.02708
6576.93,0.03941
6571.14,0.03224
6565.36,0.02811
6559.57,0.03507
6553.78,0.03307
6548,0.03284
6542.21,0.03055
6536.42,0.03131
6530.64,0.02858
6524.85,0.03445
6519.07,0.03227
6513.28,0.03231
6507.49,0.02795
6501.71,0.02534
6495.92,0.02830
6490.14,0.02458
6484.35,0.02744
6478.56,0.02824
6472.78,0.02689
6466.99,0.02815
6461.2,0.02906
6455.42,0.02772
6449.63,0.02863
6443.85,0.03218
6438.06,0.03163
6432.27,0.03186
6426.49,0.02865
6420.7,0.02921
6414.92,0.03015
6409.13,0.02651
6403.34,0.03167
6397.56,0.02961
6391.77,0.02493
6385.98,0.02374
6380.2,0.03091
6374.41,0.03255
6368.63,0.03241
6362.84,0.03391
6357.05,0.02865
6351.27,0.03399
6345.48,0.03381
6339.7,0.02895
6333.91,0.03350
6328.12,0.03014
6322.34,0.02577
6316.55,0.02886
6310.76,0.03023
6304.98,0.02944
6299.19,0.03779
6293.41,0.02987
6287.62,0.03460
6281.83,0.03030
6276.05,0.02828
6270.26,0.03271
6264.48,0.03000
6258.69,0.02928
6252.9,0.02665
6247.12,0.03457
6241.33,0.03119
6235.54,0.03055
6229.76,0.02703
6223.97,0.02922
6218.19,0.03065
6212.4,0.02742
6206.61,0.02927
6200.83,0.03232
6195.04,0.02758
6189.26,0.03115
6183.47,0.02808
6177.68,0.03017
6171.9,0.03063
6166.11,0.02901
6160.32,0.03041
6154.54,0.02994
6148.75,0.02893
6142.97,0.03007
6137.18,0.03106
6131.39,0.03327
6125.61,0.02784
6119.82,0.02926
6114.04,0.02900
6108.25,0.02823
6102.46,0.02894
6096.68,0.03151
6090.89,0.02974
6085.1,0.02808
6079.32,0.02598
6073.53,0.02983
6067.75,0.03261
6061.96,0.02999
6056.17,0.03236
6050.39,0.03087
6044.6,0.02881
6038.82,0.02830
6033.03,0.02965
6027.24,0.03232
6021.46,0.02950
6015.67,0.03128
6009.88,0.03288
6004.1,0.03016
5998.31,0.02475
5992.53,0.02933
5986.74,0.02950
5980.95,0.03003
5975.17,0.02812
5969.38,0.02591
5963.6,0.03036
5957.81,0.03236
5952.02,0.02987
5946.24,0.03032
5940.45,0.03055
5934.66,0.02826
5928.88,0.03055
5923.09,0.02548
5917.31,0.02982
5911.52,0.03238
5905.73,0.03074
5899.95,0.02717
5894.16,0.03019
5888.38,0.03189
5882.59,0.02867
5876.8,0.02890
5871.02,0.02989
5865.23,0.03070
5859.44,0.02746
5853.66,0.03314
5847.87,0.03002
5842.09,0.02986
5836.3,0.02939
5830.51,0.02907
5824.73,0.02855
5818.94,0.03013
5813.16,0.03312
5807.37,0.02587
5801.58,0.02904
5795.8,0.02985
5790.01,0.02861
5784.22,0.02978
5778.44,0.03237
5772.65,0.02932
5766.87,0.03166
5761.08,0.02629
5755.29,0.03058
5749.51,0.03393
5743.72,0.02996
5737.94,0.02952
5732.15,0.02953
5726.36,0.03004
5720.58,0.02974
5714.79,0.03037
5709,0.02992
5703.22,0.02949
5697.43,0.02924
5691.65,0.03060
5685.86,0.02790
5680.07,0.02794
5674.29,0.03121
5668.5,0.03229
5662.72,0.03128
5656.93,0.03052
5651.14,0.02991
5645.36,0.02866
5639.57,0.02977
5633.78,0.02893
5628,0.03125
5622.21,0.03047
5616.43,0.03004
5610.64,0.03379
5604.85,0.03106
5599.07,0.02796
5593.28,0.03158
5587.5,0.03040
5581.71,0.02843
5575.92,0.02975
5570.14,0.03027
5564.35,0.02918
5558.56,0.03048
5552.78,0.02810
5546.99,0.02915
5541.21,0.02858
5535.42,0.02933
5529.63,0.02999
5523.85,0.02931
5518.06,0.02845
5512.28,0.03012
5506.49,0.02863
5500.7,0.02868
5494.92,0.02846
5489.13,0.02831
5483.34,0.02826
5477.56,0.02810
5471.77,0.02815
5465.99,0.02943
5460.2,0.02956
5454.41,0.03197
5448.63,0.03005
5442.84,0.02768
5437.06,0.02829
5431.27,0.02993
5425.48,0.02785
5419.7,0.02712
5413.91,0.03004
5408.12,0.02923
5402.34,0.03002
5396.55,0.02973
5390.77,0.02735
5384.98,0.02823
5379.19,0.02916
5373.41,0.02956
5367.62,0.02933
5361.84,0.02930
5356.05,0.03081
5350.26,0.02941
5344.48,0.02727
5338.69,0.03052
5332.9,0.03007
5327.12,0.02828
5321.33,0.03061
5315.55,0.02982
5309.76,0.03131
5303.97,0.03113
5298.19,0.02911
5292.4,0.02908
5286.62,0.02805
5280.83,0.02749
5275.04,0.02924
5269.26,0.02923
5263.47,0.02956
5257.68,0.03082
5251.9,0.02931
5246.11,0.02968
5240.33,0.03005
5234.54,0.02961
5228.75,0.03010
5222.97,0.02976
5217.18,0.03084
5211.4,0.03049
5205.61,0.02839
5199.82,0.02940
5194.04,0.02978
5188.25,0.03041
5182.46,0.03002
5176.68,0.03089
5170.89,0.02923
5165.11,0.02879
5159.32,0.02960
5153.53,0.02916
5147.75,0.02866
5141.96,0.02986
5136.18,0.03030
5130.39,0.02901
5124.6,0.02988
5118.82,0.02897
5113.03,0.02905
5107.24,0.02911
5101.46,0.02949
5095.67,0.02663
5089.89,0.02947
5084.1,0.03018
5078.31,0.02880
5072.53,0.03118
5066.74,0.03057
5060.96,0.02803
5055.17,0.02983
5049.38,0.02847
5043.6,0.02974
5037.81,0.02961
5032.02,0.03024
5026.24,0.03069
5020.45,0.02871
5014.67,0.02910
5008.88,0.02924
5003.09,0.02868
4997.31,0.02935
4991.52,0.03070
4985.74,0.02848
4979.95,0.02971
4974.16,0.02881
4968.38,0.02946
4962.59,0.02925
4956.8,0.03009
4951.02,0.03037
4945.23,0.02918
4939.45,0.02941
4933.66,0.02987
4927.87,0.03040
4922.09,0.03133
4916.3,0.03072
4910.52,0.02817
4904.73,0.02942
4898.94,0.02838
4893.16,0.02914
4887.37,0.02828
4881.58,0.02778
4875.8,0.02944
4870.01,0.03014
4864.23,0.02999
4858.44,0.02878
4852.65,0.03066
4846.87,0.02968
4841.08,0.02985
4835.3,0.03110
4829.51,0.03019
4823.72,0.02906
4817.94,0.03065
4812.15,0.02958
4806.36,0.02841
4800.58,0.02953
4794.79,0.02985
4789.01,0.02847
4783.22,0.03036
4777.43,0.03113
4771.65,0.02961
4765.86,0.02980
4760.08,0.02968
4754.29,0.02941
4748.5,0.02861
4742.72,0.03031
4736.93,0.02964
4731.14,0.03020
4725.36,0.02960
4719.57,0.02976
4713.79,0.02891
4708,0.02821
4702.21,0.02916
4696.43,0.02905
4690.64,0.03014
4684.86,0.02980
4679.07,0.02854
4673.28,0.02925
4667.5,0.02928
4661.71,0.02876
4655.92,0.02852
4650.14,0.02892
4644.35,0.02885
4638.57,0.03026
4632.78,0.02933
4626.99,0.02990
4621.21,0.02948
4615.42,0.02981
4609.64,0.02906
4603.85,0.02974
4598.06,0.02964
4592.28,0.02937
4586.49,0.02948
4580.7,0.02978
4574.92,0.03016
4569.13,0.02922
4563.35,0.02913
4557.56,0.02894
4551.77,0.02911
4545.99,0.02981
4540.2,0.03005
4534.42,0.02963
4528.63,0.02962
4522.84,0.02996
4517.06,0.02896
4511.27,0.02940
4505.48,0.02902
4499.7,0.02978
4493.91,0.02928
4488.13,0.02868
4482.34,0.02828
4476.55,0.02896
4470.77,0.03031
4464.98,0.02892
4459.2,0.02937
4453.41,0.03070
4447.62,0.02966
4441.84,0.02914
4436.05,0.02850
4430.26,0.02981
4424.48,0.02936
4418.69,0.02891
4412.91,0.03009
4407.12,0.02985
4401.33,0.02869
4395.55,0.02980
4389.76,0.02990
4383.98,0.02936
4378.19,0.02916
4372.4,0.02896
4366.62,0.02981
4360.83,0.02900
4355.04,0.02913
4349.26,0.02910
4343.47,0.02866
4337.69,0.02863
4331.9,0.02918
4326.11,0.02891
4320.33,0.02995
4314.54,0.02959
4308.76,0.02871
4302.97,0.02875
4297.18,0.02916
4291.4,0.02890
4285.61,0.02854
4279.82,0.02923
4274.04,0.02891
4268.25,0.02914
4262.47,0.02990
4256.68,0.02999
4250.89,0.03009
4245.11,0.02998
4239.32,0.02904
4233.54,0.02934
4227.75,0.03043
4221.96,0.02898
4216.18,0.02949
4210.39,0.02945
4204.6,0.02866
4198.82,0.02922
4193.03,0.02957
4187.25,0.02913
4181.46,0.02914
4175.67,0.02945
4169.89,0.03019
4164.1,0.02902
4158.32,0.02954
4152.53,0.03053
4146.74,0.02961
4140.96,0.02923
4135.17,0.02958
4129.38,0.02918
4123.6,0.03015
4117.81,0.02897
4112.03,0.02917
4106.24,0.02959
4100.45,0.02855
4094.67,0.02845
4088.88,0.02942
4083.1,0.02949
4077.31,0.02912
4071.52,0.03011
4065.74,0.02930
4059.95,0.02922
4054.16,0.02923
4048.38,0.02950
4042.59,0.02879
4036.81,0.02931
4031.02,0.02939
4025.23,0.02916
4019.45,0.02931
4013.66,0.02882
4007.88,0.02961
4002.09,0.02916
3996.3,0.02868
3990.52,0.02873
3984.73,0.02879
3978.94,0.02993
3973.16,0.02957
3967.37,0.02948
3961.59,0.02985
3955.8,0.02876
3950.01,0.02928
3944.23,0.02947
3938.44,0.02918
3932.66,0.02970
3926.87,0.02965
3921.08,0.02907
3915.3,0.02853
3909.51,0.02957
3903.72,0.03031
3897.94,0.02837
3892.15,0.02852
3886.37,0.02980
3880.58,0.02912
3874.79,0.02947
3869.01,0.02944
3863.22,0.02944
3857.44,0.02965
3851.65,0.02977
3845.86,0.02979
3840.08,0.03000
3834.29,0.02974
3828.5,0.02926
3822.72,0.02895
3816.93,0.02994
3811.15,0.02976
3805.36,0.02875
3799.57,0.02852
3793.79,0.02947
3788,0.02947
3782.22,0.02912
3776.43,0.02868
3770.64,0.02990
3764.86,0.02951
3759.07,0.02954
3753.28,0.02928
3747.5,0.03004
3741.71,0.02955
3735.93,0.02840
3730.14,0.02909
3724.35,0.02898
3718.57,0.02913
3712.78,0.02921
3707,0.02906
3701.21,0.02845
3695.42,0.02788
3689.64,0.02893
3683.85,0.02847
3678.06,0.02855
3672.28,0.02899
3666.49,0.02876
3660.71,0.02844
3654.92,0.02774
3649.13,0.02774
3643.35,0.02732
3637.56,0.02738
3631.78,0.02819
3625.99,0.02703
3620.2,0.02752
3614.42,0.02787
3608.63,0.02728
3602.84,0.02646
3597.06,0.02729
3591.27,0.02739
3585.49,0.02686
3579.7,0.02686
3573.91,0.02713
3568.13,0.02720
3562.34,0.02667
3556.56,0.02606
3550.77,0.02661
3544.98,0.02641
3539.2,0.02617
3533.41,0.02627
3527.62,0.02670
3521.84,0.02653
3516.05,0.02644
3510.27,0.02589
3504.48,0.02656
3498.69,0.02667
3492.91,0.02667
3487.12,0.02612
3481.34,0.02532
3475.55,0.02518
3469.76,0.02498
3463.98,0.02642
3458.19,0.02584
3452.4,0.02632
3446.62,0.02499
3440.83,0.02480
3435.05,0.02570
3429.26,0.02563
3423.47,0.02660
3417.69,0.02591
3411.9,0.02565
3406.12,0.02602
3400.33,0.02572
3394.54,0.02568
3388.76,0.02566
3382.97,0.02548
3377.18,0.02507
3371.4,0.02556
3365.61,0.02534
3359.83,0.02504
3354.04,0.02515
3348.25,0.02538
3342.47,0.02498
3336.68,0.02456
3330.9,0.02526
3325.11,0.02512
3319.32,0.02505
3313.54,0.02493
3307.75,0.02460
3301.96,0.02527
3296.18,0.02563
3290.39,0.02551
3284.61,0.02493
3278.82,0.02559
3273.03,0.02456
3267.25,0.02547
3261.46,0.02584
3255.68,0.02653
3249.89,0.02613
3244.1,0.02624
3238.32,0.02563
3232.53,0.02642
3226.74,0.02495
3220.96,0.02551
3215.17,0.02564
3209.39,0.02659
3203.6,0.02629
3197.81,0.02711
3192.03,0.02581
3186.24,0.02587
3180.46,0.02583
3174.67,0.02663
3168.88,0.02606
3163.1,0.02652
3157.31,0.02699
3151.52,0.02629
3145.74,0.02676
3139.95,0.02712
3134.17,0.02667
3128.38,0.02642
3122.59,0.02624
3116.81,0.02653
3111.02,0.02650
3105.24,0.02645
3099.45,0.02622
3093.66,0.02692
3087.88,0.02643
3082.09,0.02558
3076.3,0.02636
3070.52,0.02669
3064.73,0.02587
3058.95,0.02593
3053.16,0.02620
3047.37,0.02699
3041.59,0.02634
3035.8,0.02591
3030.02,0.02577
3024.23,0.02585
3018.44,0.02612
3012.66,0.02651
3006.87,0.02634
3001.08,0.02564
2995.3,0.02601
2989.51,0.02551
2983.73,0.02543
2977.94,0.02564
2972.15,0.02500
2966.37,0.02504
2960.58,0.02478
2954.8,0.02461
2949.01,0.02538
2943.22,0.02482
2937.44,0.02529
2931.65,0.02527
2925.86,0.02523
2920.08,0.02599
2914.29,0.02571
2908.51,0.02529
2902.72,0.02585
2896.93,0.02559
2891.15,0.02593
2885.36,0.02594
2879.58,0.02617
2873.79,0.02577
2868,0.02607
2862.22,0.02598
2856.43,0.02574
2850.64,0.02588
2844.86,0.02607
2839.07,0.02688
2833.29,0.02648
2827.5,0.02716
2821.71,0.02664
2815.93,0.02621
2810.14,0.02651
2804.36,0.02654
2798.57,0.02652
2792.78,0.02662
2787,0.02678
2781.21,0.02655
2775.42,0.02662
2769.64,0.02688
2763.85,0.02682
2758.07,0.02667
2752.28,0.02679
2746.49,0.02648
2740.71,0.02644
2734.92,0.02655
2729.14,0.02695
2723.35,0.02704
2717.56,0.02615
2711.78,0.02678
2705.99,0.02631
2700.2,0.02664
2694.42,0.02634
2688.63,0.02671
2682.85,0.02656
2677.06,0.02631
2671.27,0.02648
2665.49,0.02673
2659.7,0.02634
2653.92,0.02624
2648.13,0.02660
2642.34,0.02649
2636.56,0.02671
2630.77,0.02639
2624.98,0.02640
2619.2,0.02611
2613.41,0.02632
2607.63,0.02657
2601.84,0.02622
2596.05,0.02674
2590.27,0.02650
2584.48,0.02623
2578.7,0.02623
2572.91,0.02650
2567.12,0.02681
2561.34,0.02660
2555.55,0.02656
2549.76,0.02643
2543.98,0.02636
2538.19,0.02622
2532.41,0.02642
2526.62,0.02643
2520.83,0.02609
2515.05,0.02605
2509.26,0.02612
2503.48,0.02654
2497.69,0.02660
2491.9,0.02620
2486.12,0.02612
2480.33,0.02604
2474.55,0.02608
2468.76,0.02625
2462.97,0.02596
2457.19,0.02637
2451.4,0.02667
2445.61,0.02653
2439.83,0.02630
2434.04,0.02631
2428.26,0.02650
2422.47,0.02649
2416.68,0.02613
2410.9,0.02602
2405.11,0.02625
2399.32,0.02635
2393.54,0.02580
2387.75,0.02565
2381.97,0.02674
2376.18,0.02643
2370.39,0.02636
2364.61,0.02618
2358.82,0.02639
2353.04,0.02592
2347.25,0.02662
2341.46,0.02674
2335.68,0.02643
2329.89,0.02672
2324.11,0.02597
2318.32,0.02589
2312.53,0.02582
2306.75,0.02596
2300.96,0.02595
2295.17,0.02574
2289.39,0.02634
2283.6,0.02615
2277.82,0.02572
2272.03,0.02523
2266.24,0.02556
2260.46,0.02566
2254.67,0.02582
2248.89,0.02582
2243.1,0.02597
2237.31,0.02582
2231.53,0.02546
2225.74,0.02567
2219.95,0.02540
2214.17,0.02533
2208.38,0.02552
2202.6,0.02573
2196.81,0.02587
2191.02,0.02600
2185.24,0.02548
2179.45,0.02521
2173.67,0.02509
2167.88,0.02514
2162.09,0.02517
2156.31,0.02504
2150.52,0.02549
2144.73,0.02551
2138.95,0.02528
2133.16,0.02506
2127.38,0.02562
2121.59,0.02548
2115.8,0.02520
2110.02,0.02547
2104.23,0.02569
2098.45,0.02514
2092.66,0.02521
2086.87,0.02536
2081.09,0.02517
2075.3,0.02514
2069.51,0.02527
2063.73,0.02483
2057.94,0.02516
2052.16,0.02470
2046.37,0.02520
2040.58,0.02523
2034.8,0.02488
2029.01,0.02491
2023.23,0.02480
2017.44,0.02532
2011.65,0.02543
2005.87,0.02505
2000.08,0.02525
1994.29,0.02516
1988.51,0.02518
1982.72,0.02489
1976.94,0.02502
1971.15,0.02498
1965.36,0.02508
1959.58,0.02471
1953.79,0.02483
1948.01,0.02481
1942.22,0.02518
1936.43,0.02522
1930.65,0.02502
1924.86,0.02489
1919.07,0.02471
1913.29,0.02484
1907.5,0.02461
1901.72,0.02466
1895.93,0.02446
1890.14,0.02458
1884.36,0.02482
1878.57,0.02433
1872.79,0.02436
1867,0.02417
1861.21,0.02415
1855.43,0.02412
1849.64,0.02413
1843.85,0.02406
1838.07,0.02400
1832.28,0.02428
1826.5,0.02394
1820.71,0.02373
1814.92,0.02351
1809.14,0.02315
1803.35,0.02351
1797.57,0.02321
1791.78,0.02317
1785.99,0.02286
1780.21,0.02239
1774.42,0.02245
1768.63,0.02179
1762.85,0.02170
1757.06,0.02140
1751.28,0.02124
1745.49,0.02123
1739.7,0.02196
1733.92,0.02296
1728.13,0.02347
1722.35,0.02402
1716.56,0.02406
1710.77,0.02390
1704.99,0.02366
1699.2,0.02259
1693.41,0.02212
1687.63,0.02263
1681.84,0.02136
1676.06,0.02147
1670.27,0.02198
1664.48,0.02103
1658.7,0.02092
1652.91,0.02038
1647.13,0.02169
1641.34,0.02138
1635.55,0.02136
1629.77,0.02153
1623.98,0.02190
1618.19,0.02133
1612.41,0.02122
1606.62,0.02190
1600.84,0.02188
1595.05,0.02160
1589.26,0.02092
1583.48,0.02121
1577.69,0.02153
1571.91,0.02148
1566.12,0.02051
1560.33,0.02151
1554.55,0.02084
1548.76,0.02057
1542.97,0.02152
1537.19,0.02171
1531.4,0.02157
1525.62,0.02124
1519.83,0.02165
1514.04,0.02177
1508.26,0.02172
1502.47,0.02124
1496.69,0.02105
1490.9,0.02166
1485.11,0.02116
1479.33,0.02113
1473.54,0.02105
1467.75,0.02065
1461.97,0.02129
1456.18,0.02068
1450.4,0.02084
1444.61,0.02096
1438.82,0.02111
1433.04,0.02065
1427.25,0.02079
1421.47,0.02111
1415.68,0.02064
1409.89,0.02009
1404.11,0.02044
1398.32,0.02082
1392.53,0.02026
1386.75,0.02021
1380.96,0.02034
1375.18,0.02037
1369.39,0.02039
1363.6,0.01966
1357.82,0.01973
1352.03,0.01980
1346.25,0.01996
1340.46,0.01979
1334.67,0.01956
1328.89,0.01958
1323.1,0.01904
1317.31,0.01878
1311.53,0.01892
1305.74,0.01931
1299.96,0.01941
1294.17,0.01977
1288.38,0.02014
1282.6,0.02022
1276.81,0.02107
1271.03,0.02123
1265.24,0.02134
1259.45,0.02238
1253.67,0.02199
1247.88,0.02175
1242.09,0.02167
1236.31,0.02135
1230.52,0.02111
1224.74,0.02119
1218.95,0.02137
1213.16,0.02081
1207.38,0.02057
1201.59,0.02052
1195.81,0.02001
1190.02,0.02036
1184.23,0.01945
1178.45,0.01995
1172.66,0.01986
1166.87,0.01900
1161.09,0.01900
1155.3,0.01914
1149.52,0.01910
1143.73,0.01936
1137.94,0.01921
1132.16,0.02024
1126.37,0.02050
1120.59,0.02104
1114.8,0.02126
1109.01,0.02105
1103.23,0.02100
1097.44,0.02109
1091.65,0.02107
1085.87,0.02152
1080.08,0.02153
1074.3,0.02287
1068.51,0.02285
1062.72,0.02230
1056.94,0.02235
1051.15,0.02301
1045.37,0.02199
1039.58,0.02275
1033.79,0.02185
1028.01,0.02226
1022.22,0.02236
1016.43,0.02249
1010.65,0.02284
1004.86,0.02306
999.076,0.02334
993.29,0.02266
987.504,0.02299
981.717,0.02343
975.931,0.02307
970.145,0.02276
964.359,0.02305
958.573,0.02282
952.787,0.02308
947,0.02236
941.214,0.02234
935.428,0.02173
929.642,0.02196
923.856,0.02194
918.07,0.02093
912.284,0.02169
906.497,0.02104
900.711,0.02111
894.925,0.02210
889.139,0.02128
883.353,0.02175
877.567,0.02117
871.78,0.02073
865.994,0.02159
860.208,0.02065
854.422,0.02109
848.636,0.02146
842.85,0.02145
837.064,0.02065
831.277,0.02081
825.491,0.02018
819.705,0.02123
813.919,0.02096
808.133,0.02048
802.347,0.02017
796.56,0.02020
790.774,0.02037
784.988,0.02044
779.202,0.01917
773.416,0.01997
767.63,0.01973
761.844,0.01982
756.057,0.01884
750.271,0.01897
744.485,0.01955
738.699,0.01902
732.913,0.01901
727.127,0.01962
721.34,0.01923
715.554,0.01912
709.768,0.01904
703.982,0.01814
698.196,0.01884
692.41,0.01831
686.624,0.01858
680.837,0.01814
675.051,0.01744
669.265,0.01696
663.479,0.01714
657.693,0.01776
651.907,0.01732
646.12,0.01772
640.334,0.01801
634.548,0.01648
628.762,0.01750
622.976,0.01746
617.19,0.01927
611.404,0.01883
605.617,0.01641
599.831,0.01798