File: 01_Data/PEVA/FTIR/IS/PEVA_0.10_IS_S_240808_R5.dpt
7496.93,0.10093
7491.14,0.10460
7485.35,0.10627
7479.57,0.09212
7473.78,0.09944
7468,0.08883
7462.21,0.11372
7456.42,0.08203
7450.64,0.08128
7444.85,0.10407
7439.06,0.09957
7433.28,0.10669
7427.49,0.10040
7421.71,0.09999
7415.92,0.09732
7410.13,0.09046
7404.35,0.08348
7398.56,0.09810
7392.78,0.11326
7386.99,0.10638
7381.2,0.09597
7375.42,0.08262
7369.63,0.08886
7363.84,0.09841
7358.06,0.09296
7352.27,0.09693
7346.49,0.09806
7340.7,0.10700
7334.91,0.10744
7329.13,0.09346
7323.34,0.08422
7317.56,0.09390
7311.77,0.09950
7305.98,0.09082
7300.2,0.09567
7294.41,0.08558
7288.62,0.09808
7282.84,0.09392
7277.05,0.10050
7271.27,0.09247
7265.48,0.10908
7259.69,0.09618
7253.91,0.09088
7248.12,0.09787
7242.34,0.10016
7236.55,0.08921
7230.76,0.10138
7224.98,0.10183
7219.19,0.09681
7213.4,0.09199
7207.62,0.09789
7201.83,0.09130
7196.05,0.10154
7190.26,0.09425
7184.47,0.10054
7178.69,0.10253
7172.9,0.10103
7167.12,0.09302
7161.33,0.09242
7155.54,0.09297
7149.76,0.10067
7143.97,0.09442
7138.18,0.09183
7132.4,0.08558
7126.61,0.09757
7120.83,0.09257
7115.04,0.08846
7109.25,0.08067
7103.47,0.10060
7097.68,0.09848
7091.9,0.10255
7086.11,0.09998
7080.32,0.09667
7074.54,0.10495
7068.75,0.09783
7062.96,0.08794
7057.18,0.09252
7051.39,0.09591
7045.61,0.09685
7039.82,0.09741
7034.03,0.10099
7028.25,0.09140
7022.46,0.09309
7016.68,0.10004
7010.89,0.09751
7005.1,0.09817
6999.32,0.09569
6993.53,0.09305
6987.74,0.09499
6981.96,0.09492
6976.17,0.09210
6970.39,0.09338
6964.6,0.09723
6958.81,0.09012
6953.03,0.08999
6947.24,0.08852
6941.46,0.09622
6935.67,0.10667
6929.88,0.10405
6924.1,0.09900
6918.31,0.09301
6912.52,0.10295
6906.74,0.09591
6900.95,0.09145
6895.17,0.09547
6889.38,0.10364
6883.59,0.09626
6877.81,0.09917
6872.02,0.10285
6866.24,0.10705
6860.45,0.09710
6854.66,0.09767
6848.88,0.10103
6843.09,0.10190
6837.3,0.10227
6831.52,0.09483
6825.73,0.10386
6819.95,0.10401
6814.16,0.10087
6808.37,0.09866
6802.59,0.10334
6796.8,0.10042
6791.02,0.09250
6785.23,0.09740
6779.44,0.09225
6773.66,0.09315
6767.87,0.09817
6762.08,0.09623
6756.3,0.10491
6750.51,0.10825
6744.73,0.10469
6738.94,0.09897
6733.15,0.09530
6727.37,0.09629
6721.58,0.10053
6715.8,0.09852
6710.01,0.09475
6704.22,0.10060
6698.44,0.09797
6692.65,0.09407
6686.86,0.09570
6681.08,0.09463
6675.29,0.09363
6669.51,0.09297
6663.72,0.09292
6657.93,0.09584
6652.15,0.10525
6646.36,0.09397
6640.58,0.10000
6634.79,0.09738
6629,0.09816
6623.22,0.09393
6617.43,0.09443
6611.64,0.09527
6605.86,0.09749
6600.07,0.09601
6594.29,0.09493
6588.5,0.09567
6582.71,0.09830
6576.93,0.10111
6571.14,0.09747
6565.36,0.09334
6559.57,0.09723
6553.78,0.09962
6548,0.10041
6542.21,0.09753
6536.42,0.10150
6530.64,0.09641
6524.85,0.09589
6519.07,0.09750
6513.28,0.10109
6507.49,0.09845
6501.71,0.09726
6495.92,0.09991
6490.14,0.10575
6484.35,0.10360
6478.56,0.10094
6472.78,0.09752
6466.99,0.09576
6461.2,0.09133
6455.42,0.09745
6449.63,0.09544
6443.85,0.09656
6438.06,0.09657
6432.27,0.09458
6426.49,0.09691
6420.7,0.09587
6414.92,0.09761
6409.13,0.09742
6403.34,0.09610
6397.56,0.09882
6391.77,0.09656
6385.98,0.09712
6380.2,0.09596
6374.41,0.09585
6368.63,0.09341
6362.84,0.09852
6357.05,0.10172
6351.27,0.09830
6345.48,0.09764
6339.7,0.09848
6333.91,0.10110
6328.12,0.09736
6322.34,0.09535
6316.55,0.09927
6310.76,0.09766
6304.98,0.09069
6299.19,0.10436
6293.41,0.09452
6287.62,0.09349
6281.83,0.09440
6276.05,0.09911
6270.26,0.09288
6264.48,0.09962
6258.69,0.09888
6252.9,0.09470
6247.12,0.09612
6241.33,0.09784
6235.54,0.09701
6229.76,0.09819
6223.97,0.09893
6218.19,0.09859
6212.4,0.09685
6206.61,0.09752
6200.83,0.09764
6195.04,0.10069
6189.26,0.09467
6183.47,0.09398
6177.68,0.09532
6171.9,0.09944
6166.11,0.10404
6160.32,0.09950
6154.54,0.09551
6148.75,0.09689
6142.97,0.09748
6137.18,0.09556
6131.39,0.10264
6125.61,0.10106
6119.82,0.10124
6114.04,0.10192
6108.25,0.09823
6102.46,0.09993
6096.68,0.09857
6090.89,0.09952
6085.1,0.10069
6079.32,0.09988
6073.53,0.09319
6067.75,0.09817
6061.96,0.09637
6056.17,0.09607
6050.39,0.09361
6044.6,0.09292
6038.82,0.09579
6033.03,0.09632
6027.24,0.09484
6021.46,0.10081
6015.67,0.09973
6009.88,0.09716
6004.1,0.09794
5998.31,0.09749
5992.53,0.09453
5986.74,0.09687
5980.95,0.09566
5975.17,0.09467
5969.38,0.09429
5963.6,0.10035
5957.81,0.09828
5952.02,0.09757
5946.24,0.09620
5940.45,0.09872
5934.66,0.09916
5928.88,0.09962
5923.09,0.10004
5917.31,0.09970
5911.52,0.09505
5905.73,0.09692
5899.95,0.09489
5894.16,0.09424
5888.38,0.09921
5882.59,0.09827
5876.8,0.09609
5871.02,0.09420
5865.23,0.09315
5859.44,0.09408
5853.66,0.09739
5847.87,0.09482
5842.09,0.09099
5836.3,0.09310
5830.51,0.09114
5824.73,0.08934
5818.94,0.09211
5813.16,0.08968
5807.37,0.08902
5801.58,0.08849
5795.8,0.09086
5790.01,0.08802
5784.22,0.08622
5778.44,0.08562
5772.65,0.08274
5766.87,0.08490
5761.08,0.09064
5755.29,0.09040
5749.51,0.09277
5743.72,0.09365
5737.94,0.09321
5732.15,0.09235
5726.36,0.09301
5720.58,0.09398
5714.79,0.09370
5709,0.09525
5703.22,0.09703
5697.43,0.09711
5691.65,0.09399
5685.86,0.09237
5680.07,0.09425
5674.29,0.09406
5668.5,0.08987
5662.72,0.08989
5656.93,0.09051
5651.14,0.09414
5645.36,0.09250
5639.57,0.09418
5633.78,0.09630
5628,0.09301
5622.21,0.09325
5616.43,0.09392
5610.64,0.09568
5604.85,0.09786
5599.07,0.09648
5593.28,0.09431
5587.5,0.09596
5581.71,0.09654
5575.92,0.09696
5570.14,0.09542
5564.35,0.09618
5558.56,0.09646
5552.78,0.09383
5546.99,0.09489
5541.21,0.09745
5535.42,0.09899
5529.63,0.09714
5523.85,0.09389
5518.06,0.09459
5512.28,0.09519
5506.49,0.09659
5500.7,0.09968
5494.92,0.09802
5489.13,0.09817
5483.34,0.09693
5477.56,0.09427
5471.77,0.09620
5465.99,0.09649
5460.2,0.09960
5454.41,0.09507
5448.63,0.09440
5442.84,0.09374
5437.06,0.09477
5431.27,0.09829
5425.48,0.09819
5419.7,0.09693
5413.91,0.09584
5408.12,0.09563
5402.34,0.09640
5396.55,0.10006
5390.77,0.09929
5384.98,0.09854
5379.19,0.09770
5373.41,0.09583
5367.62,0.09640
5361.84,0.09853
5356.05,0.09837
5350.26,0.09931
5344.48,0.09666
5338.69,0.09726
5332.9,0.09964
5327.12,0.09673
5321.33,0.09822
5315.55,0.09770
5309.76,0.09602
5303.97,0.09497
5298.19,0.09819
5292.4,0.09716
5286.62,0.09727
5280.83,0.09855
5275.04,0.09753
5269.26,0.09618
5263.47,0.09620
5257.68,0.09686
5251.9,0.09779
5246.11,0.09820
5240.33,0.09901
5234.54,0.09669
5228.75,0.09771
5222.97,0.09811
5217.18,0.09856
5211.4,0.09873
5205.61,0.09847
5199.82,0.09634
5194.04,0.09901
5188.25,0.09880
5182.46,0.09854
5176.68,0.09833
5170.89,0.09746
5165.11,0.09706
5159.32,0.09670
5153.53,0.09899
5147.75,0.09915
5141.96,0.09845
5136.18,0.09841
5130.39,0.09766
5124.6,0.09806
5118.82,0.09947
5113.03,0.09879
5107.24,0.09990
5101.46,0.09751
5095.67,0.09841
5089.89,0.09865
5084.1,0.09782
5078.31,0.09924
5072.53,0.10074
5066.74,0.09977
5060.96,0.09927
5055.17,0.09763
5049.38,0.09892
5043.6,0.09936
5037.81,0.09999
5032.02,0.09903
5026.24,0.09719
5020.45,0.09898
5014.67,0.09812
5008.88,0.09927
5003.09,0.09951
4997.31,0.09877
4991.52,0.09891
4985.74,0.09823
4979.95,0.09806
4974.16,0.10037
4968.38,0.10083
4962.59,0.09868
4956.8,0.09718
4951.02,0.09882
4945.23,0.09844
4939.45,0.09977
4933.66,0.09989
4927.87,0.09928
4922.09,0.09875
4916.3,0.09834
4910.52,0.09921
4904.73,0.09944
4898.94,0.10022
4893.16,0.10018
4887.37,0.09864
4881.58,0.09874
4875.8,0.09825
4870.01,0.09965
4864.23,0.10081
4858.44,0.10027
4852.65,0.09884
4846.87,0.09794
4841.08,0.09755
4835.3,0.10009
4829.51,0.10020
4823.72,0.10009
4817.94,0.09914
4812.15,0.09798
4806.36,0.09939
4800.58,0.09943
4794.79,0.10165
4789.01,0.10135
4783.22,0.09976
4777.43,0.09938
4771.65,0.09927
4765.86,0.10038
4760.08,0.10225
4754.29,0.10179
4748.5,0.10071
4742.72,0.09906
4736.93,0.10037
4731.14,0.10086
4725.36,0.10201
4719.57,0.10081
4713.79,0.10096
4708,0.09877
4702.21,0.09903
4696.43,0.10081
4690.64,0.10212
4684.86,0.10098
4679.07,0.10076
4673.28,0.09849
4667.5,0.09950
4661.71,0.10100
4655.92,0.10142
4650.14,0.10273
4644.35,0.10088
4638.57,0.09894
4632.78,0.09969
4626.99,0.10058
4621.21,0.10160
4615.42,0.10167
4609.64,0.10087
4603.85,0.09935
4598.06,0.09859
4592.28,0.10014
4586.49,0.10162
4580.7,0.10268
4574.92,0.10114
4569.13,0.09998
4563.35,0.09911
4557.56,0.10059
4551.77,0.10085
4545.99,0.09997
4540.2,0.09941
4534.42,0.09838
4528.63,0.09868
4522.84,0.10056
4517.06,0.10140
4511.27,0.10108
4505.48,0.09934
4499.7,0.09983
4493.91,0.09825
4488.13,0.09851
4482.34,0.10003
4476.55,0.10117
4470.77,0.10003
4464.98,0.09828
4459.2,0.09722
4453.41,0.09803
4447.62,0.09953
4441.84,0.09933
4436.05,0.09814
4430.26,0.09716
4424.48,0.09622
4418.69,0.09652
4412.91,0.09752
4407.12,0.09635
4401.33,0.09423
4395.55,0.09161
4389.76,0.09083
4383.98,0.09006
4378.19,0.09094
4372.4,0.09019
4366.62,0.08774
4360.83,0.08566
4355.04,0.08371
4349.26,0.08087
4343.47,0.07742
4337.69,0.07472
4331.9,0.07026
4326.11,0.06581
4320.33,0.06556
4314.54,0.07333
4308.76,0.08180
4302.97,0.08580
4297.18,0.08574
4291.4,0.08440
4285.61,0.08334
4279.82,0.08283
4274.04,0.08328
4268.25,0.08257
4262.47,0.07762
4256.68,0.07229
4250.89,0.07014
4245.11,0.07537
4239.32,0.08034
4233.54,0.08218
4227.75,0.08123
4221.96,0.07867
4216.18,0.07703
4210.39,0.07851
4204.6,0.07900
4198.82,0.07801
4193.03,0.07670
4187.25,0.07699
4181.46,0.07471
4175.67,0.07471
4169.89,0.07619
4164.1,0.07779
4158.32,0.07772
4152.53,0.07727
4146.74,0.07614
4140.96,0.07533
4135.17,0.07684
4129.38,0.07827
4123.6,0.07890
4117.81,0.07910
4112.03,0.07697
4106.24,0.07663
4100.45,0.07719
4094.67,0.07952
4088.88,0.08105
4083.1,0.08205
4077.31,0.08227
4071.52,0.08204
4065.74,0.08249
4059.95,0.08545
4054.16,0.08672
4048.38,0.08566
4042.59,0.08518
4036.81,0.08501
4031.02,0.08538
4025.23,0.08730
4019.45,0.08865
4013.66,0.08925
4007.88,0.08863
4002.09,0.08793
3996.3,0.08819
3990.52,0.09097
3984.73,0.09129
3978.94,0.09097
3973.16,0.08934
3967.37,0.08848
3961.59,0.08930
3955.8,0.09047
3950.01,0.09198
3944.23,0.09106
3938.44,0.08947
3932.66,0.08633
3926.87,0.08797
3921.08,0.08954
3915.3,0.09045
3909.51,0.09024
3903.72,0.08869
3897.94,0.08687
3892.15,0.08717
3886.37,0.09013
3880.58,0.09154
3874.79,0.09084
3869.01,0.08992
3863.22,0.08799
3857.44,0.08863
3851.65,0.09141
3845.86,0.09350
3840.08,0.09201
3834.29,0.09062
3828.5,0.09004
3822.72,0.08994
3816.93,0.09131
3811.15,0.09312
3805.36,0.09293
3799.57,0.09120
3793.79,0.09049
3788,0.09087
3782.22,0.09278
3776.43,0.09492
3770.64,0.09531
3764.86,0.09373
3759.07,0.09117
3753.28,0.09085
3747.5,0.09356
3741.71,0.09504
3735.93,0.09635
3730.14,0.09332
3724.35,0.09178
3718.57,0.09160
3712.78,0.09251
3707,0.09494
3701.21,0.09470
3695.42,0.09240
3689.64,0.09082
3683.85,0.09085
3678.06,0.09185
3672.28,0.09441
3666.49,0.09359
3660.71,0.09122
3654.92,0.08842
3649.13,0.08757
3643.35,0.08909
3637.56,0.09236
3631.78,0.09199
3625.99,0.09021
3620.2,0.08845
3614.42,0.08670
3608.63,0.08577
3602.84,0.08687
3597.06,0.09032
3591.27,0.09308
3585.49,0.09100
3579.7,0.09145
3573.91,0.09402
3568.13,0.09653
3562.34,0.09654
3556.56,0.09624
3550.77,0.09429
3544.98,0.09487
3539.2,0.09563
3533.41,0.09821
3527.62,0.09827
3521.84,0.09563
3516.05,0.09401
3510.27,0.09418
3504.48,0.09633
3498.69,0.09841
3492.91,0.09803
3487.12,0.09591
3481.34,0.09343
3475.55,0.09336
3469.76,0.09554
3463.98,0.09725
3458.19,0.09706
3452.4,0.09451
3446.62,0.09249
3440.83,0.09273
3435.05,0.09467
3429.26,0.09552
3423.47,0.09597
3417.69,0.09408
3411.9,0.09173
3406.12,0.09213
3400.33,0.09384
3394.54,0.09572
3388.76,0.09510
3382.97,0.09268
3377.18,0.09148
3371.4,0.09055
3365.61,0.09339
3359.83,0.09518
3354.04,0.09443
3348.25,0.09257
3342.47,0.09132
3336.68,0.09254
3330.9,0.09479
3325.11,0.09616
3319.32,0.09424
3313.54,0.09312
3307.75,0.09137
3301.96,0.09314
3296.18,0.09532
3290.39,0.09546
3284.61,0.09448
3278.82,0.09267
3273.03,0.09184
3267.25,0.09326
3261.46,0.09543
3255.68,0.09503
3249.89,0.09326
3244.1,0.09188
3238.32,0.09168
3232.53,0.09301
3226.74,0.09450
3220.96,0.09446
3215.17,0.09083
3209.39,0.08986
3203.6,0.09129
3197.81,0.09234
3192.03,0.09234
3186.24,0.09020
3180.46,0.08829
3174.67,0.08926
3168.88,0.09085
3163.1,0.09119
3157.31,0.08989
3151.52,0.08736
3145.74,0.08686
3139.95,0.08789
3134.17,0.08887
3128.38,0.08827
3122.59,0.08482
3116.81,0.08324
3111.02,0.08285
3105.24,0.08281
3099.45,0.08084
3093.66,0.07696
3087.88,0.07393
3082.09,0.07352
3076.3,0.07361
3070.52,0.07231
3064.73,0.06977
3058.95,0.06916
3053.16,0.06904
3047.37,0.06711
3041.59,0.06412
3035.8,0.06266
3030.02,0.06211
3024.23,0.06127
3018.44,0.05911
3012.66,0.05817
3006.87,0.05781
3001.08,0.05587
2995.3,0.05463
2989.51,0.05343
2983.73,0.05133
2977.94,0.05080
2972.15,0.04884
2966.37,0.04863
2960.58,0.04694
2954.8,0.04648
2949.01,0.04426
2943.22,0.04140
2937.44,0.03837
2931.65,0.03931
2925.86,0.04881
2920.08,0.07265
2914.29,0.08823
2908.51,0.07857
2902.72,0.07278
2896.93,0.06990
2891.15,0.06869
2885.36,0.06690
2879.58,0.06451
2873.79,0.06183
2868,0.05897
2862.22,0.05552
2856.43,0.05368
2850.64,0.07095
2844.86,0.08391
2839.07,0.07675
2833.29,0.07172
2827.5,0.06993
2821.71,0.06831
2815.93,0.06751
2810.14,0.06688
2804.36,0.06671
2798.57,0.06677
2792.78,0.06776
2787,0.06811
2781.21,0.06886
2775.42,0.07157
2769.64,0.07229
2763.85,0.07199
2758.07,0.07264
2752.28,0.07437
2746.49,0.07400
2740.71,0.07262
2734.92,0.07254
2729.14,0.07404
2723.35,0.07517
2717.56,0.07443
2711.78,0.07366
2705.99,0.07514
2700.2,0.07690
2694.42,0.07623
2688.63,0.07417
2682.85,0.07345
2677.06,0.07296
2671.27,0.07335
2665.49,0.07344
2659.7,0.07289
2653.92,0.07206
2648.13,0.07300
2642.34,0.07365
2636.56,0.07397
2630.77,0.07447
2624.98,0.07434
2619.2,0.07523
2613.41,0.07812
2607.63,0.08059
2601.84,0.08180
2596.05,0.08138
2590.27,0.08153
2584.48,0.08303
2578.7,0.08569
2572.91,0.08800
2567.12,0.08846
2561.34,0.08726
2555.55,0.08716
2549.76,0.08908
2543.98,0.09101
2538.19,0.09268
2532.41,0.09073
2526.62,0.08933
2520.83,0.09048
2515.05,0.09309
2509.26,0.09549
2503.48,0.09568
2497.69,0.09370
2491.9,0.09351
2486.12,0.09451
2480.33,0.09607
2474.55,0.09747
2468.76,0.09762
2462.97,0.09622
2457.19,0.09551
2451.4,0.09686
2445.61,0.09872
2439.83,0.09915
2434.04,0.09788
2428.26,0.09530
2422.47,0.09430
2416.68,0.09501
2410.9,0.09722
2405.11,0.09790
2399.32,0.09645
2393.54,0.09518
2387.75,0.09493
2381.97,0.09664
2376.18,0.09803
2370.39,0.09714
2364.61,0.09427
2358.82,0.09184
2353.04,0.09063
2347.25,0.09084
2341.46,0.09101
2335.68,0.09005
2329.89,0.08931
2324.11,0.08833
2318.32,0.08948
2312.53,0.09270
2306.75,0.09516
2300.96,0.09518
2295.17,0.09385
2289.39,0.09265
2283.6,0.09334
2277.82,0.09567
2272.03,0.09787
2266.24,0.09782
2260.46,0.09641
2254.67,0.09499
2248.89,0.09562
2243.1,0.09760
2237.31,0.09968
2231.53,0.09956
2225.74,0.09773
2219.95,0.09607
2214.17,0.09689
2208.38,0.09981
2202.6,0.10062
2196.81,0.09941
2191.02,0.09755
2185.24,0.09606
2179.45,0.09735
2173.67,0.09921
2167.88,0.10057
2162.09,0.09905
2156.31,0.09592
2150.52,0.09499
2144.73,0.09620
2138.95,0.09913
2133.16,0.10088
2127.38,0.10012
2121.59,0.09831
2115.8,0.09760
2110.02,0.09842
2104.23,0.10094
2098.45,0.10167
2092.66,0.09995
2086.87,0.09781
2081.09,0.09654
2075.3,0.09765
2069.51,0.09959
2063.73,0.10014
2057.94,0.09864
2052.16,0.09596
2046.37,0.09462
2040.58,0.09517
2034.8,0.09632
2029.01,0.09608
2023.23,0.09337
2017.44,0.09121
2011.65,0.09303
2005.87,0.09689
2000.08,0.09974
1994.29,0.10117
1988.51,0.09976
1982.72,0.09828
1976.94,0.09733
1971.15,0.09845
1965.36,0.10066
1959.58,0.10109
1953.79,0.09960
1948.01,0.09782
1942.22,0.09681
1936.43,0.09780
1930.65,0.09982
1924.86,0.09992
1919.07,0.09829
1913.29,0.09636
1907.5,0.09442
1901.72,0.09502
1895.93,0.09647
1890.14,0.09862
1884.36,0.09876
1878.57,0.09797
1872.79,0.09745
1867,0.09871
1861.21,0.10117
1855.43,0.10140
1849.64,0.10016
1843.85,0.09827
1838.07,0.09786
1832.28,0.09903
1826.5,0.10055
1820.71,0.09975
1814.92,0.09821
1809.14,0.09676
1803.35,0.09631
1797.57,0.09758
1791.78,0.09970
1785.99,0.09979
1780.21,0.09738
1774.42,0.09557
1768.63,0.09462
1762.85,0.09577
1757.06,0.09565
1751.28,0.09334
1745.49,0.09093
1739.7,0.08959
1733.92,0.09126
1728.13,0.09412
1722.35,0.09446
1716.56,0.09371
1710.77,0.09246
1704.99,0.09204
1699.2,0.09286
1693.41,0.09575
1687.63,0.09802
1681.84,0.09620
1676.06,0.09404
1670.27,0.09214
1664.48,0.09326
1658.7,0.09537
1652.91,0.09548
1647.13,0.09487
1641.34,0.09102
1635.55,0.08963
1629.77,0.09134
1623.98,0.09415
1618.19,0.09560
1612.41,0.09384
1606.62,0.09058
1600.84,0.08935
1595.05,0.09095
1589.26,0.09326
1583.48,0.09464
1577.69,0.09225
1571.91,0.08843
1566.12,0.08765
1560.33,0.08947
1554.55,0.09269
1548.76,0.09253
1542.97,0.08857
1537.19,0.08410
1531.4,0.08477
1525.62,0.08734
1519.83,0.08921
1514.04,0.08546
1508.26,0.07938
1502.47,0.07646
1496.69,0.07796
1490.9,0.07597
1485.11,0.06475
1479.33,0.05742
1473.54,0.05217
1467.75,0.05618
1461.97,0.06040
1456.18,0.06079
1450.4,0.06058
1444.61,0.05949
1438.82,0.06026
1433.04,0.06590
1427.25,0.07653
1421.47,0.07961
1415.68,0.07728
1409.89,0.08215
1404.11,0.09026
1398.32,0.09141
1392.53,0.08332
1386.75,0.07430
1380.96,0.06546
1375.18,0.06619
1369.39,0.06859
1363.6,0.07109
1357.82,0.06965
1352.03,0.06489
1346.25,0.06662
1340.46,0.07438
1334.67,0.08630
1328.89,0.08869
1323.1,0.07973
1317.31,0.07022
1311.53,0.06806
1305.74,0.07272
1299.96,0.07954
1294.17,0.08273
1288.38,0.07989
1282.6,0.07296
1276.81,0.07177
1271.03,0.07968
1265.24,0.09036
1259.45,0.09447
1253.67,0.08758
1247.88,0.07709
1242.09,0.07557
1236.31,0.08503
1230.52,0.09723
1224.74,0.10001
1218.95,0.09094
1213.16,0.07858
1207.38,0.07497
1201.59,0.08573
1195.81,0.09826
1190.02,0.10129
1184.23,0.09169
1178.45,0.07721
1172.66,0.07282
1166.87,0.08280
1161.09,0.09748
1155.3,0.10293
1149.52,0.09349
1143.73,0.07809
1137.94,0.07268
1132.16,0.08201
1126.37,0.09982
1120.59,0.10772
1114.8,0.09826
1109.01,0.08131
1103.23,0.07235
1097.44,0.08161
1091.65,0.09738
1085.87,0.10550
1080.08,0.09716
1074.3,0.08195
1068.51,0.07223
1062.72,0.07895
1056.94,0.09863
1051.15,0.11169
1045.37,0.10708
1039.58,0.08792
1033.79,0.07397
1028.01,0.07897
1022.22,0.09748
1016.43,0.11265
1010.65,0.11285
1004.86,0.09548
999.076,0.07607
993.29,0.07654
987.504,0.09841
981.717,0.11873
975.931,0.11653
970.145,0.09338
964.359,0.07195
958.573,0.07170
952.787,0.09315
947,0.11771
941.214,0.11912
935.428,0.09704
929.642,0.07211
923.856,0.06824
918.07,0.09089
912.284,0.11699
906.497,0.12131
900.711,0.10015
894.925,0.07144
889.139,0.06476
883.353,0.08706
877.567,0.11712
871.78,0.12535
865.994,0.10308
860.208,0.07227
854.422,0.06356
848.636,0.08475
842.85,0.11730
837.064,0.12689
831.277,0.10487
825.491,0.07080
819.705,0.05884
813.919,0.08157
808.133,0.11504
802.347,0.12489
796.56,0.10045
790.774,0.06553
784.988,0.05432
779.202,0.07636
773.416,0.10529
767.63,0.11372
761.844,0.08947
756.057,0.05579
750.271,0.05415
744.485,0.08392
738.699,0.08553
732.913,0.05160
727.127,0.05781
721.34,0.05673
715.554,0.06971
709.768,0.07347
703.982,0.04906
698.196,0.07502
692.41,0.12567
686.624,0.13195
680.837,0.09205
675.051,0.05448
669.265,0.06022
663.479,0.10780
657.693,0.14534
651.907,0.13451
646.12,0.08575
640.334,0.04969
634.548,0.06375
628.762,0.11379
622.976,0.14819
617.19,0.13519
611.404,0.08826
605.617,0.05073
599.831,0.06135