File: 01_Data/PEVA/FTIR/IS/PEVA_0.26_IS_S_240809_R8.dpt
7497.2,0.09353
7491.41,0.10412
7485.63,0.11214
7479.84,0.10599
7474.05,0.09735
7468.27,0.11742
7462.48,0.10949
7456.7,0.09376
7450.91,0.10059
7445.12,0.10785
7439.34,0.09252
7433.55,0.09819
7427.76,0.10296
7421.98,0.10767
7416.19,0.10558
7410.4,0.10417
7404.62,0.10089
7398.83,0.10360
7393.05,0.10228
7387.26,0.09785
7381.47,0.10884
7375.69,0.11193
7369.9,0.10017
7364.11,0.09805
7358.33,0.11165
7352.54,0.10077
7346.75,0.10338
7340.97,0.09524
7335.18,0.10818
7329.4,0.10025
7323.61,0.10754
7317.82,0.09633
7312.04,0.09239
7306.25,0.09997
7300.46,0.09691
7294.68,0.10591
7288.89,0.10722
7283.1,0.09957
7277.32,0.10181
7271.53,0.09968
7265.75,0.09533
7259.96,0.10171
7254.17,0.09757
7248.39,0.10965
7242.6,0.10475
7236.81,0.10532
7231.03,0.11574
7225.24,0.10310
7219.45,0.09282
7213.67,0.10319
7207.88,0.09223
7202.1,0.10721
7196.31,0.10222
7190.52,0.10453
7184.74,0.10400
7178.95,0.10911
7173.16,0.10282
7167.38,0.10335
7161.59,0.09360
7155.8,0.10730
7150.02,0.09864
7144.23,0.10129
7138.45,0.09609
7132.66,0.09366
7126.87,0.09950
7121.09,0.10319
7115.3,0.10200
7109.51,0.10566
7103.73,0.09812
7097.94,0.10530
7092.15,0.10971
7086.37,0.10628
7080.58,0.10327
7074.8,0.10865
7069.01,0.10471
7063.22,0.09097
7057.44,0.09771
7051.65,0.09904
7045.86,0.10116
7040.08,0.10605
7034.29,0.09947
7028.5,0.09552
7022.72,0.10188
7016.93,0.10514
7011.15,0.10057
7005.36,0.09920
6999.57,0.09776
6993.79,0.09785
6988,0.10312
6982.21,0.10202
6976.43,0.10414
6970.64,0.09511
6964.85,0.10040
6959.07,0.09706
6953.28,0.11024
6947.5,0.10836
6941.71,0.10229
6935.92,0.10331
6930.14,0.10388
6924.35,0.10075
6918.56,0.10344
6912.78,0.09699
6906.99,0.10245
6901.2,0.10174
6895.42,0.09654
6889.63,0.10095
6883.85,0.10283
6878.06,0.10000
6872.27,0.10605
6866.49,0.10138
6860.7,0.10297
6854.91,0.10285
6849.13,0.09973
6843.34,0.09188
6837.55,0.09934
6831.77,0.10480
6825.98,0.10366
6820.2,0.10196
6814.41,0.10356
6808.62,0.10154
6802.84,0.09246
6797.05,0.09954
6791.26,0.10236
6785.48,0.10496
6779.69,0.10361
6773.9,0.10766
6768.12,0.09739
6762.33,0.10794
6756.55,0.11131
6750.76,0.09956
6744.97,0.09976
6739.19,0.10263
6733.4,0.10238
6727.61,0.10090
6721.83,0.10395
6716.04,0.10446
6710.25,0.10540
6704.47,0.10119
6698.68,0.10073
6692.9,0.10033
6687.11,0.09997
6681.32,0.10418
6675.54,0.09928
6669.75,0.10200
6663.96,0.09872
6658.18,0.10657
6652.39,0.10452
6646.6,0.10392
6640.82,0.10632
6635.03,0.09900
6629.25,0.10233
6623.46,0.10266
6617.67,0.09700
6611.89,0.10043
6606.1,0.10320
6600.31,0.10503
6594.53,0.10475
6588.74,0.10427
6582.95,0.10631
6577.17,0.10597
6571.38,0.10231
6565.6,0.10121
6559.81,0.10565
6554.02,0.10174
6548.24,0.10127
6542.45,0.10358
6536.66,0.09842
6530.88,0.10028
6525.09,0.10409
6519.3,0.09799
6513.52,0.10456
6507.73,0.10431
6501.95,0.10380
6496.16,0.10420
6490.37,0.09968
6484.59,0.10029
6478.8,0.10088
6473.01,0.10745
6467.23,0.10577
6461.44,0.10206
6455.65,0.10480
6449.87,0.10346
6444.08,0.10372
6438.3,0.10240
6432.51,0.10219
6426.72,0.10452
6420.94,0.09948
6415.15,0.10067
6409.36,0.10215
6403.58,0.10172
6397.79,0.10480
6392,0.09935
6386.22,0.10224
6380.43,0.10329
6374.65,0.10276
6368.86,0.10364
6363.07,0.10140
6357.29,0.10102
6351.5,0.10065
6345.71,0.10149
6339.93,0.10091
6334.14,0.10024
6328.35,0.10027
6322.57,0.10438
6316.78,0.10415
6310.99,0.09950
6305.21,0.10374
6299.42,0.10025
6293.64,0.10059
6287.85,0.10217
6282.06,0.10212
6276.28,0.10038
6270.49,0.10309
6264.7,0.09998
6258.92,0.09706
6253.13,0.10063
6247.34,0.10038
6241.56,0.10195
6235.77,0.10151
6229.99,0.10217
6224.2,0.10361
6218.41,0.10095
6212.63,0.10424
6206.84,0.10360
6201.05,0.10464
6195.27,0.10030
6189.48,0.10046
6183.69,0.10380
6177.91,0.10147
6172.12,0.09960
6166.34,0.10214
6160.55,0.10022
6154.76,0.10517
6148.98,0.10135
6143.19,0.10437
6137.4,0.10502
6131.62,0.10507
6125.83,0.10134
6120.04,0.10213
6114.26,0.09999
6108.47,0.10201
6102.69,0.10347
6096.9,0.10266
6091.11,0.10187
6085.33,0.10071
6079.54,0.09970
6073.75,0.10173
6067.97,0.09760
6062.18,0.09933
6056.39,0.09817
6050.61,0.09854
6044.82,0.09649
6039.04,0.09770
6033.25,0.09796
6027.46,0.09843
6021.68,0.09887
6015.89,0.09882
6010.1,0.09593
6004.32,0.09725
5998.53,0.09910
5992.74,0.09943
5986.96,0.09689
5981.17,0.09721
5975.39,0.09695
5969.6,0.09926
5963.81,0.10072
5958.03,0.10357
5952.24,0.10002
5946.45,0.09949
5940.67,0.09766
5934.88,0.09841
5929.09,0.09445
5923.31,0.09646
5917.52,0.09464
5911.74,0.09483
5905.95,0.09642
5900.16,0.09338
5894.38,0.09340
5888.59,0.09103
5882.8,0.09244
5877.02,0.09080
5871.23,0.09090
5865.44,0.09153
5859.66,0.08843
5853.87,0.08991
5848.09,0.08788
5842.3,0.08771
5836.51,0.08786
5830.73,0.08455
5824.94,0.08440
5819.15,0.08538
5813.37,0.08665
5807.58,0.08652
5801.79,0.08958
5796.01,0.09061
5790.22,0.09141
5784.44,0.08929
5778.65,0.09281
5772.86,0.09187
5767.08,0.09298
5761.29,0.09451
5755.5,0.09337
5749.72,0.09316
5743.93,0.09262
5738.14,0.09246
5732.36,0.09277
5726.57,0.09332
5720.79,0.09179
5715,0.09160
5709.21,0.09295
5703.43,0.09113
5697.64,0.09141
5691.85,0.09261
5686.07,0.09507
5680.28,0.09283
5674.49,0.09271
5668.71,0.09502
5662.92,0.09543
5657.14,0.09472
5651.35,0.09663
5645.56,0.09534
5639.78,0.09621
5633.99,0.09596
5628.2,0.09628
5622.42,0.09698
5616.63,0.09829
5610.84,0.10015
5605.06,0.09883
5599.27,0.09776
5593.49,0.09571
5587.7,0.09544
5581.91,0.09717
5576.13,0.09919
5570.34,0.09771
5564.55,0.09758
5558.77,0.09781
5552.98,0.10023
5547.19,0.09952
5541.41,0.09796
5535.62,0.09785
5529.84,0.09772
5524.05,0.09783
5518.26,0.09978
5512.48,0.09940
5506.69,0.10017
5500.9,0.09973
5495.12,0.09831
5489.33,0.09854
5483.54,0.09724
5477.76,0.09752
5471.97,0.10100
5466.19,0.09955
5460.4,0.09961
5454.61,0.09962
5448.83,0.09992
5443.04,0.09819
5437.25,0.09983
5431.47,0.09775
5425.68,0.09801
5419.89,0.09996
5414.11,0.10041
5408.32,0.09842
5402.54,0.10117
5396.75,0.09921
5390.96,0.09805
5385.18,0.10003
5379.39,0.10010
5373.6,0.10059
5367.82,0.09918
5362.03,0.09908
5356.24,0.10149
5350.46,0.10055
5344.67,0.10216
5338.89,0.10018
5333.1,0.10069
5327.31,0.10069
5321.53,0.10159
5315.74,0.10030
5309.95,0.09921
5304.17,0.10139
5298.38,0.10070
5292.59,0.09927
5286.81,0.10046
5281.02,0.10169
5275.24,0.09932
5269.45,0.09912
5263.66,0.10022
5257.88,0.10166
5252.09,0.10288
5246.3,0.10080
5240.52,0.10192
5234.73,0.10105
5228.94,0.10064
5223.16,0.10187
5217.37,0.10013
5211.59,0.10157
5205.8,0.10278
5200.01,0.10304
5194.23,0.10103
5188.44,0.10210
5182.65,0.10209
5176.87,0.10182
5171.08,0.10155
5165.29,0.10114
5159.51,0.10223
5153.72,0.10194
5147.94,0.10202
5142.15,0.10053
5136.36,0.10181
5130.58,0.10268
5124.79,0.10123
5119,0.10158
5113.22,0.10162
5107.43,0.10256
5101.64,0.10211
5095.86,0.10271
5090.07,0.10190
5084.29,0.10225
5078.5,0.10136
5072.71,0.10125
5066.93,0.10138
5061.14,0.10182
5055.35,0.10153
5049.57,0.10140
5043.78,0.10226
5037.99,0.10187
5032.21,0.10221
5026.42,0.10259
5020.64,0.10184
5014.85,0.10170
5009.06,0.10092
5003.28,0.10229
4997.49,0.10280
4991.7,0.10170
4985.92,0.10146
4980.13,0.10344
4974.34,0.10160
4968.56,0.10161
4962.77,0.10191
4956.99,0.10227
4951.2,0.10184
4945.41,0.10197
4939.63,0.10247
4933.84,0.10124
4928.05,0.10311
4922.27,0.10209
4916.48,0.10045
4910.69,0.10205
4904.91,0.10238
4899.12,0.10150
4893.34,0.10189
4887.55,0.10289
4881.76,0.10113
4875.98,0.10066
4870.19,0.10114
4864.4,0.10257
4858.62,0.10290
4852.83,0.10024
4847.04,0.10252
4841.26,0.10176
4835.47,0.10205
4829.69,0.10123
4823.9,0.10272
4818.11,0.10292
4812.33,0.10296
4806.54,0.10248
4800.75,0.10246
4794.97,0.10258
4789.18,0.10289
4783.39,0.10241
4777.61,0.10180
4771.82,0.10278
4766.04,0.10357
4760.25,0.10280
4754.46,0.10254
4748.68,0.10333
4742.89,0.10275
4737.1,0.10145
4731.32,0.10219
4725.53,0.10172
4719.74,0.10091
4713.96,0.10076
4708.17,0.10166
4702.39,0.10136
4696.6,0.09969
4690.81,0.09895
4685.03,0.09822
4679.24,0.09934
4673.45,0.10015
4667.67,0.10007
4661.88,0.09991
4656.09,0.10159
4650.31,0.10164
4644.52,0.09995
4638.74,0.09970
4632.95,0.10069
4627.16,0.09976
4621.38,0.10025
4615.59,0.10032
4609.8,0.10156
4604.02,0.10144
4598.23,0.10101
4592.44,0.10160
4586.66,0.10055
4580.87,0.10178
4575.09,0.10100
4569.3,0.10098
4563.51,0.10101
4557.73,0.10091
4551.94,0.10160
4546.15,0.10209
4540.37,0.10158
4534.58,0.10129
4528.79,0.10105
4523.01,0.10140
4517.22,0.09999
4511.44,0.10140
4505.65,0.10109
4499.86,0.10049
4494.08,0.10027
4488.29,0.09879
4482.5,0.09839
4476.72,0.09878
4470.93,0.09742
4465.14,0.09829
4459.36,0.09701
4453.57,0.09613
4447.79,0.09496
4442,0.09330
4436.21,0.09152
4430.43,0.08946
4424.64,0.08842
4418.85,0.08595
4413.07,0.08507
4407.28,0.08221
4401.49,0.08084
4395.71,0.08077
4389.92,0.08092
4384.14,0.07985
4378.35,0.07853
4372.56,0.07636
4366.78,0.07457
4360.99,0.07282
4355.2,0.07086
4349.42,0.06968
4343.63,0.06913
4337.84,0.06843
4332.06,0.06931
4326.27,0.06913
4320.49,0.07084
4314.7,0.07070
4308.91,0.07222
4303.13,0.07266
4297.34,0.07351
4291.55,0.07381
4285.77,0.07400
4279.98,0.07376
4274.19,0.07399
4268.41,0.07302
4262.62,0.07349
4256.84,0.07335
4251.05,0.07457
4245.26,0.07428
4239.48,0.07339
4233.69,0.07322
4227.9,0.07310
4222.12,0.07278
4216.33,0.07320
4210.54,0.07356
4204.76,0.07410
4198.97,0.07391
4193.19,0.07440
4187.4,0.07538
4181.61,0.07457
4175.83,0.07437
4170.04,0.07415
4164.25,0.07446
4158.47,0.07619
4152.68,0.07590
4146.89,0.07672
4141.11,0.07793
4135.32,0.07888
4129.54,0.07916
4123.75,0.07947
4117.96,0.07924
4112.18,0.07856
4106.39,0.07873
4100.6,0.07801
4094.82,0.07610
4089.03,0.07544
4083.24,0.07448
4077.46,0.07538
4071.67,0.07620
4065.89,0.07752
4060.1,0.07933
4054.31,0.08089
4048.53,0.08150
4042.74,0.08161
4036.95,0.08197
4031.17,0.08165
4025.38,0.08184
4019.59,0.08169
4013.81,0.08244
4008.02,0.08303
4002.24,0.08358
3996.45,0.08477
3990.66,0.08469
3984.88,0.08598
3979.09,0.08663
3973.3,0.08711
3967.52,0.08735
3961.73,0.08804
3955.94,0.08780
3950.16,0.08724
3944.37,0.08715
3938.59,0.08694
3932.8,0.08738
3927.01,0.08759
3921.23,0.08717
3915.44,0.08793
3909.65,0.08801
3903.87,0.08813
3898.08,0.08800
3892.29,0.08829
3886.51,0.08787
3880.72,0.08850
3874.94,0.08824
3869.15,0.08827
3863.36,0.08810
3857.58,0.08832
3851.79,0.08880
3846,0.08949
3840.22,0.08814
3834.43,0.08902
3828.64,0.08933
3822.86,0.08933
3817.07,0.09053
3811.29,0.08978
3805.5,0.09015
3799.71,0.08975
3793.93,0.09063
3788.14,0.09118
3782.35,0.09149
3776.57,0.09254
3770.78,0.09202
3764.99,0.09152
3759.21,0.09136
3753.42,0.09230
3747.64,0.09178
3741.85,0.09245
3736.06,0.09238
3730.28,0.09250
3724.49,0.09256
3718.7,0.09387
3712.92,0.09273
3707.13,0.09196
3701.34,0.09082
3695.56,0.08893
3689.77,0.08708
3683.99,0.08476
3678.2,0.08427
3672.41,0.08484
3666.63,0.08503
3660.84,0.08555
3655.05,0.08591
3649.27,0.08637
3643.48,0.08602
3637.69,0.08569
3631.91,0.08510
3626.12,0.08403
3620.34,0.08333
3614.55,0.08365
3608.76,0.08249
3602.98,0.08301
3597.19,0.08135
3591.4,0.08131
3585.62,0.08025
3579.83,0.08015
3574.04,0.07905
3568.26,0.07738
3562.47,0.07781
3556.69,0.07633
3550.9,0.07549
3545.11,0.07615
3539.33,0.07602
3533.54,0.07529
3527.75,0.07499
3521.97,0.07418
3516.18,0.07455
3510.39,0.07285
3504.61,0.07363
3498.82,0.07330
3493.04,0.07317
3487.25,0.07150
3481.46,0.07100
3475.68,0.06993
3469.89,0.06947
3464.1,0.06816
3458.32,0.06884
3452.53,0.06746
3446.74,0.06669
3440.96,0.06561
3435.17,0.06500
3429.39,0.06430
3423.6,0.06441
3417.81,0.06428
3412.03,0.06538
3406.24,0.06572
3400.45,0.06743
3394.67,0.06842
3388.88,0.06941
3383.09,0.07093
3377.31,0.07137
3371.52,0.07101
3365.74,0.07161
3359.95,0.07209
3354.16,0.07297
3348.38,0.07202
3342.59,0.07169
3336.8,0.07154
3331.02,0.07074
3325.23,0.07219
3319.44,0.07078
3313.66,0.06853
3307.87,0.06562
3302.09,0.06310
3296.3,0.06458
3290.51,0.06693
3284.73,0.06969
3278.94,0.07217
3273.15,0.07372
3267.37,0.07464
3261.58,0.07477
3255.79,0.07537
3250.01,0.07522
3244.22,0.07669
3238.44,0.07583
3232.65,0.07474
3226.86,0.07575
3221.08,0.07444
3215.29,0.07537
3209.5,0.07517
3203.72,0.07457
3197.93,0.07474
3192.14,0.07452
3186.36,0.07383
3180.57,0.07447
3174.79,0.07408
3169,0.07368
3163.21,0.07349
3157.43,0.07388
3151.64,0.07396
3145.85,0.07390
3140.07,0.07294
3134.28,0.07239
3128.49,0.07111
3122.71,0.07178
3116.92,0.07151
3111.14,0.07043
3105.35,0.06983
3099.56,0.06805
3093.78,0.06720
3087.99,0.06567
3082.2,0.06485
3076.42,0.06475
3070.63,0.06425
3064.84,0.06306
3059.06,0.06345
3053.27,0.06208
3047.49,0.06224
3041.7,0.06233
3035.91,0.06211
3030.13,0.06124
3024.34,0.06030
3018.55,0.05988
3012.77,0.05860
3006.98,0.05830
3001.19,0.05753
2995.41,0.05674
2989.62,0.05653
2983.84,0.05557
2978.05,0.05598
2972.26,0.05584
2966.48,0.05642
2960.69,0.05810
2954.9,0.05984
2949.12,0.05927
2943.33,0.05862
2937.54,0.05858
2931.76,0.06023
2925.97,0.06149
2920.19,0.06233
2914.4,0.06228
2908.61,0.06238
2902.83,0.06258
2897.04,0.06246
2891.25,0.06217
2885.47,0.06164
2879.68,0.06102
2873.89,0.06133
2868.11,0.06195
2862.32,0.06206
2856.54,0.06285
2850.75,0.06342
2844.96,0.06319
2839.18,0.06292
2833.39,0.06259
2827.6,0.06193
2821.82,0.06235
2816.03,0.06224
2810.24,0.06284
2804.46,0.06300
2798.67,0.06409
2792.89,0.06484
2787.1,0.06617
2781.31,0.06685
2775.53,0.06753
2769.74,0.06815
2763.95,0.06833
2758.17,0.06877
2752.38,0.06744
2746.59,0.06738
2740.81,0.06689
2735.02,0.06642
2729.24,0.06717
2723.45,0.06808
2717.66,0.06991
2711.88,0.07063
2706.09,0.07153
2700.3,0.07174
2694.52,0.07227
2688.73,0.07209
2682.94,0.07193
2677.16,0.07165
2671.37,0.07121
2665.59,0.07150
2659.8,0.07270
2654.01,0.07371
2648.23,0.07432
2642.44,0.07453
2636.65,0.07374
2630.87,0.07334
2625.08,0.07282
2619.29,0.07288
2613.51,0.07299
2607.72,0.07263
2601.94,0.07282
2596.15,0.07280
2590.36,0.07319
2584.58,0.07275
2578.79,0.07257
2573,0.07246
2567.22,0.07329
2561.43,0.07379
2555.64,0.07355
2549.86,0.07380
2544.07,0.07461
2538.29,0.07468
2532.5,0.07510
2526.71,0.07524
2520.93,0.07555
2515.14,0.07650
2509.35,0.07758
2503.57,0.07827
2497.78,0.07813
2491.99,0.07900
2486.21,0.07885
2480.42,0.07902
2474.64,0.07945
2468.85,0.08010
2463.06,0.08028
2457.28,0.07995
2451.49,0.07996
2445.7,0.07940
2439.92,0.07967
2434.13,0.07871
2428.34,0.07827
2422.56,0.07725
2416.77,0.07702
2410.99,0.07598
2405.2,0.07560
2399.41,0.07506
2393.63,0.07410
2387.84,0.07414
2382.05,0.07373
2376.27,0.07410
2370.48,0.07402
2364.69,0.07518
2358.91,0.07571
2353.12,0.07716
2347.34,0.07798
2341.55,0.07903
2335.76,0.07974
2329.98,0.08081
2324.19,0.08093
2318.4,0.08081
2312.62,0.08200
2306.83,0.08159
2301.04,0.08166
2295.26,0.08077
2289.47,0.08006
2283.69,0.07895
2277.9,0.07810
2272.11,0.07875
2266.33,0.07926
2260.54,0.08015
2254.75,0.07994
2248.97,0.07983
2243.18,0.07955
2237.39,0.07985
2231.61,0.07938
2225.82,0.08004
2220.04,0.08032
2214.25,0.08055
2208.46,0.08124
2202.68,0.08177
2196.89,0.08265
2191.1,0.08272
2185.32,0.08398
2179.53,0.08350
2173.74,0.08456
2167.96,0.08434
2162.17,0.08421
2156.39,0.08413
2150.6,0.08354
2144.81,0.08366
2139.03,0.08301
2133.24,0.08322
2127.45,0.08284
2121.67,0.08307
2115.88,0.08238
2110.09,0.08306
2104.31,0.08254
2098.52,0.08289
2092.74,0.08232
2086.95,0.08158
2081.16,0.08162
2075.38,0.08095
2069.59,0.08132
2063.8,0.08106
2058.02,0.08177
2052.23,0.08165
2046.44,0.08232
2040.66,0.08234
2034.87,0.08260
2029.09,0.08276
2023.3,0.08311
2017.51,0.08355
2011.73,0.08359
2005.94,0.08444
2000.15,0.08336
1994.37,0.08267
1988.58,0.08127
1982.79,0.08140
1977.01,0.08025
1971.22,0.07976
1965.44,0.07754
1959.65,0.07532
1953.86,0.07206
1948.08,0.07060
1942.29,0.07248
1936.5,0.07469
1930.72,0.07701
1924.93,0.07803
1919.14,0.07927
1913.36,0.07873
1907.57,0.07954
1901.79,0.07923
1896,0.07980
1890.21,0.07963
1884.43,0.07995
1878.64,0.07960
1872.85,0.07972
1867.07,0.07854
1861.28,0.07842
1855.49,0.07713
1849.71,0.07558
1843.92,0.07326
1838.14,0.07169
1832.35,0.06917
1826.56,0.06591
1820.78,0.06552
1814.99,0.06572
1809.2,0.06663
1803.42,0.06572
1797.63,0.06496
1791.84,0.06363
1786.06,0.06182
1780.27,0.06117
1774.49,0.05889
1768.7,0.05749
1762.91,0.05638
1757.13,0.05430
1751.34,0.05333
1745.55,0.05229
1739.77,0.05109
1733.98,0.04947
1728.19,0.05097
1722.41,0.05736
1716.62,0.06509
1710.84,0.06874
1705.05,0.06677
1699.26,0.06385
1693.48,0.06150
1687.69,0.06121
1681.9,0.06006
1676.12,0.05974
1670.33,0.05950
1664.54,0.06091
1658.76,0.06214
1652.97,0.06281
1647.19,0.06230
1641.4,0.06055
1635.61,0.05972
1629.83,0.06150
1624.04,0.06288
1618.25,0.06229
1612.47,0.06166
1606.68,0.06194
1600.89,0.06384
1595.11,0.06390
1589.32,0.06315
1583.54,0.05967
1577.75,0.05712
1571.96,0.05836
1566.18,0.05918
1560.39,0.05971
1554.6,0.06026
1548.82,0.05981
1543.03,0.05930
1537.24,0.05839
1531.46,0.05915
1525.67,0.05870
1519.89,0.05953
1514.1,0.05797
1508.31,0.05703
1502.53,0.05605
1496.74,0.05745
1490.95,0.05709
1485.17,0.05523
1479.38,0.05445
1473.59,0.05382
1467.81,0.05397
1462.02,0.05514
1456.24,0.05590
1450.45,0.05600
1444.66,0.05510
1438.88,0.05435
1433.09,0.05479
1427.3,0.05579
1421.52,0.05646
1415.73,0.05552
1409.94,0.05616
1404.16,0.05676
1398.37,0.05563
1392.59,0.05465
1386.8,0.05439
1381.01,0.05510
1375.23,0.05591
1369.44,0.05518
1363.65,0.05429
1357.87,0.05379
1352.08,0.05389
1346.29,0.05303
1340.51,0.05225
1334.72,0.05218
1328.94,0.05280
1323.15,0.05301
1317.36,0.05253
1311.58,0.05165
1305.79,0.05103
1300,0.04977
1294.22,0.04756
1288.43,0.04607
1282.64,0.04714
1276.86,0.05324
1271.07,0.06469
1265.29,0.07236
1259.5,0.06985
1253.71,0.06877
1247.93,0.07219
1242.14,0.07303
1236.35,0.07120
1230.57,0.06904
1224.78,0.06776
1218.99,0.06554
1213.21,0.06378
1207.42,0.06316
1201.64,0.06243
1195.85,0.06197
1190.06,0.06192
1184.28,0.06126
1178.49,0.06031
1172.7,0.05996
1166.92,0.05964
1161.13,0.05890
1155.34,0.05905
1149.56,0.05820
1143.77,0.05652
1137.99,0.05557
1132.2,0.05328
1126.41,0.05263
1120.63,0.05820
1114.84,0.06457
1109.05,0.06326
1103.27,0.06682
1097.48,0.07039
1091.69,0.06802
1085.91,0.06684
1080.12,0.06655
1074.34,0.06521
1068.55,0.06488
1062.76,0.06442
1056.98,0.06330
1051.19,0.06289
1045.4,0.06248
1039.62,0.06196
1033.83,0.06085
1028.04,0.06033
1022.26,0.05936
1016.47,0.06540
1010.69,0.06413
1004.9,0.06173
999.112,0.06152
993.326,0.06120
987.54,0.06149
981.753,0.06101
975.967,0.06041
970.18,0.06130
964.394,0.06225
958.608,0.06268
952.821,0.06383
947.035,0.06421
941.249,0.06378
935.462,0.06327
929.676,0.06251
923.89,0.06262
918.103,0.06283
912.317,0.06245
906.53,0.06208
900.744,0.06222
894.958,0.06202
889.171,0.06161
883.385,0.06130
877.599,0.06102
871.812,0.06274
866.026,0.06168
860.24,0.06220
854.453,0.06130
848.667,0.06156
842.88,0.06207
837.094,0.06173
831.308,0.06161
825.521,0.06163
819.735,0.06195
813.949,0.06214
808.162,0.06243
802.376,0.06198
796.59,0.06088
790.803,0.06121
785.017,0.06041
779.23,0.06000
773.444,0.05868
767.658,0.05902
761.871,0.05874
756.085,0.05869
750.299,0.05747
744.512,0.05512
738.726,0.05091
732.94,0.05889
727.153,0.06854
721.367,0.06306
715.58,0.05961
709.794,0.06000
704.008,0.05956
698.221,0.05822
692.435,0.05930
686.649,0.05995
680.862,0.05941
675.076,0.05912
669.29,0.05944
663.503,0.05756
657.717,0.05686
651.93,0.05568
646.144,0.05651
640.358,0.05694
634.571,0.05958
628.785,0.05990
622.999,0.06131
617.212,0.06389
611.426,0.06509
605.639,0.06761
599.853,0.06755