File: 01_Data/PEVA/FTIR/IS/PEVA_0.10_IS_S_240808_R7.dpt
7496.93,0.10047
7491.14,0.09401
7485.35,0.10934
7479.57,0.08978
7473.78,0.10108
7468,0.10070
7462.21,0.10390
7456.42,0.10685
7450.64,0.08387
7444.85,0.09712
7439.06,0.09957
7433.28,0.09329
7427.49,0.08876
7421.71,0.09174
7415.92,0.10298
7410.13,0.10856
7404.35,0.09277
7398.56,0.10102
7392.78,0.09799
7386.99,0.09530
7381.2,0.10553
7375.42,0.10573
7369.63,0.10577
7363.84,0.10537
7358.06,0.10293
7352.27,0.10736
7346.49,0.08986
7340.7,0.09415
7334.91,0.11099
7329.13,0.10021
7323.34,0.09976
7317.56,0.10090
7311.77,0.09894
7305.98,0.10432
7300.2,0.09641
7294.41,0.10704
7288.62,0.10613
7282.84,0.10656
7277.05,0.09618
7271.27,0.08621
7265.48,0.10016
7259.69,0.09858
7253.91,0.09212
7248.12,0.11099
7242.34,0.10107
7236.55,0.09537
7230.76,0.11054
7224.98,0.10365
7219.19,0.10229
7213.4,0.10373
7207.62,0.10145
7201.83,0.09995
7196.05,0.09303
7190.26,0.09442
7184.47,0.09339
7178.69,0.09261
7172.9,0.09651
7167.12,0.08297
7161.33,0.09059
7155.54,0.09156
7149.76,0.09572
7143.97,0.08907
7138.18,0.09271
7132.4,0.09664
7126.61,0.09575
7120.83,0.09955
7115.04,0.10681
7109.25,0.10400
7103.47,0.09074
7097.68,0.10218
7091.9,0.10399
7086.11,0.10242
7080.32,0.09695
7074.54,0.09441
7068.75,0.09501
7062.96,0.09841
7057.18,0.09791
7051.39,0.10509
7045.61,0.09972
7039.82,0.10684
7034.03,0.09248
7028.25,0.09952
7022.46,0.10495
7016.68,0.09569
7010.89,0.10157
7005.1,0.09803
6999.32,0.09073
6993.53,0.09885
6987.74,0.09970
6981.96,0.10408
6976.17,0.09842
6970.39,0.09925
6964.6,0.10345
6958.81,0.09192
6953.03,0.10167
6947.24,0.09683
6941.46,0.09505
6935.67,0.10116
6929.88,0.08858
6924.1,0.09320
6918.31,0.09687
6912.52,0.10240
6906.74,0.09727
6900.95,0.09954
6895.17,0.10378
6889.38,0.09387
6883.59,0.10168
6877.81,0.09678
6872.02,0.09722
6866.24,0.09984
6860.45,0.09778
6854.66,0.09697
6848.88,0.08935
6843.09,0.10205
6837.3,0.09935
6831.52,0.09761
6825.73,0.09701
6819.95,0.09664
6814.16,0.09241
6808.37,0.09830
6802.59,0.10029
6796.8,0.09678
6791.02,0.10284
6785.23,0.09485
6779.44,0.09881
6773.66,0.09760
6767.87,0.09681
6762.08,0.09921
6756.3,0.10260
6750.51,0.09764
6744.73,0.09501
6738.94,0.09846
6733.15,0.10338
6727.37,0.09882
6721.58,0.10193
6715.8,0.09125
6710.01,0.09077
6704.22,0.09475
6698.44,0.09494
6692.65,0.09799
6686.86,0.09228
6681.08,0.10137
6675.29,0.09843
6669.51,0.09782
6663.72,0.09761
6657.93,0.09733
6652.15,0.09384
6646.36,0.09493
6640.58,0.09804
6634.79,0.09348
6629,0.09245
6623.22,0.10458
6617.43,0.09406
6611.64,0.10224
6605.86,0.10120
6600.07,0.10223
6594.29,0.09523
6588.5,0.10017
6582.71,0.09780
6576.93,0.09552
6571.14,0.10438
6565.36,0.09447
6559.57,0.09372
6553.78,0.09859
6548,0.09857
6542.21,0.10287
6536.42,0.09783
6530.64,0.09604
6524.85,0.09882
6519.07,0.10009
6513.28,0.10450
6507.49,0.09794
6501.71,0.09902
6495.92,0.09949
6490.14,0.09852
6484.35,0.10282
6478.56,0.09878
6472.78,0.09370
6466.99,0.09611
6461.2,0.09718
6455.42,0.09576
6449.63,0.09916
6443.85,0.09900
6438.06,0.09875
6432.27,0.09777
6426.49,0.09572
6420.7,0.10468
6414.92,0.09778
6409.13,0.09626
6403.34,0.09537
6397.56,0.09694
6391.77,0.09566
6385.98,0.09646
6380.2,0.09881
6374.41,0.10127
6368.63,0.09527
6362.84,0.10202
6357.05,0.09937
6351.27,0.09677
6345.48,0.09676
6339.7,0.09923
6333.91,0.09869
6328.12,0.10091
6322.34,0.09885
6316.55,0.09779
6310.76,0.09682
6304.98,0.09552
6299.19,0.10101
6293.41,0.09927
6287.62,0.09730
6281.83,0.09880
6276.05,0.09842
6270.26,0.09872
6264.48,0.09764
6258.69,0.09647
6252.9,0.09778
6247.12,0.09551
6241.33,0.09875
6235.54,0.09992
6229.76,0.10241
6223.97,0.09738
6218.19,0.09602
6212.4,0.09615
6206.61,0.09597
6200.83,0.10011
6195.04,0.09674
6189.26,0.09765
6183.47,0.09638
6177.68,0.09797
6171.9,0.09851
6166.11,0.09775
6160.32,0.09938
6154.54,0.09808
6148.75,0.09905
6142.97,0.09935
6137.18,0.09628
6131.39,0.09997
6125.61,0.10094
6119.82,0.09709
6114.04,0.09717
6108.25,0.09701
6102.46,0.10094
6096.68,0.09871
6090.89,0.09704
6085.1,0.09634
6079.32,0.09436
6073.53,0.09610
6067.75,0.09766
6061.96,0.09513
6056.17,0.09783
6050.39,0.09590
6044.6,0.09658
6038.82,0.09672
6033.03,0.09723
6027.24,0.09800
6021.46,0.10121
6015.67,0.09771
6009.88,0.09722
6004.1,0.09511
5998.31,0.09828
5992.53,0.10178
5986.74,0.09690
5980.95,0.09842
5975.17,0.09509
5969.38,0.09582
5963.6,0.09608
5957.81,0.09972
5952.02,0.09984
5946.24,0.09875
5940.45,0.09549
5934.66,0.09385
5928.88,0.09773
5923.09,0.09288
5917.31,0.09813
5911.52,0.09618
5905.73,0.09845
5899.95,0.09474
5894.16,0.09361
5888.38,0.09834
5882.59,0.09675
5876.8,0.09681
5871.02,0.09418
5865.23,0.09317
5859.44,0.09541
5853.66,0.09021
5847.87,0.09060
5842.09,0.09202
5836.3,0.09263
5830.51,0.08908
5824.73,0.09194
5818.94,0.09118
5813.16,0.09125
5807.37,0.09030
5801.58,0.09009
5795.8,0.08458
5790.01,0.08706
5784.22,0.08870
5778.44,0.08564
5772.65,0.08591
5766.87,0.08385
5761.08,0.08748
5755.29,0.09119
5749.51,0.08925
5743.72,0.09083
5737.94,0.09137
5732.15,0.09520
5726.36,0.09366
5720.58,0.09660
5714.79,0.09409
5709,0.09431
5703.22,0.09334
5697.43,0.09194
5691.65,0.09255
5685.86,0.09093
5680.07,0.09382
5674.29,0.09306
5668.5,0.09043
5662.72,0.09265
5656.93,0.09405
5651.14,0.09349
5645.36,0.09362
5639.57,0.09473
5633.78,0.09256
5628,0.09389
5622.21,0.09322
5616.43,0.09585
5610.64,0.09398
5604.85,0.09668
5599.07,0.09611
5593.28,0.09683
5587.5,0.09535
5581.71,0.09481
5575.92,0.09550
5570.14,0.09608
5564.35,0.09721
5558.56,0.09559
5552.78,0.09540
5546.99,0.09536
5541.21,0.09149
5535.42,0.09469
5529.63,0.09674
5523.85,0.09449
5518.06,0.09528
5512.28,0.09384
5506.49,0.09445
5500.7,0.09493
5494.92,0.09536
5489.13,0.09660
5483.34,0.09574
5477.56,0.09522
5471.77,0.09898
5465.99,0.09456
5460.2,0.09501
5454.41,0.09467
5448.63,0.09377
5442.84,0.09344
5437.06,0.09525
5431.27,0.09600
5425.48,0.09510
5419.7,0.09553
5413.91,0.09750
5408.12,0.09697
5402.34,0.09605
5396.55,0.09640
5390.77,0.09442
5384.98,0.09720
5379.19,0.09895
5373.41,0.09675
5367.62,0.09767
5361.84,0.09732
5356.05,0.09738
5350.26,0.09756
5344.48,0.09713
5338.69,0.09546
5332.9,0.09837
5327.12,0.09713
5321.33,0.09910
5315.55,0.09729
5309.76,0.09886
5303.97,0.09803
5298.19,0.09752
5292.4,0.09634
5286.62,0.09585
5280.83,0.09773
5275.04,0.09543
5269.26,0.09785
5263.47,0.09772
5257.68,0.09780
5251.9,0.09663
5246.11,0.09911
5240.33,0.09692
5234.54,0.09728
5228.75,0.09685
5222.97,0.09771
5217.18,0.09661
5211.4,0.09772
5205.61,0.09849
5199.82,0.09669
5194.04,0.09776
5188.25,0.09760
5182.46,0.09692
5176.68,0.09793
5170.89,0.09706
5165.11,0.09617
5159.32,0.09705
5153.53,0.09837
5147.75,0.09778
5141.96,0.09855
5136.18,0.09782
5130.39,0.09808
5124.6,0.10048
5118.82,0.09579
5113.03,0.09712
5107.24,0.09739
5101.46,0.09801
5095.67,0.09705
5089.89,0.09915
5084.1,0.09734
5078.31,0.09775
5072.53,0.09817
5066.74,0.09881
5060.96,0.09783
5055.17,0.09807
5049.38,0.09783
5043.6,0.09853
5037.81,0.09634
5032.02,0.09768
5026.24,0.09793
5020.45,0.09771
5014.67,0.09851
5008.88,0.09938
5003.09,0.09903
4997.31,0.09805
4991.52,0.09725
4985.74,0.09809
4979.95,0.09752
4974.16,0.09797
4968.38,0.09672
4962.59,0.09786
4956.8,0.09766
4951.02,0.09906
4945.23,0.09909
4939.45,0.10026
4933.66,0.09934
4927.87,0.09735
4922.09,0.09852
4916.3,0.09961
4910.52,0.09850
4904.73,0.09833
4898.94,0.09805
4893.16,0.09802
4887.37,0.09825
4881.58,0.09852
4875.8,0.09819
4870.01,0.09885
4864.23,0.09913
4858.44,0.10036
4852.65,0.09877
4846.87,0.09917
4841.08,0.09851
4835.3,0.09858
4829.51,0.09876
4823.72,0.09811
4817.94,0.09925
4812.15,0.09915
4806.36,0.09997
4800.58,0.09990
4794.79,0.09924
4789.01,0.09993
4783.22,0.09937
4777.43,0.10067
4771.65,0.09959
4765.86,0.09857
4760.08,0.09969
4754.29,0.09885
4748.5,0.09866
4742.72,0.09909
4736.93,0.10033
4731.14,0.10061
4725.36,0.09910
4719.57,0.09947
4713.79,0.10006
4708,0.09927
4702.21,0.09952
4696.43,0.10036
4690.64,0.09958
4684.86,0.09900
4679.07,0.09778
4673.28,0.09995
4667.5,0.10009
4661.71,0.10062
4655.92,0.09945
4650.14,0.09908
4644.35,0.09876
4638.57,0.09905
4632.78,0.10151
4626.99,0.09960
4621.21,0.09945
4615.42,0.09898
4609.64,0.09937
4603.85,0.09843
4598.06,0.09994
4592.28,0.10086
4586.49,0.10053
4580.7,0.09972
4574.92,0.09905
4569.13,0.09929
4563.35,0.09961
4557.56,0.10021
4551.77,0.09932
4545.99,0.09932
4540.2,0.09968
4534.42,0.09898
4528.63,0.09821
4522.84,0.09888
4517.06,0.09951
4511.27,0.09896
4505.48,0.09904
4499.7,0.09930
4493.91,0.09865
4488.13,0.09900
4482.34,0.09862
4476.55,0.09857
4470.77,0.09768
4464.98,0.09735
4459.2,0.09759
4453.41,0.09869
4447.62,0.09852
4441.84,0.09775
4436.05,0.09647
4430.26,0.09623
4424.48,0.09727
4418.69,0.09588
4412.91,0.09520
4407.12,0.09428
4401.33,0.09313
4395.55,0.09267
4389.76,0.09100
4383.98,0.09119
4378.19,0.09032
4372.4,0.08842
4366.62,0.08670
4360.83,0.08500
4355.04,0.08339
4349.26,0.08038
4343.47,0.07678
4337.69,0.07225
4331.9,0.07041
4326.11,0.06641
4320.33,0.06597
4314.54,0.07358
4308.76,0.08108
4302.97,0.08363
4297.18,0.08428
4291.4,0.08389
4285.61,0.08379
4279.82,0.08294
4274.04,0.08188
4268.25,0.08041
4262.47,0.07654
4256.68,0.07205
4250.89,0.07027
4245.11,0.07502
4239.32,0.08111
4233.54,0.08073
4227.75,0.07932
4221.96,0.07774
4216.18,0.07840
4210.39,0.07878
4204.6,0.07779
4198.82,0.07670
4193.03,0.07510
4187.25,0.07438
4181.46,0.07509
4175.67,0.07622
4169.89,0.07606
4164.1,0.07563
4158.32,0.07600
4152.53,0.07609
4146.74,0.07627
4140.96,0.07641
4135.17,0.07764
4129.38,0.07705
4123.6,0.07700
4117.81,0.07686
4112.03,0.07671
4106.24,0.07796
4100.45,0.07717
4094.67,0.07792
4088.88,0.07929
4083.1,0.08053
4077.31,0.08154
4071.52,0.08224
4065.74,0.08338
4059.95,0.08415
4054.16,0.08467
4048.38,0.08358
4042.59,0.08458
4036.81,0.08512
4031.02,0.08582
4025.23,0.08696
4019.45,0.08617
4013.66,0.08823
4007.88,0.08745
4002.09,0.08879
3996.3,0.08915
3990.52,0.08954
3984.73,0.08924
3978.94,0.08806
3973.16,0.08850
3967.37,0.08861
3961.59,0.08894
3955.8,0.09044
3950.01,0.09011
3944.23,0.08934
3938.44,0.08939
3932.66,0.08865
3926.87,0.08881
3921.08,0.08966
3915.3,0.08942
3909.51,0.08844
3903.72,0.08783
3897.94,0.08807
3892.15,0.08851
3886.37,0.08948
3880.58,0.08933
3874.79,0.08902
3869.01,0.08854
3863.22,0.08889
3857.44,0.08994
3851.65,0.09109
3845.86,0.09116
3840.08,0.09040
3834.29,0.08878
3828.5,0.08983
3822.72,0.08985
3816.93,0.09081
3811.15,0.09200
3805.36,0.09165
3799.57,0.09021
3793.79,0.09115
3788,0.09171
3782.22,0.09295
3776.43,0.09332
3770.64,0.09258
3764.86,0.09176
3759.07,0.09129
3753.28,0.09172
3747.5,0.09384
3741.71,0.09349
3735.93,0.09302
3730.14,0.09195
3724.35,0.09234
3718.57,0.09257
3712.78,0.09349
3707,0.09393
3701.21,0.09209
3695.42,0.09127
3689.64,0.08981
3683.85,0.09042
3678.06,0.09248
3672.28,0.09220
3666.49,0.09143
3660.71,0.09002
3654.92,0.08875
3649.13,0.08570
3643.35,0.08923
3637.56,0.09009
3631.78,0.08973
3625.99,0.08810
3620.2,0.08770
3614.42,0.08695
3608.63,0.08634
3602.84,0.08593
3597.06,0.08971
3591.27,0.09184
3585.49,0.09239
3579.7,0.09297
3573.91,0.09423
3568.13,0.09579
3562.34,0.09574
3556.56,0.09474
3550.77,0.09309
3544.98,0.09397
3539.2,0.09591
3533.41,0.09610
3527.62,0.09633
3521.84,0.09482
3516.05,0.09343
3510.27,0.09384
3504.48,0.09503
3498.69,0.09625
3492.91,0.09669
3487.12,0.09510
3481.34,0.09310
3475.55,0.09306
3469.76,0.09497
3463.98,0.09635
3458.19,0.09503
3452.4,0.09315
3446.62,0.09167
3440.83,0.09178
3435.05,0.09361
3429.26,0.09542
3423.47,0.09450
3417.69,0.09184
3411.9,0.09105
3406.12,0.09153
3400.33,0.09319
3394.54,0.09507
3388.76,0.09391
3382.97,0.09174
3377.18,0.09046
3371.4,0.09003
3365.61,0.09231
3359.83,0.09401
3354.04,0.09305
3348.25,0.09132
3342.47,0.09046
3336.68,0.09165
3330.9,0.09391
3325.11,0.09506
3319.32,0.09322
3313.54,0.09117
3307.75,0.09137
3301.96,0.09184
3296.18,0.09441
3290.39,0.09466
3284.61,0.09313
3278.82,0.09126
3273.03,0.09173
3267.25,0.09184
3261.46,0.09500
3255.68,0.09474
3249.89,0.09312
3244.1,0.09071
3238.32,0.09074
3232.53,0.09304
3226.74,0.09335
3220.96,0.09295
3215.17,0.09045
3209.39,0.08899
3203.6,0.09013
3197.81,0.09115
3192.03,0.09128
3186.24,0.09080
3180.46,0.08893
3174.67,0.08751
3168.88,0.08889
3163.1,0.09039
3157.31,0.08947
3151.52,0.08649
3145.74,0.08500
3139.95,0.08608
3134.17,0.08738
3128.38,0.08761
3122.59,0.08448
3116.81,0.08178
3111.02,0.08151
3105.24,0.08253
3099.45,0.07976
3093.66,0.07620
3087.88,0.07301
3082.09,0.07212
3076.3,0.07303
3070.52,0.07181
3064.73,0.06972
3058.95,0.06770
3053.16,0.06775
3047.37,0.06718
3041.59,0.06463
3035.8,0.06224
3030.02,0.06105
3024.23,0.06109
3018.44,0.05875
3012.66,0.05708
3006.87,0.05681
3001.08,0.05601
2995.3,0.05335
2989.51,0.05296
2983.73,0.05104
2977.94,0.05015
2972.15,0.04888
2966.37,0.04766
2960.58,0.04670
2954.8,0.04580
2949.01,0.04377
2943.22,0.04097
2937.44,0.03892
2931.65,0.04043
2925.86,0.04786
2920.08,0.07209
2914.29,0.08783
2908.51,0.07801
2902.72,0.07229
2896.93,0.06965
2891.15,0.06743
2885.36,0.06588
2879.58,0.06386
2873.79,0.06119
2868,0.05790
2862.22,0.05465
2856.43,0.05380
2850.64,0.07005
2844.86,0.08376
2839.07,0.07573
2833.29,0.07169
2827.5,0.06944
2821.71,0.06789
2815.93,0.06732
2810.14,0.06620
2804.36,0.06643
2798.57,0.06633
2792.78,0.06693
2787,0.06812
2781.21,0.06868
2775.42,0.07024
2769.64,0.07210
2763.85,0.07211
2758.07,0.07100
2752.28,0.07259
2746.49,0.07401
2740.71,0.07284
2734.92,0.07170
2729.14,0.07178
2723.35,0.07384
2717.56,0.07510
2711.78,0.07395
2705.99,0.07329
2700.2,0.07483
2694.42,0.07576
2688.63,0.07503
2682.85,0.07310
2677.06,0.07170
2671.27,0.07174
2665.49,0.07287
2659.7,0.07337
2653.92,0.07294
2648.13,0.07176
2642.34,0.07176
2636.56,0.07294
2630.77,0.07463
2624.98,0.07554
2619.2,0.07514
2613.41,0.07561
2607.63,0.07787
2601.84,0.08101
2596.05,0.08229
2590.27,0.08235
2584.48,0.08210
2578.7,0.08291
2572.91,0.08567
2567.12,0.08845
2561.34,0.08868
2555.55,0.08747
2549.76,0.08682
2543.98,0.08861
2538.19,0.09093
2532.41,0.09171
2526.62,0.09044
2520.83,0.09012
2515.05,0.09058
2509.26,0.09200
2503.48,0.09428
2497.69,0.09519
2491.9,0.09453
2486.12,0.09343
2480.33,0.09313
2474.55,0.09418
2468.76,0.09695
2462.97,0.09788
2457.19,0.09672
2451.4,0.09531
2445.61,0.09489
2439.83,0.09652
2434.04,0.09753
2428.26,0.09681
2422.47,0.09470
2416.68,0.09281
2410.9,0.09310
2405.11,0.09531
2399.32,0.09695
2393.54,0.09701
2387.75,0.09552
2381.97,0.09377
2376.18,0.09394
2370.39,0.09493
2364.61,0.09491
2358.82,0.09436
2353.04,0.09068
2347.25,0.08825
2341.46,0.08729
2335.68,0.08867
2329.89,0.09032
2324.11,0.09044
2318.32,0.09005
2312.53,0.08976
2306.75,0.09064
2300.96,0.09277
2295.17,0.09491
2289.39,0.09546
2283.6,0.09407
2277.82,0.09260
2272.03,0.09286
2266.24,0.09530
2260.46,0.09735
2254.67,0.09757
2248.89,0.09619
2243.1,0.09455
2237.31,0.09519
2231.53,0.09739
2225.74,0.09871
2219.95,0.09897
2214.17,0.09815
2208.38,0.09580
2202.6,0.09579
2196.81,0.09661
2191.02,0.09884
2185.24,0.09890
2179.45,0.09792
2173.67,0.09634
2167.88,0.09507
2162.09,0.09630
2156.31,0.09756
2150.52,0.09818
2144.73,0.09741
2138.95,0.09562
2133.16,0.09531
2127.38,0.09722
2121.59,0.09953
2115.8,0.10099
2110.02,0.10037
2104.23,0.09794
2098.45,0.09592
2092.66,0.09674
2086.87,0.09889
2081.09,0.10023
2075.3,0.09968
2069.51,0.09699
2063.73,0.09422
2057.94,0.09460
2052.16,0.09653
2046.37,0.09808
2040.58,0.09704
2034.8,0.09433
2029.01,0.09092
2023.23,0.08927
2017.44,0.09103
2011.65,0.09681
2005.87,0.09989
2000.08,0.09824
1994.29,0.09586
1988.51,0.09493
1982.72,0.09709
1976.94,0.10041
1971.15,0.10207
1965.36,0.09949
1959.58,0.09556
1953.79,0.09443
1948.01,0.09624
1942.22,0.10015
1936.43,0.10213
1930.65,0.09940
1924.86,0.09509
1919.07,0.09264
1913.29,0.09463
1907.5,0.09805
1901.72,0.09925
1895.93,0.09652
1890.14,0.09400
1884.36,0.09228
1878.57,0.09462
1872.79,0.09990
1867,0.10354
1861.21,0.10266
1855.43,0.09775
1849.64,0.09406
1843.85,0.09473
1838.07,0.09987
1832.28,0.10390
1826.5,0.10269
1820.71,0.09618
1814.92,0.09168
1809.14,0.09239
1803.35,0.09782
1797.57,0.10274
1791.78,0.10274
1785.99,0.09698
1780.21,0.09121
1774.42,0.09007
1768.63,0.09569
1762.85,0.10113
1757.06,0.09967
1751.28,0.09221
1745.49,0.08483
1739.7,0.08430
1733.92,0.09148
1728.13,0.09848
1722.35,0.09913
1716.56,0.09384
1710.77,0.08750
1704.99,0.08577
1699.2,0.08991
1693.41,0.09961
1687.63,0.10290
1681.84,0.09649
1676.06,0.08928
1670.27,0.08554
1664.48,0.09064
1658.7,0.09876
1652.91,0.10129
1647.13,0.09541
1641.34,0.08634
1635.55,0.08213
1629.77,0.08804
1623.98,0.09708
1618.19,0.10080
1612.41,0.09553
1606.62,0.08606
1600.84,0.08197
1595.05,0.08705
1589.26,0.09660
1583.48,0.10013
1577.69,0.09527
1571.91,0.08394
1566.12,0.07991
1560.33,0.08450
1554.55,0.09634
1548.76,0.09822
1542.97,0.09117
1537.19,0.07837
1531.4,0.07770
1525.62,0.08570
1519.83,0.09401
1514.04,0.08958
1508.26,0.07848
1502.47,0.06947
1496.69,0.07606
1490.9,0.07947
1485.11,0.06363
1479.33,0.05580
1473.54,0.05189
1467.75,0.05556
1461.97,0.06001
1456.18,0.06030
1450.4,0.06122
1444.61,0.05862
1438.82,0.05793
1433.04,0.06399
1427.25,0.07960
1421.47,0.08375
1415.68,0.07295
1409.89,0.07449
1404.11,0.08721
1398.32,0.09575
1392.53,0.08788
1386.75,0.07189
1380.96,0.06029
1375.18,0.06199
1369.39,0.06753
1363.6,0.07310
1357.82,0.07394
1352.03,0.06630
1346.25,0.06277
1340.46,0.06716
1334.67,0.08250
1328.89,0.09268
1323.1,0.08608
1317.31,0.07080
1311.53,0.06309
1305.74,0.06630
1299.96,0.07632
1294.17,0.08570
1288.38,0.08589
1282.6,0.07595
1276.81,0.06761
1271.03,0.07131
1265.24,0.08475
1259.45,0.09658
1253.67,0.09492
1247.88,0.08207
1242.09,0.07212
1236.31,0.07569
1230.52,0.08995
1224.74,0.10162
1218.95,0.09911
1213.16,0.08464
1207.38,0.07311
1201.59,0.07635
1195.81,0.09026
1190.02,0.10210
1184.23,0.09914
1178.45,0.08462
1172.66,0.07175
1166.87,0.07429
1161.09,0.08833
1155.3,0.10175
1149.52,0.10001
1143.73,0.08608
1137.94,0.07349
1132.16,0.07418
1126.37,0.09044
1120.59,0.10504
1114.8,0.10473
1109.01,0.08939
1103.23,0.07458
1097.44,0.07463
1091.65,0.08852
1085.87,0.10165
1080.08,0.10209
1074.3,0.09072
1068.51,0.07692
1062.72,0.07469
1056.94,0.08927
1051.15,0.10524
1045.37,0.10912
1039.58,0.09587
1033.79,0.07902
1028.01,0.07623
1022.22,0.08882
1016.43,0.10459
1010.65,0.11350
1004.86,0.10324
999.076,0.08322
993.29,0.07464
987.504,0.08961
981.717,0.11000
975.931,0.11587
970.145,0.10080
964.359,0.07936
958.573,0.07154
952.787,0.08531
947,0.10764
941.214,0.11697
935.428,0.10371
929.642,0.08097
923.856,0.07054
918.07,0.08349
912.284,0.10723
906.497,0.11771
900.711,0.10529
894.925,0.07987
889.139,0.06710
883.353,0.08104
877.567,0.10633
871.78,0.12055
865.994,0.10792
860.208,0.08202
854.422,0.06724
848.636,0.07939
842.85,0.10729
837.064,0.12067
831.277,0.10752
825.491,0.07991
819.705,0.06420
813.919,0.07695
808.133,0.10527
802.347,0.11882
796.56,0.10286
790.774,0.07293
784.988,0.05857
779.202,0.07321
773.416,0.09794
767.63,0.10817
761.844,0.09232
756.057,0.06273
750.271,0.05547
744.485,0.07901
738.699,0.08254
732.913,0.05224
727.127,0.05674
721.34,0.05579
715.554,0.06724
709.768,0.07482
703.982,0.05495
698.196,0.07293
692.41,0.11759
686.624,0.12792
680.837,0.09626
675.051,0.06207
669.265,0.06241
663.479,0.10133
657.693,0.13599
651.907,0.13090
646.12,0.09260
640.334,0.05888
634.548,0.06701
628.762,0.10760
622.976,0.14171
617.19,0.13410
611.404,0.09381
605.617,0.05820
599.831,0.06547