File: 01_Data/PEVA/FTIR/IS/PEVA_0.18_IS_S_240809_R2.dpt
7497.33,0.11241
7491.55,0.09159
7485.76,0.09152
7479.97,0.09678
7474.19,0.10022
7468.4,0.10114
7462.61,0.10346
7456.83,0.10900
7451.04,0.09633
7445.26,0.10111
7439.47,0.10351
7433.68,0.10574
7427.9,0.09062
7422.11,0.10592
7416.32,0.09936
7410.54,0.10894
7404.75,0.09840
7398.96,0.09050
7393.18,0.10033
7387.39,0.08882
7381.6,0.09981
7375.82,0.09598
7370.03,0.10502
7364.24,0.09174
7358.46,0.09190
7352.67,0.10492
7346.89,0.12208
7341.1,0.10164
7335.31,0.11222
7329.53,0.10737
7323.74,0.10148
7317.95,0.10185
7312.17,0.10721
7306.38,0.10617
7300.59,0.10774
7294.81,0.10152
7289.02,0.09728
7283.23,0.09530
7277.45,0.10217
7271.66,0.10225
7265.87,0.10194
7260.09,0.10072
7254.3,0.09754
7248.52,0.08539
7242.73,0.09325
7236.94,0.10193
7231.16,0.09701
7225.37,0.10269
7219.58,0.10348
7213.8,0.10227
7208.01,0.08560
7202.22,0.10251
7196.44,0.08985
7190.65,0.09802
7184.86,0.09355
7179.08,0.09957
7173.29,0.08868
7167.5,0.09793
7161.72,0.09629
7155.93,0.10329
7150.15,0.10607
7144.36,0.10122
7138.57,0.10009
7132.79,0.10208
7127,0.10035
7121.21,0.09481
7115.43,0.09776
7109.64,0.09960
7103.85,0.09799
7098.07,0.10340
7092.28,0.10402
7086.49,0.09870
7080.71,0.09947
7074.92,0.10592
7069.13,0.09484
7063.35,0.09711
7057.56,0.09824
7051.78,0.09863
7045.99,0.09696
7040.2,0.09860
7034.42,0.09659
7028.63,0.09819
7022.84,0.10045
7017.06,0.09921
7011.27,0.10108
7005.48,0.09776
6999.7,0.10273
6993.91,0.09737
6988.12,0.10652
6982.34,0.10953
6976.55,0.10086
6970.76,0.09531
6964.98,0.09846
6959.19,0.10253
6953.41,0.10043
6947.62,0.10144
6941.83,0.10043
6936.05,0.10633
6930.26,0.09844
6924.47,0.10237
6918.69,0.09845
6912.9,0.09591
6907.11,0.09844
6901.33,0.10266
6895.54,0.09906
6889.75,0.09517
6883.97,0.10312
6878.18,0.09485
6872.39,0.09623
6866.61,0.10322
6860.82,0.10442
6855.04,0.09977
6849.25,0.10504
6843.46,0.10342
6837.68,0.10134
6831.89,0.10900
6826.1,0.10221
6820.32,0.09773
6814.53,0.10104
6808.74,0.09987
6802.96,0.10191
6797.17,0.10022
6791.38,0.09521
6785.6,0.09960
6779.81,0.09605
6774.03,0.09810
6768.24,0.09521
6762.45,0.09965
6756.67,0.10146
6750.88,0.10041
6745.09,0.10142
6739.31,0.10338
6733.52,0.10025
6727.73,0.09706
6721.95,0.09886
6716.16,0.09767
6710.37,0.09784
6704.59,0.10239
6698.8,0.09489
6693.01,0.10310
6687.23,0.10149
6681.44,0.09389
6675.66,0.10123
6669.87,0.10540
6664.08,0.10326
6658.3,0.09783
6652.51,0.09706
6646.72,0.10122
6640.94,0.09970
6635.15,0.09519
6629.36,0.10490
6623.58,0.10650
6617.79,0.10004
6612,0.10042
6606.22,0.10142
6600.43,0.09778
6594.64,0.10351
6588.86,0.09726
6583.07,0.09659
6577.29,0.09874
6571.5,0.10450
6565.71,0.10464
6559.93,0.10161
6554.14,0.10163
6548.35,0.09647
6542.57,0.09746
6536.78,0.09764
6530.99,0.10037
6525.21,0.10145
6519.42,0.09676
6513.63,0.10118
6507.85,0.09908
6502.06,0.10266
6496.27,0.09906
6490.49,0.09751
6484.7,0.09877
6478.92,0.09638
6473.13,0.09398
6467.34,0.09784
6461.56,0.10001
6455.77,0.09779
6449.98,0.09642
6444.2,0.09992
6438.41,0.10388
6432.62,0.09923
6426.84,0.09671
6421.05,0.10599
6415.26,0.09864
6409.48,0.09841
6403.69,0.10006
6397.9,0.09771
6392.12,0.10352
6386.33,0.10276
6380.55,0.09988
6374.76,0.09627
6368.97,0.10037
6363.19,0.10274
6357.4,0.10100
6351.61,0.10184
6345.83,0.09932
6340.04,0.09471
6334.25,0.09672
6328.47,0.09926
6322.68,0.10433
6316.89,0.10384
6311.11,0.09870
6305.32,0.09579
6299.53,0.09780
6293.75,0.10256
6287.96,0.09828
6282.18,0.10083
6276.39,0.10102
6270.6,0.10307
6264.82,0.09416
6259.03,0.09997
6253.24,0.10561
6247.46,0.10257
6241.67,0.09909
6235.88,0.09654
6230.1,0.09841
6224.31,0.09941
6218.52,0.10291
6212.74,0.10123
6206.95,0.10058
6201.16,0.10226
6195.38,0.10214
6189.59,0.10120
6183.81,0.10027
6178.02,0.09949
6172.23,0.10033
6166.45,0.10152
6160.66,0.09921
6154.87,0.09909
6149.09,0.10138
6143.3,0.09833
6137.51,0.09894
6131.73,0.10021
6125.94,0.10120
6120.15,0.09887
6114.37,0.10041
6108.58,0.10217
6102.79,0.10192
6097.01,0.10046
6091.22,0.10118
6085.44,0.09892
6079.65,0.10308
6073.86,0.10127
6068.08,0.09917
6062.29,0.09801
6056.5,0.10066
6050.72,0.09976
6044.93,0.10015
6039.14,0.09887
6033.36,0.09999
6027.57,0.09875
6021.78,0.09922
6016,0.09859
6010.21,0.09821
6004.42,0.09760
5998.64,0.10128
5992.85,0.10062
5987.07,0.10200
5981.28,0.09692
5975.49,0.09968
5969.71,0.09680
5963.92,0.09850
5958.13,0.09877
5952.35,0.09875
5946.56,0.10044
5940.77,0.10098
5934.99,0.09930
5929.2,0.10089
5923.41,0.09999
5917.63,0.09974
5911.84,0.09607
5906.05,0.09717
5900.27,0.09997
5894.48,0.09738
5888.7,0.09884
5882.91,0.09595
5877.12,0.09716
5871.34,0.09713
5865.55,0.09400
5859.76,0.09293
5853.98,0.09316
5848.19,0.09243
5842.4,0.09179
5836.62,0.09182
5830.83,0.09041
5825.04,0.09152
5819.26,0.08788
5813.47,0.09055
5807.68,0.08778
5801.9,0.08706
5796.11,0.08680
5790.33,0.08746
5784.54,0.08475
5778.75,0.08055
5772.97,0.08286
5767.18,0.08353
5761.39,0.08639
5755.61,0.09130
5749.82,0.08883
5744.03,0.09233
5738.25,0.09141
5732.46,0.09005
5726.67,0.09567
5720.89,0.09606
5715.1,0.09291
5709.31,0.09360
5703.53,0.09437
5697.74,0.09377
5691.96,0.09528
5686.17,0.09360
5680.38,0.09245
5674.6,0.08920
5668.81,0.08939
5663.02,0.09063
5657.24,0.08998
5651.45,0.09024
5645.66,0.09254
5639.88,0.09486
5634.09,0.09403
5628.3,0.09514
5622.52,0.09631
5616.73,0.09539
5610.94,0.09452
5605.16,0.09566
5599.37,0.09431
5593.59,0.09491
5587.8,0.09390
5582.01,0.09520
5576.23,0.09740
5570.44,0.09771
5564.65,0.09605
5558.87,0.09543
5553.08,0.09620
5547.29,0.09575
5541.51,0.09666
5535.72,0.09497
5529.93,0.09607
5524.15,0.09857
5518.36,0.09554
5512.58,0.09486
5506.79,0.09587
5501,0.09633
5495.22,0.09386
5489.43,0.09529
5483.64,0.09543
5477.86,0.09645
5472.07,0.09764
5466.28,0.09677
5460.5,0.09698
5454.71,0.09702
5448.92,0.09620
5443.14,0.09712
5437.35,0.09671
5431.56,0.09768
5425.78,0.09741
5419.99,0.09739
5414.21,0.09937
5408.42,0.09958
5402.63,0.09815
5396.85,0.09896
5391.06,0.09847
5385.27,0.09862
5379.49,0.09712
5373.7,0.09821
5367.91,0.09668
5362.13,0.09585
5356.34,0.09710
5350.55,0.09887
5344.77,0.09917
5338.98,0.09852
5333.19,0.09790
5327.41,0.09752
5321.62,0.09871
5315.84,0.09985
5310.05,0.09752
5304.26,0.09873
5298.48,0.09846
5292.69,0.09833
5286.9,0.10073
5281.12,0.09918
5275.33,0.09671
5269.54,0.09917
5263.76,0.09754
5257.97,0.09820
5252.18,0.09913
5246.4,0.09901
5240.61,0.09987
5234.82,0.09560
5229.04,0.09884
5223.25,0.09967
5217.47,0.09672
5211.68,0.09929
5205.89,0.10018
5200.11,0.09810
5194.32,0.09929
5188.53,0.09850
5182.75,0.09988
5176.96,0.09886
5171.17,0.10044
5165.39,0.09857
5159.6,0.09920
5153.81,0.09814
5148.03,0.09897
5142.24,0.10051
5136.45,0.09958
5130.67,0.09936
5124.88,0.09924
5119.1,0.09866
5113.31,0.09904
5107.52,0.09893
5101.74,0.09914
5095.95,0.09821
5090.16,0.09940
5084.38,0.09809
5078.59,0.09854
5072.8,0.09811
5067.02,0.09889
5061.23,0.10138
5055.44,0.09879
5049.66,0.09828
5043.87,0.09834
5038.08,0.09926
5032.3,0.09942
5026.51,0.09960
5020.73,0.09860
5014.94,0.09886
5009.15,0.09961
5003.37,0.09930
4997.58,0.09878
4991.79,0.09870
4986.01,0.09852
4980.22,0.09916
4974.43,0.09916
4968.65,0.09949
4962.86,0.09898
4957.07,0.09974
4951.29,0.09873
4945.5,0.10026
4939.71,0.09902
4933.93,0.09931
4928.14,0.09843
4922.36,0.10067
4916.57,0.09938
4910.78,0.09915
4905,0.09938
4899.21,0.09863
4893.42,0.09967
4887.64,0.10041
4881.85,0.10036
4876.06,0.09886
4870.28,0.09873
4864.49,0.09889
4858.7,0.10104
4852.92,0.10051
4847.13,0.09996
4841.34,0.09951
4835.56,0.10067
4829.77,0.09855
4823.99,0.09995
4818.2,0.10078
4812.41,0.10156
4806.63,0.10011
4800.84,0.10125
4795.05,0.10163
4789.27,0.10072
4783.48,0.10073
4777.69,0.10095
4771.91,0.10072
4766.12,0.10104
4760.33,0.10146
4754.55,0.10081
4748.76,0.10042
4742.97,0.10059
4737.19,0.10151
4731.4,0.10101
4725.62,0.10059
4719.83,0.10107
4714.04,0.10058
4708.26,0.10078
4702.47,0.10146
4696.68,0.10124
4690.9,0.10050
4685.11,0.09991
4679.32,0.09959
4673.54,0.09972
4667.75,0.09927
4661.96,0.10003
4656.18,0.09930
4650.39,0.09985
4644.6,0.10055
4638.82,0.09991
4633.03,0.09988
4627.25,0.09917
4621.46,0.09971
4615.67,0.09998
4609.89,0.10023
4604.1,0.10041
4598.31,0.10011
4592.53,0.09975
4586.74,0.10076
4580.95,0.10044
4575.17,0.10025
4569.38,0.09981
4563.59,0.10069
4557.81,0.10090
4552.02,0.10080
4546.23,0.10116
4540.45,0.10024
4534.66,0.10106
4528.88,0.10049
4523.09,0.10063
4517.3,0.10040
4511.52,0.10028
4505.73,0.10026
4499.94,0.09975
4494.16,0.09880
4488.37,0.09976
4482.58,0.09836
4476.8,0.09798
4471.01,0.09835
4465.22,0.09704
4459.44,0.09731
4453.65,0.09641
4447.86,0.09526
4442.08,0.09410
4436.29,0.09396
4430.51,0.09365
4424.72,0.09205
4418.93,0.09152
4413.15,0.09111
4407.36,0.08970
4401.57,0.08769
4395.79,0.08690
4390,0.08614
4384.21,0.08394
4378.43,0.08214
4372.64,0.08124
4366.85,0.07911
4361.07,0.07770
4355.28,0.07485
4349.49,0.07162
4343.71,0.06911
4337.92,0.06768
4332.14,0.06549
4326.35,0.06355
4320.56,0.06320
4314.78,0.06929
4308.99,0.07485
4303.2,0.07667
4297.42,0.07862
4291.63,0.07808
4285.84,0.07730
4280.06,0.07664
4274.27,0.07469
4268.48,0.07317
4262.7,0.07022
4256.91,0.06748
4251.13,0.06698
4245.34,0.07083
4239.55,0.07337
4233.77,0.07380
4227.98,0.07340
4222.19,0.07280
4216.41,0.07253
4210.62,0.07233
4204.83,0.07191
4199.05,0.07078
4193.26,0.06975
4187.47,0.06918
4181.69,0.07023
4175.9,0.07014
4170.11,0.06898
4164.33,0.07047
4158.54,0.07053
4152.76,0.07016
4146.97,0.07053
4141.18,0.07113
4135.4,0.07069
4129.61,0.07134
4123.82,0.07276
4118.04,0.07163
4112.25,0.07174
4106.46,0.07179
4100.68,0.07219
4094.89,0.07288
4089.1,0.07335
4083.32,0.07496
4077.53,0.07636
4071.74,0.07722
4065.96,0.07787
4060.17,0.07864
4054.39,0.07922
4048.6,0.07901
4042.81,0.07942
4037.03,0.07967
4031.24,0.07949
4025.45,0.08024
4019.67,0.08100
4013.88,0.08214
4008.09,0.08354
4002.31,0.08430
3996.52,0.08384
3990.73,0.08287
3984.95,0.08254
3979.16,0.08260
3973.37,0.08236
3967.59,0.08279
3961.8,0.08382
3956.02,0.08447
3950.23,0.08379
3944.44,0.08373
3938.66,0.08318
3932.87,0.08338
3927.08,0.08284
3921.3,0.08357
3915.51,0.08348
3909.72,0.08381
3903.94,0.08364
3898.15,0.08331
3892.36,0.08414
3886.58,0.08518
3880.79,0.08452
3875,0.08508
3869.22,0.08485
3863.43,0.08610
3857.65,0.08697
3851.86,0.08660
3846.07,0.08740
3840.29,0.08706
3834.5,0.08764
3828.71,0.08818
3822.93,0.08745
3817.14,0.08718
3811.35,0.08768
3805.57,0.08798
3799.78,0.08783
3793.99,0.08913
3788.21,0.08987
3782.42,0.08960
3776.63,0.08988
3770.85,0.09055
3765.06,0.08956
3759.28,0.08954
3753.49,0.09081
3747.7,0.09050
3741.92,0.08954
3736.13,0.08971
3730.34,0.08906
3724.56,0.08924
3718.77,0.08911
3712.98,0.08851
3707.2,0.08773
3701.41,0.08731
3695.62,0.08685
3689.84,0.08673
3684.05,0.08581
3678.26,0.08677
3672.48,0.08581
3666.69,0.08521
3660.91,0.08507
3655.12,0.08436
3649.33,0.08431
3643.55,0.08327
3637.76,0.08400
3631.97,0.08462
3626.19,0.08437
3620.4,0.08404
3614.61,0.08284
3608.83,0.08110
3603.04,0.08125
3597.25,0.08492
3591.47,0.08848
3585.68,0.08955
3579.89,0.09102
3574.11,0.09125
3568.32,0.09086
3562.54,0.09165
3556.75,0.09170
3550.96,0.09248
3545.18,0.09297
3539.39,0.09168
3533.6,0.09220
3527.82,0.09183
3522.03,0.09177
3516.24,0.09210
3510.46,0.09185
3504.67,0.09121
3498.88,0.09141
3493.1,0.09160
3487.31,0.09046
3481.52,0.08864
3475.74,0.08681
3469.95,0.08347
3464.17,0.08006
3458.38,0.07791
3452.59,0.07867
3446.81,0.08046
3441.02,0.08305
3435.23,0.08556
3429.45,0.08738
3423.66,0.08863
3417.87,0.08850
3412.09,0.08954
3406.3,0.08858
3400.51,0.08986
3394.73,0.08946
3388.94,0.08965
3383.15,0.08928
3377.37,0.08873
3371.58,0.08853
3365.8,0.08896
3360.01,0.08892
3354.22,0.08985
3348.44,0.08980
3342.65,0.08950
3336.86,0.09023
3331.08,0.08978
3325.29,0.08966
3319.5,0.09033
3313.72,0.09029
3307.93,0.08914
3302.14,0.08864
3296.36,0.08897
3290.57,0.08876
3284.78,0.08886
3279,0.08842
3273.21,0.08853
3267.43,0.08821
3261.64,0.08842
3255.85,0.08782
3250.07,0.08840
3244.28,0.08795
3238.49,0.08748
3232.71,0.08746
3226.92,0.08693
3221.13,0.08756
3215.35,0.08717
3209.56,0.08594
3203.77,0.08687
3197.99,0.08629
3192.2,0.08581
3186.41,0.08508
3180.63,0.08568
3174.84,0.08498
3169.06,0.08474
3163.27,0.08423
3157.48,0.08392
3151.7,0.08353
3145.91,0.08270
3140.12,0.08274
3134.34,0.08124
3128.55,0.08051
3122.76,0.07942
3116.98,0.07740
3111.19,0.07617
3105.4,0.07486
3099.62,0.07235
3093.83,0.06954
3088.05,0.06797
3082.26,0.06611
3076.47,0.06482
3070.69,0.06420
3064.9,0.06246
3059.11,0.06131
3053.33,0.06036
3047.54,0.05911
3041.75,0.05793
3035.97,0.05744
3030.18,0.05605
3024.39,0.05591
3018.61,0.05538
3012.82,0.05480
3007.03,0.05452
3001.25,0.05417
2995.46,0.05390
2989.68,0.05251
2983.89,0.05151
2978.1,0.05043
2972.32,0.04912
2966.53,0.04890
2960.74,0.04741
2954.96,0.04695
2949.17,0.04461
2943.38,0.04184
2937.6,0.03960
2931.81,0.04010
2926.02,0.04851
2920.24,0.07192
2914.45,0.08699
2908.66,0.07799
2902.88,0.07198
2897.09,0.06973
2891.31,0.06819
2885.52,0.06620
2879.73,0.06443
2873.95,0.06230
2868.16,0.05959
2862.37,0.05506
2856.59,0.05378
2850.8,0.07031
2845.01,0.08348
2839.23,0.07674
2833.44,0.07145
2827.65,0.06867
2821.87,0.06751
2816.08,0.06715
2810.29,0.06786
2804.51,0.06737
2798.72,0.06791
2792.94,0.06758
2787.15,0.06742
2781.36,0.06806
2775.58,0.06791
2769.79,0.06805
2764,0.06780
2758.22,0.06756
2752.43,0.06686
2746.64,0.06711
2740.86,0.06657
2735.07,0.06656
2729.28,0.06626
2723.5,0.06637
2717.71,0.06666
2711.92,0.06705
2706.14,0.06681
2700.35,0.06783
2694.57,0.06728
2688.78,0.06657
2682.99,0.06654
2677.21,0.06635
2671.42,0.06627
2665.63,0.06693
2659.85,0.06746
2654.06,0.06776
2648.27,0.06830
2642.49,0.06869
2636.7,0.06893
2630.91,0.06940
2625.13,0.07058
2619.34,0.07135
2613.55,0.07266
2607.77,0.07374
2601.98,0.07415
2596.2,0.07531
2590.41,0.07651
2584.62,0.07732
2578.84,0.07852
2573.05,0.07965
2567.26,0.08060
2561.48,0.08056
2555.69,0.08133
2549.9,0.08186
2544.12,0.08236
2538.33,0.08244
2532.54,0.08234
2526.76,0.08223
2520.97,0.08328
2515.18,0.08476
2509.4,0.08584
2503.61,0.08574
2497.83,0.08581
2492.04,0.08581
2486.25,0.08573
2480.47,0.08553
2474.68,0.08577
2468.89,0.08709
2463.11,0.08846
2457.32,0.08933
2451.53,0.09126
2445.75,0.09145
2439.96,0.09217
2434.17,0.09304
2428.39,0.09222
2422.6,0.09110
2416.81,0.09125
2411.03,0.09157
2405.24,0.09141
2399.46,0.09110
2393.67,0.09178
2387.88,0.09162
2382.1,0.09020
2376.31,0.09055
2370.52,0.09049
2364.74,0.08917
2358.95,0.08687
2353.16,0.08561
2347.38,0.08464
2341.59,0.08195
2335.8,0.08223
2330.02,0.08207
2324.23,0.08119
2318.44,0.08194
2312.66,0.08244
2306.87,0.08280
2301.09,0.08267
2295.3,0.08399
2289.51,0.08449
2283.73,0.08460
2277.94,0.08481
2272.15,0.08614
2266.37,0.08717
2260.58,0.08683
2254.79,0.08765
2249.01,0.08913
2243.22,0.08908
2237.43,0.09059
2231.65,0.09271
2225.86,0.09310
2220.07,0.09268
2214.29,0.09398
2208.5,0.09465
2202.72,0.09353
2196.93,0.09345
2191.14,0.09386
2185.36,0.09276
2179.57,0.09158
2173.78,0.09209
2168,0.09227
2162.21,0.09060
2156.42,0.09073
2150.64,0.09143
2144.85,0.09139
2139.06,0.09141
2133.28,0.09316
2127.49,0.09439
2121.7,0.09307
2115.92,0.09257
2110.13,0.09387
2104.35,0.09296
2098.56,0.09149
2092.77,0.09176
2086.99,0.09220
2081.2,0.09058
2075.41,0.08953
2069.63,0.09031
2063.84,0.08905
2058.05,0.08766
2052.27,0.08710
2046.48,0.08746
2040.69,0.08567
2034.91,0.08475
2029.12,0.08442
2023.33,0.08341
2017.55,0.08242
2011.76,0.08573
2005.98,0.08894
2000.19,0.08976
1994.4,0.09022
1988.62,0.09186
1982.83,0.09280
1977.04,0.09181
1971.26,0.09248
1965.47,0.09342
1959.68,0.09217
1953.9,0.09163
1948.11,0.09301
1942.32,0.09302
1936.54,0.09150
1930.75,0.09180
1924.96,0.09196
1919.18,0.09030
1913.39,0.08945
1907.61,0.08902
1901.82,0.08732
1896.03,0.08489
1890.25,0.08595
1884.46,0.08686
1878.67,0.08470
1872.89,0.08389
1867.1,0.08412
1861.31,0.08292
1855.53,0.08212
1849.74,0.08349
1843.95,0.08301
1838.17,0.08119
1832.38,0.08051
1826.6,0.07954
1820.81,0.07664
1815.02,0.07602
1809.24,0.07575
1803.45,0.07346
1797.66,0.07210
1791.88,0.07104
1786.09,0.06886
1780.3,0.06767
1774.52,0.06680
1768.73,0.06376
1762.94,0.06300
1757.16,0.06389
1751.37,0.06770
1745.58,0.07296
1739.8,0.06923
1734.01,0.05880
1728.23,0.05468
1722.44,0.05548
1716.65,0.05707
1710.87,0.05884
1705.08,0.05927
1699.29,0.05927
1693.51,0.06027
1687.72,0.06311
1681.93,0.06797
1676.15,0.06986
1670.36,0.07029
1664.57,0.07102
1658.79,0.07028
1653,0.06910
1647.21,0.06807
1641.43,0.07187
1635.64,0.07481
1629.86,0.07648
1624.07,0.07766
1618.28,0.07732
1612.5,0.07844
1606.71,0.07821
1600.92,0.07776
1595.14,0.07767
1589.35,0.07774
1583.56,0.07721
1577.78,0.07668
1571.99,0.07628
1566.2,0.07540
1560.42,0.07622
1554.63,0.07545
1548.84,0.07555
1543.06,0.07560
1537.27,0.07507
1531.49,0.07499
1525.7,0.07320
1519.91,0.07241
1514.13,0.07172
1508.34,0.07034
1502.55,0.06871
1496.77,0.06600
1490.98,0.06408
1485.19,0.05967
1479.41,0.05509
1473.62,0.05287
1467.83,0.05742
1462.05,0.06183
1456.26,0.06280
1450.47,0.06248
1444.69,0.06115
1438.9,0.06067
1433.12,0.05983
1427.33,0.05961
1421.54,0.05949
1415.76,0.05998
1409.97,0.06113
1404.18,0.06069
1398.4,0.05865
1392.61,0.05633
1386.82,0.05415
1381.04,0.05341
1375.25,0.05458
1369.46,0.05631
1363.68,0.05770
1357.89,0.05773
1352.1,0.05728
1346.32,0.05800
1340.53,0.05980
1334.75,0.06139
1328.96,0.06251
1323.17,0.06189
1317.39,0.06143
1311.6,0.06146
1305.81,0.06097
1300.03,0.06155
1294.24,0.06271
1288.45,0.06363
1282.67,0.06462
1276.88,0.06568
1271.09,0.06663
1265.31,0.06848
1259.52,0.06925
1253.73,0.06784
1247.95,0.06242
1242.16,0.05337
1236.38,0.04731
1230.59,0.04819
1224.8,0.05188
1219.02,0.05401
1213.23,0.05544
1207.44,0.05726
1201.66,0.05780
1195.87,0.05952
1190.08,0.05907
1184.3,0.05980
1178.51,0.06030
1172.72,0.05970
1166.94,0.06100
1161.15,0.05992
1155.36,0.05907
1149.58,0.05879
1143.79,0.05869
1138.01,0.05843
1132.22,0.05907
1126.43,0.05973
1120.65,0.06011
1114.86,0.06040
1109.07,0.06136
1103.29,0.06159
1097.5,0.06128
1091.71,0.06250
1085.93,0.06222
1080.14,0.06197
1074.35,0.06291
1068.57,0.06367
1062.78,0.06301
1056.99,0.06358
1051.21,0.06417
1045.42,0.06359
1039.64,0.06369
1033.85,0.06444
1028.06,0.06449
1022.28,0.06339
1016.49,0.06260
1010.7,0.06186
1004.92,0.06093
999.13,0.06277
993.344,0.06246
987.557,0.06199
981.771,0.06285
975.984,0.06235
970.198,0.06042
964.411,0.05989
958.625,0.06019
952.838,0.05914
947.052,0.05891
941.265,0.06061
935.479,0.06122
929.692,0.06172
923.906,0.06569
918.12,0.07175
912.333,0.06816
906.547,0.06849
900.76,0.07374
894.974,0.07097
889.187,0.06722
883.401,0.07255
877.614,0.07513
871.828,0.06898
866.041,0.07005
860.255,0.07609
854.468,0.07336
848.682,0.06997
842.895,0.07765
837.109,0.08093
831.323,0.07457
825.536,0.07725
819.75,0.08394
813.963,0.07670
808.177,0.07189
802.39,0.07894
796.604,0.07947
790.817,0.07135
785.031,0.07780
779.244,0.08378
773.458,0.07245
767.671,0.07028
761.885,0.07954
756.098,0.07218
750.312,0.06366
744.526,0.06821
738.739,0.05867
732.953,0.05353
727.166,0.05623
721.38,0.05745
715.593,0.06220
709.807,0.06776
704.02,0.07236
698.234,0.07184
692.447,0.09538
686.661,0.08469
680.874,0.07537
675.088,0.09810
669.301,0.09239
663.515,0.07343
657.729,0.08774
651.942,0.09117
646.156,0.06579
640.369,0.06690
634.583,0.08429
628.796,0.07273
623.01,0.06187
617.223,0.07514
611.437,0.06932
605.65,0.06254
599.864,0.05913