File: 01_Data/PEVA/FTIR/IS/PEVA_0.18_IS_Trans_S_240819_R6.dpt
7496.91,0.94349
7491.12,0.94399
7485.33,0.93552
7479.55,0.94784
7473.76,0.93916
7467.98,0.93617
7462.19,0.92044
7456.4,0.91456
7450.62,0.94544
7444.83,0.92875
7439.04,0.93381
7433.26,0.93499
7427.47,0.93760
7421.69,0.93408
7415.9,0.93920
7410.11,0.93753
7404.33,0.92751
7398.54,0.93035
7392.76,0.91710
7386.97,0.93393
7381.18,0.92967
7375.4,0.92960
7369.61,0.92346
7363.83,0.91279
7358.04,0.92960
7352.25,0.93543
7346.47,0.92923
7340.68,0.91904
7334.89,0.94186
7329.11,0.92380
7323.32,0.93896
7317.54,0.93754
7311.75,0.92731
7305.96,0.93646
7300.18,0.91481
7294.39,0.92127
7288.61,0.93584
7282.82,0.94546
7277.03,0.92950
7271.25,0.93117
7265.46,0.93167
7259.67,0.92501
7253.89,0.92078
7248.1,0.92616
7242.32,0.91759
7236.53,0.91721
7230.74,0.92368
7224.96,0.92177
7219.17,0.90057
7213.39,0.91306
7207.6,0.91449
7201.81,0.91175
7196.03,0.91148
7190.24,0.90734
7184.45,0.91368
7178.67,0.91158
7172.88,0.90323
7167.1,0.91901
7161.31,0.91038
7155.52,0.93049
7149.74,0.92123
7143.95,0.92360
7138.17,0.92343
7132.38,0.92652
7126.59,0.92485
7120.81,0.92415
7115.02,0.92252
7109.23,0.89865
7103.45,0.91190
7097.66,0.92171
7091.88,0.91695
7086.09,0.91440
7080.3,0.91735
7074.52,0.91235
7068.73,0.90534
7062.95,0.92586
7057.16,0.91435
7051.37,0.91887
7045.59,0.91974
7039.8,0.92518
7034.02,0.92443
7028.23,0.92703
7022.44,0.91725
7016.66,0.91705
7010.87,0.92111
7005.08,0.91002
6999.3,0.91786
6993.51,0.92079
6987.73,0.91797
6981.94,0.91633
6976.15,0.92064
6970.37,0.92799
6964.58,0.92586
6958.8,0.91540
6953.01,0.91668
6947.22,0.92174
6941.44,0.92228
6935.65,0.92310
6929.86,0.91455
6924.08,0.91986
6918.29,0.92403
6912.51,0.91787
6906.72,0.92247
6900.93,0.92271
6895.15,0.92502
6889.36,0.92061
6883.58,0.92567
6877.79,0.93331
6872,0.92121
6866.22,0.92406
6860.43,0.92296
6854.64,0.92725
6848.86,0.93854
6843.07,0.93615
6837.29,0.92794
6831.5,0.92469
6825.71,0.92592
6819.93,0.92598
6814.14,0.92435
6808.36,0.93238
6802.57,0.93475
6796.78,0.92888
6791,0.92736
6785.21,0.93022
6779.43,0.93131
6773.64,0.92988
6767.85,0.92848
6762.07,0.93176
6756.28,0.93022
6750.49,0.93915
6744.71,0.93964
6738.92,0.92858
6733.14,0.93052
6727.35,0.92863
6721.56,0.93589
6715.78,0.93486
6709.99,0.93719
6704.21,0.92713
6698.42,0.93233
6692.63,0.93616
6686.85,0.93767
6681.06,0.93817
6675.27,0.93669
6669.49,0.93359
6663.7,0.93087
6657.92,0.93009
6652.13,0.92784
6646.34,0.93906
6640.56,0.93918
6634.77,0.93798
6628.99,0.94716
6623.2,0.93522
6617.41,0.93577
6611.63,0.93431
6605.84,0.93505
6600.05,0.93489
6594.27,0.93109
6588.48,0.92872
6582.7,0.93327
6576.91,0.93446
6571.12,0.93769
6565.34,0.93005
6559.55,0.93992
6553.77,0.93910
6547.98,0.92940
6542.19,0.93338
6536.41,0.93280
6530.62,0.93344
6524.84,0.93367
6519.05,0.93897
6513.26,0.93387
6507.48,0.93180
6501.69,0.93010
6495.9,0.93411
6490.12,0.92922
6484.33,0.94065
6478.55,0.93812
6472.76,0.93518
6466.97,0.93275
6461.19,0.93057
6455.4,0.93239
6449.62,0.93309
6443.83,0.93995
6438.04,0.94619
6432.26,0.93606
6426.47,0.93347
6420.68,0.93216
6414.9,0.93140
6409.11,0.93214
6403.33,0.93257
6397.54,0.93419
6391.75,0.94168
6385.97,0.94254
6380.18,0.93602
6374.4,0.93640
6368.61,0.93986
6362.82,0.94058
6357.04,0.93608
6351.25,0.93616
6345.46,0.93871
6339.68,0.93738
6333.89,0.93696
6328.11,0.93301
6322.32,0.93839
6316.53,0.93575
6310.75,0.93616
6304.96,0.93996
6299.18,0.93575
6293.39,0.93835
6287.6,0.94002
6281.82,0.93528
6276.03,0.93657
6270.24,0.93804
6264.46,0.93422
6258.67,0.93309
6252.89,0.93361
6247.1,0.93553
6241.31,0.93455
6235.53,0.93715
6229.74,0.93642
6223.96,0.93642
6218.17,0.93009
6212.38,0.93134
6206.6,0.93353
6200.81,0.93389
6195.03,0.93201
6189.24,0.93718
6183.45,0.93661
6177.67,0.93139
6171.88,0.92958
6166.09,0.93083
6160.31,0.93315
6154.52,0.93278
6148.74,0.92911
6142.95,0.92891
6137.16,0.93424
6131.38,0.92935
6125.59,0.93133
6119.81,0.93442
6114.02,0.93447
6108.23,0.93220
6102.45,0.93559
6096.66,0.93102
6090.87,0.93220
6085.09,0.92889
6079.3,0.93250
6073.52,0.93428
6067.73,0.92841
6061.94,0.93020
6056.16,0.92877
6050.37,0.92787
6044.59,0.92741
6038.8,0.92594
6033.01,0.92618
6027.23,0.92490
6021.44,0.92258
6015.65,0.92189
6009.87,0.92064
6004.08,0.92437
5998.3,0.91909
5992.51,0.91953
5986.72,0.92186
5980.94,0.91876
5975.15,0.92143
5969.37,0.91843
5963.58,0.91437
5957.79,0.91656
5952.01,0.91604
5946.22,0.91324
5940.44,0.91011
5934.65,0.90981
5928.86,0.90939
5923.08,0.91534
5917.29,0.91098
5911.5,0.91082
5905.72,0.90852
5899.93,0.90629
5894.15,0.89633
5888.36,0.89953
5882.57,0.89692
5876.79,0.89014
5871,0.88102
5865.22,0.87748
5859.43,0.86420
5853.64,0.85661
5847.86,0.85087
5842.07,0.84084
5836.28,0.82850
5830.5,0.82638
5824.71,0.81524
5818.93,0.80592
5813.14,0.79736
5807.35,0.78588
5801.57,0.77710
5795.78,0.76632
5790,0.75165
5784.21,0.73231
5778.42,0.71532
5772.64,0.72007
5766.85,0.74722
5761.06,0.77895
5755.28,0.80578
5749.49,0.82642
5743.71,0.83786
5737.92,0.84706
5732.13,0.84665
5726.35,0.85414
5720.56,0.85804
5714.78,0.85865
5708.99,0.85294
5703.2,0.84948
5697.42,0.84352
5691.63,0.83804
5685.84,0.83438
5680.06,0.82859
5674.27,0.82063
5668.49,0.81441
5662.7,0.81311
5656.91,0.82225
5651.13,0.83796
5645.34,0.84835
5639.56,0.85355
5633.77,0.85976
5627.98,0.86331
5622.2,0.86514
5616.41,0.86977
5610.63,0.87083
5604.84,0.87320
5599.05,0.87707
5593.27,0.87792
5587.48,0.87825
5581.69,0.87682
5575.91,0.87222
5570.12,0.87288
5564.34,0.87248
5558.55,0.87461
5552.76,0.87180
5546.98,0.87125
5541.19,0.87257
5535.41,0.87112
5529.62,0.87240
5523.83,0.87214
5518.05,0.87295
5512.26,0.87458
5506.47,0.87016
5500.69,0.87172
5494.9,0.87003
5489.12,0.87120
5483.33,0.87787
5477.54,0.87427
5471.76,0.87709
5465.97,0.87468
5460.19,0.87492
5454.4,0.88108
5448.61,0.87395
5442.83,0.87297
5437.04,0.87757
5431.25,0.87763
5425.47,0.88158
5419.68,0.88679
5413.9,0.87837
5408.11,0.88602
5402.32,0.89058
5396.54,0.88442
5390.75,0.88912
5384.97,0.88867
5379.18,0.89133
5373.39,0.88898
5367.61,0.89492
5361.82,0.89626
5356.04,0.89131
5350.25,0.89203
5344.46,0.88689
5338.68,0.88792
5332.89,0.89650
5327.1,0.89417
5321.32,0.90187
5315.53,0.89834
5309.75,0.89955
5303.96,0.89890
5298.17,0.90005
5292.39,0.89892
5286.6,0.89732
5280.82,0.89862
5275.03,0.90047
5269.24,0.89872
5263.46,0.89298
5257.67,0.90021
5251.88,0.89871
5246.1,0.89398
5240.31,0.90152
5234.53,0.89951
5228.74,0.89751
5222.95,0.89898
5217.17,0.90074
5211.38,0.90039
5205.6,0.89420
5199.81,0.90340
5194.02,0.90087
5188.24,0.89906
5182.45,0.90035
5176.66,0.90244
5170.88,0.90139
5165.09,0.90229
5159.31,0.90018
5153.52,0.90066
5147.73,0.90287
5141.95,0.90516
5136.16,0.90420
5130.38,0.90291
5124.59,0.90579
5118.8,0.90569
5113.02,0.90460
5107.23,0.90384
5101.45,0.90369
5095.66,0.90411
5089.87,0.90467
5084.09,0.90593
5078.3,0.90622
5072.51,0.90544
5066.73,0.90551
5060.94,0.90652
5055.16,0.90761
5049.37,0.90824
5043.58,0.90858
5037.8,0.90890
5032.01,0.90755
5026.23,0.90628
5020.44,0.90617
5014.65,0.90657
5008.87,0.90639
5003.08,0.90560
4997.29,0.90595
4991.51,0.90587
4985.72,0.90461
4979.94,0.90422
4974.15,0.90629
4968.36,0.90327
4962.58,0.90318
4956.79,0.90272
4951.01,0.90701
4945.22,0.90713
4939.43,0.90848
4933.65,0.90844
4927.86,0.90707
4922.07,0.90809
4916.29,0.90913
4910.5,0.90817
4904.72,0.90761
4898.93,0.90769
4893.14,0.90737
4887.36,0.90735
4881.57,0.90718
4875.79,0.90863
4870,0.90547
4864.21,0.90671
4858.43,0.90948
4852.64,0.90954
4846.85,0.90882
4841.07,0.90994
4835.28,0.91023
4829.5,0.91101
4823.71,0.91156
4817.92,0.91256
4812.14,0.91145
4806.35,0.91201
4800.57,0.91182
4794.78,0.91093
4788.99,0.91323
4783.21,0.91195
4777.42,0.91173
4771.64,0.91082
4765.85,0.91090
4760.06,0.90964
4754.28,0.90964
4748.49,0.91069
4742.7,0.91199
4736.92,0.91280
4731.13,0.91360
4725.35,0.91204
4719.56,0.91071
4713.77,0.90965
4707.99,0.91028
4702.2,0.90927
4696.42,0.90736
4690.63,0.90746
4684.84,0.90367
4679.06,0.90142
4673.27,0.90059
4667.48,0.90371
4661.7,0.90573
4655.91,0.90657
4650.13,0.90938
4644.34,0.91073
4638.55,0.91084
4632.77,0.91089
4626.98,0.91256
4621.2,0.91351
4615.41,0.91192
4609.62,0.91182
4603.84,0.91349
4598.05,0.91052
4592.26,0.91145
4586.48,0.91269
4580.69,0.91195
4574.91,0.91124
4569.12,0.91115
4563.33,0.91080
4557.55,0.90990
4551.76,0.90891
4545.98,0.90858
4540.19,0.90631
4534.4,0.90503
4528.62,0.90265
4522.83,0.90255
4517.05,0.90188
4511.26,0.89895
4505.47,0.89619
4499.69,0.89401
4493.9,0.88976
4488.11,0.88699
4482.33,0.88383
4476.54,0.87943
4470.76,0.87572
4464.97,0.87110
4459.18,0.86476
4453.4,0.85764
4447.61,0.84820
4441.83,0.83837
4436.04,0.82872
4430.25,0.82049
4424.47,0.81505
4418.68,0.80762
4412.89,0.79790
4407.11,0.78591
4401.32,0.77066
4395.54,0.75527
4389.75,0.73582
4383.96,0.71760
4378.18,0.69519
4372.39,0.67255
4366.61,0.64685
4360.82,0.61717
4355.03,0.57287
4349.25,0.51312
4343.46,0.44784
4337.67,0.39630
4331.89,0.34961
4326.1,0.28119
4320.32,0.28527
4314.53,0.44401
4308.74,0.55304
4302.96,0.59783
4297.17,0.61108
4291.39,0.60703
4285.6,0.59335
4279.81,0.57780
4274.03,0.55425
4268.24,0.51582
4262.46,0.45688
4256.67,0.38749
4250.88,0.36406
4245.1,0.45412
4239.31,0.52191
4233.52,0.53513
4227.74,0.51897
4221.95,0.50169
4216.17,0.50261
4210.38,0.50513
4204.59,0.49468
4198.81,0.47005
4193.02,0.45323
4187.24,0.45245
4181.45,0.45561
4175.66,0.45956
4169.88,0.46385
4164.09,0.46820
4158.3,0.47161
4152.52,0.47557
4146.73,0.47967
4140.95,0.48452
4135.16,0.49071
4129.37,0.49555
4123.59,0.49965
4117.8,0.50224
4112.02,0.50378
4106.23,0.50272
4100.44,0.50361
4094.66,0.51125
4088.87,0.53275
4083.08,0.55812
4077.3,0.57471
4071.51,0.58610
4065.73,0.59487
4059.94,0.60338
4054.15,0.61029
4048.37,0.61716
4042.58,0.62326
4036.8,0.63028
4031.01,0.63413
4025.22,0.63567
4019.44,0.64554
4013.65,0.67038
4007.86,0.68482
4002.08,0.69197
3996.29,0.69237
3990.51,0.69068
3984.72,0.68931
3978.93,0.68565
3973.15,0.68675
3967.36,0.69461
3961.58,0.69861
3955.79,0.70322
3950,0.70059
3944.22,0.70142
3938.43,0.70418
3932.65,0.69460
3926.86,0.69253
3921.07,0.69090
3915.29,0.69146
3909.5,0.69749
3903.71,0.68425
3897.93,0.69394
3892.14,0.69433
3886.36,0.69635
3880.57,0.69497
3874.78,0.69887
3869,0.69612
3863.21,0.70725
3857.43,0.71344
3851.64,0.70602
3845.85,0.72397
3840.07,0.70657
3834.28,0.71545
3828.49,0.72262
3822.71,0.71341
3816.92,0.71434
3811.14,0.73402
3805.35,0.72899
3799.56,0.73116
3793.78,0.75353
3787.99,0.75934
3782.21,0.75811
3776.42,0.76443
3770.63,0.76071
3764.85,0.76321
3759.06,0.75904
3753.27,0.75170
3747.49,0.74334
3741.7,0.75447
3735.92,0.73959
3730.13,0.75651
3724.34,0.75268
3718.56,0.76487
3712.77,0.75187
3706.99,0.75562
3701.2,0.75271
3695.41,0.75022
3689.63,0.72442
3683.84,0.74385
3678.06,0.72853
3672.27,0.72158
3666.48,0.73337
3660.7,0.73188
3654.91,0.71298
3649.12,0.67911
3643.34,0.69993
3637.55,0.71294
3631.77,0.71400
3625.98,0.71674
3620.19,0.70790
3614.41,0.69254
3608.62,0.66863
3602.84,0.66634
3597.05,0.70718
3591.26,0.75859
3585.48,0.77725
3579.69,0.79638
3573.9,0.80296
3568.12,0.79290
3562.33,0.80519
3556.55,0.81598
3550.76,0.81588
3544.97,0.81384
3539.19,0.82379
3533.4,0.82600
3527.62,0.81929
3521.83,0.82261
3516.04,0.82784
3510.26,0.82301
3504.47,0.81962
3498.68,0.82194
3492.9,0.81974
3487.11,0.81135
3481.33,0.79551
3475.54,0.77200
3469.75,0.72842
3463.97,0.68087
3458.18,0.65873
3452.4,0.66843
3446.61,0.69629
3440.82,0.73650
3435.04,0.76895
3429.25,0.78689
3423.47,0.79687
3417.68,0.80345
3411.89,0.80927
3406.11,0.81099
3400.32,0.81057
3394.53,0.80841
3388.75,0.80666
3382.96,0.80179
3377.18,0.79962
3371.39,0.79839
3365.6,0.79949
3359.82,0.80450
3354.03,0.80955
3348.25,0.81422
3342.46,0.81671
3336.67,0.81748
3330.89,0.82052
3325.1,0.81852
3319.31,0.82181
3313.53,0.82295
3307.74,0.82393
3301.96,0.82283
3296.17,0.82214
3290.38,0.82274
3284.6,0.82195
3278.81,0.81905
3273.03,0.81879
3267.24,0.81869
3261.45,0.81731
3255.67,0.81486
3249.88,0.81330
3244.09,0.80968
3238.31,0.80843
3232.52,0.80571
3226.74,0.80106
3220.95,0.79779
3215.16,0.79190
3209.38,0.78634
3203.59,0.78131
3197.81,0.77417
3192.02,0.77084
3186.23,0.76361
3180.45,0.75856
3174.66,0.75386
3168.87,0.74755
3163.09,0.74297
3157.3,0.73836
3151.52,0.73235
3145.73,0.72511
3139.94,0.71885
3134.16,0.70935
3128.37,0.69722
3122.59,0.68278
3116.8,0.66669
3111.01,0.64768
3105.23,0.62330
3099.44,0.58869
3093.66,0.54659
3087.87,0.50938
3082.08,0.48345
3076.3,0.46228
3070.51,0.44241
3064.72,0.41836
3058.94,0.39350
3053.15,0.36654
3047.37,0.33578
3041.58,0.30181
3035.79,0.26656
3030.01,0.23347
3024.22,0.20413
3018.44,0.17984
3012.65,0.16144
3006.86,0.14308
3001.08,0.11964
2995.29,0.09098
2989.5,0.06074
2983.72,0.03431
2977.93,0.01378
2972.15,0.00310
2966.36,0.00031
2960.57,0.00063
2954.79,0.00055
2949,0.00063
2943.22,0.00079
2937.43,0.00070
2931.64,0.00073
2925.86,0.00034
2920.07,0.00081
2914.28,0.00074
2908.5,0.00062
2902.71,0.00045
2896.93,0.00041
2891.14,0.00076
2885.35,0.00042
2879.57,0.00073
2873.78,0.00004
2868,0.00033
2862.21,0.00095
2856.42,0.00078
2850.64,0.00049
2844.85,0.00089
2839.07,0.00039
2833.28,0.00044
2827.49,0.00239
2821.71,0.00853
2815.92,0.01987
2810.13,0.03597
2804.35,0.05632
2798.56,0.08090
2792.78,0.11033
2786.99,0.14448
2781.2,0.18076
2775.42,0.21259
2769.63,0.23693
2763.85,0.25276
2758.06,0.26540
2752.27,0.27504
2746.49,0.27889
2740.7,0.27917
2734.91,0.28430
2729.13,0.29527
2723.34,0.31033
2717.56,0.32489
2711.77,0.33722
2705.98,0.34689
2700.2,0.35096
2694.41,0.34459
2688.63,0.32946
2682.84,0.31790
2677.05,0.31190
2671.27,0.30986
2665.48,0.31480
2659.69,0.32369
2653.91,0.33312
2648.12,0.34188
2642.34,0.34501
2636.55,0.34670
2630.76,0.36157
2624.98,0.38666
2619.19,0.41153
2613.41,0.43557
2607.62,0.45817
2601.83,0.47988
2596.05,0.49817
2590.26,0.52051
2584.47,0.54538
2578.69,0.56821
2572.9,0.58844
2567.12,0.60766
2561.33,0.62246
2555.54,0.63139
2549.76,0.63843
2543.97,0.65538
2538.19,0.66420
2532.4,0.65847
2526.61,0.66188
2520.83,0.67878
2515.04,0.69281
2509.26,0.70242
2503.47,0.70727
2497.68,0.70510
2491.9,0.70259
2486.11,0.70066
2480.32,0.69482
2474.54,0.69209
2468.75,0.70903
2462.97,0.72567
2457.18,0.73792
2451.39,0.74934
2445.61,0.75867
2439.82,0.76025
2434.04,0.75969
2428.25,0.75846
2422.46,0.74960
2416.68,0.73917
2410.89,0.74223
2405.1,0.74614
2399.32,0.74566
2393.53,0.74650
2387.75,0.74756
2381.96,0.72820
2376.17,0.67922
2370.39,0.63245
2364.6,0.59390
2358.82,0.57459
2353.03,0.59146
2347.24,0.60253
2341.46,0.56522
2335.67,0.56489
2329.88,0.56831
2324.1,0.58386
2318.31,0.61009
2312.53,0.63758
2306.74,0.66375
2300.95,0.68544
2295.17,0.70205
2289.38,0.71846
2283.6,0.72885
2277.81,0.72966
2272.02,0.73595
2266.24,0.74639
2260.45,0.74946
2254.67,0.75201
2248.88,0.75866
2243.09,0.76667
2237.31,0.77985
2231.52,0.79312
2225.73,0.79815
2219.95,0.79598
2214.16,0.79631
2208.38,0.79612
2202.59,0.79060
2196.8,0.78075
2191.02,0.77316
2185.23,0.76600
2179.45,0.75796
2173.66,0.75228
2167.87,0.74964
2162.09,0.74492
2156.3,0.74032
2150.51,0.74310
2144.73,0.75370
2138.94,0.76627
2133.16,0.77714
2127.37,0.78863
2121.58,0.79408
2115.8,0.79438
2110.01,0.79793
2104.23,0.80049
2098.44,0.79733
2092.65,0.79492
2086.87,0.79728
2081.08,0.79478
2075.29,0.78896
2069.51,0.78648
2063.72,0.78153
2057.94,0.77348
2052.15,0.76406
2046.36,0.75609
2040.58,0.74352
2034.79,0.73021
2029.01,0.71802
2023.22,0.70252
2017.43,0.69528
2011.65,0.73228
2005.86,0.76636
2000.08,0.78131
1994.29,0.78759
1988.5,0.79779
1982.72,0.80550
1976.93,0.80169
1971.14,0.79892
1965.36,0.79517
1959.57,0.79161
1953.79,0.78628
1948,0.78624
1942.21,0.78084
1936.43,0.78211
1930.64,0.77946
1924.86,0.77450
1919.07,0.76296
1913.28,0.75536
1907.5,0.74259
1901.71,0.72911
1895.92,0.71056
1890.14,0.71399
1884.35,0.72590
1878.57,0.71929
1872.78,0.70625
1866.99,0.69127
1861.21,0.69931
1855.42,0.70072
1849.64,0.70211
1843.85,0.68976
1838.06,0.68384
1832.28,0.66532
1826.49,0.64237
1820.7,0.62262
1814.92,0.60156
1809.13,0.57924
1803.35,0.55390
1797.56,0.51744
1791.77,0.47644
1785.99,0.44070
1780.2,0.38987
1774.42,0.33222
1768.63,0.23331
1762.84,0.12952
1757.06,0.05109
1751.27,0.00798
1745.48,0.00051
1739.7,0.00091
1733.91,0.00019
1728.13,0.00056
1722.34,0.01351
1716.55,0.07627
1710.77,0.15579
1704.98,0.20185
1699.2,0.20827
1693.41,0.26936
1687.62,0.35184
1681.84,0.44361
1676.05,0.48805
1670.27,0.50967
1664.48,0.53285
1658.69,0.53321
1652.91,0.49999
1647.12,0.48165
1641.33,0.55999
1635.55,0.60040
1629.76,0.63997
1623.98,0.64549
1618.19,0.64962
1612.4,0.66447
1606.62,0.66682
1600.83,0.66243
1595.05,0.65840
1589.26,0.65893
1583.47,0.65124
1577.69,0.63222
1571.9,0.62460
1566.11,0.60860
1560.33,0.58671
1554.54,0.58710
1548.76,0.58826
1542.97,0.55593
1537.18,0.55590
1531.4,0.54889
1525.61,0.52468
1519.83,0.50235
1514.04,0.49365
1508.25,0.45799
1502.47,0.43813
1496.68,0.39286
1490.89,0.34094
1485.11,0.24847
1479.32,0.11145
1473.54,0.00563
1467.75,0.00034
1461.96,0.00040
1456.18,0.00083
1450.39,0.00489
1444.61,0.00973
1438.82,0.01186
1433.03,0.02372
1427.25,0.06694
1421.46,0.13789
1415.68,0.21922
1409.89,0.26916
1404.1,0.28739
1398.32,0.26243
1392.53,0.18546
1386.74,0.07835
1380.96,0.01128
1375.17,0.00051
1369.39,0.00052
1363.6,0.00257
1357.81,0.01352
1352.03,0.03893
1346.24,0.11968
1340.46,0.22278
1334.67,0.30936
1328.88,0.32663
1323.1,0.29872
1317.31,0.24640
1311.52,0.19534
1305.74,0.16116
1299.95,0.14155
1294.17,0.12777
1288.38,0.10771
1282.59,0.07721
1276.81,0.04368
1271.02,0.01627
1265.24,0.00286
1259.45,0.00024
1253.66,0.00042
1247.88,0.00051
1242.09,0.00026
1236.3,0.00035
1230.52,0.00022
1224.73,0.00042
1218.95,0.00359
1213.16,0.01768
1207.37,0.04863
1201.59,0.09077
1195.8,0.13142
1190.02,0.16639
1184.23,0.19229
1178.44,0.20891
1172.66,0.22159
1166.87,0.22418
1161.09,0.21092
1155.3,0.18015
1149.51,0.14596
1143.73,0.13538
1137.94,0.13240
1132.15,0.12299
1126.37,0.12062
1120.58,0.13312
1114.8,0.14677
1109.01,0.15825
1103.22,0.16315
1097.44,0.15749
1091.65,0.14349
1085.87,0.12679
1080.08,0.11044
1074.29,0.09558
1068.51,0.08266
1062.72,0.07684
1056.93,0.06676
1051.15,0.04550
1045.36,0.02950
1039.58,0.02506
1033.79,0.01373
1028,0.00330
1022.22,0.00027
1016.43,0.00153
1010.65,0.02061
1004.86,0.08367
999.073,0.15820
993.287,0.20885
987.501,0.23462
981.715,0.23586
975.929,0.21648
970.142,0.18495
964.356,0.15328
958.57,0.14303
952.784,0.15393
946.998,0.17449
941.212,0.18130
935.426,0.19193
929.64,0.27977
923.853,0.38833
918.067,0.44042
912.281,0.46224
906.495,0.47771
900.709,0.48602
894.923,0.48392
889.137,0.49042
883.35,0.50213
877.564,0.50295
871.778,0.49974
865.992,0.50505
860.206,0.51993
854.42,0.53295
848.634,0.55786
842.847,0.57536
837.061,0.58523
831.275,0.60658
825.489,0.62369
819.703,0.61660
813.917,0.60212
808.131,0.59207
802.344,0.57150
796.558,0.56992
790.772,0.60671
784.986,0.62961
779.2,0.60696
773.414,0.58895
767.628,0.58583
761.842,0.56613
756.055,0.53223
750.269,0.49710
744.483,0.42913
738.697,0.30989
732.911,0.10199
727.125,0.01050
721.339,0.00190
715.552,0.05042
709.766,0.27323
703.98,0.47851
698.194,0.62326
692.408,0.70178
686.622,0.71970
680.836,0.75511
675.049,0.75521
669.263,0.68623
663.477,0.74684
657.691,0.72581
651.905,0.64344
646.119,0.57378
640.333,0.57838
634.546,0.57185
628.76,0.49324
622.974,0.55178
617.188,0.52106
611.402,0.27353
605.616,0.27183
599.83,0.52610