File: 01_Data/Nomex_Turnout_Gear_Thermal_Liner/STA/N2/10K_min/Nomex_Turnout_Gear_Thermal_Liner_STA_N2_10KData_240524_R1.csv
Temp./C,Time/min,DSC/(mW/mg),Mass loss/mg
60.0,0.0,0.843075,-0.0205238
60.5,0.0563545,0.856695,-0.020603
61,0.114227,0.874705,-0.0210687
61.5,0.169176,0.893446,-0.0212368
62,0.224073,0.912487,-0.0210877
62.5,0.280592,0.919875,-0.0209263
63,0.333992,0.940281,-0.021217
63.5,0.391213,0.952504,-0.022114
64,0.444055,0.971847,-0.0223972
64.5,0.495215,0.977348,-0.0223626
65,0.554093,0.996395,-0.0223372
65.5,0.607121,1.01005,-0.0226249
66,0.658224,1.0173,-0.0232691
66.5,0.713591,1.02387,-0.0227957
67,0.767593,1.04042,-0.0236849
67.5,0.821196,1.0586,-0.0227821
68,0.874497,1.07445,-0.0223974
68.5,0.927831,1.0855,-0.0238251
69,0.97817,1.10766,-0.0249346
69.5,1.0343,1.10548,-0.0238268
70,1.08731,1.11797,-0.0248662
70.5,1.13855,1.13223,-0.0237761
71,1.19195,1.15094,-0.0251271
71.5,1.24572,1.15758,-0.02514
72,1.29885,1.169,-0.0251428
72.5,1.35122,1.18388,-0.0264581
73,1.40227,1.1869,-0.0278767
73.5,1.45623,1.19805,-0.0277699
74,1.50711,1.21511,-0.0277704
74.5,1.55683,1.221,-0.0283947
75,1.61181,1.23405,-0.0284214
75.5,1.66354,1.24419,-0.0277735
76,1.71392,1.25164,-0.0276671
76.5,1.76503,1.26241,-0.0277671
77,1.81867,1.27704,-0.0277798
77.5,1.87001,1.28571,-0.0290499
78,1.92238,1.29151,-0.0297007
78.5,1.97388,1.29906,-0.0310616
79,2.02543,1.30188,-0.0310584
79.5,2.07594,1.30905,-0.0323697
80,2.12871,1.32206,-0.0330399
80.5,2.17938,1.32481,-0.03304
81,2.22994,1.32959,-0.03304
81.5,2.28197,1.33714,-0.0330402
82,2.33257,1.33773,-0.0341147
82.5,2.38373,1.34279,-0.0344518
83,2.43404,1.35614,-0.0356791
83.5,2.48555,1.35715,-0.0356798
84,2.53463,1.35686,-0.035905
84.5,2.58513,1.3606,-0.0378203
85,2.63569,1.35817,-0.0383123
85.5,2.68763,1.36972,-0.0369943
86,2.7368,1.37119,-0.03699
86.5,2.78816,1.37206,-0.03699
87,2.83794,1.373,-0.0370067
87.5,2.88792,1.37793,-0.0382831
88,2.93744,1.37429,-0.03798
88.5,2.98844,1.37965,-0.03798
89,3.03855,1.37801,-0.0379811
89.5,3.08835,1.37566,-0.03794
90,3.13711,1.37713,-0.0396544
90.5,3.18769,1.3771,-0.0402974
91,3.2378,1.37651,-0.04103
91.5,3.28672,1.37243,-0.0416108
92,3.33581,1.3761,-0.04161
92.5,3.38565,1.36354,-0.04161
93,3.43406,1.36744,-0.0416056
93.5,3.48145,1.36145,-0.0429219
94,3.534,1.35369,-0.0430345
94.5,3.58401,1.34643,-0.0435803
95,3.63213,1.34766,-0.04358
95.5,3.68074,1.3406,-0.0436037
96,3.72988,1.33525,-0.0448449
96.5,3.77878,1.33064,-0.0455598
97,3.82956,1.32291,-0.04556
97.5,3.87876,1.32549,-0.04556
98,3.9271,1.3164,-0.0455556
98.5,3.97594,1.31294,-0.0469206
99,4.02504,1.30532,-0.0468799
99.5,4.07364,1.30241,-0.04688
100,4.12221,1.29925,-0.04688
100.5,4.17207,1.29008,-0.04688
101,4.21638,1.28041,-0.04688
101.5,4.26819,1.27256,-0.0468867
102,4.31665,1.27685,-0.0455019
102.5,4.36634,1.26037,-0.0468709
103,4.41455,1.25493,-0.04687
103.5,4.46379,1.25483,-0.0468713
104,4.50987,1.25616,-0.0483665
104.5,4.56079,1.23974,-0.0481899
105,4.6089,1.23627,-0.04819
105.5,4.65589,1.23561,-0.04819
106,4.70528,1.22746,-0.0482201
106.5,4.75426,1.22184,-0.0484981
107,4.80179,1.21501,-0.0485301
107.5,4.85207,1.2053,-0.0485302
108,4.89865,1.21037,-0.0490496
108.5,4.94792,1.19142,-0.0495667
109,4.99501,1.19142,-0.0501696
109.5,5.04368,1.18541,-0.0501741
110,5.09235,1.1802,-0.0505009
110.5,5.14114,1.16871,-0.0504048
111,5.18957,1.16585,-0.0511551
111.5,5.23752,1.15945,-0.05116
112,5.28527,1.15932,-0.05116
112.5,5.33389,1.15217,-0.0511599
113,5.38299,1.15106,-0.0510887
113.5,5.43094,1.14516,-0.0522441
114,5.47653,1.13542,-0.0518201
114.5,5.52836,1.13527,-0.0518229
115,5.57625,1.12303,-0.0514048
115.5,5.62517,1.12737,-0.0521503
116,5.6734,1.12187,-0.05215
116.5,5.72125,1.12042,-0.05215
117,5.76982,1.11899,-0.0521527
117.5,5.81866,1.11312,-0.0534382
118,5.86679,1.11347,-0.0534591
118.5,5.9145,1.1044,-0.053135
119,5.96307,1.11024,-0.0518031
119.5,6.01205,1.09758,-0.05181
120,6.0571,1.09267,-0.05181
120.5,6.10655,1.09152,-0.05181
121,6.15592,1.09175,-0.05181
121.5,6.20505,1.08315,-0.0518098
122,6.25355,1.08075,-0.051852
122.5,6.30091,1.07932,-0.053141
123,6.34996,1.07908,-0.0534349
123.5,6.39711,1.08141,-0.05346
124,6.44671,1.08239,-0.05346
124.5,6.49416,1.07637,-0.053491
125,6.54269,1.07509,-0.0531405
125.5,6.59094,1.07006,-0.0531401
126,6.63709,1.07378,-0.0530889
126.5,6.68729,1.07141,-0.054465
127,6.73494,1.0644,-0.05446
127.5,6.78425,1.06986,-0.05446
128,6.83081,1.06758,-0.0537116
128.5,6.87965,1.07351,-0.0531395
129,6.92811,1.07034,-0.05314
129.5,6.97572,1.07026,-0.05314
130,7.02508,1.07757,-0.05314
130.5,7.07262,1.07356,-0.05314
131,7.12058,1.08127,-0.0531537
131.5,7.16625,1.07501,-0.0518206
132,7.21604,1.077,-0.0531802
132.5,7.26483,1.08309,-0.0531276
133,7.31236,1.07649,-0.0541141
133.5,7.36036,1.07733,-0.0541202
134,7.40854,1.07808,-0.0540651
134.5,7.45681,1.07853,-0.0527999
135,7.50375,1.07883,-0.0528024
135.5,7.5509,1.07986,-0.05313
136,7.60004,1.07813,-0.05313
136.5,7.64653,1.07785,-0.0538422
137,7.69602,1.08408,-0.0531437
137.5,7.74424,1.08075,-0.05314
138,7.79208,1.08176,-0.05314
138.5,7.84075,1.08872,-0.05314
139,7.88859,1.08962,-0.05314
139.5,7.93619,1.0908,-0.05314
140,7.9841,1.08748,-0.0531315
140.5,8.03116,1.08681,-0.0544629
141,8.07987,1.08496,-0.0530905
141.5,8.12808,1.08853,-0.05314
142,8.1757,1.09057,-0.05314
142.5,8.22318,1.08193,-0.05314
143,8.27161,1.09575,-0.0532694
143.5,8.3196,1.09302,-0.053569
144,8.36636,1.09002,-0.0531301
144.5,8.41462,1.09665,-0.05313
145,8.46347,1.09204,-0.05313
145.5,8.51029,1.09156,-0.0531309
146,8.55818,1.09162,-0.0541631
146.5,8.60644,1.0933,-0.0544502
147,8.65294,1.09776,-0.0544503
147.5,8.70199,1.09868,-0.0535619
148,8.74891,1.10059,-0.0534602
148.5,8.79718,1.09469,-0.0524643
149,8.84542,1.09964,-0.0529427
149.5,8.89232,1.09903,-0.0534599
150,8.9405,1.1019,-0.05346
150.5,8.98865,1.09829,-0.05346
151,9.03664,1.10598,-0.0534596
151.5,9.0841,1.10638,-0.0521807
152,9.13213,1.10998,-0.0521499
152.5,9.1797,1.10884,-0.0538076
153,9.22701,1.11035,-0.0554338
153.5,9.27513,1.11117,-0.0540319
154,9.32237,1.10575,-0.0527507
154.5,9.36974,1.11227,-0.051811
155,9.41823,1.11366,-0.0512981
155.5,9.46592,1.12036,-0.0540274
156,9.51378,1.11952,-0.05402
156.5,9.56176,1.11986,-0.0539826
157,9.6096,1.11886,-0.052702
157.5,9.65635,1.12095,-0.0526826
158,9.7051,1.12553,-0.0540088
158.5,9.75202,1.12823,-0.05401
159,9.79876,1.12987,-0.0540094
159.5,9.8472,1.12738,-0.0536472
160,9.89562,1.12792,-0.05368
160.5,9.9424,1.13505,-0.0536799
161,9.99006,1.13765,-0.0537184
161.5,10.036,1.1423,-0.0523628
162,10.0852,1.1433,-0.05306
162.5,10.1324,1.14403,-0.0533624
163,10.1808,1.14921,-0.0546501
163.5,10.2285,1.14679,-0.0546577
164,10.2764,1.14132,-0.0533495
164.5,10.3239,1.14009,-0.0533574
165,10.3704,1.14811,-0.0536817
165.5,10.4194,1.14765,-0.0536954
166,10.467,1.15085,-0.0549975
166.5,10.5144,1.14698,-0.0536757
167,10.5614,1.15106,-0.05368
167.5,10.6095,1.14395,-0.0536799
168,10.6578,1.15059,-0.0537132
168.5,10.7051,1.15804,-0.0543402
169,10.7529,1.16006,-0.05434
169.5,10.8008,1.15838,-0.05434
170,10.8475,1.16058,-0.0543432
170.5,10.896,1.16538,-0.0549903
171,10.9429,1.16536,-0.0550181
171.5,10.9909,1.16458,-0.0563084
172,11.0388,1.16466,-0.0563458
172.5,11.0856,1.16658,-0.0546422
173,11.1338,1.1704,-0.0543497
173.5,11.1822,1.17372,-0.0539885
174,11.2292,1.17018,-0.0529057
174.5,11.2765,1.17646,-0.0527001
175,11.324,1.17391,-0.0540014
175.5,11.3726,1.17713,-0.0539685
176,11.4192,1.17867,-0.0550011
176.5,11.4673,1.17781,-0.055
177,11.5147,1.1796,-0.055
177.5,11.5627,1.1821,-0.0550042
178,11.6101,1.18297,-0.0543634
178.5,11.6585,1.1801,-0.05434
179,11.7048,1.17348,-0.0543384
179.5,11.7537,1.17127,-0.0530749
180,11.801,1.18338,-0.0530299
180.5,11.8473,1.18509,-0.0530275
181,11.896,1.1874,-0.0543331
181.5,11.9414,1.18709,-0.0543485
182,11.9902,1.19224,-0.0530247
182.5,12.0386,1.18816,-0.0530377
183,12.0853,1.19315,-0.0540329
183.5,12.1329,1.19214,-0.0537001
184,12.1809,1.19187,-0.055128
184.5,12.228,1.19243,-0.0549961
185,12.2753,1.19635,-0.056426
185.5,12.3229,1.19578,-0.0588777
186,12.3708,1.20055,-0.0581743
186.5,12.4176,1.2079,-0.0561395
187,12.4656,1.2131,-0.0562097
187.5,12.5126,1.20915,-0.0566235
188,12.5605,1.21703,-0.0568846
188.5,12.6084,1.20822,-0.0568694
189,12.6544,1.21012,-0.0572201
189.5,12.7018,1.21372,-0.0572
190,12.7506,1.21345,-0.0572
190.5,12.7956,1.21375,-0.0572
191,12.8428,1.21363,-0.0572
191.5,12.8907,1.21062,-0.0572093
192,12.9407,1.21913,-0.0575326
192.5,12.9881,1.21756,-0.0575769
193,13.0347,1.21858,-0.0581905
193.5,13.0829,1.22418,-0.0588503
194,13.1295,1.22597,-0.0598291
194.5,13.178,1.23817,-0.0598296
195,13.2252,1.23053,-0.0611686
195.5,13.2732,1.23251,-0.0611499
196,13.3202,1.23412,-0.06115
196.5,13.3671,1.23897,-0.06115
197,13.4152,1.24359,-0.06115
197.5,13.4629,1.24657,-0.0611415
198,13.5099,1.24207,-0.0624689
198.5,13.5576,1.24207,-0.06247
199,13.6057,1.25215,-0.06247
199.5,13.6495,1.25287,-0.06247
200,13.6997,1.26003,-0.06247
200.5,13.7473,1.2543,-0.06247
201,13.7954,1.258,-0.06247
201.5,13.8404,1.26324,-0.0624701
202,13.8905,1.25925,-0.0624186
202.5,13.9378,1.25547,-0.0637891
203,13.9848,1.2616,-0.0651056
203.5,14.0328,1.25871,-0.0651119
204,14.0795,1.25313,-0.066395
204.5,14.127,1.25976,-0.06642
205,14.1754,1.25397,-0.0664197
205.5,14.2207,1.25283,-0.0667677
206,14.2696,1.24591,-0.0677297
206.5,14.3182,1.2472,-0.06773
207,14.3651,1.23907,-0.0677295
207.5,14.4099,1.23859,-0.0690417
208,14.4608,1.23354,-0.0697546
208.5,14.5088,1.2318,-0.0694531
209,14.5553,1.23049,-0.0690467
209.5,14.603,1.22895,-0.0703754
210,14.6505,1.2387,-0.07037
210.5,14.6966,1.23061,-0.07037
211,14.7446,1.22622,-0.07037
211.5,14.7925,1.22908,-0.0703696
212,14.8398,1.23338,-0.0706068
212.5,14.8872,1.23595,-0.0718523
213,14.9349,1.22819,-0.0730089
213.5,14.9823,1.23368,-0.0730137
214,15.0296,1.23356,-0.0716629
214.5,15.0785,1.23827,-0.0715674
215,15.1242,1.23862,-0.0716876
215.5,15.1723,1.23652,-0.07169
216,15.2196,1.2378,-0.0716918
216.5,15.2681,1.23395,-0.07292
217,15.3151,1.23244,-0.07301
217.5,15.3615,1.23341,-0.0730109
218,15.4097,1.23455,-0.075532
218.5,15.457,1.22945,-0.0756402
219,15.5045,1.24156,-0.0751876
219.5,15.5524,1.23195,-0.0743208
220,15.6004,1.24014,-0.0743248
220.5,15.6476,1.24144,-0.0730034
221,15.6952,1.23388,-0.0728142
221.5,15.7412,1.23759,-0.07169
222,15.7891,1.23505,-0.07169
222.5,15.8372,1.2432,-0.0716899
223,15.8854,1.24491,-0.0720034
223.5,15.9319,1.24274,-0.0736722
224,15.9807,1.24856,-0.0749762
224.5,16.0274,1.25672,-0.0753667
225,16.0762,1.25112,-0.0759703
225.5,16.122,1.24653,-0.0763155
226,16.17,1.25428,-0.0756662
226.5,16.2169,1.25062,-0.0749759
227,16.2649,1.25338,-0.0740069
227.5,16.3119,1.24733,-0.07399
228,16.3599,1.24609,-0.07399
228.5,16.4064,1.24759,-0.07399
229,16.4548,1.25326,-0.07399
229.5,16.5033,1.24341,-0.07399
230,16.5503,1.24095,-0.07399
230.5,16.5977,1.24558,-0.07399
231,16.6443,1.24678,-0.07399
231.5,16.6933,1.24244,-0.07399
232,16.7401,1.24046,-0.07399
232.5,16.7874,1.24225,-0.07399
233,16.8359,1.24889,-0.07399
233.5,16.8823,1.25168,-0.07399
234,16.9307,1.25717,-0.0739998
234.5,16.9781,1.25128,-0.0752999
235,17.0258,1.25027,-0.07531
235.5,17.0727,1.25242,-0.07531
236,17.1205,1.24936,-0.07531
236.5,17.1683,1.25962,-0.07531
237,17.2156,1.25486,-0.07531
237.5,17.2628,1.25443,-0.07531
238,17.3112,1.25156,-0.0753087
238.5,17.3589,1.25199,-0.0759931
239,17.4067,1.25509,-0.07597
239.5,17.4527,1.25819,-0.07597
240,17.501,1.2542,-0.07597
240.5,17.5474,1.2475,-0.07597
241,17.596,1.24845,-0.0759687
241.5,17.6434,1.24819,-0.076998
242,17.691,1.25026,-0.0769601
242.5,17.7378,1.25766,-0.07696
243,17.7858,1.25351,-0.0769732
243.5,17.8334,1.25416,-0.0776244
244,17.8817,1.2525,-0.0776202
244.5,17.9297,1.24945,-0.0775093
245,17.9751,1.24898,-0.0763081
245.5,18.0241,1.25583,-0.0770612
246,18.0724,1.25038,-0.0779496
246.5,18.1195,1.24981,-0.0777407
247,18.1671,1.25409,-0.07663
247.5,18.2144,1.26381,-0.0767287
248,18.2621,1.26012,-0.0766179
248.5,18.3102,1.25531,-0.0779389
249,18.3567,1.25267,-0.0766406
249.5,18.4047,1.26627,-0.07663
250,18.4501,1.26028,-0.07663
250.5,18.5007,1.26315,-0.07663
251,18.5482,1.25747,-0.07663
251.5,18.5954,1.26613,-0.0766266
252,18.6432,1.25985,-0.0776283
252.5,18.6917,1.25579,-0.07762
253,18.7386,1.25696,-0.0776386
253.5,18.7855,1.2603,-0.0782841
254,18.8342,1.26416,-0.0785189
254.5,18.8811,1.26585,-0.0786102
255,18.9289,1.26315,-0.0786114
255.5,18.9771,1.26153,-0.077619
256,19.0245,1.27248,-0.0776199
256.5,19.0722,1.2743,-0.07762
257,19.1195,1.27273,-0.0776211
257.5,19.1679,1.27078,-0.0786857
258,19.2152,1.27847,-0.0789391
258.5,19.2626,1.27854,-0.0796
259,19.3103,1.28367,-0.0796
259.5,19.3579,1.28367,-0.0796002
260,19.4067,1.28113,-0.0802466
260.5,19.4533,1.28627,-0.08026
261,19.5006,1.28645,-0.0794079
261.5,19.5489,1.28272,-0.0796522
262,19.5967,1.2883,-0.0808804
262.5,19.6429,1.2891,-0.082322
263,19.6906,1.28737,-0.0837622
263.5,19.7391,1.29796,-0.0824335
264,19.7868,1.29227,-0.0810552
264.5,19.8325,1.29485,-0.0821104
265,19.8824,1.29981,-0.0811284
265.5,19.93,1.29604,-0.08113
266,19.976,1.30522,-0.0811318
266.5,20.0248,1.3086,-0.0824161
267,20.0706,1.31466,-0.0837492
267.5,20.1214,1.31627,-0.08377
268,20.169,1.31516,-0.0837666
268.5,20.2155,1.32429,-0.0851053
269,20.2652,1.33332,-0.0866282
269.5,20.3122,1.33261,-0.0866451
270,20.3604,1.34501,-0.083939
270.5,20.4074,1.34699,-0.0834401
271,20.4546,1.35622,-0.0834401
271.5,20.5033,1.36401,-0.0844369
272,20.5509,1.37442,-0.0847606
272.5,20.5985,1.37973,-0.08476
273,20.6465,1.39027,-0.0847624
273.5,20.6941,1.39373,-0.0871403
274,20.7427,1.40404,-0.0873803
274.5,20.7902,1.41512,-0.08738
275,20.839,1.42239,-0.0873704
275.5,20.8837,1.42755,-0.0877284
276,20.9341,1.4388,-0.0873797
276.5,20.9817,1.44575,-0.0873813
277,21.0295,1.45422,-0.0881196
277.5,21.0762,1.45907,-0.0879314
278,21.1253,1.46241,-0.0902752
278.5,21.1722,1.45869,-0.0903502
279,21.2212,1.46543,-0.09035
279.5,21.2675,1.4589,-0.09035
280,21.3161,1.45324,-0.0903498
280.5,21.3634,1.44999,-0.0909787
281,21.4118,1.43894,-0.0916767
281.5,21.4572,1.43657,-0.0903729
282,21.5067,1.43312,-0.0929463
282.5,21.5552,1.42245,-0.0929801
283,21.6026,1.41614,-0.09298
283.5,21.648,1.40536,-0.09298
284,21.6978,1.40008,-0.0929803
284.5,21.7463,1.39721,-0.0939067
285,21.7929,1.39532,-0.094398
285.5,21.8413,1.38204,-0.0969092
286,21.8888,1.38148,-0.09694
286.5,21.9369,1.37286,-0.09694
287,21.985,1.35731,-0.09694
287.5,22.033,1.34946,-0.0970397
288,22.0804,1.34551,-0.0982573
288.5,22.1281,1.34525,-0.098908
289,22.1758,1.34213,-0.0975885
289.5,22.2235,1.33661,-0.097588
290,22.2712,1.33624,-0.0982816
290.5,22.3192,1.3317,-0.0982448
291,22.3648,1.32515,-0.0995628
291.5,22.415,1.31881,-0.0995702
292,22.4622,1.32129,-0.09945
292.5,22.5108,1.32274,-0.100558
293,22.5586,1.3184,-0.10056
293.5,22.6067,1.31981,-0.100561
294,22.6543,1.31599,-0.100891
294.5,22.7024,1.31511,-0.102229
295,22.7506,1.31186,-0.103573
295.5,22.7979,1.31098,-0.104839
296,22.8455,1.31064,-0.10484
296.5,22.8941,1.30599,-0.103544
297,22.942,1.30837,-0.104817
297.5,22.989,1.30871,-0.10484
298,23.0374,1.31003,-0.10484
298.5,23.0853,1.30854,-0.10484
299,23.1337,1.31448,-0.10484
299.5,23.1809,1.31249,-0.106216
300,23.2291,1.31855,-0.107447
300.5,23.2775,1.3183,-0.10879
301,23.3241,1.32037,-0.108778
301.5,23.3728,1.3202,-0.108763
302,23.4211,1.32076,-0.108789
302.5,23.4685,1.32215,-0.109794
303,23.5167,1.32071,-0.111531
303.5,23.5655,1.3209,-0.112865
304,23.613,1.321,-0.11286
304.5,23.661,1.33135,-0.11286
305,23.7095,1.33273,-0.112868
305.5,23.7563,1.3337,-0.114171
306,23.8056,1.32692,-0.114177
306.5,23.8526,1.33676,-0.115479
307,23.9005,1.32912,-0.115488
307.5,23.9488,1.33455,-0.116854
308,23.9962,1.33804,-0.11681
308.5,24.0451,1.33105,-0.116812
309,24.0932,1.3454,-0.118093
309.5,24.1407,1.34529,-0.118093
310,24.1899,1.34358,-0.119444
310.5,24.2368,1.34654,-0.119439
311,24.2853,1.34793,-0.121751
311.5,24.3331,1.34523,-0.121699
312,24.3805,1.35045,-0.123073
312.5,24.4294,1.35742,-0.12307
313,24.4782,1.35099,-0.123072
313.5,24.5256,1.36066,-0.124411
314,24.5732,1.36469,-0.124743
314.5,24.6219,1.3691,-0.125701
315,24.6708,1.36075,-0.126939
315.5,24.7177,1.36865,-0.12702
316,24.7654,1.36612,-0.127033
316.5,24.8148,1.37577,-0.128346
317,24.863,1.37108,-0.128354
317.5,24.9107,1.37679,-0.128257
318,24.9573,1.37004,-0.129342
318.5,25.0066,1.37044,-0.12965
319,25.055,1.37978,-0.129583
319.5,25.1032,1.37781,-0.132288
320,25.1512,1.37809,-0.131907
320.5,25.1991,1.38204,-0.131518
321,25.2464,1.38141,-0.133687
321.5,25.295,1.38745,-0.134872
322,25.3426,1.38439,-0.136342
322.5,25.3911,1.38309,-0.137607
323,25.4399,1.38709,-0.136296
323.5,25.4881,1.38747,-0.137768
324,25.536,1.39472,-0.139236
324.5,25.5829,1.38773,-0.140298
325,25.6321,1.39133,-0.140632
325.5,25.6805,1.39463,-0.140232
326,25.7287,1.39438,-0.142923
326.5,25.7763,1.39327,-0.144277
327,25.8253,1.39148,-0.144187
327.5,25.8735,1.40071,-0.145219
328,25.9205,1.39977,-0.146184
328.5,25.969,1.3981,-0.147553
329,26.0182,1.4003,-0.148929
329.5,26.0654,1.40618,-0.148872
330,26.1126,1.40813,-0.150165
330.5,26.1625,1.40872,-0.151072
331,26.2101,1.4033,-0.151529
331.5,26.2591,1.40135,-0.152818
332,26.3054,1.41044,-0.154168
332.5,26.3547,1.40545,-0.154152
333,26.4032,1.41042,-0.155438
333.5,26.4519,1.40564,-0.155901
334,26.5004,1.4059,-0.156714
334.5,26.5488,1.3988,-0.158271
335,26.5967,1.40136,-0.159512
335.5,26.6443,1.40549,-0.160751
336,26.6932,1.3996,-0.163456
336.5,26.7407,1.4017,-0.164883
337,26.7898,1.40173,-0.165398
337.5,26.8379,1.40013,-0.165971
338,26.886,1.39499,-0.166101
338.5,26.9344,1.38936,-0.167458
339,26.9825,1.39412,-0.167697
339.5,27.0303,1.38811,-0.16891
340,27.0788,1.39434,-0.170662
340.5,27.1271,1.39232,-0.171819
341,27.1755,1.38367,-0.172122
341.5,27.2238,1.38022,-0.172801
342,27.2728,1.36911,-0.17454
342.5,27.3213,1.36647,-0.175873
343,27.3683,1.35955,-0.17722
343.5,27.4169,1.36264,-0.177184
344,27.4651,1.35253,-0.178508
344.5,27.5141,1.34806,-0.179859
345,27.5618,1.33471,-0.179524
345.5,27.6103,1.3288,-0.180473
346,27.6583,1.32634,-0.1818
346.5,27.7065,1.31614,-0.181803
347,27.7549,1.30892,-0.183105
347.5,27.8028,1.29772,-0.184446
348,27.8521,1.29582,-0.185876
348.5,27.8979,1.28595,-0.185749
349,27.9481,1.2762,-0.187072
349.5,27.9965,1.26511,-0.18839
350,28.0441,1.26665,-0.188378
350.5,28.0929,1.25029,-0.189709
351,28.1422,1.2418,-0.191043
351.5,28.1889,1.23796,-0.19103
352,28.2377,1.23036,-0.191049
352.5,28.2868,1.22088,-0.19234
353,28.3352,1.22305,-0.192337
353.5,28.3835,1.21356,-0.193701
354,28.4317,1.2036,-0.193886
354.5,28.4794,1.20199,-0.194979
355,28.5262,1.19689,-0.19498
355.5,28.5767,1.18885,-0.194978
356,28.6247,1.18422,-0.196509
356.5,28.6734,1.18088,-0.198251
357,28.7226,1.18217,-0.195367
357.5,28.7685,1.16837,-0.196535
358,28.8198,1.16769,-0.19508
358.5,28.8666,1.16582,-0.19508
359,28.9156,1.16188,-0.195051
359.5,28.9647,1.16439,-0.196721
360,29.0122,1.16705,-0.19673
360.5,29.0611,1.16258,-0.196559
361,29.1092,1.165,-0.195201
361.5,29.158,1.16088,-0.196714
362,29.2053,1.16916,-0.198043
362.5,29.2565,1.17486,-0.199336
363,29.3036,1.16865,-0.198751
363.5,29.3524,1.16878,-0.19871
364,29.4006,1.16895,-0.198004
364.5,29.4494,1.17812,-0.197404
365,29.4976,1.16679,-0.198376
365.5,29.547,1.16864,-0.19838
366,29.5945,1.17706,-0.19839
366.5,29.6438,1.16966,-0.199692
367,29.6922,1.16549,-0.198376
367.5,29.7406,1.16797,-0.19838
368,29.7889,1.1711,-0.19838
368.5,29.8374,1.16783,-0.198374
369,29.8865,1.17719,-0.1997
369.5,29.9341,1.16933,-0.199796
370,29.984,1.16971,-0.19838
370.5,30.0318,1.16444,-0.198395
371,30.081,1.16589,-0.199687
371.5,30.1296,1.16848,-0.1997
372,30.1761,1.16978,-0.199703
372.5,30.2265,1.17119,-0.200999
373,30.2744,1.18043,-0.202353
373.5,30.3228,1.1746,-0.20165
374,30.3726,1.17595,-0.20167
374.5,30.4204,1.18301,-0.201669
375,30.4696,1.18136,-0.203065
375.5,30.5189,1.18981,-0.20299
376,30.5658,1.18837,-0.202825
376.5,30.6163,1.19688,-0.202329
377,30.6651,1.20037,-0.201686
377.5,30.713,1.19931,-0.20101
378,30.7623,1.2054,-0.20103
378.5,30.8107,1.20683,-0.20336
379,30.8597,1.21128,-0.20364
379.5,30.908,1.21845,-0.20365
380,30.9578,1.21728,-0.20406
380.5,31.0059,1.21781,-0.205538
381,31.0547,1.21586,-0.206284
381.5,31.1035,1.22061,-0.20497
382,31.1528,1.22682,-0.204969
382.5,31.2012,1.23176,-0.203707
383,31.25,1.22786,-0.20365
383.5,31.2997,1.2356,-0.203754
384,31.3483,1.23625,-0.20496
384.5,31.3962,1.23888,-0.205627
385,31.4457,1.24471,-0.20562
385.5,31.4947,1.25574,-0.205577
386,31.5426,1.25673,-0.204707
386.5,31.5918,1.25781,-0.207415
387,31.6388,1.26766,-0.208628
387.5,31.6878,1.26686,-0.20914
388,31.7389,1.26768,-0.20914
388.5,31.7879,1.27677,-0.20914
389,31.8362,1.28524,-0.209141
389.5,31.8858,1.29146,-0.210455
390,31.9339,1.29142,-0.210462
390.5,31.9824,1.29924,-0.21175
391,32.0299,1.29872,-0.211753
391.5,32.0787,1.29892,-0.210464
392,32.1297,1.3075,-0.21045
392.5,32.1783,1.31319,-0.210442
393,32.2275,1.32074,-0.211443
393.5,32.2762,1.3273,-0.211703
394,32.3253,1.33076,-0.212759
394.5,32.3738,1.33346,-0.212753
395,32.4237,1.34696,-0.214085
395.5,32.4726,1.35396,-0.21408
396,32.521,1.35758,-0.214081
396.5,32.5701,1.36558,-0.215365
397,32.6194,1.36801,-0.215391
397.5,32.6684,1.37397,-0.216133
398,32.7178,1.37727,-0.215738
398.5,32.7665,1.39632,-0.21572
399,32.8145,1.40263,-0.215717
399.5,32.8644,1.40991,-0.216044
400,32.9132,1.4116,-0.216394
400.5,32.9623,1.4172,-0.217369
401,33.0116,1.42949,-0.217341
401.5,33.06,1.43269,-0.219105
402,33.1094,1.44197,-0.220022
402.5,33.1578,1.45328,-0.221327
403,33.2069,1.45905,-0.219997
403.5,33.256,1.47756,-0.221322
404,33.3049,1.48482,-0.222553
404.5,33.3544,1.50222,-0.222643
405,33.404,1.51446,-0.223128
405.5,33.4524,1.52067,-0.2233
406,33.5012,1.53198,-0.2233
406.5,33.5498,1.54762,-0.22358
407,33.5994,1.56017,-0.224281
407.5,33.6487,1.57381,-0.225579
408,33.6983,1.584,-0.226954
408.5,33.7475,1.60316,-0.22692
409,33.7958,1.60936,-0.227802
409.5,33.8449,1.62925,-0.228718
410,33.8948,1.63659,-0.23054
410.5,33.9437,1.65237,-0.232173
411,33.9928,1.67119,-0.232518
411.5,34.0427,1.68474,-0.233463
412,34.0918,1.70926,-0.234823
412.5,34.1414,1.72701,-0.235159
413,34.1905,1.75232,-0.23608
413.5,34.2399,1.76631,-0.237066
414,34.2885,1.79647,-0.238115
414.5,34.3382,1.81577,-0.239432
415,34.3878,1.85209,-0.240153
415.5,34.4367,1.87827,-0.240734
416,34.4849,1.89613,-0.242094
416.5,34.5352,1.93205,-0.243591
417,34.5849,1.95998,-0.244697
417.5,34.6335,1.97894,-0.24599
418,34.6821,2.00783,-0.247344
418.5,34.7316,2.02933,-0.249322
419,34.7819,2.05987,-0.251173
419.5,34.8314,2.08665,-0.252352
420,34.8806,2.11364,-0.253835
420.5,34.9302,2.14135,-0.255401
421,34.9797,2.15505,-0.256137
421.5,35.0293,2.18089,-0.256689
422,35.0782,2.20282,-0.258864
422.5,35.1266,2.21689,-0.259809
423,35.1768,2.23695,-0.26237
423.5,35.2263,2.24629,-0.266596
424,35.2762,2.2604,-0.26718
424.5,35.3247,2.26776,-0.268369
425,35.374,2.28979,-0.269451
425.5,35.4233,2.29044,-0.271606
426,35.4729,2.29337,-0.274089
426.5,35.5207,2.29388,-0.276352
427,35.5705,2.29372,-0.278536
427.5,35.6189,2.29113,-0.280644
428,35.6692,2.27714,-0.282567
428.5,35.7172,2.28018,-0.285009
429,35.7671,2.26895,-0.286973
429.5,35.8168,2.25592,-0.290252
430,35.8649,2.2451,-0.29225
430.5,35.914,2.22737,-0.296077
431,35.9632,2.20502,-0.299969
431.5,36.0119,2.19339,-0.301433
432,36.0617,2.17277,-0.303544
432.5,36.1102,2.15192,-0.306973
433,36.1594,2.13407,-0.310016
433.5,36.2073,2.10753,-0.312486
434,36.2564,2.08428,-0.315008
434.5,36.3059,2.06507,-0.319105
435,36.3548,2.0447,-0.323745
435.5,36.4034,2.02057,-0.327018
436,36.452,2.0029,-0.329261
436.5,36.5009,1.98285,-0.332046
437,36.5506,1.95951,-0.335987
437.5,36.5994,1.95109,-0.339977
438,36.6495,1.93219,-0.343829
438.5,36.6969,1.92051,-0.347362
439,36.7458,1.89766,-0.351884
439.5,36.7952,1.88851,-0.355448
440,36.8445,1.87653,-0.359632
440.5,36.8933,1.86838,-0.362282
441,36.9425,1.85842,-0.368243
441.5,36.9894,1.84857,-0.372772
442,37.04,1.84451,-0.375551
442.5,37.0903,1.83161,-0.380897
443,37.1391,1.8391,-0.384482
443.5,37.1878,1.83573,-0.388512
444,37.2382,1.82463,-0.395888
444.5,37.2872,1.82297,-0.399958
445,37.3347,1.82149,-0.405138
445.5,37.3849,1.81075,-0.40821
446,37.4353,1.81762,-0.413572
446.5,37.4844,1.81263,-0.417807
447,37.5341,1.81303,-0.423103
447.5,37.5831,1.80879,-0.42804
448,37.6333,1.81058,-0.434209
448.5,37.6812,1.81105,-0.43949
449,37.7316,1.80845,-0.445563
449.5,37.7808,1.81528,-0.450767
450,37.8301,1.8169,-0.456546
450.5,37.8796,1.81924,-0.460834
451,37.9294,1.80977,-0.46526
451.5,37.9779,1.81568,-0.472165
452,38.0273,1.81779,-0.477045
452.5,38.077,1.82198,-0.48294
453,38.1267,1.82136,-0.489368
453.5,38.1759,1.81928,-0.49574
454,38.2258,1.8197,-0.502627
454.5,38.2752,1.81657,-0.508013
455,38.3243,1.80853,-0.512222
455.5,38.3732,1.81127,-0.518522
456,38.4226,1.80204,-0.524798
456.5,38.4718,1.8056,-0.53128
457,38.5211,1.80926,-0.536906
457.5,38.5707,1.80722,-0.542842
458,38.6207,1.80122,-0.54944
458.5,38.6696,1.79907,-0.555341
459,38.7189,1.79486,-0.561875
459.5,38.7679,1.7878,-0.56857
460,38.8182,1.77995,-0.573544
460.5,38.8673,1.77477,-0.580328
461,38.9162,1.7731,-0.58451
461.5,38.9658,1.76499,-0.59103
462,39.0158,1.7567,-0.596349
462.5,39.0639,1.74584,-0.602514
463,39.1145,1.74342,-0.611474
463.5,39.1628,1.72609,-0.616656
464,39.2132,1.72825,-0.622991
464.5,39.2626,1.71401,-0.630497
465,39.312,1.70605,-0.636344
465.5,39.3608,1.69386,-0.641781
466,39.4101,1.68616,-0.648711
466.5,39.4606,1.67078,-0.654676
467,39.5088,1.67081,-0.659778
467.5,39.5578,1.65537,-0.665066
468,39.6072,1.64458,-0.671237
468.5,39.6569,1.63982,-0.678311
469,39.7062,1.62771,-0.684983
469.5,39.755,1.61522,-0.690623
470,39.8051,1.60304,-0.696954
470.5,39.8542,1.5825,-0.703223
471,39.9036,1.5691,-0.707973
471.5,39.9535,1.56608,-0.714891
472,40.0022,1.55426,-0.720539
472.5,40.0518,1.54375,-0.725983
473,40.1005,1.53416,-0.732722
473.5,40.1507,1.52969,-0.739149
474,40.2005,1.51564,-0.745226
474.5,40.2482,1.5036,-0.750658
475,40.2966,1.50274,-0.756883
475.5,40.3481,1.48304,-0.763742
476,40.397,1.48239,-0.766865
476.5,40.446,1.46363,-0.773263
477,40.4963,1.45896,-0.779604
477.5,40.5452,1.4503,-0.785217
478,40.5953,1.44634,-0.791442
478.5,40.6449,1.43633,-0.797458
479,40.6931,1.4251,-0.803201
479.5,40.7429,1.42171,-0.808041
480,40.7925,1.41381,-0.814482
480.5,40.8424,1.39925,-0.818773
481,40.8921,1.39463,-0.82449
481.5,40.9404,1.38522,-0.832539
482,40.9904,1.37589,-0.838311
482.5,41.0395,1.37199,-0.844479
483,41.0898,1.35846,-0.849718
483.5,41.1387,1.35078,-0.856616
484,41.1888,1.34601,-0.862055
484.5,41.238,1.33525,-0.866626
485,41.2874,1.33275,-0.872604
485.5,41.3364,1.32169,-0.877563
486,41.3849,1.31902,-0.88327
486.5,41.4365,1.31566,-0.888681
487,41.4866,1.30359,-0.892381
487.5,41.5353,1.30613,-0.897617
488,41.5848,1.30545,-0.902533
488.5,41.6334,1.28862,-0.907752
489,41.6822,1.29366,-0.913036
489.5,41.733,1.28207,-0.918322
490,41.7834,1.27634,-0.924352
490.5,41.8331,1.26986,-0.930341
491,41.8823,1.27133,-0.934344
491.5,41.9322,1.26035,-0.939923
492,41.9815,1.24838,-0.944148
492.5,42.0314,1.2507,-0.948573
493,42.0811,1.24123,-0.953952
493.5,42.1302,1.23734,-0.958887
494,42.1798,1.23899,-0.963598
494.5,42.2291,1.23175,-0.967368
495,42.2787,1.21815,-0.972481
495.5,42.3286,1.22186,-0.977357
496,42.3781,1.20789,-0.982769
496.5,42.4279,1.20676,-0.987161
497,42.4778,1.20342,-0.992513
497.5,42.5265,1.20061,-0.996037
498,42.5773,1.19325,-1.00052
498.5,42.6267,1.1876,-1.00394
499,42.6765,1.18202,-1.0082
499.5,42.7264,1.18557,-1.01216
500,42.776,1.18192,-1.0153
500.5,42.825,1.17488,-1.02002
501,42.8741,1.16682,-1.02356
501.5,42.9248,1.16776,-1.02633
502,42.9737,1.16004,-1.02945
502.5,43.0228,1.16248,-1.03601
503,43.0727,1.15916,-1.04005
503.5,43.1231,1.15267,-1.04345
504,43.1722,1.1488,-1.04711
504.5,43.2219,1.14867,-1.05191
505,43.2718,1.14304,-1.05632
505.5,43.3213,1.14109,-1.05848
506,43.3712,1.13669,-1.0619
506.5,43.4218,1.12302,-1.06574
507,43.4719,1.12153,-1.07071
507.5,43.5206,1.12728,-1.07389
508,43.5705,1.12333,-1.07697
508.5,43.6196,1.12059,-1.08012
509,43.6693,1.11557,-1.08236
509.5,43.7191,1.11325,-1.08526
510,43.7676,1.11039,-1.08942
510.5,43.8181,1.10505,-1.09245
511,43.8687,1.10155,-1.09615
511.5,43.9184,1.10446,-1.10084
512,43.9677,1.10464,-1.10409
512.5,44.0173,1.10714,-1.1075
513,44.0683,1.09908,-1.10843
513.5,44.1176,1.10423,-1.1115
514,44.1676,1.09415,-1.11599
514.5,44.2168,1.09665,-1.11835
515,44.2669,1.0906,-1.12121
515.5,44.3164,1.09063,-1.12444
516,44.3672,1.08642,-1.12832
516.5,44.4159,1.09042,-1.13093
517,44.4656,1.08892,-1.13423
517.5,44.5145,1.08719,-1.13697
518,44.5658,1.0854,-1.14231
518.5,44.6166,1.08162,-1.14401
519,44.6654,1.08645,-1.14702
519.5,44.7151,1.08364,-1.15051
520,44.7648,1.0772,-1.15357
520.5,44.8152,1.07446,-1.15671
521,44.865,1.07638,-1.15917
521.5,44.9147,1.06939,-1.16158
522,44.9642,1.07473,-1.16475
522.5,45.0141,1.07011,-1.16811
523,45.0646,1.07864,-1.17065
523.5,45.1146,1.07476,-1.1748
524,45.1645,1.07625,-1.17827
524.5,45.2137,1.06857,-1.181
525,45.2637,1.0747,-1.18367
525.5,45.3118,1.07388,-1.18583
526,45.3638,1.06963,-1.19003
526.5,45.4138,1.06601,-1.19188
527,45.4637,1.06695,-1.19499
527.5,45.514,1.07456,-1.19988
528,45.5629,1.07297,-1.20182
528.5,45.6123,1.07041,-1.20513
529,45.6626,1.07036,-1.2083
529.5,45.7127,1.0697,-1.21157
530,45.7637,1.06691,-1.21532
530.5,45.813,1.06124,-1.21797
531,45.8639,1.06736,-1.22086
531.5,45.9126,1.06835,-1.22431
532,45.9625,1.07159,-1.22574
532.5,46.0127,1.07039,-1.22927
533,46.0629,1.07851,-1.23365
533.5,46.1112,1.075,-1.23584
534,46.1631,1.07808,-1.23925
534.5,46.2122,1.08159,-1.24225
535,46.2619,1.07681,-1.2456
535.5,46.3122,1.08241,-1.24746
536,46.3626,1.07578,-1.25168
536.5,46.4127,1.08492,-1.25523
537,46.4642,1.08369,-1.25915
537.5,46.5129,1.08766,-1.26191
538,46.5627,1.08645,-1.26497
538.5,46.6125,1.08644,-1.26861
539,46.6616,1.09751,-1.27233
539.5,46.7128,1.10412,-1.27551
540,46.7637,1.10286,-1.27784
540.5,46.8136,1.0991,-1.28248
541,46.8636,1.10603,-1.2842
541.5,46.9146,1.10901,-1.28677
542,46.9637,1.10506,-1.29237
542.5,47.0146,1.10601,-1.29511
543,47.0639,1.11096,-1.29876
543.5,47.1155,1.10889,-1.30099
544,47.1653,1.11673,-1.30455
544.5,47.2153,1.11889,-1.30804
545,47.2647,1.11482,-1.31138
545.5,47.3154,1.12159,-1.31583
546,47.3667,1.12688,-1.32078
546.5,47.4162,1.13444,-1.3226
547,47.4661,1.14123,-1.32685
547.5,47.516,1.14366,-1.33106
548,47.5663,1.14893,-1.33484
548.5,47.6165,1.14921,-1.33824
549,47.6672,1.15746,-1.34173
549.5,47.7163,1.16673,-1.34577
550,47.7668,1.16399,-1.35038
550.5,47.8175,1.16653,-1.35267
551,47.8672,1.17635,-1.35816
551.5,47.9173,1.1811,-1.36122
552,47.9668,1.18209,-1.36449
552.5,48.0169,1.18587,-1.36898
553,48.0673,1.19516,-1.37418
553.5,48.118,1.2011,-1.3781
554,48.1679,1.20517,-1.38242
554.5,48.2178,1.207,-1.38647
555,48.2661,1.21692,-1.39012
555.5,48.3155,1.22221,-1.39462
556,48.3681,1.22215,-1.39973
556.5,48.4169,1.22405,-1.40367
557,48.4692,1.22624,-1.40907
557.5,48.5188,1.22571,-1.41465
558,48.5695,1.22959,-1.41915
558.5,48.6195,1.24259,-1.42504
559,48.6695,1.24467,-1.42729
559.5,48.7194,1.25035,-1.43199
560,48.7702,1.25717,-1.4377
560.5,48.8199,1.25878,-1.44347
561,48.8699,1.26522,-1.44917
561.5,48.9203,1.27267,-1.45434
562,48.9699,1.28379,-1.45916
562.5,49.0204,1.28721,-1.46575
563,49.0707,1.29934,-1.47097
563.5,49.1205,1.30373,-1.47605
564,49.1717,1.31984,-1.48286
564.5,49.2216,1.3234,-1.48994
565,49.271,1.33423,-1.49761
565.5,49.3211,1.33744,-1.50027
566,49.3717,1.35726,-1.50657
566.5,49.4191,1.36686,-1.51266
567,49.4722,1.36864,-1.52066
567.5,49.5225,1.38022,-1.5258
568,49.5716,1.38701,-1.53144
568.5,49.6223,1.39762,-1.53816
569,49.6726,1.40719,-1.54564
569.5,49.723,1.40946,-1.55254
570,49.773,1.42032,-1.55974
570.5,49.8226,1.426,-1.56593
571,49.8742,1.43074,-1.57323
571.5,49.9238,1.43849,-1.57976
572,49.9749,1.43866,-1.58737
572.5,50.0245,1.43667,-1.59466
573,50.0744,1.44213,-1.60185
573.5,50.1245,1.42962,-1.60871
574,50.1745,1.43071,-1.6152
574.5,50.2248,1.42099,-1.62493
575,50.275,1.41668,-1.63184
575.5,50.3249,1.40416,-1.63962
576,50.3759,1.39065,-1.64734
576.5,50.4249,1.36518,-1.65545
577,50.4755,1.35273,-1.66315
577.5,50.5252,1.32812,-1.66967
578,50.5747,1.30555,-1.6761
578.5,50.6258,1.27063,-1.68188
579,50.674,1.23673,-1.68796
579.5,50.725,1.20004,-1.69399
580,50.7746,1.15666,-1.70037
580.5,50.8249,1.10427,-1.70619
581,50.8735,1.06113,-1.7122
581.5,50.9235,1.01539,-1.71684
582,50.9739,0.955374,-1.72222
582.5,51.0223,0.896864,-1.72848
583,51.0726,0.851454,-1.73258
583.5,51.1229,0.800426,-1.73672
584,51.1723,0.744165,-1.73912
584.5,51.222,0.699017,-1.74274
585,51.2724,0.663794,-1.74639
585.5,51.3222,0.632655,-1.74883
586,51.3708,0.606422,-1.75182
586.5,51.4218,0.586102,-1.75669
587,51.4721,0.553602,-1.75905
587.5,51.5211,0.537151,-1.76153
588,51.572,0.519499,-1.76429
588.5,51.6222,0.514191,-1.76617
589,51.6727,0.510045,-1.76836
589.5,51.7225,0.500657,-1.76977
590,51.7725,0.493124,-1.77273
590.5,51.823,0.491335,-1.77293
591,51.8727,0.48649,-1.77431
591.5,51.9232,0.484384,-1.77627
592,51.9731,0.479197,-1.7787
592.5,52.0244,0.485896,-1.78091
593,52.074,0.476021,-1.78308
593.5,52.1239,0.476471,-1.783
594,52.1747,0.477069,-1.78516
594.5,52.2257,0.477121,-1.78649
595,52.2749,0.475654,-1.79067
595.5,52.3259,0.477755,-1.79331
596,52.3762,0.481565,-1.7933
596.5,52.4261,0.480519,-1.79462
597,52.4759,0.477385,-1.79602
597.5,52.5263,0.478815,-1.79906
598,52.5769,0.48633,-1.80044
598.5,52.6272,0.482398,-1.80187
599,52.6778,0.484825,-1.80536
599.5,52.7282,0.487215,-1.80743
600,52.778,0.480801,-1.80748
600.5,52.8274,0.492013,-1.80878
601,52.8795,0.48879,-1.81015
601.5,52.9287,0.491972,-1.81188
602,52.9779,0.497764,-1.81348
602.5,53.0295,0.499724,-1.81612
603,53.0786,0.502562,-1.816
603.5,53.1304,0.503351,-1.81743
604,53.1814,0.50369,-1.82009
604.5,53.2313,0.506204,-1.82032
605,53.2822,0.50972,-1.82258
605.5,53.3319,0.513983,-1.82429
606,53.3832,0.515259,-1.82428
606.5,53.4322,0.523065,-1.82558
607,53.4822,0.525079,-1.82679
607.5,53.5339,0.528774,-1.82833
608,53.5842,0.526515,-1.82961
608.5,53.6356,0.531647,-1.83099
609,53.6839,0.534874,-1.83227
609.5,53.7353,0.538428,-1.8336
610,53.7858,0.540597,-1.8336
610.5,53.8354,0.545329,-1.83587
611,53.8862,0.550087,-1.83779
611.5,53.9356,0.55273,-1.8391
612,53.987,0.560968,-1.84041
612.5,54.0375,0.559471,-1.84112
613,54.0877,0.571094,-1.84317
613.5,54.138,0.57574,-1.84446
614,54.1874,0.583432,-1.84524
614.5,54.2396,0.591063,-1.84449
615,54.29,0.585433,-1.8458
615.5,54.3403,0.597088,-1.84776
616,54.3911,0.599957,-1.84971
616.5,54.4413,0.597037,-1.85011
617,54.4918,0.60853,-1.85112
617.5,54.5422,0.604538,-1.85283
618,54.5922,0.606851,-1.85471
618.5,54.6431,0.61158,-1.85524
619,54.6941,0.611464,-1.85658
619.5,54.744,0.62112,-1.85775
620,54.794,0.623136,-1.85906
620.5,54.8452,0.634412,-1.86035
621,54.8962,0.639393,-1.86128
621.5,54.9467,0.635402,-1.86214
622,54.9968,0.641098,-1.86346
622.5,55.0464,0.647719,-1.86618
623,55.0985,0.644243,-1.86748
623.5,55.1491,0.652405,-1.86884
624,55.1985,0.655119,-1.86885
624.5,55.2498,0.65828,-1.87029
625,55.3006,0.664649,-1.87205
625.5,55.3506,0.663795,-1.87267
626,55.4023,0.667052,-1.87299
626.5,55.4522,0.671097,-1.87268
627,55.5029,0.671344,-1.87401
627.5,55.5532,0.681369,-1.87269
628,55.6045,0.692598,-1.87396
628.5,55.654,0.691076,-1.87597
629,55.704,0.695025,-1.87943
629.5,55.7557,0.696464,-1.88071
630,55.8062,0.708889,-1.88076
630.5,55.8572,0.708009,-1.88212
631,55.9069,0.717354,-1.88344
631.5,55.9573,0.718839,-1.88344
632,56.0075,0.718574,-1.88476
632.5,56.0585,0.719379,-1.88605
633,56.1079,0.722816,-1.88648
633.5,56.1582,0.727039,-1.88784
634,56.2085,0.724633,-1.88871
634.5,56.2584,0.72807,-1.88833
635,56.3101,0.737,-1.88904
635.5,56.3604,0.736006,-1.89032
636,56.4107,0.739125,-1.89176
636.5,56.4616,0.737956,-1.89166
637,56.5119,0.73789,-1.89299
637.5,56.5626,0.743969,-1.89352
638,56.6128,0.744647,-1.89431
638.5,56.6614,0.749785,-1.89399
639,56.713,0.754784,-1.89511
639.5,56.7646,0.755021,-1.89706
640,56.8152,0.756784,-1.89835
640.5,56.8664,0.75693,-1.90066
641,56.9163,0.764695,-1.90199
641.5,56.9665,0.765919,-1.90068
642,57.0175,0.773184,-1.90137
642.5,57.0676,0.768215,-1.90331
643,57.1168,0.776539,-1.90323
643.5,57.1683,0.780204,-1.90328
644,57.2191,0.783305,-1.90462
644.5,57.2688,0.79175,-1.90396
645,57.3204,0.78881,-1.9043
645.5,57.3708,0.796683,-1.90313
646,57.4208,0.798833,-1.90604
646.5,57.4716,0.807656,-1.9076
647,57.5219,0.80638,-1.90892
647.5,57.5718,0.812804,-1.91128
648,57.6229,0.813459,-1.91154
648.5,57.6733,0.809569,-1.9129
649,57.7243,0.818624,-1.91155
649.5,57.7745,0.830068,-1.91286
650,57.8256,0.826459,-1.91287
650.5,57.8757,0.838337,-1.91417
651,57.9259,0.835802,-1.91508
651.5,57.9771,0.841616,-1.9155
652,58.0282,0.844646,-1.9168
652.5,58.0788,0.850948,-1.91551
653,58.1287,0.856025,-1.91681
653.5,58.1789,0.855476,-1.91812
654,58.2299,0.861812,-1.9195
654.5,58.2801,0.861397,-1.92078
655,58.3308,0.864047,-1.92208
655.5,58.381,0.864008,-1.92202
656,58.4319,0.864402,-1.9234
656.5,58.4824,0.864958,-1.92341
657,58.533,0.868637,-1.92471
657.5,58.5834,0.867213,-1.92382
658,58.634,0.869481,-1.92334
658.5,58.6845,0.874602,-1.92477
659,58.7353,0.873401,-1.92601
659.5,58.7852,0.877829,-1.92604
660,58.8362,0.880377,-1.92609
660.5,58.8862,0.882006,-1.92642
661,58.9369,0.884968,-1.93004
661.5,58.9876,0.886525,-1.93065
662,59.0385,0.890463,-1.93196
662.5,59.0888,0.889934,-1.93196
663,59.1391,0.89044,-1.93196
663.5,59.1894,0.893181,-1.93194
664,59.2393,0.896306,-1.93326
664.5,59.2893,0.893414,-1.9346
665,59.3399,0.894124,-1.93551
665.5,59.3907,0.890009,-1.93588
666,59.4411,0.897608,-1.93723
666.5,59.492,0.894915,-1.93866
667,59.5419,0.889005,-1.93851
667.5,59.5927,0.895689,-1.93856
668,59.6438,0.890722,-1.9386
668.5,59.6928,0.893591,-1.93858
669,59.7442,0.891709,-1.93987
669.5,59.7951,0.88851,-1.94117
670,59.8453,0.883721,-1.94251
670.5,59.8964,0.882585,-1.94382
671,59.947,0.879792,-1.94514
671.5,59.9963,0.876996,-1.94513
672,60.0476,0.878911,-1.94415
672.5,60.0977,0.87239,-1.94563
673,60.1477,0.87158,-1.94667
673.5,60.1985,0.873661,-1.94801
674,60.2497,0.864329,-1.94799
674.5,60.3001,0.868747,-1.94801
675,60.3507,0.873095,-1.94931
675.5,60.4014,0.863491,-1.94931
676,60.4518,0.865569,-1.94931
676.5,60.5016,0.857793,-1.94937
677,60.5531,0.86051,-1.95063
677.5,60.6029,0.865416,-1.95063
678,60.6543,0.861213,-1.95194
678.5,60.7052,0.858347,-1.95276
679,60.7556,0.85825,-1.95327
679.5,60.8041,0.857478,-1.95456
680,60.8564,0.850501,-1.95377
680.5,60.9069,0.846484,-1.95486
681,60.9575,0.856574,-1.95722
681.5,61.0077,0.849023,-1.95854
682,61.0586,0.842495,-1.95851
682.5,61.1097,0.850143,-1.95985
683,61.1599,0.852448,-1.95854
683.5,61.2108,0.844546,-1.95986
684,61.2611,0.846695,-1.95984
684.5,61.3121,0.836184,-1.95984
685,61.3626,0.833274,-1.96215
685.5,61.4136,0.833222,-1.96349
686,61.4639,0.837393,-1.96249
686.5,61.5143,0.834548,-1.9626
687,61.5631,0.842603,-1.96347
687.5,61.6157,0.831641,-1.96348
688,61.6675,0.83716,-1.9648
688.5,61.7167,0.832386,-1.96743
689,61.7672,0.839712,-1.96743
689.5,61.8174,0.837772,-1.9668
690,61.8696,0.833802,-1.96743
690.5,61.9197,0.831809,-1.96753
691,61.9704,0.831886,-1.96899
691.5,62.0211,0.828963,-1.97005
692,62.0712,0.828594,-1.97035
692.5,62.122,0.828259,-1.97011
693,62.1731,0.828108,-1.97138
693.5,62.2232,0.824709,-1.97138
694,62.2745,0.820092,-1.97248
694.5,62.3253,0.821328,-1.97269
695,62.3747,0.822884,-1.97391
695.5,62.4258,0.820122,-1.97468
696,62.4763,0.818338,-1.97599
696.5,62.528,0.815298,-1.97641
697,62.5768,0.81458,-1.97838
697.5,62.6284,0.809363,-1.98012
698,62.6795,0.808474,-1.98012
698.5,62.7297,0.808108,-1.97874
699,62.78,0.810952,-1.98004
699.5,62.8313,0.812387,-1.98001
700,62.8812,0.81102,-1.98136
700.5,62.9321,0.801534,-1.9813
701,62.9834,0.803058,-1.98268
701.5,63.0338,0.804201,-1.98268
702,63.0839,0.802318,-1.98278
702.5,63.1357,0.798525,-1.98422
703,63.1872,0.796452,-1.98434
703.5,63.2374,0.795591,-1.98601
704,63.2872,0.798665,-1.98434
704.5,63.3379,0.800679,-1.97988
705,63.3882,0.800959,-1.97785
705.5,63.4381,0.798992,-1.9784
706,63.4903,0.788622,-1.98106
706.5,63.5404,0.792258,-1.98174
707,63.5909,0.795215,-1.98164
707.5,63.6419,0.796573,-1.98254
708,63.6938,0.789579,-1.98678
708.5,63.7441,0.787475,-1.98787
709,63.7951,0.790537,-1.99103
709.5,63.8455,0.785862,-1.99423
710,63.8961,0.792238,-1.99758
710.5,63.947,0.796405,-1.99882
711,63.9979,0.797131,-1.99882
711.5,64.0493,0.79527,-2.00015
712,64.0987,0.799724,-2.00014
712.5,64.1509,0.798767,-2.00156
713,64.2018,0.808908,-2.0029
713.5,64.2529,0.799667,-2.00434
714,64.3035,0.796037,-2.00693
714.5,64.3543,0.799427,-2.01016
715,64.405,0.80838,-2.01499
715.5,64.4552,0.811503,-2.0165
716,64.5069,0.823625,-2.01512
716.5,64.5572,0.814088,-2.01161
717,64.6088,0.818367,-2.01212
717.5,64.6587,0.821108,-2.01276
718,64.7089,0.830859,-2.01175
718.5,64.7591,0.828214,-2.01043
719,64.8111,0.82767,-2.01176
719.5,64.8621,0.829189,-2.01215
720,64.9129,0.834044,-2.01176
720.5,64.9642,0.829698,-2.0131
721,65.014,0.830508,-2.01211
721.5,65.0653,0.829035,-2.01199
722,65.1166,0.829291,-2.0131
722.5,65.1653,0.823175,-2.01179
723,65.2175,0.826327,-2.0131
723.5,65.2674,0.821274,-2.01314
724,65.3187,0.823496,-2.01511
724.5,65.3694,0.811258,-2.01564
725,65.4205,0.817533,-2.01639
725.5,65.4719,0.809738,-2.01662
726,65.5218,0.812161,-2.01672
726.5,65.5729,0.809479,-2.01704
727,65.6238,0.800986,-2.01952
727.5,65.6743,0.795929,-2.02018
728,65.7254,0.794097,-2.021
728.5,65.7756,0.793129,-2.0221
729,65.8267,0.796356,-2.0221
729.5,65.8773,0.807285,-2.02342
730,65.9281,0.796787,-2.02293
730.5,65.9796,0.79498,-2.02341
731,66.029,0.793685,-2.02477
731.5,66.0805,0.791924,-2.02476
732,66.1304,0.780404,-2.02605
732.5,66.1826,0.780233,-2.02605
733,66.2325,0.778875,-2.02609
733.5,66.284,0.774121,-2.02737
734,66.335,0.775879,-2.02859
734.5,66.386,0.772716,-2.02868
735,66.4367,0.768075,-2.03
735.5,66.4878,0.770876,-2.03
736,66.5375,0.763898,-2.03132
736.5,66.59,0.756801,-2.03132
737,66.6401,0.762591,-2.03132
737.5,66.691,0.758689,-2.03205
738,66.7402,0.750423,-2.03214
738.5,66.7933,0.748679,-2.0339
739,66.8436,0.746709,-2.03395
739.5,66.8946,0.734245,-2.03472
740,66.9446,0.737904,-2.03528
740.5,66.9969,0.736534,-2.03658
741,67.0482,0.738306,-2.03658
741.5,67.0991,0.741644,-2.0371
742,67.149,0.732608,-2.03712
742.5,67.2015,0.731673,-2.03792
743,67.2509,0.729033,-2.03922
743.5,67.3028,0.727742,-2.03923
744,67.3535,0.723835,-2.04051
744.5,67.4042,0.723145,-2.04054
745,67.4558,0.721073,-2.04188
745.5,67.5077,0.71017,-2.0429
746,67.5582,0.715692,-2.04318
746.5,67.6088,0.713734,-2.04582
747,67.66,0.718031,-2.04581
747.5,67.7109,0.702118,-2.04717
748,67.7626,0.704938,-2.04575
748.5,67.8123,0.703664,-2.04713
749,67.8645,0.69419,-2.04846
749.5,67.915,0.695729,-2.05047
750,67.9668,0.688839,-2.05042
750.5,68.0178,0.687056,-2.05015
751,68.0684,0.685457,-2.05078
751.5,68.1198,0.688942,-2.05079
752,68.171,0.684473,-2.05075
752.5,68.2225,0.687275,-2.0507
753,68.2731,0.678768,-2.05207
753.5,68.3235,0.676664,-2.05411
754,68.3756,0.674043,-2.05405
754.5,68.4261,0.674512,-2.05536
755,68.4765,0.669923,-2.05668
755.5,68.5283,0.663888,-2.05666
756,68.5795,0.664139,-2.058
756.5,68.63,0.659529,-2.05766
757,68.6825,0.65906,-2.05668
757.5,68.7332,0.658213,-2.05659
758,68.7841,0.654524,-2.05799
758.5,68.8345,0.651235,-2.05873
759,68.8867,0.650812,-2.05931
759.5,68.9376,0.652216,-2.06063
760,68.9875,0.643865,-2.06063
760.5,69.0403,0.651135,-2.06195
761,69.0906,0.647691,-2.06192
761.5,69.1402,0.639031,-2.06326
762,69.1941,0.636925,-2.06457
762.5,69.2449,0.63616,-2.06458
763,69.2966,0.634347,-2.06553
763.5,69.347,0.63777,-2.0659
764,69.3989,0.630423,-2.0659
764.5,69.4495,0.626264,-2.06729
765,69.5008,0.62546,-2.0659
765.5,69.5524,0.625409,-2.066
766,69.6028,0.61902,-2.06656
766.5,69.6552,0.620337,-2.06656
767,69.7035,0.622559,-2.06788
767.5,69.7571,0.622311,-2.06788
768,69.8078,0.615934,-2.06721
768.5,69.859,0.61399,-2.06855
769,69.9092,0.610008,-2.06985
769.5,69.9614,0.608233,-2.06986
770,70.0127,0.601071,-2.07209
770.5,70.0634,0.599658,-2.07251
771,70.1147,0.605627,-2.0715
771.5,70.1647,0.599322,-2.07248
772,70.2164,0.6053,-2.07249
772.5,70.2679,0.602452,-2.07381
773,70.3172,0.595641,-2.07513
773.5,70.3702,0.596686,-2.07413
774,70.4216,0.603856,-2.07468
774.5,70.473,0.600941,-2.07511
775,70.5249,0.593918,-2.07644
775.5,70.5746,0.585542,-2.07634
776,70.6267,0.593397,-2.07776
776.5,70.6769,0.591299,-2.07908
777,70.7289,0.595541,-2.07908
777.5,70.7793,0.588377,-2.07908
778,70.8316,0.587327,-2.07776
778.5,70.8818,0.581105,-2.07864
779,70.9337,0.578094,-2.07875
779.5,70.9845,0.583692,-2.0791
780,71.0355,0.581706,-2.08043
780.5,71.087,0.578401,-2.08039
781,71.1378,0.586139,-2.08171
781.5,71.1901,0.582997,-2.08313
782,71.2404,0.57591,-2.08265
782.5,71.2918,0.579706,-2.08171
783,71.3439,0.57643,-2.08312
783.5,71.395,0.576685,-2.08303
784,71.4464,0.580663,-2.08301
784.5,71.4977,0.575406,-2.08434
785,71.5492,0.576456,-2.08434
785.5,71.5997,0.564358,-2.08563
786,71.6508,0.574451,-2.08566
786.5,71.7028,0.578981,-2.08693
787,71.754,0.567989,-2.08698
787.5,71.8055,0.564526,-2.08678
788,71.8569,0.567902,-2.08796
788.5,71.9085,0.575701,-2.08796
789,71.9601,0.575453,-2.08929
789.5,72.0109,0.573736,-2.08964
790,72.0618,0.572986,-2.08961