File: 01_Data/Helmet_Shield_Bracket/STA/N2/30K_min/Helmet_Shield_Bracket_STA_N2_30KData_250520_R2.csv
Temp./C,Time/min,DSC/(mW/mg),Mass loss/mg
40.0,0.0,1.51103,-0.0178959
40.6,0.0387581,1.57524,-0.0197824
41.2,0.0754027,1.64232,-0.0194201
41.8,0.111239,1.70954,-0.0195489
42.4,0.147483,1.77096,-0.0197669
43,0.180521,1.82619,-0.0191765
43.6,0.215531,1.88134,-0.01965
44.2,0.24883,1.93967,-0.0188874
44.8,0.281066,1.99154,-0.0202558
45.4,0.312278,2.05278,-0.021808
46,0.344032,2.10448,-0.0212074
46.6,0.375182,2.15299,-0.0232614
47.2,0.405626,2.20828,-0.0236304
47.8,0.435828,2.25973,-0.0221082
48.4,0.46605,2.31767,-0.0219479
49,0.495347,2.35448,-0.022413
49.6,0.525046,2.4097,-0.0220684
50.2,0.553208,2.45043,-0.0212092
50.8,0.581897,2.50296,-0.0220433
51.4,0.611237,2.54867,-0.0223005
52,0.638122,2.59069,-0.0232215
52.6,0.66554,2.64225,-0.0234416
53.2,0.69297,2.68267,-0.0234886
53.8,0.719271,2.72615,-0.0233959
54.4,0.746652,2.77205,-0.0236889
55,0.774301,2.81138,-0.0236277
55.6,0.801171,2.8564,-0.0222039
56.2,0.827791,2.90244,-0.0225094
56.8,0.853786,2.94121,-0.0234603
57.4,0.879069,2.97816,-0.0239764
58,0.906284,3.0222,-0.0231983
58.6,0.931839,3.07214,-0.0240731
59.2,0.957614,3.10216,-0.0243578
59.8,0.982757,3.14309,-0.0235725
60.4,1.00824,3.18403,-0.0230641
61,1.03363,3.22079,-0.0238317
61.6,1.05852,3.2606,-0.0240833
62.2,1.08405,3.29043,-0.0254904
62.8,1.10807,3.32752,-0.0260453
63.4,1.1333,3.36307,-0.0256423
64,1.15772,3.38696,-0.0252778
64.6,1.1821,3.43179,-0.025503
65.2,1.20641,3.47294,-0.0262293
65.8,1.23085,3.50403,-0.0271112
66.4,1.25552,3.53707,-0.0271155
67,1.2793,3.56965,-0.0271927
67.6,1.30436,3.60917,-0.0268946
68.2,1.3274,3.63722,-0.0281455
68.8,1.35173,3.66068,-0.0285813
69.4,1.37489,3.69429,-0.0277265
70,1.39894,3.73353,-0.0290117
70.6,1.42178,3.75769,-0.0283999
71.2,1.44507,3.79025,-0.0281482
71.8,1.46989,3.81898,-0.0286976
72.4,1.49365,3.84929,-0.0288836
73,1.51689,3.88694,-0.0301383
73.6,1.54001,3.91045,-0.029368
74.2,1.56347,3.93716,-0.0305762
74.8,1.58737,3.96003,-0.0308876
75.4,1.61026,3.98454,-0.0307755
76,1.63292,4.01829,-0.0307012
76.6,1.65611,4.04926,-0.0308931
77.2,1.67944,4.06848,-0.030914
77.8,1.70231,4.10042,-0.0321445
78.4,1.72482,4.13462,-0.032424
79,1.7481,4.15173,-0.0323392
79.6,1.77049,4.17168,-0.0321523
80.2,1.79341,4.19421,-0.0313498
80.8,1.81631,4.21901,-0.0319586
81.4,1.83865,4.23644,-0.0317861
82,1.86054,4.27264,-0.0321897
82.6,1.88274,4.29881,-0.0334849
83.2,1.90556,4.31438,-0.0351674
83.8,1.92825,4.33874,-0.0338253
84.4,1.95058,4.366,-0.0350787
85,1.97313,4.40422,-0.0350167
85.6,1.99491,4.41943,-0.0363719
86.2,2.01711,4.44615,-0.0362445
86.8,2.03928,4.45662,-0.0363597
87.4,2.06073,4.48405,-0.0364709
88,2.08286,4.51157,-0.0377995
88.6,2.10476,4.5384,-0.036354
89.2,2.12639,4.55472,-0.0375895
89.8,2.14831,4.58518,-0.0367997
90.4,2.16971,4.61546,-0.0364604
91,2.19146,4.62142,-0.0375177
91.6,2.21302,4.64854,-0.0377607
92.2,2.23494,4.66356,-0.0392848
92.8,2.25619,4.69,-0.0393415
93.4,2.27718,4.70325,-0.0406676
94,2.29841,4.73359,-0.0407151
94.6,2.32051,4.74905,-0.0407809
95.2,2.34134,4.76422,-0.0406202
95.8,2.36228,4.78027,-0.041709
96.4,2.3836,4.78786,-0.0419312
97,2.40518,4.80016,-0.04194
97.6,2.4259,4.81466,-0.0419396
98.2,2.44705,4.8244,-0.0419302
98.8,2.46808,4.84152,-0.0428037
99.4,2.48875,4.84619,-0.0432422
100,2.51015,4.85731,-0.0431805
100.6,2.53094,4.86108,-0.044525
101.2,2.55163,4.86193,-0.044561
101.8,2.57267,4.86384,-0.0456377
102.4,2.59326,4.86754,-0.0458743
103,2.6144,4.86279,-0.0472282
103.6,2.63477,4.86516,-0.0473136
104.2,2.65553,4.87879,-0.0473099
104.8,2.67586,4.87985,-0.0486416
105.4,2.69705,4.88502,-0.0486402
106,2.71777,4.88667,-0.048639
106.6,2.73811,4.89337,-0.0486244
107.2,2.75829,4.8961,-0.0482712
107.8,2.77938,4.89604,-0.0476622
108.4,2.79992,4.89676,-0.049061
109,2.82041,4.90299,-0.0489664
109.6,2.84073,4.894,-0.0489541
110.2,2.86025,4.90826,-0.0486809
110.8,2.88168,4.9136,-0.0469438
111.4,2.90176,4.90475,-0.0468064
112,2.92272,4.91439,-0.0481779
112.6,2.94272,4.92415,-0.0499755
113.2,2.96326,4.92843,-0.0499792
113.8,2.98362,4.92671,-0.0512376
114.4,3.00376,4.9297,-0.0525842
115,3.02427,4.93406,-0.0525895
115.6,3.04473,4.94818,-0.0525889
116.2,3.06467,4.94064,-0.05259
116.8,3.08496,4.94248,-0.0538789
117.4,3.10501,4.94899,-0.0539068
118,3.1253,4.95356,-0.0538517
118.6,3.14537,4.95365,-0.0550807
119.2,3.1659,4.95117,-0.0562809
119.8,3.18587,4.95974,-0.0565451
120.4,3.20598,4.96266,-0.0558436
121,3.2258,4.9665,-0.0552467
121.6,3.24594,4.96245,-0.0552214
122.2,3.2659,4.96653,-0.0552151
122.8,3.28561,4.96623,-0.0551538
123.4,3.30588,4.97371,-0.0567764
124,3.32536,4.98356,-0.057846
124.6,3.34492,4.98677,-0.0578482
125.2,3.36475,4.97954,-0.0585883
125.8,3.38491,4.97947,-0.059176
126.4,3.4042,4.98848,-0.0591799
127,3.42458,4.98737,-0.0591799
127.6,3.44409,4.98968,-0.0591795
128.2,3.46354,4.98828,-0.0594609
128.8,3.48338,5.0037,-0.0612593
129.4,3.50279,5.00926,-0.0618099
130,3.52248,5.00801,-0.0618102
130.6,3.54235,5.01158,-0.06181
131.2,3.56189,5.01105,-0.0618097
131.8,3.58163,5.02031,-0.0618045
132.4,3.60069,5.0192,-0.061297
133,3.62005,5.02497,-0.0604752
133.6,3.63948,5.03949,-0.0604976
134.2,3.65947,5.04631,-0.0604998
134.8,3.67872,5.03736,-0.0605
135.4,3.69797,5.04754,-0.0605006
136,3.71737,5.05052,-0.0605084
136.6,3.73686,5.0559,-0.060644
137.2,3.75604,5.05429,-0.0608205
137.8,3.7755,5.05487,-0.0608295
138.4,3.79409,5.06645,-0.0608306
139,3.81399,5.07305,-0.0608384
139.6,3.83296,5.06597,-0.0608706
140.2,3.85207,5.0736,-0.0618344
140.8,3.87096,5.07478,-0.0625947
141.4,3.89013,5.08126,-0.0631228
142,3.90946,5.08533,-0.0631202
142.6,3.92855,5.09094,-0.06312
143.2,3.94766,5.10696,-0.0631192
143.8,3.96662,5.11165,-0.0631096
144.4,3.9861,5.10392,-0.0629569
145,4.00484,5.12208,-0.0617719
145.6,4.02382,5.12433,-0.0631754
146.2,4.04279,5.13103,-0.0631295
146.8,4.06187,5.12446,-0.0631296
147.4,4.08084,5.12436,-0.06313
148,4.09981,5.12796,-0.06313
148.6,4.11805,5.1377,-0.0631294
149.2,4.13724,5.14036,-0.0631225
149.8,4.1563,5.15615,-0.0638615
150.4,4.17525,5.16417,-0.0644161
151,4.19432,5.16833,-0.0644391
151.6,4.21254,5.17446,-0.0644417
152.2,4.23168,5.18702,-0.0656873
152.8,4.25053,5.19393,-0.0657491
153.4,4.26928,5.19932,-0.0657588
154,4.28795,5.21372,-0.0657592
154.6,4.30659,5.21897,-0.0657515
155.2,4.32557,5.22055,-0.0664087
155.8,4.34437,5.23078,-0.0670605
156.4,4.36297,5.23867,-0.0670794
157,4.38165,5.25282,-0.0670801
157.6,4.40056,5.2581,-0.06708
158.2,4.41903,5.2637,-0.06708
158.8,4.43755,5.2714,-0.06708
159.4,4.45617,5.27371,-0.0670795
160,4.47521,5.29022,-0.0670749
160.6,4.49357,5.29568,-0.0670379
161.2,4.51245,5.30742,-0.0681101
161.8,4.53106,5.31792,-0.0680679
162.4,4.54966,5.32023,-0.0680692
163,4.56837,5.33446,-0.0680699
163.6,4.58676,5.33988,-0.06807
164.2,4.60544,5.34201,-0.06807
164.8,4.62397,5.34623,-0.06807
165.4,4.64242,5.35944,-0.06807
166,4.66136,5.37397,-0.0680671
166.6,4.67988,5.38648,-0.0691944
167.2,4.69832,5.39168,-0.0693672
167.8,4.71676,5.39769,-0.0693881
168.4,4.7352,5.41207,-0.0693899
169,4.75408,5.42842,-0.06939
169.6,4.77254,5.43012,-0.06939
170.2,4.79108,5.44139,-0.06939
170.8,4.80969,5.45614,-0.0693901
171.4,4.82779,5.46016,-0.0693911
172,4.84641,5.47172,-0.0694027
172.6,4.86429,5.48421,-0.0694736
173.2,4.88317,5.49184,-0.0707298
173.8,4.9019,5.49338,-0.0707089
174.4,4.92008,5.50148,-0.0707096
175,4.9387,5.51897,-0.0707099
175.6,4.95711,5.52965,-0.07071
176.2,4.97531,5.53844,-0.07071
176.8,4.99367,5.54273,-0.07071
177.4,5.01257,5.55287,-0.07071
178,5.03061,5.55918,-0.0707058
178.6,5.04889,5.57622,-0.0717234
179.2,5.06719,5.57982,-0.0719954
179.8,5.08564,5.59289,-0.072018
180.4,5.10408,5.6067,-0.0720199
181,5.1222,5.62115,-0.07202
181.6,5.14061,5.6315,-0.0720213
182.2,5.15891,5.63315,-0.0720436
182.8,5.17707,5.65483,-0.0724505
183.4,5.19548,5.6576,-0.0733494
184,5.2138,5.66573,-0.0733403
184.6,5.23191,5.68366,-0.0733405
185.2,5.25023,5.68824,-0.0733615
185.8,5.26842,5.7018,-0.0739181
186.4,5.28621,5.71032,-0.0745498
187,5.30458,5.72106,-0.0732443
187.6,5.32263,5.72708,-0.0733329
188.2,5.34087,5.73999,-0.0733396
188.8,5.35934,5.75557,-0.07334
189.4,5.37706,5.76264,-0.07334
190,5.39519,5.77515,-0.07334
190.6,5.41342,5.78545,-0.0733399
191.2,5.4312,5.79289,-0.0733415
191.8,5.44977,5.80253,-0.0735011
192.4,5.46767,5.82028,-0.0747406
193,5.48574,5.8378,-0.0746666
193.6,5.50397,5.84722,-0.0746603
194.2,5.52169,5.85202,-0.07466
194.8,5.54009,5.8602,-0.0746601
195.4,5.55816,5.87801,-0.0746624
196,5.57636,5.89604,-0.0747071
196.6,5.59412,5.89693,-0.0760402
197.2,5.61227,5.91629,-0.0759695
197.8,5.62983,5.93417,-0.0759691
198.4,5.64811,5.95504,-0.0759699
199,5.66608,5.97195,-0.07597
199.6,5.68436,5.9858,-0.0759697
200.2,5.70189,5.99871,-0.075967
200.8,5.72003,6.01161,-0.0759547
201.4,5.73841,6.02246,-0.0750196
202,5.75635,6.04065,-0.07499
202.6,5.77392,6.05719,-0.0749901
203.2,5.7919,6.07136,-0.0762708
203.8,5.80997,6.0811,-0.0762875
204.4,5.82799,6.09689,-0.0762984
205,5.84587,6.10952,-0.0762998
205.6,5.86387,6.12407,-0.0762999
206.2,5.88186,6.14299,-0.0763006
206.8,5.8995,6.15903,-0.0764444
207.4,5.91788,6.17161,-0.0777037
208,5.93571,6.19032,-0.0775232
208.6,5.95396,6.20643,-0.0787116
209.2,5.97133,6.22373,-0.0786137
209.8,5.98989,6.23787,-0.0785247
210.4,6.00783,6.25666,-0.0798769
211,6.0256,6.28376,-0.0799283
211.6,6.04342,6.28546,-0.0799303
212.2,6.06151,6.30299,-0.0799344
212.8,6.07928,6.31686,-0.0799612
213.4,6.09752,6.33284,-0.079609
214,6.11461,6.34709,-0.0799199
214.6,6.13316,6.36144,-0.0799234
215.2,6.15125,6.37574,-0.0798699
215.8,6.16897,6.39391,-0.0812063
216.4,6.18697,6.40888,-0.0812147
217,6.20473,6.42278,-0.0817879
217.6,6.22257,6.43915,-0.0818938
218.2,6.24061,6.46873,-0.0818589
218.8,6.25861,6.48553,-0.0830366
219.4,6.27627,6.50903,-0.0832069
220,6.29421,6.53379,-0.0832193
220.6,6.312,6.55917,-0.08322
221.2,6.33019,6.59195,-0.08322
221.8,6.34809,6.62223,-0.08322
222.4,6.36605,6.66027,-0.08322
223,6.38419,6.69825,-0.0832198
223.6,6.40239,6.76269,-0.08322
224.2,6.42014,6.81412,-0.0833999
224.8,6.43791,6.88287,-0.0846145
225.4,6.45615,6.97074,-0.0845473
226,6.47387,7.06501,-0.0845443
226.6,6.49264,7.19356,-0.084547
227.2,6.51113,7.34844,-0.085804
227.8,6.52889,7.50901,-0.0859037
228.4,6.54749,7.71849,-0.0849778
229,6.56674,7.9657,-0.0848637
229.6,6.58534,8.22062,-0.0848597
230.2,6.60396,8.49315,-0.084892
230.8,6.62279,8.77182,-0.0845025
231.4,6.64188,9.03341,-0.0845021
232,6.66056,9.31261,-0.0858382
232.6,6.67905,9.57576,-0.0858497
233.2,6.69801,9.85255,-0.0858638
233.8,6.71678,10.1447,-0.0860716
234.4,6.73563,10.4244,-0.0872203
235,6.75442,10.7185,-0.087173
235.6,6.77351,11.0333,-0.0871701
236.2,6.79196,11.3414,-0.08717
236.8,6.81147,11.6765,-0.08717
237.4,6.83014,12.0181,-0.08717
238,6.84949,12.3787,-0.0871698
238.6,6.86857,12.738,-0.0871675
239.2,6.88765,13.0967,-0.0871364
239.8,6.90655,13.442,-0.0875246
240.4,6.9254,13.7382,-0.0875288
241,6.94366,13.9213,-0.0862025
241.6,6.96176,13.8993,-0.0861825
242.2,6.97804,13.5508,-0.0861843
242.8,6.99384,12.9502,-0.0861979
243.4,7.00934,12.2533,-0.0870113
244,7.0249,11.6085,-0.0871553
244.6,7.04081,11.0118,-0.0871712
245.2,7.05687,10.4875,-0.08717
245.8,7.07302,10.0377,-0.0871695
246.4,7.08948,9.61849,-0.087302
247,7.10609,9.24799,-0.0885987
247.6,7.12219,8.92172,-0.0886782
248.2,7.13922,8.6176,-0.0891468
248.8,7.15604,8.34694,-0.0897767
249.4,7.17269,8.11302,-0.0897957
250,7.18973,7.89058,-0.0898011
250.6,7.20661,7.70477,-0.0898202
251.2,7.22412,7.52468,-0.0899218
251.8,7.24065,7.37501,-0.0900368
252.4,7.25802,7.24761,-0.0898265
253,7.27511,7.13093,-0.0898023
253.6,7.29267,7.01247,-0.0898007
254.2,7.30983,6.9292,-0.0897537
254.8,7.32735,6.8406,-0.0909508
255.4,7.34455,6.76442,-0.0925284
256,7.36192,6.68848,-0.0924468
256.6,7.37927,6.63759,-0.0924295
257.2,7.39693,6.5843,-0.0917488
257.8,7.41414,6.53998,-0.0914774
258.4,7.43178,6.5007,-0.0914517
259,7.44933,6.45556,-0.09145
259.6,7.46706,6.41895,-0.09145
260.2,7.48437,6.38988,-0.0914499
260.8,7.50209,6.37935,-0.0914502
261.4,7.5194,6.34967,-0.0915856
262,7.53706,6.33643,-0.0928589
262.6,7.55488,6.311,-0.0927666
263.2,7.57188,6.29238,-0.0927599
263.8,7.58963,6.27829,-0.09276
264.4,7.60737,6.26295,-0.0927597
265,7.62513,6.24956,-0.0927508
265.6,7.64268,6.23899,-0.0926047
266.2,7.66006,6.23439,-0.0924651
266.8,7.67775,6.23586,-0.0917738
267.4,7.69541,6.2241,-0.091233
268,7.71304,6.23528,-0.0924537
268.6,7.73082,6.22022,-0.0924355
269.2,7.74827,6.22359,-0.0924392
269.8,7.76613,6.21751,-0.09244
270.4,7.78376,6.21362,-0.0924404
271,7.80119,6.22298,-0.0924355
271.6,7.81884,6.21996,-0.0923439
272.2,7.83647,6.21612,-0.0936693
272.8,7.85419,6.2115,-0.0944976
273.4,7.87221,6.21807,-0.0953042
274,7.88957,6.22216,-0.0952911
274.6,7.90712,6.21904,-0.0952899
275.2,7.9249,6.22156,-0.0952922
275.8,7.9425,6.2237,-0.0942668
276.4,7.96003,6.21988,-0.0938982
277,7.97767,6.22655,-0.093871
277.6,7.99569,6.228,-0.0938742
278.2,8.01332,6.22747,-0.0939782
278.8,8.0307,6.23504,-0.0938285
279.4,8.04851,6.2401,-0.0938519
280,8.06605,6.24741,-0.0938682
280.6,8.08378,6.24746,-0.0938698
281.2,8.10155,6.25056,-0.0938704
281.8,8.11914,6.25839,-0.0938848
282.4,8.13679,6.26414,-0.094098
283,8.15465,6.27009,-0.0952231
283.6,8.17242,6.28113,-0.0951801
284.2,8.19025,6.28824,-0.0951757
284.8,8.2078,6.29188,-0.0951149
285.4,8.22564,6.30198,-0.0960104
286,8.24339,6.31619,-0.0961682
286.6,8.26091,6.32137,-0.0961741
287.2,8.27862,6.33467,-0.0962085
287.8,8.29651,6.34749,-0.0955815
288.4,8.31424,6.35259,-0.0951562
289,8.33203,6.37292,-0.0951833
289.6,8.3498,6.38057,-0.0959229
290.2,8.36751,6.39476,-0.0965696
290.8,8.38523,6.40845,-0.09781
291.4,8.4031,6.42777,-0.0978151
292,8.42106,6.44543,-0.0977621
292.6,8.4383,6.47,-0.0990989
293.2,8.4563,6.49044,-0.0991384
293.8,8.47404,6.50704,-0.0989305
294.4,8.4917,6.52541,-0.0977519
295,8.50943,6.53752,-0.0985015
295.6,8.52734,6.55227,-0.0991371
296.2,8.54495,6.58797,-0.0991307
296.8,8.56287,6.61073,-0.0991302
297.4,8.58051,6.626,-0.0991223
298,8.59856,6.65924,-0.100119
298.6,8.61641,6.67907,-0.10042
299.2,8.63415,6.7046,-0.100493
299.8,8.65191,6.73029,-0.100353
300.4,8.66977,6.76461,-0.101259
301,8.68758,6.79146,-0.101475
301.6,8.70538,6.8269,-0.102837
302.2,8.72318,6.86015,-0.103182
302.8,8.74083,6.88888,-0.103701
303.4,8.75888,6.92524,-0.103447
304,8.77696,6.96245,-0.104819
304.6,8.79409,6.99609,-0.104954
305.2,8.81248,7.03831,-0.105298
305.8,8.83026,7.081,-0.106447
306.4,8.8481,7.11809,-0.106703
307,8.86576,7.16788,-0.107866
307.6,8.88414,7.21129,-0.10832
308.2,8.90187,7.25515,-0.109249
308.8,8.91955,7.30272,-0.110524
309.4,8.93788,7.35173,-0.111068
310,8.95566,7.40244,-0.112546
310.6,8.97372,7.47219,-0.113636
311.2,8.99164,7.52781,-0.113959
311.8,9.00958,7.5861,-0.11514
312.4,9.02785,7.64865,-0.115264
313,9.04544,7.71248,-0.116721
313.6,9.06322,7.78235,-0.117303
314.2,9.08167,7.85363,-0.119486
314.8,9.0995,7.92365,-0.121102
315.4,9.11756,7.99552,-0.122442
316,9.13567,8.0726,-0.123641
316.6,9.15367,8.15464,-0.124698
317.2,9.17147,8.24151,-0.126497
317.8,9.18992,8.32936,-0.128271
318.4,9.2079,8.42295,-0.130054
319,9.22616,8.51797,-0.131888
319.6,9.24348,8.61428,-0.134046
320.2,9.26245,8.7373,-0.136026
320.8,9.28028,8.83215,-0.137567
321.4,9.29865,8.94334,-0.138735
322,9.3168,9.06425,-0.14016
322.6,9.33503,9.18381,-0.142084
323.2,9.35302,9.3088,-0.144231
323.8,9.37128,9.43543,-0.145784
324.4,9.38953,9.56796,-0.1478
325,9.40754,9.69617,-0.150641
325.6,9.42637,9.84653,-0.15256
326.2,9.44456,9.98851,-0.154824
326.8,9.46281,10.1352,-0.157071
327.4,9.48166,10.2999,-0.159519
328,9.49989,10.4655,-0.162367
328.6,9.51829,10.6357,-0.165428
329.2,9.5364,10.8114,-0.168195
329.8,9.55534,11.0151,-0.171004
330.4,9.57366,11.2079,-0.174168
331,9.5922,11.4136,-0.177715
331.6,9.61097,11.6259,-0.180611
332.2,9.62923,11.8346,-0.183836
332.8,9.64827,12.07,-0.187854
333.4,9.66675,12.3001,-0.191495
334,9.68564,12.5418,-0.195597
334.6,9.70428,12.778,-0.200669
335.2,9.7232,13.0332,-0.205086
335.8,9.74179,13.2916,-0.209537
336.4,9.76057,13.5427,-0.211861
337,9.7794,13.8023,-0.216004
337.6,9.79828,14.0682,-0.219003
338.2,9.81694,14.3227,-0.222887
338.8,9.83602,14.6103,-0.227641
339.4,9.85487,14.8824,-0.233931
340,9.87355,15.1421,-0.239506
340.6,9.89245,15.393,-0.246269
341.2,9.91068,15.5608,-0.251317
341.8,9.92856,15.6771,-0.257445
342.4,9.94727,15.7518,-0.262784
343,9.96534,15.7824,-0.268939
343.6,9.98241,15.6718,-0.274688
344.2,10.0004,15.4426,-0.280625
344.8,10.0171,15.1019,-0.285963
345.4,10.0337,14.6874,-0.289029
346,10.0501,14.1832,-0.294201
346.6,10.0665,13.6429,-0.298193
347.2,10.0825,13.0833,-0.302824
347.8,10.0987,12.5195,-0.307824
348.4,10.1149,11.9832,-0.31234
349,10.1312,11.4654,-0.317621
349.6,10.1476,10.9997,-0.321179
350.2,10.1644,10.5822,-0.324564
350.8,10.181,10.2057,-0.327954
351.4,10.1976,9.86163,-0.331882
352,10.2147,9.54454,-0.33489
352.6,10.2319,9.25721,-0.338424
353.2,10.2487,9.00477,-0.340779
353.8,10.2659,8.75038,-0.343402
354.4,10.2831,8.53886,-0.34641
355,10.3004,8.3542,-0.349216
355.6,10.3177,8.1755,-0.351303
356.2,10.335,8.01345,-0.353539
356.8,10.3529,7.87574,-0.356772
357.4,10.3699,7.76663,-0.360545
358,10.3877,7.67136,-0.363201
358.6,10.4052,7.57766,-0.364998
359.2,10.423,7.46656,-0.366688
359.8,10.4405,7.36914,-0.367552
360.4,10.4581,7.30178,-0.369406
361,10.4756,7.22441,-0.371225
361.6,10.4939,7.16263,-0.373063
362.2,10.5116,7.09882,-0.374823
362.8,10.5291,7.03588,-0.376511
363.4,10.5471,6.99485,-0.378163
364,10.5649,6.95397,-0.379777
364.6,10.5829,6.8943,-0.381436
365.2,10.6008,6.851,-0.383108
365.8,10.6185,6.81306,-0.385045
366.4,10.6366,6.80132,-0.387135
367,10.6543,6.76688,-0.388674
367.6,10.6723,6.74748,-0.390385
368.2,10.6904,6.72806,-0.392015
368.8,10.7084,6.69082,-0.393396
369.4,10.7264,6.67859,-0.39424
370,10.7448,6.66917,-0.395406
370.6,10.7623,6.6534,-0.396535
371.2,10.7806,6.6568,-0.397572
371.8,10.7984,6.65248,-0.399156
372.4,10.8166,6.63456,-0.401034
373,10.8348,6.63519,-0.402624
373.6,10.8529,6.62737,-0.403723
374.2,10.871,6.6136,-0.404044
374.8,10.8891,6.61715,-0.405558
375.4,10.907,6.61484,-0.406833
376,10.9254,6.62966,-0.408018
376.6,10.9434,6.62795,-0.409016
377.2,10.9611,6.62802,-0.410764
377.8,10.9795,6.65413,-0.412476
378.4,10.9976,6.65785,-0.413245
379,11.0159,6.66176,-0.414336
379.6,11.0341,6.66932,-0.416049
380.2,11.0523,6.67753,-0.416733
380.8,11.0705,6.69083,-0.417912
381.4,11.0887,6.6985,-0.419482
382,11.107,6.71142,-0.420906
382.6,11.1253,6.74208,-0.421696
383.2,11.1433,6.75833,-0.422993
383.8,11.1617,6.7722,-0.424686
384.4,11.1798,6.78841,-0.426373
385,11.1982,6.80512,-0.428126
385.6,11.2164,6.83304,-0.429326
386.2,11.2348,6.8532,-0.43093
386.8,11.2527,6.87978,-0.432583
387.4,11.2711,6.90972,-0.433755
388,11.2894,6.93136,-0.435351
388.6,11.3077,6.95683,-0.434751
389.2,11.3261,6.98319,-0.433695
389.8,11.3445,7.01228,-0.434754
390.4,11.3629,7.05211,-0.438505
391,11.3811,7.07943,-0.442371
391.6,11.3994,7.11071,-0.445933
392.2,11.4178,7.13588,-0.448322
392.8,11.4363,7.18014,-0.450627
393.4,11.4546,7.20068,-0.45257
394,11.4728,7.24484,-0.454891
394.6,11.4912,7.29094,-0.456633
395.2,11.5096,7.33091,-0.458943
395.8,11.5281,7.37611,-0.461876
396.4,11.5466,7.41964,-0.464281
397,11.5652,7.46533,-0.466656
397.6,11.5833,7.50366,-0.46846
398.2,11.6017,7.53152,-0.471128
398.8,11.6203,7.57773,-0.474358
399.4,11.6385,7.62443,-0.477541
400,11.6572,7.67183,-0.479783
400.6,11.6754,7.7289,-0.4825
401.2,11.6942,7.79314,-0.485522
401.8,11.7125,7.84794,-0.488011
402.4,11.7308,7.90568,-0.490892
403,11.7497,7.98299,-0.494103
403.6,11.7683,8.02903,-0.497417
404.2,11.7866,8.09358,-0.501052
404.8,11.8054,8.15483,-0.504522
405.4,11.8235,8.21371,-0.508104
406,11.8423,8.30508,-0.512229
406.6,11.8609,8.37026,-0.515676
407.2,11.879,8.4388,-0.519734
407.8,11.8982,8.50628,-0.524307
408.4,11.9168,8.5885,-0.5281
409,11.9353,8.66936,-0.532422
409.6,11.9535,8.75397,-0.537704
410.2,11.9728,8.84175,-0.542424
410.8,11.9916,8.93001,-0.54679
411.4,12.0101,9.01957,-0.551416
412,12.0287,9.10135,-0.557489
412.6,12.0476,9.2079,-0.562528
413.2,12.0663,9.31237,-0.568445
413.8,12.085,9.40409,-0.574403
414.4,12.1034,9.49897,-0.58129
415,12.1226,9.60336,-0.587919
415.6,12.1414,9.71465,-0.59468
416.2,12.1602,9.82027,-0.601967
416.8,12.179,9.94787,-0.608571
417.4,12.1978,10.0682,-0.616487
418,12.2166,10.1853,-0.623172
418.6,12.2354,10.3046,-0.63189
419.2,12.2542,10.4195,-0.639326
419.8,12.273,10.5412,-0.648881
420.4,12.2921,10.6577,-0.656041
421,12.3103,10.7991,-0.665332
421.6,12.3301,10.9349,-0.673912
422.2,12.3489,11.0637,-0.68446
422.8,12.3677,11.2057,-0.693123
423.4,12.3866,11.3465,-0.702329
424,12.4056,11.4767,-0.711888
424.6,12.4246,11.6102,-0.722724
425.2,12.4439,11.7638,-0.733667
425.8,12.4626,11.8988,-0.744934
426.4,12.4817,12.0429,-0.75681
427,12.5006,12.1911,-0.766841
427.6,12.5197,12.31,-0.779797
428.2,12.5387,12.4458,-0.791973
428.8,12.5576,12.5794,-0.806355
429.4,12.5768,12.753,-0.818501
430,12.5957,12.8899,-0.833059
430.6,12.6151,13.0516,-0.845556
431.2,12.6331,13.1741,-0.86133
431.8,12.6522,13.311,-0.875366
432.4,12.6719,13.4577,-0.893149
433,12.6911,13.6042,-0.907093
433.6,12.7101,13.7556,-0.925427
434.2,12.7291,13.8874,-0.940234
434.8,12.7479,14.0329,-0.95824
435.4,12.7675,14.1841,-0.974246
436,12.7864,14.3133,-0.993168
436.6,12.8053,14.4269,-1.01087
437.2,12.8243,14.5491,-1.03062
437.8,12.8434,14.6667,-1.04948
438.4,12.8622,14.7898,-1.06879
439,12.8815,14.9255,-1.0898
439.6,12.9002,15.0455,-1.10941
440.2,12.9194,15.1505,-1.1316
440.8,12.9382,15.2514,-1.1509
441.4,12.9576,15.3487,-1.17459
442,12.9762,15.4325,-1.1938
442.6,12.9952,15.5162,-1.21936
443.2,13.0141,15.6009,-1.24018
443.8,13.0331,15.6627,-1.26695
444.4,13.0516,15.7214,-1.28693
445,13.0707,15.7891,-1.31371
445.6,13.0897,15.8409,-1.33522
446.2,13.1086,15.8974,-1.36152
446.8,13.1274,15.9578,-1.38393
447.4,13.1463,16.009,-1.41063
448,13.1653,16.072,-1.4349
448.6,13.184,16.1133,-1.46155
449.2,13.2028,16.1771,-1.48797
449.8,13.2221,16.2193,-1.51525
450.4,13.2403,16.2637,-1.54294
451,13.2595,16.3238,-1.56994
451.6,13.278,16.3685,-1.5998
452.2,13.2972,16.4,-1.62614
452.8,13.316,16.4527,-1.65825
453.4,13.3347,16.4965,-1.68439
454,13.3535,16.5363,-1.71839
454.6,13.3727,16.5832,-1.74603
455.2,13.3914,16.62,-1.78122
455.8,13.41,16.6483,-1.80876
456.4,13.4289,16.675,-1.84333
457,13.4473,16.7118,-1.87143
457.6,13.4666,16.7331,-1.90667
458.2,13.4854,16.7639,-1.93838
458.8,13.504,16.7848,-1.97306
459.4,13.5229,16.8034,-2.00702
460,13.5416,16.8087,-2.04008
460.6,13.5604,16.801,-2.07372
461.2,13.5791,16.8048,-2.10627
461.8,13.5977,16.8157,-2.14444
462.4,13.6165,16.8058,-2.1771
463,13.635,16.78,-2.21636
463.6,13.6538,16.7498,-2.24847
464.2,13.6723,16.7117,-2.28933
464.8,13.6909,16.6537,-2.32164
465.4,13.7097,16.5907,-2.36263
466,13.7278,16.507,-2.39462
466.6,13.7466,16.4311,-2.43585
467.2,13.765,16.342,-2.47007
467.8,13.7833,16.2518,-2.50713
468.4,13.8019,16.1283,-2.54458
469,13.8202,15.9984,-2.58003
469.6,13.8385,15.865,-2.61958
470.2,13.8566,15.7198,-2.65273
470.8,13.8748,15.5386,-2.69336
471.4,13.8931,15.3754,-2.7244
472,13.911,15.1921,-2.76487
472.6,13.9292,14.9723,-2.79721
473.2,13.9475,14.7621,-2.83713
473.8,13.9652,14.5366,-2.86946
474.4,13.9834,14.2686,-2.90542
475,14.0013,14.0091,-2.94031
475.6,14.0191,13.7313,-2.97308
476.2,14.037,13.4499,-3.01094
476.8,14.0545,13.1552,-3.04058
477.4,14.0721,12.8374,-3.07798
478,14.09,12.4885,-3.10614
478.6,14.1076,12.1508,-3.13966
479.2,14.1253,11.8055,-3.16793
479.8,14.1427,11.4491,-3.19828
480.4,14.1602,11.0772,-3.22864
481,14.1778,10.7044,-3.25474
481.6,14.1955,10.3193,-3.28634
482.2,14.2127,9.93559,-3.30989
482.8,14.2302,9.54499,-3.33997
483.4,14.2479,9.14618,-3.36303
484,14.2652,8.75148,-3.38885
484.6,14.2831,8.35587,-3.4125
485.2,14.3001,7.97125,-3.43587
485.8,14.3178,7.59677,-3.4608
486.4,14.3352,7.22557,-3.48042
487,14.3527,6.86734,-3.50423
487.6,14.3705,6.51256,-3.52182
488.2,14.388,6.16748,-3.54278
488.8,14.4056,5.8321,-3.55944
489.4,14.4233,5.51498,-3.57753
490,14.441,5.20888,-3.59522
490.6,14.459,4.91483,-3.61119
491.2,14.4767,4.63167,-3.62827
491.8,14.4947,4.36006,-3.64058
492.4,14.5125,4.09521,-3.6563
493,14.5305,3.86109,-3.66813
493.6,14.5485,3.63544,-3.6822
494.2,14.5664,3.41942,-3.69339
494.8,14.5844,3.20958,-3.70572
495.4,14.6018,3.00657,-3.71654
496,14.6208,2.80888,-3.72652
496.6,14.6391,2.63031,-3.73669
497.2,14.657,2.45699,-3.74503
497.8,14.6754,2.29258,-3.75465
498.4,14.6937,2.13047,-3.76168
499,14.712,1.97846,-3.76998
499.6,14.7302,1.84393,-3.77651
500.2,14.7488,1.70764,-3.78488
500.8,14.7672,1.5961,-3.7909
501.4,14.7856,1.48508,-3.79695
502,14.8041,1.3709,-3.80161
502.6,14.8226,1.26897,-3.80645
503.2,14.8414,1.17413,-3.81104
503.8,14.8598,1.08492,-3.81524
504.4,14.8784,1.00507,-3.8198
505,14.8971,0.937406,-3.82318
505.6,14.9157,0.874897,-3.82573
506.2,14.9344,0.810764,-3.82881
506.8,14.9533,0.757697,-3.83221
507.4,14.9719,0.706172,-3.83432
508,14.9907,0.661439,-3.83653
508.6,15.0094,0.618071,-3.8383
509.2,15.0282,0.590018,-3.83931
509.8,15.0472,0.554363,-3.84071
510.4,15.0658,0.526142,-3.84228
511,15.0846,0.496235,-3.84381
511.6,15.1035,0.485705,-3.84415
512.2,15.1223,0.459091,-3.84503
512.8,15.1412,0.44638,-3.84648
513.4,15.1602,0.428657,-3.84703
514,15.1792,0.406987,-3.84792
514.6,15.1981,0.391112,-3.84789
515.2,15.2171,0.381513,-3.84869
515.8,15.2355,0.377844,-3.84914
516.4,15.2549,0.357652,-3.85006
517,15.274,0.358548,-3.85048
517.6,15.2928,0.351513,-3.85165
518.2,15.3118,0.344467,-3.85207
518.8,15.3312,0.333519,-3.85296
519.4,15.3499,0.329341,-3.853
520,15.3689,0.325382,-3.85339
520.6,15.3882,0.318269,-3.85327
521.2,15.4072,0.314511,-3.85462
521.8,15.4261,0.313595,-3.85469
522.4,15.4451,0.313749,-3.85469
523,15.4642,0.312747,-3.85469
523.6,15.4835,0.308426,-3.85469
524.2,15.5021,0.301365,-3.85469
524.8,15.5214,0.299525,-3.85527
525.4,15.5404,0.299756,-3.85603
526,15.5595,0.307015,-3.85601
526.6,15.5786,0.298418,-3.85568
527.2,15.5974,0.286384,-3.85568
527.8,15.6166,0.275132,-3.85572
528.4,15.6359,0.282387,-3.85451
529,15.6547,0.276133,-3.85437
529.6,15.6733,0.272045,-3.85436
530.2,15.693,0.267685,-3.85436
530.8,15.7119,0.269574,-3.85498
531.4,15.7313,0.269948,-3.85569
532,15.7493,0.272225,-3.85568
532.6,15.7688,0.272732,-3.85568
533.2,15.7883,0.268643,-3.85568
533.8,15.8077,0.264965,-3.85567
534.4,15.8265,0.269314,-3.85644
535,15.8457,0.263652,-3.85696
535.6,15.8649,0.258134,-3.85699
536.2,15.8841,0.26382,-3.85699
536.8,15.9031,0.260679,-3.85677
537.4,15.9224,0.261506,-3.85695
538,15.9417,0.257136,-3.857
538.6,15.9608,0.255143,-3.857
539.2,15.9799,0.253135,-3.857
539.8,15.9983,0.25385,-3.857
540.4,16.0178,0.250865,-3.857
541,16.0372,0.252585,-3.857
541.6,16.0563,0.253606,-3.85817
542.2,16.0756,0.248636,-3.8583
542.8,16.0947,0.252061,-3.85831
543.4,16.1133,0.262731,-3.85831
544,16.1332,0.25291,-3.85831
544.6,16.1522,0.253574,-3.85831
545.2,16.1713,0.258228,-3.85831
545.8,16.1905,0.257419,-3.85831
546.4,16.2094,0.251458,-3.8583
547,16.229,0.262154,-3.85695
547.6,16.2481,0.246085,-3.857
548.2,16.2673,0.247946,-3.857
548.8,16.2863,0.247051,-3.857
549.4,16.3054,0.243623,-3.85702
550,16.3248,0.239093,-3.85841
550.6,16.3439,0.244651,-3.85832
551.2,16.363,0.243453,-3.85832
551.8,16.3825,0.238436,-3.85832
552.4,16.4014,0.231633,-3.85831
553,16.4209,0.235824,-3.85892
553.6,16.4399,0.232349,-3.85797
554.2,16.4592,0.225709,-3.85799
554.8,16.4784,0.226003,-3.85799
555.4,16.4975,0.218908,-3.85799
556,16.5165,0.218529,-3.85799
556.6,16.5363,0.223691,-3.85794
557.2,16.555,0.214315,-3.85928
557.8,16.5745,0.218741,-3.85967
558.4,16.5937,0.22056,-3.85964
559,16.613,0.215173,-3.85964
559.6,16.6324,0.210495,-3.85959
560.2,16.6516,0.205635,-3.86091
560.8,16.6708,0.20274,-3.86243
561.4,16.6901,0.209531,-3.86387
562,16.7092,0.200632,-3.86379
562.6,16.7286,0.199499,-3.8637
563.2,16.7477,0.206307,-3.86226
563.8,16.7672,0.200049,-3.86161
564.4,16.7865,0.198777,-3.86083
565,16.8055,0.198177,-3.86084
565.6,16.8245,0.19649,-3.86084
566.2,16.8439,0.19882,-3.8597
566.8,16.8632,0.201417,-3.85954
567.4,16.8825,0.196032,-3.85952
568,16.9018,0.193457,-3.85952
568.6,16.9212,0.189222,-3.85952
569.2,16.9403,0.187956,-3.85952
569.8,16.9596,0.195357,-3.85952
570.4,16.9789,0.192604,-3.8595
571,16.9984,0.183606,-3.86028
571.6,17.0175,0.172843,-3.86049
572.2,17.0367,0.172161,-3.86051
572.8,17.056,0.175281,-3.86051
573.4,17.0753,0.17355,-3.86051
574,17.0945,0.167407,-3.86051
574.6,17.1139,0.169841,-3.86051
575.2,17.1331,0.174971,-3.86051
575.8,17.1526,0.164394,-3.86052
576.4,17.1716,0.159234,-3.86085
577,17.191,0.160292,-3.86217
577.6,17.2103,0.159756,-3.86216
578.2,17.2296,0.156183,-3.86216
578.8,17.2488,0.153906,-3.86219
579.4,17.2684,0.150148,-3.86131
580,17.2877,0.150564,-3.86076
580.6,17.307,0.147656,-3.86208
581.2,17.3261,0.139737,-3.86216
581.8,17.3455,0.132784,-3.86216
582.4,17.3649,0.124503,-3.86216
583,17.3844,0.119271,-3.86347
583.6,17.4035,0.117835,-3.86346
584.2,17.4227,0.120741,-3.86245
584.8,17.4424,0.11901,-3.8618
585.4,17.4617,0.121281,-3.86114
586,17.481,0.103141,-3.8605
586.6,17.5005,0.106521,-3.86051
587.2,17.5196,0.102349,-3.86051
587.8,17.5388,0.100012,-3.86144
588.4,17.5585,0.0998421,-3.86202
589,17.5776,0.101178,-3.86205
589.6,17.5971,0.0990684,-3.86205
590.2,17.6161,0.0917792,-3.862
590.8,17.636,0.0980492,-3.86277
591.4,17.6553,0.0947988,-3.86133
592,17.6745,0.0955412,-3.86139
592.6,17.6938,0.086704,-3.86139
593.2,17.7128,0.0761406,-3.86139
593.8,17.732,0.0696363,-3.86139
594.4,17.7522,0.0797374,-3.86139
595,17.7708,0.0769135,-3.86139
595.6,17.7906,0.0690142,-3.86139
596.2,17.8105,0.0750657,-3.86139
596.8,17.8297,0.0687051,-3.86139
597.4,17.8492,0.0630518,-3.86138
598,17.8684,0.0634222,-3.86132
598.6,17.888,0.0690382,-3.86325
599.2,17.9073,0.0580352,-3.86408
599.8,17.9267,0.0495077,-3.86525
600.4,17.9461,0.0506261,-3.86522
601,17.9654,0.049395,-3.86559
601.6,17.985,0.0493901,-3.86558
602.2,18.0045,0.0398439,-3.86459
602.8,18.0237,0.0408827,-3.86278
603.4,18.0431,0.0381009,-3.8615
604,18.0629,0.0399885,-3.86009
604.6,18.082,0.0363102,-3.86007
605.2,18.1016,0.029799,-3.86007
605.8,18.1209,0.0365391,-3.86007
606.4,18.1398,0.0318628,-3.86007
607,18.1598,0.0268799,-3.86007
607.6,18.1795,0.027532,-3.86007
608.2,18.1989,0.0175655,-3.8601
608.8,18.2184,0.0152779,-3.86064
609.4,18.2376,0.0186522,-3.86139
610,18.2572,0.0183026,-3.86138
610.6,18.2766,0.0166902,-3.86138
611.2,18.2961,0.00445566,-3.86137
611.8,18.3157,0.00746557,-3.86205
612.4,18.3351,0.0201151,-3.86268
613,18.3545,0.0156759,-3.8627
613.6,18.3739,0.0122027,-3.86276
614.2,18.3936,0.00736039,-3.86405
614.8,18.4132,0.0134954,-3.86402
615.4,18.4325,0.011366,-3.86402
616,18.4518,0.00823876,-3.86402
616.6,18.4716,3.17644e-05,-3.86402
617.2,18.4911,-0.000564924,-3.86402
617.8,18.5103,-0.00415685,-3.86402
618.4,18.5302,0.000874565,-3.86402
619,18.5493,-0.00278021,-3.86402
619.6,18.5692,-0.00445147,-3.86401
620.2,18.5887,-0.0125052,-3.86386
620.8,18.6081,-0.00280087,-3.863
621.4,18.6277,-0.00688464,-3.86331
622,18.6471,-0.0197969,-3.8644
622.6,18.6665,-0.0211166,-3.86435
623.2,18.6861,-0.0173132,-3.86435
623.8,18.7057,-0.0282624,-3.86435
624.4,18.7251,-0.0285806,-3.86435
625,18.7446,-0.0277523,-3.86435
625.6,18.7642,-0.0338731,-3.86434
626.2,18.7835,-0.0304375,-3.86431
626.8,18.8032,-0.0343448,-3.86301
627.4,18.8231,-0.0344363,-3.86303
628,18.8423,-0.0278216,-3.86303
628.6,18.8618,-0.0389457,-3.86303
629.2,18.8816,-0.0329173,-3.86303
629.8,18.901,-0.041498,-3.863
630.4,18.9205,-0.0444007,-3.86427
631,18.94,-0.0491906,-3.86434
631.6,18.9595,-0.0515091,-3.86435
632.2,18.9791,-0.0487346,-3.86434
632.8,18.9984,-0.0495446,-3.86409
633.4,19.0184,-0.0456234,-3.86403
634,19.0376,-0.0472385,-3.86402
634.6,19.0577,-0.0552047,-3.86402
635.2,19.0769,-0.0603165,-3.86402
635.8,19.0965,-0.063187,-3.86402
636.4,19.1161,-0.0537888,-3.86404
637,19.1355,-0.0628518,-3.86428
637.6,19.1552,-0.0606985,-3.86535
638.2,19.1747,-0.068622,-3.86541
638.8,19.1943,-0.0695202,-3.86415
639.4,19.2141,-0.0595648,-3.86403
640,19.2334,-0.0751608,-3.86403
640.6,19.2533,-0.0780422,-3.86403
641.2,19.2728,-0.0723747,-3.86402
641.8,19.2926,-0.0815602,-3.86271
642.4,19.312,-0.0795352,-3.86143
643,19.3316,-0.0714462,-3.86006
643.6,19.3513,-0.079341,-3.85982
644.2,19.3706,-0.0745024,-3.86191
644.8,19.3903,-0.0679023,-3.86416
645.4,19.4099,-0.074366,-3.86648
646,19.4295,-0.0764306,-3.86655
646.6,19.4492,-0.080631,-3.86655
647.2,19.4689,-0.0782685,-3.86655
647.8,19.4881,-0.0782655,-3.86655
648.4,19.5079,-0.0810341,-3.86655
649,19.5275,-0.0769916,-3.86655
649.6,19.5471,-0.0758632,-3.8666
650.2,19.5664,-0.0814656,-3.86542
650.8,19.5864,-0.0845786,-3.86524
651.4,19.6059,-0.089984,-3.86523
652,19.6254,-0.0903565,-3.86523
652.6,19.6451,-0.0909251,-3.86523
653.2,19.6646,-0.0912998,-3.86523
653.8,19.6842,-0.0951313,-3.86523
654.4,19.7041,-0.0935375,-3.86523
655,19.7234,-0.100214,-3.86522
655.6,19.743,-0.096713,-3.86509
656.2,19.7627,-0.0865047,-3.86387
656.8,19.7824,-0.0924616,-3.86358
657.4,19.8021,-0.098417,-3.86194
658,19.8216,-0.0961291,-3.86066
658.6,19.8415,-0.10171,-3.86183
659.2,19.8612,-0.0992911,-3.86376
659.8,19.8805,-0.0990978,-3.86507
660.4,19.9004,-0.104094,-3.86614
661,19.9196,-0.100455,-3.86611
661.6,19.9396,-0.102737,-3.86611
662.2,19.9593,-0.103594,-3.86611
662.8,19.9788,-0.106483,-3.86611
663.4,19.9984,-0.111664,-3.86611
664,20.0181,-0.117077,-3.86611
664.6,20.0376,-0.120579,-3.86611
665.2,20.0573,-0.123528,-3.86611
665.8,20.077,-0.120009,-3.86611
666.4,20.0963,-0.115216,-3.86611
667,20.1159,-0.123488,-3.86611
667.6,20.1357,-0.125728,-3.86611
668.2,20.1554,-0.128222,-3.86611
668.8,20.1754,-0.129294,-3.86611
669.4,20.1948,-0.122771,-3.86611
670,20.2146,-0.125593,-3.86611
670.6,20.2343,-0.130259,-3.86611
671.2,20.2537,-0.128566,-3.86611
671.8,20.2735,-0.135882,-3.86611
672.4,20.2929,-0.139382,-3.86612
673,20.3128,-0.131154,-3.86544
673.6,20.3326,-0.136614,-3.86549
674.2,20.352,-0.146628,-3.86474
674.8,20.3718,-0.143462,-3.86479
675.4,20.3915,-0.133172,-3.86479
676,20.4113,-0.140767,-3.86475
676.6,20.4313,-0.145949,-3.86411
677.2,20.4506,-0.141905,-3.86413
677.8,20.4703,-0.141709,-3.86409
678.4,20.4899,-0.142647,-3.86535
679,20.5096,-0.145393,-3.86544
679.6,20.5293,-0.140968,-3.86545
680.2,20.5491,-0.151447,-3.86545
680.8,20.5683,-0.149711,-3.86545
681.4,20.5885,-0.150903,-3.86545
682,20.608,-0.15235,-3.86545
682.6,20.6276,-0.154447,-3.86545
683.2,20.6472,-0.151084,-3.86545
683.8,20.6668,-0.150575,-3.8654
684.4,20.6869,-0.163162,-3.86647
685,20.7063,-0.159456,-3.86675
685.6,20.726,-0.155336,-3.86676
686.2,20.7459,-0.162037,-3.86676
686.8,20.7653,-0.162736,-3.86676
687.4,20.7853,-0.164987,-3.86676
688,20.8047,-0.167406,-3.86676
688.6,20.8245,-0.157675,-3.86676
689.2,20.8442,-0.171357,-3.86676
689.8,20.8638,-0.168818,-3.86677
690.4,20.8835,-0.173279,-3.86587
691,20.9033,-0.169495,-3.86547
691.6,20.923,-0.161871,-3.86545
692.2,20.9428,-0.174361,-3.86547
692.8,20.9623,-0.170256,-3.86644
693.4,20.9823,-0.171139,-3.86644
694,21.0019,-0.178664,-3.86644
694.6,21.0218,-0.166333,-3.86644
695.2,21.0413,-0.175184,-3.86642
695.8,21.0608,-0.17249,-3.86678
696.4,21.0807,-0.180269,-3.86678
697,21.1007,-0.181974,-3.86729
697.6,21.1203,-0.186955,-3.86811
698.2,21.1401,-0.183788,-3.86809
698.8,21.1597,-0.18093,-3.86809
699.4,21.1795,-0.178589,-3.86809
700,21.1993,-0.181212,-3.86809
700.6,21.219,-0.172255,-3.86809
701.2,21.2389,-0.177412,-3.86809
701.8,21.2587,-0.18334,-3.86809
702.4,21.2784,-0.175938,-3.86807
703,21.298,-0.180883,-3.86743
703.6,21.3179,-0.181764,-3.86743
704.2,21.3376,-0.186616,-3.86743
704.8,21.3574,-0.178777,-3.86743
705.4,21.3768,-0.190212,-3.86717
706,21.3969,-0.187885,-3.86717
706.6,21.4169,-0.180677,-3.8681
707.2,21.4364,-0.191769,-3.86809
707.8,21.4564,-0.183892,-3.86809
708.4,21.4756,-0.195214,-3.86809
709,21.4957,-0.182398,-3.86807
709.6,21.5158,-0.185268,-3.86732
710.2,21.5356,-0.192843,-3.86673
710.8,21.5554,-0.192834,-3.86768
711.4,21.5751,-0.200278,-3.86807
712,21.5947,-0.205061,-3.86821
712.6,21.6147,-0.201204,-3.86946
713.2,21.6342,-0.196245,-3.8694
713.8,21.6543,-0.199283,-3.8694
714.4,21.6739,-0.204858,-3.8694
715,21.6937,-0.209967,-3.8694
715.6,21.7137,-0.211183,-3.86931
716.2,21.7334,-0.21181,-3.86799
716.8,21.7534,-0.212599,-3.86807
717.4,21.773,-0.216836,-3.86808
718,21.793,-0.215334,-3.86808
718.6,21.8126,-0.211945,-3.86808
719.2,21.8321,-0.21502,-3.86808
719.8,21.8524,-0.219266,-3.86808
720.4,21.8723,-0.215359,-3.86808
721,21.8919,-0.210324,-3.86937
721.6,21.9116,-0.218911,-3.8694
722.2,21.9318,-0.222312,-3.86941
722.8,21.9515,-0.226064,-3.86871
723.4,21.9713,-0.224229,-3.8681
724,21.991,-0.224709,-3.86807
724.6,22.0109,-0.226483,-3.86783
725.2,22.0308,-0.229245,-3.86797
725.8,22.0507,-0.226128,-3.86808
726.4,22.0703,-0.22427,-3.86809
727,22.0902,-0.225003,-3.86809
727.6,22.1103,-0.226444,-3.86809
728.2,22.13,-0.231276,-3.86809
728.8,22.1497,-0.230892,-3.86809
729.4,22.1697,-0.241156,-3.86809
730,22.1895,-0.237294,-3.86809
730.6,22.2091,-0.235065,-3.86809
731.2,22.2292,-0.236243,-3.86808
731.8,22.2489,-0.241569,-3.86799
732.4,22.269,-0.238088,-3.86938
733,22.2887,-0.238933,-3.86941
733.6,22.3086,-0.23307,-3.86941
734.2,22.3283,-0.238279,-3.86941
734.8,22.3482,-0.245073,-3.86941
735.4,22.3677,-0.243231,-3.86941
736,22.3878,-0.236919,-3.86941
736.6,22.4077,-0.249119,-3.86941
737.2,22.4273,-0.250442,-3.86917
737.8,22.4475,-0.247107,-3.86948
738.4,22.4673,-0.244398,-3.86937
739,22.4873,-0.244839,-3.8711
739.6,22.5068,-0.244374,-3.8729
740.2,22.5267,-0.250978,-3.87291
740.8,22.5464,-0.250924,-3.87123
741.4,22.5664,-0.255215,-3.87016
742,22.5863,-0.250103,-3.86961
742.6,22.6061,-0.254872,-3.86958
743.2,22.6261,-0.258053,-3.87065
743.8,22.6459,-0.25317,-3.86963
744.4,22.6659,-0.267106,-3.8696
745,22.6854,-0.259541,-3.86934
745.6,22.7054,-0.258246,-3.86808
746.2,22.7247,-0.255345,-3.86887
746.8,22.7452,-0.262503,-3.86944
747.4,22.765,-0.269147,-3.87176
748,22.7847,-0.266915,-3.87239
748.6,22.8048,-0.266944,-3.87238
749.2,22.8247,-0.265141,-3.87254
749.8,22.8445,-0.263742,-3.87326
750.4,22.8647,-0.267329,-3.87234
751,22.8843,-0.267118,-3.87221
751.6,22.904,-0.265985,-3.87099
752.2,22.9241,-0.262021,-3.87102
752.8,22.9439,-0.262367,-3.87176
753.4,22.9639,-0.261246,-3.87169
754,22.9837,-0.261513,-3.87241
754.6,23.0035,-0.265814,-3.87237
755.2,23.0233,-0.252399,-3.87237
755.8,23.0434,-0.25373,-3.87237
756.4,23.0634,-0.255518,-3.87237
757,23.0831,-0.245163,-3.8724
757.6,23.1029,-0.255744,-3.87335
758.2,23.123,-0.254231,-3.87335
758.8,23.1429,-0.249614,-3.87335
759.4,23.1628,-0.25586,-3.87341
760,23.1829,-0.255478,-3.87246
760.6,23.2027,-0.251897,-3.87234
761.2,23.2226,-0.249828,-3.87236
761.8,23.2428,-0.249052,-3.87236
762.4,23.2627,-0.25111,-3.87236
763,23.2825,-0.24949,-3.87228
763.6,23.3024,-0.252767,-3.87097
764.2,23.3223,-0.249814,-3.87104
764.8,23.3422,-0.247723,-3.87105
765.4,23.3621,-0.244781,-3.87105
766,23.3819,-0.238998,-3.87105
766.6,23.402,-0.247098,-3.87105
767.2,23.4221,-0.242619,-3.87105
767.8,23.4419,-0.246618,-3.87134
768.4,23.4618,-0.24239,-3.87238
769,23.4821,-0.242163,-3.87237
769.6,23.5013,-0.238831,-3.87238
770.2,23.5213,-0.237148,-3.8715
770.8,23.5418,-0.239013,-3.87107
771.4,23.5618,-0.239319,-3.87105
772,23.5816,-0.238693,-3.87105
772.6,23.6014,-0.235904,-3.87105
773.2,23.6217,-0.230649,-3.87103
773.8,23.6416,-0.233852,-3.87234
774.4,23.6614,-0.233194,-3.87237
775,23.6814,-0.227336,-3.87237
775.6,23.7014,-0.217768,-3.87237
776.2,23.7215,-0.228198,-3.87237
776.8,23.7412,-0.2277,-3.87237
777.4,23.7614,-0.221425,-3.87237
778,23.7813,-0.220612,-3.87236
778.6,23.8011,-0.226313,-3.87301
779.2,23.821,-0.230341,-3.87303
779.8,23.841,-0.226621,-3.87303
780.4,23.8613,-0.226196,-3.87304
781,23.8809,-0.222328,-3.87226
781.6,23.901,-0.225545,-3.87174
782.2,23.9211,-0.223311,-3.87172
782.8,23.9408,-0.231388,-3.87228
783.4,23.9607,-0.228768,-3.87215
784,23.9811,-0.226613,-3.871
784.6,24.0008,-0.222221,-3.87105
785.2,24.0208,-0.227079,-3.87105
785.8,24.0408,-0.230752,-3.87126
786.4,24.0605,-0.229117,-3.8724
787,24.0811,-0.226869,-3.87236
787.6,24.1007,-0.2204,-3.87236
788.2,24.1209,-0.224038,-3.87236
788.8,24.1411,-0.225328,-3.87236
789.4,24.1608,-0.225997,-3.87236
790,24.1813,-0.230215,-3.87236