File: 01_Data/Helmet_Shield_Bracket/STA/N2/30K_min/Helmet_Shield_Bracket_STA_N2_30KData_250520_R1.csv
Temp./C,Time/min,DSC/(mW/mg),Mass loss/mg
40.0,0.0,1.50954,-0.0133889
40.6,0.0381259,1.58063,-0.0132773
41.2,0.0747078,1.65419,-0.0137079
41.8,0.111065,1.71385,-0.0139034
42.4,0.146131,1.77097,-0.0154867
43,0.179659,1.84279,-0.0159085
43.6,0.213564,1.89045,-0.014493
44.2,0.247552,1.95225,-0.0153127
44.8,0.279706,2.0105,-0.0157067
45.4,0.312882,2.06221,-0.0149374
46,0.343267,2.11726,-0.015558
46.6,0.374022,2.17352,-0.0151969
47.2,0.404579,2.22694,-0.0146516
47.8,0.435294,2.27805,-0.0145294
48.4,0.464597,2.32781,-0.0145553
49,0.49396,2.3876,-0.0156615
49.6,0.522725,2.42899,-0.0152144
50.2,0.551378,2.47431,-0.0160055
50.8,0.580068,2.51823,-0.0164289
51.4,0.607919,2.5742,-0.0172079
52,0.635765,2.62169,-0.0176854
52.6,0.66367,2.65571,-0.0182474
53.2,0.691124,2.71323,-0.0177284
53.8,0.718363,2.75095,-0.017733
54.4,0.745371,2.79449,-0.0179192
55,0.771993,2.84347,-0.0175521
55.6,0.798294,2.87314,-0.0160316
56.2,0.822743,2.90985,-0.0165326
56.8,0.850396,2.95443,-0.0169473
57.4,0.876991,3.01096,-0.0172459
58,0.902749,3.04251,-0.0183453
58.6,0.928233,3.08831,-0.018081
59.2,0.953554,3.12559,-0.0181172
59.8,0.978937,3.15403,-0.0183151
60.4,1.00448,3.2011,-0.0191295
61,1.02963,3.24125,-0.0192257
61.6,1.05486,3.27438,-0.0186384
62.2,1.07992,3.31014,-0.0190521
62.8,1.10435,3.34085,-0.0191054
63.4,1.12893,3.38643,-0.0196308
64,1.1538,3.42461,-0.0212344
64.6,1.1779,3.46052,-0.0215755
65.2,1.20248,3.49043,-0.0218092
65.8,1.22643,3.52038,-0.0216463
66.4,1.25069,3.54124,-0.0227985
67,1.27465,3.58125,-0.0228356
67.6,1.29752,3.62019,-0.0230194
68.2,1.32166,3.64719,-0.0236175
68.8,1.34647,3.67815,-0.0240489
69.4,1.37039,3.71666,-0.024059
70,1.39413,3.74072,-0.0237695
70.6,1.41797,3.77546,-0.0240541
71.2,1.44113,3.80503,-0.0245442
71.8,1.46476,3.82581,-0.0239886
72.4,1.48804,3.85365,-0.0245977
73,1.51163,3.88489,-0.0260906
73.6,1.53464,3.90803,-0.0266425
74.2,1.55778,3.94808,-0.0262636
74.8,1.58124,3.97843,-0.0262888
75.4,1.60423,4.00363,-0.0257569
76,1.62715,4.03707,-0.0262204
76.6,1.65071,4.07096,-0.0265579
77.2,1.67357,4.08594,-0.0262483
77.8,1.69622,4.11284,-0.0278664
78.4,1.71912,4.15045,-0.027106
79,1.74166,4.17909,-0.0278149
79.6,1.76488,4.20567,-0.0277537
80.2,1.78758,4.23028,-0.0279587
80.8,1.80989,4.24955,-0.0293102
81.4,1.83273,4.2907,-0.0294698
82,1.855,4.31187,-0.0295307
82.6,1.87748,4.32856,-0.0308655
83.2,1.89969,4.36039,-0.0308631
83.8,1.92207,4.38272,-0.0295195
84.4,1.94427,4.40816,-0.0306922
85,1.96649,4.43811,-0.0294886
85.6,1.98827,4.45911,-0.0310758
86.2,2.01083,4.49073,-0.0309915
86.8,2.03219,4.51925,-0.0323437
87.4,2.05467,4.54124,-0.0317641
88,2.07677,4.56313,-0.0324202
88.6,2.09835,4.58537,-0.0325353
89.2,2.12014,4.61155,-0.0337137
89.8,2.14174,4.62678,-0.0336306
90.4,2.16344,4.65214,-0.0336536
91,2.18491,4.68347,-0.0337037
91.6,2.20642,4.70403,-0.0349682
92.2,2.22776,4.72513,-0.0350251
92.8,2.24958,4.74111,-0.0350315
93.4,2.27049,4.7538,-0.0364717
94,2.29186,4.77554,-0.0353223
94.6,2.31354,4.79576,-0.0366028
95.2,2.33427,4.81338,-0.0365795
95.8,2.35577,4.82527,-0.0374033
96.4,2.37688,4.83651,-0.0378819
97,2.39832,4.84804,-0.0379983
97.6,2.419,4.8635,-0.0391911
98.2,2.44028,4.87769,-0.0391243
98.8,2.46137,4.87955,-0.0404132
99.4,2.48245,4.89103,-0.040508
100,2.5031,4.90505,-0.0405094
100.6,2.52397,4.91067,-0.0405034
101.2,2.5449,4.92006,-0.0417753
101.8,2.56591,4.92421,-0.0418295
102.4,2.58666,4.92995,-0.0418319
103,2.60713,4.93229,-0.0428456
103.6,2.62803,4.94036,-0.0425076
104.2,2.64852,4.94021,-0.0424871
104.8,2.66954,4.94509,-0.0424169
105.4,2.69009,4.94876,-0.0437263
106,2.71059,4.96016,-0.0437984
106.6,2.73125,4.95657,-0.043802
107.2,2.75225,4.95425,-0.0438284
107.8,2.77237,4.96501,-0.0445364
108.4,2.79268,4.96949,-0.0451213
109,2.81322,4.98105,-0.0451171
109.6,2.83385,4.98574,-0.0450909
110.2,2.85449,4.99079,-0.0464182
110.8,2.87453,4.9921,-0.0464396
111.4,2.89525,4.99356,-0.04644
112,2.91569,4.99675,-0.0464398
112.6,2.93613,5.00635,-0.046437
113.2,2.95636,5.01691,-0.0463953
113.8,2.97644,5.01456,-0.0479884
114.4,2.99669,5.02228,-0.0490415
115,3.01697,5.0222,-0.0490767
115.6,3.03726,5.02733,-0.0490754
116.2,3.05782,5.02935,-0.0490328
116.8,3.07745,5.04923,-0.0502855
117.4,3.09791,5.05147,-0.0503875
118,3.11831,5.06079,-0.0503898
118.6,3.13859,5.06235,-0.05039
119.2,3.15821,5.06602,-0.0503901
119.8,3.17866,5.07101,-0.0503909
120.4,3.19811,5.07929,-0.0504019
121,3.21855,5.09084,-0.0506673
121.6,3.23832,5.09768,-0.0517587
122.2,3.25852,5.09148,-0.0517134
122.8,3.27829,5.10577,-0.05171
123.4,3.29803,5.11001,-0.0517062
124,3.31822,5.1058,-0.0516561
124.6,3.33779,5.11681,-0.0527339
125.2,3.35795,5.12138,-0.0541334
125.8,3.37784,5.11738,-0.0543386
126.4,3.39768,5.12893,-0.0543501
127,3.41754,5.13546,-0.054364
127.6,3.43685,5.14655,-0.054591
128.2,3.45576,5.1493,-0.0557082
128.8,3.47658,5.14472,-0.0556648
129.4,3.49577,5.15236,-0.0556813
130,3.51585,5.15585,-0.0559436
130.6,3.53501,5.1665,-0.0566166
131.2,3.55478,5.16848,-0.0565955
131.8,3.5741,5.17868,-0.057792
132.4,3.59284,5.17206,-0.0579598
133,3.61387,5.19036,-0.0579599
133.6,3.6329,5.1902,-0.0579597
134.2,3.65231,5.19832,-0.0579589
134.8,3.67158,5.1966,-0.056679
135.4,3.69106,5.20081,-0.0566461
136,3.71021,5.2142,-0.0569901
136.6,3.72951,5.21181,-0.0569826
137.2,3.74892,5.21436,-0.0570065
137.8,3.76806,5.22483,-0.0575611
138.4,3.78758,5.22608,-0.0582959
139,3.80628,5.23156,-0.0583041
139.6,3.82578,5.23618,-0.0585564
140.2,3.84505,5.25336,-0.0596638
140.8,3.86443,5.25394,-0.0596141
141.4,3.88355,5.26731,-0.0596103
142,3.90191,5.27437,-0.0596101
142.6,3.92152,5.27265,-0.0596104
143.2,3.94052,5.28186,-0.0596074
143.8,3.96028,5.2889,-0.0595294
144.4,3.97871,5.29742,-0.0609202
145,3.99794,5.30082,-0.0608294
145.6,4.01674,5.30145,-0.0620217
146.2,4.03588,5.31286,-0.0619275
146.8,4.05521,5.32291,-0.0619205
147.4,4.07356,5.32094,-0.06192
148,4.09275,5.32412,-0.06192
148.6,4.11138,5.32358,-0.0619199
149.2,4.13052,5.33459,-0.0619185
149.8,4.14953,5.34282,-0.0619244
150.4,4.16849,5.34785,-0.0615814
151,4.18703,5.35289,-0.0615888
151.6,4.20616,5.35494,-0.0615899
152.2,4.22491,5.35987,-0.06159
152.8,4.24344,5.37049,-0.0615896
153.4,4.26241,5.36766,-0.0615855
154,4.28147,5.39258,-0.0615542
154.6,4.29978,5.39537,-0.0626342
155.2,4.31875,5.40318,-0.0629001
155.8,4.33744,5.41062,-0.0629001
156.4,4.3561,5.41593,-0.0629
157,4.37484,5.42181,-0.0629
157.6,4.39379,5.42508,-0.0629
158.2,4.41261,5.44125,-0.0629
158.8,4.43112,5.44818,-0.0629
159.4,4.44971,5.45391,-0.0629006
160,4.46863,5.45295,-0.0629097
160.6,4.48712,5.46393,-0.0630684
161.2,4.50579,5.47206,-0.063222
161.8,4.52447,5.48466,-0.0632427
162.4,4.54318,5.49223,-0.0633167
163,4.56188,5.49942,-0.0642189
163.6,4.58037,5.51753,-0.064192
164.2,4.59923,5.5225,-0.0651881
164.8,4.61759,5.52469,-0.065543
165.4,4.63577,5.53766,-0.0655403
166,4.6548,5.55039,-0.06554
166.6,4.67321,5.56585,-0.06554
167.2,4.6915,5.58081,-0.06554
167.8,4.71054,5.58633,-0.06554
168.4,4.72913,5.58866,-0.06554
169,4.7477,5.59386,-0.06554
169.6,4.76604,5.60412,-0.0655405
170.2,4.78471,5.61954,-0.065545
170.8,4.80337,5.62688,-0.0655738
171.4,4.82179,5.64218,-0.0658715
172,4.8401,5.64919,-0.0658709
172.6,4.85875,5.65555,-0.0658695
173.2,4.87726,5.6659,-0.0658613
173.8,4.89584,5.67791,-0.0665912
174.4,4.9144,5.68772,-0.0671669
175,4.93262,5.69745,-0.0671896
175.6,4.95108,5.71271,-0.067187
176.2,4.96946,5.72389,-0.0671068
176.8,4.98786,5.73214,-0.0684455
177.4,5.00624,5.74124,-0.0684972
178,5.02476,5.75201,-0.0684998
178.6,5.04295,5.76354,-0.0685
179.2,5.06136,5.77723,-0.0685
179.8,5.07986,5.79508,-0.0685
180.4,5.09834,5.80259,-0.0685
181,5.1162,5.81714,-0.0685001
181.6,5.13482,5.82411,-0.0685011
182.2,5.15344,5.82802,-0.0685073
182.8,5.17134,5.84787,-0.0697769
183.4,5.18987,5.86152,-0.0698088
184,5.20799,5.86822,-0.0698179
184.6,5.22621,5.87427,-0.069833
185.2,5.24446,5.88368,-0.0711097
185.8,5.26279,5.8997,-0.0720929
186.4,5.28067,5.91889,-0.0721301
187,5.29909,5.93417,-0.0721302
187.6,5.31717,5.94835,-0.07213
188.2,5.33545,5.95461,-0.07213
188.8,5.35366,5.9628,-0.07213
189.4,5.37108,5.97262,-0.07213
190,5.39054,5.97741,-0.0721298
190.6,5.4084,6.00116,-0.0721264
191.2,5.42655,6.01326,-0.0720886
191.8,5.44462,6.02531,-0.0730071
192.4,5.46309,6.03968,-0.0734191
193,5.48083,6.05293,-0.0731893
193.6,5.49896,6.05948,-0.0720248
194.2,5.51739,6.07232,-0.0733856
194.8,5.53549,6.08558,-0.0734383
195.4,5.55348,6.10272,-0.0734399
196,5.57158,6.10525,-0.07344
196.6,5.58954,6.11613,-0.07344
197.2,5.6078,6.14403,-0.0734397
197.8,5.62566,6.16423,-0.0734371
198.4,5.64407,6.17321,-0.0734185
199,5.6621,6.18801,-0.0741052
199.6,5.68023,6.2014,-0.0747776
200.2,5.69801,6.21564,-0.0747596
200.8,5.7154,6.231,-0.0742364
201.4,5.73377,6.24642,-0.0737574
202,5.75255,6.268,-0.0737689
202.6,5.77028,6.27408,-0.0737707
203.2,5.78829,6.28844,-0.0737852
203.8,5.80649,6.30964,-0.0739955
204.4,5.82435,6.31519,-0.0751316
205,5.84234,6.3352,-0.0750906
205.6,5.8603,6.35412,-0.0750898
206.2,5.87848,6.38113,-0.0750921
206.8,5.89689,6.38135,-0.0751529
207.4,5.91446,6.40322,-0.0764868
208,5.93236,6.42304,-0.0764112
208.6,5.95062,6.44612,-0.0764094
209.2,5.96865,6.45651,-0.0764063
209.8,5.98646,6.48489,-0.0763683
210.4,6.0046,6.49105,-0.0772733
211,6.02266,6.50703,-0.0777154
211.6,6.0405,6.53889,-0.0777207
212.2,6.05824,6.55994,-0.0777132
212.8,6.07656,6.56695,-0.0776297
213.4,6.09433,6.58664,-0.0788607
214,6.11213,6.59722,-0.0790399
214.6,6.13054,6.61965,-0.0790358
215.2,6.1482,6.62122,-0.0789412
215.8,6.16602,6.6367,-0.0802439
216.4,6.18339,6.6565,-0.0803578
217,6.20232,6.67711,-0.0803601
217.6,6.2201,6.70128,-0.0803603
218.2,6.23803,6.71479,-0.0803535
218.8,6.25604,6.75048,-0.0801297
219.4,6.27432,6.77244,-0.080007
220,6.29213,6.80435,-0.081038
220.6,6.30994,6.82755,-0.0813628
221.2,6.32815,6.85347,-0.0813604
221.8,6.34597,6.89536,-0.08136
222.4,6.3643,6.94067,-0.08136
223,6.38195,6.96012,-0.08136
223.6,6.40012,7.02455,-0.0813609
224.2,6.41777,7.05884,-0.0814374
224.8,6.436,7.11615,-0.0827631
225.4,6.45414,7.1967,-0.0826825
226,6.47188,7.27719,-0.0826647
226.6,6.49084,7.40428,-0.0839461
227.2,6.50931,7.54436,-0.0839826
227.8,6.52752,7.70491,-0.0839892
228.4,6.54636,7.90089,-0.0839871
229,6.56484,8.14237,-0.0835771
229.6,6.58379,8.38982,-0.0837529
230.2,6.60232,8.63912,-0.0839843
230.8,6.62107,8.89746,-0.0839896
231.4,6.63989,9.16634,-0.08399
232,6.65841,9.43098,-0.08399
232.6,6.67768,9.7058,-0.08399
233.2,6.69629,9.9742,-0.08399
233.8,6.71521,10.2438,-0.08399
234.4,6.73393,10.5278,-0.08399
235,6.75282,10.8175,-0.0839899
235.6,6.77185,11.1254,-0.0839903
236.2,6.7908,11.4389,-0.0842305
236.8,6.80971,11.7575,-0.0853525
237.4,6.82883,12.0952,-0.0853144
238,6.84827,12.4507,-0.0853103
238.6,6.867,12.8067,-0.0853096
239.2,6.88641,13.1641,-0.0853042
239.8,6.90515,13.5101,-0.0852519
240.4,6.92431,13.8201,-0.0864481
241,6.94336,14.0523,-0.0866188
241.6,6.96094,14.0824,-0.0866201
242.2,6.97764,13.8458,-0.08662
242.8,6.99364,13.3312,-0.08662
243.4,7.00952,12.6543,-0.08662
244,7.02514,12.0067,-0.0866199
244.6,7.04105,11.4123,-0.086619
245.2,7.05693,10.8953,-0.086617
245.8,7.07336,10.4305,-0.0854102
246.4,7.08982,10.0008,-0.0853321
247,7.10633,9.62987,-0.0855256
247.6,7.12291,9.29265,-0.0867125
248.2,7.13962,8.98634,-0.0879161
248.8,7.15626,8.71673,-0.0879303
249.4,7.17328,8.47248,-0.0879391
250,7.19013,8.26526,-0.0879399
250.6,7.20731,8.0801,-0.0879398
251.2,7.22389,7.90388,-0.0879385
251.8,7.24146,7.74586,-0.0879421
252.4,7.25906,7.59139,-0.088331
253,7.2762,7.46296,-0.0892164
253.6,7.2936,7.3641,-0.0882541
254.2,7.31101,7.26247,-0.0882645
254.8,7.32803,7.15862,-0.0882691
255.4,7.34545,7.0865,-0.0882675
256,7.36293,7.03248,-0.0882622
256.6,7.38044,6.9794,-0.0887962
257.2,7.39807,6.93119,-0.0896209
257.8,7.41542,6.87957,-0.0895837
258.4,7.43317,6.84325,-0.0895802
259,7.45031,6.80277,-0.0895796
259.6,7.46809,6.76361,-0.0895729
260.2,7.48573,6.73441,-0.0895085
260.8,7.50321,6.70537,-0.0906583
261.4,7.52101,6.67583,-0.0909014
262,7.53835,6.65704,-0.0909003
262.6,7.55615,6.6319,-0.0908994
263.2,7.57436,6.60487,-0.0908941
263.8,7.59139,6.6027,-0.090898
264.4,7.60901,6.592,-0.0905517
265,7.62673,6.57537,-0.0905675
265.6,7.64423,6.5753,-0.0905666
266.2,7.66239,6.5587,-0.0905641
266.8,7.67982,6.55036,-0.0913465
267.4,7.69737,6.54312,-0.0918984
268,7.71495,6.54692,-0.0919347
268.6,7.73272,6.54314,-0.0910718
269.2,7.75041,6.54291,-0.0905876
269.8,7.76788,6.541,-0.0911354
270.4,7.78617,6.53677,-0.0919003
271,7.80341,6.54497,-0.0918904
271.6,7.82153,6.55295,-0.09189
272.2,7.83882,6.553,-0.09189
272.8,7.8568,6.54867,-0.0918897
273.4,7.8742,6.55505,-0.0918884
274,7.89198,6.55329,-0.0918905
274.6,7.90968,6.55031,-0.0923554
275.2,7.92742,6.55275,-0.0932409
275.8,7.94522,6.56044,-0.0932039
276.4,7.96267,6.56225,-0.0932001
277,7.98076,6.5592,-0.0932
277.6,7.99826,6.5606,-0.0932
278.2,8.01612,6.56979,-0.0932001
278.8,8.03365,6.56046,-0.0932005
279.4,8.0514,6.55932,-0.0931993
280,8.06917,6.56067,-0.0931413
280.6,8.08694,6.5697,-0.093897
281.2,8.10452,6.57613,-0.0931436
281.8,8.1226,6.57825,-0.0932069
282.4,8.14033,6.58716,-0.0932205
283,8.15823,6.59858,-0.0935617
283.6,8.17575,6.60347,-0.0945794
284.2,8.19355,6.60501,-0.0945324
284.8,8.21135,6.61609,-0.0945298
285.4,8.22916,6.62946,-0.094525
286,8.24687,6.63484,-0.0944648
286.6,8.2647,6.64068,-0.0952546
287.2,8.2826,6.64469,-0.0951911
287.8,8.30035,6.66143,-0.0952028
288.4,8.3181,6.66805,-0.0956048
289,8.33567,6.68843,-0.0958297
289.6,8.35372,6.7088,-0.095849
290.2,8.37111,6.7199,-0.0958501
290.8,8.38935,6.72654,-0.09585
291.4,8.40687,6.74704,-0.09585
292,8.42453,6.76166,-0.0958497
292.6,8.44277,6.78161,-0.0958489
293.2,8.4605,6.80547,-0.0960711
293.8,8.47833,6.82322,-0.0972302
294.4,8.49574,6.84272,-0.0971864
295,8.51416,6.86114,-0.0973137
295.6,8.53169,6.8727,-0.0984811
296.2,8.54948,6.88754,-0.098573
296.8,8.5672,6.90083,-0.097237
297.4,8.58531,6.92182,-0.0971617
298,8.603,6.94259,-0.0971602
298.6,8.62088,6.97144,-0.0971581
299.2,8.63867,7.00774,-0.0971111
299.8,8.65678,7.03582,-0.0982915
300.4,8.67436,7.06218,-0.0986398
301,8.69228,7.09321,-0.0997091
301.6,8.71004,7.11872,-0.100023
302.2,8.72803,7.14503,-0.100014
302.8,8.74624,7.17687,-0.0999469
303.4,8.76366,7.21311,-0.101115
304,8.78166,7.24603,-0.1018
304.6,8.79969,7.28441,-0.102653
305.2,8.81752,7.31658,-0.103738
305.8,8.83531,7.3552,-0.103953
306.4,8.85337,7.38978,-0.103957
307,8.87099,7.43349,-0.10455
307.6,8.88908,7.48297,-0.105424
308.2,8.90704,7.53143,-0.104662
308.8,8.92486,7.56978,-0.105453
309.4,8.94306,7.64156,-0.106695
310,8.96094,7.68146,-0.10728
310.6,8.97889,7.74087,-0.108675
311.2,8.99678,7.79312,-0.109009
311.8,9.01504,7.85819,-0.110037
312.4,9.03315,7.90981,-0.111587
313,9.05104,7.98068,-0.11253
313.6,9.06902,8.05096,-0.113202
314.2,9.08694,8.11684,-0.114694
314.8,9.10515,8.1893,-0.115643
315.4,9.12322,8.26501,-0.116748
316,9.14101,8.34331,-0.118202
316.6,9.15935,8.41795,-0.120017
317.2,9.17751,8.49984,-0.121497
317.8,9.19548,8.5837,-0.123144
318.4,9.21338,8.6684,-0.124854
319,9.23155,8.75244,-0.126431
319.6,9.24978,8.84382,-0.127942
320.2,9.26791,8.94898,-0.12921
320.8,9.28616,9.03995,-0.131037
321.4,9.3042,9.14762,-0.13234
322,9.3225,9.25159,-0.134092
322.6,9.34066,9.36105,-0.136066
323.2,9.35904,9.48199,-0.137846
323.8,9.37708,9.59551,-0.139555
324.4,9.39532,9.72401,-0.141338
325,9.41363,9.85825,-0.14387
325.6,9.43216,9.99772,-0.146354
326.2,9.4505,10.1398,-0.149351
326.8,9.46869,10.2912,-0.151982
327.4,9.48712,10.4515,-0.153886
328,9.50543,10.6125,-0.155813
328.6,9.52398,10.777,-0.158308
329.2,9.54246,10.9426,-0.161772
329.8,9.56134,11.1312,-0.165426
330.4,9.57969,11.3335,-0.16747
331,9.59806,11.5292,-0.169891
331.6,9.61684,11.7225,-0.173518
332.2,9.63524,11.9262,-0.176855
332.8,9.65383,12.1403,-0.180583
333.4,9.67235,12.3491,-0.183935
334,9.69102,12.5724,-0.187994
334.6,9.70963,12.7952,-0.192153
335.2,9.72857,13.0398,-0.195355
335.8,9.74746,13.2906,-0.199229
336.4,9.76605,13.5461,-0.203776
337,9.78499,13.8139,-0.207602
337.6,9.8037,14.0604,-0.210435
338.2,9.82245,14.3156,-0.21518
338.8,9.84148,14.5689,-0.220684
339.4,9.85997,14.8076,-0.226554
340,9.87889,15.0661,-0.231117
340.6,9.898,15.3416,-0.236402
341.2,9.91688,15.5911,-0.241596
341.8,9.93513,15.7622,-0.248164
342.4,9.95371,15.938,-0.253463
343,9.9721,16.0366,-0.259879
343.6,9.99017,16.0087,-0.264879
344.2,10.0076,15.8835,-0.270937
344.8,10.025,15.6393,-0.276148
345.4,10.0418,15.2895,-0.28159
346,10.0584,14.844,-0.28748
346.6,10.0745,14.3465,-0.29211
347.2,10.0906,13.8187,-0.297431
347.8,10.1071,13.2725,-0.300876
348.4,10.1232,12.7199,-0.304658
349,10.1396,12.1871,-0.307221
349.6,10.1559,11.6993,-0.310705
350.2,10.1725,11.2473,-0.3153
350.8,10.189,10.8472,-0.318503
351.4,10.2059,10.4745,-0.322034
352,10.2229,10.1564,-0.32514
352.6,10.2394,9.85043,-0.328465
353.2,10.2568,9.56764,-0.332061
353.8,10.2736,9.33741,-0.335248
354.4,10.2909,9.12825,-0.338456
355,10.3082,8.91591,-0.340711
355.6,10.3255,8.73829,-0.342848
356.2,10.3431,8.58686,-0.344534
356.8,10.3602,8.43921,-0.346603
357.4,10.378,8.29756,-0.34982
358,10.3954,8.17597,-0.352447
358.6,10.4132,8.06588,-0.354687
359.2,10.4307,7.97487,-0.356431
359.8,10.4485,7.89551,-0.358727
360.4,10.4662,7.81338,-0.361296
361,10.4842,7.7343,-0.363183
361.6,10.5017,7.68136,-0.365411
362.2,10.5196,7.62147,-0.367265
362.8,10.5372,7.56096,-0.369486
363.4,10.5553,7.50419,-0.371441
364,10.5731,7.47144,-0.373352
364.6,10.5908,7.42542,-0.375504
365.2,10.6088,7.38157,-0.377433
365.8,10.6266,7.34891,-0.378969
366.4,10.6446,7.32786,-0.379976
367,10.6625,7.28893,-0.381613
367.6,10.6802,7.26568,-0.383297
368.2,10.6985,7.25366,-0.386379
368.8,10.7166,7.2193,-0.388084
369.4,10.7343,7.21059,-0.389662
370,10.7523,7.19518,-0.391406
370.6,10.7704,7.17948,-0.393087
371.2,10.7885,7.15823,-0.394857
371.8,10.8068,7.15573,-0.396074
372.4,10.8245,7.15146,-0.396624
373,10.8428,7.14418,-0.396937
373.6,10.8609,7.13889,-0.397955
374.2,10.8792,7.13839,-0.399572
374.8,10.8972,7.13378,-0.399789
375.4,10.915,7.13245,-0.400839
376,10.9333,7.12257,-0.402395
376.6,10.9509,7.11857,-0.403421
377.2,10.9687,7.12427,-0.40454
377.8,10.9876,7.13118,-0.406096
378.4,11.0058,7.13518,-0.407844
379,11.0242,7.14853,-0.40875
379.6,11.0423,7.1661,-0.410285
380.2,11.0603,7.17495,-0.41184
380.8,11.0787,7.18389,-0.413255
381.4,11.0969,7.19954,-0.414965
382,11.115,7.21539,-0.415997
382.6,11.1332,7.2292,-0.416702
383.2,11.1516,7.24785,-0.41827
383.8,11.1697,7.2616,-0.418787
384.4,11.187,7.28067,-0.419805
385,11.2061,7.29233,-0.421766
385.6,11.2242,7.31439,-0.424161
386.2,11.2429,7.33152,-0.425682
386.8,11.2607,7.34527,-0.42658
387.4,11.2794,7.37727,-0.427272
388,11.2975,7.40333,-0.42904
388.6,11.3159,7.43097,-0.430629
389.2,11.3343,7.46024,-0.432737
389.8,11.3523,7.48807,-0.435011
390.4,11.3707,7.51356,-0.437101
391,11.3891,7.54551,-0.438406
391.6,11.4074,7.58421,-0.439805
392.2,11.4258,7.61845,-0.441437
392.8,11.4444,7.63711,-0.444422
393.4,11.4623,7.66721,-0.446529
394,11.481,7.69944,-0.448711
394.6,11.4994,7.74149,-0.450507
395.2,11.5176,7.782,-0.451856
395.8,11.536,7.82326,-0.453565
396.4,11.5544,7.86977,-0.455407
397,11.5729,7.90712,-0.457371
397.6,11.5913,7.94481,-0.459483
398.2,11.6097,7.98888,-0.462341
398.8,11.6284,8.0431,-0.465184
399.4,11.6468,8.09171,-0.468177
400,11.6651,8.13148,-0.470952
400.6,11.6832,8.17192,-0.473959
401.2,11.7013,8.22624,-0.477106
401.8,11.7204,8.2727,-0.47993
402.4,11.7393,8.33538,-0.483397
403,11.7575,8.39464,-0.487133
403.6,11.7758,8.44852,-0.48978
404.2,11.7946,8.51451,-0.492607
404.8,11.8135,8.5792,-0.495928
405.4,11.8319,8.63482,-0.500263
406,11.8503,8.7019,-0.504575
406.6,11.8687,8.77939,-0.507405
407.2,11.8875,8.84958,-0.511326
407.8,11.9061,8.90722,-0.516215
408.4,11.9247,8.96921,-0.520722
409,11.9431,9.05175,-0.524676
409.6,11.9621,9.13002,-0.529723
410.2,11.9807,9.21219,-0.534565
410.8,11.9992,9.29398,-0.538502
411.4,12.0179,9.37871,-0.543303
412,12.0366,9.45834,-0.547781
412.6,12.0553,9.52996,-0.553793
413.2,12.0739,9.62722,-0.557547
413.8,12.0926,9.71163,-0.563817
414.4,12.1114,9.81618,-0.569138
415,12.1302,9.90813,-0.575762
415.6,12.1489,10.0007,-0.580814
416.2,12.1678,10.1104,-0.58741
416.8,12.1856,10.2053,-0.593212
417.4,12.2047,10.311,-0.600909
418,12.2235,10.4174,-0.608025
418.6,12.243,10.5396,-0.615543
419.2,12.2618,10.6516,-0.622833
419.8,12.2806,10.7595,-0.629946
420.4,12.2993,10.8658,-0.638316
421,12.3182,11.019,-0.645957
421.6,12.3371,11.131,-0.655115
422.2,12.3559,11.2696,-0.663328
422.8,12.3751,11.4009,-0.673934
423.4,12.394,11.5197,-0.683092
424,12.4131,11.6532,-0.694263
424.6,12.4318,11.7783,-0.702839
425.2,12.4508,11.9112,-0.714109
425.8,12.4697,12.0381,-0.723181
426.4,12.4886,12.1797,-0.735264
427,12.5075,12.3051,-0.745671
427.6,12.5267,12.4649,-0.75884
428.2,12.5457,12.603,-0.770417
428.8,12.564,12.7592,-0.782134
429.4,12.584,12.9035,-0.794597
430,12.6032,13.0617,-0.807781
430.6,12.622,13.1952,-0.821691
431.2,12.6409,13.3442,-0.83559
431.8,12.6599,13.4677,-0.850523
432.4,12.6787,13.6165,-0.86397
433,12.6981,13.7639,-0.881081
433.6,12.7172,13.9295,-0.894842
434.2,12.7361,14.1027,-0.91177
434.8,12.7553,14.2402,-0.926754
435.4,12.7744,14.3659,-0.94614
436,12.7936,14.5155,-0.962761
436.6,12.8125,14.6771,-0.982189
437.2,12.8318,14.8135,-0.997983
437.8,12.851,14.9429,-1.01866
438.4,12.8699,15.0635,-1.03536
439,12.8888,15.191,-1.05678
439.6,12.9079,15.3429,-1.0754
440.2,12.9268,15.451,-1.09688
440.8,12.9455,15.551,-1.11615
441.4,12.9645,15.6373,-1.13827
442,12.9832,15.7731,-1.15884
442.6,13.0022,15.8495,-1.18021
443.2,13.0215,15.9668,-1.20275
443.8,13.0407,16.0548,-1.22356
444.4,13.0597,16.1359,-1.24745
445,13.0785,16.2061,-1.26952
445.6,13.0976,16.2745,-1.29597
446.2,13.1165,16.3468,-1.31835
446.8,13.1349,16.3964,-1.34465
447.4,13.1542,16.4673,-1.36682
448,13.1722,16.5082,-1.39318
448.6,13.191,16.5659,-1.41618
449.2,13.2109,16.6165,-1.44717
449.8,13.2295,16.664,-1.46984
450.4,13.2486,16.6932,-1.4998
451,13.2669,16.7185,-1.52429
451.6,13.2859,16.7679,-1.55368
452.2,13.3045,16.8116,-1.57993
452.8,13.3235,16.8394,-1.60988
453.4,13.3425,16.8872,-1.63912
454,13.3609,16.9178,-1.66708
454.6,13.3799,16.968,-1.69799
455.2,13.399,17.0045,-1.72625
455.8,13.4179,17.0291,-1.75903
456.4,13.4365,17.0719,-1.78673
457,13.4554,17.0924,-1.82203
457.6,13.4745,17.1323,-1.85041
458.2,13.493,17.1643,-1.88656
458.8,13.512,17.1896,-1.91538
459.4,13.5307,17.2089,-1.95229
460,13.5493,17.2124,-1.98144
460.6,13.5681,17.2159,-2.01865
461.2,13.5869,17.2177,-2.0495
461.8,13.6055,17.2198,-2.08548
462.4,13.6244,17.2047,-2.11858
463,13.643,17.1814,-2.15381
463.6,13.6615,17.1678,-2.18919
464.2,13.6802,17.1441,-2.22384
464.8,13.6989,17.1127,-2.2618
465.4,13.7172,17.0653,-2.2947
466,13.7361,16.9957,-2.33432
466.6,13.7545,16.9397,-2.366
467.2,13.7734,16.868,-2.40758
467.8,13.7918,16.7897,-2.43924
468.4,13.81,16.7174,-2.4793
469,13.8287,16.6222,-2.51244
469.6,13.8468,16.5136,-2.55101
470.2,13.8654,16.4047,-2.58471
470.8,13.8835,16.2835,-2.62128
471.4,13.9018,16.1476,-2.65825
472,13.9202,15.9792,-2.69459
472.6,13.9382,15.8105,-2.73358
473.2,13.9564,15.625,-2.76616
473.8,13.9748,15.4288,-2.8066
474.4,13.9925,15.2194,-2.83735
475,14.0106,14.9972,-2.87762
475.6,14.0286,14.7684,-2.90838
476.2,14.0466,14.5211,-2.94536
476.8,14.0645,14.2464,-2.97685
477.4,14.0823,13.9877,-3.01058
478,14.1,13.7079,-3.04455
478.6,14.1179,13.416,-3.07495
479.2,14.1357,13.1031,-3.11041
479.8,14.1534,12.7931,-3.13829
480.4,14.1711,12.4504,-3.1728
481,14.1889,12.119,-3.19906
481.6,14.2062,11.7729,-3.23002
482.2,14.2238,11.4228,-3.2571
482.8,14.2413,11.0519,-3.28483
483.4,14.2588,10.6831,-3.31373
484,14.2763,10.3111,-3.33885
484.6,14.2939,9.91583,-3.36834
485.2,14.3114,9.52578,-3.3901
485.8,14.3287,9.14111,-3.41762
486.4,14.3461,8.75824,-3.43865
487,14.3634,8.3746,-3.46217
487.6,14.3815,7.97922,-3.48496
488.2,14.3988,7.61643,-3.50472
488.8,14.4162,7.25262,-3.52658
489.4,14.434,6.88614,-3.5426
490,14.4513,6.53129,-3.56376
490.6,14.469,6.19793,-3.57941
491.2,14.4867,5.86263,-3.59764
491.8,14.5045,5.55519,-3.61253
492.4,14.5222,5.24899,-3.62806
493,14.5395,4.9723,-3.64441
493.6,14.5573,4.68898,-3.65832
494.2,14.5758,4.41506,-3.67334
494.8,14.5937,4.16551,-3.68438
495.4,14.6116,3.92841,-3.69797
496,14.6298,3.70757,-3.70821
496.6,14.6477,3.49018,-3.72016
497.2,14.6661,3.28389,-3.72939
497.8,14.684,3.08899,-3.73917
498.4,14.7021,2.9077,-3.7477
499,14.7204,2.7375,-3.75396
499.6,14.7389,2.57601,-3.76163
500.2,14.757,2.42696,-3.76816
500.8,14.7755,2.28235,-3.77589
501.4,14.7936,2.15794,-3.78119
502,14.8124,2.02878,-3.78752
502.6,14.8305,1.92218,-3.79214
503.2,14.8489,1.81415,-3.79736
503.8,14.8679,1.71313,-3.80113
504.4,14.8862,1.61802,-3.80539
505,14.9049,1.52842,-3.80893
505.6,14.9236,1.46545,-3.81369
506.2,14.9423,1.38809,-3.81576
506.8,14.9612,1.32745,-3.81832
507.4,14.9797,1.27163,-3.82114
508,14.9984,1.21724,-3.82387
508.6,15.0167,1.17301,-3.82487
509.2,15.0359,1.1286,-3.82648
509.8,15.0548,1.09266,-3.82803
510.4,15.0736,1.07133,-3.82937
511,15.0923,1.04056,-3.83003
511.6,15.1112,1.00379,-3.83161
512.2,15.1304,0.980743,-3.83344
512.8,15.149,0.962566,-3.83513
513.4,15.1678,0.938214,-3.83567
514,15.187,0.915098,-3.83674
514.6,15.205,0.902015,-3.83669
515.2,15.2247,0.890525,-3.83732
515.8,15.2436,0.871192,-3.8382
516.4,15.2627,0.862115,-3.8398
517,15.2816,0.85611,-3.83975
517.6,15.3006,0.848223,-3.84122
518.2,15.3195,0.843777,-3.84124
518.8,15.3387,0.826021,-3.84246
519.4,15.3577,0.817188,-3.84262
520,15.3768,0.809458,-3.84289
520.6,15.396,0.806292,-3.84399
521.2,15.4147,0.798756,-3.84394
521.8,15.434,0.790423,-3.84394
522.4,15.4529,0.790141,-3.84394
523,15.4717,0.788805,-3.84394
523.6,15.4912,0.776264,-3.84392
524.2,15.5104,0.765667,-3.84519
524.8,15.5295,0.768051,-3.84524
525.4,15.5484,0.76547,-3.84526
526,15.5674,0.749578,-3.84554
526.6,15.5867,0.748698,-3.84662
527.2,15.6056,0.747803,-3.84657
527.8,15.6249,0.741787,-3.84657
528.4,15.6436,0.746195,-3.84657
529,15.663,0.742227,-3.84657
529.6,15.682,0.736468,-3.84657
530.2,15.7012,0.724592,-3.84657
530.8,15.7202,0.72675,-3.84657
531.4,15.7394,0.718793,-3.84661
532,15.7583,0.709438,-3.84537
532.6,15.7778,0.716278,-3.84526
533.2,15.7967,0.710686,-3.84525
533.8,15.8159,0.712276,-3.84525
534.4,15.8349,0.705239,-3.84525
535,15.8544,0.702607,-3.84526
535.6,15.8735,0.703466,-3.84535
536.2,15.8928,0.687892,-3.84669
536.8,15.9117,0.69329,-3.84668
537.4,15.9309,0.687242,-3.84693
538,15.95,0.675748,-3.84803
538.6,15.9693,0.671688,-3.84799
539.2,15.9886,0.673318,-3.84799
539.8,16.0077,0.674619,-3.84811
540.4,16.0267,0.669969,-3.84904
541,16.046,0.672639,-3.84898
541.6,16.0648,0.674245,-3.84898
542.2,16.0842,0.662859,-3.84898
542.8,16.1035,0.659064,-3.84898
543.4,16.1226,0.65503,-3.84898
544,16.1416,0.654891,-3.84898
544.6,16.1608,0.657409,-3.84898
545.2,16.1801,0.65545,-3.84898
545.8,16.1991,0.652404,-3.84898
546.4,16.2183,0.641609,-3.84898
547,16.2375,0.645581,-3.84896
547.6,16.257,0.639489,-3.84839
548.2,16.2762,0.637829,-3.84765
548.8,16.2954,0.639504,-3.84766
549.4,16.3145,0.638089,-3.84766
550,16.3338,0.634135,-3.84766
550.6,16.3529,0.631602,-3.84765
551.2,16.3717,0.642091,-3.84808
551.8,16.3914,0.631292,-3.84896
552.4,16.4106,0.620847,-3.84898
553,16.4292,0.627231,-3.84898
553.6,16.4491,0.620458,-3.84896
554.2,16.4685,0.609233,-3.84944
554.8,16.4875,0.604607,-3.85071
555.4,16.5066,0.604931,-3.85064
556,16.5259,0.603484,-3.85063
556.6,16.5456,0.596661,-3.85063
557.2,16.5646,0.58993,-3.85063
557.8,16.5839,0.587703,-3.85063
558.4,16.6031,0.588839,-3.85063
559,16.6223,0.579467,-3.85063
559.6,16.6415,0.580996,-3.85063
560.2,16.6607,0.570022,-3.85063
560.8,16.68,0.573932,-3.85063
561.4,16.6993,0.575163,-3.85063
562,16.7185,0.56887,-3.85063
562.6,16.7378,0.564311,-3.85062
563.2,16.7568,0.561439,-3.85054
563.8,16.7764,0.553896,-3.85186
564.4,16.7953,0.544901,-3.85195
565,16.8148,0.540126,-3.85201
565.6,16.8342,0.538927,-3.85081
566.2,16.8533,0.533878,-3.85063
566.8,16.8724,0.529991,-3.85098
567.4,16.8915,0.519816,-3.85189
568,16.9114,0.518295,-3.8506
568.6,16.9306,0.508653,-3.85063
569.2,16.9499,0.506091,-3.85063
569.8,16.969,0.501668,-3.85063
570.4,16.9882,0.497259,-3.85063
571,17.0078,0.496199,-3.85064
571.6,17.027,0.497092,-3.85089
572.2,17.0462,0.484665,-3.85095
572.8,17.0654,0.4834,-3.85096
573.4,17.0844,0.480544,-3.85096
574,17.1034,0.476709,-3.85096
574.6,17.1232,0.479682,-3.85096
575.2,17.1423,0.470093,-3.85096
575.8,17.1619,0.460793,-3.85096
576.4,17.181,0.459818,-3.85096
577,17.2005,0.465305,-3.85096
577.6,17.2197,0.464385,-3.85095
578.2,17.2392,0.461523,-3.85104
578.8,17.2583,0.458723,-3.85126
579.4,17.2779,0.45895,-3.85128
580,17.2969,0.454574,-3.85128
580.6,17.3163,0.450933,-3.85128
581.2,17.3356,0.445779,-3.85128
581.8,17.355,0.444993,-3.85128
582.4,17.374,0.440299,-3.85128
583,17.3935,0.440601,-3.85128
583.6,17.4126,0.444959,-3.85128
584.2,17.4321,0.439037,-3.85127
584.8,17.4514,0.428091,-3.85117
585.4,17.471,0.415188,-3.85096
586,17.49,0.416024,-3.85095
586.6,17.5095,0.418037,-3.85089
587.2,17.5288,0.419981,-3.8519
587.8,17.548,0.419316,-3.85214
588.4,17.5675,0.411592,-3.85226
589,17.5866,0.406653,-3.85227
589.6,17.606,0.40408,-3.85227
590.2,17.6255,0.407905,-3.85227
590.8,17.6447,0.401495,-3.85227
591.4,17.6641,0.40191,-3.85227
592,17.6833,0.40507,-3.85227
592.6,17.7023,0.399088,-3.85227
593.2,17.722,0.40307,-3.85227
593.8,17.7413,0.395847,-3.85227
594.4,17.7608,0.390329,-3.85228
595,17.7801,0.389172,-3.85308
595.6,17.7995,0.391047,-3.85359
596.2,17.8188,0.389538,-3.85359
596.8,17.8381,0.382721,-3.85357
597.4,17.8575,0.386152,-3.85326
598,17.8768,0.378581,-3.85259
598.6,17.8963,0.383035,-3.8526
599.2,17.9154,0.382956,-3.8526
599.8,17.9352,0.381292,-3.8526
600.4,17.9546,0.37439,-3.8526
601,17.9735,0.373524,-3.85261
601.6,17.9931,0.371907,-3.85267
602.2,18.0124,0.37207,-3.85392
602.8,18.0319,0.374101,-3.85392
603.4,18.0513,0.367727,-3.85392
604,18.0705,0.365392,-3.85392
604.6,18.0899,0.364859,-3.85392
605.2,18.1089,0.368795,-3.85318
605.8,18.1281,0.368948,-3.85263
606.4,18.1482,0.369441,-3.85261
607,18.1675,0.364675,-3.85261
607.6,18.1871,0.358866,-3.85261
608.2,18.2062,0.353898,-3.85261
608.8,18.2256,0.349397,-3.85259
609.4,18.2451,0.345356,-3.85306
610,18.2645,0.348139,-3.85326
610.6,18.2837,0.347577,-3.85327
611.2,18.3034,0.358739,-3.85327
611.8,18.3228,0.342938,-3.85327
612.4,18.3424,0.342549,-3.85327
613,18.3618,0.334904,-3.85327
613.6,18.3807,0.335284,-3.85327
614.2,18.4003,0.332449,-3.85327
614.8,18.4199,0.329779,-3.85327
615.4,18.4394,0.332155,-3.85327
616,18.4588,0.332873,-3.85327
616.6,18.4781,0.329675,-3.85324
617.2,18.4977,0.321588,-3.85284
617.8,18.5172,0.32152,-3.85231
618.4,18.5366,0.318878,-3.85228
619,18.5564,0.322251,-3.85228
619.6,18.5753,0.327655,-3.85228
620.2,18.5949,0.322569,-3.85228
620.8,18.6146,0.324802,-3.85228
621.4,18.6342,0.320503,-3.85229
622,18.6535,0.30923,-3.85235
622.6,18.6726,0.32065,-3.85293
623.2,18.6923,0.314464,-3.85294
623.8,18.7122,0.306323,-3.85426
624.4,18.7311,0.308311,-3.85425
625,18.7508,0.306183,-3.85425
625.6,18.7705,0.30097,-3.85425
626.2,18.7899,0.301249,-3.85425
626.8,18.8093,0.301244,-3.85425
627.4,18.8287,0.296748,-3.85425
628,18.8482,0.293569,-3.85425
628.6,18.8677,0.295495,-3.85429
629.2,18.8871,0.292088,-3.85389
629.8,18.9065,0.289699,-3.85389
630.4,18.9261,0.287057,-3.85354
631,18.9455,0.286663,-3.85259
631.6,18.965,0.277604,-3.8526
632.2,18.9845,0.276462,-3.8526
632.8,19.0038,0.275935,-3.8531
633.4,19.0234,0.272733,-3.8539
634,19.0429,0.276284,-3.85392
634.6,19.0623,0.278126,-3.85392
635.2,19.0824,0.269816,-3.85392
635.8,19.1008,0.269251,-3.85392
636.4,19.1209,0.26336,-3.85392
637,19.1402,0.259238,-3.85394
637.6,19.1596,0.256907,-3.85261
638.2,19.1796,0.263163,-3.85261
638.8,19.1993,0.257629,-3.85261
639.4,19.2184,0.251217,-3.85261
640,19.2382,0.256927,-3.8526
640.6,19.2578,0.252571,-3.85252
641.2,19.2772,0.24785,-3.85386
641.8,19.2967,0.250925,-3.85393
642.4,19.3162,0.251064,-3.85393
643,19.3359,0.248409,-3.85393
643.6,19.3554,0.244172,-3.85393
644.2,19.3749,0.245185,-3.8539
644.8,19.3942,0.238748,-3.85471
645.4,19.4139,0.245227,-3.85492
646,19.4332,0.240504,-3.85492
646.6,19.453,0.232336,-3.85492
647.2,19.4725,0.232992,-3.85492
647.8,19.4924,0.228693,-3.85492
648.4,19.5119,0.226467,-3.85492
649,19.5311,0.227605,-3.85492
649.6,19.5508,0.229936,-3.85492
650.2,19.5703,0.229202,-3.8549
650.8,19.5898,0.216203,-3.85425
651.4,19.6094,0.226917,-3.85426
652,19.6293,0.22346,-3.85426
652.6,19.6488,0.216966,-3.85426
653.2,19.6683,0.216094,-3.85426
653.8,19.6876,0.209277,-3.85426
654.4,19.7076,0.214624,-3.85426
655,19.7271,0.209221,-3.85423
655.6,19.7465,0.210544,-3.85462
656.2,19.7659,0.207376,-3.85459
656.8,19.7859,0.209418,-3.85459
657.4,19.8052,0.207273,-3.85523
658,19.8248,0.2002,-3.85587
658.6,19.8447,0.200118,-3.8559
659.2,19.864,0.200698,-3.8559
659.8,19.8838,0.202278,-3.8559
660.4,19.9035,0.205845,-3.8559
661,19.9228,0.194022,-3.8559
661.6,19.9423,0.185696,-3.85626
662.2,19.9621,0.194707,-3.85722
662.8,19.9815,0.197201,-3.85722
663.4,20.0005,0.19265,-3.85721
664,20.02,0.188319,-3.85712
664.6,20.0402,0.187726,-3.8569
665.2,20.06,0.183425,-3.85689
665.8,20.079,0.185314,-3.85691
666.4,20.0996,0.183158,-3.85653
667,20.1186,0.179342,-3.85655
667.6,20.1385,0.171078,-3.85651
668.2,20.1579,0.181166,-3.85523
668.8,20.1777,0.178699,-3.85524
669.4,20.197,0.182922,-3.85529
670,20.2169,0.178779,-3.85666
670.6,20.237,0.174912,-3.85657
671.2,20.2562,0.174374,-3.85656
671.8,20.2759,0.177817,-3.85656
672.4,20.2955,0.180529,-3.85656
673,20.3151,0.176644,-3.85656
673.6,20.3348,0.172524,-3.85656
674.2,20.3545,0.172496,-3.85677
674.8,20.374,0.171285,-3.85759
675.4,20.3937,0.16914,-3.85764
676,20.4136,0.168426,-3.8582
676.6,20.4333,0.173786,-3.85821
677.2,20.4526,0.174685,-3.85713
677.8,20.4723,0.171217,-3.8568
678.4,20.4918,0.165779,-3.85678
679,20.5115,0.162175,-3.85678
679.6,20.5313,0.172554,-3.85678
680.2,20.5508,0.16665,-3.85678
680.8,20.5706,0.16856,-3.85678
681.4,20.59,0.167776,-3.85678
682,20.6099,0.16772,-3.85678
682.6,20.6293,0.162112,-3.85678
683.2,20.6494,0.163865,-3.85678
683.8,20.6687,0.165574,-3.85697
684.4,20.6885,0.168045,-3.85609
685,20.7084,0.160635,-3.85611
685.6,20.7282,0.155324,-3.85611
686.2,20.7474,0.155805,-3.85611
686.8,20.7674,0.164129,-3.85612
687.4,20.7873,0.160209,-3.85639
688,20.8067,0.155423,-3.85748
688.6,20.8265,0.159818,-3.85743
689.2,20.8463,0.159388,-3.85743
689.8,20.8659,0.161939,-3.85743
690.4,20.8854,0.162135,-3.85743
691,20.9053,0.159188,-3.85743
691.6,20.925,0.162953,-3.85647
692.2,20.9448,0.15201,-3.85612
692.8,20.9647,0.156253,-3.85612
693.4,20.9839,0.15178,-3.85612
694,21.004,0.156525,-3.85612
694.6,21.0235,0.155234,-3.85612
695.2,21.0433,0.146151,-3.85612
695.8,21.063,0.154023,-3.85612
696.4,21.0826,0.157348,-3.85747
697,21.1023,0.151027,-3.85744
697.6,21.1223,0.152874,-3.85743
698.2,21.1418,0.148779,-3.8572
698.8,21.1617,0.14732,-3.85712
699.4,21.1812,0.152848,-3.85711
700,21.2011,0.150549,-3.85711
700.6,21.2208,0.153562,-3.85711
701.2,21.2407,0.15749,-3.85711
701.8,21.2602,0.155611,-3.85711
702.4,21.28,0.15822,-3.85711
703,21.3,0.156607,-3.85711
703.6,21.3196,0.160386,-3.85711
704.2,21.3393,0.150675,-3.85711
704.8,21.3591,0.152056,-3.85711
705.4,21.3788,0.155765,-3.85708
706,21.3986,0.15653,-3.85647
706.6,21.4181,0.160477,-3.85579
707.2,21.4382,0.162528,-3.85582
707.8,21.4579,0.156538,-3.85636
708.4,21.4778,0.154798,-3.85658
709,21.4971,0.155238,-3.85615
709.6,21.5173,0.159657,-3.85639
710.2,21.5368,0.159451,-3.85749
710.8,21.5567,0.158358,-3.85744
711.4,21.5764,0.152242,-3.85744
712,21.5963,0.155647,-3.85744
712.6,21.6161,0.152726,-3.85744
713.2,21.6356,0.155433,-3.85744
713.8,21.6553,0.156358,-3.85744
714.4,21.6753,0.163769,-3.85745
715,21.695,0.159516,-3.85758
715.6,21.7151,0.157389,-3.8588
716.2,21.7346,0.15103,-3.85875
716.8,21.7545,0.158278,-3.85872
717.4,21.7746,0.154636,-3.85962
718,21.7943,0.159079,-3.86006
718.6,21.8138,0.151993,-3.86007
719.2,21.8336,0.158169,-3.86007
719.8,21.8537,0.149951,-3.86007
720.4,21.8734,0.152675,-3.86007
721,21.8932,0.147547,-3.86007
721.6,21.913,0.144347,-3.86007
722.2,21.9328,0.145332,-3.86007
722.8,21.9527,0.145295,-3.86007
723.4,21.9725,0.148774,-3.86007
724,21.9924,0.146021,-3.86007
724.6,22.0122,0.144586,-3.86006
725.2,22.0321,0.154252,-3.8596
725.8,22.0516,0.145119,-3.85971
726.4,22.0718,0.14395,-3.85974
727,22.0917,0.1449,-3.85973
727.6,22.1114,0.145507,-3.86007
728.2,22.1313,0.149735,-3.86007
728.8,22.1512,0.149165,-3.86005
729.4,22.1711,0.145813,-3.86139
730,22.191,0.146549,-3.86107
730.6,22.2109,0.150591,-3.8607
731.2,22.2305,0.145393,-3.86073
731.8,22.2505,0.148264,-3.86073
732.4,22.2704,0.148309,-3.86073
733,22.2903,0.146986,-3.86073
733.6,22.31,0.149341,-3.86073
734.2,22.3298,0.153034,-3.86073
734.8,22.3499,0.151371,-3.86073
735.4,22.3696,0.151834,-3.86073
736,22.3896,0.158361,-3.86073
736.6,22.4097,0.153738,-3.86073
737.2,22.4295,0.15711,-3.86073
737.8,22.4492,0.159772,-3.8607
738.4,22.4687,0.156199,-3.86128
739,22.4887,0.156959,-3.86137
739.6,22.5089,0.156482,-3.86138
740.2,22.5287,0.152986,-3.86138
740.8,22.5488,0.150313,-3.86138
741.4,22.5686,0.155008,-3.86138
742,22.5886,0.167394,-3.86138
742.6,22.6087,0.164466,-3.86135
743.2,22.6284,0.165258,-3.86195
743.8,22.6484,0.166024,-3.86203
744.4,22.6682,0.168171,-3.86204
745,22.6882,0.173354,-3.86204
745.6,22.7081,0.17102,-3.86142
746.2,22.7279,0.174732,-3.86075
746.8,22.7479,0.161667,-3.86073
747.4,22.7678,0.173517,-3.86073
748,22.7875,0.16612,-3.86073
748.6,22.8075,0.16136,-3.86066
749.2,22.8277,0.168591,-3.86145
749.8,22.8475,0.171524,-3.86139
750.4,22.8675,0.179313,-3.86139
751,22.8874,0.169194,-3.86139
751.6,22.9073,0.168367,-3.86138
752.2,22.927,0.174303,-3.86224
752.8,22.9471,0.160796,-3.86268
753.4,22.9669,0.168008,-3.86131
754,22.987,0.173831,-3.86138
754.6,23.0071,0.185495,-3.86139
755.2,23.0271,0.175285,-3.86139
755.8,23.047,0.179923,-3.86139
756.4,23.0667,0.179797,-3.86139
757,23.0866,0.174473,-3.86139
757.6,23.1067,0.183481,-3.86139
758.2,23.1267,0.186814,-3.86139
758.8,23.1465,0.185619,-3.86138
759.4,23.1662,0.185797,-3.86203
760,23.186,0.193035,-3.86249
760.6,23.2066,0.192892,-3.8627
761.2,23.2263,0.193093,-3.86271
761.8,23.2465,0.187641,-3.86271
762.4,23.2662,0.200377,-3.86271
763,23.2859,0.193613,-3.86271
763.6,23.3062,0.18404,-3.86271
764.2,23.3262,0.188496,-3.86271
764.8,23.346,0.17801,-3.86271
765.4,23.3659,0.18343,-3.86273
766,23.386,0.18407,-3.8637
766.6,23.406,0.185366,-3.86535
767.2,23.4259,0.180035,-3.86473
767.8,23.4457,0.180158,-3.86391
768.4,23.4658,0.178278,-3.86391
769,23.4858,0.181166,-3.86363
769.6,23.5058,0.184204,-3.86258
770.2,23.5257,0.188309,-3.86259
770.8,23.5455,0.186493,-3.86259
771.4,23.5656,0.180186,-3.86205
772,23.5854,0.178303,-3.86008
772.6,23.6053,0.174285,-3.8599
773.2,23.6255,0.174682,-3.86133
773.8,23.6456,0.173565,-3.86166
774.4,23.6652,0.170859,-3.86299
775,23.6853,0.168925,-3.86293
775.6,23.7051,0.17253,-3.86293
776.2,23.7254,0.164206,-3.86293
776.8,23.7454,0.166967,-3.86293
777.4,23.7654,0.166859,-3.86289
778,23.7853,0.165371,-3.8637
778.6,23.8052,0.164544,-3.86522
779.2,23.8252,0.165616,-3.86523
779.8,23.8451,0.162505,-3.86403
780.4,23.8651,0.157519,-3.86393
781,23.8853,0.158463,-3.86552
781.6,23.905,0.163368,-3.86589
782.2,23.9251,0.166876,-3.86705
782.8,23.9451,0.168588,-3.86538
783.4,23.9648,0.164812,-3.86354
784,23.9849,0.163642,-3.86292
784.6,24.0051,0.163556,-3.86203
785.2,24.0242,0.166389,-3.86205
785.8,24.0446,0.169539,-3.86205
786.4,24.0645,0.170586,-3.86205
787,24.0848,0.169945,-3.86205
787.6,24.1045,0.167416,-3.86205
788.2,24.1245,0.160094,-3.86205
788.8,24.1443,0.157515,-3.86212
789.4,24.1645,0.168411,-3.86237
790,24.1844,0.160551,-3.86238