File: 01_Data/Engineered_Wood_Furniture/FTIR/IS/Engineered_Wood_Furniture_IS_T_221005_R4.dpt
7497.03,0.02135
7491.25,0.02135
7485.46,0.02397
7479.67,0.02879
7473.89,0.03328
7468.1,0.02793
7462.32,0.02339
7456.53,0.02238
7450.74,0.01813
7444.96,0.02442
7439.17,0.02144
7433.38,0.02337
7427.6,0.02541
7421.81,0.02818
7416.03,0.01530
7410.24,0.02182
7404.45,0.02157
7398.67,0.02508
7392.88,0.02171
7387.09,0.01975
7381.31,0.02530
7375.52,0.02536
7369.74,0.02729
7363.95,0.02484
7358.16,0.03554
7352.38,0.03390
7346.59,0.01764
7340.8,0.02632
7335.02,0.03070
7329.23,0.02869
7323.45,0.02552
7317.66,0.02734
7311.87,0.02698
7306.09,0.02534
7300.3,0.01920
7294.51,0.01959
7288.73,0.03018
7282.94,0.02369
7277.16,0.02334
7271.37,0.02126
7265.58,0.02249
7259.8,0.02490
7254.01,0.01996
7248.22,0.02170
7242.44,0.02662
7236.65,0.02161
7230.87,0.03415
7225.08,0.02542
7219.29,0.03248
7213.51,0.02390
7207.72,0.02901
7201.93,0.02086
7196.15,0.02460
7190.36,0.02420
7184.58,0.02061
7178.79,0.02115
7173,0.02176
7167.22,0.02487
7161.43,0.02644
7155.65,0.02290
7149.86,0.01648
7144.07,0.02737
7138.29,0.02415
7132.5,0.02688
7126.71,0.02691
7120.93,0.02193
7115.14,0.02186
7109.36,0.02715
7103.57,0.01855
7097.78,0.02258
7092,0.02084
7086.21,0.02615
7080.42,0.02797
7074.64,0.02286
7068.85,0.02882
7063.07,0.02358
7057.28,0.02629
7051.49,0.02125
7045.71,0.03015
7039.92,0.02810
7034.13,0.01862
7028.35,0.02205
7022.56,0.02580
7016.78,0.02346
7010.99,0.01587
7005.2,0.01923
6999.42,0.02276
6993.63,0.02521
6987.84,0.02847
6982.06,0.02384
6976.27,0.02915
6970.49,0.02597
6964.7,0.02639
6958.91,0.02565
6953.13,0.02041
6947.34,0.02504
6941.55,0.02502
6935.77,0.03202
6929.98,0.01971
6924.2,0.02517
6918.41,0.02415
6912.62,0.02585
6906.84,0.02715
6901.05,0.02463
6895.26,0.02158
6889.48,0.02478
6883.69,0.02056
6877.91,0.02111
6872.12,0.02352
6866.33,0.02301
6860.55,0.02015
6854.76,0.02122
6848.97,0.02034
6843.19,0.02138
6837.4,0.02422
6831.62,0.01950
6825.83,0.02710
6820.04,0.02342
6814.26,0.02742
6808.47,0.02578
6802.68,0.02313
6796.9,0.02428
6791.11,0.02051
6785.33,0.02541
6779.54,0.02475
6773.75,0.02663
6767.97,0.02703
6762.18,0.02141
6756.39,0.02078
6750.61,0.01811
6744.82,0.02270
6739.04,0.02269
6733.25,0.02167
6727.46,0.02630
6721.68,0.02354
6715.89,0.02399
6710.1,0.02514
6704.32,0.02745
6698.53,0.01868
6692.75,0.02158
6686.96,0.01912
6681.17,0.02131
6675.39,0.01945
6669.6,0.02259
6663.82,0.02393
6658.03,0.01831
6652.24,0.02042
6646.46,0.02424
6640.67,0.02463
6634.88,0.01904
6629.1,0.02391
6623.31,0.01966
6617.53,0.01792
6611.74,0.02073
6605.95,0.02258
6600.17,0.01991
6594.38,0.02221
6588.59,0.02459
6582.81,0.01975
6577.02,0.02125
6571.24,0.02242
6565.45,0.01872
6559.66,0.01863
6553.88,0.01951
6548.09,0.01946
6542.3,0.02248
6536.52,0.02211
6530.73,0.02182
6524.95,0.02042
6519.16,0.02549
6513.37,0.02101
6507.59,0.01870
6501.8,0.02400
6496.01,0.02498
6490.23,0.02406
6484.44,0.01975
6478.66,0.02347
6472.87,0.02198
6467.08,0.02110
6461.3,0.01740
6455.51,0.02013
6449.72,0.02110
6443.94,0.02324
6438.15,0.01834
6432.37,0.02208
6426.58,0.01893
6420.79,0.01953
6415.01,0.01867
6409.22,0.01906
6403.43,0.02013
6397.65,0.02321
6391.86,0.01943
6386.08,0.02205
6380.29,0.02316
6374.5,0.02341
6368.72,0.02171
6362.93,0.02275
6357.14,0.02121
6351.36,0.02128
6345.57,0.01855
6339.79,0.02093
6334,0.01878
6328.21,0.02240
6322.43,0.02367
6316.64,0.02198
6310.85,0.02121
6305.07,0.02117
6299.28,0.02370
6293.5,0.02079
6287.71,0.02028
6281.92,0.02156
6276.14,0.02127
6270.35,0.02092
6264.56,0.02194
6258.78,0.02333
6252.99,0.02257
6247.21,0.02097
6241.42,0.02212
6235.63,0.02154
6229.85,0.02436
6224.06,0.02193
6218.27,0.02577
6212.49,0.02551
6206.7,0.02230
6200.92,0.02341
6195.13,0.02189
6189.34,0.02237
6183.56,0.02135
6177.77,0.02092
6171.98,0.02319
6166.2,0.02452
6160.41,0.02376
6154.63,0.02106
6148.84,0.02063
6143.05,0.02262
6137.27,0.01877
6131.48,0.01918
6125.7,0.02109
6119.91,0.02109
6114.12,0.02381
6108.34,0.02280
6102.55,0.02050
6096.76,0.02290
6090.98,0.02069
6085.19,0.02065
6079.41,0.02238
6073.62,0.02144
6067.83,0.02136
6062.05,0.02424
6056.26,0.02207
6050.47,0.02168
6044.69,0.02010
6038.9,0.01940
6033.12,0.02102
6027.33,0.02227
6021.54,0.01916
6015.76,0.02189
6009.97,0.02056
6004.18,0.02140
5998.4,0.02138
5992.61,0.02005
5986.83,0.02095
5981.04,0.02084
5975.25,0.02015
5969.47,0.01937
5963.68,0.02111
5957.89,0.02108
5952.11,0.02137
5946.32,0.02034
5940.54,0.01950
5934.75,0.02347
5928.96,0.02025
5923.18,0.02075
5917.39,0.01978
5911.6,0.02102
5905.82,0.01998
5900.03,0.02116
5894.25,0.01991
5888.46,0.02143
5882.67,0.02144
5876.89,0.02480
5871.1,0.02201
5865.31,0.02115
5859.53,0.02232
5853.74,0.02106
5847.96,0.02014
5842.17,0.01942
5836.38,0.02122
5830.6,0.02148
5824.81,0.02388
5819.02,0.02297
5813.24,0.02264
5807.45,0.02233
5801.67,0.02211
5795.88,0.02251
5790.09,0.02129
5784.31,0.02050
5778.52,0.02097
5772.73,0.02109
5766.95,0.02010
5761.16,0.02290
5755.38,0.02189
5749.59,0.02339
5743.8,0.02053
5738.02,0.02074
5732.23,0.02192
5726.44,0.02165
5720.66,0.02153
5714.87,0.02117
5709.09,0.02013
5703.3,0.02118
5697.51,0.02284
5691.73,0.02267
5685.94,0.02220
5680.15,0.02272
5674.37,0.02310
5668.58,0.02334
5662.8,0.02372
5657.01,0.02269
5651.22,0.02303
5645.44,0.02293
5639.65,0.02212
5633.87,0.02085
5628.08,0.01961
5622.29,0.02244
5616.51,0.02320
5610.72,0.02304
5604.93,0.02261
5599.15,0.02169
5593.36,0.02185
5587.58,0.02008
5581.79,0.02168
5576,0.02181
5570.22,0.02340
5564.43,0.02331
5558.64,0.02069
5552.86,0.02288
5547.07,0.02352
5541.29,0.02186
5535.5,0.02069
5529.71,0.02169
5523.93,0.02035
5518.14,0.02161
5512.35,0.02126
5506.57,0.01960
5500.78,0.02116
5495,0.02165
5489.21,0.02142
5483.42,0.02197
5477.64,0.02271
5471.85,0.01923
5466.06,0.02122
5460.28,0.02145
5454.49,0.02222
5448.71,0.02077
5442.92,0.02137
5437.13,0.02179
5431.35,0.02166
5425.56,0.02083
5419.77,0.02207
5413.99,0.02021
5408.2,0.02259
5402.42,0.02216
5396.63,0.02170
5390.84,0.02224
5385.06,0.02152
5379.27,0.02402
5373.48,0.02375
5367.7,0.02133
5361.91,0.02235
5356.13,0.02177
5350.34,0.02247
5344.55,0.02127
5338.77,0.02288
5332.98,0.02087
5327.19,0.02204
5321.41,0.02228
5315.62,0.02228
5309.84,0.02289
5304.05,0.02188
5298.26,0.02229
5292.48,0.02164
5286.69,0.02177
5280.9,0.02290
5275.12,0.02201
5269.33,0.02142
5263.55,0.02196
5257.76,0.02129
5251.97,0.02080
5246.19,0.02210
5240.4,0.02298
5234.61,0.02267
5228.83,0.02152
5223.04,0.02208
5217.26,0.02202
5211.47,0.02344
5205.68,0.02256
5199.9,0.02217
5194.11,0.02215
5188.32,0.02315
5182.54,0.02257
5176.75,0.02306
5170.97,0.02239
5165.18,0.02111
5159.39,0.02168
5153.61,0.02266
5147.82,0.02284
5142.03,0.02179
5136.25,0.02192
5130.46,0.02162
5124.68,0.02190
5118.89,0.02253
5113.1,0.02258
5107.32,0.02245
5101.53,0.02273
5095.75,0.02179
5089.96,0.02150
5084.17,0.02303
5078.39,0.02284
5072.6,0.02174
5066.81,0.02121
5061.03,0.02192
5055.24,0.02340
5049.46,0.02251
5043.67,0.02128
5037.88,0.02234
5032.1,0.02280
5026.31,0.02118
5020.52,0.02158
5014.74,0.02172
5008.95,0.02214
5003.17,0.02266
4997.38,0.02141
4991.59,0.02053
4985.81,0.02035
4980.02,0.02137
4974.23,0.02100
4968.45,0.02031
4962.66,0.02228
4956.88,0.02191
4951.09,0.02088
4945.3,0.02239
4939.52,0.02294
4933.73,0.02244
4927.94,0.02043
4922.16,0.02146
4916.37,0.02188
4910.59,0.02261
4904.8,0.02191
4899.01,0.02093
4893.23,0.02114
4887.44,0.02234
4881.65,0.02146
4875.87,0.02179
4870.08,0.02231
4864.3,0.02218
4858.51,0.02239
4852.72,0.02128
4846.94,0.02122
4841.15,0.02218
4835.36,0.02186
4829.58,0.02221
4823.79,0.02220
4818.01,0.02224
4812.22,0.02386
4806.43,0.02232
4800.65,0.02248
4794.86,0.02184
4789.07,0.02171
4783.29,0.02177
4777.5,0.02164
4771.72,0.02167
4765.93,0.02238
4760.14,0.02191
4754.36,0.02215
4748.57,0.02240
4742.78,0.02129
4737,0.02209
4731.21,0.02282
4725.43,0.02271
4719.64,0.02301
4713.85,0.02196
4708.07,0.02184
4702.28,0.02224
4696.49,0.02283
4690.71,0.02266
4684.92,0.02214
4679.14,0.02180
4673.35,0.02215
4667.56,0.02290
4661.78,0.02225
4655.99,0.02098
4650.2,0.02215
4644.42,0.02165
4638.63,0.02241
4632.85,0.02187
4627.06,0.02168
4621.27,0.02259
4615.49,0.02265
4609.7,0.02194
4603.92,0.02248
4598.13,0.02166
4592.34,0.02144
4586.56,0.02197
4580.77,0.02176
4574.98,0.02209
4569.2,0.02220
4563.41,0.02277
4557.63,0.02202
4551.84,0.02297
4546.05,0.02257
4540.27,0.02210
4534.48,0.02191
4528.69,0.02205
4522.91,0.02125
4517.12,0.02141
4511.34,0.02246
4505.55,0.02197
4499.76,0.02249
4493.98,0.02239
4488.19,0.02269
4482.4,0.02101
4476.62,0.02290
4470.83,0.02120
4465.05,0.02173
4459.26,0.02244
4453.47,0.02235
4447.69,0.02209
4441.9,0.02222
4436.11,0.02214
4430.33,0.02114
4424.54,0.02227
4418.76,0.02207
4412.97,0.02258
4407.18,0.02138
4401.4,0.02194
4395.61,0.02213
4389.82,0.02238
4384.04,0.02225
4378.25,0.02185
4372.47,0.02105
4366.68,0.02216
4360.89,0.02145
4355.11,0.02162
4349.32,0.02248
4343.53,0.02167
4337.75,0.02217
4331.96,0.02177
4326.18,0.02224
4320.39,0.02131
4314.6,0.02179
4308.82,0.02193
4303.03,0.02272
4297.24,0.02204
4291.46,0.02271
4285.67,0.02155
4279.89,0.02257
4274.1,0.02191
4268.31,0.02229
4262.53,0.02205
4256.74,0.02201
4250.95,0.02173
4245.17,0.02181
4239.38,0.02119
4233.6,0.02214
4227.81,0.02270
4222.02,0.02152
4216.24,0.02253
4210.45,0.02096
4204.66,0.02186
4198.88,0.02261
4193.09,0.02201
4187.31,0.02251
4181.52,0.02167
4175.73,0.02177
4169.95,0.02201
4164.16,0.02159
4158.37,0.02234
4152.59,0.02284
4146.8,0.02231
4141.02,0.02202
4135.23,0.02225
4129.44,0.02239
4123.66,0.02160
4117.87,0.02240
4112.09,0.02240
4106.3,0.02270
4100.51,0.02249
4094.73,0.02191
4088.94,0.02223
4083.15,0.02225
4077.37,0.02220
4071.58,0.02259
4065.8,0.02247
4060.01,0.02176
4054.22,0.02166
4048.44,0.02207
4042.65,0.02180
4036.86,0.02156
4031.08,0.02189
4025.29,0.02220
4019.51,0.02191
4013.72,0.02212
4007.93,0.02267
4002.15,0.02249
3996.36,0.02264
3990.57,0.02223
3984.79,0.02200
3979,0.02180
3973.22,0.02241
3967.43,0.02268
3961.64,0.02258
3955.86,0.02236
3950.07,0.02240
3944.28,0.02220
3938.5,0.02218
3932.71,0.02240
3926.93,0.02253
3921.14,0.02191
3915.35,0.02222
3909.57,0.02182
3903.78,0.02220
3897.99,0.02252
3892.21,0.02226
3886.42,0.02215
3880.64,0.02320
3874.85,0.02226
3869.06,0.02204
3863.28,0.02202
3857.49,0.02281
3851.7,0.02211
3845.92,0.02175
3840.13,0.02169
3834.35,0.02175
3828.56,0.02203
3822.77,0.02211
3816.99,0.02251
3811.2,0.02250
3805.41,0.02287
3799.63,0.02231
3793.84,0.02200
3788.06,0.02232
3782.27,0.02242
3776.48,0.02180
3770.7,0.02272
3764.91,0.02202
3759.12,0.02230
3753.34,0.02233
3747.55,0.02243
3741.77,0.02214
3735.98,0.02236
3730.19,0.02258
3724.41,0.02229
3718.62,0.02241
3712.83,0.02220
3707.05,0.02184
3701.26,0.02249
3695.48,0.02257
3689.69,0.02191
3683.9,0.02139
3678.12,0.02248
3672.33,0.02238
3666.54,0.02185
3660.76,0.02187
3654.97,0.02191
3649.19,0.02242
3643.4,0.02130
3637.61,0.02208
3631.83,0.02136
3626.04,0.02153
3620.25,0.02118
3614.47,0.02180
3608.68,0.02183
3602.9,0.02125
3597.11,0.02108
3591.32,0.02101
3585.54,0.02127
3579.75,0.02100
3573.97,0.02069
3568.18,0.02056
3562.39,0.02087
3556.61,0.02047
3550.82,0.02119
3545.03,0.02088
3539.25,0.02109
3533.46,0.02096
3527.68,0.02041
3521.89,0.02107
3516.1,0.02150
3510.32,0.02112
3504.53,0.02154
3498.74,0.02065
3492.96,0.02057
3487.17,0.02096
3481.39,0.02085
3475.6,0.02076
3469.81,0.02061
3464.03,0.02030
3458.24,0.02060
3452.45,0.02042
3446.67,0.02074
3440.88,0.02066
3435.1,0.02086
3429.31,0.02062
3423.52,0.02035
3417.74,0.02059
3411.95,0.02033
3406.16,0.02090
3400.38,0.02053
3394.59,0.01991
3388.81,0.02010
3383.02,0.02066
3377.23,0.02052
3371.45,0.01953
3365.66,0.01957
3359.87,0.01971
3354.09,0.01981
3348.3,0.02052
3342.52,0.02010
3336.73,0.01950
3330.94,0.02034
3325.16,0.02024
3319.37,0.02008
3313.58,0.02000
3307.8,0.02021
3302.01,0.01976
3296.23,0.01952
3290.44,0.02005
3284.65,0.02086
3278.87,0.01986
3273.08,0.02042
3267.29,0.02087
3261.51,0.02012
3255.72,0.02075
3249.94,0.02026
3244.15,0.02004
3238.36,0.02112
3232.58,0.02048
3226.79,0.02012
3221,0.02050
3215.22,0.02038
3209.43,0.02097
3203.65,0.02102
3197.86,0.02025
3192.07,0.02046
3186.29,0.02068
3180.5,0.01983
3174.71,0.02048
3168.93,0.02022
3163.14,0.02033
3157.36,0.02001
3151.57,0.02054
3145.78,0.02068
3140,0.02009
3134.21,0.02093
3128.42,0.02051
3122.64,0.02115
3116.85,0.02077
3111.07,0.02114
3105.28,0.02069
3099.49,0.02038
3093.71,0.02048
3087.92,0.02026
3082.14,0.02033
3076.35,0.02053
3070.56,0.02061
3064.78,0.02016
3058.99,0.02005
3053.2,0.02064
3047.42,0.02021
3041.63,0.02024
3035.85,0.02018
3030.06,0.01989
3024.27,0.02043
3018.49,0.02050
3012.7,0.02017
3006.91,0.02023
3001.13,0.01955
2995.34,0.01989
2989.56,0.01992
2983.77,0.01958
2977.98,0.01983
2972.2,0.01916
2966.41,0.01934
2960.62,0.01914
2954.84,0.01946
2949.05,0.01950
2943.27,0.01894
2937.48,0.01966
2931.69,0.01937
2925.91,0.02023
2920.12,0.01979
2914.33,0.02020
2908.55,0.02011
2902.76,0.02063
2896.98,0.02059
2891.19,0.02045
2885.4,0.02047
2879.62,0.02060
2873.83,0.02066
2868.04,0.02001
2862.26,0.02038
2856.47,0.02025
2850.69,0.02017
2844.9,0.02049
2839.11,0.02111
2833.33,0.02113
2827.54,0.02047
2821.75,0.02088
2815.97,0.02107
2810.18,0.02094
2804.4,0.02077
2798.61,0.02059
2792.82,0.02107
2787.04,0.02088
2781.25,0.02140
2775.46,0.02078
2769.68,0.02095
2763.89,0.02107
2758.11,0.02142
2752.32,0.02076
2746.53,0.02075
2740.75,0.02123
2734.96,0.02091
2729.17,0.02077
2723.39,0.02123
2717.6,0.02124
2711.82,0.02106
2706.03,0.02094
2700.24,0.02088
2694.46,0.02093
2688.67,0.02064
2682.88,0.02075
2677.1,0.02084
2671.31,0.02119
2665.53,0.02101
2659.74,0.02105
2653.95,0.02134
2648.17,0.02119
2642.38,0.02074
2636.59,0.02083
2630.81,0.02102
2625.02,0.02100
2619.24,0.02101
2613.45,0.02077
2607.66,0.02090
2601.88,0.02087
2596.09,0.02075
2590.3,0.02069
2584.52,0.02116
2578.73,0.02065
2572.95,0.02085
2567.16,0.02123
2561.37,0.02114
2555.59,0.02105
2549.8,0.02096
2544.02,0.02112
2538.23,0.02114
2532.44,0.02087
2526.66,0.02106
2520.87,0.02082
2515.08,0.02074
2509.3,0.02094
2503.51,0.02090
2497.73,0.02099
2491.94,0.02101
2486.15,0.02106
2480.37,0.02093
2474.58,0.02077
2468.79,0.02065
2463.01,0.02074
2457.22,0.02062
2451.44,0.02095
2445.65,0.02096
2439.86,0.02069
2434.08,0.02085
2428.29,0.02082
2422.5,0.02110
2416.72,0.02124
2410.93,0.02128
2405.15,0.02122
2399.36,0.02130
2393.57,0.02102
2387.79,0.02077
2382,0.02087
2376.21,0.02089
2370.43,0.02113
2364.64,0.02099
2358.86,0.02097
2353.07,0.02103
2347.28,0.02070
2341.5,0.02088
2335.71,0.02068
2329.92,0.02084
2324.14,0.02060
2318.35,0.02123
2312.57,0.02082
2306.78,0.02075
2300.99,0.02088
2295.21,0.02083
2289.42,0.02076
2283.63,0.02027
2277.85,0.02077
2272.06,0.02101
2266.28,0.02053
2260.49,0.02093
2254.7,0.02054
2248.92,0.02106
2243.13,0.02119
2237.34,0.02085
2231.56,0.02064
2225.77,0.02103
2219.99,0.02076
2214.2,0.02074
2208.41,0.02062
2202.63,0.02058
2196.84,0.02089
2191.05,0.02091
2185.27,0.02075
2179.48,0.02041
2173.7,0.02040
2167.91,0.02056
2162.12,0.02054
2156.34,0.02072
2150.55,0.02072
2144.76,0.02048
2138.98,0.02071
2133.19,0.02061
2127.41,0.02097
2121.62,0.02067
2115.83,0.02055
2110.05,0.02092
2104.26,0.02086
2098.47,0.02078
2092.69,0.02062
2086.9,0.02055
2081.12,0.02059
2075.33,0.02039
2069.54,0.02058
2063.76,0.02041
2057.97,0.02058
2052.19,0.02059
2046.4,0.02072
2040.61,0.02017
2034.83,0.02021
2029.04,0.02048
2023.25,0.02070
2017.47,0.02024
2011.68,0.02048
2005.9,0.02067
2000.11,0.02064
1994.32,0.02041
1988.54,0.02028
1982.75,0.02061
1976.96,0.02076
1971.18,0.02033
1965.39,0.02076
1959.61,0.02051
1953.82,0.02017
1948.03,0.02054
1942.25,0.02015
1936.46,0.02023
1930.67,0.02030
1924.89,0.02037
1919.1,0.02056
1913.32,0.02057
1907.53,0.02060
1901.74,0.02059
1895.96,0.02031
1890.17,0.02031
1884.38,0.02039
1878.6,0.02020
1872.81,0.02019
1867.03,0.02004
1861.24,0.02009
1855.45,0.02020
1849.67,0.02003
1843.88,0.02005
1838.09,0.02012
1832.31,0.01961
1826.52,0.01979
1820.74,0.01944
1814.95,0.01967
1809.16,0.01927
1803.38,0.01981
1797.59,0.01959
1791.8,0.01953
1786.02,0.01894
1780.23,0.01900
1774.45,0.01895
1768.66,0.01828
1762.87,0.01780
1757.09,0.01745
1751.3,0.01717
1745.51,0.01759
1739.73,0.01840
1733.94,0.01954
1728.16,0.02030
1722.37,0.02076
1716.58,0.02050
1710.8,0.02036
1705.01,0.01993
1699.22,0.02006
1693.44,0.01955
1687.65,0.01890
1681.87,0.01861
1676.08,0.01886
1670.29,0.01864
1664.51,0.01817
1658.72,0.01818
1652.93,0.01874
1647.15,0.01811
1641.36,0.01821
1635.58,0.01839
1629.79,0.01836
1624,0.01852
1618.22,0.01899
1612.43,0.01876
1606.64,0.01857
1600.86,0.01873
1595.07,0.01842
1589.29,0.01839
1583.5,0.01843
1577.71,0.01869
1571.93,0.01814
1566.14,0.01804
1560.35,0.01888
1554.57,0.01807
1548.78,0.01815
1543,0.01821
1537.21,0.01875
1531.42,0.01807
1525.64,0.01836
1519.85,0.01815
1514.07,0.01854
1508.28,0.01828
1502.49,0.01836
1496.71,0.01873
1490.92,0.01875
1485.13,0.01852
1479.35,0.01814
1473.56,0.01840
1467.78,0.01796
1461.99,0.01851
1456.2,0.01822
1450.42,0.01849
1444.63,0.01884
1438.84,0.01880
1433.06,0.01849
1427.27,0.01841
1421.49,0.01829
1415.7,0.01819
1409.91,0.01798
1404.13,0.01850
1398.34,0.01788
1392.55,0.01793
1386.77,0.01822
1380.98,0.01801
1375.2,0.01841
1369.41,0.01771
1363.62,0.01822
1357.84,0.01784
1352.05,0.01775
1346.26,0.01767
1340.48,0.01755
1334.69,0.01729
1328.91,0.01743
1323.12,0.01756
1317.33,0.01697
1311.55,0.01666
1305.76,0.01715
1299.97,0.01736
1294.19,0.01772
1288.4,0.01829
1282.62,0.01850
1276.83,0.01915
1271.04,0.01944
1265.26,0.01942
1259.47,0.01957
1253.68,0.02003
1247.9,0.02021
1242.11,0.02019
1236.33,0.01967
1230.54,0.01934
1224.75,0.01933
1218.97,0.01908
1213.18,0.01907
1207.39,0.01889
1201.61,0.01851
1195.82,0.01819
1190.04,0.01780
1184.25,0.01791
1178.46,0.01781
1172.68,0.01812
1166.89,0.01756
1161.1,0.01744
1155.32,0.01713
1149.53,0.01692
1143.75,0.01758
1137.96,0.01787
1132.17,0.01867
1126.39,0.01870
1120.6,0.01870
1114.81,0.01944
1109.03,0.01866
1103.24,0.01847
1097.46,0.01808
1091.67,0.01837
1085.88,0.01837
1080.1,0.01811
1074.31,0.01882
1068.52,0.01995
1062.74,0.01973
1056.95,0.01950
1051.17,0.01969
1045.38,0.01899
1039.59,0.01971
1033.81,0.01992
1028.02,0.01963
1022.24,0.01952
1016.45,0.01929
1010.66,0.01958
1004.88,0.02040
999.09,0.02056
993.304,0.02093
987.518,0.02075
981.731,0.02084
975.945,0.02037
970.159,0.01990
964.373,0.01986
958.586,0.02009
952.8,0.01951
947.014,0.01990
941.228,0.01938
935.441,0.01936
929.655,0.01981
923.869,0.01918
918.083,0.01888
912.297,0.01909
906.51,0.01870
900.724,0.01932
894.938,0.01917
889.152,0.01848
883.365,0.01856
877.579,0.01893
871.793,0.01881
866.007,0.01917
860.22,0.01886
854.434,0.01920
848.648,0.01837
842.862,0.01859
837.075,0.01818
831.289,0.01850
825.503,0.01815
819.717,0.01852
813.931,0.01882
808.144,0.01824
802.358,0.01871
796.572,0.01794
790.786,0.01775
784.999,0.01839
779.213,0.01814
773.427,0.01819
767.641,0.01882
761.854,0.01806
756.068,0.01797
750.282,0.01828
744.496,0.01915
738.709,0.01831
732.923,0.01756
727.137,0.01941
721.351,0.01851
715.565,0.01827
709.778,0.01807
703.992,0.01722
698.206,0.01763
692.42,0.01796
686.633,0.01788
680.847,0.01849
675.061,0.01798
669.275,0.01792
663.488,0.01791
657.702,0.01715
651.916,0.01737
646.13,0.01737
640.343,0.01848
634.557,0.01706
628.771,0.01464
622.985,0.01603
617.198,0.01553
611.412,0.01606
605.626,0.01596
599.84,0.01637