File: 01_Data/Helmet_Flap/STA/N2/30K_min/Helmet_Flap_STA_N2_30KData_250519_R3.csv
Temp./C,Time/min,DSC/(mW/mg),Mass loss/mg
40.0,0.0,1.295,-0.0572221
40.6,0.0399156,1.35296,-0.0583867
41.2,0.077128,1.40819,-0.0576445
41.8,0.113017,1.46809,-0.0591043
42.4,0.14828,1.51937,-0.0577632
43,0.183424,1.57515,-0.0576385
43.6,0.215954,1.62831,-0.0574461
44.2,0.249317,1.67238,-0.0567254
44.8,0.282243,1.71926,-0.0570212
45.4,0.313651,1.77659,-0.0586926
46,0.344673,1.81984,-0.0590569
46.6,0.375191,1.86073,-0.0579414
47.2,0.405485,1.91605,-0.0595311
47.8,0.436447,1.95907,-0.0592181
48.4,0.46627,2.00597,-0.061003
49,0.495413,2.04314,-0.0610038
49.6,0.52418,2.09925,-0.061984
50.2,0.553852,2.14531,-0.0613629
50.8,0.581103,2.19017,-0.0614812
51.4,0.610014,2.24047,-0.0608492
52,0.637302,2.29073,-0.0599263
52.6,0.664636,2.33395,-0.0610368
53.2,0.691453,2.37403,-0.0623783
53.8,0.719035,2.41854,-0.0640272
54.4,0.746806,2.46001,-0.0643895
55,0.773548,2.50006,-0.0633773
55.6,0.800758,2.54759,-0.0638509
56.2,0.826874,2.59722,-0.064138
56.8,0.85237,2.63938,-0.0663549
57.4,0.879759,2.6802,-0.0687655
58,0.905209,2.73,-0.0711544
58.6,0.931396,2.77118,-0.0726145
59.2,0.956658,2.82011,-0.0736863
59.8,0.982282,2.87596,-0.073755
60.4,1.00749,2.9174,-0.0737638
61,1.03247,2.96691,-0.0734301
61.6,1.05778,3.01016,-0.072211
62.2,1.08262,3.05211,-0.0717848
62.8,1.10744,3.10787,-0.0721685
63.4,1.13255,3.15192,-0.0725595
64,1.1569,3.19449,-0.0738041
64.6,1.18177,3.24335,-0.0739469
65.2,1.20655,3.28515,-0.0727847
65.8,1.23031,3.33843,-0.073784
66.4,1.25462,3.39003,-0.075004
67,1.27872,3.43531,-0.0766197
67.6,1.30341,3.47784,-0.0783913
68.2,1.32688,3.52352,-0.080103
68.8,1.35046,3.57564,-0.0808892
69.4,1.37505,3.61447,-0.0801399
70,1.39861,3.65766,-0.0798974
70.6,1.42256,3.70246,-0.0803758
71.2,1.44666,3.74741,-0.0817431
71.8,1.47025,3.79202,-0.0828432
72.4,1.49376,3.83263,-0.0840246
73,1.5166,3.87478,-0.0842208
73.6,1.53991,3.91741,-0.0856176
74.2,1.56376,3.95063,-0.0857053
74.8,1.58697,3.99286,-0.0871105
75.4,1.6103,4.03136,-0.0885662
76,1.63367,4.05848,-0.0890565
76.6,1.65657,4.11274,-0.0904033
77.2,1.67963,4.15114,-0.0915062
77.8,1.7026,4.18821,-0.0917682
78.4,1.72563,4.216,-0.0917709
79,1.74844,4.24743,-0.0917837
79.6,1.77129,4.29147,-0.0922637
80.2,1.79366,4.31988,-0.0918209
80.8,1.81689,4.35098,-0.0926458
81.4,1.83922,4.38144,-0.0932465
82,1.8614,4.41525,-0.0948404
82.6,1.88431,4.44315,-0.0958217
83.2,1.9069,4.4718,-0.0963707
83.8,1.92909,4.47951,-0.0981256
84.4,1.95135,4.505,-0.0990696
85,1.97342,4.54046,-0.100447
85.6,1.99571,4.5542,-0.100439
86.2,2.01742,4.56526,-0.101599
86.8,2.03929,4.5837,-0.101764
87.4,2.06189,4.60318,-0.101829
88,2.08357,4.61492,-0.104617
88.6,2.10504,4.6201,-0.106192
89.2,2.12718,4.63072,-0.106249
89.8,2.14827,4.64859,-0.107537
90.4,2.16979,4.65095,-0.107506
91,2.19157,4.65995,-0.108115
91.6,2.21316,4.65567,-0.108732
92.2,2.23453,4.66577,-0.1104
92.8,2.25625,4.67042,-0.111419
93.4,2.27724,4.66378,-0.111553
94,2.29894,4.66953,-0.112789
94.6,2.31958,4.66624,-0.112643
95.2,2.3412,4.66487,-0.115059
95.8,2.36225,4.65142,-0.115903
96.4,2.38359,4.64424,-0.116968
97,2.40453,4.63309,-0.119893
97.6,2.42523,4.62695,-0.120304
98.2,2.44659,4.61139,-0.121385
98.8,2.46749,4.60715,-0.122909
99.4,2.48836,4.60091,-0.123876
100,2.50758,4.58661,-0.125184
100.6,2.52867,4.57096,-0.125299
101.2,2.55062,4.5486,-0.126677
101.8,2.57137,4.54528,-0.126597
102.4,2.59185,4.51217,-0.127073
103,2.6129,4.50365,-0.128123
103.6,2.63342,4.47809,-0.129245
104.2,2.65414,4.45544,-0.130542
104.8,2.67473,4.43469,-0.130539
105.4,2.69521,4.41309,-0.13052
106,2.71601,4.38778,-0.131429
106.6,2.73612,4.37014,-0.131838
107.2,2.75672,4.35012,-0.131868
107.8,2.77611,4.31664,-0.132145
108.4,2.79765,4.31544,-0.134578
109,2.81767,4.27997,-0.134487
109.6,2.83838,4.25596,-0.134478
110.2,2.85778,4.2383,-0.135566
110.8,2.87835,4.21709,-0.134588
111.4,2.89914,4.1828,-0.134671
112,2.91944,4.16199,-0.135846
112.6,2.9395,4.13391,-0.135812
113.2,2.96001,4.12139,-0.13581
113.8,2.98002,4.09726,-0.13581
114.4,3.00029,4.06465,-0.13581
115,3.02034,4.05148,-0.13581
115.6,3.0405,4.02354,-0.135808
116.2,3.0608,3.99607,-0.137118
116.8,3.08112,3.97582,-0.137123
117.4,3.10079,3.95016,-0.137145
118,3.12109,3.9268,-0.137757
118.6,3.14132,3.90095,-0.138434
119.2,3.16096,3.87501,-0.13843
119.8,3.18111,3.86686,-0.13843
120.4,3.20108,3.84477,-0.13843
121,3.22068,3.81641,-0.13843
121.6,3.24063,3.8045,-0.13843
122.2,3.26102,3.78964,-0.13843
122.8,3.28054,3.77806,-0.13843
123.4,3.30021,3.74354,-0.138431
124,3.3201,3.72636,-0.138451
124.6,3.3394,3.70494,-0.138866
125.2,3.35966,3.67889,-0.140842
125.8,3.37918,3.65146,-0.14113
126.4,3.39923,3.6222,-0.142269
127,3.41855,3.59665,-0.143807
127.6,3.43847,3.55816,-0.143823
128.2,3.458,3.54461,-0.145185
128.8,3.47641,3.52934,-0.146505
129.4,3.49713,3.50504,-0.146449
130,3.51675,3.48272,-0.146487
130.6,3.53624,3.4705,-0.145331
131.2,3.55596,3.45035,-0.145132
131.8,3.57484,3.44056,-0.145145
132.4,3.59469,3.41837,-0.145617
133,3.61378,3.40919,-0.144814
133.6,3.63355,3.40568,-0.144797
134.2,3.65248,3.38923,-0.144522
134.8,3.67191,3.37004,-0.14447
135.4,3.69125,3.35612,-0.144399
136,3.71065,3.35657,-0.145255
136.6,3.72998,3.34142,-0.14421
137.2,3.7492,3.33699,-0.143823
137.8,3.76861,3.32539,-0.143805
138.4,3.78745,3.32672,-0.143757
139,3.80704,3.31087,-0.144976
139.6,3.82622,3.30358,-0.145757
140.2,3.84519,3.30398,-0.146125
140.8,3.86433,3.30141,-0.146119
141.4,3.88321,3.30082,-0.145251
142,3.90258,3.29968,-0.144988
142.6,3.92116,3.29944,-0.145121
143.2,3.93965,3.29419,-0.145129
143.8,3.95934,3.29626,-0.145125
144.4,3.97841,3.29617,-0.145053
145,3.99795,3.29058,-0.144062
145.6,4.01692,3.30229,-0.144822
146.2,4.03545,3.31115,-0.145466
146.8,4.05459,3.31508,-0.145458
147.4,4.07375,3.31842,-0.145119
148,4.09259,3.33169,-0.145037
148.6,4.11178,3.33674,-0.14649
149.2,4.13075,3.33525,-0.145171
149.8,4.14876,3.34207,-0.145141
150.4,4.16833,3.35297,-0.145111
151,4.18721,3.37221,-0.143727
151.6,4.206,3.36825,-0.143815
152.2,4.22476,3.37464,-0.143812
152.8,4.24282,3.37682,-0.143569
153.4,4.26245,3.39679,-0.143293
154,4.2818,3.39982,-0.143202
154.6,4.30023,3.40359,-0.142795
155.2,4.31911,3.42127,-0.142871
155.8,4.33762,3.42104,-0.141906
156.4,4.3567,3.43173,-0.141529
157,4.37522,3.4468,-0.141167
157.6,4.39315,3.44446,-0.141179
158.2,4.41258,3.45408,-0.14119
158.8,4.43143,3.45846,-0.141592
159.4,4.45025,3.47514,-0.142545
160,4.46907,3.47215,-0.142529
160.6,4.48745,3.48005,-0.142769
161.2,4.50636,3.49361,-0.144035
161.8,4.52483,3.49672,-0.1458
162.4,4.54339,3.50103,-0.147127
163,4.56232,3.51044,-0.148219
163.6,4.58083,3.5147,-0.148159
164.2,4.5997,3.51152,-0.149278
164.8,4.61782,3.52326,-0.149516
165.4,4.63696,3.53489,-0.149529
166,4.65565,3.54255,-0.14953
166.6,4.67412,3.54105,-0.14953
167.2,4.69279,3.54601,-0.14952
167.8,4.71112,3.55886,-0.149142
168.4,4.72977,3.57238,-0.148173
169,4.74812,3.5743,-0.147835
169.6,4.76667,3.57853,-0.147209
170.2,4.7858,3.58352,-0.147218
170.8,4.80386,3.59429,-0.14722
171.4,4.82247,3.59941,-0.14722
172,4.84098,3.61491,-0.147218
172.6,4.85927,3.61623,-0.147198
173.2,4.87778,3.62297,-0.146941
173.8,4.89641,3.62528,-0.145893
174.4,4.91455,3.63263,-0.145894
175,4.93311,3.65011,-0.146798
175.6,4.95191,3.66333,-0.148483
176.2,4.9695,3.6688,-0.148988
176.8,4.98762,3.66959,-0.150326
177.4,5.00732,3.67887,-0.152475
178,5.02535,3.68452,-0.153016
178.6,5.04394,3.6873,-0.15303
179.2,5.06225,3.69321,-0.153045
179.8,5.08037,3.69797,-0.153425
180.4,5.09867,3.69966,-0.153642
181,5.11713,3.71392,-0.152389
181.6,5.13557,3.72167,-0.152381
182.2,5.1535,3.7285,-0.15238
182.8,5.17201,3.73311,-0.152379
183.4,5.19033,3.73438,-0.152375
184,5.20855,3.7469,-0.152383
184.6,5.22678,3.74955,-0.151125
185.2,5.24465,3.76082,-0.151069
185.8,5.2631,3.76544,-0.151061
186.4,5.28142,3.77289,-0.15106
187,5.29918,3.7747,-0.15106
187.6,5.3176,3.77817,-0.15106
188.2,5.33605,3.79189,-0.15106
188.8,5.35385,3.79618,-0.15106
189.4,5.37212,3.80589,-0.151067
190,5.39026,3.80425,-0.150109
190.6,5.40846,3.80998,-0.149766
191.2,5.42638,3.81655,-0.149764
191.8,5.44466,3.81977,-0.150303
192.4,5.46252,3.82395,-0.151078
193,5.48035,3.8291,-0.151393
193.6,5.49861,3.82829,-0.152432
194.2,5.51681,3.83913,-0.15236
194.8,5.53473,3.8457,-0.153063
195.4,5.55285,3.84375,-0.153715
196,5.57121,3.84395,-0.15369
196.6,5.58892,3.84506,-0.154487
197.2,5.60671,3.8557,-0.153745
197.8,5.62487,3.84933,-0.153709
198.4,5.64311,3.86008,-0.153709
199,5.66089,3.864,-0.154058
199.6,5.67861,3.8707,-0.155058
200.2,5.69683,3.87351,-0.155008
200.8,5.71494,3.87074,-0.154911
201.4,5.73287,3.87418,-0.156016
202,5.75084,3.87828,-0.154956
202.6,5.76884,3.88379,-0.155026
203.2,5.78639,3.88837,-0.155091
203.8,5.80479,3.88765,-0.15604
204.4,5.82271,3.89108,-0.154958
205,5.84063,3.89461,-0.155006
205.6,5.8586,3.90021,-0.15501
206.2,5.87657,3.89369,-0.15501
206.8,5.89443,3.89868,-0.155009
207.4,5.91219,3.90347,-0.155022
208,5.93031,3.90666,-0.155502
208.6,5.94819,3.90799,-0.15503
209.2,5.96615,3.91049,-0.155016
209.8,5.98427,3.91143,-0.155011
210.4,6.00173,3.91539,-0.15501
211,6.01971,3.91716,-0.155009
211.6,6.03752,3.90984,-0.155004
212.2,6.05569,3.90207,-0.155442
212.8,6.07309,3.91346,-0.156186
213.4,6.09127,3.91152,-0.156014
214,6.10919,3.9067,-0.156
214.6,6.12686,3.91469,-0.155996
215.2,6.14469,3.90708,-0.155996
215.8,6.16281,3.90028,-0.156835
216.4,6.18069,3.89826,-0.157323
217,6.19834,3.90697,-0.15732
217.6,6.21618,3.90311,-0.15732
218.2,6.23401,3.9032,-0.157321
218.8,6.25171,3.90136,-0.157325
219.4,6.26972,3.90213,-0.158247
220,6.28718,3.90618,-0.159928
220.6,6.30524,3.89943,-0.159991
221.2,6.32304,3.91158,-0.161261
221.8,6.34096,3.90736,-0.161264
222.4,6.3588,3.91356,-0.161222
223,6.37654,3.90295,-0.162162
223.6,6.39419,3.89906,-0.161298
224.2,6.41208,3.89526,-0.161269
224.8,6.42989,3.89377,-0.162232
225.4,6.44769,3.89231,-0.162658
226,6.46523,3.88186,-0.163089
226.6,6.4832,3.88187,-0.164034
227.2,6.50116,3.88104,-0.164131
227.8,6.5186,3.87091,-0.165577
228.4,6.53634,3.85543,-0.165601
229,6.55392,3.85297,-0.166959
229.6,6.57201,3.86318,-0.168686
230.2,6.58983,3.85067,-0.170374
230.8,6.60743,3.85151,-0.172017
231.4,6.62547,3.85072,-0.172573
232,6.64293,3.84765,-0.172869
232.6,6.66088,3.84649,-0.17443
233.2,6.67861,3.8397,-0.175045
233.8,6.69645,3.84233,-0.176204
234.4,6.71405,3.82916,-0.176836
235,6.73196,3.8254,-0.176691
235.6,6.74948,3.82964,-0.176224
236.2,6.76729,3.82228,-0.176201
236.8,6.7846,3.80784,-0.1762
237.4,6.8026,3.79628,-0.176201
238,6.8204,3.79183,-0.176223
238.6,6.83812,3.80053,-0.176491
239.2,6.85514,3.79961,-0.178132
239.8,6.87313,3.79423,-0.178865
240.4,6.89122,3.7898,-0.17874
241,6.90914,3.79115,-0.18028
241.6,6.92584,3.78375,-0.180493
242.2,6.94377,3.77307,-0.181882
242.8,6.96229,3.76108,-0.183568
243.4,6.9798,3.76168,-0.185212
244,6.99775,3.76578,-0.186441
244.6,7.0154,3.76491,-0.187248
245.2,7.03275,3.75285,-0.188782
245.8,7.0508,3.75787,-0.190494
246.4,7.06851,3.75431,-0.192521
247,7.08631,3.76299,-0.194729
247.6,7.10372,3.77936,-0.196564
248.2,7.12208,3.83208,-0.197735
248.8,7.14001,3.90205,-0.197905
249.4,7.15767,3.99547,-0.197907
250,7.1759,4.1137,-0.198257
250.6,7.19434,4.26815,-0.198915
251.2,7.2124,4.43951,-0.199904
251.8,7.23062,4.55431,-0.201131
252.4,7.24853,4.62113,-0.201538
253,7.2665,4.63301,-0.20317
253.6,7.28407,4.60254,-0.204606
254.2,7.30145,4.5408,-0.205545
254.8,7.31927,4.49643,-0.207234
255.4,7.3366,4.46974,-0.20884
256,7.35471,4.46211,-0.210584
256.6,7.37183,4.44364,-0.21233
257.2,7.38987,4.44025,-0.213625
257.8,7.40735,4.43053,-0.213958
258.4,7.4251,4.40635,-0.215536
259,7.44242,4.3644,-0.215959
259.6,7.46014,4.32923,-0.21756
260.2,7.47771,4.27051,-0.219437
260.8,7.49513,4.20831,-0.221884
261.4,7.51279,4.13856,-0.223889
262,7.53031,4.07283,-0.226128
262.6,7.54792,4.01171,-0.227687
263.2,7.56541,3.96109,-0.228787
263.8,7.58277,3.91659,-0.229839
264.4,7.60027,3.87613,-0.23183
265,7.61786,3.83922,-0.233353
265.6,7.63508,3.8017,-0.23467
266.2,7.65333,3.78172,-0.235916
266.8,7.67065,3.75526,-0.237593
267.4,7.68816,3.73192,-0.239304
268,7.70579,3.71779,-0.241452
268.6,7.7234,3.69056,-0.243584
269.2,7.74098,3.66693,-0.245381
269.8,7.75894,3.6589,-0.248403
270.4,7.77641,3.64565,-0.250203
271,7.79394,3.63818,-0.25222
271.6,7.81183,3.61035,-0.254168
272.2,7.82937,3.60497,-0.255278
272.8,7.84686,3.59335,-0.256121
273.4,7.86499,3.5879,-0.256591
274,7.88229,3.57453,-0.258027
274.6,7.90002,3.56279,-0.257748
275.2,7.91781,3.56142,-0.258456
275.8,7.93537,3.55023,-0.259523
276.4,7.9526,3.51989,-0.261424
277,7.97068,3.51132,-0.262419
277.6,7.98825,3.51126,-0.263599
278.2,8.00559,3.49746,-0.265406
278.8,8.02342,3.48227,-0.266637
279.4,8.04107,3.47243,-0.268466
280,8.0586,3.4566,-0.270377
280.6,8.07668,3.44416,-0.272819
281.2,8.09413,3.43582,-0.274879
281.8,8.11181,3.41954,-0.275453
282.4,8.12934,3.3932,-0.276517
283,8.14704,3.39068,-0.27706
283.6,8.1649,3.37242,-0.277878
284.2,8.18224,3.35108,-0.280483
284.8,8.20011,3.32403,-0.283054
285.4,8.21763,3.30539,-0.285093
286,8.2352,3.29028,-0.285901
286.6,8.25269,3.26038,-0.288557
287.2,8.26999,3.23085,-0.290492
287.8,8.28797,3.20841,-0.292532
288.4,8.30541,3.18585,-0.292002
289,8.32327,3.15455,-0.293522
289.6,8.34066,3.12164,-0.294845
290.2,8.35844,3.09841,-0.296441
290.8,8.37599,3.06519,-0.298088
291.4,8.39354,3.02711,-0.299612
292,8.41116,2.9929,-0.301552
292.6,8.42901,2.9555,-0.305008
293.2,8.44657,2.90601,-0.308175
293.8,8.46419,2.86634,-0.310766
294.4,8.48175,2.82482,-0.313414
295,8.49928,2.79048,-0.315834
295.6,8.51671,2.74917,-0.317832
296.2,8.53437,2.69869,-0.319571
296.8,8.55175,2.65009,-0.321222
297.4,8.56966,2.60319,-0.322888
298,8.58714,2.55561,-0.323423
298.6,8.60391,2.50769,-0.324274
299.2,8.62213,2.44535,-0.325481
299.8,8.63973,2.39432,-0.326471
300.4,8.6571,2.34129,-0.328388
301,8.67475,2.28173,-0.330484
301.6,8.69228,2.22032,-0.33243
302.2,8.70999,2.1526,-0.334026
302.8,8.72736,2.09011,-0.336717
303.4,8.74502,2.01899,-0.338193
304,8.76229,1.94794,-0.34148
304.6,8.77972,1.87431,-0.343954
305.2,8.79708,1.78473,-0.3463
305.8,8.81476,1.69613,-0.350136
306.4,8.83217,1.60816,-0.35217
307,8.84925,1.51193,-0.354762
307.6,8.86699,1.39921,-0.358002
308.2,8.8844,1.27183,-0.36007
308.8,8.90149,1.13333,-0.362735
309.4,8.91883,1.00547,-0.365871
310,8.93578,0.852656,-0.368949
310.6,8.95237,0.690359,-0.371767
311.2,8.97025,0.51391,-0.376801
311.8,8.98727,0.321065,-0.381016
312.4,9.00424,0.106834,-0.386806
313,9.0214,-0.122313,-0.39058
313.6,9.03812,-0.368888,-0.394626
314.2,9.05476,-0.641086,-0.398458
314.8,9.07161,-0.930426,-0.402391
315.4,9.08835,-1.25438,-0.407558
316,9.10496,-1.59859,-0.412173
316.6,9.12148,-1.97022,-0.419527
317.2,9.13767,-2.34975,-0.42616
317.8,9.15411,-2.75078,-0.434305
318.4,9.17066,-3.15996,-0.444123
319,9.18675,-3.55289,-0.453081
319.6,9.20338,-3.92224,-0.466369
320.2,9.21992,-4.25281,-0.477744
320.8,9.23695,-4.51753,-0.494766
321.4,9.25385,-4.70677,-0.512353
322,9.27125,-4.80855,-0.531712
322.6,9.28851,-4.80099,-0.556819
323.2,9.30638,-4.71422,-0.580795
323.8,9.32458,-4.53635,-0.614193
324.4,9.3425,-4.29876,-0.641364
325,9.36169,-3.99487,-0.680501
325.6,9.38014,-3.66206,-0.712498
326.2,9.39916,-3.30738,-0.751954
326.8,9.41765,-2.97175,-0.786488
327.4,9.43666,-2.63411,-0.827543
328,9.45534,-2.31257,-0.866102
328.6,9.47383,-2.02517,-0.904828
329.2,9.49243,-1.76149,-0.945938
329.8,9.51132,-1.50585,-0.98372
330.4,9.52977,-1.29187,-1.02565
331,9.54777,-1.11579,-1.05944
331.6,9.56619,-0.962911,-1.10188
332.2,9.58434,-0.821597,-1.13382
332.8,9.60259,-0.708666,-1.17357
333.4,9.62079,-0.60657,-1.20399
334,9.63889,-0.535639,-1.24013
334.6,9.65683,-0.45419,-1.27139
335.2,9.67498,-0.40195,-1.30443
335.8,9.69321,-0.349953,-1.33698
336.4,9.71139,-0.278304,-1.36562
337,9.72956,-0.206596,-1.39619
337.6,9.74764,-0.130869,-1.41927
338.2,9.76583,-0.0238448,-1.44595
338.8,9.78424,0.109233,-1.46502
339.4,9.80247,0.232945,-1.48708
340,9.8207,0.382191,-1.50244
340.6,9.839,0.5412,-1.51922
341.2,9.8572,0.705894,-1.53196
341.8,9.87571,0.871118,-1.54473
342.4,9.89524,1.05468,-1.55537
343,9.91357,1.22167,-1.56405
343.6,9.93209,1.3823,-1.57212
344.2,9.95057,1.52025,-1.57877
344.8,9.96897,1.65378,-1.58565
345.4,9.98741,1.76855,-1.59034
346,10.0058,1.87949,-1.59545
346.6,10.0242,1.96999,-1.59924
347.2,10.0422,2.03414,-1.60264
347.8,10.0608,2.09561,-1.60597
348.4,10.079,2.14864,-1.60978
349,10.0969,2.18607,-1.61354
349.6,10.1153,2.21526,-1.6173
350.2,10.133,2.24837,-1.62227
350.8,10.1516,2.27246,-1.62497
351.4,10.1697,2.2843,-1.62654
352,10.1875,2.28751,-1.62816
352.6,10.2058,2.29223,-1.63012
353.2,10.2237,2.28945,-1.63264
353.8,10.2421,2.29051,-1.63496
354.4,10.2596,2.29015,-1.63655
355,10.278,2.27786,-1.63806
355.6,10.2958,2.27353,-1.63995
356.2,10.3139,2.26164,-1.64172
356.8,10.3319,2.25559,-1.64385
357.4,10.3502,2.24687,-1.64666
358,10.368,2.24348,-1.64769
358.6,10.3863,2.2259,-1.65015
359.2,10.4041,2.21197,-1.65253
359.8,10.4224,2.21197,-1.65428
360.4,10.4403,2.21134,-1.65531
361,10.4585,2.19756,-1.65655
361.6,10.4767,2.18579,-1.65773
362.2,10.4945,2.182,-1.6587
362.8,10.5126,2.17039,-1.66057
363.4,10.5302,2.15462,-1.66248
364,10.549,2.14782,-1.66452
364.6,10.5665,2.1403,-1.66675
365.2,10.5848,2.13277,-1.66862
365.8,10.6028,2.11672,-1.6703
366.4,10.6208,2.10875,-1.67275
367,10.639,2.09412,-1.67476
367.6,10.6571,2.09064,-1.67617
368.2,10.6754,2.0909,-1.67737
368.8,10.6933,2.07873,-1.67941
369.4,10.7116,2.07816,-1.68252
370,10.7294,2.06519,-1.68531
370.6,10.7475,2.05783,-1.68733
371.2,10.7655,2.05648,-1.68899
371.8,10.784,2.05596,-1.69072
372.4,10.802,2.04461,-1.69232
373,10.8202,2.0429,-1.69392
373.6,10.8382,2.03085,-1.69584
374.2,10.8563,2.02837,-1.69807
374.8,10.8744,2.02943,-1.69986
375.4,10.8927,2.02114,-1.70159
376,10.9106,2.01927,-1.70348
376.6,10.9289,2.0147,-1.70592
377.2,10.9471,2.01654,-1.70834
377.8,10.9654,2.02296,-1.7108
378.4,10.9835,2.01444,-1.71317
379,11.0014,2.01487,-1.71536
379.6,11.02,2.0201,-1.71756
380.2,11.038,2.02027,-1.71923
380.8,11.0565,2.03156,-1.72082
381.4,11.0745,2.03854,-1.72292
382,11.0928,2.03639,-1.72521
382.6,11.1108,2.0397,-1.72802
383.2,11.1291,2.03934,-1.73042
383.8,11.1476,2.03706,-1.7326
384.4,11.1655,2.05151,-1.73477
385,11.1838,2.04825,-1.73658
385.6,11.2022,2.0561,-1.73775
386.2,11.2205,2.09146,-1.73914
386.8,11.2388,2.10367,-1.74081
387.4,11.2571,2.11231,-1.74365
388,11.2751,2.13519,-1.74707
388.6,11.2934,2.14438,-1.74928
389.2,11.3116,2.15995,-1.75242
389.8,11.3302,2.17424,-1.75572
390.4,11.3486,2.19428,-1.75849
391,11.3668,2.21763,-1.75992
391.6,11.385,2.23774,-1.76211
392.2,11.4038,2.26097,-1.76491
392.8,11.4217,2.26789,-1.76788
393.4,11.4403,2.29288,-1.77049
394,11.4585,2.31891,-1.77229
394.6,11.4768,2.34057,-1.77488
395.2,11.4953,2.36305,-1.77805
395.8,11.5137,2.37976,-1.77982
396.4,11.5321,2.39966,-1.78246
397,11.5505,2.42662,-1.78615
397.6,11.5686,2.43944,-1.78893
398.2,11.5869,2.46343,-1.79154
398.8,11.6055,2.48371,-1.79408
399.4,11.6236,2.51349,-1.79767
400,11.6423,2.53624,-1.80158
400.6,11.6607,2.54709,-1.80291
401.2,11.6791,2.56716,-1.80641
401.8,11.6976,2.58769,-1.80977
402.4,11.7152,2.60148,-1.81124
403,11.7341,2.62262,-1.8142
403.6,11.7527,2.63298,-1.81728
404.2,11.7707,2.63925,-1.8202
404.8,11.7892,2.65879,-1.82298
405.4,11.8078,2.673,-1.82522
406,11.8263,2.69065,-1.82745
406.6,11.8449,2.69496,-1.83022
407.2,11.863,2.70111,-1.8332
407.8,11.8814,2.70604,-1.83578
408.4,11.8997,2.71537,-1.8391
409,11.9184,2.71421,-1.84343
409.6,11.9366,2.71365,-1.84646
410.2,11.9546,2.71329,-1.84931
410.8,11.9729,2.71255,-1.85232
411.4,11.9914,2.70062,-1.85556
412,12.0103,2.69777,-1.85909
412.6,12.0284,2.68609,-1.86179
413.2,12.047,2.68668,-1.86396
413.8,12.0652,2.67831,-1.86754
414.4,12.0831,2.66424,-1.87006
415,12.1022,2.64679,-1.87338
415.6,12.1205,2.63143,-1.87671
416.2,12.139,2.62236,-1.87943
416.8,12.1573,2.59198,-1.88315
417.4,12.1759,2.58595,-1.88625
418,12.1941,2.56904,-1.88986
418.6,12.2121,2.55264,-1.89326
419.2,12.2304,2.53167,-1.89538
419.8,12.2494,2.51098,-1.89809
420.4,12.2675,2.48899,-1.9009
421,12.286,2.46898,-1.90313
421.6,12.3043,2.44119,-1.9057
422.2,12.3231,2.41918,-1.90783
422.8,12.3413,2.39366,-1.91083
423.4,12.3593,2.36872,-1.91382
424,12.378,2.34417,-1.91661
424.6,12.3965,2.32039,-1.91982
425.2,12.4148,2.29141,-1.92334
425.8,12.4335,2.26474,-1.92542
426.4,12.4516,2.23035,-1.92783
427,12.4702,2.21408,-1.93057
427.6,12.4888,2.18127,-1.93301
428.2,12.507,2.14675,-1.9354
428.8,12.5254,2.1158,-1.93788
429.4,12.5439,2.08621,-1.94077
430,12.5621,2.05652,-1.94325
430.6,12.5802,2.03187,-1.94507
431.2,12.5985,2.00843,-1.94788
431.8,12.6177,1.9815,-1.95095
432.4,12.6361,1.94944,-1.95275
433,12.6545,1.92944,-1.95458
433.6,12.6728,1.91297,-1.95647
434.2,12.6911,1.88523,-1.95814
434.8,12.7101,1.86057,-1.96072
435.4,12.7286,1.83533,-1.96388
436,12.7467,1.82084,-1.9666
436.6,12.7653,1.81087,-1.96899
437.2,12.7841,1.79431,-1.97166
437.8,12.8026,1.77675,-1.97467
438.4,12.8208,1.75784,-1.97663
439,12.8397,1.74218,-1.97882
439.6,12.8583,1.73483,-1.98142
440.2,12.8768,1.7258,-1.98477
440.8,12.8953,1.71592,-1.98706
441.4,12.9136,1.70602,-1.98881
442,12.9325,1.69967,-1.99079
442.6,12.9509,1.69181,-1.99311
443.2,12.9695,1.68688,-1.99599
443.8,12.9881,1.6744,-1.99891
444.4,13.0068,1.67385,-2.00073
445,13.0254,1.67788,-2.00279
445.6,13.044,1.67383,-2.00481
446.2,13.0625,1.66406,-2.00736
446.8,13.081,1.66176,-2.01007
447.4,13.0998,1.65281,-2.01324
448,13.1184,1.65773,-2.0161
448.6,13.1372,1.65527,-2.01853
449.2,13.1558,1.65265,-2.02081
449.8,13.1746,1.64794,-2.02373
450.4,13.1929,1.65452,-2.02633
451,13.2113,1.65719,-2.02828
451.6,13.2295,1.65649,-2.03055
452.2,13.2485,1.65765,-2.0324
452.8,13.2676,1.65772,-2.03466
453.4,13.2861,1.66078,-2.03711
454,13.3048,1.66349,-2.04004
454.6,13.3235,1.66295,-2.04196
455.2,13.3422,1.66688,-2.04507
455.8,13.3609,1.66828,-2.04818
456.4,13.3796,1.67736,-2.04983
457,13.3981,1.6748,-2.05154
457.6,13.4169,1.67518,-2.05333
458.2,13.4358,1.6795,-2.05555
458.8,13.4547,1.68553,-2.0579
459.4,13.4733,1.68753,-2.06069
460,13.4922,1.68795,-2.06393
460.6,13.5108,1.69653,-2.06557
461.2,13.5296,1.69924,-2.06718
461.8,13.5483,1.70615,-2.06873
462.4,13.567,1.69892,-2.07038
463,13.5858,1.70583,-2.07247
463.6,13.6045,1.70816,-2.07485
464.2,13.6234,1.70964,-2.07666
464.8,13.6421,1.71138,-2.07911
465.4,13.661,1.71475,-2.08093
466,13.6795,1.71762,-2.08196
466.6,13.6985,1.72199,-2.08325
467.2,13.7172,1.72734,-2.08533
467.8,13.7359,1.7297,-2.08712
468.4,13.7548,1.73383,-2.0898
469,13.7736,1.73745,-2.09272
469.6,13.7922,1.74159,-2.09469
470.2,13.8112,1.74229,-2.09605
470.8,13.8299,1.74001,-2.09796
471.4,13.8488,1.74317,-2.09972
472,13.8672,1.74543,-2.10101
472.6,13.8863,1.74889,-2.10225
473.2,13.905,1.75345,-2.10394
473.8,13.9238,1.76259,-2.10657
474.4,13.9423,1.7692,-2.10928
475,13.9616,1.77175,-2.11226
475.6,13.9802,1.76682,-2.11444
476.2,13.9992,1.76844,-2.11662
476.8,14.018,1.77152,-2.11848
477.4,14.037,1.77599,-2.12084
478,14.0559,1.77937,-2.12467
478.6,14.0745,1.77615,-2.1265
479.2,14.0934,1.78082,-2.12648
479.8,14.1124,1.78083,-2.12662
480.4,14.1308,1.78514,-2.12938
481,14.1499,1.78674,-2.13309
481.6,14.1689,1.79194,-2.13777
482.2,14.1878,1.80055,-2.13982
482.8,14.2067,1.80337,-2.1416
483.4,14.2253,1.7999,-2.14327
484,14.2443,1.80137,-2.14535
484.6,14.2634,1.80937,-2.14721
485.2,14.2823,1.81284,-2.14923
485.8,14.3014,1.8133,-2.15096
486.4,14.3201,1.81318,-2.15275
487,14.3393,1.82273,-2.15474
487.6,14.3578,1.82182,-2.15651
488.2,14.3768,1.82556,-2.15864
488.8,14.3959,1.8351,-2.16067
489.4,14.4147,1.83886,-2.16264
490,14.4339,1.84334,-2.16464
490.6,14.4527,1.84408,-2.16629
491.2,14.4716,1.84507,-2.16821
491.8,14.4906,1.85004,-2.16985
492.4,14.5091,1.86047,-2.17138
493,14.528,1.85799,-2.17329
493.6,14.5467,1.85843,-2.17406
494.2,14.5665,1.8648,-2.17482
494.8,14.5851,1.87209,-2.17625
495.4,14.6043,1.88365,-2.17797
496,14.6235,1.88868,-2.17973
496.6,14.6422,1.89449,-2.18135
497.2,14.6607,1.896,-2.18237
497.8,14.6796,1.89437,-2.18394
498.4,14.6986,1.90759,-2.18601
499,14.7177,1.8996,-2.18773
499.6,14.7366,1.90508,-2.19019
500.2,14.7558,1.90812,-2.19285
500.8,14.7751,1.91847,-2.19561
501.4,14.794,1.92541,-2.19759
502,14.8132,1.92754,-2.19854
502.6,14.8318,1.93192,-2.20024
503.2,14.8506,1.9381,-2.20094
503.8,14.8701,1.94338,-2.20288
504.4,14.8897,1.94983,-2.20472
505,14.9083,1.95662,-2.20539
505.6,14.927,1.95943,-2.20594
506.2,14.9463,1.97095,-2.20608
506.8,14.9655,1.98182,-2.20754
507.4,14.9847,1.98616,-2.20655
508,15.0034,1.99512,-2.20807
508.6,15.0224,1.99799,-2.20895
509.2,15.0415,2.00121,-2.21067
509.8,15.0605,2.01275,-2.21273
510.4,15.0798,2.02764,-2.21574
511,15.0989,2.02518,-2.21777
511.6,15.118,2.02413,-2.21965
512.2,15.1368,2.02904,-2.22085
512.8,15.1558,2.03866,-2.2222
513.4,15.1744,2.04012,-2.22331
514,15.1942,2.04417,-2.22506
514.6,15.2131,2.05183,-2.22645
515.2,15.2324,2.06478,-2.22697
515.8,15.2513,2.0655,-2.22796
516.4,15.2705,2.07858,-2.2289
517,15.2893,2.07696,-2.22925
517.6,15.3088,2.0832,-2.23081
518.2,15.3278,2.09343,-2.2317
518.8,15.3469,2.09688,-2.23191
519.4,15.3659,2.11284,-2.23301
520,15.3848,2.11121,-2.23487
520.6,15.4039,2.12457,-2.23508
521.2,15.4233,2.12789,-2.23571
521.8,15.4425,2.13898,-2.23663
522.4,15.4615,2.14633,-2.23847
523,15.4808,2.14731,-2.24006
523.6,15.4996,2.14888,-2.24148
524.2,15.5192,2.15685,-2.24223
524.8,15.5382,2.17169,-2.2439
525.4,15.5571,2.17687,-2.24589
526,15.5763,2.1823,-2.24758
526.6,15.5957,2.19199,-2.24948
527.2,15.6148,2.19361,-2.25129
527.8,15.6337,2.20745,-2.25087
528.4,15.6529,2.20545,-2.25218
529,15.672,2.21637,-2.25211
529.6,15.6911,2.22299,-2.25359
530.2,15.7105,2.23068,-2.25432
530.8,15.7296,2.23394,-2.2557
531.4,15.7488,2.23829,-2.25722
532,15.7677,2.24484,-2.25913
532.6,15.7871,2.25349,-2.26113
533.2,15.8061,2.26468,-2.26292
533.8,15.8252,2.26555,-2.26425
534.4,15.8445,2.26883,-2.26504
535,15.8638,2.2805,-2.26642
535.6,15.883,2.28813,-2.26731
536.2,15.9023,2.28958,-2.26791
536.8,15.9212,2.29287,-2.26819
537.4,15.9405,2.31104,-2.26966
538,15.9595,2.30469,-2.27132
538.6,15.9789,2.3137,-2.27425
539.2,15.998,2.31779,-2.27621
539.8,16.0172,2.32149,-2.27762
540.4,16.0364,2.32834,-2.27837
541,16.0557,2.33693,-2.27986
541.6,16.0749,2.33499,-2.28155
542.2,16.0939,2.33694,-2.28335
542.8,16.1132,2.3462,-2.28488
543.4,16.1323,2.34337,-2.28649
544,16.1516,2.35248,-2.28896
544.6,16.1709,2.35903,-2.29069
545.2,16.1901,2.35739,-2.29161
545.8,16.2096,2.35038,-2.29156
546.4,16.2285,2.35695,-2.29168
547,16.2471,2.36111,-2.29265
547.6,16.2668,2.37034,-2.29343
548.2,16.2862,2.3706,-2.29477
548.8,16.3054,2.36873,-2.29597
549.4,16.324,2.37456,-2.29633
550,16.3441,2.38134,-2.29639
550.6,16.363,2.38331,-2.29634
551.2,16.382,2.38215,-2.29631
551.8,16.4016,2.38547,-2.29623
552.4,16.4208,2.37862,-2.2976
553,16.44,2.37793,-2.29755
553.6,16.4593,2.37737,-2.29894
554.2,16.4784,2.3806,-2.29805
554.8,16.4975,2.37882,-2.29944
555.4,16.517,2.38459,-2.30111
556,16.5361,2.3849,-2.30287
556.6,16.5552,2.38693,-2.30448
557.2,16.5746,2.3776,-2.30745
557.8,16.594,2.37927,-2.30924
558.4,16.6127,2.37888,-2.31041
559,16.6324,2.38111,-2.31157
559.6,16.6514,2.37451,-2.31276
560.2,16.6709,2.36989,-2.31277
560.8,16.6902,2.37323,-2.31447
561.4,16.7095,2.37587,-2.31635
562,16.7288,2.37599,-2.31824
562.6,16.7479,2.3801,-2.3201
563.2,16.7675,2.37785,-2.3209
563.8,16.7864,2.38005,-2.32201
564.4,16.8056,2.36653,-2.32199
565,16.8251,2.37051,-2.32306
565.6,16.8444,2.37211,-2.32344
566.2,16.8636,2.36936,-2.32525
566.8,16.8828,2.36615,-2.32694
567.4,16.9021,2.36117,-2.32893
568,16.9214,2.36505,-2.33037
568.6,16.9406,2.36445,-2.33057
569.2,16.9598,2.36363,-2.3306
569.8,16.9792,2.35899,-2.331
570.4,16.9978,2.34913,-2.33191
571,17.0179,2.35554,-2.3322
571.6,17.0373,2.35645,-2.33292
572.2,17.0563,2.34651,-2.3335
572.8,17.0756,2.34996,-2.33384
573.4,17.095,2.34854,-2.33529
574,17.1143,2.34698,-2.33604
574.6,17.1336,2.34741,-2.33689
575.2,17.1532,2.34379,-2.33877
575.8,17.1721,2.34061,-2.34054
576.4,17.1916,2.33914,-2.34076
577,17.2109,2.34302,-2.34088
577.6,17.2303,2.34307,-2.34185
578.2,17.2498,2.34431,-2.3422
578.8,17.269,2.33664,-2.34311
579.4,17.2884,2.33522,-2.34344
580,17.3077,2.32969,-2.34268
580.6,17.3269,2.3327,-2.34382
581.2,17.3466,2.33303,-2.345
581.8,17.3656,2.33023,-2.34518
582.4,17.3847,2.32935,-2.34518
583,17.404,2.32379,-2.34518
583.6,17.4231,2.32404,-2.34518
584.2,17.4431,2.31235,-2.34511
584.8,17.4624,2.31601,-2.34784
585.4,17.4818,2.31249,-2.34939
586,17.501,2.31091,-2.35008
586.6,17.5205,2.3089,-2.35228
587.2,17.54,2.30605,-2.35464
587.8,17.5593,2.3027,-2.35634
588.4,17.5787,2.3016,-2.35786
589,17.5978,2.29342,-2.35872
589.6,17.6178,2.29588,-2.3604
590.2,17.6367,2.29348,-2.36323
590.8,17.6561,2.28969,-2.3647
591.4,17.6757,2.28246,-2.36507
592,17.695,2.27953,-2.36602
592.6,17.7146,2.28258,-2.3658
593.2,17.7339,2.27678,-2.36625
593.8,17.7534,2.27312,-2.3677
594.4,17.7728,2.26864,-2.36778
595,17.7921,2.27051,-2.3678
595.6,17.8113,2.26763,-2.36819
596.2,17.8309,2.26648,-2.36915
596.8,17.8505,2.26194,-2.36913
597.4,17.8701,2.26616,-2.36941
598,17.8892,2.26467,-2.37047
598.6,17.9085,2.26177,-2.37044
599.2,17.9283,2.25647,-2.37074
599.8,17.9479,2.25584,-2.37175
600.4,17.967,2.25627,-2.37174
601,17.9863,2.24262,-2.37174
601.6,18.0061,2.23769,-2.37179
602.2,18.0252,2.23626,-2.37301
602.8,18.0449,2.23565,-2.37171
603.4,18.0643,2.23527,-2.3724
604,18.0837,2.23756,-2.37308
604.6,18.103,2.23335,-2.37307
605.2,18.1228,2.23174,-2.37434
605.8,18.1422,2.23763,-2.37352
606.4,18.1616,2.23026,-2.37454
607,18.1811,2.23585,-2.37454
607.6,18.2007,2.23398,-2.37573
608.2,18.2199,2.2371,-2.37596
608.8,18.2396,2.23826,-2.37756
609.4,18.2592,2.22912,-2.37839
610,18.2786,2.23375,-2.37901
610.6,18.2981,2.23293,-2.37796
611.2,18.3177,2.22751,-2.37768
611.8,18.337,2.22761,-2.37768
612.4,18.3565,2.2293,-2.37774
613,18.376,2.23209,-2.37913
613.6,18.3955,2.2302,-2.38
614.2,18.4152,2.22139,-2.38091
614.8,18.4344,2.22718,-2.38261
615.4,18.4536,2.21765,-2.38362
616,18.4737,2.22668,-2.38442
616.6,18.4932,2.22492,-2.38505
617.2,18.5123,2.21997,-2.38622
617.8,18.5315,2.21829,-2.38633
618.4,18.5517,2.21844,-2.38637
619,18.571,2.21207,-2.38698
619.6,18.591,2.21909,-2.38781
620.2,18.6103,2.21847,-2.38903
620.8,18.6299,2.22076,-2.38898
621.4,18.6494,2.22107,-2.38994
622,18.669,2.22293,-2.3904
622.6,18.6886,2.21884,-2.39181
623.2,18.708,2.21643,-2.39325
623.8,18.7276,2.22173,-2.39479
624.4,18.747,2.21587,-2.39563
625,18.7669,2.2167,-2.39634
625.6,18.7861,2.22088,-2.39899
626.2,18.8056,2.2202,-2.3989
626.8,18.8255,2.21819,-2.40043
627.4,18.8448,2.21393,-2.40041
628,18.8644,2.21236,-2.40193
628.6,18.884,2.213,-2.40255
629.2,18.9038,2.21237,-2.40337
629.8,18.9231,2.20856,-2.40359
630.4,18.9429,2.21009,-2.4047
631,18.9624,2.20787,-2.40472
631.6,18.9818,2.20928,-2.40328
632.2,19.0006,2.21707,-2.40464
632.8,19.0203,2.21349,-2.40472
633.4,19.0398,2.211,-2.40343
634,19.0602,2.20869,-2.40454
634.6,19.0795,2.20572,-2.40478
635.2,19.0995,2.20847,-2.40485
635.8,19.1189,2.20267,-2.4062
636.4,19.1386,2.20075,-2.40612
637,19.1581,2.1979,-2.40611
637.6,19.1773,2.18681,-2.40611
638.2,19.1972,2.18878,-2.40608
638.8,19.217,2.18504,-2.40699
639.4,19.2363,2.18257,-2.40748
640,19.256,2.1788,-2.40861
640.6,19.2756,2.17714,-2.40742
641.2,19.2952,2.17966,-2.40858
641.8,19.3146,2.17075,-2.40887
642.4,19.3345,2.16875,-2.40778
643,19.3539,2.16586,-2.40754
643.6,19.3734,2.16863,-2.40749
644.2,19.3929,2.16871,-2.40622
644.8,19.4127,2.16984,-2.40622
645.4,19.4323,2.17219,-2.40622
646,19.452,2.17178,-2.40623
646.6,19.4713,2.16603,-2.40662
647.2,19.4912,2.17126,-2.40758
647.8,19.5107,2.16688,-2.40754
648.4,19.5302,2.16596,-2.40753
649,19.5499,2.16647,-2.40744
649.6,19.5694,2.16473,-2.40899
650.2,19.5891,2.16449,-2.40953
650.8,19.6085,2.15676,-2.41062
651.4,19.6282,2.14894,-2.41244
652,19.6475,2.14872,-2.41369
652.6,19.6677,2.15016,-2.41434
653.2,19.6871,2.14127,-2.41405
653.8,19.707,2.14212,-2.41423
654.4,19.7265,2.14416,-2.41568
655,19.7461,2.13753,-2.41681
655.6,19.7657,2.14297,-2.41674
656.2,19.7853,2.13496,-2.41781
656.8,19.8047,2.13049,-2.41807
657.4,19.8245,2.12914,-2.41961
658,19.8443,2.11938,-2.41992
658.6,19.8639,2.12854,-2.42113
659.2,19.8833,2.11323,-2.42276
659.8,19.903,2.10965,-2.42593
660.4,19.9228,2.10911,-2.42736
661,19.9422,2.11281,-2.42742
661.6,19.962,2.11585,-2.42882
662.2,19.9817,2.10528,-2.42885
662.8,20.0014,2.09977,-2.42923
663.4,20.0208,2.09691,-2.43031
664,20.0397,2.09472,-2.43055
664.6,20.06,2.09381,-2.43163
665.2,20.0792,2.09475,-2.43149
665.8,20.0992,2.08355,-2.43283
666.4,20.1188,2.07957,-2.4329
667,20.1386,2.07746,-2.4329
667.6,20.1577,2.07907,-2.4329
668.2,20.1777,2.07561,-2.4329
668.8,20.1972,2.07862,-2.4329
669.4,20.217,2.07212,-2.43348
670,20.2364,2.06596,-2.43418
670.6,20.2557,2.06763,-2.435
671.2,20.2754,2.05267,-2.43577
671.8,20.2957,2.05357,-2.43732
672.4,20.3153,2.05523,-2.43816
673,20.3349,2.05,-2.43908
673.6,20.354,2.04716,-2.44083
674.2,20.3739,2.0427,-2.44143
674.8,20.3936,2.03909,-2.44262
675.4,20.4131,2.03656,-2.4422
676,20.433,2.04181,-2.44271
676.6,20.4527,2.03846,-2.44265
677.2,20.4726,2.0305,-2.44248
677.8,20.4918,2.02893,-2.44014
678.4,20.5114,2.02449,-2.44003
679,20.5312,2.01602,-2.43993
679.6,20.5509,2.01695,-2.44127
680.2,20.5707,2.00817,-2.44244
680.8,20.5902,2.0055,-2.44265
681.4,20.61,2.00288,-2.44357
682,20.6296,2.00181,-2.44394
682.6,20.6486,2.00207,-2.44266
683.2,20.6687,1.99718,-2.44265
683.8,20.6884,1.98177,-2.44339
684.4,20.7081,1.97946,-2.44395
685,20.7278,1.97986,-2.44391
685.6,20.7476,1.97361,-2.44517
686.2,20.7669,1.97476,-2.44531
686.8,20.7867,1.96844,-2.44546
687.4,20.8064,1.96236,-2.44674
688,20.8259,1.96015,-2.44682
688.6,20.8457,1.95204,-2.44805
689.2,20.8652,1.94143,-2.44807
689.8,20.885,1.94318,-2.44937
690.4,20.9042,1.93459,-2.44936
691,20.9244,1.93505,-2.45004
691.6,20.9441,1.92395,-2.4501
692.2,20.9636,1.92307,-2.45027
692.8,20.9837,1.91882,-2.45146
693.4,21.0033,1.90857,-2.4529
694,21.023,1.90738,-2.45392
694.6,21.0427,1.89974,-2.45452
695.2,21.0625,1.90327,-2.45452
695.8,21.0823,1.89721,-2.45451
696.4,21.1016,1.89522,-2.45443
697,21.1214,1.88781,-2.45581
697.6,21.141,1.88238,-2.45583
698.2,21.161,1.88269,-2.45583
698.8,21.1806,1.87927,-2.45588
699.4,21.2004,1.87526,-2.45511
700,21.2201,1.86739,-2.45517
700.6,21.2398,1.86585,-2.45517
701.2,21.2595,1.86432,-2.45506
701.8,21.2793,1.85091,-2.45417
702.4,21.2989,1.85387,-2.45498
703,21.3187,1.85541,-2.45548
703.6,21.3386,1.84736,-2.4555
704.2,21.3585,1.84823,-2.45544
704.8,21.3781,1.84415,-2.45671
705.4,21.3976,1.83694,-2.4568
706,21.4178,1.83432,-2.45784
706.6,21.4372,1.82616,-2.45863
707.2,21.4571,1.8197,-2.45993
707.8,21.4767,1.81821,-2.46128
708.4,21.4966,1.82343,-2.46111
709,21.5163,1.81634,-2.46176
709.6,21.5359,1.80841,-2.4634
710.2,21.5557,1.80684,-2.46279
710.8,21.5755,1.79774,-2.46384
711.4,21.5952,1.79276,-2.46385
712,21.6151,1.79079,-2.46385
712.6,21.6347,1.78958,-2.46385
713.2,21.6546,1.78383,-2.46384
713.8,21.6738,1.77545,-2.46502
714.4,21.694,1.77379,-2.46516
715,21.7141,1.76149,-2.46517
715.6,21.7337,1.75739,-2.46544
716.2,21.7532,1.75626,-2.46652
716.8,21.773,1.74547,-2.46702
717.4,21.7929,1.73702,-2.46793
718,21.8127,1.7304,-2.4693
718.6,21.8326,1.7216,-2.46994
719.2,21.8523,1.7189,-2.47096
719.8,21.872,1.72307,-2.46969
720.4,21.8918,1.71679,-2.47077
721,21.9117,1.7046,-2.47087
721.6,21.9314,1.69894,-2.47083
722.2,21.951,1.69772,-2.47203
722.8,21.9712,1.68962,-2.47229
723.4,21.9909,1.68688,-2.47372
724,22.0107,1.68318,-2.47429
724.6,22.0306,1.67927,-2.47519
725.2,22.0502,1.66604,-2.47548
725.8,22.0701,1.65627,-2.47652
726.4,22.0902,1.64756,-2.47647
727,22.1097,1.6378,-2.47647
727.6,22.1294,1.63653,-2.47646
728.2,22.1494,1.62816,-2.47639
728.8,22.1691,1.61179,-2.47777
729.4,22.1889,1.60654,-2.47795
730,22.209,1.59167,-2.47932
730.6,22.2287,1.58722,-2.47854
731.2,22.2482,1.5676,-2.47793
731.8,22.2678,1.56761,-2.47858
732.4,22.288,1.56112,-2.4792
733,22.308,1.55687,-2.47996
733.6,22.3278,1.54342,-2.48062
734.2,22.3477,1.5379,-2.48134
734.8,22.3675,1.52946,-2.48218
735.4,22.3872,1.51209,-2.48404
736,22.4069,1.51148,-2.48584
736.6,22.4272,1.50065,-2.48583
737.2,22.4468,1.48471,-2.48707
737.8,22.4666,1.47812,-2.48702
738.4,22.4864,1.46476,-2.48702
739,22.5066,1.45812,-2.48702
739.6,22.5262,1.45344,-2.48702
740.2,22.5462,1.45157,-2.48702
740.8,22.5661,1.43014,-2.48702
741.4,22.5858,1.42895,-2.48702
742,22.6059,1.42367,-2.48701
742.6,22.6257,1.41648,-2.4874
743.2,22.6456,1.41118,-2.48767
743.8,22.6654,1.40094,-2.48767
744.4,22.6854,1.39427,-2.48767
745,22.7046,1.38599,-2.48793
745.6,22.7248,1.37789,-2.48769
746.2,22.7449,1.3714,-2.48767
746.8,22.7645,1.36374,-2.48867
747.4,22.7845,1.36014,-2.489
748,22.8042,1.35439,-2.48928
748.6,22.8243,1.34868,-2.49072
749.2,22.8443,1.34193,-2.49118
749.8,22.8641,1.33385,-2.49182
750.4,22.8836,1.32232,-2.49274
751,22.9037,1.31699,-2.49409
751.6,22.9233,1.30684,-2.49409
752.2,22.9434,1.30044,-2.49547
752.8,22.9635,1.28481,-2.49547
753.4,22.9834,1.28843,-2.49572
754,23.0031,1.27957,-2.49682
754.6,23.0232,1.27398,-2.49733
755.2,23.0432,1.26835,-2.49834
755.8,23.0627,1.2546,-2.49971
756.4,23.0829,1.25321,-2.49857
757,23.1027,1.25082,-2.49973
757.6,23.1227,1.23842,-2.49985
758.2,23.1424,1.23495,-2.49986
758.8,23.1623,1.22791,-2.49981
759.4,23.1821,1.22379,-2.50088
760,23.2024,1.22153,-2.50086
760.6,23.2218,1.20206,-2.50115
761.2,23.2419,1.19909,-2.5012
761.8,23.2617,1.19093,-2.5019
762.4,23.2817,1.18384,-2.50249
763,23.3015,1.1774,-2.50196
763.6,23.3212,1.16826,-2.50128
764.2,23.3414,1.16477,-2.50265
764.8,23.3609,1.15724,-2.50179
765.4,23.3806,1.15387,-2.50128
766,23.4011,1.14886,-2.50127
766.6,23.4211,1.13966,-2.50232
767.2,23.4408,1.13599,-2.50258
767.8,23.4607,1.12977,-2.50261
768.4,23.4804,1.12744,-2.5029
769,23.5,1.12131,-2.50418
769.6,23.5205,1.11351,-2.50352
770.2,23.5403,1.10676,-2.50477
770.8,23.5604,1.09631,-2.50483
771.4,23.5802,1.0924,-2.50535
772,23.6,1.08562,-2.50618
772.6,23.6201,1.08585,-2.50634
773.2,23.6401,1.07902,-2.50705
773.8,23.6598,1.08065,-2.50822
774.4,23.6799,1.08455,-2.5088
775,23.6998,1.07615,-2.51001
775.6,23.7197,1.06541,-2.51085
776.2,23.7396,1.04495,-2.51126
776.8,23.7587,1.03445,-2.51139
777.4,23.7797,1.03009,-2.51045
778,23.7993,1.02704,-2.51124
778.6,23.819,1.0225,-2.51245
779.2,23.8389,1.01669,-2.51272
779.8,23.8589,1.01351,-2.51469
780.4,23.8788,0.997031,-2.51594
781,23.8987,0.987827,-2.5171
781.6,23.9187,0.981749,-2.51784
782.2,23.9387,0.965604,-2.51721
782.8,23.9587,0.961226,-2.5173
783.4,23.9785,0.956146,-2.51732
784,23.9985,0.950428,-2.51766
784.6,24.0186,0.94924,-2.51872
785.2,24.0383,0.938395,-2.52005
785.8,24.0583,0.926882,-2.51995
786.4,24.0779,0.920827,-2.51988
787,24.0981,0.909762,-2.52117
787.6,24.1181,0.907499,-2.52127
788.2,24.1381,0.901058,-2.52127
788.8,24.1582,0.894135,-2.52127
789.4,24.1781,0.889398,-2.52127
790,24.1977,0.882877,-2.52127