File: 01_Data/Helmet_Flap/STA/N2/30K_min/Helmet_Flap_STA_N2_30KData_250514_R1.csv
Temp./C,Time/min,DSC/(mW/mg),Mass loss/mg
40.0,0.0,1.35254,-0.120599
40.6,0.0378901,1.40836,-0.120396
41.2,0.0758067,1.47039,-0.121811
41.8,0.111661,1.51486,-0.122759
42.4,0.146984,1.57227,-0.123314
43,0.182423,1.62377,-0.124433
43.6,0.215726,1.67271,-0.124926
44.2,0.248866,1.72764,-0.12471
44.8,0.282069,1.77385,-0.124067
45.4,0.313928,1.82994,-0.125133
46,0.345657,1.88246,-0.126027
46.6,0.37678,1.93056,-0.125116
47.2,0.407859,1.97992,-0.12502
47.8,0.437793,2.01558,-0.126685
48.4,0.468197,2.07488,-0.127187
49,0.496871,2.12308,-0.127228
49.6,0.525193,2.16734,-0.127402
50.2,0.555315,2.21005,-0.126747
50.8,0.58354,2.2589,-0.127736
51.4,0.612431,2.31132,-0.12884
52,0.640093,2.35221,-0.13073
52.6,0.667261,2.40526,-0.131615
53.2,0.695464,2.46412,-0.132214
53.8,0.722767,2.50107,-0.132803
54.4,0.750298,2.55949,-0.132293
55,0.777504,2.6063,-0.133056
55.6,0.804294,2.65931,-0.133435
56.2,0.830926,2.70371,-0.133843
56.8,0.856375,2.75665,-0.133689
57.4,0.883073,2.79964,-0.133561
58,0.909002,2.83985,-0.133353
58.6,0.934737,2.88667,-0.134727
59.2,0.960567,2.94148,-0.13608
59.8,0.986267,2.97833,-0.136842
60.4,1.0118,3.03505,-0.136731
61,1.03673,3.07721,-0.137268
61.6,1.06206,3.12597,-0.13894
62.2,1.08752,3.17555,-0.139298
62.8,1.11239,3.22105,-0.140051
63.4,1.13738,3.26755,-0.140915
64,1.16183,3.31174,-0.141435
64.6,1.18627,3.35192,-0.142818
65.2,1.21108,3.40905,-0.143164
65.8,1.23538,3.45478,-0.145011
66.4,1.25958,3.49627,-0.145501
67,1.28371,3.53772,-0.14722
67.6,1.30785,3.58903,-0.147178
68.2,1.33203,3.634,-0.148477
68.8,1.35626,3.67938,-0.14995
69.4,1.37968,3.7292,-0.15069
70,1.40379,3.77728,-0.150414
70.6,1.42761,3.80855,-0.151722
71.2,1.45113,3.85211,-0.153247
71.8,1.47484,3.90018,-0.154423
72.4,1.49865,3.93897,-0.155177
73,1.52206,3.9678,-0.156309
73.6,1.54557,4.01575,-0.157153
74.2,1.56874,4.05455,-0.158628
74.8,1.59187,4.08478,-0.159217
75.4,1.61542,4.13036,-0.160196
76,1.63858,4.15511,-0.16174
76.6,1.66147,4.19166,-0.160983
77.2,1.68482,4.22423,-0.161698
77.8,1.70759,4.2564,-0.162015
78.4,1.73038,4.28387,-0.162034
79,1.75322,4.31737,-0.163356
79.6,1.77582,4.34717,-0.163313
80.2,1.7989,4.36921,-0.165047
80.8,1.82138,4.39275,-0.16599
81.4,1.84287,4.42082,-0.166878
82,1.86701,4.43641,-0.167323
82.6,1.88866,4.4503,-0.169111
83.2,1.91124,4.47457,-0.170914
83.8,1.93367,4.49231,-0.171553
84.4,1.95579,4.50542,-0.172813
85,1.97711,4.52381,-0.17311
85.6,1.99979,4.54501,-0.175822
86.2,2.02232,4.55588,-0.176405
86.8,2.04381,4.55952,-0.177022
87.4,2.06557,4.57785,-0.178046
88,2.08768,4.58017,-0.179645
88.6,2.10907,4.58944,-0.179627
89.2,2.13067,4.59425,-0.181242
89.8,2.15232,4.58726,-0.182076
90.4,2.17409,4.59404,-0.183856
91,2.19545,4.59261,-0.18491
91.6,2.21691,4.59192,-0.185562
92.2,2.23814,4.58634,-0.186802
92.8,2.25956,4.58179,-0.187774
93.4,2.28087,4.56742,-0.189365
94,2.30253,4.55966,-0.189369
94.6,2.32351,4.54486,-0.18936
95.2,2.3446,4.53381,-0.191965
95.8,2.36577,4.52617,-0.192008
96.4,2.38688,4.51433,-0.191918
97,2.40765,4.49897,-0.193439
97.6,2.42863,4.49556,-0.194676
98.2,2.44873,4.47297,-0.194642
98.8,2.46978,4.46126,-0.19464
99.4,2.4903,4.44461,-0.194642
100,2.51226,4.42429,-0.194754
100.6,2.53246,4.41696,-0.19611
101.2,2.55337,4.39323,-0.197289
101.8,2.57422,4.36951,-0.197279
102.4,2.59509,4.35097,-0.197254
103,2.61503,4.33276,-0.197787
103.6,2.63636,4.31241,-0.19906
104.2,2.65575,4.28451,-0.199735
104.8,2.67716,4.26422,-0.199897
105.4,2.69783,4.2387,-0.199876
106,2.71748,4.21288,-0.201188
106.6,2.73741,4.18191,-0.2023
107.2,2.75875,4.1531,-0.202906
107.8,2.77915,4.13444,-0.20388
108.4,2.79963,4.10831,-0.204767
109,2.82049,4.09328,-0.205163
109.6,2.84046,4.05667,-0.20604
110.2,2.86133,4.02998,-0.206485
110.8,2.8811,4.00761,-0.206466
111.4,2.90104,3.97383,-0.207479
112,2.92156,3.94343,-0.207791
112.6,2.94181,3.91836,-0.208195
113.2,2.96204,3.88927,-0.208495
113.8,2.98224,3.86253,-0.209147
114.4,3.00233,3.836,-0.209124
115,3.02261,3.80791,-0.210118
115.6,3.04271,3.78166,-0.210432
116.2,3.06262,3.7616,-0.210449
116.8,3.08263,3.72892,-0.21045
117.4,3.10235,3.70723,-0.210458
118,3.12291,3.67894,-0.211395
118.6,3.14273,3.65824,-0.212776
119.2,3.16277,3.63754,-0.212759
119.8,3.18259,3.6225,-0.212746
120.4,3.20256,3.59055,-0.213113
121,3.22262,3.57408,-0.213022
121.6,3.24237,3.54556,-0.214396
122.2,3.26219,3.52518,-0.214499
122.8,3.28196,3.50699,-0.215058
123.4,3.30186,3.49174,-0.215069
124,3.32133,3.47565,-0.215069
124.6,3.34134,3.43723,-0.21506
125.2,3.36091,3.40816,-0.216142
125.8,3.38079,3.38085,-0.216358
126.4,3.39999,3.35413,-0.216378
127,3.41977,3.33561,-0.21638
127.6,3.4394,3.30386,-0.21638
128.2,3.45919,3.28819,-0.21638
128.8,3.47851,3.26088,-0.21638
129.4,3.49814,3.23947,-0.216376
130,3.51757,3.23014,-0.216331
130.6,3.5369,3.20833,-0.217404
131.2,3.5566,3.18531,-0.217688
131.8,3.5752,3.16873,-0.217699
132.4,3.59537,3.14853,-0.2177
133,3.61439,3.13688,-0.217702
133.6,3.63405,3.13125,-0.217726
134.2,3.65326,3.11686,-0.217337
134.8,3.67288,3.09914,-0.217368
135.4,3.69192,3.08407,-0.21737
136,3.71148,3.07647,-0.217375
136.6,3.73068,3.06461,-0.217033
137.2,3.75007,3.05458,-0.216708
137.8,3.76914,3.05154,-0.216709
138.4,3.788,3.04223,-0.216708
139,3.80764,3.03685,-0.216675
139.6,3.82642,3.03156,-0.217066
140.2,3.84561,3.02868,-0.216979
140.8,3.86494,3.01813,-0.217758
141.4,3.88374,3.03228,-0.21771
142,3.90304,3.02022,-0.217753
142.6,3.922,3.01964,-0.218023
143.2,3.94117,3.01701,-0.218028
143.8,3.95931,3.01574,-0.218925
144.4,3.9788,3.01286,-0.219354
145,3.99834,3.01417,-0.21935
145.6,4.01629,3.02306,-0.219352
146.2,4.03584,3.01886,-0.219416
146.8,4.05506,3.01756,-0.220749
147.4,4.07373,3.01709,-0.220666
148,4.09285,3.02452,-0.22066
148.6,4.11154,3.02701,-0.22066
149.2,4.13075,3.03643,-0.220661
149.8,4.14936,3.03946,-0.220358
150.4,4.16826,3.03521,-0.220338
151,4.1871,3.05063,-0.220387
151.6,4.20618,3.0426,-0.219261
152.2,4.2247,3.04747,-0.219033
152.8,4.24369,3.05315,-0.21902
153.4,4.26235,3.05651,-0.219015
154,4.28101,3.06329,-0.219003
154.6,4.29979,3.07473,-0.217725
155.2,4.31867,3.08324,-0.217709
155.8,4.3373,3.07663,-0.217765
156.4,4.35609,3.08101,-0.216811
157,4.37491,3.08512,-0.217097
157.6,4.39351,3.09382,-0.217946
158.2,4.41257,3.09927,-0.217707
158.8,4.43133,3.09965,-0.2177
159.4,4.44971,3.11195,-0.2177
160,4.46855,3.12042,-0.2177
160.6,4.48694,3.12265,-0.2177
161.2,4.50555,3.13346,-0.2177
161.8,4.5247,3.13637,-0.2177
162.4,4.54308,3.14907,-0.2177
163,4.56158,3.14447,-0.2177
163.6,4.58021,3.1646,-0.2177
164.2,4.59888,3.17085,-0.2177
164.8,4.61725,3.17682,-0.2177
165.4,4.63589,3.19024,-0.217702
166,4.65487,3.19321,-0.217717
166.6,4.67295,3.19415,-0.217904
167.2,4.69173,3.20021,-0.219022
167.8,4.7104,3.20871,-0.21902
168.4,4.72883,3.2176,-0.21902
169,4.74753,3.22107,-0.21902
169.6,4.7655,3.2252,-0.219024
170.2,4.78451,3.24007,-0.219086
170.8,4.80267,3.24796,-0.220044
171.4,4.8212,3.25852,-0.22
172,4.83984,3.26358,-0.220276
172.6,4.85821,3.25574,-0.221367
173.2,4.87669,3.25719,-0.221325
173.8,4.8954,3.26351,-0.22132
174.4,4.9134,3.26672,-0.22132
175,4.93152,3.28144,-0.22132
175.6,4.95013,3.28149,-0.22132
176.2,4.96881,3.28745,-0.22132
176.8,4.98753,3.302,-0.22132
177.4,5.00524,3.31155,-0.221318
178,5.02385,3.31798,-0.221296
178.6,5.04203,3.32586,-0.221674
179.2,5.06056,3.33021,-0.22165
179.8,5.07884,3.32846,-0.22165
180.4,5.09738,3.33701,-0.22165
181,5.11549,3.34761,-0.22165
181.6,5.13393,3.35493,-0.22165
182.2,5.15188,3.36347,-0.22165
182.8,5.17023,3.3657,-0.221651
183.4,5.18781,3.37774,-0.221828
184,5.20696,3.37841,-0.222677
184.6,5.22504,3.38267,-0.22261
185.2,5.24323,3.39259,-0.222413
185.8,5.26166,3.39797,-0.22166
186.4,5.27947,3.4069,-0.221649
187,5.298,3.40298,-0.221665
187.6,5.31611,3.40217,-0.221961
188.2,5.33417,3.41678,-0.223019
188.8,5.35235,3.422,-0.222973
189.4,5.37049,3.42023,-0.22297
190,5.3889,3.42525,-0.22297
190.6,5.4064,3.44137,-0.22297
191.2,5.42482,3.44706,-0.22297
191.8,5.44284,3.4403,-0.222968
192.4,5.46126,3.43829,-0.222962
193,5.47934,3.44315,-0.223534
193.6,5.49733,3.45555,-0.224354
194.2,5.51517,3.46803,-0.223929
194.8,5.53315,3.47036,-0.223958
195.4,5.55128,3.47065,-0.22396
196,5.56938,3.4733,-0.223958
196.6,5.58738,3.46779,-0.223908
197.2,5.6049,3.47469,-0.224979
197.8,5.62324,3.48124,-0.225268
198.4,5.6413,3.48723,-0.22528
199,5.65917,3.48908,-0.22528
199.6,5.67744,3.49549,-0.22528
200.2,5.69518,3.50265,-0.22528
200.8,5.71314,3.50029,-0.22528
201.4,5.73134,3.50863,-0.225279
202,5.74902,3.51012,-0.225296
202.6,5.76717,3.52117,-0.225921
203.2,5.78515,3.51868,-0.226599
203.8,5.80298,3.52542,-0.226591
204.4,5.82095,3.5278,-0.22659
205,5.83883,3.53106,-0.22659
205.6,5.85711,3.54655,-0.226592
206.2,5.87485,3.55414,-0.226638
206.8,5.89279,3.54567,-0.227988
207.4,5.91106,3.55617,-0.227912
208,5.92883,3.55464,-0.227908
208.6,5.94668,3.56376,-0.227891
209.2,5.96459,3.56315,-0.227687
209.8,5.98274,3.56464,-0.227276
210.4,6.00037,3.56858,-0.227241
211,6.01825,3.57779,-0.228556
211.6,6.03534,3.56083,-0.228569
212.2,6.05424,3.57027,-0.22857
212.8,6.0721,3.56405,-0.22857
213.4,6.08994,3.57349,-0.228569
214,6.10768,3.57877,-0.229659
214.6,6.12555,3.56745,-0.229865
215.2,6.14351,3.56993,-0.229896
215.8,6.16117,3.57976,-0.229912
216.4,6.17924,3.57788,-0.231151
217,6.19685,3.57051,-0.231188
217.6,6.21488,3.56485,-0.231193
218.2,6.23277,3.56524,-0.231157
218.8,6.25064,3.56527,-0.2322
219.4,6.26853,3.57376,-0.232523
220,6.28617,3.56951,-0.232521
220.6,6.30402,3.5692,-0.232523
221.2,6.32178,3.56276,-0.232534
221.8,6.33962,3.55284,-0.233575
222.4,6.35745,3.55705,-0.233634
223,6.37537,3.55486,-0.234088
223.6,6.39313,3.56111,-0.234575
224.2,6.4109,3.5466,-0.234601
224.8,6.42879,3.54396,-0.235793
225.4,6.44675,3.54725,-0.235901
226,6.46421,3.54399,-0.235951
226.6,6.48209,3.53625,-0.237316
227.2,6.49995,3.52859,-0.237237
227.8,6.51745,3.52644,-0.23723
228.4,6.5356,3.52771,-0.238105
229,6.55306,3.51964,-0.238597
229.6,6.57126,3.52747,-0.237496
230.2,6.58878,3.51097,-0.237757
230.8,6.60659,3.50582,-0.238604
231.4,6.62419,3.5039,-0.238724
232,6.64193,3.49434,-0.240017
232.6,6.65961,3.48806,-0.24023
233.2,6.67737,3.48887,-0.241511
233.8,6.69514,3.48613,-0.241977
234.4,6.71305,3.47283,-0.243156
235,6.73083,3.46591,-0.24385
235.6,6.74852,3.4583,-0.24469
236.2,6.76641,3.45258,-0.245959
236.8,6.78417,3.4498,-0.246239
237.4,6.80174,3.44231,-0.246319
238,6.81933,3.4494,-0.247653
238.6,6.83719,3.43457,-0.247746
239.2,6.85498,3.42203,-0.249499
239.8,6.87256,3.41358,-0.2501
240.4,6.89023,3.41575,-0.249623
241,6.90823,3.40317,-0.251176
241.6,6.92585,3.39374,-0.251717
242.2,6.94346,3.3912,-0.252669
242.8,6.96043,3.382,-0.253802
243.4,6.97863,3.37546,-0.254424
244,6.99695,3.36593,-0.255846
244.6,7.01442,3.36819,-0.256876
245.2,7.03177,3.36353,-0.257413
245.8,7.0498,3.3659,-0.258855
246.4,7.06749,3.36747,-0.260259
247,7.08513,3.37567,-0.26075
247.6,7.10292,3.38302,-0.26115
248.2,7.12076,3.41372,-0.262945
248.8,7.13874,3.49898,-0.263407
249.4,7.15664,3.58839,-0.264466
250,7.17524,3.71788,-0.265757
250.6,7.19316,3.87145,-0.266368
251.2,7.21186,4.06883,-0.268007
251.8,7.22977,4.22054,-0.269683
252.4,7.24778,4.28043,-0.271389
253,7.26516,4.29262,-0.272645
253.6,7.28308,4.24633,-0.273224
254.2,7.30055,4.1659,-0.27457
254.8,7.31824,4.0995,-0.275973
255.4,7.33588,4.06544,-0.276223
256,7.35327,4.04908,-0.278066
256.6,7.3709,4.03712,-0.278787
257.2,7.38864,4.03008,-0.28056
257.8,7.40626,4.02456,-0.282234
258.4,7.42391,3.9956,-0.283862
259,7.44159,3.95756,-0.284211
259.6,7.45896,3.90488,-0.285734
260.2,7.47646,3.83133,-0.287288
260.8,7.49388,3.77403,-0.288358
261.4,7.51143,3.70283,-0.289184
262,7.52876,3.63378,-0.290915
262.6,7.54614,3.56666,-0.292325
263.2,7.56381,3.51588,-0.293765
263.8,7.58138,3.46308,-0.295193
264.4,7.59876,3.41971,-0.296851
265,7.61652,3.39584,-0.298556
265.6,7.6332,3.35398,-0.300462
266.2,7.6516,3.32679,-0.302781
266.8,7.6691,3.29468,-0.30479
267.4,7.68652,3.27287,-0.305701
268,7.70433,3.25689,-0.307016
268.6,7.72153,3.23625,-0.308393
269.2,7.73955,3.22192,-0.309473
269.8,7.75705,3.21177,-0.310498
270.4,7.77447,3.19833,-0.310859
271,7.79223,3.19401,-0.31258
271.6,7.8099,3.17759,-0.314343
272.2,7.82767,3.16318,-0.316339
272.8,7.84512,3.1465,-0.317893
273.4,7.86278,3.13956,-0.319379
274,7.8804,3.13081,-0.320441
274.6,7.89813,3.11159,-0.323042
275.2,7.91569,3.1011,-0.324808
275.8,7.93303,3.0908,-0.326581
276.4,7.95079,3.08458,-0.327583
277,7.96858,3.07065,-0.328263
277.6,7.986,3.05606,-0.329388
278.2,8.00365,3.05762,-0.331002
278.8,8.02165,3.04565,-0.332455
279.4,8.03922,3.02707,-0.33313
280,8.05683,3.01275,-0.334969
280.6,8.07441,3.00439,-0.3368
281.2,8.09183,2.99002,-0.338455
281.8,8.10982,2.97116,-0.33992
282.4,8.12729,2.95721,-0.341973
283,8.14505,2.92924,-0.343837
283.6,8.16218,2.92215,-0.344723
284.2,8.18035,2.9035,-0.34646
284.8,8.19782,2.88033,-0.348116
285.4,8.2154,2.8527,-0.349826
286,8.23272,2.83233,-0.351829
286.6,8.25052,2.81058,-0.354535
287.2,8.26849,2.78698,-0.356313
287.8,8.28546,2.7644,-0.358283
288.4,8.30337,2.7269,-0.360057
289,8.32082,2.70656,-0.361925
289.6,8.33861,2.67035,-0.36257
290.2,8.35625,2.63358,-0.364164
290.8,8.3737,2.6087,-0.365994
291.4,8.39149,2.57652,-0.367089
292,8.40893,2.54475,-0.368697
292.6,8.42662,2.50316,-0.37023
293.2,8.44407,2.45619,-0.371853
293.8,8.46163,2.41734,-0.373517
294.4,8.47917,2.37904,-0.375652
295,8.49693,2.33546,-0.377743
295.6,8.51426,2.29961,-0.379523
296.2,8.53201,2.2453,-0.381288
296.8,8.5496,2.20121,-0.38293
297.4,8.56693,2.15372,-0.384745
298,8.5847,2.09945,-0.387203
298.6,8.60187,2.04683,-0.389357
299.2,8.6198,1.99259,-0.390726
299.8,8.63724,1.9388,-0.392419
300.4,8.65458,1.875,-0.394053
301,8.67186,1.81492,-0.395496
301.6,8.68919,1.74926,-0.397894
302.2,8.70673,1.69137,-0.400408
302.8,8.72439,1.63392,-0.402771
303.4,8.74232,1.56445,-0.404478
304,8.75977,1.49316,-0.405266
304.6,8.77702,1.4097,-0.407742
305.2,8.79469,1.33124,-0.41152
305.8,8.81221,1.24597,-0.414461
306.4,8.82915,1.1495,-0.416564
307,8.84672,1.05407,-0.418845
307.6,8.86451,0.939748,-0.421089
308.2,8.88153,0.825583,-0.423442
308.8,8.89898,0.707128,-0.425541
309.4,8.91632,0.574266,-0.427958
310,8.9334,0.421366,-0.430337
310.6,8.95078,0.269021,-0.432697
311.2,8.96808,0.102431,-0.435312
311.8,8.98481,-0.075933,-0.438731
312.4,9.0018,-0.270072,-0.44178
313,9.0191,-0.494539,-0.445364
313.6,9.036,-0.731197,-0.450444
314.2,9.05288,-0.987713,-0.454164
314.8,9.0697,-1.26113,-0.460773
315.4,9.08622,-1.555,-0.465477
316,9.10266,-1.87287,-0.47054
316.6,9.11937,-2.21066,-0.475803
317.2,9.13605,-2.5756,-0.481565
317.8,9.15229,-2.95608,-0.489409
318.4,9.16856,-3.34058,-0.495946
319,9.18525,-3.72867,-0.504964
319.6,9.20166,-4.11421,-0.513667
320.2,9.2179,-4.44118,-0.522458
320.8,9.23492,-4.74038,-0.535951
321.4,9.25186,-4.98499,-0.548375
322,9.26868,-5.14249,-0.566046
322.6,9.28625,-5.22245,-0.582543
323.2,9.30379,-5.21373,-0.604764
323.8,9.32149,-5.11134,-0.628134
324.4,9.33979,-4.93439,-0.655254
325,9.35827,-4.6938,-0.686708
325.6,9.37664,-4.4063,-0.716154
326.2,9.39533,-4.0836,-0.752333
326.8,9.41408,-3.75307,-0.783695
327.4,9.43266,-3.42363,-0.823965
328,9.45133,-3.0982,-0.856897
328.6,9.46983,-2.7907,-0.898872
329.2,9.4887,-2.50957,-0.932404
329.8,9.50722,-2.24941,-0.973613
330.4,9.52601,-2.01015,-1.00762
331,9.54419,-1.7956,-1.04611
331.6,9.56272,-1.60326,-1.08112
332.2,9.58114,-1.4547,-1.11747
332.8,9.59936,-1.31628,-1.15283
333.4,9.61748,-1.1946,-1.1854
334,9.63534,-1.09563,-1.22209
334.6,9.65357,-1.00683,-1.25258
335.2,9.67169,-0.936126,-1.28896
335.8,9.68982,-0.87487,-1.31632
336.4,9.70761,-0.799534,-1.35045
337,9.72598,-0.726596,-1.37643
337.6,9.74391,-0.65163,-1.40564
338.2,9.76212,-0.556356,-1.43081
338.8,9.78041,-0.448335,-1.45532
339.4,9.79889,-0.311747,-1.47868
340,9.81733,-0.162692,-1.49854
340.6,9.83534,-0.0154177,-1.51876
341.2,9.85411,0.14968,-1.53459
341.8,9.87276,0.32014,-1.55162
342.4,9.89102,0.489208,-1.56252
343,9.90981,0.673052,-1.57528
343.6,9.92821,0.822305,-1.58425
344.2,9.94641,0.979337,-1.59266
344.8,9.96536,1.12517,-1.59905
345.4,9.98333,1.25275,-1.60546
346,10.0019,1.36356,-1.61058
346.6,10.0202,1.46966,-1.61503
347.2,10.0386,1.55654,-1.61907
347.8,10.0573,1.62522,-1.62265
348.4,10.0753,1.68522,-1.62666
349,10.0934,1.73112,-1.63095
349.6,10.1115,1.76784,-1.63307
350.2,10.1298,1.79366,-1.63532
350.8,10.1478,1.82121,-1.63796
351.4,10.1659,1.83965,-1.64067
352,10.1842,1.83996,-1.6436
352.6,10.202,1.84892,-1.64589
353.2,10.2205,1.84406,-1.6487
353.8,10.2385,1.84548,-1.65144
354.4,10.2562,1.84673,-1.65322
355,10.2743,1.83913,-1.65525
355.6,10.2925,1.8318,-1.65705
356.2,10.31,1.8296,-1.65886
356.8,10.3286,1.81795,-1.66094
357.4,10.3466,1.81077,-1.66281
358,10.3646,1.80197,-1.66437
358.6,10.3828,1.79195,-1.66626
359.2,10.4005,1.77674,-1.66804
359.8,10.4188,1.76059,-1.67023
360.4,10.4365,1.74779,-1.67195
361,10.4547,1.73445,-1.6737
361.6,10.4729,1.71911,-1.67543
362.2,10.4909,1.70478,-1.67742
362.8,10.5089,1.69415,-1.6796
363.4,10.5268,1.68709,-1.68112
364,10.545,1.68029,-1.68286
364.6,10.5632,1.67183,-1.68386
365.2,10.5811,1.65469,-1.68502
365.8,10.599,1.64941,-1.68631
366.4,10.6174,1.63872,-1.6878
367,10.6354,1.63182,-1.69005
367.6,10.6536,1.61888,-1.69216
368.2,10.6713,1.61612,-1.69446
368.8,10.689,1.6073,-1.69636
369.4,10.7076,1.5952,-1.6982
370,10.7256,1.58723,-1.69983
370.6,10.7436,1.57791,-1.70146
371.2,10.7618,1.56773,-1.70274
371.8,10.7801,1.56715,-1.70464
372.4,10.7982,1.5546,-1.70695
373,10.8162,1.54843,-1.70931
373.6,10.8343,1.54639,-1.71172
374.2,10.8525,1.54896,-1.71407
374.8,10.8706,1.54005,-1.71602
375.4,10.8888,1.53802,-1.71777
376,10.9069,1.53545,-1.71963
376.6,10.9252,1.53569,-1.72107
377.2,10.9434,1.53096,-1.72218
377.8,10.9614,1.52837,-1.72413
378.4,10.9798,1.53086,-1.72595
379,10.9978,1.5306,-1.72782
379.6,11.0161,1.53164,-1.72979
380.2,11.0343,1.53408,-1.73261
380.8,11.0523,1.53962,-1.73519
381.4,11.0705,1.54807,-1.73818
382,11.0891,1.55252,-1.74061
382.6,11.1073,1.55954,-1.74262
383.2,11.1253,1.56995,-1.74463
383.8,11.1436,1.58259,-1.74722
384.4,11.1618,1.58657,-1.74888
385,11.1802,1.59845,-1.75043
385.6,11.1983,1.60815,-1.75228
386.2,11.2166,1.61381,-1.75449
386.8,11.2351,1.63556,-1.75709
387.4,11.2532,1.65609,-1.75927
388,11.2712,1.65968,-1.76149
388.6,11.2898,1.67281,-1.76413
389.2,11.3082,1.69097,-1.76717
389.8,11.3262,1.71388,-1.76893
390.4,11.345,1.72038,-1.77123
391,11.3629,1.74167,-1.77378
391.6,11.3815,1.76369,-1.77664
392.2,11.3997,1.79049,-1.77897
392.8,11.4181,1.8091,-1.78262
393.4,11.4364,1.82787,-1.78577
394,11.4547,1.85868,-1.78819
394.6,11.4732,1.88468,-1.79055
395.2,11.4916,1.91126,-1.79275
395.8,11.5098,1.92705,-1.79542
396.4,11.5282,1.94714,-1.79834
397,11.5467,1.97902,-1.80045
397.6,11.5652,2.00507,-1.80326
398.2,11.5834,2.02306,-1.80701
398.8,11.6016,2.04904,-1.80994
399.4,11.6203,2.07379,-1.81225
400,11.6384,2.0995,-1.81525
400.6,11.6573,2.11591,-1.81869
401.2,11.6757,2.13663,-1.8217
401.8,11.6939,2.15825,-1.82398
402.4,11.7124,2.18132,-1.82677
403,11.73,2.19612,-1.83031
403.6,11.7488,2.21296,-1.83308
404.2,11.7674,2.22558,-1.83577
404.8,11.786,2.24649,-1.83816
405.4,11.8043,2.25266,-1.84095
406,11.8226,2.26663,-1.84384
406.6,11.841,2.27731,-1.84703
407.2,11.8595,2.28463,-1.8509
407.8,11.8779,2.29458,-1.85552
408.4,11.8963,2.29474,-1.85817
409,11.9148,2.29648,-1.8613
409.6,11.9322,2.29955,-1.86421
410.2,11.9511,2.30158,-1.86643
410.8,11.9691,2.301,-1.86822
411.4,11.988,2.30019,-1.87193
412,12.0066,2.2913,-1.87569
412.6,12.0252,2.29055,-1.87907
413.2,12.0435,2.28552,-1.88148
413.8,12.0619,2.27329,-1.88435
414.4,12.0802,2.25775,-1.88754
415,12.0986,2.24722,-1.8896
415.6,12.1171,2.23634,-1.89199
416.2,12.135,2.22666,-1.89462
416.8,12.1536,2.20326,-1.89629
417.4,12.1722,2.1821,-1.89872
418,12.1905,2.16576,-1.90176
418.6,12.2087,2.15065,-1.90542
419.2,12.2272,2.11782,-1.90869
419.8,12.2457,2.10279,-1.91084
420.4,12.2638,2.08998,-1.91349
421,12.2823,2.06175,-1.9167
421.6,12.3007,2.04029,-1.91896
422.2,12.3192,2.01864,-1.92018
422.8,12.3375,1.98629,-1.92304
423.4,12.3557,1.96381,-1.92556
424,12.3741,1.93526,-1.92768
424.6,12.393,1.90386,-1.92993
425.2,12.411,1.88977,-1.93268
425.8,12.4293,1.85617,-1.93569
426.4,12.4477,1.82086,-1.938
427,12.4661,1.79807,-1.94094
427.6,12.4845,1.76773,-1.94364
428.2,12.503,1.73981,-1.94549
428.8,12.5214,1.70812,-1.9478
429.4,12.5398,1.67958,-1.94996
430,12.5582,1.65286,-1.95287
430.6,12.5764,1.63078,-1.95602
431.2,12.5951,1.60115,-1.95868
431.8,12.6133,1.58645,-1.96075
432.4,12.632,1.55613,-1.96329
433,12.65,1.5246,-1.96582
433.6,12.6687,1.49808,-1.96822
434.2,12.6872,1.4796,-1.97151
434.8,12.7057,1.46078,-1.97388
435.4,12.7236,1.43328,-1.97594
436,12.742,1.4228,-1.97915
436.6,12.7608,1.40093,-1.98194
437.2,12.7794,1.38062,-1.98441
437.8,12.798,1.37092,-1.98628
438.4,12.8163,1.36294,-1.98903
439,12.8348,1.33702,-1.99155
439.6,12.8532,1.33316,-1.99368
440.2,12.8721,1.32406,-1.99624
440.8,12.8907,1.30725,-1.99907
441.4,12.9092,1.29826,-2.00111
442,12.9276,1.29631,-2.00358
442.6,12.9464,1.29099,-2.00645
443.2,12.9645,1.28772,-2.00873
443.8,12.9835,1.28151,-2.01023
444.4,13.0019,1.27197,-2.01212
445,13.0204,1.26403,-2.01493
445.6,13.0389,1.25985,-2.01747
446.2,13.0574,1.2577,-2.01922
446.8,13.0764,1.25467,-2.02168
447.4,13.0946,1.25437,-2.02444
448,13.1136,1.25598,-2.02679
448.6,13.1323,1.25925,-2.02918
449.2,13.1505,1.25664,-2.03141
449.8,13.1694,1.25444,-2.03359
450.4,13.1878,1.25035,-2.03584
451,13.206,1.25083,-2.03807
451.6,13.225,1.24756,-2.03969
452.2,13.244,1.24872,-2.04214
452.8,13.2626,1.25307,-2.04378
453.4,13.2811,1.24459,-2.04554
454,13.3,1.25204,-2.04806
454.6,13.3184,1.25384,-2.05087
455.2,13.3373,1.25363,-2.05426
455.8,13.3559,1.25326,-2.05693
456.4,13.3745,1.25074,-2.05932
457,13.3936,1.25503,-2.06129
457.6,13.412,1.25625,-2.06314
458.2,13.4308,1.25158,-2.06526
458.8,13.4494,1.26037,-2.06709
459.4,13.4682,1.26288,-2.06889
460,13.4868,1.26843,-2.07139
460.6,13.5056,1.2711,-2.07362
461.2,13.5244,1.26852,-2.07587
461.8,13.543,1.28061,-2.07775
462.4,13.5618,1.28059,-2.07954
463,13.5807,1.28264,-2.08237
463.6,13.5992,1.28833,-2.08543
464.2,13.6182,1.29287,-2.08753
464.8,13.6368,1.29338,-2.08939
465.4,13.656,1.29054,-2.09068
466,13.6744,1.29179,-2.09231
466.6,13.6932,1.29979,-2.09464
467.2,13.7121,1.3076,-2.09665
467.8,13.7308,1.30863,-2.09908
468.4,13.7495,1.31013,-2.10092
469,13.7685,1.31299,-2.10294
469.6,13.7875,1.31968,-2.10478
470.2,13.8061,1.31823,-2.10663
470.8,13.8246,1.31847,-2.10862
471.4,13.8438,1.3199,-2.11117
472,13.8623,1.32346,-2.11408
472.6,13.8813,1.32202,-2.11592
473.2,13.9001,1.32657,-2.11809
473.8,13.9187,1.31968,-2.12021
474.4,13.9374,1.3241,-2.12243
475,13.9558,1.3195,-2.12456
475.6,13.9746,1.32031,-2.12637
476.2,13.9934,1.32434,-2.12806
476.8,14.0131,1.33038,-2.13012
477.4,14.0318,1.32435,-2.13223
478,14.0507,1.33361,-2.13484
478.6,14.0696,1.33564,-2.1367
479.2,14.0885,1.33462,-2.13854
479.8,14.1072,1.33104,-2.13976
480.4,14.1263,1.33158,-2.14131
481,14.1449,1.34363,-2.1431
481.6,14.1639,1.34665,-2.14465
482.2,14.1826,1.34943,-2.14654
482.8,14.2013,1.34924,-2.14864
483.4,14.2204,1.35297,-2.15167
484,14.2392,1.34922,-2.15347
484.6,14.2584,1.34796,-2.15551
485.2,14.2773,1.34734,-2.15754
485.8,14.2961,1.35461,-2.15957
486.4,14.315,1.36168,-2.16179
487,14.3338,1.36508,-2.16389
487.6,14.3527,1.3627,-2.16566
488.2,14.3719,1.36498,-2.16627
488.8,14.3906,1.36841,-2.1681
489.4,14.4098,1.37892,-2.17019
490,14.4284,1.38742,-2.17128
490.6,14.4472,1.38934,-2.17196
491.2,14.466,1.38278,-2.17364
491.8,14.4852,1.38433,-2.17543
492.4,14.5039,1.39467,-2.17718
493,14.5232,1.39913,-2.17904
493.6,14.5419,1.40308,-2.1809
494.2,14.5613,1.41085,-2.18241
494.8,14.5799,1.40962,-2.1841
495.4,14.5987,1.41764,-2.18572
496,14.6178,1.40874,-2.18755
496.6,14.637,1.41025,-2.18942
497.2,14.6556,1.42596,-2.19118
497.8,14.6746,1.42809,-2.19282
498.4,14.6932,1.42918,-2.19462
499,14.7127,1.43615,-2.19659
499.6,14.7317,1.43935,-2.19819
500.2,14.7503,1.44687,-2.19936
500.8,14.7697,1.44565,-2.20052
501.4,14.7881,1.45465,-2.20161
502,14.8076,1.45646,-2.2032
502.6,14.8266,1.46382,-2.20483
503.2,14.8457,1.46103,-2.20546
503.8,14.8644,1.47033,-2.20639
504.4,14.8834,1.47408,-2.208
505,14.9026,1.47683,-2.21001
505.6,14.9215,1.48714,-2.21168
506.2,14.9406,1.49604,-2.21162
506.8,14.9597,1.49582,-2.21303
507.4,14.9787,1.49532,-2.21461
508,14.9975,1.4991,-2.21648
508.6,15.0166,1.50771,-2.21807
509.2,15.0358,1.51161,-2.2194
509.8,15.0547,1.51908,-2.22038
510.4,15.0736,1.52284,-2.22229
511,15.0923,1.52988,-2.2227
511.6,15.111,1.53423,-2.22379
512.2,15.13,1.53773,-2.22405
512.8,15.1497,1.54369,-2.22688
513.4,15.1687,1.54805,-2.22873
514,15.188,1.56219,-2.23048
514.6,15.2069,1.56659,-2.23184
515.2,15.2257,1.56733,-2.23276
515.8,15.2447,1.57229,-2.23257
516.4,15.264,1.57981,-2.2344
517,15.2833,1.58289,-2.23562
517.6,15.3025,1.5932,-2.23629
518.2,15.3215,1.59716,-2.23658
518.8,15.3405,1.58883,-2.23814
519.4,15.3595,1.59972,-2.23912
520,15.3787,1.60937,-2.23986
520.6,15.3976,1.61623,-2.24124
521.2,15.4166,1.62391,-2.2425
521.8,15.4359,1.62601,-2.24395
522.4,15.455,1.63045,-2.24504
523,15.4741,1.6341,-2.2464
523.6,15.4929,1.64066,-2.24796
524.2,15.5122,1.64912,-2.24927
524.8,15.5313,1.65307,-2.25051
525.4,15.5502,1.66268,-2.25172
526,15.5694,1.66279,-2.25304
526.6,15.5884,1.66977,-2.25457
527.2,15.6077,1.67923,-2.25578
527.8,15.6268,1.68776,-2.2564
528.4,15.6457,1.67919,-2.25822
529,15.6648,1.68976,-2.25954
529.6,15.6841,1.70281,-2.26094
530.2,15.703,1.70433,-2.26128
530.8,15.7224,1.7073,-2.26259
531.4,15.7415,1.72019,-2.26323
532,15.7603,1.71737,-2.26481
532.6,15.7795,1.72342,-2.26627
533.2,15.7988,1.73236,-2.26634
533.8,15.818,1.73292,-2.26756
534.4,15.8371,1.74061,-2.2681
535,15.8561,1.74164,-2.26955
535.6,15.8752,1.75228,-2.27108
536.2,15.8947,1.76161,-2.27176
536.8,15.9135,1.76902,-2.27237
537.4,15.9325,1.78089,-2.27411
538,15.9519,1.78327,-2.27495
538.6,15.9711,1.77731,-2.27572
539.2,15.9902,1.78844,-2.27743
539.8,16.0092,1.7873,-2.27892
540.4,16.0286,1.79324,-2.27993
541,16.0478,1.79777,-2.28087
541.6,16.0669,1.80024,-2.28224
542.2,16.0861,1.80829,-2.28385
542.8,16.1052,1.80978,-2.28538
543.4,16.1245,1.81181,-2.28723
544,16.1437,1.81189,-2.28784
544.6,16.163,1.81957,-2.28787
545.2,16.1823,1.81639,-2.28786
545.8,16.2012,1.82089,-2.28977
546.4,16.2203,1.81816,-2.29201
547,16.2396,1.81944,-2.29431
547.6,16.2586,1.82832,-2.29601
548.2,16.2779,1.82348,-2.29716
548.8,16.2973,1.82317,-2.29857
549.4,16.3165,1.81327,-2.29977
550,16.3355,1.82695,-2.29962
550.6,16.3549,1.82515,-2.30097
551.2,16.374,1.82114,-2.30117
551.8,16.3931,1.82219,-2.30275
552.4,16.4123,1.83093,-2.30479
553,16.4315,1.83497,-2.30523
553.6,16.4509,1.83564,-2.30526
554.2,16.4702,1.83287,-2.30654
554.8,16.4893,1.83256,-2.30651
555.4,16.5086,1.83782,-2.30799
556,16.528,1.83853,-2.30904
556.6,16.5469,1.84553,-2.31029
557.2,16.5661,1.84573,-2.31144
557.8,16.5853,1.85325,-2.31304
558.4,16.604,1.8507,-2.31348
559,16.6234,1.85624,-2.31501
559.6,16.6426,1.85811,-2.31661
560.2,16.6623,1.85338,-2.31816
560.8,16.6816,1.85944,-2.31847
561.4,16.7007,1.85286,-2.31927
562,16.7201,1.85407,-2.3209
562.6,16.7394,1.85253,-2.32087
563.2,16.7588,1.85178,-2.32222
563.8,16.7778,1.85346,-2.32236
564.4,16.7967,1.85413,-2.32387
565,16.8164,1.8481,-2.32492
565.6,16.8358,1.85099,-2.32546
566.2,16.8551,1.85072,-2.32662
566.8,16.8742,1.85178,-2.32721
567.4,16.8933,1.84461,-2.32801
568,16.9131,1.83978,-2.32954
568.6,16.9314,1.82952,-2.33029
569.2,16.9514,1.83384,-2.33165
569.8,16.9705,1.83193,-2.33255
570.4,16.9891,1.83364,-2.33407
571,17.0093,1.84328,-2.33432
571.6,17.0283,1.83669,-2.33557
572.2,17.0476,1.83376,-2.33676
572.8,17.067,1.83635,-2.33692
573.4,17.086,1.83881,-2.3385
574,17.1055,1.84809,-2.33865
574.6,17.1247,1.84128,-2.34
575.2,17.1441,1.84064,-2.33984
575.8,17.1635,1.8351,-2.34126
576.4,17.1827,1.83819,-2.34163
577,17.2019,1.84225,-2.34319
577.6,17.2211,1.83538,-2.34424
578.2,17.2407,1.83655,-2.34463
578.8,17.2594,1.83753,-2.34519
579.4,17.2789,1.83996,-2.34629
580,17.298,1.83932,-2.34654
580.6,17.3173,1.84163,-2.34776
581.2,17.3368,1.84191,-2.34771
581.8,17.3555,1.84055,-2.34906
582.4,17.375,1.84153,-2.34917
583,17.3948,1.84079,-2.35079
583.6,17.4142,1.83937,-2.35097
584.2,17.4335,1.83809,-2.35208
584.8,17.4532,1.83771,-2.35302
585.4,17.4727,1.83569,-2.35357
586,17.492,1.8415,-2.35486
586.6,17.5115,1.84072,-2.35523
587.2,17.5305,1.83831,-2.3567
587.8,17.5503,1.83484,-2.35669
588.4,17.5695,1.83403,-2.35802
589,17.5884,1.82635,-2.35819
589.6,17.6083,1.83496,-2.35952
590.2,17.6277,1.82995,-2.36014
590.8,17.6469,1.83333,-2.36083
591.4,17.6664,1.83358,-2.36205
592,17.6857,1.83207,-2.36228
592.6,17.705,1.83095,-2.3631
593.2,17.7244,1.83653,-2.3636
593.8,17.7441,1.83368,-2.36376
594.4,17.7632,1.84065,-2.36523
595,17.7826,1.84498,-2.36524
595.6,17.8021,1.84168,-2.36652
596.2,17.8215,1.83953,-2.36656
596.8,17.8406,1.84323,-2.36684
597.4,17.8602,1.83522,-2.36732
598,17.8795,1.83639,-2.36813
598.6,17.8992,1.84093,-2.36953
599.2,17.9183,1.84256,-2.3696
599.8,17.9378,1.8428,-2.37101
600.4,17.9574,1.83867,-2.37109
601,17.9766,1.84226,-2.37224
601.6,17.9962,1.84608,-2.37145
602.2,18.0156,1.84297,-2.37258
602.8,18.0349,1.84194,-2.37284
603.4,18.0543,1.83998,-2.37302
604,18.0738,1.83965,-2.37421
604.6,18.0929,1.84304,-2.37477
605.2,18.1122,1.84263,-2.37565
605.8,18.1317,1.84316,-2.37677
606.4,18.151,1.84537,-2.37702
607,18.1703,1.8353,-2.37766
607.6,18.1899,1.83986,-2.37834
608.2,18.2094,1.82854,-2.37968
608.8,18.2289,1.82399,-2.37977
609.4,18.2483,1.83159,-2.38052
610,18.2683,1.83296,-2.38122
610.6,18.2876,1.82292,-2.38196
611.2,18.307,1.82575,-2.38274
611.8,18.3263,1.81999,-2.38268
612.4,18.346,1.81506,-2.38381
613,18.3655,1.81757,-2.38402
613.6,18.3847,1.81307,-2.38481
614.2,18.4044,1.81443,-2.38535
614.8,18.4237,1.81485,-2.38562
615.4,18.4431,1.80958,-2.3867
616,18.4626,1.80775,-2.38684
616.6,18.4822,1.80389,-2.38799
617.2,18.5016,1.80116,-2.38798
617.8,18.5213,1.80051,-2.38871
618.4,18.5406,1.80151,-2.38926
619,18.56,1.80435,-2.38899
619.6,18.5796,1.79714,-2.38982
620.2,18.5992,1.7881,-2.38898
620.8,18.6184,1.78838,-2.39032
621.4,18.6379,1.79121,-2.39041
622,18.6574,1.78521,-2.39188
622.6,18.6771,1.77789,-2.39202
623.2,18.6965,1.77263,-2.39358
623.8,18.7161,1.77061,-2.39357
624.4,18.7354,1.77185,-2.39489
625,18.7548,1.76322,-2.39481
625.6,18.7745,1.75844,-2.39487
626.2,18.7939,1.75239,-2.39676
626.8,18.8134,1.74758,-2.39757
627.4,18.8327,1.74921,-2.39891
628,18.8526,1.74707,-2.39888
628.6,18.872,1.73866,-2.40024
629.2,18.8917,1.74122,-2.40016
629.8,18.9111,1.73235,-2.40121
630.4,18.9306,1.73364,-2.4014
631,18.9502,1.73046,-2.4011
631.6,18.9699,1.72776,-2.4016
632.2,18.9895,1.72419,-2.40295
632.8,19.0087,1.72128,-2.40304
633.4,19.0283,1.71673,-2.4038
634,19.0477,1.71207,-2.40436
634.6,19.0675,1.70446,-2.40444
635.2,19.0867,1.70112,-2.40307
635.8,19.1065,1.69383,-2.40294
636.4,19.1259,1.68877,-2.40443
637,19.1453,1.69039,-2.40573
637.6,19.165,1.68109,-2.4064
638.2,19.1845,1.6812,-2.40627
638.8,19.2042,1.67374,-2.4081
639.4,19.2236,1.66236,-2.40801
640,19.2432,1.66088,-2.40939
640.6,19.2628,1.65786,-2.40938
641.2,19.2824,1.65711,-2.41089
641.8,19.3019,1.64843,-2.41092
642.4,19.3214,1.6424,-2.41214
643,19.341,1.64368,-2.41214
643.6,19.3607,1.63781,-2.41214
644.2,19.3802,1.63877,-2.4131
644.8,19.3996,1.63142,-2.41346
645.4,19.4193,1.6285,-2.41347
646,19.4389,1.62414,-2.41429
646.6,19.4583,1.61657,-2.41516
647.2,19.4779,1.61386,-2.41625
647.8,19.4972,1.60102,-2.41748
648.4,19.5169,1.60407,-2.41741
649,19.5363,1.60199,-2.4173
649.6,19.5562,1.5974,-2.41868
650.2,19.5756,1.59482,-2.41793
650.8,19.5953,1.58556,-2.41784
651.4,19.6148,1.57531,-2.41874
652,19.6343,1.58101,-2.41877
652.6,19.654,1.57053,-2.42014
653.2,19.674,1.56183,-2.4197
653.8,19.6933,1.55969,-2.41926
654.4,19.7128,1.55115,-2.42037
655,19.7323,1.54175,-2.42035
655.6,19.7522,1.544,-2.42117
656.2,19.7716,1.53881,-2.42169
656.8,19.7912,1.53603,-2.42173
657.4,19.8108,1.52898,-2.42312
658,19.8304,1.52243,-2.42387
658.6,19.85,1.51415,-2.42469
659.2,19.8693,1.51301,-2.42588
659.8,19.8889,1.50581,-2.42596
660.4,19.9085,1.50516,-2.42714
661,19.9277,1.50134,-2.42727
661.6,19.9478,1.49852,-2.4272
662.2,19.9673,1.49173,-2.42714
662.8,19.987,1.48662,-2.4273
663.4,20.0066,1.47955,-2.42764
664,20.0263,1.4784,-2.42865
664.6,20.0459,1.47833,-2.42861
665.2,20.0654,1.47252,-2.42946
665.8,20.0851,1.47158,-2.42993
666.4,20.1048,1.46635,-2.4303
667,20.1243,1.46239,-2.43126
667.6,20.1439,1.45205,-2.43128
668.2,20.1634,1.44483,-2.43278
668.8,20.1829,1.4467,-2.43266
669.4,20.2027,1.44298,-2.43351
670,20.2222,1.43795,-2.43397
670.6,20.242,1.43715,-2.43479
671.2,20.2617,1.42861,-2.4354
671.8,20.2813,1.41676,-2.4352
672.4,20.3007,1.41506,-2.43536
673,20.3206,1.41125,-2.43542
673.6,20.3402,1.4038,-2.43542
674.2,20.3597,1.40099,-2.43634
674.8,20.3794,1.39837,-2.43674
675.4,20.399,1.39095,-2.43757
676,20.4188,1.38775,-2.43818
676.6,20.4383,1.38874,-2.43863
677.2,20.4581,1.38079,-2.43952
677.8,20.4775,1.37175,-2.4394
678.4,20.4975,1.36308,-2.43953
679,20.5168,1.36083,-2.43948
679.6,20.5364,1.35461,-2.44043
680.2,20.5562,1.34804,-2.44077
680.8,20.5757,1.3453,-2.44078
681.4,20.5957,1.34268,-2.44167
682,20.6155,1.33949,-2.44209
682.6,20.6349,1.33635,-2.44215
683.2,20.6545,1.33159,-2.44366
683.8,20.674,1.32844,-2.44358
684.4,20.6934,1.32244,-2.44495
685,20.7132,1.31459,-2.44487
685.6,20.7329,1.31258,-2.44487
686.2,20.7525,1.30741,-2.44494
686.8,20.772,1.31111,-2.4462
687.4,20.792,1.30109,-2.44616
688,20.8116,1.28995,-2.4469
688.6,20.8314,1.28427,-2.44684
689.2,20.8511,1.27777,-2.4462
689.8,20.8707,1.27003,-2.44749
690.4,20.8905,1.26667,-2.44749
691,20.9102,1.26864,-2.44845
691.6,20.9297,1.26919,-2.44881
692.2,20.9495,1.26396,-2.44876
692.8,20.9692,1.25448,-2.45011
693.4,20.9894,1.25009,-2.45013
694,21.0088,1.24435,-2.45094
694.6,21.0285,1.24267,-2.45158
695.2,21.0484,1.23981,-2.45232
695.8,21.0682,1.23336,-2.45148
696.4,21.0878,1.22737,-2.45157
697,21.1074,1.2255,-2.45195
697.6,21.127,1.22725,-2.45305
698.2,21.1467,1.22571,-2.45358
698.8,21.1665,1.21884,-2.45432
699.4,21.1863,1.20943,-2.4546
700,21.206,1.21049,-2.45578
700.6,21.2257,1.20161,-2.45571
701.2,21.2453,1.20876,-2.45441
701.8,21.2653,1.19976,-2.45441
702.4,21.2841,1.20188,-2.45444
703,21.304,1.19627,-2.45478
703.6,21.3241,1.197,-2.45633
704.2,21.3441,1.19862,-2.45778
704.8,21.3637,1.18444,-2.45836
705.4,21.3834,1.18057,-2.45899
706,21.4024,1.17878,-2.45954
706.6,21.4223,1.16754,-2.46032
707.2,21.4427,1.16843,-2.46088
707.8,21.4624,1.16356,-2.46164
708.4,21.4822,1.16413,-2.46172
709,21.5018,1.15884,-2.463
709.6,21.5217,1.15901,-2.46295
710.2,21.5413,1.15117,-2.46402
710.8,21.5609,1.14515,-2.46429
711.4,21.5808,1.13869,-2.46429
712,21.6002,1.13952,-2.46493
712.6,21.6204,1.13456,-2.46475
713.2,21.6398,1.12885,-2.46432
713.8,21.66,1.12009,-2.46428
714.4,21.6796,1.11062,-2.46556
715,21.6992,1.11085,-2.46556
715.6,21.7191,1.10789,-2.467
716.2,21.7389,1.10509,-2.46792
716.8,21.7585,1.09349,-2.46787
717.4,21.7781,1.09935,-2.46913
718,21.7981,1.10238,-2.46922
718.6,21.8178,1.10196,-2.46914
719.2,21.8373,1.09822,-2.4705
719.8,21.8575,1.08354,-2.46913
720.4,21.877,1.08595,-2.46913
721,21.897,1.0843,-2.4705
721.6,21.9165,1.08072,-2.47044
722.2,21.9365,1.07747,-2.47182
722.8,21.9561,1.06777,-2.47185
723.4,21.9758,1.0679,-2.47181
724,21.9959,1.06899,-2.47293
724.6,22.0154,1.06677,-2.47312
725.2,22.0351,1.05537,-2.47421
725.8,22.0553,1.04997,-2.47448
726.4,22.0746,1.05605,-2.47525
727,22.0939,1.05002,-2.47547
727.6,22.1147,1.04831,-2.47483
728.2,22.1342,1.04814,-2.47594
728.8,22.1543,1.04196,-2.47589
729.4,22.1738,1.03464,-2.47659
730,22.1936,1.0341,-2.4759
730.6,22.2136,1.02027,-2.47606
731.2,22.2333,1.01728,-2.4773
731.8,22.2532,1.00811,-2.47725
732.4,22.2731,1.0059,-2.4772
733,22.2927,1.0011,-2.47838
733.6,22.3125,0.990343,-2.47857
734.2,22.3323,0.9966,-2.47869
734.8,22.3521,0.981285,-2.47988
735.4,22.3718,0.977383,-2.47989
736,22.3915,0.974258,-2.47993
736.6,22.4114,0.970765,-2.48078
737.2,22.4314,0.961596,-2.47985
737.8,22.4511,0.956835,-2.48123
738.4,22.4711,0.95047,-2.48119
739,22.4906,0.944858,-2.48219
739.6,22.5105,0.934558,-2.48262
740.2,22.5303,0.930755,-2.48262
740.8,22.5502,0.924788,-2.48359
741.4,22.57,0.917595,-2.48395
742,22.5897,0.916055,-2.48486
742.6,22.6097,0.908102,-2.48527
743.2,22.6294,0.891009,-2.48582
743.8,22.6492,0.890194,-2.48669
744.4,22.6691,0.885782,-2.488
745,22.6888,0.882472,-2.48812
745.6,22.7088,0.871498,-2.48894
746.2,22.7285,0.854242,-2.48943
746.8,22.7484,0.857175,-2.4896
747.4,22.7684,0.848826,-2.4909
748,22.788,0.839986,-2.49103
748.6,22.8077,0.835397,-2.49221
749.2,22.8279,0.829553,-2.49186
749.8,22.8475,0.827737,-2.49084
750.4,22.8671,0.818337,-2.49189
751,22.8872,0.812887,-2.49215
751.6,22.9069,0.804965,-2.49218
752.2,22.9267,0.800768,-2.49252
752.8,22.9464,0.794833,-2.49353
753.4,22.9664,0.791588,-2.49339
754,22.9864,0.785512,-2.49476
754.6,23.0055,0.78468,-2.49476
755.2,23.0254,0.772954,-2.49586
755.8,23.0459,0.773471,-2.49611
756.4,23.0658,0.780731,-2.49614
757,23.0857,0.772684,-2.49659
757.6,23.1055,0.764597,-2.4974
758.2,23.1253,0.763031,-2.49853
758.8,23.145,0.765243,-2.49877
759.4,23.165,0.761043,-2.50011
760,23.1849,0.761506,-2.50018
760.6,23.2047,0.766495,-2.50093
761.2,23.2247,0.76444,-2.50015
761.8,23.2446,0.766182,-2.50011
762.4,23.2644,0.755934,-2.50141
763,23.284,0.753986,-2.50151
763.6,23.3041,0.752931,-2.50147
764.2,23.3243,0.747981,-2.50247
764.8,23.3439,0.752184,-2.50282
765.4,23.3637,0.749641,-2.50282
766,23.3834,0.75298,-2.50185
766.6,23.4034,0.753039,-2.50268
767.2,23.4234,0.741836,-2.50279
767.8,23.4431,0.738583,-2.50372
768.4,23.4633,0.731113,-2.50423
769,23.4831,0.737998,-2.50484
769.6,23.5032,0.739165,-2.50556
770.2,23.5229,0.736812,-2.50575
770.8,23.5427,0.736411,-2.50689
771.4,23.5627,0.732326,-2.50742
772,23.5826,0.728943,-2.50818
772.6,23.6024,0.723565,-2.50818
773.2,23.6223,0.727971,-2.50898
773.8,23.6419,0.716702,-2.50873
774.4,23.6622,0.72336,-2.5082
775,23.6821,0.711878,-2.50821
775.6,23.7019,0.707882,-2.50958
776.2,23.7217,0.710715,-2.50952
776.8,23.7417,0.704509,-2.50952
777.4,23.7619,0.701669,-2.50998
778,23.7815,0.701766,-2.51083
778.6,23.8016,0.694763,-2.51128
779.2,23.8216,0.694713,-2.51235
779.8,23.8416,0.686115,-2.51237
780.4,23.8613,0.686503,-2.51373
781,23.8812,0.685237,-2.51369
781.6,23.9012,0.675236,-2.51368
782.2,23.9211,0.681874,-2.51472
782.8,23.9409,0.681451,-2.515
783.4,23.9609,0.681997,-2.51464
784,23.9809,0.684884,-2.51434
784.6,24.0009,0.680732,-2.515
785.2,24.0208,0.672742,-2.51535
785.8,24.0407,0.667271,-2.51632
786.4,24.0607,0.666247,-2.51632
787,24.0804,0.666368,-2.51763
787.6,24.1007,0.668859,-2.51764
788.2,24.1204,0.666777,-2.51762
788.8,24.1402,0.665255,-2.51866
789.4,24.1604,0.664651,-2.5176
790,24.1802,0.664719,-2.51894