File: 01_Data/Helmet_Flap/STA/N2/30K_min/Helmet_Flap_STA_N2_30KData_250516_R2.csv
Temp./C,Time/min,DSC/(mW/mg),Mass loss/mg
40.0,0.0,1.43592,-0.0767339
40.6,0.0378255,1.50552,-0.0783963
41.2,0.0748574,1.56537,-0.0786897
41.8,0.11099,1.62485,-0.0786002
42.4,0.145628,1.6899,-0.0792129
43,0.177407,1.74779,-0.0798171
43.6,0.210877,1.81021,-0.0804597
44.2,0.24559,1.86301,-0.0794576
44.8,0.278747,1.9245,-0.0798665
45.4,0.310301,1.96811,-0.0810408
46,0.342101,2.02081,-0.0812053
46.6,0.372569,2.08569,-0.081562
47.2,0.403394,2.14275,-0.0820369
47.8,0.432786,2.19459,-0.082459
48.4,0.463064,2.24834,-0.0825651
49,0.492295,2.29881,-0.0828578
49.6,0.521885,2.35667,-0.0829661
50.2,0.549633,2.4155,-0.0841123
50.8,0.578556,2.46038,-0.0852097
51.4,0.60729,2.5239,-0.0865489
52,0.634638,2.56414,-0.0864427
52.6,0.662926,2.62232,-0.0858818
53.2,0.68997,2.67359,-0.0861242
53.8,0.716177,2.72901,-0.0872545
54.4,0.744345,2.78035,-0.0876386
55,0.771217,2.82952,-0.0874448
55.6,0.79727,2.8946,-0.0875288
56.2,0.824287,2.93979,-0.0891147
56.8,0.850405,2.99197,-0.0903559
57.4,0.876436,3.04299,-0.0898698
58,0.90218,3.10451,-0.0894562
58.6,0.928443,3.15208,-0.0902198
59.2,0.953189,3.20621,-0.091295
59.8,0.978838,3.26394,-0.0924107
60.4,1.00432,3.31527,-0.0925274
61,1.0298,3.36964,-0.0935062
61.6,1.05546,3.43014,-0.0956134
62.2,1.07943,3.48034,-0.0958687
62.8,1.10484,3.52798,-0.0962284
63.4,1.12961,3.58622,-0.0970957
64,1.15421,3.63569,-0.0974997
64.6,1.1789,3.69434,-0.0975836
65.2,1.20312,3.75005,-0.0980422
65.8,1.22756,3.80642,-0.0984856
66.4,1.25228,3.86246,-0.0998377
67,1.27619,3.91439,-0.100853
67.6,1.29973,3.95531,-0.102048
68.2,1.32452,4.01652,-0.103443
68.8,1.34714,4.06266,-0.104548
69.4,1.37261,4.11024,-0.103439
70,1.39608,4.16737,-0.104783
70.6,1.42006,4.22202,-0.105468
71.2,1.4437,4.27135,-0.106394
71.8,1.46722,4.31919,-0.108019
72.4,1.49071,4.37085,-0.109585
73,1.5149,4.41447,-0.109318
73.6,1.53782,4.45745,-0.109798
74.2,1.56124,4.50291,-0.111087
74.8,1.58423,4.54053,-0.112674
75.4,1.60775,4.58748,-0.113708
76,1.6302,4.62871,-0.115026
76.6,1.65364,4.67462,-0.116853
77.2,1.67672,4.7162,-0.117438
77.8,1.70027,4.76122,-0.11801
78.4,1.7227,4.79203,-0.118657
79,1.74562,4.8277,-0.119264
79.6,1.76832,4.86724,-0.121103
80.2,1.79144,4.89373,-0.121204
80.8,1.8137,4.92666,-0.121352
81.4,1.8364,4.9599,-0.122557
82,1.85874,4.98195,-0.122465
82.6,1.88125,5.01567,-0.123805
83.2,1.90199,5.03652,-0.125009
83.8,1.92498,5.06196,-0.126483
84.4,1.94714,5.08955,-0.127076
85,1.97045,5.11761,-0.128714
85.6,1.99204,5.13847,-0.129113
86.2,2.01446,5.14324,-0.12936
86.8,2.0364,5.16638,-0.131615
87.4,2.05825,5.18244,-0.131699
88,2.07987,5.19948,-0.132979
88.6,2.10226,5.20914,-0.133792
89.2,2.12347,5.22059,-0.135489
89.8,2.14506,5.22761,-0.135682
90.4,2.16688,5.22332,-0.135601
91,2.18788,5.2287,-0.136957
91.6,2.20961,5.23229,-0.13825
92.2,2.2308,5.23518,-0.139649
92.8,2.25223,5.23189,-0.139677
93.4,2.27356,5.23604,-0.141032
94,2.29474,5.23871,-0.141779
94.6,2.31577,5.22138,-0.143653
95.2,2.33731,5.22152,-0.143673
95.8,2.35844,5.21823,-0.144975
96.4,2.37937,5.22162,-0.146299
97,2.40033,5.20444,-0.14719
97.6,2.42146,5.19527,-0.14754
98.2,2.44216,5.18576,-0.147528
98.8,2.46332,5.17167,-0.148516
99.4,2.48401,5.15712,-0.150253
100,2.50398,5.14695,-0.150184
100.6,2.52554,5.13558,-0.150186
101.2,2.54606,5.13653,-0.150426
101.8,2.56675,5.10584,-0.150845
102.4,2.58755,5.10628,-0.150972
103,2.60831,5.07995,-0.152848
103.6,2.6288,5.07061,-0.152819
104.2,2.6493,5.05438,-0.152813
104.8,2.66993,5.0348,-0.154225
105.4,2.68999,5.01471,-0.155488
106,2.71066,5.00293,-0.155438
106.6,2.73136,4.96726,-0.156321
107.2,2.7518,4.94439,-0.156782
107.8,2.77193,4.93246,-0.158176
108.4,2.79236,4.90494,-0.158124
109,2.81268,4.87487,-0.159507
109.6,2.83274,4.85874,-0.159404
110.2,2.85312,4.8403,-0.159349
110.8,2.87266,4.81576,-0.160444
111.4,2.89415,4.79447,-0.160659
112,2.91429,4.77192,-0.161883
112.6,2.93413,4.75202,-0.162034
113.2,2.95444,4.73508,-0.162205
113.8,2.97432,4.70759,-0.163403
114.4,2.99472,4.6858,-0.163377
115,3.01492,4.65868,-0.163758
115.6,3.03507,4.63482,-0.164709
116.2,3.05485,4.61095,-0.164682
116.8,3.07511,4.58966,-0.16468
117.4,3.0951,4.55957,-0.164682
118,3.11504,4.54576,-0.164816
118.6,3.13457,4.52228,-0.166317
119.2,3.15498,4.50667,-0.167313
119.8,3.17476,4.47901,-0.167301
120.4,3.19495,4.45207,-0.1673
121,3.21406,4.44609,-0.1673
121.6,3.23447,4.42365,-0.168606
122.2,3.2541,4.40743,-0.168618
122.8,3.27411,4.39153,-0.16862
123.4,3.29395,4.37235,-0.16862
124,3.31364,4.35049,-0.16862
124.6,3.33333,4.31609,-0.16862
125.2,3.35309,4.28251,-0.168634
125.8,3.37245,4.25571,-0.1692
126.4,3.39096,4.24172,-0.169953
127,3.41096,4.22384,-0.169941
127.6,3.43137,4.19473,-0.16994
128.2,3.45087,4.1642,-0.169941
128.8,3.47019,4.14842,-0.169954
129.4,3.49006,4.12549,-0.170386
130,3.50926,4.12213,-0.171292
130.6,3.52845,4.10031,-0.171263
131.2,3.54826,4.08547,-0.17126
131.8,3.56761,4.05996,-0.17126
132.4,3.58684,4.05068,-0.17126
133,3.60636,4.03735,-0.17126
133.6,3.62498,4.02927,-0.17126
134.2,3.64503,4.01197,-0.171258
134.8,3.66455,3.98767,-0.171151
135.4,3.68336,3.98615,-0.169903
136,3.70331,3.98706,-0.170961
136.6,3.72165,3.97143,-0.170943
137.2,3.74141,3.95745,-0.171258
137.8,3.7606,3.95527,-0.171248
138.4,3.77987,3.95111,-0.171664
139,3.79911,3.95062,-0.17192
139.6,3.81842,3.93792,-0.171952
140.2,3.83687,3.9388,-0.172838
140.8,3.85644,3.9371,-0.173579
141.4,3.87575,3.92676,-0.173571
142,3.89485,3.91975,-0.17357
142.6,3.91372,3.92903,-0.17357
143.2,3.93292,3.92279,-0.17357
143.8,3.9517,3.92118,-0.173569
144.4,3.97056,3.92304,-0.173575
145,3.98954,3.9166,-0.174457
145.6,4.00889,3.917,-0.17451
146.2,4.02767,3.91953,-0.174914
146.8,4.04646,3.9124,-0.174892
147.4,4.06567,3.92911,-0.17489
148,4.08438,3.92545,-0.17489
148.6,4.10292,3.93789,-0.17489
149.2,4.12224,3.94308,-0.174896
149.8,4.14089,3.94293,-0.174944
150.4,4.15952,3.94826,-0.173796
151,4.17838,3.9565,-0.17357
151.6,4.19731,3.96029,-0.17357
152.2,4.21624,3.97618,-0.17357
152.8,4.235,3.98832,-0.17357
153.4,4.2536,3.9862,-0.17357
154,4.27239,3.99284,-0.17357
154.6,4.29084,3.99966,-0.17357
155.2,4.30978,4.01197,-0.17357
155.8,4.32858,4.0223,-0.17357
156.4,4.34741,4.02628,-0.173568
157,4.36601,4.03626,-0.173522
157.6,4.38445,4.05104,-0.174685
158.2,4.40344,4.06183,-0.17575
158.8,4.42191,4.05837,-0.176199
159.4,4.4408,4.06993,-0.17621
160,4.45955,4.09768,-0.17621
160.6,4.47804,4.09519,-0.17621
161.2,4.49664,4.10078,-0.17621
161.8,4.5154,4.11711,-0.176212
162.4,4.53358,4.12413,-0.176232
163,4.55248,4.13428,-0.175856
163.6,4.57092,4.1506,-0.175879
164.2,4.58936,4.15455,-0.17588
164.8,4.60819,4.15839,-0.17588
165.4,4.6267,4.17054,-0.17588
166,4.64516,4.17217,-0.17588
166.6,4.6641,4.18689,-0.17588
167.2,4.68251,4.2007,-0.17588
167.8,4.70074,4.2122,-0.17588
168.4,4.7195,4.21234,-0.17588
169,4.73795,4.22861,-0.17588
169.6,4.75626,4.23153,-0.175883
170.2,4.7747,4.23921,-0.175935
170.8,4.79332,4.25288,-0.17727
171.4,4.81167,4.2634,-0.177194
172,4.82945,4.26807,-0.17719
172.6,4.84885,4.2808,-0.17719
173.2,4.86707,4.28334,-0.177182
173.8,4.88576,4.29909,-0.17707
174.4,4.90388,4.30048,-0.176507
175,4.92266,4.3065,-0.176529
175.6,4.94049,4.32348,-0.176531
176.2,4.9588,4.32646,-0.176533
176.8,4.97728,4.33137,-0.177787
177.4,4.99584,4.34986,-0.177828
178,5.0139,4.36267,-0.177838
178.6,5.0323,4.3646,-0.17784
179.2,5.05075,4.38006,-0.17784
179.8,5.0692,4.38719,-0.177866
180.4,5.08731,4.39873,-0.177496
181,5.10481,4.40583,-0.17752
181.6,5.12369,4.41235,-0.177544
182.2,5.14214,4.42632,-0.177171
182.8,5.16031,4.4301,-0.177199
183.4,5.17859,4.44284,-0.17721
184,5.19667,4.45503,-0.178162
184.6,5.21458,4.47136,-0.178141
185.2,5.2329,4.47977,-0.178543
185.8,5.25152,4.48186,-0.178513
186.4,5.26913,4.48506,-0.17851
187,5.28759,4.50285,-0.17851
187.6,5.3056,4.5094,-0.178512
188.2,5.32344,4.51698,-0.17852
188.8,5.34192,4.52294,-0.178177
189.4,5.35969,4.53495,-0.177841
190,5.37816,4.54534,-0.177841
190.6,5.39597,4.54933,-0.1777
191.2,5.41427,4.54499,-0.17812
191.8,5.43226,4.55886,-0.178847
192.4,5.44998,4.56857,-0.17884
193,5.46867,4.57739,-0.17884
193.6,5.48654,4.5771,-0.17884
194.2,5.50436,4.58699,-0.17884
194.8,5.52252,4.58857,-0.17884
195.4,5.54046,4.59895,-0.178841
196,5.55865,4.61481,-0.178843
196.6,5.57657,4.62423,-0.180045
197.2,5.59441,4.617,-0.18013
197.8,5.61226,4.62824,-0.180148
198.4,5.63062,4.62676,-0.18015
199,5.64839,4.63068,-0.18015
199.6,5.66654,4.63263,-0.18015
200.2,5.68372,4.65166,-0.18015
200.8,5.70249,4.66214,-0.180149
201.4,5.72027,4.66705,-0.180145
202,5.73838,4.68134,-0.180503
202.6,5.75606,4.68994,-0.181507
203.2,5.77414,4.69136,-0.181477
203.8,5.792,4.68827,-0.18149
204.4,5.81004,4.69276,-0.181611
205,5.82797,4.70153,-0.182789
205.6,5.84531,4.71094,-0.182779
206.2,5.864,4.70756,-0.182697
206.8,5.88176,4.7067,-0.182464
207.4,5.89975,4.7102,-0.18246
208,5.91734,4.71446,-0.182458
208.6,5.93556,4.72069,-0.182413
209.2,5.95328,4.72832,-0.183527
209.8,5.97133,4.72317,-0.183766
210.4,5.98885,4.72491,-0.18378
211,6.00725,4.72571,-0.18378
211.6,6.02466,4.72498,-0.183777
212.2,6.04281,4.72504,-0.183743
212.8,6.0602,4.73542,-0.184294
213.4,6.07886,4.73912,-0.183711
214,6.09624,4.75466,-0.183767
214.6,6.1139,4.75266,-0.183796
215.2,6.1322,4.74241,-0.184123
215.8,6.14987,4.74945,-0.185096
216.4,6.16778,4.75681,-0.185089
217,6.18542,4.75837,-0.184999
217.6,6.20347,4.76557,-0.186357
218.2,6.22096,4.77124,-0.186404
218.8,6.23929,4.77059,-0.18639
219.4,6.25691,4.76705,-0.187294
220,6.27465,4.76367,-0.187737
220.6,6.29277,4.77391,-0.187753
221.2,6.3103,4.7653,-0.187897
221.8,6.32781,4.76876,-0.189087
222.4,6.34532,4.76885,-0.187964
223,6.36376,4.76984,-0.187729
223.6,6.38161,4.7647,-0.187681
224.2,6.39966,4.75703,-0.188509
224.8,6.41708,4.75798,-0.189049
225.4,6.43501,4.76573,-0.189051
226,6.45263,4.76338,-0.189799
226.6,6.47047,4.77065,-0.191726
227.2,6.48807,4.75759,-0.191683
227.8,6.50603,4.75492,-0.191704
228.4,6.52394,4.74981,-0.192285
229,6.54169,4.75275,-0.193198
229.6,6.5598,4.74527,-0.194031
230.2,6.57752,4.74096,-0.193633
230.8,6.59534,4.73386,-0.194136
231.4,6.61292,4.73234,-0.194897
232,6.6307,4.73075,-0.19506
232.6,6.64836,4.72019,-0.196294
233.2,6.66615,4.71995,-0.196217
233.8,6.68369,4.72195,-0.197609
234.4,6.70171,4.72068,-0.19762
235,6.71963,4.71165,-0.198953
235.6,6.73684,4.71717,-0.19919
236.2,6.75473,4.70559,-0.200757
236.8,6.77264,4.69599,-0.201194
237.4,6.7903,4.69278,-0.20212
238,6.80833,4.70104,-0.202116
238.6,6.82592,4.69751,-0.20343
239.2,6.84358,4.68996,-0.203846
239.8,6.86115,4.68546,-0.205209
240.4,6.87933,4.67354,-0.206085
241,6.89656,4.68155,-0.206818
241.6,6.91462,4.66966,-0.208157
242.2,6.9321,4.66983,-0.20877
242.8,6.95002,4.65337,-0.210202
243.4,6.96771,4.65247,-0.211645
244,6.98533,4.64116,-0.21234
244.6,7.00304,4.64075,-0.213037
245.2,7.0209,4.63417,-0.214135
245.8,7.03842,4.63492,-0.213489
246.4,7.05664,4.64594,-0.215252
247,7.07402,4.65101,-0.216603
247.6,7.09215,4.68295,-0.217749
248.2,7.10985,4.72189,-0.218514
248.8,7.12783,4.80535,-0.220326
249.4,7.14601,4.90692,-0.221791
250,7.16413,5.03982,-0.222782
250.6,7.18229,5.20709,-0.223023
251.2,7.20059,5.37586,-0.224147
251.8,7.21855,5.49778,-0.225633
252.4,7.23649,5.55128,-0.225793
253,7.25443,5.55845,-0.227402
253.6,7.27186,5.52573,-0.229767
254.2,7.28919,5.45228,-0.230291
254.8,7.30697,5.40128,-0.231648
255.4,7.32366,5.37899,-0.231582
256,7.3423,5.34887,-0.233262
256.6,7.36011,5.33866,-0.234823
257.2,7.37739,5.33928,-0.235847
257.8,7.39533,5.33109,-0.237428
258.4,7.41288,5.30576,-0.239067
259,7.43059,5.26369,-0.240841
259.6,7.44793,5.21079,-0.242602
260.2,7.46533,5.15147,-0.244261
260.8,7.48314,5.07785,-0.245433
261.4,7.5003,5.00611,-0.24708
262,7.51777,4.94579,-0.248747
262.6,7.53525,4.88239,-0.249857
263.2,7.55287,4.83613,-0.251568
263.8,7.57029,4.79352,-0.253161
264.4,7.58778,4.75951,-0.254562
265,7.60532,4.72772,-0.256148
265.6,7.62315,4.69432,-0.258017
266.2,7.64056,4.66929,-0.259283
266.8,7.65813,4.63473,-0.260513
267.4,7.67558,4.6178,-0.262373
268,7.69333,4.59003,-0.263989
268.6,7.71082,4.58662,-0.265617
269.2,7.72853,4.56839,-0.266269
269.8,7.74637,4.55024,-0.267826
270.4,7.76378,4.5491,-0.269651
271,7.78172,4.53391,-0.270704
271.6,7.79932,4.52085,-0.272206
272.2,7.8165,4.51012,-0.273954
272.8,7.83433,4.50048,-0.275584
273.4,7.85179,4.49654,-0.27717
274,7.86973,4.48543,-0.278279
274.6,7.88743,4.47412,-0.279474
275.2,7.90498,4.46415,-0.281254
275.8,7.92251,4.45203,-0.282645
276.4,7.94005,4.45297,-0.28422
277,7.95792,4.43911,-0.286065
277.6,7.97575,4.42111,-0.286873
278.2,7.9932,4.41157,-0.288302
278.8,8.01107,4.39753,-0.290051
279.4,8.02869,4.37754,-0.290771
280,8.04629,4.3692,-0.291866
280.6,8.06378,4.35827,-0.293826
281.2,8.08166,4.34752,-0.295693
281.8,8.09896,4.34496,-0.297462
282.4,8.11691,4.32237,-0.299224
283,8.13419,4.30774,-0.300743
283.6,8.15196,4.28431,-0.302235
284.2,8.16974,4.26655,-0.303725
284.8,8.18736,4.2538,-0.304224
285.4,8.20501,4.22222,-0.306395
286,8.22257,4.20737,-0.308108
286.6,8.23994,4.18088,-0.309548
287.2,8.25801,4.16133,-0.31068
287.8,8.2755,4.13629,-0.312435
288.4,8.29305,4.10618,-0.314239
289,8.3102,4.0775,-0.315925
289.6,8.32791,4.05295,-0.317692
290.2,8.34594,4.02138,-0.319223
290.8,8.3634,3.98839,-0.320867
291.4,8.38091,3.95186,-0.3227
292,8.39881,3.91448,-0.324581
292.6,8.41607,3.88386,-0.326169
293.2,8.4337,3.85178,-0.327723
293.8,8.45118,3.81003,-0.329703
294.4,8.46895,3.76312,-0.331854
295,8.48622,3.72015,-0.333496
295.6,8.50424,3.67498,-0.335512
296.2,8.52161,3.62661,-0.337522
296.8,8.53936,3.57344,-0.340253
297.4,8.55659,3.52301,-0.342644
298,8.57457,3.46435,-0.344326
298.6,8.59169,3.41532,-0.346358
299.2,8.60916,3.35975,-0.348561
299.8,8.62676,3.29921,-0.350658
300.4,8.64382,3.24462,-0.352245
301,8.66088,3.17767,-0.352667
301.6,8.67911,3.12044,-0.355082
302.2,8.69675,3.05294,-0.357618
302.8,8.71412,2.98793,-0.360613
303.4,8.73179,2.91601,-0.363102
304,8.7492,2.83442,-0.364761
304.6,8.76702,2.75539,-0.367574
305.2,8.78398,2.66248,-0.370249
305.8,8.80163,2.56922,-0.372745
306.4,8.81872,2.47296,-0.374848
307,8.83608,2.3545,-0.377287
307.6,8.85355,2.24695,-0.379849
308.2,8.87082,2.12128,-0.382336
308.8,8.88827,1.98434,-0.385804
309.4,8.90556,1.83858,-0.389508
310,8.92248,1.67508,-0.392302
310.6,8.93982,1.50065,-0.394423
311.2,8.95706,1.31219,-0.397535
311.8,8.97397,1.09806,-0.39985
312.4,8.99097,0.873794,-0.403587
313,9.00804,0.640836,-0.407827
313.6,9.02461,0.365853,-0.41101
314.2,9.0414,0.0957769,-0.415685
314.8,9.05827,-0.21853,-0.420413
315.4,9.07473,-0.555993,-0.426722
316,9.09142,-0.930286,-0.431884
316.6,9.10746,-1.30346,-0.437554
317.2,9.1237,-1.70232,-0.445968
317.8,9.14016,-2.12538,-0.452818
318.4,9.15644,-2.55196,-0.462231
319,9.17269,-2.96697,-0.470171
319.6,9.18927,-3.35984,-0.48069
320.2,9.2059,-3.70039,-0.493148
320.8,9.22262,-3.95793,-0.506346
321.4,9.2398,-4.1077,-0.525251
322,9.2569,-4.2256,-0.541941
322.6,9.27467,-4.21341,-0.566641
323.2,9.29241,-4.10585,-0.589269
323.8,9.31087,-3.91022,-0.61857
324.4,9.32915,-3.64197,-0.647713
325,9.34807,-3.32518,-0.679881
325.6,9.3666,-2.98892,-0.716021
326.2,9.38548,-2.6257,-0.751711
326.8,9.40435,-2.24334,-0.792284
327.4,9.4229,-1.89153,-0.827291
328,9.44168,-1.56512,-0.871286
328.6,9.46024,-1.26131,-0.905659
329.2,9.47877,-1.00031,-0.948682
329.8,9.49732,-0.763199,-0.982082
330.4,9.51589,-0.545532,-1.02407
331,9.53413,-0.36449,-1.05654
331.6,9.55263,-0.191868,-1.09487
332.2,9.57084,-0.0630883,-1.12778
332.8,9.5889,0.0569588,-1.16324
333.4,9.60729,0.154689,-1.19879
334,9.62523,0.227252,-1.23105
334.6,9.64337,0.296337,-1.267
335.2,9.66134,0.364068,-1.29564
335.8,9.67946,0.423811,-1.33046
336.4,9.69774,0.483596,-1.35645
337,9.71579,0.562362,-1.38768
337.6,9.73395,0.658896,-1.41051
338.2,9.75226,0.785643,-1.43635
338.8,9.77065,0.915502,-1.45716
339.4,9.78894,1.06224,-1.47785
340,9.80748,1.23682,-1.49631
340.6,9.82605,1.40599,-1.51213
341.2,9.84447,1.59016,-1.5273
341.8,9.86332,1.79486,-1.5395
342.4,9.88173,1.977,-1.55186
343,9.90029,2.14419,-1.56043
343.6,9.91889,2.31586,-1.56952
344.2,9.93741,2.47058,-1.57522
344.8,9.95571,2.6061,-1.5807
345.4,9.97437,2.74288,-1.58537
346,9.99293,2.84868,-1.5905
346.6,10.0112,2.93961,-1.59376
347.2,10.0292,3.0128,-1.59748
347.8,10.0475,3.09221,-1.60123
348.4,10.0659,3.13132,-1.60483
349,10.0842,3.17938,-1.60816
349.6,10.1022,3.21346,-1.61141
350.2,10.1204,3.23731,-1.61363
350.8,10.1386,3.2518,-1.61596
351.4,10.1565,3.26837,-1.61785
352,10.1749,3.27545,-1.61875
352.6,10.1928,3.27781,-1.62063
353.2,10.211,3.27539,-1.62268
353.8,10.2288,3.27675,-1.62475
354.4,10.247,3.27364,-1.62644
355,10.2649,3.26952,-1.62786
355.6,10.2831,3.25128,-1.62991
356.2,10.3011,3.24345,-1.63201
356.8,10.3192,3.23757,-1.63416
357.4,10.3372,3.22767,-1.63621
358,10.3553,3.21821,-1.63843
358.6,10.3734,3.20907,-1.64063
359.2,10.3916,3.19852,-1.64265
359.8,10.4095,3.19198,-1.64448
360.4,10.4274,3.17521,-1.64667
361,10.4455,3.16511,-1.64783
361.6,10.4638,3.15153,-1.64905
362.2,10.4816,3.13159,-1.65059
362.8,10.4993,3.11908,-1.65214
363.4,10.5177,3.11387,-1.65384
364,10.5358,3.09021,-1.65555
364.6,10.5538,3.07886,-1.65726
365.2,10.5723,3.06813,-1.65919
365.8,10.59,3.06067,-1.66121
366.4,10.6083,3.05361,-1.66334
367,10.6266,3.04627,-1.6655
367.6,10.6443,3.0419,-1.66758
368.2,10.6626,3.02574,-1.66984
368.8,10.6805,3.02468,-1.67163
369.4,10.6987,3.01962,-1.67293
370,10.7167,3.00994,-1.67469
370.6,10.7348,3.00555,-1.6764
371.2,10.7529,2.99847,-1.67812
371.8,10.7712,2.98409,-1.67994
372.4,10.7889,2.98184,-1.68255
373,10.8073,2.97674,-1.6851
373.6,10.8254,2.97149,-1.68702
374.2,10.8437,2.96283,-1.68891
374.8,10.8616,2.95874,-1.69066
375.4,10.8801,2.96088,-1.69297
376,10.8982,2.95956,-1.69495
376.6,10.9163,2.96404,-1.69652
377.2,10.9345,2.96631,-1.69823
377.8,10.9528,2.95511,-1.70027
378.4,10.9709,2.96904,-1.70231
379,10.9893,2.96807,-1.70441
379.6,11.0071,2.9685,-1.70691
380.2,11.0254,2.97592,-1.70919
380.8,11.0439,2.97803,-1.71105
381.4,11.0619,2.97861,-1.71281
382,11.0802,2.98496,-1.71503
382.6,11.0985,2.99611,-1.71628
383.2,11.1167,2.99651,-1.71754
383.8,11.1347,3.00231,-1.7195
384.4,11.1532,3.00816,-1.72248
385,11.1712,3.02104,-1.72449
385.6,11.1895,3.03794,-1.72727
386.2,11.2078,3.0577,-1.73003
386.8,11.2262,3.06578,-1.73286
387.4,11.2447,3.08195,-1.73478
388,11.2627,3.09824,-1.73733
388.6,11.2809,3.11022,-1.73993
389.2,11.2993,3.11949,-1.7434
389.8,11.3174,3.13428,-1.74663
390.4,11.3358,3.15096,-1.74866
391,11.3542,3.17413,-1.75138
391.6,11.3724,3.19553,-1.75432
392.2,11.3909,3.21467,-1.75692
392.8,11.4094,3.23809,-1.75927
393.4,11.4278,3.26253,-1.76177
394,11.4463,3.28313,-1.76413
394.6,11.4643,3.31235,-1.76649
395.2,11.4829,3.33624,-1.76866
395.8,11.5011,3.35676,-1.77182
396.4,11.5196,3.37373,-1.77531
397,11.5381,3.40177,-1.77771
397.6,11.5566,3.42325,-1.7804
398.2,11.5744,3.4503,-1.78341
398.8,11.5927,3.47486,-1.78626
399.4,11.6116,3.50273,-1.78954
400,11.6299,3.52518,-1.79255
400.6,11.6485,3.55352,-1.79576
401.2,11.6667,3.56236,-1.79868
401.8,11.6851,3.57581,-1.80084
402.4,11.7035,3.5895,-1.80379
403,11.7218,3.61176,-1.80755
403.6,11.7402,3.63168,-1.8102
404.2,11.7589,3.64981,-1.81191
404.8,11.7772,3.66514,-1.81459
405.4,11.7952,3.67855,-1.8178
406,11.8137,3.68998,-1.82085
406.6,11.8319,3.69919,-1.82336
407.2,11.8508,3.7005,-1.82656
407.8,11.8692,3.70293,-1.82991
408.4,11.8876,3.71244,-1.83261
409,11.9061,3.71609,-1.83554
409.6,11.9242,3.71874,-1.8388
410.2,11.9428,3.71578,-1.84129
410.8,11.9611,3.71292,-1.84389
411.4,11.9793,3.69979,-1.84657
412,11.9979,3.69044,-1.84991
412.6,12.0162,3.68531,-1.85328
413.2,12.0345,3.68791,-1.85589
413.8,12.0529,3.67244,-1.85915
414.4,12.0712,3.66234,-1.86376
415,12.0897,3.65373,-1.86603
415.6,12.1083,3.64068,-1.86865
416.2,12.1267,3.62895,-1.87157
416.8,12.1452,3.61068,-1.87427
417.4,12.1632,3.59703,-1.87671
418,12.1817,3.58726,-1.87868
418.6,12.2001,3.57031,-1.88084
419.2,12.2184,3.55192,-1.88436
419.8,12.2371,3.52771,-1.88665
420.4,12.2552,3.50753,-1.8891
421,12.2736,3.47927,-1.89156
421.6,12.2923,3.46914,-1.89402
422.2,12.3104,3.44203,-1.89642
422.8,12.3289,3.4123,-1.89909
423.4,12.3471,3.3889,-1.90185
424,12.3656,3.36247,-1.90472
424.6,12.3838,3.33709,-1.90688
425.2,12.4023,3.30138,-1.90981
425.8,12.4208,3.27463,-1.91244
426.4,12.439,3.24748,-1.9148
427,12.4574,3.21604,-1.91679
427.6,12.4764,3.18986,-1.91901
428.2,12.4945,3.15369,-1.92184
428.8,12.5126,3.13393,-1.92508
429.4,12.531,3.09737,-1.9274
430,12.5495,3.06383,-1.9298
430.6,12.5682,3.03778,-1.93228
431.2,12.5856,3.01272,-1.93454
431.8,12.605,2.97839,-1.93702
432.4,12.6231,2.94679,-1.93883
433,12.6419,2.93084,-1.94099
433.6,12.66,2.91547,-1.94331
434.2,12.6785,2.88724,-1.94639
434.8,12.6972,2.87146,-1.94868
435.4,12.7153,2.85049,-1.95116
436,12.734,2.83213,-1.95437
436.6,12.7526,2.81229,-1.9571
437.2,12.771,2.78899,-1.95957
437.8,12.7895,2.77749,-1.9616
438.4,12.808,2.76714,-1.96433
439,12.8263,2.75185,-1.96708
439.6,12.8451,2.73704,-1.96984
440.2,12.8637,2.72118,-1.97198
440.8,12.8821,2.70501,-1.97437
441.4,12.9007,2.69992,-1.97738
442,12.9192,2.6921,-1.97956
442.6,12.9379,2.67078,-1.98132
443.2,12.9565,2.66675,-1.98362
443.8,12.975,2.66048,-1.98603
444.4,12.9936,2.6563,-1.98857
445,13.0121,2.64834,-1.99103
445.6,13.0304,2.63663,-1.99344
446.2,13.0493,2.62578,-1.99524
446.8,13.0681,2.62537,-1.99774
447.4,13.0866,2.61182,-2.00025
448,13.1052,2.60891,-2.00201
448.6,13.1237,2.6169,-2.00449
449.2,13.1426,2.62552,-2.00833
449.8,13.1612,2.62764,-2.01085
450.4,13.1796,2.62821,-2.01283
451,13.1984,2.6313,-2.01501
451.6,13.2172,2.62267,-2.01766
452.2,13.2357,2.62418,-2.02039
452.8,13.2544,2.60775,-2.02273
453.4,13.273,2.61637,-2.02415
454,13.2915,2.62385,-2.02638
454.6,13.3104,2.62663,-2.02865
455.2,13.3292,2.63294,-2.0309
455.8,13.3478,2.62893,-2.03304
456.4,13.3665,2.63429,-2.0353
457,13.3853,2.62875,-2.03759
457.6,13.404,2.61853,-2.04042
458.2,13.4227,2.62826,-2.04268
458.8,13.4415,2.62636,-2.04477
459.4,13.4601,2.62827,-2.04725
460,13.4787,2.63405,-2.04949
460.6,13.4979,2.63932,-2.05171
461.2,13.5165,2.63886,-2.05385
461.8,13.5353,2.63031,-2.0562
462.4,13.5537,2.63781,-2.05871
463,13.5723,2.64744,-2.06061
463.6,13.5916,2.65228,-2.06301
464.2,13.6102,2.65813,-2.06556
464.8,13.6288,2.65725,-2.06772
465.4,13.6476,2.66163,-2.07002
466,13.6666,2.66427,-2.07176
466.6,13.6853,2.66303,-2.07288
467.2,13.704,2.66289,-2.07472
467.8,13.7228,2.66818,-2.07712
468.4,13.7416,2.66938,-2.0781
469,13.7605,2.67262,-2.0809
469.6,13.7795,2.67198,-2.08329
470.2,13.7981,2.67388,-2.0851
470.8,13.8166,2.6766,-2.0868
471.4,13.8356,2.67518,-2.08891
472,13.8546,2.67587,-2.09112
472.6,13.8733,2.6676,-2.09317
473.2,13.8921,2.66574,-2.09496
473.8,13.9112,2.67589,-2.09708
474.4,13.9298,2.68036,-2.09929
475,13.9488,2.68505,-2.10142
475.6,13.9676,2.68295,-2.10329
476.2,13.9858,2.68426,-2.10509
476.8,14.0044,2.67975,-2.10744
477.4,14.0238,2.68596,-2.10942
478,14.0427,2.69727,-2.11144
478.6,14.0619,2.6917,-2.11399
479.2,14.0806,2.69733,-2.11583
479.8,14.0988,2.70677,-2.11764
480.4,14.1183,2.70926,-2.11938
481,14.137,2.70447,-2.121
481.6,14.1559,2.70014,-2.12318
482.2,14.1746,2.70462,-2.12498
482.8,14.1938,2.71063,-2.12682
483.4,14.2126,2.71095,-2.12806
484,14.2315,2.71128,-2.12824
484.6,14.2497,2.71713,-2.12995
485.2,14.2692,2.71544,-2.13208
485.8,14.2879,2.71617,-2.13362
486.4,14.3066,2.7217,-2.13542
487,14.3257,2.72876,-2.13763
487.6,14.3447,2.73636,-2.13982
488.2,14.3636,2.73295,-2.1416
488.8,14.3823,2.74293,-2.14322
489.4,14.4016,2.74363,-2.14485
490,14.4205,2.75051,-2.14645
490.6,14.4392,2.74995,-2.14814
491.2,14.4582,2.75703,-2.14994
491.8,14.4771,2.75185,-2.15249
492.4,14.4962,2.75661,-2.15437
493,14.5152,2.76544,-2.15628
493.6,14.5343,2.77809,-2.15854
494.2,14.553,2.77649,-2.16022
494.8,14.5721,2.77926,-2.16224
495.4,14.5912,2.78817,-2.16391
496,14.61,2.78398,-2.16521
496.6,14.6288,2.78588,-2.16642
497.2,14.6478,2.80199,-2.16762
497.8,14.6669,2.79745,-2.16916
498.4,14.6857,2.7969,-2.17099
499,14.7048,2.81057,-2.17283
499.6,14.7237,2.81915,-2.17473
500.2,14.7426,2.8196,-2.17618
500.8,14.7617,2.8212,-2.17605
501.4,14.7805,2.82954,-2.17744
502,14.7996,2.8238,-2.17902
502.6,14.8186,2.82846,-2.18075
503.2,14.8375,2.84033,-2.18177
503.8,14.8567,2.84003,-2.18209
504.4,14.8757,2.83758,-2.18409
505,14.8945,2.85445,-2.1861
505.6,14.9134,2.86359,-2.18824
506.2,14.9329,2.86475,-2.18994
506.8,14.9517,2.87129,-2.19048
507.4,14.9708,2.88052,-2.1911
508,14.9898,2.89064,-2.19309
508.6,15.009,2.89345,-2.19419
509.2,15.0279,2.90354,-2.19519
509.8,15.0469,2.90887,-2.19642
510.4,15.0659,2.9072,-2.19837
511,15.0847,2.91668,-2.20003
511.6,15.1039,2.92065,-2.20181
512.2,15.1231,2.92347,-2.2029
512.8,15.1422,2.93141,-2.20385
513.4,15.1609,2.93938,-2.20534
514,15.1803,2.94433,-2.20715
514.6,15.1994,2.95414,-2.20888
515.2,15.2184,2.95898,-2.21017
515.8,15.2372,2.9642,-2.21093
516.4,15.2564,2.97071,-2.21235
517,15.2756,2.97681,-2.21372
517.6,15.2947,2.98023,-2.21472
518.2,15.3138,2.98542,-2.21586
518.8,15.3327,2.99422,-2.21697
519.4,15.3523,3.0028,-2.21846
520,15.3711,3.01184,-2.21858
520.6,15.3899,3.01232,-2.22041
521.2,15.4092,3.01957,-2.22165
521.8,15.4277,3.02279,-2.22337
522.4,15.4472,3.02652,-2.22463
523,15.4667,3.02981,-2.2258
523.6,15.4855,3.0374,-2.22737
524.2,15.5046,3.04759,-2.22807
524.8,15.5236,3.04895,-2.22892
525.4,15.5429,3.0523,-2.22987
526,15.5623,3.05523,-2.23063
526.6,15.581,3.06223,-2.23222
527.2,15.6002,3.06557,-2.23361
527.8,15.62,3.07165,-2.23401
528.4,15.6388,3.07683,-2.2355
529,15.658,3.07707,-2.23715
529.6,15.6767,3.08656,-2.23819
530.2,15.696,3.09406,-2.23937
530.8,15.7152,3.09416,-2.2406
531.4,15.7345,3.10212,-2.24195
532,15.7536,3.10573,-2.24357
532.6,15.7729,3.11582,-2.24468
533.2,15.7919,3.11433,-2.24573
533.8,15.8112,3.11757,-2.24716
534.4,15.8293,3.12121,-2.24895
535,15.8495,3.12148,-2.2497
535.6,15.8686,3.12637,-2.25082
536.2,15.8875,3.1286,-2.2527
536.8,15.9072,3.13326,-2.25405
537.4,15.9261,3.13404,-2.25547
538,15.9454,3.1435,-2.25548
538.6,15.9642,3.14348,-2.257
539.2,15.9836,3.14024,-2.25777
539.8,16.0028,3.15148,-2.25841
540.4,16.022,3.15455,-2.25937
541,16.0411,3.15494,-2.2609
541.6,16.0601,3.15719,-2.26222
542.2,16.0797,3.1579,-2.26355
542.8,16.0988,3.15672,-2.26461
543.4,16.118,3.15461,-2.26646
544,16.1372,3.15863,-2.26792
544.6,16.1566,3.16021,-2.26793
545.2,16.1757,3.16296,-2.26931
545.8,16.195,3.16043,-2.2697
546.4,16.2142,3.16056,-2.27098
547,16.2332,3.15903,-2.27258
547.6,16.2528,3.16469,-2.27384
548.2,16.2718,3.18053,-2.27466
548.8,16.2911,3.17558,-2.27675
549.4,16.3102,3.16994,-2.27856
550,16.3294,3.17624,-2.27933
550.6,16.3486,3.17277,-2.2801
551.2,16.3679,3.16785,-2.2817
551.8,16.3869,3.16455,-2.28343
552.4,16.4064,3.16368,-2.28521
553,16.4254,3.15879,-2.28545
553.6,16.4448,3.16105,-2.28692
554.2,16.4639,3.15987,-2.28816
554.8,16.4831,3.15618,-2.28895
555.4,16.5024,3.15714,-2.2903
556,16.5217,3.15835,-2.29098
556.6,16.5407,3.15328,-2.29201
557.2,16.5602,3.14665,-2.29265
557.8,16.5792,3.14513,-2.29416
558.4,16.5985,3.13838,-2.29484
559,16.6172,3.13731,-2.29563
559.6,16.6366,3.12906,-2.29719
560.2,16.6565,3.12308,-2.29859
560.8,16.6759,3.12431,-2.29888
561.4,16.695,3.11888,-2.30031
562,16.714,3.11711,-2.30156
562.6,16.7333,3.11323,-2.30208
563.2,16.7528,3.10689,-2.30319
563.8,16.7718,3.10253,-2.30395
564.4,16.791,3.09547,-2.30492
565,16.8103,3.09292,-2.30633
565.6,16.8295,3.09079,-2.30768
566.2,16.8489,3.0836,-2.30837
566.8,16.8685,3.0778,-2.30907
567.4,16.8875,3.07368,-2.31057
568,16.9068,3.07464,-2.31202
568.6,16.9262,3.06597,-2.3123
569.2,16.9455,3.05001,-2.31372
569.8,16.9644,3.05866,-2.31337
570.4,16.9838,3.05004,-2.31456
571,17.003,3.04509,-2.31526
571.6,17.0224,3.03764,-2.31568
572.2,17.0416,3.03299,-2.31705
572.8,17.0611,3.02541,-2.31699
573.4,17.0802,3.01744,-2.31835
574,17.0996,3.00881,-2.31876
574.6,17.1188,3.00376,-2.31969
575.2,17.1379,2.98741,-2.32079
575.8,17.1572,2.98442,-2.32149
576.4,17.1769,2.97631,-2.32297
577,17.1961,2.97134,-2.32448
577.6,17.2151,2.96778,-2.3259
578.2,17.2347,2.96184,-2.32641
578.8,17.254,2.95426,-2.32756
579.4,17.2735,2.94595,-2.32906
580,17.2928,2.93564,-2.33008
580.6,17.312,2.93599,-2.33068
581.2,17.3314,2.92937,-2.32977
581.8,17.3505,2.91461,-2.33071
582.4,17.3698,2.9095,-2.3308
583,17.3895,2.90566,-2.33213
583.6,17.4087,2.89934,-2.33215
584.2,17.4282,2.88507,-2.33365
584.8,17.4473,2.88429,-2.33467
585.4,17.4668,2.88373,-2.33517
586,17.4862,2.87731,-2.33652
586.6,17.5053,2.86488,-2.33674
587.2,17.5248,2.85685,-2.33812
587.8,17.5442,2.85381,-2.33931
588.4,17.5638,2.84112,-2.33984
589,17.5831,2.83681,-2.34132
589.6,17.6027,2.82295,-2.34128
590.2,17.6213,2.82599,-2.34276
590.8,17.6405,2.8231,-2.34275
591.4,17.6609,2.80687,-2.34426
592,17.6798,2.80266,-2.34352
592.6,17.6993,2.80068,-2.34422
593.2,17.7187,2.79529,-2.34421
593.8,17.7382,2.79057,-2.3455
594.4,17.7579,2.78141,-2.3455
595,17.7772,2.77382,-2.34551
595.6,17.7963,2.7695,-2.34602
596.2,17.816,2.76706,-2.34685
596.8,17.8353,2.75497,-2.34725
597.4,17.8549,2.75202,-2.34813
598,17.8743,2.74894,-2.34945
598.6,17.8936,2.74354,-2.35021
599.2,17.913,2.73438,-2.35111
599.8,17.9327,2.73835,-2.35277
600.4,17.9518,2.73913,-2.35303
601,17.9716,2.73329,-2.35438
601.6,17.991,2.71974,-2.35452
602.2,18.0104,2.71683,-2.35562
602.8,18.0302,2.71443,-2.35576
603.4,18.0496,2.71461,-2.35698
604,18.069,2.70391,-2.35578
604.6,18.0885,2.69939,-2.35599
605.2,18.108,2.68976,-2.35693
605.8,18.1271,2.68713,-2.35718
606.4,18.1468,2.67661,-2.35826
607,18.1664,2.67838,-2.35845
607.6,18.1857,2.67285,-2.35963
608.2,18.2053,2.66804,-2.36035
608.8,18.2246,2.6612,-2.36106
609.4,18.2444,2.661,-2.36239
610,18.2638,2.6488,-2.36262
610.6,18.2832,2.65239,-2.36263
611.2,18.3027,2.64762,-2.36344
611.8,18.3218,2.63974,-2.36393
612.4,18.3417,2.63602,-2.36398
613,18.3613,2.62817,-2.36538
613.6,18.3808,2.62246,-2.36539
614.2,18.4004,2.62935,-2.36676
614.8,18.4197,2.62158,-2.36722
615.4,18.4393,2.61452,-2.36822
616,18.4591,2.61097,-2.36827
616.6,18.4784,2.60491,-2.36958
617.2,18.4979,2.59842,-2.36884
617.8,18.5173,2.59792,-2.36995
618.4,18.5367,2.59173,-2.37003
619,18.5562,2.58374,-2.37042
619.6,18.5758,2.58901,-2.37109
620.2,18.5953,2.58217,-2.37225
620.8,18.6149,2.5716,-2.37239
621.4,18.6342,2.56706,-2.37398
622,18.6539,2.5651,-2.37413
622.6,18.6733,2.56373,-2.37557
623.2,18.693,2.56253,-2.37544
623.8,18.7126,2.55537,-2.3765
624.4,18.7319,2.55449,-2.37679
625,18.7515,2.55223,-2.37682
625.6,18.7708,2.54311,-2.37819
626.2,18.7905,2.53967,-2.37806
626.8,18.8099,2.53471,-2.37936
627.4,18.8296,2.52783,-2.37961
628,18.849,2.52573,-2.38048
628.6,18.8684,2.51997,-2.38065
629.2,18.8881,2.51331,-2.38064
629.8,18.9073,2.50556,-2.38123
630.4,18.9271,2.51204,-2.38196
631,18.9468,2.50447,-2.38218
631.6,18.9663,2.49663,-2.38342
632.2,18.9858,2.49146,-2.38338
632.8,19.0052,2.47897,-2.38447
633.4,19.0249,2.47957,-2.38471
634,19.0446,2.4734,-2.38531
634.6,19.0637,2.46456,-2.38609
635.2,19.0835,2.46162,-2.3873
635.8,19.103,2.4569,-2.38682
636.4,19.1225,2.44711,-2.38696
637,19.1424,2.44395,-2.38789
637.6,19.1618,2.43752,-2.38788
638.2,19.1812,2.43142,-2.38856
638.8,19.2008,2.43097,-2.38925
639.4,19.2203,2.42204,-2.39017
640,19.2397,2.42621,-2.39071
640.6,19.2596,2.41697,-2.39151
641.2,19.2789,2.41267,-2.39205
641.8,19.2986,2.40134,-2.39339
642.4,19.3184,2.40283,-2.39337
643,19.3376,2.38551,-2.39337
643.6,19.3571,2.37731,-2.39332
644.2,19.377,2.37693,-2.39468
644.8,19.3963,2.36739,-2.39461
645.4,19.4159,2.36159,-2.396
646,19.4356,2.34773,-2.39608
646.6,19.4552,2.35025,-2.3957
647.2,19.4748,2.34252,-2.39605
647.8,19.4943,2.33355,-2.39659
648.4,19.5128,2.32302,-2.39732
649,19.5334,2.32349,-2.39734
649.6,19.5529,2.31885,-2.39775
650.2,19.5724,2.31051,-2.39877
650.8,19.5921,2.30405,-2.39874
651.4,19.6117,2.29419,-2.39944
652,19.631,2.28089,-2.4
652.6,19.6511,2.27326,-2.40102
653.2,19.6704,2.26272,-2.40154
653.8,19.6902,2.2587,-2.40275
654.4,19.7098,2.24456,-2.403
655,19.7292,2.24061,-2.4029
655.6,19.7486,2.23263,-2.40303
656.2,19.7681,2.22321,-2.40304
656.8,19.7879,2.21752,-2.404
657.4,19.807,2.19961,-2.40435
658,19.8266,2.19506,-2.40457
658.6,19.8471,2.18847,-2.40569
659.2,19.8664,2.17738,-2.40587
659.8,19.8858,2.17414,-2.40714
660.4,19.9056,2.16449,-2.40702
661,19.9252,2.14829,-2.4084
661.6,19.9446,2.14779,-2.40842
662.2,19.9641,2.12396,-2.40844
662.8,19.984,2.12496,-2.40898
663.4,20.0036,2.11708,-2.40975
664,20.0233,2.10566,-2.40999
664.6,20.0428,2.09295,-2.41122
665.2,20.0623,2.08466,-2.41199
665.8,20.082,2.07484,-2.41258
666.4,20.1017,2.05996,-2.41289
667,20.1214,2.05947,-2.4139
667.6,20.1409,2.05125,-2.41385
668.2,20.1604,2.04194,-2.41505
668.8,20.18,2.02703,-2.41522
669.4,20.1998,2.02618,-2.41522
670,20.2195,2.01594,-2.41568
670.6,20.239,2.00727,-2.41653
671.2,20.2581,2.0037,-2.41654
671.8,20.2777,1.99234,-2.41653
672.4,20.2973,1.98448,-2.41783
673,20.3176,1.96656,-2.41784
673.6,20.3371,1.96002,-2.41927
674.2,20.3574,1.949,-2.41986
674.8,20.3767,1.939,-2.42041
675.4,20.3965,1.928,-2.42076
676,20.416,1.91498,-2.42091
676.6,20.4355,1.90208,-2.42093
677.2,20.4551,1.88385,-2.42093
677.8,20.4747,1.88042,-2.42105
678.4,20.4945,1.87351,-2.42232
679,20.5138,1.85823,-2.42225
679.6,20.5337,1.85316,-2.42317
680.2,20.5535,1.84364,-2.42353
680.8,20.5728,1.83592,-2.42351
681.4,20.5921,1.82509,-2.42454
682,20.6125,1.81489,-2.42479
682.6,20.6321,1.80327,-2.42614
683.2,20.6518,1.79475,-2.42635
683.8,20.6714,1.77857,-2.4277
684.4,20.691,1.7727,-2.42758
685,20.7109,1.75233,-2.42839
685.6,20.7304,1.74569,-2.42829
686.2,20.7499,1.72773,-2.42794
686.8,20.77,1.72297,-2.42802
687.4,20.7894,1.71255,-2.42928
688,20.8088,1.70352,-2.42894
688.6,20.8287,1.69808,-2.42894
689.2,20.8482,1.68394,-2.43027
689.8,20.868,1.67344,-2.43026
690.4,20.8878,1.65597,-2.43089
691,20.9067,1.64804,-2.43171
691.6,20.9271,1.63826,-2.43257
692.2,20.947,1.62514,-2.43313
692.8,20.9665,1.61678,-2.43395
693.4,20.9861,1.60293,-2.43443
694,21.0058,1.58972,-2.43435
694.6,21.0253,1.58355,-2.43573
695.2,21.0451,1.569,-2.4357
695.8,21.0649,1.55596,-2.43691
696.4,21.0846,1.54238,-2.437
697,21.1038,1.53018,-2.43824
697.6,21.1245,1.52056,-2.43843
698.2,21.1436,1.5102,-2.43965
698.8,21.1635,1.50696,-2.4399
699.4,21.1832,1.49285,-2.43998
700,21.2027,1.48229,-2.43992
700.6,21.2226,1.45735,-2.43992
701.2,21.2424,1.4477,-2.43992
701.8,21.2619,1.44454,-2.43988
702.4,21.2817,1.43234,-2.44086
703,21.3015,1.41946,-2.44123
703.6,21.3211,1.40797,-2.44148
704.2,21.341,1.40476,-2.44256
704.8,21.3601,1.39032,-2.44256
705.4,21.3798,1.38109,-2.44394
706,21.4001,1.36728,-2.44402
706.6,21.4197,1.34845,-2.4453
707.2,21.4392,1.33521,-2.44572
707.8,21.459,1.31771,-2.44658
708.4,21.4785,1.3146,-2.4453
709,21.4984,1.29826,-2.44663
709.6,21.5181,1.28396,-2.44662
710.2,21.538,1.26523,-2.44805
710.8,21.5576,1.26199,-2.44833
711.4,21.5774,1.25531,-2.44948
712,21.5969,1.24639,-2.44949
712.6,21.6169,1.22214,-2.45035
713.2,21.6367,1.21586,-2.45079
713.8,21.6563,1.20182,-2.45078
714.4,21.676,1.18794,-2.45195
715,21.6958,1.18048,-2.45206
715.6,21.7156,1.16458,-2.45334
716.2,21.7355,1.15486,-2.45412
716.8,21.7548,1.14932,-2.45396
717.4,21.7749,1.13355,-2.45432
718,21.7947,1.12234,-2.45448
718.6,21.8143,1.1088,-2.45324
719.2,21.8339,1.09679,-2.4533
719.8,21.854,1.08391,-2.45331
720.4,21.8737,1.06486,-2.45331
721,21.8933,1.05602,-2.45432
721.6,21.913,1.04235,-2.4551
722.2,21.933,1.03054,-2.45668
722.8,21.9524,1.02006,-2.45632
723.4,21.9723,1.01131,-2.45664
724,21.9918,0.996696,-2.45656
724.6,22.0113,0.987375,-2.45752
725.2,22.0311,0.975371,-2.4579
725.8,22.0513,0.960582,-2.45858
726.4,22.0711,0.940968,-2.45922
727,22.0909,0.927262,-2.45924
727.6,22.1106,0.916078,-2.45922
728.2,22.1305,0.910971,-2.4601
728.8,22.1503,0.897569,-2.46055
729.4,22.1704,0.882328,-2.46058
730,22.1898,0.876714,-2.46194
730.6,22.2097,0.863129,-2.46188
731.2,22.2296,0.851341,-2.46326
731.8,22.2491,0.83346,-2.46318
732.4,22.2688,0.824236,-2.46423
733,22.2887,0.820987,-2.46451
733.6,22.3087,0.806551,-2.46451
734.2,22.3283,0.790135,-2.46452
734.8,22.3482,0.782778,-2.46583
735.4,22.3683,0.772125,-2.46583
736,22.3881,0.761834,-2.46615
736.6,22.4077,0.742515,-2.46715
737.2,22.4276,0.726862,-2.46714
737.8,22.4477,0.728038,-2.46712
738.4,22.4673,0.716627,-2.46846
739,22.4872,0.709313,-2.46871
739.6,22.507,0.697657,-2.47004
740.2,22.5269,0.692692,-2.47094
740.8,22.5468,0.681574,-2.47018
741.4,22.5668,0.665661,-2.47168
742,22.5862,0.658855,-2.47175
742.6,22.6063,0.646104,-2.47294
743.2,22.6262,0.642938,-2.47307
743.8,22.6458,0.617251,-2.47308
744.4,22.6658,0.616411,-2.47308
745,22.6859,0.605934,-2.47304
745.6,22.7056,0.596621,-2.4743
746.2,22.7251,0.582867,-2.47308
746.8,22.7452,0.572099,-2.47417
747.4,22.7652,0.56199,-2.4744
748,22.7849,0.548336,-2.47506
748.6,22.8047,0.538246,-2.47571
749.2,22.8247,0.534064,-2.47566
749.8,22.8446,0.525732,-2.47687
750.4,22.8643,0.507671,-2.47703
751,22.8841,0.504559,-2.47737
751.6,22.9043,0.490301,-2.47868
752.2,22.9237,0.476575,-2.47859
752.8,22.9439,0.468171,-2.48001
753.4,22.9637,0.456105,-2.48011
754,22.9837,0.443792,-2.4804
754.6,23.0027,0.431753,-2.4815
755.2,23.0233,0.412377,-2.48017
755.8,23.0431,0.406705,-2.48096
756.4,23.063,0.395873,-2.4814
757,23.0827,0.387881,-2.48142
757.6,23.1028,0.383946,-2.48147
758.2,23.1226,0.368328,-2.48296
758.8,23.1421,0.343428,-2.4829
759.4,23.1622,0.344458,-2.48425
760,23.1821,0.336307,-2.48417
760.6,23.2014,0.327893,-2.483
761.2,23.2215,0.319409,-2.48405
761.8,23.2422,0.306072,-2.48409
762.4,23.2616,0.296152,-2.48536
763,23.2819,0.281827,-2.48547
763.6,23.3016,0.279595,-2.48542
764.2,23.3213,0.269275,-2.48666
764.8,23.3411,0.253135,-2.48679
765.4,23.361,0.242352,-2.48682
766,23.381,0.228411,-2.4882
766.6,23.4008,0.218857,-2.48811
767.2,23.4208,0.209893,-2.48915
767.8,23.4407,0.200321,-2.48943
768.4,23.4604,0.18967,-2.49073
769,23.4802,0.173588,-2.48925
769.6,23.5002,0.164254,-2.48995
770.2,23.5203,0.163152,-2.48934
770.8,23.54,0.14706,-2.48929
771.4,23.56,0.142063,-2.49045
772,23.5799,0.125921,-2.49064
772.6,23.5997,0.116753,-2.49112
773.2,23.6192,0.114027,-2.49195
773.8,23.639,0.105649,-2.49199
774.4,23.6592,0.0974422,-2.49331
775,23.6792,0.0897092,-2.49328
775.6,23.699,0.0781342,-2.49329
776.2,23.719,0.0665553,-2.49464
776.8,23.7389,0.0574059,-2.4946
777.4,23.7588,0.0536853,-2.49573
778,23.7787,0.0449915,-2.49464
778.6,23.7987,0.0343155,-2.49459
779.2,23.8186,0.0308718,-2.49462
779.8,23.8386,0.0196153,-2.49591
780.4,23.8586,0.00808463,-2.4959
781,23.8778,-0.00526449,-2.49688
781.6,23.8983,-0.00978042,-2.49723
782.2,23.9179,-0.0208711,-2.49723
782.8,23.9376,-0.0295855,-2.4981
783.4,23.9582,-0.0397466,-2.49714
784,23.9782,-0.0457592,-2.49723
784.6,23.9977,-0.0485806,-2.49725
785.2,24.0178,-0.0571338,-2.498
785.8,24.0378,-0.068895,-2.49987
786.4,24.0575,-0.0777013,-2.50015
787,24.0777,-0.0875575,-2.50035
787.6,24.0975,-0.0903713,-2.50017
788.2,24.1173,-0.0977196,-2.50131
788.8,24.1373,-0.100775,-2.50155
789.4,24.1575,-0.107452,-2.50272
790,24.1772,-0.115177,-2.50298