File: 01_Data/Helmet_Flap/STA/N2/30K_min/Helmet_Flap_STA_N2_30KData_250529_R4.csv
Temp./C,Time/min,DSC/(mW/mg),Mass loss/mg
40.0,0.0,1.64026,-0.0976773
40.6,0.0371131,1.71345,-0.097537
41.2,0.0762995,1.77951,-0.100177
41.8,0.110473,1.8582,-0.0999515
42.4,0.146824,1.92291,-0.0997639
43,0.181165,1.98647,-0.0998466
43.6,0.215013,2.06383,-0.100112
44.2,0.248198,2.12316,-0.100356
44.8,0.280939,2.19054,-0.101995
45.4,0.313073,2.24096,-0.102454
46,0.345059,2.31502,-0.103097
46.6,0.375552,2.37207,-0.104022
47.2,0.406261,2.4233,-0.106161
47.8,0.43652,2.49025,-0.106687
48.4,0.467001,2.55587,-0.106124
49,0.495671,2.60838,-0.106432
49.6,0.523756,2.66608,-0.106325
50.2,0.554189,2.7247,-0.105922
50.8,0.5825,2.78268,-0.106203
51.4,0.609969,2.84363,-0.108072
52,0.638456,2.89952,-0.108146
52.6,0.666695,2.95878,-0.108049
53.2,0.694642,3.03121,-0.108802
53.8,0.721629,3.0915,-0.110738
54.4,0.748531,3.15036,-0.111393
55,0.776175,3.20043,-0.112044
55.6,0.802957,3.26094,-0.113578
56.2,0.828911,3.33545,-0.113849
56.8,0.855518,3.39853,-0.114321
57.4,0.881956,3.45827,-0.114078
58,0.908093,3.52545,-0.114694
58.6,0.933708,3.57234,-0.1154
59.2,0.959992,3.64858,-0.117505
59.8,0.98494,3.70988,-0.118608
60.4,1.01043,3.76728,-0.119125
61,1.03558,3.83019,-0.120298
61.6,1.06103,3.89738,-0.120921
62.2,1.08633,3.96542,-0.120741
62.8,1.11086,4.0237,-0.122609
63.4,1.13613,4.08455,-0.123294
64,1.16101,4.15631,-0.123809
64.6,1.18499,4.2301,-0.124679
65.2,1.21045,4.2823,-0.123991
65.8,1.23488,4.34135,-0.125663
66.4,1.25931,4.40951,-0.126726
67,1.28366,4.46196,-0.127047
67.6,1.30773,4.53726,-0.129084
68.2,1.33151,4.59294,-0.129638
68.8,1.35543,4.6618,-0.131061
69.4,1.37953,4.72381,-0.13224
70,1.40348,4.78001,-0.132398
70.6,1.42721,4.82333,-0.133802
71.2,1.451,4.89423,-0.133665
71.8,1.47468,4.94872,-0.135252
72.4,1.49867,5.00251,-0.136427
73,1.52254,5.05674,-0.137639
73.6,1.5454,5.10369,-0.139021
74.2,1.56905,5.16339,-0.140393
74.8,1.59172,5.20163,-0.142063
75.4,1.61471,5.26767,-0.144466
76,1.63833,5.30793,-0.144907
76.6,1.66171,5.3534,-0.145039
77.2,1.68443,5.40345,-0.146251
77.8,1.70761,5.4452,-0.14707
78.4,1.73057,5.49666,-0.147515
79,1.75368,5.53211,-0.149587
79.6,1.77629,5.57202,-0.150992
80.2,1.79872,5.60713,-0.151989
80.8,1.82147,5.64519,-0.153105
81.4,1.84432,5.68773,-0.154874
82,1.86692,5.71147,-0.155776
82.6,1.88903,5.7358,-0.157213
83.2,1.91176,5.76888,-0.157203
83.8,1.93435,5.80375,-0.158863
84.4,1.9561,5.8217,-0.159744
85,1.97848,5.85649,-0.161452
85.6,2.00075,5.87487,-0.162673
86.2,2.0228,5.8969,-0.163972
86.8,2.04477,5.91354,-0.163857
87.4,2.06622,5.92907,-0.166155
88,2.08824,5.95024,-0.166555
88.6,2.10994,5.96255,-0.168186
89.2,2.13174,5.98514,-0.169603
89.8,2.15368,5.99895,-0.171825
90.4,2.17508,6.00349,-0.172123
91,2.19658,6.0165,-0.172125
91.6,2.21797,6.022,-0.174789
92.2,2.23951,6.0245,-0.174882
92.8,2.26102,6.03316,-0.177696
93.4,2.28191,6.0353,-0.177603
94,2.30353,6.03271,-0.178852
94.6,2.32444,6.0352,-0.180058
95.2,2.34538,6.0406,-0.181043
95.8,2.36682,6.02668,-0.18157
96.4,2.38793,6.02276,-0.184413
97,2.40872,6.02006,-0.184335
97.6,2.42969,6.01123,-0.185227
98.2,2.4498,6.00357,-0.186946
98.8,2.47092,5.99012,-0.186958
99.4,2.4927,5.97558,-0.18694
100,2.51321,5.96124,-0.188893
100.6,2.53272,5.94048,-0.189634
101.2,2.55457,5.92658,-0.192463
101.8,2.57564,5.9119,-0.192653
102.4,2.59606,5.89625,-0.195383
103,2.61688,5.86932,-0.195415
103.6,2.63724,5.85641,-0.195403
104.2,2.65786,5.83429,-0.196193
104.8,2.67821,5.81639,-0.196714
105.4,2.69878,5.78569,-0.197232
106,2.71963,5.7713,-0.199259
106.6,2.73939,5.75345,-0.199997
107.2,2.75949,5.72773,-0.200659
107.8,2.7808,5.68579,-0.200781
108.4,2.80054,5.67287,-0.202277
109,2.82129,5.64962,-0.203374
109.6,2.84144,5.62016,-0.203449
110.2,2.86163,5.59478,-0.204619
110.8,2.88192,5.56402,-0.205726
111.4,2.90214,5.53625,-0.205936
112,2.92227,5.50452,-0.2059
112.6,2.94213,5.48309,-0.207065
113.2,2.96288,5.44948,-0.207917
113.8,2.98292,5.40308,-0.208588
114.4,3.00311,5.38709,-0.208497
115,3.02312,5.3638,-0.210613
115.6,3.04298,5.3354,-0.211206
116.2,3.06362,5.29791,-0.211131
116.8,3.08339,5.283,-0.212518
117.4,3.10312,5.25051,-0.21254
118,3.12297,5.22082,-0.21255
118.6,3.1435,5.19443,-0.2127
119.2,3.16318,5.16738,-0.213858
119.8,3.18313,5.13701,-0.213865
120.4,3.20308,5.11527,-0.214242
121,3.22302,5.09422,-0.215199
121.6,3.24293,5.0711,-0.21569
122.2,3.26255,5.04626,-0.216467
122.8,3.2823,5.02204,-0.216489
123.4,3.3019,4.9955,-0.216493
124,3.32179,4.95581,-0.216537
124.6,3.3414,4.92627,-0.215398
125.2,3.36094,4.90014,-0.21629
125.8,3.38054,4.87166,-0.21649
126.4,3.40006,4.84134,-0.216485
127,3.4198,4.8121,-0.217166
127.6,3.4394,4.80157,-0.217786
128.2,3.45891,4.76209,-0.217816
128.8,3.47886,4.7468,-0.217915
129.4,3.49769,4.71805,-0.219157
130,3.51735,4.69349,-0.219132
130.6,3.53709,4.66847,-0.21914
131.2,3.5561,4.65561,-0.219663
131.8,3.57586,4.63526,-0.220128
132.4,3.59421,4.62032,-0.22013
133,3.61411,4.609,-0.220346
133.6,3.63379,4.60895,-0.220444
134.2,3.65301,4.57823,-0.220525
134.8,3.67188,4.57474,-0.221855
135.4,3.6917,4.55736,-0.221767
136,3.71082,4.55104,-0.221761
136.6,3.7301,4.53189,-0.22176
137.2,3.74923,4.51422,-0.221761
137.8,3.76855,4.50712,-0.221767
138.4,3.78741,4.49464,-0.221818
139,3.80662,4.49064,-0.222752
139.6,3.82578,4.50157,-0.223085
140.2,3.84533,4.48997,-0.223075
140.8,3.86419,4.47908,-0.222969
141.4,3.88321,4.478,-0.224621
142,3.90241,4.47069,-0.226574
142.6,3.9212,4.46981,-0.226696
143.2,3.94048,4.48256,-0.226735
143.8,3.95942,4.47426,-0.225569
144.4,3.97822,4.47304,-0.224684
145,3.99743,4.48212,-0.223188
145.6,4.01631,4.48511,-0.22319
146.2,4.03482,4.49264,-0.22319
146.8,4.05412,4.48909,-0.22319
147.4,4.07307,4.50763,-0.22319
148,4.09201,4.5088,-0.22319
148.6,4.11063,4.50017,-0.223191
149.2,4.12982,4.51252,-0.223198
149.8,4.14817,4.51253,-0.223794
150.4,4.1673,4.51902,-0.225476
151,4.18615,4.52716,-0.22853
151.6,4.20503,4.54027,-0.230237
152.2,4.22401,4.54677,-0.22932
152.8,4.24237,4.5528,-0.22736
153.4,4.26157,4.56711,-0.225857
154,4.28014,4.57403,-0.224653
154.6,4.299,4.59124,-0.224752
155.2,4.31768,4.599,-0.224018
155.8,4.33556,4.60001,-0.22406
156.4,4.35437,4.61049,-0.22406
157,4.37347,4.63423,-0.22406
157.6,4.39262,4.64498,-0.22406
158.2,4.41131,4.66148,-0.224062
158.8,4.42988,4.68143,-0.224076
159.4,4.44847,4.69303,-0.224208
160,4.46724,4.70491,-0.225496
160.6,4.48605,4.72139,-0.225489
161.2,4.50462,4.73345,-0.225491
161.8,4.52316,4.7436,-0.225506
162.4,4.54159,4.7512,-0.225773
163,4.56029,4.75867,-0.226857
163.6,4.57899,4.77397,-0.226813
164.2,4.5974,4.78033,-0.22681
164.8,4.61576,4.79775,-0.226811
165.4,4.63478,4.81309,-0.226838
166,4.65347,4.82686,-0.226454
166.6,4.67219,4.83224,-0.226487
167.2,4.69063,4.84294,-0.226615
167.8,4.70887,4.86567,-0.2268
168.4,4.72771,4.87042,-0.226798
169,4.74578,4.88584,-0.227421
169.6,4.76466,4.88663,-0.228149
170.2,4.7832,4.89336,-0.228133
170.8,4.80205,4.91462,-0.22813
171.4,4.82022,4.9282,-0.228127
172,4.83838,4.93614,-0.228109
172.6,4.85742,4.948,-0.229073
173.2,4.87573,4.96009,-0.229442
173.8,4.89418,4.97481,-0.229401
174.4,4.91256,4.98283,-0.230574
175,4.93085,4.99186,-0.230746
175.6,4.94929,5.00621,-0.230755
176.2,4.96757,5.02062,-0.230769
176.8,4.98589,5.02236,-0.229518
177.4,5.00444,5.04251,-0.229459
178,5.0226,5.04897,-0.229451
178.6,5.04076,5.06613,-0.22945
179.2,5.05947,5.06928,-0.22945
179.8,5.0779,5.06936,-0.229449
180.4,5.09514,5.08355,-0.22946
181,5.11432,5.08815,-0.22994
181.6,5.13242,5.10513,-0.230795
182.2,5.15086,5.11345,-0.230763
182.8,5.16905,5.11441,-0.23076
183.4,5.18671,5.13548,-0.23076
184,5.20503,5.14959,-0.23076
184.6,5.22278,5.16495,-0.23076
185.2,5.24206,5.17263,-0.230762
185.8,5.26002,5.18483,-0.230795
186.4,5.2782,5.19053,-0.232151
187,5.29625,5.19563,-0.232079
187.6,5.31453,5.20596,-0.232079
188.2,5.33282,5.21742,-0.23208
188.8,5.35053,5.22781,-0.23208
189.4,5.36888,5.24205,-0.23208
190,5.38706,5.24535,-0.23208
190.6,5.40528,5.24947,-0.23208
191.2,5.42323,5.26118,-0.232076
191.8,5.44121,5.26714,-0.232029
192.4,5.45976,5.27526,-0.233013
193,5.47741,5.2843,-0.233393
193.6,5.49575,5.30031,-0.2334
194.2,5.51365,5.30422,-0.233397
194.8,5.5316,5.30961,-0.233355
195.4,5.54972,5.33436,-0.234329
196,5.56757,5.33877,-0.23471
196.6,5.58575,5.34246,-0.23472
197.2,5.60357,5.36247,-0.234721
197.8,5.62197,5.37562,-0.234725
198.4,5.63957,5.37825,-0.234749
199,5.65768,5.38495,-0.233868
199.6,5.67597,5.38184,-0.234692
200.2,5.69376,5.39511,-0.234702
200.8,5.71162,5.40171,-0.234709
201.4,5.72951,5.4094,-0.234708
202,5.7473,5.42668,-0.234702
202.6,5.76526,5.42451,-0.235278
203.2,5.78328,5.4421,-0.236066
203.8,5.80138,5.4394,-0.236035
204.4,5.81952,5.43951,-0.236033
205,5.83721,5.4492,-0.235964
205.6,5.85504,5.46454,-0.237312
206.2,5.87317,5.46985,-0.238396
206.8,5.89075,5.47722,-0.238644
207.4,5.90884,5.48385,-0.238664
208,5.92684,5.48103,-0.239041
208.6,5.94484,5.49308,-0.240017
209.2,5.96247,5.50499,-0.239996
209.8,5.98048,5.51259,-0.239993
210.4,5.99828,5.51872,-0.239674
211,6.01637,5.52631,-0.238625
211.6,6.03408,5.52984,-0.238676
212.2,6.05206,5.54633,-0.238982
212.8,6.06936,5.53878,-0.240026
213.4,6.08778,5.55159,-0.239981
214,6.10561,5.56734,-0.240249
214.6,6.12347,5.57335,-0.241359
215.2,6.14135,5.57261,-0.241318
215.8,6.15929,5.57539,-0.241433
216.4,6.17708,5.58576,-0.242637
217,6.19499,5.58902,-0.242589
217.6,6.21314,5.59603,-0.242232
218.2,6.23091,5.60293,-0.24167
218.8,6.24832,5.60362,-0.241773
219.4,6.26633,5.60503,-0.243059
220,6.28388,5.61292,-0.242968
220.6,6.30194,5.61869,-0.244317
221.2,6.31968,5.6191,-0.244369
221.8,6.33749,5.62628,-0.244372
222.4,6.35557,5.63092,-0.244351
223,6.3732,5.63189,-0.245623
223.6,6.39095,5.63453,-0.245784
224.2,6.40875,5.64385,-0.245811
224.8,6.42693,5.65222,-0.245834
225.4,6.44393,5.65104,-0.247106
226,6.46179,5.65654,-0.247112
226.6,6.48001,5.65908,-0.24782
227.2,6.49781,5.663,-0.24842
227.8,6.51569,5.66745,-0.248709
228.4,6.53356,5.67914,-0.249803
229,6.55124,5.68543,-0.249814
229.6,6.56895,5.68693,-0.251272
230.2,6.5866,5.69131,-0.251177
230.8,6.60424,5.69765,-0.251967
231.4,6.62225,5.70037,-0.252519
232,6.64015,5.6975,-0.252679
232.6,6.65773,5.70041,-0.253847
233.2,6.675,5.70128,-0.253772
233.8,6.69296,5.7048,-0.254972
234.4,6.71033,5.70112,-0.255107
235,6.72792,5.7013,-0.255602
235.6,6.74634,5.70962,-0.25645
236.2,6.76403,5.70128,-0.256888
236.8,6.78183,5.6972,-0.2579
237.4,6.7996,5.69609,-0.258655
238,6.81746,5.69381,-0.259211
238.6,6.83501,5.69337,-0.260676
239.2,6.85245,5.68492,-0.261422
239.8,6.87052,5.68705,-0.262544
240.4,6.88809,5.68079,-0.264117
241,6.90593,5.66931,-0.263802
241.6,6.92356,5.6681,-0.264022
242.2,6.94122,5.65677,-0.264659
242.8,6.9592,5.64892,-0.265735
243.4,6.97628,5.63952,-0.266871
244,6.99428,5.63904,-0.26745
244.6,7.01209,5.63297,-0.269215
245.2,7.02939,5.62428,-0.270527
245.8,7.04729,5.62103,-0.271153
246.4,7.06485,5.62282,-0.27236
247,7.0822,5.62028,-0.273818
247.6,7.09979,5.63303,-0.274939
248.2,7.1181,5.66335,-0.27599
248.8,7.13609,5.72074,-0.277401
249.4,7.15396,5.82171,-0.278816
250,7.17218,5.92519,-0.280275
250.6,7.19016,6.02658,-0.281766
251.2,7.20822,6.16349,-0.283234
251.8,7.22618,6.2636,-0.284483
252.4,7.24394,6.30935,-0.285357
253,7.2617,6.31914,-0.286139
253.6,7.27922,6.29947,-0.28674
254.2,7.29702,6.2471,-0.288566
254.8,7.31421,6.20108,-0.290167
255.4,7.33231,6.18903,-0.291856
256,7.35002,6.18771,-0.292998
256.6,7.36659,6.17789,-0.293793
257.2,7.38459,6.17546,-0.295296
257.8,7.40216,6.16088,-0.297069
258.4,7.42063,6.15211,-0.299421
259,7.43787,6.12598,-0.300522
259.6,7.45566,6.07472,-0.302277
260.2,7.47259,6.02446,-0.303706
260.8,7.48976,5.96859,-0.305135
261.4,7.50744,5.89911,-0.306298
262,7.52561,5.8441,-0.308122
262.6,7.54299,5.80036,-0.309736
263.2,7.56065,5.75707,-0.310889
263.8,7.57801,5.7179,-0.311698
264.4,7.59494,5.68568,-0.313312
265,7.61328,5.65346,-0.315069
265.6,7.63081,5.63268,-0.317333
266.2,7.64804,5.59596,-0.31916
266.8,7.66571,5.57811,-0.320953
267.4,7.68336,5.55851,-0.321457
268,7.70086,5.53915,-0.32326
268.6,7.71888,5.51088,-0.325075
269.2,7.73648,5.49379,-0.326495
269.8,7.75383,5.47965,-0.327903
270.4,7.77142,5.47473,-0.329444
271,7.78904,5.46852,-0.331794
271.6,7.80675,5.45997,-0.334647
272.2,7.82445,5.45568,-0.336424
272.8,7.84199,5.44215,-0.337846
273.4,7.85949,5.43069,-0.339466
274,7.87696,5.42502,-0.341392
274.6,7.89488,5.40438,-0.343539
275.2,7.91219,5.39267,-0.345026
275.8,7.93017,5.37956,-0.346661
276.4,7.94688,5.37459,-0.348384
277,7.96498,5.36204,-0.350446
277.6,7.98282,5.34572,-0.352356
278.2,8.00037,5.33767,-0.354014
278.8,8.01806,5.31628,-0.355695
279.4,8.03549,5.30564,-0.357577
280,8.05334,5.2917,-0.359747
280.6,8.07076,5.27874,-0.361839
281.2,8.08864,5.25721,-0.363654
281.8,8.10602,5.23955,-0.365744
282.4,8.12375,5.21982,-0.367817
283,8.14097,5.19104,-0.369475
283.6,8.15908,5.16785,-0.371251
284.2,8.17648,5.14575,-0.37269
284.8,8.19389,5.12258,-0.374828
285.4,8.21156,5.09593,-0.37662
286,8.22914,5.06539,-0.378464
286.6,8.24672,5.03795,-0.3811
287.2,8.26437,5.00828,-0.383108
287.8,8.28186,4.96861,-0.385377
288.4,8.29932,4.93717,-0.387677
289,8.31704,4.90426,-0.389905
289.6,8.33466,4.86797,-0.39201
290.2,8.35218,4.83275,-0.393687
290.8,8.36943,4.78192,-0.394511
291.4,8.38698,4.73811,-0.396416
292,8.40473,4.69989,-0.398568
292.6,8.42209,4.65317,-0.400813
293.2,8.43972,4.60227,-0.402952
293.8,8.45731,4.54056,-0.404733
294.4,8.47492,4.49042,-0.406734
295,8.49237,4.43346,-0.409525
295.6,8.50951,4.37976,-0.411376
296.2,8.52749,4.31171,-0.414318
296.8,8.54458,4.25,-0.416388
297.4,8.56208,4.19393,-0.418048
298,8.57956,4.12937,-0.419701
298.6,8.59708,4.06705,-0.422025
299.2,8.6148,3.99515,-0.424908
299.8,8.63205,3.9274,-0.427927
300.4,8.64931,3.85259,-0.430388
301,8.66704,3.77516,-0.432193
301.6,8.68433,3.70364,-0.434813
302.2,8.70175,3.62475,-0.437505
302.8,8.71891,3.53697,-0.44041
303.4,8.73655,3.43518,-0.443438
304,8.75393,3.32927,-0.445699
304.6,8.77114,3.21552,-0.44796
305.2,8.78859,3.10477,-0.449862
305.8,8.80568,2.96428,-0.452333
306.4,8.82291,2.81358,-0.455547
307,8.84,2.65531,-0.457254
307.6,8.85719,2.47794,-0.461133
308.2,8.87423,2.27304,-0.464294
308.8,8.89104,2.06485,-0.466482
309.4,8.90805,1.83173,-0.470372
310,8.92482,1.58229,-0.474143
310.6,8.94155,1.31063,-0.479157
311.2,8.95775,1.03075,-0.483081
311.8,8.9745,0.716775,-0.487831
312.4,8.9916,0.37208,-0.491882
313,9.00794,0.00485145,-0.497148
313.6,9.02428,-0.385332,-0.504028
314.2,9.03989,-0.783565,-0.50984
314.8,9.05665,-1.23652,-0.51796
315.4,9.07268,-1.69188,-0.523882
316,9.08895,-2.17519,-0.532228
316.6,9.10498,-2.65953,-0.541306
317.2,9.12132,-3.12632,-0.551461
317.8,9.13738,-3.53169,-0.565403
318.4,9.15376,-3.87006,-0.577378
319,9.17077,-4.11107,-0.594995
319.6,9.18777,-4.24791,-0.612647
320.2,9.20544,-4.2577,-0.634148
320.8,9.22326,-4.15963,-0.659786
321.4,9.24125,-3.96782,-0.683405
322,9.25984,-3.69477,-0.716387
322.6,9.27837,-3.36376,-0.743918
323.2,9.29699,-3.00491,-0.779422
323.8,9.31586,-2.63373,-0.807706
324.4,9.3347,-2.24328,-0.84333
325,9.35346,-1.86582,-0.870572
325.6,9.37214,-1.51465,-0.903007
326.2,9.39104,-1.1858,-0.930141
326.8,9.40971,-0.874069,-0.960261
327.4,9.42811,-0.597698,-0.986352
328,9.4468,-0.340261,-1.01279
328.6,9.4652,-0.108154,-1.03846
329.2,9.48372,0.109052,-1.06246
329.8,9.50206,0.290849,-1.08689
330.4,9.52053,0.459679,-1.10797
331,9.539,0.614516,-1.13326
331.6,9.55721,0.755268,-1.15249
332.2,9.57519,0.889832,-1.17551
332.8,9.59347,1.01575,-1.19256
333.4,9.61193,1.13637,-1.21333
334,9.62989,1.25745,-1.22989
334.6,9.64859,1.37886,-1.24883
335.2,9.66659,1.51686,-1.26534
335.8,9.68488,1.65274,-1.28222
336.4,9.70321,1.80941,-1.29848
337,9.72128,1.96575,-1.31165
337.6,9.73997,2.13853,-1.32649
338.2,9.75848,2.31852,-1.33662
338.8,9.77696,2.49173,-1.34858
339.4,9.7954,2.67082,-1.35771
340,9.8141,2.85433,-1.36743
340.6,9.83252,3.02106,-1.37435
341.2,9.851,3.18498,-1.38164
341.8,9.86954,3.34657,-1.38761
342.4,9.88787,3.4932,-1.39383
343,9.90562,3.62564,-1.39944
343.6,9.92404,3.74409,-1.40377
344.2,9.94252,3.85936,-1.40758
344.8,9.96068,3.95728,-1.41116
345.4,9.97902,4.04609,-1.41438
346,9.99723,4.12452,-1.41796
346.6,10.0161,4.18836,-1.42176
347.2,10.0342,4.24831,-1.42519
347.8,10.0523,4.30502,-1.4273
348.4,10.0706,4.34585,-1.42822
349,10.0887,4.3771,-1.42963
349.6,10.1066,4.40776,-1.43093
350.2,10.1242,4.43333,-1.43268
350.8,10.1422,4.43441,-1.43523
351.4,10.1605,4.45131,-1.43865
352,10.179,4.46401,-1.44099
352.6,10.1971,4.46184,-1.44347
353.2,10.2151,4.46296,-1.44525
353.8,10.2332,4.46951,-1.44625
354.4,10.2515,4.46848,-1.44688
355,10.2693,4.46236,-1.44804
355.6,10.2872,4.45493,-1.44987
356.2,10.3055,4.45063,-1.45167
356.8,10.3233,4.43565,-1.45322
357.4,10.3414,4.43178,-1.45479
358,10.3592,4.42796,-1.4564
358.6,10.3776,4.42047,-1.4585
359.2,10.3957,4.41132,-1.45983
359.8,10.4134,4.40014,-1.46142
360.4,10.4315,4.38667,-1.46282
361,10.4496,4.38417,-1.4641
361.6,10.4673,4.37485,-1.46516
362.2,10.4859,4.36455,-1.46647
362.8,10.5036,4.35492,-1.46786
363.4,10.5218,4.34874,-1.46965
364,10.5399,4.33843,-1.47211
364.6,10.5575,4.32674,-1.47439
365.2,10.576,4.32305,-1.47633
365.8,10.5943,4.31409,-1.47799
366.4,10.6122,4.30731,-1.4798
367,10.6303,4.29704,-1.48157
367.6,10.6487,4.29076,-1.48308
368.2,10.6667,4.29192,-1.48473
368.8,10.6847,4.29723,-1.48641
369.4,10.7029,4.28625,-1.48813
370,10.7208,4.28172,-1.48985
370.6,10.7391,4.284,-1.49014
371.2,10.7573,4.27876,-1.49183
371.8,10.7752,4.27598,-1.49303
372.4,10.7936,4.27551,-1.49478
373,10.8117,4.27803,-1.49649
373.6,10.8298,4.27463,-1.4983
374.2,10.8484,4.27821,-1.50012
374.8,10.8663,4.27985,-1.5019
375.4,10.8842,4.28293,-1.5049
376,10.9029,4.28323,-1.50701
376.6,10.9208,4.28264,-1.50824
377.2,10.9387,4.28615,-1.51016
377.8,10.9569,4.29104,-1.51233
378.4,10.9753,4.29538,-1.51339
379,10.9931,4.29932,-1.51541
379.6,11.0121,4.30737,-1.51759
380.2,11.0296,4.32093,-1.51915
380.8,11.0485,4.33202,-1.52052
381.4,11.0665,4.34363,-1.52226
382,11.0847,4.35889,-1.52478
382.6,11.1031,4.37745,-1.52782
383.2,11.1215,4.39792,-1.52992
383.8,11.1396,4.40652,-1.5317
384.4,11.1583,4.43094,-1.5334
385,11.1764,4.4487,-1.53575
385.6,11.1948,4.46967,-1.53888
386.2,11.2131,4.4833,-1.54094
386.8,11.2314,4.50945,-1.54235
387.4,11.2498,4.53028,-1.5452
388,11.2679,4.56046,-1.54707
388.6,11.2864,4.60443,-1.54948
389.2,11.3051,4.63685,-1.552
389.8,11.3231,4.66465,-1.55396
390.4,11.3418,4.69328,-1.55632
391,11.36,4.72619,-1.5592
391.6,11.3785,4.75865,-1.56229
392.2,11.3968,4.78743,-1.56556
392.8,11.4154,4.82225,-1.56836
393.4,11.4338,4.86228,-1.57072
394,11.4522,4.90039,-1.5727
394.6,11.4705,4.93662,-1.5758
395.2,11.489,4.9645,-1.57962
395.8,11.5073,4.99675,-1.58238
396.4,11.5257,5.03256,-1.58525
397,11.5443,5.07186,-1.58796
397.6,11.5626,5.09825,-1.59058
398.2,11.5812,5.12471,-1.59368
398.8,11.5995,5.15219,-1.59718
399.4,11.6181,5.18002,-1.60089
400,11.6358,5.19977,-1.60428
400.6,11.6548,5.23697,-1.60648
401.2,11.6732,5.24545,-1.6092
401.8,11.6919,5.27154,-1.61295
402.4,11.71,5.29341,-1.61582
403,11.7283,5.30925,-1.61834
403.6,11.7468,5.31852,-1.62088
404.2,11.7653,5.32943,-1.62408
404.8,11.7837,5.33607,-1.62747
405.4,11.8021,5.35219,-1.63004
406,11.8205,5.35136,-1.63276
406.6,11.8389,5.36088,-1.63572
407.2,11.8574,5.36374,-1.63816
407.8,11.8757,5.36801,-1.64091
408.4,11.8941,5.36741,-1.64391
409,11.9124,5.35841,-1.64684
409.6,11.9311,5.34971,-1.64966
410.2,11.9492,5.34506,-1.65203
410.8,11.9676,5.34064,-1.65523
411.4,11.9861,5.32891,-1.65822
412,12.0044,5.31536,-1.66023
412.6,12.0225,5.30677,-1.66269
413.2,12.0412,5.29141,-1.6659
413.8,12.0593,5.28506,-1.66848
414.4,12.0781,5.27937,-1.67024
415,12.0963,5.26253,-1.67276
415.6,12.1145,5.24654,-1.67508
416.2,12.133,5.22854,-1.67742
416.8,12.1514,5.21627,-1.67893
417.4,12.1698,5.19811,-1.6818
418,12.1881,5.18078,-1.6851
418.6,12.2068,5.15177,-1.68766
419.2,12.225,5.14031,-1.69039
419.8,12.2434,5.11557,-1.69398
420.4,12.2617,5.0869,-1.697
421,12.2802,5.07046,-1.69957
421.6,12.2982,5.03807,-1.70156
422.2,12.3162,5.00599,-1.70402
422.8,12.3347,4.98603,-1.70684
423.4,12.3535,4.9569,-1.7092
424,12.3719,4.93214,-1.71214
424.6,12.3896,4.90355,-1.71495
425.2,12.4087,4.87381,-1.71771
425.8,12.427,4.85519,-1.72077
426.4,12.4457,4.82231,-1.72395
427,12.4641,4.7992,-1.72676
427.6,12.4826,4.77495,-1.72793
428.2,12.5007,4.74533,-1.73007
428.8,12.5189,4.71497,-1.73285
429.4,12.5378,4.69022,-1.73585
430,12.5562,4.6717,-1.73816
430.6,12.5747,4.64737,-1.74073
431.2,12.5932,4.61736,-1.74447
431.8,12.6117,4.60873,-1.74808
432.4,12.6298,4.58417,-1.75151
433,12.6486,4.56362,-1.75463
433.6,12.6668,4.54221,-1.7579
434.2,12.6855,4.52097,-1.76092
434.8,12.7042,4.50218,-1.7637
435.4,12.7223,4.4894,-1.76705
436,12.7409,4.47706,-1.7702
436.6,12.7595,4.45979,-1.77285
437.2,12.778,4.44472,-1.77428
437.8,12.7965,4.43427,-1.77706
438.4,12.8151,4.43234,-1.77987
439,12.8339,4.41801,-1.78282
439.6,12.8521,4.4054,-1.78543
440.2,12.8705,4.3976,-1.78904
440.8,12.8888,4.38343,-1.79273
441.4,12.908,4.37424,-1.79524
442,12.9264,4.37161,-1.7977
442.6,12.9452,4.36661,-1.80087
443.2,12.9635,4.36171,-1.80404
443.8,12.9823,4.35719,-1.80721
444.4,13.0007,4.35027,-1.80984
445,13.0192,4.34255,-1.81284
445.6,13.0378,4.33594,-1.81622
446.2,13.0565,4.33117,-1.81813
446.8,13.0753,4.32718,-1.82088
447.4,13.0936,4.33127,-1.82424
448,13.1126,4.33288,-1.82717
448.6,13.1311,4.32226,-1.82962
449.2,13.1498,4.32272,-1.83145
449.8,13.1685,4.31789,-1.83335
450.4,13.1869,4.31939,-1.83583
451,13.2057,4.3082,-1.83887
451.6,13.2243,4.31483,-1.84127
452.2,13.2429,4.31261,-1.84287
452.8,13.2617,4.31505,-1.84537
453.4,13.2804,4.31223,-1.84799
454,13.2987,4.30446,-1.85041
454.6,13.3176,4.30876,-1.85287
455.2,13.3362,4.30516,-1.85465
455.8,13.3549,4.30261,-1.85728
456.4,13.3739,4.30033,-1.86041
457,13.3925,4.28986,-1.86312
457.6,13.4112,4.29173,-1.86542
458.2,13.43,4.28604,-1.86869
458.8,13.4487,4.28457,-1.87083
459.4,13.4673,4.28472,-1.87298
460,13.4861,4.28156,-1.87463
460.6,13.5047,4.28319,-1.87676
461.2,13.5234,4.27926,-1.87923
461.8,13.5421,4.27057,-1.88178
462.4,13.5607,4.26782,-1.88271
463,13.5796,4.26556,-1.88429
463.6,13.5981,4.2521,-1.88608
464.2,13.6171,4.25034,-1.8887
464.8,13.6349,4.24778,-1.89111
465.4,13.6546,4.24929,-1.8939
466,13.6732,4.2434,-1.89576
466.6,13.692,4.24183,-1.8977
467.2,13.7107,4.23659,-1.89955
467.8,13.7291,4.22831,-1.90177
468.4,13.748,4.22255,-1.90389
469,13.7663,4.22105,-1.90626
469.6,13.7859,4.21289,-1.90916
470.2,13.8042,4.20516,-1.91094
470.8,13.8232,4.20497,-1.91313
471.4,13.842,4.20029,-1.91489
472,13.8606,4.19563,-1.91731
472.6,13.8793,4.18979,-1.92015
473.2,13.8979,4.18962,-1.92205
473.8,13.9173,4.18381,-1.92337
474.4,13.9357,4.1823,-1.92528
475,13.9545,4.18421,-1.9275
475.6,13.9731,4.18508,-1.93079
476.2,13.9919,4.18465,-1.93258
476.8,14.0107,4.19134,-1.93406
477.4,14.0296,4.18238,-1.93457
478,14.0483,4.18028,-1.93634
478.6,14.067,4.17854,-1.93818
479.2,14.0859,4.17838,-1.94079
479.8,14.1047,4.1819,-1.94335
480.4,14.1236,4.17632,-1.94517
481,14.1422,4.17785,-1.94634
481.6,14.1612,4.17927,-1.94821
482.2,14.1801,4.17627,-1.94907
482.8,14.199,4.18006,-1.95156
483.4,14.2178,4.17892,-1.95382
484,14.2364,4.18298,-1.95567
484.6,14.2552,4.18208,-1.95746
485.2,14.2742,4.18087,-1.9602
485.8,14.2931,4.1781,-1.96236
486.4,14.3119,4.18884,-1.96439
487,14.3308,4.19473,-1.9657
487.6,14.3497,4.18817,-1.96754
488.2,14.3685,4.18883,-1.96961
488.8,14.3875,4.18935,-1.97095
489.4,14.4062,4.19512,-1.97179
490,14.425,4.19935,-1.97361
490.6,14.444,4.19968,-1.97531
491.2,14.4628,4.19738,-1.97702
491.8,14.4816,4.19546,-1.97882
492.4,14.5005,4.19593,-1.98023
493,14.5195,4.2025,-1.9819
493.6,14.5384,4.21173,-1.9836
494.2,14.5569,4.20823,-1.98537
494.8,14.5761,4.21051,-1.98683
495.4,14.595,4.20816,-1.98862
496,14.6137,4.20527,-1.99028
496.6,14.633,4.21553,-1.99219
497.2,14.6518,4.2165,-1.99423
497.8,14.6708,4.2242,-1.99616
498.4,14.6895,4.22292,-1.99805
499,14.7086,4.22534,-1.99997
499.6,14.7275,4.23,-2.00171
500.2,14.7465,4.23899,-2.00344
500.8,14.7655,4.23105,-2.00551
501.4,14.7844,4.23867,-2.00725
502,14.8028,4.24083,-2.00839
502.6,14.822,4.24523,-2.00953
503.2,14.8411,4.23419,-2.01095
503.8,14.8602,4.24156,-2.01235
504.4,14.8789,4.24206,-2.01367
505,14.8978,4.24847,-2.01545
505.6,14.9165,4.25324,-2.01726
506.2,14.9356,4.25191,-2.01916
506.8,14.9542,4.25753,-2.02086
507.4,14.9737,4.25553,-2.02239
508,14.9927,4.26122,-2.0238
508.6,15.0115,4.26648,-2.02482
509.2,15.0307,4.26869,-2.02609
509.8,15.0495,4.27019,-2.02744
510.4,15.0686,4.27146,-2.0271
511,15.0873,4.2671,-2.02825
511.6,15.1061,4.26987,-2.03007
512.2,15.1249,4.28074,-2.03197
512.8,15.1438,4.28666,-2.03357
513.4,15.1631,4.29135,-2.03538
514,15.1827,4.2914,-2.03678
514.6,15.2016,4.29046,-2.03758
515.2,15.2209,4.296,-2.03866
515.8,15.2396,4.30018,-2.04078
516.4,15.2584,4.29917,-2.04272
517,15.2778,4.30068,-2.04479
517.6,15.2968,4.30657,-2.04607
518.2,15.3157,4.31655,-2.04683
518.8,15.3346,4.3209,-2.04814
519.4,15.3537,4.3203,-2.04823
520,15.3727,4.32087,-2.04967
520.6,15.392,4.32272,-2.05105
521.2,15.4105,4.31602,-2.05309
521.8,15.4299,4.3249,-2.05539
522.4,15.4494,4.33634,-2.05683
523,15.468,4.33569,-2.05797
523.6,15.4871,4.34513,-2.05956
524.2,15.5063,4.34883,-2.06159
524.8,15.5251,4.35072,-2.06313
525.4,15.5444,4.35308,-2.0634
526,15.5632,4.35843,-2.06475
526.6,15.5822,4.36305,-2.06619
527.2,15.6011,4.36325,-2.06807
527.8,15.6205,4.36353,-2.07005
528.4,15.6396,4.36625,-2.07112
529,15.6588,4.36392,-2.07218
529.6,15.6781,4.37373,-2.07402
530.2,15.6969,4.37583,-2.07582
530.8,15.716,4.37452,-2.07721
531.4,15.7349,4.37576,-2.07853
532,15.7541,4.38311,-2.07916
532.6,15.7733,4.38292,-2.08087
533.2,15.7922,4.38432,-2.08241
533.8,15.8115,4.38879,-2.08382
534.4,15.8306,4.3945,-2.08411
535,15.8498,4.39993,-2.08539
535.6,15.8688,4.39808,-2.08699
536.2,15.8879,4.4016,-2.08832
536.8,15.907,4.39564,-2.08958
537.4,15.9258,4.39878,-2.09142
538,15.9453,4.39999,-2.09324
538.6,15.9644,4.3966,-2.09454
539.2,15.9833,4.39145,-2.09588
539.8,16.0026,4.40201,-2.09742
540.4,16.0215,4.39391,-2.09894
541,16.0409,4.39513,-2.10067
541.6,16.0599,4.39748,-2.10193
542.2,16.0793,4.3968,-2.10337
542.8,16.0983,4.38724,-2.10459
543.4,16.1174,4.38154,-2.10633
544,16.1366,4.37309,-2.10828
544.6,16.1557,4.38414,-2.1094
545.2,16.1747,4.37984,-2.11019
545.8,16.194,4.37749,-2.11175
546.4,16.213,4.37187,-2.11349
547,16.232,4.36327,-2.11405
547.6,16.2512,4.35554,-2.11488
548.2,16.2705,4.35638,-2.1163
548.8,16.2896,4.34666,-2.118
549.4,16.3087,4.33829,-2.12011
550,16.328,4.34152,-2.12226
550.6,16.3471,4.33624,-2.12415
551.2,16.3665,4.32419,-2.12584
551.8,16.3858,4.31451,-2.12655
552.4,16.4049,4.31292,-2.12785
553,16.4241,4.30001,-2.12827
553.6,16.4431,4.29433,-2.12917
554.2,16.4623,4.28278,-2.13063
554.8,16.4817,4.27287,-2.1325
555.4,16.5008,4.2645,-2.13335
556,16.5198,4.25308,-2.13508
556.6,16.5392,4.24512,-2.136
557.2,16.5584,4.23035,-2.13786
557.8,16.5775,4.22502,-2.14039
558.4,16.5966,4.21275,-2.1422
559,16.6159,4.19493,-2.14324
559.6,16.6352,4.19013,-2.14371
560.2,16.6545,4.18204,-2.14516
560.8,16.6738,4.16684,-2.14656
561.4,16.6928,4.16266,-2.14747
562,16.712,4.15203,-2.14881
562.6,16.7308,4.14184,-2.1497
563.2,16.7505,4.13295,-2.15106
563.8,16.7692,4.11637,-2.15156
564.4,16.7891,4.10082,-2.15247
565,16.8084,4.08923,-2.15399
565.6,16.8275,4.07545,-2.15587
566.2,16.8467,4.06122,-2.15693
566.8,16.866,4.05152,-2.15734
567.4,16.885,4.04312,-2.15856
568,16.904,4.03637,-2.15876
568.6,16.9236,4.02521,-2.16037
569.2,16.9429,4.01419,-2.16216
569.8,16.9622,3.99261,-2.1638
570.4,16.9813,3.99465,-2.16466
571,17.0004,3.97639,-2.16572
571.6,17.0194,3.96753,-2.16713
572.2,17.0392,3.95787,-2.16798
572.8,17.0584,3.9446,-2.16885
573.4,17.0773,3.933,-2.17034
574,17.0969,3.92596,-2.17067
574.6,17.116,3.91339,-2.17172
575.2,17.1354,3.90028,-2.17333
575.8,17.1546,3.88208,-2.17395
576.4,17.1738,3.87306,-2.17495
577,17.1931,3.86707,-2.17652
577.6,17.2123,3.85365,-2.17818
578.2,17.2317,3.84683,-2.18008
578.8,17.251,3.83867,-2.18093
579.4,17.2703,3.83901,-2.18207
580,17.2893,3.81614,-2.18219
580.6,17.3087,3.81387,-2.18373
581.2,17.328,3.8031,-2.1845
581.8,17.3474,3.79452,-2.18505
582.4,17.3669,3.77752,-2.18546
583,17.3861,3.77637,-2.18618
583.6,17.4054,3.7693,-2.18746
584.2,17.425,3.7593,-2.18874
584.8,17.4443,3.74936,-2.19015
585.4,17.4635,3.75054,-2.1904
586,17.4827,3.73813,-2.19181
586.6,17.5021,3.73283,-2.19236
587.2,17.5215,3.72231,-2.19326
587.8,17.5407,3.71935,-2.19474
588.4,17.5601,3.70895,-2.19487
589,17.5794,3.70099,-2.19551
589.6,17.5987,3.69943,-2.19613
590.2,17.6182,3.69934,-2.19746
590.8,17.6376,3.68012,-2.19823
591.4,17.6569,3.67125,-2.1995
592,17.6762,3.65798,-2.20103
592.6,17.6955,3.65569,-2.20166
593.2,17.7147,3.65387,-2.20281
593.8,17.7346,3.6494,-2.20299
594.4,17.7538,3.6405,-2.20428
595,17.773,3.63165,-2.20485
595.6,17.7925,3.62908,-2.20565
596.2,17.8117,3.62026,-2.20659
596.8,17.8308,3.61812,-2.20695
597.4,17.8508,3.60707,-2.20848
598,17.87,3.61229,-2.20937
598.6,17.8897,3.59829,-2.21004
599.2,17.9087,3.59368,-2.21129
599.8,17.9283,3.59651,-2.21145
600.4,17.9478,3.58588,-2.21137
601,17.9673,3.57748,-2.21148
601.6,17.9863,3.58369,-2.21299
602.2,18.0058,3.57832,-2.21327
602.8,18.0254,3.57879,-2.21444
603.4,18.0449,3.57462,-2.21464
604,18.0645,3.57488,-2.21578
604.6,18.084,3.55651,-2.21708
605.2,18.1035,3.56458,-2.21939
605.8,18.1232,3.55162,-2.22009
606.4,18.1423,3.54292,-2.22125
607,18.1622,3.54711,-2.22144
607.6,18.1815,3.55211,-2.22246
608.2,18.2013,3.54456,-2.22318
608.8,18.2211,3.54921,-2.22451
609.4,18.2401,3.54369,-2.22574
610,18.2598,3.55056,-2.22497
610.6,18.2797,3.54982,-2.22618
611.2,18.2994,3.54499,-2.22619
611.8,18.3189,3.54388,-2.22637
612.4,18.3388,3.54922,-2.22749
613,18.3583,3.53947,-2.228
613.6,18.3781,3.53874,-2.22879
614.2,18.3978,3.53476,-2.22936
614.8,18.4173,3.53589,-2.23018
615.4,18.4371,3.53853,-2.23165
616,18.4568,3.53805,-2.23192
616.6,18.4765,3.53508,-2.23245
617.2,18.496,3.53946,-2.23304
617.8,18.5155,3.53319,-2.23353
618.4,18.5355,3.53427,-2.23379
619,18.5551,3.5339,-2.23487
619.6,18.5747,3.5354,-2.23487
620.2,18.5946,3.53821,-2.23566
620.8,18.6141,3.53503,-2.23629
621.4,18.6342,3.52872,-2.2375
622,18.6535,3.52879,-2.23768
622.6,18.6733,3.52713,-2.23876
623.2,18.6929,3.53132,-2.23895
623.8,18.7127,3.52647,-2.24025
624.4,18.7324,3.52646,-2.24074
625,18.7524,3.51951,-2.24195
625.6,18.7719,3.52061,-2.24333
626.2,18.7914,3.52327,-2.24366
626.8,18.8111,3.52394,-2.24489
627.4,18.831,3.52821,-2.24566
628,18.8507,3.52893,-2.24614
628.6,18.8704,3.52373,-2.24618
629.2,18.8902,3.52391,-2.24654
629.8,18.9101,3.52266,-2.24648
630.4,18.9294,3.527,-2.24757
631,18.9493,3.53013,-2.24814
631.6,18.9689,3.52563,-2.24955
632.2,18.9885,3.52914,-2.24954
632.8,19.0085,3.52702,-2.25092
633.4,19.0283,3.52988,-2.25088
634,19.0481,3.53389,-2.25227
634.6,19.0678,3.53736,-2.25224
635.2,19.0875,3.52916,-2.25375
635.8,19.107,3.52689,-2.25489
636.4,19.1263,3.53306,-2.25527
637,19.1464,3.52084,-2.25658
637.6,19.1666,3.52875,-2.25658
638.2,19.186,3.53234,-2.25656
638.8,19.206,3.53745,-2.2579
639.4,19.2249,3.53653,-2.2579
640,19.2453,3.53382,-2.25787
640.6,19.2648,3.53342,-2.25917
641.2,19.2843,3.53527,-2.25967
641.8,19.3044,3.52931,-2.2607
642.4,19.3241,3.52637,-2.26229
643,19.3437,3.52634,-2.26301
643.6,19.3635,3.5338,-2.26374
644.2,19.3831,3.51913,-2.26411
644.8,19.4031,3.52078,-2.26507
645.4,19.4229,3.51424,-2.26504
646,19.4421,3.52849,-2.266
646.6,19.462,3.52701,-2.26596
647.2,19.4815,3.52259,-2.26694
647.8,19.5008,3.52478,-2.26742
648.4,19.5212,3.51202,-2.26835
649,19.5409,3.51707,-2.26782
649.6,19.5606,3.51639,-2.2676
650.2,19.5801,3.51941,-2.26899
650.8,19.5993,3.51959,-2.26901
651.4,19.6198,3.51386,-2.2703
652,19.6396,3.52004,-2.27165
652.6,19.659,3.51898,-2.27246
653.2,19.6787,3.52355,-2.27324
653.8,19.6984,3.51832,-2.27327
654.4,19.7181,3.51393,-2.27376
655,19.7379,3.518,-2.27456
655.6,19.7574,3.52231,-2.27456
656.2,19.7772,3.52678,-2.27565
656.8,19.7968,3.52107,-2.27604
657.4,19.816,3.51548,-2.27755
658,19.8365,3.5181,-2.27822
658.6,19.856,3.52157,-2.27887
659.2,19.8754,3.52083,-2.27887
659.8,19.8955,3.51787,-2.27912
660.4,19.9149,3.51693,-2.28014
661,19.9347,3.51351,-2.27993
661.6,19.9547,3.50898,-2.28062
662.2,19.9743,3.50791,-2.28178
662.8,19.994,3.51188,-2.28193
663.4,20.0135,3.51118,-2.28209
664,20.0332,3.51157,-2.28332
664.6,20.0532,3.51325,-2.28363
665.2,20.0725,3.51118,-2.28484
665.8,20.0923,3.50725,-2.28589
666.4,20.112,3.51383,-2.28631
667,20.1317,3.51137,-2.28635
667.6,20.1515,3.50808,-2.2868
668.2,20.1709,3.51416,-2.28703
668.8,20.1907,3.51209,-2.2872
669.4,20.2104,3.517,-2.2878
670,20.2299,3.51616,-2.28882
670.6,20.2498,3.50868,-2.28917
671.2,20.2693,3.5064,-2.28918
671.8,20.2893,3.51504,-2.28913
672.4,20.3085,3.5181,-2.29047
673,20.3285,3.51341,-2.29071
673.6,20.3482,3.51336,-2.29156
674.2,20.3676,3.51067,-2.29218
674.8,20.3875,3.50999,-2.2935
675.4,20.4069,3.51444,-2.29347
676,20.4268,3.51221,-2.29347
676.6,20.4464,3.50727,-2.2949
677.2,20.4654,3.50991,-2.29484
677.8,20.4858,3.51039,-2.29644
678.4,20.5048,3.50694,-2.29694
679,20.5245,3.50616,-2.29799
679.6,20.5444,3.50511,-2.2979
680.2,20.564,3.50775,-2.29927
680.8,20.5841,3.50914,-2.29931
681.4,20.6037,3.51149,-2.30001
682,20.6238,3.51117,-2.30073
682.6,20.6429,3.51143,-2.30182
683.2,20.6628,3.50797,-2.30213
683.8,20.6826,3.50625,-2.30249
684.4,20.7017,3.50383,-2.3035
685,20.7214,3.50277,-2.30337
685.6,20.7412,3.50755,-2.30471
686.2,20.7607,3.50359,-2.30484
686.8,20.7806,3.50451,-2.30618
687.4,20.8006,3.50507,-2.30615
688,20.8205,3.49895,-2.30618
688.6,20.8401,3.49619,-2.30602
689.2,20.86,3.50208,-2.30733
689.8,20.8787,3.50122,-2.30752
690.4,20.899,3.49738,-2.30763
691,20.9187,3.49205,-2.30888
691.6,20.9386,3.49738,-2.3088
692.2,20.9583,3.49977,-2.30997
692.8,20.978,3.50475,-2.31015
693.4,20.9969,3.50128,-2.31133
694,21.0176,3.49804,-2.31042
694.6,21.0372,3.49366,-2.31179
695.2,21.0569,3.49673,-2.31295
695.8,21.0769,3.49027,-2.31337
696.4,21.0963,3.48731,-2.31465
697,21.1158,3.4818,-2.31465
697.6,21.1352,3.48624,-2.31465
698.2,21.1555,3.49321,-2.31492
698.8,21.1752,3.49405,-2.31601
699.4,21.1947,3.49084,-2.31699
700,21.2144,3.4878,-2.31756
700.6,21.2341,3.48753,-2.31856
701.2,21.254,3.48254,-2.31761
701.8,21.2738,3.48703,-2.31778
702.4,21.2934,3.48742,-2.319
703,21.313,3.49267,-2.31931
703.6,21.333,3.49076,-2.32041
704.2,21.3526,3.48433,-2.32047
704.8,21.3723,3.4751,-2.32175
705.4,21.3924,3.47993,-2.32159
706,21.4119,3.47727,-2.32294
706.6,21.4316,3.47317,-2.32301
707.2,21.4514,3.46944,-2.32324
707.8,21.4711,3.46573,-2.3246
708.4,21.4912,3.45779,-2.32541
709,21.5107,3.45217,-2.32585
709.6,21.5306,3.45166,-2.32723
710.2,21.5501,3.44728,-2.32738
710.8,21.5702,3.43898,-2.32811
711.4,21.5899,3.4315,-2.32737
712,21.6096,3.42031,-2.32738
712.6,21.6293,3.41501,-2.32733
713.2,21.6493,3.41238,-2.32862
713.8,21.669,3.41041,-2.32906
714.4,21.6888,3.41136,-2.33061
715,21.7084,3.40604,-2.33221
715.6,21.7282,3.39606,-2.33224
716.2,21.7479,3.39732,-2.33355
716.8,21.7678,3.38224,-2.33354
717.4,21.7876,3.38002,-2.33398
718,21.8073,3.375,-2.33485
718.6,21.8273,3.36475,-2.33527
719.2,21.8466,3.36146,-2.33626
719.8,21.8668,3.35879,-2.33595
720.4,21.8866,3.3416,-2.33638
721,21.9062,3.33956,-2.33703
721.6,21.926,3.33374,-2.33783
722.2,21.9458,3.32471,-2.33844
722.8,21.9656,3.30993,-2.33915
723.4,21.9857,3.31569,-2.33941
724,22.0054,3.31255,-2.34071
724.6,22.025,3.29772,-2.34121
725.2,22.0449,3.29528,-2.34224
725.8,22.0645,3.28006,-2.34271
726.4,22.0846,3.27525,-2.34366
727,22.1044,3.2662,-2.34364
727.6,22.1238,3.26392,-2.34364
728.2,22.1439,3.25489,-2.34486
728.8,22.1637,3.24362,-2.34371
729.4,22.1839,3.23493,-2.34381
730,22.2034,3.22296,-2.34501
730.6,22.2234,3.21989,-2.34496
731.2,22.2431,3.21447,-2.34503
731.8,22.2629,3.20193,-2.34482
732.4,22.2826,3.19302,-2.34508
733,22.3026,3.19181,-2.34566
733.6,22.3226,3.18051,-2.3464
734.2,22.342,3.17205,-2.34814
734.8,22.3623,3.16669,-2.34938
735.4,22.3817,3.15773,-2.3498
736,22.4017,3.14407,-2.35263
736.6,22.4218,3.1309,-2.35259
737.2,22.4416,3.12808,-2.35371
737.8,22.4615,3.12117,-2.35395
738.4,22.4809,3.10768,-2.35334
739,22.5011,3.11402,-2.35267
739.6,22.521,3.09657,-2.35256
740.2,22.5408,3.09361,-2.35387
740.8,22.5606,3.0855,-2.35383
741.4,22.5805,3.06927,-2.35418
742,22.6006,3.05421,-2.35432
742.6,22.62,3.04122,-2.35561
743.2,22.6398,3.03005,-2.35576
743.8,22.6598,3.02004,-2.35713
744.4,22.6797,2.9966,-2.35706
745,22.6997,2.97985,-2.3587
745.6,22.7195,2.96901,-2.3586
746.2,22.7393,2.95308,-2.35999
746.8,22.7594,2.94039,-2.3599
747.4,22.7792,2.93153,-2.36
748,22.7991,2.90768,-2.3615
748.6,22.819,2.8974,-2.36145
749.2,22.8389,2.88656,-2.36283
749.8,22.8587,2.86021,-2.36276
750.4,22.8787,2.85338,-2.36249
751,22.8985,2.84978,-2.36378
751.6,22.9182,2.82648,-2.3638
752.2,22.9385,2.81683,-2.36373
752.8,22.9581,2.81234,-2.36423
753.4,22.978,2.79459,-2.3651
754,22.9979,2.7709,-2.36639
754.6,23.018,2.74152,-2.36675
755.2,23.038,2.72503,-2.36804
755.8,23.0576,2.71784,-2.36799
756.4,23.0775,2.70431,-2.36909
757,23.0976,2.69886,-2.36944
757.6,23.1177,2.6766,-2.37082
758.2,23.1374,2.66533,-2.37076
758.8,23.1573,2.65154,-2.37074
759.4,23.177,2.64195,-2.3718
760,23.1967,2.62751,-2.3722
760.6,23.2168,2.60752,-2.37372
761.2,23.2371,2.59852,-2.37477
761.8,23.2569,2.5855,-2.37515
762.4,23.277,2.57034,-2.37588
763,23.2967,2.55069,-2.37514
763.6,23.3168,2.54079,-2.3766
764.2,23.3367,2.53213,-2.37657
764.8,23.3563,2.5239,-2.37657
765.4,23.3765,2.51414,-2.37658
766,23.3966,2.49934,-2.37789
766.6,23.4164,2.48758,-2.37789
767.2,23.4364,2.48035,-2.37932
767.8,23.4561,2.47304,-2.37932
768.4,23.4763,2.46033,-2.38063
769,23.4961,2.44719,-2.38063
769.6,23.5162,2.43813,-2.38161
770.2,23.5362,2.42663,-2.38195
770.8,23.5559,2.40788,-2.38224
771.4,23.576,2.39371,-2.38328
772,23.5958,2.38367,-2.38234
772.6,23.616,2.36934,-2.38351
773.2,23.636,2.36343,-2.38445
773.8,23.6555,2.3542,-2.38481
774.4,23.6756,2.33919,-2.38608
775,23.6955,2.31848,-2.38613
775.6,23.7155,2.30916,-2.38613
776.2,23.7353,2.29746,-2.38609
776.8,23.7553,2.29142,-2.38624
777.4,23.7755,2.27513,-2.38615
778,23.7954,2.26065,-2.38703
778.6,23.8155,2.24655,-2.38745
779.2,23.8354,2.22591,-2.38834
779.8,23.8556,2.21363,-2.38887
780.4,23.8754,2.20434,-2.39105
781,23.8944,2.19902,-2.39161
781.6,23.9146,2.17976,-2.39281
782.2,23.9344,2.17018,-2.39293
782.8,23.9544,2.16301,-2.39294
783.4,23.9743,2.15424,-2.392
784,23.9945,2.1395,-2.39299
784.6,24.0147,2.13924,-2.39346
785.2,24.0346,2.12445,-2.39429
785.8,24.0546,2.11301,-2.39507
786.4,24.0746,2.10497,-2.39571
787,24.0945,2.09635,-2.39649
787.6,24.1146,2.08398,-2.397
788.2,24.1345,2.07061,-2.397
788.8,24.1545,2.06407,-2.39816
789.4,24.174,2.05671,-2.39827
790,24.1943,2.05308,-2.39884