File: 01_Data/Leather_Helmet_Shell/STA/N2/30K_min/Leather_Helmet_Shell_STA_N2_30KData_250523_R1.csv
Temp./C,Time/min,DSC/(mW/mg),Mass loss/mg
40.0,0.0,1.53597,-0.103019
40.6,0.0393663,1.60419,-0.103534
41.2,0.0762347,1.67272,-0.10512
41.8,0.11274,1.7338,-0.106166
42.4,0.148684,1.79393,-0.107261
43,0.183251,1.85223,-0.110321
43.6,0.215973,1.91028,-0.114789
44.2,0.251123,1.9916,-0.10954
44.8,0.284369,2.0399,-0.105295
45.4,0.316062,2.10938,-0.103779
46,0.347605,2.16244,-0.104235
46.6,0.378088,2.2257,-0.106377
47.2,0.409778,2.28966,-0.10971
47.8,0.439094,2.34465,-0.11086
48.4,0.470161,2.40584,-0.111661
49,0.499164,2.47044,-0.112044
49.6,0.528895,2.52287,-0.111348
50.2,0.557478,2.58721,-0.112214
50.8,0.586457,2.64009,-0.113341
51.4,0.613388,2.70544,-0.114728
52,0.64174,2.77099,-0.116539
52.6,0.670242,2.82074,-0.117483
53.2,0.697836,2.9,-0.117145
53.8,0.725784,2.9497,-0.117324
54.4,0.75156,3.00763,-0.117592
55,0.779583,3.07745,-0.118085
55.6,0.806521,3.141,-0.119248
56.2,0.83334,3.19875,-0.121227
56.8,0.859595,3.25913,-0.121792
57.4,0.886362,3.32461,-0.122177
58,0.912366,3.38083,-0.123675
58.6,0.937894,3.43904,-0.123924
59.2,0.964152,3.51293,-0.123991
59.8,0.989676,3.56745,-0.127788
60.4,1.01519,3.62254,-0.132663
61,1.04039,3.68934,-0.130938
61.6,1.06589,3.75072,-0.126699
62.2,1.0908,3.81548,-0.126382
62.8,1.11546,3.87956,-0.126947
63.4,1.14101,3.94252,-0.127367
64,1.16511,3.99118,-0.12882
64.6,1.19008,4.05156,-0.129615
65.2,1.21419,4.11042,-0.131312
65.8,1.2389,4.17315,-0.132927
66.4,1.2634,4.2296,-0.134757
67,1.28823,4.29086,-0.134271
67.6,1.31176,4.35779,-0.134802
68.2,1.33603,4.4171,-0.136214
68.8,1.35996,4.46873,-0.137263
69.4,1.38434,4.53032,-0.138451
70,1.40875,4.59669,-0.139175
70.6,1.43198,4.65042,-0.139198
71.2,1.45587,4.70679,-0.139244
71.8,1.47983,4.76094,-0.140637
72.4,1.50333,4.82176,-0.142224
73,1.52694,4.87595,-0.142431
73.6,1.55015,4.9333,-0.143774
74.2,1.57372,4.9893,-0.145559
74.8,1.59685,5.03767,-0.146483
75.4,1.62018,5.08823,-0.148459
76,1.6439,5.12925,-0.150719
76.6,1.667,5.18148,-0.152022
77.2,1.68968,5.21493,-0.153479
77.8,1.71276,5.26743,-0.154859
78.4,1.73684,5.3046,-0.156184
79,1.75951,5.34622,-0.157858
79.6,1.78224,5.38798,-0.158793
80.2,1.80484,5.43012,-0.159107
80.8,1.82658,5.44532,-0.162014
81.4,1.84977,5.49348,-0.163478
82,1.8721,5.52969,-0.163931
82.6,1.89508,5.57016,-0.166319
83.2,1.91782,5.59054,-0.167832
83.8,1.9401,5.62395,-0.168655
84.4,1.96225,5.66262,-0.169042
85,1.98463,5.67391,-0.169948
85.6,2.00663,5.69994,-0.171877
86.2,2.02887,5.72083,-0.173828
86.8,2.05075,5.74575,-0.174837
87.4,2.07236,5.76817,-0.176172
88,2.09412,5.78505,-0.177163
88.6,2.1163,5.79034,-0.178233
89.2,2.13824,5.80821,-0.179963
89.8,2.15972,5.82596,-0.181348
90.4,2.18137,5.82493,-0.184008
91,2.20289,5.83252,-0.184759
91.6,2.22457,5.83871,-0.18744
92.2,2.24579,5.84371,-0.18878
92.8,2.26703,5.85192,-0.191274
93.4,2.28862,5.83962,-0.191484
94,2.30991,5.83904,-0.192558
94.6,2.33111,5.8302,-0.194096
95.2,2.35226,5.82169,-0.194868
95.8,2.37309,5.81493,-0.195764
96.4,2.3945,5.80161,-0.196758
97,2.41505,5.79791,-0.196881
97.6,2.43609,5.78769,-0.199403
98.2,2.45724,5.76734,-0.199313
98.8,2.47801,5.73925,-0.200539
99.4,2.49863,5.73094,-0.200689
100,2.52003,5.71536,-0.201555
100.6,2.54009,5.6926,-0.203322
101.2,2.56097,5.66547,-0.203637
101.8,2.58169,5.64087,-0.204719
102.4,2.60219,5.62835,-0.206565
103,2.62287,5.59526,-0.20755
103.6,2.64345,5.56269,-0.208453
104.2,2.66403,5.53174,-0.208834
104.8,2.68491,5.50507,-0.21059
105.4,2.70515,5.47343,-0.212156
106,2.72551,5.44416,-0.213644
106.6,2.74594,5.41694,-0.216277
107.2,2.7662,5.37815,-0.21663
107.8,2.78665,5.3419,-0.217813
108.4,2.80686,5.31536,-0.219025
109,2.82723,5.27617,-0.219725
109.6,2.84742,5.2516,-0.220403
110.2,2.86751,5.20216,-0.218974
110.8,2.88785,5.16505,-0.217556
111.4,2.90837,5.12937,-0.217747
112,2.92809,5.09528,-0.220843
112.6,2.94817,5.05202,-0.223961
113.2,2.96858,5.01465,-0.226644
113.8,2.98854,4.97518,-0.228142
114.4,3.00842,4.93264,-0.229248
115,3.02882,4.89114,-0.229439
115.6,3.04812,4.85377,-0.229448
116.2,3.06882,4.81441,-0.229442
116.8,3.08875,4.76844,-0.230587
117.4,3.10871,4.72891,-0.230749
118,3.1291,4.69069,-0.230759
118.6,3.1484,4.6396,-0.230759
119.2,3.1688,4.59691,-0.231252
119.8,3.18828,4.55631,-0.233594
120.4,3.20822,4.52003,-0.2349
121,3.22837,4.479,-0.234928
121.6,3.24794,4.4337,-0.23493
122.2,3.26756,4.40354,-0.234931
122.8,3.28739,4.35641,-0.234949
123.4,3.30693,4.32887,-0.233629
124,3.32639,4.29607,-0.233604
124.6,3.3464,4.24228,-0.232708
125.2,3.36555,4.20395,-0.232312
125.8,3.38541,4.16133,-0.232673
126.4,3.40467,4.12662,-0.233615
127,3.42446,4.09235,-0.23361
127.6,3.4435,4.06047,-0.23361
128.2,3.46342,4.01462,-0.233605
128.8,3.48259,3.98353,-0.233549
129.4,3.50224,3.94286,-0.235575
130,3.52168,3.91995,-0.236228
130.6,3.5412,3.87389,-0.237207
131.2,3.56068,3.84967,-0.238184
131.8,3.5798,3.80968,-0.239151
132.4,3.59945,3.78638,-0.240247
133,3.61834,3.76015,-0.240127
133.6,3.63764,3.73717,-0.241409
134.2,3.65714,3.70028,-0.241511
134.8,3.67625,3.67633,-0.241533
135.4,3.69534,3.66099,-0.2419
136,3.71485,3.61732,-0.242842
136.6,3.73375,3.59887,-0.242831
137.2,3.75279,3.57401,-0.24283
137.8,3.77188,3.53945,-0.24283
138.4,3.79151,3.52456,-0.242818
139,3.81023,3.49465,-0.24363
139.6,3.8293,3.46992,-0.243802
140.2,3.84829,3.44855,-0.244926
140.8,3.86759,3.42534,-0.245122
141.4,3.88634,3.40252,-0.245138
142,3.90545,3.40055,-0.24514
142.6,3.92457,3.37094,-0.24514
143.2,3.94334,3.34951,-0.245142
143.8,3.96221,3.34149,-0.244766
144.4,3.9811,3.32902,-0.243821
145,4.00036,3.33006,-0.243828
145.6,4.0191,3.3243,-0.24384
146.2,4.03787,3.30959,-0.244232
146.8,4.05725,3.28317,-0.245214
147.4,4.07477,3.26877,-0.24546
148,4.09433,3.27308,-0.245782
148.6,4.11306,3.25605,-0.245799
149.2,4.13215,3.24441,-0.2458
149.8,4.15097,3.23432,-0.2458
150.4,4.16984,3.23197,-0.2458
151,4.18849,3.23038,-0.2458
151.6,4.20699,3.21491,-0.2458
152.2,4.22563,3.20995,-0.2458
152.8,4.24462,3.20066,-0.245801
153.4,4.26351,3.1981,-0.245812
154,4.2822,3.18449,-0.245915
154.6,4.30104,3.17389,-0.246449
155.2,4.31961,3.17,-0.247622
155.8,4.33816,3.16591,-0.249128
156.4,4.35684,3.16235,-0.249123
157,4.37561,3.1627,-0.249636
157.6,4.39428,3.15324,-0.251831
158.2,4.41301,3.14954,-0.251718
158.8,4.43123,3.15754,-0.252409
159.4,4.44997,3.14986,-0.253057
160,4.46783,3.15419,-0.252936
160.6,4.48749,3.15802,-0.254408
161.2,4.506,3.16555,-0.254457
161.8,4.52453,3.17735,-0.255322
162.4,4.54357,3.18637,-0.257176
163,4.56202,3.19067,-0.257103
163.6,4.58064,3.21196,-0.257103
164.2,4.59924,3.23677,-0.256551
164.8,4.61772,3.24609,-0.256423
165.4,4.63652,3.26588,-0.257113
166,4.65501,3.28051,-0.257107
166.6,4.67349,3.30223,-0.257079
167.2,4.69264,3.32716,-0.257905
167.8,4.71057,3.34977,-0.258433
168.4,4.72907,3.36699,-0.258435
169,4.74766,3.38353,-0.258597
169.6,4.76616,3.40697,-0.258716
170.2,4.78506,3.42653,-0.25844
170.8,4.80345,3.44448,-0.258422
171.4,4.82152,3.46947,-0.258423
172,4.84032,3.489,-0.258382
172.6,4.85885,3.50694,-0.259465
173.2,4.87719,3.52065,-0.259629
173.8,4.89601,3.5398,-0.259732
174.4,4.9142,3.54686,-0.259746
175,4.93277,3.57019,-0.259787
175.6,4.95131,3.58852,-0.261742
176.2,4.96949,3.60397,-0.262051
176.8,4.9878,3.61465,-0.262053
177.4,5.00617,3.62266,-0.262132
178,5.02396,3.6329,-0.263565
178.6,5.04237,3.65182,-0.263694
179.2,5.06069,3.67721,-0.264005
179.8,5.0791,3.68647,-0.265058
180.4,5.0977,3.69574,-0.265394
181,5.11662,3.71115,-0.266493
181.6,5.13404,3.72401,-0.266378
182.2,5.15231,3.73,-0.267523
182.8,5.17107,3.74267,-0.26776
183.4,5.18908,3.76082,-0.269032
184,5.20769,3.77419,-0.269122
184.6,5.2255,3.78858,-0.270041
185.2,5.24376,3.78738,-0.270163
185.8,5.26238,3.79171,-0.270157
186.4,5.28019,3.79988,-0.270781
187,5.29858,3.80018,-0.272529
187.6,5.31674,3.8178,-0.274845
188.2,5.33478,3.82621,-0.277747
188.8,5.3532,3.83984,-0.278298
189.4,5.37112,3.84339,-0.275876
190,5.38925,3.85767,-0.274599
190.6,5.40689,3.86044,-0.273043
191.2,5.42459,3.87056,-0.273361
191.8,5.4427,3.87759,-0.272602
192.4,5.46082,3.87688,-0.272579
193,5.47905,3.89599,-0.272579
193.6,5.49712,3.90358,-0.272576
194.2,5.51511,3.91339,-0.273356
194.8,5.53341,3.92075,-0.273993
195.4,5.55155,3.93392,-0.275212
196,5.56959,3.94801,-0.275655
196.6,5.58734,3.96056,-0.277991
197.2,5.60544,3.9624,-0.278361
197.8,5.62349,3.96726,-0.279403
198.4,5.64151,3.98342,-0.279768
199,5.65954,3.99613,-0.280857
199.6,5.6769,4.00982,-0.281129
200.2,5.69544,4.02429,-0.282457
200.8,5.71366,4.03526,-0.282602
201.4,5.73186,4.04094,-0.283895
202,5.74944,4.04855,-0.283907
202.6,5.7677,4.05409,-0.284547
203.2,5.78606,4.06832,-0.285213
203.8,5.80383,4.07841,-0.285159
204.4,5.82195,4.08608,-0.286277
205,5.83972,4.09134,-0.286604
205.6,5.85766,4.10729,-0.288612
206.2,5.87574,4.11636,-0.291339
206.8,5.89351,4.12464,-0.293718
207.4,5.91149,4.13429,-0.295003
208,5.92926,4.1442,-0.294922
208.6,5.94727,4.15629,-0.293365
209.2,5.9655,4.16928,-0.293102
209.8,5.98324,4.17582,-0.29406
210.4,6.00142,4.18105,-0.295403
211,6.01901,4.18761,-0.294666
211.6,6.03706,4.20943,-0.295985
212.2,6.0551,4.21208,-0.299421
212.8,6.07304,4.22022,-0.302399
213.4,6.09092,4.23616,-0.306813
214,6.10899,4.24613,-0.307241
214.6,6.12678,4.25976,-0.306631
215.2,6.14462,4.26753,-0.304257
215.8,6.1626,4.27935,-0.303384
216.4,6.18034,4.2853,-0.303247
217,6.19843,4.3037,-0.305153
217.6,6.21652,4.31873,-0.307674
218.2,6.23441,4.33042,-0.309517
218.8,6.25203,4.34066,-0.311216
219.4,6.2699,4.35912,-0.311414
220,6.28776,4.36855,-0.311972
220.6,6.30584,4.38205,-0.312015
221.2,6.32385,4.40525,-0.314225
221.8,6.34166,4.42723,-0.31745
222.4,6.35931,4.43402,-0.319672
223,6.37717,4.44872,-0.318436
223.6,6.3951,4.46839,-0.318034
224.2,6.41317,4.48477,-0.317216
224.8,6.43074,4.50304,-0.316662
225.4,6.44838,4.51515,-0.31764
226,6.46645,4.53797,-0.317896
226.6,6.48452,4.55602,-0.319414
227.2,6.50238,4.57503,-0.320109
227.8,6.52023,4.58958,-0.32155
228.4,6.53818,4.61577,-0.323172
229,6.55597,4.63723,-0.324795
229.6,6.57383,4.6547,-0.326117
230.2,6.5919,4.6743,-0.328118
230.8,6.60899,4.70291,-0.329899
231.4,6.6273,4.72094,-0.331866
232,6.64523,4.75609,-0.333566
232.6,6.66331,4.78077,-0.335593
233.2,6.68101,4.81018,-0.33736
233.8,6.69893,4.83487,-0.338521
234.4,6.71676,4.86504,-0.340088
235,6.73467,4.89117,-0.34168
235.6,6.75256,4.92272,-0.343893
236.2,6.77041,4.95521,-0.345746
236.8,6.78844,4.97913,-0.347327
237.4,6.80605,5.02262,-0.348871
238,6.82411,5.05871,-0.352081
238.6,6.84182,5.08563,-0.354252
239.2,6.85973,5.12197,-0.356433
239.8,6.87762,5.15299,-0.358699
240.4,6.89562,5.18159,-0.361071
241,6.91327,5.21062,-0.361793
241.6,6.93098,5.23776,-0.363612
242.2,6.94939,5.27005,-0.36576
242.8,6.96714,5.2968,-0.368522
243.4,6.98486,5.32773,-0.371879
244,7.00268,5.36721,-0.374117
244.6,7.02026,5.39369,-0.377075
245.2,7.03809,5.42352,-0.37871
245.8,7.05625,5.45136,-0.380805
246.4,7.07383,5.47334,-0.38302
247,7.09199,5.49879,-0.385623
247.6,7.10948,5.5187,-0.38801
248.2,7.12731,5.53648,-0.391562
248.8,7.14517,5.55114,-0.394373
249.4,7.16305,5.57076,-0.396315
250,7.18044,5.59226,-0.399539
250.6,7.19863,5.60431,-0.402794
251.2,7.21626,5.61805,-0.405222
251.8,7.23375,5.63425,-0.407173
252.4,7.25171,5.64396,-0.409904
253,7.26888,5.65399,-0.413032
253.6,7.28724,5.66856,-0.415366
254.2,7.30466,5.68018,-0.417959
254.8,7.32256,5.68685,-0.421031
255.4,7.34028,5.70138,-0.423491
256,7.35834,5.71394,-0.426838
256.6,7.37606,5.7271,-0.430996
257.2,7.39372,5.73997,-0.434252
257.8,7.41148,5.75155,-0.437132
258.4,7.42865,5.76402,-0.440095
259,7.44669,5.77228,-0.44299
259.6,7.46491,5.80002,-0.44585
260.2,7.48265,5.81311,-0.448434
260.8,7.50034,5.8296,-0.451652
261.4,7.51795,5.84438,-0.455013
262,7.53578,5.868,-0.457584
262.6,7.55354,5.88288,-0.461339
263.2,7.57152,5.90351,-0.465481
263.8,7.58865,5.92934,-0.468182
264.4,7.60691,5.95183,-0.471957
265,7.62446,5.97568,-0.47617
265.6,7.64215,5.99988,-0.47887
266.2,7.66011,6.02231,-0.481931
266.8,7.67761,6.04683,-0.486583
267.4,7.69563,6.07309,-0.49029
268,7.71346,6.10861,-0.495117
268.6,7.73064,6.13863,-0.49866
269.2,7.74903,6.17088,-0.503358
269.8,7.7665,6.19876,-0.507374
270.4,7.78443,6.23181,-0.512154
271,7.80191,6.2659,-0.515606
271.6,7.82001,6.29291,-0.520086
272.2,7.83787,6.32629,-0.524707
272.8,7.8556,6.35754,-0.528463
273.4,7.8737,6.40321,-0.534264
274,7.89101,6.44358,-0.539028
274.6,7.90914,6.47579,-0.545563
275.2,7.92687,6.51014,-0.549771
275.8,7.94453,6.54629,-0.555053
276.4,7.96304,6.59174,-0.560067
277,7.97994,6.63252,-0.565261
277.6,7.9984,6.66964,-0.571636
278.2,8.01618,6.71949,-0.576327
278.8,8.03371,6.76527,-0.583176
279.4,8.0518,6.8053,-0.588689
280,8.06926,6.84636,-0.595181
280.6,8.08754,6.88954,-0.600363
281.2,8.10512,6.92964,-0.606883
281.8,8.12294,6.97517,-0.612844
282.4,8.14071,7.0142,-0.619258
283,8.15871,7.04794,-0.626391
283.6,8.17655,7.09126,-0.632787
284.2,8.19443,7.12708,-0.640718
284.8,8.21231,7.16514,-0.647032
285.4,8.23021,7.20597,-0.65518
286,8.24785,7.24134,-0.661216
286.6,8.2657,7.27349,-0.66885
287.2,8.28334,7.31938,-0.675321
287.8,8.30131,7.35008,-0.68278
288.4,8.31926,7.38361,-0.690692
289,8.33708,7.41272,-0.698028
289.6,8.35489,7.43902,-0.707062
290.2,8.37257,7.47126,-0.713793
290.8,8.39047,7.51233,-0.721922
291.4,8.40835,7.52484,-0.728467
292,8.4262,7.55537,-0.736183
292.6,8.44407,7.58109,-0.744219
293.2,8.46165,7.60147,-0.752915
293.8,8.47961,7.61662,-0.761303
294.4,8.49733,7.63901,-0.77011
295,8.51486,7.6513,-0.778997
295.6,8.53289,7.65426,-0.786099
296.2,8.55,7.66364,-0.794896
296.8,8.56834,7.68064,-0.802294
297.4,8.58637,7.68318,-0.811343
298,8.60318,7.69202,-0.818658
298.6,8.62142,7.69049,-0.827456
299.2,8.63937,7.6914,-0.836522
299.8,8.65693,7.68317,-0.84341
300.4,8.67483,7.68168,-0.852685
301,8.69246,7.68112,-0.860062
301.6,8.71017,7.66555,-0.869781
302.2,8.72754,7.64844,-0.875951
302.8,8.74527,7.63627,-0.885004
303.4,8.76326,7.62564,-0.892961
304,8.78092,7.60686,-0.90088
304.6,8.79845,7.58809,-0.908317
305.2,8.81636,7.56605,-0.916257
305.8,8.83361,7.54712,-0.925265
306.4,8.85156,7.51833,-0.93252
307,8.86921,7.50248,-0.941709
307.6,8.88673,7.48014,-0.948445
308.2,8.90442,7.45184,-0.956678
308.8,8.92216,7.43226,-0.963861
309.4,8.9397,7.40524,-0.971343
310,8.95742,7.36877,-0.979951
310.6,8.97521,7.3321,-0.987101
311.2,8.99271,7.31065,-0.996418
311.8,9.01037,7.28016,-1.00378
312.4,9.02773,7.25268,-1.01263
313,9.04557,7.21917,-1.02053
313.6,9.06309,7.19172,-1.02787
314.2,9.08095,7.15792,-1.03577
314.8,9.09844,7.11918,-1.044
315.4,9.11609,7.08163,-1.05371
316,9.13366,7.05959,-1.06117
316.6,9.15131,7.02988,-1.06994
317.2,9.16906,6.99789,-1.07572
317.8,9.18668,6.96764,-1.08295
318.4,9.20471,6.93374,-1.0903
319,9.22177,6.90798,-1.09826
319.6,9.23967,6.86677,-1.10701
320.2,9.2572,6.83515,-1.1143
320.8,9.27472,6.80239,-1.12277
321.4,9.2927,6.76978,-1.12958
322,9.31017,6.74736,-1.13775
322.6,9.3282,6.71725,-1.14421
323.2,9.34539,6.68465,-1.15218
323.8,9.36335,6.64363,-1.15978
324.4,9.38086,6.61273,-1.16811
325,9.39851,6.57788,-1.17755
325.6,9.41626,6.5593,-1.1865
326.2,9.43405,6.51896,-1.19571
326.8,9.45159,6.48811,-1.20204
327.4,9.46935,6.46122,-1.21026
328,9.48701,6.42754,-1.21701
328.6,9.50459,6.39735,-1.22534
329.2,9.52251,6.37244,-1.23296
329.8,9.54002,6.33498,-1.24028
330.4,9.55773,6.30375,-1.24816
331,9.57562,6.26834,-1.25516
331.6,9.59315,6.23955,-1.2641
332.2,9.61107,6.20472,-1.27073
332.8,9.62843,6.17449,-1.27998
333.4,9.64649,6.13751,-1.28646
334,9.66392,6.10309,-1.29455
334.6,9.68178,6.0743,-1.30233
335.2,9.69938,6.0384,-1.31055
335.8,9.71708,6.00003,-1.31985
336.4,9.73481,5.96581,-1.32747
337,9.75222,5.93661,-1.33646
337.6,9.76966,5.90176,-1.34314
338.2,9.78737,5.86427,-1.352
338.8,9.80592,5.82992,-1.35968
339.4,9.82298,5.78688,-1.36791
340,9.84138,5.74992,-1.37482
340.6,9.85895,5.71466,-1.38224
341.2,9.87651,5.676,-1.3905
341.8,9.89413,5.64011,-1.39761
342.4,9.91225,5.60409,-1.40676
343,9.92971,5.56572,-1.41405
343.6,9.94754,5.52702,-1.42365
344.2,9.96519,5.49221,-1.43106
344.8,9.98325,5.44923,-1.43966
345.4,10.0009,5.40486,-1.44857
346,10.0184,5.36783,-1.4565
346.6,10.0363,5.32538,-1.46578
347.2,10.054,5.28227,-1.4733
347.8,10.0717,5.24244,-1.48273
348.4,10.0895,5.2012,-1.48996
349,10.1074,5.16251,-1.49885
349.6,10.1251,5.1197,-1.50611
350.2,10.1425,5.07929,-1.51438
350.8,10.1604,5.03639,-1.52266
351.4,10.1783,4.99192,-1.5306
352,10.1961,4.94515,-1.53925
352.6,10.2138,4.91305,-1.54603
353.2,10.2317,4.86701,-1.55423
353.8,10.2495,4.8249,-1.55919
354.4,10.2669,4.79185,-1.56675
355,10.2848,4.74405,-1.57339
355.6,10.3027,4.70402,-1.5812
356.2,10.3205,4.66504,-1.58861
356.8,10.3383,4.62241,-1.59484
357.4,10.3562,4.57673,-1.60295
358,10.3743,4.53859,-1.61009
358.6,10.3912,4.50228,-1.61847
359.2,10.4093,4.45868,-1.62526
359.8,10.4271,4.41794,-1.63367
360.4,10.445,4.37577,-1.64034
361,10.4628,4.33664,-1.64771
361.6,10.4806,4.29831,-1.65461
362.2,10.4988,4.26848,-1.66151
362.8,10.5164,4.22717,-1.66937
363.4,10.5341,4.19008,-1.67581
364,10.5521,4.14631,-1.68449
364.6,10.57,4.10866,-1.69058
365.2,10.5882,4.07093,-1.6979
365.8,10.6062,4.03539,-1.70394
366.4,10.6238,3.99365,-1.71101
367,10.6418,3.95634,-1.718
367.6,10.6595,3.92903,-1.72469
368.2,10.6775,3.8947,-1.73198
368.8,10.6954,3.8589,-1.73785
369.4,10.7133,3.81544,-1.74539
370,10.7312,3.77611,-1.7512
370.6,10.7492,3.73556,-1.75866
371.2,10.7671,3.70404,-1.76451
371.8,10.7851,3.67641,-1.7714
372.4,10.803,3.64027,-1.77744
373,10.8212,3.60252,-1.78418
373.6,10.839,3.56525,-1.79041
374.2,10.8568,3.53957,-1.79579
374.8,10.8747,3.50834,-1.80206
375.4,10.8928,3.47367,-1.80703
376,10.9107,3.44994,-1.81373
376.6,10.9287,3.42382,-1.81873
377.2,10.9467,3.39373,-1.82434
377.8,10.9648,3.3669,-1.82975
378.4,10.9828,3.33361,-1.83607
379,11.0007,3.31209,-1.84174
379.6,11.0187,3.27991,-1.84705
380.2,11.0368,3.25169,-1.85331
380.8,11.0547,3.22437,-1.85838
381.4,11.0725,3.20156,-1.86463
382,11.0906,3.17521,-1.86873
382.6,11.1088,3.14531,-1.87337
383.2,11.1266,3.12939,-1.87743
383.8,11.1449,3.10452,-1.88364
384.4,11.1633,3.08342,-1.88892
385,11.1809,3.05593,-1.89339
385.6,11.199,3.04552,-1.89785
386.2,11.2171,3.01939,-1.90255
386.8,11.2352,3.00191,-1.90862
387.4,11.2535,2.97971,-1.91342
388,11.2716,2.95854,-1.91882
388.6,11.2897,2.9396,-1.92323
389.2,11.3076,2.92202,-1.92922
389.8,11.3257,2.90461,-1.93419
390.4,11.3441,2.89031,-1.93958
391,11.3619,2.87176,-1.94388
391.6,11.38,2.85833,-1.94845
392.2,11.3982,2.8345,-1.95355
392.8,11.4164,2.81804,-1.95799
393.4,11.4346,2.7932,-1.96388
394,11.4528,2.7803,-1.96844
394.6,11.4709,2.77328,-1.97398
395.2,11.4889,2.74908,-1.9774
395.8,11.5074,2.73361,-1.982
396.4,11.5252,2.71826,-1.98623
397,11.5438,2.69982,-1.992
397.6,11.5619,2.68974,-1.99694
398.2,11.5799,2.67722,-2.00188
398.8,11.5986,2.65713,-2.00693
399.4,11.6164,2.64646,-2.01066
400,11.6348,2.63179,-2.01272
400.6,11.6529,2.61746,-2.01276
401.2,11.6711,2.60714,-2.01221
401.8,11.6894,2.59015,-2.01398
402.4,11.7076,2.57221,-2.01889
403,11.7259,2.55652,-2.0282
403.6,11.7435,2.53733,-2.03755
404.2,11.7621,2.53337,-2.04784
404.8,11.7806,2.5219,-2.05228
405.4,11.799,2.50986,-2.05666
406,11.817,2.49362,-2.06075
406.6,11.8354,2.48208,-2.06418
407.2,11.8537,2.46844,-2.06826
407.8,11.8717,2.45603,-2.07284
408.4,11.89,2.45174,-2.07594
409,11.9083,2.44153,-2.07992
409.6,11.9269,2.42556,-2.08437
410.2,11.9448,2.40967,-2.08794
410.8,11.9632,2.39965,-2.09138
411.4,11.981,2.39402,-2.09542
412,11.9993,2.38211,-2.1004
412.6,12.0175,2.36072,-2.10418
413.2,12.0366,2.35192,-2.1093
413.8,12.0548,2.33128,-2.11357
414.4,12.0731,2.32709,-2.11897
415,12.0914,2.31185,-2.12382
415.6,12.1098,2.29665,-2.12863
416.2,12.128,2.2847,-2.1339
416.8,12.1465,2.27494,-2.13815
417.4,12.1647,2.25937,-2.14256
418,12.1832,2.25166,-2.1461
418.6,12.2015,2.23596,-2.14945
419.2,12.2198,2.23125,-2.15345
419.8,12.2384,2.2176,-2.15749
420.4,12.2566,2.1957,-2.16125
421,12.275,2.18682,-2.16438
421.6,12.2931,2.17228,-2.16909
422.2,12.3118,2.16412,-2.17305
422.8,12.3298,2.15204,-2.17678
423.4,12.3486,2.1364,-2.17989
424,12.3668,2.1197,-2.18426
424.6,12.3853,2.10624,-2.18697
425.2,12.4037,2.09553,-2.1903
425.8,12.422,2.0866,-2.19501
426.4,12.4407,2.06088,-2.19864
427,12.4589,2.04922,-2.2026
427.6,12.4775,2.0347,-2.20728
428.2,12.4959,2.02618,-2.21137
428.8,12.5142,2.0198,-2.21522
429.4,12.5325,2.00418,-2.21897
430,12.5507,1.99194,-2.22347
430.6,12.5694,1.985,-2.22803
431.2,12.5881,1.97045,-2.2314
431.8,12.6063,1.95037,-2.23553
432.4,12.6251,1.94318,-2.24127
433,12.6433,1.93225,-2.24551
433.6,12.6617,1.91984,-2.2505
434.2,12.68,1.90268,-2.25336
434.8,12.6988,1.88745,-2.2576
435.4,12.7172,1.87758,-2.26117
436,12.7355,1.87257,-2.26507
436.6,12.7541,1.85156,-2.26796
437.2,12.7725,1.8449,-2.27211
437.8,12.7912,1.83494,-2.27549
438.4,12.8097,1.82771,-2.2801
439,12.8281,1.81125,-2.28361
439.6,12.8468,1.79316,-2.28824
440.2,12.865,1.78788,-2.29203
440.8,12.8838,1.77931,-2.29668
441.4,12.9022,1.77258,-2.3003
442,12.9206,1.75821,-2.30366
442.6,12.9389,1.74494,-2.30569
443.2,12.9578,1.73812,-2.30884
443.8,12.9766,1.7248,-2.31342
444.4,12.995,1.71574,-2.31786
445,13.0128,1.70569,-2.32135
445.6,13.0317,1.69167,-2.32481
446.2,13.0504,1.68078,-2.32836
446.8,13.0688,1.66975,-2.33192
447.4,13.0877,1.66802,-2.33641
448,13.1061,1.6562,-2.3401
448.6,13.1249,1.64786,-2.34479
449.2,13.1431,1.63585,-2.34783
449.8,13.1619,1.61992,-2.3519
450.4,13.1806,1.61734,-2.35574
451,13.1991,1.61092,-2.35821
451.6,13.2178,1.60363,-2.36078
452.2,13.2362,1.5929,-2.36378
452.8,13.255,1.58049,-2.36731
453.4,13.2737,1.57934,-2.37165
454,13.292,1.57069,-2.37528
454.6,13.3107,1.5654,-2.37894
455.2,13.3293,1.5464,-2.38257
455.8,13.3477,1.54342,-2.38538
456.4,13.3663,1.53615,-2.3895
457,13.3848,1.53715,-2.39381
457.6,13.4031,1.52548,-2.39758
458.2,13.4217,1.51909,-2.4016
458.8,13.4409,1.51394,-2.40349
459.4,13.4595,1.49743,-2.40467
460,13.4782,1.49219,-2.40772
460.6,13.497,1.49624,-2.40939
461.2,13.5156,1.48943,-2.40908
461.8,13.5343,1.47632,-2.40757
462.4,13.5526,1.46797,-2.40985
463,13.5713,1.46877,-2.41578
463.6,13.5898,1.46494,-2.42456
464.2,13.6084,1.45685,-2.43109
464.8,13.6272,1.45418,-2.43495
465.4,13.6455,1.44173,-2.43825
466,13.6645,1.44433,-2.44151
466.6,13.6834,1.43232,-2.44416
467.2,13.7019,1.42671,-2.4464
467.8,13.7208,1.41607,-2.44867
468.4,13.7392,1.4154,-2.45175
469,13.758,1.41193,-2.45519
469.6,13.7766,1.41106,-2.45755
470.2,13.7956,1.40993,-2.45938
470.8,13.8141,1.40082,-2.46273
471.4,13.833,1.39936,-2.46547
472,13.8519,1.39065,-2.46841
472.6,13.8703,1.38456,-2.47003
473.2,13.8895,1.38898,-2.47292
473.8,13.9079,1.38813,-2.475
474.4,13.9267,1.38053,-2.47617
475,13.9457,1.36664,-2.47892
475.6,13.964,1.36569,-2.4824
476.2,13.9828,1.36988,-2.48521
476.8,14.0018,1.36156,-2.4877
477.4,14.0202,1.35741,-2.49056
478,14.0391,1.35454,-2.49327
478.6,14.0578,1.34636,-2.49719
479.2,14.0768,1.34162,-2.49949
479.8,14.0954,1.3374,-2.50204
480.4,14.1139,1.33388,-2.5049
481,14.1331,1.32791,-2.50723
481.6,14.1516,1.32104,-2.50961
482.2,14.1706,1.32067,-2.51189
482.8,14.1893,1.3168,-2.5146
483.4,14.2081,1.30717,-2.51733
484,14.2267,1.31097,-2.51946
484.6,14.2457,1.3091,-2.52232
485.2,14.2643,1.30124,-2.52549
485.8,14.2831,1.29616,-2.52774
486.4,14.3018,1.29278,-2.52985
487,14.3207,1.28346,-2.53254
487.6,14.3394,1.28554,-2.53531
488.2,14.3583,1.28425,-2.53584
488.8,14.3772,1.26799,-2.53341
489.4,14.3959,1.25906,-2.53194
490,14.4147,1.2541,-2.53659
490.6,14.4336,1.2461,-2.54363
491.2,14.4523,1.24292,-2.5501
491.8,14.4711,1.23474,-2.55311
492.4,14.4902,1.22575,-2.55588
493,14.509,1.22373,-2.5583
493.6,14.5277,1.22293,-2.55896
494.2,14.5464,1.21373,-2.55976
494.8,14.5655,1.20156,-2.56104
495.4,14.5842,1.19662,-2.56269
496,14.6032,1.18962,-2.56416
496.6,14.6223,1.18294,-2.56605
497.2,14.6411,1.17538,-2.56815
497.8,14.6601,1.16853,-2.57021
498.4,14.6788,1.16061,-2.57142
499,14.6976,1.15906,-2.57146
499.6,14.7165,1.15118,-2.57305
500.2,14.7357,1.14412,-2.57489
500.8,14.7543,1.13792,-2.57671
501.4,14.7734,1.1346,-2.57903
502,14.7923,1.12819,-2.5818
502.6,14.8109,1.12037,-2.58461
503.2,14.8298,1.1194,-2.58665
503.8,14.8492,1.11097,-2.58857
504.4,14.8678,1.10423,-2.59034
505,14.8866,1.09873,-2.59165
505.6,14.9054,1.0892,-2.59455
506.2,14.9245,1.08162,-2.59657
506.8,14.9433,1.07972,-2.59773
507.4,14.9624,1.06822,-2.59893
508,14.9815,1.05991,-2.60015
508.6,15.0002,1.05654,-2.6019
509.2,15.0194,1.04941,-2.6035
509.8,15.0384,1.04378,-2.60525
510.4,15.0572,1.04012,-2.60661
511,15.0759,1.03462,-2.60768
511.6,15.0952,1.03083,-2.608
512.2,15.1143,1.02984,-2.60956
512.8,15.1332,1.02092,-2.61105
513.4,15.152,1.01488,-2.61227
514,15.1709,1.01069,-2.61315
514.6,15.1903,1.01131,-2.61445
515.2,15.209,1.00891,-2.61449
515.8,15.228,0.999315,-2.61524
516.4,15.2468,0.994616,-2.61629
517,15.266,0.99691,-2.61656
517.6,15.285,0.990208,-2.61809
518.2,15.304,0.977991,-2.61961
518.8,15.323,0.978108,-2.61926
519.4,15.3417,0.977208,-2.62002
520,15.3608,0.976241,-2.62172
520.6,15.38,0.96636,-2.62329
521.2,15.3992,0.968745,-2.6229
521.8,15.4183,0.968569,-2.62361
522.4,15.4371,0.970974,-2.62397
523,15.456,0.960786,-2.62382
523.6,15.4747,0.965083,-2.62521
524.2,15.4938,0.959348,-2.62689
524.8,15.5133,0.957359,-2.62733
525.4,15.532,0.957067,-2.62687
526,15.5512,0.961581,-2.62722
526.6,15.5702,0.952905,-2.62832
527.2,15.5892,0.958102,-2.62969
527.8,15.6084,0.956669,-2.63032
528.4,15.6272,0.94692,-2.6316
529,15.6468,0.945538,-2.63277
529.6,15.666,0.947049,-2.63296
530.2,15.6851,0.944916,-2.63405
530.8,15.704,0.944891,-2.63445
531.4,15.7231,0.939698,-2.63608
532,15.7423,0.938308,-2.63603
532.6,15.7614,0.936004,-2.63731
533.2,15.7804,0.944309,-2.6373
533.8,15.7996,0.942268,-2.63888
534.4,15.8186,0.940874,-2.64072
535,15.8376,0.944125,-2.64197
535.6,15.8568,0.941156,-2.64559
536.2,15.8759,0.939921,-2.64884
536.8,15.8953,0.950212,-2.65182
537.4,15.9144,0.937277,-2.65179
538,15.9334,0.945158,-2.64893
538.6,15.9528,0.949743,-2.64607
539.2,15.9717,0.948511,-2.64705
539.8,15.991,0.95082,-2.64752
540.4,16.0098,0.94876,-2.64849
541,16.0291,0.950414,-2.64925
541.6,16.0485,0.954738,-2.65042
542.2,16.0674,0.954916,-2.65188
542.8,16.0867,0.955131,-2.6532
543.4,16.1061,0.952357,-2.65314
544,16.125,0.952889,-2.6535
544.6,16.1441,0.953387,-2.65468
545.2,16.1632,0.9568,-2.65628
545.8,16.1825,0.957079,-2.65619
546.4,16.2017,0.953379,-2.65765
547,16.2212,0.956004,-2.65761
547.6,16.2403,0.959743,-2.65895
548.2,16.2594,0.95579,-2.66054
548.8,16.2784,0.957572,-2.66192
549.4,16.2975,0.959511,-2.66314
550,16.317,0.959577,-2.66368
550.6,16.3362,0.961966,-2.66518
551.2,16.3556,0.958679,-2.66549
551.8,16.3745,0.965661,-2.66638
552.4,16.3937,0.963392,-2.66679
553,16.413,0.962661,-2.66812
553.6,16.4321,0.955427,-2.66802
554.2,16.4515,0.958123,-2.66907
554.8,16.4706,0.970156,-2.66936
555.4,16.4899,0.972519,-2.66931
556,16.5089,0.974026,-2.67067
556.6,16.5282,0.970088,-2.67068
557.2,16.5476,0.971888,-2.67068
557.8,16.5667,0.967875,-2.67077
558.4,16.586,0.96825,-2.6721
559,16.6054,0.966107,-2.67218
559.6,16.6244,0.969752,-2.67311
560.2,16.644,0.967734,-2.67396
560.8,16.6632,0.972251,-2.67429
561.4,16.6825,0.969044,-2.67543
562,16.7014,0.974991,-2.67543
562.6,16.7209,0.978603,-2.67671
563.2,16.7402,0.970181,-2.67698
563.8,16.7596,0.973552,-2.67805
564.4,16.7788,0.972709,-2.67795
565,16.7978,0.97374,-2.67933
565.6,16.8175,0.971008,-2.67936
566.2,16.8368,0.97645,-2.67967
566.8,16.8559,0.977773,-2.68073
567.4,16.8753,0.975787,-2.68086
568,16.8945,0.97769,-2.68225
568.6,16.9138,0.979701,-2.68315
569.2,16.9332,0.978759,-2.6838
569.8,16.9523,0.983268,-2.6853
570.4,16.9715,0.990781,-2.68642
571,16.991,0.989184,-2.68769
571.6,17.0096,0.988979,-2.68878
572.2,17.029,0.987696,-2.69003
572.8,17.0491,0.983895,-2.69011
573.4,17.0682,0.99196,-2.68895
574,17.0874,0.996083,-2.68922
574.6,17.1066,0.999721,-2.68993
575.2,17.126,1.00247,-2.69117
575.8,17.1457,1.00137,-2.69108
576.4,17.1645,1.00411,-2.6914
577,17.1843,1.01783,-2.69005
577.6,17.2033,1.01364,-2.6915
578.2,17.2228,1.01579,-2.6914
578.8,17.2422,1.01964,-2.69252
579.4,17.2614,1.02179,-2.69289
580,17.2805,1.03262,-2.6944
580.6,17.3001,1.02255,-2.69539
581.2,17.3194,1.02771,-2.69593
581.8,17.3386,1.03393,-2.69707
582.4,17.3582,1.03926,-2.69724
583,17.3776,1.04089,-2.69726
583.6,17.3967,1.03551,-2.69755
584.2,17.4164,1.04344,-2.69881
584.8,17.4355,1.04734,-2.69987
585.4,17.4551,1.04377,-2.70022
586,17.4744,1.05838,-2.7005
586.6,17.4934,1.05885,-2.70153
587.2,17.5131,1.0643,-2.70151
587.8,17.532,1.06805,-2.70199
588.4,17.5518,1.06833,-2.70353
589,17.5713,1.07524,-2.7035
589.6,17.5905,1.07506,-2.7035
590.2,17.6096,1.07667,-2.70404
590.8,17.6293,1.07909,-2.70483
591.4,17.6485,1.08085,-2.70474
592,17.6681,1.09159,-2.70529
592.6,17.6874,1.08883,-2.70528
593.2,17.7068,1.08995,-2.70641
593.8,17.7262,1.09184,-2.70725
594.4,17.7457,1.09639,-2.70762
595,17.7649,1.10273,-2.70874
595.6,17.7843,1.10458,-2.7093
596.2,17.8036,1.10869,-2.7096
596.8,17.8229,1.10847,-2.70941
597.4,17.8422,1.11163,-2.71051
598,17.8616,1.10826,-2.71075
598.6,17.8811,1.10796,-2.71207
599.2,17.9004,1.11716,-2.71207
599.8,17.92,1.1208,-2.71342
600.4,17.9394,1.12528,-2.71346
601,17.9587,1.11895,-2.71471
601.6,17.9781,1.1188,-2.71482
602.2,17.9973,1.11853,-2.71647
602.8,18.0168,1.13052,-2.71761
603.4,18.0364,1.13183,-2.71747
604,18.0557,1.14474,-2.71881
604.6,18.0752,1.13662,-2.7189
605.2,18.0946,1.13791,-2.71918
605.8,18.1133,1.1388,-2.72019
606.4,18.1334,1.14084,-2.7208
607,18.1527,1.13963,-2.72171
607.6,18.1718,1.14169,-2.72214
608.2,18.1917,1.14304,-2.72304
608.8,18.2109,1.14153,-2.72337
609.4,18.2303,1.14948,-2.7246
610,18.2499,1.14931,-2.72581
610.6,18.2694,1.153,-2.72449
611.2,18.2884,1.15536,-2.72471
611.8,18.3083,1.1551,-2.72608
612.4,18.3279,1.14919,-2.72723
613,18.347,1.14788,-2.72762
613.6,18.3666,1.15855,-2.72894
614.2,18.3858,1.15442,-2.72886
614.8,18.4054,1.1598,-2.72965
615.4,18.4248,1.16229,-2.73017
616,18.4446,1.16253,-2.73048
616.6,18.4639,1.16012,-2.73155
617.2,18.4824,1.1638,-2.73052
617.8,18.5026,1.16132,-2.73162
618.4,18.5223,1.16194,-2.73183
619,18.5416,1.15785,-2.73183
619.6,18.561,1.16242,-2.73336
620.2,18.5805,1.16543,-2.73333
620.8,18.5998,1.16235,-2.73477
621.4,18.6193,1.16607,-2.73481
622,18.6389,1.16469,-2.73557
622.6,18.6584,1.1603,-2.73613
623.2,18.6781,1.15379,-2.73653
623.8,18.6973,1.16161,-2.73748
624.4,18.7171,1.15191,-2.73776
625,18.7361,1.14801,-2.73889
625.6,18.7558,1.15063,-2.73969
626.2,18.7752,1.14783,-2.74016
626.8,18.7947,1.1531,-2.74034
627.4,18.8142,1.14283,-2.74155
628,18.8336,1.15188,-2.7416
628.6,18.8532,1.15266,-2.74298
629.2,18.8728,1.14301,-2.74306
629.8,18.8921,1.14076,-2.74445
630.4,18.9116,1.1473,-2.74517
631,18.9313,1.14367,-2.74591
631.6,18.9506,1.13675,-2.74615
632.2,18.97,1.14181,-2.74688
632.8,18.9896,1.13744,-2.74687
633.4,19.0093,1.14199,-2.74805
634,19.0289,1.14197,-2.74817
634.6,19.0482,1.1428,-2.74818
635.2,19.0676,1.13709,-2.74835
635.8,19.0874,1.13589,-2.74817
636.4,19.1068,1.14467,-2.74818
637,19.1263,1.14305,-2.74818
637.6,19.146,1.14277,-2.74821
638.2,19.1655,1.14198,-2.74858
638.8,19.1848,1.14738,-2.74951
639.4,19.2045,1.14799,-2.7495
640,19.2241,1.13978,-2.75017
640.6,19.2437,1.13851,-2.75087
641.2,19.2631,1.13799,-2.75177
641.8,19.2826,1.1406,-2.75235
642.4,19.3023,1.14137,-2.75244
643,19.3218,1.12901,-2.75367
643.6,19.3413,1.13712,-2.75367
644.2,19.3611,1.13639,-2.75366
644.8,19.3807,1.13483,-2.75416
645.4,19.4002,1.12842,-2.754
646,19.4197,1.13982,-2.75537
646.6,19.4393,1.13541,-2.75543
647.2,19.4587,1.12902,-2.75568
647.8,19.4783,1.13449,-2.75646
648.4,19.4978,1.13167,-2.75655
649,19.5175,1.12657,-2.75781
649.6,19.5373,1.12887,-2.75774
650.2,19.5568,1.12977,-2.75769
650.8,19.5766,1.12939,-2.75806
651.4,19.5962,1.13515,-2.75775
652,19.6154,1.1304,-2.75779
652.6,19.6354,1.13208,-2.75915
653.2,19.655,1.13546,-2.759
653.8,19.6744,1.13212,-2.7603
654.4,19.6939,1.13436,-2.76155
655,19.7137,1.14294,-2.76167
655.6,19.7334,1.14343,-2.76327
656.2,19.7529,1.14407,-2.76325
656.8,19.7725,1.13727,-2.76462
657.4,19.7922,1.13974,-2.76455
658,19.8118,1.14362,-2.76455
658.6,19.8315,1.15243,-2.76455
659.2,19.8513,1.14531,-2.76523
659.8,19.8708,1.1392,-2.76586
660.4,19.8898,1.15093,-2.76587
661,19.9096,1.15816,-2.7664
661.6,19.9299,1.15312,-2.76719
662.2,19.9493,1.15595,-2.76697
662.8,19.9688,1.15646,-2.76599
663.4,19.9886,1.15767,-2.76734
664,20.0084,1.16031,-2.76732
664.6,20.0282,1.16238,-2.768
665.2,20.0475,1.1627,-2.76861
665.8,20.0672,1.16356,-2.7686
666.4,20.0871,1.16268,-2.76958
667,20.1068,1.15923,-2.76992
667.6,20.1266,1.16231,-2.77043
668.2,20.1462,1.16407,-2.77136
668.8,20.165,1.16128,-2.77211
669.4,20.1855,1.16506,-2.77264
670,20.2049,1.16149,-2.7734
670.6,20.2246,1.15926,-2.77391
671.2,20.2446,1.16416,-2.77497
671.8,20.264,1.16635,-2.77542
672.4,20.2838,1.16694,-2.77682
673,20.3038,1.16612,-2.77674
673.6,20.3231,1.16165,-2.77673
674.2,20.343,1.16122,-2.77674
674.8,20.3626,1.15964,-2.77684
675.4,20.3823,1.16355,-2.77805
676,20.4019,1.16518,-2.77805
676.6,20.4213,1.16607,-2.77806
677.2,20.4414,1.16159,-2.77802
677.8,20.4609,1.16635,-2.77837
678.4,20.4806,1.17145,-2.77932
679,20.5006,1.16645,-2.77981
679.6,20.5201,1.16227,-2.78071
680.2,20.5402,1.16428,-2.78112
680.8,20.5599,1.15997,-2.78136
681.4,20.5793,1.16795,-2.78258
682,20.5991,1.16735,-2.78248
682.6,20.6186,1.17721,-2.78385
683.2,20.6384,1.17702,-2.78404
683.8,20.6584,1.18111,-2.785
684.4,20.6779,1.17598,-2.7851
685,20.6977,1.17699,-2.78634
685.6,20.7173,1.18113,-2.78625
686.2,20.7373,1.17517,-2.78547
686.8,20.7566,1.17779,-2.78624
687.4,20.7767,1.17895,-2.7863
688,20.7961,1.18036,-2.78656
688.6,20.8158,1.17901,-2.78764
689.2,20.8355,1.17299,-2.78756
689.8,20.8555,1.16937,-2.78867
690.4,20.8752,1.18413,-2.78893
691,20.8947,1.18549,-2.79023
691.6,20.9148,1.18454,-2.79035
692.2,20.9345,1.18034,-2.79035
692.8,20.9543,1.17987,-2.79035
693.4,20.9742,1.18002,-2.79029
694,20.9937,1.16918,-2.79151
694.6,21.0134,1.1733,-2.7917
695.2,21.0334,1.17167,-2.79072
695.8,21.0532,1.17681,-2.79035
696.4,21.073,1.16949,-2.79034
697,21.0927,1.18449,-2.79034
697.6,21.1124,1.17904,-2.7904
698.2,21.1323,1.17658,-2.79169
698.8,21.1518,1.17161,-2.79165
699.4,21.1717,1.1631,-2.79271
700,21.1912,1.17087,-2.79298
700.6,21.2111,1.18077,-2.79298
701.2,21.2307,1.1792,-2.79395
701.8,21.2508,1.17368,-2.7943
702.4,21.2704,1.17157,-2.7943
703,21.2904,1.1838,-2.79458
703.6,21.31,1.17326,-2.79562
704.2,21.3298,1.17122,-2.79556
704.8,21.3495,1.16495,-2.79574
705.4,21.3694,1.16591,-2.79572
706,21.3892,1.17314,-2.79731
706.6,21.4088,1.16767,-2.79752
707.2,21.4288,1.16524,-2.79982
707.8,21.4485,1.17066,-2.79989
708.4,21.4684,1.18281,-2.7999
709,21.4881,1.1874,-2.79993
709.6,21.5079,1.18194,-2.80056
710.2,21.5277,1.17244,-2.80036
710.8,21.5476,1.18393,-2.79988
711.4,21.5672,1.19088,-2.80088
712,21.5872,1.19009,-2.80118
712.6,21.6068,1.20996,-2.80111
713.2,21.6268,1.20373,-2.80248
713.8,21.6468,1.20719,-2.80252
714.4,21.6665,1.20727,-2.80344
715,21.6861,1.20773,-2.80381
715.6,21.7061,1.21142,-2.80342
716.2,21.7257,1.21895,-2.80242
716.8,21.7457,1.23219,-2.80376
717.4,21.7657,1.22719,-2.80384
718,21.7855,1.22826,-2.80384
718.6,21.8051,1.22952,-2.80386
719.2,21.8249,1.23269,-2.80418
719.8,21.845,1.23035,-2.80517
720.4,21.8646,1.23669,-2.8052
721,21.8847,1.24079,-2.80665
721.6,21.9046,1.2359,-2.80577
722.2,21.9238,1.23734,-2.80584
722.8,21.9436,1.239,-2.80721
723.4,21.9641,1.24688,-2.80709
724,21.984,1.24306,-2.80842
724.6,22.003,1.25056,-2.80801
725.2,22.0239,1.24913,-2.80941
725.8,22.0434,1.2563,-2.81061
726.4,22.0631,1.25967,-2.81077
727,22.0826,1.25862,-2.81074
727.6,22.1028,1.26041,-2.81188
728.2,22.1232,1.25739,-2.81208
728.8,22.1428,1.26815,-2.81208
729.4,22.1628,1.27205,-2.81208
730,22.1825,1.2743,-2.81205
730.6,22.2023,1.27501,-2.81317
731.2,22.2223,1.28567,-2.8134
731.8,22.2423,1.29073,-2.8134
732.4,22.2619,1.29264,-2.81343
733,22.2819,1.29814,-2.81474
733.6,22.3017,1.30823,-2.81472
734.2,22.3219,1.31035,-2.81445
734.8,22.3412,1.30752,-2.81474
735.4,22.3618,1.31354,-2.81512
736,22.3816,1.31837,-2.81612
736.6,22.4017,1.31906,-2.8173
737.2,22.4214,1.3201,-2.81768
737.8,22.4411,1.32462,-2.8177
738.4,22.4612,1.32855,-2.81918
739,22.4809,1.3312,-2.81964
739.6,22.501,1.32721,-2.82108
740.2,22.5209,1.33485,-2.82108
740.8,22.5407,1.33599,-2.82238
741.4,22.5608,1.33895,-2.82238
742,22.5805,1.33889,-2.82378
742.6,22.6005,1.34109,-2.82356
743.2,22.6202,1.33873,-2.82406
743.8,22.6401,1.33819,-2.82462
744.4,22.6602,1.34331,-2.82537
745,22.6803,1.35202,-2.82536
745.6,22.7002,1.35364,-2.82536
746.2,22.7202,1.35762,-2.82536
746.8,22.7399,1.35422,-2.82533
747.4,22.7601,1.35374,-2.82664
748,22.7797,1.35874,-2.82668
748.6,22.7994,1.35575,-2.82668
749.2,22.8193,1.35528,-2.82668
749.8,22.8393,1.35298,-2.82668
750.4,22.8595,1.35396,-2.82668
751,22.879,1.35445,-2.82626
751.6,22.8989,1.3498,-2.82555
752.2,22.9192,1.34424,-2.82673
752.8,22.9387,1.33164,-2.82713
753.4,22.9588,1.3273,-2.82825
754,22.9789,1.30703,-2.82938
754.6,22.9986,1.29918,-2.82952
755.2,23.0187,1.28078,-2.82953
755.8,23.0385,1.27793,-2.82953
756.4,23.0584,1.2658,-2.82958
757,23.0786,1.2552,-2.82638
757.6,23.0985,1.24802,-2.82382
758.2,23.1184,1.2391,-2.82373
758.8,23.1383,1.23464,-2.8258
759.4,23.158,1.2304,-2.82961
760,23.178,1.21836,-2.83221
760.6,23.198,1.22086,-2.83468
761.2,23.218,1.22193,-2.83615
761.8,23.2379,1.21393,-2.83672
762.4,23.2578,1.20517,-2.83794
763,23.2775,1.20434,-2.83698
763.6,23.2978,1.20434,-2.83756
764.2,23.3174,1.19573,-2.83776
764.8,23.3376,1.20456,-2.83785
765.4,23.3576,1.19175,-2.83825
766,23.3775,1.19146,-2.83785
766.6,23.3972,1.18393,-2.83782
767.2,23.4175,1.17953,-2.83904
767.8,23.4372,1.16934,-2.8392
768.4,23.4571,1.16606,-2.83954
769,23.4772,1.16766,-2.84055
769.6,23.497,1.15821,-2.84043
770.2,23.5169,1.15668,-2.84185
770.8,23.5373,1.15536,-2.84188
771.4,23.5569,1.14493,-2.84246
772,23.577,1.13614,-2.84192
772.6,23.5969,1.13432,-2.84194
773.2,23.6169,1.12835,-2.84194
773.8,23.6366,1.12575,-2.84196
774.4,23.6566,1.12778,-2.84247
775,23.6766,1.12338,-2.84327
775.6,23.6967,1.12255,-2.84325
776.2,23.7162,1.12134,-2.84416
776.8,23.7366,1.11685,-2.84458
777.4,23.7566,1.11358,-2.84361
778,23.7763,1.10794,-2.84474
778.6,23.7963,1.11206,-2.84464
779.2,23.8162,1.11206,-2.84575
779.8,23.8359,1.10977,-2.84599
780.4,23.8561,1.10913,-2.84599
781,23.8759,1.11126,-2.84591
781.6,23.896,1.10698,-2.84726
782.2,23.9159,1.10392,-2.84736
782.8,23.9357,1.09575,-2.84897
783.4,23.9557,1.09228,-2.84886
784,23.9756,1.09403,-2.84885
784.6,23.9956,1.09549,-2.84886
785.2,24.0154,1.09996,-2.84896
785.8,24.0354,1.0983,-2.84716
786.4,24.0553,1.09177,-2.84389
787,24.0752,1.08914,-2.84185
787.6,24.0953,1.08736,-2.84354
788.2,24.1152,1.08473,-2.84841
788.8,24.135,1.08456,-2.85255
789.4,24.1549,1.08281,-2.85482
790,24.1749,1.08229,-2.85628