File: 01_Data/High_Temp_Bourke/STA/N2/30K_min/High_Temp_Bourke_STA_N2_30KData_240304_R1.csv
Temp./C,Time/min,DSC/(mW/mg),Mass loss/mg
50.0,0.0,1.4546,-0.00215296
50.5,0.0258887,1.50188,-0.0030515
51,0.0497526,1.54093,-0.00320893
51.5,0.0751838,1.58425,-0.00305685
52,0.101551,1.62419,-0.00243825
52.5,0.12541,1.66578,-0.00235907
53,0.148678,1.70128,-0.00310546
53.5,0.172293,1.74408,-0.00384251
54,0.195355,1.78388,-0.00447779
54.5,0.21803,1.8173,-0.00392913
55,0.240244,1.8457,-0.00321398
55.5,0.262358,1.88381,-0.00315647
56,0.284653,1.91088,-0.00293153
56.5,0.305989,1.94884,-0.00267264
57,0.327489,1.97184,-0.0029708
57.5,0.348232,2.00139,-0.00298385
58,0.36945,2.03824,-0.00281245
58.5,0.390338,2.06419,-0.00278672
59,0.410127,2.09055,-0.00381281
59.5,0.430516,2.12614,-0.00401291
60,0.450324,2.14582,-0.00380695
60.5,0.471335,2.17273,-0.0040827
61,0.491222,2.19592,-0.00436997
61.5,0.511296,2.21749,-0.0049641
62,0.531336,2.24982,-0.00444314
62.5,0.551201,2.26767,-0.00347182
63,0.569368,2.28886,-0.00374399
63.5,0.588969,2.31348,-0.00353312
64,0.607573,2.3392,-0.00346321
64.5,0.627872,2.36229,-0.00357273
65,0.64644,2.3756,-0.00355766
65.5,0.665415,2.40631,-0.00306483
66,0.684376,2.4245,-0.00222154
66.5,0.703039,2.44275,-0.00316987
67,0.721714,2.46204,-0.0018354
67.5,0.740366,2.47579,-0.00198016
68,0.758601,2.49718,-0.00221594
68.5,0.777373,2.52753,-0.00294232
69,0.795747,2.54928,-0.0029558
69.5,0.81343,2.56363,-0.0039631
70,0.832165,2.59057,-0.00391118
70.5,0.850177,2.59894,-0.00289824
71,0.868339,2.6201,-0.00341583
71.5,0.886821,2.63612,-0.00206842
72,0.904874,2.65993,-0.00305665
72.5,0.923227,2.67717,-0.00238538
73,0.940926,2.68923,-0.00389512
73.5,0.958942,2.69956,-0.00386656
74,0.976892,2.72401,-0.00374256
74.5,0.994559,2.73763,-0.00397929
75,1.01264,2.74259,-0.00420944
75.5,1.03021,2.74726,-0.00388071
76,1.04781,2.76519,-0.00395169
76.5,1.06596,2.78598,-0.00389521
77,1.08308,2.79173,-0.00423815
77.5,1.10151,2.80664,-0.0040718
78,1.11881,2.82145,-0.00383017
78.5,1.13631,2.83282,-0.00477186
79,1.15427,2.84636,-0.0039903
79.5,1.17151,2.84273,-0.00400897
80,1.1893,2.85455,-0.00384531
80.5,1.20638,2.8719,-0.00338792
81,1.22411,2.87863,-0.0036791
81.5,1.24102,2.88477,-0.00385432
82,1.25872,2.8944,-0.00506329
82.5,1.27574,2.9052,-0.00515769
83,1.29334,2.90728,-0.00510316
83.5,1.31051,2.91081,-0.00515031
84,1.32802,2.92595,-0.00566068
84.5,1.34551,2.92871,-0.00563875
85,1.36251,2.94274,-0.00528784
85.5,1.37944,2.93198,-0.00639597
86,1.39685,2.94218,-0.00542931
86.5,1.41388,2.95146,-0.00683962
87,1.43063,2.95742,-0.00598906
87.5,1.44814,2.96041,-0.00536447
88,1.46506,2.96425,-0.00546806
88.5,1.48237,2.97117,-0.00422836
89,1.49934,2.97416,-0.00405897
89.5,1.51644,2.98236,-0.00405266
90,1.53351,2.98667,-0.00462524
90.5,1.55027,2.99573,-0.00538814
91,1.56725,3.00773,-0.0042994
91.5,1.58384,3.01161,-0.00410825
92,1.60073,3.00235,-0.00407806
92.5,1.6181,3.00687,-0.0052775
93,1.63481,3.03395,-0.00536413
93.5,1.65178,3.02836,-0.00532097
94,1.66813,3.03963,-0.00413445
94.5,1.68506,3.05323,-0.00399888
95,1.70223,3.06566,-0.00511205
95.5,1.71904,3.06841,-0.00541603
96,1.73552,3.07335,-0.00429653
96.5,1.75233,3.08258,-0.00450992
97,1.76897,3.09051,-0.00542033
97.5,1.78594,3.09372,-0.00538878
98,1.80261,3.10681,-0.00538748
98.5,1.81933,3.11374,-0.00503046
99,1.83605,3.12557,-0.00518069
99.5,1.85307,3.13322,-0.00537158
100,1.86936,3.13964,-0.00538148
100.5,1.88614,3.14446,-0.00539178
101,1.90257,3.15362,-0.00539521
101.5,1.91944,3.15548,-0.00660894
102,1.93602,3.16632,-0.00557583
102.5,1.95266,3.17697,-0.0054036
103,1.96976,3.19025,-0.00538402
103.5,1.98603,3.18944,-0.00532172
104,2.00262,3.20054,-0.00638425
104.5,2.01911,3.21291,-0.00671979
105,2.03594,3.21948,-0.00680682
105.5,2.0527,3.21939,-0.00553768
106,2.06894,3.2332,-0.00538205
106.5,2.08577,3.23592,-0.00533228
107,2.1022,3.2432,-0.00638111
107.5,2.11913,3.25651,-0.00670251
108,2.13535,3.26665,-0.00670023
108.5,2.1519,3.27122,-0.00669999
109,2.16883,3.2804,-0.00669996
109.5,2.18494,3.29448,-0.00669977
110,2.20177,3.29472,-0.00670105
110.5,2.21821,3.30183,-0.00672804
111,2.23497,3.3186,-0.00685967
111.5,2.25158,3.3188,-0.00771822
112,2.26783,3.33198,-0.00786933
112.5,2.28451,3.33644,-0.00805866
113,2.30102,3.34186,-0.00727434
113.5,2.31734,3.34942,-0.00667324
114,2.33425,3.36031,-0.00664638
114.5,2.35035,3.36822,-0.00536228
115,2.36684,3.37362,-0.00540802
115.5,2.38338,3.38035,-0.0054074
116,2.39977,3.39025,-0.00656314
116.5,2.41657,3.39104,-0.006057
117,2.43259,3.41166,-0.0053876
117.5,2.4492,3.42213,-0.00539029
118,2.46581,3.42933,-0.00539006
118.5,2.4821,3.43767,-0.00539
119,2.49894,3.43536,-0.00539001
119.5,2.51522,3.44511,-0.00539006
120,2.53153,3.45191,-0.00538963
120.5,2.5481,3.4614,-0.00538283
121,2.56432,3.47009,-0.00535917
121.5,2.58054,3.46982,-0.00617825
122,2.59718,3.47772,-0.00635086
122.5,2.61361,3.4825,-0.00638
123,2.62972,3.48715,-0.00638036
123.5,2.64611,3.49679,-0.00638003
124,2.66246,3.50962,-0.00637999
124.5,2.67871,3.52699,-0.00637983
125,2.69528,3.5365,-0.00637909
125.5,2.71141,3.53895,-0.00638722
126,2.72775,3.54354,-0.00652677
126.5,2.74397,3.55062,-0.00670583
127,2.76027,3.55714,-0.00671147
127.5,2.77684,3.5681,-0.00671008
128,2.79268,3.56334,-0.00671026
128.5,2.80895,3.57276,-0.00671695
129,2.82546,3.58414,-0.0067496
129.5,2.84174,3.59221,-0.00735628
130,2.85732,3.59985,-0.00662089
130.5,2.8736,3.60663,-0.00603229
131,2.89,3.61908,-0.00604719
131.5,2.90606,3.62145,-0.00609345
132,2.92198,3.6241,-0.00667835
132.5,2.93773,3.63358,-0.00669318
133,2.95369,3.64188,-0.00669979
133.5,2.97079,3.65756,-0.00670007
134,2.98645,3.66314,-0.00670001
134.5,3.00232,3.67071,-0.0067
135,3.01871,3.66518,-0.00669996
135.5,3.03447,3.67662,-0.00669987
136,3.05115,3.68761,-0.00670176
136.5,3.06703,3.69781,-0.00672122
137,3.08261,3.69961,-0.00666414
137.5,3.0991,3.71157,-0.00778344
138,3.11505,3.7195,-0.00769643
138.5,3.13062,3.72802,-0.00768886
139,3.14709,3.73263,-0.00768989
139.5,3.16208,3.73867,-0.00769022
140,3.17884,3.74203,-0.00768885
140.5,3.19484,3.7461,-0.00766375
141,3.21033,3.75978,-0.00766832
141.5,3.22698,3.76205,-0.00638963
142,3.24277,3.77652,-0.00637113
142.5,3.25844,3.78705,-0.00637052
143,3.27449,3.78724,-0.00637174
143.5,3.29047,3.79503,-0.00633778
144,3.30584,3.79769,-0.00672936
144.5,3.32208,3.8179,-0.00669819
145,3.33789,3.82144,-0.00669936
145.5,3.35358,3.82279,-0.00669995
146,3.36936,3.83218,-0.0067001
146.5,3.38509,3.83977,-0.00670402
147,3.40038,3.84828,-0.00670348
147.5,3.41652,3.86021,-0.0063241
148,3.43203,3.85675,-0.00535277
148.5,3.44774,3.86625,-0.0053959
149,3.46354,3.87569,-0.00539086
149.5,3.4801,3.88515,-0.00539091
150,3.49612,3.89293,-0.00540636
150.5,3.51181,3.90885,-0.00660578
151,3.52761,3.90533,-0.00668403
151.5,3.5435,3.90764,-0.00671065
152,3.55921,3.92362,-0.00670938
152.5,3.57487,3.93521,-0.00667938
153,3.59027,3.9409,-0.0070334
153.5,3.60621,3.95409,-0.00723294
154,3.62166,3.95236,-0.00735262
154.5,3.63783,3.96014,-0.0073612
155,3.65316,3.96991,-0.0073602
155.5,3.66872,3.98031,-0.00735999
156,3.68483,3.99022,-0.00735994
156.5,3.70041,3.99253,-0.00735994
157,3.71628,4.00007,-0.00736309
157.5,3.73171,4.01038,-0.00737423
158,3.74688,4.01038,-0.00696946
158.5,3.76247,4.0161,-0.00600249
159,3.7784,4.02755,-0.00605418
159.5,3.79462,4.03587,-0.00605104
160,3.81,4.04447,-0.00604991
160.5,3.82591,4.0497,-0.00604941
161,3.84134,4.05896,-0.00605336
161.5,3.85724,4.06118,-0.00612004
162,3.87243,4.07109,-0.00702426
162.5,3.88796,4.08229,-0.00702544
163,3.90415,4.0864,-0.00703934
163.5,3.91968,4.09722,-0.00704054
164,3.93516,4.10506,-0.00706408
164.5,3.95083,4.10695,-0.00709112
165,3.96627,4.11319,-0.00830666
165.5,3.98223,4.11708,-0.00834722
166,3.99763,4.12849,-0.0083539
166.5,4.01333,4.13412,-0.00838623
167,4.02933,4.14249,-0.00775463
167.5,4.04434,4.14849,-0.0069864
168,4.05975,4.16123,-0.00704054
168.5,4.07569,4.16092,-0.00704075
169,4.09142,4.16554,-0.00704004
169.5,4.10689,4.1712,-0.00703999
170,4.12261,4.17597,-0.00704
170.5,4.13755,4.18392,-0.00704
171,4.15391,4.19129,-0.00704
171.5,4.16939,4.19905,-0.00704
172,4.18478,4.20523,-0.00704
172.5,4.20051,4.20231,-0.00704
173,4.21597,4.208,-0.00704
173.5,4.23138,4.2205,-0.00704
174,4.24714,4.23203,-0.00704
174.5,4.26272,4.24189,-0.00704
175,4.27796,4.24082,-0.00704
175.5,4.29383,4.25266,-0.00704
176,4.30912,4.25475,-0.00704
176.5,4.32487,4.2696,-0.00704
177,4.34047,4.27389,-0.00704
177.5,4.35502,4.28328,-0.00704
178,4.37126,4.28517,-0.00704
178.5,4.38661,4.29066,-0.00704
179,4.40211,4.30063,-0.00704
179.5,4.41772,4.30845,-0.00704
180,4.43331,4.32253,-0.00704
180.5,4.44869,4.32512,-0.00704
181,4.464,4.32926,-0.00703998
181.5,4.47972,4.33229,-0.00704001
182,4.49495,4.34081,-0.0070409
182.5,4.51032,4.3455,-0.00704077
183,4.52558,4.35898,-0.00699322
183.5,4.54102,4.37494,-0.00778425
184,4.55625,4.38723,-0.00839377
184.5,4.57124,4.38733,-0.00835192
185,4.58752,4.38562,-0.00834948
185.5,4.60276,4.39702,-0.00834992
186,4.61809,4.40717,-0.0083499
186.5,4.63368,4.41553,-0.00835009
187,4.64887,4.42521,-0.00835683
187.5,4.66437,4.43447,-0.00834849
188,4.67942,4.44647,-0.00779156
188.5,4.69505,4.45631,-0.00737179
189,4.71061,4.46657,-0.00735382
189.5,4.72591,4.48161,-0.00735972
190,4.74138,4.49326,-0.00735948
190.5,4.75693,4.50457,-0.00735683
191,4.77208,4.50562,-0.007521
191.5,4.78724,4.51922,-0.00875599
192,4.80269,4.53496,-0.0086595
192.5,4.81803,4.54737,-0.00866815
193,4.83308,4.56337,-0.00867015
193.5,4.84907,4.57738,-0.00867004
194,4.86398,4.59018,-0.00867
194.5,4.87972,4.60107,-0.00866996
195,4.8946,4.61135,-0.00867006
195.5,4.90969,4.62725,-0.00867216
196,4.9252,4.64482,-0.00867145
196.5,4.94069,4.66319,-0.00959424
197,4.95592,4.6773,-0.00998159
197.5,4.97109,4.69479,-0.0099954
198,4.98669,4.71389,-0.00999027
198.5,5.00189,4.72334,-0.00998978
199,5.01713,4.74714,-0.00998938
199.5,5.03263,4.75422,-0.00999675
200,5.04785,4.77228,-0.0100349
200.5,5.06295,4.79424,-0.00923688
201,5.07831,4.80196,-0.00866459
201.5,5.09365,4.8111,-0.00867065
202,5.10918,4.8178,-0.00867011
202.5,5.12425,4.83326,-0.00867
203,5.13927,4.84328,-0.00867019
203.5,5.15488,4.84699,-0.0086695
204,5.17012,4.84978,-0.00865816
204.5,5.18534,4.84446,-0.00869643
205,5.20045,4.84698,-0.00764864
205.5,5.21566,4.8447,-0.007357
206,5.23049,4.83715,-0.0073583
206.5,5.24511,4.8346,-0.00736038
207,5.26051,4.83496,-0.00726182
207.5,5.27625,4.83192,-0.0084105
208,5.29167,4.82781,-0.00867455
208.5,5.30658,4.84459,-0.0086702
209,5.32191,4.85171,-0.00866992
209.5,5.33717,4.84727,-0.00867
210,5.35256,4.85316,-0.00867
210.5,5.36751,4.86353,-0.00867
211,5.38302,4.88081,-0.00867
211.5,5.39807,4.88529,-0.00867
212,5.41323,4.8866,-0.00867
212.5,5.42847,4.89847,-0.00867
213,5.4437,4.90238,-0.00866999
213.5,5.45888,4.92197,-0.00867002
214,5.47399,4.92659,-0.00867041
214.5,5.48922,4.92843,-0.00866927
215,5.50451,4.93835,-0.00864633
215.5,5.5196,4.94914,-0.00898344
216,5.53485,4.95803,-0.0093543
216.5,5.55012,4.96491,-0.00933016
217,5.56494,4.96575,-0.0093249
217.5,5.58031,4.978,-0.00932651
218,5.59521,4.98567,-0.00968533
218.5,5.61099,4.99806,-0.00998097
219,5.62577,4.99519,-0.00999412
219.5,5.64103,5.00182,-0.00999017
220,5.65614,5.0132,-0.00998993
220.5,5.67147,5.01513,-0.00999
221,5.68646,5.02844,-0.00998993
221.5,5.70204,5.0287,-0.0099896
222,5.71684,5.02856,-0.00999372
222.5,5.73213,5.03699,-0.0100121
223,5.74713,5.03821,-0.00956381
223.5,5.76259,5.04791,-0.00862064
224,5.77742,5.05549,-0.00867832
224.5,5.79301,5.06237,-0.00867931
225,5.80788,5.06259,-0.00862775
225.5,5.82303,5.06764,-0.00957465
226,5.83816,5.07279,-0.0100074
226.5,5.85313,5.07604,-0.0101606
227,5.86823,5.08335,-0.0113956
227.5,5.88377,5.08656,-0.011297
228,5.89887,5.08873,-0.0113083
228.5,5.91375,5.09581,-0.0113102
229,5.92905,5.0996,-0.01131
229.5,5.94421,5.10001,-0.0113102
230,5.95947,5.10864,-0.0113122
230.5,5.97449,5.11452,-0.0112992
231,5.98958,5.12307,-0.0111441
231.5,6.00481,5.12897,-0.0100366
232,6.01997,5.13366,-0.0100039
232.5,6.03451,5.13117,-0.00998937
233,6.05003,5.13723,-0.00998971
233.5,6.06507,5.14333,-0.00999001
234,6.08033,5.15264,-0.00999001
234.5,6.09516,5.15745,-0.00998997
235,6.11033,5.15914,-0.00998997
235.5,6.12537,5.16509,-0.0099917
236,6.14084,5.16703,-0.00999354
236.5,6.15608,5.1698,-0.00989697
237,6.17079,5.17938,-0.0110397
237.5,6.18617,5.18952,-0.011317
238,6.20133,5.19984,-0.0113123
238.5,6.21618,5.20815,-0.011312
239,6.23134,5.21536,-0.0112099
239.5,6.24659,5.23116,-0.0124086
240,6.26164,5.23469,-0.0118407
240.5,6.27673,5.23679,-0.0112752
241,6.29178,5.24546,-0.0113144
241.5,6.30676,5.25383,-0.0108443
242,6.32189,5.26028,-0.00993625
242.5,6.33657,5.27171,-0.0110196
243,6.35192,5.27827,-0.0112913
243.5,6.36737,5.28844,-0.0113134
244,6.38256,5.30235,-0.0113076
244.5,6.39753,5.30942,-0.0113297
245,6.41294,5.31109,-0.0107957
245.5,6.42791,5.31521,-0.0100248
246,6.4425,5.31861,-0.00999557
246.5,6.45741,5.32249,-0.00998525
247,6.47263,5.32576,-0.0099589
247.5,6.48823,5.31853,-0.0105059
248,6.50352,5.32387,-0.0113645
248.5,6.5181,5.33085,-0.0113049
249,6.53361,5.33646,-0.011309
249.5,6.54856,5.34094,-0.0113101
250,6.56359,5.34461,-0.01131
250.5,6.57877,5.34481,-0.01131
251,6.59397,5.34481,-0.01131
251.5,6.60907,5.34989,-0.01131
252,6.62399,5.35935,-0.01131
252.5,6.63943,5.35996,-0.01131
253,6.65374,5.3632,-0.01131
253.5,6.66931,5.3713,-0.01131
254,6.68448,5.37979,-0.01131
254.5,6.69949,5.37682,-0.01131
255,6.71478,5.37686,-0.01131
255.5,6.72973,5.37684,-0.01131
256,6.74479,5.38206,-0.01131
256.5,6.75979,5.37874,-0.01131
257,6.77487,5.3723,-0.01131
257.5,6.79021,5.37913,-0.0113099
258,6.80493,5.38492,-0.0113111
258.5,6.81988,5.38818,-0.0113145
259,6.83512,5.38837,-0.0112533
259.5,6.85018,5.38863,-0.0116248
260,6.86548,5.39476,-0.0116691
260.5,6.88018,5.39466,-0.0116459
261,6.89533,5.39544,-0.0116496
261.5,6.91044,5.39277,-0.0116501
262,6.92547,5.40023,-0.01165
262.5,6.94083,5.40425,-0.01165
263,6.95564,5.40458,-0.01165
263.5,6.97099,5.40042,-0.01165
264,6.98582,5.39719,-0.01165
264.5,7.001,5.40665,-0.01165
265,7.0158,5.40266,-0.01165
265.5,7.03105,5.40931,-0.01165
266,7.04606,5.41269,-0.01165
266.5,7.06144,5.41604,-0.01165
267,7.07626,5.41754,-0.01165
267.5,7.09141,5.41461,-0.01165
268,7.10581,5.42027,-0.01165
268.5,7.12124,5.42437,-0.01165
269,7.13602,5.4223,-0.01165
269.5,7.15155,5.42565,-0.01165
270,7.16651,5.43094,-0.01165
270.5,7.18154,5.43468,-0.01165
271,7.19669,5.43813,-0.01165
271.5,7.21187,5.44251,-0.01165
272,7.22655,5.43839,-0.01165
272.5,7.24231,5.44098,-0.01165
273,7.2569,5.44444,-0.01165
273.5,7.27223,5.44883,-0.0116503
274,7.28709,5.45397,-0.0116476
274.5,7.30178,5.45246,-0.011638
275,7.31735,5.45648,-0.0119022
275.5,7.33249,5.44975,-0.0119714
276,7.34734,5.45528,-0.0119814
276.5,7.36256,5.46109,-0.0119802
277,7.37788,5.46576,-0.01198
277.5,7.39271,5.46325,-0.01198
278,7.40745,5.47099,-0.01198
278.5,7.42287,5.47665,-0.01198
279,7.43784,5.47577,-0.01198
279.5,7.4531,5.47136,-0.01198
280,7.46795,5.47493,-0.01198
280.5,7.48307,5.47951,-0.01198
281,7.49845,5.48049,-0.01198
281.5,7.51318,5.48382,-0.01198
282,7.52836,5.48174,-0.01198
282.5,7.54363,5.48341,-0.0119807
283,7.55864,5.4826,-0.0119777
283.5,7.57348,5.48266,-0.0119459
284,7.58858,5.48327,-0.0125123
284.5,7.60392,5.48034,-0.0133466
285,7.619,5.48418,-0.0132874
285.5,7.63408,5.4829,-0.013289
286,7.64954,5.48618,-0.0132899
286.5,7.66369,5.48699,-0.0132849
287,7.67882,5.48897,-0.0133039
287.5,7.69458,5.49626,-0.0136914
288,7.70951,5.4935,-0.0146076
288.5,7.72472,5.49792,-0.0146079
289,7.73908,5.49302,-0.0146101
289.5,7.75486,5.49615,-0.0146099
290,7.76979,5.49425,-0.0146101
290.5,7.78512,5.49862,-0.014616
291,7.80015,5.4972,-0.0146124
291.5,7.81545,5.50157,-0.014105
292,7.83021,5.50551,-0.0132893
292.5,7.84564,5.50354,-0.0132914
293,7.86076,5.50777,-0.01329
293.5,7.87596,5.50739,-0.01329
294,7.89105,5.50511,-0.01329
294.5,7.90619,5.50494,-0.01329
295,7.92096,5.51274,-0.01329
295.5,7.93628,5.51536,-0.01329
296,7.95136,5.51629,-0.01329
296.5,7.96636,5.5198,-0.01329
297,7.98156,5.51774,-0.01329
297.5,7.99661,5.51767,-0.01329
298,8.01171,5.51997,-0.01329
298.5,8.027,5.51958,-0.01329
299,8.04224,5.52323,-0.01329
299.5,8.05718,5.52817,-0.0132924
300,8.07241,5.52858,-0.0132913
300.5,8.08726,5.52909,-0.0131002
301,8.10254,5.53152,-0.0129629
301.5,8.11756,5.53234,-0.0129479
302,8.13288,5.53516,-0.0129301
302.5,8.14795,5.54218,-0.0126003
303,8.16329,5.54246,-0.0126287
303.5,8.1784,5.53825,-0.0126305
304,8.19346,5.53885,-0.01263
304.5,8.20864,5.54111,-0.01263
305,8.22368,5.54445,-0.01263
305.5,8.23895,5.54681,-0.01263
306,8.25398,5.55084,-0.0126301
306.5,8.26895,5.55349,-0.0126297
307,8.28405,5.54569,-0.0126244
307.5,8.29961,5.5514,-0.0126356
308,8.3143,5.55315,-0.0130221
308.5,8.32975,5.55529,-0.0139488
309,8.34485,5.55764,-0.0139479
309.5,8.36012,5.55813,-0.01395
310,8.37506,5.56113,-0.01395
310.5,8.39028,5.55842,-0.01395
311,8.40534,5.5613,-0.01395
311.5,8.42068,5.56003,-0.01395
312,8.436,5.56312,-0.01395
312.5,8.45088,5.56104,-0.01395
313,8.46613,5.55963,-0.01395
313.5,8.48102,5.56167,-0.01395
314,8.49648,5.56138,-0.01395
314.5,8.51176,5.56843,-0.01395
315,8.5268,5.56385,-0.01395
315.5,8.54208,5.56747,-0.01395
316,8.55721,5.56503,-0.01395
316.5,8.5722,5.56859,-0.01395
317,8.58757,5.57223,-0.01395
317.5,8.60229,5.57347,-0.01395
318,8.61777,5.5699,-0.01395
318.5,8.63309,5.57254,-0.01395
319,8.6481,5.5782,-0.01395
319.5,8.66327,5.57744,-0.01395
320,8.67841,5.57705,-0.01395
320.5,8.69288,5.57937,-0.01395
321,8.70877,5.57739,-0.01395
321.5,8.72388,5.5757,-0.01395
322,8.73872,5.58069,-0.01395
322.5,8.75422,5.57906,-0.01395
323,8.76932,5.57094,-0.01395
323.5,8.78407,5.57671,-0.01395
324,8.79954,5.57459,-0.01395
324.5,8.81464,5.58303,-0.01395
325,8.83031,5.58,-0.01395
325.5,8.84556,5.5849,-0.01395
326,8.8608,5.58172,-0.01395
326.5,8.87603,5.58541,-0.01395
327,8.89084,5.58323,-0.01395
327.5,8.90667,5.5825,-0.0139501
328,8.92124,5.58308,-0.0139506
328.5,8.93664,5.58039,-0.0139423
329,8.95224,5.58275,-0.0139097
329.5,8.96738,5.58062,-0.0147043
330,8.98254,5.58021,-0.0149163
330.5,8.99786,5.58074,-0.0149373
331,9.01316,5.58371,-0.0155888
331.5,9.02822,5.58261,-0.016293
332,9.04339,5.58922,-0.0162666
332.5,9.05812,5.5917,-0.0162596
333,9.07398,5.58685,-0.0162646
333.5,9.08908,5.58468,-0.0162488
334,9.1044,5.58697,-0.0158996
334.5,9.11969,5.58478,-0.0143065
335,9.13467,5.58426,-0.0135717
335.5,9.15025,5.58621,-0.0136195
336,9.1656,5.59222,-0.0136208
336.5,9.18068,5.59462,-0.01362
337,9.19599,5.5941,-0.0136197
337.5,9.21108,5.59673,-0.0136189
338,9.22641,5.59321,-0.0136366
338.5,9.24164,5.59236,-0.013695
339,9.25685,5.59104,-0.0145648
339.5,9.27206,5.59342,-0.0146167
340,9.28739,5.59592,-0.0145181
340.5,9.30268,5.59841,-0.0157722
341,9.3181,5.59579,-0.0159332
341.5,9.33336,5.59828,-0.0159306
342,9.34853,5.59983,-0.01593
342.5,9.36388,5.60171,-0.01593
343,9.37893,5.59835,-0.01593
343.5,9.3944,5.60452,-0.01593
344,9.40958,5.60537,-0.01593
344.5,9.4252,5.60119,-0.01593
345,9.44028,5.59689,-0.01593
345.5,9.45584,5.59715,-0.0159311
346,9.471,5.60723,-0.0159334
346.5,9.48615,5.60376,-0.0157814
347,9.50131,5.59963,-0.0148935
347.5,9.51657,5.60248,-0.0149469
348,9.53192,5.59893,-0.0149215
348.5,9.54719,5.60568,-0.0153685
349,9.56245,5.60451,-0.016306
349.5,9.57778,5.61192,-0.0162539
350,9.59307,5.61032,-0.0162591
350.5,9.60849,5.60711,-0.0162601
351,9.62396,5.60357,-0.01626
351.5,9.63925,5.60148,-0.01626
352,9.65435,5.60563,-0.01626
352.5,9.66988,5.60446,-0.01626
353,9.68503,5.60196,-0.01626
353.5,9.7004,5.6016,-0.01626
354,9.71596,5.60484,-0.01626
354.5,9.73127,5.60041,-0.01626
355,9.74611,5.60293,-0.01626
355.5,9.76177,5.60625,-0.01626
356,9.77681,5.60399,-0.01626
356.5,9.79229,5.6056,-0.01626
357,9.80772,5.60221,-0.01626
357.5,9.82316,5.60669,-0.01626
358,9.83836,5.60955,-0.01626
358.5,9.85359,5.61176,-0.01626
359,9.86899,5.60528,-0.01626
359.5,9.88425,5.61128,-0.01626
360,9.89975,5.61141,-0.01626
360.5,9.9149,5.60743,-0.0162595
361,9.9305,5.60926,-0.0162594
361.5,9.94564,5.60461,-0.0162858
362,9.96107,5.59903,-0.01633
362.5,9.97642,5.60129,-0.0175332
363,9.99191,5.60393,-0.0175682
363.5,10.0073,5.60941,-0.0175703
364,10.0226,5.60995,-0.01757
364.5,10.0379,5.60994,-0.01757
365,10.0535,5.60911,-0.01757
365.5,10.0689,5.59941,-0.01757
366,10.0843,5.60376,-0.01757
366.5,10.0997,5.60076,-0.01757
367,10.115,5.59992,-0.0175725
367.5,10.1302,5.60459,-0.0175709
368,10.1458,5.60106,-0.0173754
368.5,10.1613,5.60071,-0.0172457
369,10.1765,5.59654,-0.0172382
369.5,10.1923,5.59311,-0.0172398
370,10.2072,5.59615,-0.01724
370.5,10.223,5.59894,-0.01724
371,10.238,5.59909,-0.01724
371.5,10.2538,5.59943,-0.01724
372,10.2691,5.59346,-0.01724
372.5,10.2844,5.59417,-0.0172408
373,10.2998,5.59241,-0.0172395
373.5,10.3147,5.59347,-0.0171964
374,10.3301,5.59524,-0.0179053
374.5,10.3462,5.58544,-0.0186042
375,10.3614,5.58467,-0.0185626
375.5,10.3771,5.58508,-0.0185593
376,10.3922,5.57987,-0.0185599
376.5,10.4076,5.5821,-0.01856
377,10.4232,5.58327,-0.01856
377.5,10.4386,5.57903,-0.01856
378,10.4543,5.57836,-0.01856
378.5,10.4694,5.57854,-0.01856
379,10.4848,5.5798,-0.0185597
379.5,10.5004,5.57671,-0.018559
380,10.5158,5.57789,-0.0185749
380.5,10.5313,5.57789,-0.0186323
381,10.5466,5.57797,-0.0197729
381.5,10.5623,5.57974,-0.0198667
382,10.5775,5.57886,-0.0198803
382.5,10.5933,5.57812,-0.0198687
383,10.6084,5.57841,-0.0198954
383.5,10.624,5.57787,-0.018815
384,10.6395,5.57276,-0.0185665
384.5,10.6548,5.57508,-0.0185572
385,10.6704,5.57777,-0.0185598
385.5,10.6858,5.57309,-0.01856
386,10.7015,5.5693,-0.01856
386.5,10.7168,5.5697,-0.01856
387,10.7322,5.56242,-0.01856
387.5,10.7478,5.55922,-0.01856
388,10.7634,5.55997,-0.0185606
388.5,10.7785,5.56243,-0.0185609
389,10.7944,5.55182,-0.0185281
389.5,10.8099,5.55653,-0.0192528
390,10.8253,5.55403,-0.0208318
390.5,10.8409,5.55285,-0.0208703
391,10.8564,5.55602,-0.0208701
391.5,10.8719,5.55396,-0.02087
392,10.8872,5.54922,-0.02087
392.5,10.9028,5.54231,-0.0208701
393,10.9182,5.54114,-0.0208696
393.5,10.9339,5.53613,-0.0208649
394,10.9489,5.53815,-0.0208831
394.5,10.9647,5.53672,-0.0212999
395,10.9805,5.53398,-0.0221926
395.5,10.9961,5.528,-0.0221881
396,11.0112,5.52908,-0.0221899
396.5,11.027,5.53065,-0.02219
397,11.0426,5.52947,-0.02219
397.5,11.0578,5.52438,-0.02219
398,11.0734,5.52286,-0.02219
398.5,11.0891,5.52164,-0.02219
399,11.1048,5.51866,-0.02219
399.5,11.1199,5.51676,-0.02219
400,11.1355,5.51659,-0.02219
400.5,11.151,5.51277,-0.02219
401,11.1665,5.50634,-0.0221901
401.5,11.1822,5.50492,-0.0221908
402,11.1975,5.50015,-0.0221834
402.5,11.2134,5.49992,-0.0221208
403,11.229,5.49766,-0.0230847
403.5,11.2445,5.49682,-0.0235056
404,11.2603,5.4988,-0.0235001
404.5,11.2755,5.49297,-0.0234999
405,11.2908,5.49071,-0.0235
405.5,11.3061,5.48802,-0.0235
406,11.3225,5.48827,-0.0235
406.5,11.3377,5.48845,-0.0235
407,11.3533,5.49119,-0.0235
407.5,11.3686,5.48434,-0.0234998
408,11.3844,5.47986,-0.0234966
408.5,11.3999,5.47271,-0.0235005
409,11.4154,5.47112,-0.0237928
409.5,11.431,5.468,-0.0248426
410,11.4472,5.46568,-0.0248123
410.5,11.4628,5.46095,-0.0248191
411,11.4782,5.45601,-0.0248201
411.5,11.494,5.45056,-0.02482
412,11.5096,5.45047,-0.02482
412.5,11.5251,5.44666,-0.02482
413,11.5406,5.44568,-0.02482
413.5,11.5563,5.44023,-0.0248202
414,11.5718,5.43825,-0.0248208
414.5,11.5874,5.43831,-0.0248128
415,11.6032,5.43623,-0.0254704
415.5,11.6188,5.43091,-0.0261613
416,11.6346,5.42478,-0.0262118
416.5,11.6497,5.41709,-0.0254497
417,11.6658,5.41571,-0.0254915
417.5,11.6811,5.42061,-0.0254813
418,11.697,5.41775,-0.0254799
418.5,11.7124,5.4148,-0.02548
419,11.728,5.41539,-0.02548
419.5,11.7434,5.41459,-0.02548
420,11.7592,5.4106,-0.02548
420.5,11.7745,5.40523,-0.0254809
421,11.7901,5.4,-0.02548
421.5,11.8057,5.39743,-0.0254239
422,11.8215,5.3914,-0.0262744
422.5,11.8374,5.39256,-0.0268006
423,11.8528,5.3889,-0.0278252
423.5,11.8684,5.38565,-0.0281075
424,11.8844,5.38205,-0.0281128
424.5,11.9003,5.37672,-0.0281102
425,11.9158,5.37828,-0.0281102
425.5,11.9318,5.37516,-0.0281122
426,11.9473,5.36712,-0.0281046
426.5,11.9628,5.36193,-0.0278972
427,11.9782,5.36148,-0.0267698
427.5,11.9943,5.36043,-0.0278048
428,12.0098,5.35486,-0.0281117
428.5,12.0255,5.34727,-0.0281129
429,12.0413,5.34891,-0.0281085
429.5,12.0567,5.34563,-0.0281176
430,12.0727,5.33845,-0.0283182
430.5,12.0885,5.33095,-0.0294366
431,12.1039,5.33126,-0.0297542
431.5,12.1197,5.33214,-0.030738
432,12.135,5.32751,-0.0307386
432.5,12.1513,5.328,-0.0307399
433,12.1669,5.31993,-0.0307402
433.5,12.1824,5.31542,-0.0307409
434,12.1981,5.3101,-0.0307344
434.5,12.2137,5.31063,-0.030668
435,12.2295,5.29914,-0.0316886
435.5,12.2447,5.29472,-0.0320642
436,12.2608,5.30015,-0.0320601
436.5,12.2762,5.29245,-0.03206
437,12.2924,5.28937,-0.0320605
437.5,12.308,5.28749,-0.0320572
438,12.324,5.28318,-0.0320154
438.5,12.3395,5.2833,-0.0326537
439,12.3554,5.28122,-0.0339281
439.5,12.3712,5.27421,-0.0340116
440,12.3869,5.27469,-0.0344411
440.5,12.4027,5.27211,-0.0353963
441,12.4186,5.26477,-0.0353546
441.5,12.4341,5.26314,-0.035553
442,12.45,5.26178,-0.036669
442.5,12.4658,5.26051,-0.0366579
443,12.4814,5.2518,-0.0366693
443.5,12.4971,5.25259,-0.0366702
444,12.5131,5.25043,-0.03667
444.5,12.5287,5.24673,-0.03667
445,12.5445,5.24684,-0.0366709
445.5,12.5602,5.24302,-0.0366704
446,12.5759,5.23982,-0.0366191
446.5,12.5915,5.23589,-0.0374535
447,12.6075,5.23851,-0.0380163
447.5,12.6231,5.22795,-0.0379948
448,12.639,5.22706,-0.0379866
448.5,12.6547,5.23345,-0.0388081
449,12.6704,5.22228,-0.0392938
449.5,12.6864,5.22486,-0.0393049
450,12.7019,5.22778,-0.039299
450.5,12.7177,5.22257,-0.0393118
451,12.7338,5.22026,-0.0394792
451.5,12.7496,5.21632,-0.0406072
452,12.7653,5.21291,-0.0406076
452.5,12.781,5.22695,-0.0406188
453,12.7964,5.21653,-0.0406336
453.5,12.8122,5.21521,-0.0407107
454,12.828,5.21495,-0.0418596
454.5,12.8444,5.20665,-0.041938
455,12.86,5.20804,-0.041939
455.5,12.8761,5.20663,-0.0430704
456,12.8916,5.20554,-0.0432585
456.5,12.9078,5.20842,-0.0431806
457,12.9236,5.20168,-0.0444578
457.5,12.9392,5.20371,-0.0445809
458,12.9551,5.20778,-0.0450445
458.5,12.971,5.20454,-0.0458939
459,12.9868,5.20094,-0.0458825
459.5,13.0027,5.20675,-0.0464912
460,13.0183,5.20674,-0.047244
460.5,13.0343,5.20715,-0.0470738
461,13.0502,5.21004,-0.0458049
461.5,13.0658,5.21259,-0.0462304
462,13.0819,5.21284,-0.0472694
462.5,13.0977,5.21217,-0.0471732
463,13.1135,5.21321,-0.0482444
463.5,13.1294,5.21847,-0.0487429
464,13.145,5.21523,-0.04997
464.5,13.1613,5.21459,-0.0503933
465,13.1769,5.21736,-0.0517366
465.5,13.1929,5.22068,-0.0540624
466,13.2087,5.22427,-0.0546307
466.5,13.2247,5.23039,-0.0559927
467,13.2405,5.23134,-0.0561352
467.5,13.2567,5.2349,-0.0576112
468,13.2725,5.23559,-0.0578499
468.5,13.2883,5.23847,-0.0591552
469,13.3042,5.24296,-0.05907
469.5,13.32,5.24319,-0.0602368
470,13.3359,5.24463,-0.0596059
470.5,13.3518,5.25241,-0.0613541
471,13.3678,5.25575,-0.0621023
471.5,13.3837,5.25544,-0.0629327
472,13.3994,5.25994,-0.0647313
472.5,13.4154,5.25953,-0.0653563
473,13.4311,5.26534,-0.0665929
473.5,13.447,5.2752,-0.0681095
474,13.4628,5.28218,-0.0686074
474.5,13.479,5.28511,-0.0702873
475,13.495,5.28745,-0.0725162
475.5,13.5109,5.29452,-0.0738704
476,13.5271,5.29376,-0.0752777
476.5,13.5429,5.2998,-0.0769788
477,13.5586,5.31064,-0.0785754
477.5,13.5749,5.31288,-0.0800239
478,13.5909,5.31776,-0.0809119
478.5,13.6066,5.33085,-0.0826132
479,13.6228,5.33315,-0.0845871
479.5,13.6387,5.33947,-0.0865532
480,13.6547,5.3576,-0.088049
480.5,13.6706,5.35931,-0.0894287
481,13.6864,5.37432,-0.091188
481.5,13.7027,5.39249,-0.0932951
482,13.7186,5.40797,-0.0947376
482.5,13.7347,5.41655,-0.0969776
483,13.7501,5.42772,-0.0994705
483.5,13.7666,5.43085,-0.101243
484,13.7823,5.44084,-0.102313
484.5,13.7985,5.44694,-0.105013
485,13.814,5.4593,-0.106824
485.5,13.8304,5.47908,-0.109842
486,13.8462,5.47727,-0.112669
486.5,13.8626,5.49846,-0.115277
487,13.8786,5.51479,-0.119568
487.5,13.8942,5.5297,-0.122185
488,13.9105,5.55238,-0.124667
488.5,13.9264,5.57071,-0.127975
489,13.9426,5.59628,-0.131046
489.5,13.9583,5.6116,-0.134874
490,13.9751,5.64789,-0.13847
490.5,13.9906,5.66873,-0.143346
491,14.0071,5.69584,-0.147461
491.5,14.0227,5.72438,-0.152155
492,14.0392,5.75834,-0.157132
492.5,14.055,5.79487,-0.161685
493,14.0714,5.82761,-0.166912
493.5,14.0874,5.85988,-0.170763
494,14.1037,5.89535,-0.175965
494.5,14.12,5.92341,-0.18148
495,14.1355,5.94617,-0.187321
495.5,14.1518,5.94577,-0.195155
496,14.1677,5.96464,-0.200864
496.5,14.1837,5.98174,-0.207949
497,14.2001,6.00049,-0.214411
497.5,14.2159,6.01825,-0.220306
498,14.2323,6.04408,-0.228195
498.5,14.2484,6.0811,-0.234331
499,14.2645,6.1068,-0.242536
499.5,14.2804,6.13573,-0.249674
500,14.2967,6.17917,-0.255879
500.5,14.3132,6.21796,-0.263735
501,14.329,6.26472,-0.269814
501.5,14.3454,6.31055,-0.278805
502,14.3616,6.36374,-0.286744
502.5,14.3779,6.40774,-0.295154
503,14.394,6.4605,-0.304471
503.5,14.4102,6.5185,-0.312221
504,14.4265,6.56903,-0.322432
504.5,14.4424,6.6305,-0.331072
505,14.4586,6.68731,-0.342013
505.5,14.4746,6.74887,-0.353023
506,14.4908,6.81369,-0.362111
506.5,14.5071,6.87573,-0.373771
507,14.5239,6.94477,-0.383553
507.5,14.5402,7.02118,-0.394964
508,14.5562,7.08704,-0.407517
508.5,14.5727,7.16168,-0.419215
509,14.5891,7.23022,-0.434869
509.5,14.6056,7.30549,-0.446826
510,14.622,7.38411,-0.460864
510.5,14.6385,7.46099,-0.473927
511,14.655,7.5357,-0.486425
511.5,14.6713,7.61035,-0.504079
512,14.6876,7.69117,-0.518309
512.5,14.7039,7.77566,-0.536338
513,14.7205,7.8497,-0.552433
513.5,14.7364,7.93459,-0.568626
514,14.7531,8.01567,-0.589419
514.5,14.7695,8.0943,-0.606183
515,14.7861,8.17274,-0.628148
515.5,14.8024,8.2517,-0.646241
516,14.8189,8.33548,-0.666715
516.5,14.8351,8.41115,-0.689848
517,14.8519,8.48047,-0.709796
517.5,14.868,8.55524,-0.734848
518,14.8845,8.63581,-0.755667
518.5,14.9013,8.70199,-0.78116
519,14.9175,8.77344,-0.806845
519.5,14.9339,8.83641,-0.83047
520,14.9499,8.88857,-0.859833
520.5,14.9668,8.95696,-0.883659
521,14.9827,9.00516,-0.912152
521.5,14.9993,9.04951,-0.9401
522,15.0157,9.08832,-0.967013
522.5,15.0317,9.11979,-0.999235
523,15.048,9.15051,-1.02489
523.5,15.0642,9.17506,-1.05803
524,15.0806,9.18435,-1.0879
524.5,15.0967,9.18685,-1.11873
525,15.1127,9.18381,-1.15426
525.5,15.1289,9.17954,-1.1824
526,15.1451,9.14797,-1.21803
526.5,15.1616,9.11344,-1.24964
527,15.1774,9.07225,-1.28161
527.5,15.1934,9.02386,-1.31917
528,15.2094,8.9596,-1.34833
528.5,15.2254,8.88643,-1.38508
529,15.2412,8.7962,-1.41528
529.5,15.2572,8.70574,-1.44771
530,15.2728,8.60311,-1.48487
530.5,15.2883,8.48569,-1.51335
531,15.3039,8.3621,-1.54887
531.5,15.3199,8.21697,-1.58061
532,15.3358,8.07017,-1.61146
532.5,15.3513,7.90355,-1.64739
533,15.367,7.74221,-1.67429
533.5,15.3826,7.56394,-1.70703
534,15.3981,7.37812,-1.73713
534.5,15.4135,7.19728,-1.76413
535,15.4291,6.99961,-1.79729
535.5,15.4442,6.80761,-1.82069
536,15.4598,6.60615,-1.84879
536.5,15.4757,6.40424,-1.87841
537,15.4906,6.20837,-1.90061
537.5,15.5062,6.00838,-1.92906
538,15.5215,5.81722,-1.95085
538.5,15.5372,5.62106,-1.97378
539,15.5526,5.42708,-1.99793
539.5,15.568,5.23658,-2.01622
540,15.5834,5.05308,-2.03847
540.5,15.5989,4.87761,-2.05797
541,15.6143,4.71039,-2.07588
541.5,15.6297,4.53757,-2.09697
542,15.6454,4.38238,-2.11245
542.5,15.6611,4.22853,-2.13046
543,15.6765,4.06792,-2.14748
543.5,15.6922,3.93011,-2.16184
544,15.7078,3.78873,-2.1802
544.5,15.7231,3.65485,-2.19251
545,15.7389,3.52903,-2.20645
545.5,15.7546,3.40485,-2.2211
546,15.7702,3.28877,-2.23223
546.5,15.7857,3.17829,-2.24589
547,15.8015,3.06859,-2.25701
547.5,15.8175,2.96887,-2.26851
548,15.8331,2.8683,-2.28095
548.5,15.8489,2.77191,-2.29001
549,15.8646,2.68505,-2.30111
549.5,15.8803,2.59767,-2.31066
550,15.896,2.51123,-2.32005
550.5,15.9122,2.42751,-2.33116
551,15.928,2.36306,-2.33863
551.5,15.9431,2.29126,-2.3473
552,15.9596,2.25013,-2.35556
552.5,15.9758,2.27427,-2.3632
553,15.9921,2.26798,-2.37146
553.5,16.0078,2.2152,-2.37663
554,16.0235,2.1455,-2.38412
554.5,16.0393,2.05412,-2.39072
555,16.0553,1.9876,-2.39696
555.5,16.0715,1.92764,-2.40452
556,16.0873,1.86799,-2.40979
556.5,16.1033,1.8168,-2.41656
557,16.1194,1.78421,-2.4223
557.5,16.135,1.73527,-2.42761
558,16.1515,1.68486,-2.43407
558.5,16.1674,1.6428,-2.43847
559,16.1833,1.61119,-2.44401
559.5,16.1996,1.5742,-2.44906
560,16.2152,1.53512,-2.45371
560.5,16.2315,1.4948,-2.45959
561,16.2476,1.45945,-2.46503
561.5,16.2637,1.43281,-2.47031
562,16.2795,1.4008,-2.47473
562.5,16.2956,1.35835,-2.47865
563,16.312,1.33881,-2.48345
563.5,16.3279,1.30446,-2.48635
564,16.3442,1.27379,-2.49013
564.5,16.3605,1.27088,-2.49383
565,16.3764,1.25645,-2.49736
565.5,16.3928,1.22349,-2.50146
566,16.4086,1.20022,-2.50471
566.5,16.4249,1.18376,-2.50901
567,16.4407,1.16795,-2.51242
567.5,16.4573,1.14797,-2.51601
568,16.4736,1.14253,-2.52005
568.5,16.4892,1.12849,-2.52309
569,16.5056,1.1243,-2.52695
569.5,16.5218,1.11132,-2.52948
570,16.5379,1.09193,-2.53299
570.5,16.5545,1.075,-2.53626
571,16.5705,1.07289,-2.53891
571.5,16.5865,1.0635,-2.54182
572,16.603,1.04068,-2.54392
572.5,16.6193,1.0291,-2.54644
573,16.6355,1.01373,-2.55015
573.5,16.6517,1.00402,-2.55358
574,16.668,1.0008,-2.55688
574.5,16.6842,0.992496,-2.55945
575,16.7004,0.990219,-2.56154
575.5,16.7166,0.985124,-2.56452
576,16.7331,0.983813,-2.56736
576.5,16.7495,0.975287,-2.56971
577,16.7655,0.975464,-2.57255
577.5,16.7819,0.963486,-2.5744
578,16.798,0.959529,-2.57577
578.5,16.8146,0.950581,-2.57887
579,16.8309,0.942103,-2.58082
579.5,16.8471,0.938082,-2.58311
580,16.8633,0.929999,-2.58721
580.5,16.8794,0.925309,-2.58948
581,16.8958,0.921849,-2.59178
581.5,16.9118,0.919034,-2.59464
582,16.9281,0.914528,-2.59638
582.5,16.9452,0.909867,-2.59879
583,16.9611,0.905379,-2.60111
583.5,16.9777,0.898983,-2.6029
584,16.994,0.894125,-2.60524
584.5,17.0104,0.88178,-2.60752
585,17.0267,0.883731,-2.6079
585.5,17.0428,0.882317,-2.60994
586,17.0592,0.882076,-2.61176
586.5,17.0759,0.878352,-2.61318
587,17.0922,0.878471,-2.61441
587.5,17.1085,0.884493,-2.61643
588,17.1249,0.885112,-2.62024
588.5,17.1409,0.883509,-2.62236
589,17.1576,0.876874,-2.6248
589.5,17.174,0.875477,-2.62692
590,17.1904,0.875921,-2.62868
590.5,17.2067,0.878428,-2.62847
591,17.2231,0.877737,-2.62971
591.5,17.2395,0.869147,-2.63123
592,17.2559,0.870939,-2.63337
592.5,17.2722,0.866322,-2.63555
593,17.2877,0.866768,-2.63742
593.5,17.3045,0.861003,-2.63916
594,17.321,0.86463,-2.64071
594.5,17.3375,0.863818,-2.64221
595,17.3537,0.860094,-2.64366
595.5,17.37,0.85969,-2.64572
596,17.3868,0.857396,-2.64842
596.5,17.4038,0.853361,-2.65025
597,17.4199,0.853681,-2.65268
597.5,17.4363,0.859169,-2.6552
598,17.4525,0.858603,-2.65687
598.5,17.4691,0.857944,-2.65834
599,17.4854,0.856948,-2.65984
599.5,17.5017,0.854632,-2.66115
600,17.5181,0.854019,-2.66286
600.5,17.5348,0.854659,-2.66403
601,17.551,0.858444,-2.66489
601.5,17.5677,0.859895,-2.66647
602,17.584,0.858491,-2.66779
602.5,17.6005,0.856695,-2.66932
603,17.6161,0.851727,-2.67107
603.5,17.6334,0.853706,-2.67273
604,17.65,0.85608,-2.67443
604.5,17.6661,0.853768,-2.67624
605,17.6827,0.860433,-2.6782
605.5,17.699,0.862508,-2.67982
606,17.7155,0.871476,-2.68047
606.5,17.7321,0.888505,-2.68156
607,17.7478,0.896305,-2.68303
607.5,17.7642,0.903619,-2.68434
608,17.7809,0.917785,-2.68531
608.5,17.7973,0.921285,-2.68594
609,17.8139,0.916719,-2.68714
609.5,17.8301,0.90642,-2.68882
610,17.8471,0.93087,-2.69014
610.5,17.8636,0.932197,-2.6912
611,17.8802,0.923188,-2.69288
611.5,17.8966,0.926299,-2.69421
612,17.9133,0.925386,-2.69545
612.5,17.9297,0.927437,-2.69703
613,17.9461,0.93092,-2.69819
613.5,17.9624,0.933677,-2.70017
614,17.9789,0.940628,-2.70165
614.5,17.9955,0.941582,-2.70235
615,18.0117,0.94626,-2.70338
615.5,18.0283,0.950233,-2.70448
616,18.0448,0.951623,-2.70626
616.5,18.0615,0.954115,-2.70761
617,18.0781,0.959526,-2.70859
617.5,18.0944,0.966527,-2.70985
618,18.1109,0.970026,-2.7117
618.5,18.1277,0.973516,-2.71235
619,18.1439,0.97694,-2.7129
619.5,18.1606,0.984395,-2.71429
620,18.1765,0.990413,-2.71504
620.5,18.1937,0.987073,-2.71585
621,18.2101,0.987826,-2.71714
621.5,18.2267,0.991243,-2.71794
622,18.2429,0.992065,-2.71941
622.5,18.2592,1.00675,-2.72081
623,18.2756,1.01179,-2.72202
623.5,18.2923,1.01572,-2.72255
624,18.3085,1.01458,-2.72346
624.5,18.3256,1.01546,-2.72397
625,18.3419,1.01617,-2.72543
625.5,18.3584,1.01594,-2.72639
626,18.3753,1.01966,-2.72778
626.5,18.3919,1.0304,-2.72951
627,18.4084,1.02616,-2.73034
627.5,18.4248,1.03081,-2.7312
628,18.4414,1.03451,-2.73253
628.5,18.4579,1.04115,-2.73305
629,18.4743,1.04383,-2.73418
629.5,18.4911,1.03653,-2.73493
630,18.5074,1.03345,-2.7356
630.5,18.5241,1.0296,-2.73726
631,18.5398,1.02655,-2.73775
631.5,18.5572,1.03112,-2.73913
632,18.5737,1.03172,-2.74015
632.5,18.59,1.03607,-2.74062
633,18.6063,1.03659,-2.74211
633.5,18.6232,1.04101,-2.74244
634,18.6397,1.03915,-2.7437
634.5,18.6562,1.04431,-2.74405
635,18.6727,1.04794,-2.74508
635.5,18.6893,1.04312,-2.74498
636,18.706,1.04634,-2.74648
636.5,18.7226,1.05075,-2.74719
637,18.7389,1.0557,-2.74806
637.5,18.7555,1.06286,-2.74956
638,18.7719,1.06654,-2.74971
638.5,18.7886,1.07174,-2.75087
639,18.805,1.07467,-2.75076
639.5,18.8218,1.07554,-2.75178
640,18.8382,1.0817,-2.75226
640.5,18.8548,1.08605,-2.75344
641,18.8713,1.09246,-2.75482
641.5,18.8881,1.09148,-2.75504
642,18.9046,1.11237,-2.75635
642.5,18.9209,1.13267,-2.75643
643,18.9374,1.15411,-2.75772
643.5,18.9541,1.17756,-2.75793
644,18.9709,1.19185,-2.75838
644.5,18.9875,1.20779,-2.75934
645,19.0037,1.2205,-2.76009
645.5,19.02,1.2306,-2.76082
646,19.0369,1.23051,-2.76216
646.5,19.0535,1.23721,-2.7623
647,19.0697,1.2449,-2.76299
647.5,19.0864,1.25319,-2.76372
648,19.1032,1.25604,-2.76377
648.5,19.1196,1.26031,-2.76461
649,19.136,1.26562,-2.76495
649.5,19.1529,1.27128,-2.76627
650,19.1694,1.2663,-2.76647
650.5,19.1857,1.2694,-2.76772
651,19.2023,1.27016,-2.76764
651.5,19.2187,1.26575,-2.76763
652,19.2353,1.27887,-2.76852
652.5,19.2516,1.2775,-2.76893
653,19.2682,1.27091,-2.76897
653.5,19.2848,1.26518,-2.76938
654,19.3013,1.26796,-2.77026
654.5,19.318,1.27025,-2.77025
655,19.3343,1.27168,-2.77109
655.5,19.3504,1.27137,-2.77169
656,19.3674,1.26482,-2.77298
656.5,19.384,1.26367,-2.77322
657,19.4006,1.26487,-2.7748
657.5,19.4167,1.25773,-2.77474
658,19.4333,1.2558,-2.77479
658.5,19.4499,1.25136,-2.77607
659,19.4665,1.25214,-2.77608
659.5,19.4829,1.25313,-2.77564
660,19.4993,1.25352,-2.77544
660.5,19.5158,1.24759,-2.77597
661,19.5327,1.24568,-2.77688
661.5,19.5491,1.24881,-2.77687
662,19.5657,1.24693,-2.7774
662.5,19.582,1.2468,-2.77821
663,19.5982,1.2406,-2.77763
663.5,19.6152,1.23748,-2.77687
664,19.632,1.23276,-2.77837
664.5,19.6486,1.23518,-2.77849
665,19.6652,1.22891,-2.77993
665.5,19.6814,1.23391,-2.78029
666,19.6983,1.24949,-2.78192
666.5,19.7149,1.25172,-2.78275
667,19.7311,1.24561,-2.78272
667.5,19.7474,1.24505,-2.78388
668,19.7643,1.24355,-2.78397
668.5,19.7806,1.24469,-2.78398
669,19.7973,1.24937,-2.78442
669.5,19.8135,1.2437,-2.78535
670,19.8304,1.23961,-2.7853
670.5,19.8468,1.2364,-2.7843
671,19.8634,1.23954,-2.78543
671.5,19.8798,1.23213,-2.78531
672,19.8962,1.22867,-2.78533
672.5,19.9128,1.2287,-2.78553
673,19.9294,1.22626,-2.78662
673.5,19.9457,1.22627,-2.78653
674,19.9621,1.21347,-2.78776
674.5,19.9791,1.20465,-2.78795
675,19.9956,1.2021,-2.78825
675.5,20.012,1.20139,-2.7893
676,20.0286,1.20316,-2.78926
676.5,20.0452,1.20297,-2.78925
677,20.0617,1.19425,-2.78975
677.5,20.0784,1.1895,-2.79061
678,20.0947,1.18648,-2.79058
678.5,20.1111,1.18278,-2.79101
679,20.1278,1.18064,-2.79194
679.5,20.1443,1.17406,-2.79186
680,20.161,1.16415,-2.79264
680.5,20.1773,1.16591,-2.79325
681,20.1939,1.15836,-2.79341
681.5,20.2106,1.15782,-2.79455
682,20.2269,1.15752,-2.79451
682.5,20.2434,1.15306,-2.79518
683,20.26,1.14013,-2.79566
683.5,20.2763,1.13478,-2.7952
684,20.2931,1.13557,-2.79521
684.5,20.3096,1.12984,-2.79649
685,20.3261,1.12735,-2.79649
685.5,20.3427,1.12495,-2.79652
686,20.359,1.12215,-2.79646
686.5,20.3759,1.11768,-2.79777
687,20.3923,1.11548,-2.79782
687.5,20.4088,1.11219,-2.79782
688,20.4253,1.10417,-2.79777
688.5,20.4417,1.10342,-2.79862
689,20.4582,1.09117,-2.79916
689.5,20.4748,1.08336,-2.79914
690,20.4914,1.08125,-2.79912
690.5,20.5081,1.07649,-2.79995
691,20.5243,1.07067,-2.80047
691.5,20.5411,1.06823,-2.80047
692,20.5577,1.06406,-2.80038
692.5,20.5741,1.04538,-2.80169
693,20.5906,1.05084,-2.80178
693.5,20.6071,1.05291,-2.80173
694,20.6237,1.04273,-2.80273
694.5,20.6403,1.03908,-2.80309
695,20.6566,1.036,-2.80309
695.5,20.6735,1.02761,-2.80309
696,20.6896,1.02165,-2.80309
696.5,20.7063,1.01804,-2.80307
697,20.7228,1.00855,-2.80306
697.5,20.7395,1.0034,-2.80331
698,20.7559,0.998041,-2.80375
698.5,20.7726,0.991129,-2.80376
699,20.7891,0.987576,-2.80371
699.5,20.8054,0.973511,-2.80501
700,20.8221,0.967677,-2.80507
700.5,20.8383,0.961906,-2.80509
701,20.8552,0.956231,-2.80542
701.5,20.8717,0.950831,-2.80544
702,20.8879,0.937871,-2.80541
702.5,20.9048,0.933944,-2.80541
703,20.9214,0.929762,-2.80545
703.5,20.9378,0.921888,-2.80662
704,20.9545,0.914367,-2.80665
704.5,20.9711,0.908247,-2.80746
705,20.9873,0.900057,-2.80806
705.5,21.0039,0.8964,-2.80797
706,21.0205,0.891068,-2.80906
706.5,21.0373,0.882751,-2.80936
707,21.0539,0.876907,-2.80935
707.5,21.0706,0.868032,-2.80935
708,21.0868,0.862229,-2.80935
708.5,21.1034,0.854533,-2.80934
709,21.1202,0.849188,-2.8097
709.5,21.1365,0.843253,-2.81074
710,21.1529,0.827174,-2.81067
710.5,21.1698,0.823322,-2.81065
711,21.1863,0.822788,-2.81033
711.5,21.2026,0.805647,-2.81035
712,21.2195,0.792232,-2.81032
712.5,21.236,0.786014,-2.8116
713,21.2524,0.781929,-2.8116
713.5,21.2691,0.779147,-2.81256
714,21.2859,0.77457,-2.81299
714.5,21.3023,0.772163,-2.81307
715,21.3187,0.764232,-2.81424
715.5,21.3353,0.758568,-2.81428
716,21.352,0.753645,-2.8143
716.5,21.3683,0.737126,-2.81548
717,21.3851,0.727563,-2.81558
717.5,21.4017,0.724876,-2.81559
718,21.4182,0.718103,-2.8155
718.5,21.4351,0.709163,-2.81542
719,21.4516,0.706353,-2.81561
719.5,21.468,0.690315,-2.81561
720,21.4845,0.687607,-2.81561
720.5,21.5014,0.678376,-2.81561
721,21.518,0.671088,-2.8158
721.5,21.5342,0.670375,-2.81703
722,21.5504,0.663696,-2.81693
722.5,21.5675,0.651228,-2.81693
723,21.5842,0.637163,-2.81692
723.5,21.6008,0.633471,-2.81733
724,21.6172,0.625148,-2.8183
724.5,21.6342,0.619286,-2.81825
725,21.6508,0.614773,-2.81865
725.5,21.667,0.604364,-2.81961
726,21.684,0.593575,-2.81956
726.5,21.7003,0.589329,-2.81955
727,21.7169,0.586921,-2.82022
727.5,21.7337,0.572905,-2.8209
728,21.7502,0.569764,-2.8196
728.5,21.7669,0.560592,-2.81951
729,21.7835,0.558517,-2.8205
729.5,21.8005,0.544266,-2.82088
730,21.8167,0.536463,-2.82088
730.5,21.8336,0.526396,-2.82089
731,21.85,0.523619,-2.82088
731.5,21.8667,0.513007,-2.82205
732,21.8835,0.508423,-2.82219
732.5,21.9003,0.497486,-2.8222
733,21.9165,0.487127,-2.8222
733.5,21.9332,0.483346,-2.82216
734,21.95,0.477593,-2.82286
734.5,21.9665,0.470935,-2.82355
735,21.9831,0.458116,-2.82351
735.5,21.9999,0.452724,-2.82351
736,22.0166,0.445423,-2.82351
736.5,22.0333,0.442484,-2.82347
737,22.05,0.427995,-2.82417
737.5,22.0665,0.41455,-2.82486
738,22.0833,0.412361,-2.82483
738.5,22.0997,0.402761,-2.82514
739,22.1167,0.395514,-2.82622
739.5,22.1331,0.38162,-2.82616
740,22.1497,0.376152,-2.82615
740.5,22.1666,0.363459,-2.82606
741,22.1831,0.358368,-2.82738
741.5,22.2001,0.357092,-2.82653
742,22.2168,0.351356,-2.82615
742.5,22.2332,0.345079,-2.82616
743,22.25,0.340994,-2.82615
743.5,22.2665,0.327798,-2.8273
744,22.2833,0.328976,-2.82746
744.5,22.3001,0.323446,-2.82746
745,22.3168,0.319963,-2.82863
745.5,22.3333,0.312574,-2.82877
746,22.3502,0.301272,-2.82878
746.5,22.3669,0.3,-2.82985
747,22.3837,0.299766,-2.83015
747.5,22.4,0.295013,-2.82905
748,22.417,0.2899,-2.82878
748.5,22.4338,0.280138,-2.82878
749,22.4508,0.267437,-2.82878
749.5,22.4672,0.268952,-2.82879
750,22.484,0.26135,-2.82897
750.5,22.5011,0.248774,-2.83013
751,22.5174,0.242549,-2.83026
751.5,22.5343,0.237016,-2.8325
752,22.5509,0.228728,-2.83273
752.5,22.5678,0.227127,-2.83273
753,22.5842,0.220352,-2.83264
753.5,22.6008,0.219325,-2.83321
754,22.6179,0.215746,-2.83272
754.5,22.6345,0.200346,-2.83272
755,22.6516,0.187946,-2.8332
755.5,22.6682,0.184659,-2.83408
756,22.6845,0.176328,-2.83406
756.5,22.7016,0.169922,-2.83405
757,22.7183,0.166285,-2.83405
757.5,22.7351,0.1625,-2.83396
758,22.7515,0.155046,-2.83515
758.5,22.7685,0.149749,-2.83537
759,22.7851,0.142906,-2.83536
759.5,22.8018,0.129707,-2.83534
760,22.8189,0.124771,-2.83625
760.5,22.8359,0.118034,-2.83668
761,22.8524,0.111035,-2.83667
761.5,22.8692,0.114752,-2.83661
762,22.8861,0.112457,-2.83582
762.5,22.903,0.105991,-2.83712
763,22.9193,0.0983196,-2.83702
763.5,22.936,0.0947347,-2.83702
764,22.953,0.096774,-2.83702
764.5,22.9698,0.090431,-2.83733
765,22.9866,0.0834314,-2.8384
765.5,23.0034,0.0755083,-2.83831
766,23.0202,0.0778148,-2.83901
766.5,23.0371,0.0703894,-2.83968
767,23.0537,0.0667607,-2.83966
767.5,23.0708,0.0679115,-2.83965
768,23.0873,0.0587106,-2.83956
768.5,23.1043,0.0518034,-2.84089
769,23.121,0.0507169,-2.84097
769.5,23.1379,0.0435398,-2.84096
770,23.1544,0.0432609,-2.84089
770.5,23.1713,0.0399533,-2.84206
771,23.1881,0.0269235,-2.84229
771.5,23.205,0.024577,-2.84229
772,23.2217,0.018528,-2.84228
772.5,23.2385,0.0149083,-2.84225
773,23.2553,0.00971703,-2.84194
773.5,23.2723,0.0113042,-2.84251
774,23.2892,0.0128193,-2.84279
774.5,23.306,0.00484091,-2.84194
775,23.3227,0.00320333,-2.84195
775.5,23.3395,0.00180504,-2.84196
776,23.3566,-0.00317596,-2.84208
776.5,23.3732,-0.00669887,-2.84336
777,23.39,-0.00645074,-2.84327
777.5,23.4069,-0.00385391,-2.84327
778,23.4235,-0.00911157,-2.84323
778.5,23.4405,-0.00750816,-2.84398
779,23.4574,-0.0144377,-2.84462
779.5,23.4746,-0.0274804,-2.84462
780,23.491,-0.0281499,-2.84466
780.5,23.5079,-0.0288275,-2.84589
781,23.5248,-0.0335003,-2.84582
781.5,23.5417,-0.0334861,-2.84702
782,23.5587,-0.0381469,-2.84723
782.5,23.5755,-0.0402381,-2.84723
783,23.5923,-0.0368992,-2.84723
783.5,23.6091,-0.0388032,-2.84725
784,23.626,-0.0382035,-2.84666
784.5,23.6431,-0.0355571,-2.8466
785,23.6597,-0.0354737,-2.84657
785.5,23.6768,-0.0485252,-2.84744
786,23.6936,-0.0413567,-2.84719
786.5,23.7101,-0.0414622,-2.84722
787,23.7272,-0.043269,-2.84717
787.5,23.7443,-0.0419098,-2.84823
788,23.7611,-0.0357631,-2.84853
788.5,23.7781,-0.041598,-2.84854
789,23.7951,-0.0363193,-2.84854
789.5,23.812,-0.0365785,-2.84855
790,23.8288,-0.0427293,-2.84978