File: 01_Data/UEBSS/STA/N2/30K_min/UEBSS_STA_N2_30KData_240405_R2.csv
Temp./C,Time/min,DSC/(mW/mg),Mass loss/mg
60.0,0.0,1.82637,-0.00415889
60.5,0.0253582,1.89061,-0.00495672
61,0.0502636,1.94111,-0.00535267
61.5,0.0741023,1.99235,-0.00586612
62,0.0984288,2.0405,-0.00529673
62.5,0.121418,2.09774,-0.00392892
63,0.145903,2.14259,-0.00323317
63.5,0.168215,2.1867,-0.0036791
64,0.190919,2.24199,-0.00372943
64.5,0.212913,2.27767,-0.00356239
65,0.234175,2.32282,-0.00360727
65.5,0.256432,2.35904,-0.00353712
66,0.278261,2.40624,-0.00309049
66.5,0.299154,2.44699,-0.0029332
67,0.321109,2.47895,-0.00261439
67.5,0.341507,2.51449,-0.00270394
68,0.362357,2.54622,-0.00272187
68.5,0.382207,2.58313,-0.00283048
69,0.401086,2.62433,-0.00285444
69.5,0.422544,2.65751,-0.00220244
70,0.441983,2.68758,-0.00176618
70.5,0.462444,2.72429,-0.00124966
71,0.481535,2.75352,-0.0017102
71.5,0.50126,2.79018,-0.0017874
72,0.520893,2.80691,-0.00205117
72.5,0.53854,2.8384,-0.001821
73,0.558977,2.86814,-0.00202
73.5,0.577901,2.88784,-0.00214844
74,0.596877,2.91447,-0.00198404
74.5,0.615742,2.94515,-0.00273519
75,0.634239,2.96291,-0.00296852
75.5,0.653178,2.99861,-0.00388144
76,0.671669,3.01937,-0.00298652
76.5,0.690132,3.03617,-0.00304334
77,0.708222,3.05571,-0.00219684
77.5,0.726818,3.07397,-0.00315908
78,0.74534,3.09838,-0.00307388
78.5,0.763106,3.12086,-0.00462184
79,0.781339,3.13323,-0.00341516
79.5,0.798994,3.15458,-0.00412102
80,0.817707,3.17388,-0.00271405
80.5,0.835632,3.19567,-0.00349165
81,0.85313,3.2165,-0.00409157
81.5,0.87079,3.22338,-0.00434982
82,0.888583,3.2456,-0.00428085
82.5,0.906982,3.25881,-0.00419583
83,0.923077,3.27487,-0.00556981
83.5,0.94181,3.29707,-0.00436944
84,0.959452,3.30894,-0.00589686
84.5,0.976755,3.33699,-0.00554042
85,0.993949,3.33914,-0.00596434
85.5,1.01145,3.35915,-0.00592505
86,1.02877,3.37619,-0.00535191
86.5,1.04598,3.38728,-0.00593247
87,1.06296,3.3943,-0.00537741
87.5,1.08044,3.42023,-0.00520225
88,1.09752,3.42508,-0.00564899
88.5,1.11474,3.44035,-0.0058266
89,1.13199,3.45945,-0.00629693
89.5,1.14903,3.47255,-0.00769252
90,1.1656,3.47503,-0.00688953
90.5,1.18304,3.49639,-0.00690192
91,1.20033,3.50909,-0.00765286
91.5,1.21671,3.51713,-0.00683511
92,1.23291,3.53118,-0.00623814
92.5,1.24945,3.54481,-0.00618711
93,1.26674,3.56364,-0.00753083
93.5,1.2845,3.56804,-0.00668037
94,1.30078,3.5689,-0.00672246
94.5,1.31795,3.59075,-0.00753814
95,1.33484,3.60587,-0.00629297
95.5,1.35111,3.61661,-0.0062804
96,1.36825,3.63492,-0.0056773
96.5,1.38467,3.64048,-0.00493231
97,1.40138,3.64336,-0.0049257
97.5,1.41838,3.67148,-0.00500337
98,1.43474,3.67567,-0.00498263
98.5,1.45092,3.68818,-0.00493562
99,1.46826,3.69076,-0.00493288
99.5,1.48481,3.70769,-0.00491002
100,1.50112,3.71279,-0.00571712
100.5,1.51814,3.72993,-0.00615531
101,1.53443,3.73353,-0.00498129
101.5,1.55086,3.74943,-0.00495146
102,1.56751,3.76274,-0.00494071
102.5,1.58402,3.77272,-0.00493996
103,1.60046,3.78185,-0.00493467
103.5,1.61751,3.78123,-0.00489104
104,1.63368,3.79653,-0.00567604
104.5,1.65019,3.80137,-0.00505884
105,1.66593,3.81467,-0.00494005
105.5,1.68255,3.8304,-0.00493526
106,1.69956,3.83609,-0.00530026
106.5,1.71605,3.84533,-0.00494587
107,1.73226,3.85538,-0.00495906
107.5,1.74857,3.8666,-0.00496349
108,1.7654,3.87486,-0.00502736
108.5,1.78164,3.87903,-0.00618811
109,1.79809,3.89312,-0.00624716
109.5,1.81468,3.90767,-0.00625874
110,1.83118,3.91321,-0.00622976
110.5,1.84765,3.92223,-0.00605112
111,1.86383,3.93457,-0.00591643
111.5,1.88042,3.94921,-0.00661618
112,1.89695,3.94292,-0.0065934
112.5,1.91317,3.95827,-0.00658944
113,1.92932,3.96016,-0.00658296
113.5,1.94602,3.97222,-0.00658188
114,1.96219,3.98625,-0.00623853
114.5,1.97877,3.99072,-0.00625762
115,1.9951,3.99772,-0.00626006
115.5,2.01141,4.00083,-0.00626005
116,2.02797,4.01458,-0.00626007
116.5,2.04445,4.02459,-0.00626003
117,2.06053,4.03552,-0.00625501
117.5,2.0771,4.04375,-0.00622256
118,2.09326,4.05446,-0.00572714
118.5,2.10981,4.05993,-0.00632904
119,2.12639,4.07734,-0.00626395
119.5,2.14282,4.07756,-0.0062609
120,2.15868,4.08738,-0.00628461
120.5,2.17521,4.09283,-0.00632766
121,2.19135,4.0987,-0.00756819
121.5,2.2078,4.1078,-0.00757951
122,2.22342,4.11313,-0.00758023
122.5,2.24056,4.12091,-0.00758295
123,2.25625,4.13012,-0.00719432
123.5,2.27247,4.13632,-0.00619284
124,2.28903,4.15339,-0.0062529
124.5,2.30521,4.15405,-0.00626014
125,2.32185,4.17046,-0.0062601
125.5,2.33784,4.17517,-0.00626001
126,2.3538,4.1745,-0.00626
126.5,2.37013,4.18053,-0.00626
127,2.38626,4.19775,-0.00626
127.5,2.4027,4.21336,-0.00626
128,2.41871,4.21351,-0.00626
128.5,2.43482,4.2222,-0.00626
129,2.45137,4.22824,-0.00626
129.5,2.46701,4.24462,-0.00626003
130,2.48344,4.23702,-0.00625991
130.5,2.49953,4.24549,-0.00625726
131,2.51563,4.25848,-0.00660985
131.5,2.53156,4.26053,-0.00765029
132,2.54788,4.26393,-0.00761594
132.5,2.56385,4.26662,-0.00675745
133,2.58003,4.27558,-0.00625135
133.5,2.59595,4.28492,-0.00625988
134,2.61203,4.2905,-0.00626012
134.5,2.62816,4.29275,-0.00626001
135,2.64412,4.30168,-0.00626
135.5,2.66008,4.30273,-0.00626
136,2.67639,4.30987,-0.00625999
136.5,2.69215,4.32086,-0.00626012
137,2.70819,4.33055,-0.00626117
137.5,2.72429,4.33439,-0.00625713
138,2.74031,4.33878,-0.00616866
138.5,2.75588,4.34666,-0.00732577
139,2.77207,4.35361,-0.00758528
139.5,2.78824,4.35773,-0.0075803
140,2.80394,4.37105,-0.0075816
140.5,2.82018,4.3744,-0.00763903
141,2.83601,4.37778,-0.00891918
141.5,2.85182,4.38975,-0.00819737
142,2.86758,4.39305,-0.00792559
142.5,2.88352,4.39822,-0.00789794
143,2.89935,4.40269,-0.00789953
143.5,2.91469,4.41457,-0.00789999
144,2.93008,4.42239,-0.00789979
144.5,2.94607,4.42615,-0.0078992
145,2.96256,4.42735,-0.00791191
145.5,2.97849,4.44295,-0.0080073
146,2.99464,4.44818,-0.00915188
146.5,3.00965,4.45193,-0.00920494
147,3.02535,4.46352,-0.0092199
147.5,3.04098,4.46506,-0.00922023
148,3.05692,4.48023,-0.00922001
148.5,3.07331,4.48009,-0.00922
149,3.08901,4.48717,-0.00922
149.5,3.10476,4.49703,-0.00922
150,3.12082,4.50694,-0.00922
150.5,3.13637,4.50269,-0.00922
151,3.152,4.52499,-0.00922
151.5,3.16782,4.53019,-0.00922
152,3.18337,4.52985,-0.00921999
152.5,3.19912,4.5397,-0.00921994
153,3.21484,4.54963,-0.00922014
153.5,3.23067,4.55264,-0.00922418
154,3.24578,4.57443,-0.00887685
154.5,3.26185,4.57271,-0.00784367
155,3.27755,4.57991,-0.00789999
155.5,3.29349,4.59101,-0.00797697
156,3.30913,4.60582,-0.00718516
156.5,3.32454,4.60767,-0.00725637
157,3.34063,4.61597,-0.00725148
157.5,3.35563,4.62226,-0.00724991
158,3.37143,4.63861,-0.0072436
158.5,3.38712,4.64251,-0.00724115
159,3.40278,4.64626,-0.00668289
159.5,3.41843,4.66036,-0.00659554
160,3.43423,4.65948,-0.00658911
160.5,3.44987,4.67069,-0.00658987
161,3.46538,4.67887,-0.00659001
161.5,3.48089,4.68411,-0.00659
162,3.49639,4.6981,-0.00659
162.5,3.51233,4.70443,-0.00659
163,3.52744,4.71092,-0.00659
163.5,3.54363,4.71493,-0.00659
164,3.55873,4.71917,-0.00659004
164.5,3.57413,4.73312,-0.00658982
165,3.58997,4.74198,-0.00658694
165.5,3.60541,4.73544,-0.00659171
166,3.62103,4.75859,-0.00688216
166.5,3.63661,4.76767,-0.00792579
167,3.65197,4.7615,-0.00789031
167.5,3.66775,4.7796,-0.00789927
168,3.68309,4.78536,-0.00789616
168.5,3.69903,4.79489,-0.00788308
169,3.71421,4.80015,-0.0083366
169.5,3.72964,4.80334,-0.0092723
170,3.74541,4.80648,-0.00921581
170.5,3.76078,4.82203,-0.00922346
171,3.77654,4.81954,-0.00921176
171.5,3.79183,4.82502,-0.00881037
172,3.80747,4.84808,-0.00712694
172.5,3.8229,4.83804,-0.00691142
173,3.8384,4.85024,-0.00691926
173.5,3.85403,4.8645,-0.00692009
174,3.86929,4.87085,-0.00691959
174.5,3.88488,4.87612,-0.00692078
175,3.90042,4.8855,-0.00698267
175.5,3.91575,4.88852,-0.00823775
176,3.93135,4.89472,-0.00823436
176.5,3.94672,4.89775,-0.00822012
177,3.96243,4.91089,-0.0095044
177.5,3.9776,4.91936,-0.00954934
178,3.99321,4.92209,-0.00955027
178.5,4.00826,4.93024,-0.00954975
179,4.02399,4.9297,-0.0095513
179.5,4.03969,4.94581,-0.00957103
180,4.05446,4.95522,-0.00949159
180.5,4.06993,4.96443,-0.0107859
181,4.08573,4.96227,-0.0108699
181.5,4.10091,4.98099,-0.0108704
182,4.11644,4.9829,-0.01087
182.5,4.13183,4.99101,-0.01087
183,4.14729,5.01102,-0.01087
183.5,4.16274,5.00966,-0.01087
184,4.17761,5.02642,-0.01087
184.5,4.19331,5.02931,-0.01087
185,4.20841,5.03641,-0.0108698
185.5,4.22425,5.0546,-0.0108708
186,4.2393,5.05774,-0.0108845
186.5,4.2547,5.05881,-0.0108377
187,4.26999,5.06692,-0.0116015
187.5,4.28516,5.08485,-0.0115284
188,4.30041,5.08975,-0.0115288
188.5,4.31602,5.09701,-0.01153
189,4.33103,5.1035,-0.011528
189.5,4.34639,5.11018,-0.0115259
190,4.3614,5.12374,-0.0116944
190.5,4.37701,5.13275,-0.0122067
191,4.39221,5.13038,-0.0121848
191.5,4.40733,5.14168,-0.0121873
192,4.42286,5.15681,-0.0122134
192.5,4.43815,5.16483,-0.0123877
193,4.45317,5.16555,-0.0134954
193.5,4.46857,5.181,-0.0135092
194,4.48384,5.17559,-0.0135076
194.5,4.49905,5.19018,-0.0134771
195,4.51414,5.2022,-0.0140368
195.5,4.52964,5.19981,-0.0148758
196,4.54481,5.20281,-0.0148183
196.5,4.55907,5.21347,-0.0148329
197,4.57496,5.22225,-0.0147963
197.5,4.59036,5.22973,-0.015552
198,4.60545,5.22677,-0.0154794
198.5,4.6207,5.241,-0.0154787
199,4.63619,5.24498,-0.0154797
199.5,4.65121,5.25032,-0.015479
200,4.66648,5.25887,-0.015495
200.5,4.68171,5.26382,-0.0148524
201,4.69688,5.27107,-0.0151836
201.5,4.71168,5.28184,-0.0151301
202,4.72711,5.28975,-0.0151473
202.5,4.74236,5.30634,-0.0151755
203,4.75751,5.3058,-0.0152899
203.5,4.77269,5.31534,-0.0164471
204,4.78789,5.31115,-0.0164685
204.5,4.80305,5.32959,-0.0164702
205,4.81794,5.34464,-0.01647
205.5,4.83249,5.34824,-0.01647
206,4.84848,5.35389,-0.01647
206.5,4.86359,5.35939,-0.0164701
207,4.87896,5.37498,-0.0164701
207.5,4.8944,5.37696,-0.0164636
208,4.90938,5.39764,-0.016453
208.5,4.92443,5.40369,-0.0170809
209,4.93967,5.41988,-0.0185442
209.5,4.95497,5.42353,-0.0191201
210,4.96954,5.42102,-0.0191168
210.5,4.98526,5.43283,-0.0191079
211,5.00037,5.45753,-0.0190962
211.5,5.01563,5.45951,-0.0180253
212,5.03069,5.48026,-0.0178111
212.5,5.04581,5.48865,-0.0177847
213,5.06089,5.49413,-0.0177786
213.5,5.07641,5.51231,-0.0178781
214,5.09122,5.5274,-0.0175327
214.5,5.10637,5.53112,-0.0177683
215,5.12173,5.54849,-0.0177847
215.5,5.13657,5.56287,-0.0177834
216,5.15179,5.57125,-0.0177996
216.5,5.16701,5.59732,-0.0177418
217,5.1821,5.60744,-0.0178012
217.5,5.19717,5.6301,-0.0177964
218,5.21255,5.6403,-0.0179297
218.5,5.22751,5.66178,-0.0191799
219,5.24296,5.68236,-0.01909
219.5,5.25815,5.69932,-0.0190592
220,5.27307,5.7195,-0.0198509
220.5,5.28829,5.73464,-0.0204372
221,5.30355,5.77007,-0.0204292
221.5,5.3186,5.78716,-0.0204299
222,5.33379,5.80618,-0.0204298
222.5,5.34898,5.84219,-0.0204276
223,5.3643,5.86385,-0.0204384
223.5,5.37907,5.90073,-0.0205933
224,5.39479,5.93242,-0.0216998
224.5,5.40895,5.95464,-0.0220449
225,5.42487,5.99418,-0.0231464
225.5,5.43996,6.0364,-0.0230443
226,5.45551,6.07662,-0.0230428
226.5,5.47058,6.1131,-0.0238686
227,5.48609,6.17,-0.0257835
227.5,5.50096,6.21462,-0.025689
228,5.51652,6.26329,-0.0256881
228.5,5.53156,6.3296,-0.0256898
229,5.5472,6.39564,-0.0256942
229.5,5.5624,6.46543,-0.0258095
230,5.57786,6.54263,-0.0268537
230.5,5.59237,6.62532,-0.0260891
231,5.60792,6.71666,-0.0263673
231.5,5.62404,6.83069,-0.0273788
232,5.63943,6.94743,-0.0275108
232.5,5.65501,7.0846,-0.0287319
233,5.6708,7.24462,-0.0286509
233.5,5.68637,7.42445,-0.029811
234,5.70222,7.62875,-0.0302295
234.5,5.71817,7.86417,-0.0303845
235,5.73367,8.11368,-0.031497
235.5,5.75017,8.3831,-0.0315397
236,5.76623,8.63539,-0.0330823
236.5,5.78202,8.85039,-0.032927
237,5.7977,9.03084,-0.0341919
237.5,5.81339,9.1689,-0.0346363
238,5.82859,9.22064,-0.0361009
238.5,5.84369,9.23921,-0.0364803
239,5.85898,9.20107,-0.0376172
239.5,5.87346,9.13209,-0.0377024
240,5.8884,9.02362,-0.0390894
240.5,5.90302,8.87693,-0.038847
241,5.91761,8.74715,-0.0403657
241.5,5.9321,8.60932,-0.0405188
242,5.94598,8.48002,-0.0418637
242.5,5.9613,8.34507,-0.0423443
243,5.97603,8.23959,-0.0438266
243.5,5.99099,8.14701,-0.043835
244,6.00569,8.04623,-0.0453442
244.5,6.02067,7.9693,-0.0452029
245,6.03551,7.90567,-0.0464293
245.5,6.05024,7.8541,-0.0471461
246,6.06509,7.81455,-0.0486885
246.5,6.08006,7.78719,-0.050217
247,6.09511,7.7655,-0.0516568
247.5,6.10994,7.75139,-0.0530363
248,6.12517,7.74261,-0.0549544
248.5,6.14003,7.7497,-0.0555023
249,6.15537,7.76344,-0.0569562
249.5,6.17054,7.77729,-0.0586356
250,6.18537,7.80551,-0.0595789
250.5,6.20078,7.83102,-0.0608204
251,6.21587,7.86006,-0.0624736
251.5,6.23089,7.89803,-0.0632796
252,6.24635,7.94524,-0.0648509
252.5,6.26141,7.9908,-0.067025
253,6.2766,8.03775,-0.0695057
253.5,6.29171,8.10099,-0.0711814
254,6.30727,8.16665,-0.0737442
254.5,6.3224,8.22581,-0.0765005
255,6.33752,8.28926,-0.0783976
255.5,6.3528,8.35557,-0.0809981
256,6.36824,8.43248,-0.0829402
256.5,6.38364,8.51365,-0.0849452
257,6.39891,8.5875,-0.0866858
257.5,6.41451,8.6864,-0.0885381
258,6.42961,8.77024,-0.0908673
258.5,6.44511,8.86073,-0.0918522
259,6.46042,8.95661,-0.0941964
259.5,6.47569,9.04919,-0.0973921
260,6.49137,9.1478,-0.099507
260.5,6.50637,9.24893,-0.102536
261,6.52196,9.35854,-0.105648
261.5,6.53738,9.46492,-0.107727
262,6.55308,9.57536,-0.110062
262.5,6.56846,9.69824,-0.112194
263,6.58372,9.81336,-0.115554
263.5,6.59919,9.92894,-0.119021
264,6.61475,10.052,-0.121667
264.5,6.63044,10.1794,-0.125283
265,6.64579,10.3033,-0.128051
265.5,6.66157,10.4492,-0.131937
266,6.67664,10.5787,-0.13557
266.5,6.69273,10.7229,-0.14006
267,6.70786,10.8631,-0.143477
267.5,6.72374,11.0116,-0.147834
268,6.73925,11.1692,-0.151068
268.5,6.75472,11.3215,-0.155155
269,6.77064,11.4739,-0.160268
269.5,6.7861,11.6313,-0.164149
270,6.80194,11.8014,-0.169122
270.5,6.81742,11.9717,-0.173229
271,6.83341,12.1439,-0.176934
271.5,6.84902,12.312,-0.182266
272,6.86487,12.4845,-0.18672
272.5,6.88064,12.6792,-0.192363
273,6.89626,12.8624,-0.197007
273.5,6.91217,13.0491,-0.202261
274,6.92795,13.2435,-0.208544
274.5,6.94372,13.4429,-0.213188
275,6.95969,13.648,-0.219451
275.5,6.97554,13.8404,-0.225249
276,6.99114,14.0484,-0.231299
276.5,7.00717,14.2596,-0.239223
277,7.0229,14.4622,-0.245241
277.5,7.0392,14.6872,-0.253199
278,7.0546,14.8986,-0.259715
278.5,7.07072,15.1216,-0.266368
279,7.08695,15.346,-0.274603
279.5,7.10268,15.5749,-0.280969
280,7.11865,15.8025,-0.289248
280.5,7.13439,16.0233,-0.297357
281,7.15037,16.2455,-0.304533
281.5,7.16645,16.4529,-0.313598
282,7.18223,16.6779,-0.32089
282.5,7.19835,16.908,-0.330243
283,7.21438,17.1209,-0.339319
283.5,7.23022,17.328,-0.347919
284,7.24607,17.5326,-0.35836
284.5,7.2621,17.7453,-0.36639
285,7.27828,17.9457,-0.376654
285.5,7.2939,18.1365,-0.386345
286,7.30952,18.3034,-0.39547
286.5,7.32563,18.4842,-0.4074
287,7.34133,18.6367,-0.416282
287.5,7.35708,18.7891,-0.426983
288,7.37283,18.9157,-0.43766
288.5,7.38843,19.0364,-0.44728
289,7.40374,19.126,-0.459541
289.5,7.41898,19.2112,-0.468822
290,7.43468,19.2634,-0.479856
290.5,7.45031,19.2975,-0.491869
291,7.46575,19.3086,-0.501028
291.5,7.48073,19.2897,-0.512386
292,7.49581,19.2517,-0.522781
292.5,7.51079,19.1813,-0.533396
293,7.52537,19.0792,-0.54512
293.5,7.54046,18.9569,-0.553915
294,7.5548,18.7924,-0.563528
294.5,7.56946,18.6003,-0.574716
295,7.58415,18.354,-0.583579
295.5,7.59801,18.1081,-0.593933
296,7.61233,17.8071,-0.603768
296.5,7.62644,17.4805,-0.611885
297,7.6404,17.1264,-0.621603
297.5,7.65432,16.7448,-0.630357
298,7.66812,16.35,-0.638383
298.5,7.68165,15.9357,-0.647785
299,7.69509,15.5205,-0.654948
299.5,7.70901,15.0813,-0.662018
300,7.72244,14.6356,-0.669972
300.5,7.7363,14.1974,-0.676331
301,7.75,13.7516,-0.682838
301.5,7.76337,13.3195,-0.690656
302,7.77731,12.8942,-0.69662
302.5,7.79072,12.4813,-0.703012
303,7.80423,12.0762,-0.710407
303.5,7.81794,11.6693,-0.715376
304,7.83168,11.2905,-0.720663
304.5,7.84566,10.9018,-0.726448
305,7.85959,10.542,-0.730436
305.5,7.87316,10.2032,-0.73371
306,7.88705,9.86146,-0.739359
306.5,7.9008,9.54299,-0.743397
307,7.9146,9.24778,-0.748114
307.5,7.92889,8.93752,-0.752988
308,7.94267,8.66008,-0.756169
308.5,7.9564,8.40821,-0.759927
309,7.97058,8.16765,-0.763595
309.5,7.98448,7.91946,-0.766468
310,7.99932,7.68893,-0.769957
310.5,8.01341,7.48376,-0.772822
311,8.02777,7.2836,-0.77576
311.5,8.042,7.0977,-0.779305
312,8.05632,6.92217,-0.782195
312.5,8.07081,6.76018,-0.785308
313,8.0854,6.59956,-0.787463
313.5,8.09982,6.46071,-0.789958
314,8.11456,6.32929,-0.791634
314.5,8.12887,6.20312,-0.794389
315,8.14375,6.08918,-0.796521
315.5,8.15815,5.99387,-0.799089
316,8.17274,5.88025,-0.802004
316.5,8.18743,5.79755,-0.80223
317,8.20218,5.71368,-0.8041
317.5,8.21693,5.63327,-0.805719
318,8.23166,5.56359,-0.808485
318.5,8.24618,5.49306,-0.811206
319,8.26133,5.43141,-0.813816
319.5,8.27596,5.37804,-0.816618
320,8.29071,5.31215,-0.818065
320.5,8.30569,5.26223,-0.820417
321,8.32031,5.21994,-0.822357
321.5,8.33533,5.16697,-0.823557
322,8.35016,5.13486,-0.825539
322.5,8.36495,5.09835,-0.827235
323,8.3801,5.06019,-0.828786
323.5,8.39451,5.02907,-0.83078
324,8.40987,4.99961,-0.832326
324.5,8.42482,4.96811,-0.834288
325,8.43967,4.9404,-0.836412
325.5,8.45435,4.91536,-0.837606
326,8.4696,4.89517,-0.839733
326.5,8.48431,4.87323,-0.841632
327,8.49912,4.86804,-0.843175
327.5,8.51462,4.84207,-0.845515
328,8.52938,4.81443,-0.847885
328.5,8.54447,4.80461,-0.849516
329,8.55941,4.78497,-0.851776
329.5,8.57467,4.77495,-0.854491
330,8.58959,4.76019,-0.855952
330.5,8.60465,4.74453,-0.859025
331,8.61946,4.72768,-0.86086
331.5,8.63454,4.7085,-0.862856
332,8.64962,4.70953,-0.865291
332.5,8.66464,4.69989,-0.867115
333,8.6799,4.68319,-0.869238
333.5,8.6948,4.67089,-0.87177
334,8.71013,4.6597,-0.873368
334.5,8.72504,4.64945,-0.87578
335,8.74008,4.6528,-0.877762
335.5,8.75533,4.63335,-0.878581
336,8.77036,4.62768,-0.879839
336.5,8.78554,4.6126,-0.881984
337,8.80052,4.60692,-0.883342
337.5,8.81566,4.6064,-0.885183
338,8.83085,4.59828,-0.88748
338.5,8.84581,4.59832,-0.889273
339,8.86123,4.57765,-0.89159
339.5,8.8762,4.57587,-0.89291
340,8.89128,4.57274,-0.893575
340.5,8.90678,4.56301,-0.896927
341,8.92175,4.5568,-0.899215
341.5,8.93688,4.54789,-0.902258
342,8.95198,4.54059,-0.904791
342.5,8.96727,4.52948,-0.906074
343,8.98257,4.52888,-0.907883
343.5,8.99738,4.52028,-0.909777
344,9.01282,4.51343,-0.911419
344.5,9.02803,4.5047,-0.912983
345,9.0428,4.50527,-0.915416
345.5,9.05831,4.49191,-0.917699
346,9.07353,4.48459,-0.920126
346.5,9.08834,4.47573,-0.922464
347,9.10417,4.47546,-0.924581
347.5,9.11901,4.46622,-0.927414
348,9.13421,4.46309,-0.929072
348.5,9.14954,4.46334,-0.931426
349,9.16472,4.45961,-0.934496
349.5,9.17979,4.43837,-0.93536
350,9.19523,4.43541,-0.937932
350.5,9.2105,4.43856,-0.940293
351,9.2256,4.42631,-0.942158
351.5,9.24081,4.42156,-0.943796
352,9.25616,4.42435,-0.945175
352.5,9.27141,4.42162,-0.946516
353,9.28657,4.41075,-0.948633
353.5,9.30216,4.40014,-0.951229
354,9.31742,4.40761,-0.953013
354.5,9.33271,4.39924,-0.955499
355,9.34767,4.39029,-0.957482
355.5,9.36312,4.38144,-0.959742
356,9.37827,4.3762,-0.961941
356.5,9.39385,4.36967,-0.963862
357,9.40875,4.36961,-0.966434
357.5,9.42398,4.36195,-0.968306
358,9.43968,4.35421,-0.970744
358.5,9.45492,4.35295,-0.973665
359,9.47003,4.3573,-0.975187
359.5,9.48542,4.34293,-0.977026
360,9.50069,4.33426,-0.978412
360.5,9.51597,4.33047,-0.980284
361,9.53144,4.32733,-0.982948
361.5,9.54668,4.32264,-0.985038
362,9.56201,4.31187,-0.987323
362.5,9.57732,4.30843,-0.989315
363,9.59252,4.3103,-0.991103
363.5,9.608,4.28921,-0.994078
364,9.62342,4.29147,-0.995685
364.5,9.63863,4.28698,-0.998035
365,9.65404,4.28412,-1.00032
365.5,9.66914,4.27633,-1.00108
366,9.68471,4.2718,-1.00342
366.5,9.70006,4.26621,-1.00561
367,9.7156,4.26239,-1.0077
367.5,9.73064,4.26275,-1.01024
368,9.74636,4.24783,-1.01175
368.5,9.76153,4.24007,-1.01368
369,9.77707,4.23452,-1.01538
369.5,9.79194,4.23479,-1.01686
370,9.80776,4.22911,-1.0189
370.5,9.82287,4.22237,-1.02095
371,9.83837,4.21036,-1.02355
371.5,9.85384,4.21049,-1.0261
372,9.86907,4.20843,-1.02971
372.5,9.88472,4.20383,-1.03179
373,9.89985,4.18699,-1.03366
373.5,9.91563,4.19207,-1.0358
374,9.93075,4.18474,-1.03742
374.5,9.94617,4.16874,-1.03905
375,9.96153,4.16769,-1.04142
375.5,9.97694,4.1627,-1.0441
376,9.99213,4.16583,-1.04565
376.5,10.0077,4.15361,-1.04783
377,10.0232,4.15487,-1.04969
377.5,10.0385,4.15854,-1.05165
378,10.0535,4.14099,-1.05362
378.5,10.069,4.15018,-1.05576
379,10.0846,4.13366,-1.05761
379.5,10.1,4.13165,-1.05977
380,10.1158,4.13016,-1.06166
380.5,10.1312,4.12138,-1.06267
381,10.1466,4.11869,-1.06525
381.5,10.1623,4.11316,-1.06686
382,10.1776,4.11173,-1.06915
382.5,10.1931,4.11127,-1.07165
383,10.2088,4.10017,-1.073
383.5,10.2239,4.1006,-1.07456
384,10.2394,4.09142,-1.0765
384.5,10.2547,4.09034,-1.07815
385,10.2703,4.09131,-1.07975
385.5,10.2857,4.07907,-1.08215
386,10.3012,4.08393,-1.08455
386.5,10.316,4.07394,-1.08569
387,10.3319,4.07668,-1.08747
387.5,10.3479,4.07661,-1.08943
388,10.3631,4.07929,-1.0912
388.5,10.379,4.07627,-1.09301
389,10.3943,4.07508,-1.09559
389.5,10.4098,4.06931,-1.09769
390,10.4254,4.06522,-1.09912
390.5,10.4407,4.06513,-1.10112
391,10.4564,4.05846,-1.10199
391.5,10.4718,4.06101,-1.10358
392,10.4873,4.05866,-1.10434
392.5,10.5028,4.05949,-1.10617
393,10.5185,4.05932,-1.10738
393.5,10.5342,4.05189,-1.1088
394,10.5496,4.05105,-1.11032
394.5,10.5652,4.04921,-1.11195
395,10.5808,4.04782,-1.11339
395.5,10.5962,4.04779,-1.1148
396,10.6119,4.04744,-1.11637
396.5,10.6269,4.04791,-1.11769
397,10.643,4.04386,-1.11819
397.5,10.6586,4.03624,-1.11925
398,10.674,4.02591,-1.12063
398.5,10.6896,4.03126,-1.12241
399,10.7053,4.02624,-1.12298
399.5,10.7207,4.02923,-1.12532
400,10.7364,4.02159,-1.12694
400.5,10.752,4.01596,-1.12862
401,10.7677,4.0162,-1.1292
401.5,10.7833,4.00475,-1.13048
402,10.7989,4.00601,-1.13177
402.5,10.8145,3.99936,-1.13299
403,10.8299,3.98028,-1.13452
403.5,10.8457,3.98417,-1.13605
404,10.8611,3.98812,-1.13732
404.5,10.8767,3.98123,-1.13857
405,10.8925,3.97719,-1.14013
405.5,10.9079,3.97609,-1.14134
406,10.9235,3.96775,-1.14199
406.5,10.9392,3.95423,-1.14327
407,10.9549,3.95368,-1.14466
407.5,10.9704,3.95258,-1.14613
408,10.986,3.94753,-1.14718
408.5,11.0018,3.94346,-1.14818
409,11.0172,3.93731,-1.14957
409.5,11.0331,3.94106,-1.1505
410,11.0485,3.93814,-1.15208
410.5,11.0643,3.93106,-1.15348
411,11.08,3.93383,-1.15485
411.5,11.0956,3.9179,-1.15623
412,11.1112,3.91314,-1.15787
412.5,11.127,3.91793,-1.15926
413,11.1423,3.90501,-1.16031
413.5,11.1583,3.90043,-1.16059
414,11.1738,3.898,-1.16211
414.5,11.1894,3.89874,-1.1632
415,11.2053,3.89319,-1.16465
415.5,11.2208,3.89725,-1.16676
416,11.236,3.88622,-1.16856
416.5,11.252,3.88582,-1.1697
417,11.2676,3.87757,-1.17191
417.5,11.2832,3.88704,-1.17319
418,11.2991,3.87959,-1.17519
418.5,11.3146,3.87337,-1.17718
419,11.3304,3.87535,-1.17828
419.5,11.346,3.87496,-1.17788
420,11.3617,3.88121,-1.17854
420.5,11.3777,3.88807,-1.17895
421,11.3933,3.8768,-1.17981
421.5,11.4087,3.88069,-1.17964
422,11.4244,3.87347,-1.18089
422.5,11.4405,3.88626,-1.18213
423,11.4559,3.87956,-1.18174
423.5,11.4716,3.89378,-1.18348
424,11.4875,3.87622,-1.18377
424.5,11.5033,3.87773,-1.18403
425,11.5188,3.8786,-1.18572
425.5,11.5343,3.88695,-1.18669
426,11.55,3.88504,-1.18618
426.5,11.5656,3.88111,-1.18741
427,11.5816,3.88582,-1.18805
427.5,11.5972,3.89512,-1.18915
428,11.6129,3.89344,-1.19004
428.5,11.6288,3.89515,-1.19083
429,11.6447,3.89353,-1.19249
429.5,11.66,3.89405,-1.19304
430,11.6754,3.90544,-1.19443
430.5,11.6916,3.91241,-1.19571
431,11.7074,3.92347,-1.19602
431.5,11.723,3.91291,-1.19738
432,11.7388,3.92785,-1.19775
432.5,11.7549,3.92514,-1.19894
433,11.7703,3.9271,-1.19935
433.5,11.7862,3.9356,-1.20037
434,11.8019,3.93309,-1.20159
434.5,11.8174,3.94722,-1.20258
435,11.8334,3.94879,-1.20426
435.5,11.8489,3.94614,-1.20648
436,11.8642,3.95928,-1.20792
436.5,11.88,3.957,-1.20738
437,11.8965,3.96663,-1.20831
437.5,11.9124,3.9773,-1.20986
438,11.9284,3.98055,-1.21093
438.5,11.9437,3.98724,-1.21108
439,11.9596,4.00171,-1.21247
439.5,11.9756,3.99633,-1.21224
440,11.9914,4.01058,-1.21295
440.5,12.007,4.02118,-1.21444
441,12.023,4.0272,-1.21597
441.5,12.0388,4.03566,-1.21733
442,12.0545,4.0423,-1.21886
442.5,12.07,4.05988,-1.22019
443,12.0863,4.05983,-1.22107
443.5,12.1018,4.06674,-1.22246
444,12.1176,4.08452,-1.22486
444.5,12.133,4.09695,-1.22733
445,12.1488,4.10702,-1.22853
445.5,12.1655,4.11678,-1.23
446,12.1808,4.12526,-1.23172
446.5,12.1972,4.14452,-1.23329
447,12.2127,4.1505,-1.23476
447.5,12.2288,4.16919,-1.23619
448,12.2444,4.18404,-1.23783
448.5,12.2604,4.20437,-1.23974
449,12.2762,4.2151,-1.24159
449.5,12.2924,4.23028,-1.24338
450,12.3082,4.25174,-1.24484
450.5,12.3239,4.2668,-1.24662
451,12.34,4.28672,-1.24765
451.5,12.3561,4.30627,-1.24926
452,12.3718,4.32001,-1.25052
452.5,12.3875,4.34829,-1.25164
453,12.4037,4.35621,-1.25375
453.5,12.4194,4.36603,-1.25484
454,12.4351,4.39553,-1.25649
454.5,12.4512,4.41155,-1.25903
455,12.4673,4.4448,-1.26104
455.5,12.483,4.45595,-1.263
456,12.4988,4.47816,-1.26601
456.5,12.5151,4.50999,-1.26822
457,12.5305,4.52379,-1.27028
457.5,12.547,4.54582,-1.27372
458,12.5624,4.56007,-1.27568
458.5,12.5787,4.58874,-1.27873
459,12.5945,4.60884,-1.28184
459.5,12.6106,4.63368,-1.28384
460,12.6269,4.65885,-1.28695
460.5,12.6426,4.67481,-1.29044
461,12.6586,4.69564,-1.29305
461.5,12.6744,4.72368,-1.29563
462,12.6908,4.74269,-1.29904
462.5,12.7066,4.77373,-1.30183
463,12.7228,4.80091,-1.30567
463.5,12.7386,4.82988,-1.30909
464,12.7545,4.85741,-1.31323
464.5,12.7705,4.88491,-1.31701
465,12.7868,4.92218,-1.32198
465.5,12.8025,4.95346,-1.32543
466,12.8186,4.99482,-1.32955
466.5,12.8348,5.01722,-1.33356
467,12.8506,5.06493,-1.33783
467.5,12.8661,5.10241,-1.34324
468,12.8823,5.14445,-1.34776
468.5,12.8983,5.18511,-1.35326
469,12.9153,5.22738,-1.35858
469.5,12.931,5.276,-1.36333
470,12.9471,5.31443,-1.36924
470.5,12.9631,5.35788,-1.37376
471,12.9792,5.39817,-1.37988
471.5,12.9957,5.44504,-1.38684
472,13.0117,5.48526,-1.39292
472.5,13.0276,5.52675,-1.39969
473,13.044,5.57406,-1.40552
473.5,13.0597,5.6192,-1.41301
474,13.0754,5.66883,-1.41931
474.5,13.0917,5.71379,-1.42556
475,13.1077,5.76189,-1.43292
475.5,13.124,5.80654,-1.43939
476,13.1403,5.85682,-1.44815
476.5,13.1565,5.91151,-1.45563
477,13.1723,5.96331,-1.46308
477.5,13.1887,5.9908,-1.47093
478,13.2055,6.04757,-1.47885
478.5,13.2214,6.09674,-1.48864
479,13.2376,6.13763,-1.49643
479.5,13.2536,6.19011,-1.50492
480,13.2701,6.22449,-1.5154
480.5,13.286,6.26352,-1.52378
481,13.3026,6.30784,-1.5354
481.5,13.3183,6.35736,-1.54466
482,13.3348,6.38566,-1.55589
482.5,13.3507,6.43274,-1.56761
483,13.3674,6.46951,-1.57703
483.5,13.3831,6.49854,-1.58847
484,13.3999,6.54257,-1.59889
484.5,13.4154,6.5757,-1.61118
485,13.4318,6.59589,-1.62544
485.5,13.4482,6.62281,-1.63719
486,13.4638,6.64679,-1.65097
486.5,13.4802,6.6765,-1.66209
487,13.4965,6.6909,-1.67532
487.5,13.5126,6.70442,-1.68904
488,13.5285,6.72104,-1.70089
488.5,13.5449,6.73617,-1.71666
489,13.5611,6.74883,-1.72726
489.5,13.5773,6.76001,-1.74185
490,13.5932,6.75128,-1.75561
490.5,13.6094,6.75381,-1.7673
491,13.6252,6.75906,-1.78319
491.5,13.6416,6.7569,-1.79527
492,13.6578,6.73961,-1.80893
492.5,13.6737,6.72557,-1.82316
493,13.6897,6.70381,-1.83681
493.5,13.7058,6.68081,-1.85415
494,13.7218,6.65211,-1.86685
494.5,13.7377,6.62255,-1.88361
495,13.754,6.58698,-1.89914
495.5,13.7697,6.53757,-1.91254
496,13.7858,6.50504,-1.92923
496.5,13.8016,6.45445,-1.94183
497,13.8175,6.39045,-1.95758
497.5,13.8333,6.34053,-1.973
498,13.8496,6.27404,-1.98698
498.5,13.8653,6.19272,-2.00414
499,13.8812,6.1317,-2.01672
499.5,13.897,6.05146,-2.03234
500,13.9129,5.96409,-2.04782
500.5,13.9288,5.87832,-2.06089
501,13.9446,5.80262,-2.07639
501.5,13.9602,5.70234,-2.08752
502,13.9759,5.60311,-2.10066
502.5,13.9918,5.49775,-2.11424
503,14.0076,5.40021,-2.12589
503.5,14.0233,5.28975,-2.13997
504,14.0388,5.18364,-2.15029
504.5,14.0548,5.05901,-2.16214
505,14.0704,4.94757,-2.17511
505.5,14.0858,4.83544,-2.18557
506,14.1014,4.71241,-2.19881
506.5,14.117,4.59006,-2.20876
507,14.1328,4.47205,-2.21891
507.5,14.1485,4.33508,-2.23002
508,14.1642,4.21259,-2.23831
508.5,14.1794,4.07236,-2.24762
509,14.1952,3.94972,-2.25573
509.5,14.211,3.82451,-2.26351
510,14.2261,3.71886,-2.27223
510.5,14.2417,3.59134,-2.27958
511,14.2572,3.48355,-2.28662
511.5,14.2734,3.36788,-2.29354
512,14.289,3.27613,-2.29945
512.5,14.305,3.18051,-2.30682
513,14.3206,3.10254,-2.31156
513.5,14.3364,3.02057,-2.31637
514,14.3524,2.95045,-2.32074
514.5,14.368,2.88859,-2.32322
515,14.3838,2.82514,-2.32726
515.5,14.3998,2.76901,-2.33058
516,14.4157,2.71288,-2.33367
516.5,14.4317,2.67189,-2.33683
517,14.4473,2.62593,-2.33956
517.5,14.4634,2.5756,-2.34098
518,14.4792,2.55019,-2.3427
518.5,14.4952,2.51726,-2.34427
519,14.5112,2.47242,-2.34631
519.5,14.5275,2.44106,-2.34813
520,14.5433,2.40399,-2.34888
520.5,14.5591,2.3781,-2.34987
521,14.5752,2.35071,-2.35011
521.5,14.5904,2.32915,-2.3514
522,14.607,2.28593,-2.35226
522.5,14.6234,2.2716,-2.35337
523,14.6393,2.2497,-2.35504
523.5,14.6555,2.23369,-2.35604
524,14.6715,2.20715,-2.35699
524.5,14.6878,2.18611,-2.35695
525,14.7037,2.1723,-2.35811
525.5,14.7196,2.15836,-2.35825
526,14.7361,2.13933,-2.35828
526.5,14.752,2.13397,-2.35973
527,14.768,2.11751,-2.35974
527.5,14.7844,2.11051,-2.36083
528,14.8005,2.10515,-2.36092
528.5,14.8165,2.0881,-2.35997
529,14.8329,2.08553,-2.36028
529.5,14.8488,2.08239,-2.36089
530,14.8649,2.06647,-2.36089
530.5,14.8814,2.05941,-2.36089
531,14.8969,2.05781,-2.36089
531.5,14.9134,2.05233,-2.36089
532,14.9297,2.05276,-2.3611
532.5,14.946,2.04055,-2.36328
533,14.9619,2.03972,-2.36318
533.5,14.9782,2.03939,-2.36319
534,14.9946,2.0354,-2.36345
534.5,15.0102,2.03961,-2.3646
535,15.0267,2.03338,-2.36453
535.5,15.0425,2.02826,-2.36567
536,15.0595,2.02163,-2.36551
536.5,15.0755,2.02025,-2.36457
537,15.0916,2.01353,-2.3652
537.5,15.1075,2.01662,-2.36594
538,15.1233,2.01796,-2.36594
538.5,15.1403,2.00525,-2.36594
539,15.1565,2.01052,-2.36592
539.5,15.1725,2.00749,-2.36591
540,15.189,2.00183,-2.36465
540.5,15.2053,1.99941,-2.36492
541,15.2214,1.99414,-2.36602
541.5,15.2376,1.99468,-2.36595
542,15.2537,2.00191,-2.36594
542.5,15.2704,1.99188,-2.36594
543,15.2866,1.99068,-2.36594
543.5,15.3027,1.9866,-2.36594
544,15.319,1.99048,-2.36594
544.5,15.335,1.99706,-2.36594
545,15.3515,1.98826,-2.36593
545.5,15.3677,1.98911,-2.36647
546,15.3839,1.98272,-2.36728
546.5,15.4004,1.97778,-2.36726
547,15.4166,1.98289,-2.36725
547.5,15.4329,1.98585,-2.36724
548,15.4495,1.98801,-2.36771
548.5,15.4656,1.98925,-2.36862
549,15.4817,1.98999,-2.36857
549.5,15.4981,1.99343,-2.36857
550,15.5142,1.983,-2.36859
550.5,15.5306,1.99705,-2.36902
551,15.5467,1.99853,-2.36989
551.5,15.5631,1.99434,-2.36988
552,15.5793,2.00354,-2.36996
552.5,15.5957,2.0064,-2.36865
553,15.6121,2.01373,-2.36857
553.5,15.6285,2.01384,-2.36857
554,15.6447,2.02415,-2.36857
554.5,15.661,2.02167,-2.36857
555,15.6773,2.03221,-2.36857
555.5,15.6936,2.03586,-2.36857
556,15.71,2.03929,-2.36857
556.5,15.7263,2.04974,-2.36857
557,15.7428,2.04884,-2.36857
557.5,15.7588,2.05472,-2.36853
558,15.7753,2.05537,-2.3692
558.5,15.7917,2.06622,-2.36993
559,15.8082,2.07576,-2.36989
559.5,15.8245,2.07874,-2.36989
560,15.8407,2.07853,-2.36989
560.5,15.8571,2.08592,-2.36988
561,15.8732,2.09303,-2.36983
561.5,15.8896,2.10245,-2.37084
562,15.9062,2.10256,-2.37257
562.5,15.9224,2.1031,-2.37251
563,15.9387,2.1051,-2.37253
563.5,15.9551,2.10728,-2.37253
564,15.9714,2.12226,-2.37347
564.5,15.9879,2.12495,-2.37382
565,16.0043,2.12434,-2.37384
565.5,16.0207,2.12753,-2.37384
566,16.0371,2.12818,-2.37384
566.5,16.0533,2.12012,-2.3738
567,16.0697,2.12286,-2.37483
567.5,16.0861,2.12634,-2.37484
568,16.1024,2.12312,-2.3738
568.5,16.119,2.11973,-2.37385
569,16.1349,2.112,-2.37389
569.5,16.1515,2.11387,-2.37304
570,16.1681,2.10515,-2.3725
570.5,16.1842,2.10171,-2.37252
571,16.2007,2.10412,-2.37252
571.5,16.217,2.09397,-2.37252
572,16.2329,2.09249,-2.37252
572.5,16.25,2.09391,-2.37252
573,16.2664,2.0904,-2.37252
573.5,16.2826,2.0863,-2.37252
574,16.299,2.08452,-2.37252
574.5,16.3152,2.08031,-2.37253
575,16.3318,2.07227,-2.37312
575.5,16.3482,2.07224,-2.37384
576,16.3647,2.06881,-2.37384
576.5,16.3811,2.06379,-2.37389
577,16.3974,2.05139,-2.37304
577.5,16.414,2.04627,-2.3725
578,16.4303,2.04487,-2.37252
578.5,16.4468,2.03799,-2.37252
579,16.4632,2.02819,-2.37254
579.5,16.4798,2.02661,-2.37289
580,16.4964,2.02412,-2.37384
580.5,16.5127,2.01428,-2.37384
581,16.5291,2.01797,-2.37384
581.5,16.5453,2.01036,-2.37384
582,16.5619,1.99769,-2.37384
582.5,16.5785,1.99536,-2.37384
583,16.5951,1.98267,-2.37375
583.5,16.6113,1.96647,-2.37234
584,16.6277,1.97132,-2.37241
584.5,16.6436,1.95362,-2.37195
585,16.6607,1.94843,-2.37109
585.5,16.677,1.93009,-2.3711
586,16.6936,1.92679,-2.3711
586.5,16.7102,1.91542,-2.3711
587,16.7264,1.90583,-2.3711
587.5,16.7431,1.90654,-2.3711
588,16.7594,1.89716,-2.3711
588.5,16.7761,1.90144,-2.37109
589,16.7925,1.88957,-2.37098
589.5,16.8091,1.88645,-2.37304
590,16.8255,1.88119,-2.37375
590.5,16.8419,1.8776,-2.37374
591,16.8587,1.87531,-2.37374
591.5,16.875,1.86469,-2.37374
592,16.8916,1.86842,-2.37384
592.5,16.9084,1.85547,-2.37515
593,16.9249,1.864,-2.37505
593.5,16.9412,1.85437,-2.37504
594,16.9578,1.85663,-2.37533
594.5,16.9743,1.85765,-2.37608
595,16.9909,1.8455,-2.37603
595.5,17.0074,1.8397,-2.37599
596,17.0242,1.83668,-2.37617
596.5,17.0405,1.8358,-2.37597
597,17.0568,1.83075,-2.37649
597.5,17.0738,1.82888,-2.37646
598,17.0902,1.82653,-2.3775
598.5,17.107,1.81687,-2.37789
599,17.1237,1.8276,-2.3779
599.5,17.1398,1.81705,-2.3779
600,17.1564,1.80645,-2.3779
600.5,17.173,1.81485,-2.3779
601,17.1899,1.8123,-2.3779
601.5,17.2055,1.8082,-2.3779
602,17.2228,1.80371,-2.37794
602.5,17.2395,1.80082,-2.37723
603,17.2561,1.79422,-2.37655
603.5,17.2728,1.78817,-2.37658
604,17.2892,1.7927,-2.37658
604.5,17.3057,1.78426,-2.37658
605,17.3225,1.78554,-2.37659
605.5,17.339,1.78556,-2.37658
606,17.3555,1.77212,-2.37771
606.5,17.3723,1.77704,-2.37789
607,17.3888,1.76832,-2.3779
607.5,17.4053,1.76917,-2.3779
608,17.4219,1.76993,-2.3779
608.5,17.4383,1.75911,-2.3779
609,17.4553,1.75721,-2.37698
609.5,17.4718,1.75946,-2.3766
610,17.4882,1.74699,-2.37658
610.5,17.505,1.74366,-2.37659
611,17.5216,1.74121,-2.37662
611.5,17.5382,1.7452,-2.37572
612,17.5548,1.74234,-2.37526
612.5,17.5717,1.74773,-2.37522
613,17.5882,1.73266,-2.37614
613.5,17.6047,1.72948,-2.3766
614,17.6214,1.7381,-2.3766
614.5,17.6382,1.73132,-2.3766
615,17.6548,1.72113,-2.37655
615.5,17.6713,1.72622,-2.37786
616,17.688,1.72899,-2.37791
616.5,17.7047,1.72792,-2.37791
617,17.7212,1.71399,-2.37791
617.5,17.7377,1.72313,-2.37791
618,17.7545,1.71701,-2.37786
618.5,17.7711,1.70979,-2.37863
619,17.7879,1.7128,-2.3789
619.5,17.8043,1.71093,-2.37889
620,17.8211,1.70291,-2.37889
620.5,17.8377,1.70944,-2.37889
621,17.8547,1.69638,-2.37889
621.5,17.8711,1.69984,-2.37889
622,17.8879,1.69992,-2.37889
622.5,17.9042,1.69648,-2.37891
623,17.9212,1.69096,-2.37853
623.5,17.9375,1.68666,-2.37856
624,17.9543,1.68485,-2.37856
624.5,17.9707,1.68025,-2.37857
625,17.9878,1.67919,-2.3786
625.5,18.0042,1.67858,-2.37767
626,18.021,1.66874,-2.37759
626.5,18.0376,1.66961,-2.37757
627,18.0544,1.67139,-2.37757
627.5,18.071,1.66667,-2.37757
628,18.0877,1.65857,-2.37755
628.5,18.1043,1.6571,-2.37811
629,18.1211,1.65951,-2.37905
629.5,18.1378,1.648,-2.37896
630,18.1544,1.64974,-2.37988
630.5,18.1711,1.65039,-2.38032
631,18.1873,1.65178,-2.38029
631.5,18.2044,1.64689,-2.38118
632,18.2211,1.63288,-2.38175
632.5,18.2375,1.63614,-2.38249
633,18.2541,1.62152,-2.38341
633.5,18.271,1.63738,-2.38339
634,18.2874,1.6319,-2.38381
634.5,18.3042,1.62128,-2.38476
635,18.3209,1.61931,-2.38466
635.5,18.3378,1.62341,-2.38554
636,18.3542,1.62636,-2.38604
636.5,18.3712,1.62386,-2.38603
637,18.3877,1.62605,-2.38603
637.5,18.4042,1.62163,-2.38603
638,18.4206,1.61747,-2.38603
638.5,18.4378,1.62017,-2.38603
639,18.4544,1.62356,-2.38603
639.5,18.4708,1.62275,-2.38603
640,18.4877,1.61354,-2.38494
640.5,18.5044,1.62422,-2.38473
641,18.5212,1.61705,-2.38471
641.5,18.5377,1.61978,-2.3847
642,18.5543,1.62573,-2.38453
642.5,18.5714,1.62487,-2.38328
643,18.5881,1.62642,-2.38335
643.5,18.6039,1.62616,-2.38232
644,18.6213,1.61761,-2.38197
644.5,18.638,1.62072,-2.38197
645,18.6547,1.62404,-2.38197
645.5,18.6715,1.61228,-2.38197
646,18.6879,1.60635,-2.38197
646.5,18.7046,1.62206,-2.38196
647,18.7214,1.6141,-2.38143
647.5,18.738,1.62471,-2.38064
648,18.7547,1.61488,-2.38065
648.5,18.7714,1.60972,-2.38065
649,18.7881,1.61234,-2.38065
649.5,18.805,1.6119,-2.38064
650,18.8214,1.60789,-2.38061
650.5,18.8383,1.60918,-2.37969
651,18.8551,1.60366,-2.37966
651.5,18.8715,1.61075,-2.37966
652,18.8884,1.61536,-2.37966
652.5,18.9051,1.6094,-2.37993
653,18.9217,1.60196,-2.38126
653.5,18.9386,1.60182,-2.38087
654,18.9552,1.61039,-2.38096
654.5,18.9719,1.60659,-2.37961
655,18.9885,1.60044,-2.37973
655.5,19.0054,1.60573,-2.37894
656,19.0221,1.60561,-2.37694
656.5,19.0382,1.60129,-2.3767
657,19.0548,1.60368,-2.3768
657.5,19.0713,1.59394,-2.3768
658,19.0883,1.59476,-2.37742
658.5,19.1058,1.59812,-2.37823
659,19.1221,1.5996,-2.37824
659.5,19.139,1.5972,-2.37823
660,19.1556,1.59859,-2.37823
660.5,19.1725,1.58943,-2.37823
661,19.1888,1.59152,-2.37823
661.5,19.2058,1.59615,-2.37825
662,19.2224,1.59535,-2.37832
662.5,19.2391,1.59153,-2.3795
663,19.2558,1.59442,-2.37954
663.5,19.2728,1.58943,-2.37955
664,19.2892,1.58826,-2.37955
664.5,19.3062,1.58262,-2.38051
665,19.3228,1.57745,-2.38079
665.5,19.3396,1.57378,-2.38181
666,19.3561,1.5836,-2.38231
666.5,19.373,1.5753,-2.38296
667,19.3896,1.57835,-2.38373
667.5,19.4062,1.57334,-2.38373
668,19.4229,1.56768,-2.38483
668.5,19.4398,1.57016,-2.38504
669,19.4559,1.56389,-2.38505
669.5,19.4726,1.55931,-2.38633
670,19.4899,1.55822,-2.38634
670.5,19.5064,1.56515,-2.38634
671,19.5234,1.56133,-2.38712
671.5,19.5401,1.56291,-2.38768
672,19.5566,1.55199,-2.38767
672.5,19.5737,1.55061,-2.38767
673,19.5903,1.55215,-2.38768
673.5,19.6067,1.55032,-2.38722
674,19.6236,1.54698,-2.38619
674.5,19.6405,1.5489,-2.38624
675,19.657,1.54581,-2.38509
675.5,19.6738,1.53916,-2.38498
676,19.6903,1.54269,-2.38506
676.5,19.7073,1.53667,-2.38644
677,19.7241,1.54212,-2.38642
677.5,19.7406,1.53874,-2.3873
678,19.7571,1.53884,-2.38744
678.5,19.7743,1.53591,-2.38739
679,19.7908,1.5351,-2.38817
679.5,19.8076,1.53275,-2.38811
680,19.8244,1.5372,-2.38811
680.5,19.8412,1.54415,-2.38811
681,19.858,1.53701,-2.38812
681.5,19.8745,1.53582,-2.38946
682,19.8913,1.52853,-2.3896
682.5,19.9076,1.53547,-2.39093
683,19.9247,1.54063,-2.39086
683.5,19.9417,1.52853,-2.39017
684,19.9584,1.53497,-2.38954
684.5,19.9754,1.53532,-2.38954
685,19.9922,1.53488,-2.38954
685.5,20.0086,1.53914,-2.38954
686,20.0256,1.52979,-2.38954
686.5,20.0422,1.52918,-2.38941
687,20.059,1.52398,-2.38811
687.5,20.0757,1.51521,-2.38869
688,20.0918,1.52702,-2.38959
688.5,20.1093,1.52669,-2.38954
689,20.1259,1.53211,-2.38933
689.5,20.1431,1.52539,-2.38814
690,20.1596,1.52703,-2.38821
690.5,20.1764,1.52435,-2.387
691,20.1931,1.52466,-2.38693
691.5,20.2101,1.51811,-2.38687
692,20.2271,1.51667,-2.38769
692.5,20.2435,1.5158,-2.3883
693,20.2609,1.5119,-2.38731
693.5,20.2774,1.50429,-2.38676
694,20.2943,1.51326,-2.38771
694.5,20.3109,1.50665,-2.38721
695,20.3277,1.51021,-2.38679
695.5,20.3447,1.5096,-2.38705
696,20.3615,1.50958,-2.38819
696.5,20.3784,1.50084,-2.38774
697,20.395,1.51132,-2.38663
697.5,20.4119,1.49882,-2.38676
698,20.4287,1.50146,-2.38562
698.5,20.4458,1.49618,-2.38537
699,20.4626,1.50216,-2.38523
699.5,20.4792,1.50213,-2.38396
700,20.4962,1.49776,-2.38405
700.5,20.5134,1.50142,-2.38405
701,20.5298,1.49077,-2.38405
701.5,20.5466,1.49257,-2.38405
702,20.5639,1.49394,-2.38405
702.5,20.5804,1.50425,-2.38405
703,20.5973,1.49804,-2.38405
703.5,20.6143,1.49796,-2.38405
704,20.6311,1.49848,-2.38405
704.5,20.6478,1.48641,-2.38405
705,20.6646,1.49127,-2.38406
705.5,20.6818,1.48797,-2.38468
706,20.6987,1.48743,-2.38685
706.5,20.7155,1.47964,-2.38678
707,20.7324,1.48587,-2.38801
707.5,20.7494,1.47561,-2.38836
708,20.7664,1.48879,-2.39116
708.5,20.783,1.46894,-2.39157
709,20.8,1.47731,-2.39276
709.5,20.8169,1.46869,-2.39358
710,20.8339,1.48079,-2.39405
710.5,20.8509,1.47244,-2.39402
711,20.8671,1.47519,-2.39393
711.5,20.8844,1.476,-2.39264
712,20.9016,1.47604,-2.39262
712.5,20.9183,1.48117,-2.39262
713,20.9354,1.47912,-2.39262
713.5,20.9524,1.47309,-2.39261
714,20.9693,1.48538,-2.3926
714.5,20.9862,1.48041,-2.39141
715,21.0032,1.4846,-2.39122
715.5,21.0201,1.49159,-2.39252
716,21.0369,1.4868,-2.39261
716.5,21.0541,1.48724,-2.39269
717,21.0709,1.49437,-2.39149
717.5,21.0878,1.49771,-2.39118
718,21.1047,1.49453,-2.3902
718.5,21.1218,1.49681,-2.38978
719,21.1387,1.5007,-2.38976
719.5,21.1558,1.50242,-2.38976
720,21.1727,1.50514,-2.38976
720.5,21.1895,1.50132,-2.38976
721,21.2065,1.50021,-2.38976
721.5,21.2235,1.50804,-2.38976
722,21.2401,1.50296,-2.38976
722.5,21.2573,1.505,-2.38976
723,21.2739,1.50709,-2.38976
723.5,21.2913,1.50454,-2.38975
724,21.3083,1.50741,-2.38971
724.5,21.3251,1.50568,-2.3907
725,21.3415,1.50418,-2.39109
725.5,21.3592,1.51633,-2.39108
726,21.376,1.50649,-2.39108
726.5,21.3929,1.49936,-2.39093
727,21.4098,1.49985,-2.38966
727.5,21.4271,1.49752,-2.38976
728,21.4439,1.48957,-2.38976
728.5,21.4609,1.4963,-2.38975
729,21.4779,1.49647,-2.38972
729.5,21.4949,1.47887,-2.39068
730,21.5117,1.48652,-2.39108
730.5,21.5287,1.48256,-2.39108
731,21.5456,1.48008,-2.39108
731.5,21.5626,1.48212,-2.39109
732,21.5795,1.47877,-2.3912
732.5,21.5969,1.48324,-2.3914
733,21.6138,1.47505,-2.39141
733.5,21.6306,1.48542,-2.39141
734,21.6474,1.4736,-2.3914
734.5,21.6641,1.48069,-2.39127
735,21.6809,1.48396,-2.38998
735.5,21.6982,1.47425,-2.38999
736,21.7153,1.48421,-2.38978
736.5,21.7326,1.4864,-2.38958
737,21.7495,1.4829,-2.38965
737.5,21.7663,1.47745,-2.38965
738,21.7831,1.48893,-2.38956
738.5,21.8003,1.47919,-2.3909
739,21.8171,1.47766,-2.39105
739.5,21.8342,1.48234,-2.39238
740,21.8514,1.4795,-2.39229