File: 01_Data/UEBSS/STA/N2/30K_min/UEBSS_STA_N2_30KData_240404_R1.csv
Temp./C,Time/min,DSC/(mW/mg),Mass loss/mg
60.0,0.0,1.71797,-0.0203166
60.5,0.0255107,1.77287,-0.02114
61,0.050266,1.8286,-0.0205358
61.5,0.0747999,1.87402,-0.0206812
62,0.0989487,1.92695,-0.0204312
62.5,0.122446,1.97753,-0.019818
63,0.145059,2.01267,-0.0199975
63.5,0.167966,2.06485,-0.0205048
64,0.191152,2.1138,-0.021482
64.5,0.212484,2.15683,-0.0222518
65,0.234623,2.19405,-0.0222955
65.5,0.256527,2.24596,-0.0221162
66,0.277414,2.27708,-0.0219864
66.5,0.298735,2.30907,-0.0214055
67,0.319289,2.35457,-0.0209522
67.5,0.340082,2.37789,-0.0204712
68,0.360545,2.41301,-0.0212701
68.5,0.381339,2.45176,-0.0217801
69,0.401593,2.48261,-0.0214394
69.5,0.420986,2.51875,-0.0212765
70,0.441683,2.55301,-0.0210099
70.5,0.459458,2.57328,-0.0205581
71,0.480026,2.60916,-0.0204054
71.5,0.500088,2.63096,-0.0213783
72,0.518731,2.6514,-0.0212519
72.5,0.538039,2.6922,-0.0215704
73,0.557059,2.72316,-0.022117
73.5,0.576166,2.74092,-0.0223219
74,0.595617,2.76277,-0.0228426
74.5,0.613454,2.78848,-0.0236717
75,0.632165,2.81315,-0.0223597
75.5,0.650588,2.83771,-0.0218266
76,0.669782,2.85656,-0.0215273
76.5,0.688345,2.87604,-0.0219517
77,0.706676,2.90439,-0.0213281
77.5,0.72416,2.92396,-0.0218298
78,0.742492,2.94647,-0.0216513
78.5,0.761244,2.96612,-0.0203379
79,0.778935,2.98253,-0.0216237
79.5,0.79743,2.99719,-0.0206189
80,0.815198,3.01283,-0.0220135
80.5,0.83275,3.03783,-0.0211029
81,0.851061,3.05422,-0.0222313
81.5,0.868524,3.07304,-0.0215396
82,0.886396,3.08795,-0.0222051
82.5,0.903611,3.09467,-0.0229191
83,0.921135,3.12149,-0.022254
83.5,0.938653,3.1277,-0.0223973
84,0.956934,3.14818,-0.0223237
84.5,0.973757,3.16535,-0.0223677
85,0.991271,3.1726,-0.0233103
85.5,1.0085,3.18325,-0.0221906
86,1.02543,3.20021,-0.0225773
86.5,1.04317,3.2133,-0.0226358
87,1.06045,3.22502,-0.0224153
87.5,1.07778,3.23628,-0.0221602
88,1.09483,3.24905,-0.0222184
88.5,1.11162,3.25712,-0.0219686
89,1.12904,3.27649,-0.0222273
89.5,1.14584,3.29048,-0.0222549
90,1.16256,3.29878,-0.0222564
90.5,1.17972,3.30876,-0.0221517
91,1.1967,3.31961,-0.0218618
91.5,1.21356,3.32809,-0.0208114
92,1.23044,3.34209,-0.0216884
92.5,1.24705,3.34782,-0.0220436
93,1.26373,3.3638,-0.0209718
93.5,1.28081,3.37007,-0.0224052
94,1.29772,3.38594,-0.0224073
94.5,1.31403,3.39057,-0.023681
95,1.33083,3.39491,-0.0236999
95.5,1.34779,3.41542,-0.0236632
96,1.36402,3.41492,-0.0240375
96.5,1.38089,3.42591,-0.0237571
97,1.39761,3.4447,-0.0237232
97.5,1.41424,3.44715,-0.0230563
98,1.43073,3.45725,-0.0233177
98.5,1.44759,3.46012,-0.0236809
99,1.46402,3.46667,-0.0237022
99.5,1.48048,3.47946,-0.0237253
100,1.49669,3.49064,-0.0226026
100.5,1.51338,3.49961,-0.0224179
101,1.53006,3.51273,-0.0228547
101.5,1.54653,3.52744,-0.0237138
102,1.56264,3.53611,-0.0237096
102.5,1.57858,3.54719,-0.0237139
103,1.59598,3.54998,-0.0237305
103.5,1.6123,3.55973,-0.0241264
104,1.62897,3.56296,-0.0232906
104.5,1.64544,3.57166,-0.0237113
105,1.66119,3.58179,-0.0237031
105.5,1.67838,3.59438,-0.0237164
106,1.6946,3.5974,-0.0237863
106.5,1.71113,3.60705,-0.0227375
107,1.72775,3.61481,-0.0230055
107.5,1.74403,3.63002,-0.0240415
108,1.75996,3.63616,-0.024038
108.5,1.77687,3.63935,-0.024041
109,1.79312,3.65047,-0.0240359
109.5,1.80948,3.65655,-0.0249404
110,1.82604,3.66299,-0.025166
110.5,1.84225,3.67719,-0.0250499
111,1.85862,3.69032,-0.0254171
111.5,1.87496,3.68311,-0.0263402
112,1.89146,3.69948,-0.026337
112.5,1.90761,3.70883,-0.0264415
113,1.9241,3.71245,-0.0251582
113.5,1.94032,3.72091,-0.0250295
114,1.95682,3.72096,-0.0250298
114.5,1.9731,3.73386,-0.0250301
115,1.98928,3.73807,-0.0250293
115.5,2.00589,3.75169,-0.0250172
116,2.02227,3.75528,-0.0249828
116.5,2.0387,3.76102,-0.0238046
117,2.05471,3.77109,-0.0241566
117.5,2.07112,3.77567,-0.0250729
118,2.08746,3.77913,-0.0250379
118.5,2.10388,3.79755,-0.0250316
119,2.12031,3.79292,-0.0249768
119.5,2.13653,3.81094,-0.0259339
120,2.15274,3.81358,-0.0263498
120.5,2.16908,3.81473,-0.0263433
121,2.18504,3.82546,-0.0263402
121.5,2.20166,3.82471,-0.0263401
122,2.2179,3.82906,-0.0263417
122.5,2.23411,3.83533,-0.0263436
123,2.25038,3.84875,-0.0262473
123.5,2.26646,3.85982,-0.0275334
124,2.2829,3.86244,-0.0276604
124.5,2.29898,3.86599,-0.0276604
125,2.31522,3.86497,-0.0276599
125.5,2.33135,3.88693,-0.0276599
126,2.34743,3.8841,-0.0276687
126.5,2.364,3.89185,-0.0270356
127,2.38001,3.89694,-0.0263229
127.5,2.39648,3.89335,-0.026334
128,2.41254,3.90741,-0.0263397
128.5,2.42891,3.91566,-0.0263402
129,2.44448,3.91415,-0.0263405
129.5,2.46103,3.92514,-0.0263334
130,2.47683,3.92013,-0.0262696
130.5,2.49303,3.92413,-0.0273246
131,2.50898,3.94088,-0.0276654
131.5,2.52499,3.93584,-0.0276604
132,2.54118,3.94642,-0.02766
132.5,2.55706,3.95437,-0.02766
133,2.57351,3.9692,-0.0276602
133.5,2.58963,3.97009,-0.0276592
134,2.60535,3.97328,-0.0276455
134.5,2.62122,3.97055,-0.0276533
135,2.63761,3.98451,-0.0267391
135.5,2.65388,3.9847,-0.0266778
136,2.66969,3.99202,-0.0278122
136.5,2.68528,4.00203,-0.0279774
137,2.70075,4.00659,-0.0279913
137.5,2.71677,4.01411,-0.0279903
138,2.73328,4.02062,-0.02799
138.5,2.74997,4.03145,-0.02799
139,2.76553,4.03558,-0.02799
139.5,2.78133,4.0345,-0.02799
140,2.79721,4.04461,-0.02799
140.5,2.81346,4.06269,-0.02799
141,2.82948,4.05929,-0.0279918
141.5,2.8453,4.06244,-0.0279985
142,2.8608,4.05915,-0.0279157
142.5,2.87694,4.0724,-0.0290727
143,2.89289,4.0745,-0.0289664
143.5,2.90867,4.09004,-0.0289678
144,2.92467,4.09938,-0.0289633
144.5,2.94014,4.10209,-0.0289844
145,2.95589,4.10987,-0.0285865
145.5,2.97216,4.11128,-0.0289361
146,2.98767,4.11644,-0.0289612
146.5,3.00355,4.12659,-0.02897
147,3.0195,4.13767,-0.0289701
147.5,3.03522,4.13776,-0.02897
148,3.05099,4.15104,-0.02897
148.5,3.06676,4.15138,-0.02897
149,3.08272,4.15529,-0.0289719
149.5,3.09821,4.15953,-0.0289762
150,3.11444,4.16334,-0.0288084
150.5,3.13008,4.1704,-0.0292596
151,3.1456,4.1824,-0.0293128
151.5,3.16163,4.1932,-0.02931
152,3.17745,4.19249,-0.029306
152.5,3.1929,4.19131,-0.0295633
153,3.20884,4.21337,-0.0307313
153.5,3.2243,4.21699,-0.0306315
154,3.24006,4.21363,-0.0306285
154.5,3.25603,4.23226,-0.0306299
155,3.27118,4.23421,-0.03063
155.5,3.28738,4.23952,-0.03063
156,3.30294,4.24466,-0.03063
156.5,3.31851,4.25033,-0.03063
157,3.33398,4.25875,-0.03063
157.5,3.34949,4.27132,-0.0306312
158,3.36498,4.26824,-0.0306328
158.5,3.38087,4.27838,-0.0305744
159,3.39652,4.29215,-0.0315254
159.5,3.41304,4.29353,-0.0319646
160,3.42861,4.30368,-0.0319533
160.5,3.44435,4.30355,-0.0319485
161,3.45997,4.30661,-0.0319535
161.5,3.47562,4.3143,-0.0320692
162,3.49103,4.32153,-0.03261
162.5,3.50672,4.33501,-0.0326045
163,3.52254,4.33605,-0.0326097
163.5,3.53808,4.34902,-0.0326101
164,3.55382,4.34952,-0.03261
164.5,3.5691,4.35837,-0.03261
165,3.58464,4.36824,-0.03261
165.5,3.60049,4.37968,-0.03261
166,3.61619,4.37591,-0.03261
166.5,3.63208,4.38564,-0.03261
167,3.64714,4.3881,-0.03261
167.5,3.66262,4.40573,-0.03261
168,3.6784,4.40843,-0.03261
168.5,3.69354,4.42089,-0.03261
169,3.7096,4.41388,-0.03261
169.5,3.72509,4.42731,-0.03261
170,3.74093,4.43564,-0.0326101
170.5,3.75655,4.43996,-0.0326101
171,3.77161,4.46019,-0.0326064
171.5,3.78727,4.45798,-0.0325921
172,3.80299,4.47135,-0.0330545
172.5,3.81836,4.46767,-0.0339665
173,3.83384,4.47849,-0.0339154
173.5,3.84941,4.47353,-0.0339191
174,3.86506,4.48802,-0.03392
174.5,3.88024,4.49395,-0.03392
175,3.89602,4.51887,-0.03392
175.5,3.91131,4.51912,-0.03392
176,3.92711,4.52798,-0.03392
176.5,3.94273,4.52962,-0.03392
177,3.95832,4.54052,-0.03392
177.5,3.97356,4.54205,-0.03392
178,3.98898,4.54981,-0.03392
178.5,4.00477,4.56413,-0.03392
179,4.02041,4.57283,-0.03392
179.5,4.0357,4.57813,-0.03392
180,4.05121,4.58874,-0.03392
180.5,4.06687,4.5856,-0.0339196
181,4.08199,4.6049,-0.0339191
181.5,4.09748,4.62049,-0.0339393
182,4.11236,4.62337,-0.0339901
182.5,4.12801,4.63345,-0.034616
183,4.14332,4.6437,-0.0345745
183.5,4.15864,4.64485,-0.0345693
184,4.17316,4.64654,-0.0345699
184.5,4.18902,4.66197,-0.03457
185,4.20453,4.67002,-0.03457
185.5,4.22057,4.67637,-0.03457
186,4.23569,4.6839,-0.0345701
186.5,4.2513,4.68581,-0.0345701
187,4.26627,4.70279,-0.0345651
187.5,4.2815,4.7195,-0.0349416
188,4.29718,4.72117,-0.0359713
188.5,4.31248,4.73225,-0.035895
189,4.32771,4.74379,-0.0358887
189.5,4.34324,4.74684,-0.0358894
190,4.35831,4.75754,-0.0358883
190.5,4.37345,4.7691,-0.0359134
191,4.38899,4.76841,-0.0360592
191.5,4.40436,4.78215,-0.0371878
192,4.41929,4.79302,-0.0372081
192.5,4.43491,4.79656,-0.0372118
193,4.45025,4.81033,-0.0372075
193.5,4.46535,4.81728,-0.03712
194,4.48096,4.82642,-0.0381746
194.5,4.49608,4.83439,-0.0385832
195,4.51154,4.82407,-0.0374402
195.5,4.52643,4.83738,-0.0375415
196,4.54197,4.8517,-0.0375419
196.5,4.55729,4.8488,-0.03754
197,4.57217,4.87679,-0.03754
197.5,4.58729,4.86599,-0.03754
198,4.60277,4.88405,-0.0375401
198.5,4.618,4.88737,-0.0375403
199,4.63328,4.89478,-0.0375326
199.5,4.64847,4.90109,-0.0375201
200,4.66285,4.89979,-0.0381751
200.5,4.67864,4.91163,-0.0388654
201,4.69413,4.93473,-0.0388541
201.5,4.70956,4.92508,-0.0388778
202,4.7243,4.9403,-0.0391418
202.5,4.73963,4.94747,-0.0401738
203,4.75486,4.95277,-0.0401786
203.5,4.77027,4.95265,-0.0401798
204,4.78541,4.96847,-0.0401806
204.5,4.80067,4.97422,-0.0401903
205,4.81565,4.99327,-0.0399908
205.5,4.83106,4.99783,-0.0404379
206,4.84609,5.0053,-0.040481
206.5,4.86111,5.01783,-0.0405011
207,4.87663,5.02425,-0.0405004
207.5,4.89186,5.0297,-0.0405
208,4.90694,5.04073,-0.0405
208.5,4.92241,5.04709,-0.0405
209,4.93728,5.05196,-0.0405001
209.5,4.95243,5.07508,-0.0405005
210,4.96729,5.08753,-0.0404931
210.5,4.98318,5.09798,-0.0404599
211,4.99818,5.10437,-0.041212
211.5,5.01367,5.11886,-0.0418276
212,5.02894,5.13051,-0.0418191
212.5,5.04383,5.14803,-0.0418199
213,5.05928,5.16506,-0.0418196
213.5,5.07432,5.17515,-0.0418156
214,5.08973,5.17762,-0.0420539
214.5,5.10527,5.19974,-0.0432221
215,5.12004,5.20799,-0.0435616
215.5,5.13513,5.2181,-0.0441707
216,5.15062,5.24667,-0.0441333
216.5,5.16604,5.25618,-0.0441293
217,5.18087,5.27089,-0.0441299
217.5,5.19628,5.29164,-0.0441265
218,5.21123,5.31112,-0.0441282
218.5,5.2263,5.32863,-0.0444136
219,5.24177,5.34971,-0.0454704
219.5,5.25703,5.36918,-0.0454399
220,5.27185,5.39013,-0.0454532
220.5,5.28765,5.41082,-0.0453525
221,5.30277,5.42986,-0.0465538
221.5,5.31789,5.46646,-0.0467644
222,5.33319,5.48681,-0.0467593
222.5,5.34842,5.51061,-0.046764
223,5.36369,5.54841,-0.046827
223.5,5.37891,5.57334,-0.0475866
224,5.39413,5.60866,-0.0484622
224.5,5.40953,5.64563,-0.0484014
225,5.42464,5.67752,-0.0483515
225.5,5.43971,5.71431,-0.0492478
226,5.4548,5.76222,-0.0507067
226.5,5.47029,5.79811,-0.0510558
227,5.48591,5.84451,-0.0510497
227.5,5.50041,5.89611,-0.0510551
228,5.51599,5.9637,-0.0513124
228.5,5.53165,6.01859,-0.0523872
229,5.54712,6.08738,-0.0523522
229.5,5.5625,6.15175,-0.0523427
230,5.57781,6.23228,-0.0530311
230.5,5.59337,6.33297,-0.0536882
231,5.60887,6.42904,-0.0536715
231.5,5.62416,6.54818,-0.054336
232,5.64001,6.6751,-0.0541849
232.5,5.65544,6.81754,-0.0537287
233,5.6715,6.99261,-0.0551334
233.5,5.68731,7.1811,-0.0550347
234,5.70302,7.41134,-0.0559308
234.5,5.71911,7.64843,-0.0564494
235,5.73475,7.89722,-0.0566203
235.5,5.75086,8.15048,-0.0578429
236,5.76659,8.37789,-0.0589949
236.5,5.78275,8.57511,-0.0602994
237,5.79856,8.74857,-0.0606293
237.5,5.81408,8.85886,-0.0608449
238,5.82934,8.9219,-0.0620061
238.5,5.84461,8.92992,-0.0620353
239,5.8598,8.8862,-0.0634477
239.5,5.87373,8.82103,-0.0635348
240,5.88836,8.71836,-0.0648664
240.5,5.90393,8.5764,-0.0651755
241,5.91827,8.45001,-0.0664816
241.5,5.93295,8.30141,-0.0666863
242,5.94774,8.17473,-0.0670314
242.5,5.96267,8.03525,-0.0669794
243,5.97747,7.92096,-0.0682762
243.5,5.99203,7.83976,-0.0692736
244,6.0068,7.75003,-0.0702515
244.5,6.02176,7.6764,-0.0719415
245,6.03664,7.61621,-0.0725135
245.5,6.05169,7.56292,-0.0736989
246,6.06623,7.52811,-0.0749327
246.5,6.08152,7.4864,-0.0774066
247,6.09649,7.46721,-0.078345
247.5,6.11108,7.45018,-0.0802541
248,6.12572,7.4563,-0.0813117
248.5,6.14115,7.45546,-0.0824632
249,6.15677,7.47224,-0.0842654
249.5,6.1717,7.4822,-0.0861237
250,6.18706,7.51127,-0.0875481
250.5,6.20189,7.54413,-0.0888265
251,6.21736,7.57035,-0.0909059
251.5,6.23258,7.62394,-0.093336
252,6.24793,7.66081,-0.0947793
252.5,6.26278,7.71287,-0.0958217
253,6.27839,7.76419,-0.0975993
253.5,6.29348,7.83285,-0.099483
254,6.3088,7.89223,-0.101319
254.5,6.32385,7.95416,-0.10239
255,6.33925,8.0308,-0.103932
255.5,6.35396,8.09439,-0.106403
256,6.36925,8.17137,-0.108206
256.5,6.38458,8.25087,-0.111025
257,6.40069,8.33198,-0.114651
257.5,6.41618,8.42955,-0.116678
258,6.43112,8.51775,-0.119341
258.5,6.44686,8.60918,-0.121799
259,6.46196,8.70323,-0.123596
259.5,6.47748,8.80106,-0.126252
260,6.49282,8.91202,-0.128536
260.5,6.50799,9.02087,-0.131396
261,6.52307,9.1238,-0.133748
261.5,6.53857,9.23362,-0.136601
262,6.55444,9.34693,-0.140697
262.5,6.56956,9.45815,-0.143525
263,6.58517,9.58705,-0.146853
263.5,6.60019,9.70288,-0.150446
264,6.61654,9.83544,-0.152805
264.5,6.63196,9.96669,-0.156619
265,6.64759,10.1039,-0.16078
265.5,6.66315,10.239,-0.164061
266,6.67884,10.3778,-0.167674
266.5,6.6944,10.5253,-0.172306
267,6.70987,10.6701,-0.175899
267.5,6.72541,10.8174,-0.180457
268,6.74131,10.9677,-0.184937
268.5,6.75669,11.1136,-0.188879
269,6.77218,11.2839,-0.193768
269.5,6.78795,11.4345,-0.197812
270,6.8036,11.6105,-0.203026
270.5,6.8192,11.7759,-0.209089
271,6.83489,11.9522,-0.213524
271.5,6.85071,12.1228,-0.219561
272,6.86642,12.3088,-0.224241
272.5,6.88204,12.4867,-0.229864
273,6.89809,12.6859,-0.235667
273.5,6.9139,12.8753,-0.24057
274,6.9297,13.0684,-0.246707
274.5,6.9453,13.2688,-0.251927
275,6.96143,13.4668,-0.258505
275.5,6.97668,13.6668,-0.265431
276,6.99304,13.8722,-0.271543
276.5,7.00886,14.0855,-0.279157
277,7.02454,14.291,-0.284963
277.5,7.04039,14.5061,-0.291918
278,7.05608,14.7145,-0.299482
278.5,7.0723,14.9454,-0.306278
279,7.08801,15.162,-0.314863
279.5,7.10383,15.3785,-0.321729
280,7.12009,15.6071,-0.329374
280.5,7.136,15.8323,-0.33807
281,7.15179,16.0446,-0.345449
281.5,7.16774,16.2658,-0.355118
282,7.18349,16.4873,-0.362783
282.5,7.19956,16.6951,-0.371454
283,7.21567,16.919,-0.381386
283.5,7.23131,17.1073,-0.389569
284,7.2472,17.3182,-0.400153
284.5,7.26331,17.5144,-0.408727
285,7.27879,17.7029,-0.418415
285.5,7.29505,17.8873,-0.430067
286,7.31068,18.0609,-0.438795
286.5,7.32621,18.2209,-0.449868
287,7.34223,18.3705,-0.459056
287.5,7.35774,18.506,-0.468369
288,7.37338,18.6351,-0.479394
288.5,7.38864,18.742,-0.48795
289,7.40433,18.846,-0.499449
289.5,7.4197,18.9153,-0.510078
290,7.43536,18.9655,-0.520165
290.5,7.45069,19.0128,-0.532281
291,7.46558,19.0112,-0.541515
291.5,7.4809,19.0001,-0.552203
292,7.49593,18.9686,-0.563369
292.5,7.51084,18.9132,-0.572062
293,7.52592,18.808,-0.583071
293.5,7.54059,18.6838,-0.59247
294,7.55504,18.5352,-0.601558
294.5,7.56954,18.3499,-0.612951
295,7.58417,18.1187,-0.621272
295.5,7.59839,17.8605,-0.630367
296,7.61257,17.5671,-0.640248
296.5,7.6265,17.254,-0.646745
297,7.64064,16.8934,-0.654716
297.5,7.65416,16.5031,-0.662851
298,7.66768,16.0935,-0.668921
298.5,7.68165,15.6571,-0.676533
299,7.69492,15.2173,-0.68389
299.5,7.70868,14.7541,-0.689807
300,7.7222,14.2863,-0.696818
300.5,7.7355,13.8331,-0.70386
301,7.74916,13.3702,-0.70935
301.5,7.76244,12.9149,-0.715514
302,7.77608,12.4704,-0.721463
302.5,7.78973,12.0346,-0.725856
303,7.80353,11.6009,-0.731122
303.5,7.81692,11.1959,-0.73598
304,7.83036,10.8042,-0.740032
304.5,7.84443,10.4105,-0.745465
305,7.85795,10.0508,-0.750119
305.5,7.87187,9.68634,-0.754125
306,7.8856,9.35865,-0.758517
306.5,7.89931,9.03392,-0.762084
307,7.91353,8.72268,-0.765507
307.5,7.92734,8.4224,-0.769476
308,7.94152,8.13713,-0.772527
308.5,7.95525,7.89477,-0.775633
309,7.9698,7.63996,-0.779681
309.5,7.9834,7.40915,-0.782616
310,7.99776,7.18397,-0.786305
310.5,8.01222,6.98314,-0.790367
311,8.02623,6.78539,-0.792398
311.5,8.04094,6.5982,-0.795902
312,8.05483,6.43145,-0.797531
312.5,8.06871,6.27625,-0.800538
313,8.08335,6.11596,-0.803088
313.5,8.0977,5.97438,-0.805932
314,8.11251,5.84748,-0.808458
314.5,8.12741,5.72047,-0.810904
315,8.14207,5.59767,-0.814443
315.5,8.15606,5.5058,-0.816205
316,8.17118,5.39679,-0.819105
316.5,8.18548,5.30725,-0.821313
317,8.20046,5.22199,-0.823107
317.5,8.21479,5.14526,-0.825393
318,8.22963,5.06567,-0.827924
318.5,8.24436,5.00039,-0.831186
319,8.25925,4.93838,-0.833322
319.5,8.27392,4.88158,-0.835619
320,8.28867,4.82292,-0.837995
320.5,8.3035,4.76266,-0.839544
321,8.31847,4.72012,-0.842164
321.5,8.3334,4.6692,-0.844418
322,8.34828,4.62674,-0.846952
322.5,8.36305,4.59317,-0.849253
323,8.37789,4.55703,-0.851508
323.5,8.39292,4.51101,-0.854952
324,8.40759,4.49137,-0.857744
324.5,8.42249,4.46012,-0.861157
325,8.43728,4.43757,-0.864479
325.5,8.45229,4.4081,-0.866528
326,8.467,4.38691,-0.868696
326.5,8.48211,4.36424,-0.8703
327,8.49715,4.33632,-0.872352
327.5,8.51187,4.31314,-0.874251
328,8.52694,4.29241,-0.87669
328.5,8.54211,4.28289,-0.880086
329,8.55693,4.25206,-0.881535
329.5,8.57224,4.242,-0.883615
330,8.58705,4.22727,-0.88523
330.5,8.60252,4.20602,-0.88667
331,8.61719,4.18887,-0.888807
331.5,8.63197,4.17862,-0.890993
332,8.64733,4.16501,-0.892487
332.5,8.66238,4.15425,-0.894527
333,8.67713,4.13849,-0.896425
333.5,8.69243,4.13219,-0.898058
334,8.7068,4.1212,-0.900241
334.5,8.72247,4.10052,-0.901965
335,8.73727,4.09269,-0.903927
335.5,8.75266,4.08429,-0.906688
336,8.76696,4.07467,-0.908943
336.5,8.78225,4.06605,-0.91192
337,8.79731,4.05801,-0.913332
337.5,8.81271,4.04772,-0.915423
338,8.82801,4.03969,-0.917791
338.5,8.84324,4.02451,-0.919455
339,8.85819,4.01699,-0.921687
339.5,8.8733,4.00926,-0.922956
340,8.88853,4.00316,-0.924801
340.5,8.90362,3.99817,-0.926978
341,8.91883,3.98733,-0.929427
341.5,8.93393,3.9842,-0.930223
342,8.94919,3.97872,-0.932511
342.5,8.96432,3.97975,-0.934353
343,8.97918,3.95697,-0.936165
343.5,8.9947,3.94764,-0.93853
344,9.00976,3.96018,-0.940529
344.5,9.02477,3.9428,-0.943068
345,9.04001,3.93978,-0.944561
345.5,9.05518,3.93764,-0.946255
346,9.07035,3.92772,-0.948008
346.5,9.0855,3.92677,-0.950218
347,9.10072,3.92105,-0.951987
347.5,9.11596,3.91187,-0.954791
348,9.13108,3.90588,-0.956882
348.5,9.14602,3.90662,-0.959205
349,9.16141,3.89834,-0.961527
349.5,9.17654,3.89036,-0.962829
350,9.19176,3.8845,-0.964955
350.5,9.20669,3.88746,-0.967267
351,9.22225,3.88257,-0.969171
351.5,9.23749,3.8772,-0.971469
352,9.25272,3.87061,-0.973297
352.5,9.26809,3.86693,-0.975515
353,9.28326,3.86056,-0.977576
353.5,9.29827,3.85459,-0.979664
354,9.31367,3.84895,-0.982788
354.5,9.32877,3.84725,-0.983795
355,9.34378,3.84763,-0.985929
355.5,9.35921,3.8376,-0.98812
356,9.37474,3.83059,-0.989565
356.5,9.38999,3.82111,-0.992083
357,9.4053,3.81597,-0.994311
357.5,9.42069,3.80765,-0.996569
358,9.43557,3.81065,-0.999202
358.5,9.45084,3.80268,-1.00119
359,9.4662,3.79159,-1.00383
359.5,9.48126,3.7836,-1.00565
360,9.4966,3.78617,-1.00772
360.5,9.51179,3.7732,-1.01103
361,9.52725,3.76794,-1.01359
361.5,9.54184,3.76612,-1.01604
362,9.55776,3.7575,-1.01892
362.5,9.57308,3.74154,-1.02102
363,9.58808,3.74314,-1.02365
363.5,9.60359,3.74759,-1.0258
364,9.61886,3.7334,-1.02816
364.5,9.63422,3.72794,-1.03063
365,9.64874,3.7227,-1.03278
365.5,9.66432,3.71749,-1.03573
366,9.68017,3.71954,-1.03774
366.5,9.69533,3.70358,-1.03953
367,9.71087,3.69474,-1.04226
367.5,9.72608,3.69497,-1.04386
368,9.74154,3.67795,-1.04686
368.5,9.75664,3.67795,-1.04981
369,9.77191,3.68149,-1.0518
369.5,9.7874,3.67154,-1.05412
370,9.80264,3.66462,-1.05595
370.5,9.81816,3.65887,-1.05833
371,9.83338,3.64972,-1.06069
371.5,9.84867,3.65018,-1.0626
372,9.86418,3.64754,-1.0647
372.5,9.87927,3.62808,-1.06631
373,9.89465,3.62717,-1.06831
373.5,9.90989,3.62456,-1.07062
374,9.92555,3.61512,-1.07295
374.5,9.94064,3.60234,-1.07494
375,9.95618,3.60092,-1.0775
375.5,9.97141,3.59061,-1.07934
376,9.98655,3.5808,-1.08122
376.5,10.0018,3.58179,-1.08376
377,10.0173,3.57075,-1.08518
377.5,10.0329,3.57418,-1.08688
378,10.0482,3.56785,-1.08876
378.5,10.0636,3.55341,-1.09064
379,10.0789,3.5549,-1.09246
379.5,10.0945,3.54253,-1.09445
380,10.1099,3.54508,-1.0967
380.5,10.1253,3.53357,-1.09814
381,10.1405,3.52219,-1.10031
381.5,10.1561,3.52018,-1.10235
382,10.1713,3.51502,-1.10422
382.5,10.187,3.50961,-1.10665
383,10.2023,3.50315,-1.10811
383.5,10.2179,3.50274,-1.11004
384,10.2331,3.48937,-1.11172
384.5,10.2486,3.48309,-1.11322
385,10.2641,3.48617,-1.11507
385.5,10.2797,3.47868,-1.11714
386,10.2951,3.46975,-1.11938
386.5,10.3102,3.45873,-1.12117
387,10.3256,3.459,-1.12389
387.5,10.3412,3.45515,-1.12551
388,10.3566,3.45144,-1.12723
388.5,10.3719,3.44704,-1.12929
389,10.3872,3.4442,-1.13095
389.5,10.403,3.4399,-1.13257
390,10.4183,3.44252,-1.1345
390.5,10.4339,3.43514,-1.13622
391,10.4496,3.43658,-1.13781
391.5,10.4647,3.44208,-1.13975
392,10.4804,3.42633,-1.14165
392.5,10.4959,3.43682,-1.14379
393,10.5112,3.43555,-1.14548
393.5,10.5266,3.43938,-1.14689
394,10.5424,3.43904,-1.14813
394.5,10.5576,3.43793,-1.14971
395,10.5732,3.44597,-1.15157
395.5,10.5889,3.43699,-1.15338
396,10.6038,3.42712,-1.15481
396.5,10.6201,3.43306,-1.15637
397,10.6351,3.43412,-1.1581
397.5,10.6504,3.43033,-1.15912
398,10.666,3.43496,-1.16068
398.5,10.6816,3.43454,-1.16236
399,10.6972,3.43553,-1.16409
399.5,10.7126,3.43704,-1.16679
400,10.7281,3.42933,-1.16898
400.5,10.7437,3.42737,-1.17062
401,10.7592,3.43122,-1.17222
401.5,10.7747,3.43039,-1.17378
402,10.7903,3.42317,-1.17547
402.5,10.8057,3.42183,-1.17688
403,10.8216,3.41284,-1.17848
403.5,10.837,3.41642,-1.18006
404,10.8525,3.41602,-1.18142
404.5,10.8675,3.40498,-1.18279
405,10.8831,3.40719,-1.18341
405.5,10.8989,3.40964,-1.1851
406,10.9148,3.40624,-1.18662
406.5,10.9304,3.39999,-1.18757
407,10.946,3.39101,-1.18945
407.5,10.9613,3.38977,-1.19117
408,10.9771,3.3941,-1.19242
408.5,10.9922,3.38512,-1.19347
409,11.008,3.37923,-1.1946
409.5,11.0237,3.3796,-1.19633
410,11.0392,3.36905,-1.19721
410.5,11.0548,3.37778,-1.19847
411,11.0702,3.37441,-1.20007
411.5,11.0857,3.38452,-1.20067
412,11.1014,3.37877,-1.20203
412.5,11.1169,3.3684,-1.20345
413,11.1326,3.37274,-1.20431
413.5,11.1482,3.37387,-1.20593
414,11.164,3.37265,-1.20759
414.5,11.1794,3.36166,-1.20851
415,11.1952,3.36603,-1.20917
415.5,11.2108,3.35827,-1.21087
416,11.2263,3.36727,-1.21272
416.5,11.2419,3.35501,-1.21384
417,11.2574,3.36075,-1.21547
417.5,11.2731,3.3591,-1.21723
418,11.2888,3.36127,-1.21813
418.5,11.3044,3.35638,-1.21957
419,11.3198,3.35497,-1.2211
419.5,11.3355,3.35264,-1.22141
420,11.3513,3.35951,-1.22255
420.5,11.3668,3.35729,-1.22259
421,11.3824,3.35754,-1.2239
421.5,11.3981,3.35698,-1.2235
422,11.4136,3.35764,-1.22464
422.5,11.4294,3.35552,-1.22627
423,11.4449,3.35567,-1.22719
423.5,11.4604,3.35576,-1.2279
424,11.4763,3.36292,-1.22932
424.5,11.4919,3.36064,-1.23033
425,11.5077,3.36345,-1.23192
425.5,11.5233,3.36653,-1.2336
426,11.5388,3.36512,-1.23519
426.5,11.5548,3.36196,-1.23755
427,11.5705,3.36705,-1.23842
427.5,11.5859,3.36852,-1.24002
428,11.6018,3.3672,-1.24106
428.5,11.6174,3.37532,-1.24209
429,11.6332,3.37425,-1.24384
429.5,11.6486,3.37885,-1.24414
430,11.6644,3.37898,-1.24526
430.5,11.6802,3.38628,-1.24638
431,11.6958,3.39113,-1.24729
431.5,11.7115,3.38627,-1.24902
432,11.7274,3.38761,-1.2504
432.5,11.7431,3.39348,-1.25222
433,11.759,3.40932,-1.25379
433.5,11.7737,3.40809,-1.25463
434,11.7902,3.40654,-1.25556
434.5,11.8061,3.41689,-1.25722
435,11.8217,3.41415,-1.25775
435.5,11.8374,3.43124,-1.25908
436,11.8531,3.4296,-1.26062
436.5,11.8687,3.4299,-1.26148
437,11.8847,3.44271,-1.26305
437.5,11.9001,3.44451,-1.26462
438,11.9159,3.45161,-1.26525
438.5,11.9315,3.45861,-1.2667
439,11.9476,3.46317,-1.26819
439.5,11.9632,3.48156,-1.2694
440,11.9791,3.48283,-1.27079
440.5,11.9945,3.48526,-1.27234
441,12.0105,3.49853,-1.27387
441.5,12.0261,3.50316,-1.2753
442,12.0421,3.51529,-1.27703
442.5,12.0579,3.52275,-1.27896
443,12.0736,3.52475,-1.28071
443.5,12.0897,3.5354,-1.28236
444,12.1054,3.54835,-1.28309
444.5,12.1209,3.55184,-1.28558
445,12.1372,3.56604,-1.28731
445.5,12.1521,3.57383,-1.28894
446,12.168,3.59009,-1.29068
446.5,12.1837,3.59722,-1.29226
447,12.1999,3.6203,-1.29371
447.5,12.216,3.62057,-1.29511
448,12.2316,3.63381,-1.29739
448.5,12.2476,3.64745,-1.3
449,12.2634,3.66932,-1.3022
449.5,12.2792,3.67805,-1.30419
450,12.2954,3.69923,-1.30601
450.5,12.311,3.71214,-1.30656
451,12.327,3.72907,-1.30874
451.5,12.3427,3.7527,-1.31078
452,12.3587,3.76467,-1.31306
452.5,12.3747,3.78315,-1.31612
453,12.3907,3.81203,-1.31854
453.5,12.4061,3.81401,-1.32162
454,12.4218,3.83951,-1.32496
454.5,12.4382,3.85794,-1.32657
455,12.454,3.87891,-1.32887
455.5,12.4699,3.90187,-1.33168
456,12.4858,3.91787,-1.33375
456.5,12.5018,3.94245,-1.33693
457,12.5177,3.96949,-1.34025
457.5,12.5335,3.98439,-1.34256
458,12.5494,4.00648,-1.34568
458.5,12.5656,4.03997,-1.34851
459,12.5815,4.06255,-1.35127
459.5,12.5974,4.08793,-1.35488
460,12.6131,4.11538,-1.3577
460.5,12.6293,4.14176,-1.361
461,12.6455,4.17094,-1.36439
461.5,12.6612,4.19875,-1.36738
462,12.6774,4.22555,-1.3715
462.5,12.6933,4.25919,-1.37502
463,12.7095,4.29107,-1.37828
463.5,12.7253,4.32411,-1.38269
464,12.7413,4.36353,-1.3858
464.5,12.7574,4.38138,-1.39032
465,12.773,4.42382,-1.39538
465.5,12.7895,4.45936,-1.39856
466,12.8054,4.48466,-1.40372
466.5,12.8218,4.52834,-1.4086
467,12.8375,4.5606,-1.41337
467.5,12.8537,4.60068,-1.41895
468,12.8698,4.6262,-1.42347
468.5,12.8859,4.66654,-1.4294
469,12.902,4.71819,-1.43449
469.5,12.9177,4.75189,-1.43979
470,12.9339,4.7898,-1.44641
470.5,12.9499,4.83022,-1.45166
471,12.9661,4.86474,-1.45852
471.5,12.9823,4.91469,-1.46414
472,12.9979,4.96113,-1.46986
472.5,13.0145,5.00393,-1.47719
473,13.0307,5.05694,-1.48313
473.5,13.0465,5.08981,-1.49092
474,13.0628,5.14484,-1.49745
474.5,13.0793,5.18139,-1.50483
475,13.0951,5.22851,-1.51322
475.5,13.1111,5.27117,-1.51999
476,13.1273,5.3159,-1.52878
476.5,13.1434,5.36636,-1.53576
477,13.1599,5.41247,-1.54388
477.5,13.1762,5.45836,-1.55323
478,13.1919,5.49905,-1.56084
478.5,13.2082,5.54592,-1.57155
479,13.2243,5.59226,-1.58007
479.5,13.2405,5.6343,-1.58969
480,13.2567,5.67801,-1.60086
480.5,13.2728,5.71971,-1.60926
481,13.289,5.76222,-1.6204
481.5,13.305,5.80376,-1.62903
482,13.3214,5.8353,-1.63954
482.5,13.3375,5.87909,-1.65102
483,13.3537,5.9251,-1.66149
483.5,13.3696,5.9509,-1.67444
484,13.3859,5.99191,-1.68415
484.5,13.402,6.0237,-1.69545
485,13.4182,6.05767,-1.70734
485.5,13.4344,6.09738,-1.7183
486,13.4505,6.11257,-1.73227
486.5,13.4671,6.13861,-1.74348
487,13.4828,6.16271,-1.75661
487.5,13.499,6.18758,-1.76961
488,13.515,6.20257,-1.78118
488.5,13.5312,6.22036,-1.79494
489,13.5475,6.22505,-1.80596
489.5,13.5634,6.24019,-1.81972
490,13.5792,6.2435,-1.83365
490.5,13.5957,6.2402,-1.84701
491,13.6116,6.23831,-1.86254
491.5,13.6276,6.23329,-1.87378
492,13.6437,6.21817,-1.88779
492.5,13.6601,6.20501,-1.90145
493,13.676,6.19455,-1.91402
493.5,13.6917,6.17358,-1.92958
494,13.7072,6.14048,-1.94106
494.5,13.7238,6.11541,-1.95627
495,13.7399,6.07851,-1.97004
495.5,13.7559,6.03969,-1.98287
496,13.7719,5.98336,-1.99868
496.5,13.7875,5.93883,-2.01005
497,13.8037,5.87964,-2.02405
497.5,13.8194,5.81176,-2.03766
498,13.8355,5.74895,-2.05025
498.5,13.8506,5.66889,-2.06474
499,13.8664,5.59488,-2.07608
499.5,13.8827,5.51489,-2.09036
500,13.8986,5.41907,-2.10384
500.5,13.9146,5.32199,-2.11582
501,13.9301,5.21939,-2.12994
501.5,13.9459,5.12566,-2.14042
502,13.9617,5.00964,-2.15317
502.5,13.9773,4.89907,-2.1658
503,13.9932,4.77385,-2.17645
503.5,14.009,4.66057,-2.18968
504,14.0244,4.5317,-2.1995
504.5,14.0402,4.4048,-2.21072
505,14.056,4.2605,-2.22239
505.5,14.0716,4.1284,-2.23123
506,14.0872,3.9951,-2.24221
506.5,14.1026,3.85791,-2.25094
507,14.1184,3.70419,-2.26012
507.5,14.1339,3.55725,-2.27012
508,14.1493,3.41399,-2.27728
508.5,14.1652,3.26964,-2.28669
509,14.1808,3.12757,-2.29471
509.5,14.1965,2.99327,-2.30217
510,14.2118,2.86557,-2.31027
510.5,14.2275,2.72684,-2.31543
511,14.2436,2.60283,-2.3218
511.5,14.259,2.47875,-2.32718
512,14.2746,2.37286,-2.33197
512.5,14.2903,2.25987,-2.33762
513,14.3063,2.16278,-2.34154
513.5,14.3216,2.07974,-2.34569
514,14.3378,1.99852,-2.3501
514.5,14.3536,1.92248,-2.35324
515,14.3692,1.8426,-2.35657
515.5,14.3852,1.77755,-2.35949
516,14.4009,1.7171,-2.36104
516.5,14.4169,1.64712,-2.36363
517,14.4327,1.60102,-2.36581
517.5,14.4487,1.53454,-2.36808
518,14.4646,1.49516,-2.36982
518.5,14.4807,1.4418,-2.3716
519,14.4965,1.40845,-2.3736
519.5,14.5124,1.36437,-2.37545
520,14.5285,1.32454,-2.37752
520.5,14.5442,1.29196,-2.3795
521,14.5601,1.25878,-2.381
521.5,14.576,1.23003,-2.38252
522,14.5922,1.19711,-2.38351
522.5,14.6078,1.17785,-2.3849
523,14.6241,1.15094,-2.38553
523.5,14.6401,1.1364,-2.38678
524,14.6557,1.11959,-2.3878
524.5,14.6721,1.09727,-2.38846
525,14.688,1.07912,-2.38969
525.5,14.7039,1.06446,-2.38978
526,14.7202,1.04918,-2.39077
526.5,14.736,1.04398,-2.39119
527,14.752,1.02677,-2.39117
527.5,14.7679,1.02812,-2.39112
528,14.7842,1.00895,-2.39106
528.5,14.7999,0.996584,-2.39128
529,14.8161,0.982703,-2.39109
529.5,14.832,0.986494,-2.39114
530,14.8481,0.975227,-2.39247
530.5,14.864,0.971772,-2.39273
531,14.8802,0.970929,-2.39392
531.5,14.8963,0.957629,-2.39393
532,14.9126,0.954357,-2.39394
532.5,14.9284,0.948835,-2.39384
533,14.9446,0.948916,-2.39514
533.5,14.9604,0.943973,-2.39525
534,14.9766,0.941898,-2.39524
534.5,14.9924,0.924597,-2.39571
535,15.0086,0.928577,-2.3966
535.5,15.0249,0.924798,-2.3965
536,15.0407,0.92619,-2.39748
536.5,15.0571,0.915568,-2.3987
537,15.073,0.913062,-2.39934
537.5,15.0892,0.899703,-2.39926
538,15.1052,0.906731,-2.4003
538.5,15.1215,0.896839,-2.40064
539,15.1376,0.894327,-2.4007
539.5,15.1535,0.895035,-2.40191
540,15.1697,0.894563,-2.40194
540.5,15.1857,0.895658,-2.40194
541,15.202,0.887022,-2.40194
541.5,15.2178,0.898275,-2.40194
542,15.2342,0.885787,-2.40194
542.5,15.2501,0.892956,-2.40195
543,15.2663,0.88328,-2.40221
543.5,15.2819,0.891063,-2.40328
544,15.2979,0.892327,-2.40326
544.5,15.3146,0.899028,-2.40398
545,15.331,0.887874,-2.40528
545.5,15.347,0.885553,-2.40524
546,15.3634,0.886038,-2.40524
546.5,15.3793,0.882498,-2.40516
547,15.3954,0.889736,-2.40647
547.5,15.4114,0.887588,-2.40655
548,15.4278,0.886474,-2.40655
548.5,15.4439,0.883353,-2.40653
549,15.4602,0.891247,-2.40706
549.5,15.4762,0.877458,-2.40768
550,15.4923,0.877936,-2.40853
550.5,15.5086,0.87792,-2.40865
551,15.5246,0.883084,-2.40993
551.5,15.5411,0.866683,-2.40985
552,15.5569,0.868285,-2.40993
552.5,15.5733,0.884716,-2.41124
553,15.5893,0.880097,-2.41235
553.5,15.6055,0.870076,-2.41245
554,15.6218,0.865346,-2.41248
554.5,15.6379,0.873512,-2.41248
555,15.6543,0.865793,-2.41248
555.5,15.6704,0.876495,-2.41248
556,15.6865,0.880181,-2.41256
556.5,15.7027,0.868287,-2.41386
557,15.719,0.879232,-2.41378
557.5,15.7349,0.876561,-2.41379
558,15.7514,0.874767,-2.41379
558.5,15.7674,0.87962,-2.41379
559,15.7838,0.873655,-2.41379
559.5,15.8,0.879225,-2.41379
560,15.8161,0.880163,-2.41379
560.5,15.8326,0.873866,-2.41379
561,15.8489,0.87901,-2.41379
561.5,15.8651,0.87862,-2.41379
562,15.8813,0.876944,-2.41379
562.5,15.8977,0.875921,-2.41379
563,15.9133,0.879154,-2.41379
563.5,15.9302,0.879284,-2.41379
564,15.9463,0.884638,-2.41378
564.5,15.9625,0.889011,-2.41429
565,15.9789,0.879317,-2.4152
565.5,15.9948,0.882816,-2.41617
566,16.0113,0.885336,-2.41611
566.5,16.0274,0.888429,-2.4161
567,16.0434,0.889226,-2.41631
567.5,16.0602,0.891586,-2.41642
568,16.0761,0.888506,-2.41643
568.5,16.0927,0.884455,-2.41643
569,16.1089,0.886262,-2.41643
569.5,16.1252,0.891325,-2.41643
570,16.1416,0.886504,-2.41643
570.5,16.1579,0.893784,-2.41643
571,16.174,0.890795,-2.41643
571.5,16.1904,0.889679,-2.41643
572,16.2066,0.889758,-2.41642
572.5,16.2232,0.895184,-2.41639
573,16.2394,0.906199,-2.41727
573.5,16.2556,0.90044,-2.41776
574,16.2721,0.897664,-2.41775
574.5,16.2881,0.897843,-2.41775
575,16.3045,0.906134,-2.41775
575.5,16.3207,0.897603,-2.41775
576,16.3369,0.903732,-2.41775
576.5,16.3533,0.90689,-2.41775
577,16.3698,0.918794,-2.41775
577.5,16.3861,0.91031,-2.41782
578,16.4024,0.908915,-2.41913
578.5,16.4189,0.909819,-2.41906
579,16.4349,0.918075,-2.41908
579.5,16.4515,0.920974,-2.41863
580,16.4676,0.920056,-2.4177
580.5,16.4843,0.914909,-2.41775
581,16.5003,0.923351,-2.41775
581.5,16.5169,0.923849,-2.41775
582,16.5331,0.923771,-2.41774
582.5,16.5495,0.937486,-2.41781
583,16.5659,0.938594,-2.41711
583.5,16.5821,0.940372,-2.41776
584,16.5985,0.945111,-2.41776
584.5,16.6149,0.943706,-2.41775
585,16.6316,0.94075,-2.41775
585.5,16.6477,0.946047,-2.41775
586,16.6642,0.95368,-2.41776
586.5,16.6805,0.952581,-2.41772
587,16.6969,0.957396,-2.41879
587.5,16.713,0.954968,-2.41906
588,16.7298,0.954989,-2.41907
588.5,16.7461,0.960972,-2.41907
589,16.7623,0.966608,-2.41907
589.5,16.7787,0.969594,-2.41907
590,16.7952,0.97829,-2.41907
590.5,16.8116,0.976694,-2.41907
591,16.8281,0.983177,-2.41907
591.5,16.8442,0.98492,-2.41905
592,16.8604,0.99136,-2.4197
592.5,16.8768,1.00807,-2.42171
593,16.8937,0.998839,-2.42182
593.5,16.9102,1.0147,-2.42309
594,16.9266,1.01726,-2.42317
594.5,16.9429,1.01474,-2.42476
595,16.9593,1.02861,-2.42466
595.5,16.9751,1.02595,-2.4247
596,16.9915,1.03338,-2.42601
596.5,17.0082,1.0318,-2.42598
597,17.0253,1.03989,-2.42599
597.5,17.0417,1.04553,-2.42599
598,17.0581,1.04481,-2.42599
598.5,17.0746,1.04948,-2.42599
599,17.0909,1.05768,-2.42599
599.5,17.1074,1.05343,-2.42599
600,17.1239,1.0589,-2.42599
600.5,17.1403,1.05848,-2.42599
601,17.1567,1.05889,-2.42599
601.5,17.1729,1.05742,-2.42599
602,17.1896,1.06489,-2.42599
602.5,17.2055,1.06303,-2.42599
603,17.2221,1.06804,-2.426
603.5,17.2387,1.05943,-2.42603
604,17.2557,1.06874,-2.42719
604.5,17.2721,1.06366,-2.42772
605,17.2887,1.06731,-2.42865
605.5,17.3051,1.0705,-2.42862
606,17.3216,1.06434,-2.42861
606.5,17.3381,1.06994,-2.42861
607,17.3549,1.06871,-2.42861
607.5,17.3712,1.06083,-2.42861
608,17.3876,1.06707,-2.42861
608.5,17.4043,1.06317,-2.42878
609,17.4208,1.05733,-2.42967
609.5,17.4375,1.05681,-2.42846
610,17.4538,1.05812,-2.4283
610.5,17.4703,1.04534,-2.42829
611,17.4867,1.05271,-2.42824
611.5,17.5032,1.0507,-2.42912
612,17.5195,1.05188,-2.42961
612.5,17.5362,1.05238,-2.4296
613,17.5529,1.04957,-2.4296
613.5,17.5695,1.05525,-2.4296
614,17.5858,1.05541,-2.4296
614.5,17.6023,1.0566,-2.4296
615,17.6185,1.05067,-2.42959
615.5,17.6356,1.04382,-2.4304
616,17.6519,1.04185,-2.43091
616.5,17.6684,1.0505,-2.43092
617,17.6851,1.0485,-2.43092
617.5,17.7015,1.03813,-2.43092
618,17.7183,1.03619,-2.43092
618.5,17.7348,1.0436,-2.43092
619,17.7512,1.04353,-2.43092
619.5,17.7677,1.04141,-2.4309
620,17.7844,1.0296,-2.43124
620.5,17.801,1.02485,-2.43124
621,17.8174,1.03233,-2.43125
621.5,17.8343,1.03068,-2.43125
622,17.8504,1.02838,-2.43125
622.5,17.8673,1.02605,-2.43125
623,17.8835,1.03389,-2.43125
623.5,17.9003,1.02373,-2.43125
624,17.9166,1.02368,-2.43125
624.5,17.9334,1.0232,-2.43125
625,17.9498,1.02538,-2.43125
625.5,17.9663,1.02552,-2.43125
626,17.9831,1.02335,-2.43125
626.5,17.9996,1.0184,-2.43117
627,18.0161,1.01668,-2.43291
627.5,18.0326,1.00997,-2.43389
628,18.0492,1.00591,-2.43389
628.5,18.0657,1.01671,-2.43388
629,18.0825,1.01423,-2.43386
629.5,18.0988,1.00212,-2.43467
630,18.1154,1.0027,-2.43522
630.5,18.1322,1.00071,-2.43521
631,18.1487,0.990682,-2.43521
631.5,18.1652,0.99238,-2.43521
632,18.1819,0.997414,-2.43521
632.5,18.1984,0.990536,-2.43521
633,18.2147,0.983492,-2.43521
633.5,18.2315,0.988991,-2.43521
634,18.2482,0.988134,-2.43521
634.5,18.2648,0.984339,-2.43521
635,18.2814,0.983229,-2.43521
635.5,18.2981,0.978666,-2.43636
636,18.3139,0.971915,-2.43662
636.5,18.3311,0.973512,-2.43664
637,18.3475,0.979689,-2.43792
637.5,18.3639,0.968517,-2.43795
638,18.3806,0.964758,-2.43795
638.5,18.3972,0.971416,-2.43807
639,18.4139,0.970756,-2.43952
639.5,18.4303,0.96909,-2.44059
640,18.4471,0.956545,-2.44058
640.5,18.4636,0.960586,-2.44059
641,18.4799,0.964668,-2.44059
641.5,18.4965,0.955305,-2.44059
642,18.5135,0.954929,-2.44059
642.5,18.5297,0.960411,-2.44059
643,18.5464,0.956361,-2.44059
643.5,18.5629,0.950328,-2.44059
644,18.5796,0.940772,-2.44059
644.5,18.5962,0.948043,-2.44059
645,18.6129,0.94483,-2.44059
645.5,18.6292,0.945901,-2.44059
646,18.646,0.936412,-2.44059
646.5,18.6625,0.942637,-2.44059
647,18.6786,0.939361,-2.44064
647.5,18.6951,0.939686,-2.4396
648,18.7117,0.939798,-2.43927
648.5,18.728,0.941258,-2.43927
649,18.7454,0.933295,-2.43969
649.5,18.7617,0.93857,-2.44063
650,18.7788,0.940015,-2.44058
650.5,18.7951,0.933499,-2.44058
651,18.8117,0.932009,-2.44058
651.5,18.8283,0.948342,-2.44058
652,18.8448,0.929812,-2.44058
652.5,18.8613,0.925386,-2.44058
653,18.8779,0.922255,-2.44058
653.5,18.8947,0.928557,-2.44059
654,18.911,0.930135,-2.43987
654.5,18.9278,0.928603,-2.43928
655,18.9441,0.925562,-2.43927
655.5,18.9611,0.923189,-2.43893
656,18.9775,0.924192,-2.43788
656.5,18.9939,0.92016,-2.43794
657,19.0103,0.909744,-2.43795
657.5,19.027,0.914968,-2.43795
658,19.0435,0.91708,-2.43795
658.5,19.0604,0.907347,-2.43795
659,19.0769,0.907278,-2.43795
659.5,19.0936,0.899854,-2.43795
660,19.1097,0.89425,-2.43795
660.5,19.1266,0.897026,-2.43765
661,19.1435,0.891575,-2.43816
661.5,19.1598,0.897573,-2.43827
662,19.1762,0.893591,-2.43828
662.5,19.1929,0.892603,-2.43828
663,19.2095,0.888725,-2.43834
663.5,19.2263,0.876569,-2.43801
664,19.2428,0.884807,-2.43827
664.5,19.2594,0.88196,-2.43824
665,19.2758,0.886105,-2.43932
665.5,19.2926,0.885906,-2.43959
666,19.3089,0.886563,-2.4396
666.5,19.3257,0.878212,-2.4396
667,19.3422,0.872416,-2.4396
667.5,19.359,0.881161,-2.4396
668,19.3756,0.872989,-2.4396
668.5,19.3922,0.880985,-2.4396
669,19.4089,0.876073,-2.4396
669.5,19.4251,0.86413,-2.4396
670,19.4416,0.863119,-2.4396
670.5,19.4588,0.865512,-2.4396
671,19.4749,0.850358,-2.43952
671.5,19.4917,0.857362,-2.44061
672,19.5083,0.854718,-2.44201
672.5,19.5244,0.854103,-2.44222
673,19.541,0.850338,-2.44223
673.5,19.558,0.848539,-2.44223
674,19.5746,0.84713,-2.44296
674.5,19.591,0.837023,-2.44366
675,19.6078,0.840765,-2.44395
675.5,19.6244,0.844315,-2.44362
676,19.6409,0.836346,-2.44366
676.5,19.6575,0.834905,-2.44357
677,19.674,0.832156,-2.44483
677.5,19.6909,0.833029,-2.44498
678,19.7072,0.827715,-2.44498
678.5,19.7241,0.823245,-2.44498
679,19.7406,0.821044,-2.44498
679.5,19.7568,0.825388,-2.44527
680,19.7738,0.817625,-2.4466
680.5,19.7903,0.818708,-2.44678
681,19.807,0.815056,-2.44828
681.5,19.8234,0.812524,-2.44946
682,19.8402,0.816448,-2.44936
682.5,19.857,0.818115,-2.44936
683,19.8736,0.801286,-2.44936
683.5,19.8903,0.804092,-2.44936
684,19.9068,0.80417,-2.44944
684.5,19.9236,0.799787,-2.45072
685,19.94,0.792347,-2.4493
685.5,19.9568,0.790159,-2.44938
686,19.9733,0.792691,-2.44937
686.5,19.9899,0.783313,-2.4494
687,20.0066,0.788555,-2.44828
687.5,20.0233,0.777095,-2.44806
688,20.0399,0.783847,-2.44805
688.5,20.0566,0.774422,-2.44805
689,20.0732,0.767132,-2.44805
689.5,20.0895,0.76735,-2.44803
690,20.1064,0.766314,-2.44755
690.5,20.1234,0.76412,-2.44673
691,20.1398,0.751839,-2.4467
691.5,20.1566,0.758621,-2.44738
692,20.1731,0.759816,-2.44738
692.5,20.1898,0.756007,-2.44739
693,20.2059,0.740255,-2.44739
693.5,20.2234,0.745964,-2.44739
694,20.2394,0.747282,-2.44739
694.5,20.2562,0.735244,-2.44739
695,20.2727,0.737765,-2.44739
695.5,20.2901,0.728723,-2.44739
696,20.3068,0.729147,-2.44739
696.5,20.3234,0.722811,-2.44739
697,20.3404,0.71687,-2.44739
697.5,20.3569,0.720309,-2.44739
698,20.3736,0.718614,-2.44739
698.5,20.3902,0.714418,-2.44739
699,20.407,0.707921,-2.44739
699.5,20.4236,0.706711,-2.44739
700,20.4404,0.708306,-2.44739
700.5,20.457,0.70469,-2.44739
701,20.474,0.688267,-2.44739
701.5,20.4908,0.699468,-2.44739
702,20.5071,0.693828,-2.4468
702.5,20.5242,0.69098,-2.44606
703,20.5408,0.691495,-2.44607
703.5,20.5575,0.682895,-2.44607
704,20.5742,0.680985,-2.44607
704.5,20.5909,0.676539,-2.44607
705,20.6077,0.67768,-2.44606
705.5,20.6245,0.672967,-2.44596
706,20.6414,0.68259,-2.44574
706.5,20.6578,0.67439,-2.44574
707,20.6747,0.659248,-2.44574
707.5,20.6914,0.668145,-2.44574
708,20.7082,0.659798,-2.44574
708.5,20.7248,0.657652,-2.44574
709,20.7417,0.658562,-2.44574
709.5,20.7585,0.647578,-2.44574
710,20.7753,0.650304,-2.44574
710.5,20.7921,0.649599,-2.44574
711,20.8087,0.646006,-2.44574
711.5,20.8256,0.639566,-2.44574
712,20.8423,0.645445,-2.44574
712.5,20.8589,0.62631,-2.44508
713,20.8758,0.63481,-2.44442
713.5,20.8927,0.634738,-2.44443
714,20.9094,0.631369,-2.44443
714.5,20.9262,0.62423,-2.44442
715,20.943,0.619903,-2.44441
715.5,20.9597,0.626317,-2.4452
716,20.9766,0.61718,-2.44575
716.5,20.9934,0.623856,-2.44574
717,21.0101,0.617375,-2.44574
717.5,21.0268,0.607167,-2.44573
718,21.0437,0.608043,-2.44569
718.5,21.0604,0.620484,-2.44667
719,21.0772,0.605388,-2.44707
719.5,21.0941,0.606648,-2.44706
720,21.1111,0.597719,-2.44706
720.5,21.1278,0.600727,-2.44746
721,21.1443,0.599141,-2.44842
721.5,21.1611,0.596554,-2.44837
722,21.178,0.596918,-2.44837
722.5,21.1951,0.601068,-2.44841
723,21.2119,0.605229,-2.44767
723.5,21.2287,0.60377,-2.44703
724,21.2455,0.59853,-2.44706
724.5,21.2624,0.610242,-2.44706
725,21.2792,0.593968,-2.44706
725.5,21.296,0.603948,-2.44706
726,21.3131,0.593185,-2.44706
726.5,21.3297,0.597565,-2.44706
727,21.3466,0.600215,-2.44708
727.5,21.3635,0.602799,-2.44724
728,21.3806,0.59129,-2.4487
728.5,21.3972,0.588164,-2.4487
729,21.414,0.58925,-2.44871
729.5,21.4308,0.57679,-2.44871
730,21.4479,0.577893,-2.44871
730.5,21.4646,0.577702,-2.44871
731,21.4815,0.564321,-2.44871
731.5,21.4984,0.557403,-2.44871
732,21.5153,0.558579,-2.44871
732.5,21.5322,0.560647,-2.44871
733,21.5489,0.556899,-2.44871
733.5,21.5658,0.552443,-2.44873
734,21.5826,0.537863,-2.44883
734.5,21.5998,0.538174,-2.45002
735,21.6168,0.522849,-2.45004
735.5,21.6336,0.528638,-2.45014
736,21.6505,0.529489,-2.45133
736.5,21.6669,0.518213,-2.45134
737,21.6841,0.517193,-2.45135
737.5,21.7009,0.511137,-2.45135
738,21.7179,0.51376,-2.45149
738.5,21.7344,0.516692,-2.45274
739,21.7511,0.504876,-2.45266
739.5,21.7679,0.508061,-2.45266
740,21.7853,0.502095,-2.45266