File: 01_Data/PC/FTIR/IS/PC_0.81_S_IS_230516_R3.dpt
7496.92,0.11175
7491.13,0.11878
7485.34,0.11971
7479.56,0.12422
7473.77,0.09195
7467.99,0.06058
7462.2,0.10072
7456.41,0.08108
7450.63,0.07299
7444.84,0.12216
7439.06,0.05789
7433.27,0.10517
7427.48,0.09208
7421.7,0.09468
7415.91,0.09108
7410.12,0.11507
7404.34,0.10906
7398.55,0.05597
7392.77,0.11923
7386.98,0.11182
7381.19,0.06514
7375.41,0.08084
7369.62,0.07510
7363.84,0.06933
7358.05,0.08008
7352.26,0.08993
7346.48,0.11196
7340.69,0.11455
7334.9,0.10460
7329.12,0.08921
7323.33,0.08426
7317.55,0.07259
7311.76,0.09092
7305.97,0.08100
7300.19,0.07546
7294.4,0.08015
7288.62,0.08243
7282.83,0.10647
7277.04,0.10137
7271.26,0.09436
7265.47,0.09886
7259.68,0.08202
7253.9,0.07790
7248.11,0.09874
7242.33,0.07841
7236.54,0.08879
7230.75,0.08242
7224.97,0.08745
7219.18,0.06706
7213.4,0.11075
7207.61,0.11976
7201.82,0.09491
7196.04,0.10192
7190.25,0.08478
7184.46,0.07748
7178.68,0.08773
7172.89,0.07450
7167.11,0.07520
7161.32,0.08146
7155.53,0.12248
7149.75,0.09877
7143.96,0.07847
7138.18,0.08882
7132.39,0.09896
7126.6,0.09986
7120.82,0.09077
7115.03,0.07577
7109.24,0.12438
7103.46,0.12311
7097.67,0.10495
7091.89,0.11622
7086.1,0.10190
7080.31,0.10466
7074.53,0.06670
7068.74,0.08620
7062.96,0.12787
7057.17,0.11157
7051.38,0.09725
7045.6,0.09851
7039.81,0.08960
7034.02,0.09366
7028.24,0.10721
7022.45,0.09305
7016.67,0.09332
7010.88,0.10485
7005.09,0.11014
6999.31,0.10200
6993.52,0.09630
6987.74,0.09661
6981.95,0.10079
6976.16,0.10402
6970.38,0.08746
6964.59,0.09748
6958.8,0.10184
6953.02,0.10102
6947.23,0.10064
6941.45,0.11675
6935.66,0.10760
6929.87,0.12214
6924.09,0.09583
6918.3,0.08650
6912.52,0.09592
6906.73,0.09275
6900.94,0.12414
6895.16,0.11276
6889.37,0.09487
6883.59,0.10666
6877.8,0.11202
6872.01,0.09639
6866.23,0.08227
6860.44,0.11020
6854.65,0.10448
6848.87,0.10009
6843.08,0.10998
6837.3,0.10570
6831.51,0.10339
6825.72,0.10069
6819.94,0.10540
6814.15,0.11109
6808.37,0.10941
6802.58,0.09737
6796.79,0.11131
6791.01,0.11456
6785.22,0.10792
6779.43,0.10431
6773.65,0.10337
6767.86,0.10487
6762.08,0.10973
6756.29,0.10370
6750.5,0.10162
6744.72,0.11244
6738.93,0.11627
6733.15,0.10805
6727.36,0.10388
6721.57,0.11790
6715.79,0.10793
6710,0.11531
6704.21,0.11294
6698.43,0.10943
6692.64,0.10612
6686.86,0.11635
6681.07,0.11785
6675.28,0.11329
6669.5,0.10248
6663.71,0.10377
6657.93,0.12343
6652.14,0.10349
6646.35,0.10661
6640.57,0.11323
6634.78,0.11034
6628.99,0.11313
6623.21,0.10403
6617.42,0.10415
6611.64,0.10447
6605.85,0.10701
6600.06,0.11183
6594.28,0.11940
6588.49,0.10885
6582.71,0.12433
6576.92,0.11696
6571.13,0.10451
6565.35,0.11465
6559.56,0.10342
6553.77,0.11662
6547.99,0.11545
6542.2,0.10651
6536.42,0.11332
6530.63,0.10816
6524.84,0.10386
6519.06,0.11099
6513.27,0.11081
6507.49,0.11418
6501.7,0.11318
6495.91,0.11786
6490.13,0.11903
6484.34,0.11103
6478.55,0.10968
6472.77,0.11957
6466.98,0.11578
6461.2,0.11018
6455.41,0.11503
6449.62,0.11360
6443.84,0.11048
6438.05,0.11372
6432.27,0.11368
6426.48,0.10812
6420.69,0.12414
6414.91,0.11906
6409.12,0.12383
6403.33,0.10855
6397.55,0.11830
6391.76,0.11960
6385.98,0.11414
6380.19,0.11578
6374.4,0.11604
6368.62,0.11574
6362.83,0.11162
6357.05,0.11059
6351.26,0.11357
6345.47,0.11421
6339.69,0.11996
6333.9,0.11852
6328.12,0.12174
6322.33,0.11500
6316.54,0.11473
6310.76,0.12179
6304.97,0.11404
6299.18,0.10996
6293.4,0.11267
6287.61,0.11457
6281.83,0.11409
6276.04,0.11177
6270.25,0.10917
6264.47,0.11564
6258.68,0.11905
6252.9,0.11402
6247.11,0.12107
6241.32,0.11791
6235.54,0.11552
6229.75,0.10843
6223.96,0.11415
6218.18,0.11591
6212.39,0.11676
6206.61,0.11254
6200.82,0.11475
6195.03,0.11309
6189.25,0.11373
6183.46,0.10525
6177.68,0.11081
6171.89,0.10913
6166.1,0.10553
6160.32,0.11242
6154.53,0.11101
6148.74,0.11391
6142.96,0.10498
6137.17,0.10653
6131.39,0.11453
6125.6,0.10122
6119.81,0.10072
6114.03,0.10718
6108.24,0.09715
6102.46,0.08956
6096.67,0.08997
6090.88,0.09238
6085.1,0.08850
6079.31,0.08966
6073.52,0.08506
6067.74,0.08255
6061.95,0.08544
6056.17,0.08426
6050.38,0.08579
6044.59,0.08519
6038.81,0.08260
6033.02,0.07790
6027.24,0.06793
6021.45,0.06476
6015.66,0.05455
6009.88,0.05690
6004.09,0.06097
5998.3,0.04889
5992.52,0.05539
5986.73,0.05502
5980.95,0.05567
5975.16,0.06120
5969.37,0.07218
5963.59,0.07058
5957.8,0.07696
5952.02,0.07622
5946.23,0.07432
5940.44,0.07180
5934.66,0.07159
5928.87,0.07241
5923.08,0.07275
5917.3,0.07205
5911.51,0.07676
5905.73,0.07364
5899.94,0.07427
5894.15,0.07444
5888.37,0.07550
5882.58,0.07749
5876.8,0.08328
5871.01,0.08681
5865.22,0.09244
5859.44,0.09486
5853.65,0.09563
5847.86,0.09734
5842.08,0.09822
5836.29,0.09732
5830.51,0.10366
5824.72,0.10003
5818.93,0.10241
5813.15,0.10424
5807.36,0.10138
5801.58,0.09798
5795.79,0.09710
5790,0.10246
5784.22,0.10140
5778.43,0.10225
5772.65,0.09627
5766.86,0.09815
5761.07,0.09543
5755.29,0.09879
5749.5,0.10016
5743.71,0.10258
5737.93,0.10733
5732.14,0.10735
5726.36,0.10632
5720.57,0.11466
5714.78,0.11177
5709,0.11494
5703.21,0.11703
5697.43,0.11143
5691.64,0.11365
5685.85,0.11316
5680.07,0.11328
5674.28,0.11051
5668.49,0.11097
5662.71,0.11245
5656.92,0.10941
5651.14,0.11198
5645.35,0.11371
5639.56,0.11529
5633.78,0.11716
5627.99,0.11695
5622.21,0.12077
5616.42,0.12246
5610.63,0.12074
5604.85,0.12657
5599.06,0.12699
5593.27,0.11976
5587.49,0.12188
5581.7,0.11900
5575.92,0.12096
5570.13,0.11904
5564.34,0.11786
5558.56,0.11656
5552.77,0.11883
5546.99,0.12152
5541.2,0.12256
5535.41,0.12446
5529.63,0.12223
5523.84,0.12251
5518.05,0.12407
5512.27,0.12163
5506.48,0.12077
5500.7,0.12110
5494.91,0.11944
5489.12,0.12396
5483.34,0.12063
5477.55,0.12233
5471.77,0.12253
5465.98,0.12465
5460.19,0.12406
5454.41,0.11992
5448.62,0.12054
5442.83,0.12691
5437.05,0.12723
5431.26,0.12432
5425.48,0.12517
5419.69,0.12641
5413.9,0.12678
5408.12,0.12526
5402.33,0.12571
5396.55,0.12348
5390.76,0.12553
5384.97,0.12861
5379.19,0.12535
5373.4,0.12429
5367.61,0.12679
5361.83,0.12545
5356.04,0.12679
5350.26,0.12888
5344.47,0.12594
5338.68,0.12832
5332.9,0.13092
5327.11,0.12750
5321.33,0.12688
5315.54,0.12781
5309.75,0.12741
5303.97,0.12611
5298.18,0.12447
5292.39,0.12496
5286.61,0.12309
5280.82,0.12026
5275.04,0.11805
5269.25,0.11429
5263.46,0.11678
5257.68,0.11836
5251.89,0.12329
5246.11,0.12270
5240.32,0.12777
5234.53,0.12636
5228.75,0.12548
5222.96,0.12839
5217.18,0.12813
5211.39,0.12918
5205.6,0.13275
5199.82,0.13001
5194.03,0.12930
5188.24,0.13401
5182.46,0.12966
5176.67,0.13113
5170.89,0.12993
5165.1,0.12972
5159.31,0.13221
5153.53,0.13148
5147.74,0.13598
5141.96,0.13278
5136.17,0.13409
5130.38,0.13472
5124.6,0.13566
5118.81,0.13359
5113.02,0.13498
5107.24,0.13504
5101.45,0.13608
5095.67,0.13380
5089.88,0.13403
5084.09,0.13476
5078.31,0.13453
5072.52,0.13623
5066.74,0.13510
5060.95,0.13419
5055.16,0.13537
5049.38,0.13453
5043.59,0.13652
5037.8,0.13685
5032.02,0.13570
5026.23,0.13627
5020.45,0.13490
5014.66,0.13464
5008.87,0.13203
5003.09,0.13491
4997.3,0.13326
4991.52,0.13509
4985.73,0.13365
4979.94,0.13520
4974.16,0.13403
4968.37,0.13413
4962.58,0.13471
4956.8,0.13431
4951.01,0.13304
4945.23,0.13346
4939.44,0.13483
4933.65,0.13500
4927.87,0.13465
4922.08,0.13411
4916.3,0.13170
4910.51,0.13034
4904.72,0.13116
4898.94,0.12804
4893.15,0.12676
4887.36,0.12765
4881.58,0.12701
4875.79,0.12678
4870.01,0.12721
4864.22,0.12739
4858.43,0.12641
4852.65,0.12288
4846.86,0.12248
4841.08,0.12276
4835.29,0.12329
4829.5,0.12403
4823.72,0.12496
4817.93,0.12581
4812.14,0.12552
4806.36,0.12740
4800.57,0.12742
4794.79,0.12726
4789,0.12706
4783.21,0.12313
4777.43,0.12640
4771.64,0.12140
4765.86,0.12030
4760.07,0.12032
4754.28,0.11828
4748.5,0.11530
4742.71,0.11304
4736.92,0.10938
4731.14,0.10440
4725.35,0.09887
4719.57,0.09433
4713.78,0.08678
4707.99,0.08074
4702.21,0.07455
4696.42,0.06871
4690.64,0.06461
4684.85,0.06460
4679.06,0.06437
4673.28,0.06736
4667.49,0.06836
4661.7,0.07121
4655.92,0.07434
4650.13,0.07165
4644.35,0.06848
4638.56,0.06527
4632.77,0.06364
4626.99,0.06688
4621.2,0.07318
4615.42,0.08257
4609.63,0.09155
4603.84,0.09509
4598.06,0.09494
4592.27,0.09360
4586.49,0.08902
4580.7,0.08560
4574.91,0.08587
4569.13,0.08792
4563.34,0.09349
4557.55,0.10027
4551.77,0.10500
4545.98,0.10788
4540.2,0.10810
4534.41,0.10816
4528.62,0.10765
4522.84,0.10823
4517.05,0.10803
4511.27,0.10821
4505.48,0.10762
4499.69,0.10487
4493.91,0.10127
4488.12,0.09947
4482.33,0.09574
4476.55,0.09400
4470.76,0.09664
4464.98,0.09510
4459.19,0.09358
4453.4,0.09033
4447.62,0.08732
4441.83,0.08167
4436.05,0.07687
4430.26,0.07301
4424.47,0.06949
4418.69,0.06513
4412.9,0.06403
4407.11,0.06292
4401.33,0.06245
4395.54,0.06471
4389.76,0.06613
4383.97,0.06676
4378.18,0.06525
4372.4,0.06263
4366.61,0.06085
4360.83,0.06078
4355.04,0.06184
4349.25,0.06005
4343.47,0.05934
4337.68,0.06038
4331.89,0.05896
4326.11,0.05853
4320.32,0.05829
4314.54,0.05838
4308.75,0.06071
4302.96,0.06144
4297.18,0.06211
4291.39,0.06266
4285.61,0.06325
4279.82,0.06279
4274.03,0.06431
4268.25,0.06519
4262.46,0.06583
4256.67,0.06678
4250.89,0.06826
4245.1,0.06817
4239.32,0.06783
4233.53,0.06707
4227.74,0.06727
4221.96,0.06590
4216.17,0.06471
4210.39,0.06540
4204.6,0.06547
4198.81,0.06414
4193.03,0.06415
4187.24,0.06193
4181.45,0.06251
4175.67,0.06307
4169.88,0.06392
4164.1,0.06312
4158.31,0.06618
4152.52,0.06837
4146.74,0.07121
4140.95,0.07056
4135.17,0.07036
4129.38,0.07039
4123.59,0.07089
4117.81,0.06760
4112.02,0.06603
4106.23,0.06386
4100.45,0.06121
4094.66,0.05873
4088.88,0.05812
4083.09,0.05709
4077.3,0.05806
4071.52,0.05755
4065.73,0.05752
4059.95,0.05864
4054.16,0.06000
4048.37,0.06224
4042.59,0.06674
4036.8,0.07017
4031.02,0.07169
4025.23,0.07103
4019.44,0.07135
4013.66,0.07047
4007.87,0.07104
4002.08,0.07171
3996.3,0.07143
3990.51,0.07090
3984.73,0.07077
3978.94,0.07164
3973.15,0.07403
3967.37,0.07571
3961.58,0.07618
3955.8,0.07593
3950.01,0.07496
3944.22,0.07445
3938.44,0.07431
3932.65,0.07432
3926.86,0.07517
3921.08,0.07395
3915.29,0.07245
3909.51,0.07217
3903.72,0.07088
3897.93,0.07036
3892.15,0.07025
3886.36,0.06897
3880.58,0.06827
3874.79,0.07096
3869,0.07474
3863.22,0.07800
3857.43,0.08236
3851.64,0.08633
3845.86,0.08799
3840.07,0.08857
3834.29,0.09012
3828.5,0.09075
3822.71,0.09065
3816.93,0.08941
3811.14,0.08881
3805.36,0.09123
3799.57,0.09264
3793.78,0.09473
3788,0.09771
3782.21,0.09967
3776.42,0.09990
3770.64,0.09806
3764.85,0.09461
3759.07,0.08986
3753.28,0.08538
3747.49,0.08457
3741.71,0.08472
3735.92,0.08606
3730.14,0.08901
3724.35,0.08823
3718.56,0.08705
3712.78,0.08262
3706.99,0.07639
3701.2,0.07165
3695.42,0.06736
3689.63,0.06380
3683.85,0.06152
3678.06,0.05933
3672.27,0.05998
3666.49,0.06020
3660.7,0.06065
3654.92,0.06294
3649.13,0.06477
3643.34,0.06919
3637.56,0.07192
3631.77,0.07444
3625.98,0.07810
3620.2,0.08049
3614.41,0.08274
3608.63,0.08239
3602.84,0.07804
3597.05,0.07136
3591.27,0.06669
3585.48,0.06264
3579.7,0.06219
3573.91,0.06084
3568.12,0.06008
3562.34,0.06049
3556.55,0.05942
3550.76,0.05909
3544.98,0.05864
3539.19,0.05832
3533.41,0.05826
3527.62,0.05763
3521.83,0.05868
3516.05,0.05930
3510.26,0.06116
3504.48,0.06350
3498.69,0.06678
3492.9,0.06832
3487.12,0.06994
3481.33,0.07181
3475.55,0.07283
3469.76,0.07554
3463.97,0.07708
3458.19,0.07889
3452.4,0.08058
3446.61,0.08302
3440.83,0.08542
3435.04,0.08720
3429.26,0.08991
3423.47,0.09125
3417.68,0.09142
3411.9,0.09175
3406.11,0.09077
3400.33,0.09023
3394.54,0.08844
3388.75,0.08647
3382.97,0.08409
3377.18,0.08215
3371.39,0.08175
3365.61,0.08245
3359.82,0.08325
3354.04,0.08377
3348.25,0.08314
3342.46,0.08312
3336.68,0.08297
3330.89,0.08143
3325.11,0.08036
3319.32,0.07760
3313.53,0.07464
3307.75,0.07280
3301.96,0.07040
3296.17,0.06922
3290.39,0.06978
3284.6,0.06771
3278.82,0.06718
3273.03,0.06737
3267.24,0.06586
3261.46,0.06479
3255.67,0.06444
3249.89,0.06477
3244.1,0.06400
3238.31,0.06358
3232.53,0.06293
3226.74,0.06322
3220.95,0.06270
3215.17,0.06179
3209.38,0.06075
3203.6,0.06041
3197.81,0.05951
3192.02,0.05897
3186.24,0.05928
3180.45,0.06021
3174.67,0.05891
3168.88,0.05953
3163.09,0.06030
3157.31,0.05989
3151.52,0.05964
3145.73,0.06004
3139.95,0.05945
3134.16,0.05875
3128.38,0.05862
3122.59,0.05846
3116.8,0.05847
3111.02,0.05893
3105.23,0.05923
3099.45,0.05821
3093.66,0.05889
3087.87,0.05884
3082.09,0.05877
3076.3,0.05859
3070.51,0.05816
3064.73,0.05873
3058.94,0.05873
3053.16,0.05884
3047.37,0.05886
3041.58,0.05947
3035.8,0.05992
3030.01,0.05919
3024.23,0.05859
3018.44,0.05826
3012.65,0.05809
3006.87,0.05809
3001.08,0.05808
2995.29,0.05805
2989.51,0.05707
2983.72,0.05738
2977.94,0.05740
2972.15,0.05865
2966.36,0.05992
2960.58,0.06092
2954.79,0.06130
2949.01,0.06027
2943.22,0.06042
2937.43,0.06031
2931.65,0.06069
2925.86,0.06111
2920.08,0.06034
2914.29,0.06048
2908.5,0.06093
2902.72,0.06027
2896.93,0.06035
2891.14,0.06061
2885.36,0.06041
2879.57,0.05982
2873.79,0.06070
2868,0.06029
2862.21,0.06114
2856.43,0.06093
2850.64,0.06110
2844.86,0.06062
2839.07,0.06198
2833.28,0.06233
2827.5,0.06248
2821.71,0.06214
2815.92,0.06245
2810.14,0.06203
2804.35,0.06258
2798.57,0.06370
2792.78,0.06364
2786.99,0.06240
2781.21,0.06140
2775.42,0.06162
2769.64,0.06275
2763.85,0.06436
2758.06,0.06707
2752.28,0.07125
2746.49,0.07223
2740.7,0.07151
2734.92,0.06858
2729.13,0.06822
2723.35,0.06836
2717.56,0.06692
2711.77,0.06817
2705.99,0.07255
2700.2,0.07673
2694.42,0.08053
2688.63,0.08257
2682.84,0.08383
2677.06,0.08296
2671.27,0.08158
2665.48,0.08169
2659.7,0.08416
2653.91,0.08790
2648.13,0.09308
2642.34,0.09525
2636.55,0.09389
2630.77,0.08863
2624.98,0.08071
2619.2,0.07297
2613.41,0.07006
2607.62,0.06953
2601.84,0.06867
2596.05,0.06887
2590.26,0.06896
2584.48,0.06964
2578.69,0.07129
2572.91,0.07321
2567.12,0.07762
2561.33,0.08082
2555.55,0.08075
2549.76,0.07874
2543.98,0.07611
2538.19,0.07254
2532.4,0.07041
2526.62,0.07029
2520.83,0.07154
2515.04,0.07131
2509.26,0.06903
2503.47,0.06792
2497.69,0.06522
2491.9,0.06335
2486.11,0.06273
2480.33,0.06272
2474.54,0.06201
2468.76,0.06176
2462.97,0.06169
2457.18,0.06209
2451.4,0.06190
2445.61,0.06214
2439.82,0.06221
2434.04,0.06198
2428.25,0.06191
2422.47,0.06165
2416.68,0.06165
2410.89,0.06101
2405.11,0.06152
2399.32,0.06122
2393.54,0.06193
2387.75,0.06213
2381.96,0.06250
2376.18,0.06335
2370.39,0.06493
2364.61,0.06581
2358.82,0.06780
2353.03,0.06800
2347.25,0.06701
2341.46,0.06604
2335.67,0.06608
2329.89,0.06469
2324.1,0.06405
2318.32,0.06422
2312.53,0.06531
2306.74,0.06490
2300.96,0.06379
2295.17,0.06357
2289.39,0.06351
2283.6,0.06255
2277.81,0.06172
2272.03,0.06138
2266.24,0.06127
2260.45,0.06086
2254.67,0.06108
2248.88,0.06126
2243.1,0.06138
2237.31,0.06118
2231.52,0.06100
2225.74,0.06136
2219.95,0.06119
2214.17,0.06114
2208.38,0.06104
2202.59,0.06124
2196.81,0.06109
2191.02,0.06102
2185.23,0.06122
2179.45,0.06217
2173.66,0.06254
2167.88,0.06293
2162.09,0.06523
2156.3,0.06896
2150.52,0.07239
2144.73,0.07277
2138.95,0.07038
2133.16,0.06749
2127.37,0.06528
2121.59,0.06348
2115.8,0.06233
2110.01,0.06215
2104.23,0.06103
2098.44,0.06130
2092.66,0.06068
2086.87,0.06039
2081.08,0.06052
2075.3,0.06032
2069.51,0.06041
2063.73,0.06055
2057.94,0.06017
2052.15,0.05994
2046.37,0.06026
2040.58,0.06071
2034.79,0.06034
2029.01,0.06060
2023.22,0.06022
2017.44,0.06034
2011.65,0.06006
2005.86,0.06023
2000.08,0.05999
1994.29,0.05982
1988.51,0.06021
1982.72,0.06016
1976.93,0.06061
1971.15,0.06025
1965.36,0.06012
1959.57,0.06002
1953.79,0.05950
1948,0.05933
1942.22,0.05953
1936.43,0.05958
1930.64,0.05913
1924.86,0.05898
1919.07,0.05876
1913.29,0.05866
1907.5,0.05807
1901.71,0.05813
1895.93,0.05808
1890.14,0.05825
1884.35,0.05795
1878.57,0.05779
1872.78,0.05807
1867,0.05769
1861.21,0.05705
1855.42,0.05669
1849.64,0.05631
1843.85,0.05569
1838.07,0.05530
1832.28,0.05468
1826.49,0.05369
1820.71,0.05243
1814.92,0.05115
1809.13,0.04951
1803.35,0.04689
1797.56,0.04381
1791.78,0.04247
1785.99,0.04742
1780.2,0.06037
1774.42,0.07576
1768.63,0.08754
1762.85,0.08572
1757.06,0.07852
1751.27,0.07375
1745.49,0.06995
1739.7,0.06830
1733.92,0.06760
1728.13,0.06645
1722.34,0.06535
1716.56,0.06442
1710.77,0.06349
1704.98,0.06325
1699.2,0.06254
1693.41,0.06177
1687.63,0.06128
1681.84,0.06093
1676.05,0.06014
1670.27,0.05995
1664.48,0.05973
1658.7,0.05976
1652.91,0.05947
1647.12,0.05957
1641.34,0.05913
1635.55,0.05906
1629.76,0.05860
1623.98,0.05804
1618.19,0.05788
1612.41,0.05777
1606.62,0.05734
1600.83,0.05831
1595.05,0.05840
1589.26,0.05892
1583.48,0.05872
1577.69,0.05790
1571.9,0.05740
1566.12,0.05583
1560.33,0.05604
1554.54,0.05493
1548.76,0.05404
1542.97,0.05440
1537.19,0.05248
1531.4,0.05121
1525.61,0.04934
1519.83,0.04635
1514.04,0.04259
1508.26,0.05093
1502.47,0.07230
1496.68,0.07271
1490.9,0.06861
1485.11,0.06484
1479.32,0.06251
1473.54,0.06040
1467.75,0.06033
1461.97,0.06087
1456.18,0.05999
1450.39,0.05921
1444.61,0.05842
1438.82,0.05801
1433.04,0.05687
1427.25,0.05604
1421.46,0.05447
1415.68,0.05263
1409.89,0.05459
1404.1,0.05607
1398.32,0.05479
1392.53,0.05356
1386.75,0.05354
1380.96,0.05378
1375.17,0.05199
1369.39,0.05009
1363.6,0.05244
1357.82,0.05243
1352.03,0.05023
1346.24,0.04885
1340.46,0.04771
1334.67,0.04622
1328.88,0.04465
1323.1,0.04246
1317.31,0.04054
1311.53,0.03937
1305.74,0.03850
1299.95,0.03564
1294.17,0.03510
1288.38,0.03516
1282.6,0.03285
1276.81,0.02856
1271.02,0.02299
1265.24,0.02104
1259.45,0.03518
1253.66,0.06766
1247.88,0.09258
1242.09,0.10610
1236.31,0.11803
1230.52,0.12954
1224.73,0.13615
1218.95,0.12860
1213.16,0.10414
1207.38,0.07585
1201.59,0.09044
1195.8,0.14469
1190.02,0.16418
1184.23,0.13786
1178.45,0.10949
1172.66,0.08689
1166.87,0.10935
1161.09,0.15309
1155.3,0.13600
1149.51,0.11947
1143.73,0.10952
1137.94,0.10340
1132.16,0.09803
1126.37,0.09393
1120.58,0.08948
1114.8,0.08784
1109.01,0.08686
1103.23,0.08743
1097.44,0.08612
1091.65,0.08157
1085.87,0.07719
1080.08,0.09128
1074.29,0.09121
1068.51,0.08666
1062.72,0.08448
1056.94,0.08192
1051.15,0.08045
1045.36,0.07866
1039.58,0.07616
1033.79,0.07358
1028.01,0.06984
1022.22,0.06278
1016.43,0.07834
1010.65,0.09595
1004.86,0.09212
999.075,0.08864
993.288,0.08535
987.502,0.08403
981.716,0.08240
975.93,0.08113
970.144,0.07942
964.358,0.07887
958.572,0.07853
952.785,0.07747
946.999,0.07688
941.213,0.07644
935.427,0.07609
929.641,0.07528
923.855,0.07448
918.068,0.07412
912.282,0.07414
906.496,0.07225
900.71,0.07054
894.924,0.06801
889.138,0.07153
883.352,0.07549
877.565,0.07495
871.779,0.07257
865.993,0.07057
860.207,0.06774
854.421,0.06582
848.635,0.06519
842.849,0.06711
837.062,0.06892
831.276,0.07815
825.49,0.08434
819.704,0.08248
813.918,0.08420
808.132,0.08451
802.346,0.08196
796.559,0.07928
790.773,0.07622
784.987,0.07506
779.201,0.07413
773.415,0.07381
767.629,0.07760
761.843,0.07922
756.056,0.08023
750.27,0.08002
744.484,0.07850
738.698,0.07743
732.912,0.07640
727.126,0.07647
721.34,0.07558
715.553,0.07496
709.767,0.07492
703.981,0.07623
698.195,0.07718
692.409,0.07584
686.623,0.07519
680.837,0.07520
675.05,0.07671
669.264,0.07489
663.478,0.07420
657.692,0.07339
651.906,0.07329
646.12,0.07239
640.333,0.07401
634.547,0.07161
628.761,0.07028
622.975,0.07039
617.189,0.07153
611.403,0.07126
605.617,0.07073
599.83,0.06692