File: 01_Data/PC/FTIR/IS/PC_0.81_S_IS_230516_R1.dpt
7496.92,0.09193
7491.13,0.08755
7485.34,0.06311
7479.56,0.07393
7473.77,0.07314
7467.99,0.09779
7462.2,0.09007
7456.41,0.10736
7450.63,0.08065
7444.84,0.09611
7439.06,0.09555
7433.27,0.11211
7427.48,0.08243
7421.7,0.11028
7415.91,0.10393
7410.12,0.11299
7404.34,0.08512
7398.55,0.09036
7392.77,0.10001
7386.98,0.08674
7381.19,0.06854
7375.41,0.08397
7369.62,0.10681
7363.84,0.11459
7358.05,0.07587
7352.26,0.06322
7346.48,0.05853
7340.69,0.12095
7334.9,0.07261
7329.12,0.05574
7323.33,0.06568
7317.55,0.10179
7311.76,0.08761
7305.97,0.08100
7300.19,0.08683
7294.4,0.09565
7288.62,0.08776
7282.83,0.07795
7277.04,0.06908
7271.26,0.10450
7265.47,0.12045
7259.68,0.09976
7253.9,0.09631
7248.11,0.09831
7242.33,0.08715
7236.54,0.06573
7230.75,0.07103
7224.97,0.07785
7219.18,0.10539
7213.4,0.09317
7207.61,0.06560
7201.82,0.09663
7196.04,0.11338
7190.25,0.08836
7184.46,0.07458
7178.68,0.10430
7172.89,0.08411
7167.11,0.08937
7161.32,0.10087
7155.53,0.08921
7149.75,0.07587
7143.96,0.07295
7138.18,0.08262
7132.39,0.08499
7126.6,0.10291
7120.82,0.10029
7115.03,0.08855
7109.24,0.08406
7103.46,0.09662
7097.67,0.08927
7091.89,0.09334
7086.1,0.09803
7080.31,0.09257
7074.53,0.10742
7068.74,0.11001
7062.96,0.09486
7057.17,0.10241
7051.38,0.09522
7045.6,0.10220
7039.81,0.10900
7034.02,0.09828
7028.24,0.10861
7022.45,0.09761
7016.67,0.11405
7010.88,0.11471
7005.09,0.10462
6999.31,0.12284
6993.52,0.10979
6987.74,0.10085
6981.95,0.10391
6976.16,0.08946
6970.38,0.09046
6964.59,0.11225
6958.8,0.09811
6953.02,0.09957
6947.23,0.10189
6941.45,0.09536
6935.66,0.09054
6929.87,0.10339
6924.09,0.10011
6918.3,0.11863
6912.52,0.10772
6906.73,0.10555
6900.94,0.10281
6895.16,0.09245
6889.37,0.11509
6883.59,0.10870
6877.8,0.11138
6872.01,0.09978
6866.23,0.09552
6860.44,0.10140
6854.65,0.09431
6848.87,0.09013
6843.08,0.08991
6837.3,0.09876
6831.51,0.10570
6825.72,0.10595
6819.94,0.10463
6814.15,0.09537
6808.37,0.10528
6802.58,0.10478
6796.79,0.10918
6791.01,0.09797
6785.22,0.11872
6779.43,0.09891
6773.65,0.10347
6767.86,0.09863
6762.08,0.10901
6756.29,0.10726
6750.5,0.12152
6744.72,0.10992
6738.93,0.10493
6733.15,0.10672
6727.36,0.10562
6721.57,0.10840
6715.79,0.11200
6710,0.10676
6704.21,0.10730
6698.43,0.09897
6692.64,0.11665
6686.86,0.10158
6681.07,0.11897
6675.28,0.11210
6669.5,0.11010
6663.71,0.09795
6657.93,0.12251
6652.14,0.10710
6646.35,0.10175
6640.57,0.11854
6634.78,0.12325
6628.99,0.10766
6623.21,0.10930
6617.42,0.10153
6611.64,0.10112
6605.85,0.10029
6600.06,0.10988
6594.28,0.10744
6588.49,0.11345
6582.71,0.11294
6576.92,0.11103
6571.13,0.10977
6565.35,0.11535
6559.56,0.11266
6553.77,0.11640
6547.99,0.11546
6542.2,0.11483
6536.42,0.10920
6530.63,0.10850
6524.84,0.11209
6519.06,0.11162
6513.27,0.12038
6507.49,0.11040
6501.7,0.11330
6495.91,0.11155
6490.13,0.12024
6484.34,0.10692
6478.55,0.11093
6472.77,0.11568
6466.98,0.12142
6461.2,0.12252
6455.41,0.11211
6449.62,0.10982
6443.84,0.12576
6438.05,0.12047
6432.27,0.12342
6426.48,0.11381
6420.69,0.10355
6414.91,0.11443
6409.12,0.11938
6403.33,0.11137
6397.55,0.10945
6391.76,0.11055
6385.98,0.10519
6380.19,0.11203
6374.4,0.10491
6368.62,0.11288
6362.83,0.11179
6357.05,0.11544
6351.26,0.11479
6345.47,0.11723
6339.69,0.11304
6333.9,0.12108
6328.12,0.11757
6322.33,0.11809
6316.54,0.12015
6310.76,0.11159
6304.97,0.11864
6299.18,0.11890
6293.4,0.11249
6287.61,0.11780
6281.83,0.11442
6276.04,0.12203
6270.25,0.11756
6264.47,0.11346
6258.68,0.11503
6252.9,0.11523
6247.11,0.12181
6241.32,0.11244
6235.54,0.11266
6229.75,0.10946
6223.96,0.11920
6218.18,0.12129
6212.39,0.11731
6206.61,0.10949
6200.82,0.11705
6195.03,0.11517
6189.25,0.10411
6183.46,0.10822
6177.68,0.10471
6171.89,0.10314
6166.1,0.10796
6160.32,0.11110
6154.53,0.11246
6148.74,0.11240
6142.96,0.10447
6137.17,0.09914
6131.39,0.10036
6125.6,0.10125
6119.81,0.09620
6114.03,0.10383
6108.24,0.09868
6102.46,0.09859
6096.67,0.09177
6090.88,0.09490
6085.1,0.10410
6079.31,0.08718
6073.52,0.08699
6067.74,0.08512
6061.95,0.08194
6056.17,0.08557
6050.38,0.07960
6044.59,0.08339
6038.81,0.07599
6033.02,0.07757
6027.24,0.06743
6021.45,0.05455
6015.66,0.06197
6009.88,0.06019
6004.09,0.05680
5998.3,0.05267
5992.52,0.05355
5986.73,0.05824
5980.95,0.06508
5975.16,0.06782
5969.37,0.06856
5963.59,0.07533
5957.8,0.07043
5952.02,0.07721
5946.23,0.07523
5940.44,0.07320
5934.66,0.06837
5928.87,0.06779
5923.08,0.06811
5917.3,0.07169
5911.51,0.07761
5905.73,0.07775
5899.94,0.07591
5894.15,0.07711
5888.37,0.07843
5882.58,0.07759
5876.8,0.08481
5871.01,0.09105
5865.22,0.09386
5859.44,0.09449
5853.65,0.10173
5847.86,0.10084
5842.08,0.10229
5836.29,0.10137
5830.51,0.10017
5824.72,0.09644
5818.93,0.09898
5813.15,0.09701
5807.36,0.10266
5801.58,0.10373
5795.79,0.09644
5790,0.09725
5784.22,0.09859
5778.43,0.09387
5772.65,0.09811
5766.86,0.09604
5761.07,0.09419
5755.29,0.10213
5749.5,0.09812
5743.71,0.10291
5737.93,0.10541
5732.14,0.10764
5726.36,0.10823
5720.57,0.11082
5714.78,0.11007
5709,0.11345
5703.21,0.11832
5697.43,0.11644
5691.64,0.11328
5685.85,0.11558
5680.07,0.11587
5674.28,0.11099
5668.49,0.11051
5662.71,0.11227
5656.92,0.10929
5651.14,0.10952
5645.35,0.11357
5639.56,0.12019
5633.78,0.11520
5627.99,0.12147
5622.21,0.12085
5616.42,0.11936
5610.63,0.12328
5604.85,0.12413
5599.06,0.12309
5593.27,0.12255
5587.49,0.12525
5581.7,0.12389
5575.92,0.12150
5570.13,0.12065
5564.34,0.11905
5558.56,0.12288
5552.77,0.11962
5546.99,0.12108
5541.2,0.12401
5535.41,0.12393
5529.63,0.12349
5523.84,0.12125
5518.05,0.12199
5512.27,0.12241
5506.48,0.12179
5500.7,0.12201
5494.91,0.12079
5489.12,0.12402
5483.34,0.12024
5477.55,0.12178
5471.77,0.12125
5465.98,0.12128
5460.19,0.12426
5454.41,0.12417
5448.62,0.12327
5442.83,0.12228
5437.05,0.12643
5431.26,0.12516
5425.48,0.12773
5419.69,0.12661
5413.9,0.12208
5408.12,0.12328
5402.33,0.12420
5396.55,0.12164
5390.76,0.12634
5384.97,0.12517
5379.19,0.12630
5373.4,0.12532
5367.61,0.12819
5361.83,0.12827
5356.04,0.12547
5350.26,0.12332
5344.47,0.12813
5338.68,0.12550
5332.9,0.12684
5327.11,0.12738
5321.33,0.12954
5315.54,0.12477
5309.75,0.12736
5303.97,0.12868
5298.18,0.12612
5292.39,0.12330
5286.61,0.12072
5280.82,0.11889
5275.04,0.11974
5269.25,0.11412
5263.46,0.11952
5257.68,0.11755
5251.89,0.11940
5246.11,0.12005
5240.32,0.12557
5234.53,0.12616
5228.75,0.12743
5222.96,0.13026
5217.18,0.12817
5211.39,0.12901
5205.6,0.12898
5199.82,0.13142
5194.03,0.13174
5188.24,0.13252
5182.46,0.13322
5176.67,0.12910
5170.89,0.12845
5165.1,0.13232
5159.31,0.13117
5153.53,0.13313
5147.74,0.13424
5141.96,0.13313
5136.17,0.13232
5130.38,0.13761
5124.6,0.13521
5118.81,0.13576
5113.02,0.13475
5107.24,0.13385
5101.45,0.13596
5095.67,0.13724
5089.88,0.13621
5084.09,0.13489
5078.31,0.13614
5072.52,0.13461
5066.74,0.13211
5060.95,0.13286
5055.16,0.13335
5049.38,0.13615
5043.59,0.13614
5037.8,0.13605
5032.02,0.13566
5026.23,0.13409
5020.45,0.13630
5014.66,0.13525
5008.87,0.13463
5003.09,0.13683
4997.3,0.13502
4991.52,0.13469
4985.73,0.13231
4979.94,0.13470
4974.16,0.13274
4968.37,0.13542
4962.58,0.13641
4956.8,0.13491
4951.01,0.13489
4945.23,0.13362
4939.44,0.13319
4933.65,0.13486
4927.87,0.13290
4922.08,0.13311
4916.3,0.13212
4910.51,0.13114
4904.72,0.13069
4898.94,0.12774
4893.15,0.12999
4887.36,0.12921
4881.58,0.13001
4875.79,0.12898
4870.01,0.12874
4864.22,0.12882
4858.43,0.12624
4852.65,0.12432
4846.86,0.12165
4841.08,0.12162
4835.29,0.12437
4829.5,0.12385
4823.72,0.12574
4817.93,0.12780
4812.14,0.12568
4806.36,0.12805
4800.57,0.12807
4794.79,0.12697
4789,0.12571
4783.21,0.12382
4777.43,0.12385
4771.64,0.12252
4765.86,0.12227
4760.07,0.12216
4754.28,0.11858
4748.5,0.11701
4742.71,0.11336
4736.92,0.10909
4731.14,0.10389
4725.35,0.09960
4719.57,0.09520
4713.78,0.08731
4707.99,0.07853
4702.21,0.07287
4696.42,0.06814
4690.64,0.06666
4684.85,0.06352
4679.06,0.06450
4673.28,0.06731
4667.49,0.06903
4661.7,0.07113
4655.92,0.07189
4650.13,0.07182
4644.35,0.06927
4638.56,0.06521
4632.77,0.06468
4626.99,0.06614
4621.2,0.07381
4615.42,0.08292
4609.63,0.08998
4603.84,0.09376
4598.06,0.09569
4592.27,0.09318
4586.49,0.08872
4580.7,0.08643
4574.91,0.08623
4569.13,0.08717
4563.34,0.09361
4557.55,0.10085
4551.77,0.10667
4545.98,0.10747
4540.2,0.10818
4534.41,0.10874
4528.62,0.10846
4522.84,0.10814
4517.05,0.10981
4511.27,0.10848
4505.48,0.10744
4499.69,0.10420
4493.91,0.10141
4488.12,0.09771
4482.33,0.09618
4476.55,0.09466
4470.76,0.09578
4464.98,0.09361
4459.19,0.09380
4453.4,0.09098
4447.62,0.08641
4441.83,0.08109
4436.05,0.07828
4430.26,0.07377
4424.47,0.06973
4418.69,0.06673
4412.9,0.06234
4407.11,0.06124
4401.33,0.06278
4395.54,0.06496
4389.76,0.06629
4383.97,0.06713
4378.18,0.06557
4372.4,0.06385
4366.61,0.06272
4360.83,0.06097
4355.04,0.06098
4349.25,0.05964
4343.47,0.06067
4337.68,0.06067
4331.89,0.05966
4326.11,0.05891
4320.32,0.05918
4314.54,0.06015
4308.75,0.06087
4302.96,0.06064
4297.18,0.06109
4291.39,0.06265
4285.61,0.06260
4279.82,0.06297
4274.03,0.06485
4268.25,0.06475
4262.46,0.06578
4256.67,0.06686
4250.89,0.06773
4245.1,0.06801
4239.32,0.06701
4233.53,0.06811
4227.74,0.06646
4221.96,0.06562
4216.17,0.06665
4210.39,0.06499
4204.6,0.06522
4198.81,0.06422
4193.03,0.06344
4187.24,0.06358
4181.45,0.06375
4175.67,0.06323
4169.88,0.06386
4164.1,0.06476
4158.31,0.06466
4152.52,0.06838
4146.74,0.06924
4140.95,0.07046
4135.17,0.07110
4129.38,0.07110
4123.59,0.07016
4117.81,0.06864
4112.02,0.06697
4106.23,0.06296
4100.45,0.06077
4094.66,0.05920
4088.88,0.05876
4083.09,0.05731
4077.3,0.05785
4071.52,0.05824
4065.73,0.05797
4059.95,0.05939
4054.16,0.06047
4048.37,0.06213
4042.59,0.06608
4036.8,0.07062
4031.02,0.07174
4025.23,0.07175
4019.44,0.07127
4013.66,0.07093
4007.87,0.07085
4002.08,0.07275
3996.3,0.07028
3990.51,0.07078
3984.73,0.07072
3978.94,0.07203
3973.15,0.07441
3967.37,0.07558
3961.58,0.07659
3955.8,0.07638
3950.01,0.07551
3944.22,0.07462
3938.44,0.07507
3932.65,0.07515
3926.86,0.07372
3921.08,0.07373
3915.29,0.07268
3909.51,0.07183
3903.72,0.07143
3897.93,0.06950
3892.15,0.06965
3886.36,0.06913
3880.58,0.06815
3874.79,0.07111
3869,0.07477
3863.22,0.07875
3857.43,0.08211
3851.64,0.08615
3845.86,0.08756
3840.07,0.08887
3834.29,0.09097
3828.5,0.09054
3822.71,0.08997
3816.93,0.08914
3811.14,0.09092
3805.36,0.09029
3799.57,0.09247
3793.78,0.09596
3788,0.09829
3782.21,0.10042
3776.42,0.09959
3770.64,0.09763
3764.85,0.09386
3759.07,0.08991
3753.28,0.08514
3747.49,0.08375
3741.71,0.08422
3735.92,0.08592
3730.14,0.08843
3724.35,0.08802
3718.56,0.08648
3712.78,0.08368
3706.99,0.07635
3701.2,0.07073
3695.42,0.06677
3689.63,0.06222
3683.85,0.06041
3678.06,0.05974
3672.27,0.05857
3666.49,0.05954
3660.7,0.06134
3654.92,0.06180
3649.13,0.06452
3643.34,0.06940
3637.56,0.07143
3631.77,0.07458
3625.98,0.07809
3620.2,0.07922
3614.41,0.08190
3608.63,0.08232
3602.84,0.07773
3597.05,0.07104
3591.27,0.06562
3585.48,0.06196
3579.7,0.06114
3573.91,0.06025
3568.12,0.05907
3562.34,0.06000
3556.55,0.05979
3550.76,0.05880
3544.98,0.05851
3539.19,0.05745
3533.41,0.05790
3527.62,0.05797
3521.83,0.05810
3516.05,0.05990
3510.26,0.06153
3504.48,0.06370
3498.69,0.06602
3492.9,0.06776
3487.12,0.07017
3481.33,0.07138
3475.55,0.07283
3469.76,0.07485
3463.97,0.07616
3458.19,0.07830
3452.4,0.08135
3446.61,0.08280
3440.83,0.08438
3435.04,0.08661
3429.26,0.08881
3423.47,0.08995
3417.68,0.09160
3411.9,0.09147
3406.11,0.09056
3400.33,0.09052
3394.54,0.08876
3388.75,0.08605
3382.97,0.08427
3377.18,0.08229
3371.39,0.08271
3365.61,0.08159
3359.82,0.08285
3354.04,0.08229
3348.25,0.08308
3342.46,0.08337
3336.68,0.08283
3330.89,0.08096
3325.11,0.07995
3319.32,0.07737
3313.53,0.07481
3307.75,0.07282
3301.96,0.07012
3296.17,0.06929
3290.39,0.06841
3284.6,0.06783
3278.82,0.06786
3273.03,0.06673
3267.24,0.06567
3261.46,0.06578
3255.67,0.06557
3249.89,0.06520
3244.1,0.06494
3238.31,0.06369
3232.53,0.06318
3226.74,0.06271
3220.95,0.06277
3215.17,0.06235
3209.38,0.06130
3203.6,0.06000
3197.81,0.06040
3192.02,0.05942
3186.24,0.05945
3180.45,0.06012
3174.67,0.06074
3168.88,0.06039
3163.09,0.06000
3157.31,0.05926
3151.52,0.05919
3145.73,0.05948
3139.95,0.05896
3134.16,0.05887
3128.38,0.05903
3122.59,0.05877
3116.8,0.05868
3111.02,0.05891
3105.23,0.05833
3099.45,0.05828
3093.66,0.05806
3087.87,0.05838
3082.09,0.05869
3076.3,0.05848
3070.51,0.05886
3064.73,0.05806
3058.94,0.05870
3053.16,0.05855
3047.37,0.05898
3041.58,0.05874
3035.8,0.05916
3030.01,0.05884
3024.23,0.05888
3018.44,0.05903
3012.65,0.05869
3006.87,0.05837
3001.08,0.05843
2995.29,0.05797
2989.51,0.05739
2983.72,0.05757
2977.94,0.05773
2972.15,0.05879
2966.36,0.06037
2960.58,0.06119
2954.79,0.06126
2949.01,0.06062
2943.22,0.06046
2937.43,0.06005
2931.65,0.06065
2925.86,0.06100
2920.08,0.06101
2914.29,0.06118
2908.5,0.06062
2902.72,0.06073
2896.93,0.06096
2891.14,0.06023
2885.36,0.06004
2879.57,0.06011
2873.79,0.06094
2868,0.06058
2862.21,0.06115
2856.43,0.06163
2850.64,0.06137
2844.86,0.06094
2839.07,0.06128
2833.28,0.06192
2827.5,0.06243
2821.71,0.06236
2815.92,0.06286
2810.14,0.06260
2804.35,0.06262
2798.57,0.06358
2792.78,0.06281
2786.99,0.06187
2781.21,0.06191
2775.42,0.06160
2769.64,0.06240
2763.85,0.06454
2758.06,0.06778
2752.28,0.07097
2746.49,0.07312
2740.7,0.07198
2734.92,0.06928
2729.13,0.06866
2723.35,0.06872
2717.56,0.06711
2711.77,0.06839
2705.99,0.07213
2700.2,0.07654
2694.42,0.08064
2688.63,0.08286
2682.84,0.08423
2677.06,0.08326
2671.27,0.08174
2665.48,0.08241
2659.7,0.08398
2653.91,0.08835
2648.13,0.09324
2642.34,0.09570
2636.55,0.09389
2630.77,0.08874
2624.98,0.08059
2619.2,0.07332
2613.41,0.06996
2607.62,0.06943
2601.84,0.06884
2596.05,0.06836
2590.26,0.06892
2584.48,0.06983
2578.69,0.07148
2572.91,0.07339
2567.12,0.07736
2561.33,0.08136
2555.55,0.08142
2549.76,0.07890
2543.98,0.07606
2538.19,0.07275
2532.4,0.07044
2526.62,0.07078
2520.83,0.07247
2515.04,0.07175
2509.26,0.06935
2503.47,0.06776
2497.69,0.06583
2491.9,0.06372
2486.11,0.06266
2480.33,0.06238
2474.54,0.06179
2468.76,0.06190
2462.97,0.06228
2457.18,0.06180
2451.4,0.06190
2445.61,0.06197
2439.82,0.06218
2434.04,0.06198
2428.25,0.06180
2422.47,0.06136
2416.68,0.06183
2410.89,0.06131
2405.11,0.06116
2399.32,0.06197
2393.54,0.06159
2387.75,0.06200
2381.96,0.06264
2376.18,0.06399
2370.39,0.06500
2364.61,0.06643
2358.82,0.06804
2353.03,0.06762
2347.25,0.06749
2341.46,0.06647
2335.67,0.06533
2329.89,0.06527
2324.1,0.06397
2318.32,0.06447
2312.53,0.06558
2306.74,0.06542
2300.96,0.06415
2295.17,0.06390
2289.39,0.06340
2283.6,0.06251
2277.81,0.06181
2272.03,0.06198
2266.24,0.06113
2260.45,0.06121
2254.67,0.06120
2248.88,0.06131
2243.1,0.06127
2237.31,0.06122
2231.52,0.06156
2225.74,0.06135
2219.95,0.06164
2214.17,0.06137
2208.38,0.06141
2202.59,0.06147
2196.81,0.06126
2191.02,0.06168
2185.23,0.06142
2179.45,0.06254
2173.66,0.06252
2167.88,0.06320
2162.09,0.06517
2156.3,0.06927
2150.52,0.07242
2144.73,0.07270
2138.95,0.07037
2133.16,0.06751
2127.37,0.06520
2121.59,0.06362
2115.8,0.06289
2110.01,0.06200
2104.23,0.06157
2098.44,0.06111
2092.66,0.06090
2086.87,0.06057
2081.08,0.06066
2075.3,0.06092
2069.51,0.06089
2063.73,0.06008
2057.94,0.06049
2052.15,0.06045
2046.37,0.06035
2040.58,0.06014
2034.79,0.06058
2029.01,0.06098
2023.22,0.06064
2017.44,0.06035
2011.65,0.06048
2005.86,0.06033
2000.08,0.06017
1994.29,0.06032
1988.51,0.06031
1982.72,0.06046
1976.93,0.06030
1971.15,0.06053
1965.36,0.06042
1959.57,0.06015
1953.79,0.06034
1948,0.05983
1942.22,0.05981
1936.43,0.05952
1930.64,0.05915
1924.86,0.05921
1919.07,0.05870
1913.29,0.05858
1907.5,0.05837
1901.71,0.05845
1895.93,0.05858
1890.14,0.05837
1884.35,0.05821
1878.57,0.05800
1872.78,0.05819
1867,0.05757
1861.21,0.05709
1855.42,0.05649
1849.64,0.05657
1843.85,0.05589
1838.07,0.05497
1832.28,0.05503
1826.49,0.05351
1820.71,0.05291
1814.92,0.05157
1809.13,0.04935
1803.35,0.04706
1797.56,0.04365
1791.78,0.04245
1785.99,0.04751
1780.2,0.06032
1774.42,0.07567
1768.63,0.08738
1762.85,0.08634
1757.06,0.07882
1751.27,0.07378
1745.49,0.07038
1739.7,0.06835
1733.92,0.06701
1728.13,0.06607
1722.34,0.06574
1716.56,0.06484
1710.77,0.06411
1704.98,0.06346
1699.2,0.06241
1693.41,0.06170
1687.63,0.06151
1681.84,0.06100
1676.05,0.06046
1670.27,0.05965
1664.48,0.05984
1658.7,0.06006
1652.91,0.05933
1647.12,0.05933
1641.34,0.05901
1635.55,0.05911
1629.76,0.05902
1623.98,0.05875
1618.19,0.05831
1612.41,0.05821
1606.62,0.05792
1600.83,0.05820
1595.05,0.05869
1589.26,0.05884
1583.48,0.05838
1577.69,0.05751
1571.9,0.05725
1566.12,0.05641
1560.33,0.05544
1554.54,0.05433
1548.76,0.05424
1542.97,0.05358
1537.19,0.05245
1531.4,0.05074
1525.61,0.04883
1519.83,0.04541
1514.04,0.04221
1508.26,0.05118
1502.47,0.07268
1496.68,0.07202
1490.9,0.06953
1485.11,0.06539
1479.32,0.06276
1473.54,0.06149
1467.75,0.06014
1461.97,0.06057
1456.18,0.05964
1450.39,0.05840
1444.61,0.05871
1438.82,0.05816
1433.04,0.05679
1427.25,0.05598
1421.46,0.05477
1415.68,0.05308
1409.89,0.05456
1404.1,0.05630
1398.32,0.05515
1392.53,0.05363
1386.75,0.05348
1380.96,0.05337
1375.17,0.05185
1369.39,0.05013
1363.6,0.05215
1357.82,0.05258
1352.03,0.05046
1346.24,0.04915
1340.46,0.04793
1334.67,0.04634
1328.88,0.04492
1323.1,0.04346
1317.31,0.04099
1311.53,0.03915
1305.74,0.03822
1299.95,0.03568
1294.17,0.03554
1288.38,0.03525
1282.6,0.03246
1276.81,0.02845
1271.02,0.02317
1265.24,0.02079
1259.45,0.03509
1253.66,0.06776
1247.88,0.09273
1242.09,0.10575
1236.31,0.11846
1230.52,0.13082
1224.73,0.13657
1218.95,0.12898
1213.16,0.10452
1207.38,0.07645
1201.59,0.09088
1195.8,0.14455
1190.02,0.16500
1184.23,0.13838
1178.45,0.11031
1172.66,0.08722
1166.87,0.10968
1161.09,0.15334
1155.3,0.13644
1149.51,0.11974
1143.73,0.11056
1137.94,0.10345
1132.16,0.09809
1126.37,0.09447
1120.58,0.09086
1114.8,0.08779
1109.01,0.08712
1103.23,0.08713
1097.44,0.08633
1091.65,0.08152
1085.87,0.07738
1080.08,0.09195
1074.29,0.09231
1068.51,0.08671
1062.72,0.08414
1056.94,0.08239
1051.15,0.08025
1045.36,0.07861
1039.58,0.07629
1033.79,0.07399
1028.01,0.06987
1022.22,0.06303
1016.43,0.07887
1010.65,0.09617
1004.86,0.09228
999.075,0.08933
993.288,0.08556
987.502,0.08442
981.716,0.08273
975.93,0.08123
970.144,0.07921
964.358,0.07895
958.572,0.07843
952.785,0.07820
946.999,0.07727
941.213,0.07663
935.427,0.07669
929.641,0.07596
923.855,0.07505
918.068,0.07438
912.282,0.07384
906.496,0.07271
900.71,0.07095
894.924,0.06910
889.138,0.07213
883.352,0.07491
877.565,0.07445
871.779,0.07263
865.993,0.07084
860.207,0.06823
854.421,0.06580
848.635,0.06578
842.849,0.06663
837.062,0.06831
831.276,0.07770
825.49,0.08546
819.704,0.08367
813.918,0.08477
808.132,0.08437
802.346,0.08249
796.559,0.07948
790.773,0.07698
784.987,0.07501
779.201,0.07332
773.415,0.07456
767.629,0.07710
761.843,0.07979
756.056,0.08036
750.27,0.08025
744.484,0.07832
738.698,0.07653
732.912,0.07689
727.126,0.07665
721.34,0.07581
715.553,0.07478
709.767,0.07548
703.981,0.07620
698.195,0.07837
692.409,0.07635
686.623,0.07610
680.837,0.07415
675.05,0.07544
669.264,0.07577
663.478,0.07428
657.692,0.07384
651.906,0.07215
646.12,0.07323
640.333,0.07076
634.547,0.07319
628.761,0.07212
622.975,0.06922
617.189,0.07058
611.403,0.06969
605.617,0.06993
599.83,0.06969