File: 01_Data/PC/FTIR/IS/PC_0.81_Trans_S_IS_230516_R2.dpt
7496.92,0.91146
7491.13,0.90841
7485.34,0.91507
7479.56,0.90732
7473.77,0.89983
7467.99,0.88735
7462.2,0.90354
7456.41,0.87800
7450.63,0.91599
7444.84,0.88495
7439.06,0.87907
7433.27,0.87752
7427.48,0.86053
7421.7,0.90038
7415.91,0.86548
7410.12,0.87808
7404.34,0.90543
7398.55,0.89463
7392.77,0.87333
7386.98,0.87006
7381.19,0.86564
7375.41,0.84324
7369.62,0.84283
7363.84,0.84624
7358.05,0.84757
7352.26,0.86537
7346.48,0.86017
7340.69,0.87061
7334.9,0.85371
7329.12,0.84761
7323.33,0.84541
7317.55,0.84957
7311.76,0.84992
7305.97,0.84277
7300.19,0.85436
7294.4,0.85388
7288.62,0.87168
7282.83,0.88611
7277.04,0.86683
7271.26,0.87657
7265.47,0.87986
7259.68,0.88090
7253.9,0.86456
7248.11,0.87407
7242.33,0.83973
7236.54,0.87966
7230.75,0.85153
7224.97,0.83420
7219.18,0.83604
7213.4,0.87404
7207.61,0.87502
7201.82,0.87607
7196.04,0.87707
7190.25,0.86017
7184.46,0.87593
7178.68,0.84977
7172.89,0.86697
7167.11,0.85025
7161.32,0.87067
7155.53,0.86218
7149.75,0.84617
7143.96,0.85974
7138.18,0.85826
7132.39,0.84172
7126.6,0.86853
7120.82,0.84681
7115.03,0.86190
7109.24,0.87259
7103.46,0.86333
7097.67,0.86252
7091.89,0.83870
7086.1,0.87115
7080.31,0.87329
7074.53,0.85598
7068.74,0.88215
7062.96,0.85549
7057.17,0.84272
7051.38,0.85892
7045.6,0.87483
7039.81,0.88720
7034.02,0.87130
7028.24,0.88167
7022.45,0.90200
7016.67,0.88279
7010.88,0.87804
7005.09,0.89759
6999.31,0.89234
6993.52,0.90113
6987.74,0.88760
6981.95,0.87756
6976.16,0.89312
6970.38,0.86303
6964.59,0.88689
6958.8,0.88699
6953.02,0.87817
6947.23,0.87568
6941.45,0.88748
6935.66,0.89015
6929.87,0.89161
6924.09,0.89756
6918.3,0.92155
6912.52,0.87914
6906.73,0.90432
6900.94,0.89682
6895.16,0.88672
6889.37,0.89726
6883.59,0.89358
6877.8,0.88549
6872.01,0.87675
6866.23,0.89658
6860.44,0.90954
6854.65,0.90819
6848.87,0.88548
6843.08,0.88413
6837.3,0.87924
6831.51,0.87762
6825.72,0.90117
6819.94,0.88645
6814.15,0.89162
6808.37,0.88636
6802.58,0.90058
6796.79,0.88898
6791.01,0.89348
6785.22,0.90718
6779.43,0.89136
6773.65,0.90821
6767.86,0.89417
6762.08,0.88161
6756.29,0.90639
6750.5,0.89624
6744.72,0.91297
6738.93,0.90187
6733.15,0.90164
6727.36,0.89246
6721.57,0.89827
6715.79,0.89864
6710,0.91173
6704.21,0.89590
6698.43,0.89183
6692.64,0.89225
6686.86,0.90994
6681.07,0.89859
6675.28,0.89475
6669.5,0.88959
6663.71,0.90120
6657.93,0.90398
6652.14,0.90951
6646.35,0.89963
6640.57,0.90673
6634.78,0.90868
6628.99,0.90098
6623.21,0.89845
6617.42,0.90980
6611.64,0.91418
6605.85,0.90694
6600.06,0.89656
6594.28,0.91661
6588.49,0.91183
6582.71,0.90859
6576.92,0.91454
6571.13,0.90638
6565.35,0.90205
6559.56,0.89676
6553.77,0.89748
6547.99,0.90328
6542.2,0.91271
6536.42,0.92080
6530.63,0.90635
6524.84,0.90415
6519.06,0.90674
6513.27,0.89573
6507.49,0.90658
6501.7,0.90681
6495.91,0.90229
6490.13,0.91755
6484.34,0.90622
6478.55,0.90773
6472.77,0.89582
6466.98,0.90008
6461.2,0.89427
6455.41,0.89882
6449.62,0.90885
6443.84,0.90595
6438.05,0.90431
6432.27,0.90045
6426.48,0.89897
6420.69,0.90431
6414.91,0.90054
6409.12,0.90500
6403.33,0.90568
6397.55,0.90895
6391.76,0.89919
6385.98,0.90739
6380.19,0.90523
6374.4,0.89701
6368.62,0.90396
6362.83,0.90287
6357.05,0.89604
6351.26,0.90057
6345.47,0.89926
6339.69,0.90745
6333.9,0.90169
6328.12,0.90978
6322.33,0.91088
6316.54,0.90381
6310.76,0.89198
6304.97,0.89729
6299.18,0.90029
6293.4,0.89335
6287.61,0.88943
6281.83,0.88960
6276.04,0.89365
6270.25,0.89080
6264.47,0.88821
6258.68,0.88713
6252.9,0.89043
6247.11,0.88996
6241.32,0.88687
6235.54,0.88674
6229.75,0.88229
6223.96,0.87721
6218.18,0.87569
6212.39,0.87120
6206.61,0.87866
6200.82,0.87368
6195.03,0.86040
6189.25,0.85914
6183.46,0.85411
6177.68,0.85311
6171.89,0.84363
6166.1,0.84379
6160.32,0.84643
6154.53,0.84274
6148.74,0.84131
6142.96,0.83025
6137.17,0.83061
6131.39,0.81501
6125.6,0.81374
6119.81,0.81089
6114.03,0.80424
6108.24,0.79618
6102.46,0.78324
6096.67,0.76755
6090.88,0.75708
6085.1,0.73967
6079.31,0.71514
6073.52,0.70018
6067.74,0.68174
6061.95,0.68066
6056.17,0.67027
6050.38,0.65625
6044.59,0.63851
6038.81,0.61541
6033.02,0.58430
6027.24,0.54945
6021.45,0.51550
6015.66,0.47920
6009.88,0.43385
6004.09,0.41037
5998.3,0.39149
5992.52,0.39555
5986.73,0.42557
5980.95,0.46257
5975.16,0.51015
5969.37,0.55653
5963.59,0.57739
5957.8,0.59175
5952.02,0.59108
5946.23,0.58452
5940.44,0.56817
5934.66,0.55522
5928.87,0.55333
5923.08,0.56083
5917.3,0.56955
5911.51,0.58720
5905.73,0.60468
5899.94,0.59959
5894.15,0.60099
5888.37,0.60833
5882.58,0.62599
5876.8,0.65295
5871.01,0.67950
5865.22,0.70749
5859.44,0.72295
5853.65,0.73479
5847.86,0.74775
5842.08,0.75704
5836.29,0.75203
5830.51,0.74715
5824.72,0.75357
5818.93,0.75310
5813.15,0.75443
5807.36,0.75577
5801.58,0.76399
5795.79,0.75844
5790,0.75235
5784.22,0.73684
5778.43,0.73617
5772.65,0.72489
5766.86,0.72058
5761.07,0.72292
5755.29,0.72964
5749.5,0.73971
5743.71,0.75200
5737.93,0.76813
5732.14,0.78189
5726.36,0.79508
5720.57,0.80679
5714.78,0.81665
5709,0.81899
5703.21,0.82419
5697.43,0.82398
5691.64,0.82069
5685.85,0.81682
5680.07,0.81164
5674.28,0.80591
5668.49,0.79661
5662.71,0.80026
5656.92,0.80038
5651.14,0.80459
5645.35,0.80843
5639.56,0.81446
5633.78,0.82429
5627.99,0.83137
5622.21,0.83798
5616.42,0.84295
5610.63,0.84635
5604.85,0.84527
5599.06,0.84888
5593.27,0.84400
5587.49,0.84478
5581.7,0.84279
5575.92,0.84388
5570.13,0.84572
5564.34,0.84600
5558.56,0.84040
5552.77,0.84144
5546.99,0.83869
5541.2,0.83963
5535.41,0.83932
5529.63,0.84302
5523.84,0.84120
5518.05,0.83957
5512.27,0.84140
5506.48,0.83792
5500.7,0.83777
5494.91,0.83630
5489.12,0.83594
5483.34,0.83798
5477.55,0.83229
5471.77,0.82919
5465.98,0.83193
5460.19,0.83124
5454.41,0.83483
5448.62,0.83520
5442.83,0.83455
5437.05,0.83692
5431.26,0.84131
5425.48,0.84298
5419.69,0.84372
5413.9,0.83617
5408.12,0.83965
5402.33,0.84400
5396.55,0.83904
5390.76,0.84105
5384.97,0.84175
5379.19,0.84256
5373.4,0.84199
5367.61,0.84663
5361.83,0.84768
5356.04,0.84002
5350.26,0.83829
5344.47,0.83295
5338.68,0.83393
5332.9,0.84090
5327.11,0.83586
5321.33,0.84427
5315.54,0.84289
5309.75,0.83815
5303.97,0.83734
5298.18,0.83537
5292.39,0.82795
5286.61,0.81737
5280.82,0.80563
5275.04,0.79942
5269.25,0.78448
5263.46,0.77858
5257.68,0.78612
5251.89,0.79786
5246.11,0.80528
5240.32,0.82581
5234.53,0.82994
5228.75,0.83540
5222.96,0.84124
5217.18,0.84792
5211.39,0.84763
5205.6,0.84606
5199.82,0.85047
5194.03,0.85249
5188.24,0.84993
5182.46,0.84727
5176.67,0.84944
5170.89,0.84773
5165.1,0.85145
5159.31,0.85211
5153.53,0.85337
5147.74,0.85753
5141.96,0.85743
5136.17,0.85856
5130.38,0.85871
5124.6,0.86111
5118.81,0.86040
5113.02,0.86016
5107.24,0.86427
5101.45,0.86001
5095.67,0.85973
5089.88,0.85842
5084.09,0.85705
5078.31,0.85826
5072.52,0.85811
5066.74,0.85769
5060.95,0.85916
5055.16,0.85968
5049.38,0.85917
5043.59,0.85982
5037.8,0.86099
5032.02,0.85973
5026.23,0.85867
5020.45,0.85561
5014.66,0.85480
5008.87,0.85537
5003.09,0.85136
4997.3,0.85161
4991.52,0.85157
4985.73,0.84870
4979.94,0.84780
4974.16,0.84813
4968.37,0.84575
4962.58,0.84335
4956.8,0.84420
4951.01,0.84358
4945.23,0.84444
4939.44,0.84346
4933.65,0.84184
4927.87,0.83802
4922.08,0.83476
4916.3,0.82811
4910.51,0.82375
4904.72,0.81864
4898.94,0.81191
4893.15,0.80874
4887.36,0.80604
4881.58,0.80614
4875.79,0.80387
4870.01,0.80268
4864.22,0.79451
4858.43,0.78758
4852.65,0.78381
4846.86,0.77856
4841.08,0.77986
4835.29,0.78207
4829.5,0.78472
4823.72,0.78817
4817.93,0.78957
4812.14,0.79202
4806.36,0.79289
4800.57,0.79257
4794.79,0.78989
4789,0.78465
4783.21,0.78133
4777.43,0.77375
4771.64,0.76725
4765.86,0.76042
4760.07,0.75116
4754.28,0.74068
4748.5,0.72785
4742.71,0.71062
4736.92,0.68860
4731.14,0.66222
4725.35,0.63029
4719.57,0.59156
4713.78,0.54374
4707.99,0.48646
4702.21,0.42467
4696.42,0.37534
4690.64,0.34004
4684.85,0.31650
4679.06,0.31253
4673.28,0.33494
4667.49,0.37265
4661.7,0.40256
4655.92,0.41382
4650.13,0.39706
4644.35,0.35839
4638.56,0.31823
4632.77,0.30059
4626.99,0.33363
4621.2,0.41198
4615.42,0.49667
4609.63,0.55587
4603.84,0.58552
4598.06,0.59003
4592.27,0.57507
4586.49,0.55010
4580.7,0.52640
4574.91,0.51723
4569.13,0.53305
4563.34,0.57078
4557.55,0.61742
4551.77,0.65103
4545.98,0.66367
4540.2,0.66336
4534.41,0.66029
4528.62,0.66267
4522.84,0.66333
4517.05,0.66411
4511.27,0.66221
4505.48,0.65433
4499.69,0.63932
4493.91,0.61747
4488.12,0.59478
4482.33,0.57704
4476.55,0.57187
4470.76,0.57033
4464.98,0.56919
4459.19,0.56065
4453.4,0.54161
4447.62,0.51152
4441.83,0.47345
4436.05,0.42983
4430.26,0.38565
4424.47,0.34456
4418.69,0.30295
4412.9,0.26710
4407.11,0.24618
4401.33,0.25301
4395.54,0.28479
4389.76,0.31029
4383.97,0.30826
4378.18,0.28426
4372.4,0.25619
4366.61,0.23706
4360.83,0.22561
4355.04,0.21656
4349.25,0.20554
4343.47,0.19851
4337.68,0.18843
4331.89,0.17263
4326.11,0.16067
4320.32,0.16691
4314.54,0.18988
4308.75,0.20586
4302.96,0.20702
4297.18,0.20870
4291.39,0.21976
4285.61,0.23530
4279.82,0.24670
4274.03,0.25674
4268.25,0.26563
4262.46,0.27710
4256.67,0.29201
4250.89,0.30758
4245.1,0.31115
4239.32,0.30236
4233.53,0.29354
4227.74,0.28672
4221.96,0.27767
4216.17,0.26972
4210.39,0.26233
4204.6,0.25510
4198.81,0.25233
4193.03,0.24916
4187.24,0.24471
4181.45,0.23741
4175.67,0.23063
4169.88,0.22704
4164.1,0.23943
4158.31,0.26573
4152.52,0.29648
4146.74,0.32096
4140.95,0.32842
4135.17,0.33039
4129.38,0.33194
4123.59,0.32243
4117.81,0.30240
4112.02,0.27067
4106.23,0.22346
4100.45,0.16796
4094.66,0.11657
4088.88,0.07722
4083.09,0.05232
4077.3,0.03834
4071.52,0.03780
4065.73,0.05733
4059.95,0.09953
4054.16,0.14818
4048.37,0.20324
4042.59,0.26625
4036.8,0.31622
4031.02,0.33616
4025.23,0.33288
4019.44,0.32565
4013.66,0.32456
4007.87,0.32907
4002.08,0.32997
3996.3,0.32265
3990.51,0.31709
3984.73,0.31676
3978.94,0.32372
3973.15,0.34055
3967.37,0.36434
3961.58,0.37706
3955.8,0.37050
3950.01,0.35580
3944.22,0.35139
3938.44,0.35215
3932.65,0.34969
3926.86,0.35143
3921.08,0.34286
3915.29,0.32916
3909.51,0.31920
3903.72,0.30244
3897.93,0.29694
3892.15,0.28707
3886.36,0.27676
3880.58,0.27424
3874.79,0.29607
3869,0.33932
3863.22,0.37983
3857.43,0.40939
3851.64,0.42825
3845.86,0.45330
3840.07,0.45424
3834.29,0.46806
3828.5,0.47270
3822.71,0.46354
3816.93,0.45882
3811.14,0.46747
3805.36,0.46581
3799.57,0.47814
3793.78,0.50601
3788,0.52254
3782.21,0.53121
3776.42,0.53334
3770.64,0.51688
3764.85,0.49286
3759.07,0.45855
3753.28,0.42966
3747.49,0.41087
3741.71,0.41620
3735.92,0.41902
3730.14,0.44433
3724.35,0.44515
3718.56,0.43825
3712.78,0.40286
3706.99,0.35483
3701.2,0.30074
3695.42,0.24644
3689.63,0.17613
3683.85,0.11671
3678.06,0.07885
3672.27,0.07104
3666.49,0.09363
3660.7,0.12801
3654.92,0.17560
3649.13,0.22243
3643.34,0.28269
3637.56,0.32223
3631.77,0.34537
3625.98,0.37987
3620.2,0.40200
3614.41,0.42078
3608.63,0.41547
3602.84,0.37915
3597.05,0.30858
3591.27,0.23970
3585.48,0.18396
3579.7,0.15708
3573.91,0.14328
3568.12,0.13310
3562.34,0.12421
3556.55,0.11106
3550.76,0.09293
3544.98,0.07336
3539.19,0.05924
3533.41,0.05144
3527.62,0.05337
3521.83,0.07264
3516.05,0.10875
3510.26,0.15755
3504.48,0.20755
3498.69,0.25158
3492.9,0.28169
3487.12,0.30179
3481.33,0.31991
3475.55,0.33684
3469.76,0.35372
3463.97,0.37226
3458.19,0.39379
3452.4,0.41437
3446.61,0.42957
3440.83,0.44611
3435.04,0.46231
3429.26,0.47533
3423.47,0.48579
3417.68,0.49265
3411.9,0.49434
3406.11,0.48980
3400.33,0.48268
3394.54,0.46862
3388.75,0.45243
3382.97,0.43597
3377.18,0.42517
3371.39,0.41956
3365.61,0.41757
3359.82,0.42078
3354.04,0.42505
3348.25,0.42669
3342.46,0.42529
3336.68,0.42047
3330.89,0.41162
3325.11,0.39517
3319.32,0.37420
3313.53,0.35055
3307.75,0.32780
3301.96,0.30769
3296.17,0.29230
3290.39,0.27961
3284.6,0.27070
3278.82,0.26308
3273.03,0.25477
3267.24,0.24596
3261.46,0.23573
3255.67,0.22646
3249.89,0.21825
3244.1,0.21046
3238.31,0.20416
3232.53,0.19758
3226.74,0.18942
3220.95,0.17912
3215.17,0.16210
3209.38,0.14117
3203.6,0.11738
3197.81,0.09984
3192.02,0.09312
3186.24,0.09136
3180.45,0.08950
3174.67,0.09139
3168.88,0.09493
3163.09,0.09320
3157.31,0.08552
3151.52,0.07511
3145.73,0.06192
3139.95,0.04469
3134.16,0.02734
3128.38,0.01239
3122.59,0.00519
3116.8,0.00289
3111.02,0.00152
3105.23,0.00169
3099.45,0.00186
3093.66,0.00112
3087.87,0.00098
3082.09,0.00082
3076.3,0.00014
3070.51,0.00027
3064.73,0.00094
3058.94,0.00063
3053.16,0.00079
3047.37,0.00063
3041.58,0.00058
3035.8,0.00048
3030.01,0.00006
3024.23,0.00026
3018.44,0.00098
3012.65,0.00047
3006.87,0.00035
3001.08,0.00039
2995.29,-0.00006
2989.51,0.00067
2983.72,0.00020
2977.94,0.00037
2972.15,0.00059
2966.36,0.00050
2960.58,0.00039
2954.79,0.00091
2949.01,0.00044
2943.22,0.00019
2937.43,0.00035
2931.65,0.00069
2925.86,0.00033
2920.08,0.00059
2914.29,0.00045
2908.5,0.00036
2902.72,0.00052
2896.93,0.00021
2891.14,0.00040
2885.36,0.00046
2879.57,0.00025
2873.79,0.00050
2868,0.00018
2862.21,-0.00013
2856.43,0.00272
2850.64,0.01204
2844.86,0.03516
2839.07,0.07117
2833.28,0.09367
2827.5,0.10139
2821.71,0.10688
2815.92,0.09716
2810.14,0.08399
2804.35,0.09502
2798.57,0.11915
2792.78,0.11428
2786.99,0.08568
2781.21,0.06486
2775.42,0.07089
2769.64,0.10370
2763.85,0.14034
2758.06,0.18541
2752.28,0.23000
2746.49,0.24803
2740.7,0.23713
2734.92,0.20492
2729.13,0.19546
2723.35,0.19906
2717.56,0.17494
2711.77,0.19083
2705.99,0.23920
2700.2,0.27892
2694.42,0.30720
2688.63,0.32519
2682.84,0.33242
2677.06,0.32537
2671.27,0.31392
2665.48,0.31628
2659.7,0.33122
2653.91,0.35717
2648.13,0.38507
2642.34,0.39891
2636.55,0.39023
2630.77,0.35819
2624.98,0.30286
2619.2,0.24095
2613.41,0.20953
2607.62,0.20029
2601.84,0.19544
2596.05,0.19361
2590.26,0.19127
2584.48,0.19948
2578.69,0.21641
2572.91,0.23743
2567.12,0.27396
2561.33,0.30027
2555.55,0.29706
2549.76,0.27930
2543.98,0.25757
2538.19,0.23002
2532.4,0.20437
2526.62,0.20574
2520.83,0.22175
2515.04,0.21644
2509.26,0.19304
2503.47,0.17189
2497.69,0.14369
2491.9,0.10867
2486.11,0.08334
2480.33,0.06817
2474.54,0.05702
2468.76,0.05294
2462.97,0.05358
2457.18,0.05498
2451.4,0.05552
2445.61,0.05750
2439.82,0.06125
2434.04,0.05748
2428.25,0.04758
2422.47,0.03531
2416.68,0.02773
2410.89,0.02536
2405.11,0.02653
2399.32,0.03033
2393.54,0.03409
2387.75,0.04601
2381.96,0.06606
2376.18,0.08715
2370.39,0.10533
2364.61,0.12168
2358.82,0.13375
2353.03,0.14357
2347.25,0.13924
2341.46,0.12241
2335.67,0.11447
2329.89,0.10260
2324.1,0.09494
2318.32,0.10510
2312.53,0.11630
2306.74,0.11705
2300.96,0.10929
2295.17,0.10087
2289.39,0.09479
2283.6,0.07450
2277.81,0.06114
2272.03,0.04971
2266.24,0.02963
2260.45,0.01292
2254.67,0.00488
2248.88,0.00177
2243.1,0.00086
2237.31,0.00048
2231.52,0.00031
2225.74,0.00034
2219.95,0.00201
2214.17,0.00536
2208.38,0.00795
2202.59,0.00640
2196.81,0.00576
2191.02,0.01220
2185.23,0.03036
2179.45,0.05608
2173.66,0.06989
2167.88,0.08114
2162.09,0.12110
2156.3,0.17289
2150.52,0.20488
2144.73,0.20733
2138.95,0.18799
2133.16,0.15956
2127.37,0.13009
2121.59,0.10478
2115.8,0.08800
2110.01,0.07521
2104.23,0.06202
2098.44,0.04714
2092.66,0.02873
2086.87,0.01440
2081.08,0.00998
2075.3,0.01418
2069.51,0.01986
2063.73,0.01770
2057.94,0.00896
2052.15,0.00465
2046.37,0.00679
2040.58,0.01288
2034.79,0.01936
2029.01,0.02141
2023.22,0.02145
2017.44,0.01870
2011.65,0.01384
2005.86,0.01226
2000.08,0.01314
1994.29,0.01474
1988.51,0.01826
1982.72,0.02754
1976.93,0.04246
1971.15,0.05316
1965.36,0.05209
1959.57,0.04563
1953.79,0.03734
1948,0.03035
1942.22,0.02663
1936.43,0.02381
1930.64,0.01910
1924.86,0.01359
1919.07,0.00704
1913.29,0.00195
1907.5,0.00020
1901.71,0.00031
1895.93,0.00054
1890.14,0.00022
1884.35,0.00036
1878.57,0.00056
1872.78,0.00088
1867,0.00093
1861.21,0.00046
1855.42,0.00029
1849.64,0.00012
1843.85,0.00054
1838.07,0.00023
1832.28,0.00019
1826.49,0.00015
1820.71,0.00041
1814.92,0.00020
1809.13,0.00009
1803.35,0.00034
1797.56,0.00036
1791.78,0.00043
1785.99,0.00029
1780.2,0.00038
1774.42,0.00017
1768.63,0.00024
1762.85,0.00012
1757.06,0.00006
1751.27,0.00025
1745.49,0.00032
1739.7,0.00030
1733.92,0.00053
1728.13,0.00017
1722.34,0.00031
1716.56,0.00012
1710.77,0.00023
1704.98,0.00045
1699.2,0.00007
1693.41,0.00094
1687.63,0.00175
1681.84,0.00140
1676.05,0.00098
1670.27,0.00031
1664.48,0.00024
1658.7,0.00049
1652.91,0.00125
1647.12,0.00044
1641.34,0.00015
1635.55,0.00064
1629.76,0.00047
1623.98,0.00033
1618.19,0.00014
1612.41,0.00029
1606.62,0.00012
1600.83,0.00022
1595.05,0.00033
1589.26,0.00024
1583.48,0.00040
1577.69,0.00062
1571.9,0.00073
1566.12,0.00072
1560.33,0.00109
1554.54,0.00028
1548.76,0.00022
1542.97,0.00081
1537.19,0.00095
1531.4,0.00044
1525.61,0.00052
1519.83,0.00067
1514.04,0.00027
1508.26,0.00005
1502.47,0.00029
1496.68,0.00047
1490.9,0.00038
1485.11,0.00036
1479.32,0.00017
1473.54,0.00017
1467.75,0.00027
1461.97,0.00022
1456.18,0.00063
1450.39,0.00024
1444.61,0.00021
1438.82,0.00021
1433.04,0.00047
1427.25,0.00040
1421.46,0.00041
1415.68,0.00024
1409.89,0.00036
1404.1,0.00038
1398.32,0.00077
1392.53,0.00047
1386.75,0.00024
1380.96,0.00013
1375.17,0.00043
1369.39,0.00016
1363.6,0.00014
1357.82,0.00016
1352.03,0.00048
1346.24,0.00035
1340.46,0.00053
1334.67,0.00066
1328.88,0.00028
1323.1,0.00036
1317.31,0.00047
1311.53,0.00037
1305.74,0.00039
1299.95,0.00026
1294.17,0.00043
1288.38,0.00014
1282.6,0.00019
1276.81,0.00026
1271.02,0.00015
1265.24,0.00019
1259.45,0.00016
1253.66,0.00052
1247.88,0.00035
1242.09,0.00052
1236.31,0.00032
1230.52,0.00038
1224.73,0.00034
1218.95,0.00023
1213.16,0.00019
1207.38,0.00039
1201.59,0.00014
1195.8,0.00046
1190.02,0.00024
1184.23,0.00026
1178.45,0.00011
1172.66,0.00039
1166.87,0.00024
1161.09,0.00065
1155.3,0.00047
1149.51,0.00062
1143.73,0.00030
1137.94,0.00043
1132.16,0.00053
1126.37,0.00008
1120.58,0.00119
1114.8,0.00040
1109.01,0.00058
1103.23,0.00048
1097.44,0.00051
1091.65,0.00028
1085.87,0.00011
1080.08,0.00051
1074.29,0.00091
1068.51,0.00046
1062.72,0.00054
1056.94,0.00071
1051.15,0.00069
1045.36,0.00088
1039.58,0.00024
1033.79,0.00024
1028.01,0.00090
1022.22,0.00007
1016.43,0.00040
1010.65,0.00062
1004.86,0.00062
999.075,0.00073
993.288,0.00021
987.502,0.00053
981.716,0.00104
975.93,0.00297
970.144,0.00219
964.358,0.00042
958.572,0.00047
952.785,0.00251
946.999,0.00070
941.213,0.00033
935.427,0.00055
929.641,0.00327
923.855,0.00184
918.068,0.00055
912.282,0.00187
906.496,0.00300
900.71,0.00014
894.924,0.00023
889.138,0.00023
883.352,0.00069
877.565,0.00047
871.779,0.00051
865.993,0.00036
860.207,0.00076
854.421,0.00082
848.635,0.00013
842.849,0.00086
837.062,0.00079
831.276,0.00112
825.49,0.00012
819.704,0.00060
813.918,0.00106
808.132,0.00026
802.346,0.00035
796.559,0.00070
790.773,0.00097
784.987,0.00074
779.201,0.00079
773.415,0.00074
767.629,0.00122
761.843,0.00128
756.056,0.00072
750.27,0.00055
744.484,0.00086
738.698,0.00069
732.912,0.00101
727.126,0.00048
721.34,0.00028
715.553,0.00042
709.767,0.00048
703.981,0.00065
698.195,0.00119
692.409,0.00223
686.623,0.01101
680.837,0.02417
675.05,0.03936
669.264,0.05049
663.478,0.06212
657.692,0.06824
651.906,0.06565
646.12,0.05842
640.333,0.02742
634.547,0.00378
628.761,0.01347
622.975,0.02805
617.189,0.02811
611.403,0.01757
605.617,0.00798
599.83,0.00249