File: 01_Data/PC/FTIR/IS/PC_0.81_Trans_S_IS_230516_R1.dpt
7496.92,0.91682
7491.13,0.91530
7485.34,0.89983
7479.56,0.93580
7473.77,0.91501
7467.99,0.91994
7462.2,0.89990
7456.41,0.88100
7450.63,0.87765
7444.84,0.89852
7439.06,0.88143
7433.27,0.89420
7427.48,0.87248
7421.7,0.89573
7415.91,0.88240
7410.12,0.89043
7404.34,0.92046
7398.55,0.92674
7392.77,0.87531
7386.98,0.87041
7381.19,0.84414
7375.41,0.86309
7369.62,0.86432
7363.84,0.84576
7358.05,0.86598
7352.26,0.90444
7346.48,0.85252
7340.69,0.88334
7334.9,0.85631
7329.12,0.84019
7323.33,0.84146
7317.55,0.82968
7311.76,0.86870
7305.97,0.84164
7300.19,0.86070
7294.4,0.85041
7288.62,0.86904
7282.83,0.86340
7277.04,0.86037
7271.26,0.87327
7265.47,0.88695
7259.68,0.89092
7253.9,0.85345
7248.11,0.86700
7242.33,0.88585
7236.54,0.88515
7230.75,0.83998
7224.97,0.85922
7219.18,0.84315
7213.4,0.86544
7207.61,0.86167
7201.82,0.88378
7196.04,0.91534
7190.25,0.86320
7184.46,0.85667
7178.68,0.86260
7172.89,0.88237
7167.11,0.86750
7161.32,0.85512
7155.53,0.84981
7149.75,0.84539
7143.96,0.86766
7138.18,0.86350
7132.39,0.84913
7126.6,0.87222
7120.82,0.87008
7115.03,0.85565
7109.24,0.88227
7103.46,0.86741
7097.67,0.85664
7091.89,0.86042
7086.1,0.86963
7080.31,0.87795
7074.53,0.84676
7068.74,0.87022
7062.96,0.86353
7057.17,0.84799
7051.38,0.86311
7045.6,0.87499
7039.81,0.87162
7034.02,0.89407
7028.24,0.90684
7022.45,0.88496
7016.67,0.87399
7010.88,0.88535
7005.09,0.88979
6999.31,0.87594
6993.52,0.87082
6987.74,0.86909
6981.95,0.86555
6976.16,0.89854
6970.38,0.88610
6964.59,0.88499
6958.8,0.88408
6953.02,0.88870
6947.23,0.88336
6941.45,0.88872
6935.66,0.89078
6929.87,0.88372
6924.09,0.89435
6918.3,0.91671
6912.52,0.87964
6906.73,0.89833
6900.94,0.90221
6895.16,0.88905
6889.37,0.89944
6883.59,0.90615
6877.8,0.89229
6872.01,0.89176
6866.23,0.88813
6860.44,0.91591
6854.65,0.90310
6848.87,0.88615
6843.08,0.89569
6837.3,0.88049
6831.51,0.87499
6825.72,0.89288
6819.94,0.88595
6814.15,0.90090
6808.37,0.89179
6802.58,0.89188
6796.79,0.89063
6791.01,0.88813
6785.22,0.88891
6779.43,0.88626
6773.65,0.90328
6767.86,0.89456
6762.08,0.89263
6756.29,0.90248
6750.5,0.90618
6744.72,0.90359
6738.93,0.89705
6733.15,0.89750
6727.36,0.89708
6721.57,0.88868
6715.79,0.90116
6710,0.90933
6704.21,0.90010
6698.43,0.88444
6692.64,0.88607
6686.86,0.89278
6681.07,0.88290
6675.28,0.90625
6669.5,0.89054
6663.71,0.89639
6657.93,0.91494
6652.14,0.90531
6646.35,0.90081
6640.57,0.91663
6634.78,0.91056
6628.99,0.91200
6623.21,0.89665
6617.42,0.89645
6611.64,0.89557
6605.85,0.90541
6600.06,0.89815
6594.28,0.91201
6588.49,0.91368
6582.71,0.90285
6576.92,0.89544
6571.13,0.91041
6565.35,0.89865
6559.56,0.89727
6553.77,0.90064
6547.99,0.92058
6542.2,0.89976
6536.42,0.90873
6530.63,0.89976
6524.84,0.89035
6519.06,0.90457
6513.27,0.90785
6507.49,0.90261
6501.7,0.91026
6495.91,0.89838
6490.13,0.91340
6484.34,0.90760
6478.55,0.91009
6472.77,0.90779
6466.98,0.89613
6461.2,0.88939
6455.41,0.89604
6449.62,0.90553
6443.84,0.90317
6438.05,0.89406
6432.27,0.90000
6426.48,0.89444
6420.69,0.90663
6414.91,0.90486
6409.12,0.89685
6403.33,0.89755
6397.55,0.91122
6391.76,0.90277
6385.98,0.89893
6380.19,0.90317
6374.4,0.90074
6368.62,0.89940
6362.83,0.89311
6357.05,0.90229
6351.26,0.89793
6345.47,0.90387
6339.69,0.89975
6333.9,0.90394
6328.12,0.90555
6322.33,0.89905
6316.54,0.89603
6310.76,0.89739
6304.97,0.89904
6299.18,0.90011
6293.4,0.88517
6287.61,0.88906
6281.83,0.89110
6276.04,0.89687
6270.25,0.89076
6264.47,0.89064
6258.68,0.89173
6252.9,0.88906
6247.11,0.88396
6241.32,0.88826
6235.54,0.88232
6229.75,0.88119
6223.96,0.87803
6218.18,0.87779
6212.39,0.87289
6206.61,0.86939
6200.82,0.87256
6195.03,0.85586
6189.25,0.85947
6183.46,0.85365
6177.68,0.85073
6171.89,0.84574
6166.1,0.84062
6160.32,0.84463
6154.53,0.84213
6148.74,0.84156
6142.96,0.82931
6137.17,0.82638
6131.39,0.81010
6125.6,0.80336
6119.81,0.80099
6114.03,0.80117
6108.24,0.79279
6102.46,0.78034
6096.67,0.76309
6090.88,0.74957
6085.1,0.72638
6079.31,0.71098
6073.52,0.69727
6067.74,0.68530
6061.95,0.67863
6056.17,0.67349
6050.38,0.65641
6044.59,0.63992
6038.81,0.61292
6033.02,0.57882
6027.24,0.54771
6021.45,0.51807
6015.66,0.47693
6009.88,0.43997
6004.09,0.40996
5998.3,0.39898
5992.52,0.39625
5986.73,0.42609
5980.95,0.46388
5975.16,0.51197
5969.37,0.55210
5963.59,0.58164
5957.8,0.58742
5952.02,0.59073
5946.23,0.58253
5940.44,0.57210
5934.66,0.56102
5928.87,0.55626
5923.08,0.55574
5917.3,0.57085
5911.51,0.58708
5905.73,0.60059
5899.94,0.59900
5894.15,0.60078
5888.37,0.60469
5882.58,0.62498
5876.8,0.64761
5871.01,0.67806
5865.22,0.70170
5859.44,0.71916
5853.65,0.73633
5847.86,0.74238
5842.08,0.75125
5836.29,0.74942
5830.51,0.74823
5824.72,0.75113
5818.93,0.75024
5813.15,0.75158
5807.36,0.75058
5801.58,0.75626
5795.79,0.75577
5790,0.75347
5784.22,0.73970
5778.43,0.73628
5772.65,0.72109
5766.86,0.71970
5761.07,0.72402
5755.29,0.73194
5749.5,0.74232
5743.71,0.75444
5737.93,0.76915
5732.14,0.78266
5726.36,0.79371
5720.57,0.80216
5714.78,0.81107
5709,0.81797
5703.21,0.82301
5697.43,0.82200
5691.64,0.81637
5685.85,0.81253
5680.07,0.80571
5674.28,0.80259
5668.49,0.79362
5662.71,0.79389
5656.92,0.79870
5651.14,0.80356
5645.35,0.80431
5639.56,0.81035
5633.78,0.82427
5627.99,0.83160
5622.21,0.83303
5616.42,0.83979
5610.63,0.84300
5604.85,0.84175
5599.06,0.84623
5593.27,0.84024
5587.49,0.84106
5581.7,0.84127
5575.92,0.84192
5570.13,0.84017
5564.34,0.84062
5558.56,0.83486
5552.77,0.83896
5546.99,0.83748
5541.2,0.83555
5535.41,0.83869
5529.63,0.83842
5523.84,0.83941
5518.05,0.83714
5512.27,0.83851
5506.48,0.83578
5500.7,0.83683
5494.91,0.83114
5489.12,0.83297
5483.34,0.83131
5477.55,0.82702
5471.77,0.82701
5465.98,0.82767
5460.19,0.82353
5454.41,0.82958
5448.62,0.83261
5442.83,0.82837
5437.05,0.83619
5431.26,0.83775
5425.48,0.83848
5419.69,0.84141
5413.9,0.83480
5408.12,0.83562
5402.33,0.84209
5396.55,0.83750
5390.76,0.83832
5384.97,0.84116
5379.19,0.83932
5373.4,0.84033
5367.61,0.84434
5361.83,0.84394
5356.04,0.83819
5350.26,0.83620
5344.47,0.82857
5338.68,0.83298
5332.9,0.83860
5327.11,0.83606
5321.33,0.83860
5315.54,0.84132
5309.75,0.83559
5303.97,0.83484
5298.18,0.83101
5292.39,0.82529
5286.61,0.81717
5280.82,0.80536
5275.04,0.79298
5269.25,0.77980
5263.46,0.77445
5257.68,0.78363
5251.89,0.79217
5246.11,0.80012
5240.32,0.81944
5234.53,0.82746
5228.75,0.83275
5222.96,0.83680
5217.18,0.84307
5211.39,0.84422
5205.6,0.84203
5199.82,0.84819
5194.03,0.84826
5188.24,0.84827
5182.46,0.84664
5176.67,0.84838
5170.89,0.84327
5165.1,0.84841
5159.31,0.84746
5153.53,0.84989
5147.74,0.85327
5141.96,0.85512
5136.17,0.85668
5130.38,0.85719
5124.6,0.86068
5118.81,0.85817
5113.02,0.85843
5107.24,0.86063
5101.45,0.85722
5095.67,0.85718
5089.88,0.85633
5084.09,0.85460
5078.31,0.85449
5072.52,0.85448
5066.74,0.85540
5060.95,0.85646
5055.16,0.85590
5049.38,0.85727
5043.59,0.85873
5037.8,0.85630
5032.02,0.85816
5026.23,0.85655
5020.45,0.85159
5014.66,0.85091
5008.87,0.85176
5003.09,0.84965
4997.3,0.84888
4991.52,0.84598
4985.73,0.84611
4979.94,0.84406
4974.16,0.84461
4968.37,0.84199
4962.58,0.84203
4956.8,0.84069
4951.01,0.84074
4945.23,0.84143
4939.44,0.84115
4933.65,0.83850
4927.87,0.83503
4922.08,0.82935
4916.3,0.82401
4910.51,0.81882
4904.72,0.81548
4898.94,0.80784
4893.15,0.80515
4887.36,0.80460
4881.58,0.80197
4875.79,0.80082
4870.01,0.79931
4864.22,0.79368
4858.43,0.78571
4852.65,0.78047
4846.86,0.77483
4841.08,0.77701
4835.29,0.77964
4829.5,0.78352
4823.72,0.78602
4817.93,0.78687
4812.14,0.78876
4806.36,0.79034
4800.57,0.78973
4794.79,0.78887
4789,0.78309
4783.21,0.77866
4777.43,0.77243
4771.64,0.76656
4765.86,0.75710
4760.07,0.74897
4754.28,0.73838
4748.5,0.72666
4742.71,0.70873
4736.92,0.68709
4731.14,0.65933
4725.35,0.62505
4719.57,0.58841
4713.78,0.54215
4707.99,0.48416
4702.21,0.42148
4696.42,0.37341
4690.64,0.33856
4684.85,0.31439
4679.06,0.31118
4673.28,0.33578
4667.49,0.37088
4661.7,0.40162
4655.92,0.41103
4650.13,0.39458
4644.35,0.35635
4638.56,0.31553
4632.77,0.29896
4626.99,0.33300
4621.2,0.41105
4615.42,0.49474
4609.63,0.55451
4603.84,0.58303
4598.06,0.58746
4592.27,0.57225
4586.49,0.54760
4580.7,0.52608
4574.91,0.51594
4569.13,0.53105
4563.34,0.56975
4557.55,0.61674
4551.77,0.64823
4545.98,0.66053
4540.2,0.66016
4534.41,0.65817
4528.62,0.65901
4522.84,0.66139
4517.05,0.66339
4511.27,0.65933
4505.48,0.65320
4499.69,0.63679
4493.91,0.61655
4488.12,0.59355
4482.33,0.57598
4476.55,0.56954
4470.76,0.56872
4464.98,0.56753
4459.19,0.55839
4453.4,0.53875
4447.62,0.50976
4441.83,0.47171
4436.05,0.42794
4430.26,0.38424
4424.47,0.34291
4418.69,0.30247
4412.9,0.26640
4407.11,0.24516
4401.33,0.25236
4395.54,0.28332
4389.76,0.30880
4383.97,0.30641
4378.18,0.28192
4372.4,0.25601
4366.61,0.23662
4360.83,0.22449
4355.04,0.21526
4349.25,0.20519
4343.47,0.19762
4337.68,0.18732
4331.89,0.17105
4326.11,0.15969
4320.32,0.16589
4314.54,0.18890
4308.75,0.20641
4302.96,0.20623
4297.18,0.20761
4291.39,0.21922
4285.61,0.23482
4279.82,0.24622
4274.03,0.25608
4268.25,0.26468
4262.46,0.27705
4256.67,0.29312
4250.89,0.30708
4245.1,0.30886
4239.32,0.29965
4233.53,0.29177
4227.74,0.28518
4221.96,0.27678
4216.17,0.26886
4210.39,0.26128
4204.6,0.25511
4198.81,0.25172
4193.03,0.24814
4187.24,0.24372
4181.45,0.23609
4175.67,0.22895
4169.88,0.22659
4164.1,0.23864
4158.31,0.26447
4152.52,0.29628
4146.74,0.31917
4140.95,0.32658
4135.17,0.32938
4129.38,0.33080
4123.59,0.32255
4117.81,0.30179
4112.02,0.26886
4106.23,0.22201
4100.45,0.16711
4094.66,0.11538
4088.88,0.07709
4083.09,0.05126
4077.3,0.03816
4071.52,0.03846
4065.73,0.05760
4059.95,0.09943
4054.16,0.14795
4048.37,0.20216
4042.59,0.26532
4036.8,0.31484
4031.02,0.33564
4025.23,0.33206
4019.44,0.32432
4013.66,0.32351
4007.87,0.32718
4002.08,0.32896
3996.3,0.32249
3990.51,0.31595
3984.73,0.31608
3978.94,0.32258
3973.15,0.33984
3967.37,0.36361
3961.58,0.37602
3955.8,0.36927
3950.01,0.35372
3944.22,0.35036
3938.44,0.35107
3932.65,0.34918
3926.86,0.35040
3921.08,0.34137
3915.29,0.32774
3909.51,0.31836
3903.72,0.30156
3897.93,0.29553
3892.15,0.28567
3886.36,0.27513
3880.58,0.27291
3874.79,0.29586
3869,0.33942
3863.22,0.38023
3857.43,0.40942
3851.64,0.42681
3845.86,0.45143
3840.07,0.45383
3834.29,0.46670
3828.5,0.47045
3822.71,0.46152
3816.93,0.45773
3811.14,0.46514
3805.36,0.46459
3799.57,0.47664
3793.78,0.50380
3788,0.52021
3782.21,0.52903
3776.42,0.53109
3770.64,0.51522
3764.85,0.49096
3759.07,0.45723
3753.28,0.42716
3747.49,0.40982
3741.71,0.41503
3735.92,0.41743
3730.14,0.44164
3724.35,0.44306
3718.56,0.43481
3712.78,0.40136
3706.99,0.35288
3701.2,0.29890
3695.42,0.24328
3689.63,0.17358
3683.85,0.11413
3678.06,0.07790
3672.27,0.06894
3666.49,0.08943
3660.7,0.12387
3654.92,0.17017
3649.13,0.21691
3643.34,0.27739
3637.56,0.31699
3631.77,0.34099
3625.98,0.37441
3620.2,0.39796
3614.41,0.41729
3608.63,0.41198
3602.84,0.37546
3597.05,0.30483
3591.27,0.23579
3585.48,0.17958
3579.7,0.15308
3573.91,0.13959
3568.12,0.12982
3562.34,0.12213
3556.55,0.10997
3550.76,0.09084
3544.98,0.07374
3539.19,0.05861
3533.41,0.05055
3527.62,0.05324
3521.83,0.07198
3516.05,0.10699
3510.26,0.15610
3504.48,0.20553
3498.69,0.24890
3492.9,0.27888
3487.12,0.29996
3481.33,0.31656
3475.55,0.33282
3469.76,0.35033
3463.97,0.36887
3458.19,0.39034
3452.4,0.41090
3446.61,0.42754
3440.83,0.44390
3435.04,0.46024
3429.26,0.47215
3423.47,0.48303
3417.68,0.48914
3411.9,0.49050
3406.11,0.48692
3400.33,0.47978
3394.54,0.46611
3388.75,0.45039
3382.97,0.43435
3377.18,0.42345
3371.39,0.41699
3365.61,0.41639
3359.82,0.41953
3354.04,0.42314
3348.25,0.42455
3342.46,0.42414
3336.68,0.41905
3330.89,0.40942
3325.11,0.39287
3319.32,0.37155
3313.53,0.34870
3307.75,0.32653
3301.96,0.30692
3296.17,0.29045
3290.39,0.27851
3284.6,0.26960
3278.82,0.26213
3273.03,0.25448
3267.24,0.24541
3261.46,0.23428
3255.67,0.22566
3249.89,0.21727
3244.1,0.21009
3238.31,0.20390
3232.53,0.19769
3226.74,0.18903
3220.95,0.17732
3215.17,0.16185
3209.38,0.14026
3203.6,0.11690
3197.81,0.09897
3192.02,0.09294
3186.24,0.09212
3180.45,0.08898
3174.67,0.09119
3168.88,0.09502
3163.09,0.09249
3157.31,0.08570
3151.52,0.07572
3145.73,0.06169
3139.95,0.04484
3134.16,0.02741
3128.38,0.01289
3122.59,0.00561
3116.8,0.00347
3111.02,0.00230
3105.23,0.00162
3099.45,0.00196
3093.66,0.00132
3087.87,0.00028
3082.09,0.00030
3076.3,0.00042
3070.51,0.00020
3064.73,0.00073
3058.94,0.00050
3053.16,0.00013
3047.37,0.00044
3041.58,0.00061
3035.8,0.00060
3030.01,0.00061
3024.23,0.00024
3018.44,0.00050
3012.65,0.00053
3006.87,0.00036
3001.08,0.00101
2995.29,0.00044
2989.51,0.00047
2983.72,0.00035
2977.94,0.00049
2972.15,0.00080
2966.36,0.00025
2960.58,0.00063
2954.79,0.00070
2949.01,0.00065
2943.22,0.00003
2937.43,0.00049
2931.65,0.00072
2925.86,0.00049
2920.08,0.00055
2914.29,0.00051
2908.5,0.00032
2902.72,0.00002
2896.93,0.00028
2891.14,0.00021
2885.36,0.00046
2879.57,0.00047
2873.79,0.00047
2868,0.00022
2862.21,0.00035
2856.43,0.00283
2850.64,0.01220
2844.86,0.03507
2839.07,0.07109
2833.28,0.09318
2827.5,0.10086
2821.71,0.10672
2815.92,0.09692
2810.14,0.08452
2804.35,0.09484
2798.57,0.11888
2792.78,0.11435
2786.99,0.08571
2781.21,0.06478
2775.42,0.07054
2769.64,0.10353
2763.85,0.13991
2758.06,0.18494
2752.28,0.22952
2746.49,0.24730
2740.7,0.23674
2734.92,0.20459
2729.13,0.19516
2723.35,0.19878
2717.56,0.17485
2711.77,0.19037
2705.99,0.23858
2700.2,0.27827
2694.42,0.30653
2688.63,0.32451
2682.84,0.33170
2677.06,0.32441
2671.27,0.31307
2665.48,0.31551
2659.7,0.33081
2653.91,0.35678
2648.13,0.38434
2642.34,0.39751
2636.55,0.38925
2630.77,0.35735
2624.98,0.30177
2619.2,0.24091
2613.41,0.20871
2607.62,0.19918
2601.84,0.19521
2596.05,0.19294
2590.26,0.19068
2584.48,0.19917
2578.69,0.21600
2572.91,0.23701
2567.12,0.27344
2561.33,0.29948
2555.55,0.29679
2549.76,0.27871
2543.98,0.25689
2538.19,0.22936
2532.4,0.20381
2526.62,0.20496
2520.83,0.22110
2515.04,0.21553
2509.26,0.19186
2503.47,0.17133
2497.69,0.14343
2491.9,0.10855
2486.11,0.08383
2480.33,0.06838
2474.54,0.05712
2468.76,0.05334
2462.97,0.05376
2457.18,0.05470
2451.4,0.05496
2445.61,0.05776
2439.82,0.06045
2434.04,0.05728
2428.25,0.04744
2422.47,0.03553
2416.68,0.02751
2410.89,0.02475
2405.11,0.02669
2399.32,0.03043
2393.54,0.03405
2387.75,0.04586
2381.96,0.06614
2376.18,0.08640
2370.39,0.10397
2364.61,0.11906
2358.82,0.13187
2353.03,0.14147
2347.25,0.13755
2341.46,0.12026
2335.67,0.11133
2329.89,0.10098
2324.1,0.09339
2318.32,0.10402
2312.53,0.11533
2306.74,0.11632
2300.96,0.10842
2295.17,0.10079
2289.39,0.09444
2283.6,0.07403
2277.81,0.06127
2272.03,0.04989
2266.24,0.02956
2260.45,0.01308
2254.67,0.00504
2248.88,0.00203
2243.1,0.00075
2237.31,0.00039
2231.52,0.00009
2225.74,0.00061
2219.95,0.00236
2214.17,0.00544
2208.38,0.00784
2202.59,0.00659
2196.81,0.00599
2191.02,0.01224
2185.23,0.03034
2179.45,0.05617
2173.66,0.06953
2167.88,0.08108
2162.09,0.12097
2156.3,0.17267
2150.52,0.20454
2144.73,0.20707
2138.95,0.18767
2133.16,0.15901
2127.37,0.12976
2121.59,0.10482
2115.8,0.08779
2110.01,0.07541
2104.23,0.06223
2098.44,0.04737
2092.66,0.02874
2086.87,0.01432
2081.08,0.01029
2075.3,0.01420
2069.51,0.02000
2063.73,0.01764
2057.94,0.00895
2052.15,0.00493
2046.37,0.00674
2040.58,0.01296
2034.79,0.01931
2029.01,0.02158
2023.22,0.02137
2017.44,0.01881
2011.65,0.01401
2005.86,0.01231
2000.08,0.01291
1994.29,0.01461
1988.51,0.01839
1982.72,0.02707
1976.93,0.04254
1971.15,0.05324
1965.36,0.05261
1959.57,0.04552
1953.79,0.03742
1948,0.03051
1942.22,0.02682
1936.43,0.02377
1930.64,0.01890
1924.86,0.01336
1919.07,0.00719
1913.29,0.00223
1907.5,0.00041
1901.71,0.00015
1895.93,0.00016
1890.14,0.00052
1884.35,0.00025
1878.57,0.00067
1872.78,0.00088
1867,0.00088
1861.21,0.00086
1855.42,0.00058
1849.64,0.00020
1843.85,0.00034
1838.07,0.00024
1832.28,0.00014
1826.49,0.00026
1820.71,0.00024
1814.92,0.00028
1809.13,0.00007
1803.35,0.00041
1797.56,0.00037
1791.78,0.00028
1785.99,0.00041
1780.2,0.00006
1774.42,0.00010
1768.63,0.00014
1762.85,0.00020
1757.06,0.00042
1751.27,0.00027
1745.49,0.00046
1739.7,0.00025
1733.92,0.00072
1728.13,0.00029
1722.34,0.00022
1716.56,0.00044
1710.77,0.00039
1704.98,0.00048
1699.2,0.00015
1693.41,0.00091
1687.63,0.00178
1681.84,0.00174
1676.05,0.00123
1670.27,0.00032
1664.48,0.00030
1658.7,0.00049
1652.91,0.00077
1647.12,0.00050
1641.34,0.00035
1635.55,0.00074
1629.76,0.00070
1623.98,0.00015
1618.19,0.00050
1612.41,0.00042
1606.62,0.00021
1600.83,0.00000
1595.05,0.00050
1589.26,0.00011
1583.48,0.00024
1577.69,0.00016
1571.9,0.00081
1566.12,0.00083
1560.33,0.00047
1554.54,0.00035
1548.76,0.00022
1542.97,0.00056
1537.19,0.00064
1531.4,0.00041
1525.61,0.00018
1519.83,0.00077
1514.04,0.00055
1508.26,0.00030
1502.47,0.00041
1496.68,0.00034
1490.9,0.00047
1485.11,0.00027
1479.32,0.00023
1473.54,0.00051
1467.75,0.00042
1461.97,0.00009
1456.18,0.00053
1450.39,0.00037
1444.61,0.00018
1438.82,0.00023
1433.04,0.00023
1427.25,0.00027
1421.46,0.00020
1415.68,0.00036
1409.89,0.00024
1404.1,0.00022
1398.32,0.00055
1392.53,0.00045
1386.75,0.00055
1380.96,0.00026
1375.17,0.00025
1369.39,0.00031
1363.6,0.00009
1357.82,0.00039
1352.03,0.00024
1346.24,0.00001
1340.46,0.00035
1334.67,0.00042
1328.88,0.00033
1323.1,0.00031
1317.31,-0.00007
1311.53,0.00038
1305.74,-0.00001
1299.95,0.00031
1294.17,0.00026
1288.38,-0.00000
1282.6,0.00054
1276.81,0.00052
1271.02,0.00037
1265.24,0.00011
1259.45,0.00036
1253.66,0.00021
1247.88,0.00017
1242.09,0.00016
1236.31,0.00040
1230.52,0.00015
1224.73,0.00052
1218.95,0.00035
1213.16,0.00037
1207.38,0.00049
1201.59,0.00046
1195.8,0.00044
1190.02,0.00014
1184.23,0.00041
1178.45,0.00065
1172.66,0.00032
1166.87,0.00029
1161.09,0.00051
1155.3,0.00054
1149.51,0.00046
1143.73,0.00053
1137.94,0.00034
1132.16,0.00037
1126.37,0.00053
1120.58,0.00020
1114.8,0.00071
1109.01,0.00040
1103.23,0.00082
1097.44,0.00028
1091.65,0.00066
1085.87,0.00007
1080.08,0.00050
1074.29,0.00035
1068.51,0.00026
1062.72,0.00048
1056.94,0.00104
1051.15,0.00116
1045.36,0.00131
1039.58,0.00023
1033.79,0.00072
1028.01,-0.00007
1022.22,0.00043
1016.43,0.00002
1010.65,0.00043
1004.86,0.00024
999.075,0.00073
993.288,0.00029
987.502,0.00016
981.716,0.00127
975.93,0.00236
970.144,0.00255
964.358,0.00076
958.572,0.00077
952.785,0.00224
946.999,0.00040
941.213,0.00034
935.427,0.00040
929.641,0.00385
923.855,0.00151
918.068,0.00038
912.282,0.00257
906.496,0.00314
900.71,0.00047
894.924,0.00058
889.138,0.00021
883.352,0.00049
877.565,0.00048
871.779,0.00070
865.993,0.00060
860.207,0.00051
854.421,0.00048
848.635,0.00062
842.849,0.00067
837.062,0.00062
831.276,0.00107
825.49,0.00068
819.704,0.00069
813.918,0.00033
808.132,0.00038
802.346,0.00033
796.559,0.00066
790.773,0.00090
784.987,0.00069
779.201,0.00016
773.415,0.00067
767.629,0.00045
761.843,0.00025
756.056,0.00074
750.27,0.00022
744.484,0.00023
738.698,0.00061
732.912,0.00085
727.126,0.00105
721.34,0.00024
715.553,0.00085
709.767,0.00069
703.981,0.00066
698.195,0.00063
692.409,0.00226
686.623,0.01161
680.837,0.02490
675.05,0.03946
669.264,0.05051
663.478,0.06318
657.692,0.06904
651.906,0.06703
646.12,0.05794
640.333,0.02746
634.547,0.00430
628.761,0.01350
622.975,0.02520
617.189,0.02715
611.403,0.01652
605.617,0.00718
599.83,0.00352