File: 01_Data/PC/FTIR/IS/PC_0.81_T_IS_230516_R1.dpt
7496.92,0.04312
7491.13,0.05089
7485.34,0.04028
7479.56,0.07112
7473.77,0.04878
7467.99,0.07963
7462.2,0.04075
7456.41,0.02898
7450.63,0.04954
7444.84,0.04460
7439.06,0.07787
7433.27,0.05117
7427.48,0.06436
7421.7,0.06193
7415.91,0.07340
7410.12,0.08288
7404.34,0.06302
7398.55,0.05170
7392.77,0.04141
7386.98,0.07623
7381.19,0.05688
7375.41,0.04802
7369.62,0.05424
7363.84,0.04504
7358.05,0.06909
7352.26,0.06432
7346.48,0.03785
7340.69,0.04491
7334.9,0.05235
7329.12,0.03283
7323.33,0.04219
7317.55,0.03356
7311.76,0.03403
7305.97,0.04493
7300.19,0.08871
7294.4,0.06229
7288.62,0.05813
7282.83,0.08235
7277.04,0.04489
7271.26,0.04522
7265.47,0.06151
7259.68,0.06318
7253.9,0.06649
7248.11,0.04047
7242.33,0.02701
7236.54,0.04509
7230.75,0.04204
7224.97,0.05547
7219.18,0.03039
7213.4,0.04333
7207.61,0.03126
7201.82,0.03824
7196.04,0.02448
7190.25,0.07452
7184.46,0.04865
7178.68,0.06728
7172.89,0.06151
7167.11,0.05284
7161.32,0.05317
7155.53,0.07019
7149.75,0.06322
7143.96,0.05893
7138.18,0.04209
7132.39,0.05002
7126.6,0.05906
7120.82,0.04208
7115.03,0.04234
7109.24,0.04643
7103.46,0.05011
7097.67,0.05571
7091.89,0.03685
7086.1,0.03173
7080.31,0.04886
7074.53,0.04142
7068.74,0.03629
7062.96,0.03165
7057.17,0.06145
7051.38,0.05546
7045.6,0.05865
7039.81,0.04095
7034.02,0.03191
7028.24,0.04423
7022.45,0.05289
7016.67,0.04284
7010.88,0.03903
7005.09,0.05729
6999.31,0.04645
6993.52,0.03721
6987.74,0.02562
6981.95,0.03690
6976.16,0.04494
6970.38,0.03400
6964.59,0.05228
6958.8,0.03983
6953.02,0.03737
6947.23,0.05580
6941.45,0.05117
6935.66,0.03846
6929.87,0.04900
6924.09,0.04616
6918.3,0.02763
6912.52,0.02416
6906.73,0.03230
6900.94,0.02088
6895.16,0.04461
6889.37,0.03762
6883.59,0.04533
6877.8,0.04184
6872.01,0.04579
6866.23,0.04523
6860.44,0.04161
6854.65,0.03008
6848.87,0.04224
6843.08,0.04946
6837.3,0.03721
6831.51,0.04640
6825.72,0.05476
6819.94,0.04507
6814.15,0.03907
6808.37,0.03483
6802.58,0.03511
6796.79,0.02442
6791.01,0.03549
6785.22,0.03647
6779.43,0.04425
6773.65,0.04811
6767.86,0.04740
6762.08,0.04514
6756.29,0.03757
6750.5,0.04346
6744.72,0.04571
6738.93,0.05452
6733.15,0.04014
6727.36,0.03962
6721.57,0.02916
6715.79,0.04461
6710,0.03052
6704.21,0.04237
6698.43,0.03379
6692.64,0.03782
6686.86,0.03678
6681.07,0.03313
6675.28,0.04029
6669.5,0.03126
6663.71,0.03965
6657.93,0.04547
6652.14,0.04755
6646.35,0.04331
6640.57,0.02883
6634.78,0.04259
6628.99,0.03892
6623.21,0.02979
6617.42,0.03773
6611.64,0.03436
6605.85,0.04192
6600.06,0.02810
6594.28,0.03815
6588.49,0.03232
6582.71,0.03012
6576.92,0.02970
6571.13,0.02813
6565.35,0.03845
6559.56,0.03846
6553.77,0.04048
6547.99,0.03548
6542.2,0.03982
6536.42,0.02584
6530.63,0.02700
6524.84,0.04676
6519.06,0.02772
6513.27,0.04119
6507.49,0.03594
6501.7,0.04183
6495.91,0.02947
6490.13,0.03541
6484.34,0.04594
6478.55,0.03716
6472.77,0.04609
6466.98,0.03615
6461.2,0.03151
6455.41,0.03219
6449.62,0.03602
6443.84,0.03173
6438.05,0.03731
6432.27,0.02530
6426.48,0.03029
6420.69,0.04103
6414.91,0.03723
6409.12,0.03388
6403.33,0.03173
6397.55,0.03635
6391.76,0.02942
6385.98,0.04220
6380.19,0.03636
6374.4,0.03041
6368.62,0.03326
6362.83,0.02964
6357.05,0.03660
6351.26,0.04237
6345.47,0.03158
6339.69,0.03082
6333.9,0.03487
6328.12,0.04108
6322.33,0.03415
6316.54,0.04367
6310.76,0.03757
6304.97,0.03005
6299.18,0.03116
6293.4,0.02914
6287.61,0.03023
6281.83,0.04703
6276.04,0.03699
6270.25,0.04331
6264.47,0.02991
6258.68,0.03369
6252.9,0.03718
6247.11,0.03248
6241.32,0.03264
6235.54,0.03304
6229.75,0.03043
6223.96,0.02632
6218.18,0.02573
6212.39,0.03092
6206.61,0.02897
6200.82,0.03205
6195.03,0.02831
6189.25,0.03288
6183.46,0.03451
6177.68,0.03584
6171.89,0.03792
6166.1,0.03416
6160.32,0.03430
6154.53,0.04023
6148.74,0.03454
6142.96,0.03175
6137.17,0.02944
6131.39,0.03112
6125.6,0.02317
6119.81,0.03097
6114.03,0.03751
6108.24,0.03297
6102.46,0.03676
6096.67,0.02982
6090.88,0.02596
6085.1,0.03155
6079.31,0.03157
6073.52,0.02964
6067.74,0.03204
6061.95,0.03312
6056.17,0.02873
6050.38,0.03950
6044.59,0.02758
6038.81,0.03109
6033.02,0.03351
6027.24,0.03490
6021.45,0.03109
6015.66,0.03407
6009.88,0.03133
6004.09,0.03233
5998.3,0.02638
5992.52,0.03318
5986.73,0.03065
5980.95,0.02725
5975.16,0.03114
5969.37,0.03197
5963.59,0.02427
5957.8,0.03335
5952.02,0.02461
5946.23,0.03530
5940.44,0.02989
5934.66,0.02464
5928.87,0.03060
5923.08,0.02842
5917.3,0.02796
5911.51,0.02625
5905.73,0.02677
5899.94,0.02984
5894.15,0.02782
5888.37,0.03352
5882.58,0.03313
5876.8,0.02485
5871.01,0.02675
5865.22,0.02560
5859.44,0.02765
5853.65,0.02768
5847.86,0.02562
5842.08,0.02758
5836.29,0.03016
5830.51,0.02533
5824.72,0.03007
5818.93,0.02463
5813.15,0.02718
5807.36,0.03098
5801.58,0.03332
5795.79,0.03038
5790,0.02701
5784.22,0.02620
5778.43,0.03127
5772.65,0.02825
5766.86,0.02543
5761.07,0.02555
5755.29,0.02499
5749.5,0.02773
5743.71,0.02660
5737.93,0.02946
5732.14,0.02826
5726.36,0.02793
5720.57,0.02473
5714.78,0.02205
5709,0.02321
5703.21,0.02354
5697.43,0.02516
5691.64,0.03200
5685.85,0.02572
5680.07,0.02771
5674.28,0.02794
5668.49,0.02617
5662.71,0.02641
5656.92,0.02633
5651.14,0.02405
5645.35,0.02406
5639.56,0.02371
5633.78,0.02604
5627.99,0.02448
5622.21,0.02809
5616.42,0.02660
5610.63,0.02429
5604.85,0.02854
5599.06,0.02563
5593.27,0.02370
5587.49,0.02749
5581.7,0.02778
5575.92,0.02762
5570.13,0.02550
5564.34,0.02339
5558.56,0.02658
5552.77,0.02811
5546.99,0.02635
5541.2,0.02718
5535.41,0.02678
5529.63,0.02475
5523.84,0.02354
5518.05,0.02712
5512.27,0.02886
5506.48,0.02806
5500.7,0.02964
5494.91,0.02580
5489.12,0.02576
5483.34,0.02814
5477.55,0.03034
5471.77,0.02661
5465.98,0.02784
5460.19,0.02644
5454.41,0.02720
5448.62,0.02887
5442.83,0.02632
5437.05,0.02652
5431.26,0.02891
5425.48,0.02600
5419.69,0.02702
5413.9,0.02903
5408.12,0.02622
5402.33,0.02629
5396.55,0.02583
5390.76,0.02559
5384.97,0.03087
5379.19,0.02618
5373.4,0.02589
5367.61,0.02445
5361.83,0.02483
5356.04,0.02309
5350.26,0.02771
5344.47,0.02399
5338.68,0.02456
5332.9,0.02465
5327.11,0.02684
5321.33,0.02875
5315.54,0.02703
5309.75,0.02637
5303.97,0.02457
5298.18,0.02709
5292.39,0.02702
5286.61,0.02572
5280.82,0.02424
5275.04,0.02589
5269.25,0.02545
5263.46,0.02532
5257.68,0.02633
5251.89,0.02508
5246.11,0.02397
5240.32,0.02545
5234.53,0.02615
5228.75,0.02843
5222.96,0.02398
5217.18,0.02484
5211.39,0.02354
5205.6,0.02585
5199.82,0.02735
5194.03,0.02493
5188.24,0.02375
5182.46,0.02419
5176.67,0.02519
5170.89,0.02745
5165.1,0.02340
5159.31,0.02453
5153.53,0.02497
5147.74,0.02588
5141.96,0.02537
5136.17,0.02551
5130.38,0.02592
5124.6,0.02451
5118.81,0.02591
5113.02,0.02689
5107.24,0.02718
5101.45,0.02574
5095.67,0.02628
5089.88,0.02533
5084.09,0.02422
5078.31,0.02503
5072.52,0.02629
5066.74,0.02589
5060.95,0.02573
5055.16,0.02461
5049.38,0.02423
5043.59,0.02396
5037.8,0.02254
5032.02,0.02493
5026.23,0.02501
5020.45,0.02752
5014.66,0.02369
5008.87,0.02386
5003.09,0.02322
4997.3,0.02490
4991.52,0.02360
4985.73,0.02393
4979.94,0.02418
4974.16,0.02377
4968.37,0.02269
4962.58,0.02397
4956.8,0.02611
4951.01,0.02406
4945.23,0.02488
4939.44,0.02574
4933.65,0.02528
4927.87,0.02371
4922.08,0.02210
4916.3,0.02427
4910.51,0.02464
4904.72,0.02460
4898.94,0.02466
4893.15,0.02483
4887.36,0.02638
4881.58,0.02534
4875.79,0.02321
4870.01,0.02553
4864.22,0.02333
4858.43,0.02572
4852.65,0.02481
4846.86,0.02378
4841.08,0.02409
4835.29,0.02490
4829.5,0.02427
4823.72,0.02368
4817.93,0.02432
4812.14,0.02547
4806.36,0.02459
4800.57,0.02489
4794.79,0.02334
4789,0.02479
4783.21,0.02469
4777.43,0.02541
4771.64,0.02487
4765.86,0.02456
4760.07,0.02473
4754.28,0.02466
4748.5,0.02620
4742.71,0.02494
4736.92,0.02417
4731.14,0.02297
4725.35,0.02288
4719.57,0.02490
4713.78,0.02505
4707.99,0.02390
4702.21,0.02332
4696.42,0.02457
4690.64,0.02408
4684.85,0.02440
4679.06,0.02527
4673.28,0.02382
4667.49,0.02280
4661.7,0.02373
4655.92,0.02558
4650.13,0.02362
4644.35,0.02355
4638.56,0.02397
4632.77,0.02382
4626.99,0.02585
4621.2,0.02564
4615.42,0.02431
4609.63,0.02389
4603.84,0.02224
4598.06,0.02384
4592.27,0.02472
4586.49,0.02348
4580.7,0.02393
4574.91,0.02389
4569.13,0.02481
4563.34,0.02332
4557.55,0.02219
4551.77,0.02507
4545.98,0.02275
4540.2,0.02311
4534.41,0.02461
4528.62,0.02476
4522.84,0.02460
4517.05,0.02324
4511.27,0.02371
4505.48,0.02462
4499.69,0.02362
4493.91,0.02273
4488.12,0.02461
4482.33,0.02388
4476.55,0.02363
4470.76,0.02556
4464.98,0.02274
4459.19,0.02323
4453.4,0.02535
4447.62,0.02489
4441.83,0.02462
4436.05,0.02389
4430.26,0.02292
4424.47,0.02349
4418.69,0.02255
4412.9,0.02326
4407.11,0.02276
4401.33,0.02425
4395.54,0.02358
4389.76,0.02333
4383.97,0.02491
4378.18,0.02480
4372.4,0.02386
4366.61,0.02331
4360.83,0.02420
4355.04,0.02277
4349.25,0.02413
4343.47,0.02341
4337.68,0.02311
4331.89,0.02300
4326.11,0.02268
4320.32,0.02343
4314.54,0.02312
4308.75,0.02458
4302.96,0.02494
4297.18,0.02334
4291.39,0.02445
4285.61,0.02327
4279.82,0.02445
4274.03,0.02331
4268.25,0.02376
4262.46,0.02361
4256.67,0.02317
4250.89,0.02421
4245.1,0.02426
4239.32,0.02359
4233.53,0.02377
4227.74,0.02164
4221.96,0.02289
4216.17,0.02378
4210.39,0.02312
4204.6,0.02456
4198.81,0.02334
4193.03,0.02334
4187.24,0.02394
4181.45,0.02374
4175.67,0.02369
4169.88,0.02333
4164.1,0.02301
4158.31,0.02373
4152.52,0.02392
4146.74,0.02291
4140.95,0.02381
4135.17,0.02421
4129.38,0.02374
4123.59,0.02351
4117.81,0.02332
4112.02,0.02283
4106.23,0.02341
4100.45,0.02392
4094.66,0.02423
4088.88,0.02319
4083.09,0.02361
4077.3,0.02443
4071.52,0.02291
4065.73,0.02313
4059.95,0.02352
4054.16,0.02398
4048.37,0.02274
4042.59,0.02382
4036.8,0.02410
4031.02,0.02394
4025.23,0.02389
4019.44,0.02332
4013.66,0.02356
4007.87,0.02434
4002.08,0.02365
3996.3,0.02358
3990.51,0.02238
3984.73,0.02256
3978.94,0.02332
3973.15,0.02380
3967.37,0.02367
3961.58,0.02379
3955.8,0.02369
3950.01,0.02265
3944.22,0.02283
3938.44,0.02374
3932.65,0.02354
3926.86,0.02406
3921.08,0.02435
3915.29,0.02304
3909.51,0.02413
3903.72,0.02354
3897.93,0.02435
3892.15,0.02335
3886.36,0.02314
3880.58,0.02381
3874.79,0.02263
3869,0.02417
3863.22,0.02422
3857.43,0.02400
3851.64,0.02459
3845.86,0.02430
3840.07,0.02470
3834.29,0.02383
3828.5,0.02498
3822.71,0.02391
3816.93,0.02398
3811.14,0.02393
3805.36,0.02265
3799.57,0.02420
3793.78,0.02389
3788,0.02311
3782.21,0.02421
3776.42,0.02433
3770.64,0.02362
3764.85,0.02385
3759.07,0.02335
3753.28,0.02431
3747.49,0.02431
3741.71,0.02373
3735.92,0.02391
3730.14,0.02443
3724.35,0.02393
3718.56,0.02391
3712.78,0.02445
3706.99,0.02371
3701.2,0.02372
3695.42,0.02425
3689.63,0.02292
3683.85,0.02310
3678.06,0.02366
3672.27,0.02371
3666.49,0.02345
3660.7,0.02327
3654.92,0.02245
3649.13,0.02537
3643.34,0.02259
3637.56,0.02240
3631.77,0.02257
3625.98,0.02301
3620.2,0.02251
3614.41,0.02225
3608.63,0.02285
3602.84,0.02207
3597.05,0.02270
3591.27,0.02249
3585.48,0.02258
3579.7,0.02232
3573.91,0.02184
3568.12,0.02189
3562.34,0.02195
3556.55,0.02230
3550.76,0.02157
3544.98,0.02279
3539.19,0.02160
3533.41,0.02187
3527.62,0.02216
3521.83,0.02183
3516.05,0.02192
3510.26,0.02198
3504.48,0.02077
3498.69,0.02162
3492.9,0.02184
3487.12,0.02157
3481.33,0.02152
3475.55,0.02173
3469.76,0.02212
3463.97,0.02189
3458.19,0.02157
3452.4,0.02161
3446.61,0.02168
3440.83,0.02162
3435.04,0.02241
3429.26,0.02207
3423.47,0.02205
3417.68,0.02186
3411.9,0.02170
3406.11,0.02126
3400.33,0.02214
3394.54,0.02227
3388.75,0.02155
3382.97,0.02197
3377.18,0.02190
3371.39,0.02174
3365.61,0.02182
3359.82,0.02128
3354.04,0.02113
3348.25,0.02097
3342.46,0.02101
3336.68,0.02141
3330.89,0.02104
3325.11,0.02133
3319.32,0.02094
3313.53,0.02180
3307.75,0.02156
3301.96,0.02110
3296.17,0.02100
3290.39,0.02173
3284.6,0.02141
3278.82,0.02127
3273.03,0.02173
3267.24,0.02212
3261.46,0.02152
3255.67,0.02223
3249.89,0.02240
3244.1,0.02129
3238.31,0.02176
3232.53,0.02229
3226.74,0.02258
3220.95,0.02200
3215.17,0.02236
3209.38,0.02199
3203.6,0.02195
3197.81,0.02262
3192.02,0.02262
3186.24,0.02161
3180.45,0.02229
3174.67,0.02212
3168.88,0.02130
3163.09,0.02150
3157.31,0.02187
3151.52,0.02211
3145.73,0.02202
3139.95,0.02178
3134.16,0.02241
3128.38,0.02171
3122.59,0.02227
3116.8,0.02217
3111.02,0.02206
3105.23,0.02103
3099.45,0.02217
3093.66,0.02258
3087.87,0.02226
3082.09,0.02154
3076.3,0.02149
3070.51,0.02194
3064.73,0.02239
3058.94,0.02162
3053.16,0.02183
3047.37,0.02191
3041.58,0.02202
3035.8,0.02213
3030.01,0.02194
3024.23,0.02216
3018.44,0.02227
3012.65,0.02205
3006.87,0.02178
3001.08,0.02202
2995.29,0.02184
2989.51,0.02161
2983.72,0.02126
2977.94,0.02186
2972.15,0.02180
2966.36,0.02075
2960.58,0.02081
2954.79,0.02150
2949.01,0.02103
2943.22,0.02140
2937.43,0.02122
2931.65,0.02101
2925.86,0.02124
2920.08,0.02180
2914.29,0.02140
2908.5,0.02165
2902.72,0.02148
2896.93,0.02177
2891.14,0.02185
2885.36,0.02159
2879.57,0.02184
2873.79,0.02238
2868,0.02195
2862.21,0.02204
2856.43,0.02173
2850.64,0.02198
2844.86,0.02144
2839.07,0.02235
2833.28,0.02232
2827.5,0.02233
2821.71,0.02281
2815.92,0.02257
2810.14,0.02273
2804.35,0.02261
2798.57,0.02246
2792.78,0.02288
2786.99,0.02225
2781.21,0.02164
2775.42,0.02185
2769.64,0.02259
2763.85,0.02249
2758.06,0.02239
2752.28,0.02290
2746.49,0.02285
2740.7,0.02277
2734.92,0.02236
2729.13,0.02283
2723.35,0.02301
2717.56,0.02242
2711.77,0.02200
2705.99,0.02324
2700.2,0.02279
2694.42,0.02257
2688.63,0.02254
2682.84,0.02277
2677.06,0.02260
2671.27,0.02254
2665.48,0.02248
2659.7,0.02286
2653.91,0.02298
2648.13,0.02256
2642.34,0.02235
2636.55,0.02243
2630.77,0.02309
2624.98,0.02268
2619.2,0.02251
2613.41,0.02224
2607.62,0.02297
2601.84,0.02272
2596.05,0.02289
2590.26,0.02262
2584.48,0.02230
2578.69,0.02239
2572.91,0.02287
2567.12,0.02277
2561.33,0.02207
2555.55,0.02253
2549.76,0.02271
2543.98,0.02279
2538.19,0.02314
2532.4,0.02231
2526.62,0.02213
2520.83,0.02293
2515.04,0.02258
2509.26,0.02256
2503.47,0.02311
2497.69,0.02336
2491.9,0.02274
2486.11,0.02316
2480.33,0.02282
2474.54,0.02286
2468.76,0.02244
2462.97,0.02265
2457.18,0.02265
2451.4,0.02300
2445.61,0.02304
2439.82,0.02286
2434.04,0.02264
2428.25,0.02258
2422.47,0.02292
2416.68,0.02270
2410.89,0.02295
2405.11,0.02252
2399.32,0.02255
2393.54,0.02278
2387.75,0.02317
2381.96,0.02287
2376.18,0.02305
2370.39,0.02292
2364.61,0.02351
2358.82,0.02368
2353.03,0.02341
2347.25,0.02330
2341.46,0.02288
2335.67,0.02372
2329.89,0.02283
2324.1,0.02388
2318.32,0.02341
2312.53,0.02344
2306.74,0.02306
2300.96,0.02258
2295.17,0.02279
2289.39,0.02304
2283.6,0.02267
2277.81,0.02284
2272.03,0.02267
2266.24,0.02306
2260.45,0.02309
2254.67,0.02294
2248.88,0.02301
2243.1,0.02301
2237.31,0.02305
2231.52,0.02281
2225.74,0.02281
2219.95,0.02254
2214.17,0.02252
2208.38,0.02291
2202.59,0.02245
2196.81,0.02250
2191.02,0.02290
2185.23,0.02276
2179.45,0.02272
2173.66,0.02258
2167.88,0.02266
2162.09,0.02268
2156.3,0.02240
2150.52,0.02244
2144.73,0.02254
2138.95,0.02272
2133.16,0.02232
2127.37,0.02257
2121.59,0.02263
2115.8,0.02273
2110.01,0.02318
2104.23,0.02292
2098.44,0.02252
2092.66,0.02206
2086.87,0.02274
2081.08,0.02242
2075.3,0.02259
2069.51,0.02277
2063.73,0.02292
2057.94,0.02274
2052.15,0.02281
2046.37,0.02265
2040.58,0.02257
2034.79,0.02213
2029.01,0.02218
2023.22,0.02234
2017.44,0.02237
2011.65,0.02290
2005.86,0.02249
2000.08,0.02249
1994.29,0.02228
1988.51,0.02297
1982.72,0.02233
1976.93,0.02263
1971.15,0.02233
1965.36,0.02221
1959.57,0.02239
1953.79,0.02227
1948,0.02232
1942.22,0.02259
1936.43,0.02224
1930.64,0.02251
1924.86,0.02253
1919.07,0.02298
1913.29,0.02295
1907.5,0.02262
1901.71,0.02240
1895.93,0.02249
1890.14,0.02243
1884.35,0.02256
1878.57,0.02216
1872.78,0.02240
1867,0.02279
1861.21,0.02218
1855.42,0.02219
1849.64,0.02222
1843.85,0.02180
1838.07,0.02237
1832.28,0.02191
1826.49,0.02164
1820.71,0.02193
1814.92,0.02180
1809.13,0.02200
1803.35,0.02178
1797.56,0.02182
1791.78,0.02154
1785.99,0.02141
1780.2,0.02064
1774.42,0.02089
1768.63,0.02054
1762.85,0.02026
1757.06,0.01972
1751.27,0.01967
1745.49,0.01980
1739.7,0.02005
1733.92,0.02067
1728.13,0.02142
1722.34,0.02169
1716.56,0.02231
1710.77,0.02239
1704.98,0.02185
1699.2,0.02102
1693.41,0.02108
1687.63,0.02111
1681.84,0.02097
1676.05,0.02044
1670.27,0.02091
1664.48,0.02035
1658.7,0.02019
1652.91,0.01950
1647.12,0.02092
1641.34,0.02033
1635.55,0.01980
1629.76,0.02050
1623.98,0.02086
1618.19,0.02113
1612.41,0.02062
1606.62,0.02102
1600.83,0.02095
1595.05,0.02071
1589.26,0.02024
1583.48,0.02039
1577.69,0.02118
1571.9,0.02025
1566.12,0.02052
1560.33,0.02051
1554.54,0.01979
1548.76,0.02013
1542.97,0.01998
1537.19,0.02022
1531.4,0.02034
1525.61,0.02078
1519.83,0.02023
1514.04,0.02013
1508.26,0.02129
1502.47,0.02079
1496.68,0.02092
1490.9,0.02058
1485.11,0.02092
1479.32,0.02069
1473.54,0.02038
1467.75,0.02029
1461.97,0.01990
1456.18,0.02029
1450.39,0.02027
1444.61,0.02029
1438.82,0.02101
1433.04,0.02031
1427.25,0.02042
1421.46,0.02073
1415.68,0.02009
1409.89,0.01961
1404.1,0.02003
1398.32,0.01973
1392.53,0.01961
1386.75,0.01948
1380.96,0.01971
1375.17,0.01964
1369.39,0.01949
1363.6,0.01963
1357.82,0.01950
1352.03,0.01973
1346.24,0.01972
1340.46,0.01933
1334.67,0.01925
1328.88,0.01893
1323.1,0.01855
1317.31,0.01876
1311.53,0.01847
1305.74,0.01887
1299.95,0.01928
1294.17,0.01967
1288.38,0.01957
1282.6,0.02039
1276.81,0.02043
1271.02,0.02060
1265.24,0.02093
1259.45,0.02153
1253.66,0.02148
1247.88,0.02136
1242.09,0.02155
1236.31,0.02162
1230.52,0.02104
1224.73,0.02095
1218.95,0.02109
1213.16,0.02034
1207.38,0.02053
1201.59,0.02027
1195.8,0.01971
1190.02,0.01950
1184.23,0.01974
1178.45,0.01938
1172.66,0.01924
1166.87,0.02000
1161.09,0.01883
1155.3,0.01892
1149.51,0.01883
1143.73,0.01916
1137.94,0.01960
1132.16,0.01900
1126.37,0.02029
1120.58,0.02026
1114.8,0.01974
1109.01,0.01973
1103.23,0.01996
1097.44,0.02042
1091.65,0.02011
1085.87,0.01985
1080.08,0.02031
1074.29,0.02155
1068.51,0.02143
1062.72,0.02189
1056.94,0.02143
1051.15,0.02179
1045.36,0.02092
1039.58,0.02078
1033.79,0.02059
1028.01,0.02107
1022.22,0.02130
1016.43,0.02154
1010.65,0.02239
1004.86,0.02255
999.075,0.02243
993.288,0.02227
987.502,0.02251
981.716,0.02220
975.93,0.02262
970.144,0.02253
964.358,0.02195
958.572,0.02178
952.785,0.02227
946.999,0.02195
941.213,0.02152
935.427,0.02142
929.641,0.02105
923.855,0.02114
918.068,0.02114
912.282,0.02135
906.496,0.02079
900.71,0.02120
894.924,0.02101
889.138,0.02157
883.352,0.02084
877.565,0.02140
871.779,0.02095
865.993,0.02043
860.207,0.02084
854.421,0.02099
848.635,0.02064
842.849,0.01996
837.062,0.02054
831.276,0.02078
825.49,0.02093
819.704,0.02136
813.918,0.02064
808.132,0.01993
802.346,0.02095
796.559,0.01981
790.773,0.02068
784.987,0.02028
779.201,0.01967
773.415,0.01994
767.629,0.01999
761.843,0.02001
756.056,0.02032
750.27,0.01879
744.484,0.01935
738.698,0.01862
732.912,0.01922
727.126,0.01901
721.34,0.01939
715.553,0.02019
709.767,0.02030
703.981,0.01972
698.195,0.02019
692.409,0.01940
686.623,0.01889
680.837,0.01901
675.05,0.02036
669.264,0.01940
663.478,0.01904
657.692,0.01751
651.906,0.01764
646.12,0.01868
640.333,0.01739
634.547,0.01864
628.761,0.01969
622.975,0.01828
617.189,0.01728
611.403,0.01908
605.617,0.01855
599.83,0.01710