File: 01_Data/PC/FTIR/IS/PC_0.81_S_IS_230516_R2.dpt
7496.92,0.08899
7491.13,0.10072
7485.34,0.08316
7479.56,0.09938
7473.77,0.09650
7467.99,0.07486
7462.2,0.10948
7456.41,0.08950
7450.63,0.10637
7444.84,0.08314
7439.06,0.10719
7433.27,0.08721
7427.48,0.10378
7421.7,0.09888
7415.91,0.09701
7410.12,0.10709
7404.34,0.08475
7398.55,0.10733
7392.77,0.07786
7386.98,0.05916
7381.19,0.08514
7375.41,0.10098
7369.62,0.04425
7363.84,0.08466
7358.05,0.08004
7352.26,0.10481
7346.48,0.10237
7340.69,0.07774
7334.9,0.08238
7329.12,0.07352
7323.33,0.08501
7317.55,0.09372
7311.76,0.10533
7305.97,0.10266
7300.19,0.08468
7294.4,0.08571
7288.62,0.09592
7282.83,0.09211
7277.04,0.07353
7271.26,0.08724
7265.47,0.08021
7259.68,0.06179
7253.9,0.06834
7248.11,0.10811
7242.33,0.12139
7236.54,0.09297
7230.75,0.07331
7224.97,0.08919
7219.18,0.10011
7213.4,0.11017
7207.61,0.09727
7201.82,0.07548
7196.04,0.08694
7190.25,0.07042
7184.46,0.10145
7178.68,0.11185
7172.89,0.08433
7167.11,0.09046
7161.32,0.09018
7155.53,0.09558
7149.75,0.11235
7143.96,0.06601
7138.18,0.10839
7132.39,0.10156
7126.6,0.08200
7120.82,0.08983
7115.03,0.09735
7109.24,0.08534
7103.46,0.10161
7097.67,0.08811
7091.89,0.10815
7086.1,0.08726
7080.31,0.08784
7074.53,0.09872
7068.74,0.08840
7062.96,0.08515
7057.17,0.11592
7051.38,0.11759
7045.6,0.08941
7039.81,0.09352
7034.02,0.09090
7028.24,0.11179
7022.45,0.08572
7016.67,0.09006
7010.88,0.11561
7005.09,0.10800
6999.31,0.09110
6993.52,0.09980
6987.74,0.09639
6981.95,0.10023
6976.16,0.10345
6970.38,0.11175
6964.59,0.11233
6958.8,0.09887
6953.02,0.09734
6947.23,0.11974
6941.45,0.11747
6935.66,0.10492
6929.87,0.10099
6924.09,0.09442
6918.3,0.09765
6912.52,0.10530
6906.73,0.11508
6900.94,0.09444
6895.16,0.11682
6889.37,0.09917
6883.59,0.09594
6877.8,0.11899
6872.01,0.11462
6866.23,0.10987
6860.44,0.10687
6854.65,0.12050
6848.87,0.11873
6843.08,0.10385
6837.3,0.11347
6831.51,0.10280
6825.72,0.11589
6819.94,0.11231
6814.15,0.10843
6808.37,0.11572
6802.58,0.11033
6796.79,0.11149
6791.01,0.10044
6785.22,0.11388
6779.43,0.10677
6773.65,0.12337
6767.86,0.09401
6762.08,0.10378
6756.29,0.09805
6750.5,0.11176
6744.72,0.10323
6738.93,0.10786
6733.15,0.10205
6727.36,0.11552
6721.57,0.11003
6715.79,0.10542
6710,0.10458
6704.21,0.11517
6698.43,0.10623
6692.64,0.10517
6686.86,0.12423
6681.07,0.10165
6675.28,0.11463
6669.5,0.11058
6663.71,0.12283
6657.93,0.11034
6652.14,0.10476
6646.35,0.09952
6640.57,0.10933
6634.78,0.11728
6628.99,0.10328
6623.21,0.10741
6617.42,0.10457
6611.64,0.11832
6605.85,0.11455
6600.06,0.10884
6594.28,0.11180
6588.49,0.11843
6582.71,0.10823
6576.92,0.10250
6571.13,0.11877
6565.35,0.10940
6559.56,0.11075
6553.77,0.11236
6547.99,0.10374
6542.2,0.11602
6536.42,0.12483
6530.63,0.12387
6524.84,0.11990
6519.06,0.11112
6513.27,0.11185
6507.49,0.10642
6501.7,0.10948
6495.91,0.11464
6490.13,0.11822
6484.34,0.10387
6478.55,0.12001
6472.77,0.11659
6466.98,0.12015
6461.2,0.11517
6455.41,0.10933
6449.62,0.11199
6443.84,0.11242
6438.05,0.10996
6432.27,0.12614
6426.48,0.10822
6420.69,0.11547
6414.91,0.12055
6409.12,0.12837
6403.33,0.11306
6397.55,0.11167
6391.76,0.11433
6385.98,0.11453
6380.19,0.12295
6374.4,0.11848
6368.62,0.11562
6362.83,0.11206
6357.05,0.11476
6351.26,0.11563
6345.47,0.11148
6339.69,0.11519
6333.9,0.11732
6328.12,0.11482
6322.33,0.12573
6316.54,0.11670
6310.76,0.11847
6304.97,0.11160
6299.18,0.11151
6293.4,0.12260
6287.61,0.11883
6281.83,0.12024
6276.04,0.12019
6270.25,0.11413
6264.47,0.11054
6258.68,0.11334
6252.9,0.11672
6247.11,0.11791
6241.32,0.12023
6235.54,0.11023
6229.75,0.11392
6223.96,0.11439
6218.18,0.10965
6212.39,0.11007
6206.61,0.11654
6200.82,0.11546
6195.03,0.11507
6189.25,0.11014
6183.46,0.11701
6177.68,0.10291
6171.89,0.10728
6166.1,0.10675
6160.32,0.10600
6154.53,0.10394
6148.74,0.10684
6142.96,0.10512
6137.17,0.11326
6131.39,0.10409
6125.6,0.10547
6119.81,0.10860
6114.03,0.10275
6108.24,0.10651
6102.46,0.09630
6096.67,0.09538
6090.88,0.08694
6085.1,0.08843
6079.31,0.09582
6073.52,0.09053
6067.74,0.08219
6061.95,0.08464
6056.17,0.07814
6050.38,0.08554
6044.59,0.07296
6038.81,0.07399
6033.02,0.06809
6027.24,0.07285
6021.45,0.06714
6015.66,0.06274
6009.88,0.05273
6004.09,0.05035
5998.3,0.05282
5992.52,0.04864
5986.73,0.05334
5980.95,0.05913
5975.16,0.06634
5969.37,0.06554
5963.59,0.07030
5957.8,0.07230
5952.02,0.07261
5946.23,0.07033
5940.44,0.07293
5934.66,0.06849
5928.87,0.06218
5923.08,0.06876
5917.3,0.07114
5911.51,0.07650
5905.73,0.07709
5899.94,0.07742
5894.15,0.07338
5888.37,0.07205
5882.58,0.08115
5876.8,0.08515
5871.01,0.09292
5865.22,0.08875
5859.44,0.09542
5853.65,0.09999
5847.86,0.10058
5842.08,0.09836
5836.29,0.10062
5830.51,0.09547
5824.72,0.10025
5818.93,0.10202
5813.15,0.09861
5807.36,0.09632
5801.58,0.09970
5795.79,0.09589
5790,0.09417
5784.22,0.09716
5778.43,0.09763
5772.65,0.09459
5766.86,0.09630
5761.07,0.09864
5755.29,0.09939
5749.5,0.09697
5743.71,0.10102
5737.93,0.10234
5732.14,0.10920
5726.36,0.11243
5720.57,0.11336
5714.78,0.11511
5709,0.11123
5703.21,0.11787
5697.43,0.11219
5691.64,0.11469
5685.85,0.11751
5680.07,0.11807
5674.28,0.11431
5668.49,0.11428
5662.71,0.10814
5656.92,0.10950
5651.14,0.11125
5645.35,0.11460
5639.56,0.11118
5633.78,0.11681
5627.99,0.11836
5622.21,0.12033
5616.42,0.12067
5610.63,0.12307
5604.85,0.12256
5599.06,0.12214
5593.27,0.12091
5587.49,0.12241
5581.7,0.12159
5575.92,0.11689
5570.13,0.11994
5564.34,0.12400
5558.56,0.11631
5552.77,0.12281
5546.99,0.12035
5541.2,0.12297
5535.41,0.12172
5529.63,0.12344
5523.84,0.12434
5518.05,0.12304
5512.27,0.12468
5506.48,0.12141
5500.7,0.11962
5494.91,0.12186
5489.12,0.12490
5483.34,0.12355
5477.55,0.12460
5471.77,0.12003
5465.98,0.11810
5460.19,0.12177
5454.41,0.12055
5448.62,0.12155
5442.83,0.12338
5437.05,0.12149
5431.26,0.12515
5425.48,0.12838
5419.69,0.12392
5413.9,0.12184
5408.12,0.12411
5402.33,0.12637
5396.55,0.12638
5390.76,0.12560
5384.97,0.12363
5379.19,0.12925
5373.4,0.12637
5367.61,0.12668
5361.83,0.12726
5356.04,0.12968
5350.26,0.12899
5344.47,0.12439
5338.68,0.12522
5332.9,0.12739
5327.11,0.12779
5321.33,0.12743
5315.54,0.12491
5309.75,0.12671
5303.97,0.12524
5298.18,0.12447
5292.39,0.12697
5286.61,0.12441
5280.82,0.12233
5275.04,0.11750
5269.25,0.11670
5263.46,0.11619
5257.68,0.11567
5251.89,0.11938
5246.11,0.11942
5240.32,0.12569
5234.53,0.12694
5228.75,0.13012
5222.96,0.12910
5217.18,0.13042
5211.39,0.13224
5205.6,0.12935
5199.82,0.13095
5194.03,0.13434
5188.24,0.12978
5182.46,0.13103
5176.67,0.13348
5170.89,0.12980
5165.1,0.13372
5159.31,0.13263
5153.53,0.13055
5147.74,0.13329
5141.96,0.13426
5136.17,0.13434
5130.38,0.13205
5124.6,0.13616
5118.81,0.13459
5113.02,0.13476
5107.24,0.13445
5101.45,0.13564
5095.67,0.13527
5089.88,0.13594
5084.09,0.13518
5078.31,0.13364
5072.52,0.13484
5066.74,0.13348
5060.95,0.13432
5055.16,0.13473
5049.38,0.13651
5043.59,0.13467
5037.8,0.13395
5032.02,0.13476
5026.23,0.13570
5020.45,0.13249
5014.66,0.13515
5008.87,0.13512
5003.09,0.13774
4997.3,0.13399
4991.52,0.13494
4985.73,0.13499
4979.94,0.13392
4974.16,0.13419
4968.37,0.13444
4962.58,0.13380
4956.8,0.13518
4951.01,0.13562
4945.23,0.13300
4939.44,0.13383
4933.65,0.13398
4927.87,0.13213
4922.08,0.13473
4916.3,0.13225
4910.51,0.13103
4904.72,0.12970
4898.94,0.12795
4893.15,0.12786
4887.36,0.12803
4881.58,0.12949
4875.79,0.12878
4870.01,0.12944
4864.22,0.12516
4858.43,0.12777
4852.65,0.12453
4846.86,0.12378
4841.08,0.12231
4835.29,0.12352
4829.5,0.12287
4823.72,0.12412
4817.93,0.12500
4812.14,0.12830
4806.36,0.12624
4800.57,0.12780
4794.79,0.12789
4789,0.12566
4783.21,0.12491
4777.43,0.12351
4771.64,0.12267
4765.86,0.12174
4760.07,0.12039
4754.28,0.11798
4748.5,0.11633
4742.71,0.11276
4736.92,0.10937
4731.14,0.10445
4725.35,0.09960
4719.57,0.09391
4713.78,0.08639
4707.99,0.07853
4702.21,0.07392
4696.42,0.06958
4690.64,0.06569
4684.85,0.06440
4679.06,0.06395
4673.28,0.06544
4667.49,0.06814
4661.7,0.07271
4655.92,0.07193
4650.13,0.07223
4644.35,0.06771
4638.56,0.06383
4632.77,0.06535
4626.99,0.06728
4621.2,0.07455
4615.42,0.08388
4609.63,0.09047
4603.84,0.09700
4598.06,0.09687
4592.27,0.09339
4586.49,0.08840
4580.7,0.08692
4574.91,0.08553
4569.13,0.08782
4563.34,0.09319
4557.55,0.10037
4551.77,0.10625
4545.98,0.10898
4540.2,0.10818
4534.41,0.10825
4528.62,0.10707
4522.84,0.10847
4517.05,0.10919
4511.27,0.10945
4505.48,0.10704
4499.69,0.10484
4493.91,0.10059
4488.12,0.09899
4482.33,0.09483
4476.55,0.09569
4470.76,0.09526
4464.98,0.09418
4459.19,0.09253
4453.4,0.09095
4447.62,0.08670
4441.83,0.08198
4436.05,0.07698
4430.26,0.07272
4424.47,0.06862
4418.69,0.06524
4412.9,0.06340
4407.11,0.06116
4401.33,0.06291
4395.54,0.06452
4389.76,0.06680
4383.97,0.06667
4378.18,0.06370
4372.4,0.06192
4366.61,0.06113
4360.83,0.06186
4355.04,0.06008
4349.25,0.06171
4343.47,0.06207
4337.68,0.05976
4331.89,0.05889
4326.11,0.05823
4320.32,0.05842
4314.54,0.06027
4308.75,0.06085
4302.96,0.06054
4297.18,0.06129
4291.39,0.06105
4285.61,0.06249
4279.82,0.06311
4274.03,0.06462
4268.25,0.06448
4262.46,0.06505
4256.67,0.06796
4250.89,0.06844
4245.1,0.06857
4239.32,0.06815
4233.53,0.06731
4227.74,0.06658
4221.96,0.06519
4216.17,0.06525
4210.39,0.06474
4204.6,0.06458
4198.81,0.06440
4193.03,0.06363
4187.24,0.06423
4181.45,0.06394
4175.67,0.06257
4169.88,0.06247
4164.1,0.06449
4158.31,0.06664
4152.52,0.06775
4146.74,0.06890
4140.95,0.06959
4135.17,0.07041
4129.38,0.07099
4123.59,0.07003
4117.81,0.06944
4112.02,0.06624
4106.23,0.06302
4100.45,0.06026
4094.66,0.05795
4088.88,0.05779
4083.09,0.05757
4077.3,0.05729
4071.52,0.05753
4065.73,0.05705
4059.95,0.05873
4054.16,0.06006
4048.37,0.06253
4042.59,0.06631
4036.8,0.07062
4031.02,0.07289
4025.23,0.07171
4019.44,0.07083
4013.66,0.07115
4007.87,0.07203
4002.08,0.07138
3996.3,0.07143
3990.51,0.07030
3984.73,0.07091
3978.94,0.07159
3973.15,0.07276
3967.37,0.07531
3961.58,0.07726
3955.8,0.07556
3950.01,0.07455
3944.22,0.07507
3938.44,0.07474
3932.65,0.07451
3926.86,0.07514
3921.08,0.07321
3915.29,0.07272
3909.51,0.07120
3903.72,0.07069
3897.93,0.06966
3892.15,0.06873
3886.36,0.06852
3880.58,0.06836
3874.79,0.07079
3869,0.07436
3863.22,0.07936
3857.43,0.08105
3851.64,0.08496
3845.86,0.08748
3840.07,0.08874
3834.29,0.09034
3828.5,0.09112
3822.71,0.08964
3816.93,0.08968
3811.14,0.08901
3805.36,0.09053
3799.57,0.09286
3793.78,0.09441
3788,0.09805
3782.21,0.09964
3776.42,0.09953
3770.64,0.09746
3764.85,0.09341
3759.07,0.08985
3753.28,0.08650
3747.49,0.08416
3741.71,0.08520
3735.92,0.08607
3730.14,0.08875
3724.35,0.08869
3718.56,0.08652
3712.78,0.08207
3706.99,0.07696
3701.2,0.07038
3695.42,0.06641
3689.63,0.06329
3683.85,0.06046
3678.06,0.05930
3672.27,0.05955
3666.49,0.06037
3660.7,0.06116
3654.92,0.06360
3649.13,0.06533
3643.34,0.06849
3637.56,0.07220
3631.77,0.07485
3625.98,0.07863
3620.2,0.08011
3614.41,0.08316
3608.63,0.08240
3602.84,0.07789
3597.05,0.07146
3591.27,0.06621
3585.48,0.06272
3579.7,0.06097
3573.91,0.06071
3568.12,0.06038
3562.34,0.06085
3556.55,0.06012
3550.76,0.05889
3544.98,0.05913
3539.19,0.05880
3533.41,0.05840
3527.62,0.05756
3521.83,0.05825
3516.05,0.05842
3510.26,0.06054
3504.48,0.06368
3498.69,0.06705
3492.9,0.06888
3487.12,0.06940
3481.33,0.07179
3475.55,0.07248
3469.76,0.07424
3463.97,0.07541
3458.19,0.07917
3452.4,0.08074
3446.61,0.08324
3440.83,0.08536
3435.04,0.08736
3429.26,0.08862
3423.47,0.09042
3417.68,0.09112
3411.9,0.09119
3406.11,0.09087
3400.33,0.09047
3394.54,0.08886
3388.75,0.08581
3382.97,0.08376
3377.18,0.08262
3371.39,0.08191
3365.61,0.08213
3359.82,0.08236
3354.04,0.08273
3348.25,0.08291
3342.46,0.08357
3336.68,0.08192
3330.89,0.08159
3325.11,0.07972
3319.32,0.07705
3313.53,0.07489
3307.75,0.07233
3301.96,0.07023
3296.17,0.06999
3290.39,0.06861
3284.6,0.06791
3278.82,0.06693
3273.03,0.06720
3267.24,0.06623
3261.46,0.06645
3255.67,0.06529
3249.89,0.06482
3244.1,0.06411
3238.31,0.06401
3232.53,0.06320
3226.74,0.06358
3220.95,0.06248
3215.17,0.06188
3209.38,0.06115
3203.6,0.05979
3197.81,0.05931
3192.02,0.05986
3186.24,0.06002
3180.45,0.05958
3174.67,0.06012
3168.88,0.06017
3163.09,0.06000
3157.31,0.05939
3151.52,0.05978
3145.73,0.05935
3139.95,0.05921
3134.16,0.05876
3128.38,0.05893
3122.59,0.05882
3116.8,0.05903
3111.02,0.05851
3105.23,0.05853
3099.45,0.05902
3093.66,0.05857
3087.87,0.05852
3082.09,0.05864
3076.3,0.05892
3070.51,0.05846
3064.73,0.05874
3058.94,0.05901
3053.16,0.05891
3047.37,0.05936
3041.58,0.05916
3035.8,0.05871
3030.01,0.05888
3024.23,0.05895
3018.44,0.05920
3012.65,0.05859
3006.87,0.05846
3001.08,0.05733
2995.29,0.05781
2989.51,0.05757
2983.72,0.05703
2977.94,0.05676
2972.15,0.05857
2966.36,0.06064
2960.58,0.06105
2954.79,0.06090
2949.01,0.06089
2943.22,0.06016
2937.43,0.05994
2931.65,0.05988
2925.86,0.06027
2920.08,0.06094
2914.29,0.06066
2908.5,0.06022
2902.72,0.06039
2896.93,0.06032
2891.14,0.06009
2885.36,0.06063
2879.57,0.06012
2873.79,0.06071
2868,0.06073
2862.21,0.06109
2856.43,0.06137
2850.64,0.06068
2844.86,0.06097
2839.07,0.06246
2833.28,0.06289
2827.5,0.06312
2821.71,0.06295
2815.92,0.06229
2810.14,0.06192
2804.35,0.06238
2798.57,0.06280
2792.78,0.06314
2786.99,0.06173
2781.21,0.06123
2775.42,0.06184
2769.64,0.06249
2763.85,0.06450
2758.06,0.06698
2752.28,0.07121
2746.49,0.07254
2740.7,0.07209
2734.92,0.06908
2729.13,0.06858
2723.35,0.06844
2717.56,0.06656
2711.77,0.06828
2705.99,0.07181
2700.2,0.07613
2694.42,0.08043
2688.63,0.08260
2682.84,0.08390
2677.06,0.08278
2671.27,0.08128
2665.48,0.08209
2659.7,0.08396
2653.91,0.08783
2648.13,0.09237
2642.34,0.09553
2636.55,0.09406
2630.77,0.08843
2624.98,0.08050
2619.2,0.07302
2613.41,0.07026
2607.62,0.06916
2601.84,0.06929
2596.05,0.06855
2590.26,0.06858
2584.48,0.06935
2578.69,0.07114
2572.91,0.07311
2567.12,0.07772
2561.33,0.08133
2555.55,0.08111
2549.76,0.07856
2543.98,0.07550
2538.19,0.07242
2532.4,0.07005
2526.62,0.07022
2520.83,0.07181
2515.04,0.07116
2509.26,0.06926
2503.47,0.06777
2497.69,0.06559
2491.9,0.06357
2486.11,0.06253
2480.33,0.06201
2474.54,0.06170
2468.76,0.06155
2462.97,0.06143
2457.18,0.06179
2451.4,0.06174
2445.61,0.06175
2439.82,0.06224
2434.04,0.06227
2428.25,0.06191
2422.47,0.06191
2416.68,0.06212
2410.89,0.06169
2405.11,0.06155
2399.32,0.06172
2393.54,0.06196
2387.75,0.06159
2381.96,0.06249
2376.18,0.06344
2370.39,0.06476
2364.61,0.06582
2358.82,0.06728
2353.03,0.06748
2347.25,0.06726
2341.46,0.06566
2335.67,0.06596
2329.89,0.06459
2324.1,0.06453
2318.32,0.06442
2312.53,0.06478
2306.74,0.06499
2300.96,0.06402
2295.17,0.06355
2289.39,0.06330
2283.6,0.06249
2277.81,0.06218
2272.03,0.06191
2266.24,0.06124
2260.45,0.06121
2254.67,0.06114
2248.88,0.06104
2243.1,0.06074
2237.31,0.06147
2231.52,0.06096
2225.74,0.06144
2219.95,0.06110
2214.17,0.06111
2208.38,0.06102
2202.59,0.06108
2196.81,0.06114
2191.02,0.06106
2185.23,0.06184
2179.45,0.06209
2173.66,0.06231
2167.88,0.06272
2162.09,0.06489
2156.3,0.06917
2150.52,0.07226
2144.73,0.07304
2138.95,0.07092
2133.16,0.06770
2127.37,0.06513
2121.59,0.06360
2115.8,0.06266
2110.01,0.06205
2104.23,0.06138
2098.44,0.06098
2092.66,0.06097
2086.87,0.06049
2081.08,0.06056
2075.3,0.06015
2069.51,0.06021
2063.73,0.06085
2057.94,0.06079
2052.15,0.06010
2046.37,0.06019
2040.58,0.06053
2034.79,0.06016
2029.01,0.06039
2023.22,0.06064
2017.44,0.06046
2011.65,0.06013
2005.86,0.06030
2000.08,0.05998
1994.29,0.05990
1988.51,0.06037
1982.72,0.06024
1976.93,0.06029
1971.15,0.06013
1965.36,0.06025
1959.57,0.05975
1953.79,0.05955
1948,0.05973
1942.22,0.05976
1936.43,0.05944
1930.64,0.05928
1924.86,0.05852
1919.07,0.05826
1913.29,0.05817
1907.5,0.05833
1901.71,0.05850
1895.93,0.05839
1890.14,0.05821
1884.35,0.05804
1878.57,0.05793
1872.78,0.05764
1867,0.05734
1861.21,0.05692
1855.42,0.05664
1849.64,0.05621
1843.85,0.05600
1838.07,0.05501
1832.28,0.05445
1826.49,0.05349
1820.71,0.05241
1814.92,0.05146
1809.13,0.04949
1803.35,0.04712
1797.56,0.04377
1791.78,0.04212
1785.99,0.04715
1780.2,0.06005
1774.42,0.07561
1768.63,0.08733
1762.85,0.08567
1757.06,0.07848
1751.27,0.07372
1745.49,0.07013
1739.7,0.06881
1733.92,0.06745
1728.13,0.06622
1722.34,0.06542
1716.56,0.06493
1710.77,0.06392
1704.98,0.06311
1699.2,0.06252
1693.41,0.06193
1687.63,0.06135
1681.84,0.06103
1676.05,0.05998
1670.27,0.05955
1664.48,0.06001
1658.7,0.06040
1652.91,0.05913
1647.12,0.05921
1641.34,0.05914
1635.55,0.05918
1629.76,0.05887
1623.98,0.05842
1618.19,0.05782
1612.41,0.05768
1606.62,0.05740
1600.83,0.05811
1595.05,0.05839
1589.26,0.05881
1583.48,0.05882
1577.69,0.05714
1571.9,0.05746
1566.12,0.05594
1560.33,0.05581
1554.54,0.05512
1548.76,0.05407
1542.97,0.05351
1537.19,0.05206
1531.4,0.05079
1525.61,0.04908
1519.83,0.04596
1514.04,0.04206
1508.26,0.05167
1502.47,0.07205
1496.68,0.07267
1490.9,0.06872
1485.11,0.06459
1479.32,0.06225
1473.54,0.06085
1467.75,0.06002
1461.97,0.06032
1456.18,0.05926
1450.39,0.05879
1444.61,0.05798
1438.82,0.05798
1433.04,0.05678
1427.25,0.05532
1421.46,0.05459
1415.68,0.05308
1409.89,0.05449
1404.1,0.05619
1398.32,0.05493
1392.53,0.05300
1386.75,0.05356
1380.96,0.05353
1375.17,0.05187
1369.39,0.04995
1363.6,0.05226
1357.82,0.05198
1352.03,0.05056
1346.24,0.04911
1340.46,0.04756
1334.67,0.04600
1328.88,0.04454
1323.1,0.04299
1317.31,0.04047
1311.53,0.03917
1305.74,0.03808
1299.95,0.03602
1294.17,0.03492
1288.38,0.03492
1282.6,0.03279
1276.81,0.02852
1271.02,0.02306
1265.24,0.02083
1259.45,0.03506
1253.66,0.06771
1247.88,0.09306
1242.09,0.10606
1236.31,0.11827
1230.52,0.13012
1224.73,0.13584
1218.95,0.12885
1213.16,0.10407
1207.38,0.07620
1201.59,0.09036
1195.8,0.14453
1190.02,0.16399
1184.23,0.13794
1178.45,0.10996
1172.66,0.08752
1166.87,0.10926
1161.09,0.15271
1155.3,0.13574
1149.51,0.11880
1143.73,0.10934
1137.94,0.10288
1132.16,0.09809
1126.37,0.09354
1120.58,0.08937
1114.8,0.08703
1109.01,0.08649
1103.23,0.08697
1097.44,0.08638
1091.65,0.08133
1085.87,0.07702
1080.08,0.09088
1074.29,0.09219
1068.51,0.08730
1062.72,0.08447
1056.94,0.08201
1051.15,0.07985
1045.36,0.07884
1039.58,0.07623
1033.79,0.07356
1028.01,0.06937
1022.22,0.06216
1016.43,0.07880
1010.65,0.09561
1004.86,0.09230
999.075,0.08882
993.288,0.08555
987.502,0.08380
981.716,0.08202
975.93,0.08065
970.144,0.07999
964.358,0.07856
958.572,0.07840
952.785,0.07725
946.999,0.07687
941.213,0.07662
935.427,0.07607
929.641,0.07531
923.855,0.07476
918.068,0.07482
912.282,0.07385
906.496,0.07230
900.71,0.07042
894.924,0.06866
889.138,0.07206
883.352,0.07491
877.565,0.07462
871.779,0.07305
865.993,0.07025
860.207,0.06810
854.421,0.06569
848.635,0.06475
842.849,0.06637
837.062,0.06904
831.276,0.07757
825.49,0.08366
819.704,0.08263
813.918,0.08402
808.132,0.08525
802.346,0.08254
796.559,0.07976
790.773,0.07700
784.987,0.07519
779.201,0.07302
773.415,0.07466
767.629,0.07769
761.843,0.08039
756.056,0.08077
750.27,0.08022
744.484,0.07797
738.698,0.07685
732.912,0.07660
727.126,0.07672
721.34,0.07634
715.553,0.07475
709.767,0.07441
703.981,0.07565
698.195,0.07617
692.409,0.07682
686.623,0.07675
680.837,0.07512
675.05,0.07459
669.264,0.07395
663.478,0.07518
657.692,0.07377
651.906,0.07379
646.12,0.07255
640.333,0.07168
634.547,0.07300
628.761,0.06989
622.975,0.07145
617.189,0.06861
611.403,0.06612
605.617,0.06721
599.83,0.06860