File: 01_Data/PC/FTIR/IS/PC_0.81_Trans_S_IS_230516_R3.dpt
7496.92,0.90226
7491.13,0.90996
7485.34,0.89077
7479.56,0.88450
7473.77,0.90672
7467.99,0.90364
7462.2,0.90089
7456.41,0.89042
7450.63,0.89172
7444.84,0.89513
7439.06,0.88033
7433.27,0.89307
7427.48,0.86820
7421.7,0.87749
7415.91,0.86878
7410.12,0.88196
7404.34,0.89302
7398.55,0.91620
7392.77,0.86676
7386.98,0.88635
7381.19,0.87620
7375.41,0.86931
7369.62,0.86146
7363.84,0.83691
7358.05,0.87793
7352.26,0.89303
7346.48,0.85926
7340.69,0.91288
7334.9,0.87158
7329.12,0.86744
7323.33,0.84045
7317.55,0.82183
7311.76,0.85700
7305.97,0.84214
7300.19,0.87145
7294.4,0.86776
7288.62,0.87838
7282.83,0.88506
7277.04,0.90233
7271.26,0.87987
7265.47,0.87070
7259.68,0.88754
7253.9,0.82654
7248.11,0.85663
7242.33,0.85833
7236.54,0.87529
7230.75,0.86928
7224.97,0.86866
7219.18,0.86619
7213.4,0.86432
7207.61,0.88141
7201.82,0.88385
7196.04,0.89626
7190.25,0.86521
7184.46,0.84068
7178.68,0.85371
7172.89,0.88880
7167.11,0.85704
7161.32,0.85361
7155.53,0.87102
7149.75,0.84601
7143.96,0.86331
7138.18,0.86002
7132.39,0.85804
7126.6,0.87894
7120.82,0.86214
7115.03,0.87470
7109.24,0.86493
7103.46,0.85102
7097.67,0.86315
7091.89,0.84851
7086.1,0.85579
7080.31,0.84461
7074.53,0.85389
7068.74,0.88663
7062.96,0.86276
7057.17,0.86646
7051.38,0.86906
7045.6,0.88192
7039.81,0.87179
7034.02,0.87692
7028.24,0.88893
7022.45,0.89515
7016.67,0.88836
7010.88,0.89830
7005.09,0.90187
6999.31,0.88140
6993.52,0.88248
6987.74,0.89008
6981.95,0.87895
6976.16,0.89121
6970.38,0.88300
6964.59,0.88129
6958.8,0.88302
6953.02,0.86382
6947.23,0.86833
6941.45,0.89591
6935.66,0.89711
6929.87,0.87351
6924.09,0.89548
6918.3,0.90486
6912.52,0.86953
6906.73,0.90381
6900.94,0.91062
6895.16,0.90693
6889.37,0.89587
6883.59,0.89531
6877.8,0.88769
6872.01,0.88975
6866.23,0.87964
6860.44,0.88563
6854.65,0.89513
6848.87,0.89101
6843.08,0.89208
6837.3,0.88257
6831.51,0.88092
6825.72,0.90411
6819.94,0.89181
6814.15,0.88159
6808.37,0.89701
6802.58,0.88776
6796.79,0.89317
6791.01,0.88780
6785.22,0.89956
6779.43,0.88712
6773.65,0.90177
6767.86,0.89020
6762.08,0.89171
6756.29,0.89716
6750.5,0.89073
6744.72,0.90309
6738.93,0.90176
6733.15,0.89977
6727.36,0.89855
6721.57,0.90026
6715.79,0.90034
6710,0.90417
6704.21,0.88909
6698.43,0.88491
6692.64,0.89641
6686.86,0.90780
6681.07,0.90178
6675.28,0.89935
6669.5,0.89329
6663.71,0.89565
6657.93,0.90628
6652.14,0.90445
6646.35,0.90657
6640.57,0.92173
6634.78,0.91465
6628.99,0.90949
6623.21,0.89219
6617.42,0.90287
6611.64,0.90634
6605.85,0.91170
6600.06,0.89478
6594.28,0.91192
6588.49,0.90937
6582.71,0.91139
6576.92,0.90091
6571.13,0.91857
6565.35,0.90129
6559.56,0.90121
6553.77,0.89738
6547.99,0.90468
6542.2,0.89962
6536.42,0.90418
6530.63,0.90291
6524.84,0.90195
6519.06,0.90761
6513.27,0.90255
6507.49,0.89350
6501.7,0.90027
6495.91,0.90334
6490.13,0.90770
6484.34,0.90299
6478.55,0.90609
6472.77,0.90316
6466.98,0.89587
6461.2,0.89482
6455.41,0.90233
6449.62,0.89970
6443.84,0.89936
6438.05,0.89695
6432.27,0.90270
6426.48,0.89320
6420.69,0.90074
6414.91,0.90978
6409.12,0.89850
6403.33,0.89447
6397.55,0.89716
6391.76,0.90120
6385.98,0.89864
6380.19,0.90857
6374.4,0.90682
6368.62,0.90587
6362.83,0.89380
6357.05,0.89525
6351.26,0.89732
6345.47,0.89894
6339.69,0.90062
6333.9,0.89833
6328.12,0.90552
6322.33,0.89830
6316.54,0.89515
6310.76,0.89286
6304.97,0.90037
6299.18,0.89781
6293.4,0.89471
6287.61,0.89265
6281.83,0.89294
6276.04,0.89947
6270.25,0.88801
6264.47,0.89348
6258.68,0.88923
6252.9,0.88482
6247.11,0.88834
6241.32,0.88433
6235.54,0.88327
6229.75,0.88485
6223.96,0.87760
6218.18,0.87730
6212.39,0.87560
6206.61,0.87233
6200.82,0.86672
6195.03,0.86358
6189.25,0.86071
6183.46,0.85730
6177.68,0.84570
6171.89,0.84416
6166.1,0.84468
6160.32,0.84420
6154.53,0.84172
6148.74,0.83884
6142.96,0.82937
6137.17,0.83048
6131.39,0.81670
6125.6,0.80463
6119.81,0.80996
6114.03,0.80228
6108.24,0.80016
6102.46,0.78268
6096.67,0.76420
6090.88,0.74674
6085.1,0.72413
6079.31,0.71271
6073.52,0.70157
6067.74,0.68798
6061.95,0.67944
6056.17,0.67043
6050.38,0.66037
6044.59,0.64009
6038.81,0.60981
6033.02,0.58065
6027.24,0.54790
6021.45,0.51050
6015.66,0.47166
6009.88,0.43257
6004.09,0.41027
5998.3,0.39232
5992.52,0.39569
5986.73,0.42297
5980.95,0.46251
5975.16,0.51196
5969.37,0.55101
5963.59,0.58508
5957.8,0.59433
5952.02,0.58552
5946.23,0.58070
5940.44,0.57013
5934.66,0.55219
5928.87,0.55736
5923.08,0.55775
5917.3,0.56885
5911.51,0.58857
5905.73,0.60320
5899.94,0.60244
5894.15,0.59978
5888.37,0.60500
5882.58,0.62716
5876.8,0.65303
5871.01,0.67921
5865.22,0.70400
5859.44,0.71940
5853.65,0.73152
5847.86,0.74893
5842.08,0.75527
5836.29,0.75645
5830.51,0.74734
5824.72,0.75014
5818.93,0.74729
5813.15,0.75182
5807.36,0.75648
5801.58,0.76618
5795.79,0.75822
5790,0.74727
5784.22,0.73870
5778.43,0.73610
5772.65,0.72253
5766.86,0.71930
5761.07,0.72336
5755.29,0.72812
5749.5,0.74021
5743.71,0.75641
5737.93,0.77036
5732.14,0.78276
5726.36,0.79219
5720.57,0.80488
5714.78,0.81214
5709,0.82051
5703.21,0.82477
5697.43,0.82096
5691.64,0.81992
5685.85,0.81348
5680.07,0.80860
5674.28,0.80676
5668.49,0.79228
5662.71,0.79448
5656.92,0.80083
5651.14,0.79964
5645.35,0.80445
5639.56,0.81150
5633.78,0.82325
5627.99,0.83405
5622.21,0.83433
5616.42,0.83813
5610.63,0.84210
5604.85,0.84422
5599.06,0.84749
5593.27,0.84043
5587.49,0.84199
5581.7,0.84363
5575.92,0.84293
5570.13,0.84309
5564.34,0.84162
5558.56,0.83873
5552.77,0.83749
5546.99,0.83755
5541.2,0.83669
5535.41,0.83858
5529.63,0.84080
5523.84,0.83944
5518.05,0.83648
5512.27,0.83920
5506.48,0.83575
5500.7,0.83781
5494.91,0.83437
5489.12,0.83370
5483.34,0.83345
5477.55,0.82620
5471.77,0.82495
5465.98,0.83086
5460.19,0.82790
5454.41,0.83313
5448.62,0.82989
5442.83,0.83093
5437.05,0.83566
5431.26,0.83865
5425.48,0.84129
5419.69,0.84518
5413.9,0.83456
5408.12,0.83749
5402.33,0.84172
5396.55,0.84075
5390.76,0.84003
5384.97,0.84100
5379.19,0.84265
5373.4,0.84166
5367.61,0.84714
5361.83,0.84617
5356.04,0.84054
5350.26,0.83349
5344.47,0.82852
5338.68,0.83256
5332.9,0.83842
5327.11,0.83341
5321.33,0.84337
5315.54,0.84313
5309.75,0.83949
5303.97,0.83896
5298.18,0.83322
5292.39,0.82670
5286.61,0.81750
5280.82,0.80652
5275.04,0.79688
5269.25,0.78295
5263.46,0.77629
5257.68,0.78713
5251.89,0.79614
5246.11,0.80279
5240.32,0.82367
5234.53,0.82871
5228.75,0.83492
5222.96,0.83912
5217.18,0.84780
5211.39,0.84969
5205.6,0.84484
5199.82,0.84932
5194.03,0.84938
5188.24,0.84612
5182.46,0.84781
5176.67,0.84999
5170.89,0.84670
5165.1,0.84948
5159.31,0.84744
5153.53,0.85000
5147.74,0.85339
5141.96,0.85626
5136.17,0.85728
5130.38,0.85688
5124.6,0.85957
5118.81,0.85943
5113.02,0.85979
5107.24,0.86192
5101.45,0.86220
5095.67,0.85976
5089.88,0.85837
5084.09,0.85548
5078.31,0.85712
5072.52,0.85851
5066.74,0.85694
5060.95,0.85738
5055.16,0.85782
5049.38,0.85678
5043.59,0.85899
5037.8,0.85712
5032.02,0.85812
5026.23,0.85541
5020.45,0.85391
5014.66,0.85295
5008.87,0.85330
5003.09,0.85047
4997.3,0.84916
4991.52,0.84859
4985.73,0.84744
4979.94,0.84736
4974.16,0.84516
4968.37,0.84202
4962.58,0.84433
4956.8,0.84086
4951.01,0.84046
4945.23,0.84341
4939.44,0.84210
4933.65,0.83954
4927.87,0.83593
4922.08,0.83208
4916.3,0.82580
4910.51,0.82073
4904.72,0.81704
4898.94,0.80941
4893.15,0.80730
4887.36,0.80470
4881.58,0.80330
4875.79,0.80262
4870.01,0.79982
4864.22,0.79294
4858.43,0.78636
4852.65,0.78295
4846.86,0.77811
4841.08,0.77738
4835.29,0.77957
4829.5,0.78244
4823.72,0.78519
4817.93,0.78892
4812.14,0.79002
4806.36,0.79034
4800.57,0.79375
4794.79,0.79117
4789,0.78496
4783.21,0.77999
4777.43,0.77405
4771.64,0.76796
4765.86,0.75863
4760.07,0.74982
4754.28,0.73903
4748.5,0.72856
4742.71,0.70916
4736.92,0.68788
4731.14,0.65993
4725.35,0.62779
4719.57,0.59032
4713.78,0.54383
4707.99,0.48455
4702.21,0.42381
4696.42,0.37478
4690.64,0.33908
4684.85,0.31388
4679.06,0.31311
4673.28,0.33509
4667.49,0.37179
4661.7,0.40114
4655.92,0.41230
4650.13,0.39649
4644.35,0.35711
4638.56,0.31614
4632.77,0.30134
4626.99,0.33212
4621.2,0.41111
4615.42,0.49647
4609.63,0.55489
4603.84,0.58465
4598.06,0.58867
4592.27,0.57437
4586.49,0.55080
4580.7,0.52588
4574.91,0.51524
4569.13,0.53132
4563.34,0.56947
4557.55,0.61585
4551.77,0.64944
4545.98,0.66189
4540.2,0.66246
4534.41,0.65882
4528.62,0.65978
4522.84,0.66241
4517.05,0.66359
4511.27,0.66188
4505.48,0.65333
4499.69,0.63780
4493.91,0.61698
4488.12,0.59413
4482.33,0.57647
4476.55,0.56967
4470.76,0.56939
4464.98,0.56726
4459.19,0.56046
4453.4,0.53980
4447.62,0.50995
4441.83,0.47236
4436.05,0.42959
4430.26,0.38475
4424.47,0.34306
4418.69,0.30187
4412.9,0.26652
4407.11,0.24555
4401.33,0.25210
4395.54,0.28351
4389.76,0.30934
4383.97,0.30585
4378.18,0.28324
4372.4,0.25634
4366.61,0.23757
4360.83,0.22424
4355.04,0.21487
4349.25,0.20505
4343.47,0.19851
4337.68,0.18894
4331.89,0.17192
4326.11,0.16036
4320.32,0.16622
4314.54,0.18923
4308.75,0.20556
4302.96,0.20711
4297.18,0.20742
4291.39,0.22009
4285.61,0.23472
4279.82,0.24722
4274.03,0.25690
4268.25,0.26549
4262.46,0.27717
4256.67,0.29249
4250.89,0.30693
4245.1,0.30979
4239.32,0.30167
4233.53,0.29300
4227.74,0.28553
4221.96,0.27674
4216.17,0.26891
4210.39,0.26136
4204.6,0.25441
4198.81,0.25122
4193.03,0.24824
4187.24,0.24371
4181.45,0.23739
4175.67,0.22894
4169.88,0.22687
4164.1,0.23933
4158.31,0.26505
4152.52,0.29581
4146.74,0.31918
4140.95,0.32772
4135.17,0.32892
4129.38,0.33011
4123.59,0.32239
4117.81,0.30128
4112.02,0.26851
4106.23,0.22298
4100.45,0.16687
4094.66,0.11585
4088.88,0.07810
4083.09,0.05246
4077.3,0.03818
4071.52,0.03759
4065.73,0.05720
4059.95,0.09876
4054.16,0.14791
4048.37,0.20260
4042.59,0.26501
4036.8,0.31512
4031.02,0.33530
4025.23,0.33226
4019.44,0.32510
4013.66,0.32428
4007.87,0.32871
4002.08,0.32926
3996.3,0.32228
3990.51,0.31606
3984.73,0.31645
3978.94,0.32236
3973.15,0.33981
3967.37,0.36414
3961.58,0.37681
3955.8,0.37030
3950.01,0.35497
3944.22,0.35116
3938.44,0.35235
3932.65,0.34993
3926.86,0.34998
3921.08,0.34170
3915.29,0.32804
3909.51,0.31844
3903.72,0.30276
3897.93,0.29650
3892.15,0.28624
3886.36,0.27518
3880.58,0.27401
3874.79,0.29600
3869,0.33875
3863.22,0.38091
3857.43,0.40861
3851.64,0.42663
3845.86,0.45230
3840.07,0.45385
3834.29,0.46664
3828.5,0.47140
3822.71,0.46239
3816.93,0.45816
3811.14,0.46638
3805.36,0.46524
3799.57,0.47710
3793.78,0.50510
3788,0.52149
3782.21,0.53015
3776.42,0.53215
3770.64,0.51578
3764.85,0.49161
3759.07,0.45773
3753.28,0.42904
3747.49,0.41091
3741.71,0.41573
3735.92,0.41889
3730.14,0.44498
3724.35,0.44492
3718.56,0.43777
3712.78,0.40449
3706.99,0.35598
3701.2,0.30273
3695.42,0.24816
3689.63,0.17731
3683.85,0.11874
3678.06,0.08176
3672.27,0.07312
3666.49,0.09510
3660.7,0.13047
3654.92,0.17757
3649.13,0.22404
3643.34,0.28518
3637.56,0.32433
3631.77,0.34770
3625.98,0.38062
3620.2,0.40200
3614.41,0.42198
3608.63,0.41673
3602.84,0.38071
3597.05,0.31087
3591.27,0.24144
3585.48,0.18480
3579.7,0.15929
3573.91,0.14515
3568.12,0.13345
3562.34,0.12594
3556.55,0.11228
3550.76,0.09334
3544.98,0.07367
3539.19,0.05961
3533.41,0.05138
3527.62,0.05461
3521.83,0.07246
3516.05,0.10840
3510.26,0.15768
3504.48,0.20803
3498.69,0.25127
3492.9,0.28208
3487.12,0.30284
3481.33,0.32011
3475.55,0.33597
3469.76,0.35371
3463.97,0.37218
3458.19,0.39418
3452.4,0.41389
3446.61,0.42994
3440.83,0.44689
3435.04,0.46225
3429.26,0.47518
3423.47,0.48519
3417.68,0.49210
3411.9,0.49339
3406.11,0.48920
3400.33,0.48121
3394.54,0.46801
3388.75,0.45235
3382.97,0.43537
3377.18,0.42544
3371.39,0.41944
3365.61,0.41752
3359.82,0.42040
3354.04,0.42425
3348.25,0.42668
3342.46,0.42584
3336.68,0.42065
3330.89,0.41068
3325.11,0.39341
3319.32,0.37342
3313.53,0.34966
3307.75,0.32726
3301.96,0.30763
3296.17,0.29122
3290.39,0.27979
3284.6,0.27064
3278.82,0.26306
3273.03,0.25574
3267.24,0.24591
3261.46,0.23536
3255.67,0.22536
3249.89,0.21691
3244.1,0.21063
3238.31,0.20399
3232.53,0.19827
3226.74,0.19005
3220.95,0.17914
3215.17,0.16221
3209.38,0.14055
3203.6,0.11748
3197.81,0.09971
3192.02,0.09264
3186.24,0.09181
3180.45,0.08975
3174.67,0.09133
3168.88,0.09507
3163.09,0.09214
3157.31,0.08542
3151.52,0.07513
3145.73,0.06134
3139.95,0.04485
3134.16,0.02705
3128.38,0.01234
3122.59,0.00536
3116.8,0.00306
3111.02,0.00208
3105.23,0.00170
3099.45,0.00228
3093.66,0.00094
3087.87,0.00074
3082.09,0.00046
3076.3,0.00042
3070.51,0.00078
3064.73,0.00034
3058.94,0.00049
3053.16,0.00058
3047.37,0.00088
3041.58,0.00011
3035.8,0.00032
3030.01,0.00026
3024.23,0.00068
3018.44,0.00042
3012.65,0.00061
3006.87,0.00036
3001.08,0.00070
2995.29,0.00012
2989.51,0.00045
2983.72,0.00060
2977.94,0.00034
2972.15,0.00028
2966.36,0.00023
2960.58,0.00056
2954.79,0.00023
2949.01,0.00027
2943.22,0.00043
2937.43,0.00046
2931.65,0.00046
2925.86,0.00036
2920.08,0.00053
2914.29,0.00048
2908.5,0.00076
2902.72,0.00039
2896.93,0.00038
2891.14,0.00018
2885.36,0.00049
2879.57,0.00009
2873.79,0.00023
2868,0.00055
2862.21,0.00048
2856.43,0.00238
2850.64,0.01159
2844.86,0.03505
2839.07,0.07095
2833.28,0.09334
2827.5,0.10170
2821.71,0.10659
2815.92,0.09628
2810.14,0.08390
2804.35,0.09493
2798.57,0.11903
2792.78,0.11394
2786.99,0.08547
2781.21,0.06447
2775.42,0.07037
2769.64,0.10352
2763.85,0.13971
2758.06,0.18563
2752.28,0.22982
2746.49,0.24754
2740.7,0.23639
2734.92,0.20468
2729.13,0.19541
2723.35,0.19869
2717.56,0.17457
2711.77,0.19039
2705.99,0.23860
2700.2,0.27825
2694.42,0.30678
2688.63,0.32450
2682.84,0.33154
2677.06,0.32435
2671.27,0.31306
2665.48,0.31546
2659.7,0.33039
2653.91,0.35654
2648.13,0.38407
2642.34,0.39784
2636.55,0.38947
2630.77,0.35717
2624.98,0.30186
2619.2,0.24068
2613.41,0.20888
2607.62,0.19976
2601.84,0.19534
2596.05,0.19314
2590.26,0.19073
2584.48,0.19942
2578.69,0.21627
2572.91,0.23722
2567.12,0.27339
2561.33,0.29907
2555.55,0.29684
2549.76,0.27935
2543.98,0.25708
2538.19,0.22931
2532.4,0.20413
2526.62,0.20541
2520.83,0.22160
2515.04,0.21581
2509.26,0.19245
2503.47,0.17209
2497.69,0.14365
2491.9,0.10841
2486.11,0.08336
2480.33,0.06811
2474.54,0.05743
2468.76,0.05303
2462.97,0.05328
2457.18,0.05504
2451.4,0.05530
2445.61,0.05753
2439.82,0.06044
2434.04,0.05749
2428.25,0.04716
2422.47,0.03529
2416.68,0.02757
2410.89,0.02501
2405.11,0.02693
2399.32,0.03038
2393.54,0.03424
2387.75,0.04599
2381.96,0.06637
2376.18,0.08733
2370.39,0.10616
2364.61,0.12356
2358.82,0.13605
2353.03,0.14534
2347.25,0.14031
2341.46,0.12413
2335.67,0.11479
2329.89,0.10393
2324.1,0.09526
2318.32,0.10581
2312.53,0.11679
2306.74,0.11772
2300.96,0.10918
2295.17,0.10098
2289.39,0.09498
2283.6,0.07449
2277.81,0.06149
2272.03,0.04974
2266.24,0.02946
2260.45,0.01360
2254.67,0.00493
2248.88,0.00187
2243.1,0.00091
2237.31,0.00050
2231.52,0.00074
2225.74,0.00075
2219.95,0.00212
2214.17,0.00534
2208.38,0.00823
2202.59,0.00618
2196.81,0.00605
2191.02,0.01251
2185.23,0.03046
2179.45,0.05587
2173.66,0.06965
2167.88,0.08088
2162.09,0.12059
2156.3,0.17243
2150.52,0.20421
2144.73,0.20708
2138.95,0.18736
2133.16,0.15919
2127.37,0.12952
2121.59,0.10456
2115.8,0.08771
2110.01,0.07482
2104.23,0.06198
2098.44,0.04701
2092.66,0.02890
2086.87,0.01444
2081.08,0.01019
2075.3,0.01411
2069.51,0.01987
2063.73,0.01754
2057.94,0.00907
2052.15,0.00485
2046.37,0.00684
2040.58,0.01283
2034.79,0.01925
2029.01,0.02142
2023.22,0.02151
2017.44,0.01871
2011.65,0.01374
2005.86,0.01197
2000.08,0.01297
1994.29,0.01499
1988.51,0.01874
1982.72,0.02717
1976.93,0.04244
1971.15,0.05328
1965.36,0.05212
1959.57,0.04568
1953.79,0.03772
1948,0.03081
1942.22,0.02673
1936.43,0.02367
1930.64,0.01916
1924.86,0.01355
1919.07,0.00751
1913.29,0.00199
1907.5,0.00010
1901.71,0.00053
1895.93,0.00031
1890.14,0.00024
1884.35,0.00022
1878.57,0.00030
1872.78,0.00047
1867,0.00081
1861.21,0.00061
1855.42,0.00036
1849.64,0.00043
1843.85,0.00037
1838.07,0.00027
1832.28,0.00031
1826.49,0.00049
1820.71,0.00008
1814.92,0.00025
1809.13,0.00029
1803.35,0.00041
1797.56,0.00008
1791.78,0.00068
1785.99,0.00022
1780.2,0.00027
1774.42,0.00031
1768.63,0.00027
1762.85,0.00047
1757.06,0.00029
1751.27,0.00040
1745.49,0.00028
1739.7,0.00047
1733.92,0.00019
1728.13,0.00025
1722.34,0.00027
1716.56,0.00020
1710.77,0.00026
1704.98,0.00030
1699.2,0.00068
1693.41,0.00092
1687.63,0.00141
1681.84,0.00145
1676.05,0.00107
1670.27,0.00027
1664.48,0.00038
1658.7,0.00023
1652.91,0.00068
1647.12,-0.00001
1641.34,0.00046
1635.55,0.00071
1629.76,0.00055
1623.98,0.00027
1618.19,0.00030
1612.41,0.00036
1606.62,0.00031
1600.83,0.00029
1595.05,0.00050
1589.26,0.00018
1583.48,0.00023
1577.69,0.00037
1571.9,0.00060
1566.12,0.00100
1560.33,0.00065
1554.54,0.00044
1548.76,0.00050
1542.97,0.00021
1537.19,0.00008
1531.4,0.00058
1525.61,0.00042
1519.83,0.00055
1514.04,0.00055
1508.26,0.00134
1502.47,0.00017
1496.68,0.00057
1490.9,0.00031
1485.11,0.00022
1479.32,0.00032
1473.54,0.00044
1467.75,0.00037
1461.97,0.00039
1456.18,0.00046
1450.39,0.00024
1444.61,0.00043
1438.82,0.00060
1433.04,0.00034
1427.25,0.00041
1421.46,0.00014
1415.68,0.00023
1409.89,0.00016
1404.1,0.00035
1398.32,0.00043
1392.53,0.00019
1386.75,0.00047
1380.96,0.00041
1375.17,0.00033
1369.39,0.00028
1363.6,0.00040
1357.82,0.00005
1352.03,0.00031
1346.24,0.00029
1340.46,0.00035
1334.67,0.00045
1328.88,0.00028
1323.1,0.00016
1317.31,0.00043
1311.53,0.00037
1305.74,0.00035
1299.95,0.00038
1294.17,0.00028
1288.38,0.00042
1282.6,0.00029
1276.81,0.00008
1271.02,0.00027
1265.24,0.00058
1259.45,0.00024
1253.66,0.00024
1247.88,0.00032
1242.09,0.00023
1236.31,0.00034
1230.52,0.00041
1224.73,0.00027
1218.95,0.00036
1213.16,0.00001
1207.38,0.00041
1201.59,0.00026
1195.8,0.00041
1190.02,0.00049
1184.23,0.00038
1178.45,0.00052
1172.66,0.00037
1166.87,0.00033
1161.09,0.00039
1155.3,0.00035
1149.51,0.00008
1143.73,0.00054
1137.94,0.00048
1132.16,0.00015
1126.37,0.00076
1120.58,0.00003
1114.8,0.00043
1109.01,0.00081
1103.23,0.00030
1097.44,0.00079
1091.65,0.00066
1085.87,0.00028
1080.08,0.00057
1074.29,0.00016
1068.51,0.00069
1062.72,0.00070
1056.94,0.00098
1051.15,0.00078
1045.36,0.00104
1039.58,0.00109
1033.79,0.00059
1028.01,0.00044
1022.22,0.00031
1016.43,0.00080
1010.65,0.00034
1004.86,0.00067
999.075,0.00037
993.288,0.00067
987.502,0.00065
981.716,0.00032
975.93,0.00286
970.144,0.00238
964.358,0.00077
958.572,0.00075
952.785,0.00238
946.999,0.00099
941.213,0.00014
935.427,0.00012
929.641,0.00333
923.855,0.00238
918.068,-0.00007
912.282,0.00225
906.496,0.00293
900.71,0.00037
894.924,0.00053
889.138,0.00008
883.352,0.00077
877.565,0.00044
871.779,0.00040
865.993,0.00047
860.207,0.00036
854.421,0.00029
848.635,0.00031
842.849,0.00054
837.062,0.00025
831.276,0.00069
825.49,0.00076
819.704,0.00089
813.918,0.00066
808.132,0.00075
802.346,0.00035
796.559,0.00041
790.773,0.00052
784.987,0.00052
779.201,0.00018
773.415,0.00019
767.629,0.00089
761.843,0.00079
756.056,0.00089
750.27,0.00060
744.484,0.00082
738.698,0.00057
732.912,0.00097
727.126,0.00021
721.34,0.00070
715.553,0.00073
709.767,0.00095
703.981,-0.00019
698.195,-0.00003
692.409,0.00281
686.623,0.01106
680.837,0.02401
675.05,0.03925
669.264,0.05021
663.478,0.06345
657.692,0.06860
651.906,0.06758
646.12,0.05864
640.333,0.02878
634.547,0.00503
628.761,0.01202
622.975,0.02695
617.189,0.02842
611.403,0.01880
605.617,0.00977
599.83,0.00357