File: 01_Data/PC/FTIR/IS/PC_0.81_T_IS_230516_R3.dpt
7496.92,0.07425
7491.13,0.03994
7485.34,0.04728
7479.56,0.04098
7473.77,0.06830
7467.99,0.01345
7462.2,0.07260
7456.41,0.04355
7450.63,0.06236
7444.84,0.06274
7439.06,0.05865
7433.27,0.05607
7427.48,0.02911
7421.7,0.04758
7415.91,0.03304
7410.12,0.09074
7404.34,0.03964
7398.55,0.03627
7392.77,0.05639
7386.98,0.04831
7381.19,0.02568
7375.41,0.06986
7369.62,0.05778
7363.84,0.07604
7358.05,0.06976
7352.26,0.03211
7346.48,0.05575
7340.69,0.04349
7334.9,0.04179
7329.12,0.03382
7323.33,0.02384
7317.55,0.03140
7311.76,0.03717
7305.97,0.04658
7300.19,0.05140
7294.4,0.02520
7288.62,0.02848
7282.83,0.05024
7277.04,0.04908
7271.26,0.03974
7265.47,0.07371
7259.68,0.04971
7253.9,0.02280
7248.11,0.02625
7242.33,0.01876
7236.54,0.05271
7230.75,0.05908
7224.97,0.04501
7219.18,0.03144
7213.4,0.04178
7207.61,0.07370
7201.82,0.04504
7196.04,0.07718
7190.25,0.03619
7184.46,0.03847
7178.68,0.05823
7172.89,0.03922
7167.11,0.05650
7161.32,0.03242
7155.53,0.04337
7149.75,0.03699
7143.96,0.03374
7138.18,0.05543
7132.39,0.03798
7126.6,0.04232
7120.82,0.03650
7115.03,0.01918
7109.24,0.04073
7103.46,0.04713
7097.67,0.02570
7091.89,0.06021
7086.1,0.03033
7080.31,0.05319
7074.53,0.06895
7068.74,0.04092
7062.96,0.03309
7057.17,0.04977
7051.38,0.03501
7045.6,0.03133
7039.81,0.02033
7034.02,0.02631
7028.24,0.04860
7022.45,0.04300
7016.67,0.03427
7010.88,0.03569
7005.09,0.04687
6999.31,0.03419
6993.52,0.03364
6987.74,0.06333
6981.95,0.06238
6976.16,0.05148
6970.38,0.03947
6964.59,0.03846
6958.8,0.02802
6953.02,0.01956
6947.23,0.03902
6941.45,0.04086
6935.66,0.03226
6929.87,0.03908
6924.09,0.03567
6918.3,0.03455
6912.52,0.05257
6906.73,0.04845
6900.94,0.03342
6895.16,0.02908
6889.37,0.04596
6883.59,0.03814
6877.8,0.04843
6872.01,0.03958
6866.23,0.05302
6860.44,0.02980
6854.65,0.03320
6848.87,0.03498
6843.08,0.03316
6837.3,0.02663
6831.51,0.05864
6825.72,0.03790
6819.94,0.04649
6814.15,0.05240
6808.37,0.02652
6802.58,0.03349
6796.79,0.04876
6791.01,0.04893
6785.22,0.01851
6779.43,0.03608
6773.65,0.03472
6767.86,0.04059
6762.08,0.03875
6756.29,0.04264
6750.5,0.03221
6744.72,0.03837
6738.93,0.02856
6733.15,0.03293
6727.36,0.02989
6721.57,0.04520
6715.79,0.05384
6710,0.03459
6704.21,0.02991
6698.43,0.04594
6692.64,0.04608
6686.86,0.04388
6681.07,0.03168
6675.28,0.03392
6669.5,0.03208
6663.71,0.02262
6657.93,0.03971
6652.14,0.04176
6646.35,0.04850
6640.57,0.03525
6634.78,0.03192
6628.99,0.03570
6623.21,0.04434
6617.42,0.05868
6611.64,0.03455
6605.85,0.04354
6600.06,0.04165
6594.28,0.02560
6588.49,0.04804
6582.71,0.02527
6576.92,0.03439
6571.13,0.03964
6565.35,0.03781
6559.56,0.04269
6553.77,0.02432
6547.99,0.03196
6542.2,0.04149
6536.42,0.03727
6530.63,0.03175
6524.84,0.02749
6519.06,0.03661
6513.27,0.03975
6507.49,0.03500
6501.7,0.03568
6495.91,0.03468
6490.13,0.03216
6484.34,0.03432
6478.55,0.02729
6472.77,0.03633
6466.98,0.02698
6461.2,0.03151
6455.41,0.03513
6449.62,0.04366
6443.84,0.03951
6438.05,0.03613
6432.27,0.04103
6426.48,0.03965
6420.69,0.02476
6414.91,0.02500
6409.12,0.03930
6403.33,0.03121
6397.55,0.02683
6391.76,0.03026
6385.98,0.03865
6380.19,0.03818
6374.4,0.03574
6368.62,0.03700
6362.83,0.03994
6357.05,0.03147
6351.26,0.02696
6345.47,0.02830
6339.69,0.03478
6333.9,0.02889
6328.12,0.03567
6322.33,0.03496
6316.54,0.02774
6310.76,0.03256
6304.97,0.02704
6299.18,0.02389
6293.4,0.03168
6287.61,0.03590
6281.83,0.02632
6276.04,0.04033
6270.25,0.02976
6264.47,0.03572
6258.68,0.03057
6252.9,0.03679
6247.11,0.03469
6241.32,0.03776
6235.54,0.02830
6229.75,0.03404
6223.96,0.02832
6218.18,0.02913
6212.39,0.03438
6206.61,0.04058
6200.82,0.03507
6195.03,0.03624
6189.25,0.02991
6183.46,0.02835
6177.68,0.03734
6171.89,0.03459
6166.1,0.03013
6160.32,0.02866
6154.53,0.03119
6148.74,0.03570
6142.96,0.03379
6137.17,0.03832
6131.39,0.03279
6125.6,0.03418
6119.81,0.02964
6114.03,0.02893
6108.24,0.02902
6102.46,0.03147
6096.67,0.03019
6090.88,0.03233
6085.1,0.02782
6079.31,0.02759
6073.52,0.02641
6067.74,0.02418
6061.95,0.03053
6056.17,0.03457
6050.38,0.03644
6044.59,0.03488
6038.81,0.03135
6033.02,0.02991
6027.24,0.03255
6021.45,0.02814
6015.66,0.03505
6009.88,0.03367
6004.09,0.03013
5998.3,0.03180
5992.52,0.02415
5986.73,0.03095
5980.95,0.02240
5975.16,0.02635
5969.37,0.03123
5963.59,0.02222
5957.8,0.03067
5952.02,0.03725
5946.23,0.03513
5940.44,0.03252
5934.66,0.02749
5928.87,0.03141
5923.08,0.02574
5917.3,0.03183
5911.51,0.03331
5905.73,0.02847
5899.94,0.02563
5894.15,0.03060
5888.37,0.02979
5882.58,0.03356
5876.8,0.03042
5871.01,0.02427
5865.22,0.02592
5859.44,0.03027
5853.65,0.02832
5847.86,0.03204
5842.08,0.02774
5836.29,0.03093
5830.51,0.02701
5824.72,0.03207
5818.93,0.02742
5813.15,0.02177
5807.36,0.03202
5801.58,0.03032
5795.79,0.02424
5790,0.02770
5784.22,0.03187
5778.43,0.02579
5772.65,0.02799
5766.86,0.02947
5761.07,0.03085
5755.29,0.02304
5749.5,0.02835
5743.71,0.02464
5737.93,0.02837
5732.14,0.02585
5726.36,0.03192
5720.57,0.02606
5714.78,0.02470
5709,0.03247
5703.21,0.02779
5697.43,0.02697
5691.64,0.02676
5685.85,0.02652
5680.07,0.02907
5674.28,0.02863
5668.49,0.02953
5662.71,0.02436
5656.92,0.02473
5651.14,0.02605
5645.35,0.02469
5639.56,0.02206
5633.78,0.02799
5627.99,0.02678
5622.21,0.02962
5616.42,0.02879
5610.63,0.02753
5604.85,0.02911
5599.06,0.02937
5593.27,0.03017
5587.49,0.02779
5581.7,0.02617
5575.92,0.02927
5570.13,0.03021
5564.34,0.02516
5558.56,0.02844
5552.77,0.02869
5546.99,0.03060
5541.2,0.02457
5535.41,0.02708
5529.63,0.02762
5523.84,0.02845
5518.05,0.02775
5512.27,0.02816
5506.48,0.02425
5500.7,0.02691
5494.91,0.03153
5489.12,0.02581
5483.34,0.02742
5477.55,0.02893
5471.77,0.02874
5465.98,0.02685
5460.19,0.02672
5454.41,0.02733
5448.62,0.02287
5442.83,0.02591
5437.05,0.02874
5431.26,0.03162
5425.48,0.02738
5419.69,0.02868
5413.9,0.02756
5408.12,0.02544
5402.33,0.02830
5396.55,0.02735
5390.76,0.02592
5384.97,0.02471
5379.19,0.02753
5373.4,0.02553
5367.61,0.02701
5361.83,0.02560
5356.04,0.02502
5350.26,0.02732
5344.47,0.02808
5338.68,0.02875
5332.9,0.02791
5327.11,0.02420
5321.33,0.02470
5315.54,0.02432
5309.75,0.02721
5303.97,0.02735
5298.18,0.02598
5292.39,0.02863
5286.61,0.02501
5280.82,0.02980
5275.04,0.02449
5269.25,0.02514
5263.46,0.02750
5257.68,0.02477
5251.89,0.02711
5246.11,0.02615
5240.32,0.02627
5234.53,0.02675
5228.75,0.02703
5222.96,0.02568
5217.18,0.02363
5211.39,0.02247
5205.6,0.02409
5199.82,0.02879
5194.03,0.02470
5188.24,0.02444
5182.46,0.02695
5176.67,0.02726
5170.89,0.02414
5165.1,0.02382
5159.31,0.02625
5153.53,0.02578
5147.74,0.02437
5141.96,0.02810
5136.17,0.02626
5130.38,0.02454
5124.6,0.02685
5118.81,0.02675
5113.02,0.02433
5107.24,0.02387
5101.45,0.02244
5095.67,0.02546
5089.88,0.02727
5084.09,0.02416
5078.31,0.02387
5072.52,0.02531
5066.74,0.02453
5060.95,0.02382
5055.16,0.02489
5049.38,0.02460
5043.59,0.02204
5037.8,0.02319
5032.02,0.02637
5026.23,0.02752
5020.45,0.02641
5014.66,0.02652
5008.87,0.02419
5003.09,0.02507
4997.3,0.02593
4991.52,0.02453
4985.73,0.02387
4979.94,0.02371
4974.16,0.02673
4968.37,0.02555
4962.58,0.02528
4956.8,0.02367
4951.01,0.02390
4945.23,0.02565
4939.44,0.02460
4933.65,0.02440
4927.87,0.02501
4922.08,0.02504
4916.3,0.02556
4910.51,0.02351
4904.72,0.02393
4898.94,0.02356
4893.15,0.02382
4887.36,0.02437
4881.58,0.02514
4875.79,0.02393
4870.01,0.02593
4864.22,0.02598
4858.43,0.02595
4852.65,0.02570
4846.86,0.02622
4841.08,0.02509
4835.29,0.02502
4829.5,0.02545
4823.72,0.02345
4817.93,0.02452
4812.14,0.02380
4806.36,0.02485
4800.57,0.02427
4794.79,0.02540
4789,0.02289
4783.21,0.02645
4777.43,0.02563
4771.64,0.02412
4765.86,0.02372
4760.07,0.02565
4754.28,0.02472
4748.5,0.02465
4742.71,0.02633
4736.92,0.02409
4731.14,0.02595
4725.35,0.02412
4719.57,0.02457
4713.78,0.02309
4707.99,0.02438
4702.21,0.02433
4696.42,0.02462
4690.64,0.02494
4684.85,0.02451
4679.06,0.02361
4673.28,0.02506
4667.49,0.02548
4661.7,0.02474
4655.92,0.02631
4650.13,0.02543
4644.35,0.02325
4638.56,0.02384
4632.77,0.02468
4626.99,0.02529
4621.2,0.02449
4615.42,0.02450
4609.63,0.02359
4603.84,0.02460
4598.06,0.02412
4592.27,0.02572
4586.49,0.02346
4580.7,0.02396
4574.91,0.02344
4569.13,0.02348
4563.34,0.02468
4557.55,0.02371
4551.77,0.02364
4545.98,0.02519
4540.2,0.02470
4534.41,0.02412
4528.62,0.02535
4522.84,0.02506
4517.05,0.02530
4511.27,0.02413
4505.48,0.02481
4499.69,0.02421
4493.91,0.02417
4488.12,0.02455
4482.33,0.02365
4476.55,0.02508
4470.76,0.02432
4464.98,0.02411
4459.19,0.02384
4453.4,0.02438
4447.62,0.02392
4441.83,0.02555
4436.05,0.02405
4430.26,0.02385
4424.47,0.02451
4418.69,0.02609
4412.9,0.02365
4407.11,0.02374
4401.33,0.02524
4395.54,0.02427
4389.76,0.02432
4383.97,0.02356
4378.18,0.02414
4372.4,0.02380
4366.61,0.02390
4360.83,0.02372
4355.04,0.02364
4349.25,0.02464
4343.47,0.02314
4337.68,0.02326
4331.89,0.02420
4326.11,0.02449
4320.32,0.02380
4314.54,0.02411
4308.75,0.02439
4302.96,0.02370
4297.18,0.02434
4291.39,0.02390
4285.61,0.02428
4279.82,0.02497
4274.03,0.02338
4268.25,0.02533
4262.46,0.02396
4256.67,0.02444
4250.89,0.02477
4245.1,0.02455
4239.32,0.02281
4233.53,0.02402
4227.74,0.02380
4221.96,0.02398
4216.17,0.02354
4210.39,0.02481
4204.6,0.02464
4198.81,0.02393
4193.03,0.02363
4187.24,0.02435
4181.45,0.02470
4175.67,0.02439
4169.88,0.02410
4164.1,0.02433
4158.31,0.02362
4152.52,0.02423
4146.74,0.02398
4140.95,0.02353
4135.17,0.02344
4129.38,0.02502
4123.59,0.02323
4117.81,0.02378
4112.02,0.02380
4106.23,0.02396
4100.45,0.02464
4094.66,0.02375
4088.88,0.02321
4083.09,0.02325
4077.3,0.02362
4071.52,0.02460
4065.73,0.02403
4059.95,0.02346
4054.16,0.02360
4048.37,0.02413
4042.59,0.02389
4036.8,0.02492
4031.02,0.02409
4025.23,0.02402
4019.44,0.02574
4013.66,0.02359
4007.87,0.02456
4002.08,0.02363
3996.3,0.02357
3990.51,0.02476
3984.73,0.02392
3978.94,0.02306
3973.15,0.02379
3967.37,0.02400
3961.58,0.02523
3955.8,0.02393
3950.01,0.02435
3944.22,0.02603
3938.44,0.02552
3932.65,0.02447
3926.86,0.02423
3921.08,0.02442
3915.29,0.02467
3909.51,0.02454
3903.72,0.02402
3897.93,0.02365
3892.15,0.02371
3886.36,0.02447
3880.58,0.02545
3874.79,0.02445
3869,0.02421
3863.22,0.02523
3857.43,0.02487
3851.64,0.02295
3845.86,0.02426
3840.07,0.02481
3834.29,0.02499
3828.5,0.02440
3822.71,0.02382
3816.93,0.02391
3811.14,0.02425
3805.36,0.02377
3799.57,0.02434
3793.78,0.02364
3788,0.02402
3782.21,0.02416
3776.42,0.02485
3770.64,0.02388
3764.85,0.02452
3759.07,0.02418
3753.28,0.02511
3747.49,0.02515
3741.71,0.02473
3735.92,0.02458
3730.14,0.02508
3724.35,0.02418
3718.56,0.02492
3712.78,0.02472
3706.99,0.02403
3701.2,0.02400
3695.42,0.02400
3689.63,0.02539
3683.85,0.02416
3678.06,0.02531
3672.27,0.02422
3666.49,0.02387
3660.7,0.02391
3654.92,0.02386
3649.13,0.02482
3643.34,0.02352
3637.56,0.02234
3631.77,0.02272
3625.98,0.02320
3620.2,0.02373
3614.41,0.02294
3608.63,0.02348
3602.84,0.02308
3597.05,0.02283
3591.27,0.02250
3585.48,0.02314
3579.7,0.02283
3573.91,0.02230
3568.12,0.02315
3562.34,0.02297
3556.55,0.02346
3550.76,0.02314
3544.98,0.02264
3539.19,0.02230
3533.41,0.02234
3527.62,0.02279
3521.83,0.02263
3516.05,0.02233
3510.26,0.02372
3504.48,0.02253
3498.69,0.02302
3492.9,0.02254
3487.12,0.02203
3481.33,0.02200
3475.55,0.02152
3469.76,0.02193
3463.97,0.02256
3458.19,0.02252
3452.4,0.02190
3446.61,0.02194
3440.83,0.02286
3435.04,0.02188
3429.26,0.02179
3423.47,0.02115
3417.68,0.02267
3411.9,0.02286
3406.11,0.02209
3400.33,0.02191
3394.54,0.02162
3388.75,0.02173
3382.97,0.02165
3377.18,0.02155
3371.39,0.02179
3365.61,0.02271
3359.82,0.02222
3354.04,0.02189
3348.25,0.02184
3342.46,0.02132
3336.68,0.02157
3330.89,0.02216
3325.11,0.02137
3319.32,0.02258
3313.53,0.02204
3307.75,0.02281
3301.96,0.02166
3296.17,0.02148
3290.39,0.02214
3284.6,0.02173
3278.82,0.02303
3273.03,0.02277
3267.24,0.02195
3261.46,0.02226
3255.67,0.02215
3249.89,0.02278
3244.1,0.02304
3238.31,0.02261
3232.53,0.02230
3226.74,0.02275
3220.95,0.02361
3215.17,0.02261
3209.38,0.02324
3203.6,0.02245
3197.81,0.02250
3192.02,0.02268
3186.24,0.02337
3180.45,0.02318
3174.67,0.02253
3168.88,0.02236
3163.09,0.02214
3157.31,0.02291
3151.52,0.02312
3145.73,0.02294
3139.95,0.02219
3134.16,0.02289
3128.38,0.02324
3122.59,0.02249
3116.8,0.02270
3111.02,0.02279
3105.23,0.02253
3099.45,0.02220
3093.66,0.02256
3087.87,0.02208
3082.09,0.02216
3076.3,0.02275
3070.51,0.02253
3064.73,0.02275
3058.94,0.02230
3053.16,0.02242
3047.37,0.02313
3041.58,0.02246
3035.8,0.02343
3030.01,0.02291
3024.23,0.02277
3018.44,0.02278
3012.65,0.02246
3006.87,0.02258
3001.08,0.02223
2995.29,0.02213
2989.51,0.02258
2983.72,0.02234
2977.94,0.02202
2972.15,0.02137
2966.36,0.02184
2960.58,0.02206
2954.79,0.02211
2949.01,0.02205
2943.22,0.02217
2937.43,0.02175
2931.65,0.02240
2925.86,0.02145
2920.08,0.02200
2914.29,0.02213
2908.5,0.02277
2902.72,0.02301
2896.93,0.02241
2891.14,0.02247
2885.36,0.02262
2879.57,0.02250
2873.79,0.02248
2868,0.02300
2862.21,0.02273
2856.43,0.02338
2850.64,0.02297
2844.86,0.02327
2839.07,0.02314
2833.28,0.02328
2827.5,0.02372
2821.71,0.02357
2815.92,0.02355
2810.14,0.02310
2804.35,0.02296
2798.57,0.02351
2792.78,0.02401
2786.99,0.02322
2781.21,0.02312
2775.42,0.02287
2769.64,0.02334
2763.85,0.02348
2758.06,0.02330
2752.28,0.02343
2746.49,0.02290
2740.7,0.02306
2734.92,0.02347
2729.13,0.02339
2723.35,0.02335
2717.56,0.02375
2711.77,0.02375
2705.99,0.02371
2700.2,0.02382
2694.42,0.02329
2688.63,0.02325
2682.84,0.02314
2677.06,0.02358
2671.27,0.02349
2665.48,0.02408
2659.7,0.02384
2653.91,0.02363
2648.13,0.02367
2642.34,0.02334
2636.55,0.02342
2630.77,0.02375
2624.98,0.02352
2619.2,0.02333
2613.41,0.02341
2607.62,0.02342
2601.84,0.02351
2596.05,0.02359
2590.26,0.02354
2584.48,0.02317
2578.69,0.02302
2572.91,0.02333
2567.12,0.02338
2561.33,0.02387
2555.55,0.02389
2549.76,0.02367
2543.98,0.02389
2538.19,0.02343
2532.4,0.02343
2526.62,0.02339
2520.83,0.02345
2515.04,0.02393
2509.26,0.02376
2503.47,0.02362
2497.69,0.02329
2491.9,0.02381
2486.11,0.02330
2480.33,0.02378
2474.54,0.02390
2468.76,0.02360
2462.97,0.02343
2457.18,0.02313
2451.4,0.02331
2445.61,0.02357
2439.82,0.02394
2434.04,0.02351
2428.25,0.02395
2422.47,0.02320
2416.68,0.02346
2410.89,0.02371
2405.11,0.02330
2399.32,0.02381
2393.54,0.02385
2387.75,0.02341
2381.96,0.02292
2376.18,0.02351
2370.39,0.02441
2364.61,0.02402
2358.82,0.02330
2353.03,0.02341
2347.25,0.02423
2341.46,0.02380
2335.67,0.02398
2329.89,0.02400
2324.1,0.02446
2318.32,0.02352
2312.53,0.02440
2306.74,0.02409
2300.96,0.02329
2295.17,0.02368
2289.39,0.02336
2283.6,0.02362
2277.81,0.02356
2272.03,0.02380
2266.24,0.02357
2260.45,0.02344
2254.67,0.02343
2248.88,0.02310
2243.1,0.02394
2237.31,0.02444
2231.52,0.02320
2225.74,0.02373
2219.95,0.02388
2214.17,0.02377
2208.38,0.02362
2202.59,0.02376
2196.81,0.02358
2191.02,0.02311
2185.23,0.02347
2179.45,0.02381
2173.66,0.02369
2167.88,0.02357
2162.09,0.02356
2156.3,0.02368
2150.52,0.02359
2144.73,0.02368
2138.95,0.02359
2133.16,0.02401
2127.37,0.02380
2121.59,0.02366
2115.8,0.02318
2110.01,0.02376
2104.23,0.02332
2098.44,0.02302
2092.66,0.02338
2086.87,0.02364
2081.08,0.02356
2075.3,0.02395
2069.51,0.02347
2063.73,0.02319
2057.94,0.02332
2052.15,0.02328
2046.37,0.02329
2040.58,0.02378
2034.79,0.02346
2029.01,0.02342
2023.22,0.02375
2017.44,0.02359
2011.65,0.02321
2005.86,0.02341
2000.08,0.02364
1994.29,0.02348
1988.51,0.02347
1982.72,0.02344
1976.93,0.02352
1971.15,0.02351
1965.36,0.02336
1959.57,0.02377
1953.79,0.02375
1948,0.02329
1942.22,0.02334
1936.43,0.02317
1930.64,0.02316
1924.86,0.02353
1919.07,0.02375
1913.29,0.02326
1907.5,0.02329
1901.71,0.02314
1895.93,0.02351
1890.14,0.02309
1884.35,0.02307
1878.57,0.02294
1872.78,0.02352
1867,0.02329
1861.21,0.02269
1855.42,0.02294
1849.64,0.02324
1843.85,0.02324
1838.07,0.02302
1832.28,0.02321
1826.49,0.02269
1820.71,0.02299
1814.92,0.02250
1809.13,0.02248
1803.35,0.02293
1797.56,0.02315
1791.78,0.02248
1785.99,0.02232
1780.2,0.02180
1774.42,0.02176
1768.63,0.02118
1762.85,0.02083
1757.06,0.02037
1751.27,0.02016
1745.49,0.02015
1739.7,0.02102
1733.92,0.02182
1728.13,0.02253
1722.34,0.02325
1716.56,0.02312
1710.77,0.02345
1704.98,0.02357
1699.2,0.02271
1693.41,0.02154
1687.63,0.02181
1681.84,0.02122
1676.05,0.02098
1670.27,0.02132
1664.48,0.02081
1658.7,0.02125
1652.91,0.02169
1647.12,0.02111
1641.34,0.02126
1635.55,0.02155
1629.76,0.02106
1623.98,0.02183
1618.19,0.02157
1612.41,0.02142
1606.62,0.02170
1600.83,0.02126
1595.05,0.02147
1589.26,0.02118
1583.48,0.02084
1577.69,0.02157
1571.9,0.02111
1566.12,0.02097
1560.33,0.02225
1554.54,0.02109
1548.76,0.02084
1542.97,0.02079
1537.19,0.02152
1531.4,0.02016
1525.61,0.02170
1519.83,0.02100
1514.04,0.02100
1508.26,0.02193
1502.47,0.02165
1496.68,0.02116
1490.9,0.02126
1485.11,0.02144
1479.32,0.02082
1473.54,0.02091
1467.75,0.02066
1461.97,0.02083
1456.18,0.02097
1450.39,0.02137
1444.61,0.02095
1438.82,0.02091
1433.04,0.02062
1427.25,0.02099
1421.46,0.02107
1415.68,0.02075
1409.89,0.02088
1404.1,0.02056
1398.32,0.02062
1392.53,0.01956
1386.75,0.02007
1380.96,0.02041
1375.17,0.02054
1369.39,0.02057
1363.6,0.02059
1357.82,0.02011
1352.03,0.02017
1346.24,0.01993
1340.46,0.02024
1334.67,0.01995
1328.88,0.02010
1323.1,0.01889
1317.31,0.01900
1311.53,0.01896
1305.74,0.01926
1299.95,0.01966
1294.17,0.02003
1288.38,0.02036
1282.6,0.02075
1276.81,0.02111
1271.02,0.02138
1265.24,0.02171
1259.45,0.02220
1253.66,0.02236
1247.88,0.02213
1242.09,0.02244
1236.31,0.02207
1230.52,0.02182
1224.73,0.02137
1218.95,0.02156
1213.16,0.02127
1207.38,0.02086
1201.59,0.02087
1195.8,0.02092
1190.02,0.02047
1184.23,0.02038
1178.45,0.01998
1172.66,0.02021
1166.87,0.01991
1161.09,0.01980
1155.3,0.01958
1149.51,0.01935
1143.73,0.01952
1137.94,0.01961
1132.16,0.02034
1126.37,0.02068
1120.58,0.02072
1114.8,0.02077
1109.01,0.02016
1103.23,0.01976
1097.44,0.02010
1091.65,0.02075
1085.87,0.02100
1080.08,0.02045
1074.29,0.02187
1068.51,0.02181
1062.72,0.02202
1056.94,0.02197
1051.15,0.02187
1045.36,0.02192
1039.58,0.02132
1033.79,0.02152
1028.01,0.02153
1022.22,0.02186
1016.43,0.02134
1010.65,0.02288
1004.86,0.02338
999.075,0.02355
993.288,0.02340
987.502,0.02390
981.716,0.02274
975.93,0.02290
970.144,0.02280
964.358,0.02246
958.572,0.02243
952.785,0.02218
946.999,0.02248
941.213,0.02232
935.427,0.02182
929.641,0.02161
923.855,0.02224
918.068,0.02245
912.282,0.02218
906.496,0.02161
900.71,0.02204
894.924,0.02267
889.138,0.02189
883.352,0.02125
877.565,0.02121
871.779,0.02156
865.993,0.02114
860.207,0.02095
854.421,0.02147
848.635,0.02113
842.849,0.02095
837.062,0.02118
831.276,0.02139
825.49,0.02011
819.704,0.02048
813.918,0.02084
808.132,0.02072
802.346,0.02032
796.559,0.01997
790.773,0.02066
784.987,0.02046
779.201,0.01996
773.415,0.01961
767.629,0.02034
761.843,0.01949
756.056,0.02015
750.27,0.01939
744.484,0.02002
738.698,0.02044
732.912,0.01951
727.126,0.02055
721.34,0.02039
715.553,0.01985
709.767,0.01997
703.981,0.02020
698.195,0.01974
692.409,0.01914
686.623,0.01973
680.837,0.02003
675.05,0.01992
669.264,0.01986
663.478,0.01909
657.692,0.01906
651.906,0.01885
646.12,0.01714
640.333,0.01851
634.547,0.01864
628.761,0.01795
622.975,0.01686
617.189,0.01876
611.403,0.01854
605.617,0.01898
599.83,0.01676