File: 01_Data/PC/FTIR/IS/PC_1.52_T_IS_230516_R2.dpt
7496.92,0.03862
7491.13,0.06116
7485.34,0.03945
7479.56,0.01223
7473.77,0.05577
7467.99,0.01983
7462.2,0.03599
7456.41,0.02604
7450.63,0.02668
7444.84,0.08334
7439.06,0.06252
7433.27,0.06698
7427.48,0.05100
7421.7,0.08429
7415.91,0.05787
7410.12,0.06562
7404.34,0.06950
7398.55,0.05397
7392.77,0.06475
7386.98,0.03476
7381.19,0.06871
7375.41,0.07266
7369.62,0.05774
7363.84,0.06430
7358.05,0.04426
7352.26,0.06666
7346.48,0.04230
7340.69,0.03234
7334.9,0.04350
7329.12,0.05540
7323.33,0.05703
7317.55,0.07142
7311.76,0.04777
7305.97,0.05144
7300.19,0.03301
7294.4,0.05766
7288.62,0.03470
7282.83,0.03217
7277.04,0.03542
7271.26,0.06564
7265.47,0.06061
7259.68,0.03335
7253.9,0.03720
7248.11,0.04502
7242.33,0.02789
7236.54,0.03582
7230.75,0.03878
7224.97,0.05041
7219.18,0.05290
7213.4,0.07147
7207.61,0.06345
7201.82,0.06170
7196.04,0.03032
7190.25,0.04320
7184.46,0.03545
7178.68,0.04567
7172.89,0.07212
7167.11,0.06290
7161.32,0.04220
7155.53,0.05082
7149.75,0.04709
7143.96,0.05798
7138.18,0.04207
7132.39,0.03785
7126.6,0.08363
7120.82,0.05990
7115.03,0.05374
7109.24,0.06862
7103.46,0.02632
7097.67,0.03692
7091.89,0.04781
7086.1,0.05744
7080.31,0.03260
7074.53,0.03568
7068.74,0.05294
7062.96,0.03832
7057.17,0.05134
7051.38,0.05007
7045.6,0.05177
7039.81,0.05574
7034.02,0.05171
7028.24,0.03046
7022.45,0.03600
7016.67,0.04503
7010.88,0.05166
7005.09,0.03084
6999.31,0.05784
6993.52,0.04505
6987.74,0.04561
6981.95,0.04776
6976.16,0.02688
6970.38,0.04066
6964.59,0.03989
6958.8,0.05658
6953.02,0.03937
6947.23,0.02934
6941.45,0.03616
6935.66,0.04949
6929.87,0.04687
6924.09,0.03283
6918.3,0.04848
6912.52,0.02720
6906.73,0.02952
6900.94,0.04090
6895.16,0.04000
6889.37,0.04180
6883.59,0.02411
6877.8,0.04309
6872.01,0.04828
6866.23,0.04940
6860.44,0.05208
6854.65,0.03437
6848.87,0.02944
6843.08,0.03639
6837.3,0.03919
6831.51,0.03191
6825.72,0.03511
6819.94,0.04993
6814.15,0.03917
6808.37,0.04765
6802.58,0.03501
6796.79,0.04358
6791.01,0.05042
6785.22,0.04587
6779.43,0.03788
6773.65,0.03026
6767.86,0.02414
6762.08,0.04652
6756.29,0.03154
6750.5,0.04156
6744.72,0.04014
6738.93,0.03524
6733.15,0.02833
6727.36,0.04443
6721.57,0.03989
6715.79,0.01782
6710,0.03459
6704.21,0.04175
6698.43,0.04678
6692.64,0.04595
6686.86,0.04543
6681.07,0.03503
6675.28,0.03345
6669.5,0.03613
6663.71,0.03574
6657.93,0.04649
6652.14,0.04286
6646.35,0.03871
6640.57,0.03681
6634.78,0.04264
6628.99,0.03070
6623.21,0.04016
6617.42,0.03526
6611.64,0.04438
6605.85,0.03943
6600.06,0.03484
6594.28,0.03332
6588.49,0.03479
6582.71,0.04095
6576.92,0.03894
6571.13,0.03136
6565.35,0.03379
6559.56,0.03717
6553.77,0.03354
6547.99,0.03747
6542.2,0.03759
6536.42,0.03475
6530.63,0.04080
6524.84,0.04774
6519.06,0.03894
6513.27,0.03621
6507.49,0.03530
6501.7,0.04174
6495.91,0.03330
6490.13,0.04440
6484.34,0.03735
6478.55,0.04014
6472.77,0.03601
6466.98,0.04414
6461.2,0.04644
6455.41,0.04626
6449.62,0.03770
6443.84,0.03557
6438.05,0.03527
6432.27,0.02958
6426.48,0.04412
6420.69,0.03477
6414.91,0.04340
6409.12,0.03214
6403.33,0.03319
6397.55,0.02785
6391.76,0.03186
6385.98,0.03659
6380.19,0.03798
6374.4,0.03050
6368.62,0.03287
6362.83,0.03463
6357.05,0.03695
6351.26,0.03851
6345.47,0.03955
6339.69,0.04198
6333.9,0.03635
6328.12,0.04252
6322.33,0.03349
6316.54,0.03810
6310.76,0.03752
6304.97,0.03506
6299.18,0.03674
6293.4,0.03200
6287.61,0.02614
6281.83,0.04409
6276.04,0.03318
6270.25,0.02904
6264.47,0.02763
6258.68,0.03425
6252.9,0.03047
6247.11,0.03037
6241.32,0.03602
6235.54,0.03030
6229.75,0.03064
6223.96,0.03742
6218.18,0.04310
6212.39,0.03244
6206.61,0.04288
6200.82,0.03187
6195.03,0.03062
6189.25,0.03905
6183.46,0.03602
6177.68,0.03079
6171.89,0.03254
6166.1,0.03045
6160.32,0.02791
6154.53,0.02353
6148.74,0.03054
6142.96,0.03069
6137.17,0.03674
6131.39,0.03284
6125.6,0.03184
6119.81,0.03444
6114.03,0.03642
6108.24,0.03375
6102.46,0.02956
6096.67,0.02630
6090.88,0.03174
6085.1,0.03251
6079.31,0.03003
6073.52,0.03315
6067.74,0.03532
6061.95,0.02834
6056.17,0.03174
6050.38,0.03415
6044.59,0.03465
6038.81,0.04041
6033.02,0.03214
6027.24,0.03100
6021.45,0.02756
6015.66,0.03299
6009.88,0.02669
6004.09,0.03052
5998.3,0.03126
5992.52,0.03201
5986.73,0.03156
5980.95,0.02918
5975.16,0.03090
5969.37,0.03618
5963.59,0.03456
5957.8,0.03145
5952.02,0.03021
5946.23,0.02644
5940.44,0.03022
5934.66,0.02806
5928.87,0.02935
5923.08,0.02936
5917.3,0.02606
5911.51,0.02473
5905.73,0.02529
5899.94,0.02858
5894.15,0.02810
5888.37,0.02884
5882.58,0.02464
5876.8,0.02873
5871.01,0.02513
5865.22,0.02552
5859.44,0.03077
5853.65,0.02687
5847.86,0.02780
5842.08,0.03174
5836.29,0.02944
5830.51,0.02578
5824.72,0.02802
5818.93,0.02993
5813.15,0.03055
5807.36,0.02555
5801.58,0.02605
5795.79,0.02787
5790,0.02906
5784.22,0.03024
5778.43,0.02996
5772.65,0.03098
5766.86,0.02815
5761.07,0.02530
5755.29,0.02541
5749.5,0.02412
5743.71,0.02813
5737.93,0.02800
5732.14,0.02727
5726.36,0.02580
5720.57,0.02750
5714.78,0.02618
5709,0.02855
5703.21,0.02851
5697.43,0.02979
5691.64,0.02628
5685.85,0.02899
5680.07,0.02915
5674.28,0.03031
5668.49,0.02703
5662.71,0.02741
5656.92,0.02846
5651.14,0.02468
5645.35,0.03084
5639.56,0.03052
5633.78,0.03028
5627.99,0.02875
5622.21,0.02297
5616.42,0.02444
5610.63,0.02704
5604.85,0.02442
5599.06,0.02350
5593.27,0.02464
5587.49,0.02051
5581.7,0.02103
5575.92,0.02727
5570.13,0.02729
5564.34,0.02658
5558.56,0.02599
5552.77,0.02736
5546.99,0.02738
5541.2,0.02629
5535.41,0.02643
5529.63,0.02729
5523.84,0.03228
5518.05,0.02810
5512.27,0.02700
5506.48,0.02437
5500.7,0.02504
5494.91,0.02940
5489.12,0.02439
5483.34,0.02441
5477.55,0.02489
5471.77,0.02657
5465.98,0.02880
5460.19,0.02756
5454.41,0.02877
5448.62,0.02689
5442.83,0.02546
5437.05,0.02968
5431.26,0.02762
5425.48,0.02624
5419.69,0.02548
5413.9,0.02736
5408.12,0.02762
5402.33,0.02689
5396.55,0.02526
5390.76,0.02607
5384.97,0.02620
5379.19,0.02704
5373.4,0.02744
5367.61,0.02451
5361.83,0.02905
5356.04,0.02472
5350.26,0.02420
5344.47,0.02473
5338.68,0.02576
5332.9,0.02804
5327.11,0.02617
5321.33,0.02609
5315.54,0.02569
5309.75,0.02581
5303.97,0.02683
5298.18,0.02705
5292.39,0.02598
5286.61,0.02563
5280.82,0.02745
5275.04,0.02698
5269.25,0.02518
5263.46,0.02406
5257.68,0.02501
5251.89,0.02512
5246.11,0.02552
5240.32,0.02674
5234.53,0.02817
5228.75,0.02453
5222.96,0.02758
5217.18,0.02464
5211.39,0.02681
5205.6,0.02339
5199.82,0.02680
5194.03,0.02522
5188.24,0.02237
5182.46,0.02494
5176.67,0.02557
5170.89,0.02366
5165.1,0.02372
5159.31,0.02583
5153.53,0.02609
5147.74,0.02598
5141.96,0.02474
5136.17,0.02454
5130.38,0.02646
5124.6,0.02386
5118.81,0.02553
5113.02,0.02289
5107.24,0.02690
5101.45,0.02313
5095.67,0.02406
5089.88,0.02290
5084.09,0.02330
5078.31,0.02316
5072.52,0.02324
5066.74,0.02456
5060.95,0.02669
5055.16,0.02476
5049.38,0.02451
5043.59,0.02670
5037.8,0.02443
5032.02,0.02637
5026.23,0.02520
5020.45,0.02416
5014.66,0.02395
5008.87,0.02509
5003.09,0.02434
4997.3,0.02323
4991.52,0.02374
4985.73,0.02484
4979.94,0.02455
4974.16,0.02664
4968.37,0.02465
4962.58,0.02357
4956.8,0.02639
4951.01,0.02353
4945.23,0.02594
4939.44,0.02558
4933.65,0.02566
4927.87,0.02497
4922.08,0.02401
4916.3,0.02445
4910.51,0.02315
4904.72,0.02215
4898.94,0.02346
4893.15,0.02426
4887.36,0.02427
4881.58,0.02673
4875.79,0.02488
4870.01,0.02384
4864.22,0.02465
4858.43,0.02414
4852.65,0.02456
4846.86,0.02467
4841.08,0.02452
4835.29,0.02523
4829.5,0.02362
4823.72,0.02368
4817.93,0.02577
4812.14,0.02493
4806.36,0.02517
4800.57,0.02488
4794.79,0.02318
4789,0.02449
4783.21,0.02345
4777.43,0.02249
4771.64,0.02402
4765.86,0.02650
4760.07,0.02560
4754.28,0.02309
4748.5,0.02358
4742.71,0.02298
4736.92,0.02448
4731.14,0.02444
4725.35,0.02412
4719.57,0.02459
4713.78,0.02449
4707.99,0.02596
4702.21,0.02331
4696.42,0.02361
4690.64,0.02477
4684.85,0.02519
4679.06,0.02565
4673.28,0.02376
4667.49,0.02323
4661.7,0.02473
4655.92,0.02432
4650.13,0.02375
4644.35,0.02465
4638.56,0.02524
4632.77,0.02493
4626.99,0.02321
4621.2,0.02479
4615.42,0.02514
4609.63,0.02446
4603.84,0.02339
4598.06,0.02333
4592.27,0.02307
4586.49,0.02371
4580.7,0.02344
4574.91,0.02433
4569.13,0.02333
4563.34,0.02302
4557.55,0.02399
4551.77,0.02281
4545.98,0.02199
4540.2,0.02333
4534.41,0.02376
4528.62,0.02351
4522.84,0.02374
4517.05,0.02440
4511.27,0.02478
4505.48,0.02363
4499.69,0.02326
4493.91,0.02258
4488.12,0.02353
4482.33,0.02319
4476.55,0.02315
4470.76,0.02385
4464.98,0.02236
4459.19,0.02403
4453.4,0.02430
4447.62,0.02433
4441.83,0.02435
4436.05,0.02433
4430.26,0.02493
4424.47,0.02355
4418.69,0.02497
4412.9,0.02412
4407.11,0.02464
4401.33,0.02389
4395.54,0.02382
4389.76,0.02391
4383.97,0.02360
4378.18,0.02435
4372.4,0.02359
4366.61,0.02357
4360.83,0.02409
4355.04,0.02365
4349.25,0.02340
4343.47,0.02364
4337.68,0.02225
4331.89,0.02212
4326.11,0.02348
4320.32,0.02329
4314.54,0.02372
4308.75,0.02298
4302.96,0.02263
4297.18,0.02384
4291.39,0.02370
4285.61,0.02316
4279.82,0.02426
4274.03,0.02351
4268.25,0.02378
4262.46,0.02408
4256.67,0.02451
4250.89,0.02425
4245.1,0.02424
4239.32,0.02420
4233.53,0.02441
4227.74,0.02375
4221.96,0.02335
4216.17,0.02416
4210.39,0.02342
4204.6,0.02305
4198.81,0.02350
4193.03,0.02361
4187.24,0.02324
4181.45,0.02332
4175.67,0.02270
4169.88,0.02436
4164.1,0.02381
4158.31,0.02342
4152.52,0.02467
4146.74,0.02371
4140.95,0.02344
4135.17,0.02358
4129.38,0.02184
4123.59,0.02385
4117.81,0.02465
4112.02,0.02345
4106.23,0.02365
4100.45,0.02503
4094.66,0.02414
4088.88,0.02365
4083.09,0.02282
4077.3,0.02319
4071.52,0.02340
4065.73,0.02331
4059.95,0.02404
4054.16,0.02361
4048.37,0.02366
4042.59,0.02385
4036.8,0.02385
4031.02,0.02339
4025.23,0.02331
4019.44,0.02427
4013.66,0.02402
4007.87,0.02342
4002.08,0.02387
3996.3,0.02297
3990.51,0.02376
3984.73,0.02413
3978.94,0.02423
3973.15,0.02376
3967.37,0.02366
3961.58,0.02281
3955.8,0.02367
3950.01,0.02330
3944.22,0.02352
3938.44,0.02266
3932.65,0.02279
3926.86,0.02306
3921.08,0.02240
3915.29,0.02368
3909.51,0.02366
3903.72,0.02369
3897.93,0.02318
3892.15,0.02301
3886.36,0.02417
3880.58,0.02391
3874.79,0.02368
3869,0.02410
3863.22,0.02321
3857.43,0.02320
3851.64,0.02488
3845.86,0.02392
3840.07,0.02493
3834.29,0.02404
3828.5,0.02334
3822.71,0.02345
3816.93,0.02421
3811.14,0.02392
3805.36,0.02330
3799.57,0.02400
3793.78,0.02462
3788,0.02350
3782.21,0.02354
3776.42,0.02352
3770.64,0.02411
3764.85,0.02405
3759.07,0.02344
3753.28,0.02335
3747.49,0.02418
3741.71,0.02477
3735.92,0.02435
3730.14,0.02352
3724.35,0.02347
3718.56,0.02371
3712.78,0.02405
3706.99,0.02406
3701.2,0.02416
3695.42,0.02329
3689.63,0.02292
3683.85,0.02343
3678.06,0.02347
3672.27,0.02122
3666.49,0.02344
3660.7,0.02257
3654.92,0.02426
3649.13,0.02264
3643.34,0.02325
3637.56,0.02316
3631.77,0.02311
3625.98,0.02286
3620.2,0.02391
3614.41,0.02286
3608.63,0.02238
3602.84,0.02269
3597.05,0.02174
3591.27,0.02183
3585.48,0.02241
3579.7,0.02196
3573.91,0.02216
3568.12,0.02245
3562.34,0.02307
3556.55,0.02363
3550.76,0.02320
3544.98,0.02186
3539.19,0.02180
3533.41,0.02237
3527.62,0.02258
3521.83,0.02223
3516.05,0.02170
3510.26,0.02234
3504.48,0.02151
3498.69,0.02243
3492.9,0.02140
3487.12,0.02130
3481.33,0.02118
3475.55,0.02215
3469.76,0.02199
3463.97,0.02225
3458.19,0.02193
3452.4,0.02170
3446.61,0.02151
3440.83,0.02206
3435.04,0.02184
3429.26,0.02178
3423.47,0.02199
3417.68,0.02175
3411.9,0.02169
3406.11,0.02154
3400.33,0.02148
3394.54,0.02130
3388.75,0.02139
3382.97,0.02177
3377.18,0.02127
3371.39,0.02186
3365.61,0.02071
3359.82,0.02168
3354.04,0.02134
3348.25,0.02097
3342.46,0.02215
3336.68,0.02199
3330.89,0.02131
3325.11,0.02119
3319.32,0.02278
3313.53,0.02158
3307.75,0.02156
3301.96,0.02178
3296.17,0.02170
3290.39,0.02159
3284.6,0.02100
3278.82,0.02136
3273.03,0.02168
3267.24,0.02128
3261.46,0.02157
3255.67,0.02199
3249.89,0.02119
3244.1,0.02162
3238.31,0.02154
3232.53,0.02163
3226.74,0.02275
3220.95,0.02238
3215.17,0.02202
3209.38,0.02160
3203.6,0.02230
3197.81,0.02179
3192.02,0.02132
3186.24,0.02178
3180.45,0.02232
3174.67,0.02199
3168.88,0.02154
3163.09,0.02205
3157.31,0.02209
3151.52,0.02272
3145.73,0.02269
3139.95,0.02303
3134.16,0.02185
3128.38,0.02191
3122.59,0.02233
3116.8,0.02168
3111.02,0.02217
3105.23,0.02200
3099.45,0.02183
3093.66,0.02214
3087.87,0.02268
3082.09,0.02306
3076.3,0.02153
3070.51,0.02231
3064.73,0.02195
3058.94,0.02233
3053.16,0.02231
3047.37,0.02237
3041.58,0.02247
3035.8,0.02232
3030.01,0.02188
3024.23,0.02249
3018.44,0.02202
3012.65,0.02231
3006.87,0.02173
3001.08,0.02167
2995.29,0.02177
2989.51,0.02141
2983.72,0.02144
2977.94,0.02145
2972.15,0.02165
2966.36,0.02129
2960.58,0.02114
2954.79,0.02153
2949.01,0.02119
2943.22,0.02156
2937.43,0.02127
2931.65,0.02078
2925.86,0.02161
2920.08,0.02161
2914.29,0.02168
2908.5,0.02120
2902.72,0.02210
2896.93,0.02262
2891.14,0.02261
2885.36,0.02162
2879.57,0.02185
2873.79,0.02158
2868,0.02196
2862.21,0.02202
2856.43,0.02242
2850.64,0.02165
2844.86,0.02259
2839.07,0.02197
2833.28,0.02215
2827.5,0.02275
2821.71,0.02245
2815.92,0.02278
2810.14,0.02251
2804.35,0.02318
2798.57,0.02320
2792.78,0.02315
2786.99,0.02271
2781.21,0.02278
2775.42,0.02265
2769.64,0.02281
2763.85,0.02271
2758.06,0.02288
2752.28,0.02248
2746.49,0.02303
2740.7,0.02291
2734.92,0.02270
2729.13,0.02202
2723.35,0.02261
2717.56,0.02252
2711.77,0.02279
2705.99,0.02245
2700.2,0.02270
2694.42,0.02242
2688.63,0.02282
2682.84,0.02289
2677.06,0.02294
2671.27,0.02267
2665.48,0.02304
2659.7,0.02218
2653.91,0.02268
2648.13,0.02302
2642.34,0.02268
2636.55,0.02265
2630.77,0.02341
2624.98,0.02285
2619.2,0.02294
2613.41,0.02313
2607.62,0.02308
2601.84,0.02272
2596.05,0.02268
2590.26,0.02267
2584.48,0.02276
2578.69,0.02267
2572.91,0.02292
2567.12,0.02211
2561.33,0.02253
2555.55,0.02258
2549.76,0.02273
2543.98,0.02306
2538.19,0.02297
2532.4,0.02279
2526.62,0.02294
2520.83,0.02282
2515.04,0.02288
2509.26,0.02317
2503.47,0.02291
2497.69,0.02259
2491.9,0.02259
2486.11,0.02293
2480.33,0.02304
2474.54,0.02328
2468.76,0.02283
2462.97,0.02294
2457.18,0.02252
2451.4,0.02278
2445.61,0.02259
2439.82,0.02330
2434.04,0.02316
2428.25,0.02287
2422.47,0.02301
2416.68,0.02287
2410.89,0.02282
2405.11,0.02300
2399.32,0.02279
2393.54,0.02317
2387.75,0.02266
2381.96,0.02326
2376.18,0.02367
2370.39,0.02319
2364.61,0.02374
2358.82,0.02397
2353.03,0.02376
2347.25,0.02386
2341.46,0.02427
2335.67,0.02352
2329.89,0.02327
2324.1,0.02348
2318.32,0.02381
2312.53,0.02281
2306.74,0.02345
2300.96,0.02274
2295.17,0.02301
2289.39,0.02344
2283.6,0.02326
2277.81,0.02304
2272.03,0.02259
2266.24,0.02287
2260.45,0.02292
2254.67,0.02308
2248.88,0.02250
2243.1,0.02298
2237.31,0.02304
2231.52,0.02328
2225.74,0.02299
2219.95,0.02292
2214.17,0.02302
2208.38,0.02292
2202.59,0.02301
2196.81,0.02249
2191.02,0.02291
2185.23,0.02299
2179.45,0.02297
2173.66,0.02287
2167.88,0.02273
2162.09,0.02254
2156.3,0.02275
2150.52,0.02273
2144.73,0.02306
2138.95,0.02309
2133.16,0.02273
2127.37,0.02274
2121.59,0.02288
2115.8,0.02283
2110.01,0.02294
2104.23,0.02257
2098.44,0.02302
2092.66,0.02322
2086.87,0.02274
2081.08,0.02300
2075.3,0.02304
2069.51,0.02300
2063.73,0.02298
2057.94,0.02302
2052.15,0.02251
2046.37,0.02251
2040.58,0.02291
2034.79,0.02276
2029.01,0.02278
2023.22,0.02271
2017.44,0.02299
2011.65,0.02317
2005.86,0.02271
2000.08,0.02273
1994.29,0.02284
1988.51,0.02298
1982.72,0.02283
1976.93,0.02275
1971.15,0.02271
1965.36,0.02299
1959.57,0.02275
1953.79,0.02274
1948,0.02220
1942.22,0.02274
1936.43,0.02217
1930.64,0.02266
1924.86,0.02249
1919.07,0.02267
1913.29,0.02280
1907.5,0.02239
1901.71,0.02266
1895.93,0.02266
1890.14,0.02280
1884.35,0.02266
1878.57,0.02234
1872.78,0.02260
1867,0.02234
1861.21,0.02230
1855.42,0.02248
1849.64,0.02244
1843.85,0.02195
1838.07,0.02212
1832.28,0.02233
1826.49,0.02222
1820.71,0.02253
1814.92,0.02219
1809.13,0.02197
1803.35,0.02208
1797.56,0.02162
1791.78,0.02151
1785.99,0.02122
1780.2,0.02109
1774.42,0.02053
1768.63,0.02054
1762.85,0.02055
1757.06,0.01977
1751.27,0.01944
1745.49,0.01962
1739.7,0.02035
1733.92,0.02116
1728.13,0.02191
1722.34,0.02229
1716.56,0.02204
1710.77,0.02212
1704.98,0.02191
1699.2,0.02205
1693.41,0.02167
1687.63,0.02105
1681.84,0.02110
1676.05,0.02050
1670.27,0.02066
1664.48,0.02054
1658.7,0.02024
1652.91,0.02017
1647.12,0.02132
1641.34,0.02046
1635.55,0.02055
1629.76,0.02098
1623.98,0.02097
1618.19,0.02123
1612.41,0.02035
1606.62,0.02074
1600.83,0.02101
1595.05,0.02075
1589.26,0.02080
1583.48,0.02087
1577.69,0.02126
1571.9,0.02026
1566.12,0.02034
1560.33,0.02018
1554.54,0.02027
1548.76,0.02045
1542.97,0.01912
1537.19,0.02044
1531.4,0.02027
1525.61,0.02059
1519.83,0.02072
1514.04,0.02095
1508.26,0.02128
1502.47,0.02100
1496.68,0.02057
1490.9,0.02149
1485.11,0.02084
1479.32,0.02072
1473.54,0.02016
1467.75,0.02036
1461.97,0.02057
1456.18,0.02081
1450.39,0.02035
1444.61,0.02034
1438.82,0.02066
1433.04,0.02041
1427.25,0.02041
1421.46,0.02038
1415.68,0.01983
1409.89,0.02021
1404.1,0.02052
1398.32,0.02020
1392.53,0.01972
1386.75,0.02013
1380.96,0.02003
1375.17,0.02005
1369.39,0.01970
1363.6,0.01988
1357.82,0.01983
1352.03,0.01961
1346.24,0.01949
1340.46,0.01956
1334.67,0.01932
1328.88,0.01942
1323.1,0.01898
1317.31,0.01878
1311.53,0.01877
1305.74,0.01886
1299.95,0.01918
1294.17,0.01955
1288.38,0.01981
1282.6,0.02069
1276.81,0.02069
1271.02,0.02102
1265.24,0.02149
1259.45,0.02176
1253.66,0.02201
1247.88,0.02198
1242.09,0.02161
1236.31,0.02165
1230.52,0.02183
1224.73,0.02123
1218.95,0.02091
1213.16,0.02091
1207.38,0.02056
1201.59,0.02054
1195.8,0.02071
1190.02,0.02035
1184.23,0.02013
1178.45,0.02006
1172.66,0.02018
1166.87,0.01982
1161.09,0.01955
1155.3,0.01952
1149.51,0.01895
1143.73,0.01972
1137.94,0.01948
1132.16,0.01951
1126.37,0.02028
1120.58,0.02063
1114.8,0.02023
1109.01,0.02015
1103.23,0.01967
1097.44,0.01977
1091.65,0.02014
1085.87,0.01964
1080.08,0.01981
1074.29,0.02070
1068.51,0.02180
1062.72,0.02134
1056.94,0.02249
1051.15,0.02178
1045.36,0.02137
1039.58,0.02131
1033.79,0.02130
1028.01,0.02105
1022.22,0.02051
1016.43,0.02184
1010.65,0.02208
1004.86,0.02272
999.075,0.02292
993.288,0.02380
987.502,0.02257
981.716,0.02266
975.93,0.02272
970.144,0.02251
964.358,0.02153
958.572,0.02237
952.785,0.02153
946.999,0.02182
941.213,0.02193
935.427,0.02213
929.641,0.02116
923.855,0.02160
918.068,0.02165
912.282,0.02106
906.496,0.02137
900.71,0.02147
894.924,0.02171
889.138,0.02050
883.352,0.02145
877.565,0.02093
871.779,0.02054
865.993,0.02026
860.207,0.02032
854.421,0.02009
848.635,0.02096
842.849,0.02035
837.062,0.02025
831.276,0.02040
825.49,0.02040
819.704,0.02082
813.918,0.02068
808.132,0.02114
802.346,0.02155
796.559,0.02033
790.773,0.01996
784.987,0.01987
779.201,0.01966
773.415,0.01969
767.629,0.01936
761.843,0.01994
756.056,0.01949
750.27,0.02007
744.484,0.01934
738.698,0.02018
732.912,0.01993
727.126,0.02005
721.34,0.02018
715.553,0.02012
709.767,0.01981
703.981,0.01853
698.195,0.01883
692.409,0.01908
686.623,0.02005
680.837,0.01972
675.05,0.02085
669.264,0.01967
663.478,0.01902
657.692,0.01844
651.906,0.02051
646.12,0.01965
640.333,0.01960
634.547,0.01967
628.761,0.01809
622.975,0.01865
617.189,0.01815
611.403,0.01772
605.617,0.01646
599.83,0.01628