File: 01_Data/PC/FTIR/IS/PC_1.52_Trans_S_IS_230516_R2.dpt
7496.92,0.87890
7491.13,0.86116
7485.34,0.89513
7479.56,0.89942
7473.77,0.89139
7467.99,0.87329
7462.2,0.87760
7456.41,0.86472
7450.63,0.87406
7444.84,0.86485
7439.06,0.86718
7433.27,0.86036
7427.48,0.85007
7421.7,0.89388
7415.91,0.83442
7410.12,0.88391
7404.34,0.88355
7398.55,0.86222
7392.77,0.83875
7386.98,0.86806
7381.19,0.83629
7375.41,0.85160
7369.62,0.82989
7363.84,0.81652
7358.05,0.82594
7352.26,0.83565
7346.48,0.83801
7340.69,0.83119
7334.9,0.84094
7329.12,0.81584
7323.33,0.81673
7317.55,0.80807
7311.76,0.83244
7305.97,0.80087
7300.19,0.81233
7294.4,0.82826
7288.62,0.82763
7282.83,0.81359
7277.04,0.82034
7271.26,0.82310
7265.47,0.83275
7259.68,0.84363
7253.9,0.82048
7248.11,0.82134
7242.33,0.81243
7236.54,0.84308
7230.75,0.80715
7224.97,0.82360
7219.18,0.81065
7213.4,0.80306
7207.61,0.85032
7201.82,0.85561
7196.04,0.83145
7190.25,0.79844
7184.46,0.81164
7178.68,0.81803
7172.89,0.83175
7167.11,0.80879
7161.32,0.82303
7155.53,0.83154
7149.75,0.82330
7143.96,0.82488
7138.18,0.82408
7132.39,0.82170
7126.6,0.83569
7120.82,0.82368
7115.03,0.81449
7109.24,0.82651
7103.46,0.81020
7097.67,0.82506
7091.89,0.82005
7086.1,0.83713
7080.31,0.82008
7074.53,0.82108
7068.74,0.84820
7062.96,0.84419
7057.17,0.83485
7051.38,0.85058
7045.6,0.84826
7039.81,0.86064
7034.02,0.86103
7028.24,0.87608
7022.45,0.87774
7016.67,0.86298
7010.88,0.84673
7005.09,0.86327
6999.31,0.85429
6993.52,0.86752
6987.74,0.86058
6981.95,0.85930
6976.16,0.86043
6970.38,0.84255
6964.59,0.87137
6958.8,0.86525
6953.02,0.84691
6947.23,0.84527
6941.45,0.86340
6935.66,0.86301
6929.87,0.84269
6924.09,0.86895
6918.3,0.88294
6912.52,0.85543
6906.73,0.86585
6900.94,0.87701
6895.16,0.87534
6889.37,0.87789
6883.59,0.86729
6877.8,0.86301
6872.01,0.87640
6866.23,0.86101
6860.44,0.87147
6854.65,0.87314
6848.87,0.87608
6843.08,0.85760
6837.3,0.86580
6831.51,0.86058
6825.72,0.87564
6819.94,0.85575
6814.15,0.86759
6808.37,0.88543
6802.58,0.87092
6796.79,0.86895
6791.01,0.87627
6785.22,0.87761
6779.43,0.87679
6773.65,0.88078
6767.86,0.86699
6762.08,0.87239
6756.29,0.87815
6750.5,0.86993
6744.72,0.88116
6738.93,0.87915
6733.15,0.87236
6727.36,0.86996
6721.57,0.88509
6715.79,0.88073
6710,0.88552
6704.21,0.87379
6698.43,0.88274
6692.64,0.89246
6686.86,0.88580
6681.07,0.88570
6675.28,0.89681
6669.5,0.87891
6663.71,0.88726
6657.93,0.88292
6652.14,0.89391
6646.35,0.89126
6640.57,0.89527
6634.78,0.89662
6628.99,0.89110
6623.21,0.88255
6617.42,0.88545
6611.64,0.89127
6605.85,0.89966
6600.06,0.89305
6594.28,0.89775
6588.49,0.89642
6582.71,0.89404
6576.92,0.88514
6571.13,0.90101
6565.35,0.88873
6559.56,0.89404
6553.77,0.89248
6547.99,0.90384
6542.2,0.90288
6536.42,0.90052
6530.63,0.88392
6524.84,0.88365
6519.06,0.88968
6513.27,0.89539
6507.49,0.88940
6501.7,0.89212
6495.91,0.88667
6490.13,0.89757
6484.34,0.89365
6478.55,0.89058
6472.77,0.89025
6466.98,0.87966
6461.2,0.88267
6455.41,0.89073
6449.62,0.89338
6443.84,0.89115
6438.05,0.88500
6432.27,0.89468
6426.48,0.89735
6420.69,0.89505
6414.91,0.89158
6409.12,0.89038
6403.33,0.88858
6397.55,0.89080
6391.76,0.88867
6385.98,0.88630
6380.19,0.88874
6374.4,0.88583
6368.62,0.89463
6362.83,0.89005
6357.05,0.88576
6351.26,0.88791
6345.47,0.87867
6339.69,0.88504
6333.9,0.89278
6328.12,0.88582
6322.33,0.88880
6316.54,0.88452
6310.76,0.87795
6304.97,0.88041
6299.18,0.88802
6293.4,0.88316
6287.61,0.87469
6281.83,0.86546
6276.04,0.87881
6270.25,0.87189
6264.47,0.87034
6258.68,0.87409
6252.9,0.86917
6247.11,0.87082
6241.32,0.86124
6235.54,0.86133
6229.75,0.85669
6223.96,0.85399
6218.18,0.85239
6212.39,0.84179
6206.61,0.84676
6200.82,0.84038
6195.03,0.82223
6189.25,0.80905
6183.46,0.80236
6177.68,0.80148
6171.89,0.79336
6166.1,0.79006
6160.32,0.78653
6154.53,0.78122
6148.74,0.78052
6142.96,0.76295
6137.17,0.75724
6131.39,0.74353
6125.6,0.73200
6119.81,0.72141
6114.03,0.71911
6108.24,0.69408
6102.46,0.67976
6096.67,0.65852
6090.88,0.63497
6085.1,0.60425
6079.31,0.57191
6073.52,0.55632
6067.74,0.53104
6061.95,0.52196
6056.17,0.50763
6050.38,0.49529
6044.59,0.46471
6038.81,0.42661
6033.02,0.38466
6027.24,0.34363
6021.45,0.30339
6015.66,0.26500
6009.88,0.22777
6004.09,0.19984
5998.3,0.17952
5992.52,0.18916
5986.73,0.21204
5980.95,0.25316
5975.16,0.30676
5969.37,0.35493
5963.59,0.39331
5957.8,0.41021
5952.02,0.40808
5946.23,0.39817
5940.44,0.38513
5934.66,0.36944
5928.87,0.36563
5923.08,0.36771
5917.3,0.38533
5911.51,0.40256
5905.73,0.41950
5899.94,0.42126
5894.15,0.42011
5888.37,0.42623
5882.58,0.45641
5876.8,0.49222
5871.01,0.52725
5865.22,0.55987
5859.44,0.58825
5853.65,0.60832
5847.86,0.62707
5842.08,0.63811
5836.29,0.63482
5830.51,0.63311
5824.72,0.63042
5818.93,0.63349
5813.15,0.63645
5807.36,0.64277
5801.58,0.64846
5795.79,0.64265
5790,0.63664
5784.22,0.61745
5778.43,0.60621
5772.65,0.59120
5766.86,0.58949
5761.07,0.58997
5755.29,0.59788
5749.5,0.61636
5743.71,0.63735
5737.93,0.66284
5732.14,0.68834
5726.36,0.70359
5720.57,0.71803
5714.78,0.73294
5709,0.74351
5703.21,0.75146
5697.43,0.74618
5691.64,0.74424
5685.85,0.73765
5680.07,0.72791
5674.28,0.71311
5668.49,0.70105
5662.71,0.69964
5656.92,0.70482
5651.14,0.71430
5645.35,0.72115
5639.56,0.73896
5633.78,0.75175
5627.99,0.76497
5622.21,0.77816
5616.42,0.78616
5610.63,0.78954
5604.85,0.79224
5599.06,0.79059
5593.27,0.78652
5587.49,0.78643
5581.7,0.78459
5575.92,0.78706
5570.13,0.78620
5564.34,0.78216
5558.56,0.78028
5552.77,0.77881
5546.99,0.77637
5541.2,0.77883
5535.41,0.77574
5529.63,0.78100
5523.84,0.77930
5518.05,0.77767
5512.27,0.78182
5506.48,0.77672
5500.7,0.77756
5494.91,0.77060
5489.12,0.76885
5483.34,0.77200
5477.55,0.76104
5471.77,0.75947
5465.98,0.75969
5460.19,0.75874
5454.41,0.77060
5448.62,0.76836
5442.83,0.76692
5437.05,0.77337
5431.26,0.77700
5425.48,0.78259
5419.69,0.78560
5413.9,0.76950
5408.12,0.77362
5402.33,0.77975
5396.55,0.77417
5390.76,0.77769
5384.97,0.77896
5379.19,0.78187
5373.4,0.78535
5367.61,0.78888
5361.83,0.78518
5356.04,0.77561
5350.26,0.77474
5344.47,0.76486
5338.68,0.76848
5332.9,0.77385
5327.11,0.77154
5321.33,0.78186
5315.54,0.78244
5309.75,0.77317
5303.97,0.77087
5298.18,0.76633
5292.39,0.75386
5286.61,0.73544
5280.82,0.71870
5275.04,0.70117
5269.25,0.67840
5263.46,0.66961
5257.68,0.68486
5251.89,0.70167
5246.11,0.71621
5240.32,0.74726
5234.53,0.76122
5228.75,0.77116
5222.96,0.78110
5217.18,0.79152
5211.39,0.79463
5205.6,0.78850
5199.82,0.79496
5194.03,0.79591
5188.24,0.79248
5182.46,0.79237
5176.67,0.79281
5170.89,0.79160
5165.1,0.79542
5159.31,0.79571
5153.53,0.79973
5147.74,0.80174
5141.96,0.80442
5136.17,0.80907
5130.38,0.81078
5124.6,0.81249
5118.81,0.81247
5113.02,0.81262
5107.24,0.81492
5101.45,0.81127
5095.67,0.81219
5089.88,0.81003
5084.09,0.80781
5078.31,0.80673
5072.52,0.80633
5066.74,0.80789
5060.95,0.80868
5055.16,0.80824
5049.38,0.80899
5043.59,0.80970
5037.8,0.81008
5032.02,0.80867
5026.23,0.80724
5020.45,0.80295
5014.66,0.80131
5008.87,0.80157
5003.09,0.79792
4997.3,0.79567
4991.52,0.79407
4985.73,0.79206
4979.94,0.78854
4974.16,0.78675
4968.37,0.78450
4962.58,0.78308
4956.8,0.78128
4951.01,0.78175
4945.23,0.78240
4939.44,0.78240
4933.65,0.78017
4927.87,0.77371
4922.08,0.76718
4916.3,0.75658
4910.51,0.74662
4904.72,0.73505
4898.94,0.72632
4893.15,0.72295
4887.36,0.71767
4881.58,0.71598
4875.79,0.71336
4870.01,0.70947
4864.22,0.69965
4858.43,0.68832
4852.65,0.67859
4846.86,0.67261
4841.08,0.67351
4835.29,0.67760
4829.5,0.68248
4823.72,0.68703
4817.93,0.69054
4812.14,0.69427
4806.36,0.69645
4800.57,0.69698
4794.79,0.69209
4789,0.68507
4783.21,0.67717
4777.43,0.66700
4771.64,0.65518
4765.86,0.64276
4760.07,0.62791
4754.28,0.61299
4748.5,0.59426
4742.71,0.56656
4736.92,0.53422
4731.14,0.49218
4725.35,0.44715
4719.57,0.39852
4713.78,0.34023
4707.99,0.27393
4702.21,0.21262
4696.42,0.16930
4690.64,0.13981
4684.85,0.12029
4679.06,0.11841
4673.28,0.13669
4667.49,0.16622
4661.7,0.19420
4655.92,0.20513
4650.13,0.18889
4644.35,0.15698
4638.56,0.12358
4632.77,0.11275
4626.99,0.13834
4621.2,0.20755
4615.42,0.29187
4609.63,0.36091
4603.84,0.39505
4598.06,0.39870
4592.27,0.37999
4586.49,0.35041
4580.7,0.32405
4574.91,0.31296
4569.13,0.33226
4563.34,0.38067
4557.55,0.43789
4551.77,0.48042
4545.98,0.49714
4540.2,0.49666
4534.41,0.49394
4528.62,0.49513
4522.84,0.49879
4517.05,0.50084
4511.27,0.49775
4505.48,0.48742
4499.69,0.46509
4493.91,0.43704
4488.12,0.40756
4482.33,0.38507
4476.55,0.37798
4470.76,0.37542
4464.98,0.37440
4459.19,0.36541
4453.4,0.34231
4447.62,0.30846
4441.83,0.26589
4436.05,0.22313
4430.26,0.18205
4424.47,0.14637
4418.69,0.11653
4412.9,0.09290
4407.11,0.08058
4401.33,0.08298
4395.54,0.10319
4389.76,0.12119
4383.97,0.11912
4378.18,0.10237
4372.4,0.08435
4366.61,0.07221
4360.83,0.06610
4355.04,0.06097
4349.25,0.05475
4343.47,0.05174
4337.68,0.04725
4331.89,0.03901
4326.11,0.03491
4320.32,0.03793
4314.54,0.04796
4308.75,0.05550
4302.96,0.05613
4297.18,0.05652
4291.39,0.06261
4285.61,0.07082
4279.82,0.07854
4274.03,0.08311
4268.25,0.08919
4262.46,0.09515
4256.67,0.10523
4250.89,0.11579
4245.1,0.11772
4239.32,0.11333
4233.53,0.10634
4227.74,0.10190
4221.96,0.09630
4216.17,0.09099
4210.39,0.08677
4204.6,0.08372
4198.81,0.08117
4193.03,0.07966
4187.24,0.07712
4181.45,0.07259
4175.67,0.06866
4169.88,0.06763
4164.1,0.07446
4158.31,0.09037
4152.52,0.11165
4146.74,0.12777
4140.95,0.13509
4135.17,0.13592
4129.38,0.13665
4123.59,0.12985
4117.81,0.11424
4112.02,0.09199
4106.23,0.06456
4100.45,0.03765
4094.66,0.01851
4088.88,0.00932
4083.09,0.00459
4077.3,0.00194
4071.52,0.00233
4065.73,0.00501
4059.95,0.01480
4054.16,0.03100
4048.37,0.05780
4042.59,0.09290
4036.8,0.12560
4031.02,0.13996
4025.23,0.13722
4019.44,0.13062
4013.66,0.12980
4007.87,0.13298
4002.08,0.13505
3996.3,0.13082
3990.51,0.12527
3984.73,0.12537
3978.94,0.13049
3973.15,0.14324
3967.37,0.16289
3961.58,0.17394
3955.8,0.16693
3950.01,0.15405
3944.22,0.15203
3938.44,0.15219
3932.65,0.14997
3926.86,0.15108
3921.08,0.14384
3915.29,0.13334
3909.51,0.12542
3903.72,0.11499
3897.93,0.11025
3892.15,0.10251
3886.36,0.09566
3880.58,0.09544
3874.79,0.11146
3869,0.14353
3863.22,0.17735
3857.43,0.20153
3851.64,0.22097
3845.86,0.24389
3840.07,0.24732
3834.29,0.26045
3828.5,0.26446
3822.71,0.25553
3816.93,0.25137
3811.14,0.25841
3805.36,0.25850
3799.57,0.27160
3793.78,0.30015
3788,0.31832
3782.21,0.32898
3776.42,0.33185
3770.64,0.31251
3764.85,0.28543
3759.07,0.25107
3753.28,0.22102
3747.49,0.20538
3741.71,0.21047
3735.92,0.21261
3730.14,0.23550
3724.35,0.23638
3718.56,0.22747
3712.78,0.19522
3706.99,0.15342
3701.2,0.11368
3695.42,0.07812
3689.63,0.04218
3683.85,0.01868
3678.06,0.00955
3672.27,0.00772
3666.49,0.01245
3660.7,0.02242
3654.92,0.04177
3649.13,0.06564
3643.34,0.10280
3637.56,0.13059
3631.77,0.14836
3625.98,0.17840
3620.2,0.20123
3614.41,0.21981
3608.63,0.21370
3602.84,0.17932
3597.05,0.12332
3591.27,0.07677
3585.48,0.04690
3579.7,0.03404
3573.91,0.02835
3568.12,0.02622
3562.34,0.02332
3556.55,0.01864
3550.76,0.01412
3544.98,0.00828
3539.19,0.00576
3533.41,0.00423
3527.62,0.00452
3521.83,0.00827
3516.05,0.01813
3510.26,0.03696
3504.48,0.06152
3498.69,0.08807
3492.9,0.10887
3487.12,0.12349
3481.33,0.13743
3475.55,0.15009
3469.76,0.16494
3463.97,0.18152
3458.19,0.20238
3452.4,0.22269
3446.61,0.23917
3440.83,0.25696
3435.04,0.27309
3429.26,0.28759
3423.47,0.29996
3417.68,0.30803
3411.9,0.31005
3406.11,0.30468
3400.33,0.29477
3394.54,0.27965
3388.75,0.26228
3382.97,0.24380
3377.18,0.23180
3371.39,0.22549
3365.61,0.22385
3359.82,0.22683
3354.04,0.23107
3348.25,0.23301
3342.46,0.23111
3336.68,0.22690
3330.89,0.21652
3325.11,0.20017
3319.32,0.18047
3313.53,0.16004
3307.75,0.14175
3301.96,0.12454
3296.17,0.11227
3290.39,0.10397
3284.6,0.09795
3278.82,0.09278
3273.03,0.08635
3267.24,0.08015
3261.46,0.07444
3255.67,0.06840
3249.89,0.06379
3244.1,0.05942
3238.31,0.05588
3232.53,0.05284
3226.74,0.04766
3220.95,0.04230
3215.17,0.03561
3209.38,0.02673
3203.6,0.01879
3197.81,0.01382
3192.02,0.01204
3186.24,0.01133
3180.45,0.01044
3174.67,0.01121
3168.88,0.01218
3163.09,0.01173
3157.31,0.00982
3151.52,0.00815
3145.73,0.00555
3139.95,0.00322
3134.16,0.00106
3128.38,0.00063
3122.59,0.00065
3116.8,0.00030
3111.02,0.00061
3105.23,0.00064
3099.45,0.00079
3093.66,0.00038
3087.87,0.00056
3082.09,0.00012
3076.3,0.00027
3070.51,0.00085
3064.73,0.00038
3058.94,0.00055
3053.16,0.00026
3047.37,0.00059
3041.58,0.00057
3035.8,0.00020
3030.01,0.00037
3024.23,0.00038
3018.44,0.00025
3012.65,0.00039
3006.87,0.00057
3001.08,0.00035
2995.29,0.00024
2989.51,0.00023
2983.72,0.00017
2977.94,0.00059
2972.15,0.00006
2966.36,0.00041
2960.58,0.00033
2954.79,0.00062
2949.01,0.00046
2943.22,0.00039
2937.43,0.00024
2931.65,0.00012
2925.86,0.00048
2920.08,0.00050
2914.29,0.00043
2908.5,0.00025
2902.72,0.00049
2896.93,0.00078
2891.14,0.00074
2885.36,0.00026
2879.57,0.00023
2873.79,0.00040
2868,0.00031
2862.21,-0.00008
2856.43,0.00064
2850.64,0.00034
2844.86,0.00160
2839.07,0.00680
2833.28,0.01191
2827.5,0.01403
2821.71,0.01618
2815.92,0.01304
2810.14,0.01017
2804.35,0.01231
2798.57,0.01917
2792.78,0.01742
2786.99,0.01019
2781.21,0.00606
2775.42,0.00688
2769.64,0.01476
2763.85,0.02630
2758.06,0.04447
2752.28,0.06690
2746.49,0.07652
2740.7,0.07090
2734.92,0.05466
2729.13,0.05010
2723.35,0.05154
2717.56,0.04071
2711.77,0.04809
2705.99,0.07355
2700.2,0.09787
2694.42,0.11658
2688.63,0.12998
2682.84,0.13501
2677.06,0.12957
2671.27,0.12068
2665.48,0.12166
2659.7,0.13221
2653.91,0.15232
2648.13,0.17583
2642.34,0.18823
2636.55,0.18186
2630.77,0.15482
2624.98,0.11186
2619.2,0.07198
2613.41,0.05497
2607.62,0.05087
2601.84,0.04940
2596.05,0.04834
2590.26,0.04721
2584.48,0.05162
2578.69,0.06053
2572.91,0.07162
2567.12,0.09347
2561.33,0.11041
2555.55,0.10834
2549.76,0.09638
2543.98,0.08306
2538.19,0.06757
2532.4,0.05418
2526.62,0.05483
2520.83,0.06290
2515.04,0.05930
2509.26,0.04810
2503.47,0.03824
2497.69,0.02687
2491.9,0.01567
2486.11,0.00927
2480.33,0.00662
2474.54,0.00465
2468.76,0.00370
2462.97,0.00396
2457.18,0.00416
2451.4,0.00434
2445.61,0.00436
2439.82,0.00514
2434.04,0.00431
2428.25,0.00343
2422.47,0.00187
2416.68,0.00084
2410.89,0.00095
2405.11,0.00110
2399.32,0.00135
2393.54,0.00180
2387.75,0.00316
2381.96,0.00589
2376.18,0.01005
2370.39,0.01408
2364.61,0.01890
2358.82,0.02254
2353.03,0.02668
2347.25,0.02567
2341.46,0.01942
2335.67,0.01716
2329.89,0.01353
2324.1,0.01174
2318.32,0.01440
2312.53,0.01780
2306.74,0.01798
2300.96,0.01571
2295.17,0.01360
2289.39,0.01221
2283.6,0.00764
2277.81,0.00504
2272.03,0.00306
2266.24,0.00106
2260.45,0.00044
2254.67,0.00046
2248.88,0.00036
2243.1,0.00009
2237.31,0.00032
2231.52,0.00045
2225.74,0.00003
2219.95,0.00055
2214.17,0.00031
2208.38,0.00015
2202.59,0.00011
2196.81,0.00030
2191.02,0.00036
2185.23,0.00136
2179.45,0.00411
2173.66,0.00647
2167.88,0.00890
2162.09,0.01977
2156.3,0.03834
2150.52,0.05280
2144.73,0.05393
2138.95,0.04481
2133.16,0.03269
2127.37,0.02233
2121.59,0.01452
2115.8,0.01034
2110.01,0.00744
2104.23,0.00533
2098.44,0.00294
2092.66,0.00119
2086.87,0.00032
2081.08,0.00049
2075.3,-0.00005
2069.51,0.00051
2063.73,0.00049
2057.94,0.00032
2052.15,0.00011
2046.37,0.00023
2040.58,0.00019
2034.79,0.00048
2029.01,0.00051
2023.22,0.00033
2017.44,0.00060
2011.65,0.00021
2005.86,0.00018
2000.08,0.00039
1994.29,0.00015
1988.51,0.00058
1982.72,0.00112
1976.93,0.00239
1971.15,0.00394
1965.36,0.00370
1959.57,0.00281
1953.79,0.00208
1948,0.00134
1942.22,0.00112
1936.43,0.00091
1930.64,0.00050
1924.86,0.00006
1919.07,0.00028
1913.29,0.00014
1907.5,0.00029
1901.71,0.00003
1895.93,0.00011
1890.14,0.00022
1884.35,0.00023
1878.57,0.00027
1872.78,0.00037
1867,0.00044
1861.21,0.00021
1855.42,0.00027
1849.64,0.00031
1843.85,0.00037
1838.07,0.00028
1832.28,0.00020
1826.49,0.00021
1820.71,0.00023
1814.92,0.00017
1809.13,0.00032
1803.35,0.00008
1797.56,0.00043
1791.78,0.00026
1785.99,0.00023
1780.2,0.00029
1774.42,0.00028
1768.63,0.00021
1762.85,0.00018
1757.06,0.00031
1751.27,0.00049
1745.49,0.00041
1739.7,0.00049
1733.92,0.00071
1728.13,0.00028
1722.34,0.00026
1716.56,0.00044
1710.77,0.00021
1704.98,0.00072
1699.2,0.00127
1693.41,0.00035
1687.63,0.00035
1681.84,0.00015
1676.05,0.00041
1670.27,0.00040
1664.48,0.00046
1658.7,0.00030
1652.91,0.00037
1647.12,0.00031
1641.34,0.00023
1635.55,0.00047
1629.76,0.00007
1623.98,0.00039
1618.19,0.00040
1612.41,0.00040
1606.62,0.00031
1600.83,0.00033
1595.05,0.00028
1589.26,0.00072
1583.48,0.00028
1577.69,0.00055
1571.9,0.00039
1566.12,0.00022
1560.33,0.00039
1554.54,0.00080
1548.76,0.00026
1542.97,0.00065
1537.19,0.00033
1531.4,0.00030
1525.61,0.00033
1519.83,0.00019
1514.04,0.00034
1508.26,0.00065
1502.47,0.00001
1496.68,0.00043
1490.9,0.00035
1485.11,0.00020
1479.32,0.00014
1473.54,0.00055
1467.75,0.00043
1461.97,0.00058
1456.18,0.00037
1450.39,0.00054
1444.61,0.00052
1438.82,0.00047
1433.04,0.00014
1427.25,0.00043
1421.46,0.00019
1415.68,0.00033
1409.89,0.00041
1404.1,0.00034
1398.32,0.00058
1392.53,0.00033
1386.75,0.00026
1380.96,0.00009
1375.17,0.00049
1369.39,0.00022
1363.6,0.00022
1357.82,0.00037
1352.03,0.00025
1346.24,0.00026
1340.46,0.00048
1334.67,0.00060
1328.88,0.00037
1323.1,0.00032
1317.31,0.00052
1311.53,0.00025
1305.74,0.00049
1299.95,0.00032
1294.17,0.00027
1288.38,0.00029
1282.6,0.00012
1276.81,0.00009
1271.02,0.00041
1265.24,0.00047
1259.45,0.00046
1253.66,0.00024
1247.88,0.00030
1242.09,0.00020
1236.31,0.00023
1230.52,0.00028
1224.73,0.00055
1218.95,0.00014
1213.16,0.00019
1207.38,0.00037
1201.59,0.00031
1195.8,0.00073
1190.02,0.00013
1184.23,0.00020
1178.45,0.00037
1172.66,0.00094
1166.87,0.00052
1161.09,0.00069
1155.3,0.00048
1149.51,0.00058
1143.73,0.00023
1137.94,0.00051
1132.16,0.00050
1126.37,0.00080
1120.58,0.00042
1114.8,0.00072
1109.01,0.00037
1103.23,0.00064
1097.44,0.00076
1091.65,0.00036
1085.87,0.00047
1080.08,0.00078
1074.29,0.00038
1068.51,0.00018
1062.72,0.00000
1056.94,0.00063
1051.15,0.00061
1045.36,0.00120
1039.58,0.00003
1033.79,0.00057
1028.01,0.00052
1022.22,0.00087
1016.43,0.00041
1010.65,0.00099
1004.86,0.00059
999.075,0.00023
993.288,0.00041
987.502,0.00039
981.716,0.00058
975.93,0.00043
970.144,0.00029
964.358,0.00044
958.572,0.00042
952.785,0.00039
946.999,0.00057
941.213,0.00045
935.427,0.00050
929.641,0.00092
923.855,0.00035
918.068,0.00055
912.282,0.00079
906.496,0.00037
900.71,0.00015
894.924,0.00052
889.138,0.00050
883.352,0.00064
877.565,0.00062
871.779,0.00102
865.993,0.00041
860.207,0.00030
854.421,0.00032
848.635,0.00087
842.849,0.00097
837.062,0.00082
831.276,0.00105
825.49,0.00053
819.704,0.00068
813.918,0.00060
808.132,0.00060
802.346,0.00137
796.559,0.00112
790.773,0.00067
784.987,-0.00008
779.201,0.00064
773.415,0.00080
767.629,0.00101
761.843,0.00093
756.056,0.00003
750.27,0.00073
744.484,0.00066
738.698,0.00075
732.912,0.00105
727.126,0.00100
721.34,0.00106
715.553,0.00082
709.767,0.00064
703.981,0.00039
698.195,0.00112
692.409,0.00070
686.623,0.00131
680.837,0.00100
675.05,0.00161
669.264,0.00228
663.478,0.00578
657.692,0.00542
651.906,0.00692
646.12,0.00420
640.333,0.00206
634.547,0.00199
628.761,0.00014
622.975,0.00131
617.189,0.00209
611.403,0.00187
605.617,0.00289
599.83,0.00306