File: 01_Data/PC/FTIR/IS/PC_1.52_S_IS_230516_R2.dpt
7496.92,0.07538
7491.13,0.08730
7485.34,0.07608
7479.56,0.03469
7473.77,0.09103
7467.99,0.09704
7462.2,0.10899
7456.41,0.06010
7450.63,0.04474
7444.84,0.07897
7439.06,0.08619
7433.27,0.08626
7427.48,0.09983
7421.7,0.08830
7415.91,0.08381
7410.12,0.08613
7404.34,0.08454
7398.55,0.07933
7392.77,0.08929
7386.98,0.07100
7381.19,0.05607
7375.41,0.06634
7369.62,0.05811
7363.84,0.06794
7358.05,0.10711
7352.26,0.08857
7346.48,0.08289
7340.69,0.10437
7334.9,0.08390
7329.12,0.10351
7323.33,0.06870
7317.55,0.06486
7311.76,0.10452
7305.97,0.09332
7300.19,0.07388
7294.4,0.08273
7288.62,0.07992
7282.83,0.08417
7277.04,0.10166
7271.26,0.08193
7265.47,0.04133
7259.68,0.08015
7253.9,0.08474
7248.11,0.08793
7242.33,0.07334
7236.54,0.10267
7230.75,0.11921
7224.97,0.12237
7219.18,0.08372
7213.4,0.11062
7207.61,0.09391
7201.82,0.09875
7196.04,0.08817
7190.25,0.07755
7184.46,0.08131
7178.68,0.08852
7172.89,0.11134
7167.11,0.08708
7161.32,0.07768
7155.53,0.08083
7149.75,0.07799
7143.96,0.06988
7138.18,0.07229
7132.39,0.06986
7126.6,0.07568
7120.82,0.07229
7115.03,0.07984
7109.24,0.08959
7103.46,0.10278
7097.67,0.10050
7091.89,0.09183
7086.1,0.08577
7080.31,0.08619
7074.53,0.11102
7068.74,0.11036
7062.96,0.08504
7057.17,0.07091
7051.38,0.09245
7045.6,0.10340
7039.81,0.09748
7034.02,0.09073
7028.24,0.09142
7022.45,0.07132
7016.67,0.09772
7010.88,0.08615
7005.09,0.09493
6999.31,0.10620
6993.52,0.09829
6987.74,0.11177
6981.95,0.08620
6976.16,0.07014
6970.38,0.10822
6964.59,0.09347
6958.8,0.07939
6953.02,0.07904
6947.23,0.10322
6941.45,0.09990
6935.66,0.10370
6929.87,0.09219
6924.09,0.10232
6918.3,0.10262
6912.52,0.10538
6906.73,0.10965
6900.94,0.09701
6895.16,0.08290
6889.37,0.10554
6883.59,0.10482
6877.8,0.10845
6872.01,0.09538
6866.23,0.09754
6860.44,0.10850
6854.65,0.11259
6848.87,0.09442
6843.08,0.10095
6837.3,0.09864
6831.51,0.09731
6825.72,0.09948
6819.94,0.09570
6814.15,0.10130
6808.37,0.10674
6802.58,0.10895
6796.79,0.10632
6791.01,0.10293
6785.22,0.10558
6779.43,0.10759
6773.65,0.10247
6767.86,0.09549
6762.08,0.08514
6756.29,0.09642
6750.5,0.10777
6744.72,0.11393
6738.93,0.09553
6733.15,0.10370
6727.36,0.10963
6721.57,0.11253
6715.79,0.10335
6710,0.09975
6704.21,0.10440
6698.43,0.11448
6692.64,0.10097
6686.86,0.09027
6681.07,0.09715
6675.28,0.09557
6669.5,0.10165
6663.71,0.10840
6657.93,0.10800
6652.14,0.11395
6646.35,0.10905
6640.57,0.11696
6634.78,0.09948
6628.99,0.10945
6623.21,0.10499
6617.42,0.10721
6611.64,0.11686
6605.85,0.11618
6600.06,0.10550
6594.28,0.10389
6588.49,0.11197
6582.71,0.10258
6576.92,0.11509
6571.13,0.10817
6565.35,0.10290
6559.56,0.11022
6553.77,0.11206
6547.99,0.11258
6542.2,0.10942
6536.42,0.10851
6530.63,0.10402
6524.84,0.11170
6519.06,0.10985
6513.27,0.10629
6507.49,0.10443
6501.7,0.11655
6495.91,0.11996
6490.13,0.10687
6484.34,0.11350
6478.55,0.11021
6472.77,0.10078
6466.98,0.11073
6461.2,0.11952
6455.41,0.11283
6449.62,0.11059
6443.84,0.10411
6438.05,0.10364
6432.27,0.10031
6426.48,0.11301
6420.69,0.10834
6414.91,0.11190
6409.12,0.11322
6403.33,0.11376
6397.55,0.11608
6391.76,0.11656
6385.98,0.10903
6380.19,0.10464
6374.4,0.11145
6368.62,0.11532
6362.83,0.11317
6357.05,0.10582
6351.26,0.11475
6345.47,0.12228
6339.69,0.10955
6333.9,0.11697
6328.12,0.10496
6322.33,0.11086
6316.54,0.10597
6310.76,0.11587
6304.97,0.10967
6299.18,0.11266
6293.4,0.11348
6287.61,0.11797
6281.83,0.11713
6276.04,0.11154
6270.25,0.11357
6264.47,0.10873
6258.68,0.11058
6252.9,0.11009
6247.11,0.11030
6241.32,0.11274
6235.54,0.11199
6229.75,0.11222
6223.96,0.10410
6218.18,0.10138
6212.39,0.10887
6206.61,0.10416
6200.82,0.10561
6195.03,0.10506
6189.25,0.09651
6183.46,0.09711
6177.68,0.10090
6171.89,0.09794
6166.1,0.09795
6160.32,0.09446
6154.53,0.10033
6148.74,0.09957
6142.96,0.09601
6137.17,0.08929
6131.39,0.09224
6125.6,0.09107
6119.81,0.09161
6114.03,0.09429
6108.24,0.08543
6102.46,0.08446
6096.67,0.07702
6090.88,0.07211
6085.1,0.07189
6079.31,0.07181
6073.52,0.06889
6067.74,0.06784
6061.95,0.06662
6056.17,0.06586
6050.38,0.06304
6044.59,0.05325
6038.81,0.06038
6033.02,0.04589
6027.24,0.04845
6021.45,0.05105
6015.66,0.04517
6009.88,0.03997
6004.09,0.04337
5998.3,0.04136
5992.52,0.03955
5986.73,0.04561
5980.95,0.04003
5975.16,0.04764
5969.37,0.05392
5963.59,0.05231
5957.8,0.05278
5952.02,0.06077
5946.23,0.05276
5940.44,0.05028
5934.66,0.05439
5928.87,0.04902
5923.08,0.04930
5917.3,0.05114
5911.51,0.05304
5905.73,0.05815
5899.94,0.05651
5894.15,0.05486
5888.37,0.06240
5882.58,0.05729
5876.8,0.06813
5871.01,0.07292
5865.22,0.07129
5859.44,0.07215
5853.65,0.07784
5847.86,0.08220
5842.08,0.08258
5836.29,0.08939
5830.51,0.08399
5824.72,0.08207
5818.93,0.08247
5813.15,0.08449
5807.36,0.08353
5801.58,0.08132
5795.79,0.08324
5790,0.08014
5784.22,0.07983
5778.43,0.07940
5772.65,0.07634
5766.86,0.07509
5761.07,0.07538
5755.29,0.07746
5749.5,0.07954
5743.71,0.08483
5737.93,0.08474
5732.14,0.09087
5726.36,0.09257
5720.57,0.09591
5714.78,0.10297
5709,0.09667
5703.21,0.10244
5697.43,0.10123
5691.64,0.10399
5685.85,0.10033
5680.07,0.09901
5674.28,0.09836
5668.49,0.09878
5662.71,0.09715
5656.92,0.09542
5651.14,0.09507
5645.35,0.10228
5639.56,0.09872
5633.78,0.09878
5627.99,0.10637
5622.21,0.10855
5616.42,0.11277
5610.63,0.11153
5604.85,0.11001
5599.06,0.11398
5593.27,0.11253
5587.49,0.10857
5581.7,0.11160
5575.92,0.11131
5570.13,0.10883
5564.34,0.10916
5558.56,0.11024
5552.77,0.10784
5546.99,0.10965
5541.2,0.11098
5535.41,0.10975
5529.63,0.10790
5523.84,0.11250
5518.05,0.11379
5512.27,0.10986
5506.48,0.11074
5500.7,0.11006
5494.91,0.10713
5489.12,0.11337
5483.34,0.10780
5477.55,0.11000
5471.77,0.11024
5465.98,0.10888
5460.19,0.10925
5454.41,0.11373
5448.62,0.11209
5442.83,0.11226
5437.05,0.11366
5431.26,0.11549
5425.48,0.11528
5419.69,0.11358
5413.9,0.11302
5408.12,0.11377
5402.33,0.11300
5396.55,0.11301
5390.76,0.11511
5384.97,0.11607
5379.19,0.11576
5373.4,0.11547
5367.61,0.11679
5361.83,0.11319
5356.04,0.11483
5350.26,0.11523
5344.47,0.11276
5338.68,0.11240
5332.9,0.11435
5327.11,0.11599
5321.33,0.11554
5315.54,0.11470
5309.75,0.11362
5303.97,0.11589
5298.18,0.11221
5292.39,0.11226
5286.61,0.10953
5280.82,0.10673
5275.04,0.10191
5269.25,0.10111
5263.46,0.09596
5257.68,0.10133
5251.89,0.10520
5246.11,0.10732
5240.32,0.11244
5234.53,0.11395
5228.75,0.11873
5222.96,0.11754
5217.18,0.11776
5211.39,0.11984
5205.6,0.11893
5199.82,0.11995
5194.03,0.11969
5188.24,0.11949
5182.46,0.11849
5176.67,0.12065
5170.89,0.11803
5165.1,0.12029
5159.31,0.12269
5153.53,0.12150
5147.74,0.12337
5141.96,0.12390
5136.17,0.12502
5130.38,0.12510
5124.6,0.12404
5118.81,0.12588
5113.02,0.12425
5107.24,0.12424
5101.45,0.12658
5095.67,0.12372
5089.88,0.12466
5084.09,0.12424
5078.31,0.12794
5072.52,0.12453
5066.74,0.12450
5060.95,0.12511
5055.16,0.12393
5049.38,0.12491
5043.59,0.12683
5037.8,0.12776
5032.02,0.12380
5026.23,0.12342
5020.45,0.12637
5014.66,0.12588
5008.87,0.12405
5003.09,0.12311
4997.3,0.12441
4991.52,0.12361
4985.73,0.12206
4979.94,0.12168
4974.16,0.12128
4968.37,0.12210
4962.58,0.12243
4956.8,0.12129
4951.01,0.12296
4945.23,0.12154
4939.44,0.12398
4933.65,0.12213
4927.87,0.12106
4922.08,0.11977
4916.3,0.11763
4910.51,0.11576
4904.72,0.11496
4898.94,0.11339
4893.15,0.11151
4887.36,0.11212
4881.58,0.11245
4875.79,0.11058
4870.01,0.10869
4864.22,0.10794
4858.43,0.10768
4852.65,0.10404
4846.86,0.10413
4841.08,0.10323
4835.29,0.10410
4829.5,0.10736
4823.72,0.10673
4817.93,0.10941
4812.14,0.10966
4806.36,0.10952
4800.57,0.10964
4794.79,0.10841
4789,0.10727
4783.21,0.10631
4777.43,0.10462
4771.64,0.10383
4765.86,0.10049
4760.07,0.09983
4754.28,0.09556
4748.5,0.09444
4742.71,0.09038
4736.92,0.08406
4731.14,0.08047
4725.35,0.07721
4719.57,0.07068
4713.78,0.06530
4707.99,0.06088
4702.21,0.05604
4696.42,0.05713
4690.64,0.05452
4684.85,0.05614
4679.06,0.05404
4673.28,0.05282
4667.49,0.05569
4661.7,0.05584
4655.92,0.05747
4650.13,0.05725
4644.35,0.05554
4638.56,0.05420
4632.77,0.05537
4626.99,0.05630
4621.2,0.05858
4615.42,0.06417
4609.63,0.06800
4603.84,0.06962
4598.06,0.07206
4592.27,0.06879
4586.49,0.06749
4580.7,0.06548
4574.91,0.06348
4569.13,0.06472
4563.34,0.06974
4557.55,0.07554
4551.77,0.08137
4545.98,0.08274
4540.2,0.08282
4534.41,0.08271
4528.62,0.08345
4522.84,0.08454
4517.05,0.08315
4511.27,0.08274
4505.48,0.08222
4499.69,0.08053
4493.91,0.07682
4488.12,0.07380
4482.33,0.07190
4476.55,0.07141
4470.76,0.07179
4464.98,0.07103
4459.19,0.07157
4453.4,0.06899
4447.62,0.06596
4441.83,0.06236
4436.05,0.06055
4430.26,0.05879
4424.47,0.05715
4418.69,0.05603
4412.9,0.05488
4407.11,0.05530
4401.33,0.05634
4395.54,0.05577
4389.76,0.05620
4383.97,0.05612
4378.18,0.05563
4372.4,0.05487
4366.61,0.05533
4360.83,0.05585
4355.04,0.05550
4349.25,0.05551
4343.47,0.05568
4337.68,0.05582
4331.89,0.05519
4326.11,0.05567
4320.32,0.05557
4314.54,0.05487
4308.75,0.05570
4302.96,0.05601
4297.18,0.05702
4291.39,0.05707
4285.61,0.05620
4279.82,0.05579
4274.03,0.05645
4268.25,0.05681
4262.46,0.05716
4256.67,0.05755
4250.89,0.05723
4245.1,0.05771
4239.32,0.05773
4233.53,0.05712
4227.74,0.05781
4221.96,0.05738
4216.17,0.05699
4210.39,0.05648
4204.6,0.05817
4198.81,0.05683
4193.03,0.05723
4187.24,0.05752
4181.45,0.05672
4175.67,0.05638
4169.88,0.05660
4164.1,0.05755
4158.31,0.05818
4152.52,0.05680
4146.74,0.05821
4140.95,0.05817
4135.17,0.05901
4129.38,0.05827
4123.59,0.05825
4117.81,0.05807
4112.02,0.05758
4106.23,0.05805
4100.45,0.05759
4094.66,0.05662
4088.88,0.05692
4083.09,0.05697
4077.3,0.05651
4071.52,0.05698
4065.73,0.05681
4059.95,0.05604
4054.16,0.05612
4048.37,0.05708
4042.59,0.05844
4036.8,0.05841
4031.02,0.05992
4025.23,0.05988
4019.44,0.05992
4013.66,0.05978
4007.87,0.05925
4002.08,0.06009
3996.3,0.05913
3990.51,0.05956
3984.73,0.05969
3978.94,0.05936
3973.15,0.06031
3967.37,0.06034
3961.58,0.06133
3955.8,0.06071
3950.01,0.05926
3944.22,0.06028
3938.44,0.06052
3932.65,0.05995
3926.86,0.06034
3921.08,0.06010
3915.29,0.05922
3909.51,0.05997
3903.72,0.05887
3897.93,0.05888
3892.15,0.05841
3886.36,0.05813
3880.58,0.06008
3874.79,0.05917
3869,0.06057
3863.22,0.06246
3857.43,0.06419
3851.64,0.06447
3845.86,0.06643
3840.07,0.06719
3834.29,0.06772
3828.5,0.06881
3822.71,0.06775
3816.93,0.06791
3811.14,0.06715
3805.36,0.06807
3799.57,0.06870
3793.78,0.07094
3788,0.07198
3782.21,0.07384
3776.42,0.07430
3770.64,0.07309
3764.85,0.06989
3759.07,0.06720
3753.28,0.06635
3747.49,0.06493
3741.71,0.06556
3735.92,0.06608
3730.14,0.06745
3724.35,0.06732
3718.56,0.06579
3712.78,0.06341
3706.99,0.06194
3701.2,0.06054
3695.42,0.05834
3689.63,0.05936
3683.85,0.05809
3678.06,0.05755
3672.27,0.05894
3666.49,0.05854
3660.7,0.05818
3654.92,0.05968
3649.13,0.05778
3643.34,0.05929
3637.56,0.06039
3631.77,0.06108
3625.98,0.06282
3620.2,0.06340
3614.41,0.06533
3608.63,0.06508
3602.84,0.06249
3597.05,0.06043
3591.27,0.05871
3585.48,0.05843
3579.7,0.05724
3573.91,0.05721
3568.12,0.05733
3562.34,0.05773
3556.55,0.05799
3550.76,0.05809
3544.98,0.05704
3539.19,0.05771
3533.41,0.05810
3527.62,0.05779
3521.83,0.05848
3516.05,0.05690
3510.26,0.05746
3504.48,0.05836
3498.69,0.05835
3492.9,0.06079
3487.12,0.06130
3481.33,0.06003
3475.55,0.06113
3469.76,0.06120
3463.97,0.06211
3458.19,0.06259
3452.4,0.06372
3446.61,0.06533
3440.83,0.06694
3435.04,0.06756
3429.26,0.06948
3423.47,0.06962
3417.68,0.07077
3411.9,0.07052
3406.11,0.07003
3400.33,0.06961
3394.54,0.06823
3388.75,0.06650
3382.97,0.06592
3377.18,0.06504
3371.39,0.06497
3365.61,0.06511
3359.82,0.06473
3354.04,0.06546
3348.25,0.06537
3342.46,0.06476
3336.68,0.06531
3330.89,0.06472
3325.11,0.06281
3319.32,0.06194
3313.53,0.06182
3307.75,0.06099
3301.96,0.06017
3296.17,0.06069
3290.39,0.05980
3284.6,0.05946
3278.82,0.05910
3273.03,0.05911
3267.24,0.05847
3261.46,0.05853
3255.67,0.05755
3249.89,0.05859
3244.1,0.05858
3238.31,0.05899
3232.53,0.05865
3226.74,0.05942
3220.95,0.05791
3215.17,0.05872
3209.38,0.05837
3203.6,0.05950
3197.81,0.05901
3192.02,0.05904
3186.24,0.05876
3180.45,0.05875
3174.67,0.05875
3168.88,0.05970
3163.09,0.05923
3157.31,0.05834
3151.52,0.05836
3145.73,0.05826
3139.95,0.05872
3134.16,0.05828
3128.38,0.05859
3122.59,0.05867
3116.8,0.05827
3111.02,0.05938
3105.23,0.05774
3099.45,0.05825
3093.66,0.05782
3087.87,0.05823
3082.09,0.05740
3076.3,0.05796
3070.51,0.05815
3064.73,0.05794
3058.94,0.05847
3053.16,0.05849
3047.37,0.05823
3041.58,0.05936
3035.8,0.05947
3030.01,0.05988
3024.23,0.05914
3018.44,0.05894
3012.65,0.05896
3006.87,0.05784
3001.08,0.05823
2995.29,0.05819
2989.51,0.05767
2983.72,0.05716
2977.94,0.05795
2972.15,0.05922
2966.36,0.06132
2960.58,0.06100
2954.79,0.06131
2949.01,0.06033
2943.22,0.05999
2937.43,0.05981
2931.65,0.06135
2925.86,0.06024
2920.08,0.06144
2914.29,0.06114
2908.5,0.06061
2902.72,0.06056
2896.93,0.06042
2891.14,0.06027
2885.36,0.06044
2879.57,0.06048
2873.79,0.06063
2868,0.06119
2862.21,0.06142
2856.43,0.06143
2850.64,0.06112
2844.86,0.06133
2839.07,0.06101
2833.28,0.06087
2827.5,0.06031
2821.71,0.06075
2815.92,0.06120
2810.14,0.06097
2804.35,0.06086
2798.57,0.06090
2792.78,0.06075
2786.99,0.06008
2781.21,0.06016
2775.42,0.06058
2769.64,0.06072
2763.85,0.06106
2758.06,0.06107
2752.28,0.06121
2746.49,0.06166
2740.7,0.06181
2734.92,0.06093
2729.13,0.06091
2723.35,0.06140
2717.56,0.06125
2711.77,0.06088
2705.99,0.06134
2700.2,0.06224
2694.42,0.06376
2688.63,0.06403
2682.84,0.06423
2677.06,0.06386
2671.27,0.06315
2665.48,0.06314
2659.7,0.06444
2653.91,0.06563
2648.13,0.06751
2642.34,0.06775
2636.55,0.06701
2630.77,0.06578
2624.98,0.06314
2619.2,0.06122
2613.41,0.06123
2607.62,0.06147
2601.84,0.06104
2596.05,0.06107
2590.26,0.06106
2584.48,0.06111
2578.69,0.06193
2572.91,0.06171
2567.12,0.06227
2561.33,0.06319
2555.55,0.06348
2549.76,0.06273
2543.98,0.06209
2538.19,0.06152
2532.4,0.06166
2526.62,0.06162
2520.83,0.06134
2515.04,0.06208
2509.26,0.06170
2503.47,0.06094
2497.69,0.06061
2491.9,0.06054
2486.11,0.06070
2480.33,0.06070
2474.54,0.06071
2468.76,0.06065
2462.97,0.06095
2457.18,0.06076
2451.4,0.06116
2445.61,0.06137
2439.82,0.06077
2434.04,0.06102
2428.25,0.06078
2422.47,0.06101
2416.68,0.06073
2410.89,0.06095
2405.11,0.06122
2399.32,0.06107
2393.54,0.06152
2387.75,0.06105
2381.96,0.06110
2376.18,0.06192
2370.39,0.06170
2364.61,0.06141
2358.82,0.06109
2353.03,0.06156
2347.25,0.06190
2341.46,0.06118
2335.67,0.06170
2329.89,0.06125
2324.1,0.06143
2318.32,0.06129
2312.53,0.06107
2306.74,0.06092
2300.96,0.06113
2295.17,0.06128
2289.39,0.06136
2283.6,0.06128
2277.81,0.06091
2272.03,0.06077
2266.24,0.06077
2260.45,0.06090
2254.67,0.06079
2248.88,0.06087
2243.1,0.06042
2237.31,0.06092
2231.52,0.06058
2225.74,0.06078
2219.95,0.06106
2214.17,0.06065
2208.38,0.06103
2202.59,0.06089
2196.81,0.06092
2191.02,0.06110
2185.23,0.06076
2179.45,0.06089
2173.66,0.06078
2167.88,0.06078
2162.09,0.06103
2156.3,0.06116
2150.52,0.06128
2144.73,0.06148
2138.95,0.06095
2133.16,0.06062
2127.37,0.06088
2121.59,0.06038
2115.8,0.06050
2110.01,0.06048
2104.23,0.06034
2098.44,0.06051
2092.66,0.06058
2086.87,0.06010
2081.08,0.06048
2075.3,0.06042
2069.51,0.06015
2063.73,0.06004
2057.94,0.06005
2052.15,0.05995
2046.37,0.06017
2040.58,0.06012
2034.79,0.06020
2029.01,0.06001
2023.22,0.06007
2017.44,0.06006
2011.65,0.06017
2005.86,0.05981
2000.08,0.05998
1994.29,0.05996
1988.51,0.05946
1982.72,0.05999
1976.93,0.05976
1971.15,0.05951
1965.36,0.05940
1959.57,0.05952
1953.79,0.05900
1948,0.05915
1942.22,0.05906
1936.43,0.05874
1930.64,0.05895
1924.86,0.05837
1919.07,0.05871
1913.29,0.05787
1907.5,0.05805
1901.71,0.05811
1895.93,0.05820
1890.14,0.05792
1884.35,0.05787
1878.57,0.05745
1872.78,0.05761
1867,0.05726
1861.21,0.05679
1855.42,0.05659
1849.64,0.05619
1843.85,0.05515
1838.07,0.05472
1832.28,0.05457
1826.49,0.05325
1820.71,0.05239
1814.92,0.05121
1809.13,0.04905
1803.35,0.04652
1797.56,0.04359
1791.78,0.04245
1785.99,0.04741
1780.2,0.06015
1774.42,0.07525
1768.63,0.08747
1762.85,0.08577
1757.06,0.07934
1751.27,0.07471
1745.49,0.07111
1739.7,0.06904
1733.92,0.06744
1728.13,0.06654
1722.34,0.06579
1716.56,0.06551
1710.77,0.06433
1704.98,0.06326
1699.2,0.06297
1693.41,0.06176
1687.63,0.06214
1681.84,0.06109
1676.05,0.06057
1670.27,0.06023
1664.48,0.05995
1658.7,0.06004
1652.91,0.05986
1647.12,0.05889
1641.34,0.06013
1635.55,0.05936
1629.76,0.05907
1623.98,0.05908
1618.19,0.05823
1612.41,0.05759
1606.62,0.05741
1600.83,0.05836
1595.05,0.05817
1589.26,0.05910
1583.48,0.05824
1577.69,0.05771
1571.9,0.05723
1566.12,0.05665
1560.33,0.05569
1554.54,0.05542
1548.76,0.05425
1542.97,0.05387
1537.19,0.05198
1531.4,0.05069
1525.61,0.04893
1519.83,0.04444
1514.04,0.04241
1508.26,0.05137
1502.47,0.07270
1496.68,0.07266
1490.9,0.06925
1485.11,0.06527
1479.32,0.06256
1473.54,0.06101
1467.75,0.06050
1461.97,0.06048
1456.18,0.06014
1450.39,0.05922
1444.61,0.05868
1438.82,0.05787
1433.04,0.05731
1427.25,0.05603
1421.46,0.05444
1415.68,0.05293
1409.89,0.05453
1404.1,0.05607
1398.32,0.05475
1392.53,0.05335
1386.75,0.05340
1380.96,0.05313
1375.17,0.05181
1369.39,0.04950
1363.6,0.05214
1357.82,0.05258
1352.03,0.05001
1346.24,0.04873
1340.46,0.04737
1334.67,0.04583
1328.88,0.04465
1323.1,0.04256
1317.31,0.04033
1311.53,0.03864
1305.74,0.03753
1299.95,0.03552
1294.17,0.03470
1288.38,0.03440
1282.6,0.03226
1276.81,0.02753
1271.02,0.02231
1265.24,0.02048
1259.45,0.03675
1253.66,0.07026
1247.88,0.09623
1242.09,0.10953
1236.31,0.12186
1230.52,0.13414
1224.73,0.14050
1218.95,0.13225
1213.16,0.10669
1207.38,0.07731
1201.59,0.09206
1195.8,0.14580
1190.02,0.16662
1184.23,0.14046
1178.45,0.11171
1172.66,0.08872
1166.87,0.11143
1161.09,0.15643
1155.3,0.13881
1149.51,0.12179
1143.73,0.11247
1137.94,0.10527
1132.16,0.09963
1126.37,0.09555
1120.58,0.09153
1114.8,0.08820
1109.01,0.08799
1103.23,0.08800
1097.44,0.08762
1091.65,0.08198
1085.87,0.07821
1080.08,0.09276
1074.29,0.09333
1068.51,0.08836
1062.72,0.08413
1056.94,0.08201
1051.15,0.08112
1045.36,0.07856
1039.58,0.07700
1033.79,0.07372
1028.01,0.07035
1022.22,0.06304
1016.43,0.07962
1010.65,0.09664
1004.86,0.09268
999.075,0.09011
993.288,0.08694
987.502,0.08494
981.716,0.08351
975.93,0.08125
970.144,0.08026
964.358,0.07973
958.572,0.07875
952.785,0.07866
946.999,0.07783
941.213,0.07725
935.427,0.07699
929.641,0.07619
923.855,0.07553
918.068,0.07529
912.282,0.07452
906.496,0.07312
900.71,0.07090
894.924,0.06934
889.138,0.07194
883.352,0.07456
877.565,0.07537
871.779,0.07312
865.993,0.07096
860.207,0.06845
854.421,0.06614
848.635,0.06594
842.849,0.06762
837.062,0.06920
831.276,0.07761
825.49,0.08407
819.704,0.08296
813.918,0.08420
808.132,0.08480
802.346,0.08251
796.559,0.07921
790.773,0.07726
784.987,0.07556
779.201,0.07429
773.415,0.07440
767.629,0.07755
761.843,0.08057
756.056,0.08057
750.27,0.08022
744.484,0.07888
738.698,0.07713
732.912,0.07739
727.126,0.07696
721.34,0.07662
715.553,0.07627
709.767,0.07601
703.981,0.07700
698.195,0.07825
692.409,0.07660
686.623,0.07676
680.837,0.07563
675.05,0.07488
669.264,0.07470
663.478,0.07440
657.692,0.07387
651.906,0.07368
646.12,0.07312
640.333,0.07169
634.547,0.06948
628.761,0.07216
622.975,0.06896
617.189,0.06823
611.403,0.07014
605.617,0.06950
599.83,0.06893