File: 01_Data/PC/FTIR/IS/PC_1.52_S_IS_230516_R3.dpt
7496.92,0.07957
7491.13,0.11495
7485.34,0.11463
7479.56,0.10283
7473.77,0.05616
7467.99,0.10319
7462.2,0.06678
7456.41,0.06498
7450.63,0.07121
7444.84,0.05848
7439.06,0.09076
7433.27,0.07044
7427.48,0.09948
7421.7,0.07384
7415.91,0.08631
7410.12,0.08344
7404.34,0.05209
7398.55,0.06064
7392.77,0.07550
7386.98,0.05473
7381.19,0.05715
7375.41,0.06260
7369.62,0.09329
7363.84,0.09447
7358.05,0.09306
7352.26,0.09830
7346.48,0.09042
7340.69,0.06242
7334.9,0.09360
7329.12,0.07646
7323.33,0.09662
7317.55,0.07041
7311.76,0.06986
7305.97,0.08343
7300.19,0.08447
7294.4,0.08957
7288.62,0.08572
7282.83,0.08524
7277.04,0.06865
7271.26,0.06206
7265.47,0.09033
7259.68,0.09941
7253.9,0.08197
7248.11,0.07402
7242.33,0.06684
7236.54,0.07477
7230.75,0.08508
7224.97,0.07293
7219.18,0.09430
7213.4,0.07807
7207.61,0.09849
7201.82,0.10019
7196.04,0.09494
7190.25,0.07041
7184.46,0.09290
7178.68,0.08674
7172.89,0.08201
7167.11,0.09901
7161.32,0.09540
7155.53,0.08155
7149.75,0.09012
7143.96,0.10089
7138.18,0.10132
7132.39,0.10289
7126.6,0.09243
7120.82,0.08857
7115.03,0.10705
7109.24,0.08418
7103.46,0.08795
7097.67,0.07486
7091.89,0.09441
7086.1,0.08939
7080.31,0.09670
7074.53,0.09254
7068.74,0.08861
7062.96,0.07572
7057.17,0.10456
7051.38,0.09450
7045.6,0.09560
7039.81,0.10711
7034.02,0.09233
7028.24,0.09748
7022.45,0.09046
7016.67,0.08626
7010.88,0.08270
7005.09,0.10910
6999.31,0.10272
6993.52,0.09989
6987.74,0.10871
6981.95,0.10198
6976.16,0.10022
6970.38,0.10584
6964.59,0.10184
6958.8,0.09421
6953.02,0.09359
6947.23,0.10401
6941.45,0.08054
6935.66,0.08972
6929.87,0.10638
6924.09,0.08260
6918.3,0.10308
6912.52,0.10361
6906.73,0.10300
6900.94,0.08404
6895.16,0.09229
6889.37,0.08593
6883.59,0.10986
6877.8,0.09421
6872.01,0.10933
6866.23,0.10554
6860.44,0.11179
6854.65,0.09920
6848.87,0.08868
6843.08,0.09653
6837.3,0.11053
6831.51,0.09166
6825.72,0.09655
6819.94,0.09417
6814.15,0.08557
6808.37,0.09728
6802.58,0.09541
6796.79,0.09734
6791.01,0.11458
6785.22,0.08252
6779.43,0.11102
6773.65,0.11144
6767.86,0.10184
6762.08,0.10340
6756.29,0.11184
6750.5,0.11251
6744.72,0.08358
6738.93,0.10026
6733.15,0.09335
6727.36,0.11552
6721.57,0.10035
6715.79,0.11972
6710,0.10668
6704.21,0.10275
6698.43,0.10715
6692.64,0.09693
6686.86,0.10437
6681.07,0.09490
6675.28,0.11424
6669.5,0.10642
6663.71,0.10646
6657.93,0.10146
6652.14,0.11961
6646.35,0.10776
6640.57,0.10785
6634.78,0.10116
6628.99,0.11084
6623.21,0.10304
6617.42,0.10461
6611.64,0.10823
6605.85,0.09952
6600.06,0.10382
6594.28,0.10740
6588.49,0.10617
6582.71,0.10276
6576.92,0.10522
6571.13,0.10963
6565.35,0.10257
6559.56,0.10959
6553.77,0.10429
6547.99,0.11217
6542.2,0.11848
6536.42,0.11079
6530.63,0.10725
6524.84,0.10408
6519.06,0.10541
6513.27,0.11100
6507.49,0.11521
6501.7,0.11197
6495.91,0.11224
6490.13,0.11301
6484.34,0.10991
6478.55,0.11493
6472.77,0.11482
6466.98,0.11020
6461.2,0.11543
6455.41,0.12051
6449.62,0.10857
6443.84,0.11375
6438.05,0.11963
6432.27,0.11876
6426.48,0.11482
6420.69,0.11372
6414.91,0.11362
6409.12,0.11243
6403.33,0.11597
6397.55,0.11477
6391.76,0.11526
6385.98,0.11676
6380.19,0.11496
6374.4,0.12020
6368.62,0.10508
6362.83,0.10853
6357.05,0.11277
6351.26,0.11488
6345.47,0.11091
6339.69,0.10616
6333.9,0.11982
6328.12,0.10731
6322.33,0.11406
6316.54,0.11825
6310.76,0.11522
6304.97,0.11946
6299.18,0.12450
6293.4,0.11317
6287.61,0.11434
6281.83,0.11381
6276.04,0.11705
6270.25,0.11755
6264.47,0.11895
6258.68,0.11044
6252.9,0.10938
6247.11,0.11229
6241.32,0.10826
6235.54,0.10886
6229.75,0.10241
6223.96,0.10894
6218.18,0.10939
6212.39,0.11114
6206.61,0.10726
6200.82,0.09943
6195.03,0.09978
6189.25,0.10228
6183.46,0.10307
6177.68,0.10192
6171.89,0.10475
6166.1,0.10011
6160.32,0.09605
6154.53,0.09758
6148.74,0.09806
6142.96,0.10282
6137.17,0.09405
6131.39,0.09260
6125.6,0.08919
6119.81,0.08471
6114.03,0.09214
6108.24,0.08860
6102.46,0.08254
6096.67,0.07956
6090.88,0.07631
6085.1,0.07115
6079.31,0.06600
6073.52,0.06575
6067.74,0.06344
6061.95,0.06134
6056.17,0.05918
6050.38,0.05913
6044.59,0.05938
6038.81,0.06069
6033.02,0.04944
6027.24,0.05251
6021.45,0.04777
6015.66,0.04448
6009.88,0.04222
6004.09,0.03981
5998.3,0.04274
5992.52,0.04026
5986.73,0.04244
5980.95,0.04256
5975.16,0.05064
5969.37,0.05117
5963.59,0.05950
5957.8,0.05318
5952.02,0.05159
5946.23,0.05040
5940.44,0.05080
5934.66,0.05340
5928.87,0.05140
5923.08,0.04669
5917.3,0.05069
5911.51,0.05969
5905.73,0.05687
5899.94,0.05407
5894.15,0.05701
5888.37,0.06438
5882.58,0.06062
5876.8,0.06001
5871.01,0.07693
5865.22,0.07711
5859.44,0.07533
5853.65,0.07902
5847.86,0.07556
5842.08,0.08130
5836.29,0.08272
5830.51,0.07907
5824.72,0.08193
5818.93,0.08066
5813.15,0.08463
5807.36,0.08504
5801.58,0.08476
5795.79,0.07581
5790,0.08647
5784.22,0.08147
5778.43,0.07809
5772.65,0.07567
5766.86,0.07300
5761.07,0.07631
5755.29,0.07343
5749.5,0.07602
5743.71,0.08160
5737.93,0.09137
5732.14,0.08922
5726.36,0.09425
5720.57,0.09531
5714.78,0.09742
5709,0.09815
5703.21,0.10036
5697.43,0.10225
5691.64,0.09728
5685.85,0.10328
5680.07,0.09840
5674.28,0.09504
5668.49,0.09846
5662.71,0.08965
5656.92,0.09272
5651.14,0.09735
5645.35,0.09533
5639.56,0.10134
5633.78,0.10257
5627.99,0.10362
5622.21,0.10587
5616.42,0.10750
5610.63,0.11197
5604.85,0.10785
5599.06,0.10951
5593.27,0.11032
5587.49,0.10910
5581.7,0.10993
5575.92,0.11118
5570.13,0.10914
5564.34,0.10898
5558.56,0.11144
5552.77,0.11107
5546.99,0.10914
5541.2,0.10717
5535.41,0.10989
5529.63,0.10634
5523.84,0.11136
5518.05,0.10979
5512.27,0.10951
5506.48,0.11082
5500.7,0.11092
5494.91,0.11239
5489.12,0.10912
5483.34,0.11105
5477.55,0.10693
5471.77,0.11217
5465.98,0.10885
5460.19,0.10939
5454.41,0.10749
5448.62,0.11053
5442.83,0.11163
5437.05,0.11347
5431.26,0.11418
5425.48,0.11128
5419.69,0.11374
5413.9,0.11527
5408.12,0.11413
5402.33,0.11102
5396.55,0.11278
5390.76,0.11153
5384.97,0.11191
5379.19,0.11511
5373.4,0.11624
5367.61,0.11561
5361.83,0.11425
5356.04,0.11430
5350.26,0.11470
5344.47,0.10976
5338.68,0.11459
5332.9,0.11080
5327.11,0.11132
5321.33,0.11389
5315.54,0.11547
5309.75,0.11307
5303.97,0.11297
5298.18,0.11134
5292.39,0.10976
5286.61,0.10846
5280.82,0.10668
5275.04,0.10022
5269.25,0.09715
5263.46,0.09835
5257.68,0.09886
5251.89,0.10353
5246.11,0.10459
5240.32,0.11050
5234.53,0.11129
5228.75,0.11600
5222.96,0.11334
5217.18,0.11720
5211.39,0.11842
5205.6,0.11602
5199.82,0.11709
5194.03,0.11939
5188.24,0.11941
5182.46,0.11885
5176.67,0.11674
5170.89,0.11989
5165.1,0.11942
5159.31,0.12077
5153.53,0.11902
5147.74,0.12147
5141.96,0.12200
5136.17,0.11929
5130.38,0.12093
5124.6,0.12281
5118.81,0.12583
5113.02,0.12336
5107.24,0.12289
5101.45,0.12175
5095.67,0.12434
5089.88,0.12441
5084.09,0.12199
5078.31,0.12182
5072.52,0.12278
5066.74,0.12127
5060.95,0.12515
5055.16,0.12303
5049.38,0.12658
5043.59,0.12330
5037.8,0.12457
5032.02,0.12596
5026.23,0.12340
5020.45,0.12303
5014.66,0.12305
5008.87,0.12246
5003.09,0.12406
4997.3,0.12298
4991.52,0.12197
4985.73,0.12324
4979.94,0.12016
4974.16,0.12166
4968.37,0.12218
4962.58,0.11969
4956.8,0.11993
4951.01,0.12068
4945.23,0.12315
4939.44,0.12137
4933.65,0.11863
4927.87,0.11977
4922.08,0.12038
4916.3,0.11644
4910.51,0.11354
4904.72,0.11361
4898.94,0.11248
4893.15,0.11120
4887.36,0.10912
4881.58,0.10834
4875.79,0.10960
4870.01,0.11066
4864.22,0.10793
4858.43,0.10439
4852.65,0.10364
4846.86,0.10331
4841.08,0.10394
4835.29,0.10275
4829.5,0.10489
4823.72,0.10662
4817.93,0.10595
4812.14,0.10599
4806.36,0.10719
4800.57,0.10956
4794.79,0.10743
4789,0.10667
4783.21,0.10410
4777.43,0.10301
4771.64,0.10274
4765.86,0.10080
4760.07,0.09784
4754.28,0.09579
4748.5,0.09125
4742.71,0.08970
4736.92,0.08459
4731.14,0.07947
4725.35,0.07594
4719.57,0.07056
4713.78,0.06683
4707.99,0.06029
4702.21,0.05735
4696.42,0.05626
4690.64,0.05585
4684.85,0.05435
4679.06,0.05288
4673.28,0.05464
4667.49,0.05681
4661.7,0.05768
4655.92,0.05736
4650.13,0.05644
4644.35,0.05667
4638.56,0.05440
4632.77,0.05343
4626.99,0.05504
4621.2,0.05885
4615.42,0.06205
4609.63,0.06759
4603.84,0.07077
4598.06,0.07103
4592.27,0.07043
4586.49,0.06660
4580.7,0.06432
4574.91,0.06420
4569.13,0.06550
4563.34,0.06965
4557.55,0.07618
4551.77,0.08096
4545.98,0.08272
4540.2,0.08286
4534.41,0.08357
4528.62,0.08342
4522.84,0.08410
4517.05,0.08353
4511.27,0.08372
4505.48,0.08261
4499.69,0.07873
4493.91,0.07630
4488.12,0.07334
4482.33,0.07076
4476.55,0.07124
4470.76,0.07064
4464.98,0.07023
4459.19,0.06898
4453.4,0.06635
4447.62,0.06296
4441.83,0.06197
4436.05,0.06153
4430.26,0.05898
4424.47,0.05646
4418.69,0.05616
4412.9,0.05432
4407.11,0.05474
4401.33,0.05433
4395.54,0.05609
4389.76,0.05653
4383.97,0.05541
4378.18,0.05566
4372.4,0.05464
4366.61,0.05513
4360.83,0.05569
4355.04,0.05463
4349.25,0.05513
4343.47,0.05509
4337.68,0.05536
4331.89,0.05656
4326.11,0.05547
4320.32,0.05494
4314.54,0.05620
4308.75,0.05501
4302.96,0.05551
4297.18,0.05541
4291.39,0.05680
4285.61,0.05571
4279.82,0.05586
4274.03,0.05640
4268.25,0.05638
4262.46,0.05614
4256.67,0.05744
4250.89,0.05705
4245.1,0.05769
4239.32,0.05787
4233.53,0.05695
4227.74,0.05642
4221.96,0.05744
4216.17,0.05645
4210.39,0.05682
4204.6,0.05697
4198.81,0.05751
4193.03,0.05579
4187.24,0.05686
4181.45,0.05617
4175.67,0.05699
4169.88,0.05714
4164.1,0.05639
4158.31,0.05583
4152.52,0.05725
4146.74,0.05757
4140.95,0.05855
4135.17,0.05832
4129.38,0.05916
4123.59,0.05840
4117.81,0.05679
4112.02,0.05737
4106.23,0.05597
4100.45,0.05570
4094.66,0.05606
4088.88,0.05571
4083.09,0.05634
4077.3,0.05697
4071.52,0.05678
4065.73,0.05639
4059.95,0.05601
4054.16,0.05720
4048.37,0.05648
4042.59,0.05754
4036.8,0.05951
4031.02,0.05867
4025.23,0.05959
4019.44,0.05901
4013.66,0.05924
4007.87,0.05854
4002.08,0.05927
3996.3,0.05907
3990.51,0.05905
3984.73,0.05844
3978.94,0.05877
3973.15,0.05985
3967.37,0.06073
3961.58,0.06100
3955.8,0.06104
3950.01,0.06059
3944.22,0.06049
3938.44,0.06024
3932.65,0.05957
3926.86,0.05987
3921.08,0.05971
3915.29,0.05933
3909.51,0.05895
3903.72,0.05911
3897.93,0.05903
3892.15,0.05899
3886.36,0.05889
3880.58,0.05829
3874.79,0.05864
3869,0.06069
3863.22,0.06092
3857.43,0.06318
3851.64,0.06508
3845.86,0.06618
3840.07,0.06749
3834.29,0.06714
3828.5,0.06727
3822.71,0.06697
3816.93,0.06735
3811.14,0.06705
3805.36,0.06740
3799.57,0.06857
3793.78,0.07093
3788,0.07239
3782.21,0.07289
3776.42,0.07280
3770.64,0.07221
3764.85,0.06981
3759.07,0.06634
3753.28,0.06592
3747.49,0.06535
3741.71,0.06498
3735.92,0.06346
3730.14,0.06657
3724.35,0.06677
3718.56,0.06572
3712.78,0.06334
3706.99,0.06187
3701.2,0.06022
3695.42,0.05808
3689.63,0.05844
3683.85,0.05812
3678.06,0.05750
3672.27,0.05915
3666.49,0.05848
3660.7,0.05812
3654.92,0.05833
3649.13,0.05869
3643.34,0.05908
3637.56,0.05979
3631.77,0.05989
3625.98,0.06196
3620.2,0.06268
3614.41,0.06336
3608.63,0.06311
3602.84,0.06196
3597.05,0.06017
3591.27,0.05867
3585.48,0.05896
3579.7,0.05800
3573.91,0.05792
3568.12,0.05729
3562.34,0.05883
3556.55,0.05838
3550.76,0.05794
3544.98,0.05756
3539.19,0.05689
3533.41,0.05789
3527.62,0.05745
3521.83,0.05737
3516.05,0.05786
3510.26,0.05769
3504.48,0.05729
3498.69,0.05899
3492.9,0.05885
3487.12,0.05962
3481.33,0.06045
3475.55,0.06092
3469.76,0.06085
3463.97,0.06254
3458.19,0.06293
3452.4,0.06484
3446.61,0.06528
3440.83,0.06628
3435.04,0.06748
3429.26,0.06841
3423.47,0.06965
3417.68,0.07017
3411.9,0.07081
3406.11,0.07037
3400.33,0.06909
3394.54,0.06748
3388.75,0.06707
3382.97,0.06539
3377.18,0.06448
3371.39,0.06491
3365.61,0.06465
3359.82,0.06443
3354.04,0.06466
3348.25,0.06521
3342.46,0.06479
3336.68,0.06388
3330.89,0.06299
3325.11,0.06270
3319.32,0.06184
3313.53,0.06104
3307.75,0.06085
3301.96,0.05965
3296.17,0.05965
3290.39,0.05885
3284.6,0.05900
3278.82,0.05867
3273.03,0.05866
3267.24,0.05883
3261.46,0.05787
3255.67,0.05858
3249.89,0.05819
3244.1,0.05811
3238.31,0.05819
3232.53,0.05837
3226.74,0.05870
3220.95,0.05810
3215.17,0.05795
3209.38,0.05808
3203.6,0.05813
3197.81,0.05782
3192.02,0.05821
3186.24,0.05819
3180.45,0.05840
3174.67,0.05776
3168.88,0.05753
3163.09,0.05771
3157.31,0.05863
3151.52,0.05818
3145.73,0.05850
3139.95,0.05838
3134.16,0.05813
3128.38,0.05854
3122.59,0.05827
3116.8,0.05893
3111.02,0.05711
3105.23,0.05814
3099.45,0.05877
3093.66,0.05863
3087.87,0.05848
3082.09,0.05787
3076.3,0.05768
3070.51,0.05763
3064.73,0.05818
3058.94,0.05738
3053.16,0.05870
3047.37,0.05808
3041.58,0.05868
3035.8,0.05841
3030.01,0.05849
3024.23,0.05829
3018.44,0.05816
3012.65,0.05797
3006.87,0.05812
3001.08,0.05805
2995.29,0.05715
2989.51,0.05667
2983.72,0.05696
2977.94,0.05756
2972.15,0.05867
2966.36,0.05945
2960.58,0.06050
2954.79,0.06012
2949.01,0.06027
2943.22,0.06005
2937.43,0.06061
2931.65,0.06027
2925.86,0.06066
2920.08,0.06000
2914.29,0.06034
2908.5,0.06071
2902.72,0.06007
2896.93,0.06037
2891.14,0.06013
2885.36,0.05965
2879.57,0.05998
2873.79,0.06027
2868,0.06069
2862.21,0.06017
2856.43,0.06045
2850.64,0.06046
2844.86,0.06087
2839.07,0.06037
2833.28,0.06074
2827.5,0.06040
2821.71,0.06051
2815.92,0.06022
2810.14,0.06016
2804.35,0.06032
2798.57,0.06094
2792.78,0.06050
2786.99,0.05995
2781.21,0.06006
2775.42,0.06015
2769.64,0.06009
2763.85,0.06049
2758.06,0.06078
2752.28,0.06070
2746.49,0.06121
2740.7,0.06140
2734.92,0.06025
2729.13,0.06066
2723.35,0.06094
2717.56,0.06019
2711.77,0.06127
2705.99,0.06100
2700.2,0.06207
2694.42,0.06249
2688.63,0.06314
2682.84,0.06313
2677.06,0.06337
2671.27,0.06301
2665.48,0.06335
2659.7,0.06342
2653.91,0.06475
2648.13,0.06652
2642.34,0.06787
2636.55,0.06728
2630.77,0.06525
2624.98,0.06244
2619.2,0.06134
2613.41,0.06145
2607.62,0.06057
2601.84,0.06042
2596.05,0.06017
2590.26,0.06050
2584.48,0.06043
2578.69,0.06082
2572.91,0.06096
2567.12,0.06205
2561.33,0.06251
2555.55,0.06240
2549.76,0.06244
2543.98,0.06216
2538.19,0.06139
2532.4,0.06095
2526.62,0.06104
2520.83,0.06108
2515.04,0.06134
2509.26,0.06107
2503.47,0.06123
2497.69,0.06039
2491.9,0.06039
2486.11,0.06083
2480.33,0.06057
2474.54,0.06080
2468.76,0.06061
2462.97,0.06014
2457.18,0.06011
2451.4,0.06040
2445.61,0.06050
2439.82,0.06052
2434.04,0.06053
2428.25,0.06078
2422.47,0.06015
2416.68,0.06030
2410.89,0.06023
2405.11,0.06052
2399.32,0.06021
2393.54,0.06052
2387.75,0.06075
2381.96,0.06070
2376.18,0.06116
2370.39,0.06137
2364.61,0.06083
2358.82,0.06108
2353.03,0.06040
2347.25,0.06090
2341.46,0.06065
2335.67,0.06048
2329.89,0.06038
2324.1,0.06060
2318.32,0.06077
2312.53,0.06036
2306.74,0.06090
2300.96,0.06084
2295.17,0.06093
2289.39,0.06041
2283.6,0.06020
2277.81,0.06039
2272.03,0.06031
2266.24,0.06008
2260.45,0.06030
2254.67,0.06005
2248.88,0.05983
2243.1,0.06035
2237.31,0.06002
2231.52,0.05996
2225.74,0.06048
2219.95,0.06011
2214.17,0.06008
2208.38,0.06036
2202.59,0.06030
2196.81,0.06051
2191.02,0.06028
2185.23,0.06056
2179.45,0.06005
2173.66,0.06030
2167.88,0.06028
2162.09,0.06053
2156.3,0.06075
2150.52,0.06107
2144.73,0.06076
2138.95,0.06043
2133.16,0.06019
2127.37,0.06004
2121.59,0.05982
2115.8,0.06033
2110.01,0.06006
2104.23,0.05966
2098.44,0.05993
2092.66,0.05957
2086.87,0.06005
2081.08,0.05991
2075.3,0.05958
2069.51,0.05949
2063.73,0.05992
2057.94,0.05978
2052.15,0.05957
2046.37,0.05970
2040.58,0.05949
2034.79,0.05976
2029.01,0.05936
2023.22,0.05957
2017.44,0.05971
2011.65,0.05944
2005.86,0.05928
2000.08,0.05948
1994.29,0.05939
1988.51,0.05930
1982.72,0.05890
1976.93,0.05898
1971.15,0.05900
1965.36,0.05885
1959.57,0.05876
1953.79,0.05873
1948,0.05868
1942.22,0.05853
1936.43,0.05858
1930.64,0.05801
1924.86,0.05788
1919.07,0.05776
1913.29,0.05767
1907.5,0.05735
1901.71,0.05736
1895.93,0.05731
1890.14,0.05746
1884.35,0.05712
1878.57,0.05671
1872.78,0.05678
1867,0.05625
1861.21,0.05610
1855.42,0.05560
1849.64,0.05551
1843.85,0.05503
1838.07,0.05409
1832.28,0.05371
1826.49,0.05275
1820.71,0.05177
1814.92,0.05024
1809.13,0.04860
1803.35,0.04638
1797.56,0.04319
1791.78,0.04226
1785.99,0.04693
1780.2,0.06002
1774.42,0.07483
1768.63,0.08669
1762.85,0.08548
1757.06,0.07862
1751.27,0.07365
1745.49,0.06982
1739.7,0.06831
1733.92,0.06632
1728.13,0.06575
1722.34,0.06516
1716.56,0.06416
1710.77,0.06329
1704.98,0.06276
1699.2,0.06265
1693.41,0.06130
1687.63,0.06119
1681.84,0.06079
1676.05,0.06004
1670.27,0.06002
1664.48,0.05930
1658.7,0.05923
1652.91,0.05941
1647.12,0.05945
1641.34,0.05879
1635.55,0.05894
1629.76,0.05855
1623.98,0.05789
1618.19,0.05762
1612.41,0.05701
1606.62,0.05707
1600.83,0.05771
1595.05,0.05824
1589.26,0.05839
1583.48,0.05813
1577.69,0.05757
1571.9,0.05635
1566.12,0.05554
1560.33,0.05535
1554.54,0.05421
1548.76,0.05385
1542.97,0.05344
1537.19,0.05167
1531.4,0.05043
1525.61,0.04885
1519.83,0.04452
1514.04,0.04115
1508.26,0.05090
1502.47,0.07182
1496.68,0.07169
1490.9,0.06904
1485.11,0.06443
1479.32,0.06222
1473.54,0.06061
1467.75,0.05976
1461.97,0.06013
1456.18,0.06005
1450.39,0.05888
1444.61,0.05807
1438.82,0.05716
1433.04,0.05623
1427.25,0.05509
1421.46,0.05430
1415.68,0.05236
1409.89,0.05398
1404.1,0.05525
1398.32,0.05430
1392.53,0.05275
1386.75,0.05280
1380.96,0.05319
1375.17,0.05165
1369.39,0.04951
1363.6,0.05155
1357.82,0.05172
1352.03,0.04955
1346.24,0.04813
1340.46,0.04749
1334.67,0.04535
1328.88,0.04448
1323.1,0.04222
1317.31,0.04014
1311.53,0.03868
1305.74,0.03723
1299.95,0.03516
1294.17,0.03402
1288.38,0.03424
1282.6,0.03150
1276.81,0.02715
1271.02,0.02176
1265.24,0.02019
1259.45,0.03642
1253.66,0.07006
1247.88,0.09537
1242.09,0.10887
1236.31,0.12102
1230.52,0.13314
1224.73,0.13916
1218.95,0.13108
1213.16,0.10569
1207.38,0.07662
1201.59,0.09113
1195.8,0.14514
1190.02,0.16572
1184.23,0.13989
1178.45,0.11108
1172.66,0.08771
1166.87,0.11011
1161.09,0.15494
1155.3,0.13788
1149.51,0.12014
1143.73,0.11052
1137.94,0.10403
1132.16,0.09864
1126.37,0.09488
1120.58,0.09088
1114.8,0.08769
1109.01,0.08718
1103.23,0.08740
1097.44,0.08768
1091.65,0.08166
1085.87,0.07763
1080.08,0.09145
1074.29,0.09224
1068.51,0.08663
1062.72,0.08391
1056.94,0.08178
1051.15,0.08036
1045.36,0.07900
1039.58,0.07615
1033.79,0.07379
1028.01,0.06942
1022.22,0.06224
1016.43,0.07839
1010.65,0.09576
1004.86,0.09279
999.075,0.08925
993.288,0.08630
987.502,0.08465
981.716,0.08233
975.93,0.08078
970.144,0.07996
964.358,0.07876
958.572,0.07859
952.785,0.07769
946.999,0.07617
941.213,0.07648
935.427,0.07584
929.641,0.07540
923.855,0.07487
918.068,0.07476
912.282,0.07305
906.496,0.07247
900.71,0.07121
894.924,0.06887
889.138,0.07088
883.352,0.07502
877.565,0.07505
871.779,0.07305
865.993,0.07090
860.207,0.06807
854.421,0.06567
848.635,0.06443
842.849,0.06598
837.062,0.06847
831.276,0.07721
825.49,0.08435
819.704,0.08246
813.918,0.08470
808.132,0.08473
802.346,0.08186
796.559,0.07877
790.773,0.07660
784.987,0.07423
779.201,0.07367
773.415,0.07423
767.629,0.07734
761.843,0.07973
756.056,0.08068
750.27,0.08083
744.484,0.07912
738.698,0.07675
732.912,0.07630
727.126,0.07595
721.34,0.07583
715.553,0.07535
709.767,0.07602
703.981,0.07668
698.195,0.07645
692.409,0.07697
686.623,0.07596
680.837,0.07534
675.05,0.07578
669.264,0.07408
663.478,0.07358
657.692,0.07417
651.906,0.07329
646.12,0.07317
640.333,0.07208
634.547,0.07291
628.761,0.07181
622.975,0.07080
617.189,0.06978
611.403,0.06990
605.617,0.07102
599.83,0.06865