File: 01_Data/PC/FTIR/IS/PC_1.52_Trans_S_IS_230516_R3.dpt
7496.92,0.90408
7491.13,0.89274
7485.34,0.89225
7479.56,0.89317
7473.77,0.89477
7467.99,0.89536
7462.2,0.87624
7456.41,0.87295
7450.63,0.88666
7444.84,0.89880
7439.06,0.88795
7433.27,0.88350
7427.48,0.84335
7421.7,0.87048
7415.91,0.86046
7410.12,0.83463
7404.34,0.86652
7398.55,0.87487
7392.77,0.83259
7386.98,0.84059
7381.19,0.81533
7375.41,0.82320
7369.62,0.80954
7363.84,0.81055
7358.05,0.82216
7352.26,0.85645
7346.48,0.81206
7340.69,0.83489
7334.9,0.82537
7329.12,0.82565
7323.33,0.82656
7317.55,0.80303
7311.76,0.81788
7305.97,0.79101
7300.19,0.80249
7294.4,0.80894
7288.62,0.82402
7282.83,0.81324
7277.04,0.80303
7271.26,0.81782
7265.47,0.80975
7259.68,0.81184
7253.9,0.81226
7248.11,0.81458
7242.33,0.80649
7236.54,0.83107
7230.75,0.80729
7224.97,0.80872
7219.18,0.81872
7213.4,0.82145
7207.61,0.80613
7201.82,0.82723
7196.04,0.84017
7190.25,0.82308
7184.46,0.81904
7178.68,0.83760
7172.89,0.83342
7167.11,0.78749
7161.32,0.80242
7155.53,0.82509
7149.75,0.81294
7143.96,0.81923
7138.18,0.81893
7132.39,0.80694
7126.6,0.82878
7120.82,0.79951
7115.03,0.81424
7109.24,0.83138
7103.46,0.81310
7097.67,0.83628
7091.89,0.82913
7086.1,0.83250
7080.31,0.83837
7074.53,0.82994
7068.74,0.84839
7062.96,0.85763
7057.17,0.82767
7051.38,0.84572
7045.6,0.84424
7039.81,0.85021
7034.02,0.84179
7028.24,0.87067
7022.45,0.88308
7016.67,0.86740
7010.88,0.84409
7005.09,0.86772
6999.31,0.86261
6993.52,0.87303
6987.74,0.85513
6981.95,0.85787
6976.16,0.87203
6970.38,0.84893
6964.59,0.87194
6958.8,0.84609
6953.02,0.84482
6947.23,0.85391
6941.45,0.85577
6935.66,0.85503
6929.87,0.86070
6924.09,0.86825
6918.3,0.88104
6912.52,0.85446
6906.73,0.87719
6900.94,0.87958
6895.16,0.87634
6889.37,0.85833
6883.59,0.87775
6877.8,0.85240
6872.01,0.88136
6866.23,0.87116
6860.44,0.87614
6854.65,0.87160
6848.87,0.87796
6843.08,0.87766
6837.3,0.87359
6831.51,0.85215
6825.72,0.87464
6819.94,0.85543
6814.15,0.86612
6808.37,0.87393
6802.58,0.87392
6796.79,0.86777
6791.01,0.87732
6785.22,0.87774
6779.43,0.86123
6773.65,0.87730
6767.86,0.88611
6762.08,0.87567
6756.29,0.87627
6750.5,0.86986
6744.72,0.89021
6738.93,0.87384
6733.15,0.88104
6727.36,0.88175
6721.57,0.88051
6715.79,0.88717
6710,0.89729
6704.21,0.87329
6698.43,0.86973
6692.64,0.88405
6686.86,0.87684
6681.07,0.88571
6675.28,0.89179
6669.5,0.87780
6663.71,0.89034
6657.93,0.89393
6652.14,0.89289
6646.35,0.88625
6640.57,0.89995
6634.78,0.88394
6628.99,0.88976
6623.21,0.88784
6617.42,0.88781
6611.64,0.88801
6605.85,0.89394
6600.06,0.89275
6594.28,0.90837
6588.49,0.88806
6582.71,0.89553
6576.92,0.89255
6571.13,0.89532
6565.35,0.88791
6559.56,0.88943
6553.77,0.89391
6547.99,0.88846
6542.2,0.89707
6536.42,0.90328
6530.63,0.88699
6524.84,0.89140
6519.06,0.88520
6513.27,0.88793
6507.49,0.89839
6501.7,0.89602
6495.91,0.89196
6490.13,0.89753
6484.34,0.89615
6478.55,0.89665
6472.77,0.89044
6466.98,0.88742
6461.2,0.88471
6455.41,0.88991
6449.62,0.89890
6443.84,0.88824
6438.05,0.89507
6432.27,0.89329
6426.48,0.88909
6420.69,0.89482
6414.91,0.89142
6409.12,0.88901
6403.33,0.89657
6397.55,0.88426
6391.76,0.89302
6385.98,0.88513
6380.19,0.89234
6374.4,0.88509
6368.62,0.88968
6362.83,0.88364
6357.05,0.88964
6351.26,0.88585
6345.47,0.88975
6339.69,0.88100
6333.9,0.88887
6328.12,0.89586
6322.33,0.87949
6316.54,0.88456
6310.76,0.88737
6304.97,0.87951
6299.18,0.88863
6293.4,0.86988
6287.61,0.86963
6281.83,0.87015
6276.04,0.87325
6270.25,0.87719
6264.47,0.86568
6258.68,0.85979
6252.9,0.86453
6247.11,0.85928
6241.32,0.86353
6235.54,0.86215
6229.75,0.85717
6223.96,0.84914
6218.18,0.85348
6212.39,0.84937
6206.61,0.83979
6200.82,0.83500
6195.03,0.81898
6189.25,0.81573
6183.46,0.80697
6177.68,0.79447
6171.89,0.79005
6166.1,0.78422
6160.32,0.78976
6154.53,0.77775
6148.74,0.77619
6142.96,0.76846
6137.17,0.75314
6131.39,0.73959
6125.6,0.72369
6119.81,0.71791
6114.03,0.71240
6108.24,0.70691
6102.46,0.68549
6096.67,0.65534
6090.88,0.63460
6085.1,0.59684
6079.31,0.57432
6073.52,0.55321
6067.74,0.53603
6061.95,0.52101
6056.17,0.50813
6050.38,0.49046
6044.59,0.46099
6038.81,0.42464
6033.02,0.38497
6027.24,0.34965
6021.45,0.30548
6015.66,0.26608
6009.88,0.22460
6004.09,0.19722
5998.3,0.18475
5992.52,0.19380
5986.73,0.21636
5980.95,0.25343
5975.16,0.31287
5969.37,0.35463
5963.59,0.39236
5957.8,0.40412
5952.02,0.40738
5946.23,0.39610
5940.44,0.38210
5934.66,0.36740
5928.87,0.36423
5923.08,0.36633
5917.3,0.38721
5911.51,0.40576
5905.73,0.41999
5899.94,0.41922
5894.15,0.42032
5888.37,0.43157
5882.58,0.45652
5876.8,0.48796
5871.01,0.52801
5865.22,0.55859
5859.44,0.58451
5853.65,0.61194
5847.86,0.62347
5842.08,0.63712
5836.29,0.63319
5830.51,0.63405
5824.72,0.63547
5818.93,0.63022
5813.15,0.63294
5807.36,0.63865
5801.58,0.64744
5795.79,0.64382
5790,0.63450
5784.22,0.61761
5778.43,0.60665
5772.65,0.59035
5766.86,0.58931
5761.07,0.59233
5755.29,0.60104
5749.5,0.61540
5743.71,0.64057
5737.93,0.66095
5732.14,0.68607
5726.36,0.70402
5720.57,0.71920
5714.78,0.73523
5709,0.74368
5703.21,0.74875
5697.43,0.74712
5691.64,0.74291
5685.85,0.73336
5680.07,0.72652
5674.28,0.71651
5668.49,0.70118
5662.71,0.70057
5656.92,0.70788
5651.14,0.71265
5645.35,0.72138
5639.56,0.73746
5633.78,0.75010
5627.99,0.76395
5622.21,0.77427
5616.42,0.78227
5610.63,0.78847
5604.85,0.78679
5599.06,0.79033
5593.27,0.78331
5587.49,0.78544
5581.7,0.78368
5575.92,0.78331
5570.13,0.78412
5564.34,0.78143
5558.56,0.77910
5552.77,0.77848
5546.99,0.77532
5541.2,0.77423
5535.41,0.77382
5529.63,0.77682
5523.84,0.77950
5518.05,0.77431
5512.27,0.77712
5506.48,0.77510
5500.7,0.77670
5494.91,0.76972
5489.12,0.76781
5483.34,0.76893
5477.55,0.75949
5471.77,0.76189
5465.98,0.76140
5460.19,0.75905
5454.41,0.76637
5448.62,0.76634
5442.83,0.76827
5437.05,0.77554
5431.26,0.77835
5425.48,0.78230
5419.69,0.78384
5413.9,0.77093
5408.12,0.77395
5402.33,0.78121
5396.55,0.77414
5390.76,0.77790
5384.97,0.77973
5379.19,0.78291
5373.4,0.78508
5367.61,0.78892
5361.83,0.78339
5356.04,0.77561
5350.26,0.77269
5344.47,0.76406
5338.68,0.76685
5332.9,0.77640
5327.11,0.77325
5321.33,0.77959
5315.54,0.77865
5309.75,0.77181
5303.97,0.76821
5298.18,0.76433
5292.39,0.75348
5286.61,0.73640
5280.82,0.71868
5275.04,0.70253
5269.25,0.68248
5263.46,0.66882
5257.68,0.68534
5251.89,0.70359
5246.11,0.71769
5240.32,0.74548
5234.53,0.76011
5228.75,0.77043
5222.96,0.78079
5217.18,0.78866
5211.39,0.79174
5205.6,0.78642
5199.82,0.79290
5194.03,0.79430
5188.24,0.79041
5182.46,0.79268
5176.67,0.79517
5170.89,0.79199
5165.1,0.79501
5159.31,0.79433
5153.53,0.79801
5147.74,0.80144
5141.96,0.80534
5136.17,0.80748
5130.38,0.80884
5124.6,0.81083
5118.81,0.80963
5113.02,0.81049
5107.24,0.81317
5101.45,0.81191
5095.67,0.80900
5089.88,0.80811
5084.09,0.80580
5078.31,0.80461
5072.52,0.80413
5066.74,0.80805
5060.95,0.80655
5055.16,0.80705
5049.38,0.80576
5043.59,0.80999
5037.8,0.80877
5032.02,0.80667
5026.23,0.80566
5020.45,0.80411
5014.66,0.79872
5008.87,0.79977
5003.09,0.79656
4997.3,0.79521
4991.52,0.79132
4985.73,0.78996
4979.94,0.78555
4974.16,0.78496
4968.37,0.78282
4962.58,0.78319
4956.8,0.78051
4951.01,0.78100
4945.23,0.78146
4939.44,0.77951
4933.65,0.77857
4927.87,0.77252
4922.08,0.76432
4916.3,0.75666
4910.51,0.74668
4904.72,0.73598
4898.94,0.72582
4893.15,0.71936
4887.36,0.71650
4881.58,0.71534
4875.79,0.71304
4870.01,0.70916
4864.22,0.70078
4858.43,0.68749
4852.65,0.67688
4846.86,0.67278
4841.08,0.67298
4835.29,0.67597
4829.5,0.68002
4823.72,0.68643
4817.93,0.69059
4812.14,0.69464
4806.36,0.69244
4800.57,0.69514
4794.79,0.69004
4789,0.68366
4783.21,0.67683
4777.43,0.66504
4771.64,0.65344
4765.86,0.64187
4760.07,0.62724
4754.28,0.61234
4748.5,0.59185
4742.71,0.56385
4736.92,0.53160
4731.14,0.49060
4725.35,0.44636
4719.57,0.39830
4713.78,0.34028
4707.99,0.27251
4702.21,0.21231
4696.42,0.16822
4690.64,0.13824
4684.85,0.12133
4679.06,0.11817
4673.28,0.13671
4667.49,0.16674
4661.7,0.19502
4655.92,0.20318
4650.13,0.18796
4644.35,0.15417
4638.56,0.12343
4632.77,0.11224
4626.99,0.13808
4621.2,0.20628
4615.42,0.29209
4609.63,0.36002
4603.84,0.39456
4598.06,0.39885
4592.27,0.37874
4586.49,0.34926
4580.7,0.32231
4574.91,0.31182
4569.13,0.33217
4563.34,0.37990
4557.55,0.43675
4551.77,0.47993
4545.98,0.49644
4540.2,0.49631
4534.41,0.49376
4528.62,0.49615
4522.84,0.49944
4517.05,0.49976
4511.27,0.49616
4505.48,0.48561
4499.69,0.46495
4493.91,0.43680
4488.12,0.40764
4482.33,0.38351
4476.55,0.37540
4470.76,0.37628
4464.98,0.37421
4459.19,0.36423
4453.4,0.34116
4447.62,0.30748
4441.83,0.26656
4436.05,0.22281
4430.26,0.18213
4424.47,0.14682
4418.69,0.11747
4412.9,0.09170
4407.11,0.07825
4401.33,0.08357
4395.54,0.10374
4389.76,0.12062
4383.97,0.11807
4378.18,0.10114
4372.4,0.08464
4366.61,0.07204
4360.83,0.06510
4355.04,0.06111
4349.25,0.05550
4343.47,0.05140
4337.68,0.04723
4331.89,0.03972
4326.11,0.03547
4320.32,0.03771
4314.54,0.04741
4308.75,0.05490
4302.96,0.05550
4297.18,0.05715
4291.39,0.06233
4285.61,0.07098
4279.82,0.07792
4274.03,0.08433
4268.25,0.08837
4262.46,0.09490
4256.67,0.10616
4250.89,0.11619
4245.1,0.11877
4239.32,0.11257
4233.53,0.10661
4227.74,0.10106
4221.96,0.09686
4216.17,0.09125
4210.39,0.08733
4204.6,0.08245
4198.81,0.08083
4193.03,0.07893
4187.24,0.07641
4181.45,0.07181
4175.67,0.06843
4169.88,0.06687
4164.1,0.07401
4158.31,0.09039
4152.52,0.11179
4146.74,0.12858
4140.95,0.13413
4135.17,0.13481
4129.38,0.13590
4123.59,0.12927
4117.81,0.11380
4112.02,0.09169
4106.23,0.06338
4100.45,0.03695
4094.66,0.01862
4088.88,0.00797
4083.09,0.00382
4077.3,0.00216
4071.52,0.00247
4065.73,0.00534
4059.95,0.01425
4054.16,0.03182
4048.37,0.05772
4042.59,0.09290
4036.8,0.12559
4031.02,0.14028
4025.23,0.13699
4019.44,0.13040
4013.66,0.12986
4007.87,0.13291
4002.08,0.13506
3996.3,0.13027
3990.51,0.12605
3984.73,0.12519
3978.94,0.13030
3973.15,0.14256
3967.37,0.16278
3961.58,0.17296
3955.8,0.16737
3950.01,0.15516
3944.22,0.15141
3938.44,0.15188
3932.65,0.14997
3926.86,0.15079
3921.08,0.14473
3915.29,0.13286
3909.51,0.12498
3903.72,0.11403
3897.93,0.10977
3892.15,0.10222
3886.36,0.09700
3880.58,0.09544
3874.79,0.11030
3869,0.14416
3863.22,0.17800
3857.43,0.20275
3851.64,0.22189
3845.86,0.24411
3840.07,0.24794
3834.29,0.26105
3828.5,0.26564
3822.71,0.25620
3816.93,0.25199
3811.14,0.25850
3805.36,0.25987
3799.57,0.27163
3793.78,0.29968
3788,0.31759
3782.21,0.32855
3776.42,0.33069
3770.64,0.31339
3764.85,0.28527
3759.07,0.25102
3753.28,0.22222
3747.49,0.20737
3741.71,0.21031
3735.92,0.21493
3730.14,0.23764
3724.35,0.23874
3718.56,0.22781
3712.78,0.19676
3706.99,0.15471
3701.2,0.11456
3695.42,0.07850
3689.63,0.04284
3683.85,0.01954
3678.06,0.00961
3672.27,0.00757
3666.49,0.01314
3660.7,0.02328
3654.92,0.04214
3649.13,0.06684
3643.34,0.10373
3637.56,0.13245
3631.77,0.15046
3625.98,0.18051
3620.2,0.20350
3614.41,0.22185
3608.63,0.21632
3602.84,0.18076
3597.05,0.12489
3591.27,0.07822
3585.48,0.04785
3579.7,0.03542
3573.91,0.02938
3568.12,0.02586
3562.34,0.02299
3556.55,0.01926
3550.76,0.01375
3544.98,0.00826
3539.19,0.00596
3533.41,0.00390
3527.62,0.00410
3521.83,0.00900
3516.05,0.01737
3510.26,0.03658
3504.48,0.06170
3498.69,0.08821
3492.9,0.10881
3487.12,0.12399
3481.33,0.13791
3475.55,0.15074
3469.76,0.16534
3463.97,0.18340
3458.19,0.20334
3452.4,0.22267
3446.61,0.23918
3440.83,0.25747
3435.04,0.27412
3429.26,0.28804
3423.47,0.30065
3417.68,0.30884
3411.9,0.31010
3406.11,0.30560
3400.33,0.29504
3394.54,0.28026
3388.75,0.26269
3382.97,0.24435
3377.18,0.23144
3371.39,0.22581
3365.61,0.22390
3359.82,0.22683
3354.04,0.23088
3348.25,0.23271
3342.46,0.23170
3336.68,0.22579
3330.89,0.21608
3325.11,0.19971
3319.32,0.18093
3313.53,0.15976
3307.75,0.14087
3301.96,0.12561
3296.17,0.11315
3290.39,0.10379
3284.6,0.09824
3278.82,0.09322
3273.03,0.08653
3267.24,0.08038
3261.46,0.07448
3255.67,0.06819
3249.89,0.06383
3244.1,0.05900
3238.31,0.05649
3232.53,0.05243
3226.74,0.04826
3220.95,0.04201
3215.17,0.03500
3209.38,0.02689
3203.6,0.01886
3197.81,0.01340
3192.02,0.01191
3186.24,0.01170
3180.45,0.01090
3174.67,0.01126
3168.88,0.01191
3163.09,0.01182
3157.31,0.01017
3151.52,0.00740
3145.73,0.00512
3139.95,0.00346
3134.16,0.00096
3128.38,0.00074
3122.59,0.00039
3116.8,0.00043
3111.02,0.00065
3105.23,0.00051
3099.45,0.00051
3093.66,0.00054
3087.87,0.00035
3082.09,0.00006
3076.3,0.00032
3070.51,0.00034
3064.73,-0.00002
3058.94,0.00050
3053.16,0.00046
3047.37,0.00037
3041.58,0.00015
3035.8,0.00049
3030.01,0.00067
3024.23,0.00037
3018.44,0.00020
3012.65,0.00064
3006.87,0.00012
3001.08,0.00042
2995.29,0.00049
2989.51,0.00059
2983.72,0.00020
2977.94,0.00050
2972.15,0.00047
2966.36,0.00024
2960.58,0.00078
2954.79,0.00097
2949.01,0.00024
2943.22,0.00023
2937.43,0.00027
2931.65,0.00070
2925.86,0.00034
2920.08,0.00025
2914.29,0.00027
2908.5,0.00043
2902.72,0.00030
2896.93,0.00041
2891.14,0.00012
2885.36,0.00033
2879.57,0.00042
2873.79,0.00022
2868,0.00057
2862.21,0.00028
2856.43,0.00023
2850.64,0.00053
2844.86,0.00151
2839.07,0.00679
2833.28,0.01190
2827.5,0.01390
2821.71,0.01542
2815.92,0.01293
2810.14,0.01033
2804.35,0.01307
2798.57,0.01906
2792.78,0.01710
2786.99,0.01056
2781.21,0.00573
2775.42,0.00685
2769.64,0.01508
2763.85,0.02617
2758.06,0.04452
2752.28,0.06652
2746.49,0.07681
2740.7,0.07086
2734.92,0.05396
2729.13,0.04974
2723.35,0.05182
2717.56,0.04014
2711.77,0.04783
2705.99,0.07329
2700.2,0.09706
2694.42,0.11662
2688.63,0.12942
2682.84,0.13514
2677.06,0.12913
2671.27,0.12055
2665.48,0.12149
2659.7,0.13188
2653.91,0.15166
2648.13,0.17509
2642.34,0.18783
2636.55,0.18110
2630.77,0.15412
2624.98,0.11158
2619.2,0.07175
2613.41,0.05520
2607.62,0.05124
2601.84,0.04927
2596.05,0.04828
2590.26,0.04721
2584.48,0.05118
2578.69,0.06026
2572.91,0.07138
2567.12,0.09269
2561.33,0.10992
2555.55,0.10790
2549.76,0.09628
2543.98,0.08281
2538.19,0.06721
2532.4,0.05440
2526.62,0.05432
2520.83,0.06260
2515.04,0.05940
2509.26,0.04757
2503.47,0.03792
2497.69,0.02686
2491.9,0.01582
2486.11,0.00927
2480.33,0.00639
2474.54,0.00460
2468.76,0.00381
2462.97,0.00415
2457.18,0.00405
2451.4,0.00395
2445.61,0.00462
2439.82,0.00531
2434.04,0.00485
2428.25,0.00324
2422.47,0.00187
2416.68,0.00098
2410.89,0.00080
2405.11,0.00111
2399.32,0.00152
2393.54,0.00179
2387.75,0.00290
2381.96,0.00612
2376.18,0.01049
2370.39,0.01512
2364.61,0.02044
2358.82,0.02456
2353.03,0.02832
2347.25,0.02648
2341.46,0.02039
2335.67,0.01727
2329.89,0.01458
2324.1,0.01233
2318.32,0.01546
2312.53,0.01795
2306.74,0.01829
2300.96,0.01624
2295.17,0.01401
2289.39,0.01220
2283.6,0.00754
2277.81,0.00492
2272.03,0.00364
2266.24,0.00146
2260.45,0.00022
2254.67,0.00011
2248.88,0.00023
2243.1,0.00011
2237.31,0.00022
2231.52,0.00042
2225.74,0.00016
2219.95,0.00022
2214.17,0.00041
2208.38,0.00033
2202.59,0.00017
2196.81,0.00006
2191.02,0.00028
2185.23,0.00145
2179.45,0.00441
2173.66,0.00628
2167.88,0.00899
2162.09,0.01965
2156.3,0.03851
2150.52,0.05262
2144.73,0.05394
2138.95,0.04491
2133.16,0.03268
2127.37,0.02229
2121.59,0.01431
2115.8,0.01046
2110.01,0.00764
2104.23,0.00543
2098.44,0.00349
2092.66,0.00127
2086.87,0.00043
2081.08,0.00006
2075.3,0.00024
2069.51,0.00039
2063.73,0.00066
2057.94,0.00018
2052.15,0.00020
2046.37,0.00025
2040.58,0.00024
2034.79,0.00054
2029.01,0.00090
2023.22,0.00042
2017.44,0.00051
2011.65,0.00034
2005.86,0.00055
2000.08,0.00023
1994.29,0.00037
1988.51,0.00043
1982.72,0.00113
1976.93,0.00217
1971.15,0.00379
1965.36,0.00379
1959.57,0.00297
1953.79,0.00193
1948,0.00144
1942.22,0.00101
1936.43,0.00082
1930.64,0.00062
1924.86,0.00049
1919.07,0.00020
1913.29,0.00004
1907.5,0.00031
1901.71,0.00024
1895.93,0.00039
1890.14,0.00030
1884.35,0.00039
1878.57,0.00026
1872.78,0.00034
1867,0.00030
1861.21,0.00031
1855.42,0.00014
1849.64,0.00038
1843.85,0.00018
1838.07,0.00036
1832.28,0.00037
1826.49,0.00026
1820.71,0.00010
1814.92,0.00036
1809.13,0.00034
1803.35,0.00023
1797.56,0.00013
1791.78,0.00020
1785.99,0.00020
1780.2,0.00034
1774.42,0.00030
1768.63,0.00016
1762.85,0.00031
1757.06,0.00019
1751.27,0.00031
1745.49,0.00066
1739.7,0.00035
1733.92,0.00058
1728.13,0.00009
1722.34,0.00025
1716.56,0.00031
1710.77,0.00039
1704.98,0.00085
1699.2,0.00064
1693.41,0.00069
1687.63,0.00018
1681.84,0.00042
1676.05,0.00023
1670.27,0.00065
1664.48,0.00008
1658.7,0.00029
1652.91,0.00052
1647.12,0.00053
1641.34,0.00027
1635.55,0.00038
1629.76,0.00058
1623.98,0.00033
1618.19,0.00024
1612.41,0.00013
1606.62,0.00013
1600.83,0.00017
1595.05,0.00034
1589.26,0.00042
1583.48,0.00044
1577.69,0.00040
1571.9,0.00044
1566.12,0.00061
1560.33,0.00032
1554.54,0.00073
1548.76,0.00049
1542.97,0.00008
1537.19,0.00041
1531.4,0.00035
1525.61,0.00022
1519.83,0.00084
1514.04,0.00049
1508.26,0.00069
1502.47,0.00019
1496.68,0.00029
1490.9,0.00052
1485.11,0.00025
1479.32,0.00032
1473.54,0.00055
1467.75,0.00068
1461.97,0.00006
1456.18,0.00074
1450.39,0.00052
1444.61,0.00048
1438.82,0.00042
1433.04,0.00016
1427.25,0.00030
1421.46,0.00065
1415.68,0.00012
1409.89,0.00022
1404.1,0.00007
1398.32,0.00015
1392.53,0.00018
1386.75,0.00031
1380.96,0.00037
1375.17,0.00007
1369.39,0.00006
1363.6,0.00042
1357.82,0.00037
1352.03,0.00032
1346.24,0.00023
1340.46,0.00016
1334.67,0.00033
1328.88,0.00017
1323.1,0.00035
1317.31,0.00046
1311.53,0.00037
1305.74,0.00025
1299.95,0.00048
1294.17,0.00000
1288.38,0.00025
1282.6,0.00024
1276.81,0.00018
1271.02,0.00017
1265.24,0.00029
1259.45,0.00028
1253.66,0.00045
1247.88,0.00039
1242.09,0.00015
1236.31,0.00036
1230.52,0.00021
1224.73,0.00051
1218.95,0.00035
1213.16,0.00032
1207.38,0.00065
1201.59,0.00038
1195.8,0.00043
1190.02,0.00063
1184.23,0.00032
1178.45,0.00034
1172.66,0.00028
1166.87,0.00036
1161.09,0.00032
1155.3,0.00036
1149.51,0.00048
1143.73,0.00083
1137.94,0.00028
1132.16,0.00066
1126.37,0.00043
1120.58,0.00061
1114.8,0.00038
1109.01,0.00080
1103.23,0.00039
1097.44,0.00070
1091.65,0.00003
1085.87,0.00082
1080.08,0.00060
1074.29,0.00086
1068.51,0.00088
1062.72,0.00117
1056.94,0.00091
1051.15,0.00027
1045.36,0.00054
1039.58,0.00019
1033.79,0.00031
1028.01,0.00063
1022.22,0.00026
1016.43,0.00036
1010.65,0.00056
1004.86,0.00070
999.075,0.00069
993.288,0.00038
987.502,0.00046
981.716,0.00047
975.93,0.00040
970.144,0.00026
964.358,0.00018
958.572,0.00074
952.785,0.00027
946.999,0.00034
941.213,0.00053
935.427,0.00023
929.641,0.00038
923.855,0.00023
918.068,0.00058
912.282,0.00094
906.496,0.00098
900.71,0.00001
894.924,0.00048
889.138,0.00035
883.352,0.00074
877.565,0.00041
871.779,0.00013
865.993,0.00081
860.207,0.00085
854.421,0.00008
848.635,0.00039
842.849,0.00080
837.062,0.00026
831.276,0.00059
825.49,0.00019
819.704,0.00114
813.918,0.00068
808.132,0.00106
802.346,0.00089
796.559,0.00062
790.773,0.00078
784.987,0.00062
779.201,0.00051
773.415,0.00039
767.629,0.00089
761.843,0.00072
756.056,0.00116
750.27,0.00099
744.484,0.00005
738.698,0.00052
732.912,0.00037
727.126,0.00060
721.34,0.00152
715.553,0.00092
709.767,0.00125
703.981,0.00065
698.195,0.00110
692.409,0.00097
686.623,0.00011
680.837,0.00059
675.05,0.00183
669.264,0.00352
663.478,0.00541
657.692,0.00565
651.906,0.00682
646.12,0.00533
640.333,0.00269
634.547,0.00178
628.761,0.00046
622.975,0.00080
617.189,0.00191
611.403,0.00073
605.617,0.00158
599.83,0.00147