File: 01_Data/PC/FTIR/IS/PC_1.52_S_IS_230516_R1.dpt
7496.92,0.08260
7491.13,0.04651
7485.34,0.05790
7479.56,0.09279
7473.77,0.11054
7467.99,0.09233
7462.2,0.08801
7456.41,0.08435
7450.63,0.06732
7444.84,0.10240
7439.06,0.09920
7433.27,0.10085
7427.48,0.11682
7421.7,0.08611
7415.91,0.10842
7410.12,0.11679
7404.34,0.09801
7398.55,0.06895
7392.77,0.07418
7386.98,0.12017
7381.19,0.09626
7375.41,0.08109
7369.62,0.08974
7363.84,0.09294
7358.05,0.09477
7352.26,0.08885
7346.48,0.07907
7340.69,0.08483
7334.9,0.08969
7329.12,0.06265
7323.33,0.10374
7317.55,0.08379
7311.76,0.08038
7305.97,0.07836
7300.19,0.08471
7294.4,0.07741
7288.62,0.06965
7282.83,0.08188
7277.04,0.06069
7271.26,0.08656
7265.47,0.08599
7259.68,0.10654
7253.9,0.08983
7248.11,0.08118
7242.33,0.07602
7236.54,0.08844
7230.75,0.09056
7224.97,0.09568
7219.18,0.07405
7213.4,0.09196
7207.61,0.08343
7201.82,0.06736
7196.04,0.09791
7190.25,0.09670
7184.46,0.10206
7178.68,0.08615
7172.89,0.10804
7167.11,0.08852
7161.32,0.11326
7155.53,0.05805
7149.75,0.08065
7143.96,0.07717
7138.18,0.12358
7132.39,0.09687
7126.6,0.11037
7120.82,0.09824
7115.03,0.08609
7109.24,0.06915
7103.46,0.09061
7097.67,0.06740
7091.89,0.10799
7086.1,0.08501
7080.31,0.09270
7074.53,0.10086
7068.74,0.06778
7062.96,0.07914
7057.17,0.08686
7051.38,0.10495
7045.6,0.10137
7039.81,0.10951
7034.02,0.09084
7028.24,0.08952
7022.45,0.08256
7016.67,0.11010
7010.88,0.11517
7005.09,0.08220
6999.31,0.08969
6993.52,0.08867
6987.74,0.08210
6981.95,0.10658
6976.16,0.10533
6970.38,0.09854
6964.59,0.10646
6958.8,0.09076
6953.02,0.08300
6947.23,0.09587
6941.45,0.10344
6935.66,0.09602
6929.87,0.08672
6924.09,0.09596
6918.3,0.09863
6912.52,0.09564
6906.73,0.09129
6900.94,0.09810
6895.16,0.11084
6889.37,0.10215
6883.59,0.11102
6877.8,0.10969
6872.01,0.10298
6866.23,0.08463
6860.44,0.09111
6854.65,0.09285
6848.87,0.11721
6843.08,0.09999
6837.3,0.10536
6831.51,0.08981
6825.72,0.09844
6819.94,0.09962
6814.15,0.09342
6808.37,0.10332
6802.58,0.10473
6796.79,0.09630
6791.01,0.10020
6785.22,0.10573
6779.43,0.10435
6773.65,0.10034
6767.86,0.10178
6762.08,0.09747
6756.29,0.10809
6750.5,0.10876
6744.72,0.10575
6738.93,0.10809
6733.15,0.11461
6727.36,0.10020
6721.57,0.10439
6715.79,0.09650
6710,0.12574
6704.21,0.11066
6698.43,0.12179
6692.64,0.11273
6686.86,0.11786
6681.07,0.10719
6675.28,0.09373
6669.5,0.10172
6663.71,0.09490
6657.93,0.10025
6652.14,0.10421
6646.35,0.10863
6640.57,0.11593
6634.78,0.10039
6628.99,0.12116
6623.21,0.10657
6617.42,0.10485
6611.64,0.10786
6605.85,0.11108
6600.06,0.10989
6594.28,0.11577
6588.49,0.10011
6582.71,0.11181
6576.92,0.11443
6571.13,0.11670
6565.35,0.10833
6559.56,0.11080
6553.77,0.11999
6547.99,0.11482
6542.2,0.10799
6536.42,0.11705
6530.63,0.10094
6524.84,0.10772
6519.06,0.10942
6513.27,0.11511
6507.49,0.10367
6501.7,0.10505
6495.91,0.11906
6490.13,0.11067
6484.34,0.11469
6478.55,0.10563
6472.77,0.11210
6466.98,0.11633
6461.2,0.11245
6455.41,0.12291
6449.62,0.10900
6443.84,0.11736
6438.05,0.11906
6432.27,0.11348
6426.48,0.11371
6420.69,0.10351
6414.91,0.11078
6409.12,0.10935
6403.33,0.11121
6397.55,0.11089
6391.76,0.11047
6385.98,0.11176
6380.19,0.11995
6374.4,0.10491
6368.62,0.11247
6362.83,0.11958
6357.05,0.10468
6351.26,0.11720
6345.47,0.12219
6339.69,0.12348
6333.9,0.11405
6328.12,0.11691
6322.33,0.10613
6316.54,0.11443
6310.76,0.11597
6304.97,0.10253
6299.18,0.10926
6293.4,0.11195
6287.61,0.11018
6281.83,0.10716
6276.04,0.11386
6270.25,0.11189
6264.47,0.10865
6258.68,0.11324
6252.9,0.11408
6247.11,0.11802
6241.32,0.11363
6235.54,0.10967
6229.75,0.11722
6223.96,0.10832
6218.18,0.10857
6212.39,0.10538
6206.61,0.11111
6200.82,0.09915
6195.03,0.09894
6189.25,0.10314
6183.46,0.10038
6177.68,0.09978
6171.89,0.10053
6166.1,0.09277
6160.32,0.09755
6154.53,0.09708
6148.74,0.09994
6142.96,0.09276
6137.17,0.09413
6131.39,0.08656
6125.6,0.09019
6119.81,0.07930
6114.03,0.08440
6108.24,0.09840
6102.46,0.08865
6096.67,0.07926
6090.88,0.06472
6085.1,0.06879
6079.31,0.06882
6073.52,0.06717
6067.74,0.06289
6061.95,0.06254
6056.17,0.06505
6050.38,0.06006
6044.59,0.05804
6038.81,0.04781
6033.02,0.05268
6027.24,0.05161
6021.45,0.04522
6015.66,0.04264
6009.88,0.04048
6004.09,0.04471
5998.3,0.04318
5992.52,0.04240
5986.73,0.03872
5980.95,0.04219
5975.16,0.05020
5969.37,0.04734
5963.59,0.05121
5957.8,0.05643
5952.02,0.05461
5946.23,0.05703
5940.44,0.04970
5934.66,0.05005
5928.87,0.04956
5923.08,0.04771
5917.3,0.04970
5911.51,0.05651
5905.73,0.05777
5899.94,0.05526
5894.15,0.05968
5888.37,0.05853
5882.58,0.06082
5876.8,0.06246
5871.01,0.06752
5865.22,0.06881
5859.44,0.06984
5853.65,0.08227
5847.86,0.07982
5842.08,0.08174
5836.29,0.07511
5830.51,0.08268
5824.72,0.08458
5818.93,0.08389
5813.15,0.08362
5807.36,0.08218
5801.58,0.07946
5795.79,0.08182
5790,0.08254
5784.22,0.07669
5778.43,0.08018
5772.65,0.07458
5766.86,0.07539
5761.07,0.07382
5755.29,0.07571
5749.5,0.07929
5743.71,0.08796
5737.93,0.08858
5732.14,0.09342
5726.36,0.09411
5720.57,0.09576
5714.78,0.10065
5709,0.10051
5703.21,0.09900
5697.43,0.10158
5691.64,0.10107
5685.85,0.10015
5680.07,0.09762
5674.28,0.09502
5668.49,0.09331
5662.71,0.09202
5656.92,0.09487
5651.14,0.09820
5645.35,0.10152
5639.56,0.09971
5633.78,0.10143
5627.99,0.10395
5622.21,0.10922
5616.42,0.11057
5610.63,0.11067
5604.85,0.10841
5599.06,0.11064
5593.27,0.10972
5587.49,0.11108
5581.7,0.11260
5575.92,0.11108
5570.13,0.10999
5564.34,0.11375
5558.56,0.11130
5552.77,0.11072
5546.99,0.11045
5541.2,0.11097
5535.41,0.11103
5529.63,0.10724
5523.84,0.10708
5518.05,0.10933
5512.27,0.10964
5506.48,0.11167
5500.7,0.10862
5494.91,0.10941
5489.12,0.10878
5483.34,0.10940
5477.55,0.10928
5471.77,0.11104
5465.98,0.11148
5460.19,0.10768
5454.41,0.11237
5448.62,0.11214
5442.83,0.11108
5437.05,0.11404
5431.26,0.11155
5425.48,0.11412
5419.69,0.11547
5413.9,0.11164
5408.12,0.11026
5402.33,0.11186
5396.55,0.11506
5390.76,0.11207
5384.97,0.11863
5379.19,0.11335
5373.4,0.11221
5367.61,0.11734
5361.83,0.11770
5356.04,0.11518
5350.26,0.11485
5344.47,0.11668
5338.68,0.11483
5332.9,0.10986
5327.11,0.11676
5321.33,0.11412
5315.54,0.11359
5309.75,0.11314
5303.97,0.11116
5298.18,0.11049
5292.39,0.11012
5286.61,0.10774
5280.82,0.10483
5275.04,0.10137
5269.25,0.10054
5263.46,0.09957
5257.68,0.10118
5251.89,0.10459
5246.11,0.10675
5240.32,0.10831
5234.53,0.11527
5228.75,0.11640
5222.96,0.11969
5217.18,0.12152
5211.39,0.11896
5205.6,0.11985
5199.82,0.12064
5194.03,0.12076
5188.24,0.11759
5182.46,0.11716
5176.67,0.11852
5170.89,0.11989
5165.1,0.12069
5159.31,0.12012
5153.53,0.11960
5147.74,0.12041
5141.96,0.12204
5136.17,0.12046
5130.38,0.12352
5124.6,0.12475
5118.81,0.12458
5113.02,0.12382
5107.24,0.12427
5101.45,0.12210
5095.67,0.12586
5089.88,0.12459
5084.09,0.12404
5078.31,0.12249
5072.52,0.12281
5066.74,0.12580
5060.95,0.12586
5055.16,0.12604
5049.38,0.12538
5043.59,0.12585
5037.8,0.12744
5032.02,0.12582
5026.23,0.12481
5020.45,0.12451
5014.66,0.12363
5008.87,0.12566
5003.09,0.12233
4997.3,0.12199
4991.52,0.12219
4985.73,0.12211
4979.94,0.12360
4974.16,0.12118
4968.37,0.12143
4962.58,0.12104
4956.8,0.12166
4951.01,0.12121
4945.23,0.12137
4939.44,0.12324
4933.65,0.12127
4927.87,0.12084
4922.08,0.11966
4916.3,0.11871
4910.51,0.11612
4904.72,0.11363
4898.94,0.11380
4893.15,0.11150
4887.36,0.11199
4881.58,0.10896
4875.79,0.11186
4870.01,0.11134
4864.22,0.11083
4858.43,0.10735
4852.65,0.10578
4846.86,0.10238
4841.08,0.10352
4835.29,0.10628
4829.5,0.10685
4823.72,0.10657
4817.93,0.10800
4812.14,0.10816
4806.36,0.10853
4800.57,0.10935
4794.79,0.10746
4789,0.10639
4783.21,0.10514
4777.43,0.10498
4771.64,0.10190
4765.86,0.09973
4760.07,0.09827
4754.28,0.09746
4748.5,0.09208
4742.71,0.09163
4736.92,0.08521
4731.14,0.08052
4725.35,0.07603
4719.57,0.07108
4713.78,0.06658
4707.99,0.06086
4702.21,0.05751
4696.42,0.05647
4690.64,0.05388
4684.85,0.05254
4679.06,0.05314
4673.28,0.05673
4667.49,0.05558
4661.7,0.05695
4655.92,0.05668
4650.13,0.05534
4644.35,0.05518
4638.56,0.05557
4632.77,0.05444
4626.99,0.05507
4621.2,0.05830
4615.42,0.06218
4609.63,0.06817
4603.84,0.06998
4598.06,0.07194
4592.27,0.07002
4586.49,0.06835
4580.7,0.06547
4574.91,0.06474
4569.13,0.06816
4563.34,0.07132
4557.55,0.07608
4551.77,0.08119
4545.98,0.08377
4540.2,0.08398
4534.41,0.08202
4528.62,0.08307
4522.84,0.08326
4517.05,0.08490
4511.27,0.08349
4505.48,0.08284
4499.69,0.08013
4493.91,0.07550
4488.12,0.07284
4482.33,0.07011
4476.55,0.07046
4470.76,0.07027
4464.98,0.07022
4459.19,0.07040
4453.4,0.06718
4447.62,0.06533
4441.83,0.06134
4436.05,0.05954
4430.26,0.05806
4424.47,0.05672
4418.69,0.05659
4412.9,0.05501
4407.11,0.05461
4401.33,0.05559
4395.54,0.05611
4389.76,0.05745
4383.97,0.05643
4378.18,0.05717
4372.4,0.05419
4366.61,0.05463
4360.83,0.05737
4355.04,0.05614
4349.25,0.05631
4343.47,0.05612
4337.68,0.05657
4331.89,0.05533
4326.11,0.05557
4320.32,0.05518
4314.54,0.05591
4308.75,0.05661
4302.96,0.05624
4297.18,0.05722
4291.39,0.05624
4285.61,0.05658
4279.82,0.05497
4274.03,0.05710
4268.25,0.05639
4262.46,0.05716
4256.67,0.05831
4250.89,0.05712
4245.1,0.05750
4239.32,0.05681
4233.53,0.05665
4227.74,0.05685
4221.96,0.05706
4216.17,0.05670
4210.39,0.05756
4204.6,0.05659
4198.81,0.05646
4193.03,0.05610
4187.24,0.05729
4181.45,0.05714
4175.67,0.05654
4169.88,0.05788
4164.1,0.05756
4158.31,0.05820
4152.52,0.05831
4146.74,0.05875
4140.95,0.05855
4135.17,0.05888
4129.38,0.05834
4123.59,0.05921
4117.81,0.05826
4112.02,0.05729
4106.23,0.05688
4100.45,0.05692
4094.66,0.05697
4088.88,0.05698
4083.09,0.05632
4077.3,0.05706
4071.52,0.05787
4065.73,0.05691
4059.95,0.05750
4054.16,0.05798
4048.37,0.05755
4042.59,0.05749
4036.8,0.05864
4031.02,0.05907
4025.23,0.05940
4019.44,0.05912
4013.66,0.05948
4007.87,0.05862
4002.08,0.05919
3996.3,0.06015
3990.51,0.05940
3984.73,0.06006
3978.94,0.05936
3973.15,0.05931
3967.37,0.06059
3961.58,0.06185
3955.8,0.06150
3950.01,0.06088
3944.22,0.06093
3938.44,0.06030
3932.65,0.05973
3926.86,0.06071
3921.08,0.06002
3915.29,0.05992
3909.51,0.05959
3903.72,0.05926
3897.93,0.06005
3892.15,0.05852
3886.36,0.05887
3880.58,0.05928
3874.79,0.05904
3869,0.06004
3863.22,0.06186
3857.43,0.06244
3851.64,0.06470
3845.86,0.06600
3840.07,0.06661
3834.29,0.06722
3828.5,0.06702
3822.71,0.06763
3816.93,0.06842
3811.14,0.06702
3805.36,0.06750
3799.57,0.06915
3793.78,0.06974
3788,0.07279
3782.21,0.07412
3776.42,0.07408
3770.64,0.07148
3764.85,0.07013
3759.07,0.06825
3753.28,0.06585
3747.49,0.06370
3741.71,0.06411
3735.92,0.06521
3730.14,0.06740
3724.35,0.06739
3718.56,0.06471
3712.78,0.06302
3706.99,0.06202
3701.2,0.05977
3695.42,0.05910
3689.63,0.05769
3683.85,0.05836
3678.06,0.05774
3672.27,0.05960
3666.49,0.05822
3660.7,0.05830
3654.92,0.05875
3649.13,0.05769
3643.34,0.05953
3637.56,0.06025
3631.77,0.06046
3625.98,0.06255
3620.2,0.06281
3614.41,0.06484
3608.63,0.06392
3602.84,0.06252
3597.05,0.06041
3591.27,0.05848
3585.48,0.05888
3579.7,0.05791
3573.91,0.05803
3568.12,0.05778
3562.34,0.05823
3556.55,0.05786
3550.76,0.05807
3544.98,0.05776
3539.19,0.05792
3533.41,0.05865
3527.62,0.05804
3521.83,0.05863
3516.05,0.05861
3510.26,0.05860
3504.48,0.05902
3498.69,0.05818
3492.9,0.05910
3487.12,0.06003
3481.33,0.06021
3475.55,0.06067
3469.76,0.06137
3463.97,0.06186
3458.19,0.06387
3452.4,0.06420
3446.61,0.06563
3440.83,0.06649
3435.04,0.06704
3429.26,0.06857
3423.47,0.06964
3417.68,0.07055
3411.9,0.06947
3406.11,0.07040
3400.33,0.06922
3394.54,0.06815
3388.75,0.06659
3382.97,0.06498
3377.18,0.06491
3371.39,0.06448
3365.61,0.06487
3359.82,0.06503
3354.04,0.06606
3348.25,0.06510
3342.46,0.06571
3336.68,0.06392
3330.89,0.06312
3325.11,0.06257
3319.32,0.06201
3313.53,0.06062
3307.75,0.06088
3301.96,0.06019
3296.17,0.05922
3290.39,0.05877
3284.6,0.05846
3278.82,0.05929
3273.03,0.05882
3267.24,0.05937
3261.46,0.05865
3255.67,0.05865
3249.89,0.05847
3244.1,0.05873
3238.31,0.05793
3232.53,0.05874
3226.74,0.05790
3220.95,0.05805
3215.17,0.05872
3209.38,0.05827
3203.6,0.05880
3197.81,0.05891
3192.02,0.05893
3186.24,0.05845
3180.45,0.05872
3174.67,0.05853
3168.88,0.05774
3163.09,0.05872
3157.31,0.05865
3151.52,0.05869
3145.73,0.05856
3139.95,0.05911
3134.16,0.05864
3128.38,0.05882
3122.59,0.05798
3116.8,0.05800
3111.02,0.05882
3105.23,0.05852
3099.45,0.05861
3093.66,0.05796
3087.87,0.05757
3082.09,0.05795
3076.3,0.05840
3070.51,0.05858
3064.73,0.05876
3058.94,0.05896
3053.16,0.05894
3047.37,0.05845
3041.58,0.05935
3035.8,0.05894
3030.01,0.05859
3024.23,0.05858
3018.44,0.05865
3012.65,0.05868
3006.87,0.05857
3001.08,0.05834
2995.29,0.05769
2989.51,0.05748
2983.72,0.05757
2977.94,0.05684
2972.15,0.05825
2966.36,0.06066
2960.58,0.06142
2954.79,0.06060
2949.01,0.06003
2943.22,0.06026
2937.43,0.06021
2931.65,0.06129
2925.86,0.06116
2920.08,0.06014
2914.29,0.06011
2908.5,0.06122
2902.72,0.06046
2896.93,0.06020
2891.14,0.06020
2885.36,0.06028
2879.57,0.06001
2873.79,0.06130
2868,0.06049
2862.21,0.06102
2856.43,0.06103
2850.64,0.06132
2844.86,0.06079
2839.07,0.06071
2833.28,0.06097
2827.5,0.06008
2821.71,0.06044
2815.92,0.06078
2810.14,0.06064
2804.35,0.06040
2798.57,0.06057
2792.78,0.06061
2786.99,0.06083
2781.21,0.06105
2775.42,0.06078
2769.64,0.05999
2763.85,0.06083
2758.06,0.06085
2752.28,0.06113
2746.49,0.06183
2740.7,0.06132
2734.92,0.06112
2729.13,0.06086
2723.35,0.06139
2717.56,0.06140
2711.77,0.06148
2705.99,0.06233
2700.2,0.06257
2694.42,0.06317
2688.63,0.06405
2682.84,0.06415
2677.06,0.06396
2671.27,0.06392
2665.48,0.06357
2659.7,0.06404
2653.91,0.06522
2648.13,0.06667
2642.34,0.06821
2636.55,0.06729
2630.77,0.06579
2624.98,0.06310
2619.2,0.06162
2613.41,0.06121
2607.62,0.06109
2601.84,0.06176
2596.05,0.06116
2590.26,0.06130
2584.48,0.06168
2578.69,0.06144
2572.91,0.06109
2567.12,0.06253
2561.33,0.06354
2555.55,0.06332
2549.76,0.06312
2543.98,0.06239
2538.19,0.06151
2532.4,0.06143
2526.62,0.06156
2520.83,0.06159
2515.04,0.06173
2509.26,0.06111
2503.47,0.06101
2497.69,0.06103
2491.9,0.06054
2486.11,0.06061
2480.33,0.06073
2474.54,0.06061
2468.76,0.06089
2462.97,0.06105
2457.18,0.06112
2451.4,0.06105
2445.61,0.06091
2439.82,0.06106
2434.04,0.06082
2428.25,0.06063
2422.47,0.06102
2416.68,0.06050
2410.89,0.06082
2405.11,0.06104
2399.32,0.06091
2393.54,0.06103
2387.75,0.06120
2381.96,0.06135
2376.18,0.06203
2370.39,0.06104
2364.61,0.06191
2358.82,0.06194
2353.03,0.06102
2347.25,0.06105
2341.46,0.06082
2335.67,0.06150
2329.89,0.06111
2324.1,0.06116
2318.32,0.06077
2312.53,0.06115
2306.74,0.06135
2300.96,0.06148
2295.17,0.06089
2289.39,0.06087
2283.6,0.06056
2277.81,0.06086
2272.03,0.06037
2266.24,0.06070
2260.45,0.06073
2254.67,0.06052
2248.88,0.06080
2243.1,0.06080
2237.31,0.06082
2231.52,0.06087
2225.74,0.06079
2219.95,0.06088
2214.17,0.06106
2208.38,0.06113
2202.59,0.06118
2196.81,0.06145
2191.02,0.06139
2185.23,0.06099
2179.45,0.06112
2173.66,0.06104
2167.88,0.06050
2162.09,0.06095
2156.3,0.06106
2150.52,0.06117
2144.73,0.06150
2138.95,0.06122
2133.16,0.06076
2127.37,0.06063
2121.59,0.06064
2115.8,0.06058
2110.01,0.06065
2104.23,0.06042
2098.44,0.06005
2092.66,0.05972
2086.87,0.06020
2081.08,0.06014
2075.3,0.06044
2069.51,0.06017
2063.73,0.06041
2057.94,0.05992
2052.15,0.06022
2046.37,0.05989
2040.58,0.05962
2034.79,0.06003
2029.01,0.06033
2023.22,0.05970
2017.44,0.05966
2011.65,0.06004
2005.86,0.05991
2000.08,0.05939
1994.29,0.05975
1988.51,0.05994
1982.72,0.06003
1976.93,0.05951
1971.15,0.05933
1965.36,0.05930
1959.57,0.05930
1953.79,0.05920
1948,0.05899
1942.22,0.05877
1936.43,0.05890
1930.64,0.05870
1924.86,0.05836
1919.07,0.05852
1913.29,0.05831
1907.5,0.05782
1901.71,0.05806
1895.93,0.05793
1890.14,0.05800
1884.35,0.05776
1878.57,0.05734
1872.78,0.05710
1867,0.05657
1861.21,0.05676
1855.42,0.05644
1849.64,0.05588
1843.85,0.05552
1838.07,0.05484
1832.28,0.05394
1826.49,0.05322
1820.71,0.05243
1814.92,0.05104
1809.13,0.04889
1803.35,0.04674
1797.56,0.04360
1791.78,0.04243
1785.99,0.04729
1780.2,0.05978
1774.42,0.07513
1768.63,0.08724
1762.85,0.08614
1757.06,0.07923
1751.27,0.07395
1745.49,0.07055
1739.7,0.06838
1733.92,0.06710
1728.13,0.06628
1722.34,0.06540
1716.56,0.06479
1710.77,0.06424
1704.98,0.06294
1699.2,0.06285
1693.41,0.06150
1687.63,0.06167
1681.84,0.06139
1676.05,0.06133
1670.27,0.06031
1664.48,0.05947
1658.7,0.05968
1652.91,0.05964
1647.12,0.05961
1641.34,0.05945
1635.55,0.05893
1629.76,0.05908
1623.98,0.05856
1618.19,0.05865
1612.41,0.05746
1606.62,0.05746
1600.83,0.05829
1595.05,0.05877
1589.26,0.05904
1583.48,0.05838
1577.69,0.05808
1571.9,0.05701
1566.12,0.05636
1560.33,0.05556
1554.54,0.05489
1548.76,0.05394
1542.97,0.05358
1537.19,0.05218
1531.4,0.05099
1525.61,0.04898
1519.83,0.04553
1514.04,0.04228
1508.26,0.05154
1502.47,0.07252
1496.68,0.07230
1490.9,0.06878
1485.11,0.06517
1479.32,0.06286
1473.54,0.06190
1467.75,0.06013
1461.97,0.06063
1456.18,0.05973
1450.39,0.05868
1444.61,0.05841
1438.82,0.05781
1433.04,0.05665
1427.25,0.05561
1421.46,0.05488
1415.68,0.05279
1409.89,0.05422
1404.1,0.05592
1398.32,0.05518
1392.53,0.05353
1386.75,0.05344
1380.96,0.05332
1375.17,0.05121
1369.39,0.04956
1363.6,0.05204
1357.82,0.05190
1352.03,0.05016
1346.24,0.04886
1340.46,0.04769
1334.67,0.04589
1328.88,0.04425
1323.1,0.04266
1317.31,0.04031
1311.53,0.03864
1305.74,0.03727
1299.95,0.03502
1294.17,0.03437
1288.38,0.03456
1282.6,0.03190
1276.81,0.02750
1271.02,0.02240
1265.24,0.02043
1259.45,0.03678
1253.66,0.07114
1247.88,0.09632
1242.09,0.10951
1236.31,0.12239
1230.52,0.13400
1224.73,0.14002
1218.95,0.13219
1213.16,0.10677
1207.38,0.07713
1201.59,0.09211
1195.8,0.14625
1190.02,0.16687
1184.23,0.14096
1178.45,0.11124
1172.66,0.08834
1166.87,0.11142
1161.09,0.15573
1155.3,0.13889
1149.51,0.12100
1143.73,0.11202
1137.94,0.10527
1132.16,0.09909
1126.37,0.09490
1120.58,0.09153
1114.8,0.08874
1109.01,0.08776
1103.23,0.08769
1097.44,0.08731
1091.65,0.08188
1085.87,0.07755
1080.08,0.09205
1074.29,0.09389
1068.51,0.08791
1062.72,0.08445
1056.94,0.08313
1051.15,0.08085
1045.36,0.07874
1039.58,0.07685
1033.79,0.07396
1028.01,0.06901
1022.22,0.06317
1016.43,0.07929
1010.65,0.09601
1004.86,0.09315
999.075,0.08999
993.288,0.08677
987.502,0.08516
981.716,0.08358
975.93,0.08169
970.144,0.08034
964.358,0.07928
958.572,0.07879
952.785,0.07834
946.999,0.07687
941.213,0.07695
935.427,0.07634
929.641,0.07513
923.855,0.07456
918.068,0.07497
912.282,0.07392
906.496,0.07288
900.71,0.07089
894.924,0.06955
889.138,0.07129
883.352,0.07573
877.565,0.07461
871.779,0.07308
865.993,0.07105
860.207,0.06844
854.421,0.06586
848.635,0.06557
842.849,0.06699
837.062,0.06956
831.276,0.07836
825.49,0.08509
819.704,0.08404
813.918,0.08505
808.132,0.08482
802.346,0.08266
796.559,0.07939
790.773,0.07723
784.987,0.07473
779.201,0.07293
773.415,0.07485
767.629,0.07803
761.843,0.07953
756.056,0.08104
750.27,0.08019
744.484,0.07870
738.698,0.07792
732.912,0.07701
727.126,0.07745
721.34,0.07632
715.553,0.07624
709.767,0.07681
703.981,0.07776
698.195,0.07727
692.409,0.07716
686.623,0.07678
680.837,0.07665
675.05,0.07534
669.264,0.07464
663.478,0.07452
657.692,0.07520
651.906,0.07337
646.12,0.07257
640.333,0.07159
634.547,0.07242
628.761,0.07363
622.975,0.07290
617.189,0.07142
611.403,0.07220
605.617,0.06863
599.83,0.06893