File: 01_Data/PC/FTIR/IS/PC_1.52_T_IS_230516_R1.dpt
7496.92,0.06352
7491.13,0.06320
7485.34,0.04779
7479.56,0.09466
7473.77,0.03189
7467.99,0.02504
7462.2,0.07156
7456.41,0.07161
7450.63,0.07019
7444.84,0.07130
7439.06,0.05338
7433.27,0.06938
7427.48,0.05737
7421.7,0.05341
7415.91,0.05504
7410.12,0.04383
7404.34,0.03070
7398.55,0.01876
7392.77,0.07530
7386.98,0.06948
7381.19,0.06741
7375.41,0.06513
7369.62,0.05418
7363.84,0.03806
7358.05,0.08305
7352.26,0.03979
7346.48,0.05557
7340.69,0.07595
7334.9,0.05266
7329.12,0.05518
7323.33,0.03648
7317.55,0.03848
7311.76,0.08282
7305.97,0.05445
7300.19,0.05205
7294.4,0.04727
7288.62,0.04421
7282.83,0.02684
7277.04,0.05896
7271.26,0.04158
7265.47,0.04233
7259.68,0.02824
7253.9,0.05459
7248.11,0.04244
7242.33,0.04253
7236.54,0.06505
7230.75,0.04664
7224.97,0.05758
7219.18,0.03226
7213.4,0.05621
7207.61,0.04475
7201.82,0.01581
7196.04,0.03196
7190.25,0.04070
7184.46,0.06338
7178.68,0.03552
7172.89,0.04630
7167.11,0.07372
7161.32,0.04316
7155.53,0.03269
7149.75,0.05418
7143.96,0.03397
7138.18,0.05906
7132.39,0.06353
7126.6,0.03388
7120.82,0.05813
7115.03,0.05964
7109.24,0.04030
7103.46,0.04629
7097.67,0.04772
7091.89,0.04668
7086.1,0.05138
7080.31,0.04379
7074.53,0.03853
7068.74,0.04020
7062.96,0.06881
7057.17,0.05768
7051.38,0.04102
7045.6,0.05230
7039.81,0.06699
7034.02,0.02578
7028.24,0.02845
7022.45,0.03567
7016.67,0.04585
7010.88,0.04401
7005.09,0.06097
6999.31,0.04279
6993.52,0.04681
6987.74,0.04603
6981.95,0.05490
6976.16,0.03604
6970.38,0.04235
6964.59,0.05278
6958.8,0.05108
6953.02,0.05549
6947.23,0.03236
6941.45,0.02602
6935.66,0.04796
6929.87,0.05302
6924.09,0.04889
6918.3,0.05046
6912.52,0.04351
6906.73,0.05488
6900.94,0.04637
6895.16,0.05083
6889.37,0.03762
6883.59,0.03527
6877.8,0.03816
6872.01,0.04076
6866.23,0.03477
6860.44,0.03899
6854.65,0.04348
6848.87,0.01455
6843.08,0.02782
6837.3,0.03846
6831.51,0.02550
6825.72,0.04262
6819.94,0.04661
6814.15,0.04391
6808.37,0.03746
6802.58,0.04556
6796.79,0.04979
6791.01,0.03304
6785.22,0.02923
6779.43,0.03611
6773.65,0.02848
6767.86,0.02891
6762.08,0.04000
6756.29,0.04262
6750.5,0.03441
6744.72,0.03393
6738.93,0.05243
6733.15,0.03668
6727.36,0.04190
6721.57,0.03782
6715.79,0.03903
6710,0.03763
6704.21,0.03543
6698.43,0.03257
6692.64,0.04302
6686.86,0.04565
6681.07,0.04108
6675.28,0.03319
6669.5,0.04518
6663.71,0.04613
6657.93,0.04227
6652.14,0.05624
6646.35,0.03799
6640.57,0.03350
6634.78,0.04189
6628.99,0.03036
6623.21,0.03789
6617.42,0.03874
6611.64,0.03076
6605.85,0.03389
6600.06,0.04279
6594.28,0.03780
6588.49,0.03708
6582.71,0.03236
6576.92,0.03438
6571.13,0.03475
6565.35,0.03765
6559.56,0.04342
6553.77,0.03317
6547.99,0.02962
6542.2,0.02999
6536.42,0.02980
6530.63,0.02882
6524.84,0.03009
6519.06,0.04276
6513.27,0.03219
6507.49,0.03907
6501.7,0.04664
6495.91,0.03322
6490.13,0.03297
6484.34,0.04183
6478.55,0.03113
6472.77,0.02575
6466.98,0.04403
6461.2,0.03377
6455.41,0.03260
6449.62,0.03565
6443.84,0.04383
6438.05,0.03572
6432.27,0.03480
6426.48,0.02031
6420.69,0.04687
6414.91,0.03980
6409.12,0.03354
6403.33,0.03737
6397.55,0.03655
6391.76,0.03324
6385.98,0.02996
6380.19,0.03474
6374.4,0.03543
6368.62,0.02854
6362.83,0.03983
6357.05,0.03913
6351.26,0.03151
6345.47,0.03082
6339.69,0.02992
6333.9,0.03281
6328.12,0.03956
6322.33,0.03973
6316.54,0.02795
6310.76,0.02850
6304.97,0.04116
6299.18,0.03763
6293.4,0.03122
6287.61,0.03672
6281.83,0.03258
6276.04,0.03258
6270.25,0.04135
6264.47,0.04346
6258.68,0.02944
6252.9,0.03247
6247.11,0.02921
6241.32,0.04304
6235.54,0.04294
6229.75,0.03516
6223.96,0.03296
6218.18,0.03679
6212.39,0.03340
6206.61,0.03984
6200.82,0.02796
6195.03,0.02796
6189.25,0.02990
6183.46,0.02851
6177.68,0.03010
6171.89,0.03225
6166.1,0.03281
6160.32,0.03804
6154.53,0.03241
6148.74,0.03506
6142.96,0.03578
6137.17,0.02803
6131.39,0.02333
6125.6,0.02861
6119.81,0.02959
6114.03,0.03337
6108.24,0.03313
6102.46,0.02279
6096.67,0.03065
6090.88,0.03469
6085.1,0.02627
6079.31,0.03454
6073.52,0.03103
6067.74,0.03018
6061.95,0.03438
6056.17,0.02984
6050.38,0.03110
6044.59,0.02908
6038.81,0.03519
6033.02,0.03042
6027.24,0.03158
6021.45,0.02894
6015.66,0.03225
6009.88,0.02642
6004.09,0.02959
5998.3,0.02661
5992.52,0.02916
5986.73,0.02741
5980.95,0.03089
5975.16,0.03328
5969.37,0.02873
5963.59,0.02667
5957.8,0.02610
5952.02,0.02984
5946.23,0.02869
5940.44,0.02955
5934.66,0.02901
5928.87,0.02350
5923.08,0.02694
5917.3,0.02686
5911.51,0.02773
5905.73,0.03208
5899.94,0.02997
5894.15,0.03079
5888.37,0.03096
5882.58,0.02894
5876.8,0.02536
5871.01,0.03267
5865.22,0.02610
5859.44,0.02645
5853.65,0.03117
5847.86,0.02886
5842.08,0.02859
5836.29,0.02939
5830.51,0.02773
5824.72,0.03020
5818.93,0.02974
5813.15,0.03048
5807.36,0.03063
5801.58,0.02561
5795.79,0.02600
5790,0.02422
5784.22,0.02273
5778.43,0.02787
5772.65,0.02843
5766.86,0.02971
5761.07,0.03136
5755.29,0.03029
5749.5,0.03247
5743.71,0.03194
5737.93,0.03192
5732.14,0.02665
5726.36,0.03118
5720.57,0.02682
5714.78,0.02437
5709,0.02400
5703.21,0.02815
5697.43,0.02791
5691.64,0.03036
5685.85,0.02653
5680.07,0.02733
5674.28,0.02472
5668.49,0.02947
5662.71,0.02502
5656.92,0.02927
5651.14,0.02769
5645.35,0.02567
5639.56,0.02597
5633.78,0.02794
5627.99,0.02655
5622.21,0.02723
5616.42,0.02818
5610.63,0.02803
5604.85,0.02686
5599.06,0.02813
5593.27,0.02896
5587.49,0.02751
5581.7,0.02834
5575.92,0.02491
5570.13,0.02510
5564.34,0.02828
5558.56,0.03064
5552.77,0.03121
5546.99,0.02741
5541.2,0.02614
5535.41,0.02757
5529.63,0.02437
5523.84,0.02715
5518.05,0.02486
5512.27,0.03135
5506.48,0.03032
5500.7,0.02905
5494.91,0.02590
5489.12,0.02649
5483.34,0.02760
5477.55,0.02720
5471.77,0.02475
5465.98,0.02574
5460.19,0.02953
5454.41,0.02755
5448.62,0.02777
5442.83,0.02452
5437.05,0.02636
5431.26,0.02649
5425.48,0.02820
5419.69,0.02874
5413.9,0.02725
5408.12,0.02570
5402.33,0.03026
5396.55,0.02997
5390.76,0.02528
5384.97,0.02558
5379.19,0.03085
5373.4,0.02620
5367.61,0.02835
5361.83,0.02552
5356.04,0.02516
5350.26,0.02597
5344.47,0.02802
5338.68,0.02755
5332.9,0.02756
5327.11,0.02610
5321.33,0.02486
5315.54,0.02615
5309.75,0.02494
5303.97,0.02484
5298.18,0.02671
5292.39,0.02702
5286.61,0.02585
5280.82,0.02424
5275.04,0.02581
5269.25,0.02689
5263.46,0.02463
5257.68,0.02649
5251.89,0.02327
5246.11,0.02411
5240.32,0.02445
5234.53,0.02667
5228.75,0.02479
5222.96,0.02380
5217.18,0.02571
5211.39,0.02533
5205.6,0.02548
5199.82,0.02715
5194.03,0.02527
5188.24,0.02541
5182.46,0.02510
5176.67,0.02585
5170.89,0.02691
5165.1,0.02619
5159.31,0.02656
5153.53,0.02295
5147.74,0.02514
5141.96,0.02517
5136.17,0.02532
5130.38,0.02211
5124.6,0.02601
5118.81,0.02756
5113.02,0.02268
5107.24,0.02362
5101.45,0.02478
5095.67,0.02528
5089.88,0.02561
5084.09,0.02582
5078.31,0.02577
5072.52,0.02506
5066.74,0.02612
5060.95,0.02595
5055.16,0.02316
5049.38,0.02584
5043.59,0.02406
5037.8,0.02571
5032.02,0.02453
5026.23,0.02443
5020.45,0.02261
5014.66,0.02462
5008.87,0.02513
5003.09,0.02465
4997.3,0.02619
4991.52,0.02762
4985.73,0.02631
4979.94,0.02534
4974.16,0.02491
4968.37,0.02475
4962.58,0.02431
4956.8,0.02585
4951.01,0.02472
4945.23,0.02289
4939.44,0.02548
4933.65,0.02459
4927.87,0.02529
4922.08,0.02451
4916.3,0.02488
4910.51,0.02423
4904.72,0.02543
4898.94,0.02332
4893.15,0.02367
4887.36,0.02473
4881.58,0.02512
4875.79,0.02340
4870.01,0.02398
4864.22,0.02300
4858.43,0.02433
4852.65,0.02499
4846.86,0.02411
4841.08,0.02512
4835.29,0.02517
4829.5,0.02463
4823.72,0.02365
4817.93,0.02328
4812.14,0.02347
4806.36,0.02427
4800.57,0.02312
4794.79,0.02334
4789,0.02531
4783.21,0.02455
4777.43,0.02341
4771.64,0.02346
4765.86,0.02413
4760.07,0.02405
4754.28,0.02386
4748.5,0.02383
4742.71,0.02464
4736.92,0.02391
4731.14,0.02316
4725.35,0.02604
4719.57,0.02379
4713.78,0.02508
4707.99,0.02632
4702.21,0.02518
4696.42,0.02422
4690.64,0.02392
4684.85,0.02450
4679.06,0.02398
4673.28,0.02377
4667.49,0.02440
4661.7,0.02459
4655.92,0.02510
4650.13,0.02356
4644.35,0.02532
4638.56,0.02488
4632.77,0.02409
4626.99,0.02281
4621.2,0.02362
4615.42,0.02476
4609.63,0.02384
4603.84,0.02313
4598.06,0.02406
4592.27,0.02249
4586.49,0.02468
4580.7,0.02436
4574.91,0.02372
4569.13,0.02366
4563.34,0.02412
4557.55,0.02301
4551.77,0.02253
4545.98,0.02353
4540.2,0.02323
4534.41,0.02407
4528.62,0.02359
4522.84,0.02399
4517.05,0.02335
4511.27,0.02437
4505.48,0.02341
4499.69,0.02343
4493.91,0.02344
4488.12,0.02335
4482.33,0.02350
4476.55,0.02292
4470.76,0.02346
4464.98,0.02318
4459.19,0.02367
4453.4,0.02428
4447.62,0.02327
4441.83,0.02373
4436.05,0.02324
4430.26,0.02404
4424.47,0.02471
4418.69,0.02319
4412.9,0.02247
4407.11,0.02258
4401.33,0.02343
4395.54,0.02296
4389.76,0.02288
4383.97,0.02474
4378.18,0.02421
4372.4,0.02382
4366.61,0.02339
4360.83,0.02406
4355.04,0.02275
4349.25,0.02364
4343.47,0.02365
4337.68,0.02302
4331.89,0.02341
4326.11,0.02238
4320.32,0.02350
4314.54,0.02277
4308.75,0.02337
4302.96,0.02381
4297.18,0.02339
4291.39,0.02403
4285.61,0.02237
4279.82,0.02318
4274.03,0.02377
4268.25,0.02371
4262.46,0.02285
4256.67,0.02391
4250.89,0.02381
4245.1,0.02329
4239.32,0.02354
4233.53,0.02441
4227.74,0.02293
4221.96,0.02299
4216.17,0.02388
4210.39,0.02473
4204.6,0.02457
4198.81,0.02294
4193.03,0.02385
4187.24,0.02286
4181.45,0.02326
4175.67,0.02397
4169.88,0.02462
4164.1,0.02297
4158.31,0.02274
4152.52,0.02361
4146.74,0.02361
4140.95,0.02391
4135.17,0.02367
4129.38,0.02277
4123.59,0.02380
4117.81,0.02359
4112.02,0.02369
4106.23,0.02384
4100.45,0.02321
4094.66,0.02413
4088.88,0.02342
4083.09,0.02371
4077.3,0.02475
4071.52,0.02452
4065.73,0.02445
4059.95,0.02309
4054.16,0.02259
4048.37,0.02354
4042.59,0.02321
4036.8,0.02473
4031.02,0.02288
4025.23,0.02334
4019.44,0.02332
4013.66,0.02318
4007.87,0.02424
4002.08,0.02329
3996.3,0.02452
3990.51,0.02272
3984.73,0.02244
3978.94,0.02305
3973.15,0.02311
3967.37,0.02403
3961.58,0.02439
3955.8,0.02398
3950.01,0.02312
3944.22,0.02324
3938.44,0.02362
3932.65,0.02454
3926.86,0.02544
3921.08,0.02380
3915.29,0.02360
3909.51,0.02325
3903.72,0.02443
3897.93,0.02392
3892.15,0.02362
3886.36,0.02437
3880.58,0.02371
3874.79,0.02349
3869,0.02362
3863.22,0.02390
3857.43,0.02363
3851.64,0.02543
3845.86,0.02428
3840.07,0.02369
3834.29,0.02444
3828.5,0.02477
3822.71,0.02400
3816.93,0.02359
3811.14,0.02373
3805.36,0.02381
3799.57,0.02425
3793.78,0.02344
3788,0.02395
3782.21,0.02375
3776.42,0.02302
3770.64,0.02393
3764.85,0.02339
3759.07,0.02363
3753.28,0.02330
3747.49,0.02539
3741.71,0.02443
3735.92,0.02430
3730.14,0.02339
3724.35,0.02342
3718.56,0.02479
3712.78,0.02373
3706.99,0.02500
3701.2,0.02346
3695.42,0.02332
3689.63,0.02401
3683.85,0.02347
3678.06,0.02350
3672.27,0.02426
3666.49,0.02395
3660.7,0.02337
3654.92,0.02270
3649.13,0.02207
3643.34,0.02299
3637.56,0.02344
3631.77,0.02271
3625.98,0.02416
3620.2,0.02274
3614.41,0.02283
3608.63,0.02288
3602.84,0.02283
3597.05,0.02293
3591.27,0.02301
3585.48,0.02200
3579.7,0.02241
3573.91,0.02287
3568.12,0.02309
3562.34,0.02191
3556.55,0.02227
3550.76,0.02240
3544.98,0.02255
3539.19,0.02257
3533.41,0.02297
3527.62,0.02186
3521.83,0.02196
3516.05,0.02232
3510.26,0.02157
3504.48,0.02146
3498.69,0.02127
3492.9,0.02139
3487.12,0.02111
3481.33,0.02209
3475.55,0.02171
3469.76,0.02134
3463.97,0.02146
3458.19,0.02194
3452.4,0.02149
3446.61,0.02149
3440.83,0.02080
3435.04,0.02135
3429.26,0.02152
3423.47,0.02124
3417.68,0.02133
3411.9,0.02221
3406.11,0.02226
3400.33,0.02220
3394.54,0.02155
3388.75,0.02094
3382.97,0.02066
3377.18,0.02135
3371.39,0.02089
3365.61,0.02123
3359.82,0.02156
3354.04,0.02187
3348.25,0.02197
3342.46,0.02098
3336.68,0.02179
3330.89,0.02167
3325.11,0.02112
3319.32,0.02158
3313.53,0.02150
3307.75,0.02230
3301.96,0.02206
3296.17,0.02186
3290.39,0.02222
3284.6,0.02175
3278.82,0.02087
3273.03,0.02024
3267.24,0.02097
3261.46,0.02213
3255.67,0.02139
3249.89,0.02158
3244.1,0.02178
3238.31,0.02196
3232.53,0.02210
3226.74,0.02256
3220.95,0.02172
3215.17,0.02157
3209.38,0.02275
3203.6,0.02180
3197.81,0.02152
3192.02,0.02186
3186.24,0.02184
3180.45,0.02306
3174.67,0.02234
3168.88,0.02260
3163.09,0.02178
3157.31,0.02179
3151.52,0.02179
3145.73,0.02194
3139.95,0.02164
3134.16,0.02247
3128.38,0.02172
3122.59,0.02166
3116.8,0.02172
3111.02,0.02244
3105.23,0.02196
3099.45,0.02176
3093.66,0.02193
3087.87,0.02257
3082.09,0.02236
3076.3,0.02160
3070.51,0.02206
3064.73,0.02216
3058.94,0.02132
3053.16,0.02219
3047.37,0.02186
3041.58,0.02153
3035.8,0.02179
3030.01,0.02233
3024.23,0.02176
3018.44,0.02124
3012.65,0.02184
3006.87,0.02209
3001.08,0.02123
2995.29,0.02149
2989.51,0.02122
2983.72,0.02126
2977.94,0.02139
2972.15,0.02126
2966.36,0.02098
2960.58,0.02155
2954.79,0.02130
2949.01,0.02137
2943.22,0.02143
2937.43,0.02113
2931.65,0.02147
2925.86,0.02126
2920.08,0.02154
2914.29,0.02156
2908.5,0.02105
2902.72,0.02150
2896.93,0.02166
2891.14,0.02142
2885.36,0.02227
2879.57,0.02197
2873.79,0.02166
2868,0.02178
2862.21,0.02205
2856.43,0.02212
2850.64,0.02121
2844.86,0.02233
2839.07,0.02200
2833.28,0.02241
2827.5,0.02260
2821.71,0.02284
2815.92,0.02294
2810.14,0.02293
2804.35,0.02278
2798.57,0.02219
2792.78,0.02247
2786.99,0.02240
2781.21,0.02257
2775.42,0.02281
2769.64,0.02280
2763.85,0.02252
2758.06,0.02255
2752.28,0.02297
2746.49,0.02244
2740.7,0.02273
2734.92,0.02268
2729.13,0.02274
2723.35,0.02242
2717.56,0.02261
2711.77,0.02278
2705.99,0.02243
2700.2,0.02275
2694.42,0.02278
2688.63,0.02269
2682.84,0.02270
2677.06,0.02289
2671.27,0.02261
2665.48,0.02290
2659.7,0.02276
2653.91,0.02310
2648.13,0.02254
2642.34,0.02259
2636.55,0.02275
2630.77,0.02234
2624.98,0.02221
2619.2,0.02250
2613.41,0.02294
2607.62,0.02224
2601.84,0.02282
2596.05,0.02266
2590.26,0.02281
2584.48,0.02310
2578.69,0.02247
2572.91,0.02248
2567.12,0.02283
2561.33,0.02253
2555.55,0.02241
2549.76,0.02227
2543.98,0.02251
2538.19,0.02280
2532.4,0.02275
2526.62,0.02278
2520.83,0.02294
2515.04,0.02283
2509.26,0.02290
2503.47,0.02273
2497.69,0.02249
2491.9,0.02302
2486.11,0.02247
2480.33,0.02279
2474.54,0.02285
2468.76,0.02295
2462.97,0.02262
2457.18,0.02267
2451.4,0.02251
2445.61,0.02253
2439.82,0.02308
2434.04,0.02330
2428.25,0.02293
2422.47,0.02302
2416.68,0.02246
2410.89,0.02252
2405.11,0.02320
2399.32,0.02305
2393.54,0.02282
2387.75,0.02307
2381.96,0.02315
2376.18,0.02255
2370.39,0.02282
2364.61,0.02387
2358.82,0.02366
2353.03,0.02284
2347.25,0.02350
2341.46,0.02320
2335.67,0.02298
2329.89,0.02314
2324.1,0.02311
2318.32,0.02301
2312.53,0.02281
2306.74,0.02315
2300.96,0.02317
2295.17,0.02312
2289.39,0.02286
2283.6,0.02260
2277.81,0.02267
2272.03,0.02328
2266.24,0.02277
2260.45,0.02281
2254.67,0.02266
2248.88,0.02264
2243.1,0.02258
2237.31,0.02265
2231.52,0.02290
2225.74,0.02289
2219.95,0.02281
2214.17,0.02277
2208.38,0.02293
2202.59,0.02295
2196.81,0.02287
2191.02,0.02287
2185.23,0.02308
2179.45,0.02256
2173.66,0.02290
2167.88,0.02301
2162.09,0.02252
2156.3,0.02277
2150.52,0.02311
2144.73,0.02293
2138.95,0.02258
2133.16,0.02303
2127.37,0.02265
2121.59,0.02276
2115.8,0.02270
2110.01,0.02259
2104.23,0.02287
2098.44,0.02282
2092.66,0.02232
2086.87,0.02254
2081.08,0.02269
2075.3,0.02297
2069.51,0.02231
2063.73,0.02256
2057.94,0.02259
2052.15,0.02291
2046.37,0.02286
2040.58,0.02236
2034.79,0.02294
2029.01,0.02259
2023.22,0.02290
2017.44,0.02266
2011.65,0.02265
2005.86,0.02284
2000.08,0.02279
1994.29,0.02274
1988.51,0.02299
1982.72,0.02276
1976.93,0.02288
1971.15,0.02275
1965.36,0.02271
1959.57,0.02274
1953.79,0.02260
1948,0.02287
1942.22,0.02241
1936.43,0.02238
1930.64,0.02288
1924.86,0.02238
1919.07,0.02277
1913.29,0.02267
1907.5,0.02235
1901.71,0.02256
1895.93,0.02266
1890.14,0.02264
1884.35,0.02231
1878.57,0.02246
1872.78,0.02239
1867,0.02227
1861.21,0.02211
1855.42,0.02227
1849.64,0.02248
1843.85,0.02212
1838.07,0.02215
1832.28,0.02241
1826.49,0.02244
1820.71,0.02232
1814.92,0.02181
1809.13,0.02185
1803.35,0.02131
1797.56,0.02095
1791.78,0.02076
1785.99,0.02129
1780.2,0.02103
1774.42,0.02099
1768.63,0.02043
1762.85,0.02017
1757.06,0.01974
1751.27,0.01974
1745.49,0.01923
1739.7,0.02041
1733.92,0.02121
1728.13,0.02164
1722.34,0.02200
1716.56,0.02173
1710.77,0.02213
1704.98,0.02210
1699.2,0.02190
1693.41,0.02107
1687.63,0.02111
1681.84,0.02123
1676.05,0.02109
1670.27,0.02055
1664.48,0.02040
1658.7,0.02065
1652.91,0.02033
1647.12,0.02029
1641.34,0.02027
1635.55,0.02037
1629.76,0.02057
1623.98,0.02030
1618.19,0.02082
1612.41,0.02036
1606.62,0.02042
1600.83,0.02051
1595.05,0.02077
1589.26,0.02036
1583.48,0.02050
1577.69,0.02058
1571.9,0.02012
1566.12,0.02007
1560.33,0.02068
1554.54,0.02009
1548.76,0.01983
1542.97,0.02041
1537.19,0.02076
1531.4,0.02019
1525.61,0.02117
1519.83,0.02069
1514.04,0.02026
1508.26,0.02120
1502.47,0.02047
1496.68,0.02061
1490.9,0.02078
1485.11,0.02022
1479.32,0.02083
1473.54,0.02038
1467.75,0.02034
1461.97,0.02055
1456.18,0.02049
1450.39,0.02039
1444.61,0.02035
1438.82,0.02067
1433.04,0.02072
1427.25,0.02023
1421.46,0.02026
1415.68,0.01990
1409.89,0.01994
1404.1,0.01977
1398.32,0.01990
1392.53,0.01995
1386.75,0.01940
1380.96,0.01976
1375.17,0.02009
1369.39,0.01991
1363.6,0.01975
1357.82,0.01945
1352.03,0.01938
1346.24,0.01944
1340.46,0.01971
1334.67,0.01930
1328.88,0.01917
1323.1,0.01883
1317.31,0.01882
1311.53,0.01869
1305.74,0.01855
1299.95,0.01842
1294.17,0.01948
1288.38,0.01956
1282.6,0.02012
1276.81,0.02058
1271.02,0.02096
1265.24,0.02122
1259.45,0.02127
1253.66,0.02167
1247.88,0.02177
1242.09,0.02119
1236.31,0.02136
1230.52,0.02096
1224.73,0.02115
1218.95,0.02120
1213.16,0.02098
1207.38,0.02042
1201.59,0.02048
1195.8,0.02056
1190.02,0.02043
1184.23,0.01976
1178.45,0.01979
1172.66,0.01943
1166.87,0.01950
1161.09,0.01925
1155.3,0.01904
1149.51,0.01899
1143.73,0.01945
1137.94,0.01917
1132.16,0.01942
1126.37,0.01912
1120.58,0.01982
1114.8,0.02065
1109.01,0.02028
1103.23,0.01990
1097.44,0.01992
1091.65,0.01986
1085.87,0.02009
1080.08,0.02007
1074.29,0.02038
1068.51,0.02106
1062.72,0.02167
1056.94,0.02198
1051.15,0.02150
1045.36,0.02103
1039.58,0.02154
1033.79,0.02175
1028.01,0.02066
1022.22,0.02105
1016.43,0.02077
1010.65,0.02157
1004.86,0.02257
999.075,0.02329
993.288,0.02306
987.502,0.02232
981.716,0.02296
975.93,0.02287
970.144,0.02237
964.358,0.02200
958.572,0.02176
952.785,0.02158
946.999,0.02151
941.213,0.02148
935.427,0.02143
929.641,0.02120
923.855,0.02153
918.068,0.02189
912.282,0.02176
906.496,0.02129
900.71,0.02094
894.924,0.02086
889.138,0.02021
883.352,0.02060
877.565,0.02107
871.779,0.02047
865.993,0.02126
860.207,0.02108
854.421,0.02096
848.635,0.02049
842.849,0.02087
837.062,0.02088
831.276,0.02040
825.49,0.02031
819.704,0.02129
813.918,0.02055
808.132,0.02070
802.346,0.02034
796.559,0.02079
790.773,0.02041
784.987,0.01942
779.201,0.01993
773.415,0.02037
767.629,0.01965
761.843,0.02032
756.056,0.01832
750.27,0.01828
744.484,0.01956
738.698,0.01934
732.912,0.02056
727.126,0.02029
721.34,0.02066
715.553,0.01928
709.767,0.01922
703.981,0.01915
698.195,0.02024
692.409,0.01996
686.623,0.01983
680.837,0.01953
675.05,0.01982
669.264,0.01815
663.478,0.02021
657.692,0.01989
651.906,0.01790
646.12,0.01963
640.333,0.01845
634.547,0.01878
628.761,0.01665
622.975,0.01824
617.189,0.01792
611.403,0.01867
605.617,0.01844
599.83,0.01651