File: 01_Data/PC/FTIR/IS/PC_1.52_Trans_S_IS_230516_R1.dpt
7496.92,0.91329
7491.13,0.88824
7485.34,0.90488
7479.56,0.87914
7473.77,0.89580
7467.99,0.87629
7462.2,0.87351
7456.41,0.87690
7450.63,0.87924
7444.84,0.86995
7439.06,0.84979
7433.27,0.84893
7427.48,0.87087
7421.7,0.86763
7415.91,0.84081
7410.12,0.87733
7404.34,0.90910
7398.55,0.86724
7392.77,0.83874
7386.98,0.85383
7381.19,0.80383
7375.41,0.84447
7369.62,0.83152
7363.84,0.79135
7358.05,0.83367
7352.26,0.85624
7346.48,0.81399
7340.69,0.84013
7334.9,0.81658
7329.12,0.82098
7323.33,0.82798
7317.55,0.79703
7311.76,0.81681
7305.97,0.79472
7300.19,0.80929
7294.4,0.81821
7288.62,0.82758
7282.83,0.82883
7277.04,0.83367
7271.26,0.82120
7265.47,0.82552
7259.68,0.83887
7253.9,0.79969
7248.11,0.81676
7242.33,0.83231
7236.54,0.83849
7230.75,0.82426
7224.97,0.80125
7219.18,0.82023
7213.4,0.81074
7207.61,0.81620
7201.82,0.81146
7196.04,0.81977
7190.25,0.81288
7184.46,0.81099
7178.68,0.80986
7172.89,0.81718
7167.11,0.80738
7161.32,0.81643
7155.53,0.82501
7149.75,0.83183
7143.96,0.83338
7138.18,0.82766
7132.39,0.82243
7126.6,0.84811
7120.82,0.81461
7115.03,0.82349
7109.24,0.82441
7103.46,0.81350
7097.67,0.82841
7091.89,0.80645
7086.1,0.83379
7080.31,0.86355
7074.53,0.82612
7068.74,0.84143
7062.96,0.84693
7057.17,0.81087
7051.38,0.83669
7045.6,0.84824
7039.81,0.84143
7034.02,0.84122
7028.24,0.85732
7022.45,0.85164
7016.67,0.84900
7010.88,0.85415
7005.09,0.86968
6999.31,0.85411
6993.52,0.83694
6987.74,0.84093
6981.95,0.86344
6976.16,0.85345
6970.38,0.83453
6964.59,0.85697
6958.8,0.84861
6953.02,0.84836
6947.23,0.85773
6941.45,0.85077
6935.66,0.86120
6929.87,0.86264
6924.09,0.87910
6918.3,0.87822
6912.52,0.86413
6906.73,0.87652
6900.94,0.88085
6895.16,0.85072
6889.37,0.87537
6883.59,0.87722
6877.8,0.86033
6872.01,0.86383
6866.23,0.85617
6860.44,0.86686
6854.65,0.86871
6848.87,0.84721
6843.08,0.86694
6837.3,0.86368
6831.51,0.85087
6825.72,0.86957
6819.94,0.86724
6814.15,0.86220
6808.37,0.86082
6802.58,0.87028
6796.79,0.87028
6791.01,0.88230
6785.22,0.88122
6779.43,0.86912
6773.65,0.87404
6767.86,0.86536
6762.08,0.86453
6756.29,0.85816
6750.5,0.86435
6744.72,0.89424
6738.93,0.88509
6733.15,0.86994
6727.36,0.86540
6721.57,0.87853
6715.79,0.88172
6710,0.87766
6704.21,0.86804
6698.43,0.86829
6692.64,0.87132
6686.86,0.87573
6681.07,0.87931
6675.28,0.89873
6669.5,0.88818
6663.71,0.87367
6657.93,0.89484
6652.14,0.88801
6646.35,0.87769
6640.57,0.90261
6634.78,0.88903
6628.99,0.87832
6623.21,0.87926
6617.42,0.89385
6611.64,0.88400
6605.85,0.89108
6600.06,0.88971
6594.28,0.90129
6588.49,0.89692
6582.71,0.89273
6576.92,0.89059
6571.13,0.88980
6565.35,0.88540
6559.56,0.89167
6553.77,0.89005
6547.99,0.89140
6542.2,0.89370
6536.42,0.89710
6530.63,0.87999
6524.84,0.89237
6519.06,0.89578
6513.27,0.88813
6507.49,0.88682
6501.7,0.89138
6495.91,0.88403
6490.13,0.89259
6484.34,0.88785
6478.55,0.89398
6472.77,0.89061
6466.98,0.88466
6461.2,0.88526
6455.41,0.88522
6449.62,0.88604
6443.84,0.89478
6438.05,0.88922
6432.27,0.89529
6426.48,0.89081
6420.69,0.88553
6414.91,0.88422
6409.12,0.88998
6403.33,0.88818
6397.55,0.88301
6391.76,0.88282
6385.98,0.87988
6380.19,0.89181
6374.4,0.88676
6368.62,0.88003
6362.83,0.88308
6357.05,0.88346
6351.26,0.88778
6345.47,0.88208
6339.69,0.88473
6333.9,0.87513
6328.12,0.88515
6322.33,0.88218
6316.54,0.88663
6310.76,0.87781
6304.97,0.88378
6299.18,0.88441
6293.4,0.86415
6287.61,0.87039
6281.83,0.86710
6276.04,0.88038
6270.25,0.87609
6264.47,0.87311
6258.68,0.86542
6252.9,0.86211
6247.11,0.85964
6241.32,0.86088
6235.54,0.85718
6229.75,0.85084
6223.96,0.85201
6218.18,0.84061
6212.39,0.83899
6206.61,0.83740
6200.82,0.83903
6195.03,0.82002
6189.25,0.80759
6183.46,0.80364
6177.68,0.79386
6171.89,0.78544
6166.1,0.78469
6160.32,0.78369
6154.53,0.77825
6148.74,0.77489
6142.96,0.75991
6137.17,0.75148
6131.39,0.73389
6125.6,0.72188
6119.81,0.71684
6114.03,0.70652
6108.24,0.69788
6102.46,0.67971
6096.67,0.65412
6090.88,0.63106
6085.1,0.59582
6079.31,0.56978
6073.52,0.55153
6067.74,0.53523
6061.95,0.52173
6056.17,0.51308
6050.38,0.49094
6044.59,0.45970
6038.81,0.42328
6033.02,0.38678
6027.24,0.34447
6021.45,0.30423
6015.66,0.26220
6009.88,0.22345
6004.09,0.20184
5998.3,0.18631
5992.52,0.19026
5986.73,0.21885
5980.95,0.25258
5975.16,0.30664
5969.37,0.35540
5963.59,0.39153
5957.8,0.40597
5952.02,0.40499
5946.23,0.39396
5940.44,0.38276
5934.66,0.36884
5928.87,0.36403
5923.08,0.36817
5917.3,0.38152
5911.51,0.40044
5905.73,0.41841
5899.94,0.41957
5894.15,0.42081
5888.37,0.42804
5882.58,0.44979
5876.8,0.49391
5871.01,0.52776
5865.22,0.55862
5859.44,0.58447
5853.65,0.60828
5847.86,0.62312
5842.08,0.63375
5836.29,0.63218
5830.51,0.62681
5824.72,0.63553
5818.93,0.63135
5813.15,0.63428
5807.36,0.64108
5801.58,0.64324
5795.79,0.64042
5790,0.63173
5784.22,0.61330
5778.43,0.60367
5772.65,0.58791
5766.86,0.58432
5761.07,0.58505
5755.29,0.59582
5749.5,0.61740
5743.71,0.64049
5737.93,0.66099
5732.14,0.68213
5726.36,0.69865
5720.57,0.71360
5714.78,0.73441
5709,0.74083
5703.21,0.74869
5697.43,0.74718
5691.64,0.74244
5685.85,0.73529
5680.07,0.72311
5674.28,0.71597
5668.49,0.69757
5662.71,0.70074
5656.92,0.70458
5651.14,0.70702
5645.35,0.71808
5639.56,0.73236
5633.78,0.74713
5627.99,0.76131
5622.21,0.77381
5616.42,0.78028
5610.63,0.78379
5604.85,0.78836
5599.06,0.78634
5593.27,0.78148
5587.49,0.78047
5581.7,0.78120
5575.92,0.78467
5570.13,0.77886
5564.34,0.77621
5558.56,0.77325
5552.77,0.77587
5546.99,0.77486
5541.2,0.77114
5535.41,0.77279
5529.63,0.77652
5523.84,0.77483
5518.05,0.77470
5512.27,0.77507
5506.48,0.76787
5500.7,0.77163
5494.91,0.76641
5489.12,0.76584
5483.34,0.76531
5477.55,0.75616
5471.77,0.75513
5465.98,0.75627
5460.19,0.75710
5454.41,0.76795
5448.62,0.76731
5442.83,0.76385
5437.05,0.77326
5431.26,0.77357
5425.48,0.77871
5419.69,0.78068
5413.9,0.76667
5408.12,0.77044
5402.33,0.77718
5396.55,0.77213
5390.76,0.77618
5384.97,0.77552
5379.19,0.77808
5373.4,0.77778
5367.61,0.78396
5361.83,0.78230
5356.04,0.77258
5350.26,0.77148
5344.47,0.76224
5338.68,0.76056
5332.9,0.77115
5327.11,0.77013
5321.33,0.77815
5315.54,0.77531
5309.75,0.77077
5303.97,0.76789
5298.18,0.76498
5292.39,0.74840
5286.61,0.73454
5280.82,0.71556
5275.04,0.69997
5269.25,0.67720
5263.46,0.66685
5257.68,0.68044
5251.89,0.69706
5246.11,0.71159
5240.32,0.74346
5234.53,0.75810
5228.75,0.76879
5222.96,0.77836
5217.18,0.78834
5211.39,0.79082
5205.6,0.78349
5199.82,0.79176
5194.03,0.79414
5188.24,0.78945
5182.46,0.78898
5176.67,0.79051
5170.89,0.78613
5165.1,0.79239
5159.31,0.79266
5153.53,0.79481
5147.74,0.79893
5141.96,0.80090
5136.17,0.80205
5130.38,0.80578
5124.6,0.81003
5118.81,0.80694
5113.02,0.80899
5107.24,0.81068
5101.45,0.80922
5095.67,0.80686
5089.88,0.80521
5084.09,0.80283
5078.31,0.80207
5072.52,0.80542
5066.74,0.80646
5060.95,0.80509
5055.16,0.80736
5049.38,0.80670
5043.59,0.80756
5037.8,0.80519
5032.02,0.80662
5026.23,0.80488
5020.45,0.80132
5014.66,0.79814
5008.87,0.79786
5003.09,0.79491
4997.3,0.79300
4991.52,0.79111
4985.73,0.78757
4979.94,0.78410
4974.16,0.78504
4968.37,0.78193
4962.58,0.78211
4956.8,0.78072
4951.01,0.77901
4945.23,0.78029
4939.44,0.77869
4933.65,0.77684
4927.87,0.77171
4922.08,0.76473
4916.3,0.75339
4910.51,0.74388
4904.72,0.73449
4898.94,0.72601
4893.15,0.71843
4887.36,0.71605
4881.58,0.71301
4875.79,0.71273
4870.01,0.70826
4864.22,0.69720
4858.43,0.68552
4852.65,0.67645
4846.86,0.66852
4841.08,0.66986
4835.29,0.67587
4829.5,0.67937
4823.72,0.68567
4817.93,0.68854
4812.14,0.69241
4806.36,0.69335
4800.57,0.69439
4794.79,0.68931
4789,0.68339
4783.21,0.67482
4777.43,0.66394
4771.64,0.65262
4765.86,0.64114
4760.07,0.62736
4754.28,0.61264
4748.5,0.59220
4742.71,0.56400
4736.92,0.52975
4731.14,0.49016
4725.35,0.44580
4719.57,0.39636
4713.78,0.34039
4707.99,0.27350
4702.21,0.21219
4696.42,0.16690
4690.64,0.13753
4684.85,0.12042
4679.06,0.11880
4673.28,0.13556
4667.49,0.16515
4661.7,0.19413
4655.92,0.20318
4650.13,0.18826
4644.35,0.15346
4638.56,0.12260
4632.77,0.11244
4626.99,0.13774
4621.2,0.20526
4615.42,0.29253
4609.63,0.35990
4603.84,0.39413
4598.06,0.39680
4592.27,0.37753
4586.49,0.34769
4580.7,0.32379
4574.91,0.31291
4569.13,0.33157
4563.34,0.38013
4557.55,0.43801
4551.77,0.48037
4545.98,0.49633
4540.2,0.49667
4534.41,0.49368
4528.62,0.49476
4522.84,0.49591
4517.05,0.49865
4511.27,0.49490
4505.48,0.48526
4499.69,0.46416
4493.91,0.43536
4488.12,0.40463
4482.33,0.38438
4476.55,0.37505
4470.76,0.37461
4464.98,0.37272
4459.19,0.36318
4453.4,0.34104
4447.62,0.30798
4441.83,0.26561
4436.05,0.22149
4430.26,0.18136
4424.47,0.14752
4418.69,0.11620
4412.9,0.09123
4407.11,0.07896
4401.33,0.08323
4395.54,0.10404
4389.76,0.12109
4383.97,0.11859
4378.18,0.10142
4372.4,0.08405
4366.61,0.07160
4360.83,0.06516
4355.04,0.06110
4349.25,0.05559
4343.47,0.05218
4337.68,0.04678
4331.89,0.03985
4326.11,0.03499
4320.32,0.03753
4314.54,0.04756
4308.75,0.05500
4302.96,0.05572
4297.18,0.05750
4291.39,0.06305
4285.61,0.07015
4279.82,0.07706
4274.03,0.08287
4268.25,0.08835
4262.46,0.09541
4256.67,0.10641
4250.89,0.11618
4245.1,0.11848
4239.32,0.11200
4233.53,0.10617
4227.74,0.10139
4221.96,0.09613
4216.17,0.09133
4210.39,0.08753
4204.6,0.08314
4198.81,0.08050
4193.03,0.07848
4187.24,0.07599
4181.45,0.07181
4175.67,0.06773
4169.88,0.06763
4164.1,0.07420
4158.31,0.09028
4152.52,0.11078
4146.74,0.12765
4140.95,0.13358
4135.17,0.13450
4129.38,0.13545
4123.59,0.12934
4117.81,0.11406
4112.02,0.09227
4106.23,0.06353
4100.45,0.03715
4094.66,0.01772
4088.88,0.00856
4083.09,0.00328
4077.3,0.00262
4071.52,0.00231
4065.73,0.00560
4059.95,0.01450
4054.16,0.03147
4048.37,0.05690
4042.59,0.09352
4036.8,0.12599
4031.02,0.13931
4025.23,0.13697
4019.44,0.13136
4013.66,0.12950
4007.87,0.13324
4002.08,0.13426
3996.3,0.12999
3990.51,0.12530
3984.73,0.12495
3978.94,0.13003
3973.15,0.14267
3967.37,0.16290
3961.58,0.17322
3955.8,0.16694
3950.01,0.15375
3944.22,0.15025
3938.44,0.15093
3932.65,0.14980
3926.86,0.15052
3921.08,0.14247
3915.29,0.13218
3909.51,0.12535
3903.72,0.11411
3897.93,0.10983
3892.15,0.10207
3886.36,0.09553
3880.58,0.09512
3874.79,0.11077
3869,0.14306
3863.22,0.17663
3857.43,0.20132
3851.64,0.21970
3845.86,0.24295
3840.07,0.24623
3834.29,0.25823
3828.5,0.26247
3822.71,0.25389
3816.93,0.25037
3811.14,0.25739
3805.36,0.25765
3799.57,0.27058
3793.78,0.29834
3788,0.31709
3782.21,0.32799
3776.42,0.33036
3770.64,0.31169
3764.85,0.28456
3759.07,0.24982
3753.28,0.22033
3747.49,0.20462
3741.71,0.20826
3735.92,0.20993
3730.14,0.23369
3724.35,0.23374
3718.56,0.22527
3712.78,0.19296
3706.99,0.15226
3701.2,0.11237
3695.42,0.07635
3689.63,0.04052
3683.85,0.01887
3678.06,0.00962
3672.27,0.00727
3666.49,0.01108
3660.7,0.02175
3654.92,0.03891
3649.13,0.06241
3643.34,0.09920
3637.56,0.12665
3631.77,0.14503
3625.98,0.17433
3620.2,0.19689
3614.41,0.21610
3608.63,0.21160
3602.84,0.17770
3597.05,0.12154
3591.27,0.07595
3585.48,0.04499
3579.7,0.03331
3573.91,0.02803
3568.12,0.02386
3562.34,0.02203
3556.55,0.01832
3550.76,0.01297
3544.98,0.00888
3539.19,0.00582
3533.41,0.00329
3527.62,0.00400
3521.83,0.00852
3516.05,0.01848
3510.26,0.03589
3504.48,0.06096
3498.69,0.08619
3492.9,0.10727
3487.12,0.12246
3481.33,0.13539
3475.55,0.14890
3469.76,0.16312
3463.97,0.18068
3458.19,0.20049
3452.4,0.21972
3446.61,0.23653
3440.83,0.25418
3435.04,0.27012
3429.26,0.28561
3423.47,0.29738
3417.68,0.30563
3411.9,0.30774
3406.11,0.30308
3400.33,0.29323
3394.54,0.27821
3388.75,0.26096
3382.97,0.24323
3377.18,0.23091
3371.39,0.22460
3365.61,0.22354
3359.82,0.22614
3354.04,0.22957
3348.25,0.23215
3342.46,0.23104
3336.68,0.22530
3330.89,0.21568
3325.11,0.19978
3319.32,0.18030
3313.53,0.15945
3307.75,0.14081
3301.96,0.12483
3296.17,0.11273
3290.39,0.10371
3284.6,0.09794
3278.82,0.09287
3273.03,0.08668
3267.24,0.08130
3261.46,0.07474
3255.67,0.06806
3249.89,0.06358
3244.1,0.05951
3238.31,0.05607
3232.53,0.05215
3226.74,0.04765
3220.95,0.04247
3215.17,0.03515
3209.38,0.02673
3203.6,0.01903
3197.81,0.01349
3192.02,0.01120
3186.24,0.01133
3180.45,0.01087
3174.67,0.01139
3168.88,0.01204
3163.09,0.01176
3157.31,0.01014
3151.52,0.00816
3145.73,0.00529
3139.95,0.00319
3134.16,0.00085
3128.38,0.00062
3122.59,0.00037
3116.8,0.00056
3111.02,0.00054
3105.23,0.00060
3099.45,0.00061
3093.66,0.00028
3087.87,0.00088
3082.09,0.00059
3076.3,0.00003
3070.51,0.00058
3064.73,0.00061
3058.94,0.00080
3053.16,0.00020
3047.37,0.00054
3041.58,0.00025
3035.8,0.00052
3030.01,0.00080
3024.23,0.00069
3018.44,0.00036
3012.65,0.00016
3006.87,0.00058
3001.08,0.00009
2995.29,0.00072
2989.51,0.00062
2983.72,0.00036
2977.94,0.00036
2972.15,0.00053
2966.36,0.00052
2960.58,0.00021
2954.79,0.00045
2949.01,0.00054
2943.22,0.00050
2937.43,0.00026
2931.65,0.00012
2925.86,0.00037
2920.08,0.00044
2914.29,0.00024
2908.5,0.00067
2902.72,0.00019
2896.93,0.00004
2891.14,0.00067
2885.36,0.00037
2879.57,-0.00003
2873.79,0.00050
2868,0.00025
2862.21,0.00058
2856.43,-0.00008
2850.64,0.00050
2844.86,0.00133
2839.07,0.00696
2833.28,0.01198
2827.5,0.01455
2821.71,0.01560
2815.92,0.01313
2810.14,0.00984
2804.35,0.01265
2798.57,0.01884
2792.78,0.01753
2786.99,0.00984
2781.21,0.00559
2775.42,0.00752
2769.64,0.01552
2763.85,0.02617
2758.06,0.04474
2752.28,0.06699
2746.49,0.07678
2740.7,0.07105
2734.92,0.05417
2729.13,0.04974
2723.35,0.05143
2717.56,0.04075
2711.77,0.04818
2705.99,0.07335
2700.2,0.09805
2694.42,0.11759
2688.63,0.13039
2682.84,0.13549
2677.06,0.12904
2671.27,0.12090
2665.48,0.12208
2659.7,0.13192
2653.91,0.15200
2648.13,0.17515
2642.34,0.18837
2636.55,0.18189
2630.77,0.15422
2624.98,0.11202
2619.2,0.07193
2613.41,0.05530
2607.62,0.05127
2601.84,0.04938
2596.05,0.04816
2590.26,0.04730
2584.48,0.05134
2578.69,0.06040
2572.91,0.07139
2567.12,0.09315
2561.33,0.11014
2555.55,0.10832
2549.76,0.09633
2543.98,0.08283
2538.19,0.06674
2532.4,0.05388
2526.62,0.05460
2520.83,0.06240
2515.04,0.05981
2509.26,0.04782
2503.47,0.03826
2497.69,0.02664
2491.9,0.01540
2486.11,0.00921
2480.33,0.00626
2474.54,0.00468
2468.76,0.00411
2462.97,0.00368
2457.18,0.00413
2451.4,0.00424
2445.61,0.00490
2439.82,0.00509
2434.04,0.00452
2428.25,0.00335
2422.47,0.00218
2416.68,0.00114
2410.89,0.00084
2405.11,0.00120
2399.32,0.00114
2393.54,0.00161
2387.75,0.00305
2381.96,0.00627
2376.18,0.01040
2370.39,0.01394
2364.61,0.01860
2358.82,0.02183
2353.03,0.02552
2347.25,0.02470
2341.46,0.01805
2335.67,0.01601
2329.89,0.01311
2324.1,0.01124
2318.32,0.01436
2312.53,0.01679
2306.74,0.01750
2300.96,0.01596
2295.17,0.01370
2289.39,0.01199
2283.6,0.00786
2277.81,0.00520
2272.03,0.00355
2266.24,0.00137
2260.45,0.00010
2254.67,0.00017
2248.88,0.00031
2243.1,0.00037
2237.31,0.00025
2231.52,0.00019
2225.74,0.00034
2219.95,0.00004
2214.17,0.00024
2208.38,0.00019
2202.59,0.00049
2196.81,0.00014
2191.02,0.00040
2185.23,0.00133
2179.45,0.00477
2173.66,0.00662
2167.88,0.00889
2162.09,0.02005
2156.3,0.03896
2150.52,0.05315
2144.73,0.05427
2138.95,0.04486
2133.16,0.03273
2127.37,0.02193
2121.59,0.01465
2115.8,0.01058
2110.01,0.00804
2104.23,0.00553
2098.44,0.00325
2092.66,0.00126
2086.87,-0.00000
2081.08,0.00024
2075.3,0.00049
2069.51,0.00067
2063.73,0.00050
2057.94,0.00027
2052.15,0.00019
2046.37,0.00034
2040.58,0.00051
2034.79,0.00059
2029.01,0.00060
2023.22,0.00078
2017.44,0.00035
2011.65,0.00052
2005.86,0.00057
2000.08,0.00031
1994.29,0.00045
1988.51,0.00048
1982.72,0.00133
1976.93,0.00268
1971.15,0.00363
1965.36,0.00354
1959.57,0.00313
1953.79,0.00178
1948,0.00124
1942.22,0.00104
1936.43,0.00078
1930.64,0.00050
1924.86,0.00049
1919.07,0.00019
1913.29,0.00003
1907.5,0.00005
1901.71,0.00029
1895.93,0.00032
1890.14,0.00027
1884.35,0.00028
1878.57,0.00048
1872.78,0.00031
1867,0.00030
1861.21,0.00031
1855.42,0.00021
1849.64,0.00025
1843.85,0.00036
1838.07,0.00043
1832.28,0.00035
1826.49,0.00063
1820.71,0.00006
1814.92,0.00047
1809.13,0.00029
1803.35,0.00032
1797.56,0.00053
1791.78,0.00028
1785.99,0.00012
1780.2,0.00026
1774.42,0.00044
1768.63,0.00034
1762.85,0.00052
1757.06,0.00021
1751.27,0.00069
1745.49,0.00041
1739.7,0.00019
1733.92,0.00042
1728.13,0.00040
1722.34,0.00021
1716.56,0.00065
1710.77,0.00013
1704.98,0.00052
1699.2,0.00074
1693.41,0.00011
1687.63,0.00069
1681.84,0.00029
1676.05,0.00068
1670.27,0.00033
1664.48,0.00024
1658.7,0.00031
1652.91,0.00125
1647.12,0.00056
1641.34,0.00029
1635.55,0.00092
1629.76,0.00011
1623.98,0.00032
1618.19,0.00042
1612.41,0.00018
1606.62,0.00019
1600.83,0.00010
1595.05,0.00033
1589.26,0.00019
1583.48,0.00016
1577.69,0.00037
1571.9,0.00044
1566.12,0.00030
1560.33,0.00056
1554.54,0.00033
1548.76,0.00009
1542.97,0.00053
1537.19,0.00022
1531.4,0.00019
1525.61,0.00023
1519.83,0.00053
1514.04,0.00028
1508.26,0.00028
1502.47,0.00040
1496.68,0.00063
1490.9,0.00054
1485.11,0.00019
1479.32,0.00041
1473.54,0.00030
1467.75,0.00017
1461.97,0.00059
1456.18,0.00048
1450.39,0.00034
1444.61,0.00033
1438.82,0.00026
1433.04,0.00037
1427.25,0.00027
1421.46,0.00036
1415.68,0.00017
1409.89,0.00053
1404.1,0.00021
1398.32,0.00036
1392.53,0.00051
1386.75,0.00010
1380.96,0.00024
1375.17,0.00054
1369.39,0.00013
1363.6,0.00007
1357.82,0.00044
1352.03,0.00027
1346.24,0.00002
1340.46,0.00050
1334.67,0.00024
1328.88,0.00047
1323.1,0.00034
1317.31,0.00037
1311.53,0.00025
1305.74,0.00034
1299.95,0.00047
1294.17,0.00033
1288.38,0.00008
1282.6,0.00049
1276.81,0.00043
1271.02,0.00032
1265.24,0.00018
1259.45,0.00020
1253.66,0.00029
1247.88,0.00019
1242.09,0.00031
1236.31,0.00012
1230.52,0.00025
1224.73,0.00065
1218.95,0.00045
1213.16,0.00045
1207.38,0.00019
1201.59,0.00012
1195.8,0.00038
1190.02,0.00026
1184.23,0.00024
1178.45,0.00010
1172.66,0.00033
1166.87,0.00000
1161.09,0.00046
1155.3,0.00058
1149.51,0.00055
1143.73,0.00041
1137.94,0.00041
1132.16,0.00071
1126.37,0.00015
1120.58,0.00036
1114.8,0.00032
1109.01,0.00034
1103.23,0.00051
1097.44,0.00033
1091.65,0.00036
1085.87,0.00035
1080.08,0.00071
1074.29,0.00032
1068.51,0.00031
1062.72,0.00063
1056.94,0.00041
1051.15,0.00089
1045.36,-0.00012
1039.58,0.00039
1033.79,0.00026
1028.01,0.00065
1022.22,0.00008
1016.43,0.00047
1010.65,0.00038
1004.86,0.00031
999.075,0.00024
993.288,-0.00004
987.502,0.00055
981.716,0.00033
975.93,0.00037
970.144,-0.00006
964.358,0.00056
958.572,0.00042
952.785,0.00052
946.999,0.00041
941.213,0.00061
935.427,0.00023
929.641,0.00069
923.855,0.00025
918.068,0.00033
912.282,0.00055
906.496,0.00059
900.71,0.00062
894.924,0.00022
889.138,0.00034
883.352,0.00062
877.565,0.00093
871.779,0.00035
865.993,0.00050
860.207,0.00074
854.421,0.00090
848.635,0.00057
842.849,0.00030
837.062,0.00065
831.276,0.00084
825.49,0.00031
819.704,0.00103
813.918,0.00013
808.132,0.00049
802.346,0.00052
796.559,0.00065
790.773,0.00064
784.987,0.00045
779.201,0.00066
773.415,0.00040
767.629,0.00037
761.843,0.00087
756.056,0.00106
750.27,0.00086
744.484,0.00022
738.698,0.00016
732.912,0.00114
727.126,0.00071
721.34,0.00048
715.553,0.00127
709.767,0.00085
703.981,0.00020
698.195,0.00084
692.409,0.00117
686.623,0.00079
680.837,0.00086
675.05,0.00158
669.264,0.00338
663.478,0.00507
657.692,0.00563
651.906,0.00701
646.12,0.00407
640.333,0.00184
634.547,0.00064
628.761,0.00199
622.975,0.00135
617.189,0.00191
611.403,0.00159
605.617,0.00226
599.83,0.00194