File: 01_Data/PC/FTIR/IS/PC_1.52_T_IS_230516_R3.dpt
7496.92,0.04959
7491.13,0.03851
7485.34,0.06658
7479.56,0.05261
7473.77,0.05375
7467.99,0.06162
7462.2,0.05491
7456.41,0.02495
7450.63,0.04625
7444.84,0.07304
7439.06,0.04741
7433.27,0.04476
7427.48,0.06191
7421.7,0.04253
7415.91,0.04629
7410.12,0.06178
7404.34,0.05242
7398.55,0.06095
7392.77,0.02497
7386.98,0.06715
7381.19,0.02684
7375.41,0.02034
7369.62,0.08058
7363.84,0.07340
7358.05,0.03909
7352.26,0.03918
7346.48,0.05801
7340.69,0.09089
7334.9,0.05982
7329.12,0.04842
7323.33,0.05555
7317.55,0.05084
7311.76,0.03960
7305.97,0.05125
7300.19,0.04665
7294.4,0.02235
7288.62,0.06383
7282.83,0.05804
7277.04,0.07696
7271.26,0.05788
7265.47,0.04746
7259.68,0.03732
7253.9,0.04215
7248.11,0.05455
7242.33,0.05085
7236.54,0.04240
7230.75,0.05757
7224.97,0.03561
7219.18,0.05872
7213.4,0.03284
7207.61,0.04339
7201.82,0.03723
7196.04,0.02901
7190.25,0.05236
7184.46,0.08713
7178.68,0.05393
7172.89,0.03835
7167.11,0.02853
7161.32,0.04495
7155.53,0.05620
7149.75,0.05895
7143.96,0.03319
7138.18,0.04850
7132.39,0.03139
7126.6,0.05390
7120.82,0.02519
7115.03,0.04975
7109.24,0.04723
7103.46,0.04748
7097.67,0.03781
7091.89,0.04413
7086.1,0.04000
7080.31,0.03946
7074.53,0.03159
7068.74,0.05743
7062.96,0.04253
7057.17,0.04617
7051.38,0.04074
7045.6,0.03293
7039.81,0.03294
7034.02,0.05178
7028.24,0.04331
7022.45,0.03698
7016.67,0.04733
7010.88,0.02665
7005.09,0.03481
6999.31,0.02678
6993.52,0.04654
6987.74,0.04874
6981.95,0.03923
6976.16,0.04052
6970.38,0.04110
6964.59,0.04852
6958.8,0.03049
6953.02,0.03510
6947.23,0.03204
6941.45,0.03387
6935.66,0.04640
6929.87,0.03767
6924.09,0.03271
6918.3,0.03937
6912.52,0.03772
6906.73,0.03193
6900.94,0.05715
6895.16,0.04217
6889.37,0.03158
6883.59,0.05172
6877.8,0.03489
6872.01,0.04443
6866.23,0.04503
6860.44,0.03791
6854.65,0.04210
6848.87,0.02433
6843.08,0.03804
6837.3,0.03829
6831.51,0.03846
6825.72,0.03084
6819.94,0.03363
6814.15,0.04315
6808.37,0.04780
6802.58,0.04855
6796.79,0.03159
6791.01,0.04650
6785.22,0.04255
6779.43,0.04087
6773.65,0.03724
6767.86,0.04864
6762.08,0.04073
6756.29,0.04858
6750.5,0.03563
6744.72,0.04259
6738.93,0.05024
6733.15,0.04536
6727.36,0.04293
6721.57,0.04703
6715.79,0.04015
6710,0.03658
6704.21,0.03782
6698.43,0.04000
6692.64,0.03141
6686.86,0.03533
6681.07,0.04032
6675.28,0.04546
6669.5,0.03023
6663.71,0.03822
6657.93,0.04323
6652.14,0.03499
6646.35,0.04637
6640.57,0.04608
6634.78,0.03671
6628.99,0.03695
6623.21,0.03860
6617.42,0.03879
6611.64,0.04614
6605.85,0.03566
6600.06,0.03251
6594.28,0.03568
6588.49,0.02656
6582.71,0.03207
6576.92,0.03906
6571.13,0.02974
6565.35,0.02556
6559.56,0.04700
6553.77,0.02849
6547.99,0.03817
6542.2,0.03822
6536.42,0.03800
6530.63,0.03489
6524.84,0.02211
6519.06,0.02630
6513.27,0.02065
6507.49,0.03339
6501.7,0.03794
6495.91,0.02343
6490.13,0.03309
6484.34,0.02708
6478.55,0.02472
6472.77,0.03711
6466.98,0.03458
6461.2,0.03052
6455.41,0.04382
6449.62,0.03748
6443.84,0.02796
6438.05,0.03024
6432.27,0.03440
6426.48,0.03222
6420.69,0.02807
6414.91,0.04129
6409.12,0.03092
6403.33,0.03302
6397.55,0.03359
6391.76,0.03790
6385.98,0.03782
6380.19,0.03717
6374.4,0.04433
6368.62,0.03496
6362.83,0.03732
6357.05,0.03569
6351.26,0.04652
6345.47,0.03276
6339.69,0.03530
6333.9,0.03525
6328.12,0.04296
6322.33,0.02664
6316.54,0.02341
6310.76,0.03072
6304.97,0.03303
6299.18,0.03181
6293.4,0.04137
6287.61,0.03837
6281.83,0.03443
6276.04,0.03695
6270.25,0.03461
6264.47,0.03051
6258.68,0.03044
6252.9,0.03744
6247.11,0.02885
6241.32,0.03498
6235.54,0.02782
6229.75,0.03317
6223.96,0.03083
6218.18,0.02926
6212.39,0.03847
6206.61,0.02954
6200.82,0.02948
6195.03,0.03559
6189.25,0.03426
6183.46,0.03089
6177.68,0.03215
6171.89,0.03087
6166.1,0.03354
6160.32,0.03105
6154.53,0.03561
6148.74,0.03163
6142.96,0.03465
6137.17,0.03680
6131.39,0.02304
6125.6,0.03113
6119.81,0.03538
6114.03,0.03129
6108.24,0.03255
6102.46,0.03417
6096.67,0.02720
6090.88,0.03147
6085.1,0.02879
6079.31,0.03269
6073.52,0.03152
6067.74,0.02663
6061.95,0.03374
6056.17,0.03530
6050.38,0.03486
6044.59,0.03111
6038.81,0.03066
6033.02,0.03417
6027.24,0.03250
6021.45,0.02706
6015.66,0.03222
6009.88,0.03205
6004.09,0.02987
5998.3,0.03085
5992.52,0.02737
5986.73,0.03090
5980.95,0.02817
5975.16,0.03134
5969.37,0.02963
5963.59,0.03101
5957.8,0.03191
5952.02,0.03088
5946.23,0.02722
5940.44,0.03132
5934.66,0.03345
5928.87,0.02707
5923.08,0.03060
5917.3,0.02414
5911.51,0.03096
5905.73,0.03158
5899.94,0.02505
5894.15,0.02848
5888.37,0.02885
5882.58,0.03067
5876.8,0.03445
5871.01,0.02854
5865.22,0.02742
5859.44,0.02709
5853.65,0.02957
5847.86,0.02785
5842.08,0.02813
5836.29,0.02800
5830.51,0.02708
5824.72,0.02577
5818.93,0.03031
5813.15,0.02863
5807.36,0.02689
5801.58,0.02913
5795.79,0.02361
5790,0.02725
5784.22,0.02817
5778.43,0.02710
5772.65,0.03108
5766.86,0.03122
5761.07,0.02524
5755.29,0.02721
5749.5,0.02894
5743.71,0.02635
5737.93,0.03102
5732.14,0.02809
5726.36,0.02781
5720.57,0.02736
5714.78,0.02629
5709,0.02407
5703.21,0.02727
5697.43,0.02977
5691.64,0.02540
5685.85,0.02414
5680.07,0.03054
5674.28,0.03150
5668.49,0.03150
5662.71,0.02514
5656.92,0.02643
5651.14,0.03235
5645.35,0.03059
5639.56,0.02805
5633.78,0.02660
5627.99,0.03016
5622.21,0.02755
5616.42,0.02755
5610.63,0.02388
5604.85,0.02312
5599.06,0.02615
5593.27,0.02514
5587.49,0.02914
5581.7,0.03064
5575.92,0.02647
5570.13,0.02532
5564.34,0.02761
5558.56,0.02731
5552.77,0.02681
5546.99,0.02753
5541.2,0.02370
5535.41,0.02383
5529.63,0.02426
5523.84,0.02796
5518.05,0.02496
5512.27,0.02731
5506.48,0.02714
5500.7,0.02666
5494.91,0.02683
5489.12,0.02901
5483.34,0.03027
5477.55,0.02855
5471.77,0.02656
5465.98,0.02563
5460.19,0.02698
5454.41,0.02497
5448.62,0.02503
5442.83,0.02626
5437.05,0.02819
5431.26,0.02564
5425.48,0.02782
5419.69,0.02494
5413.9,0.02674
5408.12,0.02619
5402.33,0.02463
5396.55,0.02541
5390.76,0.02677
5384.97,0.02806
5379.19,0.02909
5373.4,0.02482
5367.61,0.02830
5361.83,0.02560
5356.04,0.02709
5350.26,0.02524
5344.47,0.02178
5338.68,0.02286
5332.9,0.02321
5327.11,0.02756
5321.33,0.02693
5315.54,0.02483
5309.75,0.02456
5303.97,0.02378
5298.18,0.02409
5292.39,0.02740
5286.61,0.02602
5280.82,0.02415
5275.04,0.02446
5269.25,0.02507
5263.46,0.02552
5257.68,0.02639
5251.89,0.02633
5246.11,0.02507
5240.32,0.02285
5234.53,0.02444
5228.75,0.02796
5222.96,0.02491
5217.18,0.02501
5211.39,0.02418
5205.6,0.02726
5199.82,0.02494
5194.03,0.02580
5188.24,0.02411
5182.46,0.02307
5176.67,0.02623
5170.89,0.02186
5165.1,0.02402
5159.31,0.02511
5153.53,0.02538
5147.74,0.02477
5141.96,0.02481
5136.17,0.02475
5130.38,0.02411
5124.6,0.02102
5118.81,0.02444
5113.02,0.02528
5107.24,0.02538
5101.45,0.02493
5095.67,0.02283
5089.88,0.02426
5084.09,0.02344
5078.31,0.02420
5072.52,0.02198
5066.74,0.02355
5060.95,0.02571
5055.16,0.02646
5049.38,0.02539
5043.59,0.02466
5037.8,0.02474
5032.02,0.02423
5026.23,0.02389
5020.45,0.02590
5014.66,0.02338
5008.87,0.02447
5003.09,0.02432
4997.3,0.02373
4991.52,0.02367
4985.73,0.02448
4979.94,0.02657
4974.16,0.02486
4968.37,0.02443
4962.58,0.02264
4956.8,0.02465
4951.01,0.02503
4945.23,0.02324
4939.44,0.02414
4933.65,0.02576
4927.87,0.02572
4922.08,0.02693
4916.3,0.02351
4910.51,0.02484
4904.72,0.02265
4898.94,0.02403
4893.15,0.02557
4887.36,0.02612
4881.58,0.02533
4875.79,0.02514
4870.01,0.02307
4864.22,0.02346
4858.43,0.02468
4852.65,0.02338
4846.86,0.02555
4841.08,0.02406
4835.29,0.02395
4829.5,0.02320
4823.72,0.02220
4817.93,0.02472
4812.14,0.02521
4806.36,0.02611
4800.57,0.02578
4794.79,0.02467
4789,0.02485
4783.21,0.02399
4777.43,0.02361
4771.64,0.02439
4765.86,0.02475
4760.07,0.02347
4754.28,0.02362
4748.5,0.02415
4742.71,0.02573
4736.92,0.02492
4731.14,0.02440
4725.35,0.02471
4719.57,0.02560
4713.78,0.02570
4707.99,0.02525
4702.21,0.02556
4696.42,0.02259
4690.64,0.02423
4684.85,0.02384
4679.06,0.02507
4673.28,0.02359
4667.49,0.02287
4661.7,0.02441
4655.92,0.02486
4650.13,0.02459
4644.35,0.02412
4638.56,0.02313
4632.77,0.02447
4626.99,0.02110
4621.2,0.02354
4615.42,0.02376
4609.63,0.02298
4603.84,0.02378
4598.06,0.02322
4592.27,0.02402
4586.49,0.02393
4580.7,0.02407
4574.91,0.02443
4569.13,0.02310
4563.34,0.02375
4557.55,0.02434
4551.77,0.02485
4545.98,0.02323
4540.2,0.02350
4534.41,0.02466
4528.62,0.02268
4522.84,0.02411
4517.05,0.02474
4511.27,0.02522
4505.48,0.02331
4499.69,0.02345
4493.91,0.02532
4488.12,0.02395
4482.33,0.02390
4476.55,0.02251
4470.76,0.02244
4464.98,0.02282
4459.19,0.02267
4453.4,0.02344
4447.62,0.02408
4441.83,0.02322
4436.05,0.02261
4430.26,0.02339
4424.47,0.02391
4418.69,0.02215
4412.9,0.02283
4407.11,0.02401
4401.33,0.02380
4395.54,0.02395
4389.76,0.02385
4383.97,0.02374
4378.18,0.02425
4372.4,0.02343
4366.61,0.02356
4360.83,0.02233
4355.04,0.02435
4349.25,0.02419
4343.47,0.02327
4337.68,0.02455
4331.89,0.02413
4326.11,0.02301
4320.32,0.02410
4314.54,0.02292
4308.75,0.02321
4302.96,0.02360
4297.18,0.02301
4291.39,0.02254
4285.61,0.02278
4279.82,0.02251
4274.03,0.02360
4268.25,0.02428
4262.46,0.02382
4256.67,0.02226
4250.89,0.02420
4245.1,0.02343
4239.32,0.02402
4233.53,0.02415
4227.74,0.02412
4221.96,0.02409
4216.17,0.02363
4210.39,0.02341
4204.6,0.02269
4198.81,0.02283
4193.03,0.02251
4187.24,0.02409
4181.45,0.02423
4175.67,0.02344
4169.88,0.02373
4164.1,0.02306
4158.31,0.02272
4152.52,0.02271
4146.74,0.02446
4140.95,0.02370
4135.17,0.02277
4129.38,0.02373
4123.59,0.02428
4117.81,0.02486
4112.02,0.02258
4106.23,0.02200
4100.45,0.02320
4094.66,0.02337
4088.88,0.02411
4083.09,0.02365
4077.3,0.02421
4071.52,0.02272
4065.73,0.02355
4059.95,0.02326
4054.16,0.02399
4048.37,0.02452
4042.59,0.02338
4036.8,0.02434
4031.02,0.02473
4025.23,0.02274
4019.44,0.02320
4013.66,0.02324
4007.87,0.02375
4002.08,0.02348
3996.3,0.02379
3990.51,0.02391
3984.73,0.02383
3978.94,0.02451
3973.15,0.02349
3967.37,0.02400
3961.58,0.02441
3955.8,0.02413
3950.01,0.02325
3944.22,0.02301
3938.44,0.02447
3932.65,0.02309
3926.86,0.02346
3921.08,0.02368
3915.29,0.02292
3909.51,0.02392
3903.72,0.02402
3897.93,0.02454
3892.15,0.02379
3886.36,0.02327
3880.58,0.02333
3874.79,0.02236
3869,0.02310
3863.22,0.02350
3857.43,0.02303
3851.64,0.02251
3845.86,0.02398
3840.07,0.02475
3834.29,0.02334
3828.5,0.02346
3822.71,0.02404
3816.93,0.02346
3811.14,0.02435
3805.36,0.02342
3799.57,0.02329
3793.78,0.02394
3788,0.02458
3782.21,0.02443
3776.42,0.02341
3770.64,0.02358
3764.85,0.02386
3759.07,0.02462
3753.28,0.02368
3747.49,0.02426
3741.71,0.02445
3735.92,0.02434
3730.14,0.02378
3724.35,0.02477
3718.56,0.02377
3712.78,0.02464
3706.99,0.02313
3701.2,0.02346
3695.42,0.02304
3689.63,0.02395
3683.85,0.02432
3678.06,0.02390
3672.27,0.02288
3666.49,0.02340
3660.7,0.02318
3654.92,0.02384
3649.13,0.02319
3643.34,0.02331
3637.56,0.02367
3631.77,0.02285
3625.98,0.02284
3620.2,0.02209
3614.41,0.02288
3608.63,0.02419
3602.84,0.02236
3597.05,0.02205
3591.27,0.02214
3585.48,0.02304
3579.7,0.02229
3573.91,0.02240
3568.12,0.02335
3562.34,0.02125
3556.55,0.02255
3550.76,0.02114
3544.98,0.02179
3539.19,0.02222
3533.41,0.02174
3527.62,0.02208
3521.83,0.02227
3516.05,0.02202
3510.26,0.02233
3504.48,0.02325
3498.69,0.02263
3492.9,0.02169
3487.12,0.02114
3481.33,0.02172
3475.55,0.02208
3469.76,0.02265
3463.97,0.02208
3458.19,0.02273
3452.4,0.02202
3446.61,0.02183
3440.83,0.02206
3435.04,0.02211
3429.26,0.02256
3423.47,0.02153
3417.68,0.02226
3411.9,0.02122
3406.11,0.02219
3400.33,0.02171
3394.54,0.02155
3388.75,0.02211
3382.97,0.02176
3377.18,0.02155
3371.39,0.02113
3365.61,0.02186
3359.82,0.02159
3354.04,0.02166
3348.25,0.02160
3342.46,0.02244
3336.68,0.02228
3330.89,0.02277
3325.11,0.02181
3319.32,0.02178
3313.53,0.02192
3307.75,0.02084
3301.96,0.02085
3296.17,0.02170
3290.39,0.02162
3284.6,0.02109
3278.82,0.02085
3273.03,0.02116
3267.24,0.02154
3261.46,0.02198
3255.67,0.02179
3249.89,0.02212
3244.1,0.02212
3238.31,0.02151
3232.53,0.02249
3226.74,0.02162
3220.95,0.02300
3215.17,0.02224
3209.38,0.02201
3203.6,0.02154
3197.81,0.02212
3192.02,0.02237
3186.24,0.02193
3180.45,0.02167
3174.67,0.02184
3168.88,0.02208
3163.09,0.02227
3157.31,0.02266
3151.52,0.02233
3145.73,0.02305
3139.95,0.02235
3134.16,0.02295
3128.38,0.02299
3122.59,0.02242
3116.8,0.02223
3111.02,0.02229
3105.23,0.02222
3099.45,0.02214
3093.66,0.02209
3087.87,0.02206
3082.09,0.02208
3076.3,0.02247
3070.51,0.02221
3064.73,0.02191
3058.94,0.02203
3053.16,0.02250
3047.37,0.02217
3041.58,0.02229
3035.8,0.02187
3030.01,0.02221
3024.23,0.02236
3018.44,0.02197
3012.65,0.02195
3006.87,0.02218
3001.08,0.02156
2995.29,0.02139
2989.51,0.02141
2983.72,0.02080
2977.94,0.02104
2972.15,0.02099
2966.36,0.02119
2960.58,0.02136
2954.79,0.02111
2949.01,0.02154
2943.22,0.02100
2937.43,0.02124
2931.65,0.02130
2925.86,0.02172
2920.08,0.02074
2914.29,0.02212
2908.5,0.02139
2902.72,0.02185
2896.93,0.02234
2891.14,0.02190
2885.36,0.02211
2879.57,0.02164
2873.79,0.02198
2868,0.02203
2862.21,0.02243
2856.43,0.02214
2850.64,0.02232
2844.86,0.02271
2839.07,0.02251
2833.28,0.02285
2827.5,0.02301
2821.71,0.02277
2815.92,0.02275
2810.14,0.02302
2804.35,0.02273
2798.57,0.02290
2792.78,0.02286
2786.99,0.02268
2781.21,0.02313
2775.42,0.02221
2769.64,0.02287
2763.85,0.02240
2758.06,0.02325
2752.28,0.02303
2746.49,0.02297
2740.7,0.02275
2734.92,0.02272
2729.13,0.02262
2723.35,0.02285
2717.56,0.02254
2711.77,0.02266
2705.99,0.02262
2700.2,0.02312
2694.42,0.02312
2688.63,0.02306
2682.84,0.02255
2677.06,0.02300
2671.27,0.02307
2665.48,0.02289
2659.7,0.02310
2653.91,0.02287
2648.13,0.02275
2642.34,0.02260
2636.55,0.02288
2630.77,0.02263
2624.98,0.02300
2619.2,0.02281
2613.41,0.02309
2607.62,0.02282
2601.84,0.02270
2596.05,0.02261
2590.26,0.02309
2584.48,0.02343
2578.69,0.02267
2572.91,0.02273
2567.12,0.02278
2561.33,0.02276
2555.55,0.02296
2549.76,0.02323
2543.98,0.02301
2538.19,0.02286
2532.4,0.02282
2526.62,0.02287
2520.83,0.02304
2515.04,0.02307
2509.26,0.02292
2503.47,0.02285
2497.69,0.02247
2491.9,0.02245
2486.11,0.02300
2480.33,0.02296
2474.54,0.02315
2468.76,0.02281
2462.97,0.02278
2457.18,0.02318
2451.4,0.02301
2445.61,0.02313
2439.82,0.02300
2434.04,0.02298
2428.25,0.02304
2422.47,0.02289
2416.68,0.02311
2410.89,0.02299
2405.11,0.02292
2399.32,0.02292
2393.54,0.02332
2387.75,0.02286
2381.96,0.02279
2376.18,0.02332
2370.39,0.02267
2364.61,0.02368
2358.82,0.02348
2353.03,0.02381
2347.25,0.02366
2341.46,0.02295
2335.67,0.02332
2329.89,0.02381
2324.1,0.02347
2318.32,0.02338
2312.53,0.02302
2306.74,0.02348
2300.96,0.02343
2295.17,0.02337
2289.39,0.02320
2283.6,0.02311
2277.81,0.02310
2272.03,0.02253
2266.24,0.02272
2260.45,0.02283
2254.67,0.02318
2248.88,0.02277
2243.1,0.02257
2237.31,0.02281
2231.52,0.02286
2225.74,0.02341
2219.95,0.02280
2214.17,0.02275
2208.38,0.02297
2202.59,0.02290
2196.81,0.02232
2191.02,0.02332
2185.23,0.02322
2179.45,0.02288
2173.66,0.02320
2167.88,0.02307
2162.09,0.02326
2156.3,0.02298
2150.52,0.02290
2144.73,0.02282
2138.95,0.02300
2133.16,0.02329
2127.37,0.02277
2121.59,0.02279
2115.8,0.02314
2110.01,0.02271
2104.23,0.02319
2098.44,0.02296
2092.66,0.02301
2086.87,0.02257
2081.08,0.02265
2075.3,0.02278
2069.51,0.02270
2063.73,0.02303
2057.94,0.02288
2052.15,0.02282
2046.37,0.02292
2040.58,0.02256
2034.79,0.02290
2029.01,0.02299
2023.22,0.02310
2017.44,0.02280
2011.65,0.02310
2005.86,0.02309
2000.08,0.02324
1994.29,0.02284
1988.51,0.02284
1982.72,0.02272
1976.93,0.02294
1971.15,0.02258
1965.36,0.02271
1959.57,0.02289
1953.79,0.02296
1948,0.02311
1942.22,0.02276
1936.43,0.02277
1930.64,0.02291
1924.86,0.02303
1919.07,0.02320
1913.29,0.02265
1907.5,0.02269
1901.71,0.02309
1895.93,0.02302
1890.14,0.02296
1884.35,0.02265
1878.57,0.02293
1872.78,0.02306
1867,0.02297
1861.21,0.02286
1855.42,0.02263
1849.64,0.02251
1843.85,0.02257
1838.07,0.02256
1832.28,0.02256
1826.49,0.02249
1820.71,0.02226
1814.92,0.02237
1809.13,0.02201
1803.35,0.02193
1797.56,0.02182
1791.78,0.02155
1785.99,0.02143
1780.2,0.02157
1774.42,0.02111
1768.63,0.02055
1762.85,0.02048
1757.06,0.01967
1751.27,0.01978
1745.49,0.01976
1739.7,0.02036
1733.92,0.02098
1728.13,0.02227
1722.34,0.02248
1716.56,0.02198
1710.77,0.02306
1704.98,0.02234
1699.2,0.02264
1693.41,0.02157
1687.63,0.02084
1681.84,0.02112
1676.05,0.02129
1670.27,0.02048
1664.48,0.02016
1658.7,0.02047
1652.91,0.02091
1647.12,0.02070
1641.34,0.02056
1635.55,0.02066
1629.76,0.02101
1623.98,0.02015
1618.19,0.02064
1612.41,0.02094
1606.62,0.02087
1600.83,0.02117
1595.05,0.02057
1589.26,0.02085
1583.48,0.02054
1577.69,0.02066
1571.9,0.02049
1566.12,0.02056
1560.33,0.02040
1554.54,0.02031
1548.76,0.02075
1542.97,0.02107
1537.19,0.02052
1531.4,0.02038
1525.61,0.02111
1519.83,0.02075
1514.04,0.02053
1508.26,0.02167
1502.47,0.02083
1496.68,0.02124
1490.9,0.02139
1485.11,0.02070
1479.32,0.02045
1473.54,0.02024
1467.75,0.02011
1461.97,0.02033
1456.18,0.02023
1450.39,0.02057
1444.61,0.02065
1438.82,0.02045
1433.04,0.02057
1427.25,0.02074
1421.46,0.02023
1415.68,0.02019
1409.89,0.02049
1404.1,0.02020
1398.32,0.02043
1392.53,0.02031
1386.75,0.02032
1380.96,0.02033
1375.17,0.02021
1369.39,0.02014
1363.6,0.02019
1357.82,0.01999
1352.03,0.02002
1346.24,0.01955
1340.46,0.01985
1334.67,0.01895
1328.88,0.01903
1323.1,0.01881
1317.31,0.01882
1311.53,0.01865
1305.74,0.01885
1299.95,0.01911
1294.17,0.01921
1288.38,0.01976
1282.6,0.02040
1276.81,0.02054
1271.02,0.02078
1265.24,0.02098
1259.45,0.02173
1253.66,0.02180
1247.88,0.02178
1242.09,0.02200
1236.31,0.02174
1230.52,0.02142
1224.73,0.02114
1218.95,0.02053
1213.16,0.02111
1207.38,0.02129
1201.59,0.02052
1195.8,0.02030
1190.02,0.02022
1184.23,0.01991
1178.45,0.01962
1172.66,0.01972
1166.87,0.01969
1161.09,0.02000
1155.3,0.01929
1149.51,0.01932
1143.73,0.01979
1137.94,0.01981
1132.16,0.01974
1126.37,0.01953
1120.58,0.02013
1114.8,0.02027
1109.01,0.02045
1103.23,0.02012
1097.44,0.01972
1091.65,0.01921
1085.87,0.01932
1080.08,0.02099
1074.29,0.02055
1068.51,0.02160
1062.72,0.02193
1056.94,0.02219
1051.15,0.02123
1045.36,0.02115
1039.58,0.02141
1033.79,0.02096
1028.01,0.02158
1022.22,0.02057
1016.43,0.02120
1010.65,0.02172
1004.86,0.02285
999.075,0.02300
993.288,0.02292
987.502,0.02254
981.716,0.02296
975.93,0.02210
970.144,0.02187
964.358,0.02239
958.572,0.02212
952.785,0.02210
946.999,0.02197
941.213,0.02213
935.427,0.02173
929.641,0.02197
923.855,0.02170
918.068,0.02199
912.282,0.02142
906.496,0.02156
900.71,0.02164
894.924,0.02107
889.138,0.02053
883.352,0.02161
877.565,0.02094
871.779,0.02043
865.993,0.01959
860.207,0.02052
854.421,0.02023
848.635,0.02071
842.849,0.02023
837.062,0.02094
831.276,0.02169
825.49,0.02013
819.704,0.02136
813.918,0.02116
808.132,0.02147
802.346,0.02011
796.559,0.02018
790.773,0.02028
784.987,0.02103
779.201,0.02031
773.415,0.02039
767.629,0.01982
761.843,0.01931
756.056,0.01899
750.27,0.01912
744.484,0.01855
738.698,0.01979
732.912,0.01939
727.126,0.01886
721.34,0.01968
715.553,0.02000
709.767,0.01972
703.981,0.02023
698.195,0.01935
692.409,0.02052
686.623,0.01970
680.837,0.02023
675.05,0.01897
669.264,0.02055
663.478,0.01922
657.692,0.01941
651.906,0.01862
646.12,0.01960
640.333,0.01830
634.547,0.01796
628.761,0.01689
622.975,0.01723
617.189,0.01760
611.403,0.01888
605.617,0.01659
599.83,0.01540