File: 01_Data/PC/FTIR/IS/PC_2.93_T_IS_230516_R1.dpt
7496.92,0.07180
7491.13,0.08445
7485.34,0.07665
7479.56,0.02874
7473.77,0.06352
7467.99,0.02384
7462.2,0.06078
7456.41,0.03826
7450.63,0.05690
7444.84,0.06727
7439.06,0.05444
7433.27,0.07473
7427.48,0.05136
7421.7,0.07254
7415.91,0.07108
7410.12,0.05719
7404.34,0.05487
7398.55,0.05021
7392.77,0.04428
7386.98,0.07911
7381.19,0.06518
7375.41,0.05925
7369.62,0.07900
7363.84,0.04861
7358.05,0.06610
7352.26,0.05006
7346.48,0.08055
7340.69,0.04774
7334.9,0.03756
7329.12,0.03828
7323.33,0.03516
7317.55,0.02768
7311.76,0.04969
7305.97,0.05186
7300.19,0.05082
7294.4,0.02321
7288.62,0.04719
7282.83,0.06031
7277.04,0.07530
7271.26,0.04435
7265.47,0.03512
7259.68,0.03898
7253.9,0.02812
7248.11,0.05312
7242.33,0.03713
7236.54,0.04886
7230.75,0.05679
7224.97,0.02534
7219.18,0.03124
7213.4,0.03155
7207.61,0.04233
7201.82,0.04690
7196.04,0.02825
7190.25,0.05427
7184.46,0.03990
7178.68,0.04876
7172.89,0.03609
7167.11,0.02751
7161.32,0.06874
7155.53,0.03183
7149.75,0.06006
7143.96,0.07187
7138.18,0.05783
7132.39,0.03222
7126.6,0.01597
7120.82,0.04639
7115.03,0.04702
7109.24,0.03891
7103.46,0.06329
7097.67,0.04615
7091.89,0.04738
7086.1,0.05538
7080.31,0.03914
7074.53,0.03195
7068.74,0.03170
7062.96,0.05217
7057.17,0.01917
7051.38,0.02319
7045.6,0.05863
7039.81,0.03842
7034.02,0.04937
7028.24,0.04253
7022.45,0.05235
7016.67,0.03558
7010.88,0.04960
7005.09,0.04623
6999.31,0.03597
6993.52,0.04750
6987.74,0.05137
6981.95,0.03843
6976.16,0.04790
6970.38,0.04507
6964.59,0.05493
6958.8,0.04085
6953.02,0.05429
6947.23,0.06113
6941.45,0.03582
6935.66,0.04081
6929.87,0.04428
6924.09,0.02067
6918.3,0.04716
6912.52,0.05180
6906.73,0.03481
6900.94,0.04145
6895.16,0.04335
6889.37,0.03290
6883.59,0.05484
6877.8,0.04711
6872.01,0.04436
6866.23,0.05520
6860.44,0.04305
6854.65,0.04093
6848.87,0.03891
6843.08,0.03619
6837.3,0.01971
6831.51,0.03969
6825.72,0.05283
6819.94,0.04425
6814.15,0.05728
6808.37,0.05738
6802.58,0.04506
6796.79,0.04807
6791.01,0.03887
6785.22,0.02902
6779.43,0.02393
6773.65,0.03769
6767.86,0.04207
6762.08,0.04970
6756.29,0.04445
6750.5,0.03786
6744.72,0.03571
6738.93,0.03919
6733.15,0.03274
6727.36,0.03881
6721.57,0.03161
6715.79,0.02510
6710,0.02421
6704.21,0.04689
6698.43,0.04293
6692.64,0.04176
6686.86,0.04093
6681.07,0.02656
6675.28,0.03287
6669.5,0.03783
6663.71,0.04769
6657.93,0.04826
6652.14,0.04006
6646.35,0.04010
6640.57,0.03830
6634.78,0.04851
6628.99,0.04464
6623.21,0.03416
6617.42,0.04938
6611.64,0.02888
6605.85,0.02742
6600.06,0.03571
6594.28,0.03394
6588.49,0.03597
6582.71,0.04245
6576.92,0.03857
6571.13,0.04557
6565.35,0.04639
6559.56,0.04546
6553.77,0.04277
6547.99,0.04031
6542.2,0.03818
6536.42,0.03128
6530.63,0.04253
6524.84,0.04553
6519.06,0.03204
6513.27,0.04107
6507.49,0.03922
6501.7,0.03539
6495.91,0.02986
6490.13,0.02011
6484.34,0.02841
6478.55,0.03272
6472.77,0.04402
6466.98,0.03750
6461.2,0.02866
6455.41,0.03596
6449.62,0.03004
6443.84,0.03559
6438.05,0.03536
6432.27,0.02003
6426.48,0.03370
6420.69,0.02950
6414.91,0.03348
6409.12,0.03923
6403.33,0.03136
6397.55,0.02752
6391.76,0.03585
6385.98,0.03970
6380.19,0.02786
6374.4,0.03820
6368.62,0.04131
6362.83,0.02940
6357.05,0.04224
6351.26,0.02988
6345.47,0.03308
6339.69,0.03153
6333.9,0.03590
6328.12,0.02666
6322.33,0.02756
6316.54,0.03304
6310.76,0.03574
6304.97,0.04334
6299.18,0.04057
6293.4,0.03468
6287.61,0.03733
6281.83,0.02704
6276.04,0.03292
6270.25,0.03297
6264.47,0.02327
6258.68,0.03323
6252.9,0.03031
6247.11,0.03529
6241.32,0.03153
6235.54,0.03387
6229.75,0.03290
6223.96,0.02254
6218.18,0.02650
6212.39,0.02701
6206.61,0.02847
6200.82,0.03613
6195.03,0.03665
6189.25,0.03885
6183.46,0.02907
6177.68,0.02723
6171.89,0.03276
6166.1,0.03213
6160.32,0.03495
6154.53,0.03234
6148.74,0.03009
6142.96,0.03391
6137.17,0.03190
6131.39,0.03020
6125.6,0.03512
6119.81,0.02990
6114.03,0.02838
6108.24,0.02560
6102.46,0.03527
6096.67,0.03511
6090.88,0.03866
6085.1,0.03277
6079.31,0.03600
6073.52,0.03600
6067.74,0.03438
6061.95,0.02719
6056.17,0.02887
6050.38,0.03158
6044.59,0.03213
6038.81,0.03106
6033.02,0.02571
6027.24,0.03314
6021.45,0.03313
6015.66,0.02552
6009.88,0.03534
6004.09,0.02933
5998.3,0.03173
5992.52,0.03093
5986.73,0.02605
5980.95,0.02794
5975.16,0.03298
5969.37,0.03030
5963.59,0.02671
5957.8,0.03326
5952.02,0.02672
5946.23,0.02594
5940.44,0.02974
5934.66,0.02803
5928.87,0.03039
5923.08,0.02959
5917.3,0.02820
5911.51,0.02763
5905.73,0.02476
5899.94,0.02680
5894.15,0.02446
5888.37,0.02958
5882.58,0.03042
5876.8,0.03023
5871.01,0.03278
5865.22,0.03230
5859.44,0.02964
5853.65,0.02396
5847.86,0.03339
5842.08,0.03167
5836.29,0.02771
5830.51,0.02781
5824.72,0.02745
5818.93,0.02526
5813.15,0.02936
5807.36,0.02714
5801.58,0.02736
5795.79,0.02846
5790,0.02979
5784.22,0.02712
5778.43,0.02578
5772.65,0.03283
5766.86,0.02772
5761.07,0.02520
5755.29,0.03052
5749.5,0.02677
5743.71,0.02933
5737.93,0.03182
5732.14,0.02815
5726.36,0.02702
5720.57,0.02342
5714.78,0.02699
5709,0.02739
5703.21,0.02260
5697.43,0.02622
5691.64,0.02536
5685.85,0.02491
5680.07,0.02934
5674.28,0.02794
5668.49,0.02927
5662.71,0.03094
5656.92,0.03016
5651.14,0.03055
5645.35,0.02927
5639.56,0.02658
5633.78,0.02491
5627.99,0.02873
5622.21,0.02471
5616.42,0.02945
5610.63,0.02682
5604.85,0.02900
5599.06,0.02988
5593.27,0.02630
5587.49,0.02316
5581.7,0.02716
5575.92,0.02801
5570.13,0.02726
5564.34,0.02712
5558.56,0.02715
5552.77,0.02532
5546.99,0.02673
5541.2,0.02660
5535.41,0.02638
5529.63,0.02656
5523.84,0.02567
5518.05,0.02565
5512.27,0.02509
5506.48,0.02605
5500.7,0.02993
5494.91,0.02744
5489.12,0.02592
5483.34,0.02679
5477.55,0.02908
5471.77,0.02645
5465.98,0.02823
5460.19,0.02600
5454.41,0.02698
5448.62,0.02607
5442.83,0.02262
5437.05,0.02644
5431.26,0.02746
5425.48,0.02533
5419.69,0.02879
5413.9,0.02846
5408.12,0.02855
5402.33,0.02971
5396.55,0.02874
5390.76,0.02807
5384.97,0.02369
5379.19,0.02833
5373.4,0.02677
5367.61,0.02694
5361.83,0.02554
5356.04,0.02726
5350.26,0.02964
5344.47,0.02411
5338.68,0.03095
5332.9,0.02737
5327.11,0.02358
5321.33,0.02776
5315.54,0.02608
5309.75,0.02512
5303.97,0.02802
5298.18,0.02413
5292.39,0.02619
5286.61,0.02644
5280.82,0.02594
5275.04,0.02683
5269.25,0.02435
5263.46,0.02725
5257.68,0.02617
5251.89,0.02475
5246.11,0.02733
5240.32,0.02316
5234.53,0.02611
5228.75,0.02766
5222.96,0.02394
5217.18,0.02386
5211.39,0.02533
5205.6,0.02651
5199.82,0.02736
5194.03,0.02642
5188.24,0.02501
5182.46,0.02633
5176.67,0.02542
5170.89,0.02661
5165.1,0.02733
5159.31,0.02487
5153.53,0.02423
5147.74,0.02213
5141.96,0.02712
5136.17,0.02356
5130.38,0.02480
5124.6,0.02334
5118.81,0.02429
5113.02,0.02645
5107.24,0.02419
5101.45,0.02231
5095.67,0.02414
5089.88,0.02543
5084.09,0.02309
5078.31,0.02697
5072.52,0.02619
5066.74,0.02508
5060.95,0.02580
5055.16,0.02638
5049.38,0.02334
5043.59,0.02265
5037.8,0.02435
5032.02,0.02641
5026.23,0.02502
5020.45,0.02505
5014.66,0.02643
5008.87,0.02371
5003.09,0.02455
4997.3,0.02294
4991.52,0.02501
4985.73,0.02450
4979.94,0.02627
4974.16,0.02500
4968.37,0.02351
4962.58,0.02289
4956.8,0.02446
4951.01,0.02438
4945.23,0.02414
4939.44,0.02305
4933.65,0.02330
4927.87,0.02494
4922.08,0.02316
4916.3,0.02521
4910.51,0.02636
4904.72,0.02341
4898.94,0.02442
4893.15,0.02421
4887.36,0.02595
4881.58,0.02448
4875.79,0.02453
4870.01,0.02464
4864.22,0.02424
4858.43,0.02538
4852.65,0.02388
4846.86,0.02514
4841.08,0.02520
4835.29,0.02479
4829.5,0.02483
4823.72,0.02355
4817.93,0.02328
4812.14,0.02277
4806.36,0.02456
4800.57,0.02323
4794.79,0.02271
4789,0.02454
4783.21,0.02197
4777.43,0.02437
4771.64,0.02482
4765.86,0.02503
4760.07,0.02466
4754.28,0.02396
4748.5,0.02489
4742.71,0.02518
4736.92,0.02471
4731.14,0.02480
4725.35,0.02292
4719.57,0.02464
4713.78,0.02556
4707.99,0.02462
4702.21,0.02336
4696.42,0.02439
4690.64,0.02324
4684.85,0.02307
4679.06,0.02504
4673.28,0.02445
4667.49,0.02483
4661.7,0.02358
4655.92,0.02303
4650.13,0.02403
4644.35,0.02460
4638.56,0.02256
4632.77,0.02344
4626.99,0.02377
4621.2,0.02349
4615.42,0.02408
4609.63,0.02265
4603.84,0.02336
4598.06,0.02351
4592.27,0.02262
4586.49,0.02302
4580.7,0.02335
4574.91,0.02328
4569.13,0.02434
4563.34,0.02368
4557.55,0.02332
4551.77,0.02263
4545.98,0.02361
4540.2,0.02387
4534.41,0.02418
4528.62,0.02306
4522.84,0.02322
4517.05,0.02429
4511.27,0.02291
4505.48,0.02351
4499.69,0.02398
4493.91,0.02324
4488.12,0.02319
4482.33,0.02318
4476.55,0.02201
4470.76,0.02463
4464.98,0.02361
4459.19,0.02332
4453.4,0.02398
4447.62,0.02401
4441.83,0.02506
4436.05,0.02365
4430.26,0.02348
4424.47,0.02297
4418.69,0.02317
4412.9,0.02432
4407.11,0.02396
4401.33,0.02385
4395.54,0.02288
4389.76,0.02269
4383.97,0.02297
4378.18,0.02343
4372.4,0.02300
4366.61,0.02377
4360.83,0.02363
4355.04,0.02179
4349.25,0.02308
4343.47,0.02240
4337.68,0.02278
4331.89,0.02369
4326.11,0.02379
4320.32,0.02366
4314.54,0.02366
4308.75,0.02463
4302.96,0.02383
4297.18,0.02288
4291.39,0.02415
4285.61,0.02413
4279.82,0.02344
4274.03,0.02439
4268.25,0.02363
4262.46,0.02432
4256.67,0.02288
4250.89,0.02476
4245.1,0.02273
4239.32,0.02339
4233.53,0.02383
4227.74,0.02326
4221.96,0.02322
4216.17,0.02351
4210.39,0.02385
4204.6,0.02349
4198.81,0.02309
4193.03,0.02229
4187.24,0.02246
4181.45,0.02256
4175.67,0.02305
4169.88,0.02258
4164.1,0.02329
4158.31,0.02392
4152.52,0.02334
4146.74,0.02301
4140.95,0.02370
4135.17,0.02336
4129.38,0.02412
4123.59,0.02262
4117.81,0.02251
4112.02,0.02308
4106.23,0.02339
4100.45,0.02325
4094.66,0.02448
4088.88,0.02388
4083.09,0.02330
4077.3,0.02260
4071.52,0.02373
4065.73,0.02296
4059.95,0.02285
4054.16,0.02289
4048.37,0.02379
4042.59,0.02276
4036.8,0.02294
4031.02,0.02309
4025.23,0.02374
4019.44,0.02372
4013.66,0.02340
4007.87,0.02370
4002.08,0.02388
3996.3,0.02420
3990.51,0.02329
3984.73,0.02403
3978.94,0.02369
3973.15,0.02381
3967.37,0.02330
3961.58,0.02344
3955.8,0.02421
3950.01,0.02415
3944.22,0.02378
3938.44,0.02347
3932.65,0.02301
3926.86,0.02386
3921.08,0.02361
3915.29,0.02323
3909.51,0.02383
3903.72,0.02379
3897.93,0.02385
3892.15,0.02385
3886.36,0.02349
3880.58,0.02340
3874.79,0.02400
3869,0.02392
3863.22,0.02302
3857.43,0.02383
3851.64,0.02224
3845.86,0.02319
3840.07,0.02442
3834.29,0.02323
3828.5,0.02329
3822.71,0.02415
3816.93,0.02397
3811.14,0.02356
3805.36,0.02446
3799.57,0.02435
3793.78,0.02393
3788,0.02348
3782.21,0.02383
3776.42,0.02269
3770.64,0.02374
3764.85,0.02344
3759.07,0.02381
3753.28,0.02332
3747.49,0.02231
3741.71,0.02334
3735.92,0.02437
3730.14,0.02372
3724.35,0.02336
3718.56,0.02328
3712.78,0.02361
3706.99,0.02374
3701.2,0.02422
3695.42,0.02345
3689.63,0.02347
3683.85,0.02341
3678.06,0.02478
3672.27,0.02350
3666.49,0.02320
3660.7,0.02364
3654.92,0.02286
3649.13,0.02287
3643.34,0.02344
3637.56,0.02312
3631.77,0.02299
3625.98,0.02260
3620.2,0.02258
3614.41,0.02274
3608.63,0.02366
3602.84,0.02315
3597.05,0.02247
3591.27,0.02191
3585.48,0.02178
3579.7,0.02214
3573.91,0.02227
3568.12,0.02229
3562.34,0.02196
3556.55,0.02194
3550.76,0.02248
3544.98,0.02298
3539.19,0.02225
3533.41,0.02227
3527.62,0.02222
3521.83,0.02110
3516.05,0.02245
3510.26,0.02235
3504.48,0.02238
3498.69,0.02170
3492.9,0.02226
3487.12,0.02184
3481.33,0.02179
3475.55,0.02233
3469.76,0.02117
3463.97,0.02202
3458.19,0.02210
3452.4,0.02169
3446.61,0.02071
3440.83,0.02103
3435.04,0.02089
3429.26,0.02107
3423.47,0.02160
3417.68,0.02134
3411.9,0.02163
3406.11,0.02078
3400.33,0.02115
3394.54,0.02075
3388.75,0.02118
3382.97,0.02167
3377.18,0.02142
3371.39,0.02143
3365.61,0.02109
3359.82,0.02082
3354.04,0.02181
3348.25,0.02160
3342.46,0.02115
3336.68,0.02158
3330.89,0.02217
3325.11,0.02180
3319.32,0.02192
3313.53,0.02221
3307.75,0.02133
3301.96,0.02110
3296.17,0.02094
3290.39,0.02128
3284.6,0.02201
3278.82,0.02165
3273.03,0.02134
3267.24,0.02053
3261.46,0.02102
3255.67,0.02214
3249.89,0.02190
3244.1,0.02208
3238.31,0.02135
3232.53,0.02192
3226.74,0.02240
3220.95,0.02277
3215.17,0.02204
3209.38,0.02199
3203.6,0.02228
3197.81,0.02140
3192.02,0.02218
3186.24,0.02232
3180.45,0.02206
3174.67,0.02254
3168.88,0.02212
3163.09,0.02304
3157.31,0.02231
3151.52,0.02180
3145.73,0.02202
3139.95,0.02200
3134.16,0.02224
3128.38,0.02292
3122.59,0.02205
3116.8,0.02203
3111.02,0.02267
3105.23,0.02166
3099.45,0.02163
3093.66,0.02227
3087.87,0.02173
3082.09,0.02227
3076.3,0.02204
3070.51,0.02166
3064.73,0.02222
3058.94,0.02167
3053.16,0.02148
3047.37,0.02184
3041.58,0.02212
3035.8,0.02180
3030.01,0.02206
3024.23,0.02244
3018.44,0.02163
3012.65,0.02174
3006.87,0.02229
3001.08,0.02130
2995.29,0.02082
2989.51,0.02156
2983.72,0.02133
2977.94,0.02122
2972.15,0.02095
2966.36,0.02142
2960.58,0.02117
2954.79,0.02063
2949.01,0.02132
2943.22,0.02106
2937.43,0.02073
2931.65,0.02141
2925.86,0.02206
2920.08,0.02221
2914.29,0.02180
2908.5,0.02140
2902.72,0.02158
2896.93,0.02153
2891.14,0.02133
2885.36,0.02166
2879.57,0.02135
2873.79,0.02149
2868,0.02150
2862.21,0.02182
2856.43,0.02190
2850.64,0.02240
2844.86,0.02201
2839.07,0.02255
2833.28,0.02291
2827.5,0.02293
2821.71,0.02268
2815.92,0.02234
2810.14,0.02213
2804.35,0.02246
2798.57,0.02220
2792.78,0.02242
2786.99,0.02268
2781.21,0.02273
2775.42,0.02243
2769.64,0.02232
2763.85,0.02320
2758.06,0.02251
2752.28,0.02260
2746.49,0.02317
2740.7,0.02296
2734.92,0.02295
2729.13,0.02265
2723.35,0.02236
2717.56,0.02274
2711.77,0.02284
2705.99,0.02291
2700.2,0.02251
2694.42,0.02244
2688.63,0.02245
2682.84,0.02255
2677.06,0.02255
2671.27,0.02236
2665.48,0.02261
2659.7,0.02299
2653.91,0.02304
2648.13,0.02290
2642.34,0.02243
2636.55,0.02280
2630.77,0.02243
2624.98,0.02275
2619.2,0.02258
2613.41,0.02272
2607.62,0.02256
2601.84,0.02282
2596.05,0.02265
2590.26,0.02309
2584.48,0.02292
2578.69,0.02302
2572.91,0.02260
2567.12,0.02293
2561.33,0.02238
2555.55,0.02302
2549.76,0.02246
2543.98,0.02304
2538.19,0.02268
2532.4,0.02278
2526.62,0.02295
2520.83,0.02310
2515.04,0.02288
2509.26,0.02277
2503.47,0.02275
2497.69,0.02293
2491.9,0.02289
2486.11,0.02333
2480.33,0.02261
2474.54,0.02279
2468.76,0.02299
2462.97,0.02297
2457.18,0.02261
2451.4,0.02285
2445.61,0.02311
2439.82,0.02284
2434.04,0.02295
2428.25,0.02289
2422.47,0.02263
2416.68,0.02290
2410.89,0.02272
2405.11,0.02298
2399.32,0.02267
2393.54,0.02293
2387.75,0.02327
2381.96,0.02313
2376.18,0.02302
2370.39,0.02413
2364.61,0.02391
2358.82,0.02347
2353.03,0.02330
2347.25,0.02344
2341.46,0.02397
2335.67,0.02340
2329.89,0.02317
2324.1,0.02351
2318.32,0.02324
2312.53,0.02301
2306.74,0.02321
2300.96,0.02302
2295.17,0.02341
2289.39,0.02291
2283.6,0.02310
2277.81,0.02286
2272.03,0.02303
2266.24,0.02320
2260.45,0.02302
2254.67,0.02330
2248.88,0.02257
2243.1,0.02302
2237.31,0.02316
2231.52,0.02287
2225.74,0.02309
2219.95,0.02251
2214.17,0.02242
2208.38,0.02302
2202.59,0.02290
2196.81,0.02284
2191.02,0.02303
2185.23,0.02287
2179.45,0.02293
2173.66,0.02265
2167.88,0.02310
2162.09,0.02273
2156.3,0.02261
2150.52,0.02278
2144.73,0.02312
2138.95,0.02277
2133.16,0.02293
2127.37,0.02283
2121.59,0.02260
2115.8,0.02271
2110.01,0.02254
2104.23,0.02280
2098.44,0.02317
2092.66,0.02282
2086.87,0.02288
2081.08,0.02290
2075.3,0.02327
2069.51,0.02279
2063.73,0.02290
2057.94,0.02298
2052.15,0.02292
2046.37,0.02276
2040.58,0.02268
2034.79,0.02285
2029.01,0.02266
2023.22,0.02243
2017.44,0.02246
2011.65,0.02265
2005.86,0.02285
2000.08,0.02278
1994.29,0.02299
1988.51,0.02306
1982.72,0.02283
1976.93,0.02271
1971.15,0.02286
1965.36,0.02275
1959.57,0.02290
1953.79,0.02277
1948,0.02245
1942.22,0.02221
1936.43,0.02270
1930.64,0.02264
1924.86,0.02278
1919.07,0.02258
1913.29,0.02293
1907.5,0.02284
1901.71,0.02266
1895.93,0.02281
1890.14,0.02259
1884.35,0.02213
1878.57,0.02240
1872.78,0.02232
1867,0.02268
1861.21,0.02252
1855.42,0.02224
1849.64,0.02224
1843.85,0.02199
1838.07,0.02211
1832.28,0.02222
1826.49,0.02246
1820.71,0.02217
1814.92,0.02196
1809.13,0.02195
1803.35,0.02200
1797.56,0.02185
1791.78,0.02164
1785.99,0.02153
1780.2,0.02138
1774.42,0.02149
1768.63,0.02085
1762.85,0.02066
1757.06,0.01997
1751.27,0.01952
1745.49,0.01972
1739.7,0.02013
1733.92,0.02108
1728.13,0.02188
1722.34,0.02263
1716.56,0.02267
1710.77,0.02269
1704.98,0.02191
1699.2,0.02222
1693.41,0.02117
1687.63,0.02132
1681.84,0.02135
1676.05,0.02136
1670.27,0.02173
1664.48,0.02087
1658.7,0.02023
1652.91,0.02010
1647.12,0.02087
1641.34,0.02076
1635.55,0.02022
1629.76,0.02067
1623.98,0.02113
1618.19,0.02085
1612.41,0.02086
1606.62,0.02067
1600.83,0.02146
1595.05,0.02108
1589.26,0.02056
1583.48,0.02056
1577.69,0.02041
1571.9,0.02001
1566.12,0.02046
1560.33,0.02013
1554.54,0.02021
1548.76,0.02044
1542.97,0.02084
1537.19,0.02119
1531.4,0.02079
1525.61,0.02111
1519.83,0.02068
1514.04,0.02038
1508.26,0.02055
1502.47,0.02074
1496.68,0.02069
1490.9,0.02116
1485.11,0.02085
1479.32,0.02043
1473.54,0.02011
1467.75,0.02038
1461.97,0.02000
1456.18,0.02085
1450.39,0.02067
1444.61,0.02054
1438.82,0.02061
1433.04,0.02030
1427.25,0.02041
1421.46,0.02020
1415.68,0.01996
1409.89,0.02027
1404.1,0.02028
1398.32,0.02022
1392.53,0.01959
1386.75,0.01985
1380.96,0.02015
1375.17,0.02028
1369.39,0.02007
1363.6,0.02018
1357.82,0.01965
1352.03,0.01942
1346.24,0.01941
1340.46,0.01949
1334.67,0.01927
1328.88,0.01900
1323.1,0.01919
1317.31,0.01897
1311.53,0.01812
1305.74,0.01889
1299.95,0.01898
1294.17,0.01951
1288.38,0.01968
1282.6,0.02029
1276.81,0.02051
1271.02,0.02092
1265.24,0.02147
1259.45,0.02152
1253.66,0.02154
1247.88,0.02162
1242.09,0.02178
1236.31,0.02155
1230.52,0.02105
1224.73,0.02084
1218.95,0.02064
1213.16,0.02082
1207.38,0.02076
1201.59,0.02080
1195.8,0.01976
1190.02,0.01997
1184.23,0.01993
1178.45,0.01979
1172.66,0.01924
1166.87,0.01918
1161.09,0.01978
1155.3,0.01900
1149.51,0.01909
1143.73,0.01951
1137.94,0.01977
1132.16,0.01962
1126.37,0.01965
1120.58,0.02003
1114.8,0.02058
1109.01,0.02046
1103.23,0.02069
1097.44,0.02016
1091.65,0.02065
1085.87,0.02070
1080.08,0.02065
1074.29,0.02103
1068.51,0.02152
1062.72,0.02144
1056.94,0.02177
1051.15,0.02139
1045.36,0.02158
1039.58,0.02118
1033.79,0.02065
1028.01,0.02089
1022.22,0.02079
1016.43,0.02174
1010.65,0.02161
1004.86,0.02242
999.075,0.02334
993.288,0.02282
987.502,0.02253
981.716,0.02227
975.93,0.02229
970.144,0.02235
964.358,0.02255
958.572,0.02206
952.785,0.02223
946.999,0.02179
941.213,0.02191
935.427,0.02186
929.641,0.02146
923.855,0.02153
918.068,0.02153
912.282,0.02191
906.496,0.02138
900.71,0.02115
894.924,0.02150
889.138,0.02113
883.352,0.02134
877.565,0.02106
871.779,0.02050
865.993,0.02106
860.207,0.02110
854.421,0.02047
848.635,0.02077
842.849,0.02122
837.062,0.02042
831.276,0.02013
825.49,0.02080
819.704,0.02084
813.918,0.02013
808.132,0.02073
802.346,0.02080
796.559,0.02075
790.773,0.02061
784.987,0.02025
779.201,0.02013
773.415,0.01958
767.629,0.01966
761.843,0.01958
756.056,0.01930
750.27,0.01949
744.484,0.02010
738.698,0.01925
732.912,0.01936
727.126,0.01951
721.34,0.02025
715.553,0.01962
709.767,0.01924
703.981,0.01988
698.195,0.01950
692.409,0.01902
686.623,0.01876
680.837,0.01967
675.05,0.02089
669.264,0.01895
663.478,0.01990
657.692,0.01892
651.906,0.01836
646.12,0.01949
640.333,0.01862
634.547,0.01881
628.761,0.01866
622.975,0.01954
617.189,0.02131
611.403,0.01793
605.617,0.01636
599.83,0.01854