File: 01_Data/PC/FTIR/IS/PC_2.93_S_IS_230516_R2.dpt
7496.92,0.10148
7491.13,0.09425
7485.34,0.08324
7479.56,0.08244
7473.77,0.09913
7467.99,0.07438
7462.2,0.09874
7456.41,0.11122
7450.63,0.08829
7444.84,0.08061
7439.06,0.09396
7433.27,0.10613
7427.48,0.07549
7421.7,0.09915
7415.91,0.08004
7410.12,0.07675
7404.34,0.10703
7398.55,0.07646
7392.77,0.08747
7386.98,0.07395
7381.19,0.06781
7375.41,0.08994
7369.62,0.07735
7363.84,0.10397
7358.05,0.09874
7352.26,0.08276
7346.48,0.04063
7340.69,0.10434
7334.9,0.08953
7329.12,0.08613
7323.33,0.10948
7317.55,0.09605
7311.76,0.10488
7305.97,0.07365
7300.19,0.05069
7294.4,0.09606
7288.62,0.08075
7282.83,0.08455
7277.04,0.07484
7271.26,0.08348
7265.47,0.08659
7259.68,0.09804
7253.9,0.09245
7248.11,0.09220
7242.33,0.07006
7236.54,0.06765
7230.75,0.09675
7224.97,0.07147
7219.18,0.08665
7213.4,0.07635
7207.61,0.10874
7201.82,0.10233
7196.04,0.06779
7190.25,0.05582
7184.46,0.09175
7178.68,0.08876
7172.89,0.07962
7167.11,0.09948
7161.32,0.05629
7155.53,0.08437
7149.75,0.10005
7143.96,0.07604
7138.18,0.07259
7132.39,0.10962
7126.6,0.07607
7120.82,0.08687
7115.03,0.07871
7109.24,0.09407
7103.46,0.08171
7097.67,0.06355
7091.89,0.07239
7086.1,0.09241
7080.31,0.07688
7074.53,0.06453
7068.74,0.09563
7062.96,0.08927
7057.17,0.08610
7051.38,0.09559
7045.6,0.07604
7039.81,0.08788
7034.02,0.08410
7028.24,0.09146
7022.45,0.09330
7016.67,0.09134
7010.88,0.08398
7005.09,0.08658
6999.31,0.08162
6993.52,0.09121
6987.74,0.08090
6981.95,0.08857
6976.16,0.10685
6970.38,0.09124
6964.59,0.10990
6958.8,0.09608
6953.02,0.08057
6947.23,0.09623
6941.45,0.09679
6935.66,0.09004
6929.87,0.10008
6924.09,0.10299
6918.3,0.10947
6912.52,0.09590
6906.73,0.08597
6900.94,0.09419
6895.16,0.09378
6889.37,0.10597
6883.59,0.10107
6877.8,0.10863
6872.01,0.10191
6866.23,0.10711
6860.44,0.10370
6854.65,0.10410
6848.87,0.09250
6843.08,0.08771
6837.3,0.09227
6831.51,0.08889
6825.72,0.10289
6819.94,0.10588
6814.15,0.08379
6808.37,0.09855
6802.58,0.09574
6796.79,0.09483
6791.01,0.10283
6785.22,0.09865
6779.43,0.10413
6773.65,0.10461
6767.86,0.09542
6762.08,0.09966
6756.29,0.11128
6750.5,0.09816
6744.72,0.09739
6738.93,0.10919
6733.15,0.08878
6727.36,0.09732
6721.57,0.10661
6715.79,0.09510
6710,0.09884
6704.21,0.09730
6698.43,0.10249
6692.64,0.10422
6686.86,0.10912
6681.07,0.10617
6675.28,0.10274
6669.5,0.09658
6663.71,0.10474
6657.93,0.10978
6652.14,0.10960
6646.35,0.10380
6640.57,0.10088
6634.78,0.09991
6628.99,0.11111
6623.21,0.09944
6617.42,0.10158
6611.64,0.09584
6605.85,0.09843
6600.06,0.10043
6594.28,0.10740
6588.49,0.10925
6582.71,0.10559
6576.92,0.11245
6571.13,0.10208
6565.35,0.10578
6559.56,0.10769
6553.77,0.10999
6547.99,0.10643
6542.2,0.10436
6536.42,0.10880
6530.63,0.10554
6524.84,0.11563
6519.06,0.11571
6513.27,0.11984
6507.49,0.10911
6501.7,0.11481
6495.91,0.09540
6490.13,0.11002
6484.34,0.11116
6478.55,0.11232
6472.77,0.11043
6466.98,0.11070
6461.2,0.11074
6455.41,0.10679
6449.62,0.10669
6443.84,0.10199
6438.05,0.11542
6432.27,0.12309
6426.48,0.10792
6420.69,0.10887
6414.91,0.10812
6409.12,0.10865
6403.33,0.10950
6397.55,0.12153
6391.76,0.11784
6385.98,0.11574
6380.19,0.11392
6374.4,0.12139
6368.62,0.11885
6362.83,0.11916
6357.05,0.11079
6351.26,0.11085
6345.47,0.10869
6339.69,0.10723
6333.9,0.09726
6328.12,0.10506
6322.33,0.10859
6316.54,0.10660
6310.76,0.10392
6304.97,0.10594
6299.18,0.10501
6293.4,0.10357
6287.61,0.10849
6281.83,0.10452
6276.04,0.10038
6270.25,0.09996
6264.47,0.10501
6258.68,0.10734
6252.9,0.10148
6247.11,0.10906
6241.32,0.10780
6235.54,0.10331
6229.75,0.10036
6223.96,0.10065
6218.18,0.10591
6212.39,0.10123
6206.61,0.10161
6200.82,0.09192
6195.03,0.09077
6189.25,0.08328
6183.46,0.08542
6177.68,0.08671
6171.89,0.08480
6166.1,0.07890
6160.32,0.08122
6154.53,0.08158
6148.74,0.07834
6142.96,0.08153
6137.17,0.07889
6131.39,0.07240
6125.6,0.06692
6119.81,0.07102
6114.03,0.06870
6108.24,0.07466
6102.46,0.06287
6096.67,0.05973
6090.88,0.05850
6085.1,0.05282
6079.31,0.05148
6073.52,0.05243
6067.74,0.04655
6061.95,0.04625
6056.17,0.04778
6050.38,0.04387
6044.59,0.04410
6038.81,0.04048
6033.02,0.04286
6027.24,0.04527
6021.45,0.04132
6015.66,0.04345
6009.88,0.04420
6004.09,0.04024
5998.3,0.03443
5992.52,0.04170
5986.73,0.04139
5980.95,0.04084
5975.16,0.03858
5969.37,0.03416
5963.59,0.04256
5957.8,0.04646
5952.02,0.04817
5946.23,0.04224
5940.44,0.04399
5934.66,0.04254
5928.87,0.04043
5923.08,0.04245
5917.3,0.04022
5911.51,0.04702
5905.73,0.04713
5899.94,0.04540
5894.15,0.04384
5888.37,0.04466
5882.58,0.04749
5876.8,0.05002
5871.01,0.04886
5865.22,0.04702
5859.44,0.05263
5853.65,0.05562
5847.86,0.06237
5842.08,0.06014
5836.29,0.05911
5830.51,0.05981
5824.72,0.06108
5818.93,0.05778
5813.15,0.05883
5807.36,0.06404
5801.58,0.06640
5795.79,0.06413
5790,0.05994
5784.22,0.06180
5778.43,0.05693
5772.65,0.05729
5766.86,0.05668
5761.07,0.05643
5755.29,0.05739
5749.5,0.05511
5743.71,0.06202
5737.93,0.06427
5732.14,0.07059
5726.36,0.07824
5720.57,0.08187
5714.78,0.07889
5709,0.07914
5703.21,0.08430
5697.43,0.08535
5691.64,0.08366
5685.85,0.08260
5680.07,0.07572
5674.28,0.07639
5668.49,0.07382
5662.71,0.07351
5656.92,0.07300
5651.14,0.07971
5645.35,0.07642
5639.56,0.08423
5633.78,0.08672
5627.99,0.08591
5622.21,0.08896
5616.42,0.09040
5610.63,0.09139
5604.85,0.09291
5599.06,0.09146
5593.27,0.09136
5587.49,0.09389
5581.7,0.09167
5575.92,0.08916
5570.13,0.09283
5564.34,0.08964
5558.56,0.09252
5552.77,0.09137
5546.99,0.09303
5541.2,0.09340
5535.41,0.09397
5529.63,0.09543
5523.84,0.09047
5518.05,0.09242
5512.27,0.09127
5506.48,0.09331
5500.7,0.09438
5494.91,0.09473
5489.12,0.09412
5483.34,0.09049
5477.55,0.09076
5471.77,0.08784
5465.98,0.09223
5460.19,0.09294
5454.41,0.09168
5448.62,0.09443
5442.83,0.09108
5437.05,0.09517
5431.26,0.09641
5425.48,0.09418
5419.69,0.09717
5413.9,0.09667
5408.12,0.09465
5402.33,0.09819
5396.55,0.09397
5390.76,0.10040
5384.97,0.10041
5379.19,0.09909
5373.4,0.09913
5367.61,0.10173
5361.83,0.10146
5356.04,0.09683
5350.26,0.09916
5344.47,0.09687
5338.68,0.09757
5332.9,0.09581
5327.11,0.09721
5321.33,0.09842
5315.54,0.09657
5309.75,0.09711
5303.97,0.09373
5298.18,0.09578
5292.39,0.09170
5286.61,0.08510
5280.82,0.08181
5275.04,0.08089
5269.25,0.07654
5263.46,0.07389
5257.68,0.07325
5251.89,0.08127
5246.11,0.08380
5240.32,0.08923
5234.53,0.09248
5228.75,0.09872
5222.96,0.09915
5217.18,0.10032
5211.39,0.10056
5205.6,0.10090
5199.82,0.09994
5194.03,0.10328
5188.24,0.10343
5182.46,0.10059
5176.67,0.10155
5170.89,0.10168
5165.1,0.10252
5159.31,0.10216
5153.53,0.10196
5147.74,0.10684
5141.96,0.10544
5136.17,0.10632
5130.38,0.10848
5124.6,0.10744
5118.81,0.10740
5113.02,0.10866
5107.24,0.10555
5101.45,0.10655
5095.67,0.10667
5089.88,0.10808
5084.09,0.10695
5078.31,0.10731
5072.52,0.10765
5066.74,0.10685
5060.95,0.10731
5055.16,0.10723
5049.38,0.10919
5043.59,0.10985
5037.8,0.10917
5032.02,0.10823
5026.23,0.11062
5020.45,0.10822
5014.66,0.10722
5008.87,0.10681
5003.09,0.10511
4997.3,0.10535
4991.52,0.10819
4985.73,0.10574
4979.94,0.10498
4974.16,0.10306
4968.37,0.10265
4962.58,0.10190
4956.8,0.10206
4951.01,0.10164
4945.23,0.10216
4939.44,0.09944
4933.65,0.10071
4927.87,0.10303
4922.08,0.10160
4916.3,0.09629
4910.51,0.09477
4904.72,0.09126
4898.94,0.08975
4893.15,0.08908
4887.36,0.08898
4881.58,0.08777
4875.79,0.08800
4870.01,0.08624
4864.22,0.08438
4858.43,0.08285
4852.65,0.08100
4846.86,0.07875
4841.08,0.07830
4835.29,0.08079
4829.5,0.08202
4823.72,0.08214
4817.93,0.08276
4812.14,0.08379
4806.36,0.08468
4800.57,0.08423
4794.79,0.08439
4789,0.08458
4783.21,0.08147
4777.43,0.07962
4771.64,0.07857
4765.86,0.07564
4760.07,0.07336
4754.28,0.07155
4748.5,0.06979
4742.71,0.06674
4736.92,0.06381
4731.14,0.06202
4725.35,0.05886
4719.57,0.05695
4713.78,0.05506
4707.99,0.05392
4702.21,0.05415
4696.42,0.05216
4690.64,0.05162
4684.85,0.05365
4679.06,0.05345
4673.28,0.05347
4667.49,0.05359
4661.7,0.05359
4655.92,0.05324
4650.13,0.05380
4644.35,0.05478
4638.56,0.05485
4632.77,0.05371
4626.99,0.05303
4621.2,0.05369
4615.42,0.05555
4609.63,0.05652
4603.84,0.05688
4598.06,0.05781
4592.27,0.05588
4586.49,0.05592
4580.7,0.05450
4574.91,0.05326
4569.13,0.05472
4563.34,0.05767
4557.55,0.05993
4551.77,0.06091
4545.98,0.06273
4540.2,0.06298
4534.41,0.06226
4528.62,0.06170
4522.84,0.06183
4517.05,0.06319
4511.27,0.06296
4505.48,0.06295
4499.69,0.06079
4493.91,0.05904
4488.12,0.05759
4482.33,0.05729
4476.55,0.05721
4470.76,0.05734
4464.98,0.05817
4459.19,0.05567
4453.4,0.05532
4447.62,0.05550
4441.83,0.05606
4436.05,0.05588
4430.26,0.05397
4424.47,0.05487
4418.69,0.05532
4412.9,0.05456
4407.11,0.05507
4401.33,0.05495
4395.54,0.05422
4389.76,0.05493
4383.97,0.05570
4378.18,0.05506
4372.4,0.05447
4366.61,0.05406
4360.83,0.05454
4355.04,0.05435
4349.25,0.05561
4343.47,0.05570
4337.68,0.05581
4331.89,0.05476
4326.11,0.05509
4320.32,0.05531
4314.54,0.05571
4308.75,0.05465
4302.96,0.05577
4297.18,0.05622
4291.39,0.05560
4285.61,0.05504
4279.82,0.05655
4274.03,0.05530
4268.25,0.05610
4262.46,0.05561
4256.67,0.05575
4250.89,0.05537
4245.1,0.05563
4239.32,0.05685
4233.53,0.05497
4227.74,0.05580
4221.96,0.05633
4216.17,0.05557
4210.39,0.05587
4204.6,0.05642
4198.81,0.05597
4193.03,0.05569
4187.24,0.05555
4181.45,0.05691
4175.67,0.05557
4169.88,0.05476
4164.1,0.05532
4158.31,0.05663
4152.52,0.05655
4146.74,0.05577
4140.95,0.05592
4135.17,0.05608
4129.38,0.05552
4123.59,0.05664
4117.81,0.05513
4112.02,0.05627
4106.23,0.05661
4100.45,0.05602
4094.66,0.05700
4088.88,0.05697
4083.09,0.05677
4077.3,0.05700
4071.52,0.05715
4065.73,0.05686
4059.95,0.05704
4054.16,0.05702
4048.37,0.05655
4042.59,0.05702
4036.8,0.05749
4031.02,0.05700
4025.23,0.05713
4019.44,0.05726
4013.66,0.05681
4007.87,0.05698
4002.08,0.05772
3996.3,0.05698
3990.51,0.05789
3984.73,0.05719
3978.94,0.05691
3973.15,0.05706
3967.37,0.05784
3961.58,0.05789
3955.8,0.05707
3950.01,0.05634
3944.22,0.05823
3938.44,0.05756
3932.65,0.05800
3926.86,0.05748
3921.08,0.05779
3915.29,0.05730
3909.51,0.05818
3903.72,0.05855
3897.93,0.05807
3892.15,0.05769
3886.36,0.05751
3880.58,0.05736
3874.79,0.05723
3869,0.05652
3863.22,0.05803
3857.43,0.05827
3851.64,0.05836
3845.86,0.05845
3840.07,0.05886
3834.29,0.05967
3828.5,0.05876
3822.71,0.05927
3816.93,0.05929
3811.14,0.05813
3805.36,0.05779
3799.57,0.05824
3793.78,0.05978
3788,0.05998
3782.21,0.06104
3776.42,0.06031
3770.64,0.05972
3764.85,0.05934
3759.07,0.05931
3753.28,0.05909
3747.49,0.05947
3741.71,0.05877
3735.92,0.05754
3730.14,0.05941
3724.35,0.05876
3718.56,0.05815
3712.78,0.05847
3706.99,0.05863
3701.2,0.05882
3695.42,0.05929
3689.63,0.05826
3683.85,0.05907
3678.06,0.05685
3672.27,0.05814
3666.49,0.05863
3660.7,0.05820
3654.92,0.05868
3649.13,0.05757
3643.34,0.05752
3637.56,0.05843
3631.77,0.05808
3625.98,0.05764
3620.2,0.05786
3614.41,0.05700
3608.63,0.05944
3602.84,0.05832
3597.05,0.05761
3591.27,0.05758
3585.48,0.05758
3579.7,0.05743
3573.91,0.05746
3568.12,0.05785
3562.34,0.05770
3556.55,0.05750
3550.76,0.05771
3544.98,0.05847
3539.19,0.05743
3533.41,0.05732
3527.62,0.05761
3521.83,0.05874
3516.05,0.05709
3510.26,0.05713
3504.48,0.05783
3498.69,0.05819
3492.9,0.05800
3487.12,0.05823
3481.33,0.05761
3475.55,0.05798
3469.76,0.05831
3463.97,0.05743
3458.19,0.05850
3452.4,0.05821
3446.61,0.05806
3440.83,0.05833
3435.04,0.05860
3429.26,0.05927
3423.47,0.05928
3417.68,0.05917
3411.9,0.05846
3406.11,0.05924
3400.33,0.05898
3394.54,0.05874
3388.75,0.05833
3382.97,0.05784
3377.18,0.05859
3371.39,0.05856
3365.61,0.05785
3359.82,0.05749
3354.04,0.05806
3348.25,0.05766
3342.46,0.05769
3336.68,0.05890
3330.89,0.05748
3325.11,0.05751
3319.32,0.05774
3313.53,0.05775
3307.75,0.05804
3301.96,0.05750
3296.17,0.05863
3290.39,0.05819
3284.6,0.05773
3278.82,0.05787
3273.03,0.05794
3267.24,0.05761
3261.46,0.05802
3255.67,0.05814
3249.89,0.05808
3244.1,0.05788
3238.31,0.05773
3232.53,0.05919
3226.74,0.05852
3220.95,0.05832
3215.17,0.05839
3209.38,0.05812
3203.6,0.05794
3197.81,0.05749
3192.02,0.05871
3186.24,0.05850
3180.45,0.05841
3174.67,0.05835
3168.88,0.05844
3163.09,0.05881
3157.31,0.05887
3151.52,0.05819
3145.73,0.05881
3139.95,0.05853
3134.16,0.05895
3128.38,0.05854
3122.59,0.05890
3116.8,0.05827
3111.02,0.05834
3105.23,0.05868
3099.45,0.05870
3093.66,0.05837
3087.87,0.05845
3082.09,0.05862
3076.3,0.05838
3070.51,0.05917
3064.73,0.05811
3058.94,0.05886
3053.16,0.05891
3047.37,0.05920
3041.58,0.05887
3035.8,0.05951
3030.01,0.05930
3024.23,0.05843
3018.44,0.05857
3012.65,0.05852
3006.87,0.05784
3001.08,0.05811
2995.29,0.05733
2989.51,0.05685
2983.72,0.05709
2977.94,0.05772
2972.15,0.05858
2966.36,0.06007
2960.58,0.06104
2954.79,0.06152
2949.01,0.06007
2943.22,0.05987
2937.43,0.05975
2931.65,0.06030
2925.86,0.06110
2920.08,0.06009
2914.29,0.05958
2908.5,0.05987
2902.72,0.06060
2896.93,0.05999
2891.14,0.06038
2885.36,0.06037
2879.57,0.06016
2873.79,0.06073
2868,0.06097
2862.21,0.06081
2856.43,0.06026
2850.64,0.06069
2844.86,0.06056
2839.07,0.06024
2833.28,0.06051
2827.5,0.06099
2821.71,0.06042
2815.92,0.06030
2810.14,0.06079
2804.35,0.06061
2798.57,0.06090
2792.78,0.06042
2786.99,0.06004
2781.21,0.05993
2775.42,0.06037
2769.64,0.06073
2763.85,0.06006
2758.06,0.06069
2752.28,0.06030
2746.49,0.06042
2740.7,0.06056
2734.92,0.06041
2729.13,0.06047
2723.35,0.06078
2717.56,0.06040
2711.77,0.06006
2705.99,0.06078
2700.2,0.06040
2694.42,0.06061
2688.63,0.06039
2682.84,0.06070
2677.06,0.06039
2671.27,0.06046
2665.48,0.06037
2659.7,0.06045
2653.91,0.06041
2648.13,0.06081
2642.34,0.06068
2636.55,0.06085
2630.77,0.06070
2624.98,0.06066
2619.2,0.06066
2613.41,0.06078
2607.62,0.06072
2601.84,0.06087
2596.05,0.06110
2590.26,0.06103
2584.48,0.06067
2578.69,0.06113
2572.91,0.06066
2567.12,0.06075
2561.33,0.06077
2555.55,0.06042
2549.76,0.06061
2543.98,0.06080
2538.19,0.06116
2532.4,0.06039
2526.62,0.06057
2520.83,0.06061
2515.04,0.06020
2509.26,0.06046
2503.47,0.06071
2497.69,0.06042
2491.9,0.06076
2486.11,0.06055
2480.33,0.06058
2474.54,0.06063
2468.76,0.06056
2462.97,0.06081
2457.18,0.06102
2451.4,0.06079
2445.61,0.06100
2439.82,0.06133
2434.04,0.06121
2428.25,0.06069
2422.47,0.06082
2416.68,0.06078
2410.89,0.06076
2405.11,0.06058
2399.32,0.06103
2393.54,0.06111
2387.75,0.06085
2381.96,0.06110
2376.18,0.06117
2370.39,0.06104
2364.61,0.06117
2358.82,0.06138
2353.03,0.06070
2347.25,0.06143
2341.46,0.06040
2335.67,0.06067
2329.89,0.06095
2324.1,0.06115
2318.32,0.06066
2312.53,0.06125
2306.74,0.06138
2300.96,0.06101
2295.17,0.06109
2289.39,0.06109
2283.6,0.06065
2277.81,0.06091
2272.03,0.06090
2266.24,0.06028
2260.45,0.06059
2254.67,0.06016
2248.88,0.06062
2243.1,0.06038
2237.31,0.06105
2231.52,0.06052
2225.74,0.06128
2219.95,0.06049
2214.17,0.06094
2208.38,0.06079
2202.59,0.06073
2196.81,0.06045
2191.02,0.06047
2185.23,0.06105
2179.45,0.06063
2173.66,0.06061
2167.88,0.06061
2162.09,0.06059
2156.3,0.06080
2150.52,0.06075
2144.73,0.06043
2138.95,0.06026
2133.16,0.06014
2127.37,0.06039
2121.59,0.06052
2115.8,0.06038
2110.01,0.06003
2104.23,0.05997
2098.44,0.06016
2092.66,0.06063
2086.87,0.06047
2081.08,0.06016
2075.3,0.05999
2069.51,0.06020
2063.73,0.05995
2057.94,0.05975
2052.15,0.06005
2046.37,0.06002
2040.58,0.06036
2034.79,0.06003
2029.01,0.05959
2023.22,0.05981
2017.44,0.05947
2011.65,0.05935
2005.86,0.05964
2000.08,0.05983
1994.29,0.05962
1988.51,0.05953
1982.72,0.05957
1976.93,0.05924
1971.15,0.05931
1965.36,0.05922
1959.57,0.05922
1953.79,0.05873
1948,0.05889
1942.22,0.05879
1936.43,0.05884
1930.64,0.05857
1924.86,0.05829
1919.07,0.05824
1913.29,0.05797
1907.5,0.05778
1901.71,0.05792
1895.93,0.05792
1890.14,0.05782
1884.35,0.05759
1878.57,0.05753
1872.78,0.05715
1867,0.05689
1861.21,0.05653
1855.42,0.05615
1849.64,0.05593
1843.85,0.05519
1838.07,0.05440
1832.28,0.05390
1826.49,0.05318
1820.71,0.05198
1814.92,0.05072
1809.13,0.04878
1803.35,0.04653
1797.56,0.04317
1791.78,0.04198
1785.99,0.04705
1780.2,0.06033
1774.42,0.07545
1768.63,0.08808
1762.85,0.08593
1757.06,0.07874
1751.27,0.07407
1745.49,0.07024
1739.7,0.06824
1733.92,0.06702
1728.13,0.06609
1722.34,0.06554
1716.56,0.06477
1710.77,0.06350
1704.98,0.06298
1699.2,0.06224
1693.41,0.06166
1687.63,0.06183
1681.84,0.06079
1676.05,0.06086
1670.27,0.06053
1664.48,0.06012
1658.7,0.05968
1652.91,0.05906
1647.12,0.05920
1641.34,0.05931
1635.55,0.05934
1629.76,0.05870
1623.98,0.05858
1618.19,0.05815
1612.41,0.05743
1606.62,0.05726
1600.83,0.05782
1595.05,0.05846
1589.26,0.05904
1583.48,0.05806
1577.69,0.05764
1571.9,0.05670
1566.12,0.05611
1560.33,0.05515
1554.54,0.05456
1548.76,0.05393
1542.97,0.05390
1537.19,0.05198
1531.4,0.05062
1525.61,0.04938
1519.83,0.04564
1514.04,0.04202
1508.26,0.05206
1502.47,0.07221
1496.68,0.07222
1490.9,0.06900
1485.11,0.06497
1479.32,0.06284
1473.54,0.06127
1467.75,0.06004
1461.97,0.06055
1456.18,0.05972
1450.39,0.05955
1444.61,0.05853
1438.82,0.05786
1433.04,0.05662
1427.25,0.05560
1421.46,0.05431
1415.68,0.05260
1409.89,0.05436
1404.1,0.05614
1398.32,0.05475
1392.53,0.05269
1386.75,0.05312
1380.96,0.05331
1375.17,0.05214
1369.39,0.04956
1363.6,0.05241
1357.82,0.05232
1352.03,0.05009
1346.24,0.04869
1340.46,0.04717
1334.67,0.04561
1328.88,0.04440
1323.1,0.04253
1317.31,0.04029
1311.53,0.03837
1305.74,0.03740
1299.95,0.03512
1294.17,0.03451
1288.38,0.03476
1282.6,0.03200
1276.81,0.02739
1271.02,0.02224
1265.24,0.02086
1259.45,0.03753
1253.66,0.07204
1247.88,0.09681
1242.09,0.11034
1236.31,0.12233
1230.52,0.13416
1224.73,0.13942
1218.95,0.13122
1213.16,0.10599
1207.38,0.07760
1201.59,0.09180
1195.8,0.14677
1190.02,0.16704
1184.23,0.14048
1178.45,0.11092
1172.66,0.08867
1166.87,0.11154
1161.09,0.15582
1155.3,0.13884
1149.51,0.12156
1143.73,0.11113
1137.94,0.10468
1132.16,0.09930
1126.37,0.09491
1120.58,0.09108
1114.8,0.08857
1109.01,0.08804
1103.23,0.08843
1097.44,0.08715
1091.65,0.08248
1085.87,0.07736
1080.08,0.09290
1074.29,0.09281
1068.51,0.08812
1062.72,0.08515
1056.94,0.08290
1051.15,0.08044
1045.36,0.07855
1039.58,0.07624
1033.79,0.07501
1028.01,0.06978
1022.22,0.06318
1016.43,0.07967
1010.65,0.09637
1004.86,0.09299
999.075,0.09020
993.288,0.08676
987.502,0.08511
981.716,0.08336
975.93,0.08144
970.144,0.08030
964.358,0.07945
958.572,0.07895
952.785,0.07815
946.999,0.07739
941.213,0.07692
935.427,0.07639
929.641,0.07563
923.855,0.07446
918.068,0.07467
912.282,0.07342
906.496,0.07334
900.71,0.07174
894.924,0.06926
889.138,0.07281
883.352,0.07568
877.565,0.07555
871.779,0.07275
865.993,0.07121
860.207,0.06838
854.421,0.06649
848.635,0.06538
842.849,0.06614
837.062,0.06889
831.276,0.07824
825.49,0.08533
819.704,0.08377
813.918,0.08499
808.132,0.08466
802.346,0.08290
796.559,0.07932
790.773,0.07781
784.987,0.07540
779.201,0.07395
773.415,0.07533
767.629,0.07790
761.843,0.08046
756.056,0.07997
750.27,0.08004
744.484,0.07892
738.698,0.07774
732.912,0.07711
727.126,0.07677
721.34,0.07652
715.553,0.07597
709.767,0.07686
703.981,0.07793
698.195,0.07758
692.409,0.07678
686.623,0.07615
680.837,0.07517
675.05,0.07478
669.264,0.07456
663.478,0.07477
657.692,0.07465
651.906,0.07288
646.12,0.07404
640.333,0.07245
634.547,0.07272
628.761,0.07355
622.975,0.07109
617.189,0.06942
611.403,0.07027
605.617,0.06678
599.83,0.06626