File: 01_Data/PC/FTIR/IS/PC_2.93_S_IS_230516_R3.dpt
7496.92,0.09216
7491.13,0.08928
7485.34,0.06909
7479.56,0.06356
7473.77,0.06206
7467.99,0.08922
7462.2,0.08559
7456.41,0.11104
7450.63,0.08452
7444.84,0.07486
7439.06,0.07894
7433.27,0.08708
7427.48,0.07460
7421.7,0.10399
7415.91,0.09503
7410.12,0.08177
7404.34,0.10952
7398.55,0.07374
7392.77,0.08684
7386.98,0.07230
7381.19,0.08941
7375.41,0.05871
7369.62,0.09096
7363.84,0.11816
7358.05,0.09245
7352.26,0.08917
7346.48,0.07681
7340.69,0.08509
7334.9,0.10920
7329.12,0.09063
7323.33,0.09046
7317.55,0.08071
7311.76,0.06740
7305.97,0.06912
7300.19,0.05951
7294.4,0.08424
7288.62,0.08885
7282.83,0.06885
7277.04,0.07377
7271.26,0.09291
7265.47,0.07663
7259.68,0.07338
7253.9,0.06766
7248.11,0.08849
7242.33,0.09037
7236.54,0.09651
7230.75,0.08080
7224.97,0.06936
7219.18,0.09002
7213.4,0.05907
7207.61,0.08411
7201.82,0.09759
7196.04,0.07733
7190.25,0.06670
7184.46,0.08498
7178.68,0.08091
7172.89,0.06994
7167.11,0.05131
7161.32,0.08464
7155.53,0.05881
7149.75,0.08491
7143.96,0.08937
7138.18,0.07534
7132.39,0.07284
7126.6,0.07827
7120.82,0.09798
7115.03,0.08921
7109.24,0.05483
7103.46,0.07492
7097.67,0.06910
7091.89,0.08664
7086.1,0.08296
7080.31,0.07142
7074.53,0.09703
7068.74,0.06966
7062.96,0.09782
7057.17,0.07529
7051.38,0.08883
7045.6,0.08939
7039.81,0.10722
7034.02,0.06807
7028.24,0.09514
7022.45,0.09532
7016.67,0.08501
7010.88,0.08045
7005.09,0.09916
6999.31,0.09039
6993.52,0.09301
6987.74,0.08408
6981.95,0.09286
6976.16,0.09164
6970.38,0.10792
6964.59,0.09512
6958.8,0.07382
6953.02,0.08846
6947.23,0.08762
6941.45,0.10620
6935.66,0.08221
6929.87,0.09309
6924.09,0.09151
6918.3,0.07894
6912.52,0.08069
6906.73,0.10801
6900.94,0.09517
6895.16,0.08270
6889.37,0.10177
6883.59,0.08260
6877.8,0.08919
6872.01,0.10008
6866.23,0.08036
6860.44,0.11216
6854.65,0.10038
6848.87,0.09965
6843.08,0.08973
6837.3,0.08009
6831.51,0.09530
6825.72,0.08932
6819.94,0.10864
6814.15,0.09384
6808.37,0.09981
6802.58,0.09689
6796.79,0.10442
6791.01,0.10331
6785.22,0.10869
6779.43,0.09381
6773.65,0.11338
6767.86,0.10910
6762.08,0.09322
6756.29,0.10244
6750.5,0.08951
6744.72,0.09807
6738.93,0.08213
6733.15,0.07987
6727.36,0.09129
6721.57,0.10331
6715.79,0.11200
6710,0.10322
6704.21,0.09765
6698.43,0.11485
6692.64,0.10210
6686.86,0.10482
6681.07,0.10557
6675.28,0.10239
6669.5,0.11150
6663.71,0.09165
6657.93,0.09941
6652.14,0.11077
6646.35,0.11452
6640.57,0.10492
6634.78,0.10963
6628.99,0.10384
6623.21,0.10548
6617.42,0.11256
6611.64,0.11042
6605.85,0.11362
6600.06,0.11275
6594.28,0.10205
6588.49,0.10736
6582.71,0.09888
6576.92,0.09729
6571.13,0.10873
6565.35,0.10432
6559.56,0.10650
6553.77,0.10376
6547.99,0.10675
6542.2,0.10080
6536.42,0.10741
6530.63,0.09746
6524.84,0.10442
6519.06,0.10378
6513.27,0.11146
6507.49,0.11139
6501.7,0.10183
6495.91,0.10460
6490.13,0.11436
6484.34,0.11698
6478.55,0.12209
6472.77,0.10928
6466.98,0.11707
6461.2,0.09415
6455.41,0.10890
6449.62,0.10648
6443.84,0.10982
6438.05,0.11821
6432.27,0.11533
6426.48,0.10903
6420.69,0.11477
6414.91,0.11258
6409.12,0.10811
6403.33,0.10853
6397.55,0.10079
6391.76,0.10636
6385.98,0.10779
6380.19,0.10512
6374.4,0.09888
6368.62,0.09900
6362.83,0.10719
6357.05,0.11321
6351.26,0.11390
6345.47,0.11102
6339.69,0.10529
6333.9,0.10426
6328.12,0.11072
6322.33,0.11285
6316.54,0.10609
6310.76,0.11058
6304.97,0.11019
6299.18,0.11030
6293.4,0.10735
6287.61,0.11197
6281.83,0.11332
6276.04,0.11195
6270.25,0.10901
6264.47,0.09819
6258.68,0.09726
6252.9,0.10193
6247.11,0.10458
6241.32,0.09881
6235.54,0.09837
6229.75,0.09809
6223.96,0.09959
6218.18,0.09810
6212.39,0.09564
6206.61,0.09974
6200.82,0.09731
6195.03,0.09575
6189.25,0.08834
6183.46,0.08758
6177.68,0.08088
6171.89,0.08320
6166.1,0.07840
6160.32,0.08578
6154.53,0.08689
6148.74,0.07111
6142.96,0.07797
6137.17,0.07796
6131.39,0.06895
6125.6,0.06830
6119.81,0.06641
6114.03,0.06863
6108.24,0.06464
6102.46,0.06410
6096.67,0.06229
6090.88,0.05653
6085.1,0.05106
6079.31,0.04677
6073.52,0.05071
6067.74,0.04623
6061.95,0.04145
6056.17,0.04474
6050.38,0.04278
6044.59,0.04750
6038.81,0.04757
6033.02,0.04558
6027.24,0.03980
6021.45,0.03878
6015.66,0.03487
6009.88,0.04003
6004.09,0.04090
5998.3,0.03631
5992.52,0.04145
5986.73,0.03671
5980.95,0.03720
5975.16,0.03911
5969.37,0.03876
5963.59,0.04236
5957.8,0.04285
5952.02,0.04155
5946.23,0.04248
5940.44,0.04639
5934.66,0.04298
5928.87,0.03806
5923.08,0.04237
5917.3,0.04272
5911.51,0.03943
5905.73,0.04601
5899.94,0.04527
5894.15,0.04620
5888.37,0.04679
5882.58,0.05264
5876.8,0.04630
5871.01,0.04994
5865.22,0.05227
5859.44,0.06038
5853.65,0.05625
5847.86,0.05805
5842.08,0.05974
5836.29,0.06135
5830.51,0.06161
5824.72,0.05590
5818.93,0.06072
5813.15,0.06481
5807.36,0.06330
5801.58,0.05999
5795.79,0.06481
5790,0.05689
5784.22,0.06227
5778.43,0.06009
5772.65,0.05214
5766.86,0.05654
5761.07,0.05607
5755.29,0.06010
5749.5,0.05904
5743.71,0.06394
5737.93,0.06526
5732.14,0.06983
5726.36,0.07397
5720.57,0.07249
5714.78,0.07981
5709,0.08125
5703.21,0.08110
5697.43,0.08440
5691.64,0.08183
5685.85,0.07697
5680.07,0.07683
5674.28,0.07610
5668.49,0.07313
5662.71,0.07579
5656.92,0.07635
5651.14,0.07281
5645.35,0.07755
5639.56,0.08237
5633.78,0.08399
5627.99,0.08268
5622.21,0.09068
5616.42,0.09491
5610.63,0.09411
5604.85,0.09410
5599.06,0.09436
5593.27,0.09687
5587.49,0.09526
5581.7,0.09276
5575.92,0.09337
5570.13,0.09200
5564.34,0.09410
5558.56,0.09451
5552.77,0.09160
5546.99,0.08947
5541.2,0.09310
5535.41,0.09115
5529.63,0.09123
5523.84,0.09388
5518.05,0.09268
5512.27,0.09011
5506.48,0.09197
5500.7,0.09151
5494.91,0.09056
5489.12,0.08951
5483.34,0.09291
5477.55,0.09070
5471.77,0.08851
5465.98,0.08806
5460.19,0.09057
5454.41,0.09252
5448.62,0.09398
5442.83,0.09724
5437.05,0.09634
5431.26,0.09786
5425.48,0.09756
5419.69,0.09356
5413.9,0.09430
5408.12,0.09764
5402.33,0.09509
5396.55,0.09716
5390.76,0.09750
5384.97,0.09419
5379.19,0.09723
5373.4,0.09859
5367.61,0.09643
5361.83,0.09663
5356.04,0.09698
5350.26,0.09524
5344.47,0.09487
5338.68,0.09687
5332.9,0.09660
5327.11,0.09612
5321.33,0.09558
5315.54,0.09728
5309.75,0.09422
5303.97,0.09526
5298.18,0.09231
5292.39,0.09075
5286.61,0.08610
5280.82,0.08275
5275.04,0.07824
5269.25,0.07633
5263.46,0.07482
5257.68,0.07678
5251.89,0.07979
5246.11,0.08344
5240.32,0.08825
5234.53,0.09170
5228.75,0.09499
5222.96,0.09875
5217.18,0.10023
5211.39,0.10109
5205.6,0.10184
5199.82,0.10300
5194.03,0.10255
5188.24,0.10143
5182.46,0.10297
5176.67,0.10316
5170.89,0.10405
5165.1,0.10354
5159.31,0.10390
5153.53,0.10592
5147.74,0.10604
5141.96,0.10749
5136.17,0.10629
5130.38,0.10919
5124.6,0.10694
5118.81,0.10928
5113.02,0.10720
5107.24,0.10609
5101.45,0.10731
5095.67,0.10657
5089.88,0.10844
5084.09,0.10865
5078.31,0.10444
5072.52,0.10881
5066.74,0.10854
5060.95,0.10884
5055.16,0.10936
5049.38,0.10776
5043.59,0.10749
5037.8,0.10800
5032.02,0.10692
5026.23,0.10680
5020.45,0.10458
5014.66,0.10540
5008.87,0.10521
5003.09,0.10666
4997.3,0.10478
4991.52,0.10440
4985.73,0.10164
4979.94,0.10483
4974.16,0.10471
4968.37,0.10264
4962.58,0.10227
4956.8,0.10372
4951.01,0.10279
4945.23,0.10416
4939.44,0.10208
4933.65,0.10123
4927.87,0.09965
4922.08,0.09858
4916.3,0.09584
4910.51,0.09314
4904.72,0.09271
4898.94,0.09006
4893.15,0.08735
4887.36,0.08811
4881.58,0.08787
4875.79,0.08731
4870.01,0.08699
4864.22,0.08400
4858.43,0.08348
4852.65,0.08101
4846.86,0.07874
4841.08,0.07932
4835.29,0.07987
4829.5,0.08188
4823.72,0.08140
4817.93,0.08327
4812.14,0.08392
4806.36,0.08499
4800.57,0.08631
4794.79,0.08303
4789,0.08143
4783.21,0.08003
4777.43,0.07922
4771.64,0.07754
4765.86,0.07516
4760.07,0.07357
4754.28,0.07167
4748.5,0.07039
4742.71,0.06638
4736.92,0.06242
4731.14,0.05975
4725.35,0.05545
4719.57,0.05578
4713.78,0.05493
4707.99,0.05282
4702.21,0.05280
4696.42,0.05201
4690.64,0.05133
4684.85,0.05227
4679.06,0.05290
4673.28,0.05161
4667.49,0.05134
4661.7,0.05367
4655.92,0.05325
4650.13,0.05210
4644.35,0.05297
4638.56,0.05295
4632.77,0.05135
4626.99,0.05306
4621.2,0.05346
4615.42,0.05474
4609.63,0.05635
4603.84,0.05800
4598.06,0.05670
4592.27,0.05648
4586.49,0.05483
4580.7,0.05428
4574.91,0.05477
4569.13,0.05572
4563.34,0.05662
4557.55,0.06028
4551.77,0.06262
4545.98,0.06322
4540.2,0.06312
4534.41,0.06242
4528.62,0.06293
4522.84,0.06241
4517.05,0.06181
4511.27,0.06231
4505.48,0.06250
4499.69,0.06048
4493.91,0.05996
4488.12,0.05733
4482.33,0.05654
4476.55,0.05701
4470.76,0.05883
4464.98,0.05888
4459.19,0.05715
4453.4,0.05713
4447.62,0.05562
4441.83,0.05501
4436.05,0.05423
4430.26,0.05438
4424.47,0.05303
4418.69,0.05344
4412.9,0.05435
4407.11,0.05453
4401.33,0.05466
4395.54,0.05472
4389.76,0.05565
4383.97,0.05508
4378.18,0.05449
4372.4,0.05508
4366.61,0.05544
4360.83,0.05473
4355.04,0.05553
4349.25,0.05397
4343.47,0.05479
4337.68,0.05380
4331.89,0.05472
4326.11,0.05602
4320.32,0.05492
4314.54,0.05539
4308.75,0.05517
4302.96,0.05610
4297.18,0.05628
4291.39,0.05537
4285.61,0.05561
4279.82,0.05564
4274.03,0.05624
4268.25,0.05588
4262.46,0.05705
4256.67,0.05561
4250.89,0.05586
4245.1,0.05569
4239.32,0.05612
4233.53,0.05533
4227.74,0.05629
4221.96,0.05619
4216.17,0.05691
4210.39,0.05541
4204.6,0.05578
4198.81,0.05558
4193.03,0.05553
4187.24,0.05561
4181.45,0.05580
4175.67,0.05592
4169.88,0.05635
4164.1,0.05632
4158.31,0.05596
4152.52,0.05612
4146.74,0.05511
4140.95,0.05634
4135.17,0.05636
4129.38,0.05625
4123.59,0.05606
4117.81,0.05667
4112.02,0.05661
4106.23,0.05665
4100.45,0.05692
4094.66,0.05637
4088.88,0.05576
4083.09,0.05660
4077.3,0.05571
4071.52,0.05618
4065.73,0.05720
4059.95,0.05678
4054.16,0.05703
4048.37,0.05773
4042.59,0.05748
4036.8,0.05634
4031.02,0.05717
4025.23,0.05609
4019.44,0.05731
4013.66,0.05655
4007.87,0.05718
4002.08,0.05690
3996.3,0.05731
3990.51,0.05688
3984.73,0.05674
3978.94,0.05686
3973.15,0.05828
3967.37,0.05806
3961.58,0.05781
3955.8,0.05752
3950.01,0.05776
3944.22,0.05731
3938.44,0.05749
3932.65,0.05708
3926.86,0.05765
3921.08,0.05717
3915.29,0.05731
3909.51,0.05760
3903.72,0.05795
3897.93,0.05699
3892.15,0.05673
3886.36,0.05747
3880.58,0.05655
3874.79,0.05791
3869,0.05786
3863.22,0.05770
3857.43,0.05861
3851.64,0.05824
3845.86,0.05923
3840.07,0.05782
3834.29,0.05924
3828.5,0.05903
3822.71,0.05956
3816.93,0.05884
3811.14,0.05839
3805.36,0.05885
3799.57,0.05976
3793.78,0.06004
3788,0.06039
3782.21,0.06008
3776.42,0.06028
3770.64,0.05902
3764.85,0.05909
3759.07,0.05835
3753.28,0.05887
3747.49,0.05877
3741.71,0.05924
3735.92,0.05788
3730.14,0.05976
3724.35,0.05879
3718.56,0.05882
3712.78,0.05828
3706.99,0.05796
3701.2,0.05862
3695.42,0.05836
3689.63,0.05741
3683.85,0.05850
3678.06,0.05791
3672.27,0.05804
3666.49,0.05871
3660.7,0.05835
3654.92,0.05816
3649.13,0.05765
3643.34,0.05841
3637.56,0.05833
3631.77,0.05681
3625.98,0.05776
3620.2,0.05762
3614.41,0.05742
3608.63,0.05761
3602.84,0.05845
3597.05,0.05805
3591.27,0.05694
3585.48,0.05680
3579.7,0.05728
3573.91,0.05739
3568.12,0.05733
3562.34,0.05761
3556.55,0.05702
3550.76,0.05779
3544.98,0.05743
3539.19,0.05771
3533.41,0.05839
3527.62,0.05789
3521.83,0.05759
3516.05,0.05728
3510.26,0.05821
3504.48,0.05720
3498.69,0.05722
3492.9,0.05799
3487.12,0.05688
3481.33,0.05787
3475.55,0.05821
3469.76,0.05715
3463.97,0.05796
3458.19,0.05757
3452.4,0.05801
3446.61,0.05845
3440.83,0.05870
3435.04,0.05914
3429.26,0.05932
3423.47,0.05898
3417.68,0.06028
3411.9,0.05904
3406.11,0.05969
3400.33,0.05910
3394.54,0.05838
3388.75,0.05885
3382.97,0.05765
3377.18,0.05804
3371.39,0.05811
3365.61,0.05821
3359.82,0.05789
3354.04,0.05864
3348.25,0.05854
3342.46,0.05839
3336.68,0.05771
3330.89,0.05790
3325.11,0.05717
3319.32,0.05769
3313.53,0.05662
3307.75,0.05814
3301.96,0.05794
3296.17,0.05716
3290.39,0.05821
3284.6,0.05750
3278.82,0.05745
3273.03,0.05756
3267.24,0.05705
3261.46,0.05764
3255.67,0.05834
3249.89,0.05720
3244.1,0.05742
3238.31,0.05733
3232.53,0.05828
3226.74,0.05855
3220.95,0.05825
3215.17,0.05801
3209.38,0.05845
3203.6,0.05922
3197.81,0.05822
3192.02,0.05829
3186.24,0.05878
3180.45,0.05815
3174.67,0.05814
3168.88,0.05847
3163.09,0.05910
3157.31,0.05884
3151.52,0.05760
3145.73,0.05886
3139.95,0.05862
3134.16,0.05810
3128.38,0.05808
3122.59,0.05861
3116.8,0.05847
3111.02,0.05889
3105.23,0.05765
3099.45,0.05787
3093.66,0.05807
3087.87,0.05811
3082.09,0.05829
3076.3,0.05791
3070.51,0.05827
3064.73,0.05828
3058.94,0.05876
3053.16,0.05825
3047.37,0.05831
3041.58,0.05842
3035.8,0.05857
3030.01,0.05875
3024.23,0.05892
3018.44,0.05851
3012.65,0.05777
3006.87,0.05822
3001.08,0.05790
2995.29,0.05762
2989.51,0.05728
2983.72,0.05744
2977.94,0.05757
2972.15,0.05796
2966.36,0.05937
2960.58,0.06069
2954.79,0.06142
2949.01,0.06041
2943.22,0.06005
2937.43,0.06030
2931.65,0.05982
2925.86,0.06001
2920.08,0.06087
2914.29,0.06074
2908.5,0.06054
2902.72,0.05994
2896.93,0.05991
2891.14,0.05947
2885.36,0.06000
2879.57,0.06037
2873.79,0.06043
2868,0.06049
2862.21,0.06093
2856.43,0.06035
2850.64,0.06091
2844.86,0.06012
2839.07,0.06026
2833.28,0.06004
2827.5,0.06029
2821.71,0.06015
2815.92,0.06035
2810.14,0.06046
2804.35,0.06052
2798.57,0.06015
2792.78,0.06029
2786.99,0.06033
2781.21,0.06041
2775.42,0.06068
2769.64,0.06036
2763.85,0.06001
2758.06,0.06003
2752.28,0.06038
2746.49,0.06051
2740.7,0.06020
2734.92,0.06014
2729.13,0.06039
2723.35,0.06052
2717.56,0.06082
2711.77,0.06047
2705.99,0.06063
2700.2,0.06067
2694.42,0.06010
2688.63,0.06056
2682.84,0.06047
2677.06,0.06025
2671.27,0.06087
2665.48,0.06028
2659.7,0.06061
2653.91,0.06010
2648.13,0.06046
2642.34,0.06035
2636.55,0.06007
2630.77,0.05981
2624.98,0.06003
2619.2,0.06069
2613.41,0.06046
2607.62,0.06020
2601.84,0.06050
2596.05,0.06014
2590.26,0.06005
2584.48,0.06021
2578.69,0.06040
2572.91,0.05994
2567.12,0.06031
2561.33,0.06060
2555.55,0.06040
2549.76,0.06053
2543.98,0.06003
2538.19,0.06023
2532.4,0.05986
2526.62,0.06018
2520.83,0.06066
2515.04,0.06029
2509.26,0.06064
2503.47,0.06032
2497.69,0.06026
2491.9,0.06075
2486.11,0.06035
2480.33,0.06056
2474.54,0.06030
2468.76,0.06049
2462.97,0.06049
2457.18,0.06056
2451.4,0.06047
2445.61,0.06077
2439.82,0.06073
2434.04,0.06061
2428.25,0.06091
2422.47,0.06079
2416.68,0.06061
2410.89,0.06060
2405.11,0.06038
2399.32,0.06074
2393.54,0.06086
2387.75,0.06095
2381.96,0.06101
2376.18,0.06127
2370.39,0.06123
2364.61,0.06078
2358.82,0.06044
2353.03,0.06096
2347.25,0.06107
2341.46,0.06072
2335.67,0.06046
2329.89,0.06131
2324.1,0.06043
2318.32,0.06082
2312.53,0.06036
2306.74,0.06046
2300.96,0.06070
2295.17,0.06087
2289.39,0.06067
2283.6,0.06067
2277.81,0.06019
2272.03,0.06021
2266.24,0.06076
2260.45,0.06027
2254.67,0.06030
2248.88,0.06038
2243.1,0.06049
2237.31,0.06051
2231.52,0.06053
2225.74,0.06051
2219.95,0.06053
2214.17,0.06077
2208.38,0.06048
2202.59,0.06057
2196.81,0.06040
2191.02,0.06034
2185.23,0.06036
2179.45,0.06076
2173.66,0.06030
2167.88,0.06046
2162.09,0.06045
2156.3,0.06014
2150.52,0.06030
2144.73,0.06031
2138.95,0.06039
2133.16,0.06027
2127.37,0.05978
2121.59,0.06014
2115.8,0.06022
2110.01,0.06035
2104.23,0.05967
2098.44,0.05983
2092.66,0.05969
2086.87,0.05968
2081.08,0.05967
2075.3,0.06012
2069.51,0.05967
2063.73,0.05982
2057.94,0.05989
2052.15,0.05972
2046.37,0.06010
2040.58,0.06004
2034.79,0.05948
2029.01,0.05958
2023.22,0.05960
2017.44,0.05958
2011.65,0.05978
2005.86,0.05998
2000.08,0.05913
1994.29,0.05956
1988.51,0.05941
1982.72,0.05934
1976.93,0.05893
1971.15,0.05914
1965.36,0.05889
1959.57,0.05869
1953.79,0.05872
1948,0.05860
1942.22,0.05854
1936.43,0.05822
1930.64,0.05811
1924.86,0.05833
1919.07,0.05826
1913.29,0.05779
1907.5,0.05770
1901.71,0.05765
1895.93,0.05758
1890.14,0.05781
1884.35,0.05742
1878.57,0.05720
1872.78,0.05678
1867,0.05641
1861.21,0.05629
1855.42,0.05597
1849.64,0.05591
1843.85,0.05510
1838.07,0.05439
1832.28,0.05410
1826.49,0.05328
1820.71,0.05149
1814.92,0.05035
1809.13,0.04878
1803.35,0.04621
1797.56,0.04311
1791.78,0.04179
1785.99,0.04680
1780.2,0.06038
1774.42,0.07561
1768.63,0.08760
1762.85,0.08613
1757.06,0.07838
1751.27,0.07376
1745.49,0.07012
1739.7,0.06834
1733.92,0.06690
1728.13,0.06593
1722.34,0.06490
1716.56,0.06393
1710.77,0.06369
1704.98,0.06304
1699.2,0.06204
1693.41,0.06169
1687.63,0.06129
1681.84,0.06060
1676.05,0.06053
1670.27,0.06040
1664.48,0.05966
1658.7,0.05934
1652.91,0.06026
1647.12,0.05939
1641.34,0.05919
1635.55,0.05895
1629.76,0.05900
1623.98,0.05859
1618.19,0.05841
1612.41,0.05742
1606.62,0.05735
1600.83,0.05814
1595.05,0.05810
1589.26,0.05860
1583.48,0.05857
1577.69,0.05769
1571.9,0.05676
1566.12,0.05628
1560.33,0.05684
1554.54,0.05461
1548.76,0.05344
1542.97,0.05333
1537.19,0.05173
1531.4,0.05006
1525.61,0.04888
1519.83,0.04583
1514.04,0.04185
1508.26,0.05078
1502.47,0.07141
1496.68,0.07228
1490.9,0.06891
1485.11,0.06494
1479.32,0.06257
1473.54,0.06058
1467.75,0.06015
1461.97,0.06016
1456.18,0.06035
1450.39,0.05882
1444.61,0.05854
1438.82,0.05763
1433.04,0.05669
1427.25,0.05526
1421.46,0.05447
1415.68,0.05253
1409.89,0.05427
1404.1,0.05569
1398.32,0.05506
1392.53,0.05290
1386.75,0.05327
1380.96,0.05290
1375.17,0.05138
1369.39,0.04953
1363.6,0.05213
1357.82,0.05163
1352.03,0.04979
1346.24,0.04856
1340.46,0.04748
1334.67,0.04528
1328.88,0.04432
1323.1,0.04262
1317.31,0.04013
1311.53,0.03818
1305.74,0.03725
1299.95,0.03496
1294.17,0.03420
1288.38,0.03410
1282.6,0.03211
1276.81,0.02746
1271.02,0.02214
1265.24,0.02082
1259.45,0.03681
1253.66,0.07159
1247.88,0.09652
1242.09,0.11012
1236.31,0.12176
1230.52,0.13342
1224.73,0.13931
1218.95,0.13137
1213.16,0.10569
1207.38,0.07723
1201.59,0.09116
1195.8,0.14580
1190.02,0.16616
1184.23,0.13992
1178.45,0.11071
1172.66,0.08796
1166.87,0.11130
1161.09,0.15512
1155.3,0.13834
1149.51,0.12081
1143.73,0.11085
1137.94,0.10428
1132.16,0.09918
1126.37,0.09510
1120.58,0.09137
1114.8,0.08852
1109.01,0.08769
1103.23,0.08764
1097.44,0.08705
1091.65,0.08232
1085.87,0.07720
1080.08,0.09182
1074.29,0.09200
1068.51,0.08758
1062.72,0.08446
1056.94,0.08211
1051.15,0.08054
1045.36,0.07844
1039.58,0.07747
1033.79,0.07369
1028.01,0.06904
1022.22,0.06298
1016.43,0.07910
1010.65,0.09586
1004.86,0.09239
999.075,0.08945
993.288,0.08652
987.502,0.08496
981.716,0.08234
975.93,0.08097
970.144,0.08007
964.358,0.07873
958.572,0.07764
952.785,0.07771
946.999,0.07663
941.213,0.07644
935.427,0.07616
929.641,0.07549
923.855,0.07535
918.068,0.07468
912.282,0.07358
906.496,0.07257
900.71,0.07076
894.924,0.06860
889.138,0.07196
883.352,0.07496
877.565,0.07427
871.779,0.07263
865.993,0.07038
860.207,0.06807
854.421,0.06591
848.635,0.06550
842.849,0.06701
837.062,0.06936
831.276,0.07875
825.49,0.08490
819.704,0.08274
813.918,0.08402
808.132,0.08503
802.346,0.08242
796.559,0.07966
790.773,0.07731
784.987,0.07537
779.201,0.07377
773.415,0.07432
767.629,0.07847
761.843,0.07982
756.056,0.07999
750.27,0.07957
744.484,0.07837
738.698,0.07717
732.912,0.07723
727.126,0.07734
721.34,0.07642
715.553,0.07527
709.767,0.07668
703.981,0.07751
698.195,0.07809
692.409,0.07644
686.623,0.07700
680.837,0.07582
675.05,0.07608
669.264,0.07633
663.478,0.07369
657.692,0.07433
651.906,0.07281
646.12,0.07376
640.333,0.07215
634.547,0.07183
628.761,0.07180
622.975,0.07245
617.189,0.07163
611.403,0.06804
605.617,0.06696
599.83,0.06877