File: 01_Data/PC/FTIR/IS/PC_2.93_T_IS_230516_R3.dpt
7496.92,0.07358
7491.13,0.03314
7485.34,0.05509
7479.56,0.06642
7473.77,0.07765
7467.99,0.06996
7462.2,0.05662
7456.41,0.05437
7450.63,0.07743
7444.84,0.01820
7439.06,0.05806
7433.27,0.04998
7427.48,0.02000
7421.7,0.06817
7415.91,0.03861
7410.12,0.06615
7404.34,0.04092
7398.55,0.02832
7392.77,0.06059
7386.98,0.04835
7381.19,0.04961
7375.41,0.06174
7369.62,0.03156
7363.84,0.06996
7358.05,0.06348
7352.26,0.02914
7346.48,0.03522
7340.69,0.08232
7334.9,0.03916
7329.12,0.07675
7323.33,0.03254
7317.55,0.06983
7311.76,0.02657
7305.97,0.06556
7300.19,0.04461
7294.4,0.04259
7288.62,0.04841
7282.83,0.06173
7277.04,0.02922
7271.26,0.05501
7265.47,0.04092
7259.68,0.04380
7253.9,0.06053
7248.11,0.05025
7242.33,0.04953
7236.54,0.04608
7230.75,0.05654
7224.97,0.06063
7219.18,0.07981
7213.4,0.04591
7207.61,0.02385
7201.82,0.05468
7196.04,0.02336
7190.25,0.04866
7184.46,0.04742
7178.68,0.04415
7172.89,0.05621
7167.11,0.05997
7161.32,0.02755
7155.53,0.05972
7149.75,0.05240
7143.96,0.03994
7138.18,0.03736
7132.39,0.04185
7126.6,0.06384
7120.82,0.02526
7115.03,0.04083
7109.24,0.04542
7103.46,0.02216
7097.67,0.06127
7091.89,0.03802
7086.1,0.05294
7080.31,0.06831
7074.53,0.03929
7068.74,0.03312
7062.96,0.03715
7057.17,0.03064
7051.38,0.05068
7045.6,0.05394
7039.81,0.06009
7034.02,0.04808
7028.24,0.05305
7022.45,0.05779
7016.67,0.04740
7010.88,0.04024
7005.09,0.05306
6999.31,0.03397
6993.52,0.01617
6987.74,0.04488
6981.95,0.04973
6976.16,0.05611
6970.38,0.04947
6964.59,0.04374
6958.8,0.03649
6953.02,0.03474
6947.23,0.04664
6941.45,0.04980
6935.66,0.04715
6929.87,0.04197
6924.09,0.05597
6918.3,0.03969
6912.52,0.03042
6906.73,0.04498
6900.94,0.03963
6895.16,0.03658
6889.37,0.03832
6883.59,0.03679
6877.8,0.02935
6872.01,0.05293
6866.23,0.03531
6860.44,0.04581
6854.65,0.04349
6848.87,0.04895
6843.08,0.03880
6837.3,0.04312
6831.51,0.04358
6825.72,0.03401
6819.94,0.02231
6814.15,0.03691
6808.37,0.04025
6802.58,0.02966
6796.79,0.03566
6791.01,0.03908
6785.22,0.04141
6779.43,0.03321
6773.65,0.05110
6767.86,0.04280
6762.08,0.04216
6756.29,0.04541
6750.5,0.04488
6744.72,0.03696
6738.93,0.03311
6733.15,0.03573
6727.36,0.03100
6721.57,0.04189
6715.79,0.03825
6710,0.03284
6704.21,0.02712
6698.43,0.04216
6692.64,0.04548
6686.86,0.05742
6681.07,0.03092
6675.28,0.05392
6669.5,0.04789
6663.71,0.03387
6657.93,0.04133
6652.14,0.03863
6646.35,0.03592
6640.57,0.04667
6634.78,0.04324
6628.99,0.02996
6623.21,0.03103
6617.42,0.03464
6611.64,0.03272
6605.85,0.04795
6600.06,0.04167
6594.28,0.03626
6588.49,0.04447
6582.71,0.03641
6576.92,0.03382
6571.13,0.05016
6565.35,0.04111
6559.56,0.04016
6553.77,0.04503
6547.99,0.04198
6542.2,0.04200
6536.42,0.03734
6530.63,0.04244
6524.84,0.04506
6519.06,0.03744
6513.27,0.04725
6507.49,0.04958
6501.7,0.03523
6495.91,0.02429
6490.13,0.02977
6484.34,0.04024
6478.55,0.03556
6472.77,0.04165
6466.98,0.04288
6461.2,0.03499
6455.41,0.04260
6449.62,0.03517
6443.84,0.04219
6438.05,0.02928
6432.27,0.03140
6426.48,0.03391
6420.69,0.03108
6414.91,0.03957
6409.12,0.03621
6403.33,0.04113
6397.55,0.05114
6391.76,0.04498
6385.98,0.03310
6380.19,0.02423
6374.4,0.03757
6368.62,0.03758
6362.83,0.02957
6357.05,0.03764
6351.26,0.04683
6345.47,0.03056
6339.69,0.02826
6333.9,0.03403
6328.12,0.04243
6322.33,0.03387
6316.54,0.03099
6310.76,0.03199
6304.97,0.03499
6299.18,0.03751
6293.4,0.04109
6287.61,0.03139
6281.83,0.02755
6276.04,0.02735
6270.25,0.03897
6264.47,0.04615
6258.68,0.03805
6252.9,0.03708
6247.11,0.02278
6241.32,0.03486
6235.54,0.03555
6229.75,0.03458
6223.96,0.03314
6218.18,0.02967
6212.39,0.02543
6206.61,0.03099
6200.82,0.02596
6195.03,0.03329
6189.25,0.02818
6183.46,0.02977
6177.68,0.03435
6171.89,0.02685
6166.1,0.03322
6160.32,0.03644
6154.53,0.03703
6148.74,0.02852
6142.96,0.03814
6137.17,0.02823
6131.39,0.02688
6125.6,0.03250
6119.81,0.03023
6114.03,0.03250
6108.24,0.03413
6102.46,0.02831
6096.67,0.02535
6090.88,0.03518
6085.1,0.03079
6079.31,0.03476
6073.52,0.02553
6067.74,0.03063
6061.95,0.03376
6056.17,0.02876
6050.38,0.03224
6044.59,0.03311
6038.81,0.02512
6033.02,0.03137
6027.24,0.02999
6021.45,0.03119
6015.66,0.03179
6009.88,0.02867
6004.09,0.02986
5998.3,0.02733
5992.52,0.02859
5986.73,0.03008
5980.95,0.02783
5975.16,0.03210
5969.37,0.03124
5963.59,0.02969
5957.8,0.03454
5952.02,0.02915
5946.23,0.03388
5940.44,0.03166
5934.66,0.03543
5928.87,0.02944
5923.08,0.03516
5917.3,0.03031
5911.51,0.03234
5905.73,0.02923
5899.94,0.01981
5894.15,0.02927
5888.37,0.03273
5882.58,0.02948
5876.8,0.03148
5871.01,0.02617
5865.22,0.03035
5859.44,0.02666
5853.65,0.03017
5847.86,0.02390
5842.08,0.02524
5836.29,0.02952
5830.51,0.02870
5824.72,0.02840
5818.93,0.02883
5813.15,0.02730
5807.36,0.02733
5801.58,0.03410
5795.79,0.02917
5790,0.02682
5784.22,0.02915
5778.43,0.02832
5772.65,0.02589
5766.86,0.02687
5761.07,0.03008
5755.29,0.02844
5749.5,0.02970
5743.71,0.03086
5737.93,0.02926
5732.14,0.02735
5726.36,0.02233
5720.57,0.02756
5714.78,0.03072
5709,0.02778
5703.21,0.03017
5697.43,0.03394
5691.64,0.02901
5685.85,0.02975
5680.07,0.02984
5674.28,0.03089
5668.49,0.02900
5662.71,0.02547
5656.92,0.02547
5651.14,0.02432
5645.35,0.03074
5639.56,0.02625
5633.78,0.02586
5627.99,0.02376
5622.21,0.02819
5616.42,0.02605
5610.63,0.02562
5604.85,0.02529
5599.06,0.02400
5593.27,0.02736
5587.49,0.02837
5581.7,0.02421
5575.92,0.02599
5570.13,0.02516
5564.34,0.02674
5558.56,0.02591
5552.77,0.02521
5546.99,0.02702
5541.2,0.02836
5535.41,0.02738
5529.63,0.02449
5523.84,0.02335
5518.05,0.02718
5512.27,0.02622
5506.48,0.02948
5500.7,0.02807
5494.91,0.02406
5489.12,0.02193
5483.34,0.02715
5477.55,0.02405
5471.77,0.02622
5465.98,0.02779
5460.19,0.02066
5454.41,0.02611
5448.62,0.02323
5442.83,0.02806
5437.05,0.02593
5431.26,0.03100
5425.48,0.02745
5419.69,0.02507
5413.9,0.02692
5408.12,0.02247
5402.33,0.02356
5396.55,0.02899
5390.76,0.02715
5384.97,0.02559
5379.19,0.02486
5373.4,0.02325
5367.61,0.02490
5361.83,0.02680
5356.04,0.02850
5350.26,0.02703
5344.47,0.02572
5338.68,0.02535
5332.9,0.02573
5327.11,0.02334
5321.33,0.02419
5315.54,0.02587
5309.75,0.02396
5303.97,0.02480
5298.18,0.02636
5292.39,0.02456
5286.61,0.02563
5280.82,0.02409
5275.04,0.02374
5269.25,0.02399
5263.46,0.02581
5257.68,0.02329
5251.89,0.02423
5246.11,0.02058
5240.32,0.02611
5234.53,0.02400
5228.75,0.02350
5222.96,0.02557
5217.18,0.02627
5211.39,0.02890
5205.6,0.02627
5199.82,0.02635
5194.03,0.02669
5188.24,0.02379
5182.46,0.02792
5176.67,0.02573
5170.89,0.02240
5165.1,0.02269
5159.31,0.02519
5153.53,0.02484
5147.74,0.02491
5141.96,0.02209
5136.17,0.02584
5130.38,0.02337
5124.6,0.02716
5118.81,0.02466
5113.02,0.02402
5107.24,0.02537
5101.45,0.02462
5095.67,0.02487
5089.88,0.02291
5084.09,0.02443
5078.31,0.02439
5072.52,0.02648
5066.74,0.02397
5060.95,0.02076
5055.16,0.02433
5049.38,0.02502
5043.59,0.02569
5037.8,0.02478
5032.02,0.02372
5026.23,0.02469
5020.45,0.02382
5014.66,0.02610
5008.87,0.02485
5003.09,0.02382
4997.3,0.02451
4991.52,0.02333
4985.73,0.02505
4979.94,0.02473
4974.16,0.02436
4968.37,0.02477
4962.58,0.02267
4956.8,0.02313
4951.01,0.02407
4945.23,0.02329
4939.44,0.02274
4933.65,0.02375
4927.87,0.02320
4922.08,0.02338
4916.3,0.02416
4910.51,0.02430
4904.72,0.02522
4898.94,0.02435
4893.15,0.02497
4887.36,0.02327
4881.58,0.02395
4875.79,0.02455
4870.01,0.02460
4864.22,0.02378
4858.43,0.02406
4852.65,0.02502
4846.86,0.02327
4841.08,0.02253
4835.29,0.02499
4829.5,0.02519
4823.72,0.02484
4817.93,0.02276
4812.14,0.02403
4806.36,0.02348
4800.57,0.02475
4794.79,0.02356
4789,0.02271
4783.21,0.02451
4777.43,0.02457
4771.64,0.02479
4765.86,0.02306
4760.07,0.02419
4754.28,0.02428
4748.5,0.02491
4742.71,0.02458
4736.92,0.02436
4731.14,0.02366
4725.35,0.02313
4719.57,0.02202
4713.78,0.02296
4707.99,0.02325
4702.21,0.02477
4696.42,0.02532
4690.64,0.02366
4684.85,0.02290
4679.06,0.02392
4673.28,0.02611
4667.49,0.02323
4661.7,0.02383
4655.92,0.02266
4650.13,0.02354
4644.35,0.02405
4638.56,0.02304
4632.77,0.02341
4626.99,0.02266
4621.2,0.02250
4615.42,0.02262
4609.63,0.02302
4603.84,0.02303
4598.06,0.02195
4592.27,0.02405
4586.49,0.02432
4580.7,0.02299
4574.91,0.02373
4569.13,0.02286
4563.34,0.02310
4557.55,0.02266
4551.77,0.02354
4545.98,0.02420
4540.2,0.02455
4534.41,0.02506
4528.62,0.02321
4522.84,0.02439
4517.05,0.02438
4511.27,0.02276
4505.48,0.02315
4499.69,0.02337
4493.91,0.02364
4488.12,0.02428
4482.33,0.02331
4476.55,0.02415
4470.76,0.02411
4464.98,0.02293
4459.19,0.02287
4453.4,0.02208
4447.62,0.02337
4441.83,0.02321
4436.05,0.02300
4430.26,0.02366
4424.47,0.02369
4418.69,0.02274
4412.9,0.02420
4407.11,0.02198
4401.33,0.02288
4395.54,0.02314
4389.76,0.02211
4383.97,0.02265
4378.18,0.02310
4372.4,0.02298
4366.61,0.02304
4360.83,0.02449
4355.04,0.02364
4349.25,0.02200
4343.47,0.02313
4337.68,0.02364
4331.89,0.02251
4326.11,0.02310
4320.32,0.02326
4314.54,0.02359
4308.75,0.02376
4302.96,0.02251
4297.18,0.02294
4291.39,0.02325
4285.61,0.02142
4279.82,0.02318
4274.03,0.02250
4268.25,0.02328
4262.46,0.02387
4256.67,0.02300
4250.89,0.02421
4245.1,0.02221
4239.32,0.02301
4233.53,0.02306
4227.74,0.02395
4221.96,0.02211
4216.17,0.02313
4210.39,0.02405
4204.6,0.02311
4198.81,0.02283
4193.03,0.02364
4187.24,0.02288
4181.45,0.02253
4175.67,0.02428
4169.88,0.02302
4164.1,0.02282
4158.31,0.02297
4152.52,0.02369
4146.74,0.02464
4140.95,0.02357
4135.17,0.02334
4129.38,0.02212
4123.59,0.02262
4117.81,0.02308
4112.02,0.02342
4106.23,0.02336
4100.45,0.02274
4094.66,0.02248
4088.88,0.02321
4083.09,0.02359
4077.3,0.02222
4071.52,0.02281
4065.73,0.02321
4059.95,0.02320
4054.16,0.02245
4048.37,0.02263
4042.59,0.02342
4036.8,0.02393
4031.02,0.02348
4025.23,0.02249
4019.44,0.02349
4013.66,0.02366
4007.87,0.02349
4002.08,0.02288
3996.3,0.02200
3990.51,0.02309
3984.73,0.02256
3978.94,0.02248
3973.15,0.02277
3967.37,0.02285
3961.58,0.02277
3955.8,0.02242
3950.01,0.02337
3944.22,0.02319
3938.44,0.02331
3932.65,0.02414
3926.86,0.02446
3921.08,0.02348
3915.29,0.02356
3909.51,0.02396
3903.72,0.02456
3897.93,0.02368
3892.15,0.02431
3886.36,0.02359
3880.58,0.02232
3874.79,0.02299
3869,0.02450
3863.22,0.02315
3857.43,0.02293
3851.64,0.02318
3845.86,0.02385
3840.07,0.02220
3834.29,0.02445
3828.5,0.02361
3822.71,0.02279
3816.93,0.02302
3811.14,0.02333
3805.36,0.02382
3799.57,0.02325
3793.78,0.02299
3788,0.02347
3782.21,0.02319
3776.42,0.02296
3770.64,0.02276
3764.85,0.02292
3759.07,0.02343
3753.28,0.02426
3747.49,0.02449
3741.71,0.02370
3735.92,0.02338
3730.14,0.02392
3724.35,0.02294
3718.56,0.02310
3712.78,0.02329
3706.99,0.02309
3701.2,0.02368
3695.42,0.02348
3689.63,0.02465
3683.85,0.02365
3678.06,0.02428
3672.27,0.02370
3666.49,0.02363
3660.7,0.02319
3654.92,0.02188
3649.13,0.02378
3643.34,0.02308
3637.56,0.02175
3631.77,0.02215
3625.98,0.02299
3620.2,0.02274
3614.41,0.02360
3608.63,0.02305
3602.84,0.02310
3597.05,0.02162
3591.27,0.02173
3585.48,0.02212
3579.7,0.02173
3573.91,0.02145
3568.12,0.02144
3562.34,0.02184
3556.55,0.02089
3550.76,0.02165
3544.98,0.02134
3539.19,0.02151
3533.41,0.02154
3527.62,0.02138
3521.83,0.02169
3516.05,0.02212
3510.26,0.02171
3504.48,0.02246
3498.69,0.02200
3492.9,0.02234
3487.12,0.02146
3481.33,0.02157
3475.55,0.02050
3469.76,0.02115
3463.97,0.02091
3458.19,0.02091
3452.4,0.02120
3446.61,0.02159
3440.83,0.02076
3435.04,0.02135
3429.26,0.02137
3423.47,0.02107
3417.68,0.02175
3411.9,0.02254
3406.11,0.02189
3400.33,0.02118
3394.54,0.02151
3388.75,0.02169
3382.97,0.02112
3377.18,0.02158
3371.39,0.02049
3365.61,0.02077
3359.82,0.02120
3354.04,0.02066
3348.25,0.02092
3342.46,0.02160
3336.68,0.02178
3330.89,0.02102
3325.11,0.02069
3319.32,0.02108
3313.53,0.02204
3307.75,0.02098
3301.96,0.02039
3296.17,0.02109
3290.39,0.02168
3284.6,0.02090
3278.82,0.02147
3273.03,0.02122
3267.24,0.02199
3261.46,0.02164
3255.67,0.02238
3249.89,0.02198
3244.1,0.02151
3238.31,0.02149
3232.53,0.02095
3226.74,0.02166
3220.95,0.02214
3215.17,0.02109
3209.38,0.02135
3203.6,0.02155
3197.81,0.02168
3192.02,0.02172
3186.24,0.02255
3180.45,0.02159
3174.67,0.02124
3168.88,0.02180
3163.09,0.02168
3157.31,0.02186
3151.52,0.02180
3145.73,0.02201
3139.95,0.02183
3134.16,0.02232
3128.38,0.02203
3122.59,0.02253
3116.8,0.02205
3111.02,0.02217
3105.23,0.02230
3099.45,0.02244
3093.66,0.02207
3087.87,0.02191
3082.09,0.02203
3076.3,0.02210
3070.51,0.02203
3064.73,0.02184
3058.94,0.02211
3053.16,0.02206
3047.37,0.02170
3041.58,0.02221
3035.8,0.02188
3030.01,0.02182
3024.23,0.02144
3018.44,0.02135
3012.65,0.02194
3006.87,0.02183
3001.08,0.02164
2995.29,0.02144
2989.51,0.02096
2983.72,0.02120
2977.94,0.02125
2972.15,0.02089
2966.36,0.02050
2960.58,0.02121
2954.79,0.02059
2949.01,0.02061
2943.22,0.02089
2937.43,0.02108
2931.65,0.02093
2925.86,0.02098
2920.08,0.02077
2914.29,0.02165
2908.5,0.02198
2902.72,0.02132
2896.93,0.02149
2891.14,0.02154
2885.36,0.02208
2879.57,0.02242
2873.79,0.02192
2868,0.02117
2862.21,0.02183
2856.43,0.02203
2850.64,0.02197
2844.86,0.02106
2839.07,0.02205
2833.28,0.02202
2827.5,0.02251
2821.71,0.02167
2815.92,0.02249
2810.14,0.02285
2804.35,0.02220
2798.57,0.02206
2792.78,0.02261
2786.99,0.02237
2781.21,0.02245
2775.42,0.02226
2769.64,0.02233
2763.85,0.02190
2758.06,0.02181
2752.28,0.02278
2746.49,0.02250
2740.7,0.02256
2734.92,0.02264
2729.13,0.02217
2723.35,0.02182
2717.56,0.02244
2711.77,0.02242
2705.99,0.02216
2700.2,0.02179
2694.42,0.02235
2688.63,0.02217
2682.84,0.02239
2677.06,0.02281
2671.27,0.02225
2665.48,0.02236
2659.7,0.02266
2653.91,0.02232
2648.13,0.02281
2642.34,0.02273
2636.55,0.02220
2630.77,0.02248
2624.98,0.02197
2619.2,0.02196
2613.41,0.02251
2607.62,0.02255
2601.84,0.02290
2596.05,0.02244
2590.26,0.02237
2584.48,0.02238
2578.69,0.02237
2572.91,0.02207
2567.12,0.02221
2561.33,0.02192
2555.55,0.02274
2549.76,0.02249
2543.98,0.02245
2538.19,0.02250
2532.4,0.02276
2526.62,0.02285
2520.83,0.02264
2515.04,0.02261
2509.26,0.02250
2503.47,0.02264
2497.69,0.02227
2491.9,0.02223
2486.11,0.02259
2480.33,0.02224
2474.54,0.02253
2468.76,0.02261
2462.97,0.02264
2457.18,0.02196
2451.4,0.02282
2445.61,0.02294
2439.82,0.02269
2434.04,0.02259
2428.25,0.02260
2422.47,0.02217
2416.68,0.02250
2410.89,0.02259
2405.11,0.02240
2399.32,0.02254
2393.54,0.02259
2387.75,0.02290
2381.96,0.02297
2376.18,0.02355
2370.39,0.02412
2364.61,0.02495
2358.82,0.02427
2353.03,0.02413
2347.25,0.02334
2341.46,0.02404
2335.67,0.02405
2329.89,0.02317
2324.1,0.02243
2318.32,0.02297
2312.53,0.02334
2306.74,0.02278
2300.96,0.02242
2295.17,0.02294
2289.39,0.02263
2283.6,0.02212
2277.81,0.02236
2272.03,0.02290
2266.24,0.02284
2260.45,0.02243
2254.67,0.02225
2248.88,0.02253
2243.1,0.02240
2237.31,0.02255
2231.52,0.02260
2225.74,0.02274
2219.95,0.02243
2214.17,0.02261
2208.38,0.02253
2202.59,0.02234
2196.81,0.02276
2191.02,0.02249
2185.23,0.02244
2179.45,0.02224
2173.66,0.02251
2167.88,0.02286
2162.09,0.02265
2156.3,0.02247
2150.52,0.02281
2144.73,0.02260
2138.95,0.02261
2133.16,0.02255
2127.37,0.02283
2121.59,0.02259
2115.8,0.02268
2110.01,0.02253
2104.23,0.02257
2098.44,0.02245
2092.66,0.02257
2086.87,0.02249
2081.08,0.02237
2075.3,0.02249
2069.51,0.02266
2063.73,0.02238
2057.94,0.02250
2052.15,0.02245
2046.37,0.02250
2040.58,0.02259
2034.79,0.02250
2029.01,0.02230
2023.22,0.02232
2017.44,0.02241
2011.65,0.02259
2005.86,0.02248
2000.08,0.02226
1994.29,0.02265
1988.51,0.02278
1982.72,0.02237
1976.93,0.02245
1971.15,0.02251
1965.36,0.02232
1959.57,0.02211
1953.79,0.02266
1948,0.02269
1942.22,0.02231
1936.43,0.02227
1930.64,0.02226
1924.86,0.02244
1919.07,0.02244
1913.29,0.02246
1907.5,0.02251
1901.71,0.02219
1895.93,0.02225
1890.14,0.02241
1884.35,0.02207
1878.57,0.02209
1872.78,0.02203
1867,0.02244
1861.21,0.02238
1855.42,0.02212
1849.64,0.02212
1843.85,0.02198
1838.07,0.02209
1832.28,0.02214
1826.49,0.02195
1820.71,0.02216
1814.92,0.02185
1809.13,0.02203
1803.35,0.02177
1797.56,0.02158
1791.78,0.02159
1785.99,0.02089
1780.2,0.02119
1774.42,0.02130
1768.63,0.02059
1762.85,0.01951
1757.06,0.01937
1751.27,0.01900
1745.49,0.01940
1739.7,0.02021
1733.92,0.02129
1728.13,0.02149
1722.34,0.02217
1716.56,0.02282
1710.77,0.02210
1704.98,0.02190
1699.2,0.02151
1693.41,0.02108
1687.63,0.02096
1681.84,0.01975
1676.05,0.02107
1670.27,0.02057
1664.48,0.02006
1658.7,0.02043
1652.91,0.02152
1647.12,0.02031
1641.34,0.02058
1635.55,0.02064
1629.76,0.02045
1623.98,0.02075
1618.19,0.02087
1612.41,0.02048
1606.62,0.02093
1600.83,0.02073
1595.05,0.02071
1589.26,0.02086
1583.48,0.01993
1577.69,0.02088
1571.9,0.02048
1566.12,0.01985
1560.33,0.02079
1554.54,0.01985
1548.76,0.02023
1542.97,0.02061
1537.19,0.02061
1531.4,0.02105
1525.61,0.02011
1519.83,0.02069
1514.04,0.02084
1508.26,0.02051
1502.47,0.02064
1496.68,0.02075
1490.9,0.02079
1485.11,0.02064
1479.32,0.02052
1473.54,0.02031
1467.75,0.01979
1461.97,0.02010
1456.18,0.02052
1450.39,0.02026
1444.61,0.02023
1438.82,0.02054
1433.04,0.01990
1427.25,0.01966
1421.46,0.01990
1415.68,0.01962
1409.89,0.01946
1404.1,0.02008
1398.32,0.02021
1392.53,0.01989
1386.75,0.01979
1380.96,0.01982
1375.17,0.01963
1369.39,0.01982
1363.6,0.01979
1357.82,0.01931
1352.03,0.01937
1346.24,0.01897
1340.46,0.01945
1334.67,0.01934
1328.88,0.01904
1323.1,0.01883
1317.31,0.01849
1311.53,0.01835
1305.74,0.01858
1299.95,0.01890
1294.17,0.01885
1288.38,0.01964
1282.6,0.02018
1276.81,0.02031
1271.02,0.02071
1265.24,0.02078
1259.45,0.02122
1253.66,0.02134
1247.88,0.02161
1242.09,0.02129
1236.31,0.02132
1230.52,0.02109
1224.73,0.02113
1218.95,0.02122
1213.16,0.02061
1207.38,0.02111
1201.59,0.01997
1195.8,0.01963
1190.02,0.01967
1184.23,0.01946
1178.45,0.01963
1172.66,0.01930
1166.87,0.01968
1161.09,0.01903
1155.3,0.01911
1149.51,0.01934
1143.73,0.01935
1137.94,0.01944
1132.16,0.01972
1126.37,0.01967
1120.58,0.02033
1114.8,0.02019
1109.01,0.02006
1103.23,0.01990
1097.44,0.02029
1091.65,0.02059
1085.87,0.01927
1080.08,0.02036
1074.29,0.02056
1068.51,0.02184
1062.72,0.02156
1056.94,0.02088
1051.15,0.02087
1045.36,0.02074
1039.58,0.02164
1033.79,0.02084
1028.01,0.02175
1022.22,0.02089
1016.43,0.02141
1010.65,0.02174
1004.86,0.02212
999.075,0.02272
993.288,0.02251
987.502,0.02195
981.716,0.02230
975.93,0.02251
970.144,0.02187
964.358,0.02155
958.572,0.02142
952.785,0.02171
946.999,0.02178
941.213,0.02230
935.427,0.02156
929.641,0.02078
923.855,0.02097
918.068,0.02163
912.282,0.02091
906.496,0.02076
900.71,0.02091
894.924,0.02164
889.138,0.02189
883.352,0.02055
877.565,0.02089
871.779,0.02033
865.993,0.02093
860.207,0.02130
854.421,0.02038
848.635,0.02023
842.849,0.02070
837.062,0.02022
831.276,0.02036
825.49,0.02045
819.704,0.02077
813.918,0.02008
808.132,0.02061
802.346,0.02159
796.559,0.02024
790.773,0.02069
784.987,0.02039
779.201,0.02006
773.415,0.01937
767.629,0.01924
761.843,0.01983
756.056,0.01936
750.27,0.01886
744.484,0.01894
738.698,0.02017
732.912,0.01917
727.126,0.01895
721.34,0.01971
715.553,0.01988
709.767,0.01852
703.981,0.01979
698.195,0.02016
692.409,0.01879
686.623,0.01877
680.837,0.01952
675.05,0.01981
669.264,0.01960
663.478,0.01872
657.692,0.01854
651.906,0.01694
646.12,0.01557
640.333,0.01781
634.547,0.01831
628.761,0.01785
622.975,0.01901
617.189,0.01733
611.403,0.01574
605.617,0.01878
599.83,0.01725