File: 01_Data/PC/FTIR/IS/PC_2.93_Trans_S_IS_230516_R3.dpt
7496.92,0.89988
7491.13,0.85399
7485.34,0.87004
7479.56,0.88330
7473.77,0.88594
7467.99,0.88611
7462.2,0.86840
7456.41,0.88129
7450.63,0.84422
7444.84,0.85979
7439.06,0.87447
7433.27,0.84834
7427.48,0.87051
7421.7,0.86093
7415.91,0.84014
7410.12,0.83199
7404.34,0.82673
7398.55,0.79635
7392.77,0.79072
7386.98,0.79828
7381.19,0.79835
7375.41,0.81206
7369.62,0.81286
7363.84,0.81161
7358.05,0.77822
7352.26,0.83754
7346.48,0.79635
7340.69,0.81349
7334.9,0.78235
7329.12,0.79692
7323.33,0.77276
7317.55,0.77203
7311.76,0.76958
7305.97,0.76546
7300.19,0.78533
7294.4,0.77889
7288.62,0.76166
7282.83,0.77453
7277.04,0.77398
7271.26,0.79696
7265.47,0.77394
7259.68,0.76490
7253.9,0.76877
7248.11,0.75326
7242.33,0.74705
7236.54,0.77733
7230.75,0.77684
7224.97,0.76076
7219.18,0.78511
7213.4,0.78820
7207.61,0.77091
7201.82,0.78726
7196.04,0.74743
7190.25,0.74850
7184.46,0.75539
7178.68,0.78543
7172.89,0.75143
7167.11,0.76526
7161.32,0.75544
7155.53,0.78103
7149.75,0.75762
7143.96,0.77424
7138.18,0.76890
7132.39,0.78807
7126.6,0.78089
7120.82,0.77621
7115.03,0.78069
7109.24,0.77588
7103.46,0.76931
7097.67,0.76738
7091.89,0.78351
7086.1,0.79172
7080.31,0.77124
7074.53,0.78296
7068.74,0.80462
7062.96,0.79513
7057.17,0.81661
7051.38,0.83937
7045.6,0.81024
7039.81,0.81069
7034.02,0.81058
7028.24,0.81659
7022.45,0.82393
7016.67,0.82927
7010.88,0.81822
7005.09,0.83010
6999.31,0.80884
6993.52,0.78921
6987.74,0.81391
6981.95,0.82319
6976.16,0.80798
6970.38,0.81854
6964.59,0.82857
6958.8,0.84891
6953.02,0.82128
6947.23,0.79808
6941.45,0.81103
6935.66,0.83585
6929.87,0.83885
6924.09,0.82437
6918.3,0.82930
6912.52,0.84981
6906.73,0.83275
6900.94,0.82645
6895.16,0.83953
6889.37,0.82838
6883.59,0.83460
6877.8,0.82897
6872.01,0.82335
6866.23,0.82972
6860.44,0.83997
6854.65,0.84386
6848.87,0.83813
6843.08,0.82339
6837.3,0.82725
6831.51,0.83281
6825.72,0.83925
6819.94,0.85011
6814.15,0.83463
6808.37,0.84134
6802.58,0.81841
6796.79,0.83676
6791.01,0.83234
6785.22,0.84447
6779.43,0.84301
6773.65,0.84274
6767.86,0.83841
6762.08,0.83551
6756.29,0.84411
6750.5,0.84386
6744.72,0.83479
6738.93,0.85172
6733.15,0.85905
6727.36,0.85294
6721.57,0.84849
6715.79,0.85300
6710,0.87042
6704.21,0.85150
6698.43,0.85567
6692.64,0.86987
6686.86,0.86905
6681.07,0.86474
6675.28,0.86583
6669.5,0.85684
6663.71,0.86915
6657.93,0.85408
6652.14,0.87622
6646.35,0.85600
6640.57,0.86747
6634.78,0.87016
6628.99,0.88035
6623.21,0.88357
6617.42,0.86297
6611.64,0.88177
6605.85,0.88045
6600.06,0.88713
6594.28,0.87560
6588.49,0.87744
6582.71,0.87343
6576.92,0.86098
6571.13,0.87952
6565.35,0.86243
6559.56,0.88824
6553.77,0.87480
6547.99,0.86716
6542.2,0.88049
6536.42,0.87725
6530.63,0.88140
6524.84,0.88604
6519.06,0.87210
6513.27,0.87361
6507.49,0.87813
6501.7,0.87793
6495.91,0.88821
6490.13,0.87742
6484.34,0.88665
6478.55,0.89152
6472.77,0.88247
6466.98,0.86451
6461.2,0.87589
6455.41,0.88310
6449.62,0.87287
6443.84,0.87635
6438.05,0.87076
6432.27,0.87867
6426.48,0.87857
6420.69,0.87898
6414.91,0.87474
6409.12,0.88077
6403.33,0.88056
6397.55,0.87140
6391.76,0.88480
6385.98,0.88402
6380.19,0.87940
6374.4,0.87037
6368.62,0.87028
6362.83,0.87609
6357.05,0.87935
6351.26,0.88558
6345.47,0.87428
6339.69,0.86779
6333.9,0.86480
6328.12,0.86820
6322.33,0.85870
6316.54,0.85794
6310.76,0.85988
6304.97,0.85407
6299.18,0.86257
6293.4,0.85389
6287.61,0.84927
6281.83,0.85057
6276.04,0.83678
6270.25,0.84160
6264.47,0.84856
6258.68,0.82963
6252.9,0.82790
6247.11,0.82353
6241.32,0.81912
6235.54,0.82171
6229.75,0.80626
6223.96,0.80280
6218.18,0.79741
6212.39,0.78935
6206.61,0.78124
6200.82,0.77183
6195.03,0.75400
6189.25,0.73705
6183.46,0.71648
6177.68,0.69718
6171.89,0.69009
6166.1,0.69075
6160.32,0.69051
6154.53,0.68295
6148.74,0.67153
6142.96,0.65082
6137.17,0.63748
6131.39,0.61299
6125.6,0.59145
6119.81,0.57614
6114.03,0.56339
6108.24,0.54589
6102.46,0.52458
6096.67,0.49287
6090.88,0.45460
6085.1,0.41069
6079.31,0.37090
6073.52,0.34498
6067.74,0.32851
6061.95,0.32062
6056.17,0.30327
6050.38,0.27728
6044.59,0.24769
6038.81,0.21108
6033.02,0.17312
6027.24,0.14268
6021.45,0.10998
6015.66,0.08245
6009.88,0.06076
6004.09,0.04725
5998.3,0.04423
5992.52,0.04503
5986.73,0.05807
5980.95,0.07503
5975.16,0.11303
5969.37,0.14992
5963.59,0.17929
5957.8,0.19073
5952.02,0.19443
5946.23,0.18554
5940.44,0.17131
5934.66,0.16136
5928.87,0.15200
5923.08,0.15763
5917.3,0.17839
5911.51,0.19279
5905.73,0.20311
5899.94,0.20386
5894.15,0.20563
5888.37,0.21243
5882.58,0.24188
5876.8,0.27787
5871.01,0.32150
5865.22,0.35511
5859.44,0.38895
5853.65,0.42035
5847.86,0.44153
5842.08,0.45565
5836.29,0.45951
5830.51,0.44964
5824.72,0.44639
5818.93,0.45463
5813.15,0.45765
5807.36,0.46402
5801.58,0.46766
5795.79,0.46572
5790,0.45467
5784.22,0.43362
5778.43,0.41446
5772.65,0.40153
5766.86,0.38922
5761.07,0.39320
5755.29,0.40587
5749.5,0.42956
5743.71,0.46350
5737.93,0.49166
5732.14,0.52567
5726.36,0.55290
5720.57,0.57784
5714.78,0.59583
5709,0.61958
5703.21,0.62495
5697.43,0.62104
5691.64,0.61703
5685.85,0.60273
5680.07,0.58653
5674.28,0.56735
5668.49,0.55727
5662.71,0.54644
5656.92,0.55369
5651.14,0.56855
5645.35,0.58501
5639.56,0.60459
5633.78,0.62442
5627.99,0.64707
5622.21,0.66492
5616.42,0.68079
5610.63,0.69235
5604.85,0.69244
5599.06,0.68654
5593.27,0.69032
5587.49,0.69057
5581.7,0.68408
5575.92,0.67940
5570.13,0.67934
5564.34,0.68027
5558.56,0.67592
5552.77,0.66810
5546.99,0.67195
5541.2,0.67424
5535.41,0.67152
5529.63,0.67182
5523.84,0.66908
5518.05,0.67009
5512.27,0.67553
5506.48,0.67319
5500.7,0.67045
5494.91,0.66386
5489.12,0.65789
5483.34,0.65895
5477.55,0.65011
5471.77,0.64849
5465.98,0.64835
5460.19,0.65273
5454.41,0.66338
5448.62,0.66520
5442.83,0.66591
5437.05,0.67884
5431.26,0.67898
5425.48,0.68264
5419.69,0.68357
5413.9,0.67158
5408.12,0.67419
5402.33,0.67402
5396.55,0.67350
5390.76,0.67816
5384.97,0.67844
5379.19,0.68367
5373.4,0.68375
5367.61,0.68634
5361.83,0.68683
5356.04,0.67880
5350.26,0.67079
5344.47,0.66197
5338.68,0.66521
5332.9,0.66875
5327.11,0.66800
5321.33,0.67383
5315.54,0.67102
5309.75,0.66557
5303.97,0.65884
5298.18,0.64901
5292.39,0.63062
5286.61,0.60705
5280.82,0.57898
5275.04,0.54635
5269.25,0.51805
5263.46,0.50629
5257.68,0.52639
5251.89,0.55225
5246.11,0.58450
5240.32,0.62237
5234.53,0.64464
5228.75,0.66489
5222.96,0.68362
5217.18,0.69319
5211.39,0.70028
5205.6,0.69342
5199.82,0.70156
5194.03,0.70149
5188.24,0.69814
5182.46,0.69937
5176.67,0.69516
5170.89,0.69515
5165.1,0.69633
5159.31,0.69897
5153.53,0.70331
5147.74,0.71092
5141.96,0.71626
5136.17,0.71897
5130.38,0.72187
5124.6,0.72284
5118.81,0.72557
5113.02,0.72585
5107.24,0.72522
5101.45,0.72600
5095.67,0.72216
5089.88,0.72215
5084.09,0.71848
5078.31,0.71504
5072.52,0.71485
5066.74,0.71688
5060.95,0.71674
5055.16,0.72003
5049.38,0.71955
5043.59,0.72113
5037.8,0.72044
5032.02,0.72054
5026.23,0.71388
5020.45,0.70900
5014.66,0.70729
5008.87,0.70346
5003.09,0.70108
4997.3,0.69586
4991.52,0.69282
4985.73,0.68927
4979.94,0.68528
4974.16,0.68222
4968.37,0.68004
4962.58,0.67961
4956.8,0.67858
4951.01,0.67789
4945.23,0.67552
4939.44,0.67336
4933.65,0.66973
4927.87,0.66043
4922.08,0.64999
4916.3,0.63269
4910.51,0.61685
4904.72,0.60066
4898.94,0.58617
4893.15,0.57851
4887.36,0.57197
4881.58,0.56867
4875.79,0.56648
4870.01,0.56027
4864.22,0.54636
4858.43,0.52711
4852.65,0.51172
4846.86,0.50058
4841.08,0.50377
4835.29,0.51056
4829.5,0.51765
4823.72,0.52724
4817.93,0.53195
4812.14,0.53402
4806.36,0.54022
4800.57,0.53915
4794.79,0.53253
4789,0.52083
4783.21,0.51059
4777.43,0.49578
4771.64,0.47879
4765.86,0.45998
4760.07,0.44021
4754.28,0.41910
4748.5,0.39509
4742.71,0.36100
4736.92,0.32169
4731.14,0.27551
4725.35,0.22824
4719.57,0.18238
4713.78,0.13545
4707.99,0.08923
4702.21,0.05467
4696.42,0.03377
4690.64,0.02380
4684.85,0.01719
4679.06,0.01726
4673.28,0.02324
4667.49,0.03445
4661.7,0.04702
4655.92,0.05193
4650.13,0.04432
4644.35,0.03016
4638.56,0.01908
4632.77,0.01550
4626.99,0.02345
4621.2,0.05150
4615.42,0.10147
4609.63,0.15214
4603.84,0.18016
4598.06,0.18286
4592.27,0.16638
4586.49,0.14229
4580.7,0.12216
4574.91,0.11469
4569.13,0.12949
4563.34,0.16954
4557.55,0.22107
4551.77,0.26283
4545.98,0.28105
4540.2,0.28072
4534.41,0.27720
4528.62,0.27850
4522.84,0.28282
4517.05,0.28384
4511.27,0.28131
4505.48,0.27054
4499.69,0.24761
4493.91,0.21902
4488.12,0.19053
4482.33,0.17037
4476.55,0.16352
4470.76,0.16473
4464.98,0.16359
4459.19,0.15465
4453.4,0.13737
4447.62,0.11183
4441.83,0.08613
4436.05,0.06047
4430.26,0.04072
4424.47,0.02631
4418.69,0.01706
4412.9,0.01143
4407.11,0.00822
4401.33,0.00873
4395.54,0.01420
4389.76,0.01814
4383.97,0.01718
4378.18,0.01376
4372.4,0.01059
4366.61,0.00773
4360.83,0.00542
4355.04,0.00371
4349.25,0.00438
4343.47,0.00295
4337.68,0.00323
4331.89,0.00246
4326.11,0.00146
4320.32,0.00250
4314.54,0.00347
4308.75,0.00447
4302.96,0.00386
4297.18,0.00344
4291.39,0.00535
4285.61,0.00647
4279.82,0.00878
4274.03,0.00855
4268.25,0.01026
4262.46,0.01232
4256.67,0.01460
4250.89,0.01649
4245.1,0.01774
4239.32,0.01561
4233.53,0.01490
4227.74,0.01293
4221.96,0.01195
4216.17,0.01048
4210.39,0.00923
4204.6,0.00903
4198.81,0.00859
4193.03,0.00875
4187.24,0.00722
4181.45,0.00762
4175.67,0.00631
4169.88,0.00569
4164.1,0.00765
4158.31,0.01021
4152.52,0.01623
4146.74,0.02082
4140.95,0.02237
4135.17,0.02341
4129.38,0.02359
4123.59,0.02058
4117.81,0.01707
4112.02,0.01102
4106.23,0.00556
4100.45,0.00262
4094.66,0.00055
4088.88,0.00071
4083.09,0.00052
4077.3,0.00060
4071.52,0.00068
4065.73,0.00108
4059.95,0.00056
4054.16,0.00162
4048.37,0.00480
4042.59,0.01158
4036.8,0.02044
4031.02,0.02436
4025.23,0.02287
4019.44,0.02147
4013.66,0.02121
4007.87,0.02265
4002.08,0.02192
3996.3,0.02128
3990.51,0.01918
3984.73,0.01920
3978.94,0.02147
3973.15,0.02595
3967.37,0.03265
3961.58,0.03711
3955.8,0.03474
3950.01,0.03013
3944.22,0.02897
3938.44,0.02936
3932.65,0.02854
3926.86,0.02849
3921.08,0.02527
3915.29,0.02190
3909.51,0.01938
3903.72,0.01731
3897.93,0.01676
3892.15,0.01330
3886.36,0.01087
3880.58,0.01253
3874.79,0.01684
3869,0.02701
3863.22,0.04079
3857.43,0.05112
3851.64,0.06327
3845.86,0.07336
3840.07,0.07779
3834.29,0.08433
3828.5,0.08560
3822.71,0.08192
3816.93,0.07920
3811.14,0.08072
3805.36,0.08275
3799.57,0.09349
3793.78,0.10722
3788,0.12049
3782.21,0.13022
3776.42,0.13023
3770.64,0.11871
3764.85,0.09944
3759.07,0.07845
3753.28,0.06268
3747.49,0.05534
3741.71,0.05680
3735.92,0.06003
3730.14,0.07105
3724.35,0.07202
3718.56,0.06570
3712.78,0.04980
3706.99,0.03020
3701.2,0.01737
3695.42,0.00811
3689.63,0.00280
3683.85,0.00093
3678.06,0.00075
3672.27,0.00078
3666.49,0.00094
3660.7,0.00042
3654.92,0.00250
3649.13,0.00491
3643.34,0.01277
3637.56,0.02084
3631.77,0.02828
3625.98,0.04026
3620.2,0.05118
3614.41,0.06031
3608.63,0.05711
3602.84,0.04088
3597.05,0.01929
3591.27,0.00703
3585.48,0.00237
3579.7,0.00118
3573.91,0.00040
3568.12,0.00060
3562.34,0.00068
3556.55,0.00056
3550.76,0.00086
3544.98,0.00054
3539.19,0.00089
3533.41,0.00057
3527.62,0.00061
3521.83,0.00096
3516.05,0.00059
3510.26,0.00271
3504.48,0.00407
3498.69,0.00785
3492.9,0.01352
3487.12,0.01761
3481.33,0.02028
3475.55,0.02385
3469.76,0.02988
3463.97,0.03648
3458.19,0.04466
3452.4,0.05396
3446.61,0.06393
3440.83,0.07255
3435.04,0.08170
3429.26,0.09117
3423.47,0.09953
3417.68,0.10425
3411.9,0.10588
3406.11,0.10310
3400.33,0.09665
3394.54,0.08740
3388.75,0.07701
3382.97,0.06784
3377.18,0.06039
3371.39,0.05609
3365.61,0.05669
3359.82,0.05819
3354.04,0.05979
3348.25,0.06050
3342.46,0.06085
3336.68,0.05772
3330.89,0.05329
3325.11,0.04574
3319.32,0.03735
3313.53,0.03050
3307.75,0.02282
3301.96,0.01886
3296.17,0.01521
3290.39,0.01273
3284.6,0.01115
3278.82,0.01035
3273.03,0.01012
3267.24,0.00810
3261.46,0.00718
3255.67,0.00603
3249.89,0.00424
3244.1,0.00480
3238.31,0.00430
3232.53,0.00311
3226.74,0.00199
3220.95,0.00213
3215.17,0.00175
3209.38,0.00115
3203.6,0.00090
3197.81,0.00054
3192.02,0.00116
3186.24,0.00050
3180.45,0.00083
3174.67,0.00049
3168.88,0.00049
3163.09,0.00080
3157.31,0.00078
3151.52,0.00067
3145.73,0.00008
3139.95,0.00059
3134.16,0.00073
3128.38,0.00099
3122.59,0.00039
3116.8,0.00024
3111.02,0.00057
3105.23,0.00021
3099.45,0.00056
3093.66,0.00056
3087.87,0.00021
3082.09,0.00036
3076.3,0.00000
3070.51,0.00058
3064.73,0.00021
3058.94,0.00051
3053.16,0.00029
3047.37,0.00043
3041.58,0.00050
3035.8,0.00055
3030.01,0.00049
3024.23,0.00063
3018.44,0.00015
3012.65,0.00036
3006.87,0.00092
3001.08,0.00040
2995.29,0.00039
2989.51,0.00046
2983.72,0.00079
2977.94,0.00040
2972.15,0.00057
2966.36,0.00059
2960.58,0.00033
2954.79,0.00037
2949.01,0.00041
2943.22,0.00041
2937.43,0.00025
2931.65,0.00096
2925.86,0.00037
2920.08,0.00081
2914.29,0.00025
2908.5,0.00033
2902.72,0.00017
2896.93,0.00029
2891.14,0.00041
2885.36,0.00050
2879.57,0.00044
2873.79,0.00049
2868,0.00066
2862.21,0.00049
2856.43,0.00026
2850.64,0.00037
2844.86,0.00055
2839.07,0.00039
2833.28,0.00072
2827.5,0.00063
2821.71,0.00026
2815.92,0.00030
2810.14,0.00029
2804.35,0.00039
2798.57,0.00038
2792.78,0.00066
2786.99,0.00018
2781.21,0.00043
2775.42,0.00045
2769.64,0.00068
2763.85,0.00113
2758.06,0.00292
2752.28,0.00596
2746.49,0.00775
2740.7,0.00687
2734.92,0.00408
2729.13,0.00340
2723.35,0.00355
2717.56,0.00193
2711.77,0.00314
2705.99,0.00728
2700.2,0.01232
2694.42,0.01739
2688.63,0.02122
2682.84,0.02292
2677.06,0.02092
2671.27,0.01868
2665.48,0.01886
2659.7,0.02216
2653.91,0.02868
2648.13,0.03750
2642.34,0.04299
2636.55,0.04039
2630.77,0.02961
2624.98,0.01588
2619.2,0.00676
2613.41,0.00382
2607.62,0.00327
2601.84,0.00326
2596.05,0.00296
2590.26,0.00305
2584.48,0.00335
2578.69,0.00509
2572.91,0.00644
2567.12,0.01093
2561.33,0.01541
2555.55,0.01470
2549.76,0.01164
2543.98,0.00892
2538.19,0.00580
2532.4,0.00350
2526.62,0.00402
2520.83,0.00509
2515.04,0.00429
2509.26,0.00304
2503.47,0.00230
2497.69,0.00109
2491.9,0.00072
2486.11,0.00023
2480.33,0.00040
2474.54,0.00013
2468.76,0.00044
2462.97,0.00032
2457.18,0.00020
2451.4,0.00021
2445.61,0.00042
2439.82,0.00022
2434.04,0.00024
2428.25,0.00010
2422.47,0.00056
2416.68,0.00019
2410.89,0.00019
2405.11,0.00034
2399.32,0.00028
2393.54,0.00022
2387.75,0.00022
2381.96,0.00048
2376.18,0.00060
2370.39,0.00089
2364.61,0.00085
2358.82,0.00170
2353.03,0.00160
2347.25,0.00106
2341.46,0.00076
2335.67,0.00024
2329.89,0.00030
2324.1,0.00054
2318.32,0.00034
2312.53,0.00061
2306.74,0.00053
2300.96,0.00046
2295.17,0.00032
2289.39,0.00038
2283.6,0.00017
2277.81,0.00009
2272.03,0.00020
2266.24,0.00023
2260.45,0.00035
2254.67,0.00021
2248.88,0.00023
2243.1,0.00014
2237.31,0.00042
2231.52,0.00043
2225.74,0.00013
2219.95,0.00027
2214.17,0.00029
2208.38,0.00021
2202.59,0.00016
2196.81,0.00012
2191.02,0.00024
2185.23,0.00019
2179.45,0.00029
2173.66,0.00031
2167.88,0.00007
2162.09,0.00067
2156.3,0.00182
2150.52,0.00347
2144.73,0.00354
2138.95,0.00275
2133.16,0.00124
2127.37,0.00049
2121.59,0.00046
2115.8,0.00025
2110.01,0.00003
2104.23,0.00004
2098.44,0.00026
2092.66,0.00025
2086.87,0.00018
2081.08,0.00062
2075.3,0.00032
2069.51,0.00037
2063.73,0.00008
2057.94,0.00045
2052.15,0.00003
2046.37,0.00034
2040.58,0.00024
2034.79,0.00000
2029.01,0.00046
2023.22,0.00018
2017.44,0.00052
2011.65,0.00039
2005.86,0.00018
2000.08,0.00010
1994.29,0.00012
1988.51,0.00024
1982.72,0.00030
1976.93,0.00018
1971.15,0.00026
1965.36,0.00043
1959.57,0.00026
1953.79,0.00007
1948,0.00022
1942.22,0.00039
1936.43,0.00020
1930.64,0.00031
1924.86,0.00039
1919.07,0.00022
1913.29,0.00009
1907.5,0.00007
1901.71,0.00040
1895.93,0.00031
1890.14,0.00041
1884.35,0.00024
1878.57,0.00029
1872.78,0.00045
1867,0.00033
1861.21,0.00053
1855.42,0.00036
1849.64,0.00024
1843.85,0.00036
1838.07,0.00023
1832.28,0.00015
1826.49,0.00046
1820.71,0.00074
1814.92,0.00015
1809.13,0.00007
1803.35,0.00027
1797.56,0.00022
1791.78,0.00051
1785.99,0.00008
1780.2,0.00044
1774.42,0.00022
1768.63,0.00036
1762.85,0.00054
1757.06,0.00021
1751.27,0.00028
1745.49,0.00054
1739.7,0.00004
1733.92,0.00080
1728.13,0.00034
1722.34,0.00009
1716.56,0.00088
1710.77,0.00023
1704.98,0.00031
1699.2,0.00060
1693.41,0.00070
1687.63,0.00056
1681.84,0.00058
1676.05,0.00006
1670.27,0.00036
1664.48,0.00022
1658.7,0.00018
1652.91,0.00079
1647.12,-0.00000
1641.34,0.00036
1635.55,0.00084
1629.76,0.00029
1623.98,0.00082
1618.19,0.00005
1612.41,0.00050
1606.62,0.00036
1600.83,0.00010
1595.05,0.00032
1589.26,0.00041
1583.48,0.00007
1577.69,0.00063
1571.9,0.00034
1566.12,0.00043
1560.33,0.00069
1554.54,0.00033
1548.76,0.00053
1542.97,0.00058
1537.19,0.00070
1531.4,0.00039
1525.61,0.00008
1519.83,0.00073
1514.04,0.00064
1508.26,0.00131
1502.47,0.00033
1496.68,0.00024
1490.9,0.00075
1485.11,0.00008
1479.32,0.00014
1473.54,0.00101
1467.75,0.00072
1461.97,0.00026
1456.18,0.00059
1450.39,0.00050
1444.61,0.00049
1438.82,0.00024
1433.04,0.00025
1427.25,0.00024
1421.46,0.00055
1415.68,0.00030
1409.89,0.00058
1404.1,0.00015
1398.32,0.00037
1392.53,0.00059
1386.75,0.00027
1380.96,0.00063
1375.17,0.00022
1369.39,0.00042
1363.6,0.00034
1357.82,0.00022
1352.03,0.00057
1346.24,0.00034
1340.46,0.00009
1334.67,0.00028
1328.88,0.00052
1323.1,0.00005
1317.31,0.00065
1311.53,0.00018
1305.74,0.00008
1299.95,0.00036
1294.17,0.00026
1288.38,0.00039
1282.6,0.00039
1276.81,0.00025
1271.02,0.00009
1265.24,0.00030
1259.45,0.00021
1253.66,0.00021
1247.88,0.00034
1242.09,0.00037
1236.31,0.00021
1230.52,0.00027
1224.73,0.00008
1218.95,0.00034
1213.16,0.00037
1207.38,0.00077
1201.59,0.00045
1195.8,0.00054
1190.02,0.00041
1184.23,0.00010
1178.45,0.00042
1172.66,0.00033
1166.87,0.00037
1161.09,0.00027
1155.3,0.00020
1149.51,0.00058
1143.73,0.00015
1137.94,0.00035
1132.16,-0.00001
1126.37,0.00040
1120.58,0.00053
1114.8,0.00065
1109.01,0.00119
1103.23,0.00080
1097.44,0.00047
1091.65,0.00012
1085.87,0.00078
1080.08,0.00039
1074.29,0.00024
1068.51,0.00053
1062.72,0.00065
1056.94,0.00082
1051.15,0.00051
1045.36,0.00024
1039.58,0.00037
1033.79,0.00084
1028.01,0.00031
1022.22,0.00023
1016.43,0.00044
1010.65,0.00043
1004.86,0.00049
999.075,0.00046
993.288,0.00048
987.502,0.00051
981.716,0.00034
975.93,0.00023
970.144,0.00041
964.358,0.00046
958.572,0.00028
952.785,0.00059
946.999,0.00032
941.213,0.00022
935.427,0.00085
929.641,0.00045
923.855,0.00037
918.068,0.00051
912.282,0.00064
906.496,0.00066
900.71,0.00039
894.924,0.00046
889.138,0.00068
883.352,0.00087
877.565,0.00052
871.779,0.00051
865.993,0.00097
860.207,0.00058
854.421,0.00016
848.635,0.00052
842.849,0.00021
837.062,0.00029
831.276,0.00001
825.49,0.00075
819.704,0.00058
813.918,0.00016
808.132,0.00064
802.346,0.00076
796.559,0.00088
790.773,0.00035
784.987,0.00078
779.201,0.00028
773.415,0.00091
767.629,0.00039
761.843,0.00048
756.056,0.00030
750.27,0.00046
744.484,0.00050
738.698,0.00098
732.912,0.00074
727.126,0.00056
721.34,0.00057
715.553,0.00085
709.767,0.00059
703.981,0.00023
698.195,0.00101
692.409,0.00131
686.623,0.00048
680.837,0.00095
675.05,0.00106
669.264,0.00153
663.478,0.00011
657.692,0.00147
651.906,0.00052
646.12,0.00253
640.333,0.00069
634.547,0.00176
628.761,0.00058
622.975,0.00145
617.189,0.00143
611.403,0.00102
605.617,0.00224
599.83,0.00208