File: 01_Data/PC/FTIR/IS/PC_2.93_Trans_T_IS_230516_R4.dpt
7496.92,0.09093
7491.13,0.02862
7485.34,0.05003
7479.56,0.11148
7473.77,0.07478
7467.99,-0.02876
7462.2,0.06341
7456.41,0.07782
7450.63,0.07363
7444.84,0.12365
7439.06,0.10752
7433.27,0.02862
7427.48,0.03243
7421.7,0.08457
7415.91,0.03665
7410.12,0.02400
7404.34,0.09111
7398.55,0.05955
7392.77,0.03339
7386.98,0.08686
7381.19,0.08019
7375.41,0.03672
7369.62,0.03962
7363.84,0.08713
7358.05,0.06249
7352.26,0.11828
7346.48,0.05664
7340.69,0.06756
7334.9,0.04961
7329.12,0.03795
7323.33,0.04741
7317.55,0.06693
7311.76,0.11028
7305.97,0.05453
7300.19,0.06585
7294.4,0.03618
7288.62,0.05440
7282.83,0.04914
7277.04,0.03385
7271.26,0.04730
7265.47,0.11293
7259.68,0.05949
7253.9,0.08313
7248.11,0.08752
7242.33,0.06696
7236.54,0.04057
7230.75,0.06262
7224.97,0.02389
7219.18,0.05123
7213.4,0.05232
7207.61,0.04170
7201.82,0.05200
7196.04,0.07268
7190.25,0.02728
7184.46,0.06777
7178.68,0.01490
7172.89,0.00682
7167.11,0.06716
7161.32,0.03916
7155.53,0.05944
7149.75,0.05799
7143.96,0.03002
7138.18,0.06920
7132.39,0.02942
7126.6,0.03968
7120.82,0.09938
7115.03,0.03083
7109.24,0.04729
7103.46,0.01643
7097.67,0.09309
7091.89,0.03874
7086.1,0.04055
7080.31,0.04463
7074.53,0.04077
7068.74,0.03657
7062.96,0.06222
7057.17,0.03341
7051.38,0.01649
7045.6,0.04821
7039.81,0.05637
7034.02,0.07751
7028.24,0.05491
7022.45,0.03949
7016.67,0.04270
7010.88,0.03633
7005.09,0.01809
6999.31,0.07126
6993.52,0.05486
6987.74,0.03184
6981.95,0.03237
6976.16,0.01041
6970.38,0.05889
6964.59,0.02664
6958.8,0.03316
6953.02,0.05943
6947.23,-0.00179
6941.45,0.05292
6935.66,0.05308
6929.87,0.03357
6924.09,0.02924
6918.3,0.02005
6912.52,0.05102
6906.73,0.02458
6900.94,0.03551
6895.16,0.04131
6889.37,0.01058
6883.59,0.02986
6877.8,0.01965
6872.01,0.03812
6866.23,0.03800
6860.44,0.02905
6854.65,0.01229
6848.87,0.05809
6843.08,0.03805
6837.3,0.04615
6831.51,-0.00433
6825.72,0.04029
6819.94,0.01799
6814.15,0.04010
6808.37,0.01841
6802.58,0.04467
6796.79,0.02191
6791.01,0.04794
6785.22,0.03223
6779.43,0.03859
6773.65,0.01079
6767.86,0.03683
6762.08,0.04455
6756.29,0.00499
6750.5,0.01229
6744.72,0.03169
6738.93,0.03630
6733.15,0.03818
6727.36,0.00212
6721.57,0.03126
6715.79,0.02203
6710,0.02235
6704.21,0.01450
6698.43,0.05430
6692.64,0.04004
6686.86,0.02396
6681.07,0.04229
6675.28,0.04078
6669.5,0.02966
6663.71,0.01660
6657.93,0.04114
6652.14,0.00417
6646.35,0.03640
6640.57,0.02364
6634.78,0.05393
6628.99,0.02611
6623.21,0.01837
6617.42,0.02359
6611.64,0.02013
6605.85,0.02397
6600.06,0.02732
6594.28,0.02657
6588.49,0.02379
6582.71,0.03178
6576.92,0.02990
6571.13,0.02086
6565.35,0.03142
6559.56,0.01443
6553.77,0.02089
6547.99,0.01986
6542.2,0.04352
6536.42,0.02812
6530.63,0.03848
6524.84,0.02590
6519.06,0.02005
6513.27,0.02427
6507.49,0.02506
6501.7,0.03692
6495.91,0.01780
6490.13,0.03367
6484.34,0.02086
6478.55,0.01669
6472.77,0.01027
6466.98,0.01169
6461.2,0.01083
6455.41,0.03848
6449.62,0.03868
6443.84,0.02734
6438.05,0.01198
6432.27,0.00117
6426.48,0.04848
6420.69,0.01494
6414.91,0.01896
6409.12,0.01357
6403.33,0.01997
6397.55,0.00441
6391.76,0.01940
6385.98,0.01699
6380.19,0.00354
6374.4,0.02976
6368.62,0.01545
6362.83,0.01557
6357.05,0.02632
6351.26,0.03310
6345.47,0.01539
6339.69,0.01518
6333.9,0.02046
6328.12,0.00940
6322.33,0.02830
6316.54,0.02596
6310.76,0.01262
6304.97,0.00281
6299.18,0.01374
6293.4,0.02111
6287.61,0.01139
6281.83,0.01288
6276.04,0.01569
6270.25,0.01552
6264.47,0.01682
6258.68,0.01676
6252.9,0.02157
6247.11,0.01290
6241.32,0.01303
6235.54,0.00304
6229.75,0.00978
6223.96,0.02577
6218.18,0.02283
6212.39,0.02259
6206.61,0.00354
6200.82,0.00647
6195.03,0.01448
6189.25,0.01429
6183.46,0.02209
6177.68,0.01811
6171.89,0.01761
6166.1,0.01371
6160.32,0.01736
6154.53,0.01146
6148.74,0.02237
6142.96,0.01931
6137.17,0.01576
6131.39,0.01356
6125.6,0.01342
6119.81,0.00854
6114.03,0.01891
6108.24,0.00877
6102.46,0.01715
6096.67,0.00943
6090.88,0.02281
6085.1,0.02207
6079.31,0.00644
6073.52,0.00435
6067.74,0.02010
6061.95,0.00710
6056.17,0.01305
6050.38,0.01254
6044.59,0.01742
6038.81,0.00598
6033.02,0.01385
6027.24,0.02018
6021.45,0.01227
6015.66,0.01001
6009.88,0.01529
6004.09,0.00656
5998.3,0.00797
5992.52,0.01685
5986.73,0.01440
5980.95,0.02650
5975.16,0.00978
5969.37,0.00674
5963.59,0.01575
5957.8,0.00764
5952.02,0.00691
5946.23,0.00958
5940.44,0.01255
5934.66,0.01239
5928.87,0.01550
5923.08,0.00954
5917.3,0.00997
5911.51,0.00895
5905.73,0.01239
5899.94,0.00553
5894.15,0.00826
5888.37,0.01553
5882.58,0.00524
5876.8,0.02140
5871.01,0.00099
5865.22,0.01679
5859.44,0.00808
5853.65,0.00931
5847.86,0.00888
5842.08,0.00363
5836.29,0.02319
5830.51,0.00648
5824.72,0.00812
5818.93,0.00684
5813.15,0.01488
5807.36,0.01732
5801.58,0.01202
5795.79,0.00931
5790,0.00973
5784.22,0.01621
5778.43,0.00991
5772.65,0.01217
5766.86,0.01461
5761.07,-0.00283
5755.29,0.01729
5749.5,0.00540
5743.71,0.00842
5737.93,0.01128
5732.14,0.01225
5726.36,0.01307
5720.57,0.00385
5714.78,0.01891
5709,0.00648
5703.21,0.00620
5697.43,0.01154
5691.64,0.00184
5685.85,0.00989
5680.07,0.01601
5674.28,0.01245
5668.49,0.00667
5662.71,0.00962
5656.92,0.01010
5651.14,0.00629
5645.35,0.00904
5639.56,0.01379
5633.78,0.00835
5627.99,0.00912
5622.21,0.00534
5616.42,0.00603
5610.63,0.00584
5604.85,0.00866
5599.06,0.00303
5593.27,0.01158
5587.49,0.00447
5581.7,0.00626
5575.92,0.00835
5570.13,0.00347
5564.34,0.00775
5558.56,0.01329
5552.77,0.01078
5546.99,0.00386
5541.2,0.00980
5535.41,0.00884
5529.63,0.00711
5523.84,0.00546
5518.05,0.00814
5512.27,0.00636
5506.48,0.01245
5500.7,0.00948
5494.91,0.01201
5489.12,0.01229
5483.34,0.00573
5477.55,0.01142
5471.77,0.00554
5465.98,0.00329
5460.19,0.00489
5454.41,0.00788
5448.62,0.00678
5442.83,0.01095
5437.05,0.00634
5431.26,0.00504
5425.48,0.01600
5419.69,0.00137
5413.9,0.00378
5408.12,0.00911
5402.33,0.00782
5396.55,0.00825
5390.76,0.00865
5384.97,0.00285
5379.19,0.00780
5373.4,0.01398
5367.61,0.00281
5361.83,0.00539
5356.04,0.00441
5350.26,0.00993
5344.47,0.00904
5338.68,0.00753
5332.9,0.00779
5327.11,0.00692
5321.33,0.01313
5315.54,0.00787
5309.75,0.00570
5303.97,0.00805
5298.18,0.00957
5292.39,0.00925
5286.61,0.00583
5280.82,0.00866
5275.04,0.00545
5269.25,0.00326
5263.46,0.00448
5257.68,0.00726
5251.89,0.00873
5246.11,0.00731
5240.32,0.00823
5234.53,0.00627
5228.75,0.00977
5222.96,0.00675
5217.18,-0.00073
5211.39,0.00820
5205.6,0.00456
5199.82,0.00257
5194.03,0.00686
5188.24,0.00874
5182.46,0.00492
5176.67,0.00753
5170.89,0.00939
5165.1,0.00569
5159.31,0.00786
5153.53,0.00577
5147.74,0.00420
5141.96,0.00488
5136.17,0.00659
5130.38,0.00743
5124.6,-0.00214
5118.81,0.00749
5113.02,0.00435
5107.24,0.01085
5101.45,0.00513
5095.67,0.00437
5089.88,0.00704
5084.09,0.00507
5078.31,0.00446
5072.52,0.00129
5066.74,0.00870
5060.95,0.00457
5055.16,0.00315
5049.38,0.00799
5043.59,0.00436
5037.8,0.00847
5032.02,0.00654
5026.23,0.01028
5020.45,0.00224
5014.66,0.00175
5008.87,0.00287
5003.09,0.00965
4997.3,0.00749
4991.52,0.00227
4985.73,0.00436
4979.94,0.00273
4974.16,0.00842
4968.37,-0.00026
4962.58,0.00557
4956.8,0.00625
4951.01,0.00882
4945.23,0.00586
4939.44,-0.00003
4933.65,0.00493
4927.87,0.00298
4922.08,0.00172
4916.3,0.00240
4910.51,0.00361
4904.72,0.00566
4898.94,0.00629
4893.15,0.00617
4887.36,0.00371
4881.58,0.00274
4875.79,0.00503
4870.01,0.00380
4864.22,0.00305
4858.43,0.00491
4852.65,0.00335
4846.86,0.00530
4841.08,0.00421
4835.29,0.00301
4829.5,0.00241
4823.72,0.00593
4817.93,0.00351
4812.14,0.00301
4806.36,0.00575
4800.57,0.00460
4794.79,0.00482
4789,0.00613
4783.21,0.00134
4777.43,0.00293
4771.64,0.00588
4765.86,0.00227
4760.07,0.00134
4754.28,0.00433
4748.5,0.00148
4742.71,0.00332
4736.92,0.00208
4731.14,0.00509
4725.35,0.00063
4719.57,0.00578
4713.78,0.00384
4707.99,0.00262
4702.21,0.00559
4696.42,0.00110
4690.64,0.00287
4684.85,0.00223
4679.06,0.00455
4673.28,-0.00008
4667.49,0.00177
4661.7,0.00269
4655.92,0.00294
4650.13,0.00164
4644.35,0.00341
4638.56,0.00329
4632.77,0.00516
4626.99,0.00582
4621.2,0.00412
4615.42,0.00314
4609.63,0.00023
4603.84,0.00393
4598.06,0.00434
4592.27,0.00167
4586.49,0.00142
4580.7,0.00297
4574.91,0.00608
4569.13,0.00416
4563.34,0.00566
4557.55,0.00309
4551.77,0.00498
4545.98,0.00038
4540.2,0.00142
4534.41,0.00355
4528.62,0.00104
4522.84,0.00112
4517.05,0.00316
4511.27,0.00377
4505.48,0.00279
4499.69,0.00105
4493.91,0.00383
4488.12,0.00179
4482.33,0.00260
4476.55,0.00168
4470.76,0.00127
4464.98,0.00264
4459.19,0.00321
4453.4,0.00303
4447.62,0.00385
4441.83,0.00383
4436.05,0.00243
4430.26,0.00310
4424.47,0.00325
4418.69,-0.00042
4412.9,0.00178
4407.11,0.00406
4401.33,0.00273
4395.54,0.00304
4389.76,0.00465
4383.97,0.00370
4378.18,0.00267
4372.4,0.00354
4366.61,0.00309
4360.83,0.00370
4355.04,0.00049
4349.25,0.00401
4343.47,0.00362
4337.68,0.00174
4331.89,0.00205
4326.11,0.00199
4320.32,0.00145
4314.54,0.00094
4308.75,0.00034
4302.96,0.00247
4297.18,0.00398
4291.39,0.00323
4285.61,0.00161
4279.82,0.00329
4274.03,0.00254
4268.25,0.00203
4262.46,0.00220
4256.67,0.00229
4250.89,0.00196
4245.1,0.00303
4239.32,0.00207
4233.53,0.00161
4227.74,0.00096
4221.96,0.00430
4216.17,0.00132
4210.39,0.00242
4204.6,0.00427
4198.81,0.00223
4193.03,0.00058
4187.24,0.00149
4181.45,0.00218
4175.67,0.00272
4169.88,0.00285
4164.1,0.00465
4158.31,0.00064
4152.52,0.00190
4146.74,0.00138
4140.95,0.00160
4135.17,0.00196
4129.38,0.00090
4123.59,0.00144
4117.81,0.00255
4112.02,0.00153
4106.23,0.00260
4100.45,0.00352
4094.66,0.00193
4088.88,0.00188
4083.09,0.00222
4077.3,-0.00043
4071.52,0.00338
4065.73,0.00151
4059.95,0.00391
4054.16,0.00041
4048.37,0.00139
4042.59,0.00119
4036.8,0.00239
4031.02,0.00171
4025.23,0.00345
4019.44,0.00153
4013.66,0.00068
4007.87,0.00221
4002.08,0.00332
3996.3,0.00091
3990.51,0.00276
3984.73,0.00140
3978.94,0.00102
3973.15,0.00201
3967.37,0.00408
3961.58,0.00271
3955.8,0.00275
3950.01,0.00289
3944.22,0.00344
3938.44,0.00358
3932.65,0.00172
3926.86,0.00165
3921.08,0.00421
3915.29,0.00152
3909.51,0.00205
3903.72,0.00271
3897.93,0.00167
3892.15,0.00280
3886.36,0.00316
3880.58,0.00293
3874.79,0.00188
3869,0.00030
3863.22,0.00388
3857.43,0.00108
3851.64,0.00289
3845.86,0.00238
3840.07,0.00107
3834.29,0.00253
3828.5,0.00281
3822.71,0.00161
3816.93,0.00232
3811.14,0.00255
3805.36,0.00333
3799.57,0.00209
3793.78,0.00219
3788,0.00100
3782.21,0.00238
3776.42,-0.00014
3770.64,0.00202
3764.85,0.00141
3759.07,0.00291
3753.28,0.00366
3747.49,0.00381
3741.71,0.00308
3735.92,0.00684
3730.14,0.00480
3724.35,0.00228
3718.56,0.00508
3712.78,0.00360
3706.99,0.00056
3701.2,0.00229
3695.42,0.00205
3689.63,0.00342
3683.85,0.00142
3678.06,0.00020
3672.27,0.00253
3666.49,0.00208
3660.7,0.00193
3654.92,0.00082
3649.13,0.00452
3643.34,0.00165
3637.56,0.00148
3631.77,0.00349
3625.98,0.00322
3620.2,0.00266
3614.41,0.00236
3608.63,0.00301
3602.84,0.00082
3597.05,0.00285
3591.27,0.00237
3585.48,0.00474
3579.7,0.00178
3573.91,0.00211
3568.12,0.00256
3562.34,0.00338
3556.55,0.00191
3550.76,0.00231
3544.98,0.00057
3539.19,0.00238
3533.41,0.00045
3527.62,0.00016
3521.83,0.00216
3516.05,0.00124
3510.26,0.00284
3504.48,0.00159
3498.69,0.00309
3492.9,0.00125
3487.12,0.00120
3481.33,0.00146
3475.55,0.00062
3469.76,0.00236
3463.97,0.00205
3458.19,0.00241
3452.4,0.00235
3446.61,0.00354
3440.83,0.00230
3435.04,0.00072
3429.26,0.00201
3423.47,0.00208
3417.68,0.00275
3411.9,0.00273
3406.11,0.00093
3400.33,0.00180
3394.54,0.00241
3388.75,0.00287
3382.97,0.00292
3377.18,0.00017
3371.39,0.00275
3365.61,0.00205
3359.82,0.00169
3354.04,0.00331
3348.25,0.00285
3342.46,0.00177
3336.68,0.00190
3330.89,-0.00008
3325.11,0.00279
3319.32,0.00109
3313.53,0.00133
3307.75,0.00288
3301.96,0.00382
3296.17,0.00075
3290.39,0.00032
3284.6,0.00186
3278.82,0.00184
3273.03,0.00355
3267.24,0.00179
3261.46,0.00203
3255.67,0.00038
3249.89,0.00241
3244.1,0.00211
3238.31,0.00117
3232.53,0.00228
3226.74,0.00126
3220.95,0.00406
3215.17,0.00138
3209.38,0.00244
3203.6,0.00022
3197.81,0.00326
3192.02,0.00035
3186.24,0.00248
3180.45,0.00289
3174.67,0.00272
3168.88,0.00217
3163.09,0.00287
3157.31,0.00146
3151.52,0.00210
3145.73,0.00245
3139.95,0.00122
3134.16,0.00117
3128.38,0.00159
3122.59,0.00253
3116.8,0.00202
3111.02,0.00141
3105.23,0.00184
3099.45,0.00213
3093.66,0.00212
3087.87,0.00145
3082.09,0.00268
3076.3,0.00104
3070.51,0.00209
3064.73,0.00212
3058.94,0.00245
3053.16,0.00191
3047.37,0.00207
3041.58,0.00025
3035.8,0.00191
3030.01,0.00162
3024.23,0.00139
3018.44,0.00100
3012.65,0.00121
3006.87,0.00208
3001.08,0.00221
2995.29,0.00231
2989.51,0.00130
2983.72,0.00171
2977.94,0.00054
2972.15,0.00249
2966.36,0.00187
2960.58,0.00128
2954.79,0.00046
2949.01,0.00096
2943.22,0.00136
2937.43,0.00117
2931.65,0.00175
2925.86,0.00225
2920.08,0.00223
2914.29,0.00053
2908.5,0.00212
2902.72,0.00206
2896.93,0.00091
2891.14,0.00130
2885.36,0.00147
2879.57,0.00185
2873.79,0.00110
2868,0.00032
2862.21,0.00087
2856.43,0.00191
2850.64,0.00088
2844.86,0.00084
2839.07,0.00195
2833.28,0.00077
2827.5,0.00209
2821.71,0.00105
2815.92,0.00126
2810.14,0.00133
2804.35,0.00107
2798.57,0.00064
2792.78,0.00115
2786.99,0.00117
2781.21,0.00108
2775.42,0.00144
2769.64,0.00096
2763.85,0.00180
2758.06,0.00101
2752.28,0.00133
2746.49,0.00075
2740.7,0.00205
2734.92,0.00155
2729.13,0.00096
2723.35,0.00045
2717.56,0.00072
2711.77,0.00112
2705.99,0.00120
2700.2,0.00141
2694.42,0.00065
2688.63,0.00030
2682.84,0.00169
2677.06,0.00081
2671.27,0.00102
2665.48,0.00103
2659.7,0.00146
2653.91,0.00204
2648.13,0.00057
2642.34,0.00120
2636.55,0.00189
2630.77,0.00030
2624.98,0.00144
2619.2,0.00174
2613.41,0.00091
2607.62,0.00071
2601.84,0.00038
2596.05,0.00122
2590.26,0.00077
2584.48,0.00087
2578.69,0.00143
2572.91,0.00145
2567.12,0.00010
2561.33,0.00033
2555.55,0.00064
2549.76,0.00082
2543.98,0.00058
2538.19,0.00197
2532.4,0.00072
2526.62,0.00163
2520.83,0.00245
2515.04,0.00115
2509.26,0.00163
2503.47,0.00116
2497.69,0.00084
2491.9,0.00083
2486.11,0.00107
2480.33,0.00069
2474.54,0.00185
2468.76,0.00139
2462.97,0.00050
2457.18,0.00074
2451.4,0.00100
2445.61,0.00131
2439.82,0.00129
2434.04,0.00185
2428.25,0.00063
2422.47,0.00038
2416.68,0.00121
2410.89,0.00097
2405.11,0.00047
2399.32,0.00073
2393.54,0.00116
2387.75,0.00093
2381.96,0.00091
2376.18,0.00075
2370.39,0.00220
2364.61,0.00231
2358.82,0.00366
2353.03,0.00261
2347.25,-0.00019
2341.46,0.00195
2335.67,0.00032
2329.89,0.00160
2324.1,0.00205
2318.32,0.00100
2312.53,0.00079
2306.74,0.00114
2300.96,0.00086
2295.17,0.00121
2289.39,0.00112
2283.6,0.00088
2277.81,0.00182
2272.03,0.00035
2266.24,0.00068
2260.45,0.00090
2254.67,0.00070
2248.88,0.00057
2243.1,0.00035
2237.31,0.00084
2231.52,0.00124
2225.74,0.00173
2219.95,0.00104
2214.17,0.00087
2208.38,0.00093
2202.59,0.00061
2196.81,0.00082
2191.02,0.00126
2185.23,0.00093
2179.45,0.00112
2173.66,0.00093
2167.88,0.00024
2162.09,0.00140
2156.3,0.00128
2150.52,0.00072
2144.73,0.00035
2138.95,0.00055
2133.16,0.00048
2127.37,0.00110
2121.59,0.00044
2115.8,0.00065
2110.01,0.00094
2104.23,0.00065
2098.44,0.00058
2092.66,0.00039
2086.87,0.00132
2081.08,0.00070
2075.3,0.00144
2069.51,0.00096
2063.73,0.00070
2057.94,0.00082
2052.15,0.00072
2046.37,0.00067
2040.58,0.00094
2034.79,0.00105
2029.01,0.00138
2023.22,0.00073
2017.44,0.00020
2011.65,0.00097
2005.86,0.00072
2000.08,0.00038
1994.29,0.00135
1988.51,0.00057
1982.72,0.00053
1976.93,0.00043
1971.15,0.00119
1965.36,0.00076
1959.57,0.00118
1953.79,0.00110
1948,0.00050
1942.22,0.00050
1936.43,0.00096
1930.64,0.00080
1924.86,0.00114
1919.07,0.00096
1913.29,0.00041
1907.5,0.00099
1901.71,0.00167
1895.93,0.00048
1890.14,0.00126
1884.35,0.00072
1878.57,0.00097
1872.78,0.00073
1867,0.00049
1861.21,0.00137
1855.42,0.00116
1849.64,0.00154
1843.85,0.00112
1838.07,0.00102
1832.28,0.00053
1826.49,0.00098
1820.71,0.00140
1814.92,0.00095
1809.13,0.00098
1803.35,0.00086
1797.56,0.00136
1791.78,-0.00024
1785.99,0.00104
1780.2,0.00138
1774.42,0.00040
1768.63,0.00050
1762.85,0.00129
1757.06,0.00069
1751.27,0.00175
1745.49,0.00055
1739.7,0.00074
1733.92,0.00162
1728.13,0.00123
1722.34,-0.00022
1716.56,0.00142
1710.77,0.00173
1704.98,0.00168
1699.2,0.00065
1693.41,0.00133
1687.63,0.00166
1681.84,0.00052
1676.05,0.00128
1670.27,0.00253
1664.48,0.00114
1658.7,0.00090
1652.91,0.00280
1647.12,-0.00006
1641.34,0.00122
1635.55,0.00132
1629.76,0.00085
1623.98,0.00050
1618.19,0.00092
1612.41,0.00069
1606.62,0.00071
1600.83,0.00124
1595.05,0.00054
1589.26,0.00114
1583.48,0.00114
1577.69,0.00187
1571.9,0.00035
1566.12,0.00095
1560.33,0.00074
1554.54,0.00104
1548.76,0.00175
1542.97,0.00205
1537.19,0.00117
1531.4,0.00054
1525.61,0.00166
1519.83,0.00084
1514.04,0.00095
1508.26,0.00269
1502.47,0.00139
1496.68,0.00086
1490.9,0.00165
1485.11,0.00183
1479.32,0.00064
1473.54,0.00144
1467.75,0.00092
1461.97,0.00157
1456.18,0.00325
1450.39,0.00081
1444.61,0.00048
1438.82,0.00083
1433.04,0.00069
1427.25,0.00105
1421.46,0.00127
1415.68,0.00072
1409.89,0.00046
1404.1,0.00087
1398.32,0.00137
1392.53,0.00071
1386.75,0.00068
1380.96,0.00072
1375.17,0.00125
1369.39,0.00071
1363.6,0.00111
1357.82,0.00054
1352.03,0.00062
1346.24,0.00100
1340.46,0.00071
1334.67,0.00028
1328.88,0.00164
1323.1,0.00177
1317.31,0.00083
1311.53,0.00036
1305.74,0.00054
1299.95,0.00092
1294.17,0.00047
1288.38,0.00078
1282.6,0.00069
1276.81,0.00029
1271.02,0.00126
1265.24,0.00065
1259.45,0.00108
1253.66,0.00157
1247.88,0.00134
1242.09,0.00053
1236.31,0.00145
1230.52,0.00116
1224.73,0.00072
1218.95,0.00184
1213.16,0.00109
1207.38,0.00118
1201.59,0.00073
1195.8,0.00144
1190.02,0.00146
1184.23,0.00195
1178.45,0.00106
1172.66,0.00154
1166.87,0.00149
1161.09,0.00143
1155.3,0.00063
1149.51,0.00135
1143.73,0.00098
1137.94,0.00043
1132.16,0.00086
1126.37,0.00115
1120.58,0.00097
1114.8,0.00088
1109.01,0.00112
1103.23,0.00053
1097.44,0.00238
1091.65,0.00189
1085.87,0.00091
1080.08,0.00325
1074.29,0.00155
1068.51,0.00061
1062.72,0.00159
1056.94,0.00183
1051.15,0.00265
1045.36,0.00220
1039.58,0.00093
1033.79,0.00169
1028.01,0.00125
1022.22,0.00138
1016.43,0.00139
1010.65,0.00144
1004.86,0.00095
999.075,0.00076
993.288,0.00146
987.502,0.00049
981.716,0.00157
975.93,0.00030
970.144,0.00117
964.358,0.00120
958.572,0.00046
952.785,0.00171
946.999,0.00122
941.213,0.00118
935.427,0.00066
929.641,0.00104
923.855,0.00079
918.068,0.00200
912.282,0.00094
906.496,0.00144
900.71,0.00197
894.924,0.00204
889.138,0.00175
883.352,0.00162
877.565,0.00136
871.779,0.00204
865.993,0.00111
860.207,0.00128
854.421,0.00141
848.635,0.00233
842.849,0.00139
837.062,0.00014
831.276,0.00274
825.49,0.00241
819.704,0.00169
813.918,0.00206
808.132,0.00308
802.346,0.00078
796.559,0.00165
790.773,0.00181
784.987,0.00213
779.201,0.00180
773.415,0.00095
767.629,0.00200
761.843,0.00380
756.056,0.00056
750.27,0.00269
744.484,0.00210
738.698,0.00039
732.912,0.00115
727.126,0.00045
721.34,-0.00017
715.553,0.00222
709.767,0.00197
703.981,0.00102
698.195,0.00136
692.409,0.00140
686.623,0.00174
680.837,0.00243
675.05,0.00209
669.264,0.00644
663.478,0.00226
657.692,0.00116
651.906,0.00250
646.12,0.00420
640.333,0.00797
634.547,0.00282
628.761,0.00355
622.975,0.00649
617.189,0.00774
611.403,0.00444
605.617,0.00306
599.83,0.00563