File: 01_Data/PC/FTIR/IS/PC_2.93_Trans_S_IS_230516_R2.dpt
7496.92,0.87888
7491.13,0.88462
7485.34,0.84779
7479.56,0.84954
7473.77,0.86358
7467.99,0.91403
7462.2,0.86659
7456.41,0.87369
7450.63,0.86679
7444.84,0.87604
7439.06,0.87111
7433.27,0.84238
7427.48,0.84878
7421.7,0.86293
7415.91,0.83417
7410.12,0.82538
7404.34,0.83299
7398.55,0.78745
7392.77,0.79954
7386.98,0.84990
7381.19,0.82870
7375.41,0.77658
7369.62,0.76514
7363.84,0.79311
7358.05,0.85288
7352.26,0.84032
7346.48,0.81210
7340.69,0.79520
7334.9,0.76403
7329.12,0.76596
7323.33,0.77611
7317.55,0.78260
7311.76,0.75900
7305.97,0.77389
7300.19,0.79303
7294.4,0.77689
7288.62,0.76144
7282.83,0.77162
7277.04,0.74197
7271.26,0.74932
7265.47,0.75873
7259.68,0.77872
7253.9,0.78871
7248.11,0.77424
7242.33,0.75626
7236.54,0.74757
7230.75,0.76597
7224.97,0.79501
7219.18,0.74474
7213.4,0.77295
7207.61,0.79344
7201.82,0.76891
7196.04,0.75812
7190.25,0.73938
7184.46,0.77257
7178.68,0.76655
7172.89,0.75224
7167.11,0.74419
7161.32,0.77458
7155.53,0.76188
7149.75,0.77733
7143.96,0.77348
7138.18,0.77014
7132.39,0.77695
7126.6,0.74994
7120.82,0.77223
7115.03,0.77952
7109.24,0.78036
7103.46,0.77697
7097.67,0.79538
7091.89,0.80687
7086.1,0.77549
7080.31,0.79039
7074.53,0.79432
7068.74,0.79521
7062.96,0.82394
7057.17,0.81188
7051.38,0.81469
7045.6,0.81863
7039.81,0.81474
7034.02,0.81738
7028.24,0.80200
7022.45,0.82000
7016.67,0.80380
7010.88,0.82035
7005.09,0.79913
6999.31,0.82529
6993.52,0.81619
6987.74,0.80949
6981.95,0.79712
6976.16,0.81638
6970.38,0.81995
6964.59,0.80878
6958.8,0.81635
6953.02,0.81991
6947.23,0.84035
6941.45,0.82454
6935.66,0.82330
6929.87,0.82372
6924.09,0.83704
6918.3,0.82879
6912.52,0.82611
6906.73,0.83503
6900.94,0.83472
6895.16,0.83488
6889.37,0.85703
6883.59,0.85096
6877.8,0.83484
6872.01,0.82798
6866.23,0.83238
6860.44,0.82387
6854.65,0.83402
6848.87,0.82493
6843.08,0.83380
6837.3,0.83920
6831.51,0.84455
6825.72,0.84622
6819.94,0.84853
6814.15,0.83453
6808.37,0.83577
6802.58,0.83978
6796.79,0.84575
6791.01,0.84927
6785.22,0.83940
6779.43,0.84453
6773.65,0.83025
6767.86,0.85537
6762.08,0.84818
6756.29,0.85999
6750.5,0.85767
6744.72,0.85049
6738.93,0.84535
6733.15,0.84894
6727.36,0.86788
6721.57,0.85390
6715.79,0.86127
6710,0.85085
6704.21,0.84975
6698.43,0.85022
6692.64,0.85172
6686.86,0.86651
6681.07,0.86174
6675.28,0.85765
6669.5,0.85759
6663.71,0.86391
6657.93,0.87361
6652.14,0.86907
6646.35,0.86836
6640.57,0.86876
6634.78,0.87101
6628.99,0.86488
6623.21,0.87740
6617.42,0.87421
6611.64,0.87102
6605.85,0.87610
6600.06,0.88278
6594.28,0.86286
6588.49,0.88573
6582.71,0.87495
6576.92,0.88064
6571.13,0.87972
6565.35,0.88236
6559.56,0.87518
6553.77,0.88128
6547.99,0.86351
6542.2,0.87063
6536.42,0.88341
6530.63,0.88289
6524.84,0.87934
6519.06,0.88090
6513.27,0.88332
6507.49,0.88245
6501.7,0.87330
6495.91,0.88414
6490.13,0.88730
6484.34,0.88505
6478.55,0.87783
6472.77,0.87712
6466.98,0.87721
6461.2,0.87680
6455.41,0.87141
6449.62,0.87475
6443.84,0.88254
6438.05,0.87856
6432.27,0.87502
6426.48,0.86870
6420.69,0.87857
6414.91,0.87509
6409.12,0.88027
6403.33,0.86456
6397.55,0.87530
6391.76,0.88719
6385.98,0.87646
6380.19,0.87909
6374.4,0.86804
6368.62,0.87157
6362.83,0.86230
6357.05,0.86954
6351.26,0.86956
6345.47,0.86808
6339.69,0.87295
6333.9,0.86633
6328.12,0.86920
6322.33,0.86351
6316.54,0.85898
6310.76,0.85535
6304.97,0.86549
6299.18,0.85378
6293.4,0.85049
6287.61,0.85675
6281.83,0.84353
6276.04,0.85265
6270.25,0.84633
6264.47,0.83876
6258.68,0.83945
6252.9,0.84452
6247.11,0.84244
6241.32,0.83121
6235.54,0.81408
6229.75,0.81285
6223.96,0.80103
6218.18,0.80108
6212.39,0.78936
6206.61,0.78619
6200.82,0.77240
6195.03,0.75189
6189.25,0.73532
6183.46,0.72668
6177.68,0.71371
6171.89,0.69336
6166.1,0.69947
6160.32,0.68807
6154.53,0.67442
6148.74,0.66983
6142.96,0.65179
6137.17,0.63611
6131.39,0.61813
6125.6,0.59050
6119.81,0.58003
6114.03,0.56268
6108.24,0.55155
6102.46,0.52196
6096.67,0.49679
6090.88,0.45656
6085.1,0.41137
6079.31,0.37527
6073.52,0.34675
6067.74,0.32535
6061.95,0.31560
6056.17,0.30743
6050.38,0.28024
6044.59,0.25364
6038.81,0.21248
6033.02,0.17119
6027.24,0.13640
6021.45,0.11189
6015.66,0.08694
6009.88,0.06383
6004.09,0.04995
5998.3,0.04080
5992.52,0.04396
5986.73,0.05619
5980.95,0.07919
5975.16,0.10960
5969.37,0.15048
5963.59,0.17331
5957.8,0.19055
5952.02,0.19044
5946.23,0.18634
5940.44,0.17124
5934.66,0.15855
5928.87,0.15369
5923.08,0.16283
5917.3,0.17392
5911.51,0.19237
5905.73,0.21057
5899.94,0.21089
5894.15,0.20677
5888.37,0.21378
5882.58,0.24049
5876.8,0.28229
5871.01,0.31870
5865.22,0.35764
5859.44,0.39401
5853.65,0.42085
5847.86,0.44397
5842.08,0.45539
5836.29,0.46074
5830.51,0.45489
5824.72,0.45016
5818.93,0.45376
5813.15,0.46220
5807.36,0.46697
5801.58,0.47622
5795.79,0.46835
5790,0.45988
5784.22,0.43466
5778.43,0.41631
5772.65,0.39804
5766.86,0.38817
5761.07,0.39294
5755.29,0.40587
5749.5,0.42952
5743.71,0.46241
5737.93,0.49740
5732.14,0.52938
5726.36,0.55323
5720.57,0.57746
5714.78,0.60242
5709,0.61879
5703.21,0.62380
5697.43,0.62888
5691.64,0.62307
5685.85,0.60627
5680.07,0.58891
5674.28,0.57030
5668.49,0.55587
5662.71,0.55076
5656.92,0.55692
5651.14,0.56625
5645.35,0.58726
5639.56,0.60639
5633.78,0.63279
5627.99,0.65372
5622.21,0.66960
5616.42,0.68531
5610.63,0.69006
5604.85,0.69642
5599.06,0.69200
5593.27,0.69068
5587.49,0.68731
5581.7,0.68723
5575.92,0.68484
5570.13,0.68092
5564.34,0.67523
5558.56,0.67791
5552.77,0.67503
5546.99,0.67424
5541.2,0.67467
5535.41,0.67224
5529.63,0.67764
5523.84,0.67040
5518.05,0.66946
5512.27,0.67363
5506.48,0.67150
5500.7,0.67337
5494.91,0.66412
5489.12,0.65811
5483.34,0.65920
5477.55,0.64748
5471.77,0.64594
5465.98,0.64995
5460.19,0.65254
5454.41,0.66395
5448.62,0.66694
5442.83,0.66937
5437.05,0.67695
5431.26,0.67871
5425.48,0.68551
5419.69,0.68503
5413.9,0.67069
5408.12,0.67558
5402.33,0.67589
5396.55,0.67296
5390.76,0.68316
5384.97,0.68289
5379.19,0.68626
5373.4,0.68813
5367.61,0.69068
5361.83,0.68865
5356.04,0.68021
5350.26,0.67546
5344.47,0.66610
5338.68,0.66560
5332.9,0.67312
5327.11,0.67158
5321.33,0.67525
5315.54,0.67580
5309.75,0.67038
5303.97,0.66062
5298.18,0.65002
5292.39,0.63415
5286.61,0.61260
5280.82,0.58064
5275.04,0.54835
5269.25,0.52109
5263.46,0.51119
5257.68,0.52626
5251.89,0.55461
5246.11,0.58509
5240.32,0.62016
5234.53,0.64563
5228.75,0.66610
5222.96,0.68020
5217.18,0.69469
5211.39,0.70039
5205.6,0.69823
5199.82,0.70310
5194.03,0.70187
5188.24,0.69725
5182.46,0.69506
5176.67,0.69872
5170.89,0.69972
5165.1,0.69845
5159.31,0.70205
5153.53,0.70684
5147.74,0.71185
5141.96,0.71704
5136.17,0.72237
5130.38,0.72475
5124.6,0.72290
5118.81,0.72558
5113.02,0.72873
5107.24,0.73026
5101.45,0.72676
5095.67,0.72547
5089.88,0.72193
5084.09,0.71939
5078.31,0.71608
5072.52,0.71643
5066.74,0.71904
5060.95,0.71926
5055.16,0.72124
5049.38,0.72210
5043.59,0.72374
5037.8,0.72236
5032.02,0.72137
5026.23,0.71476
5020.45,0.71185
5014.66,0.70798
5008.87,0.70762
5003.09,0.70342
4997.3,0.69976
4991.52,0.69460
4985.73,0.68897
4979.94,0.68527
4974.16,0.68202
4968.37,0.68170
4962.58,0.67921
4956.8,0.67757
4951.01,0.67761
4945.23,0.67661
4939.44,0.67479
4933.65,0.67086
4927.87,0.66292
4922.08,0.64904
4916.3,0.63284
4910.51,0.61767
4904.72,0.60165
4898.94,0.58716
4893.15,0.57799
4887.36,0.57227
4881.58,0.57060
4875.79,0.56762
4870.01,0.56073
4864.22,0.54590
4858.43,0.53048
4852.65,0.51174
4846.86,0.50325
4841.08,0.50396
4835.29,0.51104
4829.5,0.51753
4823.72,0.52678
4817.93,0.53262
4812.14,0.53744
4806.36,0.54054
4800.57,0.53962
4794.79,0.53224
4789,0.52337
4783.21,0.51253
4777.43,0.49614
4771.64,0.48060
4765.86,0.46012
4760.07,0.44216
4754.28,0.42069
4748.5,0.39631
4742.71,0.36299
4736.92,0.32101
4731.14,0.27720
4725.35,0.22977
4719.57,0.18312
4713.78,0.13601
4707.99,0.08882
4702.21,0.05309
4696.42,0.03415
4690.64,0.02331
4684.85,0.01820
4679.06,0.01604
4673.28,0.02219
4667.49,0.03472
4661.7,0.04665
4655.92,0.05114
4650.13,0.04490
4644.35,0.03118
4638.56,0.01828
4632.77,0.01678
4626.99,0.02451
4621.2,0.05302
4615.42,0.10419
4609.63,0.15214
4603.84,0.18088
4598.06,0.18366
4592.27,0.16627
4586.49,0.14257
4580.7,0.12401
4574.91,0.11536
4569.13,0.13003
4563.34,0.16887
4557.55,0.22147
4551.77,0.26346
4545.98,0.28255
4540.2,0.28192
4534.41,0.27964
4528.62,0.28074
4522.84,0.28319
4517.05,0.28506
4511.27,0.28195
4505.48,0.27103
4499.69,0.24942
4493.91,0.21931
4488.12,0.19212
4482.33,0.17253
4476.55,0.16354
4470.76,0.16337
4464.98,0.16299
4459.19,0.15454
4453.4,0.13747
4447.62,0.11255
4441.83,0.08591
4436.05,0.06042
4430.26,0.04215
4424.47,0.02751
4418.69,0.01808
4412.9,0.01165
4407.11,0.00904
4401.33,0.00931
4395.54,0.01349
4389.76,0.01889
4383.97,0.01775
4378.18,0.01321
4372.4,0.01018
4366.61,0.00691
4360.83,0.00540
4355.04,0.00516
4349.25,0.00457
4343.47,0.00329
4337.68,0.00235
4331.89,0.00238
4326.11,0.00183
4320.32,0.00157
4314.54,0.00354
4308.75,0.00502
4302.96,0.00386
4297.18,0.00405
4291.39,0.00501
4285.61,0.00623
4279.82,0.00741
4274.03,0.00907
4268.25,0.01048
4262.46,0.01105
4256.67,0.01465
4250.89,0.01694
4245.1,0.01673
4239.32,0.01640
4233.53,0.01558
4227.74,0.01305
4221.96,0.01139
4216.17,0.01112
4210.39,0.01027
4204.6,0.01038
4198.81,0.00903
4193.03,0.00824
4187.24,0.00765
4181.45,0.00673
4175.67,0.00670
4169.88,0.00633
4164.1,0.00723
4158.31,0.01143
4152.52,0.01629
4146.74,0.02107
4140.95,0.02287
4135.17,0.02326
4129.38,0.02358
4123.59,0.02189
4117.81,0.01669
4112.02,0.01100
4106.23,0.00566
4100.45,0.00180
4094.66,0.00086
4088.88,0.00039
4083.09,0.00051
4077.3,0.00061
4071.52,0.00063
4065.73,0.00061
4059.95,0.00168
4054.16,0.00178
4048.37,0.00527
4042.59,0.01225
4036.8,0.01979
4031.02,0.02466
4025.23,0.02355
4019.44,0.02135
4013.66,0.02187
4007.87,0.02292
4002.08,0.02309
3996.3,0.02135
3990.51,0.01990
3984.73,0.01958
3978.94,0.02086
3973.15,0.02526
3967.37,0.03264
3961.58,0.03692
3955.8,0.03426
3950.01,0.02988
3944.22,0.02852
3938.44,0.02830
3932.65,0.02895
3926.86,0.02876
3921.08,0.02574
3915.29,0.02234
3909.51,0.01916
3903.72,0.01819
3897.93,0.01563
3892.15,0.01445
3886.36,0.01219
3880.58,0.01243
3874.79,0.01615
3869,0.02775
3863.22,0.04091
3857.43,0.05158
3851.64,0.06291
3845.86,0.07311
3840.07,0.07947
3834.29,0.08468
3828.5,0.08569
3822.71,0.08275
3816.93,0.07962
3811.14,0.08060
3805.36,0.08334
3799.57,0.09246
3793.78,0.10799
3788,0.12095
3782.21,0.12940
3776.42,0.13056
3770.64,0.11971
3764.85,0.09986
3759.07,0.07884
3753.28,0.06342
3747.49,0.05629
3741.71,0.05759
3735.92,0.06210
3730.14,0.07206
3724.35,0.07239
3718.56,0.06493
3712.78,0.05057
3706.99,0.03040
3701.2,0.01698
3695.42,0.00844
3689.63,0.00362
3683.85,0.00038
3678.06,0.00116
3672.27,0.00138
3666.49,0.00062
3660.7,0.00083
3654.92,0.00193
3649.13,0.00649
3643.34,0.01392
3637.56,0.02152
3631.77,0.02903
3625.98,0.04073
3620.2,0.05084
3614.41,0.06111
3608.63,0.05714
3602.84,0.04079
3597.05,0.01979
3591.27,0.00796
3585.48,0.00264
3579.7,0.00161
3573.91,0.00163
3568.12,0.00190
3562.34,0.00102
3556.55,0.00062
3550.76,0.00118
3544.98,0.00022
3539.19,0.00066
3533.41,0.00055
3527.62,0.00048
3521.83,0.00067
3516.05,0.00078
3510.26,0.00152
3504.48,0.00495
3498.69,0.00914
3492.9,0.01355
3487.12,0.01663
3481.33,0.02138
3475.55,0.02525
3469.76,0.03002
3463.97,0.03756
3458.19,0.04571
3452.4,0.05455
3446.61,0.06391
3440.83,0.07349
3435.04,0.08252
3429.26,0.09196
3423.47,0.10032
3417.68,0.10449
3411.9,0.10546
3406.11,0.10280
3400.33,0.09708
3394.54,0.08766
3388.75,0.07637
3382.97,0.06670
3377.18,0.06088
3371.39,0.05745
3365.61,0.05763
3359.82,0.05934
3354.04,0.06021
3348.25,0.06109
3342.46,0.06020
3336.68,0.05763
3330.89,0.05269
3325.11,0.04672
3319.32,0.03788
3313.53,0.03054
3307.75,0.02395
3301.96,0.01858
3296.17,0.01513
3290.39,0.01335
3284.6,0.01136
3278.82,0.01021
3273.03,0.00933
3267.24,0.00798
3261.46,0.00688
3255.67,0.00545
3249.89,0.00527
3244.1,0.00449
3238.31,0.00306
3232.53,0.00382
3226.74,0.00344
3220.95,0.00321
3215.17,0.00123
3209.38,0.00121
3203.6,0.00054
3197.81,0.00045
3192.02,0.00067
3186.24,0.00054
3180.45,0.00049
3174.67,0.00040
3168.88,0.00026
3163.09,0.00052
3157.31,0.00033
3151.52,0.00046
3145.73,0.00008
3139.95,0.00020
3134.16,0.00051
3128.38,0.00075
3122.59,0.00039
3116.8,0.00049
3111.02,0.00030
3105.23,0.00049
3099.45,0.00085
3093.66,0.00027
3087.87,0.00013
3082.09,0.00018
3076.3,0.00036
3070.51,0.00021
3064.73,-0.00002
3058.94,0.00060
3053.16,0.00053
3047.37,0.00068
3041.58,0.00070
3035.8,0.00024
3030.01,0.00020
3024.23,0.00060
3018.44,0.00071
3012.65,0.00049
3006.87,0.00040
3001.08,0.00070
2995.29,0.00067
2989.51,0.00052
2983.72,0.00047
2977.94,0.00028
2972.15,0.00011
2966.36,0.00034
2960.58,0.00036
2954.79,0.00043
2949.01,0.00082
2943.22,0.00022
2937.43,0.00033
2931.65,0.00049
2925.86,0.00048
2920.08,0.00054
2914.29,0.00051
2908.5,0.00048
2902.72,0.00031
2896.93,0.00020
2891.14,0.00033
2885.36,0.00055
2879.57,0.00035
2873.79,0.00016
2868,0.00039
2862.21,0.00017
2856.43,0.00086
2850.64,0.00033
2844.86,0.00007
2839.07,0.00083
2833.28,0.00039
2827.5,0.00040
2821.71,0.00057
2815.92,0.00037
2810.14,0.00066
2804.35,0.00006
2798.57,0.00089
2792.78,0.00026
2786.99,0.00029
2781.21,0.00009
2775.42,0.00035
2769.64,0.00032
2763.85,0.00093
2758.06,0.00289
2752.28,0.00550
2746.49,0.00751
2740.7,0.00619
2734.92,0.00394
2729.13,0.00349
2723.35,0.00341
2717.56,0.00218
2711.77,0.00350
2705.99,0.00722
2700.2,0.01252
2694.42,0.01722
2688.63,0.02153
2682.84,0.02279
2677.06,0.02095
2671.27,0.01825
2665.48,0.01857
2659.7,0.02155
2653.91,0.02854
2648.13,0.03760
2642.34,0.04311
2636.55,0.04056
2630.77,0.02981
2624.98,0.01644
2619.2,0.00675
2613.41,0.00381
2607.62,0.00361
2601.84,0.00326
2596.05,0.00350
2590.26,0.00299
2584.48,0.00365
2578.69,0.00504
2572.91,0.00692
2567.12,0.01092
2561.33,0.01500
2555.55,0.01471
2549.76,0.01234
2543.98,0.00890
2538.19,0.00563
2532.4,0.00362
2526.62,0.00379
2520.83,0.00550
2515.04,0.00479
2509.26,0.00324
2503.47,0.00228
2497.69,0.00102
2491.9,0.00061
2486.11,0.00024
2480.33,0.00031
2474.54,0.00005
2468.76,0.00052
2462.97,-0.00004
2457.18,0.00027
2451.4,0.00038
2445.61,0.00035
2439.82,0.00035
2434.04,0.00021
2428.25,0.00030
2422.47,0.00038
2416.68,0.00046
2410.89,0.00030
2405.11,0.00021
2399.32,0.00057
2393.54,0.00036
2387.75,0.00044
2381.96,0.00035
2376.18,0.00054
2370.39,0.00052
2364.61,0.00099
2358.82,0.00088
2353.03,0.00154
2347.25,0.00096
2341.46,0.00117
2335.67,0.00084
2329.89,0.00001
2324.1,0.00052
2318.32,0.00073
2312.53,0.00062
2306.74,0.00074
2300.96,0.00044
2295.17,0.00072
2289.39,0.00031
2283.6,0.00026
2277.81,0.00024
2272.03,0.00020
2266.24,0.00033
2260.45,0.00040
2254.67,0.00026
2248.88,0.00028
2243.1,0.00012
2237.31,0.00022
2231.52,0.00010
2225.74,0.00040
2219.95,0.00004
2214.17,0.00025
2208.38,0.00031
2202.59,0.00014
2196.81,0.00026
2191.02,0.00032
2185.23,0.00048
2179.45,0.00019
2173.66,0.00023
2167.88,0.00023
2162.09,0.00046
2156.3,0.00226
2150.52,0.00357
2144.73,0.00395
2138.95,0.00273
2133.16,0.00147
2127.37,0.00100
2121.59,0.00067
2115.8,0.00023
2110.01,0.00002
2104.23,0.00029
2098.44,0.00014
2092.66,0.00020
2086.87,0.00004
2081.08,0.00016
2075.3,0.00050
2069.51,0.00036
2063.73,0.00016
2057.94,0.00053
2052.15,0.00010
2046.37,0.00025
2040.58,0.00016
2034.79,0.00041
2029.01,0.00020
2023.22,0.00028
2017.44,0.00019
2011.65,0.00027
2005.86,0.00034
2000.08,0.00030
1994.29,0.00030
1988.51,0.00027
1982.72,0.00027
1976.93,0.00036
1971.15,0.00011
1965.36,0.00044
1959.57,0.00019
1953.79,0.00043
1948,0.00029
1942.22,0.00024
1936.43,0.00042
1930.64,0.00021
1924.86,0.00020
1919.07,0.00018
1913.29,0.00012
1907.5,0.00026
1901.71,0.00022
1895.93,0.00043
1890.14,0.00013
1884.35,0.00046
1878.57,0.00036
1872.78,0.00029
1867,0.00026
1861.21,0.00009
1855.42,0.00027
1849.64,0.00034
1843.85,0.00027
1838.07,0.00015
1832.28,0.00025
1826.49,0.00022
1820.71,0.00029
1814.92,0.00007
1809.13,0.00041
1803.35,0.00042
1797.56,0.00013
1791.78,0.00051
1785.99,0.00056
1780.2,0.00034
1774.42,0.00035
1768.63,0.00030
1762.85,0.00061
1757.06,0.00029
1751.27,0.00043
1745.49,0.00060
1739.7,0.00023
1733.92,0.00038
1728.13,0.00021
1722.34,0.00034
1716.56,0.00063
1710.77,0.00024
1704.98,0.00067
1699.2,0.00074
1693.41,-0.00003
1687.63,0.00041
1681.84,0.00012
1676.05,0.00024
1670.27,0.00026
1664.48,0.00045
1658.7,0.00022
1652.91,0.00038
1647.12,0.00041
1641.34,0.00038
1635.55,0.00080
1629.76,0.00024
1623.98,0.00046
1618.19,0.00022
1612.41,0.00019
1606.62,0.00021
1600.83,0.00034
1595.05,0.00040
1589.26,0.00027
1583.48,0.00017
1577.69,0.00048
1571.9,0.00053
1566.12,0.00031
1560.33,0.00076
1554.54,0.00080
1548.76,0.00030
1542.97,0.00051
1537.19,0.00073
1531.4,0.00024
1525.61,0.00086
1519.83,0.00044
1514.04,0.00052
1508.26,0.00059
1502.47,0.00039
1496.68,0.00058
1490.9,0.00022
1485.11,0.00031
1479.32,0.00011
1473.54,0.00057
1467.75,0.00049
1461.97,0.00013
1456.18,0.00048
1450.39,0.00041
1444.61,0.00015
1438.82,0.00020
1433.04,0.00023
1427.25,0.00021
1421.46,0.00056
1415.68,0.00020
1409.89,0.00023
1404.1,0.00031
1398.32,0.00055
1392.53,0.00030
1386.75,0.00019
1380.96,0.00033
1375.17,0.00062
1369.39,0.00047
1363.6,0.00025
1357.82,0.00038
1352.03,0.00043
1346.24,0.00048
1340.46,0.00036
1334.67,0.00017
1328.88,0.00046
1323.1,0.00035
1317.31,0.00036
1311.53,0.00024
1305.74,0.00013
1299.95,0.00030
1294.17,0.00026
1288.38,0.00008
1282.6,0.00037
1276.81,0.00018
1271.02,0.00036
1265.24,0.00035
1259.45,0.00021
1253.66,0.00046
1247.88,0.00054
1242.09,0.00017
1236.31,0.00041
1230.52,0.00037
1224.73,0.00017
1218.95,0.00051
1213.16,0.00035
1207.38,0.00057
1201.59,0.00030
1195.8,0.00048
1190.02,-0.00002
1184.23,0.00057
1178.45,0.00012
1172.66,0.00037
1166.87,0.00044
1161.09,0.00075
1155.3,0.00052
1149.51,0.00079
1143.73,0.00018
1137.94,0.00062
1132.16,0.00018
1126.37,0.00022
1120.58,0.00031
1114.8,0.00052
1109.01,0.00078
1103.23,0.00056
1097.44,0.00058
1091.65,0.00057
1085.87,0.00063
1080.08,0.00065
1074.29,0.00080
1068.51,0.00058
1062.72,0.00025
1056.94,0.00029
1051.15,0.00052
1045.36,0.00070
1039.58,0.00053
1033.79,0.00058
1028.01,0.00016
1022.22,0.00068
1016.43,0.00044
1010.65,0.00028
1004.86,0.00072
999.075,0.00071
993.288,0.00064
987.502,0.00054
981.716,0.00043
975.93,0.00010
970.144,0.00022
964.358,0.00049
958.572,0.00022
952.785,0.00060
946.999,0.00061
941.213,0.00078
935.427,-0.00011
929.641,0.00061
923.855,0.00044
918.068,0.00027
912.282,0.00001
906.496,0.00019
900.71,0.00020
894.924,0.00013
889.138,0.00025
883.352,0.00085
877.565,0.00031
871.779,0.00047
865.993,0.00012
860.207,0.00049
854.421,0.00039
848.635,0.00052
842.849,0.00037
837.062,0.00090
831.276,0.00086
825.49,0.00051
819.704,-0.00000
813.918,0.00079
808.132,-0.00006
802.346,0.00070
796.559,0.00045
790.773,0.00077
784.987,0.00061
779.201,0.00061
773.415,0.00053
767.629,0.00015
761.843,0.00063
756.056,0.00021
750.27,0.00034
744.484,0.00091
738.698,0.00010
732.912,0.00072
727.126,0.00094
721.34,0.00061
715.553,0.00097
709.767,0.00091
703.981,0.00048
698.195,0.00123
692.409,0.00085
686.623,0.00087
680.837,0.00038
675.05,0.00164
669.264,0.00202
663.478,0.00089
657.692,0.00114
651.906,0.00167
646.12,0.00137
640.333,0.00049
634.547,0.00162
628.761,0.00178
622.975,0.00223
617.189,0.00093
611.403,0.00174
605.617,0.00237
599.83,0.00413