File: 01_Data/PC/FTIR/IS/PC_2.93_Trans_S_IS_230516_R1.dpt
7496.92,0.88323
7491.13,0.87784
7485.34,0.86291
7479.56,0.87026
7473.77,0.85342
7467.99,0.87051
7462.2,0.89228
7456.41,0.87059
7450.63,0.88038
7444.84,0.88240
7439.06,0.86307
7433.27,0.86883
7427.48,0.85493
7421.7,0.89207
7415.91,0.84286
7410.12,0.81949
7404.34,0.81987
7398.55,0.80810
7392.77,0.80727
7386.98,0.82878
7381.19,0.83965
7375.41,0.78627
7369.62,0.79098
7363.84,0.78645
7358.05,0.81601
7352.26,0.80879
7346.48,0.79772
7340.69,0.81464
7334.9,0.77020
7329.12,0.75106
7323.33,0.77670
7317.55,0.76634
7311.76,0.77803
7305.97,0.77837
7300.19,0.78857
7294.4,0.75914
7288.62,0.78643
7282.83,0.79238
7277.04,0.76354
7271.26,0.74435
7265.47,0.76798
7259.68,0.75654
7253.9,0.75056
7248.11,0.74750
7242.33,0.76271
7236.54,0.75503
7230.75,0.74684
7224.97,0.77936
7219.18,0.72813
7213.4,0.77525
7207.61,0.77605
7201.82,0.77714
7196.04,0.76179
7190.25,0.74057
7184.46,0.77600
7178.68,0.77644
7172.89,0.74838
7167.11,0.75231
7161.32,0.78709
7155.53,0.78801
7149.75,0.75774
7143.96,0.77295
7138.18,0.77667
7132.39,0.76527
7126.6,0.76263
7120.82,0.78154
7115.03,0.77178
7109.24,0.78842
7103.46,0.77207
7097.67,0.77495
7091.89,0.78665
7086.1,0.77565
7080.31,0.80636
7074.53,0.80685
7068.74,0.80292
7062.96,0.80888
7057.17,0.79903
7051.38,0.80342
7045.6,0.82417
7039.81,0.81926
7034.02,0.82304
7028.24,0.79884
7022.45,0.80600
7016.67,0.80309
7010.88,0.81393
7005.09,0.80036
6999.31,0.80046
6993.52,0.81215
6987.74,0.79667
6981.95,0.80371
6976.16,0.81037
6970.38,0.80578
6964.59,0.81841
6958.8,0.80849
6953.02,0.80821
6947.23,0.82794
6941.45,0.81676
6935.66,0.82418
6929.87,0.81361
6924.09,0.82846
6918.3,0.81820
6912.52,0.82512
6906.73,0.81763
6900.94,0.82759
6895.16,0.82826
6889.37,0.84588
6883.59,0.84135
6877.8,0.83527
6872.01,0.82548
6866.23,0.82805
6860.44,0.81806
6854.65,0.82020
6848.87,0.82645
6843.08,0.82536
6837.3,0.83033
6831.51,0.83757
6825.72,0.84012
6819.94,0.83441
6814.15,0.84469
6808.37,0.84422
6802.58,0.83468
6796.79,0.84721
6791.01,0.83904
6785.22,0.83595
6779.43,0.84846
6773.65,0.83841
6767.86,0.83642
6762.08,0.84248
6756.29,0.85725
6750.5,0.86221
6744.72,0.85957
6738.93,0.85833
6733.15,0.85791
6727.36,0.84589
6721.57,0.86492
6715.79,0.86043
6710,0.85176
6704.21,0.86270
6698.43,0.85204
6692.64,0.85064
6686.86,0.85704
6681.07,0.86372
6675.28,0.84975
6669.5,0.85161
6663.71,0.85713
6657.93,0.86999
6652.14,0.86014
6646.35,0.86293
6640.57,0.86101
6634.78,0.85613
6628.99,0.87044
6623.21,0.86838
6617.42,0.86163
6611.64,0.86743
6605.85,0.86695
6600.06,0.86323
6594.28,0.86136
6588.49,0.87795
6582.71,0.87118
6576.92,0.86958
6571.13,0.88053
6565.35,0.86693
6559.56,0.86776
6553.77,0.89408
6547.99,0.87558
6542.2,0.86578
6536.42,0.87785
6530.63,0.88098
6524.84,0.87686
6519.06,0.87637
6513.27,0.87918
6507.49,0.88499
6501.7,0.87858
6495.91,0.87933
6490.13,0.88167
6484.34,0.88378
6478.55,0.87964
6472.77,0.87649
6466.98,0.88173
6461.2,0.87669
6455.41,0.86886
6449.62,0.88752
6443.84,0.87463
6438.05,0.87519
6432.27,0.87146
6426.48,0.87774
6420.69,0.87851
6414.91,0.87226
6409.12,0.86683
6403.33,0.86858
6397.55,0.87253
6391.76,0.88548
6385.98,0.87546
6380.19,0.87968
6374.4,0.87176
6368.62,0.86395
6362.83,0.85704
6357.05,0.86795
6351.26,0.86180
6345.47,0.86723
6339.69,0.86933
6333.9,0.85597
6328.12,0.85924
6322.33,0.85435
6316.54,0.86302
6310.76,0.85668
6304.97,0.85738
6299.18,0.84919
6293.4,0.85154
6287.61,0.85339
6281.83,0.84272
6276.04,0.84760
6270.25,0.84165
6264.47,0.83925
6258.68,0.83446
6252.9,0.83022
6247.11,0.82809
6241.32,0.83244
6235.54,0.81417
6229.75,0.80952
6223.96,0.79583
6218.18,0.79374
6212.39,0.79072
6206.61,0.77791
6200.82,0.76120
6195.03,0.75886
6189.25,0.73344
6183.46,0.71531
6177.68,0.70482
6171.89,0.69194
6166.1,0.68902
6160.32,0.68306
6154.53,0.67447
6148.74,0.67105
6142.96,0.64972
6137.17,0.63546
6131.39,0.60713
6125.6,0.59122
6119.81,0.57331
6114.03,0.56633
6108.24,0.55212
6102.46,0.52009
6096.67,0.49194
6090.88,0.45214
6085.1,0.41103
6079.31,0.37613
6073.52,0.34731
6067.74,0.32512
6061.95,0.31318
6056.17,0.30451
6050.38,0.27834
6044.59,0.25081
6038.81,0.21110
6033.02,0.17364
6027.24,0.14128
6021.45,0.10713
6015.66,0.08599
6009.88,0.06141
6004.09,0.04880
5998.3,0.04147
5992.52,0.04519
5986.73,0.05828
5980.95,0.08028
5975.16,0.11568
5969.37,0.15361
5963.59,0.17801
5957.8,0.19124
5952.02,0.19166
5946.23,0.17878
5940.44,0.16283
5934.66,0.15475
5928.87,0.14909
5923.08,0.15738
5917.3,0.17206
5911.51,0.18750
5905.73,0.20315
5899.94,0.20334
5894.15,0.20391
5888.37,0.21620
5882.58,0.23835
5876.8,0.27452
5871.01,0.31692
5865.22,0.35533
5859.44,0.38905
5853.65,0.41724
5847.86,0.43976
5842.08,0.45985
5836.29,0.45796
5830.51,0.45089
5824.72,0.44961
5818.93,0.44984
5813.15,0.45499
5807.36,0.46310
5801.58,0.46921
5795.79,0.46873
5790,0.45502
5784.22,0.43139
5778.43,0.41165
5772.65,0.39766
5766.86,0.39046
5761.07,0.39385
5755.29,0.41188
5749.5,0.43038
5743.71,0.46155
5737.93,0.49970
5732.14,0.53064
5726.36,0.55269
5720.57,0.57975
5714.78,0.59872
5709,0.61616
5703.21,0.62581
5697.43,0.62326
5691.64,0.62050
5685.85,0.60709
5680.07,0.58569
5674.28,0.57031
5668.49,0.55159
5662.71,0.55029
5656.92,0.55795
5651.14,0.56779
5645.35,0.58408
5639.56,0.60446
5633.78,0.62826
5627.99,0.64845
5622.21,0.66509
5616.42,0.68264
5610.63,0.69201
5604.85,0.69123
5599.06,0.68812
5593.27,0.68922
5587.49,0.68211
5581.7,0.68319
5575.92,0.68029
5570.13,0.67607
5564.34,0.67208
5558.56,0.67326
5552.77,0.67260
5546.99,0.66933
5541.2,0.66680
5535.41,0.66853
5529.63,0.67173
5523.84,0.66966
5518.05,0.66997
5512.27,0.67465
5506.48,0.67003
5500.7,0.67076
5494.91,0.66186
5489.12,0.66030
5483.34,0.65802
5477.55,0.64790
5471.77,0.64493
5465.98,0.64730
5460.19,0.65179
5454.41,0.66025
5448.62,0.66411
5442.83,0.66841
5437.05,0.67477
5431.26,0.67480
5425.48,0.68038
5419.69,0.68031
5413.9,0.66682
5408.12,0.67404
5402.33,0.67426
5396.55,0.67111
5390.76,0.67800
5384.97,0.67899
5379.19,0.68359
5373.4,0.68416
5367.61,0.68922
5361.83,0.68416
5356.04,0.67696
5350.26,0.67131
5344.47,0.66665
5338.68,0.66548
5332.9,0.66944
5327.11,0.66809
5321.33,0.67348
5315.54,0.66998
5309.75,0.66959
5303.97,0.65814
5298.18,0.64966
5292.39,0.63413
5286.61,0.60744
5280.82,0.57821
5275.04,0.54548
5269.25,0.51754
5263.46,0.50493
5257.68,0.52299
5251.89,0.54793
5246.11,0.58015
5240.32,0.61735
5234.53,0.64293
5228.75,0.66362
5222.96,0.67751
5217.18,0.69150
5211.39,0.69901
5205.6,0.69500
5199.82,0.70080
5194.03,0.70003
5188.24,0.69453
5182.46,0.69624
5176.67,0.69699
5170.89,0.69563
5165.1,0.69641
5159.31,0.69915
5153.53,0.70415
5147.74,0.70931
5141.96,0.71485
5136.17,0.71911
5130.38,0.72172
5124.6,0.72194
5118.81,0.72343
5113.02,0.72554
5107.24,0.72690
5101.45,0.72500
5095.67,0.72194
5089.88,0.71935
5084.09,0.71461
5078.31,0.71417
5072.52,0.71380
5066.74,0.71473
5060.95,0.71560
5055.16,0.71730
5049.38,0.71933
5043.59,0.72231
5037.8,0.71827
5032.02,0.71867
5026.23,0.71272
5020.45,0.70930
5014.66,0.70641
5008.87,0.70445
5003.09,0.70196
4997.3,0.69689
4991.52,0.69210
4985.73,0.68637
4979.94,0.68561
4974.16,0.68042
4968.37,0.67744
4962.58,0.67667
4956.8,0.67618
4951.01,0.67607
4945.23,0.67506
4939.44,0.67403
4933.65,0.66700
4927.87,0.66074
4922.08,0.64794
4916.3,0.63112
4910.51,0.61573
4904.72,0.59830
4898.94,0.58637
4893.15,0.57659
4887.36,0.57059
4881.58,0.56895
4875.79,0.56576
4870.01,0.55841
4864.22,0.54345
4858.43,0.52665
4852.65,0.51126
4846.86,0.50249
4841.08,0.50210
4835.29,0.50844
4829.5,0.51517
4823.72,0.52414
4817.93,0.53234
4812.14,0.53628
4806.36,0.53958
4800.57,0.53709
4794.79,0.53001
4789,0.52092
4783.21,0.50948
4777.43,0.49330
4771.64,0.47809
4765.86,0.45924
4760.07,0.44090
4754.28,0.41992
4748.5,0.39348
4742.71,0.36140
4736.92,0.32053
4731.14,0.27623
4725.35,0.22811
4719.57,0.18255
4713.78,0.13501
4707.99,0.08887
4702.21,0.05356
4696.42,0.03385
4690.64,0.02416
4684.85,0.01803
4679.06,0.01622
4673.28,0.02310
4667.49,0.03406
4661.7,0.04702
4655.92,0.04929
4650.13,0.04179
4644.35,0.03009
4638.56,0.01967
4632.77,0.01674
4626.99,0.02345
4621.2,0.05201
4615.42,0.10260
4609.63,0.15182
4603.84,0.18137
4598.06,0.18326
4592.27,0.16680
4586.49,0.14093
4580.7,0.12217
4574.91,0.11580
4569.13,0.13084
4563.34,0.16855
4557.55,0.22041
4551.77,0.26165
4545.98,0.28114
4540.2,0.28095
4534.41,0.27836
4528.62,0.27956
4522.84,0.28246
4517.05,0.28435
4511.27,0.28131
4505.48,0.26866
4499.69,0.24693
4493.91,0.21831
4488.12,0.19121
4482.33,0.17150
4476.55,0.16415
4470.76,0.16384
4464.98,0.16274
4459.19,0.15523
4453.4,0.13740
4447.62,0.11170
4441.83,0.08467
4436.05,0.06142
4430.26,0.04112
4424.47,0.02675
4418.69,0.01679
4412.9,0.01173
4407.11,0.00739
4401.33,0.00908
4395.54,0.01354
4389.76,0.01958
4383.97,0.01855
4378.18,0.01322
4372.4,0.00960
4366.61,0.00688
4360.83,0.00595
4355.04,0.00516
4349.25,0.00363
4343.47,0.00439
4337.68,0.00318
4331.89,0.00131
4326.11,0.00179
4320.32,0.00309
4314.54,0.00228
4308.75,0.00356
4302.96,0.00336
4297.18,0.00407
4291.39,0.00517
4285.61,0.00615
4279.82,0.00710
4274.03,0.00883
4268.25,0.01078
4262.46,0.01238
4256.67,0.01475
4250.89,0.01690
4245.1,0.01702
4239.32,0.01619
4233.53,0.01366
4227.74,0.01319
4221.96,0.01198
4216.17,0.01088
4210.39,0.00963
4204.6,0.00885
4198.81,0.00844
4193.03,0.00807
4187.24,0.00722
4181.45,0.00706
4175.67,0.00683
4169.88,0.00544
4164.1,0.00756
4158.31,0.01108
4152.52,0.01552
4146.74,0.02133
4140.95,0.02316
4135.17,0.02273
4129.38,0.02323
4123.59,0.02086
4117.81,0.01711
4112.02,0.01166
4106.23,0.00501
4100.45,0.00240
4094.66,0.00015
4088.88,0.00054
4083.09,0.00074
4077.3,0.00035
4071.52,0.00080
4065.73,0.00048
4059.95,0.00151
4054.16,0.00166
4048.37,0.00472
4042.59,0.01117
4036.8,0.02037
4031.02,0.02404
4025.23,0.02288
4019.44,0.02105
4013.66,0.02123
4007.87,0.02246
4002.08,0.02261
3996.3,0.02130
3990.51,0.01999
3984.73,0.02000
3978.94,0.02168
3973.15,0.02594
3967.37,0.03310
3961.58,0.03691
3955.8,0.03424
3950.01,0.03041
3944.22,0.02890
3938.44,0.02877
3932.65,0.02780
3926.86,0.02918
3921.08,0.02657
3915.29,0.02215
3909.51,0.02038
3903.72,0.01732
3897.93,0.01589
3892.15,0.01452
3886.36,0.01283
3880.58,0.01090
3874.79,0.01564
3869,0.02814
3863.22,0.04111
3857.43,0.05183
3851.64,0.06379
3845.86,0.07330
3840.07,0.07918
3834.29,0.08532
3828.5,0.08655
3822.71,0.08256
3816.93,0.08091
3811.14,0.08135
3805.36,0.08332
3799.57,0.09341
3793.78,0.10722
3788,0.11976
3782.21,0.12957
3776.42,0.13009
3770.64,0.11846
3764.85,0.09921
3759.07,0.07838
3753.28,0.06254
3747.49,0.05650
3741.71,0.05663
3735.92,0.06129
3730.14,0.07187
3724.35,0.07311
3718.56,0.06433
3712.78,0.04906
3706.99,0.03074
3701.2,0.01761
3695.42,0.00803
3689.63,0.00223
3683.85,0.00079
3678.06,0.00037
3672.27,0.00124
3666.49,0.00106
3660.7,0.00056
3654.92,0.00291
3649.13,0.00633
3643.34,0.01288
3637.56,0.02059
3631.77,0.02746
3625.98,0.04004
3620.2,0.05129
3614.41,0.05975
3608.63,0.05741
3602.84,0.04069
3597.05,0.02022
3591.27,0.00782
3585.48,0.00365
3579.7,0.00213
3573.91,0.00134
3568.12,0.00175
3562.34,0.00162
3556.55,0.00163
3550.76,0.00098
3544.98,0.00061
3539.19,0.00038
3533.41,0.00030
3527.62,0.00077
3521.83,0.00072
3516.05,0.00016
3510.26,0.00179
3504.48,0.00446
3498.69,0.00918
3492.9,0.01336
3487.12,0.01684
3481.33,0.02078
3475.55,0.02428
3469.76,0.02981
3463.97,0.03643
3458.19,0.04491
3452.4,0.05448
3446.61,0.06349
3440.83,0.07259
3435.04,0.08212
3429.26,0.09144
3423.47,0.09842
3417.68,0.10469
3411.9,0.10517
3406.11,0.10205
3400.33,0.09616
3394.54,0.08709
3388.75,0.07603
3382.97,0.06759
3377.18,0.06075
3371.39,0.05720
3365.61,0.05707
3359.82,0.05850
3354.04,0.06029
3348.25,0.06141
3342.46,0.06011
3336.68,0.05831
3330.89,0.05348
3325.11,0.04591
3319.32,0.03805
3313.53,0.02976
3307.75,0.02314
3301.96,0.01889
3296.17,0.01539
3290.39,0.01288
3284.6,0.01127
3278.82,0.01041
3273.03,0.00910
3267.24,0.00853
3261.46,0.00649
3255.67,0.00628
3249.89,0.00540
3244.1,0.00451
3238.31,0.00408
3232.53,0.00338
3226.74,0.00351
3220.95,0.00301
3215.17,0.00249
3209.38,0.00157
3203.6,0.00056
3197.81,0.00026
3192.02,0.00021
3186.24,0.00049
3180.45,0.00063
3174.67,0.00089
3168.88,0.00067
3163.09,0.00062
3157.31,0.00046
3151.52,0.00067
3145.73,-0.00018
3139.95,0.00066
3134.16,0.00039
3128.38,0.00073
3122.59,0.00059
3116.8,0.00023
3111.02,0.00016
3105.23,0.00039
3099.45,0.00052
3093.66,0.00040
3087.87,0.00047
3082.09,0.00085
3076.3,0.00034
3070.51,0.00064
3064.73,0.00077
3058.94,0.00047
3053.16,0.00043
3047.37,0.00054
3041.58,0.00065
3035.8,0.00094
3030.01,0.00024
3024.23,0.00068
3018.44,0.00104
3012.65,0.00060
3006.87,0.00025
3001.08,0.00051
2995.29,0.00078
2989.51,0.00023
2983.72,0.00045
2977.94,0.00061
2972.15,0.00024
2966.36,0.00069
2960.58,0.00082
2954.79,0.00046
2949.01,0.00008
2943.22,0.00054
2937.43,0.00064
2931.65,0.00043
2925.86,0.00043
2920.08,0.00033
2914.29,0.00042
2908.5,0.00042
2902.72,0.00022
2896.93,0.00031
2891.14,0.00032
2885.36,0.00035
2879.57,0.00049
2873.79,0.00005
2868,0.00079
2862.21,0.00044
2856.43,0.00035
2850.64,-0.00021
2844.86,0.00072
2839.07,0.00033
2833.28,0.00038
2827.5,0.00100
2821.71,0.00075
2815.92,0.00057
2810.14,0.00038
2804.35,0.00024
2798.57,0.00077
2792.78,0.00051
2786.99,0.00032
2781.21,0.00038
2775.42,0.00047
2769.64,0.00068
2763.85,0.00159
2758.06,0.00305
2752.28,0.00638
2746.49,0.00766
2740.7,0.00665
2734.92,0.00451
2729.13,0.00326
2723.35,0.00378
2717.56,0.00223
2711.77,0.00302
2705.99,0.00713
2700.2,0.01234
2694.42,0.01740
2688.63,0.02154
2682.84,0.02288
2677.06,0.02070
2671.27,0.01838
2665.48,0.01873
2659.7,0.02195
2653.91,0.02896
2648.13,0.03811
2642.34,0.04370
2636.55,0.04042
2630.77,0.02959
2624.98,0.01604
2619.2,0.00676
2613.41,0.00372
2607.62,0.00359
2601.84,0.00353
2596.05,0.00327
2590.26,0.00312
2584.48,0.00346
2578.69,0.00465
2572.91,0.00673
2567.12,0.01138
2561.33,0.01534
2555.55,0.01457
2549.76,0.01175
2543.98,0.00890
2538.19,0.00567
2532.4,0.00395
2526.62,0.00388
2520.83,0.00515
2515.04,0.00501
2509.26,0.00288
2503.47,0.00212
2497.69,0.00104
2491.9,0.00029
2486.11,0.00023
2480.33,0.00022
2474.54,0.00012
2468.76,0.00064
2462.97,0.00025
2457.18,0.00008
2451.4,0.00039
2445.61,0.00015
2439.82,-0.00002
2434.04,0.00038
2428.25,0.00023
2422.47,0.00034
2416.68,0.00023
2410.89,0.00032
2405.11,0.00012
2399.32,0.00026
2393.54,0.00057
2387.75,0.00036
2381.96,0.00026
2376.18,0.00027
2370.39,0.00036
2364.61,0.00122
2358.82,0.00145
2353.03,0.00158
2347.25,0.00143
2341.46,0.00037
2335.67,0.00061
2329.89,0.00074
2324.1,0.00040
2318.32,0.00053
2312.53,0.00017
2306.74,0.00064
2300.96,0.00037
2295.17,0.00036
2289.39,0.00074
2283.6,0.00049
2277.81,0.00015
2272.03,0.00030
2266.24,0.00026
2260.45,0.00049
2254.67,0.00031
2248.88,0.00016
2243.1,0.00034
2237.31,0.00013
2231.52,0.00020
2225.74,0.00032
2219.95,0.00026
2214.17,0.00029
2208.38,0.00027
2202.59,0.00025
2196.81,0.00049
2191.02,0.00024
2185.23,0.00022
2179.45,0.00015
2173.66,0.00022
2167.88,0.00020
2162.09,0.00074
2156.3,0.00204
2150.52,0.00408
2144.73,0.00366
2138.95,0.00238
2133.16,0.00145
2127.37,0.00086
2121.59,0.00036
2115.8,0.00022
2110.01,0.00040
2104.23,0.00038
2098.44,0.00004
2092.66,0.00043
2086.87,0.00021
2081.08,0.00018
2075.3,0.00009
2069.51,0.00050
2063.73,0.00049
2057.94,0.00013
2052.15,0.00017
2046.37,0.00033
2040.58,0.00028
2034.79,0.00036
2029.01,0.00020
2023.22,0.00007
2017.44,0.00043
2011.65,0.00022
2005.86,0.00011
2000.08,0.00045
1994.29,0.00023
1988.51,0.00034
1982.72,0.00017
1976.93,0.00021
1971.15,0.00026
1965.36,0.00007
1959.57,0.00019
1953.79,0.00022
1948,0.00013
1942.22,0.00035
1936.43,0.00027
1930.64,0.00045
1924.86,0.00022
1919.07,0.00048
1913.29,0.00054
1907.5,0.00007
1901.71,0.00021
1895.93,0.00043
1890.14,0.00026
1884.35,0.00021
1878.57,0.00007
1872.78,0.00031
1867,0.00012
1861.21,0.00043
1855.42,0.00047
1849.64,0.00019
1843.85,0.00040
1838.07,0.00005
1832.28,0.00035
1826.49,0.00030
1820.71,0.00034
1814.92,0.00036
1809.13,0.00040
1803.35,0.00024
1797.56,0.00006
1791.78,0.00026
1785.99,0.00030
1780.2,0.00045
1774.42,0.00026
1768.63,0.00012
1762.85,0.00019
1757.06,0.00042
1751.27,0.00063
1745.49,0.00014
1739.7,0.00033
1733.92,0.00022
1728.13,0.00027
1722.34,0.00019
1716.56,0.00045
1710.77,0.00040
1704.98,0.00008
1699.2,0.00059
1693.41,0.00018
1687.63,0.00027
1681.84,0.00068
1676.05,0.00014
1670.27,0.00047
1664.48,0.00013
1658.7,0.00042
1652.91,0.00036
1647.12,0.00068
1641.34,0.00030
1635.55,0.00048
1629.76,0.00025
1623.98,0.00018
1618.19,0.00048
1612.41,0.00007
1606.62,0.00022
1600.83,0.00016
1595.05,0.00025
1589.26,0.00021
1583.48,0.00002
1577.69,0.00038
1571.9,0.00040
1566.12,0.00003
1560.33,0.00011
1554.54,0.00040
1548.76,0.00010
1542.97,0.00069
1537.19,0.00077
1531.4,0.00055
1525.61,-0.00001
1519.83,0.00062
1514.04,0.00039
1508.26,0.00076
1502.47,0.00047
1496.68,0.00031
1490.9,0.00017
1485.11,0.00016
1479.32,0.00014
1473.54,0.00030
1467.75,0.00008
1461.97,0.00031
1456.18,0.00075
1450.39,0.00039
1444.61,0.00024
1438.82,0.00039
1433.04,0.00040
1427.25,0.00012
1421.46,0.00038
1415.68,0.00037
1409.89,0.00043
1404.1,0.00019
1398.32,0.00025
1392.53,0.00017
1386.75,0.00029
1380.96,0.00018
1375.17,0.00018
1369.39,0.00019
1363.6,0.00026
1357.82,0.00033
1352.03,0.00018
1346.24,0.00035
1340.46,0.00026
1334.67,0.00065
1328.88,0.00022
1323.1,0.00017
1317.31,0.00045
1311.53,0.00051
1305.74,0.00030
1299.95,0.00027
1294.17,0.00035
1288.38,0.00048
1282.6,0.00024
1276.81,0.00046
1271.02,0.00033
1265.24,0.00035
1259.45,0.00014
1253.66,0.00036
1247.88,0.00009
1242.09,0.00025
1236.31,0.00031
1230.52,0.00046
1224.73,0.00018
1218.95,0.00032
1213.16,0.00029
1207.38,0.00045
1201.59,0.00076
1195.8,0.00025
1190.02,0.00016
1184.23,0.00032
1178.45,0.00055
1172.66,0.00062
1166.87,0.00071
1161.09,0.00022
1155.3,0.00015
1149.51,0.00047
1143.73,0.00011
1137.94,0.00053
1132.16,0.00018
1126.37,0.00054
1120.58,0.00031
1114.8,0.00050
1109.01,0.00032
1103.23,0.00032
1097.44,0.00041
1091.65,0.00069
1085.87,0.00078
1080.08,0.00014
1074.29,0.00033
1068.51,0.00060
1062.72,0.00076
1056.94,0.00063
1051.15,0.00034
1045.36,0.00010
1039.58,0.00044
1033.79,0.00025
1028.01,0.00031
1022.22,0.00015
1016.43,0.00044
1010.65,0.00032
1004.86,0.00029
999.075,0.00020
993.288,0.00044
987.502,0.00024
981.716,0.00033
975.93,0.00023
970.144,0.00040
964.358,0.00082
958.572,0.00033
952.785,0.00030
946.999,0.00054
941.213,0.00026
935.427,0.00030
929.641,0.00055
923.855,0.00037
918.068,0.00038
912.282,0.00081
906.496,0.00023
900.71,0.00032
894.924,0.00046
889.138,0.00025
883.352,0.00072
877.565,0.00049
871.779,0.00037
865.993,0.00053
860.207,0.00081
854.421,0.00032
848.635,0.00052
842.849,0.00011
837.062,0.00066
831.276,0.00078
825.49,0.00026
819.704,0.00038
813.918,0.00018
808.132,0.00065
802.346,0.00064
796.559,0.00095
790.773,0.00055
784.987,0.00031
779.201,0.00056
773.415,0.00086
767.629,0.00115
761.843,0.00097
756.056,0.00050
750.27,0.00033
744.484,0.00080
738.698,0.00052
732.912,0.00124
727.126,0.00061
721.34,0.00090
715.553,0.00065
709.767,0.00091
703.981,0.00064
698.195,0.00076
692.409,0.00047
686.623,0.00038
680.837,0.00105
675.05,0.00121
669.264,0.00085
663.478,0.00164
657.692,0.00105
651.906,0.00192
646.12,0.00066
640.333,0.00093
634.547,0.00185
628.761,0.00108
622.975,0.00017
617.189,0.00289
611.403,0.00204
605.617,0.00037
599.83,0.00286