File: 01_Data/PC/FTIR/IS/PC_2.93_S_IS_230516_R1.dpt
7496.92,0.08085
7491.13,0.06324
7485.34,0.09915
7479.56,0.07261
7473.77,0.06267
7467.99,0.08682
7462.2,0.08992
7456.41,0.06301
7450.63,0.09175
7444.84,0.07808
7439.06,0.06859
7433.27,0.09263
7427.48,0.06657
7421.7,0.07255
7415.91,0.07801
7410.12,0.09263
7404.34,0.11357
7398.55,0.08007
7392.77,0.04923
7386.98,0.11057
7381.19,0.08727
7375.41,0.05689
7369.62,0.06345
7363.84,0.04841
7358.05,0.05695
7352.26,0.08657
7346.48,0.11217
7340.69,0.08552
7334.9,0.06918
7329.12,0.10417
7323.33,0.09153
7317.55,0.10142
7311.76,0.08717
7305.97,0.06229
7300.19,0.07243
7294.4,0.05911
7288.62,0.06172
7282.83,0.07166
7277.04,0.09075
7271.26,0.06283
7265.47,0.08846
7259.68,0.09676
7253.9,0.06639
7248.11,0.05142
7242.33,0.09095
7236.54,0.06681
7230.75,0.10327
7224.97,0.07495
7219.18,0.05993
7213.4,0.08548
7207.61,0.07806
7201.82,0.07948
7196.04,0.07181
7190.25,0.07256
7184.46,0.06890
7178.68,0.08933
7172.89,0.08779
7167.11,0.08093
7161.32,0.06795
7155.53,0.06997
7149.75,0.08573
7143.96,0.09716
7138.18,0.08917
7132.39,0.08718
7126.6,0.08158
7120.82,0.07033
7115.03,0.08794
7109.24,0.07371
7103.46,0.07901
7097.67,0.08021
7091.89,0.08181
7086.1,0.10009
7080.31,0.11043
7074.53,0.07694
7068.74,0.07366
7062.96,0.08613
7057.17,0.09725
7051.38,0.08675
7045.6,0.10493
7039.81,0.10600
7034.02,0.08195
7028.24,0.10113
7022.45,0.08416
7016.67,0.08389
7010.88,0.09612
7005.09,0.10330
6999.31,0.09155
6993.52,0.10272
6987.74,0.08745
6981.95,0.06538
6976.16,0.09560
6970.38,0.09997
6964.59,0.08390
6958.8,0.09685
6953.02,0.08400
6947.23,0.09199
6941.45,0.09014
6935.66,0.09544
6929.87,0.09875
6924.09,0.10195
6918.3,0.08572
6912.52,0.09627
6906.73,0.08609
6900.94,0.09587
6895.16,0.09235
6889.37,0.07474
6883.59,0.08090
6877.8,0.09783
6872.01,0.08770
6866.23,0.08848
6860.44,0.10299
6854.65,0.09894
6848.87,0.09154
6843.08,0.10347
6837.3,0.10798
6831.51,0.10343
6825.72,0.08577
6819.94,0.09509
6814.15,0.09909
6808.37,0.09162
6802.58,0.09118
6796.79,0.09772
6791.01,0.10312
6785.22,0.10752
6779.43,0.10343
6773.65,0.10655
6767.86,0.09089
6762.08,0.08054
6756.29,0.09114
6750.5,0.09818
6744.72,0.09716
6738.93,0.08851
6733.15,0.11095
6727.36,0.10058
6721.57,0.09769
6715.79,0.10184
6710,0.09406
6704.21,0.11051
6698.43,0.09907
6692.64,0.11000
6686.86,0.10028
6681.07,0.09468
6675.28,0.08904
6669.5,0.08638
6663.71,0.08832
6657.93,0.09891
6652.14,0.10238
6646.35,0.11186
6640.57,0.11609
6634.78,0.09642
6628.99,0.09881
6623.21,0.10941
6617.42,0.10631
6611.64,0.11086
6605.85,0.10284
6600.06,0.11279
6594.28,0.11006
6588.49,0.11285
6582.71,0.11290
6576.92,0.10318
6571.13,0.10344
6565.35,0.10791
6559.56,0.10817
6553.77,0.09908
6547.99,0.10816
6542.2,0.10705
6536.42,0.11997
6530.63,0.10931
6524.84,0.10858
6519.06,0.09950
6513.27,0.10274
6507.49,0.10385
6501.7,0.10048
6495.91,0.10762
6490.13,0.11800
6484.34,0.11287
6478.55,0.11102
6472.77,0.10578
6466.98,0.11557
6461.2,0.11201
6455.41,0.10644
6449.62,0.10659
6443.84,0.10621
6438.05,0.10647
6432.27,0.11270
6426.48,0.11374
6420.69,0.10213
6414.91,0.10672
6409.12,0.11643
6403.33,0.10761
6397.55,0.10834
6391.76,0.11251
6385.98,0.11905
6380.19,0.11179
6374.4,0.10644
6368.62,0.10384
6362.83,0.10743
6357.05,0.10484
6351.26,0.10431
6345.47,0.10234
6339.69,0.10533
6333.9,0.10617
6328.12,0.11397
6322.33,0.10833
6316.54,0.10999
6310.76,0.10668
6304.97,0.10474
6299.18,0.10827
6293.4,0.10461
6287.61,0.10664
6281.83,0.11057
6276.04,0.10372
6270.25,0.11171
6264.47,0.10060
6258.68,0.09843
6252.9,0.10360
6247.11,0.10759
6241.32,0.10328
6235.54,0.09875
6229.75,0.10449
6223.96,0.09808
6218.18,0.09769
6212.39,0.09649
6206.61,0.10298
6200.82,0.09113
6195.03,0.09198
6189.25,0.09044
6183.46,0.09313
6177.68,0.08217
6171.89,0.08680
6166.1,0.08438
6160.32,0.07648
6154.53,0.07333
6148.74,0.08793
6142.96,0.08124
6137.17,0.07624
6131.39,0.07493
6125.6,0.07150
6119.81,0.07143
6114.03,0.06917
6108.24,0.06882
6102.46,0.06611
6096.67,0.05720
6090.88,0.05850
6085.1,0.05063
6079.31,0.05683
6073.52,0.05560
6067.74,0.05596
6061.95,0.04933
6056.17,0.05234
6050.38,0.04229
6044.59,0.04165
6038.81,0.04448
6033.02,0.04222
6027.24,0.03880
6021.45,0.03684
6015.66,0.03407
6009.88,0.03755
6004.09,0.03855
5998.3,0.03756
5992.52,0.03450
5986.73,0.03976
5980.95,0.04088
5975.16,0.04107
5969.37,0.04052
5963.59,0.04364
5957.8,0.04303
5952.02,0.04177
5946.23,0.04316
5940.44,0.04406
5934.66,0.04087
5928.87,0.04271
5923.08,0.04248
5917.3,0.04391
5911.51,0.04487
5905.73,0.04783
5899.94,0.04774
5894.15,0.04769
5888.37,0.05091
5882.58,0.04733
5876.8,0.05406
5871.01,0.05189
5865.22,0.05239
5859.44,0.05276
5853.65,0.05689
5847.86,0.05719
5842.08,0.06145
5836.29,0.06404
5830.51,0.06716
5824.72,0.06445
5818.93,0.06009
5813.15,0.06216
5807.36,0.06297
5801.58,0.06100
5795.79,0.05751
5790,0.06012
5784.22,0.06233
5778.43,0.05323
5772.65,0.05907
5766.86,0.05783
5761.07,0.05694
5755.29,0.05748
5749.5,0.05915
5743.71,0.06481
5737.93,0.06353
5732.14,0.06806
5726.36,0.07726
5720.57,0.07507
5714.78,0.07842
5709,0.08258
5703.21,0.07865
5697.43,0.07864
5691.64,0.08174
5685.85,0.08032
5680.07,0.07993
5674.28,0.07926
5668.49,0.07298
5662.71,0.07256
5656.92,0.07528
5651.14,0.07531
5645.35,0.07509
5639.56,0.08011
5633.78,0.08491
5627.99,0.08476
5622.21,0.09100
5616.42,0.09145
5610.63,0.09283
5604.85,0.09208
5599.06,0.09245
5593.27,0.09018
5587.49,0.09032
5581.7,0.09031
5575.92,0.09112
5570.13,0.09348
5564.34,0.09163
5558.56,0.09304
5552.77,0.08730
5546.99,0.09345
5541.2,0.09431
5535.41,0.09103
5529.63,0.09137
5523.84,0.09417
5518.05,0.09517
5512.27,0.09434
5506.48,0.09400
5500.7,0.08931
5494.91,0.09195
5489.12,0.09733
5483.34,0.09283
5477.55,0.09120
5471.77,0.09198
5465.98,0.09092
5460.19,0.09208
5454.41,0.09390
5448.62,0.09512
5442.83,0.09617
5437.05,0.09638
5431.26,0.09714
5425.48,0.09861
5419.69,0.09792
5413.9,0.09210
5408.12,0.09424
5402.33,0.09435
5396.55,0.09623
5390.76,0.09617
5384.97,0.09578
5379.19,0.09681
5373.4,0.09718
5367.61,0.09690
5361.83,0.09530
5356.04,0.09640
5350.26,0.09552
5344.47,0.09678
5338.68,0.09437
5332.9,0.09626
5327.11,0.09413
5321.33,0.09758
5315.54,0.09595
5309.75,0.09516
5303.97,0.09617
5298.18,0.09225
5292.39,0.09156
5286.61,0.08922
5280.82,0.08518
5275.04,0.07889
5269.25,0.07438
5263.46,0.07753
5257.68,0.07768
5251.89,0.07995
5246.11,0.08711
5240.32,0.08907
5234.53,0.09568
5228.75,0.09572
5222.96,0.09798
5217.18,0.10048
5211.39,0.10294
5205.6,0.10546
5199.82,0.10411
5194.03,0.10231
5188.24,0.10204
5182.46,0.10182
5176.67,0.09930
5170.89,0.10297
5165.1,0.10336
5159.31,0.10243
5153.53,0.10515
5147.74,0.10548
5141.96,0.10655
5136.17,0.10744
5130.38,0.10696
5124.6,0.10745
5118.81,0.10751
5113.02,0.10933
5107.24,0.10971
5101.45,0.10935
5095.67,0.10879
5089.88,0.10872
5084.09,0.10834
5078.31,0.10629
5072.52,0.10790
5066.74,0.10868
5060.95,0.10785
5055.16,0.10758
5049.38,0.11009
5043.59,0.10729
5037.8,0.10603
5032.02,0.10841
5026.23,0.10859
5020.45,0.10713
5014.66,0.10715
5008.87,0.10633
5003.09,0.10533
4997.3,0.10457
4991.52,0.10593
4985.73,0.10411
4979.94,0.10319
4974.16,0.10239
4968.37,0.10303
4962.58,0.10138
4956.8,0.10357
4951.01,0.10310
4945.23,0.10219
4939.44,0.10299
4933.65,0.10065
4927.87,0.09988
4922.08,0.09794
4916.3,0.09901
4910.51,0.09310
4904.72,0.09082
4898.94,0.09057
4893.15,0.08894
4887.36,0.08731
4881.58,0.08652
4875.79,0.08796
4870.01,0.08657
4864.22,0.08372
4858.43,0.08247
4852.65,0.08083
4846.86,0.07867
4841.08,0.07843
4835.29,0.07998
4829.5,0.08247
4823.72,0.08286
4817.93,0.08164
4812.14,0.08417
4806.36,0.08500
4800.57,0.08491
4794.79,0.08400
4789,0.08180
4783.21,0.08096
4777.43,0.08031
4771.64,0.07742
4765.86,0.07377
4760.07,0.07475
4754.28,0.07307
4748.5,0.07042
4742.71,0.06799
4736.92,0.06427
4731.14,0.05945
4725.35,0.05757
4719.57,0.05591
4713.78,0.05403
4707.99,0.05310
4702.21,0.05399
4696.42,0.05416
4690.64,0.05281
4684.85,0.05296
4679.06,0.05361
4673.28,0.05368
4667.49,0.05076
4661.7,0.05313
4655.92,0.05312
4650.13,0.05250
4644.35,0.05280
4638.56,0.05261
4632.77,0.05431
4626.99,0.05384
4621.2,0.05279
4615.42,0.05430
4609.63,0.05645
4603.84,0.05717
4598.06,0.05844
4592.27,0.05615
4586.49,0.05588
4580.7,0.05499
4574.91,0.05353
4569.13,0.05582
4563.34,0.05654
4557.55,0.05785
4551.77,0.06132
4545.98,0.06207
4540.2,0.06226
4534.41,0.06217
4528.62,0.06180
4522.84,0.06315
4517.05,0.06224
4511.27,0.06312
4505.48,0.06215
4499.69,0.06165
4493.91,0.06063
4488.12,0.05808
4482.33,0.05760
4476.55,0.05773
4470.76,0.05705
4464.98,0.05670
4459.19,0.05809
4453.4,0.05540
4447.62,0.05677
4441.83,0.05527
4436.05,0.05508
4430.26,0.05503
4424.47,0.05514
4418.69,0.05435
4412.9,0.05532
4407.11,0.05484
4401.33,0.05431
4395.54,0.05478
4389.76,0.05408
4383.97,0.05440
4378.18,0.05397
4372.4,0.05546
4366.61,0.05490
4360.83,0.05644
4355.04,0.05509
4349.25,0.05547
4343.47,0.05568
4337.68,0.05510
4331.89,0.05599
4326.11,0.05643
4320.32,0.05576
4314.54,0.05520
4308.75,0.05519
4302.96,0.05663
4297.18,0.05549
4291.39,0.05516
4285.61,0.05593
4279.82,0.05535
4274.03,0.05539
4268.25,0.05633
4262.46,0.05605
4256.67,0.05602
4250.89,0.05611
4245.1,0.05617
4239.32,0.05601
4233.53,0.05710
4227.74,0.05639
4221.96,0.05579
4216.17,0.05670
4210.39,0.05538
4204.6,0.05521
4198.81,0.05522
4193.03,0.05487
4187.24,0.05535
4181.45,0.05681
4175.67,0.05648
4169.88,0.05637
4164.1,0.05607
4158.31,0.05658
4152.52,0.05681
4146.74,0.05609
4140.95,0.05606
4135.17,0.05608
4129.38,0.05539
4123.59,0.05586
4117.81,0.05672
4112.02,0.05689
4106.23,0.05710
4100.45,0.05724
4094.66,0.05724
4088.88,0.05784
4083.09,0.05687
4077.3,0.05761
4071.52,0.05666
4065.73,0.05632
4059.95,0.05661
4054.16,0.05697
4048.37,0.05719
4042.59,0.05744
4036.8,0.05717
4031.02,0.05749
4025.23,0.05697
4019.44,0.05691
4013.66,0.05710
4007.87,0.05759
4002.08,0.05724
3996.3,0.05683
3990.51,0.05669
3984.73,0.05795
3978.94,0.05758
3973.15,0.05776
3967.37,0.05742
3961.58,0.05740
3955.8,0.05737
3950.01,0.05736
3944.22,0.05833
3938.44,0.05746
3932.65,0.05642
3926.86,0.05731
3921.08,0.05691
3915.29,0.05755
3909.51,0.05755
3903.72,0.05571
3897.93,0.05782
3892.15,0.05867
3886.36,0.05836
3880.58,0.05725
3874.79,0.05759
3869,0.05788
3863.22,0.05952
3857.43,0.05835
3851.64,0.05852
3845.86,0.05894
3840.07,0.05880
3834.29,0.05998
3828.5,0.05870
3822.71,0.05790
3816.93,0.05853
3811.14,0.05885
3805.36,0.05881
3799.57,0.05870
3793.78,0.05954
3788,0.05905
3782.21,0.06020
3776.42,0.06021
3770.64,0.06054
3764.85,0.06049
3759.07,0.05914
3753.28,0.05772
3747.49,0.05895
3741.71,0.06056
3735.92,0.05939
3730.14,0.05976
3724.35,0.05877
3718.56,0.05847
3712.78,0.05723
3706.99,0.05905
3701.2,0.05854
3695.42,0.05881
3689.63,0.05873
3683.85,0.05875
3678.06,0.05925
3672.27,0.05923
3666.49,0.05823
3660.7,0.05837
3654.92,0.05777
3649.13,0.05683
3643.34,0.05778
3637.56,0.05752
3631.77,0.05683
3625.98,0.05882
3620.2,0.05772
3614.41,0.05798
3608.63,0.05816
3602.84,0.05827
3597.05,0.05780
3591.27,0.05763
3585.48,0.05678
3579.7,0.05716
3573.91,0.05771
3568.12,0.05860
3562.34,0.05863
3556.55,0.05815
3550.76,0.05803
3544.98,0.05862
3539.19,0.05817
3533.41,0.05791
3527.62,0.05818
3521.83,0.05853
3516.05,0.05805
3510.26,0.05807
3504.48,0.05794
3498.69,0.05710
3492.9,0.05751
3487.12,0.05785
3481.33,0.05795
3475.55,0.05770
3469.76,0.05901
3463.97,0.05956
3458.19,0.05831
3452.4,0.05901
3446.61,0.05895
3440.83,0.05920
3435.04,0.05935
3429.26,0.05867
3423.47,0.05900
3417.68,0.05948
3411.9,0.05920
3406.11,0.05872
3400.33,0.05894
3394.54,0.05839
3388.75,0.05868
3382.97,0.05878
3377.18,0.05847
3371.39,0.05796
3365.61,0.05805
3359.82,0.05817
3354.04,0.05855
3348.25,0.05848
3342.46,0.05873
3336.68,0.05842
3330.89,0.05815
3325.11,0.05774
3319.32,0.05741
3313.53,0.05763
3307.75,0.05797
3301.96,0.05764
3296.17,0.05814
3290.39,0.05829
3284.6,0.05779
3278.82,0.05785
3273.03,0.05817
3267.24,0.05830
3261.46,0.05832
3255.67,0.05825
3249.89,0.05860
3244.1,0.05868
3238.31,0.05844
3232.53,0.05828
3226.74,0.05765
3220.95,0.05803
3215.17,0.05787
3209.38,0.05912
3203.6,0.05859
3197.81,0.05766
3192.02,0.05845
3186.24,0.05846
3180.45,0.05885
3174.67,0.05897
3168.88,0.05921
3163.09,0.05836
3157.31,0.05836
3151.52,0.05853
3145.73,0.05826
3139.95,0.05835
3134.16,0.05895
3128.38,0.05916
3122.59,0.05825
3116.8,0.05909
3111.02,0.05897
3105.23,0.05880
3099.45,0.05833
3093.66,0.05851
3087.87,0.05856
3082.09,0.05870
3076.3,0.05817
3070.51,0.05860
3064.73,0.05885
3058.94,0.05886
3053.16,0.05888
3047.37,0.05911
3041.58,0.05902
3035.8,0.05898
3030.01,0.05937
3024.23,0.05933
3018.44,0.05907
3012.65,0.05838
3006.87,0.05835
3001.08,0.05799
2995.29,0.05757
2989.51,0.05785
2983.72,0.05741
2977.94,0.05749
2972.15,0.05849
2966.36,0.06001
2960.58,0.06067
2954.79,0.06114
2949.01,0.06056
2943.22,0.06040
2937.43,0.06039
2931.65,0.06048
2925.86,0.06012
2920.08,0.06007
2914.29,0.05988
2908.5,0.06038
2902.72,0.06067
2896.93,0.06038
2891.14,0.06063
2885.36,0.06007
2879.57,0.06004
2873.79,0.06070
2868,0.06052
2862.21,0.06059
2856.43,0.06095
2850.64,0.06037
2844.86,0.06038
2839.07,0.06090
2833.28,0.06058
2827.5,0.06064
2821.71,0.06091
2815.92,0.06065
2810.14,0.06058
2804.35,0.06079
2798.57,0.06056
2792.78,0.06089
2786.99,0.06064
2781.21,0.06045
2775.42,0.06079
2769.64,0.06084
2763.85,0.06101
2758.06,0.06102
2752.28,0.06092
2746.49,0.06040
2740.7,0.06045
2734.92,0.06021
2729.13,0.06071
2723.35,0.06110
2717.56,0.06121
2711.77,0.06051
2705.99,0.06074
2700.2,0.06068
2694.42,0.06046
2688.63,0.06042
2682.84,0.06046
2677.06,0.06076
2671.27,0.06064
2665.48,0.06056
2659.7,0.06068
2653.91,0.06076
2648.13,0.06099
2642.34,0.06055
2636.55,0.06102
2630.77,0.06087
2624.98,0.06055
2619.2,0.06066
2613.41,0.06079
2607.62,0.06085
2601.84,0.06024
2596.05,0.05992
2590.26,0.06036
2584.48,0.06041
2578.69,0.06039
2572.91,0.06069
2567.12,0.06078
2561.33,0.06050
2555.55,0.06060
2549.76,0.06043
2543.98,0.06066
2538.19,0.06064
2532.4,0.06074
2526.62,0.06097
2520.83,0.06066
2515.04,0.06021
2509.26,0.06060
2503.47,0.06076
2497.69,0.06095
2491.9,0.06041
2486.11,0.06079
2480.33,0.06088
2474.54,0.06099
2468.76,0.06125
2462.97,0.06112
2457.18,0.06088
2451.4,0.06108
2445.61,0.06074
2439.82,0.06080
2434.04,0.06068
2428.25,0.06081
2422.47,0.06099
2416.68,0.06090
2410.89,0.06090
2405.11,0.06073
2399.32,0.06104
2393.54,0.06089
2387.75,0.06100
2381.96,0.06078
2376.18,0.06148
2370.39,0.06149
2364.61,0.06162
2358.82,0.06148
2353.03,0.06066
2347.25,0.06111
2341.46,0.06083
2335.67,0.06068
2329.89,0.06088
2324.1,0.06090
2318.32,0.06172
2312.53,0.06152
2306.74,0.06106
2300.96,0.06097
2295.17,0.06059
2289.39,0.06042
2283.6,0.06071
2277.81,0.06113
2272.03,0.06065
2266.24,0.06052
2260.45,0.06044
2254.67,0.06072
2248.88,0.06072
2243.1,0.06054
2237.31,0.06087
2231.52,0.06037
2225.74,0.06072
2219.95,0.06109
2214.17,0.06091
2208.38,0.06064
2202.59,0.06088
2196.81,0.06070
2191.02,0.06096
2185.23,0.06052
2179.45,0.06049
2173.66,0.06086
2167.88,0.06041
2162.09,0.06039
2156.3,0.06079
2150.52,0.06065
2144.73,0.06024
2138.95,0.06066
2133.16,0.06034
2127.37,0.06047
2121.59,0.06033
2115.8,0.06024
2110.01,0.06011
2104.23,0.06063
2098.44,0.06050
2092.66,0.06031
2086.87,0.06011
2081.08,0.06009
2075.3,0.06011
2069.51,0.06037
2063.73,0.06014
2057.94,0.05998
2052.15,0.06013
2046.37,0.05992
2040.58,0.06021
2034.79,0.05982
2029.01,0.05973
2023.22,0.05980
2017.44,0.05979
2011.65,0.05977
2005.86,0.05981
2000.08,0.05943
1994.29,0.05991
1988.51,0.06007
1982.72,0.05961
1976.93,0.05948
1971.15,0.05938
1965.36,0.05951
1959.57,0.05927
1953.79,0.05899
1948,0.05898
1942.22,0.05882
1936.43,0.05870
1930.64,0.05876
1924.86,0.05828
1919.07,0.05868
1913.29,0.05816
1907.5,0.05821
1901.71,0.05782
1895.93,0.05782
1890.14,0.05826
1884.35,0.05772
1878.57,0.05739
1872.78,0.05725
1867,0.05723
1861.21,0.05637
1855.42,0.05615
1849.64,0.05572
1843.85,0.05515
1838.07,0.05498
1832.28,0.05372
1826.49,0.05308
1820.71,0.05217
1814.92,0.05057
1809.13,0.04890
1803.35,0.04638
1797.56,0.04313
1791.78,0.04195
1785.99,0.04681
1780.2,0.06060
1774.42,0.07642
1768.63,0.08781
1762.85,0.08654
1757.06,0.07905
1751.27,0.07393
1745.49,0.07011
1739.7,0.06841
1733.92,0.06753
1728.13,0.06643
1722.34,0.06552
1716.56,0.06419
1710.77,0.06398
1704.98,0.06331
1699.2,0.06264
1693.41,0.06158
1687.63,0.06186
1681.84,0.06096
1676.05,0.06052
1670.27,0.06011
1664.48,0.06010
1658.7,0.05998
1652.91,0.05969
1647.12,0.05938
1641.34,0.05929
1635.55,0.05945
1629.76,0.05865
1623.98,0.05852
1618.19,0.05824
1612.41,0.05746
1606.62,0.05785
1600.83,0.05833
1595.05,0.05832
1589.26,0.05872
1583.48,0.05835
1577.69,0.05801
1571.9,0.05705
1566.12,0.05619
1560.33,0.05583
1554.54,0.05468
1548.76,0.05425
1542.97,0.05284
1537.19,0.05227
1531.4,0.05053
1525.61,0.04879
1519.83,0.04588
1514.04,0.04196
1508.26,0.05185
1502.47,0.07238
1496.68,0.07267
1490.9,0.06935
1485.11,0.06551
1479.32,0.06274
1473.54,0.06114
1467.75,0.05975
1461.97,0.06070
1456.18,0.05989
1450.39,0.05925
1444.61,0.05805
1438.82,0.05798
1433.04,0.05671
1427.25,0.05563
1421.46,0.05415
1415.68,0.05281
1409.89,0.05454
1404.1,0.05589
1398.32,0.05485
1392.53,0.05352
1386.75,0.05355
1380.96,0.05361
1375.17,0.05179
1369.39,0.04999
1363.6,0.05184
1357.82,0.05197
1352.03,0.05030
1346.24,0.04895
1340.46,0.04736
1334.67,0.04575
1328.88,0.04424
1323.1,0.04268
1317.31,0.04050
1311.53,0.03868
1305.74,0.03747
1299.95,0.03548
1294.17,0.03460
1288.38,0.03452
1282.6,0.03183
1276.81,0.02760
1271.02,0.02238
1265.24,0.02082
1259.45,0.03725
1253.66,0.07227
1247.88,0.09736
1242.09,0.11057
1236.31,0.12257
1230.52,0.13398
1224.73,0.14017
1218.95,0.13184
1213.16,0.10674
1207.38,0.07733
1201.59,0.09212
1195.8,0.14691
1190.02,0.16704
1184.23,0.14113
1178.45,0.11094
1172.66,0.08848
1166.87,0.11206
1161.09,0.15648
1155.3,0.13876
1149.51,0.12143
1143.73,0.11165
1137.94,0.10503
1132.16,0.09983
1126.37,0.09491
1120.58,0.09121
1114.8,0.08845
1109.01,0.08762
1103.23,0.08805
1097.44,0.08820
1091.65,0.08251
1085.87,0.07803
1080.08,0.09235
1074.29,0.09320
1068.51,0.08718
1062.72,0.08493
1056.94,0.08236
1051.15,0.08031
1045.36,0.07862
1039.58,0.07784
1033.79,0.07445
1028.01,0.06988
1022.22,0.06308
1016.43,0.07958
1010.65,0.09651
1004.86,0.09350
999.075,0.09013
993.288,0.08693
987.502,0.08507
981.716,0.08276
975.93,0.08202
970.144,0.08043
964.358,0.07900
958.572,0.07885
952.785,0.07834
946.999,0.07789
941.213,0.07675
935.427,0.07663
929.641,0.07595
923.855,0.07478
918.068,0.07427
912.282,0.07421
906.496,0.07266
900.71,0.07131
894.924,0.06945
889.138,0.07215
883.352,0.07562
877.565,0.07475
871.779,0.07351
865.993,0.07073
860.207,0.06874
854.421,0.06608
848.635,0.06572
842.849,0.06659
837.062,0.06872
831.276,0.07836
825.49,0.08449
819.704,0.08353
813.918,0.08578
808.132,0.08512
802.346,0.08293
796.559,0.07924
790.773,0.07773
784.987,0.07461
779.201,0.07462
773.415,0.07435
767.629,0.07851
761.843,0.08080
756.056,0.08082
750.27,0.08014
744.484,0.07902
738.698,0.07781
732.912,0.07727
727.126,0.07750
721.34,0.07674
715.553,0.07512
709.767,0.07686
703.981,0.07760
698.195,0.07763
692.409,0.07648
686.623,0.07656
680.837,0.07599
675.05,0.07497
669.264,0.07503
663.478,0.07395
657.692,0.07392
651.906,0.07359
646.12,0.07250
640.333,0.07047
634.547,0.07252
628.761,0.07262
622.975,0.06977
617.189,0.06801
611.403,0.06927
605.617,0.06710
599.83,0.06800