File: 01_Data/PC/FTIR/IS/PC_IS_T_230508_R7.dpt
7496.92,0.02362
7491.13,0.01833
7485.34,0.01681
7479.56,0.00778
7473.77,0.02246
7467.99,0.01945
7462.2,0.02031
7456.41,0.02570
7450.63,0.02513
7444.84,0.01752
7439.06,0.02689
7433.27,0.03484
7427.48,0.03117
7421.7,0.02053
7415.91,0.03144
7410.12,0.03554
7404.34,0.02720
7398.55,0.02722
7392.77,0.02486
7386.98,0.02485
7381.19,0.02415
7375.41,0.02607
7369.62,0.02509
7363.84,0.02823
7358.05,0.01655
7352.26,0.02516
7346.48,0.02312
7340.69,0.03143
7334.9,0.02729
7329.12,0.02846
7323.33,0.02705
7317.55,0.02652
7311.76,0.02395
7305.97,0.02168
7300.19,0.02269
7294.4,0.03523
7288.62,0.02156
7282.83,0.03168
7277.04,0.02635
7271.26,0.02907
7265.47,0.02653
7259.68,0.02137
7253.9,0.01966
7248.11,0.02596
7242.33,0.03314
7236.54,0.01671
7230.75,0.01242
7224.97,0.02078
7219.18,0.01305
7213.4,0.03060
7207.61,0.02561
7201.82,0.01748
7196.04,0.01143
7190.25,0.02077
7184.46,0.02231
7178.68,0.03028
7172.89,0.02770
7167.11,0.02461
7161.32,0.02378
7155.53,0.02627
7149.75,0.02545
7143.96,0.02358
7138.18,0.02782
7132.39,0.02427
7126.6,0.02181
7120.82,0.03605
7115.03,0.02458
7109.24,0.02822
7103.46,0.03237
7097.67,0.02966
7091.89,0.03277
7086.1,0.01753
7080.31,0.01923
7074.53,0.02952
7068.74,0.01825
7062.96,0.02986
7057.17,0.03173
7051.38,0.02821
7045.6,0.02494
7039.81,0.02582
7034.02,0.02497
7028.24,0.02726
7022.45,0.02888
7016.67,0.02970
7010.88,0.02875
7005.09,0.02282
6999.31,0.02814
6993.52,0.03016
6987.74,0.02289
6981.95,0.02491
6976.16,0.02497
6970.38,0.02627
6964.59,0.02161
6958.8,0.02429
6953.02,0.02531
6947.23,0.02134
6941.45,0.03085
6935.66,0.02407
6929.87,0.02862
6924.09,0.02680
6918.3,0.03288
6912.52,0.02905
6906.73,0.02593
6900.94,0.02018
6895.16,0.02660
6889.37,0.02477
6883.59,0.02372
6877.8,0.02580
6872.01,0.03008
6866.23,0.02353
6860.44,0.02589
6854.65,0.02734
6848.87,0.02070
6843.08,0.02434
6837.3,0.02385
6831.51,0.02063
6825.72,0.02187
6819.94,0.02709
6814.15,0.02538
6808.37,0.02530
6802.58,0.02683
6796.79,0.02298
6791.01,0.02896
6785.22,0.02283
6779.43,0.02802
6773.65,0.02368
6767.86,0.02785
6762.08,0.02793
6756.29,0.02416
6750.5,0.02419
6744.72,0.02546
6738.93,0.02903
6733.15,0.02623
6727.36,0.01842
6721.57,0.02760
6715.79,0.02892
6710,0.02178
6704.21,0.02359
6698.43,0.02393
6692.64,0.01469
6686.86,0.02168
6681.07,0.02508
6675.28,0.02297
6669.5,0.02338
6663.71,0.02230
6657.93,0.02561
6652.14,0.02576
6646.35,0.02356
6640.57,0.02289
6634.78,0.02038
6628.99,0.02872
6623.21,0.02983
6617.42,0.02638
6611.64,0.02171
6605.85,0.02368
6600.06,0.02029
6594.28,0.02448
6588.49,0.02649
6582.71,0.03242
6576.92,0.02605
6571.13,0.02787
6565.35,0.02486
6559.56,0.02431
6553.77,0.02363
6547.99,0.02499
6542.2,0.02261
6536.42,0.02302
6530.63,0.02191
6524.84,0.02558
6519.06,0.02639
6513.27,0.02161
6507.49,0.02720
6501.7,0.02554
6495.91,0.02590
6490.13,0.02632
6484.34,0.02480
6478.55,0.02124
6472.77,0.02160
6466.98,0.02561
6461.2,0.02314
6455.41,0.02123
6449.62,0.02521
6443.84,0.02654
6438.05,0.02575
6432.27,0.02254
6426.48,0.02407
6420.69,0.02443
6414.91,0.02387
6409.12,0.02670
6403.33,0.01877
6397.55,0.02609
6391.76,0.02239
6385.98,0.02769
6380.19,0.02602
6374.4,0.02239
6368.62,0.02134
6362.83,0.02004
6357.05,0.02706
6351.26,0.02656
6345.47,0.02033
6339.69,0.01936
6333.9,0.02402
6328.12,0.02430
6322.33,0.02361
6316.54,0.02228
6310.76,0.02502
6304.97,0.02524
6299.18,0.02102
6293.4,0.02153
6287.61,0.02246
6281.83,0.02278
6276.04,0.02130
6270.25,0.02236
6264.47,0.02295
6258.68,0.02245
6252.9,0.02420
6247.11,0.02336
6241.32,0.02605
6235.54,0.02933
6229.75,0.02301
6223.96,0.02024
6218.18,0.02328
6212.39,0.02395
6206.61,0.02297
6200.82,0.02276
6195.03,0.02203
6189.25,0.01940
6183.46,0.02623
6177.68,0.02384
6171.89,0.02442
6166.1,0.02522
6160.32,0.02182
6154.53,0.02033
6148.74,0.02248
6142.96,0.02359
6137.17,0.02437
6131.39,0.02368
6125.6,0.02043
6119.81,0.02361
6114.03,0.02330
6108.24,0.02335
6102.46,0.02255
6096.67,0.02942
6090.88,0.02546
6085.1,0.02362
6079.31,0.02410
6073.52,0.02461
6067.74,0.02336
6061.95,0.02376
6056.17,0.02334
6050.38,0.02229
6044.59,0.02458
6038.81,0.02106
6033.02,0.02011
6027.24,0.02258
6021.45,0.02111
6015.66,0.02671
6009.88,0.02116
6004.09,0.02494
5998.3,0.02298
5992.52,0.02448
5986.73,0.02784
5980.95,0.02194
5975.16,0.02599
5969.37,0.02720
5963.59,0.02313
5957.8,0.02326
5952.02,0.02349
5946.23,0.02429
5940.44,0.02241
5934.66,0.02233
5928.87,0.02395
5923.08,0.02510
5917.3,0.02207
5911.51,0.02474
5905.73,0.02392
5899.94,0.02114
5894.15,0.02094
5888.37,0.02058
5882.58,0.02288
5876.8,0.02421
5871.01,0.02311
5865.22,0.02152
5859.44,0.02293
5853.65,0.02356
5847.86,0.02209
5842.08,0.02227
5836.29,0.02158
5830.51,0.02398
5824.72,0.02377
5818.93,0.02293
5813.15,0.02287
5807.36,0.02417
5801.58,0.02285
5795.79,0.02328
5790,0.02346
5784.22,0.02491
5778.43,0.02422
5772.65,0.02389
5766.86,0.02409
5761.07,0.02367
5755.29,0.02298
5749.5,0.02109
5743.71,0.02206
5737.93,0.02228
5732.14,0.02335
5726.36,0.02317
5720.57,0.02438
5714.78,0.02603
5709,0.02317
5703.21,0.02296
5697.43,0.02278
5691.64,0.02283
5685.85,0.02280
5680.07,0.02193
5674.28,0.02385
5668.49,0.02225
5662.71,0.02230
5656.92,0.02522
5651.14,0.02231
5645.35,0.02335
5639.56,0.02485
5633.78,0.02406
5627.99,0.02415
5622.21,0.02275
5616.42,0.02691
5610.63,0.02518
5604.85,0.02424
5599.06,0.02356
5593.27,0.02243
5587.49,0.02140
5581.7,0.02253
5575.92,0.02385
5570.13,0.02483
5564.34,0.02488
5558.56,0.02427
5552.77,0.02508
5546.99,0.02267
5541.2,0.02232
5535.41,0.02427
5529.63,0.02210
5523.84,0.02218
5518.05,0.02439
5512.27,0.02434
5506.48,0.02553
5500.7,0.02515
5494.91,0.02316
5489.12,0.02550
5483.34,0.02226
5477.55,0.02291
5471.77,0.02524
5465.98,0.02248
5460.19,0.02395
5454.41,0.02184
5448.62,0.02191
5442.83,0.02220
5437.05,0.02324
5431.26,0.02302
5425.48,0.02364
5419.69,0.02403
5413.9,0.02558
5408.12,0.02325
5402.33,0.02360
5396.55,0.02157
5390.76,0.02435
5384.97,0.02306
5379.19,0.02058
5373.4,0.02391
5367.61,0.02364
5361.83,0.02337
5356.04,0.02491
5350.26,0.02361
5344.47,0.02554
5338.68,0.02250
5332.9,0.02430
5327.11,0.02460
5321.33,0.02357
5315.54,0.02347
5309.75,0.02375
5303.97,0.02362
5298.18,0.02360
5292.39,0.02277
5286.61,0.02470
5280.82,0.02370
5275.04,0.02280
5269.25,0.02340
5263.46,0.02331
5257.68,0.02403
5251.89,0.02437
5246.11,0.02513
5240.32,0.02382
5234.53,0.02259
5228.75,0.02415
5222.96,0.02505
5217.18,0.02276
5211.39,0.02243
5205.6,0.02231
5199.82,0.02338
5194.03,0.02273
5188.24,0.02362
5182.46,0.02327
5176.67,0.02378
5170.89,0.02395
5165.1,0.02177
5159.31,0.02419
5153.53,0.02241
5147.74,0.02293
5141.96,0.02393
5136.17,0.02489
5130.38,0.02267
5124.6,0.02540
5118.81,0.02396
5113.02,0.02320
5107.24,0.02241
5101.45,0.02391
5095.67,0.02454
5089.88,0.02452
5084.09,0.02438
5078.31,0.02300
5072.52,0.02309
5066.74,0.02359
5060.95,0.02220
5055.16,0.02259
5049.38,0.02498
5043.59,0.02299
5037.8,0.02474
5032.02,0.02470
5026.23,0.02321
5020.45,0.02231
5014.66,0.02366
5008.87,0.02343
5003.09,0.02296
4997.3,0.02444
4991.52,0.02459
4985.73,0.02317
4979.94,0.02280
4974.16,0.02455
4968.37,0.02405
4962.58,0.02359
4956.8,0.02549
4951.01,0.02411
4945.23,0.02414
4939.44,0.02534
4933.65,0.02462
4927.87,0.02413
4922.08,0.02352
4916.3,0.02331
4910.51,0.02232
4904.72,0.02340
4898.94,0.02353
4893.15,0.02280
4887.36,0.02320
4881.58,0.02447
4875.79,0.02394
4870.01,0.02333
4864.22,0.02504
4858.43,0.02524
4852.65,0.02323
4846.86,0.02414
4841.08,0.02402
4835.29,0.02309
4829.5,0.02316
4823.72,0.02437
4817.93,0.02331
4812.14,0.02237
4806.36,0.02357
4800.57,0.02387
4794.79,0.02404
4789,0.02347
4783.21,0.02298
4777.43,0.02290
4771.64,0.02392
4765.86,0.02400
4760.07,0.02291
4754.28,0.02379
4748.5,0.02355
4742.71,0.02301
4736.92,0.02424
4731.14,0.02347
4725.35,0.02350
4719.57,0.02471
4713.78,0.02429
4707.99,0.02327
4702.21,0.02324
4696.42,0.02371
4690.64,0.02455
4684.85,0.02393
4679.06,0.02506
4673.28,0.02474
4667.49,0.02426
4661.7,0.02390
4655.92,0.02414
4650.13,0.02267
4644.35,0.02329
4638.56,0.02481
4632.77,0.02446
4626.99,0.02309
4621.2,0.02343
4615.42,0.02369
4609.63,0.02404
4603.84,0.02479
4598.06,0.02387
4592.27,0.02375
4586.49,0.02339
4580.7,0.02407
4574.91,0.02472
4569.13,0.02424
4563.34,0.02368
4557.55,0.02334
4551.77,0.02360
4545.98,0.02488
4540.2,0.02311
4534.41,0.02364
4528.62,0.02319
4522.84,0.02396
4517.05,0.02404
4511.27,0.02369
4505.48,0.02350
4499.69,0.02456
4493.91,0.02428
4488.12,0.02406
4482.33,0.02401
4476.55,0.02330
4470.76,0.02428
4464.98,0.02390
4459.19,0.02290
4453.4,0.02358
4447.62,0.02340
4441.83,0.02340
4436.05,0.02398
4430.26,0.02377
4424.47,0.02442
4418.69,0.02337
4412.9,0.02384
4407.11,0.02364
4401.33,0.02337
4395.54,0.02347
4389.76,0.02319
4383.97,0.02368
4378.18,0.02399
4372.4,0.02365
4366.61,0.02404
4360.83,0.02376
4355.04,0.02343
4349.25,0.02353
4343.47,0.02325
4337.68,0.02413
4331.89,0.02374
4326.11,0.02391
4320.32,0.02385
4314.54,0.02337
4308.75,0.02320
4302.96,0.02345
4297.18,0.02372
4291.39,0.02374
4285.61,0.02329
4279.82,0.02405
4274.03,0.02381
4268.25,0.02476
4262.46,0.02420
4256.67,0.02372
4250.89,0.02447
4245.1,0.02422
4239.32,0.02534
4233.53,0.02536
4227.74,0.02362
4221.96,0.02368
4216.17,0.02357
4210.39,0.02372
4204.6,0.02425
4198.81,0.02385
4193.03,0.02442
4187.24,0.02423
4181.45,0.02448
4175.67,0.02412
4169.88,0.02412
4164.1,0.02422
4158.31,0.02406
4152.52,0.02401
4146.74,0.02402
4140.95,0.02386
4135.17,0.02455
4129.38,0.02498
4123.59,0.02405
4117.81,0.02404
4112.02,0.02378
4106.23,0.02335
4100.45,0.02301
4094.66,0.02428
4088.88,0.02399
4083.09,0.02383
4077.3,0.02334
4071.52,0.02450
4065.73,0.02380
4059.95,0.02423
4054.16,0.02457
4048.37,0.02416
4042.59,0.02459
4036.8,0.02457
4031.02,0.02474
4025.23,0.02451
4019.44,0.02421
4013.66,0.02471
4007.87,0.02441
4002.08,0.02448
3996.3,0.02452
3990.51,0.02413
3984.73,0.02440
3978.94,0.02385
3973.15,0.02336
3967.37,0.02414
3961.58,0.02358
3955.8,0.02448
3950.01,0.02433
3944.22,0.02520
3938.44,0.02504
3932.65,0.02459
3926.86,0.02365
3921.08,0.02343
3915.29,0.02402
3909.51,0.02444
3903.72,0.02341
3897.93,0.02433
3892.15,0.02393
3886.36,0.02386
3880.58,0.02440
3874.79,0.02462
3869,0.02454
3863.22,0.02418
3857.43,0.02489
3851.64,0.02349
3845.86,0.02480
3840.07,0.02446
3834.29,0.02466
3828.5,0.02468
3822.71,0.02589
3816.93,0.02298
3811.14,0.02374
3805.36,0.02433
3799.57,0.02324
3793.78,0.02425
3788,0.02397
3782.21,0.02402
3776.42,0.02490
3770.64,0.02531
3764.85,0.02457
3759.07,0.02502
3753.28,0.02509
3747.49,0.02519
3741.71,0.02504
3735.92,0.02491
3730.14,0.02495
3724.35,0.02381
3718.56,0.02388
3712.78,0.02489
3706.99,0.02510
3701.2,0.02434
3695.42,0.02402
3689.63,0.02343
3683.85,0.02397
3678.06,0.02319
3672.27,0.02433
3666.49,0.02313
3660.7,0.02279
3654.92,0.02286
3649.13,0.02294
3643.34,0.02350
3637.56,0.02339
3631.77,0.02296
3625.98,0.02196
3620.2,0.02323
3614.41,0.02271
3608.63,0.02261
3602.84,0.02367
3597.05,0.02227
3591.27,0.02176
3585.48,0.02214
3579.7,0.02262
3573.91,0.02264
3568.12,0.02261
3562.34,0.02321
3556.55,0.02223
3550.76,0.02295
3544.98,0.02201
3539.19,0.02136
3533.41,0.02250
3527.62,0.02255
3521.83,0.02227
3516.05,0.02152
3510.26,0.02202
3504.48,0.02213
3498.69,0.02224
3492.9,0.02274
3487.12,0.02232
3481.33,0.02148
3475.55,0.02125
3469.76,0.02132
3463.97,0.02233
3458.19,0.02136
3452.4,0.02238
3446.61,0.02162
3440.83,0.02214
3435.04,0.02222
3429.26,0.02157
3423.47,0.02216
3417.68,0.02182
3411.9,0.02054
3406.11,0.02176
3400.33,0.02167
3394.54,0.02167
3388.75,0.02206
3382.97,0.02230
3377.18,0.02214
3371.39,0.02230
3365.61,0.02247
3359.82,0.02169
3354.04,0.02104
3348.25,0.02186
3342.46,0.02175
3336.68,0.02203
3330.89,0.02139
3325.11,0.02117
3319.32,0.02151
3313.53,0.02188
3307.75,0.02148
3301.96,0.02183
3296.17,0.02194
3290.39,0.02159
3284.6,0.02232
3278.82,0.02220
3273.03,0.02214
3267.24,0.02209
3261.46,0.02214
3255.67,0.02211
3249.89,0.02195
3244.1,0.02164
3238.31,0.02254
3232.53,0.02205
3226.74,0.02207
3220.95,0.02172
3215.17,0.02223
3209.38,0.02273
3203.6,0.02253
3197.81,0.02254
3192.02,0.02180
3186.24,0.02261
3180.45,0.02299
3174.67,0.02219
3168.88,0.02300
3163.09,0.02255
3157.31,0.02264
3151.52,0.02296
3145.73,0.02283
3139.95,0.02283
3134.16,0.02249
3128.38,0.02302
3122.59,0.02247
3116.8,0.02225
3111.02,0.02253
3105.23,0.02305
3099.45,0.02258
3093.66,0.02262
3087.87,0.02256
3082.09,0.02242
3076.3,0.02228
3070.51,0.02240
3064.73,0.02244
3058.94,0.02257
3053.16,0.02250
3047.37,0.02275
3041.58,0.02202
3035.8,0.02226
3030.01,0.02275
3024.23,0.02273
3018.44,0.02239
3012.65,0.02179
3006.87,0.02188
3001.08,0.02185
2995.29,0.02181
2989.51,0.02174
2983.72,0.02211
2977.94,0.02147
2972.15,0.02221
2966.36,0.02181
2960.58,0.02165
2954.79,0.02114
2949.01,0.02147
2943.22,0.02166
2937.43,0.02205
2931.65,0.02167
2925.86,0.02161
2920.08,0.02176
2914.29,0.02179
2908.5,0.02192
2902.72,0.02188
2896.93,0.02215
2891.14,0.02263
2885.36,0.02204
2879.57,0.02226
2873.79,0.02244
2868,0.02246
2862.21,0.02261
2856.43,0.02246
2850.64,0.02281
2844.86,0.02242
2839.07,0.02316
2833.28,0.02275
2827.5,0.02306
2821.71,0.02351
2815.92,0.02293
2810.14,0.02331
2804.35,0.02326
2798.57,0.02298
2792.78,0.02312
2786.99,0.02330
2781.21,0.02284
2775.42,0.02273
2769.64,0.02305
2763.85,0.02318
2758.06,0.02292
2752.28,0.02298
2746.49,0.02332
2740.7,0.02347
2734.92,0.02361
2729.13,0.02293
2723.35,0.02297
2717.56,0.02328
2711.77,0.02282
2705.99,0.02330
2700.2,0.02355
2694.42,0.02350
2688.63,0.02286
2682.84,0.02309
2677.06,0.02329
2671.27,0.02341
2665.48,0.02316
2659.7,0.02298
2653.91,0.02343
2648.13,0.02325
2642.34,0.02323
2636.55,0.02317
2630.77,0.02337
2624.98,0.02298
2619.2,0.02313
2613.41,0.02320
2607.62,0.02289
2601.84,0.02269
2596.05,0.02244
2590.26,0.02333
2584.48,0.02329
2578.69,0.02296
2572.91,0.02320
2567.12,0.02301
2561.33,0.02306
2555.55,0.02312
2549.76,0.02331
2543.98,0.02315
2538.19,0.02376
2532.4,0.02327
2526.62,0.02358
2520.83,0.02301
2515.04,0.02314
2509.26,0.02310
2503.47,0.02332
2497.69,0.02286
2491.9,0.02306
2486.11,0.02332
2480.33,0.02349
2474.54,0.02339
2468.76,0.02320
2462.97,0.02316
2457.18,0.02325
2451.4,0.02346
2445.61,0.02343
2439.82,0.02321
2434.04,0.02300
2428.25,0.02322
2422.47,0.02307
2416.68,0.02361
2410.89,0.02336
2405.11,0.02332
2399.32,0.02345
2393.54,0.02317
2387.75,0.02346
2381.96,0.02298
2376.18,0.02387
2370.39,0.02527
2364.61,0.02525
2358.82,0.02503
2353.03,0.02347
2347.25,0.02423
2341.46,0.02647
2335.67,0.02388
2329.89,0.02375
2324.1,0.02311
2318.32,0.02357
2312.53,0.02372
2306.74,0.02389
2300.96,0.02353
2295.17,0.02307
2289.39,0.02291
2283.6,0.02296
2277.81,0.02328
2272.03,0.02357
2266.24,0.02303
2260.45,0.02311
2254.67,0.02334
2248.88,0.02320
2243.1,0.02334
2237.31,0.02323
2231.52,0.02316
2225.74,0.02314
2219.95,0.02335
2214.17,0.02313
2208.38,0.02324
2202.59,0.02326
2196.81,0.02264
2191.02,0.02298
2185.23,0.02327
2179.45,0.02246
2173.66,0.02277
2167.88,0.02303
2162.09,0.02283
2156.3,0.02297
2150.52,0.02323
2144.73,0.02282
2138.95,0.02311
2133.16,0.02323
2127.37,0.02304
2121.59,0.02273
2115.8,0.02313
2110.01,0.02299
2104.23,0.02275
2098.44,0.02290
2092.66,0.02266
2086.87,0.02280
2081.08,0.02292
2075.3,0.02297
2069.51,0.02305
2063.73,0.02308
2057.94,0.02297
2052.15,0.02272
2046.37,0.02221
2040.58,0.02262
2034.79,0.02256
2029.01,0.02260
2023.22,0.02324
2017.44,0.02300
2011.65,0.02250
2005.86,0.02274
2000.08,0.02269
1994.29,0.02260
1988.51,0.02265
1982.72,0.02298
1976.93,0.02296
1971.15,0.02268
1965.36,0.02267
1959.57,0.02302
1953.79,0.02255
1948,0.02270
1942.22,0.02262
1936.43,0.02264
1930.64,0.02271
1924.86,0.02286
1919.07,0.02284
1913.29,0.02284
1907.5,0.02270
1901.71,0.02261
1895.93,0.02256
1890.14,0.02238
1884.35,0.02225
1878.57,0.02230
1872.78,0.02279
1867,0.02238
1861.21,0.02230
1855.42,0.02229
1849.64,0.02278
1843.85,0.02267
1838.07,0.02194
1832.28,0.02235
1826.49,0.02232
1820.71,0.02204
1814.92,0.02223
1809.13,0.02215
1803.35,0.02206
1797.56,0.02154
1791.78,0.02111
1785.99,0.02134
1780.2,0.02122
1774.42,0.02115
1768.63,0.02045
1762.85,0.02076
1757.06,0.01954
1751.27,0.01934
1745.49,0.01961
1739.7,0.02011
1733.92,0.02115
1728.13,0.02163
1722.34,0.02234
1716.56,0.02174
1710.77,0.02225
1704.98,0.02226
1699.2,0.02177
1693.41,0.02135
1687.63,0.02120
1681.84,0.02114
1676.05,0.02059
1670.27,0.02081
1664.48,0.01981
1658.7,0.02033
1652.91,0.01967
1647.12,0.02108
1641.34,0.02048
1635.55,0.02006
1629.76,0.02077
1623.98,0.02086
1618.19,0.02118
1612.41,0.02075
1606.62,0.02079
1600.83,0.02062
1595.05,0.02090
1589.26,0.02023
1583.48,0.02015
1577.69,0.02031
1571.9,0.01999
1566.12,0.02012
1560.33,0.02027
1554.54,0.01978
1548.76,0.01992
1542.97,0.02118
1537.19,0.01980
1531.4,0.02074
1525.61,0.02027
1519.83,0.02069
1514.04,0.02102
1508.26,0.02145
1502.47,0.02047
1496.68,0.02025
1490.9,0.02092
1485.11,0.02023
1479.32,0.02057
1473.54,0.02015
1467.75,0.02000
1461.97,0.02024
1456.18,0.02050
1450.39,0.02043
1444.61,0.02020
1438.82,0.02070
1433.04,0.02037
1427.25,0.02036
1421.46,0.01996
1415.68,0.01961
1409.89,0.02008
1404.1,0.01986
1398.32,0.01944
1392.53,0.01970
1386.75,0.01978
1380.96,0.01997
1375.17,0.01921
1369.39,0.01952
1363.6,0.01956
1357.82,0.01972
1352.03,0.01920
1346.24,0.01954
1340.46,0.01946
1334.67,0.01903
1328.88,0.01877
1323.1,0.01884
1317.31,0.01866
1311.53,0.01863
1305.74,0.01871
1299.95,0.01851
1294.17,0.01922
1288.38,0.01941
1282.6,0.01990
1276.81,0.02046
1271.02,0.02083
1265.24,0.02070
1259.45,0.02105
1253.66,0.02164
1247.88,0.02194
1242.09,0.02178
1236.31,0.02134
1230.52,0.02080
1224.73,0.02080
1218.95,0.02060
1213.16,0.02019
1207.38,0.02074
1201.59,0.02053
1195.8,0.01968
1190.02,0.01988
1184.23,0.01947
1178.45,0.01948
1172.66,0.01935
1166.87,0.01945
1161.09,0.01952
1155.3,0.01981
1149.51,0.01879
1143.73,0.01941
1137.94,0.01933
1132.16,0.01943
1126.37,0.01939
1120.58,0.02017
1114.8,0.02017
1109.01,0.02013
1103.23,0.01968
1097.44,0.01960
1091.65,0.01997
1085.87,0.01941
1080.08,0.01999
1074.29,0.02065
1068.51,0.02111
1062.72,0.02160
1056.94,0.02148
1051.15,0.02177
1045.36,0.02080
1039.58,0.02099
1033.79,0.02121
1028.01,0.02054
1022.22,0.02091
1016.43,0.02091
1010.65,0.02194
1004.86,0.02243
999.075,0.02330
993.288,0.02239
987.502,0.02197
981.716,0.02245
975.93,0.02214
970.144,0.02192
964.358,0.02193
958.572,0.02135
952.785,0.02180
946.999,0.02141
941.213,0.02136
935.427,0.02103
929.641,0.02149
923.855,0.02115
918.068,0.02069
912.282,0.02073
906.496,0.02114
900.71,0.02078
894.924,0.02055
889.138,0.02054
883.352,0.02083
877.565,0.02038
871.779,0.02066
865.993,0.02091
860.207,0.02019
854.421,0.02031
848.635,0.02034
842.849,0.02063
837.062,0.01987
831.276,0.02019
825.49,0.01941
819.704,0.01952
813.918,0.02002
808.132,0.02001
802.346,0.02005
796.559,0.01986
790.773,0.01953
784.987,0.01945
779.201,0.01981
773.415,0.01996
767.629,0.01944
761.843,0.01942
756.056,0.01807
750.27,0.01848
744.484,0.01904
738.698,0.02003
732.912,0.01863
727.126,0.01870
721.34,0.01829
715.553,0.01871
709.767,0.01908
703.981,0.01886
698.195,0.01876
692.409,0.01931
686.623,0.02022
680.837,0.01908
675.05,0.01929
669.264,0.01983
663.478,0.01869
657.692,0.01851
651.906,0.01803
646.12,0.01803
640.333,0.01818
634.547,0.01897
628.761,0.01724
622.975,0.01713
617.189,0.01514
611.403,0.01718
605.617,0.01719
599.83,0.01434