File: 01_Data/PC/FTIR/IS/PC_IS_T_230508_R5.dpt
7496.92,0.02799
7491.13,0.03692
7485.34,0.03191
7479.56,0.02763
7473.77,0.01875
7467.99,0.03036
7462.2,0.01326
7456.41,0.02082
7450.63,0.01874
7444.84,0.02911
7439.06,0.03150
7433.27,0.02772
7427.48,0.03589
7421.7,0.03177
7415.91,0.02698
7410.12,0.03049
7404.34,0.02813
7398.55,0.01658
7392.77,0.02732
7386.98,0.02511
7381.19,0.02940
7375.41,0.03175
7369.62,0.02387
7363.84,0.03053
7358.05,0.02522
7352.26,0.02573
7346.48,0.02909
7340.69,0.02217
7334.9,0.02996
7329.12,0.03057
7323.33,0.02180
7317.55,0.02208
7311.76,0.02951
7305.97,0.02368
7300.19,0.02657
7294.4,0.03044
7288.62,0.02305
7282.83,0.02652
7277.04,0.02555
7271.26,0.01990
7265.47,0.02185
7259.68,0.02994
7253.9,0.02494
7248.11,0.02552
7242.33,0.03183
7236.54,0.01783
7230.75,0.02204
7224.97,0.02725
7219.18,0.02959
7213.4,0.02002
7207.61,0.01936
7201.82,0.00884
7196.04,0.02823
7190.25,0.02035
7184.46,0.01939
7178.68,0.02589
7172.89,0.01860
7167.11,0.03152
7161.32,0.03235
7155.53,0.02432
7149.75,0.02919
7143.96,0.02827
7138.18,0.02423
7132.39,0.02089
7126.6,0.02731
7120.82,0.03056
7115.03,0.02407
7109.24,0.03171
7103.46,0.01963
7097.67,0.02185
7091.89,0.02625
7086.1,0.02984
7080.31,0.02886
7074.53,0.02472
7068.74,0.02150
7062.96,0.02112
7057.17,0.02152
7051.38,0.02823
7045.6,0.01950
7039.81,0.02189
7034.02,0.02078
7028.24,0.01864
7022.45,0.02471
7016.67,0.02568
7010.88,0.02725
7005.09,0.02522
6999.31,0.02325
6993.52,0.01915
6987.74,0.02701
6981.95,0.02287
6976.16,0.01902
6970.38,0.02208
6964.59,0.02468
6958.8,0.02441
6953.02,0.01892
6947.23,0.01977
6941.45,0.02502
6935.66,0.03100
6929.87,0.02707
6924.09,0.02763
6918.3,0.02803
6912.52,0.02985
6906.73,0.02292
6900.94,0.02706
6895.16,0.02873
6889.37,0.02275
6883.59,0.02696
6877.8,0.02686
6872.01,0.02707
6866.23,0.02611
6860.44,0.02716
6854.65,0.02807
6848.87,0.02176
6843.08,0.01702
6837.3,0.02539
6831.51,0.02170
6825.72,0.01782
6819.94,0.02620
6814.15,0.02542
6808.37,0.02701
6802.58,0.02269
6796.79,0.02600
6791.01,0.02972
6785.22,0.02326
6779.43,0.02375
6773.65,0.03152
6767.86,0.02443
6762.08,0.02556
6756.29,0.02400
6750.5,0.02437
6744.72,0.03104
6738.93,0.03069
6733.15,0.02772
6727.36,0.01824
6721.57,0.02118
6715.79,0.02878
6710,0.02258
6704.21,0.02080
6698.43,0.02113
6692.64,0.02261
6686.86,0.02223
6681.07,0.03026
6675.28,0.02518
6669.5,0.02103
6663.71,0.02610
6657.93,0.02531
6652.14,0.02366
6646.35,0.03132
6640.57,0.02683
6634.78,0.02403
6628.99,0.01838
6623.21,0.02078
6617.42,0.02277
6611.64,0.01980
6605.85,0.02008
6600.06,0.02403
6594.28,0.02428
6588.49,0.02274
6582.71,0.02028
6576.92,0.02040
6571.13,0.02463
6565.35,0.02347
6559.56,0.02241
6553.77,0.02567
6547.99,0.01982
6542.2,0.02604
6536.42,0.02011
6530.63,0.02321
6524.84,0.02476
6519.06,0.02599
6513.27,0.02598
6507.49,0.02507
6501.7,0.02704
6495.91,0.01476
6490.13,0.02447
6484.34,0.02521
6478.55,0.02554
6472.77,0.02407
6466.98,0.02573
6461.2,0.02619
6455.41,0.02196
6449.62,0.02441
6443.84,0.02441
6438.05,0.01857
6432.27,0.02282
6426.48,0.02671
6420.69,0.01750
6414.91,0.02254
6409.12,0.02595
6403.33,0.01914
6397.55,0.02334
6391.76,0.02523
6385.98,0.02261
6380.19,0.02411
6374.4,0.02474
6368.62,0.02348
6362.83,0.02689
6357.05,0.01997
6351.26,0.02435
6345.47,0.02253
6339.69,0.02585
6333.9,0.02056
6328.12,0.02352
6322.33,0.02594
6316.54,0.02375
6310.76,0.02797
6304.97,0.02424
6299.18,0.02379
6293.4,0.02626
6287.61,0.02669
6281.83,0.02389
6276.04,0.01921
6270.25,0.02086
6264.47,0.01903
6258.68,0.02228
6252.9,0.02317
6247.11,0.02430
6241.32,0.01993
6235.54,0.02279
6229.75,0.02386
6223.96,0.02516
6218.18,0.02703
6212.39,0.02233
6206.61,0.02401
6200.82,0.02543
6195.03,0.02376
6189.25,0.02618
6183.46,0.02374
6177.68,0.02227
6171.89,0.02343
6166.1,0.02056
6160.32,0.02357
6154.53,0.02122
6148.74,0.01899
6142.96,0.01946
6137.17,0.02445
6131.39,0.02703
6125.6,0.02530
6119.81,0.02307
6114.03,0.02271
6108.24,0.02338
6102.46,0.02101
6096.67,0.02234
6090.88,0.02256
6085.1,0.02210
6079.31,0.02188
6073.52,0.02451
6067.74,0.02390
6061.95,0.02394
6056.17,0.02304
6050.38,0.02054
6044.59,0.02412
6038.81,0.02310
6033.02,0.02322
6027.24,0.02275
6021.45,0.02287
6015.66,0.02086
6009.88,0.02649
6004.09,0.02459
5998.3,0.02545
5992.52,0.02366
5986.73,0.02384
5980.95,0.02377
5975.16,0.02272
5969.37,0.02711
5963.59,0.02002
5957.8,0.02270
5952.02,0.02490
5946.23,0.02422
5940.44,0.01952
5934.66,0.02400
5928.87,0.02709
5923.08,0.02653
5917.3,0.02264
5911.51,0.02319
5905.73,0.02218
5899.94,0.02412
5894.15,0.02252
5888.37,0.02453
5882.58,0.02457
5876.8,0.02357
5871.01,0.02200
5865.22,0.02290
5859.44,0.02498
5853.65,0.02155
5847.86,0.02250
5842.08,0.02471
5836.29,0.02400
5830.51,0.02324
5824.72,0.02467
5818.93,0.02351
5813.15,0.02748
5807.36,0.02518
5801.58,0.02560
5795.79,0.02264
5790,0.02157
5784.22,0.02183
5778.43,0.02137
5772.65,0.02194
5766.86,0.02339
5761.07,0.02167
5755.29,0.02227
5749.5,0.02306
5743.71,0.02355
5737.93,0.02290
5732.14,0.02375
5726.36,0.02673
5720.57,0.02518
5714.78,0.02196
5709,0.02327
5703.21,0.01993
5697.43,0.02481
5691.64,0.02295
5685.85,0.02304
5680.07,0.02205
5674.28,0.02253
5668.49,0.02249
5662.71,0.02212
5656.92,0.02166
5651.14,0.02057
5645.35,0.02314
5639.56,0.02242
5633.78,0.02450
5627.99,0.02349
5622.21,0.02485
5616.42,0.02427
5610.63,0.02534
5604.85,0.02324
5599.06,0.02348
5593.27,0.02207
5587.49,0.02394
5581.7,0.02225
5575.92,0.02190
5570.13,0.02199
5564.34,0.02279
5558.56,0.02408
5552.77,0.02493
5546.99,0.02182
5541.2,0.02436
5535.41,0.02177
5529.63,0.02197
5523.84,0.02452
5518.05,0.02340
5512.27,0.02206
5506.48,0.02577
5500.7,0.02731
5494.91,0.02380
5489.12,0.02136
5483.34,0.02370
5477.55,0.02360
5471.77,0.02570
5465.98,0.02555
5460.19,0.02421
5454.41,0.02539
5448.62,0.02257
5442.83,0.02504
5437.05,0.02410
5431.26,0.02569
5425.48,0.02098
5419.69,0.02111
5413.9,0.02446
5408.12,0.02267
5402.33,0.01991
5396.55,0.02121
5390.76,0.02179
5384.97,0.02233
5379.19,0.02301
5373.4,0.02191
5367.61,0.02249
5361.83,0.02074
5356.04,0.02376
5350.26,0.02385
5344.47,0.02266
5338.68,0.02473
5332.9,0.02444
5327.11,0.02373
5321.33,0.02295
5315.54,0.02454
5309.75,0.02406
5303.97,0.02202
5298.18,0.02400
5292.39,0.02447
5286.61,0.02477
5280.82,0.02308
5275.04,0.02392
5269.25,0.02504
5263.46,0.02328
5257.68,0.02428
5251.89,0.02326
5246.11,0.02523
5240.32,0.02306
5234.53,0.02290
5228.75,0.02355
5222.96,0.02233
5217.18,0.02251
5211.39,0.02340
5205.6,0.02393
5199.82,0.02314
5194.03,0.02159
5188.24,0.02299
5182.46,0.02639
5176.67,0.02422
5170.89,0.02214
5165.1,0.02268
5159.31,0.02277
5153.53,0.02323
5147.74,0.02319
5141.96,0.02423
5136.17,0.02210
5130.38,0.02314
5124.6,0.02319
5118.81,0.02458
5113.02,0.02451
5107.24,0.02233
5101.45,0.02436
5095.67,0.02324
5089.88,0.02398
5084.09,0.02393
5078.31,0.02341
5072.52,0.02343
5066.74,0.02441
5060.95,0.02505
5055.16,0.02371
5049.38,0.02325
5043.59,0.02298
5037.8,0.02271
5032.02,0.02525
5026.23,0.02364
5020.45,0.02468
5014.66,0.02273
5008.87,0.02496
5003.09,0.02262
4997.3,0.02368
4991.52,0.02439
4985.73,0.02354
4979.94,0.02276
4974.16,0.02458
4968.37,0.02364
4962.58,0.02428
4956.8,0.02516
4951.01,0.02325
4945.23,0.02137
4939.44,0.02183
4933.65,0.02367
4927.87,0.02369
4922.08,0.02454
4916.3,0.02461
4910.51,0.02376
4904.72,0.02179
4898.94,0.02349
4893.15,0.02456
4887.36,0.02331
4881.58,0.02357
4875.79,0.02350
4870.01,0.02313
4864.22,0.02275
4858.43,0.02387
4852.65,0.02247
4846.86,0.02287
4841.08,0.02511
4835.29,0.02408
4829.5,0.02355
4823.72,0.02523
4817.93,0.02545
4812.14,0.02289
4806.36,0.02276
4800.57,0.02397
4794.79,0.02421
4789,0.02459
4783.21,0.02245
4777.43,0.02276
4771.64,0.02415
4765.86,0.02396
4760.07,0.02430
4754.28,0.02303
4748.5,0.02391
4742.71,0.02300
4736.92,0.02408
4731.14,0.02332
4725.35,0.02317
4719.57,0.02423
4713.78,0.02373
4707.99,0.02371
4702.21,0.02383
4696.42,0.02358
4690.64,0.02465
4684.85,0.02517
4679.06,0.02468
4673.28,0.02364
4667.49,0.02425
4661.7,0.02480
4655.92,0.02448
4650.13,0.02358
4644.35,0.02317
4638.56,0.02319
4632.77,0.02342
4626.99,0.02396
4621.2,0.02392
4615.42,0.02356
4609.63,0.02422
4603.84,0.02417
4598.06,0.02327
4592.27,0.02352
4586.49,0.02305
4580.7,0.02388
4574.91,0.02347
4569.13,0.02424
4563.34,0.02315
4557.55,0.02381
4551.77,0.02386
4545.98,0.02399
4540.2,0.02372
4534.41,0.02340
4528.62,0.02406
4522.84,0.02494
4517.05,0.02421
4511.27,0.02488
4505.48,0.02456
4499.69,0.02534
4493.91,0.02442
4488.12,0.02363
4482.33,0.02404
4476.55,0.02386
4470.76,0.02413
4464.98,0.02416
4459.19,0.02478
4453.4,0.02379
4447.62,0.02355
4441.83,0.02371
4436.05,0.02342
4430.26,0.02367
4424.47,0.02324
4418.69,0.02376
4412.9,0.02440
4407.11,0.02425
4401.33,0.02375
4395.54,0.02458
4389.76,0.02407
4383.97,0.02369
4378.18,0.02377
4372.4,0.02361
4366.61,0.02504
4360.83,0.02470
4355.04,0.02502
4349.25,0.02423
4343.47,0.02418
4337.68,0.02356
4331.89,0.02504
4326.11,0.02466
4320.32,0.02505
4314.54,0.02545
4308.75,0.02352
4302.96,0.02387
4297.18,0.02422
4291.39,0.02415
4285.61,0.02436
4279.82,0.02456
4274.03,0.02437
4268.25,0.02437
4262.46,0.02395
4256.67,0.02340
4250.89,0.02479
4245.1,0.02401
4239.32,0.02482
4233.53,0.02362
4227.74,0.02366
4221.96,0.02441
4216.17,0.02419
4210.39,0.02459
4204.6,0.02456
4198.81,0.02424
4193.03,0.02417
4187.24,0.02434
4181.45,0.02361
4175.67,0.02410
4169.88,0.02511
4164.1,0.02398
4158.31,0.02400
4152.52,0.02429
4146.74,0.02430
4140.95,0.02414
4135.17,0.02407
4129.38,0.02456
4123.59,0.02439
4117.81,0.02412
4112.02,0.02326
4106.23,0.02406
4100.45,0.02397
4094.66,0.02522
4088.88,0.02409
4083.09,0.02481
4077.3,0.02465
4071.52,0.02440
4065.73,0.02374
4059.95,0.02479
4054.16,0.02362
4048.37,0.02416
4042.59,0.02426
4036.8,0.02400
4031.02,0.02497
4025.23,0.02487
4019.44,0.02511
4013.66,0.02408
4007.87,0.02406
4002.08,0.02494
3996.3,0.02439
3990.51,0.02464
3984.73,0.02430
3978.94,0.02456
3973.15,0.02379
3967.37,0.02410
3961.58,0.02512
3955.8,0.02455
3950.01,0.02474
3944.22,0.02439
3938.44,0.02463
3932.65,0.02410
3926.86,0.02499
3921.08,0.02483
3915.29,0.02463
3909.51,0.02453
3903.72,0.02456
3897.93,0.02403
3892.15,0.02391
3886.36,0.02555
3880.58,0.02463
3874.79,0.02493
3869,0.02398
3863.22,0.02401
3857.43,0.02362
3851.64,0.02429
3845.86,0.02555
3840.07,0.02485
3834.29,0.02464
3828.5,0.02511
3822.71,0.02594
3816.93,0.02437
3811.14,0.02446
3805.36,0.02494
3799.57,0.02431
3793.78,0.02399
3788,0.02525
3782.21,0.02381
3776.42,0.02440
3770.64,0.02467
3764.85,0.02430
3759.07,0.02371
3753.28,0.02579
3747.49,0.02277
3741.71,0.02454
3735.92,0.02370
3730.14,0.02451
3724.35,0.02404
3718.56,0.02443
3712.78,0.02474
3706.99,0.02305
3701.2,0.02359
3695.42,0.02429
3689.63,0.02340
3683.85,0.02397
3678.06,0.02525
3672.27,0.02325
3666.49,0.02329
3660.7,0.02438
3654.92,0.02377
3649.13,0.02240
3643.34,0.02322
3637.56,0.02304
3631.77,0.02333
3625.98,0.02253
3620.2,0.02325
3614.41,0.02378
3608.63,0.02256
3602.84,0.02283
3597.05,0.02288
3591.27,0.02265
3585.48,0.02207
3579.7,0.02298
3573.91,0.02298
3568.12,0.02278
3562.34,0.02261
3556.55,0.02183
3550.76,0.02175
3544.98,0.02244
3539.19,0.02254
3533.41,0.02180
3527.62,0.02165
3521.83,0.02142
3516.05,0.02108
3510.26,0.02201
3504.48,0.02236
3498.69,0.02142
3492.9,0.02146
3487.12,0.02235
3481.33,0.02287
3475.55,0.02256
3469.76,0.02193
3463.97,0.02157
3458.19,0.02213
3452.4,0.02244
3446.61,0.02245
3440.83,0.02253
3435.04,0.02215
3429.26,0.02144
3423.47,0.02256
3417.68,0.02171
3411.9,0.02171
3406.11,0.02218
3400.33,0.02172
3394.54,0.02159
3388.75,0.02222
3382.97,0.02174
3377.18,0.02176
3371.39,0.02196
3365.61,0.02198
3359.82,0.02167
3354.04,0.02193
3348.25,0.02264
3342.46,0.02272
3336.68,0.02247
3330.89,0.02217
3325.11,0.02197
3319.32,0.02161
3313.53,0.02178
3307.75,0.02200
3301.96,0.02247
3296.17,0.02180
3290.39,0.02219
3284.6,0.02161
3278.82,0.02192
3273.03,0.02158
3267.24,0.02234
3261.46,0.02163
3255.67,0.02186
3249.89,0.02229
3244.1,0.02290
3238.31,0.02293
3232.53,0.02248
3226.74,0.02184
3220.95,0.02240
3215.17,0.02229
3209.38,0.02255
3203.6,0.02272
3197.81,0.02295
3192.02,0.02278
3186.24,0.02198
3180.45,0.02325
3174.67,0.02210
3168.88,0.02278
3163.09,0.02245
3157.31,0.02281
3151.52,0.02293
3145.73,0.02283
3139.95,0.02307
3134.16,0.02299
3128.38,0.02230
3122.59,0.02259
3116.8,0.02270
3111.02,0.02295
3105.23,0.02293
3099.45,0.02289
3093.66,0.02261
3087.87,0.02284
3082.09,0.02244
3076.3,0.02275
3070.51,0.02297
3064.73,0.02317
3058.94,0.02223
3053.16,0.02258
3047.37,0.02294
3041.58,0.02236
3035.8,0.02272
3030.01,0.02299
3024.23,0.02290
3018.44,0.02299
3012.65,0.02268
3006.87,0.02232
3001.08,0.02228
2995.29,0.02206
2989.51,0.02273
2983.72,0.02243
2977.94,0.02202
2972.15,0.02242
2966.36,0.02200
2960.58,0.02146
2954.79,0.02138
2949.01,0.02135
2943.22,0.02118
2937.43,0.02205
2931.65,0.02187
2925.86,0.02164
2920.08,0.02169
2914.29,0.02165
2908.5,0.02227
2902.72,0.02269
2896.93,0.02302
2891.14,0.02244
2885.36,0.02222
2879.57,0.02244
2873.79,0.02215
2868,0.02232
2862.21,0.02193
2856.43,0.02246
2850.64,0.02263
2844.86,0.02285
2839.07,0.02320
2833.28,0.02314
2827.5,0.02347
2821.71,0.02346
2815.92,0.02320
2810.14,0.02383
2804.35,0.02334
2798.57,0.02364
2792.78,0.02382
2786.99,0.02348
2781.21,0.02356
2775.42,0.02347
2769.64,0.02411
2763.85,0.02365
2758.06,0.02293
2752.28,0.02340
2746.49,0.02370
2740.7,0.02277
2734.92,0.02397
2729.13,0.02328
2723.35,0.02336
2717.56,0.02372
2711.77,0.02315
2705.99,0.02370
2700.2,0.02341
2694.42,0.02356
2688.63,0.02378
2682.84,0.02337
2677.06,0.02276
2671.27,0.02351
2665.48,0.02351
2659.7,0.02339
2653.91,0.02340
2648.13,0.02417
2642.34,0.02350
2636.55,0.02349
2630.77,0.02357
2624.98,0.02360
2619.2,0.02368
2613.41,0.02329
2607.62,0.02325
2601.84,0.02373
2596.05,0.02360
2590.26,0.02383
2584.48,0.02334
2578.69,0.02360
2572.91,0.02338
2567.12,0.02381
2561.33,0.02383
2555.55,0.02358
2549.76,0.02353
2543.98,0.02328
2538.19,0.02377
2532.4,0.02364
2526.62,0.02307
2520.83,0.02360
2515.04,0.02375
2509.26,0.02327
2503.47,0.02370
2497.69,0.02358
2491.9,0.02333
2486.11,0.02342
2480.33,0.02333
2474.54,0.02358
2468.76,0.02336
2462.97,0.02320
2457.18,0.02370
2451.4,0.02309
2445.61,0.02344
2439.82,0.02340
2434.04,0.02373
2428.25,0.02349
2422.47,0.02347
2416.68,0.02318
2410.89,0.02350
2405.11,0.02339
2399.32,0.02342
2393.54,0.02342
2387.75,0.02421
2381.96,0.02401
2376.18,0.02431
2370.39,0.02488
2364.61,0.02648
2358.82,0.02514
2353.03,0.02259
2347.25,0.02343
2341.46,0.02343
2335.67,0.02329
2329.89,0.02475
2324.1,0.02472
2318.32,0.02364
2312.53,0.02371
2306.74,0.02424
2300.96,0.02370
2295.17,0.02381
2289.39,0.02370
2283.6,0.02370
2277.81,0.02300
2272.03,0.02350
2266.24,0.02359
2260.45,0.02360
2254.67,0.02347
2248.88,0.02351
2243.1,0.02350
2237.31,0.02345
2231.52,0.02329
2225.74,0.02332
2219.95,0.02328
2214.17,0.02343
2208.38,0.02289
2202.59,0.02332
2196.81,0.02355
2191.02,0.02290
2185.23,0.02327
2179.45,0.02384
2173.66,0.02299
2167.88,0.02333
2162.09,0.02337
2156.3,0.02335
2150.52,0.02327
2144.73,0.02347
2138.95,0.02353
2133.16,0.02323
2127.37,0.02310
2121.59,0.02317
2115.8,0.02337
2110.01,0.02349
2104.23,0.02330
2098.44,0.02343
2092.66,0.02333
2086.87,0.02295
2081.08,0.02335
2075.3,0.02354
2069.51,0.02318
2063.73,0.02312
2057.94,0.02311
2052.15,0.02329
2046.37,0.02307
2040.58,0.02307
2034.79,0.02370
2029.01,0.02311
2023.22,0.02312
2017.44,0.02313
2011.65,0.02310
2005.86,0.02306
2000.08,0.02334
1994.29,0.02326
1988.51,0.02310
1982.72,0.02311
1976.93,0.02331
1971.15,0.02293
1965.36,0.02331
1959.57,0.02316
1953.79,0.02307
1948,0.02319
1942.22,0.02299
1936.43,0.02292
1930.64,0.02309
1924.86,0.02290
1919.07,0.02307
1913.29,0.02300
1907.5,0.02311
1901.71,0.02333
1895.93,0.02294
1890.14,0.02250
1884.35,0.02282
1878.57,0.02263
1872.78,0.02284
1867,0.02271
1861.21,0.02295
1855.42,0.02315
1849.64,0.02258
1843.85,0.02248
1838.07,0.02252
1832.28,0.02260
1826.49,0.02231
1820.71,0.02217
1814.92,0.02252
1809.13,0.02247
1803.35,0.02215
1797.56,0.02237
1791.78,0.02156
1785.99,0.02166
1780.2,0.02152
1774.42,0.02200
1768.63,0.02014
1762.85,0.02017
1757.06,0.01946
1751.27,0.02029
1745.49,0.01988
1739.7,0.02078
1733.92,0.02046
1728.13,0.02204
1722.34,0.02288
1716.56,0.02248
1710.77,0.02261
1704.98,0.02281
1699.2,0.02141
1693.41,0.02151
1687.63,0.02199
1681.84,0.02081
1676.05,0.02115
1670.27,0.02104
1664.48,0.02070
1658.7,0.02087
1652.91,0.01957
1647.12,0.01996
1641.34,0.02071
1635.55,0.02093
1629.76,0.02082
1623.98,0.02086
1618.19,0.02130
1612.41,0.02107
1606.62,0.02095
1600.83,0.02115
1595.05,0.02101
1589.26,0.02075
1583.48,0.02106
1577.69,0.02112
1571.9,0.02137
1566.12,0.02056
1560.33,0.02015
1554.54,0.01992
1548.76,0.02049
1542.97,0.02034
1537.19,0.01967
1531.4,0.02103
1525.61,0.02102
1519.83,0.02125
1514.04,0.02073
1508.26,0.02033
1502.47,0.02063
1496.68,0.02062
1490.9,0.02147
1485.11,0.02063
1479.32,0.02071
1473.54,0.01992
1467.75,0.02046
1461.97,0.02105
1456.18,0.02082
1450.39,0.02070
1444.61,0.02084
1438.82,0.02058
1433.04,0.02010
1427.25,0.02057
1421.46,0.02032
1415.68,0.01999
1409.89,0.01982
1404.1,0.02033
1398.32,0.02124
1392.53,0.01993
1386.75,0.01991
1380.96,0.01978
1375.17,0.01990
1369.39,0.02003
1363.6,0.01946
1357.82,0.01949
1352.03,0.01962
1346.24,0.01952
1340.46,0.01980
1334.67,0.01930
1328.88,0.01935
1323.1,0.01930
1317.31,0.01919
1311.53,0.01820
1305.74,0.01877
1299.95,0.01886
1294.17,0.01929
1288.38,0.01998
1282.6,0.02042
1276.81,0.02085
1271.02,0.02110
1265.24,0.02134
1259.45,0.02185
1253.66,0.02182
1247.88,0.02208
1242.09,0.02170
1236.31,0.02156
1230.52,0.02113
1224.73,0.02119
1218.95,0.02127
1213.16,0.02074
1207.38,0.02020
1201.59,0.02089
1195.8,0.01997
1190.02,0.01977
1184.23,0.01981
1178.45,0.01978
1172.66,0.01964
1166.87,0.01962
1161.09,0.01903
1155.3,0.01896
1149.51,0.01863
1143.73,0.01951
1137.94,0.01966
1132.16,0.01992
1126.37,0.02029
1120.58,0.02070
1114.8,0.02061
1109.01,0.02018
1103.23,0.02072
1097.44,0.01966
1091.65,0.02010
1085.87,0.01999
1080.08,0.01980
1074.29,0.02121
1068.51,0.02147
1062.72,0.02122
1056.94,0.02068
1051.15,0.02117
1045.36,0.02122
1039.58,0.02121
1033.79,0.02083
1028.01,0.02026
1022.22,0.02084
1016.43,0.02075
1010.65,0.02177
1004.86,0.02252
999.075,0.02306
993.288,0.02281
987.502,0.02282
981.716,0.02328
975.93,0.02259
970.144,0.02260
964.358,0.02226
958.572,0.02157
952.785,0.02179
946.999,0.02181
941.213,0.02127
935.427,0.02247
929.641,0.02128
923.855,0.02139
918.068,0.02165
912.282,0.02120
906.496,0.02153
900.71,0.02078
894.924,0.02110
889.138,0.02097
883.352,0.02160
877.565,0.02106
871.779,0.02016
865.993,0.02114
860.207,0.02143
854.421,0.02124
848.635,0.02052
842.849,0.02074
837.062,0.02072
831.276,0.02014
825.49,0.02059
819.704,0.02062
813.918,0.02119
808.132,0.02037
802.346,0.01984
796.559,0.01927
790.773,0.01982
784.987,0.02004
779.201,0.02014
773.415,0.01915
767.629,0.01942
761.843,0.01935
756.056,0.01884
750.27,0.01917
744.484,0.01917
738.698,0.01919
732.912,0.02072
727.126,0.01989
721.34,0.01934
715.553,0.01902
709.767,0.01859
703.981,0.01916
698.195,0.01885
692.409,0.01795
686.623,0.01905
680.837,0.01916
675.05,0.01842
669.264,0.01577
663.478,0.01860
657.692,0.01763
651.906,0.01824
646.12,0.01745
640.333,0.01680
634.547,0.01887
628.761,0.01818
622.975,0.01781
617.189,0.01750
611.403,0.01631
605.617,0.01578
599.83,0.01814