File: 01_Data/PC/FTIR/IS/PC_IS_T_230508_R4.dpt
7496.92,0.02120
7491.13,0.01354
7485.34,0.01283
7479.56,0.03690
7473.77,0.02507
7467.99,0.02546
7462.2,0.02696
7456.41,0.02592
7450.63,0.02061
7444.84,0.02026
7439.06,0.03261
7433.27,0.03875
7427.48,0.01246
7421.7,0.03137
7415.91,0.02888
7410.12,0.02465
7404.34,0.03313
7398.55,0.02642
7392.77,0.02285
7386.98,0.01985
7381.19,0.02714
7375.41,0.01952
7369.62,0.02703
7363.84,0.03038
7358.05,0.02878
7352.26,0.01749
7346.48,0.02082
7340.69,0.02887
7334.9,0.02622
7329.12,0.02421
7323.33,0.03520
7317.55,0.01752
7311.76,0.01388
7305.97,0.02031
7300.19,0.01727
7294.4,0.02757
7288.62,0.02803
7282.83,0.02838
7277.04,0.03120
7271.26,0.02128
7265.47,0.02724
7259.68,0.02574
7253.9,0.03551
7248.11,0.02142
7242.33,0.02619
7236.54,0.03436
7230.75,0.03002
7224.97,0.02929
7219.18,0.02222
7213.4,0.03483
7207.61,0.02088
7201.82,0.01138
7196.04,0.01848
7190.25,0.02660
7184.46,0.02778
7178.68,0.02423
7172.89,0.03277
7167.11,0.02799
7161.32,0.01908
7155.53,0.02500
7149.75,0.02319
7143.96,0.03040
7138.18,0.02627
7132.39,0.03051
7126.6,0.02024
7120.82,0.02783
7115.03,0.02557
7109.24,0.02388
7103.46,0.02136
7097.67,0.01741
7091.89,0.03275
7086.1,0.02090
7080.31,0.01655
7074.53,0.02366
7068.74,0.02208
7062.96,0.02856
7057.17,0.03519
7051.38,0.03012
7045.6,0.02499
7039.81,0.02625
7034.02,0.03135
7028.24,0.01797
7022.45,0.03067
7016.67,0.02349
7010.88,0.02531
7005.09,0.02161
6999.31,0.02032
6993.52,0.02308
6987.74,0.01879
6981.95,0.02538
6976.16,0.03206
6970.38,0.02667
6964.59,0.02720
6958.8,0.02570
6953.02,0.02115
6947.23,0.02227
6941.45,0.02366
6935.66,0.02109
6929.87,0.02093
6924.09,0.02824
6918.3,0.02932
6912.52,0.03114
6906.73,0.03087
6900.94,0.02762
6895.16,0.02395
6889.37,0.02321
6883.59,0.02785
6877.8,0.02898
6872.01,0.03117
6866.23,0.02878
6860.44,0.02302
6854.65,0.02434
6848.87,0.02958
6843.08,0.02782
6837.3,0.02625
6831.51,0.02579
6825.72,0.02044
6819.94,0.02640
6814.15,0.02326
6808.37,0.02107
6802.58,0.02176
6796.79,0.02233
6791.01,0.02890
6785.22,0.02194
6779.43,0.01977
6773.65,0.02436
6767.86,0.02995
6762.08,0.02308
6756.29,0.02884
6750.5,0.02367
6744.72,0.02598
6738.93,0.02209
6733.15,0.02802
6727.36,0.02177
6721.57,0.02729
6715.79,0.02810
6710,0.02074
6704.21,0.02619
6698.43,0.02425
6692.64,0.02537
6686.86,0.02105
6681.07,0.02291
6675.28,0.02398
6669.5,0.02258
6663.71,0.02294
6657.93,0.02568
6652.14,0.03026
6646.35,0.02679
6640.57,0.02620
6634.78,0.03006
6628.99,0.02718
6623.21,0.01791
6617.42,0.02669
6611.64,0.02350
6605.85,0.02732
6600.06,0.02636
6594.28,0.02012
6588.49,0.02481
6582.71,0.02752
6576.92,0.02125
6571.13,0.02503
6565.35,0.02684
6559.56,0.02242
6553.77,0.02121
6547.99,0.02310
6542.2,0.02761
6536.42,0.02419
6530.63,0.02455
6524.84,0.02527
6519.06,0.02492
6513.27,0.02235
6507.49,0.02334
6501.7,0.02733
6495.91,0.02235
6490.13,0.02043
6484.34,0.02269
6478.55,0.02167
6472.77,0.02302
6466.98,0.02137
6461.2,0.02302
6455.41,0.01800
6449.62,0.02139
6443.84,0.02134
6438.05,0.02638
6432.27,0.02553
6426.48,0.02954
6420.69,0.02522
6414.91,0.02213
6409.12,0.02238
6403.33,0.02241
6397.55,0.01965
6391.76,0.01813
6385.98,0.02287
6380.19,0.02561
6374.4,0.02485
6368.62,0.02352
6362.83,0.02314
6357.05,0.02416
6351.26,0.02243
6345.47,0.02000
6339.69,0.02598
6333.9,0.02338
6328.12,0.02418
6322.33,0.02208
6316.54,0.02190
6310.76,0.02232
6304.97,0.02736
6299.18,0.02357
6293.4,0.02139
6287.61,0.02650
6281.83,0.02220
6276.04,0.02414
6270.25,0.01920
6264.47,0.02268
6258.68,0.02650
6252.9,0.02367
6247.11,0.02436
6241.32,0.02050
6235.54,0.02125
6229.75,0.02320
6223.96,0.02465
6218.18,0.02235
6212.39,0.02531
6206.61,0.02145
6200.82,0.02390
6195.03,0.02582
6189.25,0.02224
6183.46,0.02431
6177.68,0.02605
6171.89,0.02521
6166.1,0.02398
6160.32,0.02780
6154.53,0.02461
6148.74,0.02438
6142.96,0.02172
6137.17,0.02404
6131.39,0.02570
6125.6,0.02318
6119.81,0.02281
6114.03,0.02450
6108.24,0.02591
6102.46,0.02355
6096.67,0.02711
6090.88,0.02173
6085.1,0.02026
6079.31,0.02226
6073.52,0.02747
6067.74,0.02075
6061.95,0.02155
6056.17,0.02022
6050.38,0.02357
6044.59,0.02335
6038.81,0.02271
6033.02,0.02570
6027.24,0.02565
6021.45,0.02628
6015.66,0.02403
6009.88,0.02246
6004.09,0.02748
5998.3,0.02578
5992.52,0.01906
5986.73,0.02208
5980.95,0.02551
5975.16,0.02064
5969.37,0.02313
5963.59,0.02039
5957.8,0.02108
5952.02,0.02138
5946.23,0.02064
5940.44,0.02367
5934.66,0.02168
5928.87,0.02054
5923.08,0.02482
5917.3,0.02324
5911.51,0.02319
5905.73,0.02247
5899.94,0.02359
5894.15,0.02523
5888.37,0.02144
5882.58,0.02465
5876.8,0.02296
5871.01,0.02271
5865.22,0.02566
5859.44,0.02427
5853.65,0.02407
5847.86,0.02425
5842.08,0.02631
5836.29,0.02220
5830.51,0.02465
5824.72,0.02421
5818.93,0.02190
5813.15,0.02315
5807.36,0.02408
5801.58,0.02162
5795.79,0.02184
5790,0.02237
5784.22,0.01935
5778.43,0.02527
5772.65,0.02324
5766.86,0.02437
5761.07,0.02297
5755.29,0.02613
5749.5,0.02590
5743.71,0.02413
5737.93,0.02308
5732.14,0.02456
5726.36,0.02415
5720.57,0.02298
5714.78,0.02392
5709,0.02275
5703.21,0.02140
5697.43,0.02181
5691.64,0.02473
5685.85,0.02113
5680.07,0.02311
5674.28,0.02517
5668.49,0.02353
5662.71,0.02144
5656.92,0.02164
5651.14,0.02407
5645.35,0.02591
5639.56,0.02385
5633.78,0.02425
5627.99,0.02269
5622.21,0.02265
5616.42,0.02428
5610.63,0.02247
5604.85,0.02404
5599.06,0.02332
5593.27,0.02364
5587.49,0.02401
5581.7,0.02437
5575.92,0.02357
5570.13,0.02350
5564.34,0.02313
5558.56,0.02551
5552.77,0.02493
5546.99,0.02435
5541.2,0.02501
5535.41,0.02439
5529.63,0.02416
5523.84,0.02251
5518.05,0.02201
5512.27,0.02220
5506.48,0.02414
5500.7,0.02446
5494.91,0.02332
5489.12,0.02365
5483.34,0.02384
5477.55,0.02340
5471.77,0.02258
5465.98,0.02532
5460.19,0.02441
5454.41,0.02162
5448.62,0.02274
5442.83,0.02419
5437.05,0.02075
5431.26,0.02170
5425.48,0.02476
5419.69,0.02366
5413.9,0.02419
5408.12,0.02334
5402.33,0.02216
5396.55,0.02210
5390.76,0.02337
5384.97,0.02468
5379.19,0.02483
5373.4,0.02133
5367.61,0.02410
5361.83,0.02247
5356.04,0.02439
5350.26,0.02434
5344.47,0.02195
5338.68,0.02399
5332.9,0.02120
5327.11,0.02338
5321.33,0.02387
5315.54,0.02260
5309.75,0.02336
5303.97,0.02256
5298.18,0.02403
5292.39,0.02266
5286.61,0.02459
5280.82,0.02459
5275.04,0.02299
5269.25,0.02267
5263.46,0.02317
5257.68,0.02162
5251.89,0.02504
5246.11,0.02418
5240.32,0.02298
5234.53,0.02400
5228.75,0.02337
5222.96,0.02249
5217.18,0.02427
5211.39,0.02470
5205.6,0.02375
5199.82,0.02264
5194.03,0.02328
5188.24,0.02259
5182.46,0.02431
5176.67,0.02522
5170.89,0.02223
5165.1,0.02309
5159.31,0.02525
5153.53,0.02287
5147.74,0.02285
5141.96,0.02306
5136.17,0.02375
5130.38,0.02481
5124.6,0.02256
5118.81,0.02328
5113.02,0.02454
5107.24,0.02362
5101.45,0.02344
5095.67,0.02358
5089.88,0.02270
5084.09,0.02415
5078.31,0.02245
5072.52,0.02265
5066.74,0.02372
5060.95,0.02500
5055.16,0.02289
5049.38,0.02317
5043.59,0.02160
5037.8,0.02520
5032.02,0.02347
5026.23,0.02246
5020.45,0.02365
5014.66,0.02552
5008.87,0.02439
5003.09,0.02398
4997.3,0.02343
4991.52,0.02339
4985.73,0.02337
4979.94,0.02404
4974.16,0.02388
4968.37,0.02298
4962.58,0.02462
4956.8,0.02373
4951.01,0.02374
4945.23,0.02380
4939.44,0.02349
4933.65,0.02310
4927.87,0.02250
4922.08,0.02381
4916.3,0.02349
4910.51,0.02411
4904.72,0.02281
4898.94,0.02458
4893.15,0.02366
4887.36,0.02316
4881.58,0.02300
4875.79,0.02266
4870.01,0.02365
4864.22,0.02317
4858.43,0.02369
4852.65,0.02514
4846.86,0.02419
4841.08,0.02472
4835.29,0.02352
4829.5,0.02450
4823.72,0.02317
4817.93,0.02351
4812.14,0.02373
4806.36,0.02481
4800.57,0.02402
4794.79,0.02403
4789,0.02313
4783.21,0.02420
4777.43,0.02353
4771.64,0.02488
4765.86,0.02377
4760.07,0.02317
4754.28,0.02499
4748.5,0.02373
4742.71,0.02352
4736.92,0.02419
4731.14,0.02298
4725.35,0.02389
4719.57,0.02436
4713.78,0.02442
4707.99,0.02413
4702.21,0.02340
4696.42,0.02444
4690.64,0.02417
4684.85,0.02370
4679.06,0.02492
4673.28,0.02380
4667.49,0.02440
4661.7,0.02436
4655.92,0.02435
4650.13,0.02366
4644.35,0.02405
4638.56,0.02335
4632.77,0.02425
4626.99,0.02296
4621.2,0.02475
4615.42,0.02428
4609.63,0.02370
4603.84,0.02324
4598.06,0.02372
4592.27,0.02355
4586.49,0.02336
4580.7,0.02356
4574.91,0.02334
4569.13,0.02326
4563.34,0.02275
4557.55,0.02362
4551.77,0.02416
4545.98,0.02408
4540.2,0.02351
4534.41,0.02448
4528.62,0.02392
4522.84,0.02475
4517.05,0.02374
4511.27,0.02352
4505.48,0.02468
4499.69,0.02395
4493.91,0.02421
4488.12,0.02425
4482.33,0.02354
4476.55,0.02264
4470.76,0.02438
4464.98,0.02366
4459.19,0.02384
4453.4,0.02344
4447.62,0.02402
4441.83,0.02438
4436.05,0.02390
4430.26,0.02351
4424.47,0.02366
4418.69,0.02403
4412.9,0.02395
4407.11,0.02370
4401.33,0.02418
4395.54,0.02496
4389.76,0.02405
4383.97,0.02437
4378.18,0.02474
4372.4,0.02471
4366.61,0.02510
4360.83,0.02320
4355.04,0.02366
4349.25,0.02357
4343.47,0.02424
4337.68,0.02301
4331.89,0.02322
4326.11,0.02318
4320.32,0.02420
4314.54,0.02431
4308.75,0.02408
4302.96,0.02330
4297.18,0.02430
4291.39,0.02375
4285.61,0.02398
4279.82,0.02396
4274.03,0.02411
4268.25,0.02455
4262.46,0.02299
4256.67,0.02378
4250.89,0.02388
4245.1,0.02409
4239.32,0.02454
4233.53,0.02438
4227.74,0.02449
4221.96,0.02330
4216.17,0.02356
4210.39,0.02411
4204.6,0.02445
4198.81,0.02353
4193.03,0.02429
4187.24,0.02498
4181.45,0.02477
4175.67,0.02522
4169.88,0.02505
4164.1,0.02410
4158.31,0.02457
4152.52,0.02379
4146.74,0.02406
4140.95,0.02480
4135.17,0.02429
4129.38,0.02494
4123.59,0.02431
4117.81,0.02465
4112.02,0.02452
4106.23,0.02443
4100.45,0.02446
4094.66,0.02355
4088.88,0.02397
4083.09,0.02431
4077.3,0.02437
4071.52,0.02455
4065.73,0.02426
4059.95,0.02404
4054.16,0.02417
4048.37,0.02484
4042.59,0.02441
4036.8,0.02437
4031.02,0.02354
4025.23,0.02433
4019.44,0.02457
4013.66,0.02469
4007.87,0.02373
4002.08,0.02413
3996.3,0.02504
3990.51,0.02415
3984.73,0.02398
3978.94,0.02434
3973.15,0.02438
3967.37,0.02451
3961.58,0.02438
3955.8,0.02355
3950.01,0.02456
3944.22,0.02344
3938.44,0.02402
3932.65,0.02437
3926.86,0.02509
3921.08,0.02476
3915.29,0.02421
3909.51,0.02474
3903.72,0.02454
3897.93,0.02486
3892.15,0.02525
3886.36,0.02482
3880.58,0.02397
3874.79,0.02412
3869,0.02396
3863.22,0.02423
3857.43,0.02525
3851.64,0.02374
3845.86,0.02441
3840.07,0.02534
3834.29,0.02491
3828.5,0.02427
3822.71,0.02510
3816.93,0.02360
3811.14,0.02378
3805.36,0.02270
3799.57,0.02313
3793.78,0.02426
3788,0.02482
3782.21,0.02394
3776.42,0.02455
3770.64,0.02462
3764.85,0.02398
3759.07,0.02388
3753.28,0.02479
3747.49,0.02358
3741.71,0.02394
3735.92,0.02475
3730.14,0.02477
3724.35,0.02518
3718.56,0.02405
3712.78,0.02427
3706.99,0.02374
3701.2,0.02284
3695.42,0.02413
3689.63,0.02522
3683.85,0.02369
3678.06,0.02390
3672.27,0.02467
3666.49,0.02364
3660.7,0.02318
3654.92,0.02261
3649.13,0.02327
3643.34,0.02226
3637.56,0.02344
3631.77,0.02263
3625.98,0.02377
3620.2,0.02301
3614.41,0.02315
3608.63,0.02287
3602.84,0.02223
3597.05,0.02245
3591.27,0.02234
3585.48,0.02178
3579.7,0.02246
3573.91,0.02248
3568.12,0.02271
3562.34,0.02332
3556.55,0.02268
3550.76,0.02223
3544.98,0.02226
3539.19,0.02170
3533.41,0.02243
3527.62,0.02216
3521.83,0.02217
3516.05,0.02218
3510.26,0.02277
3504.48,0.02224
3498.69,0.02196
3492.9,0.02259
3487.12,0.02329
3481.33,0.02174
3475.55,0.02206
3469.76,0.02229
3463.97,0.02204
3458.19,0.02237
3452.4,0.02274
3446.61,0.02213
3440.83,0.02211
3435.04,0.02127
3429.26,0.02191
3423.47,0.02100
3417.68,0.02130
3411.9,0.02218
3406.11,0.02179
3400.33,0.02110
3394.54,0.02224
3388.75,0.02155
3382.97,0.02204
3377.18,0.02185
3371.39,0.02222
3365.61,0.02140
3359.82,0.02095
3354.04,0.02156
3348.25,0.02166
3342.46,0.02202
3336.68,0.02114
3330.89,0.02132
3325.11,0.02241
3319.32,0.02186
3313.53,0.02220
3307.75,0.02205
3301.96,0.02193
3296.17,0.02097
3290.39,0.02214
3284.6,0.02244
3278.82,0.02170
3273.03,0.02189
3267.24,0.02291
3261.46,0.02212
3255.67,0.02314
3249.89,0.02220
3244.1,0.02245
3238.31,0.02229
3232.53,0.02247
3226.74,0.02271
3220.95,0.02203
3215.17,0.02196
3209.38,0.02262
3203.6,0.02250
3197.81,0.02255
3192.02,0.02272
3186.24,0.02271
3180.45,0.02334
3174.67,0.02339
3168.88,0.02317
3163.09,0.02259
3157.31,0.02297
3151.52,0.02246
3145.73,0.02325
3139.95,0.02231
3134.16,0.02267
3128.38,0.02282
3122.59,0.02226
3116.8,0.02257
3111.02,0.02278
3105.23,0.02276
3099.45,0.02266
3093.66,0.02276
3087.87,0.02197
3082.09,0.02296
3076.3,0.02217
3070.51,0.02255
3064.73,0.02303
3058.94,0.02312
3053.16,0.02263
3047.37,0.02271
3041.58,0.02224
3035.8,0.02229
3030.01,0.02260
3024.23,0.02267
3018.44,0.02266
3012.65,0.02213
3006.87,0.02230
3001.08,0.02233
2995.29,0.02243
2989.51,0.02243
2983.72,0.02239
2977.94,0.02171
2972.15,0.02232
2966.36,0.02195
2960.58,0.02167
2954.79,0.02174
2949.01,0.02169
2943.22,0.02178
2937.43,0.02195
2931.65,0.02164
2925.86,0.02205
2920.08,0.02173
2914.29,0.02207
2908.5,0.02228
2902.72,0.02250
2896.93,0.02190
2891.14,0.02239
2885.36,0.02189
2879.57,0.02237
2873.79,0.02240
2868,0.02248
2862.21,0.02241
2856.43,0.02233
2850.64,0.02317
2844.86,0.02360
2839.07,0.02313
2833.28,0.02311
2827.5,0.02305
2821.71,0.02339
2815.92,0.02317
2810.14,0.02292
2804.35,0.02336
2798.57,0.02350
2792.78,0.02348
2786.99,0.02317
2781.21,0.02324
2775.42,0.02355
2769.64,0.02295
2763.85,0.02376
2758.06,0.02356
2752.28,0.02317
2746.49,0.02298
2740.7,0.02314
2734.92,0.02321
2729.13,0.02336
2723.35,0.02347
2717.56,0.02354
2711.77,0.02343
2705.99,0.02349
2700.2,0.02322
2694.42,0.02353
2688.63,0.02340
2682.84,0.02352
2677.06,0.02328
2671.27,0.02342
2665.48,0.02347
2659.7,0.02319
2653.91,0.02335
2648.13,0.02289
2642.34,0.02297
2636.55,0.02309
2630.77,0.02317
2624.98,0.02307
2619.2,0.02341
2613.41,0.02332
2607.62,0.02316
2601.84,0.02336
2596.05,0.02331
2590.26,0.02359
2584.48,0.02357
2578.69,0.02351
2572.91,0.02322
2567.12,0.02325
2561.33,0.02381
2555.55,0.02318
2549.76,0.02333
2543.98,0.02333
2538.19,0.02361
2532.4,0.02328
2526.62,0.02301
2520.83,0.02304
2515.04,0.02354
2509.26,0.02390
2503.47,0.02320
2497.69,0.02312
2491.9,0.02314
2486.11,0.02322
2480.33,0.02279
2474.54,0.02325
2468.76,0.02294
2462.97,0.02322
2457.18,0.02357
2451.4,0.02337
2445.61,0.02335
2439.82,0.02332
2434.04,0.02343
2428.25,0.02350
2422.47,0.02320
2416.68,0.02351
2410.89,0.02336
2405.11,0.02342
2399.32,0.02314
2393.54,0.02310
2387.75,0.02384
2381.96,0.02335
2376.18,0.02374
2370.39,0.02290
2364.61,0.02532
2358.82,0.02366
2353.03,0.02350
2347.25,0.02432
2341.46,0.02485
2335.67,0.02472
2329.89,0.02478
2324.1,0.02239
2318.32,0.02407
2312.53,0.02329
2306.74,0.02306
2300.96,0.02357
2295.17,0.02333
2289.39,0.02326
2283.6,0.02356
2277.81,0.02351
2272.03,0.02335
2266.24,0.02329
2260.45,0.02358
2254.67,0.02366
2248.88,0.02310
2243.1,0.02281
2237.31,0.02348
2231.52,0.02362
2225.74,0.02318
2219.95,0.02311
2214.17,0.02335
2208.38,0.02350
2202.59,0.02320
2196.81,0.02309
2191.02,0.02304
2185.23,0.02351
2179.45,0.02323
2173.66,0.02332
2167.88,0.02312
2162.09,0.02319
2156.3,0.02284
2150.52,0.02344
2144.73,0.02322
2138.95,0.02320
2133.16,0.02311
2127.37,0.02315
2121.59,0.02334
2115.8,0.02298
2110.01,0.02304
2104.23,0.02305
2098.44,0.02284
2092.66,0.02294
2086.87,0.02309
2081.08,0.02283
2075.3,0.02300
2069.51,0.02283
2063.73,0.02292
2057.94,0.02317
2052.15,0.02295
2046.37,0.02295
2040.58,0.02302
2034.79,0.02275
2029.01,0.02260
2023.22,0.02314
2017.44,0.02278
2011.65,0.02306
2005.86,0.02305
2000.08,0.02306
1994.29,0.02291
1988.51,0.02343
1982.72,0.02317
1976.93,0.02311
1971.15,0.02326
1965.36,0.02275
1959.57,0.02248
1953.79,0.02315
1948,0.02316
1942.22,0.02292
1936.43,0.02290
1930.64,0.02294
1924.86,0.02319
1919.07,0.02283
1913.29,0.02299
1907.5,0.02318
1901.71,0.02293
1895.93,0.02254
1890.14,0.02243
1884.35,0.02261
1878.57,0.02280
1872.78,0.02322
1867,0.02251
1861.21,0.02266
1855.42,0.02265
1849.64,0.02261
1843.85,0.02219
1838.07,0.02233
1832.28,0.02230
1826.49,0.02166
1820.71,0.02194
1814.92,0.02230
1809.13,0.02200
1803.35,0.02190
1797.56,0.02173
1791.78,0.02109
1785.99,0.02181
1780.2,0.02131
1774.42,0.02148
1768.63,0.02087
1762.85,0.02034
1757.06,0.01945
1751.27,0.01906
1745.49,0.01961
1739.7,0.02037
1733.92,0.02156
1728.13,0.02234
1722.34,0.02252
1716.56,0.02269
1710.77,0.02265
1704.98,0.02231
1699.2,0.02098
1693.41,0.02132
1687.63,0.02103
1681.84,0.02045
1676.05,0.02086
1670.27,0.02045
1664.48,0.02042
1658.7,0.02059
1652.91,0.02135
1647.12,0.02032
1641.34,0.02031
1635.55,0.02124
1629.76,0.02088
1623.98,0.02131
1618.19,0.02058
1612.41,0.02097
1606.62,0.02086
1600.83,0.02099
1595.05,0.02068
1589.26,0.02088
1583.48,0.02049
1577.69,0.02093
1571.9,0.02064
1566.12,0.02055
1560.33,0.02031
1554.54,0.01940
1548.76,0.01997
1542.97,0.02077
1537.19,0.02017
1531.4,0.02110
1525.61,0.02102
1519.83,0.01997
1514.04,0.02049
1508.26,0.02020
1502.47,0.02094
1496.68,0.02089
1490.9,0.02096
1485.11,0.02074
1479.32,0.02071
1473.54,0.01943
1467.75,0.01960
1461.97,0.02022
1456.18,0.02011
1450.39,0.02036
1444.61,0.02039
1438.82,0.02043
1433.04,0.02027
1427.25,0.02024
1421.46,0.02032
1415.68,0.02016
1409.89,0.02024
1404.1,0.02026
1398.32,0.02073
1392.53,0.02031
1386.75,0.01993
1380.96,0.01980
1375.17,0.01946
1369.39,0.01963
1363.6,0.01978
1357.82,0.01979
1352.03,0.01962
1346.24,0.01927
1340.46,0.01915
1334.67,0.01926
1328.88,0.01917
1323.1,0.01921
1317.31,0.01861
1311.53,0.01848
1305.74,0.01901
1299.95,0.01936
1294.17,0.01929
1288.38,0.01965
1282.6,0.02013
1276.81,0.02046
1271.02,0.02114
1265.24,0.02143
1259.45,0.02167
1253.66,0.02193
1247.88,0.02204
1242.09,0.02140
1236.31,0.02131
1230.52,0.02175
1224.73,0.02103
1218.95,0.02118
1213.16,0.02087
1207.38,0.02069
1201.59,0.02021
1195.8,0.01994
1190.02,0.02025
1184.23,0.02039
1178.45,0.01961
1172.66,0.01898
1166.87,0.01937
1161.09,0.01964
1155.3,0.01872
1149.51,0.01954
1143.73,0.01922
1137.94,0.01954
1132.16,0.01946
1126.37,0.01951
1120.58,0.01996
1114.8,0.02088
1109.01,0.02025
1103.23,0.02087
1097.44,0.01981
1091.65,0.01965
1085.87,0.01958
1080.08,0.02025
1074.29,0.02122
1068.51,0.02091
1062.72,0.02193
1056.94,0.02159
1051.15,0.02097
1045.36,0.02094
1039.58,0.02158
1033.79,0.02118
1028.01,0.02067
1022.22,0.02088
1016.43,0.02086
1010.65,0.02195
1004.86,0.02297
999.075,0.02330
993.288,0.02296
987.502,0.02258
981.716,0.02249
975.93,0.02181
970.144,0.02191
964.358,0.02188
958.572,0.02214
952.785,0.02177
946.999,0.02139
941.213,0.02160
935.427,0.02192
929.641,0.02195
923.855,0.02081
918.068,0.02141
912.282,0.02084
906.496,0.02123
900.71,0.02115
894.924,0.02079
889.138,0.02156
883.352,0.02087
877.565,0.02053
871.779,0.02125
865.993,0.02082
860.207,0.02056
854.421,0.02041
848.635,0.02019
842.849,0.02010
837.062,0.02019
831.276,0.02038
825.49,0.02110
819.704,0.01987
813.918,0.01957
808.132,0.02005
802.346,0.02020
796.559,0.02010
790.773,0.01930
784.987,0.02041
779.201,0.01893
773.415,0.01968
767.629,0.01899
761.843,0.02026
756.056,0.01932
750.27,0.01902
744.484,0.01994
738.698,0.01974
732.912,0.01887
727.126,0.01921
721.34,0.01910
715.553,0.01895
709.767,0.01921
703.981,0.01916
698.195,0.01893
692.409,0.01881
686.623,0.01958
680.837,0.01830
675.05,0.01888
669.264,0.01889
663.478,0.01817
657.692,0.01780
651.906,0.01848
646.12,0.01839
640.333,0.01673
634.547,0.01794
628.761,0.01786
622.975,0.01860
617.189,0.01881
611.403,0.01729
605.617,0.01752
599.83,0.01860