File: 01_Data/PC/FTIR/IS/PC_IS_S_230508_R2.dpt
7496.92,0.12454
7491.13,0.11960
7485.34,0.11908
7479.56,0.12171
7473.77,0.12710
7467.99,0.13567
7462.2,0.12870
7456.41,0.13444
7450.63,0.13213
7444.84,0.11773
7439.06,0.11944
7433.27,0.11826
7427.48,0.11052
7421.7,0.10712
7415.91,0.11923
7410.12,0.11411
7404.34,0.13036
7398.55,0.10823
7392.77,0.10860
7386.98,0.10939
7381.19,0.11052
7375.41,0.12702
7369.62,0.11878
7363.84,0.11994
7358.05,0.10551
7352.26,0.10820
7346.48,0.11106
7340.69,0.10027
7334.9,0.09587
7329.12,0.09672
7323.33,0.09413
7317.55,0.10515
7311.76,0.09037
7305.97,0.11117
7300.19,0.10366
7294.4,0.09792
7288.62,0.10228
7282.83,0.10467
7277.04,0.10675
7271.26,0.10182
7265.47,0.09291
7259.68,0.10420
7253.9,0.09784
7248.11,0.10307
7242.33,0.08913
7236.54,0.09433
7230.75,0.09874
7224.97,0.09332
7219.18,0.11044
7213.4,0.10683
7207.61,0.09949
7201.82,0.09994
7196.04,0.10145
7190.25,0.09328
7184.46,0.09172
7178.68,0.10263
7172.89,0.10377
7167.11,0.10374
7161.32,0.09196
7155.53,0.09634
7149.75,0.10183
7143.96,0.09574
7138.18,0.10139
7132.39,0.10663
7126.6,0.09536
7120.82,0.09954
7115.03,0.09943
7109.24,0.10420
7103.46,0.10379
7097.67,0.09596
7091.89,0.10818
7086.1,0.10785
7080.31,0.11091
7074.53,0.10621
7068.74,0.10509
7062.96,0.10509
7057.17,0.11499
7051.38,0.11271
7045.6,0.10399
7039.81,0.11116
7034.02,0.11494
7028.24,0.10883
7022.45,0.10414
7016.67,0.10816
7010.88,0.10724
7005.09,0.11193
6999.31,0.11560
6993.52,0.11597
6987.74,0.11860
6981.95,0.10593
6976.16,0.10749
6970.38,0.11481
6964.59,0.11545
6958.8,0.11457
6953.02,0.10901
6947.23,0.11690
6941.45,0.11350
6935.66,0.12152
6929.87,0.12223
6924.09,0.11234
6918.3,0.11901
6912.52,0.12146
6906.73,0.11366
6900.94,0.11472
6895.16,0.11023
6889.37,0.11532
6883.59,0.11210
6877.8,0.11017
6872.01,0.11533
6866.23,0.11200
6860.44,0.10924
6854.65,0.11524
6848.87,0.11527
6843.08,0.11846
6837.3,0.11202
6831.51,0.11266
6825.72,0.11357
6819.94,0.11223
6814.15,0.10907
6808.37,0.11458
6802.58,0.11288
6796.79,0.11414
6791.01,0.11625
6785.22,0.11699
6779.43,0.11238
6773.65,0.11520
6767.86,0.12149
6762.08,0.11792
6756.29,0.12283
6750.5,0.11732
6744.72,0.11874
6738.93,0.11812
6733.15,0.11607
6727.36,0.12248
6721.57,0.11502
6715.79,0.11679
6710,0.12390
6704.21,0.12230
6698.43,0.12160
6692.64,0.12102
6686.86,0.12109
6681.07,0.12239
6675.28,0.12588
6669.5,0.11990
6663.71,0.12451
6657.93,0.12615
6652.14,0.12019
6646.35,0.12300
6640.57,0.13116
6634.78,0.12796
6628.99,0.13346
6623.21,0.13116
6617.42,0.12756
6611.64,0.12466
6605.85,0.13462
6600.06,0.13202
6594.28,0.12773
6588.49,0.12994
6582.71,0.12711
6576.92,0.12926
6571.13,0.12873
6565.35,0.12977
6559.56,0.13039
6553.77,0.12459
6547.99,0.13217
6542.2,0.13051
6536.42,0.12643
6530.63,0.12688
6524.84,0.13012
6519.06,0.13053
6513.27,0.12583
6507.49,0.13089
6501.7,0.12661
6495.91,0.12689
6490.13,0.12821
6484.34,0.13044
6478.55,0.13068
6472.77,0.12668
6466.98,0.12868
6461.2,0.13023
6455.41,0.13289
6449.62,0.12750
6443.84,0.13025
6438.05,0.12728
6432.27,0.13003
6426.48,0.13276
6420.69,0.12598
6414.91,0.13029
6409.12,0.13014
6403.33,0.13120
6397.55,0.13115
6391.76,0.12890
6385.98,0.12402
6380.19,0.13061
6374.4,0.13001
6368.62,0.12905
6362.83,0.13078
6357.05,0.12609
6351.26,0.12962
6345.47,0.12849
6339.69,0.12983
6333.9,0.12622
6328.12,0.12121
6322.33,0.12326
6316.54,0.12310
6310.76,0.12211
6304.97,0.12345
6299.18,0.12321
6293.4,0.12087
6287.61,0.12203
6281.83,0.12111
6276.04,0.11894
6270.25,0.11318
6264.47,0.12097
6258.68,0.11724
6252.9,0.11707
6247.11,0.11233
6241.32,0.11290
6235.54,0.11268
6229.75,0.10891
6223.96,0.11025
6218.18,0.10924
6212.39,0.10696
6206.61,0.10134
6200.82,0.09803
6195.03,0.09918
6189.25,0.09489
6183.46,0.09155
6177.68,0.08717
6171.89,0.08673
6166.1,0.08773
6160.32,0.08356
6154.53,0.08306
6148.74,0.08072
6142.96,0.08081
6137.17,0.07861
6131.39,0.07556
6125.6,0.07282
6119.81,0.07073
6114.03,0.06863
6108.24,0.06846
6102.46,0.06711
6096.67,0.06311
6090.88,0.05932
6085.1,0.06038
6079.31,0.06048
6073.52,0.06138
6067.74,0.06490
6061.95,0.06001
6056.17,0.05841
6050.38,0.05643
6044.59,0.05732
6038.81,0.05826
6033.02,0.05693
6027.24,0.05645
6021.45,0.05817
6015.66,0.05570
6009.88,0.06210
6004.09,0.05632
5998.3,0.05683
5992.52,0.05734
5986.73,0.05776
5980.95,0.05565
5975.16,0.05750
5969.37,0.05787
5963.59,0.05457
5957.8,0.05706
5952.02,0.05716
5946.23,0.05930
5940.44,0.05796
5934.66,0.05576
5928.87,0.06005
5923.08,0.05650
5917.3,0.05396
5911.51,0.05767
5905.73,0.05888
5899.94,0.05538
5894.15,0.05866
5888.37,0.06110
5882.58,0.05816
5876.8,0.05842
5871.01,0.05921
5865.22,0.05850
5859.44,0.05709
5853.65,0.05978
5847.86,0.06625
5842.08,0.06068
5836.29,0.06104
5830.51,0.06527
5824.72,0.06423
5818.93,0.06162
5813.15,0.06344
5807.36,0.06489
5801.58,0.06587
5795.79,0.06555
5790,0.06091
5784.22,0.06202
5778.43,0.06294
5772.65,0.06108
5766.86,0.06297
5761.07,0.06462
5755.29,0.06153
5749.5,0.06086
5743.71,0.06213
5737.93,0.06513
5732.14,0.07161
5726.36,0.07238
5720.57,0.07350
5714.78,0.07742
5709,0.07909
5703.21,0.07640
5697.43,0.07749
5691.64,0.07750
5685.85,0.07519
5680.07,0.07392
5674.28,0.07246
5668.49,0.07262
5662.71,0.07007
5656.92,0.06911
5651.14,0.07159
5645.35,0.07316
5639.56,0.07636
5633.78,0.07945
5627.99,0.08317
5622.21,0.08590
5616.42,0.08649
5610.63,0.08894
5604.85,0.08687
5599.06,0.08831
5593.27,0.08598
5587.49,0.08604
5581.7,0.08441
5575.92,0.08702
5570.13,0.08872
5564.34,0.08690
5558.56,0.08700
5552.77,0.08636
5546.99,0.08553
5541.2,0.08569
5535.41,0.08439
5529.63,0.08581
5523.84,0.08909
5518.05,0.08540
5512.27,0.08485
5506.48,0.08493
5500.7,0.08748
5494.91,0.08571
5489.12,0.08518
5483.34,0.08462
5477.55,0.08420
5471.77,0.08456
5465.98,0.08474
5460.19,0.08409
5454.41,0.08563
5448.62,0.08600
5442.83,0.08715
5437.05,0.08985
5431.26,0.08819
5425.48,0.08718
5419.69,0.08769
5413.9,0.08695
5408.12,0.08749
5402.33,0.08852
5396.55,0.08511
5390.76,0.08633
5384.97,0.08778
5379.19,0.08941
5373.4,0.09020
5367.61,0.08985
5361.83,0.08915
5356.04,0.08920
5350.26,0.08816
5344.47,0.08796
5338.68,0.08832
5332.9,0.08724
5327.11,0.08931
5321.33,0.08815
5315.54,0.08802
5309.75,0.08576
5303.97,0.08480
5298.18,0.08183
5292.39,0.08269
5286.61,0.07874
5280.82,0.07389
5275.04,0.07155
5269.25,0.06861
5263.46,0.06825
5257.68,0.06911
5251.89,0.07015
5246.11,0.07460
5240.32,0.07872
5234.53,0.08332
5228.75,0.08653
5222.96,0.08841
5217.18,0.09158
5211.39,0.09258
5205.6,0.09230
5199.82,0.09327
5194.03,0.09264
5188.24,0.09088
5182.46,0.09216
5176.67,0.09258
5170.89,0.09186
5165.1,0.09132
5159.31,0.09254
5153.53,0.09487
5147.74,0.09611
5141.96,0.09626
5136.17,0.09735
5130.38,0.09685
5124.6,0.09593
5118.81,0.09849
5113.02,0.09884
5107.24,0.09907
5101.45,0.09884
5095.67,0.09732
5089.88,0.09788
5084.09,0.09680
5078.31,0.09704
5072.52,0.09647
5066.74,0.09577
5060.95,0.09782
5055.16,0.09884
5049.38,0.09733
5043.59,0.09719
5037.8,0.09733
5032.02,0.09791
5026.23,0.09667
5020.45,0.09610
5014.66,0.09425
5008.87,0.09493
5003.09,0.09379
4997.3,0.09343
4991.52,0.09288
4985.73,0.09156
4979.94,0.09099
4974.16,0.08992
4968.37,0.09003
4962.58,0.09142
4956.8,0.09027
4951.01,0.09004
4945.23,0.09006
4939.44,0.08931
4933.65,0.08765
4927.87,0.08843
4922.08,0.08634
4916.3,0.08442
4910.51,0.08083
4904.72,0.07969
4898.94,0.07725
4893.15,0.07680
4887.36,0.07710
4881.58,0.07669
4875.79,0.07599
4870.01,0.07520
4864.22,0.07467
4858.43,0.07196
4852.65,0.06967
4846.86,0.07101
4841.08,0.07091
4835.29,0.07155
4829.5,0.07086
4823.72,0.07232
4817.93,0.07327
4812.14,0.07355
4806.36,0.07351
4800.57,0.07310
4794.79,0.07206
4789,0.07222
4783.21,0.07083
4777.43,0.07014
4771.64,0.06885
4765.86,0.06751
4760.07,0.06710
4754.28,0.06636
4748.5,0.06503
4742.71,0.06375
4736.92,0.06291
4731.14,0.06251
4725.35,0.06137
4719.57,0.06122
4713.78,0.06162
4707.99,0.06203
4702.21,0.06150
4696.42,0.06160
4690.64,0.06079
4684.85,0.06136
4679.06,0.05988
4673.28,0.06126
4667.49,0.06151
4661.7,0.06226
4655.92,0.06190
4650.13,0.06245
4644.35,0.06154
4638.56,0.06150
4632.77,0.06116
4626.99,0.06158
4621.2,0.06052
4615.42,0.06122
4609.63,0.06190
4603.84,0.06182
4598.06,0.06258
4592.27,0.06228
4586.49,0.06078
4580.7,0.06206
4574.91,0.06165
4569.13,0.06237
4563.34,0.06159
4557.55,0.06180
4551.77,0.06211
4545.98,0.06223
4540.2,0.06350
4534.41,0.06150
4528.62,0.06264
4522.84,0.06359
4517.05,0.06256
4511.27,0.06233
4505.48,0.06201
4499.69,0.06246
4493.91,0.06145
4488.12,0.06178
4482.33,0.06171
4476.55,0.06177
4470.76,0.06260
4464.98,0.06248
4459.19,0.06178
4453.4,0.06196
4447.62,0.06229
4441.83,0.06242
4436.05,0.06199
4430.26,0.06158
4424.47,0.06272
4418.69,0.06171
4412.9,0.06163
4407.11,0.06122
4401.33,0.06134
4395.54,0.06269
4389.76,0.06201
4383.97,0.06125
4378.18,0.06211
4372.4,0.06281
4366.61,0.06219
4360.83,0.06120
4355.04,0.06264
4349.25,0.06219
4343.47,0.06236
4337.68,0.06243
4331.89,0.06212
4326.11,0.06168
4320.32,0.06280
4314.54,0.06235
4308.75,0.06288
4302.96,0.06290
4297.18,0.06220
4291.39,0.06273
4285.61,0.06282
4279.82,0.06242
4274.03,0.06283
4268.25,0.06180
4262.46,0.06369
4256.67,0.06232
4250.89,0.06241
4245.1,0.06155
4239.32,0.06208
4233.53,0.06260
4227.74,0.06235
4221.96,0.06321
4216.17,0.06270
4210.39,0.06339
4204.6,0.06283
4198.81,0.06270
4193.03,0.06224
4187.24,0.06299
4181.45,0.06293
4175.67,0.06267
4169.88,0.06280
4164.1,0.06247
4158.31,0.06265
4152.52,0.06260
4146.74,0.06207
4140.95,0.06235
4135.17,0.06234
4129.38,0.06207
4123.59,0.06386
4117.81,0.06243
4112.02,0.06289
4106.23,0.06300
4100.45,0.06272
4094.66,0.06280
4088.88,0.06266
4083.09,0.06268
4077.3,0.06269
4071.52,0.06180
4065.73,0.06288
4059.95,0.06328
4054.16,0.06245
4048.37,0.06275
4042.59,0.06275
4036.8,0.06290
4031.02,0.06317
4025.23,0.06343
4019.44,0.06335
4013.66,0.06320
4007.87,0.06310
4002.08,0.06381
3996.3,0.06332
3990.51,0.06338
3984.73,0.06289
3978.94,0.06325
3973.15,0.06342
3967.37,0.06255
3961.58,0.06259
3955.8,0.06308
3950.01,0.06288
3944.22,0.06276
3938.44,0.06281
3932.65,0.06253
3926.86,0.06326
3921.08,0.06297
3915.29,0.06352
3909.51,0.06345
3903.72,0.06295
3897.93,0.06272
3892.15,0.06381
3886.36,0.06397
3880.58,0.06322
3874.79,0.06374
3869,0.06373
3863.22,0.06270
3857.43,0.06314
3851.64,0.06178
3845.86,0.06340
3840.07,0.06366
3834.29,0.06382
3828.5,0.06297
3822.71,0.06270
3816.93,0.06300
3811.14,0.06326
3805.36,0.06309
3799.57,0.06398
3793.78,0.06319
3788,0.06381
3782.21,0.06298
3776.42,0.06308
3770.64,0.06316
3764.85,0.06277
3759.07,0.06392
3753.28,0.06387
3747.49,0.06165
3741.71,0.06237
3735.92,0.06395
3730.14,0.06418
3724.35,0.06330
3718.56,0.06299
3712.78,0.06438
3706.99,0.06354
3701.2,0.06320
3695.42,0.06359
3689.63,0.06153
3683.85,0.06319
3678.06,0.06244
3672.27,0.06445
3666.49,0.06276
3660.7,0.06248
3654.92,0.06388
3649.13,0.06302
3643.34,0.06303
3637.56,0.06331
3631.77,0.06186
3625.98,0.06179
3620.2,0.06170
3614.41,0.06211
3608.63,0.06280
3602.84,0.06329
3597.05,0.06189
3591.27,0.06227
3585.48,0.06181
3579.7,0.06245
3573.91,0.06169
3568.12,0.06219
3562.34,0.06305
3556.55,0.06287
3550.76,0.06182
3544.98,0.06145
3539.19,0.06294
3533.41,0.06147
3527.62,0.06239
3521.83,0.06260
3516.05,0.06272
3510.26,0.06242
3504.48,0.06159
3498.69,0.06201
3492.9,0.06248
3487.12,0.06178
3481.33,0.06225
3475.55,0.06194
3469.76,0.06183
3463.97,0.06133
3458.19,0.06181
3452.4,0.06179
3446.61,0.06166
3440.83,0.06211
3435.04,0.06277
3429.26,0.06246
3423.47,0.06227
3417.68,0.06163
3411.9,0.06165
3406.11,0.06139
3400.33,0.06167
3394.54,0.06176
3388.75,0.06186
3382.97,0.06223
3377.18,0.06181
3371.39,0.06200
3365.61,0.06192
3359.82,0.06153
3354.04,0.06267
3348.25,0.06218
3342.46,0.06211
3336.68,0.06198
3330.89,0.06236
3325.11,0.06182
3319.32,0.06186
3313.53,0.06212
3307.75,0.06147
3301.96,0.06245
3296.17,0.06227
3290.39,0.06188
3284.6,0.06147
3278.82,0.06200
3273.03,0.06244
3267.24,0.06193
3261.46,0.06233
3255.67,0.06181
3249.89,0.06160
3244.1,0.06158
3238.31,0.06210
3232.53,0.06170
3226.74,0.06202
3220.95,0.06228
3215.17,0.06206
3209.38,0.06266
3203.6,0.06211
3197.81,0.06191
3192.02,0.06218
3186.24,0.06202
3180.45,0.06233
3174.67,0.06206
3168.88,0.06238
3163.09,0.06233
3157.31,0.06265
3151.52,0.06256
3145.73,0.06192
3139.95,0.06205
3134.16,0.06226
3128.38,0.06222
3122.59,0.06156
3116.8,0.06200
3111.02,0.06233
3105.23,0.06238
3099.45,0.06156
3093.66,0.06214
3087.87,0.06216
3082.09,0.06195
3076.3,0.06219
3070.51,0.06196
3064.73,0.06194
3058.94,0.06234
3053.16,0.06130
3047.37,0.06207
3041.58,0.06212
3035.8,0.06249
3030.01,0.06255
3024.23,0.06221
3018.44,0.06196
3012.65,0.06159
3006.87,0.06139
3001.08,0.06168
2995.29,0.06116
2989.51,0.06045
2983.72,0.06046
2977.94,0.06085
2972.15,0.06188
2966.36,0.06320
2960.58,0.06464
2954.79,0.06517
2949.01,0.06426
2943.22,0.06393
2937.43,0.06431
2931.65,0.06466
2925.86,0.06595
2920.08,0.06526
2914.29,0.06489
2908.5,0.06467
2902.72,0.06452
2896.93,0.06396
2891.14,0.06340
2885.36,0.06385
2879.57,0.06356
2873.79,0.06389
2868,0.06444
2862.21,0.06503
2856.43,0.06471
2850.64,0.06474
2844.86,0.06431
2839.07,0.06390
2833.28,0.06421
2827.5,0.06359
2821.71,0.06377
2815.92,0.06352
2810.14,0.06308
2804.35,0.06340
2798.57,0.06333
2792.78,0.06360
2786.99,0.06347
2781.21,0.06380
2775.42,0.06349
2769.64,0.06326
2763.85,0.06361
2758.06,0.06341
2752.28,0.06340
2746.49,0.06333
2740.7,0.06311
2734.92,0.06326
2729.13,0.06367
2723.35,0.06328
2717.56,0.06346
2711.77,0.06333
2705.99,0.06299
2700.2,0.06350
2694.42,0.06277
2688.63,0.06337
2682.84,0.06338
2677.06,0.06319
2671.27,0.06317
2665.48,0.06318
2659.7,0.06338
2653.91,0.06325
2648.13,0.06308
2642.34,0.06285
2636.55,0.06334
2630.77,0.06340
2624.98,0.06312
2619.2,0.06290
2613.41,0.06296
2607.62,0.06295
2601.84,0.06263
2596.05,0.06286
2590.26,0.06256
2584.48,0.06262
2578.69,0.06319
2572.91,0.06312
2567.12,0.06307
2561.33,0.06316
2555.55,0.06310
2549.76,0.06312
2543.98,0.06323
2538.19,0.06288
2532.4,0.06287
2526.62,0.06302
2520.83,0.06269
2515.04,0.06325
2509.26,0.06295
2503.47,0.06275
2497.69,0.06304
2491.9,0.06222
2486.11,0.06247
2480.33,0.06275
2474.54,0.06291
2468.76,0.06260
2462.97,0.06244
2457.18,0.06280
2451.4,0.06260
2445.61,0.06294
2439.82,0.06273
2434.04,0.06309
2428.25,0.06276
2422.47,0.06315
2416.68,0.06263
2410.89,0.06256
2405.11,0.06301
2399.32,0.06274
2393.54,0.06312
2387.75,0.06320
2381.96,0.06319
2376.18,0.06367
2370.39,0.06385
2364.61,0.06335
2358.82,0.06355
2353.03,0.06203
2347.25,0.06250
2341.46,0.06286
2335.67,0.06291
2329.89,0.06377
2324.1,0.06410
2318.32,0.06251
2312.53,0.06317
2306.74,0.06277
2300.96,0.06227
2295.17,0.06226
2289.39,0.06250
2283.6,0.06281
2277.81,0.06237
2272.03,0.06273
2266.24,0.06241
2260.45,0.06198
2254.67,0.06199
2248.88,0.06247
2243.1,0.06213
2237.31,0.06224
2231.52,0.06258
2225.74,0.06242
2219.95,0.06246
2214.17,0.06228
2208.38,0.06264
2202.59,0.06230
2196.81,0.06204
2191.02,0.06233
2185.23,0.06217
2179.45,0.06276
2173.66,0.06240
2167.88,0.06206
2162.09,0.06199
2156.3,0.06210
2150.52,0.06204
2144.73,0.06178
2138.95,0.06172
2133.16,0.06215
2127.37,0.06173
2121.59,0.06174
2115.8,0.06142
2110.01,0.06142
2104.23,0.06113
2098.44,0.06141
2092.66,0.06149
2086.87,0.06120
2081.08,0.06131
2075.3,0.06141
2069.51,0.06139
2063.73,0.06136
2057.94,0.06131
2052.15,0.06112
2046.37,0.06138
2040.58,0.06107
2034.79,0.06093
2029.01,0.06075
2023.22,0.06117
2017.44,0.06103
2011.65,0.06076
2005.86,0.06079
2000.08,0.06089
1994.29,0.06069
1988.51,0.06063
1982.72,0.06090
1976.93,0.06060
1971.15,0.06042
1965.36,0.06031
1959.57,0.06056
1953.79,0.06007
1948,0.06005
1942.22,0.05993
1936.43,0.05979
1930.64,0.05986
1924.86,0.05945
1919.07,0.05922
1913.29,0.05904
1907.5,0.05895
1901.71,0.05896
1895.93,0.05893
1890.14,0.05928
1884.35,0.05845
1878.57,0.05810
1872.78,0.05796
1867,0.05777
1861.21,0.05733
1855.42,0.05726
1849.64,0.05691
1843.85,0.05611
1838.07,0.05561
1832.28,0.05490
1826.49,0.05379
1820.71,0.05316
1814.92,0.05173
1809.13,0.04968
1803.35,0.04705
1797.56,0.04357
1791.78,0.04200
1785.99,0.04628
1780.2,0.05882
1774.42,0.07402
1768.63,0.08731
1762.85,0.08702
1757.06,0.08026
1751.27,0.07599
1745.49,0.07176
1739.7,0.07031
1733.92,0.06847
1728.13,0.06713
1722.34,0.06654
1716.56,0.06589
1710.77,0.06486
1704.98,0.06439
1699.2,0.06253
1693.41,0.06313
1687.63,0.06313
1681.84,0.06109
1676.05,0.06149
1670.27,0.06130
1664.48,0.06132
1658.7,0.06115
1652.91,0.06196
1647.12,0.06058
1641.34,0.06073
1635.55,0.06022
1629.76,0.06035
1623.98,0.05982
1618.19,0.05943
1612.41,0.05862
1606.62,0.05842
1600.83,0.05901
1595.05,0.05933
1589.26,0.06026
1583.48,0.06008
1577.69,0.05874
1571.9,0.05827
1566.12,0.05759
1560.33,0.05666
1554.54,0.05538
1548.76,0.05460
1542.97,0.05394
1537.19,0.05263
1531.4,0.05170
1525.61,0.05083
1519.83,0.04590
1514.04,0.04223
1508.26,0.04956
1502.47,0.07179
1496.68,0.07284
1490.9,0.06926
1485.11,0.06551
1479.32,0.06391
1473.54,0.06191
1467.75,0.06076
1461.97,0.06098
1456.18,0.05986
1450.39,0.06034
1444.61,0.05921
1438.82,0.05873
1433.04,0.05733
1427.25,0.05643
1421.46,0.05536
1415.68,0.05336
1409.89,0.05497
1404.1,0.05650
1398.32,0.05609
1392.53,0.05416
1386.75,0.05379
1380.96,0.05405
1375.17,0.05256
1369.39,0.05067
1363.6,0.05292
1357.82,0.05282
1352.03,0.05128
1346.24,0.04933
1340.46,0.04818
1334.67,0.04627
1328.88,0.04507
1323.1,0.04326
1317.31,0.04091
1311.53,0.03936
1305.74,0.03818
1299.95,0.03568
1294.17,0.03497
1288.38,0.03476
1282.6,0.03229
1276.81,0.02785
1271.02,0.02225
1265.24,0.02001
1259.45,0.03550
1253.66,0.06787
1247.88,0.09225
1242.09,0.10569
1236.31,0.11826
1230.52,0.13044
1224.73,0.13695
1218.95,0.12985
1213.16,0.10519
1207.38,0.07640
1201.59,0.08928
1195.8,0.14275
1190.02,0.16448
1184.23,0.14009
1178.45,0.11101
1172.66,0.08877
1166.87,0.10990
1161.09,0.15468
1155.3,0.13882
1149.51,0.12133
1143.73,0.11202
1137.94,0.10519
1132.16,0.09974
1126.37,0.09541
1120.58,0.09176
1114.8,0.08885
1109.01,0.08819
1103.23,0.08814
1097.44,0.08703
1091.65,0.08275
1085.87,0.07772
1080.08,0.09177
1074.29,0.09267
1068.51,0.08747
1062.72,0.08423
1056.94,0.08229
1051.15,0.08050
1045.36,0.07911
1039.58,0.07730
1033.79,0.07408
1028.01,0.06958
1022.22,0.06288
1016.43,0.07837
1010.65,0.09582
1004.86,0.09296
999.075,0.08978
993.288,0.08659
987.502,0.08489
981.716,0.08340
975.93,0.08192
970.144,0.08035
964.358,0.07951
958.572,0.07899
952.785,0.07751
946.999,0.07746
941.213,0.07689
935.427,0.07691
929.641,0.07628
923.855,0.07528
918.068,0.07477
912.282,0.07439
906.496,0.07318
900.71,0.07156
894.924,0.06858
889.138,0.07173
883.352,0.07541
877.565,0.07522
871.779,0.07355
865.993,0.07109
860.207,0.06834
854.421,0.06609
848.635,0.06512
842.849,0.06638
837.062,0.06854
831.276,0.07772
825.49,0.08429
819.704,0.08322
813.918,0.08505
808.132,0.08477
802.346,0.08205
796.559,0.07896
790.773,0.07688
784.987,0.07529
779.201,0.07408
773.415,0.07437
767.629,0.07917
761.843,0.07945
756.056,0.08052
750.27,0.08121
744.484,0.07879
738.698,0.07774
732.912,0.07738
727.126,0.07792
721.34,0.07711
715.553,0.07586
709.767,0.07674
703.981,0.07672
698.195,0.07743
692.409,0.07603
686.623,0.07704
680.837,0.07621
675.05,0.07601
669.264,0.07478
663.478,0.07350
657.692,0.07527
651.906,0.07315
646.12,0.07363
640.333,0.07321
634.547,0.07257
628.761,0.07144
622.975,0.07357
617.189,0.07126
611.403,0.06925
605.617,0.06962
599.83,0.06822