File: 01_Data/PC/FTIR/IS/PC_IS_S_230508_R7.dpt
7496.92,0.13305
7491.13,0.12360
7485.34,0.12773
7479.56,0.11035
7473.77,0.12120
7467.99,0.13490
7462.2,0.12010
7456.41,0.12221
7450.63,0.11489
7444.84,0.13976
7439.06,0.13143
7433.27,0.11752
7427.48,0.12195
7421.7,0.11737
7415.91,0.11897
7410.12,0.10878
7404.34,0.11850
7398.55,0.11230
7392.77,0.10440
7386.98,0.11069
7381.19,0.10814
7375.41,0.11420
7369.62,0.10585
7363.84,0.11013
7358.05,0.10567
7352.26,0.11638
7346.48,0.09822
7340.69,0.11127
7334.9,0.10402
7329.12,0.10576
7323.33,0.10592
7317.55,0.10123
7311.76,0.10405
7305.97,0.10672
7300.19,0.09049
7294.4,0.09675
7288.62,0.09241
7282.83,0.10426
7277.04,0.09812
7271.26,0.09671
7265.47,0.08853
7259.68,0.08877
7253.9,0.09334
7248.11,0.10346
7242.33,0.09469
7236.54,0.09551
7230.75,0.09696
7224.97,0.09926
7219.18,0.09671
7213.4,0.09609
7207.61,0.09955
7201.82,0.09270
7196.04,0.09587
7190.25,0.10415
7184.46,0.08818
7178.68,0.09437
7172.89,0.10289
7167.11,0.10374
7161.32,0.10411
7155.53,0.09526
7149.75,0.10341
7143.96,0.09484
7138.18,0.10125
7132.39,0.10942
7126.6,0.10118
7120.82,0.10075
7115.03,0.11035
7109.24,0.09564
7103.46,0.10515
7097.67,0.10051
7091.89,0.10891
7086.1,0.10685
7080.31,0.10080
7074.53,0.10406
7068.74,0.10459
7062.96,0.11170
7057.17,0.11522
7051.38,0.11485
7045.6,0.10816
7039.81,0.10970
7034.02,0.10569
7028.24,0.10887
7022.45,0.10545
7016.67,0.11112
7010.88,0.11288
7005.09,0.11061
6999.31,0.10760
6993.52,0.11444
6987.74,0.11721
6981.95,0.11695
6976.16,0.10495
6970.38,0.10300
6964.59,0.10970
6958.8,0.10418
6953.02,0.10965
6947.23,0.11778
6941.45,0.12110
6935.66,0.11247
6929.87,0.11094
6924.09,0.12379
6918.3,0.11517
6912.52,0.12031
6906.73,0.10886
6900.94,0.10791
6895.16,0.11172
6889.37,0.11695
6883.59,0.11466
6877.8,0.11643
6872.01,0.11905
6866.23,0.11079
6860.44,0.12330
6854.65,0.12311
6848.87,0.11535
6843.08,0.11648
6837.3,0.11995
6831.51,0.11476
6825.72,0.11870
6819.94,0.11963
6814.15,0.11812
6808.37,0.11359
6802.58,0.10903
6796.79,0.11680
6791.01,0.11528
6785.22,0.11841
6779.43,0.11283
6773.65,0.11676
6767.86,0.11452
6762.08,0.11696
6756.29,0.11818
6750.5,0.11616
6744.72,0.11759
6738.93,0.12748
6733.15,0.12568
6727.36,0.12109
6721.57,0.11966
6715.79,0.12360
6710,0.12465
6704.21,0.12427
6698.43,0.11830
6692.64,0.12169
6686.86,0.12446
6681.07,0.12378
6675.28,0.12936
6669.5,0.12318
6663.71,0.12468
6657.93,0.12484
6652.14,0.12114
6646.35,0.12408
6640.57,0.12394
6634.78,0.12389
6628.99,0.13620
6623.21,0.13270
6617.42,0.12466
6611.64,0.12648
6605.85,0.12288
6600.06,0.12416
6594.28,0.12430
6588.49,0.13068
6582.71,0.12708
6576.92,0.13101
6571.13,0.13498
6565.35,0.12701
6559.56,0.13140
6553.77,0.12828
6547.99,0.13229
6542.2,0.13295
6536.42,0.13248
6530.63,0.12902
6524.84,0.13141
6519.06,0.12886
6513.27,0.13157
6507.49,0.12376
6501.7,0.13413
6495.91,0.13205
6490.13,0.13165
6484.34,0.12940
6478.55,0.12991
6472.77,0.12814
6466.98,0.12946
6461.2,0.13206
6455.41,0.12809
6449.62,0.12600
6443.84,0.13043
6438.05,0.12986
6432.27,0.12965
6426.48,0.13069
6420.69,0.12726
6414.91,0.12764
6409.12,0.12382
6403.33,0.12645
6397.55,0.12775
6391.76,0.12282
6385.98,0.12857
6380.19,0.12898
6374.4,0.12620
6368.62,0.13219
6362.83,0.12512
6357.05,0.12762
6351.26,0.12780
6345.47,0.12729
6339.69,0.12959
6333.9,0.12459
6328.12,0.12565
6322.33,0.12379
6316.54,0.12459
6310.76,0.12104
6304.97,0.11984
6299.18,0.12336
6293.4,0.12047
6287.61,0.12344
6281.83,0.12610
6276.04,0.11973
6270.25,0.11742
6264.47,0.11681
6258.68,0.11643
6252.9,0.11524
6247.11,0.11621
6241.32,0.11457
6235.54,0.11022
6229.75,0.11327
6223.96,0.10909
6218.18,0.10654
6212.39,0.10546
6206.61,0.10342
6200.82,0.10283
6195.03,0.10097
6189.25,0.09293
6183.46,0.09217
6177.68,0.08737
6171.89,0.08745
6166.1,0.08961
6160.32,0.08431
6154.53,0.08480
6148.74,0.08114
6142.96,0.07905
6137.17,0.07616
6131.39,0.07375
6125.6,0.07218
6119.81,0.07296
6114.03,0.07073
6108.24,0.07140
6102.46,0.06709
6096.67,0.06660
6090.88,0.06305
6085.1,0.06003
6079.31,0.05853
6073.52,0.05612
6067.74,0.05731
6061.95,0.05809
6056.17,0.06009
6050.38,0.05317
6044.59,0.05642
6038.81,0.05491
6033.02,0.05590
6027.24,0.05522
6021.45,0.05700
6015.66,0.05775
6009.88,0.05524
6004.09,0.05382
5998.3,0.05492
5992.52,0.05699
5986.73,0.05944
5980.95,0.05534
5975.16,0.05773
5969.37,0.05654
5963.59,0.05782
5957.8,0.05619
5952.02,0.05811
5946.23,0.05604
5940.44,0.05844
5934.66,0.05367
5928.87,0.05437
5923.08,0.05543
5917.3,0.05787
5911.51,0.06007
5905.73,0.05967
5899.94,0.05485
5894.15,0.05616
5888.37,0.05852
5882.58,0.05873
5876.8,0.05809
5871.01,0.05838
5865.22,0.05995
5859.44,0.05728
5853.65,0.06236
5847.86,0.06200
5842.08,0.06296
5836.29,0.06411
5830.51,0.06173
5824.72,0.06162
5818.93,0.06077
5813.15,0.06041
5807.36,0.06420
5801.58,0.06551
5795.79,0.06689
5790,0.06233
5784.22,0.06100
5778.43,0.06007
5772.65,0.06088
5766.86,0.05769
5761.07,0.06011
5755.29,0.05972
5749.5,0.06239
5743.71,0.06351
5737.93,0.06349
5732.14,0.06991
5726.36,0.06983
5720.57,0.07178
5714.78,0.07632
5709,0.07757
5703.21,0.07763
5697.43,0.07812
5691.64,0.07647
5685.85,0.07598
5680.07,0.07195
5674.28,0.07460
5668.49,0.07126
5662.71,0.07024
5656.92,0.07097
5651.14,0.07235
5645.35,0.07498
5639.56,0.07796
5633.78,0.08006
5627.99,0.08069
5622.21,0.08292
5616.42,0.08668
5610.63,0.09001
5604.85,0.09059
5599.06,0.08735
5593.27,0.08732
5587.49,0.08772
5581.7,0.08665
5575.92,0.08669
5570.13,0.08686
5564.34,0.08628
5558.56,0.08798
5552.77,0.08653
5546.99,0.08408
5541.2,0.08491
5535.41,0.08376
5529.63,0.08603
5523.84,0.08610
5518.05,0.08528
5512.27,0.08568
5506.48,0.08780
5500.7,0.08496
5494.91,0.08624
5489.12,0.08626
5483.34,0.08389
5477.55,0.08086
5471.77,0.08344
5465.98,0.08083
5460.19,0.08366
5454.41,0.08438
5448.62,0.08536
5442.83,0.08719
5437.05,0.08608
5431.26,0.08794
5425.48,0.08952
5419.69,0.08864
5413.9,0.08966
5408.12,0.08694
5402.33,0.08677
5396.55,0.08858
5390.76,0.08830
5384.97,0.08699
5379.19,0.09061
5373.4,0.08848
5367.61,0.08965
5361.83,0.08735
5356.04,0.08788
5350.26,0.08791
5344.47,0.08490
5338.68,0.08631
5332.9,0.08692
5327.11,0.08689
5321.33,0.08748
5315.54,0.08603
5309.75,0.08779
5303.97,0.08381
5298.18,0.08442
5292.39,0.08089
5286.61,0.07893
5280.82,0.07562
5275.04,0.07212
5269.25,0.06960
5263.46,0.06901
5257.68,0.06820
5251.89,0.07101
5246.11,0.07537
5240.32,0.07955
5234.53,0.08295
5228.75,0.08529
5222.96,0.08723
5217.18,0.09032
5211.39,0.09290
5205.6,0.09227
5199.82,0.09406
5194.03,0.09204
5188.24,0.09182
5182.46,0.09204
5176.67,0.09171
5170.89,0.09307
5165.1,0.09227
5159.31,0.09300
5153.53,0.09303
5147.74,0.09464
5141.96,0.09519
5136.17,0.09597
5130.38,0.09614
5124.6,0.09772
5118.81,0.09836
5113.02,0.09911
5107.24,0.09834
5101.45,0.09886
5095.67,0.09740
5089.88,0.09795
5084.09,0.09569
5078.31,0.09771
5072.52,0.09677
5066.74,0.09592
5060.95,0.09670
5055.16,0.09711
5049.38,0.09655
5043.59,0.09775
5037.8,0.09791
5032.02,0.09676
5026.23,0.09565
5020.45,0.09577
5014.66,0.09394
5008.87,0.09374
5003.09,0.09296
4997.3,0.09294
4991.52,0.09391
4985.73,0.09122
4979.94,0.09162
4974.16,0.09267
4968.37,0.08983
4962.58,0.08891
4956.8,0.08939
4951.01,0.08927
4945.23,0.09025
4939.44,0.08921
4933.65,0.08904
4927.87,0.08681
4922.08,0.08594
4916.3,0.08337
4910.51,0.08146
4904.72,0.07983
4898.94,0.07743
4893.15,0.07591
4887.36,0.07640
4881.58,0.07499
4875.79,0.07515
4870.01,0.07308
4864.22,0.07418
4858.43,0.07265
4852.65,0.06995
4846.86,0.06943
4841.08,0.07018
4835.29,0.07061
4829.5,0.06994
4823.72,0.07162
4817.93,0.07272
4812.14,0.07228
4806.36,0.07340
4800.57,0.07299
4794.79,0.07252
4789,0.07207
4783.21,0.07108
4777.43,0.07107
4771.64,0.06910
4765.86,0.06775
4760.07,0.06757
4754.28,0.06557
4748.5,0.06554
4742.71,0.06363
4736.92,0.06206
4731.14,0.06175
4725.35,0.06154
4719.57,0.06038
4713.78,0.06097
4707.99,0.06229
4702.21,0.06212
4696.42,0.06176
4690.64,0.06109
4684.85,0.06172
4679.06,0.06001
4673.28,0.06081
4667.49,0.06165
4661.7,0.06102
4655.92,0.06132
4650.13,0.06221
4644.35,0.06233
4638.56,0.06102
4632.77,0.06082
4626.99,0.06119
4621.2,0.06116
4615.42,0.06150
4609.63,0.06092
4603.84,0.06148
4598.06,0.06050
4592.27,0.06113
4586.49,0.06112
4580.7,0.06165
4574.91,0.06110
4569.13,0.06191
4563.34,0.06189
4557.55,0.06198
4551.77,0.06217
4545.98,0.06196
4540.2,0.06187
4534.41,0.06238
4528.62,0.06202
4522.84,0.06246
4517.05,0.06188
4511.27,0.06304
4505.48,0.06291
4499.69,0.06284
4493.91,0.06179
4488.12,0.06165
4482.33,0.06163
4476.55,0.06184
4470.76,0.06275
4464.98,0.06193
4459.19,0.06134
4453.4,0.06178
4447.62,0.06165
4441.83,0.06161
4436.05,0.06172
4430.26,0.06144
4424.47,0.06249
4418.69,0.06190
4412.9,0.06133
4407.11,0.06201
4401.33,0.06096
4395.54,0.06201
4389.76,0.06113
4383.97,0.06117
4378.18,0.06017
4372.4,0.06154
4366.61,0.06227
4360.83,0.06246
4355.04,0.06170
4349.25,0.06167
4343.47,0.06171
4337.68,0.06241
4331.89,0.06282
4326.11,0.06274
4320.32,0.06161
4314.54,0.06155
4308.75,0.06146
4302.96,0.06172
4297.18,0.06246
4291.39,0.06187
4285.61,0.06167
4279.82,0.06175
4274.03,0.06216
4268.25,0.06197
4262.46,0.06196
4256.67,0.06180
4250.89,0.06252
4245.1,0.06173
4239.32,0.06244
4233.53,0.06220
4227.74,0.06178
4221.96,0.06216
4216.17,0.06221
4210.39,0.06333
4204.6,0.06279
4198.81,0.06253
4193.03,0.06227
4187.24,0.06255
4181.45,0.06298
4175.67,0.06248
4169.88,0.06189
4164.1,0.06220
4158.31,0.06246
4152.52,0.06198
4146.74,0.06160
4140.95,0.06232
4135.17,0.06147
4129.38,0.06267
4123.59,0.06254
4117.81,0.06212
4112.02,0.06217
4106.23,0.06179
4100.45,0.06260
4094.66,0.06212
4088.88,0.06213
4083.09,0.06230
4077.3,0.06265
4071.52,0.06251
4065.73,0.06253
4059.95,0.06287
4054.16,0.06325
4048.37,0.06242
4042.59,0.06285
4036.8,0.06254
4031.02,0.06280
4025.23,0.06252
4019.44,0.06269
4013.66,0.06267
4007.87,0.06287
4002.08,0.06261
3996.3,0.06229
3990.51,0.06316
3984.73,0.06196
3978.94,0.06236
3973.15,0.06195
3967.37,0.06267
3961.58,0.06310
3955.8,0.06200
3950.01,0.06289
3944.22,0.06302
3938.44,0.06332
3932.65,0.06259
3926.86,0.06252
3921.08,0.06310
3915.29,0.06368
3909.51,0.06276
3903.72,0.06219
3897.93,0.06271
3892.15,0.06236
3886.36,0.06339
3880.58,0.06299
3874.79,0.06285
3869,0.06298
3863.22,0.06281
3857.43,0.06244
3851.64,0.06259
3845.86,0.06307
3840.07,0.06303
3834.29,0.06349
3828.5,0.06336
3822.71,0.06403
3816.93,0.06252
3811.14,0.06321
3805.36,0.06241
3799.57,0.06216
3793.78,0.06251
3788,0.06339
3782.21,0.06335
3776.42,0.06270
3770.64,0.06317
3764.85,0.06260
3759.07,0.06214
3753.28,0.06306
3747.49,0.06179
3741.71,0.06280
3735.92,0.06333
3730.14,0.06351
3724.35,0.06252
3718.56,0.06313
3712.78,0.06310
3706.99,0.06301
3701.2,0.06260
3695.42,0.06291
3689.63,0.06338
3683.85,0.06218
3678.06,0.06409
3672.27,0.06284
3666.49,0.06242
3660.7,0.06247
3654.92,0.06281
3649.13,0.06277
3643.34,0.06209
3637.56,0.06265
3631.77,0.06265
3625.98,0.06194
3620.2,0.06173
3614.41,0.06186
3608.63,0.06277
3602.84,0.06323
3597.05,0.06229
3591.27,0.06146
3585.48,0.06172
3579.7,0.06190
3573.91,0.06152
3568.12,0.06161
3562.34,0.06123
3556.55,0.06181
3550.76,0.06177
3544.98,0.06183
3539.19,0.06187
3533.41,0.06210
3527.62,0.06225
3521.83,0.06218
3516.05,0.06164
3510.26,0.06158
3504.48,0.06179
3498.69,0.06215
3492.9,0.06161
3487.12,0.06136
3481.33,0.06177
3475.55,0.06169
3469.76,0.06269
3463.97,0.06150
3458.19,0.06118
3452.4,0.06227
3446.61,0.06203
3440.83,0.06111
3435.04,0.06169
3429.26,0.06187
3423.47,0.06234
3417.68,0.06186
3411.9,0.06212
3406.11,0.06204
3400.33,0.06140
3394.54,0.06146
3388.75,0.06154
3382.97,0.06128
3377.18,0.06090
3371.39,0.06176
3365.61,0.06149
3359.82,0.06148
3354.04,0.06094
3348.25,0.06148
3342.46,0.06153
3336.68,0.06143
3330.89,0.06134
3325.11,0.06158
3319.32,0.06173
3313.53,0.06194
3307.75,0.06074
3301.96,0.06176
3296.17,0.06175
3290.39,0.06156
3284.6,0.06103
3278.82,0.06186
3273.03,0.06219
3267.24,0.06168
3261.46,0.06196
3255.67,0.06162
3249.89,0.06190
3244.1,0.06223
3238.31,0.06207
3232.53,0.06166
3226.74,0.06164
3220.95,0.06183
3215.17,0.06176
3209.38,0.06164
3203.6,0.06146
3197.81,0.06149
3192.02,0.06225
3186.24,0.06221
3180.45,0.06234
3174.67,0.06168
3168.88,0.06172
3163.09,0.06161
3157.31,0.06191
3151.52,0.06213
3145.73,0.06226
3139.95,0.06234
3134.16,0.06156
3128.38,0.06218
3122.59,0.06165
3116.8,0.06181
3111.02,0.06183
3105.23,0.06175
3099.45,0.06191
3093.66,0.06154
3087.87,0.06176
3082.09,0.06158
3076.3,0.06140
3070.51,0.06183
3064.73,0.06095
3058.94,0.06139
3053.16,0.06149
3047.37,0.06110
3041.58,0.06207
3035.8,0.06195
3030.01,0.06204
3024.23,0.06194
3018.44,0.06148
3012.65,0.06140
3006.87,0.06140
3001.08,0.06129
2995.29,0.06030
2989.51,0.06006
2983.72,0.05954
2977.94,0.06097
2972.15,0.06142
2966.36,0.06266
2960.58,0.06401
2954.79,0.06320
2949.01,0.06289
2943.22,0.06339
2937.43,0.06399
2931.65,0.06408
2925.86,0.06464
2920.08,0.06480
2914.29,0.06428
2908.5,0.06342
2902.72,0.06349
2896.93,0.06394
2891.14,0.06274
2885.36,0.06321
2879.57,0.06303
2873.79,0.06335
2868,0.06348
2862.21,0.06358
2856.43,0.06385
2850.64,0.06453
2844.86,0.06354
2839.07,0.06358
2833.28,0.06330
2827.5,0.06349
2821.71,0.06292
2815.92,0.06317
2810.14,0.06305
2804.35,0.06332
2798.57,0.06294
2792.78,0.06289
2786.99,0.06268
2781.21,0.06313
2775.42,0.06258
2769.64,0.06258
2763.85,0.06278
2758.06,0.06300
2752.28,0.06292
2746.49,0.06298
2740.7,0.06269
2734.92,0.06268
2729.13,0.06296
2723.35,0.06352
2717.56,0.06287
2711.77,0.06291
2705.99,0.06300
2700.2,0.06309
2694.42,0.06262
2688.63,0.06302
2682.84,0.06292
2677.06,0.06270
2671.27,0.06287
2665.48,0.06299
2659.7,0.06292
2653.91,0.06295
2648.13,0.06286
2642.34,0.06282
2636.55,0.06274
2630.77,0.06228
2624.98,0.06267
2619.2,0.06276
2613.41,0.06280
2607.62,0.06270
2601.84,0.06250
2596.05,0.06284
2590.26,0.06260
2584.48,0.06275
2578.69,0.06303
2572.91,0.06234
2567.12,0.06255
2561.33,0.06286
2555.55,0.06286
2549.76,0.06271
2543.98,0.06255
2538.19,0.06269
2532.4,0.06259
2526.62,0.06276
2520.83,0.06239
2515.04,0.06262
2509.26,0.06273
2503.47,0.06232
2497.69,0.06257
2491.9,0.06243
2486.11,0.06249
2480.33,0.06270
2474.54,0.06253
2468.76,0.06242
2462.97,0.06287
2457.18,0.06251
2451.4,0.06240
2445.61,0.06280
2439.82,0.06297
2434.04,0.06254
2428.25,0.06252
2422.47,0.06246
2416.68,0.06252
2410.89,0.06257
2405.11,0.06213
2399.32,0.06239
2393.54,0.06295
2387.75,0.06296
2381.96,0.06341
2376.18,0.06321
2370.39,0.06260
2364.61,0.06255
2358.82,0.06172
2353.03,0.06228
2347.25,0.06313
2341.46,0.06233
2335.67,0.06329
2329.89,0.06429
2324.1,0.06333
2318.32,0.06295
2312.53,0.06214
2306.74,0.06211
2300.96,0.06204
2295.17,0.06208
2289.39,0.06212
2283.6,0.06195
2277.81,0.06212
2272.03,0.06198
2266.24,0.06214
2260.45,0.06149
2254.67,0.06153
2248.88,0.06140
2243.1,0.06190
2237.31,0.06169
2231.52,0.06180
2225.74,0.06215
2219.95,0.06170
2214.17,0.06189
2208.38,0.06187
2202.59,0.06215
2196.81,0.06188
2191.02,0.06204
2185.23,0.06184
2179.45,0.06158
2173.66,0.06153
2167.88,0.06197
2162.09,0.06176
2156.3,0.06165
2150.52,0.06137
2144.73,0.06120
2138.95,0.06131
2133.16,0.06133
2127.37,0.06144
2121.59,0.06132
2115.8,0.06127
2110.01,0.06128
2104.23,0.06139
2098.44,0.06088
2092.66,0.06105
2086.87,0.06120
2081.08,0.06085
2075.3,0.06127
2069.51,0.06125
2063.73,0.06118
2057.94,0.06100
2052.15,0.06082
2046.37,0.06076
2040.58,0.06093
2034.79,0.06064
2029.01,0.06092
2023.22,0.06075
2017.44,0.06061
2011.65,0.06060
2005.86,0.06054
2000.08,0.06040
1994.29,0.06050
1988.51,0.06076
1982.72,0.06041
1976.93,0.06037
1971.15,0.06029
1965.36,0.06026
1959.57,0.05989
1953.79,0.05982
1948,0.05993
1942.22,0.05994
1936.43,0.05977
1930.64,0.05926
1924.86,0.05942
1919.07,0.05881
1913.29,0.05897
1907.5,0.05889
1901.71,0.05845
1895.93,0.05875
1890.14,0.05829
1884.35,0.05822
1878.57,0.05800
1872.78,0.05795
1867,0.05735
1861.21,0.05733
1855.42,0.05704
1849.64,0.05653
1843.85,0.05606
1838.07,0.05509
1832.28,0.05492
1826.49,0.05387
1820.71,0.05267
1814.92,0.05134
1809.13,0.04929
1803.35,0.04688
1797.56,0.04375
1791.78,0.04144
1785.99,0.04630
1780.2,0.05920
1774.42,0.07404
1768.63,0.08774
1762.85,0.08662
1757.06,0.07988
1751.27,0.07522
1745.49,0.07139
1739.7,0.06944
1733.92,0.06821
1728.13,0.06715
1722.34,0.06644
1716.56,0.06581
1710.77,0.06465
1704.98,0.06392
1699.2,0.06423
1693.41,0.06252
1687.63,0.06231
1681.84,0.06111
1676.05,0.06142
1670.27,0.06219
1664.48,0.06094
1658.7,0.06063
1652.91,0.05992
1647.12,0.06053
1641.34,0.05999
1635.55,0.05983
1629.76,0.05952
1623.98,0.05898
1618.19,0.05854
1612.41,0.05827
1606.62,0.05834
1600.83,0.05824
1595.05,0.05877
1589.26,0.05927
1583.48,0.05884
1577.69,0.05848
1571.9,0.05776
1566.12,0.05665
1560.33,0.05581
1554.54,0.05530
1548.76,0.05492
1542.97,0.05373
1537.19,0.05207
1531.4,0.05121
1525.61,0.05033
1519.83,0.04575
1514.04,0.04141
1508.26,0.04912
1502.47,0.07189
1496.68,0.07235
1490.9,0.06958
1485.11,0.06522
1479.32,0.06324
1473.54,0.06118
1467.75,0.06035
1461.97,0.06128
1456.18,0.05980
1450.39,0.05923
1444.61,0.05914
1438.82,0.05846
1433.04,0.05694
1427.25,0.05599
1421.46,0.05460
1415.68,0.05328
1409.89,0.05456
1404.1,0.05598
1398.32,0.05520
1392.53,0.05295
1386.75,0.05316
1380.96,0.05358
1375.17,0.05160
1369.39,0.04985
1363.6,0.05225
1357.82,0.05199
1352.03,0.05032
1346.24,0.04898
1340.46,0.04806
1334.67,0.04594
1328.88,0.04457
1323.1,0.04319
1317.31,0.04023
1311.53,0.03875
1305.74,0.03766
1299.95,0.03563
1294.17,0.03460
1288.38,0.03398
1282.6,0.03189
1276.81,0.02736
1271.02,0.02224
1265.24,0.01982
1259.45,0.03548
1253.66,0.06898
1247.88,0.09367
1242.09,0.10690
1236.31,0.11905
1230.52,0.13104
1224.73,0.13750
1218.95,0.13042
1213.16,0.10565
1207.38,0.07667
1201.59,0.08936
1195.8,0.14316
1190.02,0.16453
1184.23,0.14003
1178.45,0.11139
1172.66,0.08790
1166.87,0.10991
1161.09,0.15436
1155.3,0.13840
1149.51,0.12106
1143.73,0.11133
1137.94,0.10446
1132.16,0.09966
1126.37,0.09530
1120.58,0.09122
1114.8,0.08852
1109.01,0.08743
1103.23,0.08799
1097.44,0.08751
1091.65,0.08199
1085.87,0.07748
1080.08,0.09195
1074.29,0.09267
1068.51,0.08749
1062.72,0.08392
1056.94,0.08194
1051.15,0.08086
1045.36,0.07870
1039.58,0.07684
1033.79,0.07412
1028.01,0.06971
1022.22,0.06345
1016.43,0.07830
1010.65,0.09620
1004.86,0.09294
999.075,0.08977
993.288,0.08656
987.502,0.08484
981.716,0.08279
975.93,0.08179
970.144,0.07953
964.358,0.07948
958.572,0.07884
952.785,0.07773
946.999,0.07746
941.213,0.07668
935.427,0.07596
929.641,0.07487
923.855,0.07442
918.068,0.07426
912.282,0.07401
906.496,0.07281
900.71,0.07103
894.924,0.06878
889.138,0.07144
883.352,0.07492
877.565,0.07464
871.779,0.07249
865.993,0.07032
860.207,0.06824
854.421,0.06666
848.635,0.06535
842.849,0.06666
837.062,0.06894
831.276,0.07776
825.49,0.08448
819.704,0.08293
813.918,0.08420
808.132,0.08379
802.346,0.08196
796.559,0.07879
790.773,0.07606
784.987,0.07431
779.201,0.07369
773.415,0.07524
767.629,0.07876
761.843,0.07972
756.056,0.08053
750.27,0.07962
744.484,0.07897
738.698,0.07747
732.912,0.07634
727.126,0.07648
721.34,0.07676
715.553,0.07572
709.767,0.07491
703.981,0.07758
698.195,0.07760
692.409,0.07686
686.623,0.07520
680.837,0.07524
675.05,0.07579
669.264,0.07564
663.478,0.07451
657.692,0.07319
651.906,0.07320
646.12,0.07158
640.333,0.07192
634.547,0.07100
628.761,0.07145
622.975,0.07055
617.189,0.07152
611.403,0.07020
605.617,0.06649
599.83,0.06652