File: 01_Data/PC/FTIR/IS/PC_IS_S_230508_R3.dpt
7496.92,0.12930
7491.13,0.12637
7485.34,0.12408
7479.56,0.12672
7473.77,0.12869
7467.99,0.12397
7462.2,0.11350
7456.41,0.11909
7450.63,0.12361
7444.84,0.12566
7439.06,0.12818
7433.27,0.12122
7427.48,0.11961
7421.7,0.12090
7415.91,0.11596
7410.12,0.12274
7404.34,0.10903
7398.55,0.11195
7392.77,0.11851
7386.98,0.10801
7381.19,0.10543
7375.41,0.12652
7369.62,0.10850
7363.84,0.10589
7358.05,0.10778
7352.26,0.10991
7346.48,0.10069
7340.69,0.09502
7334.9,0.11409
7329.12,0.09419
7323.33,0.10359
7317.55,0.10870
7311.76,0.11162
7305.97,0.11264
7300.19,0.09769
7294.4,0.10212
7288.62,0.08810
7282.83,0.10643
7277.04,0.10605
7271.26,0.10576
7265.47,0.10004
7259.68,0.10310
7253.9,0.10206
7248.11,0.09536
7242.33,0.08383
7236.54,0.09058
7230.75,0.08757
7224.97,0.10062
7219.18,0.10185
7213.4,0.10308
7207.61,0.09781
7201.82,0.10097
7196.04,0.09987
7190.25,0.09504
7184.46,0.10159
7178.68,0.09879
7172.89,0.09717
7167.11,0.09234
7161.32,0.10133
7155.53,0.10310
7149.75,0.09330
7143.96,0.09622
7138.18,0.09659
7132.39,0.10055
7126.6,0.10160
7120.82,0.10126
7115.03,0.09700
7109.24,0.10032
7103.46,0.09561
7097.67,0.09880
7091.89,0.10359
7086.1,0.10831
7080.31,0.10653
7074.53,0.10655
7068.74,0.10200
7062.96,0.11026
7057.17,0.11603
7051.38,0.10874
7045.6,0.11164
7039.81,0.11291
7034.02,0.10559
7028.24,0.11101
7022.45,0.10861
7016.67,0.11110
7010.88,0.10467
7005.09,0.11459
6999.31,0.10835
6993.52,0.10914
6987.74,0.11106
6981.95,0.10674
6976.16,0.11287
6970.38,0.11317
6964.59,0.11538
6958.8,0.11346
6953.02,0.10697
6947.23,0.10831
6941.45,0.11597
6935.66,0.11292
6929.87,0.11186
6924.09,0.11460
6918.3,0.11394
6912.52,0.12018
6906.73,0.11052
6900.94,0.10463
6895.16,0.11214
6889.37,0.11763
6883.59,0.11575
6877.8,0.11745
6872.01,0.11682
6866.23,0.11679
6860.44,0.11825
6854.65,0.11857
6848.87,0.10984
6843.08,0.10748
6837.3,0.10997
6831.51,0.10989
6825.72,0.10942
6819.94,0.11581
6814.15,0.11294
6808.37,0.11507
6802.58,0.12214
6796.79,0.11378
6791.01,0.11882
6785.22,0.11842
6779.43,0.12086
6773.65,0.11333
6767.86,0.11579
6762.08,0.11859
6756.29,0.11900
6750.5,0.11630
6744.72,0.11836
6738.93,0.11996
6733.15,0.12415
6727.36,0.11781
6721.57,0.12208
6715.79,0.12296
6710,0.12128
6704.21,0.11862
6698.43,0.12353
6692.64,0.11737
6686.86,0.12383
6681.07,0.11867
6675.28,0.12833
6669.5,0.12644
6663.71,0.12742
6657.93,0.12503
6652.14,0.12758
6646.35,0.12283
6640.57,0.12564
6634.78,0.12690
6628.99,0.12464
6623.21,0.12187
6617.42,0.12149
6611.64,0.12952
6605.85,0.13317
6600.06,0.12983
6594.28,0.12906
6588.49,0.12722
6582.71,0.12956
6576.92,0.12475
6571.13,0.13241
6565.35,0.12459
6559.56,0.12432
6553.77,0.13254
6547.99,0.13400
6542.2,0.13178
6536.42,0.13041
6530.63,0.13032
6524.84,0.12765
6519.06,0.13492
6513.27,0.13732
6507.49,0.13253
6501.7,0.13032
6495.91,0.13155
6490.13,0.12980
6484.34,0.12768
6478.55,0.12902
6472.77,0.12949
6466.98,0.13230
6461.2,0.13301
6455.41,0.13385
6449.62,0.12961
6443.84,0.12798
6438.05,0.13306
6432.27,0.12508
6426.48,0.12554
6420.69,0.12860
6414.91,0.12851
6409.12,0.13280
6403.33,0.12648
6397.55,0.13081
6391.76,0.12964
6385.98,0.12957
6380.19,0.12772
6374.4,0.12822
6368.62,0.12687
6362.83,0.12873
6357.05,0.12524
6351.26,0.12783
6345.47,0.13089
6339.69,0.11928
6333.9,0.12515
6328.12,0.12628
6322.33,0.12009
6316.54,0.12204
6310.76,0.12322
6304.97,0.12502
6299.18,0.12356
6293.4,0.12410
6287.61,0.12150
6281.83,0.12257
6276.04,0.12556
6270.25,0.11921
6264.47,0.11738
6258.68,0.12087
6252.9,0.11532
6247.11,0.11253
6241.32,0.11033
6235.54,0.11336
6229.75,0.10750
6223.96,0.11094
6218.18,0.10963
6212.39,0.10615
6206.61,0.10465
6200.82,0.10430
6195.03,0.10211
6189.25,0.09866
6183.46,0.09198
6177.68,0.08975
6171.89,0.09125
6166.1,0.08620
6160.32,0.08500
6154.53,0.08700
6148.74,0.08309
6142.96,0.08194
6137.17,0.07872
6131.39,0.07520
6125.6,0.07014
6119.81,0.07127
6114.03,0.07228
6108.24,0.06890
6102.46,0.06803
6096.67,0.06232
6090.88,0.06020
6085.1,0.06208
6079.31,0.06139
6073.52,0.05983
6067.74,0.05908
6061.95,0.05708
6056.17,0.05828
6050.38,0.06158
6044.59,0.05478
6038.81,0.05849
6033.02,0.06056
6027.24,0.05977
6021.45,0.05813
6015.66,0.06035
6009.88,0.05723
6004.09,0.05819
5998.3,0.05573
5992.52,0.05757
5986.73,0.05430
5980.95,0.05361
5975.16,0.05749
5969.37,0.05537
5963.59,0.06007
5957.8,0.05705
5952.02,0.05584
5946.23,0.05708
5940.44,0.05765
5934.66,0.05183
5928.87,0.05441
5923.08,0.05720
5917.3,0.05614
5911.51,0.05609
5905.73,0.05663
5899.94,0.05525
5894.15,0.05665
5888.37,0.05526
5882.58,0.05743
5876.8,0.05845
5871.01,0.05995
5865.22,0.06026
5859.44,0.05972
5853.65,0.06002
5847.86,0.06018
5842.08,0.06195
5836.29,0.06069
5830.51,0.06292
5824.72,0.06330
5818.93,0.06351
5813.15,0.06244
5807.36,0.06148
5801.58,0.06391
5795.79,0.06310
5790,0.06200
5784.22,0.06583
5778.43,0.06106
5772.65,0.06239
5766.86,0.06049
5761.07,0.06078
5755.29,0.06279
5749.5,0.06231
5743.71,0.06787
5737.93,0.06750
5732.14,0.06935
5726.36,0.07096
5720.57,0.07288
5714.78,0.07572
5709,0.07672
5703.21,0.08086
5697.43,0.07993
5691.64,0.07800
5685.85,0.07761
5680.07,0.07629
5674.28,0.07157
5668.49,0.07071
5662.71,0.06814
5656.92,0.07002
5651.14,0.07075
5645.35,0.07340
5639.56,0.07859
5633.78,0.07919
5627.99,0.08130
5622.21,0.08478
5616.42,0.08614
5610.63,0.08821
5604.85,0.08678
5599.06,0.08637
5593.27,0.08866
5587.49,0.08622
5581.7,0.08873
5575.92,0.08780
5570.13,0.08710
5564.34,0.08805
5558.56,0.08598
5552.77,0.08656
5546.99,0.08695
5541.2,0.08495
5535.41,0.08609
5529.63,0.08579
5523.84,0.08745
5518.05,0.08654
5512.27,0.08737
5506.48,0.08729
5500.7,0.08620
5494.91,0.08497
5489.12,0.08323
5483.34,0.08185
5477.55,0.08293
5471.77,0.08133
5465.98,0.08307
5460.19,0.08457
5454.41,0.08586
5448.62,0.08628
5442.83,0.08631
5437.05,0.08709
5431.26,0.08497
5425.48,0.09017
5419.69,0.08763
5413.9,0.09180
5408.12,0.09002
5402.33,0.08719
5396.55,0.08808
5390.76,0.08840
5384.97,0.08845
5379.19,0.09075
5373.4,0.09207
5367.61,0.09057
5361.83,0.08955
5356.04,0.08845
5350.26,0.08582
5344.47,0.08725
5338.68,0.08647
5332.9,0.08718
5327.11,0.08943
5321.33,0.08791
5315.54,0.08812
5309.75,0.08639
5303.97,0.08655
5298.18,0.08297
5292.39,0.08228
5286.61,0.07978
5280.82,0.07470
5275.04,0.07283
5269.25,0.06973
5263.46,0.06769
5257.68,0.07011
5251.89,0.07386
5246.11,0.07844
5240.32,0.08045
5234.53,0.08276
5228.75,0.08639
5222.96,0.08979
5217.18,0.09191
5211.39,0.09400
5205.6,0.09171
5199.82,0.09178
5194.03,0.09311
5188.24,0.09188
5182.46,0.09147
5176.67,0.09134
5170.89,0.09255
5165.1,0.09196
5159.31,0.09324
5153.53,0.09552
5147.74,0.09427
5141.96,0.09626
5136.17,0.09742
5130.38,0.09628
5124.6,0.09670
5118.81,0.09787
5113.02,0.09775
5107.24,0.09829
5101.45,0.09972
5095.67,0.09760
5089.88,0.09849
5084.09,0.09777
5078.31,0.09717
5072.52,0.09633
5066.74,0.09596
5060.95,0.09689
5055.16,0.09757
5049.38,0.09824
5043.59,0.09864
5037.8,0.09975
5032.02,0.09828
5026.23,0.09674
5020.45,0.09666
5014.66,0.09441
5008.87,0.09491
5003.09,0.09560
4997.3,0.09414
4991.52,0.09367
4985.73,0.09290
4979.94,0.09079
4974.16,0.09021
4968.37,0.09064
4962.58,0.09085
4956.8,0.09050
4951.01,0.09018
4945.23,0.09010
4939.44,0.08965
4933.65,0.08971
4927.87,0.08806
4922.08,0.08540
4916.3,0.08455
4910.51,0.08248
4904.72,0.08053
4898.94,0.07735
4893.15,0.07681
4887.36,0.07684
4881.58,0.07636
4875.79,0.07599
4870.01,0.07542
4864.22,0.07413
4858.43,0.07243
4852.65,0.07049
4846.86,0.07144
4841.08,0.07068
4835.29,0.07143
4829.5,0.07201
4823.72,0.07148
4817.93,0.07253
4812.14,0.07310
4806.36,0.07363
4800.57,0.07331
4794.79,0.07365
4789,0.07275
4783.21,0.07157
4777.43,0.06980
4771.64,0.06859
4765.86,0.06923
4760.07,0.06721
4754.28,0.06645
4748.5,0.06464
4742.71,0.06468
4736.92,0.06374
4731.14,0.06225
4725.35,0.06242
4719.57,0.06277
4713.78,0.06140
4707.99,0.06183
4702.21,0.06255
4696.42,0.06243
4690.64,0.06089
4684.85,0.06198
4679.06,0.06139
4673.28,0.06198
4667.49,0.06212
4661.7,0.06314
4655.92,0.06161
4650.13,0.06183
4644.35,0.06146
4638.56,0.06156
4632.77,0.06238
4626.99,0.06134
4621.2,0.06178
4615.42,0.06149
4609.63,0.06156
4603.84,0.06154
4598.06,0.06207
4592.27,0.06233
4586.49,0.06115
4580.7,0.06111
4574.91,0.06136
4569.13,0.06240
4563.34,0.06147
4557.55,0.06286
4551.77,0.06357
4545.98,0.06387
4540.2,0.06318
4534.41,0.06327
4528.62,0.06240
4522.84,0.06304
4517.05,0.06356
4511.27,0.06236
4505.48,0.06319
4499.69,0.06235
4493.91,0.06240
4488.12,0.06114
4482.33,0.06104
4476.55,0.06257
4470.76,0.06131
4464.98,0.06266
4459.19,0.06274
4453.4,0.06173
4447.62,0.06224
4441.83,0.06183
4436.05,0.06213
4430.26,0.06175
4424.47,0.06196
4418.69,0.06221
4412.9,0.06144
4407.11,0.06228
4401.33,0.06224
4395.54,0.06253
4389.76,0.06287
4383.97,0.06207
4378.18,0.06256
4372.4,0.06242
4366.61,0.06186
4360.83,0.06230
4355.04,0.06149
4349.25,0.06269
4343.47,0.06163
4337.68,0.06208
4331.89,0.06291
4326.11,0.06224
4320.32,0.06277
4314.54,0.06266
4308.75,0.06230
4302.96,0.06195
4297.18,0.06245
4291.39,0.06214
4285.61,0.06231
4279.82,0.06200
4274.03,0.06178
4268.25,0.06191
4262.46,0.06268
4256.67,0.06324
4250.89,0.06178
4245.1,0.06177
4239.32,0.06165
4233.53,0.06241
4227.74,0.06239
4221.96,0.06218
4216.17,0.06313
4210.39,0.06239
4204.6,0.06225
4198.81,0.06303
4193.03,0.06273
4187.24,0.06214
4181.45,0.06342
4175.67,0.06254
4169.88,0.06293
4164.1,0.06300
4158.31,0.06286
4152.52,0.06255
4146.74,0.06265
4140.95,0.06244
4135.17,0.06283
4129.38,0.06238
4123.59,0.06313
4117.81,0.06277
4112.02,0.06290
4106.23,0.06281
4100.45,0.06262
4094.66,0.06305
4088.88,0.06331
4083.09,0.06302
4077.3,0.06291
4071.52,0.06257
4065.73,0.06302
4059.95,0.06297
4054.16,0.06363
4048.37,0.06272
4042.59,0.06353
4036.8,0.06347
4031.02,0.06268
4025.23,0.06343
4019.44,0.06308
4013.66,0.06301
4007.87,0.06316
4002.08,0.06340
3996.3,0.06319
3990.51,0.06295
3984.73,0.06243
3978.94,0.06355
3973.15,0.06265
3967.37,0.06300
3961.58,0.06338
3955.8,0.06358
3950.01,0.06265
3944.22,0.06284
3938.44,0.06324
3932.65,0.06276
3926.86,0.06339
3921.08,0.06266
3915.29,0.06308
3909.51,0.06362
3903.72,0.06204
3897.93,0.06349
3892.15,0.06345
3886.36,0.06432
3880.58,0.06347
3874.79,0.06319
3869,0.06335
3863.22,0.06313
3857.43,0.06467
3851.64,0.06356
3845.86,0.06383
3840.07,0.06468
3834.29,0.06332
3828.5,0.06388
3822.71,0.06479
3816.93,0.06366
3811.14,0.06353
3805.36,0.06325
3799.57,0.06378
3793.78,0.06311
3788,0.06279
3782.21,0.06293
3776.42,0.06346
3770.64,0.06315
3764.85,0.06277
3759.07,0.06370
3753.28,0.06439
3747.49,0.06238
3741.71,0.06339
3735.92,0.06150
3730.14,0.06315
3724.35,0.06247
3718.56,0.06336
3712.78,0.06243
3706.99,0.06347
3701.2,0.06286
3695.42,0.06346
3689.63,0.06224
3683.85,0.06371
3678.06,0.06464
3672.27,0.06322
3666.49,0.06314
3660.7,0.06364
3654.92,0.06296
3649.13,0.06094
3643.34,0.06278
3637.56,0.06336
3631.77,0.06255
3625.98,0.06357
3620.2,0.06274
3614.41,0.06192
3608.63,0.06186
3602.84,0.06313
3597.05,0.06215
3591.27,0.06226
3585.48,0.06306
3579.7,0.06252
3573.91,0.06208
3568.12,0.06076
3562.34,0.06180
3556.55,0.06245
3550.76,0.06254
3544.98,0.06250
3539.19,0.06236
3533.41,0.06192
3527.62,0.06264
3521.83,0.06231
3516.05,0.06253
3510.26,0.06260
3504.48,0.06234
3498.69,0.06267
3492.9,0.06249
3487.12,0.06366
3481.33,0.06286
3475.55,0.06252
3469.76,0.06171
3463.97,0.06230
3458.19,0.06232
3452.4,0.06250
3446.61,0.06173
3440.83,0.06277
3435.04,0.06238
3429.26,0.06200
3423.47,0.06225
3417.68,0.06198
3411.9,0.06118
3406.11,0.06199
3400.33,0.06209
3394.54,0.06241
3388.75,0.06202
3382.97,0.06213
3377.18,0.06229
3371.39,0.06127
3365.61,0.06152
3359.82,0.06196
3354.04,0.06175
3348.25,0.06215
3342.46,0.06122
3336.68,0.06207
3330.89,0.06268
3325.11,0.06218
3319.32,0.06216
3313.53,0.06201
3307.75,0.06125
3301.96,0.06164
3296.17,0.06182
3290.39,0.06239
3284.6,0.06216
3278.82,0.06238
3273.03,0.06237
3267.24,0.06230
3261.46,0.06235
3255.67,0.06161
3249.89,0.06208
3244.1,0.06222
3238.31,0.06179
3232.53,0.06225
3226.74,0.06225
3220.95,0.06227
3215.17,0.06179
3209.38,0.06244
3203.6,0.06200
3197.81,0.06221
3192.02,0.06227
3186.24,0.06229
3180.45,0.06237
3174.67,0.06157
3168.88,0.06253
3163.09,0.06210
3157.31,0.06219
3151.52,0.06213
3145.73,0.06229
3139.95,0.06223
3134.16,0.06208
3128.38,0.06211
3122.59,0.06193
3116.8,0.06237
3111.02,0.06238
3105.23,0.06210
3099.45,0.06259
3093.66,0.06206
3087.87,0.06200
3082.09,0.06179
3076.3,0.06206
3070.51,0.06185
3064.73,0.06185
3058.94,0.06220
3053.16,0.06158
3047.37,0.06208
3041.58,0.06209
3035.8,0.06271
3030.01,0.06285
3024.23,0.06233
3018.44,0.06194
3012.65,0.06202
3006.87,0.06124
3001.08,0.06116
2995.29,0.06116
2989.51,0.06066
2983.72,0.06026
2977.94,0.06126
2972.15,0.06179
2966.36,0.06355
2960.58,0.06461
2954.79,0.06397
2949.01,0.06376
2943.22,0.06378
2937.43,0.06369
2931.65,0.06360
2925.86,0.06465
2920.08,0.06504
2914.29,0.06471
2908.5,0.06350
2902.72,0.06427
2896.93,0.06324
2891.14,0.06414
2885.36,0.06328
2879.57,0.06294
2873.79,0.06344
2868,0.06429
2862.21,0.06419
2856.43,0.06437
2850.64,0.06437
2844.86,0.06387
2839.07,0.06357
2833.28,0.06330
2827.5,0.06338
2821.71,0.06341
2815.92,0.06313
2810.14,0.06338
2804.35,0.06372
2798.57,0.06306
2792.78,0.06317
2786.99,0.06324
2781.21,0.06321
2775.42,0.06356
2769.64,0.06319
2763.85,0.06294
2758.06,0.06342
2752.28,0.06340
2746.49,0.06323
2740.7,0.06287
2734.92,0.06342
2729.13,0.06349
2723.35,0.06346
2717.56,0.06325
2711.77,0.06371
2705.99,0.06308
2700.2,0.06304
2694.42,0.06339
2688.63,0.06331
2682.84,0.06289
2677.06,0.06292
2671.27,0.06327
2665.48,0.06297
2659.7,0.06282
2653.91,0.06264
2648.13,0.06299
2642.34,0.06300
2636.55,0.06311
2630.77,0.06272
2624.98,0.06276
2619.2,0.06262
2613.41,0.06321
2607.62,0.06291
2601.84,0.06334
2596.05,0.06294
2590.26,0.06311
2584.48,0.06289
2578.69,0.06298
2572.91,0.06306
2567.12,0.06338
2561.33,0.06278
2555.55,0.06235
2549.76,0.06277
2543.98,0.06290
2538.19,0.06276
2532.4,0.06257
2526.62,0.06324
2520.83,0.06273
2515.04,0.06284
2509.26,0.06245
2503.47,0.06280
2497.69,0.06300
2491.9,0.06331
2486.11,0.06298
2480.33,0.06300
2474.54,0.06288
2468.76,0.06282
2462.97,0.06276
2457.18,0.06272
2451.4,0.06320
2445.61,0.06304
2439.82,0.06299
2434.04,0.06269
2428.25,0.06254
2422.47,0.06260
2416.68,0.06292
2410.89,0.06299
2405.11,0.06234
2399.32,0.06249
2393.54,0.06293
2387.75,0.06282
2381.96,0.06266
2376.18,0.06270
2370.39,0.06344
2364.61,0.06523
2358.82,0.06201
2353.03,0.06102
2347.25,0.06254
2341.46,0.06253
2335.67,0.06252
2329.89,0.06284
2324.1,0.06316
2318.32,0.06300
2312.53,0.06251
2306.74,0.06266
2300.96,0.06284
2295.17,0.06274
2289.39,0.06254
2283.6,0.06253
2277.81,0.06240
2272.03,0.06267
2266.24,0.06226
2260.45,0.06269
2254.67,0.06234
2248.88,0.06225
2243.1,0.06229
2237.31,0.06241
2231.52,0.06200
2225.74,0.06204
2219.95,0.06226
2214.17,0.06225
2208.38,0.06241
2202.59,0.06216
2196.81,0.06233
2191.02,0.06235
2185.23,0.06214
2179.45,0.06234
2173.66,0.06207
2167.88,0.06225
2162.09,0.06229
2156.3,0.06191
2150.52,0.06159
2144.73,0.06171
2138.95,0.06149
2133.16,0.06164
2127.37,0.06151
2121.59,0.06159
2115.8,0.06157
2110.01,0.06158
2104.23,0.06144
2098.44,0.06168
2092.66,0.06155
2086.87,0.06156
2081.08,0.06130
2075.3,0.06168
2069.51,0.06107
2063.73,0.06125
2057.94,0.06112
2052.15,0.06135
2046.37,0.06114
2040.58,0.06137
2034.79,0.06139
2029.01,0.06099
2023.22,0.06095
2017.44,0.06106
2011.65,0.06149
2005.86,0.06085
2000.08,0.06113
1994.29,0.06054
1988.51,0.06081
1982.72,0.06060
1976.93,0.06050
1971.15,0.06001
1965.36,0.06022
1959.57,0.05985
1953.79,0.06016
1948,0.06024
1942.22,0.06019
1936.43,0.05965
1930.64,0.05960
1924.86,0.05955
1919.07,0.05941
1913.29,0.05906
1907.5,0.05891
1901.71,0.05902
1895.93,0.05913
1890.14,0.05873
1884.35,0.05854
1878.57,0.05813
1872.78,0.05791
1867,0.05768
1861.21,0.05739
1855.42,0.05700
1849.64,0.05652
1843.85,0.05592
1838.07,0.05544
1832.28,0.05488
1826.49,0.05376
1820.71,0.05246
1814.92,0.05100
1809.13,0.05006
1803.35,0.04737
1797.56,0.04402
1791.78,0.04213
1785.99,0.04695
1780.2,0.06009
1774.42,0.07500
1768.63,0.08806
1762.85,0.08679
1757.06,0.08034
1751.27,0.07601
1745.49,0.07159
1739.7,0.06960
1733.92,0.06874
1728.13,0.06742
1722.34,0.06691
1716.56,0.06442
1710.77,0.06501
1704.98,0.06435
1699.2,0.06322
1693.41,0.06254
1687.63,0.06280
1681.84,0.06125
1676.05,0.06177
1670.27,0.06121
1664.48,0.06068
1658.7,0.06075
1652.91,0.06149
1647.12,0.06023
1641.34,0.05995
1635.55,0.06024
1629.76,0.05958
1623.98,0.05876
1618.19,0.05900
1612.41,0.05817
1606.62,0.05813
1600.83,0.05915
1595.05,0.05926
1589.26,0.05975
1583.48,0.05899
1577.69,0.05861
1571.9,0.05797
1566.12,0.05723
1560.33,0.05691
1554.54,0.05539
1548.76,0.05455
1542.97,0.05338
1537.19,0.05255
1531.4,0.05142
1525.61,0.04996
1519.83,0.04453
1514.04,0.04189
1508.26,0.05005
1502.47,0.07191
1496.68,0.07217
1490.9,0.06994
1485.11,0.06580
1479.32,0.06328
1473.54,0.06204
1467.75,0.06096
1461.97,0.06138
1456.18,0.06026
1450.39,0.05972
1444.61,0.05933
1438.82,0.05839
1433.04,0.05740
1427.25,0.05618
1421.46,0.05480
1415.68,0.05295
1409.89,0.05497
1404.1,0.05660
1398.32,0.05586
1392.53,0.05365
1386.75,0.05390
1380.96,0.05408
1375.17,0.05243
1369.39,0.05013
1363.6,0.05273
1357.82,0.05260
1352.03,0.05084
1346.24,0.04933
1340.46,0.04788
1334.67,0.04628
1328.88,0.04468
1323.1,0.04319
1317.31,0.04048
1311.53,0.03919
1305.74,0.03791
1299.95,0.03574
1294.17,0.03457
1288.38,0.03468
1282.6,0.03204
1276.81,0.02731
1271.02,0.02201
1265.24,0.02019
1259.45,0.03640
1253.66,0.06973
1247.88,0.09445
1242.09,0.10761
1236.31,0.11991
1230.52,0.13172
1224.73,0.13825
1218.95,0.13039
1213.16,0.10591
1207.38,0.07681
1201.59,0.09049
1195.8,0.14413
1190.02,0.16569
1184.23,0.14018
1178.45,0.11154
1172.66,0.08866
1166.87,0.11069
1161.09,0.15527
1155.3,0.13848
1149.51,0.12173
1143.73,0.11201
1137.94,0.10514
1132.16,0.09999
1126.37,0.09544
1120.58,0.09200
1114.8,0.08893
1109.01,0.08850
1103.23,0.08831
1097.44,0.08837
1091.65,0.08260
1085.87,0.07758
1080.08,0.09137
1074.29,0.09315
1068.51,0.08725
1062.72,0.08465
1056.94,0.08269
1051.15,0.08110
1045.36,0.07888
1039.58,0.07675
1033.79,0.07452
1028.01,0.06986
1022.22,0.06374
1016.43,0.07891
1010.65,0.09617
1004.86,0.09345
999.075,0.08953
993.288,0.08685
987.502,0.08562
981.716,0.08333
975.93,0.08130
970.144,0.08019
964.358,0.07957
958.572,0.07888
952.785,0.07842
946.999,0.07756
941.213,0.07621
935.427,0.07630
929.641,0.07576
923.855,0.07509
918.068,0.07419
912.282,0.07414
906.496,0.07346
900.71,0.07121
894.924,0.06949
889.138,0.07147
883.352,0.07510
877.565,0.07518
871.779,0.07370
865.993,0.07109
860.207,0.06803
854.421,0.06674
848.635,0.06528
842.849,0.06651
837.062,0.06818
831.276,0.07792
825.49,0.08438
819.704,0.08283
813.918,0.08438
808.132,0.08451
802.346,0.08292
796.559,0.07897
790.773,0.07723
784.987,0.07585
779.201,0.07416
773.415,0.07443
767.629,0.07847
761.843,0.08018
756.056,0.07984
750.27,0.08050
744.484,0.07867
738.698,0.07704
732.912,0.07697
727.126,0.07705
721.34,0.07629
715.553,0.07576
709.767,0.07675
703.981,0.07704
698.195,0.07716
692.409,0.07617
686.623,0.07595
680.837,0.07736
675.05,0.07552
669.264,0.07526
663.478,0.07472
657.692,0.07391
651.906,0.07367
646.12,0.07324
640.333,0.07168
634.547,0.07090
628.761,0.07204
622.975,0.07149
617.189,0.07114
611.403,0.06929
605.617,0.06734
599.83,0.06841