File: 01_Data/PC/FTIR/IS/PC_IS_T_230508_R2.dpt
7496.92,0.01656
7491.13,0.02342
7485.34,0.02741
7479.56,0.01742
7473.77,0.02243
7467.99,0.03176
7462.2,0.03121
7456.41,0.03025
7450.63,0.02644
7444.84,0.03303
7439.06,0.03755
7433.27,0.02006
7427.48,0.03024
7421.7,0.03230
7415.91,0.02356
7410.12,0.02838
7404.34,0.03183
7398.55,0.02422
7392.77,0.01862
7386.98,0.03343
7381.19,0.02579
7375.41,0.03222
7369.62,0.01985
7363.84,0.02250
7358.05,0.03408
7352.26,0.03662
7346.48,0.04080
7340.69,0.03130
7334.9,0.01760
7329.12,0.01954
7323.33,0.02839
7317.55,0.03647
7311.76,0.02941
7305.97,0.02940
7300.19,0.03205
7294.4,0.02936
7288.62,0.01831
7282.83,0.02129
7277.04,0.03425
7271.26,0.03842
7265.47,0.03059
7259.68,0.03417
7253.9,0.02941
7248.11,0.02454
7242.33,0.02932
7236.54,0.02286
7230.75,0.02014
7224.97,0.03277
7219.18,0.02034
7213.4,0.02827
7207.61,0.02230
7201.82,0.02970
7196.04,0.03361
7190.25,0.02555
7184.46,0.01864
7178.68,0.01766
7172.89,0.02154
7167.11,0.02157
7161.32,0.02588
7155.53,0.01545
7149.75,0.01925
7143.96,0.01562
7138.18,0.03022
7132.39,0.02958
7126.6,0.02403
7120.82,0.01782
7115.03,0.02758
7109.24,0.02051
7103.46,0.02454
7097.67,0.02618
7091.89,0.02446
7086.1,0.02383
7080.31,0.03090
7074.53,0.03411
7068.74,0.02727
7062.96,0.02955
7057.17,0.02374
7051.38,0.02983
7045.6,0.02914
7039.81,0.03076
7034.02,0.02563
7028.24,0.02447
7022.45,0.02477
7016.67,0.02428
7010.88,0.02600
7005.09,0.02927
6999.31,0.02629
6993.52,0.02445
6987.74,0.01936
6981.95,0.02623
6976.16,0.02394
6970.38,0.02758
6964.59,0.02751
6958.8,0.02575
6953.02,0.02903
6947.23,0.02983
6941.45,0.02566
6935.66,0.03076
6929.87,0.02665
6924.09,0.03066
6918.3,0.02996
6912.52,0.02401
6906.73,0.02419
6900.94,0.01744
6895.16,0.02383
6889.37,0.02576
6883.59,0.02605
6877.8,0.02345
6872.01,0.02309
6866.23,0.03116
6860.44,0.02787
6854.65,0.02432
6848.87,0.02049
6843.08,0.02595
6837.3,0.02641
6831.51,0.03266
6825.72,0.02569
6819.94,0.02941
6814.15,0.02549
6808.37,0.02640
6802.58,0.02551
6796.79,0.02179
6791.01,0.02372
6785.22,0.02601
6779.43,0.02409
6773.65,0.02409
6767.86,0.02334
6762.08,0.02595
6756.29,0.02470
6750.5,0.01948
6744.72,0.02088
6738.93,0.02481
6733.15,0.02477
6727.36,0.02076
6721.57,0.02717
6715.79,0.02305
6710,0.02676
6704.21,0.02776
6698.43,0.02490
6692.64,0.02523
6686.86,0.01983
6681.07,0.02487
6675.28,0.02636
6669.5,0.02302
6663.71,0.02501
6657.93,0.02670
6652.14,0.01802
6646.35,0.02109
6640.57,0.02607
6634.78,0.02766
6628.99,0.02560
6623.21,0.02486
6617.42,0.02451
6611.64,0.02063
6605.85,0.02348
6600.06,0.02438
6594.28,0.02368
6588.49,0.02491
6582.71,0.02395
6576.92,0.01962
6571.13,0.02470
6565.35,0.02131
6559.56,0.02794
6553.77,0.01975
6547.99,0.02404
6542.2,0.02361
6536.42,0.02194
6530.63,0.02611
6524.84,0.02910
6519.06,0.02092
6513.27,0.02364
6507.49,0.02582
6501.7,0.02462
6495.91,0.02647
6490.13,0.02453
6484.34,0.02314
6478.55,0.02239
6472.77,0.02536
6466.98,0.02153
6461.2,0.02981
6455.41,0.02952
6449.62,0.02566
6443.84,0.02563
6438.05,0.02835
6432.27,0.02646
6426.48,0.02480
6420.69,0.02588
6414.91,0.02639
6409.12,0.02188
6403.33,0.02032
6397.55,0.02469
6391.76,0.02369
6385.98,0.01902
6380.19,0.02008
6374.4,0.02748
6368.62,0.02710
6362.83,0.02063
6357.05,0.02398
6351.26,0.02029
6345.47,0.02627
6339.69,0.02430
6333.9,0.02212
6328.12,0.02604
6322.33,0.02624
6316.54,0.02301
6310.76,0.02481
6304.97,0.02541
6299.18,0.02540
6293.4,0.02374
6287.61,0.01762
6281.83,0.02144
6276.04,0.02597
6270.25,0.02673
6264.47,0.02422
6258.68,0.02417
6252.9,0.02454
6247.11,0.02134
6241.32,0.02426
6235.54,0.02858
6229.75,0.02434
6223.96,0.02263
6218.18,0.01981
6212.39,0.02340
6206.61,0.02054
6200.82,0.01956
6195.03,0.02220
6189.25,0.02082
6183.46,0.02536
6177.68,0.02517
6171.89,0.02244
6166.1,0.02827
6160.32,0.02258
6154.53,0.02289
6148.74,0.02298
6142.96,0.02277
6137.17,0.01875
6131.39,0.02521
6125.6,0.02520
6119.81,0.02014
6114.03,0.02819
6108.24,0.02319
6102.46,0.02195
6096.67,0.02562
6090.88,0.02397
6085.1,0.02389
6079.31,0.02442
6073.52,0.02549
6067.74,0.02744
6061.95,0.02526
6056.17,0.02262
6050.38,0.02459
6044.59,0.02656
6038.81,0.02606
6033.02,0.02199
6027.24,0.02385
6021.45,0.02529
6015.66,0.02345
6009.88,0.02228
6004.09,0.02244
5998.3,0.02392
5992.52,0.02563
5986.73,0.02089
5980.95,0.02238
5975.16,0.02102
5969.37,0.02049
5963.59,0.02315
5957.8,0.02557
5952.02,0.02060
5946.23,0.02557
5940.44,0.02186
5934.66,0.02491
5928.87,0.02687
5923.08,0.02423
5917.3,0.02269
5911.51,0.02222
5905.73,0.01979
5899.94,0.02023
5894.15,0.02469
5888.37,0.02282
5882.58,0.02210
5876.8,0.02332
5871.01,0.02555
5865.22,0.02412
5859.44,0.02033
5853.65,0.02258
5847.86,0.02329
5842.08,0.02197
5836.29,0.02442
5830.51,0.01998
5824.72,0.02240
5818.93,0.02343
5813.15,0.02156
5807.36,0.02362
5801.58,0.02291
5795.79,0.02514
5790,0.02330
5784.22,0.02233
5778.43,0.02281
5772.65,0.02244
5766.86,0.02524
5761.07,0.02319
5755.29,0.02416
5749.5,0.02483
5743.71,0.02327
5737.93,0.02248
5732.14,0.02247
5726.36,0.02355
5720.57,0.02281
5714.78,0.02308
5709,0.02106
5703.21,0.02389
5697.43,0.02333
5691.64,0.02499
5685.85,0.02272
5680.07,0.02288
5674.28,0.02346
5668.49,0.02227
5662.71,0.02282
5656.92,0.02441
5651.14,0.02529
5645.35,0.02503
5639.56,0.02303
5633.78,0.02373
5627.99,0.02208
5622.21,0.02169
5616.42,0.02298
5610.63,0.02386
5604.85,0.02559
5599.06,0.02411
5593.27,0.02382
5587.49,0.02256
5581.7,0.02285
5575.92,0.02489
5570.13,0.02409
5564.34,0.02305
5558.56,0.02085
5552.77,0.02272
5546.99,0.02182
5541.2,0.02314
5535.41,0.02377
5529.63,0.02269
5523.84,0.02278
5518.05,0.02343
5512.27,0.02375
5506.48,0.02297
5500.7,0.02098
5494.91,0.02199
5489.12,0.02197
5483.34,0.02293
5477.55,0.02368
5471.77,0.02288
5465.98,0.02291
5460.19,0.02424
5454.41,0.02498
5448.62,0.02424
5442.83,0.02275
5437.05,0.02183
5431.26,0.02426
5425.48,0.02396
5419.69,0.02314
5413.9,0.02325
5408.12,0.02480
5402.33,0.02323
5396.55,0.02125
5390.76,0.02165
5384.97,0.02383
5379.19,0.02512
5373.4,0.02139
5367.61,0.02173
5361.83,0.02408
5356.04,0.02158
5350.26,0.02297
5344.47,0.02128
5338.68,0.02424
5332.9,0.02322
5327.11,0.02275
5321.33,0.02187
5315.54,0.02368
5309.75,0.02108
5303.97,0.02324
5298.18,0.02357
5292.39,0.02382
5286.61,0.02495
5280.82,0.02315
5275.04,0.02288
5269.25,0.02352
5263.46,0.02390
5257.68,0.02409
5251.89,0.02316
5246.11,0.02367
5240.32,0.02223
5234.53,0.02196
5228.75,0.02250
5222.96,0.02296
5217.18,0.02042
5211.39,0.02151
5205.6,0.02357
5199.82,0.02409
5194.03,0.02295
5188.24,0.02306
5182.46,0.02218
5176.67,0.02300
5170.89,0.02232
5165.1,0.02483
5159.31,0.02429
5153.53,0.02130
5147.74,0.02324
5141.96,0.02306
5136.17,0.02338
5130.38,0.02316
5124.6,0.02411
5118.81,0.02379
5113.02,0.02407
5107.24,0.02272
5101.45,0.02342
5095.67,0.02060
5089.88,0.02394
5084.09,0.02344
5078.31,0.02325
5072.52,0.02374
5066.74,0.02253
5060.95,0.02403
5055.16,0.02325
5049.38,0.02286
5043.59,0.02413
5037.8,0.02332
5032.02,0.02463
5026.23,0.02216
5020.45,0.02391
5014.66,0.02340
5008.87,0.02406
5003.09,0.02389
4997.3,0.02306
4991.52,0.02341
4985.73,0.02319
4979.94,0.02386
4974.16,0.02494
4968.37,0.02330
4962.58,0.02324
4956.8,0.02336
4951.01,0.02458
4945.23,0.02278
4939.44,0.02265
4933.65,0.02420
4927.87,0.02426
4922.08,0.02354
4916.3,0.02299
4910.51,0.02381
4904.72,0.02386
4898.94,0.02339
4893.15,0.02327
4887.36,0.02387
4881.58,0.02433
4875.79,0.02347
4870.01,0.02391
4864.22,0.02245
4858.43,0.02348
4852.65,0.02324
4846.86,0.02259
4841.08,0.02394
4835.29,0.02314
4829.5,0.02319
4823.72,0.02394
4817.93,0.02307
4812.14,0.02280
4806.36,0.02440
4800.57,0.02194
4794.79,0.02302
4789,0.02260
4783.21,0.02467
4777.43,0.02388
4771.64,0.02378
4765.86,0.02414
4760.07,0.02298
4754.28,0.02286
4748.5,0.02412
4742.71,0.02338
4736.92,0.02275
4731.14,0.02269
4725.35,0.02337
4719.57,0.02393
4713.78,0.02314
4707.99,0.02337
4702.21,0.02435
4696.42,0.02319
4690.64,0.02316
4684.85,0.02289
4679.06,0.02270
4673.28,0.02503
4667.49,0.02384
4661.7,0.02287
4655.92,0.02340
4650.13,0.02356
4644.35,0.02413
4638.56,0.02444
4632.77,0.02380
4626.99,0.02307
4621.2,0.02347
4615.42,0.02312
4609.63,0.02382
4603.84,0.02247
4598.06,0.02390
4592.27,0.02408
4586.49,0.02314
4580.7,0.02397
4574.91,0.02347
4569.13,0.02358
4563.34,0.02432
4557.55,0.02294
4551.77,0.02260
4545.98,0.02382
4540.2,0.02381
4534.41,0.02343
4528.62,0.02317
4522.84,0.02359
4517.05,0.02377
4511.27,0.02344
4505.48,0.02409
4499.69,0.02255
4493.91,0.02326
4488.12,0.02314
4482.33,0.02369
4476.55,0.02348
4470.76,0.02355
4464.98,0.02302
4459.19,0.02323
4453.4,0.02388
4447.62,0.02411
4441.83,0.02248
4436.05,0.02309
4430.26,0.02356
4424.47,0.02326
4418.69,0.02300
4412.9,0.02374
4407.11,0.02347
4401.33,0.02295
4395.54,0.02330
4389.76,0.02263
4383.97,0.02366
4378.18,0.02416
4372.4,0.02344
4366.61,0.02332
4360.83,0.02399
4355.04,0.02409
4349.25,0.02404
4343.47,0.02317
4337.68,0.02444
4331.89,0.02350
4326.11,0.02388
4320.32,0.02356
4314.54,0.02307
4308.75,0.02303
4302.96,0.02357
4297.18,0.02324
4291.39,0.02318
4285.61,0.02364
4279.82,0.02296
4274.03,0.02321
4268.25,0.02402
4262.46,0.02304
4256.67,0.02346
4250.89,0.02359
4245.1,0.02374
4239.32,0.02368
4233.53,0.02328
4227.74,0.02353
4221.96,0.02321
4216.17,0.02332
4210.39,0.02419
4204.6,0.02305
4198.81,0.02395
4193.03,0.02298
4187.24,0.02358
4181.45,0.02392
4175.67,0.02302
4169.88,0.02273
4164.1,0.02424
4158.31,0.02338
4152.52,0.02344
4146.74,0.02358
4140.95,0.02335
4135.17,0.02322
4129.38,0.02296
4123.59,0.02346
4117.81,0.02399
4112.02,0.02350
4106.23,0.02277
4100.45,0.02383
4094.66,0.02406
4088.88,0.02378
4083.09,0.02317
4077.3,0.02378
4071.52,0.02426
4065.73,0.02392
4059.95,0.02412
4054.16,0.02373
4048.37,0.02357
4042.59,0.02373
4036.8,0.02391
4031.02,0.02320
4025.23,0.02400
4019.44,0.02416
4013.66,0.02377
4007.87,0.02330
4002.08,0.02310
3996.3,0.02334
3990.51,0.02326
3984.73,0.02475
3978.94,0.02343
3973.15,0.02368
3967.37,0.02390
3961.58,0.02343
3955.8,0.02414
3950.01,0.02338
3944.22,0.02374
3938.44,0.02338
3932.65,0.02389
3926.86,0.02358
3921.08,0.02417
3915.29,0.02393
3909.51,0.02443
3903.72,0.02559
3897.93,0.02404
3892.15,0.02453
3886.36,0.02312
3880.58,0.02440
3874.79,0.02464
3869,0.02451
3863.22,0.02542
3857.43,0.02488
3851.64,0.02434
3845.86,0.02422
3840.07,0.02359
3834.29,0.02293
3828.5,0.02283
3822.71,0.02417
3816.93,0.02446
3811.14,0.02377
3805.36,0.02453
3799.57,0.02406
3793.78,0.02351
3788,0.02370
3782.21,0.02418
3776.42,0.02347
3770.64,0.02356
3764.85,0.02389
3759.07,0.02411
3753.28,0.02523
3747.49,0.02417
3741.71,0.02367
3735.92,0.02368
3730.14,0.02330
3724.35,0.02442
3718.56,0.02371
3712.78,0.02377
3706.99,0.02353
3701.2,0.02414
3695.42,0.02386
3689.63,0.02325
3683.85,0.02273
3678.06,0.02471
3672.27,0.02380
3666.49,0.02281
3660.7,0.02379
3654.92,0.02344
3649.13,0.02247
3643.34,0.02357
3637.56,0.02279
3631.77,0.02284
3625.98,0.02335
3620.2,0.02276
3614.41,0.02348
3608.63,0.02214
3602.84,0.02238
3597.05,0.02178
3591.27,0.02199
3585.48,0.02165
3579.7,0.02210
3573.91,0.02170
3568.12,0.02317
3562.34,0.02202
3556.55,0.02193
3550.76,0.02226
3544.98,0.02154
3539.19,0.02189
3533.41,0.02136
3527.62,0.02185
3521.83,0.02213
3516.05,0.02206
3510.26,0.02187
3504.48,0.02137
3498.69,0.02162
3492.9,0.02156
3487.12,0.02074
3481.33,0.02145
3475.55,0.02166
3469.76,0.02183
3463.97,0.02171
3458.19,0.02177
3452.4,0.02199
3446.61,0.02192
3440.83,0.02146
3435.04,0.02115
3429.26,0.02179
3423.47,0.02152
3417.68,0.02131
3411.9,0.02162
3406.11,0.02154
3400.33,0.02127
3394.54,0.02170
3388.75,0.02181
3382.97,0.02212
3377.18,0.02153
3371.39,0.02113
3365.61,0.02104
3359.82,0.02173
3354.04,0.02122
3348.25,0.02143
3342.46,0.02054
3336.68,0.02100
3330.89,0.02192
3325.11,0.02204
3319.32,0.02131
3313.53,0.02076
3307.75,0.02085
3301.96,0.02133
3296.17,0.02117
3290.39,0.02147
3284.6,0.02159
3278.82,0.02194
3273.03,0.02220
3267.24,0.02188
3261.46,0.02162
3255.67,0.02183
3249.89,0.02175
3244.1,0.02188
3238.31,0.02131
3232.53,0.02187
3226.74,0.02154
3220.95,0.02175
3215.17,0.02173
3209.38,0.02217
3203.6,0.02210
3197.81,0.02137
3192.02,0.02159
3186.24,0.02219
3180.45,0.02180
3174.67,0.02168
3168.88,0.02217
3163.09,0.02215
3157.31,0.02221
3151.52,0.02131
3145.73,0.02210
3139.95,0.02200
3134.16,0.02205
3128.38,0.02245
3122.59,0.02265
3116.8,0.02194
3111.02,0.02212
3105.23,0.02204
3099.45,0.02212
3093.66,0.02195
3087.87,0.02147
3082.09,0.02174
3076.3,0.02206
3070.51,0.02232
3064.73,0.02111
3058.94,0.02234
3053.16,0.02181
3047.37,0.02162
3041.58,0.02225
3035.8,0.02195
3030.01,0.02207
3024.23,0.02237
3018.44,0.02234
3012.65,0.02183
3006.87,0.02159
3001.08,0.02109
2995.29,0.02157
2989.51,0.02158
2983.72,0.02149
2977.94,0.02134
2972.15,0.02053
2966.36,0.02098
2960.58,0.02124
2954.79,0.02126
2949.01,0.02132
2943.22,0.02070
2937.43,0.02029
2931.65,0.02099
2925.86,0.02093
2920.08,0.02154
2914.29,0.02237
2908.5,0.02171
2902.72,0.02217
2896.93,0.02222
2891.14,0.02168
2885.36,0.02167
2879.57,0.02196
2873.79,0.02164
2868,0.02167
2862.21,0.02150
2856.43,0.02175
2850.64,0.02226
2844.86,0.02240
2839.07,0.02247
2833.28,0.02232
2827.5,0.02257
2821.71,0.02247
2815.92,0.02328
2810.14,0.02274
2804.35,0.02241
2798.57,0.02225
2792.78,0.02299
2786.99,0.02264
2781.21,0.02265
2775.42,0.02304
2769.64,0.02248
2763.85,0.02269
2758.06,0.02282
2752.28,0.02283
2746.49,0.02239
2740.7,0.02228
2734.92,0.02221
2729.13,0.02259
2723.35,0.02240
2717.56,0.02263
2711.77,0.02316
2705.99,0.02291
2700.2,0.02248
2694.42,0.02284
2688.63,0.02261
2682.84,0.02263
2677.06,0.02273
2671.27,0.02297
2665.48,0.02259
2659.7,0.02300
2653.91,0.02285
2648.13,0.02270
2642.34,0.02288
2636.55,0.02254
2630.77,0.02262
2624.98,0.02255
2619.2,0.02278
2613.41,0.02226
2607.62,0.02282
2601.84,0.02276
2596.05,0.02282
2590.26,0.02279
2584.48,0.02268
2578.69,0.02292
2572.91,0.02275
2567.12,0.02256
2561.33,0.02228
2555.55,0.02258
2549.76,0.02294
2543.98,0.02307
2538.19,0.02257
2532.4,0.02252
2526.62,0.02270
2520.83,0.02312
2515.04,0.02279
2509.26,0.02250
2503.47,0.02246
2497.69,0.02265
2491.9,0.02296
2486.11,0.02305
2480.33,0.02315
2474.54,0.02314
2468.76,0.02284
2462.97,0.02282
2457.18,0.02274
2451.4,0.02284
2445.61,0.02251
2439.82,0.02273
2434.04,0.02272
2428.25,0.02289
2422.47,0.02257
2416.68,0.02262
2410.89,0.02286
2405.11,0.02255
2399.32,0.02280
2393.54,0.02300
2387.75,0.02285
2381.96,0.02305
2376.18,0.02291
2370.39,0.02412
2364.61,0.02313
2358.82,0.02277
2353.03,0.02370
2347.25,0.02402
2341.46,0.02257
2335.67,0.02366
2329.89,0.02494
2324.1,0.02266
2318.32,0.02274
2312.53,0.02275
2306.74,0.02316
2300.96,0.02296
2295.17,0.02289
2289.39,0.02285
2283.6,0.02275
2277.81,0.02313
2272.03,0.02256
2266.24,0.02267
2260.45,0.02259
2254.67,0.02241
2248.88,0.02268
2243.1,0.02234
2237.31,0.02219
2231.52,0.02255
2225.74,0.02253
2219.95,0.02290
2214.17,0.02270
2208.38,0.02221
2202.59,0.02259
2196.81,0.02273
2191.02,0.02251
2185.23,0.02270
2179.45,0.02236
2173.66,0.02274
2167.88,0.02299
2162.09,0.02278
2156.3,0.02251
2150.52,0.02234
2144.73,0.02291
2138.95,0.02276
2133.16,0.02219
2127.37,0.02236
2121.59,0.02239
2115.8,0.02205
2110.01,0.02226
2104.23,0.02256
2098.44,0.02222
2092.66,0.02231
2086.87,0.02235
2081.08,0.02262
2075.3,0.02232
2069.51,0.02232
2063.73,0.02232
2057.94,0.02250
2052.15,0.02276
2046.37,0.02244
2040.58,0.02249
2034.79,0.02274
2029.01,0.02236
2023.22,0.02261
2017.44,0.02266
2011.65,0.02248
2005.86,0.02258
2000.08,0.02244
1994.29,0.02259
1988.51,0.02243
1982.72,0.02207
1976.93,0.02236
1971.15,0.02212
1965.36,0.02201
1959.57,0.02250
1953.79,0.02236
1948,0.02238
1942.22,0.02237
1936.43,0.02240
1930.64,0.02236
1924.86,0.02211
1919.07,0.02226
1913.29,0.02251
1907.5,0.02210
1901.71,0.02206
1895.93,0.02203
1890.14,0.02186
1884.35,0.02235
1878.57,0.02219
1872.78,0.02230
1867,0.02230
1861.21,0.02198
1855.42,0.02153
1849.64,0.02201
1843.85,0.02196
1838.07,0.02179
1832.28,0.02179
1826.49,0.02179
1820.71,0.02141
1814.92,0.02141
1809.13,0.02148
1803.35,0.02164
1797.56,0.02114
1791.78,0.02066
1785.99,0.02108
1780.2,0.02099
1774.42,0.02105
1768.63,0.02017
1762.85,0.01948
1757.06,0.01879
1751.27,0.01872
1745.49,0.01950
1739.7,0.01976
1733.92,0.02047
1728.13,0.02102
1722.34,0.02164
1716.56,0.02274
1710.77,0.02134
1704.98,0.02084
1699.2,0.02132
1693.41,0.02063
1687.63,0.02037
1681.84,0.02019
1676.05,0.01972
1670.27,0.01967
1664.48,0.01986
1658.7,0.02018
1652.91,0.01995
1647.12,0.02014
1641.34,0.01997
1635.55,0.01967
1629.76,0.01980
1623.98,0.02059
1618.19,0.01988
1612.41,0.02008
1606.62,0.02035
1600.83,0.01991
1595.05,0.02031
1589.26,0.02026
1583.48,0.02012
1577.69,0.02041
1571.9,0.01997
1566.12,0.02002
1560.33,0.01992
1554.54,0.01955
1548.76,0.01996
1542.97,0.02198
1537.19,0.01970
1531.4,0.01969
1525.61,0.01973
1519.83,0.01892
1514.04,0.01953
1508.26,0.02081
1502.47,0.02025
1496.68,0.02013
1490.9,0.02047
1485.11,0.02011
1479.32,0.01974
1473.54,0.01974
1467.75,0.02029
1461.97,0.02055
1456.18,0.01938
1450.39,0.01945
1444.61,0.01972
1438.82,0.02066
1433.04,0.02008
1427.25,0.01975
1421.46,0.02009
1415.68,0.01968
1409.89,0.01908
1404.1,0.01890
1398.32,0.01947
1392.53,0.01921
1386.75,0.01934
1380.96,0.01962
1375.17,0.01950
1369.39,0.01898
1363.6,0.01964
1357.82,0.01939
1352.03,0.01916
1346.24,0.01893
1340.46,0.01876
1334.67,0.01848
1328.88,0.01874
1323.1,0.01837
1317.31,0.01838
1311.53,0.01794
1305.74,0.01822
1299.95,0.01844
1294.17,0.01896
1288.38,0.01930
1282.6,0.01949
1276.81,0.01957
1271.02,0.02028
1265.24,0.02098
1259.45,0.02099
1253.66,0.02155
1247.88,0.02154
1242.09,0.02148
1236.31,0.02081
1230.52,0.02100
1224.73,0.02024
1218.95,0.01989
1213.16,0.02033
1207.38,0.02002
1201.59,0.01951
1195.8,0.01915
1190.02,0.01928
1184.23,0.01891
1178.45,0.01951
1172.66,0.01847
1166.87,0.01939
1161.09,0.01910
1155.3,0.01855
1149.51,0.01867
1143.73,0.01867
1137.94,0.01835
1132.16,0.01874
1126.37,0.01907
1120.58,0.01986
1114.8,0.01970
1109.01,0.01983
1103.23,0.01939
1097.44,0.01905
1091.65,0.01928
1085.87,0.01932
1080.08,0.02065
1074.29,0.02071
1068.51,0.02069
1062.72,0.02167
1056.94,0.02141
1051.15,0.02125
1045.36,0.02058
1039.58,0.02096
1033.79,0.02093
1028.01,0.02065
1022.22,0.02028
1016.43,0.02055
1010.65,0.02194
1004.86,0.02190
999.075,0.02213
993.288,0.02185
987.502,0.02196
981.716,0.02201
975.93,0.02059
970.144,0.02161
964.358,0.02132
958.572,0.02138
952.785,0.02088
946.999,0.02091
941.213,0.02095
935.427,0.02127
929.641,0.02127
923.855,0.02091
918.068,0.02084
912.282,0.02093
906.496,0.02029
900.71,0.02060
894.924,0.02047
889.138,0.02069
883.352,0.01980
877.565,0.02079
871.779,0.02033
865.993,0.01982
860.207,0.02010
854.421,0.01973
848.635,0.01998
842.849,0.02013
837.062,0.02032
831.276,0.02020
825.49,0.01948
819.704,0.01991
813.918,0.01980
808.132,0.02042
802.346,0.01952
796.559,0.01982
790.773,0.01942
784.987,0.01968
779.201,0.01963
773.415,0.01965
767.629,0.01866
761.843,0.01854
756.056,0.01845
750.27,0.01942
744.484,0.01946
738.698,0.01857
732.912,0.01910
727.126,0.01885
721.34,0.01862
715.553,0.01957
709.767,0.01817
703.981,0.01913
698.195,0.01912
692.409,0.01864
686.623,0.01826
680.837,0.01816
675.05,0.01979
669.264,0.01759
663.478,0.01729
657.692,0.01870
651.906,0.01905
646.12,0.01751
640.333,0.01897
634.547,0.01824
628.761,0.01719
622.975,0.01740
617.189,0.01750
611.403,0.01748
605.617,0.01912
599.83,0.01913