File: 01_Data/PC/FTIR/IS/PC_IS_S_230508_R5.dpt
7496.92,0.12468
7491.13,0.12315
7485.34,0.12309
7479.56,0.11949
7473.77,0.12487
7467.99,0.11331
7462.2,0.12525
7456.41,0.12933
7450.63,0.11292
7444.84,0.11877
7439.06,0.11497
7433.27,0.11945
7427.48,0.12090
7421.7,0.10883
7415.91,0.11074
7410.12,0.11751
7404.34,0.12214
7398.55,0.12227
7392.77,0.11428
7386.98,0.11688
7381.19,0.11089
7375.41,0.11474
7369.62,0.11339
7363.84,0.10276
7358.05,0.10116
7352.26,0.10931
7346.48,0.10475
7340.69,0.10638
7334.9,0.11288
7329.12,0.09563
7323.33,0.09419
7317.55,0.10576
7311.76,0.09432
7305.97,0.09607
7300.19,0.09831
7294.4,0.09782
7288.62,0.10053
7282.83,0.09908
7277.04,0.09735
7271.26,0.09264
7265.47,0.09765
7259.68,0.10098
7253.9,0.09409
7248.11,0.10672
7242.33,0.10785
7236.54,0.09831
7230.75,0.09326
7224.97,0.09219
7219.18,0.10844
7213.4,0.10991
7207.61,0.09363
7201.82,0.09689
7196.04,0.09872
7190.25,0.10469
7184.46,0.09844
7178.68,0.09935
7172.89,0.10056
7167.11,0.09865
7161.32,0.09697
7155.53,0.10425
7149.75,0.10300
7143.96,0.10441
7138.18,0.10938
7132.39,0.10078
7126.6,0.10372
7120.82,0.09885
7115.03,0.10243
7109.24,0.10270
7103.46,0.10143
7097.67,0.09604
7091.89,0.10744
7086.1,0.10302
7080.31,0.10780
7074.53,0.10354
7068.74,0.11017
7062.96,0.11052
7057.17,0.10761
7051.38,0.10549
7045.6,0.11061
7039.81,0.10562
7034.02,0.10812
7028.24,0.11049
7022.45,0.11114
7016.67,0.10672
7010.88,0.10405
7005.09,0.10645
6999.31,0.11023
6993.52,0.10887
6987.74,0.11068
6981.95,0.11155
6976.16,0.10690
6970.38,0.12066
6964.59,0.12484
6958.8,0.10956
6953.02,0.11634
6947.23,0.11075
6941.45,0.11530
6935.66,0.11464
6929.87,0.11129
6924.09,0.11263
6918.3,0.11888
6912.52,0.11959
6906.73,0.11458
6900.94,0.11953
6895.16,0.11062
6889.37,0.11330
6883.59,0.11120
6877.8,0.12567
6872.01,0.11827
6866.23,0.11932
6860.44,0.11030
6854.65,0.11123
6848.87,0.12195
6843.08,0.11987
6837.3,0.11322
6831.51,0.11531
6825.72,0.10888
6819.94,0.11256
6814.15,0.11511
6808.37,0.12026
6802.58,0.11874
6796.79,0.11354
6791.01,0.12140
6785.22,0.12045
6779.43,0.11761
6773.65,0.11846
6767.86,0.11810
6762.08,0.11148
6756.29,0.11820
6750.5,0.12326
6744.72,0.11964
6738.93,0.11839
6733.15,0.12373
6727.36,0.11709
6721.57,0.11808
6715.79,0.12664
6710,0.12385
6704.21,0.12153
6698.43,0.12154
6692.64,0.12146
6686.86,0.12333
6681.07,0.12462
6675.28,0.12085
6669.5,0.12546
6663.71,0.12552
6657.93,0.13065
6652.14,0.12785
6646.35,0.12830
6640.57,0.12847
6634.78,0.12293
6628.99,0.13146
6623.21,0.12628
6617.42,0.12785
6611.64,0.12886
6605.85,0.12548
6600.06,0.12707
6594.28,0.12698
6588.49,0.13085
6582.71,0.12921
6576.92,0.12793
6571.13,0.13288
6565.35,0.13230
6559.56,0.12876
6553.77,0.13118
6547.99,0.12528
6542.2,0.13286
6536.42,0.12431
6530.63,0.12775
6524.84,0.12986
6519.06,0.13363
6513.27,0.13085
6507.49,0.12906
6501.7,0.12266
6495.91,0.12813
6490.13,0.12759
6484.34,0.13122
6478.55,0.12777
6472.77,0.12836
6466.98,0.13302
6461.2,0.12932
6455.41,0.12898
6449.62,0.12682
6443.84,0.12938
6438.05,0.12888
6432.27,0.12976
6426.48,0.12323
6420.69,0.12856
6414.91,0.12854
6409.12,0.13073
6403.33,0.12646
6397.55,0.12661
6391.76,0.12961
6385.98,0.12588
6380.19,0.13021
6374.4,0.12789
6368.62,0.12669
6362.83,0.12860
6357.05,0.12624
6351.26,0.12882
6345.47,0.12603
6339.69,0.12863
6333.9,0.12682
6328.12,0.12758
6322.33,0.12270
6316.54,0.12272
6310.76,0.12132
6304.97,0.12232
6299.18,0.12378
6293.4,0.12423
6287.61,0.12488
6281.83,0.12163
6276.04,0.11865
6270.25,0.11902
6264.47,0.12205
6258.68,0.12017
6252.9,0.11566
6247.11,0.11545
6241.32,0.11158
6235.54,0.11439
6229.75,0.10742
6223.96,0.10854
6218.18,0.10728
6212.39,0.10741
6206.61,0.10875
6200.82,0.10066
6195.03,0.09797
6189.25,0.09425
6183.46,0.09709
6177.68,0.08801
6171.89,0.08472
6166.1,0.09016
6160.32,0.08691
6154.53,0.08633
6148.74,0.08312
6142.96,0.07567
6137.17,0.07460
6131.39,0.07620
6125.6,0.07327
6119.81,0.07374
6114.03,0.06757
6108.24,0.06937
6102.46,0.06488
6096.67,0.06572
6090.88,0.06345
6085.1,0.06083
6079.31,0.05807
6073.52,0.05819
6067.74,0.06012
6061.95,0.05666
6056.17,0.05582
6050.38,0.05751
6044.59,0.05579
6038.81,0.05923
6033.02,0.05777
6027.24,0.06022
6021.45,0.05969
6015.66,0.05926
6009.88,0.05744
6004.09,0.05809
5998.3,0.05619
5992.52,0.05612
5986.73,0.05888
5980.95,0.05486
5975.16,0.05958
5969.37,0.05470
5963.59,0.05504
5957.8,0.05743
5952.02,0.06210
5946.23,0.05436
5940.44,0.05563
5934.66,0.05769
5928.87,0.05538
5923.08,0.05804
5917.3,0.05850
5911.51,0.05699
5905.73,0.05646
5899.94,0.05738
5894.15,0.05548
5888.37,0.05577
5882.58,0.05901
5876.8,0.05766
5871.01,0.05733
5865.22,0.05938
5859.44,0.06236
5853.65,0.06231
5847.86,0.06369
5842.08,0.06438
5836.29,0.06285
5830.51,0.06407
5824.72,0.06640
5818.93,0.06005
5813.15,0.06187
5807.36,0.06378
5801.58,0.06517
5795.79,0.06665
5790,0.06459
5784.22,0.06368
5778.43,0.06125
5772.65,0.06047
5766.86,0.06098
5761.07,0.06421
5755.29,0.06050
5749.5,0.06389
5743.71,0.06629
5737.93,0.06777
5732.14,0.06710
5726.36,0.07036
5720.57,0.07226
5714.78,0.07522
5709,0.07430
5703.21,0.07856
5697.43,0.08043
5691.64,0.07869
5685.85,0.07581
5680.07,0.07581
5674.28,0.07615
5668.49,0.07096
5662.71,0.06947
5656.92,0.07216
5651.14,0.07520
5645.35,0.07233
5639.56,0.07482
5633.78,0.07737
5627.99,0.08060
5622.21,0.08346
5616.42,0.08691
5610.63,0.09034
5604.85,0.08957
5599.06,0.08681
5593.27,0.08752
5587.49,0.09017
5581.7,0.08970
5575.92,0.08752
5570.13,0.08798
5564.34,0.08549
5558.56,0.08642
5552.77,0.08633
5546.99,0.08692
5541.2,0.08628
5535.41,0.08688
5529.63,0.08615
5523.84,0.08663
5518.05,0.08717
5512.27,0.08530
5506.48,0.08568
5500.7,0.08682
5494.91,0.08655
5489.12,0.08702
5483.34,0.08276
5477.55,0.08221
5471.77,0.08408
5465.98,0.08354
5460.19,0.08405
5454.41,0.08500
5448.62,0.08730
5442.83,0.08685
5437.05,0.08757
5431.26,0.08547
5425.48,0.08874
5419.69,0.08833
5413.9,0.08626
5408.12,0.08627
5402.33,0.08697
5396.55,0.08707
5390.76,0.08683
5384.97,0.08722
5379.19,0.08959
5373.4,0.09047
5367.61,0.08930
5361.83,0.08929
5356.04,0.08978
5350.26,0.08797
5344.47,0.08589
5338.68,0.08640
5332.9,0.08631
5327.11,0.08683
5321.33,0.08750
5315.54,0.08635
5309.75,0.08452
5303.97,0.08516
5298.18,0.08394
5292.39,0.08008
5286.61,0.07792
5280.82,0.07615
5275.04,0.07009
5269.25,0.06781
5263.46,0.06799
5257.68,0.06796
5251.89,0.07144
5246.11,0.07384
5240.32,0.07855
5234.53,0.08242
5228.75,0.08416
5222.96,0.08902
5217.18,0.09027
5211.39,0.09348
5205.6,0.09242
5199.82,0.09197
5194.03,0.09202
5188.24,0.09174
5182.46,0.09342
5176.67,0.09365
5170.89,0.09247
5165.1,0.09158
5159.31,0.09204
5153.53,0.09423
5147.74,0.09532
5141.96,0.09577
5136.17,0.09748
5130.38,0.09819
5124.6,0.09861
5118.81,0.09815
5113.02,0.09848
5107.24,0.09949
5101.45,0.09932
5095.67,0.09863
5089.88,0.09811
5084.09,0.09681
5078.31,0.09608
5072.52,0.09761
5066.74,0.09693
5060.95,0.09662
5055.16,0.09657
5049.38,0.09804
5043.59,0.09961
5037.8,0.09854
5032.02,0.09839
5026.23,0.09724
5020.45,0.09576
5014.66,0.09634
5008.87,0.09470
5003.09,0.09468
4997.3,0.09417
4991.52,0.09223
4985.73,0.09256
4979.94,0.09057
4974.16,0.09265
4968.37,0.09064
4962.58,0.09013
4956.8,0.09055
4951.01,0.09154
4945.23,0.09034
4939.44,0.08915
4933.65,0.08814
4927.87,0.08778
4922.08,0.08623
4916.3,0.08424
4910.51,0.08208
4904.72,0.07823
4898.94,0.07763
4893.15,0.07746
4887.36,0.07649
4881.58,0.07653
4875.79,0.07586
4870.01,0.07490
4864.22,0.07406
4858.43,0.07182
4852.65,0.07150
4846.86,0.07039
4841.08,0.07008
4835.29,0.07134
4829.5,0.07156
4823.72,0.07271
4817.93,0.07297
4812.14,0.07421
4806.36,0.07298
4800.57,0.07370
4794.79,0.07345
4789,0.07215
4783.21,0.07137
4777.43,0.07043
4771.64,0.06880
4765.86,0.06774
4760.07,0.06696
4754.28,0.06635
4748.5,0.06463
4742.71,0.06398
4736.92,0.06223
4731.14,0.06134
4725.35,0.06291
4719.57,0.06142
4713.78,0.06084
4707.99,0.06198
4702.21,0.06075
4696.42,0.06173
4690.64,0.06130
4684.85,0.06097
4679.06,0.06160
4673.28,0.06156
4667.49,0.06235
4661.7,0.06114
4655.92,0.06202
4650.13,0.06262
4644.35,0.06208
4638.56,0.06002
4632.77,0.06181
4626.99,0.06206
4621.2,0.06205
4615.42,0.06094
4609.63,0.06092
4603.84,0.06126
4598.06,0.06134
4592.27,0.06139
4586.49,0.06270
4580.7,0.06169
4574.91,0.06105
4569.13,0.06199
4563.34,0.06237
4557.55,0.06201
4551.77,0.06234
4545.98,0.06210
4540.2,0.06247
4534.41,0.06380
4528.62,0.06174
4522.84,0.06253
4517.05,0.06212
4511.27,0.06189
4505.48,0.06205
4499.69,0.06226
4493.91,0.06233
4488.12,0.06166
4482.33,0.06230
4476.55,0.06282
4470.76,0.06284
4464.98,0.06281
4459.19,0.06285
4453.4,0.06215
4447.62,0.06254
4441.83,0.06243
4436.05,0.06209
4430.26,0.06170
4424.47,0.06123
4418.69,0.06228
4412.9,0.06150
4407.11,0.06216
4401.33,0.06259
4395.54,0.06120
4389.76,0.06229
4383.97,0.06184
4378.18,0.06221
4372.4,0.06145
4366.61,0.06255
4360.83,0.06215
4355.04,0.06216
4349.25,0.06260
4343.47,0.06173
4337.68,0.06250
4331.89,0.06263
4326.11,0.06265
4320.32,0.06272
4314.54,0.06237
4308.75,0.06304
4302.96,0.06198
4297.18,0.06181
4291.39,0.06223
4285.61,0.06210
4279.82,0.06251
4274.03,0.06168
4268.25,0.06191
4262.46,0.06223
4256.67,0.06262
4250.89,0.06291
4245.1,0.06249
4239.32,0.06261
4233.53,0.06157
4227.74,0.06224
4221.96,0.06318
4216.17,0.06245
4210.39,0.06236
4204.6,0.06321
4198.81,0.06306
4193.03,0.06276
4187.24,0.06273
4181.45,0.06269
4175.67,0.06336
4169.88,0.06244
4164.1,0.06214
4158.31,0.06244
4152.52,0.06331
4146.74,0.06275
4140.95,0.06296
4135.17,0.06306
4129.38,0.06230
4123.59,0.06266
4117.81,0.06308
4112.02,0.06279
4106.23,0.06270
4100.45,0.06303
4094.66,0.06305
4088.88,0.06293
4083.09,0.06251
4077.3,0.06261
4071.52,0.06256
4065.73,0.06332
4059.95,0.06319
4054.16,0.06372
4048.37,0.06308
4042.59,0.06274
4036.8,0.06352
4031.02,0.06280
4025.23,0.06290
4019.44,0.06309
4013.66,0.06366
4007.87,0.06299
4002.08,0.06361
3996.3,0.06277
3990.51,0.06319
3984.73,0.06266
3978.94,0.06287
3973.15,0.06274
3967.37,0.06242
3961.58,0.06301
3955.8,0.06328
3950.01,0.06299
3944.22,0.06297
3938.44,0.06296
3932.65,0.06358
3926.86,0.06351
3921.08,0.06305
3915.29,0.06292
3909.51,0.06349
3903.72,0.06350
3897.93,0.06230
3892.15,0.06352
3886.36,0.06316
3880.58,0.06362
3874.79,0.06267
3869,0.06265
3863.22,0.06253
3857.43,0.06395
3851.64,0.06355
3845.86,0.06355
3840.07,0.06474
3834.29,0.06360
3828.5,0.06330
3822.71,0.06224
3816.93,0.06286
3811.14,0.06339
3805.36,0.06359
3799.57,0.06296
3793.78,0.06354
3788,0.06369
3782.21,0.06314
3776.42,0.06331
3770.64,0.06270
3764.85,0.06366
3759.07,0.06394
3753.28,0.06329
3747.49,0.06183
3741.71,0.06200
3735.92,0.06329
3730.14,0.06298
3724.35,0.06446
3718.56,0.06311
3712.78,0.06282
3706.99,0.06257
3701.2,0.06296
3695.42,0.06354
3689.63,0.06230
3683.85,0.06343
3678.06,0.06429
3672.27,0.06289
3666.49,0.06266
3660.7,0.06311
3654.92,0.06261
3649.13,0.06157
3643.34,0.06250
3637.56,0.06315
3631.77,0.06203
3625.98,0.06202
3620.2,0.06273
3614.41,0.06238
3608.63,0.06283
3602.84,0.06308
3597.05,0.06219
3591.27,0.06265
3585.48,0.06142
3579.7,0.06173
3573.91,0.06152
3568.12,0.06223
3562.34,0.06202
3556.55,0.06239
3550.76,0.06247
3544.98,0.06131
3539.19,0.06195
3533.41,0.06229
3527.62,0.06238
3521.83,0.06213
3516.05,0.06312
3510.26,0.06279
3504.48,0.06273
3498.69,0.06181
3492.9,0.06301
3487.12,0.06285
3481.33,0.06202
3475.55,0.06202
3469.76,0.06158
3463.97,0.06249
3458.19,0.06202
3452.4,0.06220
3446.61,0.06247
3440.83,0.06183
3435.04,0.06259
3429.26,0.06279
3423.47,0.06239
3417.68,0.06256
3411.9,0.06233
3406.11,0.06184
3400.33,0.06224
3394.54,0.06163
3388.75,0.06183
3382.97,0.06263
3377.18,0.06227
3371.39,0.06158
3365.61,0.06247
3359.82,0.06238
3354.04,0.06130
3348.25,0.06193
3342.46,0.06233
3336.68,0.06185
3330.89,0.06153
3325.11,0.06178
3319.32,0.06112
3313.53,0.06161
3307.75,0.06224
3301.96,0.06213
3296.17,0.06247
3290.39,0.06185
3284.6,0.06226
3278.82,0.06245
3273.03,0.06154
3267.24,0.06133
3261.46,0.06203
3255.67,0.06190
3249.89,0.06194
3244.1,0.06190
3238.31,0.06249
3232.53,0.06243
3226.74,0.06268
3220.95,0.06279
3215.17,0.06204
3209.38,0.06227
3203.6,0.06233
3197.81,0.06290
3192.02,0.06185
3186.24,0.06226
3180.45,0.06229
3174.67,0.06155
3168.88,0.06180
3163.09,0.06178
3157.31,0.06278
3151.52,0.06217
3145.73,0.06228
3139.95,0.06198
3134.16,0.06147
3128.38,0.06177
3122.59,0.06197
3116.8,0.06230
3111.02,0.06224
3105.23,0.06139
3099.45,0.06176
3093.66,0.06188
3087.87,0.06207
3082.09,0.06210
3076.3,0.06218
3070.51,0.06153
3064.73,0.06162
3058.94,0.06172
3053.16,0.06180
3047.37,0.06174
3041.58,0.06184
3035.8,0.06267
3030.01,0.06198
3024.23,0.06214
3018.44,0.06244
3012.65,0.06185
3006.87,0.06091
3001.08,0.06085
2995.29,0.06103
2989.51,0.06081
2983.72,0.05995
2977.94,0.06035
2972.15,0.06136
2966.36,0.06313
2960.58,0.06430
2954.79,0.06363
2949.01,0.06363
2943.22,0.06357
2937.43,0.06358
2931.65,0.06438
2925.86,0.06480
2920.08,0.06492
2914.29,0.06402
2908.5,0.06445
2902.72,0.06361
2896.93,0.06415
2891.14,0.06341
2885.36,0.06388
2879.57,0.06316
2873.79,0.06300
2868,0.06396
2862.21,0.06487
2856.43,0.06367
2850.64,0.06363
2844.86,0.06347
2839.07,0.06376
2833.28,0.06353
2827.5,0.06366
2821.71,0.06320
2815.92,0.06350
2810.14,0.06359
2804.35,0.06322
2798.57,0.06338
2792.78,0.06331
2786.99,0.06311
2781.21,0.06364
2775.42,0.06320
2769.64,0.06307
2763.85,0.06296
2758.06,0.06304
2752.28,0.06364
2746.49,0.06342
2740.7,0.06331
2734.92,0.06335
2729.13,0.06378
2723.35,0.06308
2717.56,0.06336
2711.77,0.06299
2705.99,0.06312
2700.2,0.06365
2694.42,0.06323
2688.63,0.06296
2682.84,0.06290
2677.06,0.06350
2671.27,0.06330
2665.48,0.06325
2659.7,0.06323
2653.91,0.06322
2648.13,0.06311
2642.34,0.06305
2636.55,0.06322
2630.77,0.06323
2624.98,0.06312
2619.2,0.06284
2613.41,0.06307
2607.62,0.06304
2601.84,0.06254
2596.05,0.06248
2590.26,0.06280
2584.48,0.06334
2578.69,0.06281
2572.91,0.06312
2567.12,0.06261
2561.33,0.06296
2555.55,0.06290
2549.76,0.06283
2543.98,0.06279
2538.19,0.06260
2532.4,0.06261
2526.62,0.06294
2520.83,0.06290
2515.04,0.06272
2509.26,0.06274
2503.47,0.06284
2497.69,0.06289
2491.9,0.06282
2486.11,0.06276
2480.33,0.06286
2474.54,0.06248
2468.76,0.06257
2462.97,0.06260
2457.18,0.06278
2451.4,0.06274
2445.61,0.06283
2439.82,0.06269
2434.04,0.06260
2428.25,0.06238
2422.47,0.06282
2416.68,0.06246
2410.89,0.06294
2405.11,0.06296
2399.32,0.06293
2393.54,0.06282
2387.75,0.06283
2381.96,0.06307
2376.18,0.06358
2370.39,0.06432
2364.61,0.06298
2358.82,0.06278
2353.03,0.06238
2347.25,0.06284
2341.46,0.06057
2335.67,0.06504
2329.89,0.06377
2324.1,0.06294
2318.32,0.06303
2312.53,0.06234
2306.74,0.06243
2300.96,0.06264
2295.17,0.06218
2289.39,0.06208
2283.6,0.06198
2277.81,0.06258
2272.03,0.06247
2266.24,0.06210
2260.45,0.06237
2254.67,0.06247
2248.88,0.06222
2243.1,0.06234
2237.31,0.06218
2231.52,0.06225
2225.74,0.06235
2219.95,0.06256
2214.17,0.06234
2208.38,0.06241
2202.59,0.06227
2196.81,0.06223
2191.02,0.06233
2185.23,0.06220
2179.45,0.06229
2173.66,0.06240
2167.88,0.06210
2162.09,0.06207
2156.3,0.06208
2150.52,0.06211
2144.73,0.06215
2138.95,0.06165
2133.16,0.06174
2127.37,0.06203
2121.59,0.06182
2115.8,0.06165
2110.01,0.06171
2104.23,0.06140
2098.44,0.06172
2092.66,0.06165
2086.87,0.06129
2081.08,0.06150
2075.3,0.06148
2069.51,0.06139
2063.73,0.06113
2057.94,0.06140
2052.15,0.06132
2046.37,0.06113
2040.58,0.06109
2034.79,0.06117
2029.01,0.06106
2023.22,0.06083
2017.44,0.06104
2011.65,0.06085
2005.86,0.06095
2000.08,0.06063
1994.29,0.06088
1988.51,0.06088
1982.72,0.06066
1976.93,0.06051
1971.15,0.06036
1965.36,0.06065
1959.57,0.06041
1953.79,0.06012
1948,0.06005
1942.22,0.05964
1936.43,0.06003
1930.64,0.05960
1924.86,0.05990
1919.07,0.05946
1913.29,0.05897
1907.5,0.05889
1901.71,0.05900
1895.93,0.05896
1890.14,0.05891
1884.35,0.05874
1878.57,0.05826
1872.78,0.05797
1867,0.05778
1861.21,0.05738
1855.42,0.05711
1849.64,0.05655
1843.85,0.05634
1838.07,0.05549
1832.28,0.05535
1826.49,0.05454
1820.71,0.05325
1814.92,0.05176
1809.13,0.04979
1803.35,0.04723
1797.56,0.04414
1791.78,0.04236
1785.99,0.04697
1780.2,0.05995
1774.42,0.07459
1768.63,0.08797
1762.85,0.08752
1757.06,0.08037
1751.27,0.07585
1745.49,0.07175
1739.7,0.06966
1733.92,0.06900
1728.13,0.06764
1722.34,0.06672
1716.56,0.06606
1710.77,0.06503
1704.98,0.06508
1699.2,0.06275
1693.41,0.06280
1687.63,0.06284
1681.84,0.06202
1676.05,0.06169
1670.27,0.06152
1664.48,0.06048
1658.7,0.06117
1652.91,0.06077
1647.12,0.06137
1641.34,0.06056
1635.55,0.06035
1629.76,0.06008
1623.98,0.05962
1618.19,0.05954
1612.41,0.05902
1606.62,0.05821
1600.83,0.05913
1595.05,0.05931
1589.26,0.05944
1583.48,0.05926
1577.69,0.05907
1571.9,0.05787
1566.12,0.05727
1560.33,0.05657
1554.54,0.05518
1548.76,0.05483
1542.97,0.05391
1537.19,0.05222
1531.4,0.05178
1525.61,0.05029
1519.83,0.04618
1514.04,0.04251
1508.26,0.04989
1502.47,0.07249
1496.68,0.07282
1490.9,0.06957
1485.11,0.06554
1479.32,0.06336
1473.54,0.06182
1467.75,0.06086
1461.97,0.06141
1456.18,0.06020
1450.39,0.05986
1444.61,0.05894
1438.82,0.05890
1433.04,0.05768
1427.25,0.05639
1421.46,0.05502
1415.68,0.05333
1409.89,0.05535
1404.1,0.05640
1398.32,0.05597
1392.53,0.05383
1386.75,0.05422
1380.96,0.05394
1375.17,0.05254
1369.39,0.05052
1363.6,0.05227
1357.82,0.05262
1352.03,0.05050
1346.24,0.04886
1340.46,0.04847
1334.67,0.04618
1328.88,0.04487
1323.1,0.04334
1317.31,0.04051
1311.53,0.03906
1305.74,0.03796
1299.95,0.03532
1294.17,0.03480
1288.38,0.03440
1282.6,0.03214
1276.81,0.02784
1271.02,0.02211
1265.24,0.02034
1259.45,0.03632
1253.66,0.06894
1247.88,0.09403
1242.09,0.10734
1236.31,0.11991
1230.52,0.13215
1224.73,0.13834
1218.95,0.13069
1213.16,0.10608
1207.38,0.07658
1201.59,0.08965
1195.8,0.14382
1190.02,0.16535
1184.23,0.14019
1178.45,0.11146
1172.66,0.08886
1166.87,0.11030
1161.09,0.15489
1155.3,0.13866
1149.51,0.12189
1143.73,0.11182
1137.94,0.10461
1132.16,0.09952
1126.37,0.09554
1120.58,0.09183
1114.8,0.08815
1109.01,0.08895
1103.23,0.08809
1097.44,0.08719
1091.65,0.08278
1085.87,0.07753
1080.08,0.09261
1074.29,0.09322
1068.51,0.08832
1062.72,0.08474
1056.94,0.08304
1051.15,0.08106
1045.36,0.07949
1039.58,0.07751
1033.79,0.07466
1028.01,0.06956
1022.22,0.06332
1016.43,0.07989
1010.65,0.09640
1004.86,0.09296
999.075,0.09028
993.288,0.08718
987.502,0.08524
981.716,0.08332
975.93,0.08126
970.144,0.08119
964.358,0.07979
958.572,0.07874
952.785,0.07806
946.999,0.07750
941.213,0.07763
935.427,0.07712
929.641,0.07614
923.855,0.07501
918.068,0.07504
912.282,0.07386
906.496,0.07270
900.71,0.07112
894.924,0.06814
889.138,0.07191
883.352,0.07532
877.565,0.07552
871.779,0.07263
865.993,0.07000
860.207,0.06805
854.421,0.06545
848.635,0.06471
842.849,0.06599
837.062,0.06888
831.276,0.07881
825.49,0.08403
819.704,0.08220
813.918,0.08409
808.132,0.08448
802.346,0.08233
796.559,0.07946
790.773,0.07739
784.987,0.07563
779.201,0.07415
773.415,0.07414
767.629,0.07874
761.843,0.08031
756.056,0.08086
750.27,0.08048
744.484,0.07977
738.698,0.07734
732.912,0.07722
727.126,0.07703
721.34,0.07623
715.553,0.07498
709.767,0.07597
703.981,0.07671
698.195,0.07763
692.409,0.07757
686.623,0.07758
680.837,0.07597
675.05,0.07546
669.264,0.07484
663.478,0.07535
657.692,0.07521
651.906,0.07337
646.12,0.07307
640.333,0.07333
634.547,0.07391
628.761,0.07284
622.975,0.07076
617.189,0.06981
611.403,0.06932
605.617,0.06963
599.83,0.06857