File: 01_Data/PC/FTIR/IS/PC_IS_T_230508_R3.dpt
7496.92,0.01602
7491.13,0.03765
7485.34,0.03389
7479.56,0.01515
7473.77,0.02769
7467.99,0.01049
7462.2,0.02960
7456.41,0.03623
7450.63,0.01495
7444.84,0.03566
7439.06,0.02554
7433.27,0.02322
7427.48,0.02598
7421.7,0.02979
7415.91,0.02403
7410.12,0.02787
7404.34,0.03055
7398.55,0.02060
7392.77,0.01610
7386.98,0.01837
7381.19,0.02706
7375.41,0.01606
7369.62,0.03492
7363.84,0.02200
7358.05,0.04960
7352.26,0.02279
7346.48,0.03169
7340.69,0.00716
7334.9,0.02643
7329.12,0.02893
7323.33,0.02126
7317.55,0.01792
7311.76,0.02769
7305.97,0.03684
7300.19,0.01387
7294.4,0.01593
7288.62,0.01700
7282.83,0.01904
7277.04,0.02012
7271.26,0.03702
7265.47,0.02212
7259.68,0.02134
7253.9,0.02309
7248.11,0.02692
7242.33,0.01565
7236.54,0.02709
7230.75,0.02547
7224.97,0.01885
7219.18,0.02227
7213.4,0.03006
7207.61,0.01470
7201.82,0.02756
7196.04,0.00948
7190.25,0.03222
7184.46,0.02170
7178.68,0.02520
7172.89,0.02306
7167.11,0.02560
7161.32,0.02745
7155.53,0.02459
7149.75,0.01848
7143.96,0.02544
7138.18,0.02011
7132.39,0.02029
7126.6,0.02451
7120.82,0.02055
7115.03,0.02572
7109.24,0.03816
7103.46,0.02842
7097.67,0.03077
7091.89,0.02581
7086.1,0.02545
7080.31,0.03073
7074.53,0.03926
7068.74,0.02924
7062.96,0.02797
7057.17,0.02577
7051.38,0.02506
7045.6,0.02879
7039.81,0.02611
7034.02,0.03014
7028.24,0.03205
7022.45,0.02335
7016.67,0.02743
7010.88,0.03072
7005.09,0.02544
6999.31,0.02318
6993.52,0.02522
6987.74,0.02205
6981.95,0.02433
6976.16,0.02641
6970.38,0.02240
6964.59,0.02308
6958.8,0.02721
6953.02,0.02794
6947.23,0.03238
6941.45,0.02076
6935.66,0.02235
6929.87,0.02282
6924.09,0.03374
6918.3,0.02811
6912.52,0.02856
6906.73,0.02220
6900.94,0.02667
6895.16,0.02900
6889.37,0.03141
6883.59,0.02343
6877.8,0.02880
6872.01,0.02617
6866.23,0.02561
6860.44,0.02476
6854.65,0.02748
6848.87,0.02967
6843.08,0.03010
6837.3,0.02327
6831.51,0.02055
6825.72,0.02494
6819.94,0.03335
6814.15,0.02552
6808.37,0.01660
6802.58,0.02941
6796.79,0.03351
6791.01,0.02484
6785.22,0.03228
6779.43,0.02583
6773.65,0.01958
6767.86,0.02196
6762.08,0.01964
6756.29,0.03123
6750.5,0.02417
6744.72,0.02883
6738.93,0.02491
6733.15,0.02858
6727.36,0.02347
6721.57,0.02556
6715.79,0.02900
6710,0.03116
6704.21,0.02833
6698.43,0.02548
6692.64,0.02214
6686.86,0.02514
6681.07,0.02294
6675.28,0.02490
6669.5,0.02449
6663.71,0.02431
6657.93,0.01736
6652.14,0.02350
6646.35,0.02441
6640.57,0.01836
6634.78,0.01953
6628.99,0.02168
6623.21,0.01572
6617.42,0.02389
6611.64,0.02023
6605.85,0.02637
6600.06,0.02823
6594.28,0.02104
6588.49,0.01976
6582.71,0.02108
6576.92,0.02875
6571.13,0.02291
6565.35,0.02597
6559.56,0.02580
6553.77,0.02689
6547.99,0.02493
6542.2,0.02077
6536.42,0.02487
6530.63,0.01815
6524.84,0.02018
6519.06,0.01820
6513.27,0.02656
6507.49,0.02628
6501.7,0.02037
6495.91,0.02103
6490.13,0.02458
6484.34,0.02238
6478.55,0.02126
6472.77,0.02498
6466.98,0.02149
6461.2,0.02733
6455.41,0.02705
6449.62,0.01690
6443.84,0.02130
6438.05,0.02381
6432.27,0.02002
6426.48,0.02010
6420.69,0.01859
6414.91,0.02277
6409.12,0.02495
6403.33,0.02146
6397.55,0.01960
6391.76,0.02521
6385.98,0.02662
6380.19,0.01913
6374.4,0.02431
6368.62,0.02234
6362.83,0.02297
6357.05,0.02302
6351.26,0.02601
6345.47,0.02389
6339.69,0.01788
6333.9,0.02305
6328.12,0.02498
6322.33,0.02502
6316.54,0.02019
6310.76,0.02006
6304.97,0.02552
6299.18,0.02467
6293.4,0.02788
6287.61,0.02506
6281.83,0.02394
6276.04,0.02029
6270.25,0.02211
6264.47,0.02327
6258.68,0.01876
6252.9,0.02544
6247.11,0.02216
6241.32,0.02341
6235.54,0.02839
6229.75,0.02561
6223.96,0.02385
6218.18,0.02722
6212.39,0.02575
6206.61,0.02542
6200.82,0.02154
6195.03,0.02194
6189.25,0.02138
6183.46,0.02179
6177.68,0.02092
6171.89,0.02248
6166.1,0.02111
6160.32,0.02066
6154.53,0.02592
6148.74,0.02426
6142.96,0.02383
6137.17,0.02593
6131.39,0.02287
6125.6,0.02385
6119.81,0.01969
6114.03,0.02133
6108.24,0.02285
6102.46,0.01935
6096.67,0.02192
6090.88,0.02636
6085.1,0.02262
6079.31,0.02425
6073.52,0.02422
6067.74,0.02001
6061.95,0.02411
6056.17,0.02444
6050.38,0.02626
6044.59,0.02611
6038.81,0.02521
6033.02,0.02435
6027.24,0.02386
6021.45,0.02500
6015.66,0.02296
6009.88,0.02260
6004.09,0.02626
5998.3,0.02347
5992.52,0.02250
5986.73,0.02291
5980.95,0.02167
5975.16,0.02525
5969.37,0.02242
5963.59,0.02267
5957.8,0.02328
5952.02,0.02219
5946.23,0.02294
5940.44,0.02070
5934.66,0.02408
5928.87,0.02211
5923.08,0.02512
5917.3,0.02592
5911.51,0.02743
5905.73,0.02601
5899.94,0.02189
5894.15,0.01924
5888.37,0.02352
5882.58,0.02465
5876.8,0.02248
5871.01,0.02397
5865.22,0.02407
5859.44,0.02552
5853.65,0.02400
5847.86,0.02197
5842.08,0.02532
5836.29,0.02172
5830.51,0.02348
5824.72,0.02039
5818.93,0.02364
5813.15,0.02183
5807.36,0.02242
5801.58,0.02437
5795.79,0.02382
5790,0.02285
5784.22,0.02226
5778.43,0.02232
5772.65,0.02354
5766.86,0.02203
5761.07,0.02247
5755.29,0.02463
5749.5,0.02341
5743.71,0.01982
5737.93,0.02388
5732.14,0.02448
5726.36,0.02296
5720.57,0.02257
5714.78,0.02145
5709,0.02355
5703.21,0.02225
5697.43,0.02238
5691.64,0.02345
5685.85,0.02424
5680.07,0.02228
5674.28,0.02273
5668.49,0.02305
5662.71,0.02397
5656.92,0.02320
5651.14,0.02163
5645.35,0.02328
5639.56,0.02189
5633.78,0.02074
5627.99,0.02378
5622.21,0.02193
5616.42,0.02248
5610.63,0.02436
5604.85,0.02195
5599.06,0.01963
5593.27,0.02300
5587.49,0.02094
5581.7,0.02420
5575.92,0.02460
5570.13,0.02446
5564.34,0.02384
5558.56,0.02284
5552.77,0.02432
5546.99,0.02354
5541.2,0.02456
5535.41,0.02265
5529.63,0.02293
5523.84,0.02432
5518.05,0.02441
5512.27,0.02454
5506.48,0.02437
5500.7,0.02328
5494.91,0.02282
5489.12,0.02448
5483.34,0.02377
5477.55,0.02107
5471.77,0.02256
5465.98,0.02449
5460.19,0.02549
5454.41,0.02324
5448.62,0.02237
5442.83,0.02388
5437.05,0.02430
5431.26,0.02234
5425.48,0.02353
5419.69,0.02300
5413.9,0.02494
5408.12,0.02396
5402.33,0.02263
5396.55,0.02387
5390.76,0.02316
5384.97,0.02471
5379.19,0.02296
5373.4,0.02296
5367.61,0.02520
5361.83,0.02370
5356.04,0.02234
5350.26,0.02266
5344.47,0.02298
5338.68,0.02385
5332.9,0.02353
5327.11,0.02289
5321.33,0.02254
5315.54,0.02291
5309.75,0.02518
5303.97,0.02453
5298.18,0.02433
5292.39,0.02561
5286.61,0.02378
5280.82,0.02265
5275.04,0.02332
5269.25,0.02283
5263.46,0.02364
5257.68,0.02519
5251.89,0.02434
5246.11,0.02273
5240.32,0.02351
5234.53,0.02566
5228.75,0.02404
5222.96,0.02290
5217.18,0.02307
5211.39,0.02215
5205.6,0.02307
5199.82,0.02339
5194.03,0.02321
5188.24,0.02302
5182.46,0.02173
5176.67,0.02362
5170.89,0.02259
5165.1,0.02143
5159.31,0.02343
5153.53,0.02475
5147.74,0.02220
5141.96,0.02334
5136.17,0.02393
5130.38,0.02381
5124.6,0.02387
5118.81,0.02424
5113.02,0.02421
5107.24,0.02531
5101.45,0.02381
5095.67,0.02429
5089.88,0.02300
5084.09,0.02286
5078.31,0.02397
5072.52,0.02354
5066.74,0.02519
5060.95,0.02234
5055.16,0.02409
5049.38,0.02390
5043.59,0.02440
5037.8,0.02354
5032.02,0.02318
5026.23,0.02354
5020.45,0.02379
5014.66,0.02359
5008.87,0.02367
5003.09,0.02333
4997.3,0.02413
4991.52,0.02232
4985.73,0.02324
4979.94,0.02446
4974.16,0.02441
4968.37,0.02447
4962.58,0.02396
4956.8,0.02317
4951.01,0.02346
4945.23,0.02350
4939.44,0.02363
4933.65,0.02396
4927.87,0.02483
4922.08,0.02394
4916.3,0.02444
4910.51,0.02382
4904.72,0.02358
4898.94,0.02349
4893.15,0.02426
4887.36,0.02434
4881.58,0.02393
4875.79,0.02398
4870.01,0.02374
4864.22,0.02284
4858.43,0.02375
4852.65,0.02445
4846.86,0.02456
4841.08,0.02351
4835.29,0.02377
4829.5,0.02455
4823.72,0.02361
4817.93,0.02329
4812.14,0.02306
4806.36,0.02353
4800.57,0.02392
4794.79,0.02385
4789,0.02416
4783.21,0.02300
4777.43,0.02373
4771.64,0.02373
4765.86,0.02331
4760.07,0.02323
4754.28,0.02410
4748.5,0.02257
4742.71,0.02375
4736.92,0.02372
4731.14,0.02408
4725.35,0.02470
4719.57,0.02324
4713.78,0.02282
4707.99,0.02312
4702.21,0.02400
4696.42,0.02402
4690.64,0.02329
4684.85,0.02487
4679.06,0.02429
4673.28,0.02426
4667.49,0.02346
4661.7,0.02334
4655.92,0.02399
4650.13,0.02430
4644.35,0.02378
4638.56,0.02406
4632.77,0.02420
4626.99,0.02486
4621.2,0.02487
4615.42,0.02418
4609.63,0.02411
4603.84,0.02335
4598.06,0.02353
4592.27,0.02310
4586.49,0.02372
4580.7,0.02369
4574.91,0.02372
4569.13,0.02428
4563.34,0.02295
4557.55,0.02198
4551.77,0.02350
4545.98,0.02396
4540.2,0.02300
4534.41,0.02362
4528.62,0.02377
4522.84,0.02367
4517.05,0.02399
4511.27,0.02395
4505.48,0.02402
4499.69,0.02444
4493.91,0.02418
4488.12,0.02419
4482.33,0.02318
4476.55,0.02483
4470.76,0.02383
4464.98,0.02358
4459.19,0.02291
4453.4,0.02372
4447.62,0.02406
4441.83,0.02386
4436.05,0.02407
4430.26,0.02334
4424.47,0.02331
4418.69,0.02431
4412.9,0.02315
4407.11,0.02352
4401.33,0.02363
4395.54,0.02318
4389.76,0.02346
4383.97,0.02391
4378.18,0.02388
4372.4,0.02410
4366.61,0.02428
4360.83,0.02305
4355.04,0.02446
4349.25,0.02322
4343.47,0.02414
4337.68,0.02249
4331.89,0.02460
4326.11,0.02359
4320.32,0.02387
4314.54,0.02388
4308.75,0.02425
4302.96,0.02321
4297.18,0.02331
4291.39,0.02352
4285.61,0.02389
4279.82,0.02378
4274.03,0.02315
4268.25,0.02357
4262.46,0.02455
4256.67,0.02414
4250.89,0.02339
4245.1,0.02405
4239.32,0.02407
4233.53,0.02476
4227.74,0.02406
4221.96,0.02390
4216.17,0.02387
4210.39,0.02402
4204.6,0.02338
4198.81,0.02413
4193.03,0.02434
4187.24,0.02391
4181.45,0.02331
4175.67,0.02388
4169.88,0.02322
4164.1,0.02366
4158.31,0.02411
4152.52,0.02457
4146.74,0.02421
4140.95,0.02389
4135.17,0.02434
4129.38,0.02348
4123.59,0.02407
4117.81,0.02427
4112.02,0.02366
4106.23,0.02412
4100.45,0.02392
4094.66,0.02403
4088.88,0.02464
4083.09,0.02390
4077.3,0.02331
4071.52,0.02423
4065.73,0.02431
4059.95,0.02346
4054.16,0.02434
4048.37,0.02417
4042.59,0.02493
4036.8,0.02434
4031.02,0.02383
4025.23,0.02391
4019.44,0.02384
4013.66,0.02429
4007.87,0.02409
4002.08,0.02361
3996.3,0.02446
3990.51,0.02426
3984.73,0.02421
3978.94,0.02351
3973.15,0.02489
3967.37,0.02418
3961.58,0.02483
3955.8,0.02415
3950.01,0.02401
3944.22,0.02420
3938.44,0.02409
3932.65,0.02422
3926.86,0.02431
3921.08,0.02436
3915.29,0.02388
3909.51,0.02451
3903.72,0.02383
3897.93,0.02305
3892.15,0.02392
3886.36,0.02413
3880.58,0.02430
3874.79,0.02329
3869,0.02470
3863.22,0.02413
3857.43,0.02438
3851.64,0.02311
3845.86,0.02453
3840.07,0.02400
3834.29,0.02382
3828.5,0.02404
3822.71,0.02511
3816.93,0.02418
3811.14,0.02367
3805.36,0.02430
3799.57,0.02436
3793.78,0.02477
3788,0.02481
3782.21,0.02401
3776.42,0.02408
3770.64,0.02497
3764.85,0.02450
3759.07,0.02475
3753.28,0.02352
3747.49,0.02278
3741.71,0.02345
3735.92,0.02342
3730.14,0.02355
3724.35,0.02504
3718.56,0.02350
3712.78,0.02343
3706.99,0.02326
3701.2,0.02396
3695.42,0.02463
3689.63,0.02428
3683.85,0.02412
3678.06,0.02334
3672.27,0.02408
3666.49,0.02381
3660.7,0.02336
3654.92,0.02299
3649.13,0.02305
3643.34,0.02336
3637.56,0.02416
3631.77,0.02356
3625.98,0.02312
3620.2,0.02393
3614.41,0.02190
3608.63,0.02264
3602.84,0.02341
3597.05,0.02258
3591.27,0.02213
3585.48,0.02228
3579.7,0.02205
3573.91,0.02269
3568.12,0.02282
3562.34,0.02207
3556.55,0.02204
3550.76,0.02165
3544.98,0.02275
3539.19,0.02293
3533.41,0.02230
3527.62,0.02115
3521.83,0.02213
3516.05,0.02206
3510.26,0.02233
3504.48,0.02243
3498.69,0.02173
3492.9,0.02203
3487.12,0.02113
3481.33,0.02245
3475.55,0.02209
3469.76,0.02196
3463.97,0.02185
3458.19,0.02235
3452.4,0.02197
3446.61,0.02079
3440.83,0.02126
3435.04,0.02161
3429.26,0.02202
3423.47,0.02173
3417.68,0.02276
3411.9,0.02222
3406.11,0.02151
3400.33,0.02285
3394.54,0.02213
3388.75,0.02109
3382.97,0.02188
3377.18,0.02173
3371.39,0.02120
3365.61,0.02150
3359.82,0.02227
3354.04,0.02158
3348.25,0.02131
3342.46,0.02090
3336.68,0.02138
3330.89,0.02128
3325.11,0.02103
3319.32,0.02194
3313.53,0.02169
3307.75,0.02164
3301.96,0.02174
3296.17,0.02133
3290.39,0.02133
3284.6,0.02229
3278.82,0.02183
3273.03,0.02206
3267.24,0.02232
3261.46,0.02254
3255.67,0.02158
3249.89,0.02195
3244.1,0.02138
3238.31,0.02182
3232.53,0.02161
3226.74,0.02239
3220.95,0.02262
3215.17,0.02289
3209.38,0.02236
3203.6,0.02238
3197.81,0.02227
3192.02,0.02261
3186.24,0.02238
3180.45,0.02253
3174.67,0.02270
3168.88,0.02322
3163.09,0.02233
3157.31,0.02307
3151.52,0.02238
3145.73,0.02272
3139.95,0.02259
3134.16,0.02262
3128.38,0.02261
3122.59,0.02291
3116.8,0.02288
3111.02,0.02193
3105.23,0.02217
3099.45,0.02264
3093.66,0.02251
3087.87,0.02253
3082.09,0.02260
3076.3,0.02232
3070.51,0.02219
3064.73,0.02292
3058.94,0.02261
3053.16,0.02224
3047.37,0.02251
3041.58,0.02245
3035.8,0.02255
3030.01,0.02257
3024.23,0.02286
3018.44,0.02225
3012.65,0.02208
3006.87,0.02245
3001.08,0.02189
2995.29,0.02208
2989.51,0.02213
2983.72,0.02207
2977.94,0.02147
2972.15,0.02192
2966.36,0.02205
2960.58,0.02139
2954.79,0.02171
2949.01,0.02152
2943.22,0.02217
2937.43,0.02210
2931.65,0.02148
2925.86,0.02147
2920.08,0.02181
2914.29,0.02213
2908.5,0.02185
2902.72,0.02219
2896.93,0.02226
2891.14,0.02303
2885.36,0.02245
2879.57,0.02275
2873.79,0.02242
2868,0.02210
2862.21,0.02240
2856.43,0.02229
2850.64,0.02235
2844.86,0.02249
2839.07,0.02246
2833.28,0.02298
2827.5,0.02292
2821.71,0.02273
2815.92,0.02303
2810.14,0.02332
2804.35,0.02403
2798.57,0.02337
2792.78,0.02294
2786.99,0.02310
2781.21,0.02265
2775.42,0.02344
2769.64,0.02345
2763.85,0.02302
2758.06,0.02383
2752.28,0.02317
2746.49,0.02288
2740.7,0.02352
2734.92,0.02303
2729.13,0.02327
2723.35,0.02312
2717.56,0.02340
2711.77,0.02296
2705.99,0.02293
2700.2,0.02375
2694.42,0.02329
2688.63,0.02336
2682.84,0.02297
2677.06,0.02287
2671.27,0.02351
2665.48,0.02312
2659.7,0.02290
2653.91,0.02347
2648.13,0.02351
2642.34,0.02335
2636.55,0.02319
2630.77,0.02273
2624.98,0.02286
2619.2,0.02259
2613.41,0.02359
2607.62,0.02329
2601.84,0.02313
2596.05,0.02330
2590.26,0.02339
2584.48,0.02338
2578.69,0.02314
2572.91,0.02350
2567.12,0.02294
2561.33,0.02328
2555.55,0.02328
2549.76,0.02295
2543.98,0.02324
2538.19,0.02346
2532.4,0.02315
2526.62,0.02321
2520.83,0.02300
2515.04,0.02298
2509.26,0.02285
2503.47,0.02315
2497.69,0.02363
2491.9,0.02343
2486.11,0.02322
2480.33,0.02312
2474.54,0.02326
2468.76,0.02303
2462.97,0.02276
2457.18,0.02319
2451.4,0.02321
2445.61,0.02297
2439.82,0.02328
2434.04,0.02332
2428.25,0.02374
2422.47,0.02310
2416.68,0.02321
2410.89,0.02332
2405.11,0.02307
2399.32,0.02327
2393.54,0.02340
2387.75,0.02302
2381.96,0.02329
2376.18,0.02409
2370.39,0.02331
2364.61,0.02214
2358.82,0.02248
2353.03,0.02422
2347.25,0.02417
2341.46,0.02359
2335.67,0.02166
2329.89,0.02348
2324.1,0.02202
2318.32,0.02333
2312.53,0.02377
2306.74,0.02357
2300.96,0.02340
2295.17,0.02342
2289.39,0.02312
2283.6,0.02308
2277.81,0.02362
2272.03,0.02317
2266.24,0.02306
2260.45,0.02305
2254.67,0.02322
2248.88,0.02288
2243.1,0.02313
2237.31,0.02320
2231.52,0.02309
2225.74,0.02313
2219.95,0.02323
2214.17,0.02341
2208.38,0.02299
2202.59,0.02309
2196.81,0.02298
2191.02,0.02291
2185.23,0.02275
2179.45,0.02291
2173.66,0.02267
2167.88,0.02303
2162.09,0.02261
2156.3,0.02317
2150.52,0.02276
2144.73,0.02301
2138.95,0.02292
2133.16,0.02262
2127.37,0.02309
2121.59,0.02264
2115.8,0.02319
2110.01,0.02318
2104.23,0.02292
2098.44,0.02289
2092.66,0.02257
2086.87,0.02284
2081.08,0.02299
2075.3,0.02310
2069.51,0.02244
2063.73,0.02279
2057.94,0.02262
2052.15,0.02277
2046.37,0.02257
2040.58,0.02289
2034.79,0.02297
2029.01,0.02295
2023.22,0.02306
2017.44,0.02262
2011.65,0.02282
2005.86,0.02288
2000.08,0.02286
1994.29,0.02280
1988.51,0.02300
1982.72,0.02288
1976.93,0.02251
1971.15,0.02303
1965.36,0.02273
1959.57,0.02259
1953.79,0.02258
1948,0.02319
1942.22,0.02295
1936.43,0.02272
1930.64,0.02263
1924.86,0.02283
1919.07,0.02288
1913.29,0.02274
1907.5,0.02291
1901.71,0.02289
1895.93,0.02280
1890.14,0.02242
1884.35,0.02231
1878.57,0.02234
1872.78,0.02227
1867,0.02191
1861.21,0.02224
1855.42,0.02224
1849.64,0.02242
1843.85,0.02181
1838.07,0.02215
1832.28,0.02233
1826.49,0.02225
1820.71,0.02191
1814.92,0.02203
1809.13,0.02173
1803.35,0.02144
1797.56,0.02197
1791.78,0.02164
1785.99,0.02142
1780.2,0.02106
1774.42,0.02136
1768.63,0.02036
1762.85,0.02055
1757.06,0.01991
1751.27,0.01911
1745.49,0.01937
1739.7,0.02050
1733.92,0.02190
1728.13,0.02154
1722.34,0.02224
1716.56,0.02238
1710.77,0.02213
1704.98,0.02225
1699.2,0.02189
1693.41,0.02089
1687.63,0.02049
1681.84,0.02006
1676.05,0.02053
1670.27,0.02025
1664.48,0.02075
1658.7,0.02049
1652.91,0.01987
1647.12,0.02038
1641.34,0.02067
1635.55,0.02011
1629.76,0.02065
1623.98,0.02065
1618.19,0.02078
1612.41,0.02069
1606.62,0.02073
1600.83,0.02067
1595.05,0.02061
1589.26,0.02053
1583.48,0.02043
1577.69,0.02029
1571.9,0.02059
1566.12,0.02026
1560.33,0.02048
1554.54,0.02007
1548.76,0.02047
1542.97,0.02081
1537.19,0.01948
1531.4,0.01991
1525.61,0.02059
1519.83,0.02016
1514.04,0.02014
1508.26,0.02114
1502.47,0.02051
1496.68,0.02115
1490.9,0.02133
1485.11,0.02066
1479.32,0.02065
1473.54,0.01991
1467.75,0.01996
1461.97,0.02030
1456.18,0.01947
1450.39,0.01993
1444.61,0.02020
1438.82,0.02072
1433.04,0.02038
1427.25,0.02024
1421.46,0.02072
1415.68,0.01934
1409.89,0.01967
1404.1,0.01976
1398.32,0.01984
1392.53,0.01965
1386.75,0.01980
1380.96,0.01964
1375.17,0.01934
1369.39,0.02001
1363.6,0.02002
1357.82,0.01939
1352.03,0.01991
1346.24,0.01947
1340.46,0.01923
1334.67,0.01910
1328.88,0.01899
1323.1,0.01902
1317.31,0.01857
1311.53,0.01839
1305.74,0.01876
1299.95,0.01907
1294.17,0.01917
1288.38,0.01978
1282.6,0.01996
1276.81,0.02079
1271.02,0.02084
1265.24,0.02160
1259.45,0.02118
1253.66,0.02193
1247.88,0.02169
1242.09,0.02148
1236.31,0.02137
1230.52,0.02098
1224.73,0.02095
1218.95,0.02069
1213.16,0.02062
1207.38,0.02031
1201.59,0.01977
1195.8,0.02004
1190.02,0.02027
1184.23,0.01975
1178.45,0.01925
1172.66,0.01935
1166.87,0.01946
1161.09,0.01924
1155.3,0.01920
1149.51,0.01880
1143.73,0.01881
1137.94,0.01990
1132.16,0.01955
1126.37,0.02005
1120.58,0.02025
1114.8,0.02059
1109.01,0.02035
1103.23,0.02029
1097.44,0.02008
1091.65,0.01979
1085.87,0.02029
1080.08,0.01993
1074.29,0.02081
1068.51,0.02177
1062.72,0.02153
1056.94,0.02123
1051.15,0.02089
1045.36,0.02132
1039.58,0.02138
1033.79,0.02124
1028.01,0.02099
1022.22,0.02104
1016.43,0.02129
1010.65,0.02135
1004.86,0.02222
999.075,0.02210
993.288,0.02269
987.502,0.02309
981.716,0.02243
975.93,0.02170
970.144,0.02219
964.358,0.02213
958.572,0.02208
952.785,0.02191
946.999,0.02230
941.213,0.02142
935.427,0.02075
929.641,0.02130
923.855,0.02132
918.068,0.02100
912.282,0.02143
906.496,0.02083
900.71,0.02059
894.924,0.02089
889.138,0.02059
883.352,0.02044
877.565,0.02097
871.779,0.01983
865.993,0.02029
860.207,0.02060
854.421,0.02053
848.635,0.02069
842.849,0.02051
837.062,0.02078
831.276,0.02063
825.49,0.02003
819.704,0.02009
813.918,0.02035
808.132,0.02017
802.346,0.01998
796.559,0.02043
790.773,0.01966
784.987,0.01967
779.201,0.01941
773.415,0.01949
767.629,0.01918
761.843,0.01908
756.056,0.01931
750.27,0.01926
744.484,0.01940
738.698,0.01940
732.912,0.01850
727.126,0.01838
721.34,0.01984
715.553,0.01981
709.767,0.01856
703.981,0.01766
698.195,0.01998
692.409,0.01810
686.623,0.01981
680.837,0.01933
675.05,0.01941
669.264,0.01870
663.478,0.01796
657.692,0.01840
651.906,0.01797
646.12,0.01890
640.333,0.01828
634.547,0.01665
628.761,0.01850
622.975,0.01911
617.189,0.01984
611.403,0.01571
605.617,0.01582
599.83,0.01600