File: 01_Data/PC/FTIR/IS/PC_IS_S_230508_R1.dpt
7496.92,0.12646
7491.13,0.12517
7485.34,0.12270
7479.56,0.12111
7473.77,0.12208
7467.99,0.11816
7462.2,0.12746
7456.41,0.12800
7450.63,0.12141
7444.84,0.12872
7439.06,0.10986
7433.27,0.12001
7427.48,0.12729
7421.7,0.11876
7415.91,0.12638
7410.12,0.11371
7404.34,0.12343
7398.55,0.10879
7392.77,0.11055
7386.98,0.11091
7381.19,0.10014
7375.41,0.11963
7369.62,0.11010
7363.84,0.11394
7358.05,0.12857
7352.26,0.10263
7346.48,0.10086
7340.69,0.09632
7334.9,0.10313
7329.12,0.09847
7323.33,0.10541
7317.55,0.10300
7311.76,0.10677
7305.97,0.09934
7300.19,0.10989
7294.4,0.12032
7288.62,0.09677
7282.83,0.10135
7277.04,0.09556
7271.26,0.10049
7265.47,0.09757
7259.68,0.09600
7253.9,0.09947
7248.11,0.10520
7242.33,0.10023
7236.54,0.10379
7230.75,0.10169
7224.97,0.09090
7219.18,0.10387
7213.4,0.09559
7207.61,0.09941
7201.82,0.10106
7196.04,0.10209
7190.25,0.08803
7184.46,0.09272
7178.68,0.10073
7172.89,0.10467
7167.11,0.10012
7161.32,0.09354
7155.53,0.09732
7149.75,0.09759
7143.96,0.09740
7138.18,0.09054
7132.39,0.09459
7126.6,0.10042
7120.82,0.09632
7115.03,0.09273
7109.24,0.10820
7103.46,0.09761
7097.67,0.09669
7091.89,0.09474
7086.1,0.10227
7080.31,0.09928
7074.53,0.10668
7068.74,0.11162
7062.96,0.10668
7057.17,0.11071
7051.38,0.11182
7045.6,0.11040
7039.81,0.10885
7034.02,0.11224
7028.24,0.11594
7022.45,0.11096
7016.67,0.11515
7010.88,0.11524
7005.09,0.11039
6999.31,0.09780
6993.52,0.10740
6987.74,0.11457
6981.95,0.11532
6976.16,0.10776
6970.38,0.10970
6964.59,0.11658
6958.8,0.11522
6953.02,0.11169
6947.23,0.11514
6941.45,0.11641
6935.66,0.10431
6929.87,0.11029
6924.09,0.11149
6918.3,0.12136
6912.52,0.11052
6906.73,0.11769
6900.94,0.11412
6895.16,0.11585
6889.37,0.11653
6883.59,0.11536
6877.8,0.11494
6872.01,0.10916
6866.23,0.11844
6860.44,0.11567
6854.65,0.11642
6848.87,0.11341
6843.08,0.11337
6837.3,0.11183
6831.51,0.10872
6825.72,0.11956
6819.94,0.11457
6814.15,0.11519
6808.37,0.11611
6802.58,0.12041
6796.79,0.11795
6791.01,0.11566
6785.22,0.11884
6779.43,0.11673
6773.65,0.11669
6767.86,0.11409
6762.08,0.11969
6756.29,0.11823
6750.5,0.12347
6744.72,0.12033
6738.93,0.11206
6733.15,0.12675
6727.36,0.12030
6721.57,0.12650
6715.79,0.12406
6710,0.11676
6704.21,0.12262
6698.43,0.12594
6692.64,0.12107
6686.86,0.11046
6681.07,0.12332
6675.28,0.12114
6669.5,0.12111
6663.71,0.12552
6657.93,0.12048
6652.14,0.12535
6646.35,0.12824
6640.57,0.12635
6634.78,0.12589
6628.99,0.12389
6623.21,0.12095
6617.42,0.12814
6611.64,0.12329
6605.85,0.13204
6600.06,0.12666
6594.28,0.12649
6588.49,0.12413
6582.71,0.12820
6576.92,0.13280
6571.13,0.12968
6565.35,0.12900
6559.56,0.13046
6553.77,0.13367
6547.99,0.13044
6542.2,0.12990
6536.42,0.13066
6530.63,0.12651
6524.84,0.13039
6519.06,0.12761
6513.27,0.13002
6507.49,0.12893
6501.7,0.13097
6495.91,0.12789
6490.13,0.12690
6484.34,0.13080
6478.55,0.12992
6472.77,0.13148
6466.98,0.13330
6461.2,0.13368
6455.41,0.13013
6449.62,0.13105
6443.84,0.12983
6438.05,0.12875
6432.27,0.12770
6426.48,0.13045
6420.69,0.12667
6414.91,0.12692
6409.12,0.12964
6403.33,0.12875
6397.55,0.12855
6391.76,0.13123
6385.98,0.13146
6380.19,0.12798
6374.4,0.12165
6368.62,0.13046
6362.83,0.12785
6357.05,0.12689
6351.26,0.12721
6345.47,0.12566
6339.69,0.12932
6333.9,0.12920
6328.12,0.12572
6322.33,0.12569
6316.54,0.12358
6310.76,0.12015
6304.97,0.12160
6299.18,0.12621
6293.4,0.12430
6287.61,0.12169
6281.83,0.12417
6276.04,0.12376
6270.25,0.11707
6264.47,0.11831
6258.68,0.11896
6252.9,0.11879
6247.11,0.11009
6241.32,0.11233
6235.54,0.11204
6229.75,0.11200
6223.96,0.11174
6218.18,0.10838
6212.39,0.10161
6206.61,0.10627
6200.82,0.10341
6195.03,0.09716
6189.25,0.09412
6183.46,0.08991
6177.68,0.08733
6171.89,0.08648
6166.1,0.08589
6160.32,0.08099
6154.53,0.08642
6148.74,0.08376
6142.96,0.07757
6137.17,0.07642
6131.39,0.07116
6125.6,0.07215
6119.81,0.06890
6114.03,0.06737
6108.24,0.06875
6102.46,0.06684
6096.67,0.06528
6090.88,0.06014
6085.1,0.06060
6079.31,0.06013
6073.52,0.05848
6067.74,0.05759
6061.95,0.06009
6056.17,0.05890
6050.38,0.05781
6044.59,0.05566
6038.81,0.05470
6033.02,0.05823
6027.24,0.05714
6021.45,0.05569
6015.66,0.05368
6009.88,0.05611
6004.09,0.05595
5998.3,0.05644
5992.52,0.05727
5986.73,0.05653
5980.95,0.05595
5975.16,0.05673
5969.37,0.05632
5963.59,0.05514
5957.8,0.05434
5952.02,0.05695
5946.23,0.05701
5940.44,0.05717
5934.66,0.05649
5928.87,0.05620
5923.08,0.05737
5917.3,0.05837
5911.51,0.05804
5905.73,0.05725
5899.94,0.05775
5894.15,0.05975
5888.37,0.05742
5882.58,0.05472
5876.8,0.05560
5871.01,0.05943
5865.22,0.05822
5859.44,0.05818
5853.65,0.06315
5847.86,0.06220
5842.08,0.06160
5836.29,0.06494
5830.51,0.06346
5824.72,0.06450
5818.93,0.06621
5813.15,0.06587
5807.36,0.06557
5801.58,0.06456
5795.79,0.06431
5790,0.06132
5784.22,0.05962
5778.43,0.06082
5772.65,0.06087
5766.86,0.06220
5761.07,0.06233
5755.29,0.06356
5749.5,0.06147
5743.71,0.06364
5737.93,0.06539
5732.14,0.06681
5726.36,0.07121
5720.57,0.07314
5714.78,0.07543
5709,0.07717
5703.21,0.08043
5697.43,0.07629
5691.64,0.07380
5685.85,0.07357
5680.07,0.07469
5674.28,0.07139
5668.49,0.07063
5662.71,0.07137
5656.92,0.06902
5651.14,0.07050
5645.35,0.07244
5639.56,0.07776
5633.78,0.07913
5627.99,0.08073
5622.21,0.08433
5616.42,0.08593
5610.63,0.08572
5604.85,0.09085
5599.06,0.08807
5593.27,0.08843
5587.49,0.08680
5581.7,0.08627
5575.92,0.08601
5570.13,0.08641
5564.34,0.08649
5558.56,0.08690
5552.77,0.08682
5546.99,0.08624
5541.2,0.08587
5535.41,0.08527
5529.63,0.08343
5523.84,0.08655
5518.05,0.08450
5512.27,0.08622
5506.48,0.08663
5500.7,0.08714
5494.91,0.08742
5489.12,0.08486
5483.34,0.08437
5477.55,0.08356
5471.77,0.08339
5465.98,0.08319
5460.19,0.08318
5454.41,0.08482
5448.62,0.08517
5442.83,0.08744
5437.05,0.08912
5431.26,0.08892
5425.48,0.08799
5419.69,0.08896
5413.9,0.08680
5408.12,0.08767
5402.33,0.08707
5396.55,0.08856
5390.76,0.08851
5384.97,0.08979
5379.19,0.08931
5373.4,0.08863
5367.61,0.08722
5361.83,0.08774
5356.04,0.08873
5350.26,0.08730
5344.47,0.08781
5338.68,0.08636
5332.9,0.08467
5327.11,0.08758
5321.33,0.08746
5315.54,0.08700
5309.75,0.08783
5303.97,0.08569
5298.18,0.08455
5292.39,0.08230
5286.61,0.07866
5280.82,0.07522
5275.04,0.07242
5269.25,0.06911
5263.46,0.06944
5257.68,0.06934
5251.89,0.07207
5246.11,0.07519
5240.32,0.07907
5234.53,0.08388
5228.75,0.08680
5222.96,0.09112
5217.18,0.09246
5211.39,0.09202
5205.6,0.09232
5199.82,0.09389
5194.03,0.09268
5188.24,0.09275
5182.46,0.09041
5176.67,0.09166
5170.89,0.09098
5165.1,0.09156
5159.31,0.09184
5153.53,0.09326
5147.74,0.09519
5141.96,0.09565
5136.17,0.09672
5130.38,0.09892
5124.6,0.09596
5118.81,0.09634
5113.02,0.09868
5107.24,0.09812
5101.45,0.09807
5095.67,0.09799
5089.88,0.09657
5084.09,0.09611
5078.31,0.09556
5072.52,0.09505
5066.74,0.09755
5060.95,0.09901
5055.16,0.09852
5049.38,0.09620
5043.59,0.09580
5037.8,0.09728
5032.02,0.09704
5026.23,0.09531
5020.45,0.09565
5014.66,0.09469
5008.87,0.09348
5003.09,0.09329
4997.3,0.09274
4991.52,0.09250
4985.73,0.09071
4979.94,0.08956
4974.16,0.09018
4968.37,0.09124
4962.58,0.08896
4956.8,0.09053
4951.01,0.08989
4945.23,0.08935
4939.44,0.08949
4933.65,0.08852
4927.87,0.08857
4922.08,0.08659
4916.3,0.08400
4910.51,0.08164
4904.72,0.07965
4898.94,0.07730
4893.15,0.07720
4887.36,0.07543
4881.58,0.07730
4875.79,0.07544
4870.01,0.07403
4864.22,0.07349
4858.43,0.07166
4852.65,0.07057
4846.86,0.07020
4841.08,0.07048
4835.29,0.07132
4829.5,0.07237
4823.72,0.07198
4817.93,0.07228
4812.14,0.07319
4806.36,0.07310
4800.57,0.07352
4794.79,0.07267
4789,0.07169
4783.21,0.07081
4777.43,0.06930
4771.64,0.06665
4765.86,0.06781
4760.07,0.06648
4754.28,0.06506
4748.5,0.06430
4742.71,0.06369
4736.92,0.06236
4731.14,0.06299
4725.35,0.06108
4719.57,0.06212
4713.78,0.06159
4707.99,0.06062
4702.21,0.06091
4696.42,0.06109
4690.64,0.06205
4684.85,0.06001
4679.06,0.06145
4673.28,0.06150
4667.49,0.06074
4661.7,0.06121
4655.92,0.06212
4650.13,0.06164
4644.35,0.06128
4638.56,0.06234
4632.77,0.06223
4626.99,0.06059
4621.2,0.06082
4615.42,0.06042
4609.63,0.06136
4603.84,0.06217
4598.06,0.06207
4592.27,0.06206
4586.49,0.06254
4580.7,0.06096
4574.91,0.06108
4569.13,0.06053
4563.34,0.06063
4557.55,0.06255
4551.77,0.06270
4545.98,0.06230
4540.2,0.06197
4534.41,0.06229
4528.62,0.06245
4522.84,0.06359
4517.05,0.06370
4511.27,0.06275
4505.48,0.06266
4499.69,0.06121
4493.91,0.06348
4488.12,0.06180
4482.33,0.06123
4476.55,0.06148
4470.76,0.06178
4464.98,0.06168
4459.19,0.06198
4453.4,0.06104
4447.62,0.06226
4441.83,0.06104
4436.05,0.06221
4430.26,0.06058
4424.47,0.06200
4418.69,0.06168
4412.9,0.06212
4407.11,0.06227
4401.33,0.06253
4395.54,0.06173
4389.76,0.06236
4383.97,0.06221
4378.18,0.06156
4372.4,0.06198
4366.61,0.06157
4360.83,0.06163
4355.04,0.06317
4349.25,0.06195
4343.47,0.06239
4337.68,0.06205
4331.89,0.06253
4326.11,0.06171
4320.32,0.06055
4314.54,0.06199
4308.75,0.06197
4302.96,0.06141
4297.18,0.06244
4291.39,0.06218
4285.61,0.06216
4279.82,0.06223
4274.03,0.06201
4268.25,0.06179
4262.46,0.06253
4256.67,0.06151
4250.89,0.06206
4245.1,0.06209
4239.32,0.06211
4233.53,0.06179
4227.74,0.06260
4221.96,0.06255
4216.17,0.06216
4210.39,0.06211
4204.6,0.06139
4198.81,0.06184
4193.03,0.06269
4187.24,0.06277
4181.45,0.06265
4175.67,0.06250
4169.88,0.06393
4164.1,0.06254
4158.31,0.06214
4152.52,0.06204
4146.74,0.06234
4140.95,0.06211
4135.17,0.06256
4129.38,0.06245
4123.59,0.06294
4117.81,0.06225
4112.02,0.06240
4106.23,0.06188
4100.45,0.06254
4094.66,0.06203
4088.88,0.06267
4083.09,0.06306
4077.3,0.06296
4071.52,0.06208
4065.73,0.06259
4059.95,0.06343
4054.16,0.06239
4048.37,0.06296
4042.59,0.06219
4036.8,0.06273
4031.02,0.06319
4025.23,0.06281
4019.44,0.06252
4013.66,0.06203
4007.87,0.06235
4002.08,0.06315
3996.3,0.06327
3990.51,0.06263
3984.73,0.06229
3978.94,0.06264
3973.15,0.06327
3967.37,0.06222
3961.58,0.06303
3955.8,0.06330
3950.01,0.06298
3944.22,0.06277
3938.44,0.06296
3932.65,0.06246
3926.86,0.06253
3921.08,0.06209
3915.29,0.06264
3909.51,0.06397
3903.72,0.06235
3897.93,0.06233
3892.15,0.06229
3886.36,0.06241
3880.58,0.06224
3874.79,0.06253
3869,0.06317
3863.22,0.06212
3857.43,0.06252
3851.64,0.06226
3845.86,0.06327
3840.07,0.06233
3834.29,0.06284
3828.5,0.06311
3822.71,0.06307
3816.93,0.06238
3811.14,0.06302
3805.36,0.06253
3799.57,0.06287
3793.78,0.06349
3788,0.06310
3782.21,0.06371
3776.42,0.06275
3770.64,0.06358
3764.85,0.06239
3759.07,0.06376
3753.28,0.06340
3747.49,0.06168
3741.71,0.06126
3735.92,0.06140
3730.14,0.06270
3724.35,0.06333
3718.56,0.06322
3712.78,0.06233
3706.99,0.06172
3701.2,0.06219
3695.42,0.06269
3689.63,0.06168
3683.85,0.06239
3678.06,0.06207
3672.27,0.06392
3666.49,0.06266
3660.7,0.06281
3654.92,0.06229
3649.13,0.06088
3643.34,0.06242
3637.56,0.06202
3631.77,0.06298
3625.98,0.06206
3620.2,0.06178
3614.41,0.06246
3608.63,0.06241
3602.84,0.06212
3597.05,0.06190
3591.27,0.06244
3585.48,0.06180
3579.7,0.06170
3573.91,0.06150
3568.12,0.06227
3562.34,0.06217
3556.55,0.06175
3550.76,0.06088
3544.98,0.06175
3539.19,0.06207
3533.41,0.06246
3527.62,0.06107
3521.83,0.06185
3516.05,0.06253
3510.26,0.06201
3504.48,0.06143
3498.69,0.06166
3492.9,0.06190
3487.12,0.06180
3481.33,0.06205
3475.55,0.06223
3469.76,0.06181
3463.97,0.06172
3458.19,0.06182
3452.4,0.06214
3446.61,0.06186
3440.83,0.06194
3435.04,0.06110
3429.26,0.06232
3423.47,0.06101
3417.68,0.06154
3411.9,0.06218
3406.11,0.06206
3400.33,0.06254
3394.54,0.06161
3388.75,0.06231
3382.97,0.06157
3377.18,0.06148
3371.39,0.06194
3365.61,0.06140
3359.82,0.06146
3354.04,0.06150
3348.25,0.06185
3342.46,0.06126
3336.68,0.06144
3330.89,0.06168
3325.11,0.06144
3319.32,0.06196
3313.53,0.06203
3307.75,0.06104
3301.96,0.06152
3296.17,0.06242
3290.39,0.06201
3284.6,0.06159
3278.82,0.06201
3273.03,0.06177
3267.24,0.06184
3261.46,0.06213
3255.67,0.06233
3249.89,0.06213
3244.1,0.06161
3238.31,0.06143
3232.53,0.06218
3226.74,0.06170
3220.95,0.06235
3215.17,0.06210
3209.38,0.06228
3203.6,0.06224
3197.81,0.06198
3192.02,0.06205
3186.24,0.06201
3180.45,0.06181
3174.67,0.06166
3168.88,0.06191
3163.09,0.06171
3157.31,0.06154
3151.52,0.06200
3145.73,0.06145
3139.95,0.06247
3134.16,0.06141
3128.38,0.06158
3122.59,0.06179
3116.8,0.06204
3111.02,0.06163
3105.23,0.06214
3099.45,0.06174
3093.66,0.06161
3087.87,0.06162
3082.09,0.06176
3076.3,0.06157
3070.51,0.06129
3064.73,0.06188
3058.94,0.06130
3053.16,0.06141
3047.37,0.06186
3041.58,0.06202
3035.8,0.06194
3030.01,0.06165
3024.23,0.06167
3018.44,0.06177
3012.65,0.06105
3006.87,0.06110
3001.08,0.06091
2995.29,0.06094
2989.51,0.06029
2983.72,0.06016
2977.94,0.06048
2972.15,0.06175
2966.36,0.06281
2960.58,0.06450
2954.79,0.06406
2949.01,0.06399
2943.22,0.06413
2937.43,0.06469
2931.65,0.06489
2925.86,0.06571
2920.08,0.06573
2914.29,0.06519
2908.5,0.06419
2902.72,0.06418
2896.93,0.06396
2891.14,0.06398
2885.36,0.06304
2879.57,0.06342
2873.79,0.06379
2868,0.06432
2862.21,0.06378
2856.43,0.06472
2850.64,0.06466
2844.86,0.06344
2839.07,0.06389
2833.28,0.06385
2827.5,0.06357
2821.71,0.06350
2815.92,0.06361
2810.14,0.06380
2804.35,0.06319
2798.57,0.06339
2792.78,0.06331
2786.99,0.06307
2781.21,0.06307
2775.42,0.06329
2769.64,0.06284
2763.85,0.06292
2758.06,0.06344
2752.28,0.06343
2746.49,0.06319
2740.7,0.06334
2734.92,0.06304
2729.13,0.06334
2723.35,0.06308
2717.56,0.06323
2711.77,0.06304
2705.99,0.06302
2700.2,0.06281
2694.42,0.06292
2688.63,0.06287
2682.84,0.06321
2677.06,0.06267
2671.27,0.06268
2665.48,0.06286
2659.7,0.06279
2653.91,0.06275
2648.13,0.06279
2642.34,0.06304
2636.55,0.06274
2630.77,0.06249
2624.98,0.06254
2619.2,0.06275
2613.41,0.06288
2607.62,0.06294
2601.84,0.06285
2596.05,0.06257
2590.26,0.06247
2584.48,0.06255
2578.69,0.06271
2572.91,0.06295
2567.12,0.06247
2561.33,0.06278
2555.55,0.06253
2549.76,0.06240
2543.98,0.06243
2538.19,0.06252
2532.4,0.06306
2526.62,0.06288
2520.83,0.06227
2515.04,0.06259
2509.26,0.06313
2503.47,0.06235
2497.69,0.06219
2491.9,0.06296
2486.11,0.06253
2480.33,0.06259
2474.54,0.06256
2468.76,0.06254
2462.97,0.06267
2457.18,0.06284
2451.4,0.06267
2445.61,0.06258
2439.82,0.06257
2434.04,0.06294
2428.25,0.06245
2422.47,0.06255
2416.68,0.06277
2410.89,0.06246
2405.11,0.06290
2399.32,0.06251
2393.54,0.06294
2387.75,0.06281
2381.96,0.06313
2376.18,0.06348
2370.39,0.06260
2364.61,0.06513
2358.82,0.06296
2353.03,0.06268
2347.25,0.06253
2341.46,0.06249
2335.67,0.06135
2329.89,0.06232
2324.1,0.06147
2318.32,0.06209
2312.53,0.06295
2306.74,0.06228
2300.96,0.06231
2295.17,0.06238
2289.39,0.06256
2283.6,0.06221
2277.81,0.06258
2272.03,0.06214
2266.24,0.06191
2260.45,0.06179
2254.67,0.06199
2248.88,0.06187
2243.1,0.06194
2237.31,0.06181
2231.52,0.06228
2225.74,0.06266
2219.95,0.06203
2214.17,0.06207
2208.38,0.06188
2202.59,0.06239
2196.81,0.06187
2191.02,0.06190
2185.23,0.06212
2179.45,0.06228
2173.66,0.06193
2167.88,0.06160
2162.09,0.06164
2156.3,0.06211
2150.52,0.06225
2144.73,0.06210
2138.95,0.06185
2133.16,0.06206
2127.37,0.06172
2121.59,0.06169
2115.8,0.06124
2110.01,0.06084
2104.23,0.06144
2098.44,0.06135
2092.66,0.06150
2086.87,0.06157
2081.08,0.06134
2075.3,0.06123
2069.51,0.06107
2063.73,0.06098
2057.94,0.06101
2052.15,0.06133
2046.37,0.06116
2040.58,0.06066
2034.79,0.06073
2029.01,0.06114
2023.22,0.06072
2017.44,0.06072
2011.65,0.06064
2005.86,0.06061
2000.08,0.06068
1994.29,0.06054
1988.51,0.06083
1982.72,0.06010
1976.93,0.06031
1971.15,0.06039
1965.36,0.06025
1959.57,0.06002
1953.79,0.05996
1948,0.05998
1942.22,0.05985
1936.43,0.05941
1930.64,0.05936
1924.86,0.05907
1919.07,0.05906
1913.29,0.05891
1907.5,0.05912
1901.71,0.05900
1895.93,0.05877
1890.14,0.05853
1884.35,0.05832
1878.57,0.05806
1872.78,0.05793
1867,0.05718
1861.21,0.05751
1855.42,0.05694
1849.64,0.05645
1843.85,0.05576
1838.07,0.05544
1832.28,0.05487
1826.49,0.05389
1820.71,0.05282
1814.92,0.05132
1809.13,0.04925
1803.35,0.04736
1797.56,0.04349
1791.78,0.04183
1785.99,0.04634
1780.2,0.05873
1774.42,0.07420
1768.63,0.08711
1762.85,0.08663
1757.06,0.07954
1751.27,0.07503
1745.49,0.07140
1739.7,0.06920
1733.92,0.06791
1728.13,0.06717
1722.34,0.06656
1716.56,0.06522
1710.77,0.06487
1704.98,0.06372
1699.2,0.06272
1693.41,0.06192
1687.63,0.06186
1681.84,0.06129
1676.05,0.06061
1670.27,0.06000
1664.48,0.06059
1658.7,0.06004
1652.91,0.05956
1647.12,0.05943
1641.34,0.06029
1635.55,0.05914
1629.76,0.05962
1623.98,0.05940
1618.19,0.05933
1612.41,0.05817
1606.62,0.05794
1600.83,0.05898
1595.05,0.05930
1589.26,0.05929
1583.48,0.05925
1577.69,0.05866
1571.9,0.05740
1566.12,0.05648
1560.33,0.05685
1554.54,0.05443
1548.76,0.05492
1542.97,0.05362
1537.19,0.05183
1531.4,0.05119
1525.61,0.04929
1519.83,0.04538
1514.04,0.04242
1508.26,0.04946
1502.47,0.07194
1496.68,0.07227
1490.9,0.06865
1485.11,0.06527
1479.32,0.06316
1473.54,0.06080
1467.75,0.06066
1461.97,0.06152
1456.18,0.05943
1450.39,0.05966
1444.61,0.05884
1438.82,0.05850
1433.04,0.05701
1427.25,0.05589
1421.46,0.05502
1415.68,0.05302
1409.89,0.05450
1404.1,0.05595
1398.32,0.05573
1392.53,0.05366
1386.75,0.05388
1380.96,0.05408
1375.17,0.05208
1369.39,0.05053
1363.6,0.05250
1357.82,0.05243
1352.03,0.05061
1346.24,0.04926
1340.46,0.04764
1334.67,0.04645
1328.88,0.04490
1323.1,0.04316
1317.31,0.04060
1311.53,0.03881
1305.74,0.03786
1299.95,0.03545
1294.17,0.03471
1288.38,0.03461
1282.6,0.03238
1276.81,0.02814
1271.02,0.02208
1265.24,0.02041
1259.45,0.03535
1253.66,0.06742
1247.88,0.09231
1242.09,0.10555
1236.31,0.11763
1230.52,0.13020
1224.73,0.13600
1218.95,0.12944
1213.16,0.10517
1207.38,0.07571
1201.59,0.08875
1195.8,0.14246
1190.02,0.16353
1184.23,0.13895
1178.45,0.11060
1172.66,0.08831
1166.87,0.10902
1161.09,0.15376
1155.3,0.13779
1149.51,0.12161
1143.73,0.11142
1137.94,0.10444
1132.16,0.09973
1126.37,0.09503
1120.58,0.09124
1114.8,0.08841
1109.01,0.08747
1103.23,0.08757
1097.44,0.08784
1091.65,0.08282
1085.87,0.07785
1080.08,0.09224
1074.29,0.09264
1068.51,0.08736
1062.72,0.08459
1056.94,0.08255
1051.15,0.08071
1045.36,0.07860
1039.58,0.07753
1033.79,0.07440
1028.01,0.06940
1022.22,0.06250
1016.43,0.07842
1010.65,0.09583
1004.86,0.09235
999.075,0.08939
993.288,0.08607
987.502,0.08472
981.716,0.08308
975.93,0.08140
970.144,0.08044
964.358,0.07867
958.572,0.07850
952.785,0.07843
946.999,0.07755
941.213,0.07692
935.427,0.07657
929.641,0.07579
923.855,0.07453
918.068,0.07419
912.282,0.07346
906.496,0.07318
900.71,0.07045
894.924,0.06865
889.138,0.07171
883.352,0.07496
877.565,0.07486
871.779,0.07256
865.993,0.07054
860.207,0.06772
854.421,0.06571
848.635,0.06552
842.849,0.06679
837.062,0.06852
831.276,0.07725
825.49,0.08396
819.704,0.08327
813.918,0.08477
808.132,0.08484
802.346,0.08300
796.559,0.07946
790.773,0.07696
784.987,0.07419
779.201,0.07388
773.415,0.07413
767.629,0.07704
761.843,0.07925
756.056,0.08043
750.27,0.08053
744.484,0.07847
738.698,0.07778
732.912,0.07668
727.126,0.07716
721.34,0.07741
715.553,0.07545
709.767,0.07619
703.981,0.07698
698.195,0.07660
692.409,0.07520
686.623,0.07681
680.837,0.07631
675.05,0.07481
669.264,0.07447
663.478,0.07395
657.692,0.07539
651.906,0.07457
646.12,0.07124
640.333,0.07069
634.547,0.07176
628.761,0.07181
622.975,0.07034
617.189,0.06944
611.403,0.06854
605.617,0.06790
599.83,0.06854