File: 01_Data/PC/FTIR/IS/PC_IS_T_230508_R6.dpt
7496.92,0.01978
7491.13,0.03496
7485.34,0.02014
7479.56,0.02263
7473.77,0.02854
7467.99,0.03055
7462.2,0.01024
7456.41,0.02281
7450.63,0.02974
7444.84,0.03341
7439.06,0.01701
7433.27,0.02309
7427.48,0.02050
7421.7,0.03975
7415.91,0.03097
7410.12,0.02839
7404.34,0.02232
7398.55,0.02365
7392.77,0.03316
7386.98,0.02803
7381.19,0.01798
7375.41,0.01811
7369.62,0.04058
7363.84,0.02334
7358.05,0.03234
7352.26,0.03066
7346.48,0.01530
7340.69,0.03207
7334.9,0.03045
7329.12,0.02883
7323.33,0.02396
7317.55,0.02624
7311.76,0.02205
7305.97,0.02436
7300.19,0.01905
7294.4,0.02791
7288.62,0.02236
7282.83,0.03038
7277.04,0.02919
7271.26,0.02632
7265.47,0.03258
7259.68,0.02384
7253.9,0.02919
7248.11,0.02917
7242.33,0.02751
7236.54,0.02345
7230.75,0.02142
7224.97,0.03131
7219.18,0.02771
7213.4,0.02492
7207.61,0.02805
7201.82,0.02255
7196.04,0.02755
7190.25,0.01752
7184.46,0.02272
7178.68,0.03211
7172.89,0.02563
7167.11,0.02079
7161.32,0.02695
7155.53,0.03576
7149.75,0.02710
7143.96,0.01629
7138.18,0.02515
7132.39,0.02342
7126.6,0.02913
7120.82,0.02470
7115.03,0.02811
7109.24,0.02666
7103.46,0.02905
7097.67,0.03191
7091.89,0.02714
7086.1,0.03000
7080.31,0.02516
7074.53,0.01941
7068.74,0.02060
7062.96,0.02533
7057.17,0.02670
7051.38,0.02259
7045.6,0.02323
7039.81,0.02989
7034.02,0.02552
7028.24,0.01787
7022.45,0.03271
7016.67,0.02733
7010.88,0.03077
7005.09,0.01778
6999.31,0.01549
6993.52,0.01961
6987.74,0.02202
6981.95,0.02165
6976.16,0.01992
6970.38,0.03106
6964.59,0.02827
6958.8,0.02083
6953.02,0.02418
6947.23,0.02707
6941.45,0.01700
6935.66,0.02124
6929.87,0.02371
6924.09,0.02844
6918.3,0.02605
6912.52,0.02477
6906.73,0.03015
6900.94,0.02261
6895.16,0.02384
6889.37,0.02911
6883.59,0.02836
6877.8,0.02645
6872.01,0.02077
6866.23,0.02702
6860.44,0.03341
6854.65,0.02034
6848.87,0.02315
6843.08,0.02038
6837.3,0.01947
6831.51,0.02527
6825.72,0.02229
6819.94,0.02525
6814.15,0.02095
6808.37,0.02374
6802.58,0.02490
6796.79,0.02123
6791.01,0.01944
6785.22,0.02605
6779.43,0.02702
6773.65,0.02541
6767.86,0.01923
6762.08,0.01831
6756.29,0.02398
6750.5,0.02685
6744.72,0.02328
6738.93,0.02666
6733.15,0.02948
6727.36,0.02752
6721.57,0.02844
6715.79,0.02315
6710,0.02089
6704.21,0.02434
6698.43,0.02111
6692.64,0.01531
6686.86,0.02423
6681.07,0.02611
6675.28,0.02500
6669.5,0.02735
6663.71,0.02843
6657.93,0.02583
6652.14,0.02491
6646.35,0.02231
6640.57,0.02414
6634.78,0.02546
6628.99,0.02132
6623.21,0.02248
6617.42,0.02592
6611.64,0.03200
6605.85,0.02292
6600.06,0.02050
6594.28,0.02277
6588.49,0.02570
6582.71,0.02449
6576.92,0.02258
6571.13,0.01901
6565.35,0.02503
6559.56,0.02127
6553.77,0.02536
6547.99,0.01890
6542.2,0.03163
6536.42,0.01785
6530.63,0.02693
6524.84,0.02392
6519.06,0.02375
6513.27,0.02393
6507.49,0.02910
6501.7,0.03021
6495.91,0.02427
6490.13,0.02776
6484.34,0.02603
6478.55,0.02326
6472.77,0.02189
6466.98,0.02444
6461.2,0.02659
6455.41,0.02330
6449.62,0.02622
6443.84,0.02441
6438.05,0.02098
6432.27,0.02447
6426.48,0.02004
6420.69,0.01722
6414.91,0.02128
6409.12,0.02409
6403.33,0.02437
6397.55,0.02153
6391.76,0.02516
6385.98,0.02449
6380.19,0.02730
6374.4,0.02234
6368.62,0.02463
6362.83,0.02179
6357.05,0.02096
6351.26,0.02512
6345.47,0.02291
6339.69,0.02192
6333.9,0.02581
6328.12,0.02117
6322.33,0.01588
6316.54,0.02350
6310.76,0.02522
6304.97,0.02291
6299.18,0.02622
6293.4,0.02457
6287.61,0.02636
6281.83,0.02398
6276.04,0.02697
6270.25,0.02311
6264.47,0.01869
6258.68,0.02065
6252.9,0.02455
6247.11,0.02557
6241.32,0.02493
6235.54,0.02275
6229.75,0.02305
6223.96,0.02336
6218.18,0.02455
6212.39,0.02511
6206.61,0.02175
6200.82,0.02416
6195.03,0.02455
6189.25,0.02638
6183.46,0.02411
6177.68,0.02552
6171.89,0.02365
6166.1,0.02384
6160.32,0.01911
6154.53,0.02347
6148.74,0.02548
6142.96,0.02691
6137.17,0.02506
6131.39,0.02365
6125.6,0.01876
6119.81,0.02620
6114.03,0.02349
6108.24,0.02522
6102.46,0.02390
6096.67,0.02278
6090.88,0.02144
6085.1,0.02876
6079.31,0.02003
6073.52,0.02132
6067.74,0.02183
6061.95,0.02117
6056.17,0.02226
6050.38,0.02342
6044.59,0.02475
6038.81,0.02195
6033.02,0.02312
6027.24,0.02085
6021.45,0.02469
6015.66,0.02426
6009.88,0.02100
6004.09,0.02337
5998.3,0.02216
5992.52,0.02498
5986.73,0.02084
5980.95,0.02157
5975.16,0.02275
5969.37,0.02248
5963.59,0.02320
5957.8,0.02390
5952.02,0.02607
5946.23,0.02382
5940.44,0.02359
5934.66,0.02312
5928.87,0.02492
5923.08,0.02372
5917.3,0.01979
5911.51,0.02647
5905.73,0.02071
5899.94,0.02531
5894.15,0.02371
5888.37,0.02249
5882.58,0.02067
5876.8,0.02536
5871.01,0.02159
5865.22,0.02327
5859.44,0.02276
5853.65,0.02431
5847.86,0.02374
5842.08,0.02230
5836.29,0.02276
5830.51,0.02098
5824.72,0.02132
5818.93,0.02134
5813.15,0.02497
5807.36,0.02488
5801.58,0.02230
5795.79,0.02292
5790,0.02649
5784.22,0.02229
5778.43,0.02247
5772.65,0.02434
5766.86,0.02188
5761.07,0.02284
5755.29,0.02478
5749.5,0.02382
5743.71,0.02222
5737.93,0.02210
5732.14,0.02207
5726.36,0.02109
5720.57,0.02212
5714.78,0.02225
5709,0.02249
5703.21,0.02347
5697.43,0.02215
5691.64,0.02554
5685.85,0.02208
5680.07,0.02190
5674.28,0.02311
5668.49,0.02575
5662.71,0.02315
5656.92,0.02328
5651.14,0.02282
5645.35,0.02558
5639.56,0.02173
5633.78,0.02260
5627.99,0.02379
5622.21,0.02453
5616.42,0.02573
5610.63,0.02471
5604.85,0.02207
5599.06,0.02184
5593.27,0.02101
5587.49,0.02288
5581.7,0.02501
5575.92,0.02387
5570.13,0.02384
5564.34,0.02380
5558.56,0.02251
5552.77,0.02320
5546.99,0.02268
5541.2,0.02393
5535.41,0.02315
5529.63,0.02326
5523.84,0.02227
5518.05,0.02381
5512.27,0.02337
5506.48,0.02235
5500.7,0.02543
5494.91,0.02490
5489.12,0.02703
5483.34,0.02465
5477.55,0.02440
5471.77,0.02249
5465.98,0.02117
5460.19,0.02220
5454.41,0.02203
5448.62,0.02362
5442.83,0.02280
5437.05,0.02201
5431.26,0.02364
5425.48,0.02364
5419.69,0.02443
5413.9,0.02504
5408.12,0.02224
5402.33,0.02328
5396.55,0.02407
5390.76,0.02281
5384.97,0.02185
5379.19,0.02174
5373.4,0.02523
5367.61,0.02437
5361.83,0.02356
5356.04,0.02398
5350.26,0.02545
5344.47,0.02285
5338.68,0.02461
5332.9,0.02385
5327.11,0.02499
5321.33,0.02644
5315.54,0.02286
5309.75,0.02478
5303.97,0.02336
5298.18,0.02403
5292.39,0.02429
5286.61,0.02358
5280.82,0.02351
5275.04,0.02258
5269.25,0.02320
5263.46,0.02409
5257.68,0.02394
5251.89,0.02427
5246.11,0.02214
5240.32,0.02385
5234.53,0.02415
5228.75,0.02334
5222.96,0.02286
5217.18,0.02415
5211.39,0.02250
5205.6,0.02384
5199.82,0.02186
5194.03,0.02342
5188.24,0.02289
5182.46,0.02336
5176.67,0.02478
5170.89,0.02471
5165.1,0.02390
5159.31,0.02422
5153.53,0.02344
5147.74,0.02529
5141.96,0.02537
5136.17,0.02344
5130.38,0.02361
5124.6,0.02329
5118.81,0.02368
5113.02,0.02454
5107.24,0.02344
5101.45,0.02430
5095.67,0.02377
5089.88,0.02423
5084.09,0.02215
5078.31,0.02233
5072.52,0.02353
5066.74,0.02385
5060.95,0.02445
5055.16,0.02346
5049.38,0.02449
5043.59,0.02401
5037.8,0.02473
5032.02,0.02562
5026.23,0.02349
5020.45,0.02356
5014.66,0.02382
5008.87,0.02540
5003.09,0.02367
4997.3,0.02353
4991.52,0.02244
4985.73,0.02415
4979.94,0.02529
4974.16,0.02431
4968.37,0.02304
4962.58,0.02263
4956.8,0.02400
4951.01,0.02281
4945.23,0.02373
4939.44,0.02372
4933.65,0.02363
4927.87,0.02395
4922.08,0.02519
4916.3,0.02343
4910.51,0.02481
4904.72,0.02327
4898.94,0.02359
4893.15,0.02389
4887.36,0.02487
4881.58,0.02399
4875.79,0.02278
4870.01,0.02311
4864.22,0.02412
4858.43,0.02404
4852.65,0.02444
4846.86,0.02247
4841.08,0.02420
4835.29,0.02392
4829.5,0.02389
4823.72,0.02463
4817.93,0.02281
4812.14,0.02296
4806.36,0.02492
4800.57,0.02435
4794.79,0.02486
4789,0.02397
4783.21,0.02474
4777.43,0.02393
4771.64,0.02273
4765.86,0.02334
4760.07,0.02359
4754.28,0.02358
4748.5,0.02440
4742.71,0.02434
4736.92,0.02368
4731.14,0.02426
4725.35,0.02542
4719.57,0.02354
4713.78,0.02327
4707.99,0.02368
4702.21,0.02490
4696.42,0.02477
4690.64,0.02385
4684.85,0.02353
4679.06,0.02356
4673.28,0.02450
4667.49,0.02418
4661.7,0.02368
4655.92,0.02457
4650.13,0.02425
4644.35,0.02469
4638.56,0.02383
4632.77,0.02514
4626.99,0.02416
4621.2,0.02303
4615.42,0.02435
4609.63,0.02464
4603.84,0.02389
4598.06,0.02526
4592.27,0.02433
4586.49,0.02438
4580.7,0.02457
4574.91,0.02439
4569.13,0.02436
4563.34,0.02437
4557.55,0.02401
4551.77,0.02402
4545.98,0.02342
4540.2,0.02416
4534.41,0.02445
4528.62,0.02422
4522.84,0.02368
4517.05,0.02420
4511.27,0.02386
4505.48,0.02398
4499.69,0.02405
4493.91,0.02440
4488.12,0.02347
4482.33,0.02321
4476.55,0.02418
4470.76,0.02416
4464.98,0.02419
4459.19,0.02415
4453.4,0.02388
4447.62,0.02437
4441.83,0.02416
4436.05,0.02467
4430.26,0.02448
4424.47,0.02315
4418.69,0.02397
4412.9,0.02405
4407.11,0.02451
4401.33,0.02428
4395.54,0.02395
4389.76,0.02337
4383.97,0.02447
4378.18,0.02454
4372.4,0.02372
4366.61,0.02358
4360.83,0.02395
4355.04,0.02329
4349.25,0.02503
4343.47,0.02440
4337.68,0.02356
4331.89,0.02472
4326.11,0.02484
4320.32,0.02471
4314.54,0.02391
4308.75,0.02383
4302.96,0.02491
4297.18,0.02450
4291.39,0.02422
4285.61,0.02342
4279.82,0.02458
4274.03,0.02393
4268.25,0.02444
4262.46,0.02496
4256.67,0.02467
4250.89,0.02471
4245.1,0.02491
4239.32,0.02405
4233.53,0.02502
4227.74,0.02465
4221.96,0.02436
4216.17,0.02366
4210.39,0.02412
4204.6,0.02415
4198.81,0.02458
4193.03,0.02435
4187.24,0.02485
4181.45,0.02424
4175.67,0.02364
4169.88,0.02402
4164.1,0.02429
4158.31,0.02501
4152.52,0.02503
4146.74,0.02405
4140.95,0.02491
4135.17,0.02485
4129.38,0.02429
4123.59,0.02500
4117.81,0.02485
4112.02,0.02481
4106.23,0.02487
4100.45,0.02479
4094.66,0.02448
4088.88,0.02452
4083.09,0.02441
4077.3,0.02448
4071.52,0.02507
4065.73,0.02391
4059.95,0.02442
4054.16,0.02473
4048.37,0.02437
4042.59,0.02359
4036.8,0.02465
4031.02,0.02428
4025.23,0.02404
4019.44,0.02439
4013.66,0.02449
4007.87,0.02475
4002.08,0.02433
3996.3,0.02474
3990.51,0.02465
3984.73,0.02488
3978.94,0.02455
3973.15,0.02448
3967.37,0.02439
3961.58,0.02399
3955.8,0.02417
3950.01,0.02389
3944.22,0.02392
3938.44,0.02542
3932.65,0.02463
3926.86,0.02437
3921.08,0.02460
3915.29,0.02518
3909.51,0.02460
3903.72,0.02359
3897.93,0.02431
3892.15,0.02448
3886.36,0.02492
3880.58,0.02510
3874.79,0.02490
3869,0.02394
3863.22,0.02270
3857.43,0.02624
3851.64,0.02359
3845.86,0.02439
3840.07,0.02422
3834.29,0.02404
3828.5,0.02513
3822.71,0.02446
3816.93,0.02395
3811.14,0.02484
3805.36,0.02523
3799.57,0.02398
3793.78,0.02476
3788,0.02486
3782.21,0.02487
3776.42,0.02466
3770.64,0.02426
3764.85,0.02480
3759.07,0.02479
3753.28,0.02442
3747.49,0.02271
3741.71,0.02450
3735.92,0.02242
3730.14,0.02402
3724.35,0.02418
3718.56,0.02391
3712.78,0.02387
3706.99,0.02432
3701.2,0.02434
3695.42,0.02351
3689.63,0.02309
3683.85,0.02462
3678.06,0.02418
3672.27,0.02438
3666.49,0.02331
3660.7,0.02401
3654.92,0.02421
3649.13,0.02285
3643.34,0.02300
3637.56,0.02349
3631.77,0.02292
3625.98,0.02321
3620.2,0.02310
3614.41,0.02373
3608.63,0.02438
3602.84,0.02387
3597.05,0.02364
3591.27,0.02349
3585.48,0.02219
3579.7,0.02301
3573.91,0.02357
3568.12,0.02329
3562.34,0.02221
3556.55,0.02189
3550.76,0.02253
3544.98,0.02107
3539.19,0.02271
3533.41,0.02289
3527.62,0.02226
3521.83,0.02190
3516.05,0.02262
3510.26,0.02222
3504.48,0.02328
3498.69,0.02281
3492.9,0.02209
3487.12,0.02209
3481.33,0.02266
3475.55,0.02217
3469.76,0.02181
3463.97,0.02205
3458.19,0.02250
3452.4,0.02317
3446.61,0.02188
3440.83,0.02114
3435.04,0.02195
3429.26,0.02251
3423.47,0.02170
3417.68,0.02267
3411.9,0.02167
3406.11,0.02158
3400.33,0.02197
3394.54,0.02183
3388.75,0.02201
3382.97,0.02239
3377.18,0.02250
3371.39,0.02221
3365.61,0.02249
3359.82,0.02180
3354.04,0.02251
3348.25,0.02236
3342.46,0.02217
3336.68,0.02265
3330.89,0.02143
3325.11,0.02213
3319.32,0.02254
3313.53,0.02172
3307.75,0.02233
3301.96,0.02162
3296.17,0.02160
3290.39,0.02164
3284.6,0.02181
3278.82,0.02159
3273.03,0.02264
3267.24,0.02268
3261.46,0.02299
3255.67,0.02277
3249.89,0.02261
3244.1,0.02286
3238.31,0.02220
3232.53,0.02242
3226.74,0.02336
3220.95,0.02256
3215.17,0.02304
3209.38,0.02211
3203.6,0.02286
3197.81,0.02203
3192.02,0.02269
3186.24,0.02203
3180.45,0.02274
3174.67,0.02321
3168.88,0.02324
3163.09,0.02313
3157.31,0.02342
3151.52,0.02279
3145.73,0.02319
3139.95,0.02261
3134.16,0.02289
3128.38,0.02316
3122.59,0.02272
3116.8,0.02226
3111.02,0.02257
3105.23,0.02346
3099.45,0.02253
3093.66,0.02308
3087.87,0.02278
3082.09,0.02257
3076.3,0.02295
3070.51,0.02317
3064.73,0.02307
3058.94,0.02266
3053.16,0.02300
3047.37,0.02300
3041.58,0.02222
3035.8,0.02226
3030.01,0.02285
3024.23,0.02312
3018.44,0.02340
3012.65,0.02278
3006.87,0.02274
3001.08,0.02312
2995.29,0.02283
2989.51,0.02197
2983.72,0.02209
2977.94,0.02239
2972.15,0.02215
2966.36,0.02168
2960.58,0.02132
2954.79,0.02197
2949.01,0.02159
2943.22,0.02200
2937.43,0.02225
2931.65,0.02227
2925.86,0.02146
2920.08,0.02307
2914.29,0.02258
2908.5,0.02248
2902.72,0.02243
2896.93,0.02292
2891.14,0.02252
2885.36,0.02272
2879.57,0.02270
2873.79,0.02249
2868,0.02276
2862.21,0.02274
2856.43,0.02264
2850.64,0.02248
2844.86,0.02351
2839.07,0.02356
2833.28,0.02358
2827.5,0.02385
2821.71,0.02372
2815.92,0.02325
2810.14,0.02316
2804.35,0.02386
2798.57,0.02384
2792.78,0.02371
2786.99,0.02353
2781.21,0.02329
2775.42,0.02353
2769.64,0.02350
2763.85,0.02338
2758.06,0.02387
2752.28,0.02351
2746.49,0.02329
2740.7,0.02377
2734.92,0.02409
2729.13,0.02339
2723.35,0.02313
2717.56,0.02383
2711.77,0.02329
2705.99,0.02355
2700.2,0.02379
2694.42,0.02391
2688.63,0.02373
2682.84,0.02352
2677.06,0.02338
2671.27,0.02346
2665.48,0.02373
2659.7,0.02386
2653.91,0.02387
2648.13,0.02341
2642.34,0.02374
2636.55,0.02358
2630.77,0.02392
2624.98,0.02371
2619.2,0.02342
2613.41,0.02372
2607.62,0.02393
2601.84,0.02358
2596.05,0.02406
2590.26,0.02380
2584.48,0.02341
2578.69,0.02375
2572.91,0.02363
2567.12,0.02395
2561.33,0.02397
2555.55,0.02378
2549.76,0.02379
2543.98,0.02353
2538.19,0.02390
2532.4,0.02344
2526.62,0.02354
2520.83,0.02358
2515.04,0.02377
2509.26,0.02373
2503.47,0.02357
2497.69,0.02408
2491.9,0.02410
2486.11,0.02346
2480.33,0.02375
2474.54,0.02364
2468.76,0.02362
2462.97,0.02375
2457.18,0.02374
2451.4,0.02373
2445.61,0.02396
2439.82,0.02371
2434.04,0.02383
2428.25,0.02370
2422.47,0.02402
2416.68,0.02385
2410.89,0.02379
2405.11,0.02366
2399.32,0.02356
2393.54,0.02342
2387.75,0.02344
2381.96,0.02403
2376.18,0.02412
2370.39,0.02424
2364.61,0.02349
2358.82,0.02325
2353.03,0.02479
2347.25,0.02504
2341.46,0.02483
2335.67,0.02301
2329.89,0.02502
2324.1,0.02192
2318.32,0.02292
2312.53,0.02318
2306.74,0.02358
2300.96,0.02412
2295.17,0.02363
2289.39,0.02313
2283.6,0.02329
2277.81,0.02339
2272.03,0.02366
2266.24,0.02382
2260.45,0.02348
2254.67,0.02375
2248.88,0.02369
2243.1,0.02379
2237.31,0.02355
2231.52,0.02335
2225.74,0.02354
2219.95,0.02343
2214.17,0.02361
2208.38,0.02334
2202.59,0.02298
2196.81,0.02367
2191.02,0.02332
2185.23,0.02348
2179.45,0.02347
2173.66,0.02335
2167.88,0.02345
2162.09,0.02338
2156.3,0.02332
2150.52,0.02298
2144.73,0.02348
2138.95,0.02338
2133.16,0.02318
2127.37,0.02338
2121.59,0.02312
2115.8,0.02356
2110.01,0.02322
2104.23,0.02352
2098.44,0.02317
2092.66,0.02327
2086.87,0.02353
2081.08,0.02349
2075.3,0.02351
2069.51,0.02345
2063.73,0.02313
2057.94,0.02354
2052.15,0.02352
2046.37,0.02357
2040.58,0.02342
2034.79,0.02291
2029.01,0.02322
2023.22,0.02335
2017.44,0.02315
2011.65,0.02299
2005.86,0.02332
2000.08,0.02309
1994.29,0.02338
1988.51,0.02347
1982.72,0.02314
1976.93,0.02325
1971.15,0.02319
1965.36,0.02323
1959.57,0.02321
1953.79,0.02306
1948,0.02317
1942.22,0.02316
1936.43,0.02320
1930.64,0.02317
1924.86,0.02312
1919.07,0.02310
1913.29,0.02313
1907.5,0.02308
1901.71,0.02273
1895.93,0.02317
1890.14,0.02336
1884.35,0.02286
1878.57,0.02284
1872.78,0.02327
1867,0.02359
1861.21,0.02312
1855.42,0.02291
1849.64,0.02271
1843.85,0.02318
1838.07,0.02252
1832.28,0.02276
1826.49,0.02295
1820.71,0.02267
1814.92,0.02244
1809.13,0.02214
1803.35,0.02203
1797.56,0.02215
1791.78,0.02169
1785.99,0.02121
1780.2,0.02167
1774.42,0.02226
1768.63,0.02123
1762.85,0.02055
1757.06,0.02038
1751.27,0.02007
1745.49,0.01985
1739.7,0.02011
1733.92,0.02119
1728.13,0.02227
1722.34,0.02299
1716.56,0.02244
1710.77,0.02246
1704.98,0.02205
1699.2,0.02101
1693.41,0.02084
1687.63,0.02097
1681.84,0.02094
1676.05,0.02119
1670.27,0.02143
1664.48,0.02092
1658.7,0.02094
1652.91,0.02014
1647.12,0.01991
1641.34,0.02089
1635.55,0.02016
1629.76,0.02100
1623.98,0.02113
1618.19,0.02124
1612.41,0.02145
1606.62,0.02103
1600.83,0.02090
1595.05,0.02103
1589.26,0.02101
1583.48,0.02067
1577.69,0.02075
1571.9,0.02151
1566.12,0.02103
1560.33,0.02139
1554.54,0.02016
1548.76,0.02082
1542.97,0.02034
1537.19,0.01947
1531.4,0.02056
1525.61,0.02112
1519.83,0.02021
1514.04,0.02022
1508.26,0.02014
1502.47,0.02066
1496.68,0.02063
1490.9,0.02092
1485.11,0.02094
1479.32,0.02078
1473.54,0.01974
1467.75,0.02041
1461.97,0.02048
1456.18,0.02031
1450.39,0.02114
1444.61,0.02049
1438.82,0.02079
1433.04,0.02070
1427.25,0.02053
1421.46,0.02101
1415.68,0.02059
1409.89,0.02007
1404.1,0.01971
1398.32,0.02010
1392.53,0.02038
1386.75,0.02006
1380.96,0.01976
1375.17,0.01966
1369.39,0.02025
1363.6,0.02017
1357.82,0.01994
1352.03,0.02003
1346.24,0.01978
1340.46,0.01975
1334.67,0.01908
1328.88,0.01925
1323.1,0.01885
1317.31,0.01878
1311.53,0.01863
1305.74,0.01876
1299.95,0.01904
1294.17,0.01952
1288.38,0.01994
1282.6,0.02029
1276.81,0.02080
1271.02,0.02128
1265.24,0.02183
1259.45,0.02190
1253.66,0.02192
1247.88,0.02217
1242.09,0.02232
1236.31,0.02180
1230.52,0.02142
1224.73,0.02124
1218.95,0.02072
1213.16,0.02108
1207.38,0.02067
1201.59,0.02093
1195.8,0.02064
1190.02,0.02035
1184.23,0.02006
1178.45,0.02007
1172.66,0.01937
1166.87,0.01958
1161.09,0.01979
1155.3,0.01967
1149.51,0.01908
1143.73,0.01919
1137.94,0.01979
1132.16,0.01974
1126.37,0.02068
1120.58,0.02073
1114.8,0.02072
1109.01,0.02064
1103.23,0.01957
1097.44,0.01973
1091.65,0.02019
1085.87,0.01986
1080.08,0.02005
1074.29,0.02125
1068.51,0.02218
1062.72,0.02127
1056.94,0.02146
1051.15,0.02136
1045.36,0.02215
1039.58,0.02164
1033.79,0.02167
1028.01,0.02079
1022.22,0.02081
1016.43,0.02120
1010.65,0.02216
1004.86,0.02286
999.075,0.02297
993.288,0.02297
987.502,0.02255
981.716,0.02258
975.93,0.02242
970.144,0.02199
964.358,0.02212
958.572,0.02176
952.785,0.02212
946.999,0.02176
941.213,0.02180
935.427,0.02148
929.641,0.02176
923.855,0.02110
918.068,0.02178
912.282,0.02119
906.496,0.02140
900.71,0.02143
894.924,0.02167
889.138,0.02154
883.352,0.02105
877.565,0.02083
871.779,0.02154
865.993,0.02098
860.207,0.02037
854.421,0.02066
848.635,0.02115
842.849,0.02098
837.062,0.02062
831.276,0.02081
825.49,0.02024
819.704,0.01974
813.918,0.02049
808.132,0.01911
802.346,0.02018
796.559,0.01980
790.773,0.02033
784.987,0.02033
779.201,0.02096
773.415,0.02021
767.629,0.01986
761.843,0.01952
756.056,0.01958
750.27,0.01898
744.484,0.02022
738.698,0.02012
732.912,0.01994
727.126,0.01944
721.34,0.01936
715.553,0.01905
709.767,0.01940
703.981,0.01963
698.195,0.01837
692.409,0.02026
686.623,0.01867
680.837,0.01959
675.05,0.01999
669.264,0.01768
663.478,0.01924
657.692,0.01829
651.906,0.01800
646.12,0.01839
640.333,0.01977
634.547,0.01802
628.761,0.01738
622.975,0.01611
617.189,0.01578
611.403,0.01682
605.617,0.01684
599.83,0.01574