File: 01_Data/PC/FTIR/IS/PC_IS_S_230508_R4.dpt
7496.92,0.13100
7491.13,0.14014
7485.34,0.12496
7479.56,0.12851
7473.77,0.13516
7467.99,0.13618
7462.2,0.12137
7456.41,0.13126
7450.63,0.12082
7444.84,0.12738
7439.06,0.13372
7433.27,0.12066
7427.48,0.13040
7421.7,0.12081
7415.91,0.13268
7410.12,0.11230
7404.34,0.11202
7398.55,0.10321
7392.77,0.10591
7386.98,0.11031
7381.19,0.12226
7375.41,0.12185
7369.62,0.11671
7363.84,0.10757
7358.05,0.11157
7352.26,0.10322
7346.48,0.10262
7340.69,0.11255
7334.9,0.10997
7329.12,0.11221
7323.33,0.10775
7317.55,0.09874
7311.76,0.10283
7305.97,0.10118
7300.19,0.09461
7294.4,0.10510
7288.62,0.10056
7282.83,0.09780
7277.04,0.10543
7271.26,0.09807
7265.47,0.09861
7259.68,0.10349
7253.9,0.10010
7248.11,0.09284
7242.33,0.08907
7236.54,0.08754
7230.75,0.10512
7224.97,0.10870
7219.18,0.10750
7213.4,0.10621
7207.61,0.09971
7201.82,0.10125
7196.04,0.09391
7190.25,0.10569
7184.46,0.10246
7178.68,0.10762
7172.89,0.09199
7167.11,0.10218
7161.32,0.10395
7155.53,0.09409
7149.75,0.09496
7143.96,0.09906
7138.18,0.10412
7132.39,0.10095
7126.6,0.10094
7120.82,0.09558
7115.03,0.10676
7109.24,0.09677
7103.46,0.10823
7097.67,0.10008
7091.89,0.10672
7086.1,0.11079
7080.31,0.10697
7074.53,0.09999
7068.74,0.10615
7062.96,0.10032
7057.17,0.11135
7051.38,0.11196
7045.6,0.10907
7039.81,0.11463
7034.02,0.10647
7028.24,0.11467
7022.45,0.11356
7016.67,0.11109
7010.88,0.11101
7005.09,0.10642
6999.31,0.10959
6993.52,0.11781
6987.74,0.10953
6981.95,0.11969
6976.16,0.11410
6970.38,0.11027
6964.59,0.11435
6958.8,0.10872
6953.02,0.11730
6947.23,0.11025
6941.45,0.10866
6935.66,0.11821
6929.87,0.11014
6924.09,0.11631
6918.3,0.12497
6912.52,0.11850
6906.73,0.11591
6900.94,0.11788
6895.16,0.11777
6889.37,0.11654
6883.59,0.11701
6877.8,0.11813
6872.01,0.11301
6866.23,0.11284
6860.44,0.11371
6854.65,0.11380
6848.87,0.11593
6843.08,0.12196
6837.3,0.11408
6831.51,0.12213
6825.72,0.12372
6819.94,0.12514
6814.15,0.12509
6808.37,0.11725
6802.58,0.11672
6796.79,0.11122
6791.01,0.11318
6785.22,0.11995
6779.43,0.11502
6773.65,0.11545
6767.86,0.11827
6762.08,0.12218
6756.29,0.12492
6750.5,0.12325
6744.72,0.11980
6738.93,0.11961
6733.15,0.12430
6727.36,0.12620
6721.57,0.12098
6715.79,0.12550
6710,0.12263
6704.21,0.12240
6698.43,0.12321
6692.64,0.12447
6686.86,0.12487
6681.07,0.13133
6675.28,0.12756
6669.5,0.12785
6663.71,0.12420
6657.93,0.12661
6652.14,0.12776
6646.35,0.12947
6640.57,0.12443
6634.78,0.12914
6628.99,0.12890
6623.21,0.12375
6617.42,0.13149
6611.64,0.13004
6605.85,0.12532
6600.06,0.12925
6594.28,0.13102
6588.49,0.13081
6582.71,0.12814
6576.92,0.13027
6571.13,0.13041
6565.35,0.12999
6559.56,0.12598
6553.77,0.13051
6547.99,0.12934
6542.2,0.12245
6536.42,0.12803
6530.63,0.13107
6524.84,0.13426
6519.06,0.13367
6513.27,0.13671
6507.49,0.13237
6501.7,0.13007
6495.91,0.12848
6490.13,0.12715
6484.34,0.12966
6478.55,0.13255
6472.77,0.13009
6466.98,0.12992
6461.2,0.13346
6455.41,0.12622
6449.62,0.12972
6443.84,0.12758
6438.05,0.13039
6432.27,0.12823
6426.48,0.13305
6420.69,0.12979
6414.91,0.13180
6409.12,0.12964
6403.33,0.12967
6397.55,0.12909
6391.76,0.12893
6385.98,0.13102
6380.19,0.13156
6374.4,0.12896
6368.62,0.12514
6362.83,0.12428
6357.05,0.12502
6351.26,0.12468
6345.47,0.12920
6339.69,0.12768
6333.9,0.11968
6328.12,0.12145
6322.33,0.12144
6316.54,0.12439
6310.76,0.12498
6304.97,0.12431
6299.18,0.12605
6293.4,0.12381
6287.61,0.11902
6281.83,0.11735
6276.04,0.12059
6270.25,0.12034
6264.47,0.11813
6258.68,0.12032
6252.9,0.11662
6247.11,0.11555
6241.32,0.11412
6235.54,0.11129
6229.75,0.11168
6223.96,0.10969
6218.18,0.10582
6212.39,0.10565
6206.61,0.10661
6200.82,0.10156
6195.03,0.09764
6189.25,0.09196
6183.46,0.09045
6177.68,0.09030
6171.89,0.08446
6166.1,0.08264
6160.32,0.08665
6154.53,0.08412
6148.74,0.08239
6142.96,0.07946
6137.17,0.08091
6131.39,0.07710
6125.6,0.07076
6119.81,0.06948
6114.03,0.06936
6108.24,0.07121
6102.46,0.06564
6096.67,0.06694
6090.88,0.06223
6085.1,0.06017
6079.31,0.05925
6073.52,0.05640
6067.74,0.05943
6061.95,0.05861
6056.17,0.05980
6050.38,0.05774
6044.59,0.05515
6038.81,0.05489
6033.02,0.05924
6027.24,0.05607
6021.45,0.05874
6015.66,0.05858
6009.88,0.05562
6004.09,0.06013
5998.3,0.05758
5992.52,0.05619
5986.73,0.05673
5980.95,0.05732
5975.16,0.05588
5969.37,0.05925
5963.59,0.05986
5957.8,0.05574
5952.02,0.05580
5946.23,0.05621
5940.44,0.05912
5934.66,0.05748
5928.87,0.05597
5923.08,0.05547
5917.3,0.05672
5911.51,0.05643
5905.73,0.05740
5899.94,0.05826
5894.15,0.06022
5888.37,0.05976
5882.58,0.05886
5876.8,0.06142
5871.01,0.05946
5865.22,0.06180
5859.44,0.05995
5853.65,0.05881
5847.86,0.06439
5842.08,0.06387
5836.29,0.06432
5830.51,0.06485
5824.72,0.06622
5818.93,0.06375
5813.15,0.06462
5807.36,0.06486
5801.58,0.06362
5795.79,0.06550
5790,0.06483
5784.22,0.06372
5778.43,0.06184
5772.65,0.06074
5766.86,0.06140
5761.07,0.06156
5755.29,0.06315
5749.5,0.06386
5743.71,0.06418
5737.93,0.06442
5732.14,0.07150
5726.36,0.07507
5720.57,0.07318
5714.78,0.07669
5709,0.07813
5703.21,0.07860
5697.43,0.07856
5691.64,0.07905
5685.85,0.07616
5680.07,0.07510
5674.28,0.07227
5668.49,0.07298
5662.71,0.07301
5656.92,0.07063
5651.14,0.07121
5645.35,0.07303
5639.56,0.07640
5633.78,0.08023
5627.99,0.08040
5622.21,0.08785
5616.42,0.08628
5610.63,0.09071
5604.85,0.08935
5599.06,0.08922
5593.27,0.08839
5587.49,0.08813
5581.7,0.08525
5575.92,0.08897
5570.13,0.08624
5564.34,0.08504
5558.56,0.08759
5552.77,0.08623
5546.99,0.08538
5541.2,0.08683
5535.41,0.08663
5529.63,0.08619
5523.84,0.08520
5518.05,0.08581
5512.27,0.08626
5506.48,0.08765
5500.7,0.08656
5494.91,0.08417
5489.12,0.08290
5483.34,0.08436
5477.55,0.08233
5471.77,0.08429
5465.98,0.08375
5460.19,0.08329
5454.41,0.08427
5448.62,0.08532
5442.83,0.08652
5437.05,0.09031
5431.26,0.08850
5425.48,0.08673
5419.69,0.09057
5413.9,0.08833
5408.12,0.08849
5402.33,0.08888
5396.55,0.08946
5390.76,0.08789
5384.97,0.08752
5379.19,0.08982
5373.4,0.09080
5367.61,0.09027
5361.83,0.08801
5356.04,0.08981
5350.26,0.08892
5344.47,0.08612
5338.68,0.08776
5332.9,0.08769
5327.11,0.08760
5321.33,0.08639
5315.54,0.08667
5309.75,0.08900
5303.97,0.08565
5298.18,0.08424
5292.39,0.08239
5286.61,0.07938
5280.82,0.07654
5275.04,0.07172
5269.25,0.06976
5263.46,0.06767
5257.68,0.06983
5251.89,0.07229
5246.11,0.07475
5240.32,0.07962
5234.53,0.08405
5228.75,0.08516
5222.96,0.08901
5217.18,0.09202
5211.39,0.09082
5205.6,0.09015
5199.82,0.09298
5194.03,0.09325
5188.24,0.09290
5182.46,0.09288
5176.67,0.09141
5170.89,0.09134
5165.1,0.09370
5159.31,0.09438
5153.53,0.09419
5147.74,0.09507
5141.96,0.09617
5136.17,0.09514
5130.38,0.09875
5124.6,0.09729
5118.81,0.09793
5113.02,0.09801
5107.24,0.09879
5101.45,0.09869
5095.67,0.09870
5089.88,0.09706
5084.09,0.09829
5078.31,0.09645
5072.52,0.09681
5066.74,0.09678
5060.95,0.09714
5055.16,0.09723
5049.38,0.09795
5043.59,0.09820
5037.8,0.09803
5032.02,0.09669
5026.23,0.09697
5020.45,0.09533
5014.66,0.09585
5008.87,0.09472
5003.09,0.09528
4997.3,0.09354
4991.52,0.09338
4985.73,0.09278
4979.94,0.09267
4974.16,0.09121
4968.37,0.08988
4962.58,0.09009
4956.8,0.08964
4951.01,0.09044
4945.23,0.08865
4939.44,0.08959
4933.65,0.09002
4927.87,0.08891
4922.08,0.08543
4916.3,0.08412
4910.51,0.08111
4904.72,0.07994
4898.94,0.07906
4893.15,0.07744
4887.36,0.07649
4881.58,0.07680
4875.79,0.07679
4870.01,0.07696
4864.22,0.07350
4858.43,0.07212
4852.65,0.07097
4846.86,0.07006
4841.08,0.07126
4835.29,0.07191
4829.5,0.07033
4823.72,0.07237
4817.93,0.07315
4812.14,0.07370
4806.36,0.07459
4800.57,0.07460
4794.79,0.07269
4789,0.07266
4783.21,0.07126
4777.43,0.07100
4771.64,0.06886
4765.86,0.06850
4760.07,0.06785
4754.28,0.06625
4748.5,0.06478
4742.71,0.06428
4736.92,0.06318
4731.14,0.06222
4725.35,0.06280
4719.57,0.06185
4713.78,0.06110
4707.99,0.06127
4702.21,0.06081
4696.42,0.06207
4690.64,0.06207
4684.85,0.06188
4679.06,0.06153
4673.28,0.06132
4667.49,0.06144
4661.7,0.06149
4655.92,0.06175
4650.13,0.06210
4644.35,0.06214
4638.56,0.06259
4632.77,0.06201
4626.99,0.06279
4621.2,0.06224
4615.42,0.06170
4609.63,0.06242
4603.84,0.06193
4598.06,0.06210
4592.27,0.06120
4586.49,0.06145
4580.7,0.06116
4574.91,0.06230
4569.13,0.06301
4563.34,0.06221
4557.55,0.06261
4551.77,0.06286
4545.98,0.06218
4540.2,0.06218
4534.41,0.06247
4528.62,0.06293
4522.84,0.06319
4517.05,0.06248
4511.27,0.06401
4505.48,0.06368
4499.69,0.06233
4493.91,0.06239
4488.12,0.06212
4482.33,0.06212
4476.55,0.06228
4470.76,0.06219
4464.98,0.06207
4459.19,0.06190
4453.4,0.06268
4447.62,0.06205
4441.83,0.06186
4436.05,0.06271
4430.26,0.06260
4424.47,0.06175
4418.69,0.06205
4412.9,0.06172
4407.11,0.06163
4401.33,0.06191
4395.54,0.06193
4389.76,0.06195
4383.97,0.06207
4378.18,0.06308
4372.4,0.06336
4366.61,0.06138
4360.83,0.06134
4355.04,0.06204
4349.25,0.06206
4343.47,0.06189
4337.68,0.06261
4331.89,0.06262
4326.11,0.06226
4320.32,0.06120
4314.54,0.06137
4308.75,0.06228
4302.96,0.06209
4297.18,0.06156
4291.39,0.06267
4285.61,0.06278
4279.82,0.06290
4274.03,0.06281
4268.25,0.06233
4262.46,0.06226
4256.67,0.06226
4250.89,0.06235
4245.1,0.06230
4239.32,0.06278
4233.53,0.06197
4227.74,0.06251
4221.96,0.06285
4216.17,0.06357
4210.39,0.06274
4204.6,0.06290
4198.81,0.06284
4193.03,0.06273
4187.24,0.06310
4181.45,0.06332
4175.67,0.06288
4169.88,0.06322
4164.1,0.06295
4158.31,0.06197
4152.52,0.06274
4146.74,0.06254
4140.95,0.06236
4135.17,0.06249
4129.38,0.06278
4123.59,0.06344
4117.81,0.06311
4112.02,0.06214
4106.23,0.06325
4100.45,0.06223
4094.66,0.06323
4088.88,0.06319
4083.09,0.06352
4077.3,0.06290
4071.52,0.06291
4065.73,0.06354
4059.95,0.06311
4054.16,0.06292
4048.37,0.06280
4042.59,0.06306
4036.8,0.06263
4031.02,0.06282
4025.23,0.06266
4019.44,0.06292
4013.66,0.06283
4007.87,0.06297
4002.08,0.06270
3996.3,0.06312
3990.51,0.06311
3984.73,0.06276
3978.94,0.06257
3973.15,0.06342
3967.37,0.06344
3961.58,0.06335
3955.8,0.06309
3950.01,0.06303
3944.22,0.06318
3938.44,0.06336
3932.65,0.06266
3926.86,0.06290
3921.08,0.06307
3915.29,0.06296
3909.51,0.06282
3903.72,0.06400
3897.93,0.06295
3892.15,0.06333
3886.36,0.06355
3880.58,0.06276
3874.79,0.06322
3869,0.06208
3863.22,0.06149
3857.43,0.06384
3851.64,0.06273
3845.86,0.06366
3840.07,0.06213
3834.29,0.06375
3828.5,0.06311
3822.71,0.06357
3816.93,0.06437
3811.14,0.06376
3805.36,0.06368
3799.57,0.06306
3793.78,0.06318
3788,0.06328
3782.21,0.06377
3776.42,0.06400
3770.64,0.06391
3764.85,0.06296
3759.07,0.06232
3753.28,0.06335
3747.49,0.06284
3741.71,0.06381
3735.92,0.06271
3730.14,0.06306
3724.35,0.06240
3718.56,0.06336
3712.78,0.06411
3706.99,0.06213
3701.2,0.06257
3695.42,0.06319
3689.63,0.06171
3683.85,0.06305
3678.06,0.06237
3672.27,0.06279
3666.49,0.06277
3660.7,0.06239
3654.92,0.06315
3649.13,0.06361
3643.34,0.06299
3637.56,0.06250
3631.77,0.06237
3625.98,0.06279
3620.2,0.06238
3614.41,0.06205
3608.63,0.06269
3602.84,0.06361
3597.05,0.06234
3591.27,0.06177
3585.48,0.06142
3579.7,0.06211
3573.91,0.06174
3568.12,0.06322
3562.34,0.06258
3556.55,0.06233
3550.76,0.06193
3544.98,0.06232
3539.19,0.06246
3533.41,0.06200
3527.62,0.06149
3521.83,0.06266
3516.05,0.06217
3510.26,0.06215
3504.48,0.06279
3498.69,0.06191
3492.9,0.06192
3487.12,0.06239
3481.33,0.06201
3475.55,0.06303
3469.76,0.06145
3463.97,0.06238
3458.19,0.06168
3452.4,0.06215
3446.61,0.06264
3440.83,0.06230
3435.04,0.06143
3429.26,0.06160
3423.47,0.06183
3417.68,0.06230
3411.9,0.06228
3406.11,0.06180
3400.33,0.06220
3394.54,0.06188
3388.75,0.06209
3382.97,0.06172
3377.18,0.06233
3371.39,0.06168
3365.61,0.06266
3359.82,0.06239
3354.04,0.06236
3348.25,0.06246
3342.46,0.06133
3336.68,0.06160
3330.89,0.06120
3325.11,0.06203
3319.32,0.06253
3313.53,0.06232
3307.75,0.06225
3301.96,0.06211
3296.17,0.06238
3290.39,0.06137
3284.6,0.06195
3278.82,0.06234
3273.03,0.06191
3267.24,0.06172
3261.46,0.06180
3255.67,0.06210
3249.89,0.06192
3244.1,0.06266
3238.31,0.06220
3232.53,0.06179
3226.74,0.06189
3220.95,0.06186
3215.17,0.06181
3209.38,0.06229
3203.6,0.06156
3197.81,0.06196
3192.02,0.06112
3186.24,0.06243
3180.45,0.06227
3174.67,0.06230
3168.88,0.06254
3163.09,0.06257
3157.31,0.06176
3151.52,0.06260
3145.73,0.06275
3139.95,0.06200
3134.16,0.06217
3128.38,0.06187
3122.59,0.06204
3116.8,0.06241
3111.02,0.06220
3105.23,0.06199
3099.45,0.06199
3093.66,0.06213
3087.87,0.06196
3082.09,0.06180
3076.3,0.06190
3070.51,0.06163
3064.73,0.06205
3058.94,0.06197
3053.16,0.06126
3047.37,0.06193
3041.58,0.06151
3035.8,0.06191
3030.01,0.06199
3024.23,0.06187
3018.44,0.06164
3012.65,0.06198
3006.87,0.06146
3001.08,0.06092
2995.29,0.06093
2989.51,0.06049
2983.72,0.06034
2977.94,0.06070
2972.15,0.06206
2966.36,0.06277
2960.58,0.06438
2954.79,0.06389
2949.01,0.06403
2943.22,0.06381
2937.43,0.06391
2931.65,0.06432
2925.86,0.06422
2920.08,0.06488
2914.29,0.06410
2908.5,0.06376
2902.72,0.06403
2896.93,0.06325
2891.14,0.06318
2885.36,0.06335
2879.57,0.06360
2873.79,0.06389
2868,0.06456
2862.21,0.06433
2856.43,0.06405
2850.64,0.06445
2844.86,0.06391
2839.07,0.06444
2833.28,0.06343
2827.5,0.06324
2821.71,0.06315
2815.92,0.06335
2810.14,0.06344
2804.35,0.06348
2798.57,0.06324
2792.78,0.06353
2786.99,0.06345
2781.21,0.06339
2775.42,0.06319
2769.64,0.06329
2763.85,0.06360
2758.06,0.06368
2752.28,0.06336
2746.49,0.06283
2740.7,0.06290
2734.92,0.06322
2729.13,0.06260
2723.35,0.06321
2717.56,0.06321
2711.77,0.06336
2705.99,0.06293
2700.2,0.06253
2694.42,0.06325
2688.63,0.06316
2682.84,0.06312
2677.06,0.06285
2671.27,0.06299
2665.48,0.06300
2659.7,0.06298
2653.91,0.06255
2648.13,0.06300
2642.34,0.06277
2636.55,0.06311
2630.77,0.06312
2624.98,0.06287
2619.2,0.06258
2613.41,0.06320
2607.62,0.06301
2601.84,0.06302
2596.05,0.06270
2590.26,0.06316
2584.48,0.06253
2578.69,0.06303
2572.91,0.06284
2567.12,0.06290
2561.33,0.06313
2555.55,0.06282
2549.76,0.06267
2543.98,0.06278
2538.19,0.06284
2532.4,0.06236
2526.62,0.06271
2520.83,0.06257
2515.04,0.06266
2509.26,0.06271
2503.47,0.06251
2497.69,0.06261
2491.9,0.06257
2486.11,0.06264
2480.33,0.06248
2474.54,0.06249
2468.76,0.06268
2462.97,0.06260
2457.18,0.06252
2451.4,0.06255
2445.61,0.06274
2439.82,0.06265
2434.04,0.06255
2428.25,0.06276
2422.47,0.06237
2416.68,0.06272
2410.89,0.06252
2405.11,0.06261
2399.32,0.06276
2393.54,0.06267
2387.75,0.06298
2381.96,0.06308
2376.18,0.06360
2370.39,0.06212
2364.61,0.06317
2358.82,0.06237
2353.03,0.06335
2347.25,0.06360
2341.46,0.06362
2335.67,0.06321
2329.89,0.06320
2324.1,0.06268
2318.32,0.06261
2312.53,0.06262
2306.74,0.06270
2300.96,0.06215
2295.17,0.06279
2289.39,0.06267
2283.6,0.06228
2277.81,0.06217
2272.03,0.06195
2266.24,0.06222
2260.45,0.06213
2254.67,0.06164
2248.88,0.06174
2243.1,0.06220
2237.31,0.06198
2231.52,0.06226
2225.74,0.06233
2219.95,0.06243
2214.17,0.06224
2208.38,0.06250
2202.59,0.06221
2196.81,0.06205
2191.02,0.06226
2185.23,0.06219
2179.45,0.06218
2173.66,0.06174
2167.88,0.06219
2162.09,0.06189
2156.3,0.06186
2150.52,0.06182
2144.73,0.06185
2138.95,0.06187
2133.16,0.06130
2127.37,0.06171
2121.59,0.06183
2115.8,0.06161
2110.01,0.06131
2104.23,0.06145
2098.44,0.06100
2092.66,0.06117
2086.87,0.06186
2081.08,0.06155
2075.3,0.06118
2069.51,0.06107
2063.73,0.06112
2057.94,0.06094
2052.15,0.06097
2046.37,0.06124
2040.58,0.06101
2034.79,0.06104
2029.01,0.06105
2023.22,0.06094
2017.44,0.06067
2011.65,0.06076
2005.86,0.06073
2000.08,0.06055
1994.29,0.06045
1988.51,0.06057
1982.72,0.06035
1976.93,0.06053
1971.15,0.06053
1965.36,0.06033
1959.57,0.05989
1953.79,0.05995
1948,0.05977
1942.22,0.05979
1936.43,0.05971
1930.64,0.05924
1924.86,0.05923
1919.07,0.05930
1913.29,0.05909
1907.5,0.05869
1901.71,0.05877
1895.93,0.05890
1890.14,0.05913
1884.35,0.05853
1878.57,0.05827
1872.78,0.05792
1867,0.05748
1861.21,0.05726
1855.42,0.05673
1849.64,0.05669
1843.85,0.05617
1838.07,0.05556
1832.28,0.05473
1826.49,0.05412
1820.71,0.05286
1814.92,0.05170
1809.13,0.04956
1803.35,0.04744
1797.56,0.04360
1791.78,0.04263
1785.99,0.04657
1780.2,0.05966
1774.42,0.07454
1768.63,0.08841
1762.85,0.08804
1757.06,0.08018
1751.27,0.07509
1745.49,0.07096
1739.7,0.06928
1733.92,0.06834
1728.13,0.06685
1722.34,0.06644
1716.56,0.06481
1710.77,0.06448
1704.98,0.06376
1699.2,0.06393
1693.41,0.06271
1687.63,0.06211
1681.84,0.06172
1676.05,0.06163
1670.27,0.06121
1664.48,0.06103
1658.7,0.06094
1652.91,0.06075
1647.12,0.06098
1641.34,0.06010
1635.55,0.05991
1629.76,0.05952
1623.98,0.05960
1618.19,0.05804
1612.41,0.05810
1606.62,0.05804
1600.83,0.05879
1595.05,0.05943
1589.26,0.05989
1583.48,0.05909
1577.69,0.05894
1571.9,0.05768
1566.12,0.05724
1560.33,0.05658
1554.54,0.05595
1548.76,0.05476
1542.97,0.05405
1537.19,0.05251
1531.4,0.05202
1525.61,0.05024
1519.83,0.04625
1514.04,0.04247
1508.26,0.04990
1502.47,0.07278
1496.68,0.07219
1490.9,0.07052
1485.11,0.06552
1479.32,0.06319
1473.54,0.06179
1467.75,0.06055
1461.97,0.06114
1456.18,0.05968
1450.39,0.05965
1444.61,0.05908
1438.82,0.05867
1433.04,0.05726
1427.25,0.05602
1421.46,0.05484
1415.68,0.05314
1409.89,0.05495
1404.1,0.05586
1398.32,0.05584
1392.53,0.05356
1386.75,0.05375
1380.96,0.05389
1375.17,0.05214
1369.39,0.05030
1363.6,0.05246
1357.82,0.05256
1352.03,0.05035
1346.24,0.04908
1340.46,0.04751
1334.67,0.04616
1328.88,0.04503
1323.1,0.04288
1317.31,0.04016
1311.53,0.03861
1305.74,0.03776
1299.95,0.03522
1294.17,0.03453
1288.38,0.03436
1282.6,0.03211
1276.81,0.02746
1271.02,0.02194
1265.24,0.02022
1259.45,0.03679
1253.66,0.06991
1247.88,0.09420
1242.09,0.10788
1236.31,0.11946
1230.52,0.13149
1224.73,0.13759
1218.95,0.13030
1213.16,0.10571
1207.38,0.07679
1201.59,0.08973
1195.8,0.14483
1190.02,0.16514
1184.23,0.14036
1178.45,0.11179
1172.66,0.08866
1166.87,0.10997
1161.09,0.15513
1155.3,0.13877
1149.51,0.12110
1143.73,0.11130
1137.94,0.10527
1132.16,0.10012
1126.37,0.09551
1120.58,0.09157
1114.8,0.08892
1109.01,0.08846
1103.23,0.08776
1097.44,0.08751
1091.65,0.08258
1085.87,0.07844
1080.08,0.09245
1074.29,0.09308
1068.51,0.08823
1062.72,0.08554
1056.94,0.08292
1051.15,0.08099
1045.36,0.07913
1039.58,0.07695
1033.79,0.07415
1028.01,0.06991
1022.22,0.06236
1016.43,0.07895
1010.65,0.09651
1004.86,0.09321
999.075,0.08965
993.288,0.08689
987.502,0.08483
981.716,0.08367
975.93,0.08212
970.144,0.08027
964.358,0.07957
958.572,0.07905
952.785,0.07772
946.999,0.07775
941.213,0.07654
935.427,0.07645
929.641,0.07548
923.855,0.07432
918.068,0.07432
912.282,0.07384
906.496,0.07310
900.71,0.07055
894.924,0.06890
889.138,0.07153
883.352,0.07544
877.565,0.07425
871.779,0.07278
865.993,0.07097
860.207,0.06903
854.421,0.06601
848.635,0.06605
842.849,0.06616
837.062,0.06845
831.276,0.07850
825.49,0.08420
819.704,0.08317
813.918,0.08425
808.132,0.08444
802.346,0.08234
796.559,0.07924
790.773,0.07660
784.987,0.07485
779.201,0.07370
773.415,0.07470
767.629,0.07853
761.843,0.07963
756.056,0.08016
750.27,0.08003
744.484,0.07928
738.698,0.07736
732.912,0.07734
727.126,0.07721
721.34,0.07731
715.553,0.07643
709.767,0.07617
703.981,0.07694
698.195,0.07685
692.409,0.07566
686.623,0.07607
680.837,0.07710
675.05,0.07564
669.264,0.07544
663.478,0.07439
657.692,0.07355
651.906,0.07449
646.12,0.07184
640.333,0.07287
634.547,0.07217
628.761,0.07236
622.975,0.07081
617.189,0.07078
611.403,0.06962
605.617,0.06950
599.83,0.06841