File: 01_Data/PC/FTIR/IS/PC_IS_S_230508_R6.dpt
7496.92,0.11923
7491.13,0.12486
7485.34,0.12681
7479.56,0.13331
7473.77,0.12532
7467.99,0.11377
7462.2,0.12308
7456.41,0.11480
7450.63,0.10982
7444.84,0.12154
7439.06,0.11674
7433.27,0.12129
7427.48,0.12303
7421.7,0.12125
7415.91,0.12650
7410.12,0.11309
7404.34,0.11954
7398.55,0.11789
7392.77,0.10615
7386.98,0.10633
7381.19,0.10879
7375.41,0.11150
7369.62,0.09919
7363.84,0.10928
7358.05,0.11003
7352.26,0.10315
7346.48,0.10673
7340.69,0.09708
7334.9,0.09629
7329.12,0.10658
7323.33,0.10660
7317.55,0.11023
7311.76,0.09678
7305.97,0.09731
7300.19,0.10940
7294.4,0.10264
7288.62,0.09532
7282.83,0.10004
7277.04,0.10398
7271.26,0.09995
7265.47,0.09618
7259.68,0.10123
7253.9,0.10016
7248.11,0.09871
7242.33,0.10152
7236.54,0.11335
7230.75,0.10148
7224.97,0.09957
7219.18,0.09296
7213.4,0.10018
7207.61,0.10964
7201.82,0.10149
7196.04,0.10055
7190.25,0.09626
7184.46,0.09814
7178.68,0.10664
7172.89,0.09107
7167.11,0.09859
7161.32,0.09674
7155.53,0.09593
7149.75,0.09596
7143.96,0.10428
7138.18,0.10265
7132.39,0.10290
7126.6,0.10634
7120.82,0.10306
7115.03,0.09831
7109.24,0.09506
7103.46,0.09959
7097.67,0.10657
7091.89,0.09829
7086.1,0.10355
7080.31,0.10292
7074.53,0.11032
7068.74,0.10711
7062.96,0.11111
7057.17,0.11453
7051.38,0.11506
7045.6,0.10875
7039.81,0.11360
7034.02,0.10774
7028.24,0.11059
7022.45,0.10998
7016.67,0.10547
7010.88,0.10554
7005.09,0.10629
6999.31,0.11182
6993.52,0.11028
6987.74,0.11362
6981.95,0.11351
6976.16,0.11701
6970.38,0.11130
6964.59,0.10694
6958.8,0.11804
6953.02,0.11757
6947.23,0.11131
6941.45,0.12050
6935.66,0.12572
6929.87,0.11913
6924.09,0.11873
6918.3,0.11407
6912.52,0.11491
6906.73,0.11016
6900.94,0.10805
6895.16,0.11041
6889.37,0.11828
6883.59,0.11494
6877.8,0.11372
6872.01,0.11387
6866.23,0.11098
6860.44,0.11699
6854.65,0.11760
6848.87,0.11643
6843.08,0.11429
6837.3,0.11435
6831.51,0.11422
6825.72,0.11524
6819.94,0.11872
6814.15,0.11692
6808.37,0.11702
6802.58,0.11797
6796.79,0.11522
6791.01,0.11396
6785.22,0.11752
6779.43,0.11830
6773.65,0.11407
6767.86,0.11927
6762.08,0.11546
6756.29,0.11880
6750.5,0.11918
6744.72,0.11716
6738.93,0.11927
6733.15,0.11347
6727.36,0.12388
6721.57,0.11998
6715.79,0.11873
6710,0.11995
6704.21,0.12026
6698.43,0.12223
6692.64,0.12565
6686.86,0.11932
6681.07,0.12317
6675.28,0.12835
6669.5,0.12251
6663.71,0.12797
6657.93,0.12195
6652.14,0.12435
6646.35,0.12381
6640.57,0.13065
6634.78,0.12558
6628.99,0.12820
6623.21,0.12748
6617.42,0.12708
6611.64,0.12857
6605.85,0.12351
6600.06,0.12460
6594.28,0.12186
6588.49,0.12417
6582.71,0.12963
6576.92,0.12889
6571.13,0.12276
6565.35,0.12796
6559.56,0.12854
6553.77,0.12697
6547.99,0.12944
6542.2,0.12596
6536.42,0.12754
6530.63,0.12764
6524.84,0.13182
6519.06,0.13486
6513.27,0.12945
6507.49,0.12487
6501.7,0.12845
6495.91,0.12768
6490.13,0.13247
6484.34,0.13336
6478.55,0.13194
6472.77,0.12987
6466.98,0.13136
6461.2,0.13026
6455.41,0.12528
6449.62,0.13116
6443.84,0.12870
6438.05,0.12555
6432.27,0.12780
6426.48,0.13194
6420.69,0.13075
6414.91,0.12829
6409.12,0.12874
6403.33,0.12965
6397.55,0.13072
6391.76,0.13127
6385.98,0.12366
6380.19,0.12774
6374.4,0.12617
6368.62,0.12513
6362.83,0.12402
6357.05,0.12903
6351.26,0.12774
6345.47,0.12770
6339.69,0.13142
6333.9,0.13304
6328.12,0.12687
6322.33,0.12475
6316.54,0.12378
6310.76,0.12488
6304.97,0.12088
6299.18,0.12069
6293.4,0.11961
6287.61,0.12258
6281.83,0.12066
6276.04,0.11838
6270.25,0.11497
6264.47,0.11741
6258.68,0.11904
6252.9,0.11740
6247.11,0.11572
6241.32,0.11111
6235.54,0.11293
6229.75,0.11112
6223.96,0.11256
6218.18,0.11019
6212.39,0.10740
6206.61,0.10062
6200.82,0.09716
6195.03,0.09889
6189.25,0.09068
6183.46,0.09011
6177.68,0.08811
6171.89,0.08627
6166.1,0.08356
6160.32,0.08337
6154.53,0.08329
6148.74,0.08233
6142.96,0.07926
6137.17,0.07410
6131.39,0.07444
6125.6,0.07541
6119.81,0.07334
6114.03,0.06842
6108.24,0.06982
6102.46,0.06590
6096.67,0.06287
6090.88,0.06010
6085.1,0.05779
6079.31,0.06272
6073.52,0.05869
6067.74,0.05833
6061.95,0.05916
6056.17,0.05578
6050.38,0.05869
6044.59,0.05834
6038.81,0.05833
6033.02,0.05703
6027.24,0.05783
6021.45,0.05900
6015.66,0.05630
6009.88,0.05677
6004.09,0.06069
5998.3,0.05953
5992.52,0.05868
5986.73,0.05563
5980.95,0.05495
5975.16,0.05524
5969.37,0.05783
5963.59,0.05755
5957.8,0.05580
5952.02,0.05586
5946.23,0.05553
5940.44,0.05793
5934.66,0.06046
5928.87,0.05479
5923.08,0.05840
5917.3,0.05839
5911.51,0.05967
5905.73,0.05920
5899.94,0.05937
5894.15,0.06088
5888.37,0.05751
5882.58,0.05518
5876.8,0.05853
5871.01,0.05943
5865.22,0.05964
5859.44,0.06195
5853.65,0.06209
5847.86,0.06396
5842.08,0.06212
5836.29,0.06173
5830.51,0.06384
5824.72,0.06403
5818.93,0.06456
5813.15,0.06344
5807.36,0.06258
5801.58,0.06332
5795.79,0.06577
5790,0.06410
5784.22,0.06447
5778.43,0.06301
5772.65,0.06369
5766.86,0.06121
5761.07,0.06166
5755.29,0.06377
5749.5,0.05927
5743.71,0.06563
5737.93,0.06802
5732.14,0.06845
5726.36,0.06821
5720.57,0.07466
5714.78,0.07562
5709,0.07795
5703.21,0.07933
5697.43,0.07716
5691.64,0.07686
5685.85,0.07527
5680.07,0.07202
5674.28,0.06941
5668.49,0.06868
5662.71,0.06922
5656.92,0.07151
5651.14,0.07253
5645.35,0.07124
5639.56,0.07534
5633.78,0.07944
5627.99,0.08303
5622.21,0.08446
5616.42,0.08566
5610.63,0.08779
5604.85,0.08991
5599.06,0.09104
5593.27,0.08767
5587.49,0.08719
5581.7,0.08738
5575.92,0.08757
5570.13,0.08760
5564.34,0.08528
5558.56,0.08731
5552.77,0.08743
5546.99,0.08713
5541.2,0.08525
5535.41,0.08524
5529.63,0.08640
5523.84,0.08566
5518.05,0.08391
5512.27,0.08653
5506.48,0.08606
5500.7,0.08553
5494.91,0.08513
5489.12,0.08214
5483.34,0.08302
5477.55,0.08172
5471.77,0.08329
5465.98,0.08516
5460.19,0.08540
5454.41,0.08461
5448.62,0.08661
5442.83,0.08631
5437.05,0.08748
5431.26,0.08792
5425.48,0.08931
5419.69,0.08618
5413.9,0.08851
5408.12,0.08509
5402.33,0.08708
5396.55,0.08952
5390.76,0.08575
5384.97,0.08723
5379.19,0.08906
5373.4,0.09067
5367.61,0.08968
5361.83,0.08852
5356.04,0.08943
5350.26,0.08835
5344.47,0.08972
5338.68,0.08763
5332.9,0.08594
5327.11,0.08635
5321.33,0.08804
5315.54,0.08727
5309.75,0.08582
5303.97,0.08499
5298.18,0.08325
5292.39,0.08097
5286.61,0.07803
5280.82,0.07482
5275.04,0.07314
5269.25,0.06901
5263.46,0.06711
5257.68,0.06934
5251.89,0.07318
5246.11,0.07419
5240.32,0.07855
5234.53,0.08142
5228.75,0.08741
5222.96,0.09053
5217.18,0.09101
5211.39,0.09151
5205.6,0.09311
5199.82,0.09248
5194.03,0.09335
5188.24,0.09194
5182.46,0.09198
5176.67,0.09233
5170.89,0.09117
5165.1,0.09232
5159.31,0.09228
5153.53,0.09442
5147.74,0.09500
5141.96,0.09488
5136.17,0.09614
5130.38,0.09798
5124.6,0.09767
5118.81,0.09867
5113.02,0.09852
5107.24,0.09798
5101.45,0.09757
5095.67,0.09755
5089.88,0.09796
5084.09,0.09631
5078.31,0.09566
5072.52,0.09684
5066.74,0.09550
5060.95,0.09599
5055.16,0.09703
5049.38,0.09686
5043.59,0.09755
5037.8,0.09854
5032.02,0.09747
5026.23,0.09763
5020.45,0.09586
5014.66,0.09463
5008.87,0.09483
5003.09,0.09452
4997.3,0.09353
4991.52,0.09309
4985.73,0.09165
4979.94,0.09182
4974.16,0.08986
4968.37,0.08978
4962.58,0.09048
4956.8,0.08977
4951.01,0.08950
4945.23,0.08893
4939.44,0.08837
4933.65,0.08845
4927.87,0.08701
4922.08,0.08630
4916.3,0.08288
4910.51,0.08228
4904.72,0.07827
4898.94,0.07721
4893.15,0.07739
4887.36,0.07602
4881.58,0.07559
4875.79,0.07668
4870.01,0.07448
4864.22,0.07320
4858.43,0.07099
4852.65,0.07060
4846.86,0.07075
4841.08,0.06941
4835.29,0.07008
4829.5,0.07279
4823.72,0.07168
4817.93,0.07188
4812.14,0.07310
4806.36,0.07362
4800.57,0.07318
4794.79,0.07306
4789,0.07219
4783.21,0.06970
4777.43,0.06990
4771.64,0.06867
4765.86,0.06790
4760.07,0.06630
4754.28,0.06539
4748.5,0.06478
4742.71,0.06305
4736.92,0.06278
4731.14,0.06190
4725.35,0.06153
4719.57,0.06144
4713.78,0.06106
4707.99,0.06178
4702.21,0.06129
4696.42,0.06231
4690.64,0.06136
4684.85,0.06167
4679.06,0.06059
4673.28,0.06109
4667.49,0.06160
4661.7,0.06158
4655.92,0.06196
4650.13,0.06200
4644.35,0.06141
4638.56,0.06116
4632.77,0.06059
4626.99,0.06194
4621.2,0.06093
4615.42,0.06134
4609.63,0.06226
4603.84,0.06130
4598.06,0.06187
4592.27,0.06217
4586.49,0.06140
4580.7,0.06247
4574.91,0.06161
4569.13,0.06183
4563.34,0.06252
4557.55,0.06175
4551.77,0.06154
4545.98,0.06173
4540.2,0.06236
4534.41,0.06248
4528.62,0.06269
4522.84,0.06199
4517.05,0.06306
4511.27,0.06207
4505.48,0.06116
4499.69,0.06219
4493.91,0.06203
4488.12,0.06196
4482.33,0.06182
4476.55,0.06263
4470.76,0.06206
4464.98,0.06207
4459.19,0.06169
4453.4,0.06203
4447.62,0.06192
4441.83,0.06166
4436.05,0.06177
4430.26,0.06222
4424.47,0.06161
4418.69,0.06174
4412.9,0.06208
4407.11,0.06137
4401.33,0.06175
4395.54,0.06106
4389.76,0.06077
4383.97,0.06186
4378.18,0.06195
4372.4,0.06214
4366.61,0.06165
4360.83,0.06159
4355.04,0.06188
4349.25,0.06224
4343.47,0.06170
4337.68,0.06188
4331.89,0.06121
4326.11,0.06119
4320.32,0.06174
4314.54,0.06187
4308.75,0.06235
4302.96,0.06152
4297.18,0.06125
4291.39,0.06254
4285.61,0.06266
4279.82,0.06225
4274.03,0.06110
4268.25,0.06161
4262.46,0.06239
4256.67,0.06223
4250.89,0.06225
4245.1,0.06164
4239.32,0.06203
4233.53,0.06174
4227.74,0.06292
4221.96,0.06226
4216.17,0.06195
4210.39,0.06198
4204.6,0.06271
4198.81,0.06285
4193.03,0.06223
4187.24,0.06213
4181.45,0.06238
4175.67,0.06250
4169.88,0.06243
4164.1,0.06225
4158.31,0.06319
4152.52,0.06169
4146.74,0.06243
4140.95,0.06207
4135.17,0.06295
4129.38,0.06273
4123.59,0.06192
4117.81,0.06268
4112.02,0.06241
4106.23,0.06229
4100.45,0.06178
4094.66,0.06263
4088.88,0.06252
4083.09,0.06257
4077.3,0.06250
4071.52,0.06216
4065.73,0.06289
4059.95,0.06288
4054.16,0.06218
4048.37,0.06293
4042.59,0.06255
4036.8,0.06250
4031.02,0.06319
4025.23,0.06207
4019.44,0.06289
4013.66,0.06248
4007.87,0.06309
4002.08,0.06312
3996.3,0.06295
3990.51,0.06253
3984.73,0.06205
3978.94,0.06198
3973.15,0.06332
3967.37,0.06310
3961.58,0.06234
3955.8,0.06260
3950.01,0.06265
3944.22,0.06283
3938.44,0.06270
3932.65,0.06297
3926.86,0.06344
3921.08,0.06245
3915.29,0.06193
3909.51,0.06314
3903.72,0.06300
3897.93,0.06230
3892.15,0.06320
3886.36,0.06266
3880.58,0.06253
3874.79,0.06274
3869,0.06237
3863.22,0.06260
3857.43,0.06222
3851.64,0.06380
3845.86,0.06285
3840.07,0.06416
3834.29,0.06298
3828.5,0.06312
3822.71,0.06291
3816.93,0.06247
3811.14,0.06296
3805.36,0.06171
3799.57,0.06316
3793.78,0.06269
3788,0.06254
3782.21,0.06272
3776.42,0.06224
3770.64,0.06280
3764.85,0.06273
3759.07,0.06333
3753.28,0.06310
3747.49,0.06317
3741.71,0.06302
3735.92,0.06534
3730.14,0.06244
3724.35,0.06242
3718.56,0.06351
3712.78,0.06172
3706.99,0.06247
3701.2,0.06245
3695.42,0.06299
3689.63,0.06317
3683.85,0.06279
3678.06,0.06350
3672.27,0.06357
3666.49,0.06171
3660.7,0.06261
3654.92,0.06245
3649.13,0.06128
3643.34,0.06192
3637.56,0.06198
3631.77,0.06295
3625.98,0.06300
3620.2,0.06187
3614.41,0.06152
3608.63,0.06251
3602.84,0.06271
3597.05,0.06158
3591.27,0.06233
3585.48,0.06144
3579.7,0.06179
3573.91,0.06141
3568.12,0.06355
3562.34,0.06234
3556.55,0.06231
3550.76,0.06187
3544.98,0.06177
3539.19,0.06225
3533.41,0.06174
3527.62,0.06168
3521.83,0.06170
3516.05,0.06183
3510.26,0.06199
3504.48,0.06184
3498.69,0.06187
3492.9,0.06130
3487.12,0.06134
3481.33,0.06217
3475.55,0.06185
3469.76,0.06164
3463.97,0.06238
3458.19,0.06182
3452.4,0.06123
3446.61,0.06121
3440.83,0.06169
3435.04,0.06137
3429.26,0.06099
3423.47,0.06180
3417.68,0.06165
3411.9,0.06197
3406.11,0.06167
3400.33,0.06139
3394.54,0.06113
3388.75,0.06133
3382.97,0.06185
3377.18,0.06109
3371.39,0.06152
3365.61,0.06163
3359.82,0.06122
3354.04,0.06181
3348.25,0.06179
3342.46,0.06145
3336.68,0.06157
3330.89,0.06143
3325.11,0.06172
3319.32,0.06174
3313.53,0.06194
3307.75,0.06135
3301.96,0.06090
3296.17,0.06137
3290.39,0.06219
3284.6,0.06176
3278.82,0.06156
3273.03,0.06204
3267.24,0.06188
3261.46,0.06135
3255.67,0.06147
3249.89,0.06196
3244.1,0.06278
3238.31,0.06162
3232.53,0.06140
3226.74,0.06144
3220.95,0.06223
3215.17,0.06193
3209.38,0.06175
3203.6,0.06187
3197.81,0.06205
3192.02,0.06154
3186.24,0.06142
3180.45,0.06204
3174.67,0.06163
3168.88,0.06184
3163.09,0.06155
3157.31,0.06200
3151.52,0.06133
3145.73,0.06143
3139.95,0.06193
3134.16,0.06151
3128.38,0.06127
3122.59,0.06182
3116.8,0.06169
3111.02,0.06120
3105.23,0.06141
3099.45,0.06162
3093.66,0.06097
3087.87,0.06065
3082.09,0.06188
3076.3,0.06160
3070.51,0.06142
3064.73,0.06108
3058.94,0.06158
3053.16,0.06113
3047.37,0.06148
3041.58,0.06193
3035.8,0.06186
3030.01,0.06130
3024.23,0.06141
3018.44,0.06165
3012.65,0.06127
3006.87,0.06100
3001.08,0.06051
2995.29,0.06061
2989.51,0.06013
2983.72,0.05995
2977.94,0.06041
2972.15,0.06144
2966.36,0.06266
2960.58,0.06377
2954.79,0.06353
2949.01,0.06342
2943.22,0.06292
2937.43,0.06347
2931.65,0.06397
2925.86,0.06433
2920.08,0.06352
2914.29,0.06333
2908.5,0.06309
2902.72,0.06284
2896.93,0.06394
2891.14,0.06322
2885.36,0.06265
2879.57,0.06287
2873.79,0.06323
2868,0.06413
2862.21,0.06346
2856.43,0.06378
2850.64,0.06365
2844.86,0.06347
2839.07,0.06327
2833.28,0.06333
2827.5,0.06290
2821.71,0.06335
2815.92,0.06290
2810.14,0.06268
2804.35,0.06277
2798.57,0.06271
2792.78,0.06290
2786.99,0.06274
2781.21,0.06300
2775.42,0.06258
2769.64,0.06254
2763.85,0.06289
2758.06,0.06293
2752.28,0.06265
2746.49,0.06254
2740.7,0.06268
2734.92,0.06249
2729.13,0.06264
2723.35,0.06251
2717.56,0.06278
2711.77,0.06297
2705.99,0.06269
2700.2,0.06241
2694.42,0.06258
2688.63,0.06263
2682.84,0.06300
2677.06,0.06303
2671.27,0.06268
2665.48,0.06260
2659.7,0.06301
2653.91,0.06291
2648.13,0.06247
2642.34,0.06242
2636.55,0.06243
2630.77,0.06228
2624.98,0.06225
2619.2,0.06259
2613.41,0.06247
2607.62,0.06226
2601.84,0.06254
2596.05,0.06263
2590.26,0.06228
2584.48,0.06245
2578.69,0.06214
2572.91,0.06270
2567.12,0.06237
2561.33,0.06203
2555.55,0.06203
2549.76,0.06262
2543.98,0.06243
2538.19,0.06234
2532.4,0.06236
2526.62,0.06232
2520.83,0.06184
2515.04,0.06215
2509.26,0.06237
2503.47,0.06265
2497.69,0.06246
2491.9,0.06241
2486.11,0.06214
2480.33,0.06213
2474.54,0.06246
2468.76,0.06233
2462.97,0.06218
2457.18,0.06203
2451.4,0.06231
2445.61,0.06240
2439.82,0.06226
2434.04,0.06227
2428.25,0.06240
2422.47,0.06251
2416.68,0.06234
2410.89,0.06220
2405.11,0.06233
2399.32,0.06257
2393.54,0.06216
2387.75,0.06220
2381.96,0.06243
2376.18,0.06333
2370.39,0.06410
2364.61,0.06351
2358.82,0.06565
2353.03,0.06306
2347.25,0.06312
2341.46,0.06049
2335.67,0.06245
2329.89,0.06302
2324.1,0.06390
2318.32,0.06259
2312.53,0.06253
2306.74,0.06222
2300.96,0.06190
2295.17,0.06187
2289.39,0.06199
2283.6,0.06214
2277.81,0.06166
2272.03,0.06196
2266.24,0.06206
2260.45,0.06169
2254.67,0.06180
2248.88,0.06196
2243.1,0.06176
2237.31,0.06190
2231.52,0.06156
2225.74,0.06131
2219.95,0.06162
2214.17,0.06182
2208.38,0.06188
2202.59,0.06165
2196.81,0.06158
2191.02,0.06188
2185.23,0.06167
2179.45,0.06145
2173.66,0.06156
2167.88,0.06185
2162.09,0.06174
2156.3,0.06138
2150.52,0.06137
2144.73,0.06099
2138.95,0.06124
2133.16,0.06110
2127.37,0.06152
2121.59,0.06133
2115.8,0.06149
2110.01,0.06110
2104.23,0.06089
2098.44,0.06110
2092.66,0.06104
2086.87,0.06116
2081.08,0.06065
2075.3,0.06081
2069.51,0.06060
2063.73,0.06031
2057.94,0.06037
2052.15,0.06080
2046.37,0.06060
2040.58,0.06065
2034.79,0.06102
2029.01,0.06054
2023.22,0.06064
2017.44,0.06052
2011.65,0.06074
2005.86,0.06055
2000.08,0.06030
1994.29,0.06037
1988.51,0.06062
1982.72,0.06055
1976.93,0.05997
1971.15,0.06009
1965.36,0.05976
1959.57,0.05958
1953.79,0.05935
1948,0.05931
1942.22,0.05933
1936.43,0.05913
1930.64,0.05925
1924.86,0.05858
1919.07,0.05887
1913.29,0.05876
1907.5,0.05796
1901.71,0.05842
1895.93,0.05819
1890.14,0.05792
1884.35,0.05774
1878.57,0.05747
1872.78,0.05790
1867,0.05729
1861.21,0.05693
1855.42,0.05625
1849.64,0.05619
1843.85,0.05545
1838.07,0.05505
1832.28,0.05455
1826.49,0.05356
1820.71,0.05253
1814.92,0.05126
1809.13,0.04904
1803.35,0.04705
1797.56,0.04371
1791.78,0.04253
1785.99,0.04707
1780.2,0.05983
1774.42,0.07438
1768.63,0.08710
1762.85,0.08624
1757.06,0.07944
1751.27,0.07503
1745.49,0.07090
1739.7,0.06906
1733.92,0.06796
1728.13,0.06661
1722.34,0.06654
1716.56,0.06635
1710.77,0.06442
1704.98,0.06387
1699.2,0.06274
1693.41,0.06234
1687.63,0.06224
1681.84,0.06173
1676.05,0.06139
1670.27,0.06025
1664.48,0.06067
1658.7,0.06044
1652.91,0.06098
1647.12,0.06111
1641.34,0.05937
1635.55,0.05914
1629.76,0.05991
1623.98,0.05965
1618.19,0.05832
1612.41,0.05765
1606.62,0.05819
1600.83,0.05848
1595.05,0.05881
1589.26,0.05914
1583.48,0.05866
1577.69,0.05843
1571.9,0.05752
1566.12,0.05669
1560.33,0.05600
1554.54,0.05460
1548.76,0.05485
1542.97,0.05520
1537.19,0.05301
1531.4,0.05125
1525.61,0.04837
1519.83,0.04584
1514.04,0.04149
1508.26,0.04820
1502.47,0.07174
1496.68,0.07225
1490.9,0.06939
1485.11,0.06491
1479.32,0.06320
1473.54,0.06130
1467.75,0.06026
1461.97,0.06074
1456.18,0.05977
1450.39,0.05917
1444.61,0.05814
1438.82,0.05780
1433.04,0.05673
1427.25,0.05549
1421.46,0.05464
1415.68,0.05270
1409.89,0.05465
1404.1,0.05584
1398.32,0.05567
1392.53,0.05310
1386.75,0.05368
1380.96,0.05373
1375.17,0.05199
1369.39,0.05030
1363.6,0.05213
1357.82,0.05191
1352.03,0.05027
1346.24,0.04869
1340.46,0.04774
1334.67,0.04556
1328.88,0.04447
1323.1,0.04244
1317.31,0.04010
1311.53,0.03863
1305.74,0.03756
1299.95,0.03536
1294.17,0.03423
1288.38,0.03385
1282.6,0.03197
1276.81,0.02730
1271.02,0.02240
1265.24,0.02056
1259.45,0.03646
1253.66,0.06944
1247.88,0.09365
1242.09,0.10749
1236.31,0.11933
1230.52,0.13115
1224.73,0.13757
1218.95,0.12978
1213.16,0.10509
1207.38,0.07624
1201.59,0.09022
1195.8,0.14396
1190.02,0.16475
1184.23,0.13960
1178.45,0.11065
1172.66,0.08790
1166.87,0.10958
1161.09,0.15499
1155.3,0.13791
1149.51,0.12088
1143.73,0.11130
1137.94,0.10438
1132.16,0.09919
1126.37,0.09518
1120.58,0.09122
1114.8,0.08840
1109.01,0.08750
1103.23,0.08780
1097.44,0.08727
1091.65,0.08219
1085.87,0.07745
1080.08,0.09171
1074.29,0.09276
1068.51,0.08738
1062.72,0.08451
1056.94,0.08236
1051.15,0.08023
1045.36,0.07880
1039.58,0.07660
1033.79,0.07334
1028.01,0.06912
1022.22,0.06244
1016.43,0.07825
1010.65,0.09518
1004.86,0.09263
999.075,0.08917
993.288,0.08625
987.502,0.08456
981.716,0.08234
975.93,0.08083
970.144,0.07974
964.358,0.07946
958.572,0.07849
952.785,0.07757
946.999,0.07616
941.213,0.07641
935.427,0.07651
929.641,0.07554
923.855,0.07465
918.068,0.07439
912.282,0.07396
906.496,0.07273
900.71,0.07089
894.924,0.06868
889.138,0.07134
883.352,0.07511
877.565,0.07435
871.779,0.07249
865.993,0.07017
860.207,0.06794
854.421,0.06556
848.635,0.06563
842.849,0.06704
837.062,0.06844
831.276,0.07762
825.49,0.08347
819.704,0.08207
813.918,0.08409
808.132,0.08460
802.346,0.08272
796.559,0.07904
790.773,0.07702
784.987,0.07479
779.201,0.07331
773.415,0.07407
767.629,0.07749
761.843,0.07885
756.056,0.07935
750.27,0.07946
744.484,0.07840
738.698,0.07752
732.912,0.07752
727.126,0.07630
721.34,0.07563
715.553,0.07516
709.767,0.07630
703.981,0.07725
698.195,0.07705
692.409,0.07587
686.623,0.07590
680.837,0.07673
675.05,0.07343
669.264,0.07457
663.478,0.07445
657.692,0.07369
651.906,0.07347
646.12,0.07234
640.333,0.07000
634.547,0.07260
628.761,0.07068
622.975,0.07029
617.189,0.07044
611.403,0.07152
605.617,0.06750
599.83,0.06901