File: 01_Data/Helmet_Buckle/STA/N2/30K_min/Helmet_Buckle_STA_N2_30KData_250304_R2.csv
Temp./C,Time/min,DSC/(mW/mg),Mass loss/mg
60.0,0.0,1.68164,-0.0038214
60.5,0.0309908,1.73498,-0.00436253
61,0.0625916,1.798,-0.00301513
61.5,0.0922781,1.85625,-0.00289172
62,0.122206,1.91949,-0.00324811
62.5,0.151069,1.96763,-0.00320683
63,0.17859,2.01458,-0.00379288
63.5,0.206451,2.07566,-0.00323676
64,0.233241,2.13423,-0.0030725
64.5,0.260306,2.18699,-0.00220164
65,0.287832,2.24038,-0.00229531
65.5,0.314442,2.28181,-0.00238489
66,0.339913,2.34072,-0.00260854
66.5,0.365438,2.38067,-0.00265909
67,0.390275,2.42948,-0.00326854
67.5,0.415765,2.4838,-0.00288689
68,0.439948,2.52997,-0.00249924
68.5,0.463852,2.57347,-0.00286161
69,0.488297,2.60751,-0.00315832
69.5,0.512114,2.65555,-0.00345327
70,0.536038,2.69263,-0.00277449
70.5,0.557777,2.72555,-0.00330129
71,0.580647,2.75838,-0.00380063
71.5,0.603183,2.78895,-0.00481211
72,0.627493,2.81009,-0.00521847
72.5,0.650157,2.8257,-0.00528987
73,0.672546,2.84019,-0.00482241
73.5,0.695441,2.84177,-0.00408831
74,0.716609,2.85006,-0.00375244
74.5,0.738427,2.85939,-0.00408351
75,0.760781,2.85523,-0.0042873
75.5,0.781984,2.85956,-0.00434769
76,0.804141,2.85505,-0.00435451
76.5,0.825323,2.85789,-0.00502757
77,0.84672,2.85474,-0.00585552
77.5,0.867678,2.85344,-0.00576558
78,0.888881,2.8537,-0.00548723
78.5,0.909733,2.85112,-0.00558344
79,0.930653,2.8551,-0.00454705
79.5,0.951909,2.85907,-0.00411767
80,0.972671,2.87423,-0.00421247
80.5,0.993195,2.87331,-0.00441085
81,1.0135,2.87966,-0.00426654
81.5,1.03386,2.89579,-0.00480667
82,1.05436,2.89919,-0.00453268
82.5,1.07526,2.91661,-0.00565798
83,1.09499,2.93827,-0.00626542
83.5,1.1151,2.93708,-0.00629344
84,1.13446,2.94759,-0.00540154
84.5,1.15575,2.96836,-0.00438998
85,1.17539,2.98817,-0.0052763
85.5,1.19522,3.00055,-0.00462088
86,1.21472,3.01628,-0.00442809
86.5,1.2345,3.03725,-0.00538453
87,1.25479,3.05346,-0.0053798
87.5,1.27368,3.06364,-0.00493537
88,1.29402,3.08363,-0.00526886
88.5,1.31348,3.10607,-0.00525342
89,1.33302,3.12718,-0.00400535
89.5,1.35183,3.15047,-0.00470403
90,1.3714,3.16091,-0.00433196
90.5,1.39041,3.17235,-0.00521209
91,1.40974,3.1901,-0.00397882
91.5,1.42881,3.214,-0.00365966
92,1.44796,3.23495,-0.00443108
92.5,1.4668,3.25108,-0.00422339
93,1.48565,3.26762,-0.00552722
93.5,1.50508,3.27762,-0.00418697
94,1.52395,3.30054,-0.00537923
94.5,1.54234,3.31842,-0.00382328
95,1.5609,3.33729,-0.00375461
95.5,1.58056,3.36267,-0.00359632
96,1.59896,3.36932,-0.00391315
96.5,1.61766,3.37857,-0.00323558
97,1.63599,3.40652,-0.00405392
97.5,1.65465,3.42289,-0.00548407
98,1.67312,3.44073,-0.00447742
98.5,1.69176,3.45284,-0.00568973
99,1.70998,3.47314,-0.00535326
99.5,1.72876,3.49072,-0.00558117
100,1.7466,3.49881,-0.00506616
100.5,1.76456,3.53007,-0.0053523
101,1.78324,3.53682,-0.00544902
101.5,1.80166,3.5503,-0.00531085
102,1.82014,3.56449,-0.00537044
102.5,1.83864,3.58083,-0.00550053
103,1.85635,3.60015,-0.00658674
103.5,1.87451,3.61286,-0.00601011
104,1.89257,3.63138,-0.00689872
104.5,1.91081,3.64785,-0.00693373
105,1.92844,3.66784,-0.00711553
105.5,1.94726,3.68343,-0.00582116
106,1.96463,3.69845,-0.00612243
106.5,1.98284,3.71348,-0.00665845
107,2.00077,3.72315,-0.00580174
107.5,2.01939,3.74121,-0.00650432
108,2.03719,3.75286,-0.00711341
108.5,2.05487,3.76406,-0.00635905
109,2.07275,3.7807,-0.0070277
109.5,2.0911,3.79508,-0.00608055
110,2.10872,3.81452,-0.00562401
110.5,2.12677,3.82705,-0.00498673
111,2.14432,3.84233,-0.00424508
111.5,2.16214,3.85419,-0.00420249
112,2.17997,3.86185,-0.00549028
112.5,2.19752,3.88388,-0.00491367
113,2.21556,3.9006,-0.00425076
113.5,2.23308,3.91384,-0.00438755
114,2.25066,3.91933,-0.00571791
114.5,2.2683,3.92906,-0.00485336
115,2.28607,3.94701,-0.00425694
115.5,2.30401,3.95885,-0.00426081
116,2.32122,3.97948,-0.00419291
116.5,2.33886,3.98915,-0.00534704
117,2.35638,3.99961,-0.0056128
117.5,2.37359,4.01561,-0.00427718
118,2.39073,4.02737,-0.00370089
118.5,2.40905,4.04648,-0.00204584
119,2.42644,4.05849,-0.00186337
119.5,2.44464,4.06175,-0.00168175
120,2.46118,4.07945,-0.0044558
120.5,2.4789,4.09701,-0.00476189
121,2.49625,4.10366,-0.00598373
121.5,2.51348,4.12717,-0.00596362
122,2.53119,4.13592,-0.00694867
122.5,2.54743,4.15606,-0.00735744
123,2.56506,4.16285,-0.0068838
123.5,2.58281,4.17851,-0.0060538
124,2.60017,4.1962,-0.00740654
124.5,2.61756,4.21443,-0.00734761
125,2.63486,4.23036,-0.00689233
125.5,2.65179,4.242,-0.00598642
126,2.66916,4.244,-0.00604733
126.5,2.68575,4.26661,-0.00661637
127,2.70353,4.27847,-0.00597326
127.5,2.72027,4.29053,-0.00603489
128,2.73723,4.30256,-0.00604007
128.5,2.75437,4.32187,-0.00602532
129,2.77131,4.332,-0.00584332
129.5,2.78825,4.33783,-0.00499008
130,2.80549,4.35672,-0.00610164
130.5,2.8217,4.36496,-0.00603792
131,2.83921,4.3836,-0.00603001
131.5,2.8559,4.39859,-0.00593006
132,2.873,4.41475,-0.00724886
132.5,2.88963,4.41523,-0.00739732
133,2.90658,4.42898,-0.00642767
133.5,2.9234,4.44527,-0.00602552
134,2.93988,4.45689,-0.00602964
134.5,2.95684,4.46635,-0.00602999
135,2.97363,4.48058,-0.00602904
135.5,2.98991,4.48929,-0.00602256
136,3.0068,4.49241,-0.00604548
136.5,3.02369,4.51312,-0.00488441
137,3.04011,4.52271,-0.0047147
137.5,3.05682,4.52824,-0.00472458
138,3.07347,4.54667,-0.00358516
138.5,3.08988,4.55531,-0.00341011
139,3.10652,4.56581,-0.00439697
139.5,3.12293,4.57995,-0.00469949
140,3.13962,4.57997,-0.00472067
140.5,3.15605,4.59671,-0.00471648
141,3.17248,4.61802,-0.0046973
141.5,3.18914,4.62222,-0.00528786
142,3.20553,4.63102,-0.00608141
142.5,3.22169,4.64114,-0.0058224
143,3.23805,4.64765,-0.00470021
143.5,3.25467,4.66072,-0.00472736
144,3.27093,4.6751,-0.00472098
144.5,3.2872,4.6904,-0.00472
145,3.30364,4.70029,-0.00471999
145.5,3.32017,4.71239,-0.00472
146,3.33634,4.72229,-0.00471998
146.5,3.35264,4.73377,-0.00471989
147,3.3689,4.7444,-0.0047206
147.5,3.38494,4.75942,-0.00473136
148,3.40106,4.77087,-0.00474816
148.5,3.41736,4.78657,-0.00588221
149,3.43333,4.79592,-0.00612018
149.5,3.44977,4.80795,-0.00487355
150,3.46625,4.82044,-0.00470908
150.5,3.4822,4.83401,-0.00470964
151,3.49815,4.84805,-0.00470978
151.5,3.51417,4.8572,-0.00470726
152,3.53064,4.86929,-0.00471086
152.5,3.54657,4.88149,-0.00502972
153,3.56246,4.88995,-0.00612487
153.5,3.57858,4.89565,-0.00525892
154,3.59472,4.90816,-0.00468061
154.5,3.61066,4.91289,-0.00470607
155,3.62667,4.93366,-0.00471013
155.5,3.64293,4.938,-0.00471007
156,3.65881,4.94575,-0.00471
156.5,3.67472,4.9581,-0.00471
157,3.69093,4.97076,-0.00471
157.5,3.70648,4.9819,-0.00471
158,3.72265,4.99273,-0.00471
158.5,3.73868,4.99848,-0.00471
159,3.75423,5.00736,-0.00471002
159.5,3.77051,5.02038,-0.00471017
160,3.78629,5.02765,-0.00470961
160.5,3.80218,5.04003,-0.00469793
161,3.81846,5.04843,-0.00466881
161.5,3.83377,5.05535,-0.00420133
162,3.84974,5.07237,-0.00474723
162.5,3.8659,5.07899,-0.00472646
163,3.88164,5.08741,-0.00472637
163.5,3.89724,5.1021,-0.00471835
164,3.91327,5.11115,-0.00414808
164.5,3.92922,5.11863,-0.00339547
165,3.94472,5.12883,-0.00339755
165.5,3.96086,5.13268,-0.00340472
166,3.97671,5.14609,-0.0037026
166.5,3.99243,5.15652,-0.00474799
167,4.00793,5.15844,-0.00471258
167.5,4.02381,5.167,-0.00471916
168,4.03987,5.17774,-0.00472006
168.5,4.05535,5.18677,-0.00472002
169,4.07114,5.19436,-0.00472
169.5,4.0868,5.20264,-0.00472
170,4.10265,5.20984,-0.00472
170.5,4.11814,5.22011,-0.00472
171,4.13393,5.22911,-0.00472
171.5,4.14944,5.23818,-0.00472
172,4.16505,5.24607,-0.00472
172.5,4.18078,5.25324,-0.00471995
173,4.19659,5.25853,-0.0047201
173.5,4.21224,5.26778,-0.00472336
174,4.22797,5.26908,-0.00472595
174.5,4.24339,5.27498,-0.00437724
175,4.25918,5.28218,-0.00336013
175.5,4.27461,5.28909,-0.00340793
176,4.29036,5.29114,-0.00340098
176.5,4.30607,5.29996,-0.00339994
177,4.32176,5.31467,-0.00339998
177.5,4.33764,5.30776,-0.0034
178,4.35292,5.32473,-0.0034
178.5,4.36824,5.33375,-0.00339999
179,4.38405,5.33965,-0.00340012
179.5,4.39966,5.34652,-0.00340083
180,4.41471,5.36007,-0.00339367
180.5,4.43057,5.36587,-0.00334412
181,4.44598,5.37209,-0.00426568
181.5,4.4615,5.38127,-0.00472867
182,4.47645,5.38511,-0.00562443
182.5,4.49217,5.39146,-0.00601569
183,4.50836,5.3989,-0.00603391
183.5,4.52324,5.40901,-0.00612844
184,4.53891,5.4221,-0.00741791
184.5,4.55418,5.42846,-0.00732946
185,4.56991,5.42657,-0.00750792
185.5,4.58512,5.43831,-0.00886941
186,4.60048,5.45585,-0.00747312
186.5,4.61596,5.4526,-0.00734525
187,4.63116,5.46936,-0.00732931
187.5,4.64677,5.47433,-0.00737697
188,4.66194,5.48668,-0.00611151
188.5,4.67718,5.49666,-0.00602884
189,4.69276,5.5026,-0.00602827
189.5,4.70788,5.51391,-0.00607928
190,4.72244,5.52322,-0.00527871
190.5,4.73843,5.53062,-0.00466832
191,4.75359,5.53172,-0.00470832
191.5,4.76931,5.54457,-0.00471066
192,4.78416,5.54833,-0.00471014
192.5,4.79969,5.55494,-0.0047093
193,4.81495,5.56026,-0.00470609
193.5,4.83001,5.56929,-0.00489827
194,4.84554,5.58075,-0.00612737
194.5,4.86039,5.58922,-0.00602174
195,4.87605,5.59668,-0.00602813
195.5,4.89105,5.60672,-0.00603014
196,4.90611,5.6072,-0.00603004
196.5,4.92144,5.62189,-0.00603
197,4.93666,5.63667,-0.00603
197.5,4.95212,5.6395,-0.00603
198,4.96718,5.65375,-0.00603
198.5,4.9825,5.65828,-0.00602996
199,4.99767,5.66196,-0.00602997
199.5,5.01266,5.67203,-0.00603188
200,5.0282,5.67744,-0.00603414
200.5,5.04294,5.68587,-0.00587302
201,5.05845,5.69311,-0.00535536
201.5,5.07342,5.69862,-0.00537561
202,5.08867,5.71004,-0.00537031
202.5,5.10395,5.71054,-0.0053699
203,5.11889,5.71371,-0.00536998
203.5,5.13409,5.72369,-0.00536993
204,5.14896,5.73294,-0.00537066
204.5,5.16426,5.74319,-0.00537432
205,5.17851,5.74945,-0.00533528
205.5,5.19381,5.76098,-0.00573092
206,5.20921,5.77052,-0.00569552
206.5,5.2252,5.77768,-0.00569935
207,5.24018,5.7824,-0.00570032
207.5,5.25482,5.79334,-0.00570301
208,5.27013,5.80654,-0.00568649
208.5,5.28539,5.81654,-0.00625313
209,5.30035,5.81969,-0.00664983
209.5,5.31544,5.82326,-0.00750492
210,5.3307,5.83067,-0.00801806
210.5,5.34571,5.8472,-0.00800958
211,5.36084,5.85941,-0.00800853
211.5,5.37596,5.86164,-0.00797326
212,5.39096,5.87188,-0.00677432
212.5,5.40593,5.88644,-0.0067162
213,5.42066,5.89382,-0.00668217
213.5,5.43635,5.90263,-0.00694564
214,5.45088,5.911,-0.00810776
214.5,5.46545,5.92002,-0.00800151
215,5.48153,5.94084,-0.00800677
215.5,5.49628,5.94325,-0.00801353
216,5.5115,5.95224,-0.00808309
216.5,5.52643,5.9606,-0.00710189
217,5.54159,5.96931,-0.00668291
217.5,5.55691,5.97871,-0.00668857
218,5.57199,6.00175,-0.00669046
218.5,5.5868,6.00883,-0.00677472
219,5.60178,6.02555,-0.00582281
219.5,5.61712,6.03969,-0.00439106
220,5.63208,6.04906,-0.00404474
220.5,5.64712,6.0566,-0.00405018
221,5.6621,6.06457,-0.00405011
221.5,5.677,6.08599,-0.00405
222,5.69207,6.09874,-0.00404998
222.5,5.70724,6.11783,-0.00404998
223,5.72177,6.12952,-0.0040509
223.5,5.73721,6.13287,-0.00405125
224,5.75241,6.14495,-0.00400221
224.5,5.76721,6.16035,-0.00462116
225,5.78198,6.18423,-0.0063597
225.5,5.79754,6.20158,-0.00669867
226,5.81229,6.22004,-0.00668807
226.5,5.82733,6.23346,-0.00668901
227,5.84216,6.23927,-0.00673514
227.5,5.85742,6.26069,-0.00606262
228,5.87251,6.2817,-0.00441001
228.5,5.88736,6.28671,-0.00224665
229,5.9024,6.30012,-0.00235789
229.5,5.91739,6.31433,-0.00231082
230,5.9324,6.33786,-0.00379876
230.5,5.94733,6.35761,-0.00445552
231,5.96212,6.36144,-0.00586437
231.5,5.97668,6.371,-0.00592219
232,5.99176,6.38227,-0.00592015
232.5,6.00733,6.39502,-0.00591997
233,6.02221,6.42065,-0.00592
233.5,6.03718,6.44284,-0.00592
234,6.05221,6.45454,-0.00592
234.5,6.06742,6.46899,-0.00592
235,6.08211,6.48618,-0.00591997
235.5,6.09718,6.50039,-0.00592001
236,6.11219,6.51245,-0.00592172
236.5,6.12727,6.52823,-0.00591976
237,6.14214,6.54616,-0.00583131
237.5,6.15712,6.57615,-0.00689214
238,6.17219,6.59884,-0.00724732
238.5,6.18688,6.61289,-0.00723985
239,6.20217,6.64271,-0.00723986
239.5,6.217,6.67679,-0.00724
240,6.23214,6.71632,-0.00724
240.5,6.24727,6.74959,-0.00724002
241,6.26223,6.78697,-0.00723989
241.5,6.27669,6.82947,-0.00723899
242,6.2922,6.88065,-0.00724596
242.5,6.30751,6.93011,-0.00728556
243,6.32254,6.98956,-0.00651053
243.5,6.33739,7.05349,-0.00591277
244,6.35273,7.13112,-0.00592744
244.5,6.36771,7.19746,-0.00596101
245,6.38305,7.28355,-0.00524801
245.5,6.3986,7.38603,-0.00460384
246,6.4137,7.49496,-0.00461143
246.5,6.42925,7.61955,-0.00461055
247,6.44423,7.75846,-0.0046052
247.5,6.45976,7.91634,-0.00499709
248,6.47568,8.10143,-0.00598564
248.5,6.49088,8.30713,-0.0059261
249,6.50652,8.53615,-0.00591856
249.5,6.5222,8.7899,-0.0059199
250,6.53831,9.06337,-0.00592003
250.5,6.55405,9.36821,-0.00592
251,6.57017,9.70259,-0.00591995
251.5,6.58645,10.0442,-0.00592013
252,6.60248,10.3943,-0.00592386
252.5,6.61849,10.7607,-0.00593254
253,6.63448,11.1172,-0.00546181
253.5,6.65084,11.4834,-0.00491292
254,6.66694,11.8518,-0.00493025
254.5,6.68308,12.2188,-0.00493028
255,6.69935,12.5982,-0.00493335
255.5,6.71585,12.9741,-0.00493047
256,6.73171,13.3319,-0.00468938
256.5,6.74815,13.7053,-0.00363121
257,6.76446,14.0735,-0.00363029
257.5,6.78054,14.4592,-0.00427371
258,6.7967,14.8405,-0.00495138
258.5,6.81306,15.2255,-0.00494626
259,6.82929,15.598,-0.00494044
259.5,6.84538,15.941,-0.00493994
260,6.86099,16.2,-0.00493999
260.5,6.87619,16.266,-0.00494
261,6.88997,16.026,-0.00494
261.5,6.90328,15.4884,-0.00494
262,6.91576,14.8205,-0.00494
262.5,6.92858,14.1159,-0.00493999
263,6.94111,13.4723,-0.00494014
263.5,6.95372,12.8765,-0.00493927
264,6.96695,12.3125,-0.0049405
264.5,6.98034,11.7871,-0.00496005
265,6.99373,11.3069,-0.00472259
265.5,7.00689,10.87,-0.00460756
266,7.02062,10.4637,-0.00460761
266.5,7.03414,10.1066,-0.00461043
267,7.04747,9.77066,-0.00461001
267.5,7.06137,9.4523,-0.00460976
268,7.07521,9.16122,-0.00461087
268.5,7.08917,8.89417,-0.00461515
269,7.1029,8.64355,-0.00455325
269.5,7.11699,8.41926,-0.00524054
270,7.13117,8.22614,-0.00598026
270.5,7.14528,8.04378,-0.00597052
271,7.15958,7.87999,-0.00528646
271.5,7.17378,7.7378,-0.00455598
272,7.18799,7.59388,-0.00461499
272.5,7.20223,7.46487,-0.00545567
273,7.21666,7.34442,-0.00593075
273.5,7.231,7.23406,-0.00592688
274,7.2455,7.14259,-0.00591938
274.5,7.26005,7.06905,-0.00591988
275,7.2744,6.97638,-0.00592002
275.5,7.28885,6.9154,-0.00592
276,7.30359,6.83985,-0.00592
276.5,7.31807,6.78811,-0.00592
277,7.33234,6.73345,-0.00592
277.5,7.34727,6.67988,-0.00592
278,7.3617,6.64959,-0.00592
278.5,7.37642,6.60254,-0.00591997
279,7.39086,6.5668,-0.00592024
279.5,7.40569,6.54293,-0.00592129
280,7.42049,6.51954,-0.00590716
280.5,7.43503,6.49355,-0.00589017
281,7.44964,6.46694,-0.00481502
281.5,7.46455,6.44392,-0.00460487
282,7.47914,6.42629,-0.00459639
282.5,7.49363,6.4034,-0.00459998
283,7.50863,6.38542,-0.00460007
283.5,7.52334,6.37673,-0.0046
284,7.53811,6.35949,-0.0046
284.5,7.55269,6.34167,-0.0046
285,7.56745,6.32337,-0.0046
285.5,7.58226,6.32589,-0.0046
286,7.59673,6.31522,-0.0046
286.5,7.61179,6.31301,-0.00459997
287,7.62648,6.30313,-0.00460007
287.5,7.64142,6.28912,-0.00460137
288,7.65601,6.28462,-0.00459487
288.5,7.67096,6.27629,-0.00453238
289,7.68547,6.26915,-0.00545183
289.5,7.70041,6.25829,-0.005383
290,7.71501,6.25031,-0.00455052
290.5,7.72999,6.2517,-0.0046052
291,7.74476,6.25171,-0.00460066
291.5,7.75972,6.24205,-0.00459781
292,7.7744,6.23577,-0.00461553
292.5,7.78927,6.23091,-0.00469119
293,7.80418,6.22994,-0.0055381
293.5,7.81868,6.23467,-0.00558719
294,7.83367,6.22789,-0.00559097
294.5,7.84839,6.22296,-0.00559009
295,7.86306,6.21983,-0.0055891
295.5,7.87823,6.22312,-0.00558793
296,7.89282,6.22251,-0.00563508
296.5,7.9076,6.21576,-0.00478671
297,7.92249,6.21789,-0.00372599
297.5,7.93739,6.21723,-0.002725
298,7.95177,6.2043,-0.00229574
298.5,7.96697,6.20818,-0.00346346
299,7.98181,6.2018,-0.00428666
299.5,7.99682,6.20845,-0.00556375
300,8.01115,6.21627,-0.00560925
300.5,8.02635,6.21443,-0.00684362
301,8.04102,6.20663,-0.00688385
301.5,8.05588,6.20794,-0.00691194
302,8.0706,6.21104,-0.00691052
302.5,8.08557,6.20741,-0.00690996
303,8.10025,6.19907,-0.00690999
303.5,8.11525,6.20597,-0.00690999
304,8.12996,6.20334,-0.00690993
304.5,8.14463,6.21114,-0.00691048
305,8.15967,6.20389,-0.00691332
305.5,8.17443,6.20506,-0.00676576
306,8.18938,6.19737,-0.00550738
306.5,8.20421,6.20419,-0.00559651
307,8.21881,6.20754,-0.00563326
307.5,8.23368,6.2047,-0.00478929
308,8.24852,6.20444,-0.00459969
308.5,8.26363,6.2016,-0.00465973
309,8.2782,6.19899,-0.00387828
309.5,8.29311,6.20625,-0.00324717
310,8.308,6.20285,-0.00329155
310.5,8.32277,6.19923,-0.00320438
311,8.33766,6.1974,-0.00430894
311.5,8.35266,6.19515,-0.00473076
312,8.36765,6.19477,-0.00471498
312.5,8.38221,6.19501,-0.0051744
313,8.39721,6.19473,-0.00603948
313.5,8.41188,6.18995,-0.0060381
314,8.42662,6.19101,-0.00604006
314.5,8.44177,6.19165,-0.00604001
315,8.45625,6.19342,-0.00604007
315.5,8.47148,6.18988,-0.00604146
316,8.48624,6.18897,-0.00603641
316.5,8.501,6.18836,-0.00597111
317,8.51572,6.18935,-0.00687262
317.5,8.53088,6.19109,-0.00735906
318,8.54599,6.19749,-0.00734938
318.5,8.56031,6.19491,-0.00734983
319,8.57561,6.19281,-0.00735002
319.5,8.59017,6.19279,-0.00735009
320,8.60515,6.18576,-0.0073495
320.5,8.61992,6.18521,-0.00734582
321,8.6348,6.19092,-0.00751304
321.5,8.64952,6.18537,-0.00874831
322,8.66457,6.18966,-0.00865577
322.5,8.67938,6.19418,-0.00866856
323,8.69461,6.1975,-0.00867026
323.5,8.70926,6.20171,-0.00867003
324,8.72421,6.19969,-0.00867002
324.5,8.73883,6.20451,-0.00867009
325,8.7538,6.20376,-0.00866876
325.5,8.76893,6.20512,-0.00866495
326,8.78374,6.2024,-0.00873268
326.5,8.79887,6.20334,-0.00792182
327,8.81368,6.20779,-0.00766799
327.5,8.8286,6.20439,-0.00767927
328,8.84335,6.20501,-0.00768002
328.5,8.85809,6.21128,-0.00768248
329,8.87324,6.20631,-0.0076909
329.5,8.88834,6.20231,-0.007401
330,8.90308,6.20439,-0.00789805
330.5,8.91805,6.20824,-0.00878495
331,8.93285,6.20457,-0.00880084
331.5,8.94772,6.19703,-0.00880489
332,8.96263,6.19843,-0.0100528
332.5,8.97761,6.19352,-0.0100863
333,8.9927,6.19438,-0.0100186
333.5,9.00727,6.1945,-0.00891843
334,9.02265,6.19257,-0.00879056
334.5,9.03748,6.20551,-0.00877758
335,9.05208,6.21442,-0.00877979
335.5,9.06709,6.21205,-0.00878005
336,9.08199,6.20727,-0.00878
336.5,9.09697,6.20314,-0.00878
337,9.11185,6.20857,-0.00878
337.5,9.12697,6.20639,-0.00878
338,9.14164,6.20719,-0.00877998
338.5,9.15678,6.21024,-0.00878002
339,9.17184,6.21951,-0.00878089
339.5,9.18666,6.22521,-0.00877861
340,9.20153,6.22658,-0.00873736
340.5,9.2168,6.2265,-0.00939515
341,9.2317,6.2308,-0.0101381
341.5,9.2466,6.23202,-0.0100884
342,9.26188,6.23958,-0.0100892
342.5,9.27682,6.23402,-0.0100899
343,9.29159,6.23532,-0.0100844
343.5,9.30662,6.23358,-0.0100995
344,9.32149,6.23398,-0.0104573
344.5,9.33634,6.23626,-0.0114048
345,9.35136,6.24478,-0.011408
345.5,9.36602,6.24719,-0.0114101
346,9.38141,6.25069,-0.0114097
346.5,9.39631,6.25078,-0.0114108
347,9.41131,6.24949,-0.0114295
347.5,9.42656,6.2495,-0.0113801
348,9.44141,6.2581,-0.0126398
348.5,9.45634,6.26588,-0.0121878
349,9.47122,6.27323,-0.0114099
349.5,9.48619,6.27729,-0.0114111
350,9.50121,6.28227,-0.0114089
350.5,9.51632,6.28421,-0.0114124
351,9.53163,6.28924,-0.010592
351.5,9.54644,6.30258,-0.00996159
352,9.56141,6.29787,-0.00993055
352.5,9.5765,6.29734,-0.010601
353,9.59129,6.30137,-0.0125477
353.5,9.60667,6.30207,-0.0148954
354,9.62141,6.30661,-0.0150609
354.5,9.63636,6.31802,-0.0164175
355,9.65132,6.31945,-0.0166226
355.5,9.6667,6.32352,-0.0179641
356,9.68162,6.33483,-0.0178949
356.5,9.6966,6.33593,-0.0190305
357,9.71185,6.34021,-0.0182511
357.5,9.72678,6.35096,-0.0179954
358,9.74188,6.3615,-0.0179996
358.5,9.75702,6.36216,-0.0180001
359,9.77223,6.36511,-0.0180001
359.5,9.78751,6.37162,-0.018
360,9.80212,6.38359,-0.0179942
360.5,9.81745,6.3891,-0.0183408
361,9.83221,6.39654,-0.0195129
361.5,9.84745,6.40543,-0.0194187
362,9.86255,6.4173,-0.0198967
362.5,9.87702,6.41238,-0.020739
363,9.89274,6.42351,-0.0207315
363.5,9.90764,6.42816,-0.0210961
364,9.92276,6.43749,-0.022149
364.5,9.93788,6.44821,-0.0220634
365,9.95298,6.46196,-0.0220062
365.5,9.96815,6.47593,-0.0227881
366,9.98321,6.48573,-0.0234211
366.5,9.99833,6.49422,-0.0233805
367,10.0135,6.51408,-0.0234058
367.5,10.0285,6.52941,-0.0234588
368,10.0437,6.54963,-0.0246566
368.5,10.0587,6.56454,-0.0246894
369,10.074,6.58441,-0.0246841
369.5,10.0891,6.59104,-0.0251911
370,10.1043,6.58755,-0.0260744
370.5,10.1193,6.60987,-0.0260282
371,10.1345,6.63094,-0.0271006
371.5,10.1496,6.65082,-0.0273038
372,10.1646,6.67027,-0.0273559
372.5,10.18,6.69614,-0.0275313
373,10.1949,6.7174,-0.0287204
373.5,10.2104,6.73251,-0.0288577
374,10.2253,6.75783,-0.0301944
374.5,10.2408,6.78087,-0.0305694
375,10.2559,6.79568,-0.0319132
375.5,10.2708,6.83019,-0.0327597
376,10.2861,6.86234,-0.0337322
376.5,10.3015,6.88401,-0.0345417
377,10.3168,6.91585,-0.0352494
377.5,10.3318,6.95071,-0.0356739
378,10.3471,6.98215,-0.0367713
378.5,10.3621,7.01341,-0.0372515
379,10.3773,7.05314,-0.0383085
379.5,10.3928,7.07982,-0.0395752
380,10.4081,7.11813,-0.0394987
380.5,10.4231,7.14205,-0.0405275
381,10.4385,7.18609,-0.0418295
381.5,10.4537,7.22071,-0.042695
382,10.469,7.26383,-0.0441562
382.5,10.4847,7.31038,-0.0455248
383,10.499,7.35297,-0.0469728
383.5,10.515,7.394,-0.0499151
384,10.5302,7.43224,-0.0514918
384.5,10.5455,7.47704,-0.0528948
385,10.5611,7.51959,-0.0538316
385.5,10.5761,7.5746,-0.0546442
386,10.5916,7.61395,-0.0560044
386.5,10.6065,7.65684,-0.0551792
387,10.6222,7.71035,-0.0567658
387.5,10.6374,7.76593,-0.0577453
388,10.6528,7.80466,-0.0594559
388.5,10.6681,7.84325,-0.0614471
389,10.6835,7.8859,-0.0630527
389.5,10.6988,7.92789,-0.0645038
390,10.714,7.98462,-0.0661029
390.5,10.7292,8.0185,-0.0680573
391,10.7448,8.06537,-0.0699146
391.5,10.7602,8.11474,-0.0716704
392,10.7755,8.16223,-0.0740173
392.5,10.7907,8.21783,-0.0759805
393,10.806,8.24796,-0.0781402
393.5,10.8215,8.30399,-0.0802804
394,10.8372,8.36206,-0.0816515
394.5,10.8523,8.4194,-0.0841506
395,10.868,8.47408,-0.086067
395.5,10.8833,8.55182,-0.0880498
396,10.8986,8.64144,-0.0909696
396.5,10.9145,8.74421,-0.0927675
397,10.9294,8.78859,-0.0953245
397.5,10.9449,8.83616,-0.0981002
398,10.9603,8.87989,-0.100122
398.5,10.9756,8.91784,-0.103891
399,10.9914,8.95953,-0.107356
399.5,11.0066,8.99923,-0.110663
400,11.0219,9.0433,-0.114187
400.5,11.0371,9.0824,-0.116766
401,11.0524,9.12791,-0.119862
401.5,11.0677,9.1751,-0.122164
402,11.0838,9.33499,-0.12523
402.5,11.0992,9.47127,-0.129436
403,11.1148,9.54051,-0.132593
403.5,11.1302,9.60304,-0.13747
404,11.1457,9.64846,-0.142512
404.5,11.161,9.69769,-0.147095
405,11.1766,9.7643,-0.152587
405.5,11.192,9.83166,-0.156429
406,11.2077,9.92701,-0.161284
406.5,11.2233,9.9927,-0.166399
407,11.2387,10.0547,-0.170968
407.5,11.2542,10.1141,-0.177189
408,11.2695,10.1744,-0.181612
408.5,11.285,10.2329,-0.186535
409,11.3007,10.2976,-0.192232
409.5,11.316,10.4155,-0.196461
410,11.3318,10.5198,-0.201686
410.5,11.3472,10.5801,-0.206574
411,11.3629,10.638,-0.212144
411.5,11.378,10.7205,-0.219191
412,11.3936,10.8123,-0.224538
412.5,11.4097,10.8763,-0.230575
413,11.4252,10.9524,-0.235921
413.5,11.4405,11.0337,-0.241288
414,11.4562,11.1351,-0.248665
414.5,11.4717,11.1731,-0.254339
415,11.4872,11.2506,-0.261198
415.5,11.5028,11.3323,-0.269075
416,11.5184,11.3885,-0.275852
416.5,11.5341,11.486,-0.28469
417,11.5497,11.5732,-0.291497
417.5,11.5652,11.6426,-0.299203
418,11.5809,11.7062,-0.308639
418.5,11.5966,11.7834,-0.31613
419,11.6122,11.8548,-0.325213
419.5,11.6276,11.9349,-0.331087
420,11.6433,12.0132,-0.338496
420.5,11.659,12.0909,-0.347835
421,11.6745,12.1594,-0.355757
421.5,11.6899,12.2278,-0.36582
422,11.7055,12.3031,-0.375233
422.5,11.7206,12.3802,-0.383637
423,11.7367,12.4558,-0.394601
423.5,11.7524,12.5359,-0.402948
424,11.7679,12.6037,-0.41256
424.5,11.7837,12.6894,-0.42275
425,11.7993,12.7505,-0.431702
425.5,11.8147,12.8196,-0.443079
426,11.8308,12.8966,-0.452566
426.5,11.846,12.9632,-0.462339
427,11.8616,13.042,-0.472537
427.5,11.8773,13.1038,-0.480492
428,11.893,13.1776,-0.49189
428.5,11.9084,13.2305,-0.503749
429,11.9241,13.2987,-0.51778
429.5,11.9395,13.3685,-0.533243
430,11.9549,13.4163,-0.543873
430.5,11.971,13.4808,-0.557126
431,11.9865,13.5147,-0.568563
431.5,12.0021,13.5734,-0.580097
432,12.0176,13.6694,-0.594579
432.5,12.0333,13.7115,-0.605615
433,12.0485,13.7608,-0.619073
433.5,12.0648,13.8632,-0.633758
434,12.0802,13.9861,-0.646275
434.5,12.0957,13.9542,-0.662475
435,12.1113,13.9836,-0.676084
435.5,12.1274,14.2107,-0.691567
436,12.1435,14.389,-0.707856
436.5,12.1589,14.3833,-0.721122
437,12.1739,14.3402,-0.737889
437.5,12.19,14.3762,-0.752361
438,12.2059,14.59,-0.76834
438.5,12.2214,14.6965,-0.785889
439,12.2372,14.7527,-0.800169
439.5,12.2528,14.7932,-0.817364
440,12.2687,14.8549,-0.833111
440.5,12.2838,14.8542,-0.84903
441,12.3,15.0505,-0.869588
441.5,12.315,15.0346,-0.883974
442,12.3312,15.0686,-0.903375
442.5,12.3462,15.1243,-0.920148
443,12.3629,15.337,-0.938249
443.5,12.3785,15.367,-0.959287
444,12.3946,15.4572,-0.976037
444.5,12.4102,15.5645,-0.996686
445,12.4254,15.5586,-1.01599
445.5,12.4423,15.7595,-1.03634
446,12.458,15.893,-1.05969
446.5,12.4734,15.9007,-1.0766
447,12.4885,15.884,-1.09716
447.5,12.5041,15.8431,-1.1188
448,12.5198,15.8577,-1.13806
448.5,12.5353,15.9304,-1.1624
449,12.5518,16.1526,-1.18234
449.5,12.5674,16.1965,-1.20469
450,12.5829,16.2177,-1.22885
450.5,12.5987,16.286,-1.24985
451,12.6139,16.2719,-1.27547
451.5,12.6298,16.3181,-1.29701
452,12.6454,16.3148,-1.32081
452.5,12.6607,16.3576,-1.34731
453,12.6769,16.4491,-1.36902
453.5,12.6921,16.4661,-1.39492
454,12.708,16.5106,-1.41823
454.5,12.7236,16.5855,-1.44227
455,12.7396,16.6609,-1.4718
455.5,12.7548,16.6759,-1.49311
456,12.7711,16.7692,-1.52218
456.5,12.7867,16.879,-1.54788
457,12.8024,16.9305,-1.5735
457.5,12.8182,16.957,-1.60562
458,12.8338,17.018,-1.62986
458.5,12.8497,17.0998,-1.66075
459,12.8652,17.0998,-1.69005
459.5,12.881,17.1128,-1.71727
460,12.8965,17.1094,-1.75042
460.5,12.9122,17.0881,-1.77586
461,12.9278,17.1224,-1.80639
461.5,12.9431,17.117,-1.83766
462,12.9586,17.0978,-1.86468
462.5,12.9745,17.0964,-1.89962
463,12.9898,17.1299,-1.92677
463.5,13.0054,17.0443,-1.95768
464,13.0208,16.9817,-1.99246
464.5,13.0365,17.0275,-2.01995
465,13.0517,16.9966,-2.05328
465.5,13.0671,16.9509,-2.08239
466,13.0827,16.8872,-2.11137
466.5,13.098,16.8204,-2.14783
467,13.1133,16.7138,-2.17532
467.5,13.1285,16.6243,-2.20848
468,13.1437,16.5336,-2.24167
468.5,13.1593,16.4821,-2.27106
469,13.1748,16.3961,-2.3076
469.5,13.1898,16.2921,-2.33674
470,13.2051,16.195,-2.36908
470.5,13.2203,16.0584,-2.40536
471,13.2351,15.9261,-2.43209
471.5,13.2505,15.7884,-2.46623
472,13.2659,15.657,-2.49799
472.5,13.2805,15.5188,-2.52608
473,13.2961,15.3433,-2.56279
473.5,13.3109,15.1797,-2.5893
474,13.3256,15.0201,-2.61933
474.5,13.3408,14.8432,-2.65491
475,13.3558,14.6491,-2.68184
475.5,13.3705,14.4509,-2.71395
476,13.3854,14.216,-2.74392
476.5,13.4004,13.988,-2.77161
477,13.4153,13.7614,-2.80556
477.5,13.4301,13.5196,-2.83102
478,13.4447,13.2682,-2.85918
478.5,13.4593,13.0035,-2.89102
479,13.4743,12.7399,-2.9155
479.5,13.4888,12.4522,-2.94396
480,13.5037,12.1835,-2.97294
480.5,13.5182,11.8894,-2.9966
481,13.5326,11.5811,-3.02528
481.5,13.5471,11.3018,-3.04876
482,13.5621,11.0006,-3.07356
482.5,13.5765,10.7092,-3.10211
483,13.5912,10.398,-3.12338
483.5,13.6057,10.1016,-3.14744
484,13.6201,9.79164,-3.17393
484.5,13.6344,9.48576,-3.19353
485,13.6489,9.19132,-3.21703
485.5,13.6639,8.88549,-3.24024
486,13.6784,8.56838,-3.2591
486.5,13.693,8.26042,-3.28244
487,13.7076,7.95499,-3.30157
487.5,13.7221,7.65303,-3.32077
488,13.7367,7.35604,-3.34302
488.5,13.7512,7.07657,-3.359
489,13.7658,6.80593,-3.37754
489.5,13.7807,6.52802,-3.3981
490,13.7953,6.25615,-3.41305
490.5,13.81,5.99836,-3.43102
491,13.8247,5.75783,-3.44745
491.5,13.8396,5.49912,-3.46211
492,13.8543,5.26208,-3.47966
492.5,13.8688,5.02741,-3.49273
493,13.8834,4.80846,-3.5066
493.5,13.8988,4.58014,-3.52289
494,13.9136,4.36868,-3.53379
494.5,13.9284,4.16838,-3.54697
495,13.9433,3.97092,-3.56021
495.5,13.9588,3.78263,-3.57171
496,13.9732,3.61174,-3.58432
496.5,13.9884,3.4455,-3.5945
497,14.0033,3.28638,-3.60441
497.5,14.0187,3.11526,-3.61651
498,14.0338,2.96283,-3.62481
498.5,14.049,2.81603,-3.63446
499,14.0641,2.68083,-3.64249
499.5,14.079,2.55363,-3.64864
500,14.0946,2.42608,-3.65726
500.5,14.1098,2.31199,-3.66597
501,14.1248,2.21412,-3.67611
501.5,14.1403,2.1127,-3.68735
502,14.1555,1.99055,-3.69395
502.5,14.1708,1.89031,-3.70153
503,14.1861,1.79896,-3.70821
503.5,14.2016,1.71038,-3.71485
504,14.2168,1.62526,-3.7223
504.5,14.2323,1.54164,-3.72728
505,14.2474,1.46093,-3.73255
505.5,14.2631,1.39379,-3.7379
506,14.2785,1.3365,-3.74256
506.5,14.2939,1.27285,-3.74846
507,14.3095,1.21458,-3.75276
507.5,14.325,1.17524,-3.75687
508,14.3404,1.10175,-3.76065
508.5,14.356,1.04365,-3.76353
509,14.3716,0.985695,-3.7669
509.5,14.3869,0.925924,-3.76919
510,14.4023,0.879669,-3.77135
510.5,14.4183,0.82599,-3.77505
511,14.4334,0.78542,-3.77843
511.5,14.4489,0.744131,-3.78104
512,14.4647,0.707254,-3.78415
512.5,14.4804,0.663702,-3.78629
513,14.4956,0.623144,-3.78764
513.5,14.5116,0.588664,-3.79003
514,14.5274,0.562888,-3.79221
514.5,14.5428,0.525839,-3.79354
515,14.5586,0.487309,-3.79587
515.5,14.5742,0.473472,-3.79711
516,14.5896,0.450234,-3.79899
516.5,14.6056,0.429105,-3.80054
517,14.6212,0.41154,-3.80085
517.5,14.637,0.393329,-3.8023
518,14.6526,0.380424,-3.8026
518.5,14.6683,0.363385,-3.80412
519,14.6842,0.346821,-3.80402
519.5,14.6999,0.332612,-3.80489
520,14.7154,0.324085,-3.80666
520.5,14.7314,0.313908,-3.80671
521,14.747,0.316204,-3.80672
521.5,14.7625,0.308482,-3.807
522,14.7785,0.29971,-3.80764
522.5,14.7943,0.274237,-3.80688
523,14.8101,0.258837,-3.80835
523.5,14.8255,0.244302,-3.80823
524,14.8408,0.235982,-3.80823
524.5,14.8567,0.224266,-3.80825
525,14.8735,0.217723,-3.80864
525.5,14.8884,0.190649,-3.80889
526,14.905,0.187064,-3.80884
526.5,14.9208,0.177514,-3.80964
527,14.9367,0.173884,-3.80956
527.5,14.9521,0.165087,-3.80955
528,14.9682,0.168445,-3.80996
528.5,14.984,0.166919,-3.81095
529,15,0.1801,-3.81089
529.5,15.0158,0.188535,-3.81088
530,15.0318,0.184393,-3.81088
530.5,15.0474,0.184946,-3.81088
531,15.0633,0.187226,-3.81088
531.5,15.0792,0.189509,-3.81088
532,15.0953,0.176927,-3.81088
532.5,15.1108,0.184551,-3.81088
533,15.1266,0.184151,-3.81088
533.5,15.1426,0.183723,-3.81088
534,15.1582,0.185379,-3.81087
534.5,15.1742,0.191981,-3.81065
535,15.1902,0.183621,-3.80954
535.5,15.2062,0.176645,-3.80958
536,15.222,0.177156,-3.80957
536.5,15.2377,0.178372,-3.80957
537,15.2537,0.17934,-3.80952
537.5,15.2696,0.176573,-3.81042
538,15.2857,0.177738,-3.81091
538.5,15.3013,0.165657,-3.81089
539,15.317,0.15928,-3.81089
539.5,15.3333,0.158661,-3.81084
540,15.3489,0.15288,-3.81169
540.5,15.3649,0.134673,-3.81235
541,15.3809,0.125204,-3.81234
541.5,15.3967,0.115489,-3.8129
542,15.4127,0.114395,-3.81295
542.5,15.4283,0.115992,-3.81296
543,15.4446,0.110025,-3.81296
543.5,15.4602,0.119001,-3.81296
544,15.4763,0.110161,-3.81296
544.5,15.492,0.103333,-3.81297
545,15.5076,0.0972048,-3.81273
545.5,15.5239,0.0979251,-3.81146
546,15.5398,0.101096,-3.8128
546.5,15.5555,0.102582,-3.81297
547,15.5716,0.0974901,-3.81297
547.5,15.5878,0.0965328,-3.81297
548,15.6034,0.0896393,-3.81297
548.5,15.6195,0.0866072,-3.81297
549,15.6353,0.0947652,-3.81316
549.5,15.651,0.0933003,-3.81438
550,15.6672,0.0947094,-3.81429
550.5,15.6831,0.0879094,-3.81429
551,15.6987,0.0895606,-3.81429
551.5,15.715,0.0923116,-3.8143
552,15.7306,0.0930771,-3.81433
552.5,15.747,0.0925535,-3.8135
553,15.7625,0.0832814,-3.81333
553.5,15.7785,0.0894712,-3.8133
554,15.7946,0.0943198,-3.8133
554.5,15.8107,0.0935634,-3.8133
555,15.8263,0.0944152,-3.8133
555.5,15.8425,0.0916105,-3.8133
556,15.8586,0.10097,-3.8133
556.5,15.8744,0.113764,-3.81322
557,15.8898,0.126253,-3.81487
557.5,15.9053,0.125318,-3.81671
558,15.9223,0.135429,-3.81803
558.5,15.9382,0.122411,-3.81917
559,15.9541,0.117177,-3.8192
559.5,15.97,0.120887,-3.8172
560,15.986,0.116173,-3.81494
560.5,16.0021,0.111303,-3.81398
561,16.0179,0.116238,-3.81279
561.5,16.0341,0.114904,-3.81272
562,16.0496,0.113997,-3.8136
562.5,16.0658,0.12086,-3.81407
563,16.0816,0.126218,-3.81406
563.5,16.0978,0.126064,-3.81406
564,16.1138,0.116557,-3.81397
564.5,16.1298,0.108301,-3.81521
565,16.1456,0.118143,-3.81539
565.5,16.1617,0.116902,-3.81543
566,16.1779,0.115877,-3.81478
566.5,16.1938,0.115941,-3.81474
567,16.2095,0.115349,-3.81472
567.5,16.225,0.119602,-3.81472
568,16.2414,0.118469,-3.81472
568.5,16.2575,0.120937,-3.81472
569,16.2732,0.119957,-3.81472
569.5,16.2897,0.118136,-3.81472
570,16.3057,0.115152,-3.81473
570.5,16.3215,0.118015,-3.81485
571,16.3376,0.111818,-3.816
571.5,16.353,0.11469,-3.81603
572,16.3687,0.119446,-3.81604
572.5,16.3855,0.120449,-3.81604
573,16.4015,0.124457,-3.81604
573.5,16.4173,0.122505,-3.81604
574,16.4336,0.123988,-3.81604
574.5,16.4493,0.119932,-3.81604
575,16.4653,0.127735,-3.81604
575.5,16.481,0.128566,-3.81604
576,16.4969,0.129099,-3.81604
576.5,16.5127,0.132269,-3.81604
577,16.529,0.124505,-3.81604
577.5,16.5455,0.131633,-3.81605
578,16.5613,0.132788,-3.81537
578.5,16.5776,0.133707,-3.8147
579,16.5936,0.135328,-3.81473
579.5,16.6095,0.138119,-3.81484
580,16.6256,0.140454,-3.8154
580.5,16.6416,0.136994,-3.81607
581,16.6575,0.139694,-3.81671
581.5,16.6736,0.146587,-3.81671
582,16.6895,0.142507,-3.8167
582.5,16.7059,0.148811,-3.81671
583,16.7218,0.152613,-3.81699
583.5,16.7378,0.150541,-3.81736
584,16.7539,0.150075,-3.81736
584.5,16.7701,0.167123,-3.81737
585,16.7859,0.164311,-3.81733
585.5,16.802,0.162293,-3.81839
586,16.818,0.165701,-3.81868
586.5,16.8342,0.169655,-3.81868
587,16.8502,0.17374,-3.81868
587.5,16.8663,0.178772,-3.81868
588,16.8823,0.179342,-3.81868
588.5,16.898,0.179357,-3.81868
589,16.9143,0.188748,-3.81868
589.5,16.9305,0.188171,-3.81868
590,16.9465,0.19231,-3.81868
590.5,16.9623,0.190831,-3.81861
591,16.9782,0.193367,-3.81733
591.5,16.9946,0.200764,-3.81738
592,17.0109,0.194635,-3.81736
592.5,17.027,0.197818,-3.81736
593,17.0428,0.199057,-3.81736
593.5,17.059,0.204172,-3.81736
594,17.0749,0.205214,-3.81735
594.5,17.0911,0.213404,-3.81796
595,17.1072,0.212159,-3.81834
595.5,17.1233,0.218212,-3.81834
596,17.1394,0.221364,-3.81834
596.5,17.1554,0.223614,-3.81834
597,17.1718,0.227445,-3.81834
597.5,17.1877,0.226658,-3.81834
598,17.2038,0.231624,-3.81834
598.5,17.2197,0.248489,-3.81834
599,17.2361,0.236199,-3.81834
599.5,17.252,0.237714,-3.81834
600,17.2683,0.235929,-3.81834
600.5,17.2842,0.235624,-3.81834
601,17.3004,0.244374,-3.81834
601.5,17.3169,0.247781,-3.81834
602,17.3327,0.247508,-3.81834
602.5,17.349,0.253986,-3.81834
603,17.3649,0.256451,-3.81815
603.5,17.381,0.255379,-3.8173
604,17.3973,0.250419,-3.81735
604.5,17.4133,0.258428,-3.81771
605,17.4293,0.261735,-3.81768
605.5,17.4456,0.26202,-3.81768
606,17.4613,0.260786,-3.81768
606.5,17.4776,0.262491,-3.81768
607,17.4942,0.266701,-3.81768
607.5,17.5098,0.263129,-3.81768
608,17.5263,0.262467,-3.81768
608.5,17.5422,0.265107,-3.81771
609,17.5583,0.262249,-3.81776
609.5,17.5745,0.259439,-3.81912
610,17.5907,0.263979,-3.82035
610.5,17.6069,0.26635,-3.82099
611,17.6228,0.261212,-3.82129
611.5,17.6391,0.26765,-3.82183
612,17.6547,0.261083,-3.82075
612.5,17.6716,0.257838,-3.81959
613,17.6874,0.263253,-3.81911
613.5,17.7036,0.263441,-3.81812
614,17.72,0.260365,-3.81679
614.5,17.7363,0.261579,-3.81681
615,17.7522,0.261617,-3.81684
615.5,17.7683,0.267442,-3.81646
616,17.7844,0.268891,-3.81649
616.5,17.8006,0.267798,-3.81648
617,17.8167,0.270799,-3.81648
617.5,17.833,0.265576,-3.81648
618,17.8491,0.26093,-3.81648
618.5,17.8652,0.269504,-3.81648
619,17.8815,0.277049,-3.81651
619.5,17.8975,0.280679,-3.8165
620,17.9136,0.277425,-3.81733
620.5,17.9301,0.279738,-3.81713
621,17.9459,0.278965,-3.81768
621.5,17.9624,0.278331,-3.81851
622,17.9785,0.264172,-3.81847
622.5,17.9946,0.26307,-3.8184
623,18.0108,0.262158,-3.81927
623.5,18.027,0.262648,-3.81977
624,18.0431,0.24682,-3.81977
624.5,18.0587,0.247066,-3.81978
625,18.0748,0.241937,-3.81978
625.5,18.0915,0.248555,-3.81978
626,18.1077,0.23658,-3.81978
626.5,18.1242,0.238759,-3.81978
627,18.1403,0.24178,-3.81978
627.5,18.1564,0.239739,-3.81978
628,18.1728,0.236418,-3.81978
628.5,18.1889,0.239781,-3.81978
629,18.2048,0.239853,-3.81978
629.5,18.2211,0.242722,-3.81977
630,18.2375,0.231936,-3.81978
630.5,18.2536,0.233917,-3.81907
631,18.27,0.232326,-3.81912
631.5,18.2861,0.227739,-3.81912
632,18.3023,0.231765,-3.81912
632.5,18.3184,0.233462,-3.81912
633,18.3348,0.236366,-3.81912
633.5,18.3506,0.236495,-3.81912
634,18.367,0.240928,-3.81912
634.5,18.3833,0.247983,-3.81912
635,18.3994,0.248238,-3.81912
635.5,18.416,0.237137,-3.81912
636,18.4319,0.239049,-3.81912
636.5,18.448,0.24448,-3.81912
637,18.4644,0.249249,-3.81912
637.5,18.4805,0.248982,-3.81912
638,18.497,0.248258,-3.81912
638.5,18.5128,0.267096,-3.81912
639,18.5292,0.273722,-3.81912
639.5,18.5455,0.281237,-3.81913
640,18.5616,0.2905,-3.81839
640.5,18.5779,0.303036,-3.8178
641,18.594,0.301679,-3.81779
641.5,18.6101,0.298133,-3.8178
642,18.6265,0.302096,-3.8178
642.5,18.6424,0.302275,-3.81779
643,18.6584,0.299619,-3.81823
643.5,18.6745,0.301771,-3.81916
644,18.6912,0.302673,-3.81911
644.5,18.7074,0.297777,-3.81911
645,18.7238,0.293819,-3.81965
645.5,18.74,0.299584,-3.82116
646,18.7563,0.303983,-3.82109
646.5,18.7726,0.301053,-3.82109
647,18.7886,0.298912,-3.82109
647.5,18.805,0.298709,-3.82109
648,18.8213,0.297119,-3.82109
648.5,18.8377,0.297664,-3.82109
649,18.8538,0.297355,-3.82211
649.5,18.87,0.296264,-3.82239
650,18.8863,0.294371,-3.82241
650.5,18.9029,0.294492,-3.82241
651,18.9188,0.293514,-3.82241
651.5,18.9349,0.291869,-3.82241
652,18.9514,0.29607,-3.82241
652.5,18.9676,0.294529,-3.82241
653,18.984,0.299864,-3.82252
653.5,19.0001,0.29862,-3.8214
654,19.0166,0.300451,-3.82207
654.5,19.0326,0.299735,-3.82204
655,19.0489,0.298669,-3.82243
655.5,19.0652,0.302116,-3.82241
656,19.0816,0.308314,-3.82241
656.5,19.0978,0.30516,-3.82241
657,19.1139,0.302063,-3.82241
657.5,19.1302,0.303036,-3.82241
658,19.1465,0.30106,-3.82241
658.5,19.1631,0.299938,-3.82234
659,19.1791,0.299859,-3.82104
659.5,19.1957,0.302742,-3.82131
660,19.2118,0.301612,-3.82249
660.5,19.228,0.300323,-3.8224
661,19.2441,0.296794,-3.8224
661.5,19.2605,0.29892,-3.82237
662,19.2768,0.299495,-3.82296
662.5,19.293,0.297875,-3.82377
663,19.3089,0.29086,-3.82372
663.5,19.3257,0.298758,-3.82372
664,19.3422,0.296764,-3.82372
664.5,19.3582,0.293969,-3.82372
665,19.3748,0.29348,-3.82372
665.5,19.3909,0.290333,-3.82372
666,19.407,0.296727,-3.82372
666.5,19.4232,0.305957,-3.82377
667,19.4395,0.297086,-3.82291
667.5,19.4558,0.29917,-3.82238
668,19.472,0.290088,-3.8224
668.5,19.4882,0.284727,-3.8224
669,19.5047,0.288721,-3.8224
669.5,19.5209,0.301665,-3.8224
670,19.5372,0.287701,-3.8224
670.5,19.5536,0.284027,-3.8224
671,19.5697,0.277236,-3.8224
671.5,19.5862,0.256646,-3.8224
672,19.6026,0.250825,-3.82231
672.5,19.6192,0.249576,-3.82354
673,19.6352,0.247841,-3.82371
673.5,19.6514,0.260133,-3.82279
674,19.6677,0.267891,-3.82384
674.5,19.684,0.263476,-3.82384
675,19.7004,0.258793,-3.82383
675.5,19.7166,0.257153,-3.8241
676,19.733,0.256587,-3.8249
676.5,19.7494,0.262999,-3.82488
677,19.7658,0.251328,-3.82543
677.5,19.7819,0.252092,-3.82585
678,19.7979,0.246345,-3.82582
678.5,19.8138,0.246177,-3.82699
679,19.831,0.253132,-3.82712
679.5,19.8473,0.254864,-3.82713
680,19.8634,0.257996,-3.82718
680.5,19.8801,0.240177,-3.8263
681,19.8962,0.238009,-3.8258
681.5,19.9126,0.232832,-3.82492
682,19.9289,0.232367,-3.82451
682.5,19.9453,0.230749,-3.82449
683,19.9616,0.226633,-3.82449
683.5,19.9778,0.231207,-3.82449
684,19.994,0.223086,-3.82449
684.5,20.0104,0.21573,-3.82446
685,20.0269,0.218371,-3.82511
685.5,20.0432,0.218147,-3.82586
686,20.0599,0.215663,-3.82588
686.5,20.0757,0.218454,-3.82619
687,20.0925,0.216267,-3.82578
687.5,20.1087,0.210436,-3.82581
688,20.1254,0.209155,-3.82581
688.5,20.1416,0.209572,-3.82581
689,20.1582,0.212231,-3.82581
689.5,20.1744,0.211012,-3.82581
690,20.1907,0.209262,-3.82581
690.5,20.2069,0.208045,-3.82581
691,20.2234,0.205465,-3.82581
691.5,20.2396,0.205183,-3.82582
692,20.256,0.205942,-3.82578
692.5,20.2724,0.215689,-3.82687
693,20.2887,0.213031,-3.82712
693.5,20.3053,0.210275,-3.82713
694,20.3216,0.21444,-3.82713
694.5,20.3378,0.23964,-3.82713
695,20.3544,0.249755,-3.82704
695.5,20.3707,0.25068,-3.82774
696,20.3871,0.240549,-3.82711
696.5,20.4033,0.231196,-3.82713
697,20.4199,0.239716,-3.82768
697.5,20.4364,0.2302,-3.82894
698,20.4526,0.234001,-3.8289
698.5,20.4687,0.227872,-3.8289
699,20.4852,0.227268,-3.82848
699.5,20.5016,0.228519,-3.82725
700,20.5179,0.222,-3.82733
700.5,20.5343,0.225556,-3.82607
701,20.5506,0.226956,-3.82603
701.5,20.567,0.223232,-3.82603
702,20.5837,0.220129,-3.82603
702.5,20.6,0.22507,-3.82603
703,20.6164,0.223729,-3.82603
703.5,20.6329,0.222541,-3.82603
704,20.6488,0.22391,-3.82603
704.5,20.6656,0.228842,-3.82603
705,20.682,0.230588,-3.82603
705.5,20.6983,0.224876,-3.82603
706,20.7147,0.23398,-3.82603
706.5,20.7312,0.231509,-3.82606
707,20.7478,0.228992,-3.82737
707.5,20.7638,0.222049,-3.82733
708,20.7806,0.232247,-3.82735
708.5,20.7966,0.23224,-3.82735
709,20.8131,0.230569,-3.82736
709.5,20.8298,0.231618,-3.82682
710,20.8462,0.228384,-3.82601
710.5,20.8627,0.223245,-3.82631
711,20.879,0.219655,-3.82738
711.5,20.8955,0.225932,-3.82734
712,20.9119,0.226031,-3.82734
712.5,20.9283,0.217256,-3.82734
713,20.9447,0.219355,-3.82734
713.5,20.9609,0.221428,-3.82734
714,20.9775,0.229223,-3.82733
714.5,20.994,0.220006,-3.8279
715,21.0103,0.223025,-3.82799
715.5,21.0267,0.231777,-3.828
716,21.0433,0.227349,-3.82803
716.5,21.0596,0.22341,-3.82818
717,21.0763,0.229598,-3.82931
717.5,21.0925,0.231128,-3.82932
718,21.1091,0.224861,-3.82932
718.5,21.1256,0.222093,-3.82932
719,21.1419,0.224944,-3.82932
719.5,21.1588,0.229465,-3.82932
720,21.1749,0.233947,-3.82932
720.5,21.1912,0.220724,-3.82932
721,21.2079,0.221179,-3.82932
721.5,21.2244,0.20279,-3.82922
722,21.2408,0.197874,-3.82792
722.5,21.2572,0.188764,-3.82802
723,21.2735,0.190746,-3.82801
723.5,21.2899,0.200053,-3.82801
724,21.3065,0.198968,-3.82801
724.5,21.3229,0.194263,-3.82801
725,21.3394,0.186537,-3.82801
725.5,21.3554,0.182548,-3.82801
726,21.3723,0.183269,-3.82801
726.5,21.3885,0.193474,-3.82801
727,21.4055,0.209579,-3.82826
727.5,21.4217,0.22217,-3.82843
728,21.4385,0.218768,-3.8279
728.5,21.4548,0.215885,-3.8279
729,21.4712,0.218877,-3.82729
729.5,21.4876,0.220618,-3.82657
730,21.5039,0.217545,-3.82657
730.5,21.5207,0.21617,-3.82658
731,21.537,0.221048,-3.82658
731.5,21.5535,0.219491,-3.82652
732,21.5703,0.221971,-3.82735
732.5,21.5866,0.22361,-3.82852
733,21.6032,0.224733,-3.82927
733.5,21.6199,0.230036,-3.82922
734,21.636,0.225541,-3.82922
734.5,21.6527,0.205764,-3.82922
735,21.669,0.202808,-3.82922
735.5,21.6851,0.189198,-3.82922
736,21.7017,0.189162,-3.82922
736.5,21.7186,0.212664,-3.82922
737,21.7352,0.205276,-3.82941
737.5,21.7517,0.190364,-3.83062
738,21.7681,0.192841,-3.83053
738.5,21.7848,0.202015,-3.83053
739,21.8012,0.0451646,-3.8305
739.5,21.8177,-0.0202219,-3.82921
740,21.8344,-0.0596735,-3.82923