File: 01_Data/Helmet_Buckle/STA/N2/30K_min/Helmet_Buckle_STA_N2_30KData_250228_R1.csv
Temp./C,Time/min,DSC/(mW/mg),Mass loss/mg
60.0,0.0,1.50831,-0.00490941
60.5,0.0305078,1.55498,-0.00430526
61,0.0624512,1.61547,-0.00324681
61.5,0.0925187,1.67982,-0.00411944
62,0.12158,1.7189,-0.00445218
62.5,0.150505,1.77399,-0.00422288
63,0.179064,1.82905,-0.00404568
63.5,0.206515,1.87753,-0.00420679
64,0.233957,1.922,-0.00415798
64.5,0.260632,1.96296,-0.00480226
65,0.2874,2.01453,-0.00476484
65.5,0.313853,2.06897,-0.00443242
66,0.339425,2.11617,-0.00423276
66.5,0.363913,2.15585,-0.00419197
67,0.389254,2.20553,-0.00507407
67.5,0.414087,2.23974,-0.00503055
68,0.439147,2.28997,-0.00460966
68.5,0.46262,2.32863,-0.00489809
69,0.487167,2.36373,-0.00510481
69.5,0.510881,2.40926,-0.0046608
70,0.534147,2.43882,-0.00503546
70.5,0.557602,2.4803,-0.00536255
71,0.581205,2.50438,-0.00586529
71.5,0.604323,2.54145,-0.00679561
72,0.627097,2.55644,-0.00699446
72.5,0.650041,2.5739,-0.00601513
73,0.672187,2.58968,-0.00613632
73.5,0.694429,2.59829,-0.00593387
74,0.716284,2.60064,-0.00639324
74.5,0.738069,2.59205,-0.00661261
75,0.759284,2.59686,-0.00644283
75.5,0.781471,2.59398,-0.00551684
76,0.803514,2.59437,-0.00606852
76.5,0.82483,2.59401,-0.00700858
77,0.845139,2.60272,-0.00744137
77.5,0.866166,2.59304,-0.0075628
78,0.888283,2.58891,-0.00716235
78.5,0.909048,2.60717,-0.00615518
79,0.930674,2.60245,-0.00597628
79.5,0.951197,2.60221,-0.00615464
80,0.971847,2.60294,-0.00656901
80.5,0.992338,2.60473,-0.00599528
81,1.0133,2.60728,-0.00529795
81.5,1.03399,2.61644,-0.00529452
82,1.05411,2.6305,-0.00512127
82.5,1.07433,2.64756,-0.00538209
83,1.09454,2.65598,-0.00606031
83.5,1.11439,2.65465,-0.00609946
84,1.13471,2.66613,-0.00685893
84.5,1.15471,2.6826,-0.00685341
85,1.17507,2.69158,-0.00625376
85.5,1.19459,2.70635,-0.00596919
86,1.21447,2.7275,-0.00543879
86.5,1.23408,2.73549,-0.0052568
87,1.2542,2.74903,-0.0064533
87.5,1.27342,2.76448,-0.00730367
88,1.2934,2.78432,-0.00705204
88.5,1.31275,2.79423,-0.00762019
89,1.33215,2.8151,-0.00800286
89.5,1.35117,2.83561,-0.00777464
90,1.37108,2.8552,-0.00861709
90.5,1.38985,2.86684,-0.00794562
91,1.4096,2.88251,-0.00869715
91.5,1.42848,2.90096,-0.00973997
92,1.44556,2.92079,-0.00962587
92.5,1.46672,2.92716,-0.0103523
93,1.48557,2.94417,-0.010103
93.5,1.50413,2.95967,-0.00932141
94,1.52301,2.98051,-0.00876181
94.5,1.54213,2.99127,-0.00743698
95,1.56069,3.01106,-0.00641712
95.5,1.57944,3.02095,-0.00736005
96,1.59815,3.03808,-0.00618484
96.5,1.61654,3.05469,-0.0065784
97,1.6354,3.06115,-0.00569716
97.5,1.6542,3.07776,-0.00567522
98,1.67272,3.10294,-0.00690818
98.5,1.69074,3.11835,-0.00654006
99,1.70977,3.13007,-0.00709239
99.5,1.72784,3.13845,-0.00737507
100,1.74617,3.15676,-0.00719866
100.5,1.76461,3.16902,-0.00719832
101,1.78298,3.18146,-0.00856983
101.5,1.80136,3.2026,-0.00782872
102,1.81955,3.21596,-0.0072721
102.5,1.83791,3.23125,-0.00730253
103,1.85609,3.2431,-0.00811497
103.5,1.87401,3.25541,-0.00719804
104,1.89249,3.26762,-0.00811384
104.5,1.91048,3.28355,-0.00723707
105,1.92884,3.31088,-0.00726137
105.5,1.94671,3.31676,-0.00715096
106,1.96465,3.33014,-0.00828809
106.5,1.98266,3.34487,-0.00809627
107,2.00055,3.35893,-0.00760395
107.5,2.01851,3.37231,-0.0086407
108,2.03663,3.38618,-0.00760924
108.5,2.05415,3.39467,-0.00827443
109,2.07258,3.40961,-0.0085719
109.5,2.09047,3.42424,-0.00855172
110,2.10797,3.43599,-0.00880268
110.5,2.12556,3.45181,-0.00850346
111,2.14369,3.46595,-0.00947066
111.5,2.1618,3.48027,-0.00923028
112,2.1791,3.49842,-0.00869209
112.5,2.19673,3.50254,-0.00868023
113,2.21476,3.51014,-0.00868144
113.5,2.23211,3.52285,-0.00996815
114,2.25005,3.54748,-0.00997468
114.5,2.26756,3.55323,-0.00856335
115,2.28528,3.57615,-0.00858732
115.5,2.30305,3.58464,-0.00764254
116,2.3208,3.5975,-0.00815271
116.5,2.33822,3.6137,-0.00854559
117,2.35598,3.6224,-0.00857287
117.5,2.37303,3.62953,-0.00763772
118,2.39052,3.63991,-0.00814533
118.5,2.40825,3.65835,-0.00854262
119,2.42569,3.67594,-0.00804717
119.5,2.44313,3.68787,-0.00720085
120,2.46039,3.6956,-0.00722842
120.5,2.47809,3.70141,-0.00722071
121,2.49511,3.711,-0.00602732
121.5,2.51271,3.726,-0.00594486
122,2.53015,3.74672,-0.00597114
122.5,2.54749,3.75479,-0.00730882
123,2.56437,3.77257,-0.00724453
123.5,2.58181,3.78808,-0.00732637
124,2.59872,3.79693,-0.00865965
124.5,2.61616,3.80999,-0.00733907
125,2.63363,3.81881,-0.00726958
125.5,2.65052,3.83151,-0.00727873
126,2.66756,3.8541,-0.00728663
126.5,2.68514,3.85965,-0.00724303
127,2.70198,3.87126,-0.00723681
127.5,2.71877,3.88505,-0.00721267
128,2.73617,3.89089,-0.00785411
128.5,2.75291,3.91236,-0.00865593
129,2.77012,3.92581,-0.00768306
129.5,2.7871,3.93143,-0.00723729
130,2.80403,3.93843,-0.00723773
130.5,2.82018,3.95881,-0.00724328
131,2.83759,3.97041,-0.00724205
131.5,2.85418,3.97305,-0.00658748
132,2.87096,3.98553,-0.00591979
132.5,2.88845,4.00067,-0.00591918
133,2.90415,4.01316,-0.00644104
133.5,2.92194,4.02242,-0.00730193
134,2.93802,4.04453,-0.0072525
134.5,2.955,4.05278,-0.00724962
135,2.97146,4.06171,-0.00724958
135.5,2.98842,4.06946,-0.00724863
136,3.00534,4.08399,-0.00743771
136.5,3.02189,4.09579,-0.0078282
137,3.03797,4.11104,-0.00715341
137.5,3.05486,4.1223,-0.00713546
138,3.07159,4.12349,-0.0071397
138.5,3.08812,4.13192,-0.00714078
139,3.1046,4.13856,-0.00711473
139.5,3.12099,4.15685,-0.00683953
140,3.13745,4.16676,-0.00581998
140.5,3.15387,4.18337,-0.00582241
141,3.1706,4.18876,-0.00582735
141.5,3.18681,4.19822,-0.00581079
142,3.2034,4.20965,-0.00694063
142.5,3.21963,4.22411,-0.00711745
143,3.23644,4.23341,-0.00713128
143.5,3.25244,4.24596,-0.00713721
144,3.26899,4.26263,-0.00665782
144.5,3.28522,4.27705,-0.00577723
145,3.30159,4.28992,-0.00581338
145.5,3.31779,4.2954,-0.00581999
146,3.33433,4.29846,-0.0058019
146.5,3.35036,4.30765,-0.00563876
147,3.36674,4.32936,-0.00515006
147.5,3.38296,4.33921,-0.00515494
148,3.39925,4.34786,-0.00515973
148.5,3.41552,4.35069,-0.00516129
149,3.43132,4.36645,-0.00517359
149.5,3.44762,4.37534,-0.00514962
150,3.46391,4.38451,-0.0058772
150.5,3.47977,4.39079,-0.00582426
151,3.49586,4.40017,-0.00581946
151.5,3.51189,4.41911,-0.0058199
152,3.5283,4.43443,-0.00582
152.5,3.54381,4.43644,-0.00582
153,3.56015,4.44314,-0.00582
153.5,3.57593,4.45192,-0.00582
154,3.59217,4.46211,-0.00581999
154.5,3.60795,4.46861,-0.00581999
155,3.62454,4.48283,-0.00582043
155.5,3.64028,4.49183,-0.00582385
156,3.65663,4.49924,-0.00580938
156.5,3.67237,4.50544,-0.0053701
157,3.68807,4.51739,-0.0044984
157.5,3.70429,4.52922,-0.00439497
158,3.72045,4.53396,-0.00557644
158.5,3.73627,4.54305,-0.00582486
159,3.75207,4.54796,-0.00582067
159.5,3.76799,4.56476,-0.00582
160,3.78399,4.57685,-0.00582012
160.5,3.79982,4.58965,-0.00582066
161,3.81555,4.59144,-0.00581437
161.5,3.83157,4.5979,-0.00574869
162,3.84707,4.60765,-0.00673186
162.5,3.86337,4.61317,-0.00714728
163,3.87899,4.62349,-0.00713039
163.5,3.8951,4.64773,-0.00602198
164,3.91063,4.65227,-0.00595396
164.5,3.92663,4.65976,-0.0070688
165,3.94241,4.66829,-0.00711589
165.5,3.95862,4.67854,-0.00712992
166,3.97391,4.6792,-0.00713023
166.5,3.98959,4.69543,-0.00713001
167,4.00551,4.69544,-0.00713
167.5,4.02113,4.70127,-0.00713
168,4.03673,4.71263,-0.00713
168.5,4.05274,4.72004,-0.00713
169,4.06867,4.72137,-0.00713
169.5,4.08401,4.72977,-0.00713
170,4.0996,4.74442,-0.00713
170.5,4.11556,4.74902,-0.00713
171,4.1313,4.75556,-0.00713
171.5,4.14704,4.76341,-0.00713
172,4.16301,4.75903,-0.00713
172.5,4.17838,4.7673,-0.00713
173,4.19418,4.77541,-0.00713
173.5,4.20953,4.78707,-0.00712998
174,4.2256,4.79004,-0.00713018
174.5,4.24099,4.79906,-0.00713178
175,4.25649,4.80099,-0.00712311
175.5,4.27218,4.81191,-0.00786012
176,4.28764,4.82175,-0.00844124
176.5,4.30329,4.83057,-0.00718973
177,4.31892,4.83733,-0.00714128
177.5,4.33453,4.8392,-0.00713964
178,4.34982,4.83741,-0.00713996
178.5,4.36552,4.84893,-0.00714
179,4.38091,4.86562,-0.00713996
179.5,4.39641,4.87341,-0.00714023
180,4.41221,4.87922,-0.00714296
180.5,4.42742,4.88402,-0.00713495
181,4.44319,4.88772,-0.00687583
181.5,4.45863,4.90294,-0.00583088
182,4.47408,4.91922,-0.00582914
182.5,4.48952,4.91267,-0.00582045
183,4.50456,4.91975,-0.00581986
183.5,4.52045,4.9387,-0.00581999
184,4.53602,4.94628,-0.00582001
184.5,4.5513,4.9453,-0.00582004
185,4.56684,4.95053,-0.00581978
185.5,4.58211,4.97098,-0.00581739
186,4.59748,4.97751,-0.00582754
186.5,4.61287,4.9814,-0.00603261
187,4.62795,4.9841,-0.00712558
187.5,4.64343,4.99587,-0.00713082
188,4.6585,4.99887,-0.00714949
188.5,4.67383,5.01031,-0.00677651
189,4.68935,5.01453,-0.00577912
189.5,4.70434,5.01963,-0.00583005
190,4.72009,5.0286,-0.00582531
190.5,4.73524,5.03734,-0.00577078
191,4.75057,5.03994,-0.00661654
191.5,4.76575,5.05042,-0.00717
192,4.78105,5.05821,-0.007108
192.5,4.79645,5.06321,-0.00588686
193,4.81164,5.07272,-0.00584611
193.5,4.82683,5.07863,-0.00581927
194,4.84219,5.08188,-0.00581951
194.5,4.85758,5.08612,-0.00582
195,4.87258,5.10837,-0.00582002
195.5,4.88794,5.11636,-0.00582001
196,4.90285,5.12283,-0.0058195
196.5,4.91794,5.12985,-0.00581941
197,4.93331,5.13438,-0.0058461
197.5,4.9486,5.14642,-0.00589721
198,4.96374,5.1472,-0.00710785
198.5,4.97905,5.15541,-0.00713894
199,4.994,5.16086,-0.00714027
199.5,5.00922,5.16903,-0.00714002
200,5.02451,5.17979,-0.00714
200.5,5.03976,5.18727,-0.00714
201,5.05471,5.18792,-0.00714
201.5,5.07018,5.18871,-0.00714
202,5.08533,5.19439,-0.00714
202.5,5.10041,5.20466,-0.00714
203,5.11551,5.21313,-0.00714
203.5,5.13057,5.21769,-0.00714
204,5.1458,5.23244,-0.00714
204.5,5.1609,5.2338,-0.00714
205,5.17612,5.24567,-0.00713996
205.5,5.19105,5.25072,-0.00713976
206,5.20627,5.25781,-0.00714221
206.5,5.22097,5.2639,-0.00715573
207,5.23664,5.27905,-0.00688363
207.5,5.25135,5.29169,-0.00681875
208,5.26675,5.30594,-0.00680881
208.5,5.28144,5.32061,-0.00680984
209,5.29666,5.32288,-0.00681003
209.5,5.31188,5.33382,-0.00681
210,5.32679,5.34445,-0.00681
210.5,5.34209,5.34943,-0.00681
211,5.35721,5.36138,-0.00681
211.5,5.37218,5.37577,-0.00680999
212,5.38752,5.37853,-0.00681006
212.5,5.40267,5.40295,-0.00681061
213,5.41742,5.40427,-0.00680616
213.5,5.43261,5.41594,-0.00675896
214,5.44772,5.43104,-0.00590502
214.5,5.46267,5.43712,-0.00583601
215,5.47764,5.44469,-0.00581829
215.5,5.49313,5.45665,-0.00581982
216,5.50772,5.46803,-0.00582011
216.5,5.52277,5.47679,-0.0058134
217,5.53785,5.48089,-0.00581362
217.5,5.55291,5.49659,-0.00633665
218,5.56824,5.51591,-0.00714324
218.5,5.58265,5.53137,-0.00713686
219,5.59816,5.52852,-0.00714583
219.5,5.61312,5.53504,-0.00651175
220,5.62798,5.54171,-0.00578344
220.5,5.64325,5.55506,-0.00581326
221,5.65789,5.57702,-0.00582077
221.5,5.67292,5.59329,-0.00582013
222,5.6884,5.59859,-0.00581999
222.5,5.70313,5.61166,-0.00582004
223,5.71835,5.63647,-0.00581978
223.5,5.73332,5.63518,-0.00581782
224,5.74823,5.64238,-0.00583147
224.5,5.76338,5.64944,-0.00595147
225,5.7784,5.65949,-0.00704965
225.5,5.79346,5.68247,-0.00712674
226,5.80826,5.69484,-0.00714169
226.5,5.82306,5.71119,-0.00714033
227,5.83856,5.72189,-0.00713938
227.5,5.85339,5.73395,-0.00713492
228,5.86825,5.74213,-0.00717264
228.5,5.88338,5.75737,-0.00678149
229,5.89808,5.7825,-0.00681494
229.5,5.91321,5.79259,-0.00680624
230,5.92823,5.80609,-0.00680153
230.5,5.94313,5.81489,-0.00715349
231,5.95813,5.82986,-0.00779608
231.5,5.9728,5.84607,-0.00778612
232,5.98818,5.85932,-0.00778988
232.5,6.0031,5.8637,-0.00779007
233,6.0179,5.89016,-0.00779
233.5,6.0329,5.89592,-0.00779
234,6.04799,5.90969,-0.00779
234.5,6.06272,5.92854,-0.00779
235,6.07776,5.94046,-0.00779
235.5,6.0928,5.95344,-0.00779
236,6.10767,5.98709,-0.00779
236.5,6.12263,5.99914,-0.00779
237,6.13752,6.01711,-0.00778998
237.5,6.15254,6.03641,-0.00778995
238,6.16761,6.06447,-0.00779124
238.5,6.18247,6.07923,-0.00779298
239,6.19794,6.09861,-0.00766438
239.5,6.2124,6.13216,-0.00678785
240,6.22754,6.16636,-0.00681339
240.5,6.24242,6.19529,-0.00680023
241,6.25672,6.23326,-0.00679956
241.5,6.27182,6.28448,-0.00680015
242,6.28693,6.31815,-0.00680625
242.5,6.30259,6.37569,-0.00679406
243,6.31778,6.43757,-0.00731681
243.5,6.33277,6.50715,-0.00746208
244,6.34767,6.56856,-0.00746171
244.5,6.36288,6.63628,-0.00745995
245,6.37822,6.71463,-0.00745997
245.5,6.39333,6.80986,-0.00746
246,6.40861,6.92561,-0.00746
246.5,6.42373,7.04102,-0.00746
247,6.43892,7.17594,-0.00746
247.5,6.45448,7.32942,-0.00746
248,6.46999,7.49514,-0.00746
248.5,6.48593,7.70846,-0.00745999
249,6.50137,7.92794,-0.00745994
249.5,6.51733,8.17609,-0.00746032
250,6.5329,8.44467,-0.00746274
250.5,6.54848,8.73109,-0.00744245
251,6.56493,9.05318,-0.00731844
251.5,6.58067,9.38673,-0.00679544
252,6.59689,9.72669,-0.00643621
252.5,6.61286,10.0806,-0.00647759
253,6.62924,10.4445,-0.00647061
253.5,6.64529,10.7999,-0.00646986
254,6.66163,11.1765,-0.00646998
254.5,6.67736,11.5199,-0.00647001
255,6.69384,11.8925,-0.00647067
255.5,6.70996,12.2742,-0.00647452
256,6.72637,12.6399,-0.00645171
256.5,6.74241,12.9985,-0.00683255
257,6.75814,13.3661,-0.00680098
257.5,6.77477,13.7445,-0.00679633
258,6.79113,14.119,-0.00676375
258.5,6.80713,14.468,-0.0074331
259,6.8233,14.8157,-0.00816339
259.5,6.83943,15.1501,-0.0081232
260,6.85504,15.3751,-0.00811948
260.5,6.86986,15.4455,-0.00811992
261,6.88413,15.239,-0.00812003
261.5,6.89707,14.7564,-0.00811999
262,6.91,14.1125,-0.00811974
262.5,6.92265,13.462,-0.00812175
263,6.93586,12.7975,-0.00811516
263.5,6.94827,12.2299,-0.00810575
264,6.96169,11.6803,-0.00848968
264.5,6.97468,11.1935,-0.00943703
265,6.98812,10.7171,-0.00918915
265.5,7.00135,10.2992,-0.00912814
266,7.01474,9.90658,-0.0091185
266.5,7.02865,9.53519,-0.00911985
267,7.04171,9.20913,-0.00912003
267.5,7.0557,8.89745,-0.00912
268,7.06922,8.61279,-0.00912002
268.5,7.08341,8.34971,-0.00911982
269,7.09748,8.10766,-0.00911999
269.5,7.11137,7.89877,-0.00912757
270,7.12542,7.69114,-0.00909149
270.5,7.13945,7.51257,-0.00947811
271,7.15382,7.34499,-0.00944344
271.5,7.16813,7.19645,-0.00944972
272,7.18228,7.04901,-0.00944905
272.5,7.19674,6.92847,-0.00945189
273,7.21096,6.82824,-0.00950266
273.5,7.22538,6.71499,-0.00883042
274,7.23952,6.62593,-0.00844492
274.5,7.25405,6.52989,-0.00846078
275,7.26857,6.45367,-0.00846242
275.5,7.28309,6.37808,-0.00845408
276,7.2979,6.31509,-0.00834891
276.5,7.31211,6.25667,-0.00811858
277,7.32683,6.19472,-0.00812744
277.5,7.34111,6.1494,-0.00813024
278,7.35619,6.10858,-0.00813005
278.5,7.37104,6.07381,-0.00812999
279,7.3856,6.02723,-0.00813
279.5,7.40008,5.99267,-0.00813
280,7.41471,5.96613,-0.00813
280.5,7.42923,5.94198,-0.00813001
281,7.44409,5.91105,-0.00813011
281.5,7.45881,5.89171,-0.00812956
282,7.47364,5.86919,-0.00812501
282.5,7.48839,5.84822,-0.00815387
283,7.50301,5.83146,-0.00811449
283.5,7.51682,5.81835,-0.00879248
284,7.53162,5.80881,-0.00878653
284.5,7.54665,5.79002,-0.00878996
285,7.56224,5.78269,-0.00879015
285.5,7.57657,5.76289,-0.00878987
286,7.59142,5.75541,-0.00878582
286.5,7.60621,5.74466,-0.00879921
287,7.62075,5.74508,-0.00899271
287.5,7.63581,5.73182,-0.00955757
288,7.65051,5.72276,-0.00851432
288.5,7.66522,5.72251,-0.00847997
289,7.68003,5.7106,-0.00844831
289.5,7.69477,5.71335,-0.0084494
290,7.70941,5.70374,-0.00845039
290.5,7.72442,5.69898,-0.00845446
291,7.73912,5.6863,-0.00843173
291.5,7.75383,5.68998,-0.00888701
292,7.76898,5.68309,-0.00912243
292.5,7.78341,5.67835,-0.00911177
293,7.79817,5.68369,-0.00910971
293.5,7.81332,5.67926,-0.00910997
294,7.82775,5.67715,-0.00910999
294.5,7.84277,5.67775,-0.00910994
295,7.85742,5.67785,-0.00911065
295.5,7.87225,5.67925,-0.0091125
296,7.88709,5.67931,-0.00899658
296.5,7.90202,5.67369,-0.007748
297,7.91668,5.672,-0.00781015
297.5,7.93168,5.66993,-0.00779046
298,7.9462,5.67176,-0.00779039
298.5,7.96111,5.66622,-0.00780389
299,7.97599,5.6548,-0.00774422
299.5,7.99075,5.65426,-0.00852008
300,8.00564,5.65234,-0.00844303
300.5,8.02032,5.66322,-0.00844466
301,8.03527,5.65927,-0.00846928
301.5,8.05053,5.66018,-0.00869766
302,8.06506,5.66036,-0.00983873
302.5,8.07956,5.65819,-0.00883867
303,8.09451,5.65474,-0.00844268
303.5,8.10953,5.65514,-0.00845037
304,8.12423,5.65641,-0.00845162
304.5,8.13943,5.65931,-0.00844557
305,8.15398,5.6489,-0.00913544
305.5,8.16866,5.64639,-0.00979721
306,8.18352,5.65603,-0.00980218
306.5,8.19837,5.6549,-0.00983018
307,8.21325,5.65978,-0.011044
307.5,8.22812,5.64722,-0.0110894
308,8.24308,5.65579,-0.0110904
308.5,8.25761,5.65578,-0.01109
309,8.27263,5.65083,-0.01109
309.5,8.28724,5.65177,-0.0110902
310,8.30246,5.65584,-0.0110917
310.5,8.31702,5.65042,-0.0110765
311,8.3318,5.65032,-0.0110203
311.5,8.34664,5.64543,-0.00992104
312,8.36164,5.64109,-0.00978068
312.5,8.3765,5.64226,-0.00976703
313,8.39103,5.64665,-0.00976983
313.5,8.40592,5.64935,-0.00977018
314,8.42102,5.64727,-0.00977028
314.5,8.43595,5.64757,-0.00976358
315,8.44994,5.64862,-0.0101486
315.5,8.46451,5.6457,-0.011035
316,8.48047,5.64739,-0.00965898
316.5,8.49526,5.64615,-0.00978187
317,8.50989,5.64906,-0.00977849
317.5,8.52495,5.65095,-0.00972382
318,8.53961,5.64907,-0.0106109
318.5,8.55465,5.64424,-0.0111175
319,8.56938,5.64089,-0.0110944
319.5,8.58423,5.6425,-0.0111342
320,8.59921,5.64279,-0.0104733
320.5,8.61392,5.64136,-0.00973606
321,8.6287,5.63662,-0.00981981
321.5,8.64379,5.64547,-0.0109179
322,8.65867,5.64171,-0.0110822
322.5,8.67348,5.64588,-0.0110923
323,8.68832,5.6525,-0.011089
323.5,8.7034,5.64416,-0.0111137
324,8.718,5.64405,-0.0111255
324.5,8.733,5.64174,-0.0123448
325,8.74807,5.64454,-0.0123993
325.5,8.7629,5.64343,-0.0123999
326,8.77794,5.64844,-0.0124029
326.5,8.79252,5.65675,-0.0124305
327,8.80733,5.64654,-0.0119343
327.5,8.8224,5.64086,-0.011038
328,8.83707,5.64822,-0.0110988
328.5,8.85223,5.6609,-0.0111046
329,8.86689,5.65688,-0.0110065
329.5,8.88204,5.65512,-0.0122271
330,8.89713,5.66516,-0.0124038
330.5,8.91167,5.66069,-0.0124004
331,8.92673,5.65497,-0.0123999
331.5,8.94186,5.65846,-0.0124
332,8.95651,5.66658,-0.0124
332.5,8.97124,5.66563,-0.0124
333,8.98576,5.6684,-0.0123999
333.5,9.00057,5.67427,-0.0123996
334,9.0159,5.68418,-0.0124042
334.5,9.03115,5.68695,-0.0124214
335,9.0461,5.67171,-0.0120326
335.5,9.06097,5.65308,-0.0117465
336,9.0761,5.66638,-0.0124436
336.5,9.09074,5.67009,-0.0124171
337,9.1059,5.66876,-0.0124099
337.5,9.12053,5.67201,-0.0124185
338,9.13562,5.67061,-0.0123713
338.5,9.15063,5.66947,-0.0133283
339,9.16565,5.67106,-0.0137495
339.5,9.18057,5.67971,-0.0137336
340,9.19542,5.67325,-0.0137299
340.5,9.21048,5.67309,-0.0137309
341,9.22544,5.6806,-0.0137109
341.5,9.24023,5.67897,-0.0136913
342,9.25564,5.68887,-0.0130301
342.5,9.27036,5.69762,-0.0133071
343,9.28525,5.69379,-0.0143616
343.5,9.3003,5.69556,-0.014369
344,9.31528,5.70172,-0.0138304
344.5,9.3303,5.70591,-0.0137224
345,9.34524,5.70456,-0.013716
345.5,9.35996,5.70799,-0.0136938
346,9.37513,5.71079,-0.0141374
346.5,9.39006,5.71154,-0.0157906
347,9.40508,5.71872,-0.0163997
347.5,9.42018,5.7207,-0.0163607
348,9.43474,5.72486,-0.0163526
348.5,9.44936,5.72741,-0.0168782
349,9.46506,5.72696,-0.0177203
349.5,9.47991,5.72767,-0.0176863
350,9.49498,5.73181,-0.0176792
350.5,9.50962,5.73269,-0.0176803
351,9.52514,5.73728,-0.0176767
351.5,9.53997,5.74135,-0.0176555
352,9.55517,5.74648,-0.0181496
352.5,9.57011,5.74981,-0.0190509
353,9.58462,5.75678,-0.0190001
353.5,9.60012,5.76115,-0.0190167
354,9.61504,5.76573,-0.0184173
354.5,9.63018,5.77022,-0.018562
355,9.64534,5.7756,-0.0190136
355.5,9.66003,5.78203,-0.0190063
356,9.67516,5.79806,-0.0189016
356.5,9.69012,5.80149,-0.0201508
357,9.70526,5.80221,-0.0203335
357.5,9.72037,5.80936,-0.020537
358,9.73528,5.81701,-0.0217068
358.5,9.75049,5.81822,-0.0217536
359,9.76488,5.83036,-0.0216375
359.5,9.78108,5.83465,-0.0229599
360,9.79543,5.84713,-0.0230609
360.5,9.8102,5.85122,-0.0230599
361,9.82559,5.86881,-0.0230615
361.5,9.84068,5.87944,-0.0230754
362,9.85598,5.88036,-0.0229911
362.5,9.87125,5.89031,-0.0242625
363,9.88618,5.90328,-0.0243623
363.5,9.90154,5.92455,-0.0249688
364,9.91661,5.93247,-0.0267954
364.5,9.93157,5.94078,-0.0267319
365,9.9466,5.95135,-0.0273788
365.5,9.96183,5.96218,-0.0281615
366,9.97686,5.97278,-0.0281085
366.5,9.99211,5.98628,-0.0281089
367,10.0071,5.98649,-0.0281102
367.5,10.0222,6.00102,-0.0281565
368,10.0375,6.0281,-0.029542
368.5,10.0527,6.03962,-0.02951
369,10.0672,6.05031,-0.0298394
369.5,10.0829,6.06372,-0.0309409
370,10.0978,6.0761,-0.0308537
370.5,10.1129,6.09001,-0.0313961
371,10.1286,6.10335,-0.0315376
371.5,10.1432,6.12195,-0.0315574
372,10.1586,6.13946,-0.0324888
372.5,10.1737,6.15477,-0.0331498
373,10.1889,6.1718,-0.0340409
373.5,10.2041,6.1908,-0.0341246
374,10.2192,6.20694,-0.0356555
374.5,10.2345,6.24071,-0.03567
375,10.2493,6.27141,-0.0371777
375.5,10.2647,6.29112,-0.0374975
376,10.2799,6.30869,-0.0386543
376.5,10.2952,6.34081,-0.0394719
377,10.3103,6.37168,-0.0401309
377.5,10.3257,6.39898,-0.0410799
378,10.3407,6.43021,-0.0417301
378.5,10.356,6.4609,-0.043342
379,10.3711,6.49477,-0.0438295
379.5,10.3868,6.5223,-0.0451159
380,10.4017,6.56177,-0.0459831
380.5,10.4171,6.6011,-0.0466701
381,10.4322,6.65119,-0.046934
381.5,10.4476,6.67637,-0.0484258
382,10.4629,6.71358,-0.0495505
382.5,10.478,6.75105,-0.0505466
383,10.4936,6.79228,-0.052259
383.5,10.5086,6.84168,-0.0533036
384,10.5242,6.88491,-0.054448
384.5,10.5392,6.92891,-0.0550141
385,10.5547,6.97015,-0.0565246
385.5,10.5698,7.01037,-0.0566265
386,10.5858,7.05872,-0.0579919
386.5,10.6005,7.09251,-0.0583785
387,10.6161,7.13308,-0.059716
387.5,10.6313,7.17378,-0.0615574
388,10.6464,7.21874,-0.0636293
388.5,10.662,7.26655,-0.0654022
389,10.6771,7.30472,-0.0670333
389.5,10.6925,7.34879,-0.0694237
390,10.7078,7.39484,-0.0720619
390.5,10.7234,7.44577,-0.0735429
391,10.7383,7.4932,-0.0755814
391.5,10.754,7.55386,-0.077495
392,10.7695,7.61764,-0.0800359
392.5,10.7848,7.67341,-0.0813715
393,10.8001,7.74031,-0.0835454
393.5,10.8155,7.80849,-0.0856709
394,10.8309,7.86819,-0.0872116
394.5,10.8464,7.92072,-0.0897233
395,10.8616,7.97157,-0.0906899
395.5,10.8774,8.05435,-0.0926555
396,10.8927,8.10822,-0.0949959
396.5,10.9082,8.15076,-0.0973454
397,10.9234,8.2022,-0.100848
397.5,10.9388,8.25369,-0.104007
398,10.9543,8.29515,-0.10722
398.5,10.9695,8.32235,-0.110783
399,10.9842,8.35886,-0.112555
399.5,11.0001,8.40296,-0.115394
400,11.0157,8.46559,-0.118609
400.5,11.0308,8.49687,-0.120625
401,11.0465,8.54648,-0.124106
401.5,11.062,8.59714,-0.127381
402,11.0773,8.6534,-0.13094
402.5,11.0928,8.72136,-0.134616
403,11.1082,8.81715,-0.14079
403.5,11.1239,8.91038,-0.145097
404,11.1392,9.00444,-0.149163
404.5,11.1548,9.07496,-0.15274
405,11.1706,9.17787,-0.155702
405.5,11.1862,9.25152,-0.15896
406,11.2015,9.30028,-0.161479
406.5,11.2168,9.35605,-0.165997
407,11.2324,9.4172,-0.170908
407.5,11.2478,9.48014,-0.175081
408,11.2631,9.53668,-0.179988
408.5,11.2791,9.59295,-0.184189
409,11.2943,9.64727,-0.188594
409.5,11.3099,9.70119,-0.19431
410,11.3252,9.74787,-0.199006
410.5,11.3408,9.79883,-0.204657
411,11.3558,9.84517,-0.208896
411.5,11.3713,9.90546,-0.213501
412,11.3874,9.96301,-0.219207
412.5,11.4026,10.0102,-0.223529
413,11.4183,10.0959,-0.228303
413.5,11.4342,10.2958,-0.23465
414,11.4497,10.3775,-0.240249
414.5,11.4651,10.4571,-0.247295
415,11.4809,10.5322,-0.252696
415.5,11.4965,10.5997,-0.260309
416,11.5121,10.6569,-0.268842
416.5,11.5268,10.7172,-0.274735
417,11.543,10.7853,-0.282828
417.5,11.5584,10.8454,-0.289882
418,11.5738,10.9121,-0.297049
418.5,11.5901,10.9752,-0.306078
419,11.6052,11.0332,-0.312534
419.5,11.6207,11.1027,-0.320901
420,11.6365,11.1771,-0.328763
420.5,11.6519,11.2542,-0.337178
421,11.6677,11.3263,-0.346595
421.5,11.6832,11.3968,-0.353842
422,11.6988,11.4737,-0.36299
422.5,11.7144,11.5551,-0.372204
423,11.73,11.6194,-0.381013
423.5,11.7456,11.6882,-0.392009
424,11.7614,11.7713,-0.4001
424.5,11.7769,11.8499,-0.409655
425,11.7924,11.925,-0.420999
425.5,11.8081,11.9953,-0.429398
426,11.8238,12.0724,-0.440571
426.5,11.8393,12.1394,-0.449703
427,11.8549,12.209,-0.461335
427.5,11.8706,12.2816,-0.473609
428,11.8863,12.3628,-0.482833
428.5,11.9017,12.4399,-0.494105
429,11.917,12.4964,-0.503995
429.5,11.9328,12.5526,-0.514346
430,11.9486,12.6163,-0.527935
430.5,11.9643,12.6703,-0.537937
431,11.9798,12.72,-0.550316
431.5,11.9954,12.7634,-0.562263
432,12.0107,12.8078,-0.573322
432.5,12.0263,12.8462,-0.587782
433,12.0424,12.9617,-0.599257
433.5,12.0579,13.0299,-0.61261
434,12.0735,13.0418,-0.626684
434.5,12.089,13.1331,-0.638535
435,12.105,13.1984,-0.653931
435.5,12.1207,13.3823,-0.66615
436,12.1364,13.4861,-0.68028
436.5,12.1517,13.4866,-0.695954
437,12.1679,13.5619,-0.709065
437.5,12.1835,13.7586,-0.724878
438,12.1993,13.828,-0.738016
438.5,12.2148,13.8725,-0.75252
439,12.2301,13.8329,-0.769505
439.5,12.246,13.8832,-0.78193
440,12.2613,13.9597,-0.797052
440.5,12.2767,14.0644,-0.810152
441,12.2933,14.1375,-0.825042
441.5,12.3087,14.2159,-0.843484
442,12.3242,14.2869,-0.858119
442.5,12.3397,14.3622,-0.876115
443,12.3561,14.4909,-0.894354
443.5,12.3717,14.5509,-0.911103
444,12.3874,14.6084,-0.932826
444.5,12.4028,14.6709,-0.949053
445,12.4198,14.9136,-0.969929
445.5,12.4351,15.0707,-0.990366
446,12.4507,15.0197,-1.00952
446.5,12.4667,15.0905,-1.03449
447,12.4823,15.2186,-1.05222
447.5,12.4983,15.303,-1.07388
448,12.514,15.391,-1.09667
448.5,12.5296,15.4547,-1.11606
449,12.5451,15.4314,-1.14033
449.5,12.5607,15.4183,-1.15777
450,12.5764,15.4356,-1.17846
450.5,12.5925,15.6765,-1.20251
451,12.6076,15.6542,-1.22126
451.5,12.6228,15.5903,-1.24579
452,12.6388,15.5783,-1.26747
452.5,12.6542,15.5874,-1.2896
453,12.6713,15.8161,-1.31792
453.5,12.6865,16.0427,-1.33742
454,12.7019,16.0137,-1.36301
454.5,12.7175,15.9579,-1.38592
455,12.7329,15.9241,-1.40916
455.5,12.7485,15.915,-1.43663
456,12.7644,15.9354,-1.45863
456.5,12.78,16.0291,-1.48549
457,12.7956,16.0557,-1.51104
457.5,12.8113,16.0577,-1.53525
458,12.8271,16.0842,-1.56604
458.5,12.8428,16.1174,-1.58933
459,12.8584,16.2327,-1.6177
459.5,12.8739,16.2745,-1.6464
460,12.8897,16.2853,-1.6717
460.5,12.9057,16.4154,-1.70446
461,12.9206,16.3453,-1.7285
461.5,12.9367,16.2574,-1.75881
462,12.9508,16.218,-1.78775
462.5,12.9671,16.3091,-1.81425
463,12.9826,16.428,-1.84612
463.5,12.9989,16.4085,-1.87472
464,13.015,16.4283,-1.90535
464.5,13.0304,16.4962,-1.93939
465,13.046,16.5244,-1.96654
465.5,13.0612,16.4828,-1.99984
466,13.0771,16.395,-2.0309
466.5,13.0921,16.37,-2.05972
467,13.1077,16.3062,-2.09571
467.5,13.1228,16.2271,-2.12195
468,13.1389,16.2047,-2.15611
468.5,13.1543,16.2541,-2.18951
469,13.1698,16.2139,-2.21899
469.5,13.1851,16.1492,-2.25544
470,13.2007,16.0764,-2.28434
470.5,13.2156,15.9272,-2.31546
471,13.2311,15.7902,-2.35215
471.5,13.2463,15.7404,-2.38013
472,13.2615,15.6561,-2.41533
472.5,13.2767,15.4882,-2.44628
473,13.2919,15.3601,-2.47632
473.5,13.307,15.1976,-2.51248
474,13.3218,15.0214,-2.53865
474.5,13.3368,14.7892,-2.57005
475,13.352,14.6181,-2.60428
475.5,13.367,14.466,-2.63136
476,13.3819,14.2788,-2.66464
476.5,13.3969,14.0915,-2.69354
477,13.4116,13.8562,-2.72146
477.5,13.4264,13.6173,-2.75552
478,13.4414,13.3894,-2.78076
478.5,13.4562,13.1545,-2.8094
479,13.4709,12.9077,-2.8407
479.5,13.4858,12.6719,-2.8651
480,13.5004,12.4407,-2.89473
480.5,13.5155,12.2025,-2.92275
481,13.5302,11.9639,-2.94774
481.5,13.5448,11.6928,-2.97816
482,13.5598,11.3908,-3.00207
482.5,13.5741,11.102,-3.02702
483,13.589,10.826,-3.05688
483.5,13.6035,10.5323,-3.07789
484,13.6181,10.2529,-3.10365
484.5,13.6329,9.94165,-3.12982
485,13.6473,9.6079,-3.15063
485.5,13.6622,9.37734,-3.17677
486,13.6769,9.11981,-3.19868
486.5,13.6916,8.81707,-3.22001
487,13.706,8.51182,-3.24542
487.5,13.7209,8.20436,-3.26448
488,13.7354,7.9001,-3.28606
488.5,13.7497,7.58355,-3.31048
489,13.7643,7.27982,-3.32757
489.5,13.7783,6.99464,-3.34726
490,13.7929,6.67866,-3.36757
490.5,13.8076,6.37195,-3.38424
491,13.8227,6.075,-3.40454
491.5,13.8375,5.82396,-3.42112
492,13.8524,5.55394,-3.43774
492.5,13.8671,5.29535,-3.45687
493,13.8816,5.04327,-3.47037
493.5,13.8966,4.78317,-3.48642
494,13.9114,4.54005,-3.50312
494.5,13.9261,4.31632,-3.51553
495,13.9409,4.09098,-3.5302
495.5,13.9558,3.88372,-3.5432
496,13.9709,3.68058,-3.55527
496.5,13.9858,3.48552,-3.56935
497,14.0005,3.29509,-3.57972
497.5,14.0157,3.11947,-3.59131
498,14.0309,2.94144,-3.60421
498.5,14.0459,2.77451,-3.61355
499,14.0608,2.62445,-3.6248
499.5,14.0763,2.47788,-3.63494
500,14.0912,2.33913,-3.64368
500.5,14.1064,2.20526,-3.65404
501,14.1218,2.06555,-3.66215
501.5,14.1369,1.93828,-3.67065
502,14.1522,1.81985,-3.67965
502.5,14.1676,1.70777,-3.68647
503,14.1829,1.5938,-3.69481
503.5,14.1979,1.48596,-3.70163
504,14.2135,1.39006,-3.70869
504.5,14.229,1.28807,-3.71693
505,14.2445,1.20081,-3.72218
505.5,14.2594,1.11077,-3.72808
506,14.2751,1.03007,-3.73368
506.5,14.2906,0.953111,-3.73815
507,14.3058,0.872755,-3.74321
507.5,14.3214,0.805891,-3.74713
508,14.3367,0.726963,-3.75176
508.5,14.3524,0.66245,-3.75695
509,14.368,0.595798,-3.76088
509.5,14.383,0.5466,-3.76544
510,14.3988,0.482065,-3.769
510.5,14.4142,0.429854,-3.77244
511,14.4298,0.381476,-3.77605
511.5,14.4451,0.320539,-3.77847
512,14.461,0.262331,-3.78135
512.5,14.4766,0.2323,-3.78418
513,14.4923,0.188929,-3.78591
513.5,14.5083,0.145465,-3.78774
514,14.5234,0.106776,-3.79058
514.5,14.5392,0.0666091,-3.79267
515,14.5547,0.0403676,-3.79462
515.5,14.5703,0.00556938,-3.79598
516,14.5861,-0.024147,-3.79691
516.5,14.6016,-0.0558446,-3.79774
517,14.6173,-0.0788162,-3.79924
517.5,14.6331,-0.0956967,-3.80102
518,14.6488,-0.115144,-3.80232
518.5,14.6637,-0.139128,-3.80315
519,14.6799,-0.159811,-3.80312
519.5,14.6962,-0.166491,-3.80432
520,14.7118,-0.174895,-3.80438
520.5,14.7271,-0.188399,-3.80471
521,14.7434,-0.207006,-3.80588
521.5,14.7589,-0.214043,-3.80665
522,14.7751,-0.220951,-3.8074
522.5,14.7903,-0.233246,-3.80803
523,14.8063,-0.247122,-3.80882
523.5,14.8223,-0.252696,-3.8088
524,14.8378,-0.277255,-3.80899
524.5,14.8538,-0.28784,-3.80987
525,14.8697,-0.291266,-3.80979
525.5,14.8854,-0.301148,-3.80979
526,14.9011,-0.314153,-3.80979
526.5,14.9169,-0.322355,-3.80979
527,14.9329,-0.327763,-3.80979
527.5,14.9486,-0.330463,-3.80978
528,14.9644,-0.331526,-3.81019
528.5,14.9804,-0.33658,-3.81115
529,14.9962,-0.340087,-3.8111
529.5,15.0119,-0.342654,-3.8111
530,15.0279,-0.346395,-3.8111
530.5,15.0435,-0.342733,-3.8111
531,15.0595,-0.361809,-3.8111
531.5,15.0754,-0.362106,-3.81112
532,15.0911,-0.359737,-3.81142
532.5,15.1073,-0.359512,-3.81242
533,15.1227,-0.360524,-3.81242
533.5,15.1388,-0.365989,-3.81242
534,15.1546,-0.369065,-3.81242
534.5,15.1695,-0.374944,-3.81242
535,15.1861,-0.380277,-3.81242
535.5,15.2021,-0.380112,-3.81242
536,15.2179,-0.37858,-3.81249
536.5,15.234,-0.377756,-3.81172
537,15.2499,-0.380437,-3.81175
537.5,15.2655,-0.382675,-3.81228
538,15.2815,-0.389816,-3.81314
538.5,15.2975,-0.388185,-3.81296
539,15.313,-0.392193,-3.81242
539.5,15.3292,-0.393603,-3.81247
540,15.3451,-0.399242,-3.81151
540.5,15.3609,-0.400572,-3.81049
541,15.3768,-0.396969,-3.80884
541.5,15.3928,-0.402004,-3.80829
542,15.4086,-0.394373,-3.80716
542.5,15.4249,-0.40529,-3.80853
543,15.4406,-0.415885,-3.81069
543.5,15.4567,-0.42115,-3.81305
544,15.4724,-0.416272,-3.81464
544.5,15.4881,-0.419058,-3.81609
545,15.504,-0.422593,-3.81698
545.5,15.5201,-0.427429,-3.81699
546,15.5361,-0.4353,-3.81593
546.5,15.5519,-0.433491,-3.81685
547,15.5677,-0.43404,-3.81693
547.5,15.5837,-0.433848,-3.81693
548,15.5995,-0.432376,-3.81693
548.5,15.6155,-0.439208,-3.81693
549,15.6316,-0.442802,-3.81693
549.5,15.6473,-0.440721,-3.81692
550,15.6634,-0.442596,-3.81699
550.5,15.6793,-0.44354,-3.81546
551,15.6953,-0.448825,-3.81527
551.5,15.7114,-0.45361,-3.81528
552,15.7271,-0.447889,-3.81528
552.5,15.7432,-0.449508,-3.81528
553,15.759,-0.44806,-3.81528
553.5,15.7749,-0.449718,-3.81528
554,15.7911,-0.450914,-3.81528
554.5,15.8067,-0.451713,-3.81528
555,15.8226,-0.449416,-3.81528
555.5,15.8386,-0.453499,-3.81528
556,15.8548,-0.456537,-3.81528
556.5,15.8705,-0.457823,-3.81529
557,15.8866,-0.461871,-3.815
557.5,15.9025,-0.462887,-3.81555
558,15.9186,-0.468215,-3.81561
558.5,15.9347,-0.466267,-3.81561
559,15.9507,-0.469218,-3.81561
559.5,15.9663,-0.47556,-3.81561
560,15.9824,-0.475788,-3.81561
560.5,15.9987,-0.475286,-3.8158
561,16.0145,-0.47272,-3.81593
561.5,16.0305,-0.47599,-3.81594
562,16.0464,-0.481581,-3.81594
562.5,16.0622,-0.48596,-3.81594
563,16.0786,-0.491456,-3.81594
563.5,16.0943,-0.49559,-3.81594
564,16.1103,-0.495482,-3.81594
564.5,16.1261,-0.491209,-3.81594
565,16.1423,-0.479171,-3.81594
565.5,16.1582,-0.486366,-3.81594
566,16.1741,-0.483528,-3.81596
566.5,16.1902,-0.488235,-3.81683
567,16.206,-0.491859,-3.81691
567.5,16.2225,-0.492437,-3.81693
568,16.238,-0.496764,-3.81693
568.5,16.2543,-0.502939,-3.81693
569,16.2703,-0.496969,-3.81693
569.5,16.2859,-0.498954,-3.81693
570,16.3022,-0.503026,-3.81693
570.5,16.3182,-0.50756,-3.81693
571,16.3344,-0.510993,-3.81693
571.5,16.3502,-0.506193,-3.81693
572,16.3663,-0.503881,-3.81698
572.5,16.3819,-0.503923,-3.81626
573,16.3983,-0.513671,-3.81636
573.5,16.4144,-0.515117,-3.81555
574,16.4302,-0.51727,-3.81562
574.5,16.4463,-0.517577,-3.8156
575,16.4622,-0.518765,-3.81628
575.5,16.4782,-0.516486,-3.81659
576,16.4943,-0.522266,-3.8166
576.5,16.5106,-0.526268,-3.8166
577,16.5262,-0.520464,-3.8166
577.5,16.5423,-0.515826,-3.8166
578,16.5585,-0.520864,-3.8166
578.5,16.5745,-0.527271,-3.8166
579,16.5898,-0.531432,-3.8166
579.5,16.6065,-0.534817,-3.8166
580,16.6227,-0.536885,-3.8166
580.5,16.6385,-0.538281,-3.81661
581,16.6546,-0.535492,-3.81664
581.5,16.6707,-0.541822,-3.81601
582,16.6867,-0.538188,-3.81596
582.5,16.7028,-0.531798,-3.81594
583,16.719,-0.543654,-3.81594
583.5,16.7348,-0.544218,-3.81594
584,16.7509,-0.541085,-3.81594
584.5,16.7669,-0.538263,-3.81692
585,16.7833,-0.53397,-3.81766
585.5,16.7991,-0.537504,-3.81778
586,16.8154,-0.533148,-3.81754
586.5,16.8312,-0.533609,-3.81647
587,16.8473,-0.536304,-3.81667
587.5,16.8631,-0.529623,-3.81616
588,16.8792,-0.528024,-3.81615
588.5,16.8956,-0.534489,-3.81611
589,16.9119,-0.535406,-3.81716
589.5,16.9275,-0.539665,-3.81747
590,16.9439,-0.544796,-3.81747
590.5,16.96,-0.544378,-3.81747
591,16.976,-0.544474,-3.81746
591.5,16.9919,-0.539931,-3.81746
592,17.0077,-0.536873,-3.81633
592.5,17.0241,-0.542695,-3.81617
593,17.0405,-0.548539,-3.81616
593.5,17.0564,-0.547018,-3.81616
594,17.0727,-0.548314,-3.81616
594.5,17.0886,-0.548556,-3.81616
595,17.1047,-0.55205,-3.81618
595.5,17.1209,-0.550783,-3.81569
596,17.1369,-0.560872,-3.8155
596.5,17.153,-0.546048,-3.81549
597,17.1693,-0.544739,-3.8144
597.5,17.1851,-0.535839,-3.81421
598,17.2016,-0.538946,-3.81418
598.5,17.2177,-0.534117,-3.81418
599,17.2339,-0.542607,-3.81418
599.5,17.2497,-0.547379,-3.81418
600,17.2657,-0.547737,-3.81417
600.5,17.2819,-0.551747,-3.81498
601,17.298,-0.55559,-3.81549
601.5,17.3141,-0.549405,-3.8155
602,17.3305,-0.543714,-3.8155
602.5,17.3465,-0.5481,-3.8155
603,17.3628,-0.549312,-3.8155
603.5,17.3784,-0.550118,-3.8155
604,17.3945,-0.549757,-3.8155
604.5,17.4112,-0.555274,-3.8155
605,17.427,-0.559873,-3.81549
605.5,17.4432,-0.551985,-3.81595
606,17.4596,-0.551546,-3.81687
606.5,17.4755,-0.556907,-3.81683
607,17.4918,-0.559284,-3.81682
607.5,17.508,-0.564552,-3.81682
608,17.5241,-0.566851,-3.81682
608.5,17.5401,-0.570632,-3.81682
609,17.5564,-0.581354,-3.81682
609.5,17.5726,-0.58248,-3.81677
610,17.5887,-0.571602,-3.81758
610.5,17.6052,-0.565724,-3.81816
611,17.6211,-0.573317,-3.81814
611.5,17.6365,-0.571202,-3.81814
612,17.6534,-0.574615,-3.81814
612.5,17.6699,-0.576733,-3.81814
613,17.6858,-0.577976,-3.81793
613.5,17.7013,-0.586619,-3.81673
614,17.718,-0.588295,-3.81682
614.5,17.7344,-0.589677,-3.81678
615,17.7503,-0.588767,-3.81771
615.5,17.7666,-0.591531,-3.81815
616,17.7829,-0.588374,-3.81814
616.5,17.799,-0.587605,-3.81812
617,17.8152,-0.598208,-3.81862
617.5,17.8314,-0.594543,-3.8195
618,17.8474,-0.591551,-3.8195
618.5,17.8636,-0.59589,-3.81868
619,17.8791,-0.601858,-3.8181
619.5,17.8953,-0.603042,-3.81813
620,17.9118,-0.602687,-3.81812
620.5,17.9276,-0.602689,-3.81812
621,17.9442,-0.606709,-3.81697
621.5,17.9605,-0.600533,-3.81683
622,17.9773,-0.605868,-3.81682
622.5,17.9933,-0.614012,-3.81682
623,18.0094,-0.610389,-3.81682
623.5,18.0256,-0.610449,-3.81684
624,18.0418,-0.616014,-3.81721
624.5,18.0582,-0.621783,-3.81813
625,18.0743,-0.621522,-3.81813
625.5,18.0904,-0.621431,-3.81815
626,18.1067,-0.62469,-3.81809
626.5,18.1229,-0.62562,-3.81939
627,18.1393,-0.631693,-3.81943
627.5,18.1554,-0.628138,-3.81932
628,18.1715,-0.638736,-3.81826
628.5,18.1874,-0.641481,-3.8188
629,18.2041,-0.639388,-3.81879
629.5,18.2202,-0.639965,-3.81879
630,18.2361,-0.646579,-3.81879
630.5,18.2524,-0.643469,-3.81879
631,18.2686,-0.64397,-3.81879
631.5,18.2849,-0.64407,-3.81879
632,18.3014,-0.644258,-3.81879
632.5,18.3174,-0.649628,-3.81879
633,18.3335,-0.646735,-3.81879
633.5,18.3501,-0.646849,-3.81879
634,18.3664,-0.65533,-3.81879
634.5,18.3823,-0.652945,-3.81879
635,18.3987,-0.655341,-3.81879
635.5,18.415,-0.657571,-3.81879
636,18.4312,-0.663546,-3.81879
636.5,18.4476,-0.659897,-3.81879
637,18.4635,-0.662686,-3.81872
637.5,18.4796,-0.662574,-3.8195
638,18.4961,-0.665022,-3.81945
638.5,18.5125,-0.664689,-3.81945
639,18.5287,-0.663819,-3.8194
639.5,18.5447,-0.662723,-3.82025
640,18.5612,-0.667296,-3.82072
640.5,18.5773,-0.665251,-3.82176
641,18.5937,-0.673878,-3.8221
641.5,18.6098,-0.669461,-3.82145
642,18.6261,-0.672837,-3.82076
642.5,18.6425,-0.671251,-3.82077
643,18.6587,-0.668649,-3.82077
643.5,18.6748,-0.673106,-3.82077
644,18.691,-0.680243,-3.82077
644.5,18.7074,-0.683763,-3.82077
645,18.7238,-0.693322,-3.82077
645.5,18.7399,-0.697582,-3.82077
646,18.7564,-0.699567,-3.82077
646.5,18.7724,-0.69741,-3.82077
647,18.7886,-0.702776,-3.82077
647.5,18.8052,-0.710121,-3.82077
648,18.8212,-0.706991,-3.82084
648.5,18.8374,-0.712154,-3.82175
649,18.8537,-0.710899,-3.82174
649.5,18.8702,-0.711659,-3.82175
650,18.8864,-0.719133,-3.82178
650.5,18.9027,-0.726582,-3.82119
651,18.9187,-0.732478,-3.82038
651.5,18.9352,-0.731657,-3.82043
652,18.9517,-0.73337,-3.82044
652.5,18.9678,-0.733351,-3.81966
653,18.984,-0.737195,-3.81913
653.5,19.0005,-0.733026,-3.81912
654,19.0166,-0.732845,-3.81912
654.5,19.033,-0.737026,-3.81913
655,19.0492,-0.740211,-3.81917
655.5,19.0655,-0.737874,-3.81946
656,19.0817,-0.742736,-3.81946
656.5,19.098,-0.747095,-3.81953
657,19.1144,-0.747142,-3.82046
657.5,19.1307,-0.747522,-3.82042
658,19.1468,-0.748972,-3.82043
658.5,19.1635,-0.754072,-3.82034
659,19.1796,-0.748732,-3.82157
659.5,19.1958,-0.745281,-3.82175
660,19.2122,-0.754745,-3.82175
660.5,19.2287,-0.767146,-3.82175
661,19.2449,-0.765381,-3.82175
661.5,19.2611,-0.765408,-3.82175
662,19.2775,-0.761946,-3.82175
662.5,19.2937,-0.76271,-3.82175
663,19.31,-0.769477,-3.82175
663.5,19.3263,-0.762486,-3.82175
664,19.3427,-0.76648,-3.82169
664.5,19.3591,-0.773842,-3.82251
665,19.3754,-0.774768,-3.82271
665.5,19.3916,-0.77612,-3.82319
666,19.4075,-0.781467,-3.82185
666.5,19.4236,-0.784367,-3.82176
667,19.4409,-0.777716,-3.82176
667.5,19.457,-0.776155,-3.82176
668,19.4736,-0.787746,-3.82176
668.5,19.4898,-0.783991,-3.82176
669,19.5061,-0.781036,-3.82178
669.5,19.5221,-0.789944,-3.82125
670,19.5386,-0.792959,-3.82039
670.5,19.5551,-0.795831,-3.82043
671,19.5711,-0.799654,-3.82115
671.5,19.5878,-0.792046,-3.82176
672,19.6039,-0.792446,-3.82176
672.5,19.6206,-0.801132,-3.82176
673,19.6365,-0.799168,-3.82176
673.5,19.6529,-0.79873,-3.82176
674,19.6694,-0.794876,-3.82176
674.5,19.685,-0.795925,-3.82176
675,19.7021,-0.798059,-3.82172
675.5,19.7183,-0.804674,-3.82276
676,19.7349,-0.804431,-3.82324
676.5,19.7511,-0.808074,-3.82448
677,19.7676,-0.804586,-3.82439
677.5,19.7836,-0.809563,-3.82439
678,19.8004,-0.811241,-3.82439
678.5,19.8163,-0.803646,-3.82439
679,19.8331,-0.808249,-3.82532
679.5,19.8493,-0.803985,-3.82569
680,19.8659,-0.805784,-3.82571
680.5,19.882,-0.809985,-3.82571
681,19.8986,-0.808567,-3.82571
681.5,19.9148,-0.811004,-3.82571
682,19.931,-0.812238,-3.82571
682.5,19.9476,-0.8142,-3.82571
683,19.9638,-0.816808,-3.8257
683.5,19.9803,-0.822419,-3.82543
684,19.9965,-0.825036,-3.82436
684.5,20.013,-0.826554,-3.8244
685,20.0293,-0.825924,-3.82439
685.5,20.0457,-0.824382,-3.82439
686,20.0622,-0.821324,-3.82439
686.5,20.0784,-0.826672,-3.82439
687,20.095,-0.830368,-3.82552
687.5,20.111,-0.83413,-3.82568
688,20.1276,-0.834957,-3.82571
688.5,20.144,-0.842371,-3.82571
689,20.1602,-0.837629,-3.82571
689.5,20.1766,-0.843033,-3.82571
690,20.1931,-0.849575,-3.82571
690.5,20.2094,-0.852271,-3.82571
691,20.2259,-0.849374,-3.82571
691.5,20.2424,-0.845803,-3.82559
692,20.259,-0.8522,-3.82651
692.5,20.2752,-0.851429,-3.82603
693,20.2917,-0.840589,-3.82603
693.5,20.3081,-0.834915,-3.82604
694,20.3245,-0.834473,-3.82604
694.5,20.3409,-0.844361,-3.82607
695,20.3575,-0.836044,-3.82569
695.5,20.3739,-0.830131,-3.82574
696,20.3901,-0.833431,-3.82592
696.5,20.4064,-0.849665,-3.82701
697,20.423,-0.851636,-3.82701
697.5,20.4393,-0.853582,-3.82687
698,20.4557,-0.862327,-3.82571
698.5,20.4719,-0.861707,-3.82571
699,20.4886,-0.862277,-3.8257
699.5,20.5049,-0.869489,-3.8257
700,20.5216,-0.867209,-3.8257
700.5,20.5377,-0.870257,-3.8257
701,20.5544,-0.872589,-3.8257
701.5,20.5705,-0.875071,-3.8257
702,20.5871,-0.873135,-3.8257
702.5,20.6034,-0.87261,-3.8257
703,20.6199,-0.87034,-3.8257
703.5,20.6364,-0.874057,-3.8257
704,20.6525,-0.879841,-3.8257
704.5,20.6692,-0.886717,-3.8257
705,20.6853,-0.88934,-3.8257
705.5,20.702,-0.886716,-3.82572
706,20.7184,-0.889311,-3.82575
706.5,20.7348,-0.899969,-3.8264
707,20.7512,-0.894936,-3.82564
707.5,20.7675,-0.896633,-3.82571
708,20.784,-0.895622,-3.82571
708.5,20.8006,-0.891979,-3.82571
709,20.817,-0.896584,-3.82571
709.5,20.8337,-0.900957,-3.82571
710,20.8499,-0.902044,-3.82572
710.5,20.8664,-0.908956,-3.82567
711,20.8827,-0.912292,-3.82644
711.5,20.8995,-0.915241,-3.82638
712,20.9155,-0.909,-3.82631
712.5,20.9323,-0.921347,-3.8271
713,20.9486,-0.922151,-3.82703
713.5,20.9653,-0.928482,-3.82703
714,20.9814,-0.928696,-3.82701
714.5,20.998,-0.931457,-3.82699
715,21.0146,-0.938853,-3.82633
715.5,21.0302,-0.946587,-3.82636
716,21.0475,-0.945281,-3.82637
716.5,21.0641,-0.945247,-3.82637
717,21.0803,-0.945382,-3.82637
717.5,21.0965,-0.950668,-3.82637
718,21.1134,-0.953331,-3.82637
718.5,21.1297,-0.956984,-3.82635
719,21.1459,-0.957178,-3.8269
719.5,21.1626,-0.959631,-3.82775
720,21.1791,-0.967991,-3.82771
720.5,21.1957,-0.969782,-3.82716
721,21.2121,-0.960088,-3.82785
721.5,21.2284,-0.953085,-3.82833
722,21.2448,-0.965234,-3.82834
722.5,21.2616,-0.957739,-3.82834
723,21.2779,-0.958073,-3.82834
723.5,21.2943,-0.965052,-3.82834
724,21.3108,-0.974473,-3.82834
724.5,21.3273,-0.985906,-3.82834
725,21.344,-0.976697,-3.82801
725.5,21.3604,-0.984852,-3.82697
726,21.3768,-0.983787,-3.82702
726.5,21.3933,-0.98585,-3.82701
727,21.4099,-0.976555,-3.82697
727.5,21.4263,-0.965386,-3.82791
728,21.4429,-0.959276,-3.82835
728.5,21.4593,-0.954523,-3.82834
729,21.4759,-0.958955,-3.82834
729.5,21.4924,-0.950362,-3.82825
730,21.5089,-0.941335,-3.82944
730.5,21.5255,-0.941428,-3.82919
731,21.5421,-0.937698,-3.82902
731.5,21.5582,-0.941962,-3.829
732,21.5749,-0.945896,-3.829
732.5,21.5917,-0.939225,-3.829
733,21.6073,-0.932934,-3.829
733.5,21.6242,-0.93477,-3.829
734,21.6411,-0.929824,-3.82899
734.5,21.6574,-0.935334,-3.82926
735,21.6741,-0.918194,-3.83004
735.5,21.69,-0.900678,-3.82999
736,21.7042,-0.735846,-3.82999
736.5,21.7222,-0.685616,-3.82999
737,21.7386,-0.640087,-3.82999
737.5,21.7552,-0.619722,-3.82999
738,21.772,-0.605265,-3.83
738.5,21.7886,-0.586087,-3.82961
739,21.8066,-0.593917,-3.82862
739.5,21.8232,-0.747944,-3.82867
740,21.8398,-0.76518,-3.82868