File: 01_Data/Helmet_Buckle/STA/N2/30K_min/Helmet_Buckle_STA_N2_30KData_250402_R4.csv
Temp./C,Time/min,DSC/(mW/mg),Mass loss/mg
35.0,0.0,1.46066,0.00159141
35.5,0.03229,1.51186,0.00138327
36,0.0639046,1.5659,-0.000636284
36.5,0.0954423,1.60875,0.000720831
37,0.125841,1.66174,0.000856618
37.5,0.155504,1.72309,1.41703e-05
38,0.184741,1.76204,0.00116691
38.5,0.213241,1.81473,-5.81042e-05
39,0.241902,1.84683,-0.000577748
39.5,0.2697,1.90975,-0.00153445
40,0.297249,1.94511,-0.000886912
40.5,0.323499,1.99159,-9.08782e-05
41,0.348883,2.0261,0.00021868
41.5,0.376654,2.06903,3.14212e-05
42,0.402444,2.10424,-0.000643538
42.5,0.426766,2.14936,-0.000289426
43,0.453061,2.18174,0.000406072
43.5,0.477811,2.21712,0.000205871
44,0.502474,2.2573,0.000498983
44.5,0.526301,2.27949,0.000466461
45,0.550888,2.32889,-0.000713371
45.5,0.575325,2.35802,-0.000665581
46,0.59881,2.38983,0.00085444
46.5,0.62231,2.40885,0.00129009
47,0.646369,2.4485,0.000545648
47.5,0.668123,2.48016,4.29845e-05
48,0.690941,2.51148,-0.000555807
48.5,0.715697,2.53709,-0.000973996
49,0.738674,2.56598,-0.00181226
49.5,0.760606,2.59932,-0.00199643
50,0.783505,2.62269,-0.0018623
50.5,0.805552,2.64853,-0.00156121
51,0.82703,2.67837,-0.00206697
51.5,0.850637,2.712,-0.00167263
52,0.872914,2.72636,-0.0012727
52.5,0.894133,2.75567,-0.00161977
53,0.916256,2.79211,-0.00225781
53.5,0.937879,2.809,-0.00175693
54,0.959145,2.84346,-0.00113286
54.5,0.981201,2.86964,-0.000818412
55,1.00243,2.89656,-0.00110939
55.5,1.02332,2.92867,-0.000830397
56,1.04383,2.96034,-0.000871458
56.5,1.06474,2.9873,-0.000381886
57,1.08671,3.01796,0.00040153
57.5,1.10771,3.04409,0.00131175
58,1.12904,3.07409,0.00103713
58.5,1.1495,3.11173,0.00126085
59,1.16949,3.13358,0.00129508
59.5,1.19029,3.16263,0.00206075
60,1.2115,3.18988,0.00236652
60.5,1.23177,3.22542,0.00244727
61,1.25221,3.25038,0.00112577
61.5,1.27265,3.27658,0.00114861
62,1.29294,3.31323,0.000442853
62.5,1.31305,3.34033,0.0011946
63,1.3324,3.36991,0.000934612
63.5,1.35319,3.39224,8.48438e-05
64,1.37345,3.42161,-0.000439587
64.5,1.39334,3.44287,-0.00119344
65,1.41336,3.47012,-0.00136537
65.5,1.43296,3.4969,-0.00115417
66,1.45327,3.51713,-0.000557995
66.5,1.47311,3.54415,-0.00142762
67,1.49241,3.55648,0.000153466
67.5,1.51253,3.57796,-0.000702261
68,1.53087,3.6,-0.000799894
68.5,1.5511,3.60298,-0.000356801
69,1.57112,3.61693,-0.00154237
69.5,1.59005,3.6349,-0.000985972
70,1.60963,3.64331,-0.00234876
70.5,1.62962,3.64228,-0.00330461
71,1.64876,3.63867,-0.00339525
71.5,1.6676,3.63124,-0.00272476
72,1.68739,3.63306,-0.00292231
72.5,1.7059,3.62937,-0.00287718
73,1.72501,3.62092,-0.00361767
73.5,1.74444,3.61151,-0.00474634
74,1.76345,3.59101,-0.00513643
74.5,1.78214,3.58039,-0.00651227
75,1.80107,3.5641,-0.0058036
75.5,1.82019,3.55739,-0.00614654
76,1.83856,3.53515,-0.0056156
76.5,1.85752,3.53133,-0.00534894
77,1.87576,3.51852,-0.00582456
77.5,1.89504,3.49657,-0.0053406
78,1.91392,3.4811,-0.00634819
78.5,1.93252,3.47705,-0.00739523
79,1.95132,3.4624,-0.00651633
79.5,1.96971,3.46295,-0.00770323
80,1.98815,3.45927,-0.00787652
80.5,2.00725,3.45143,-0.00814048
81,2.02539,3.4573,-0.0082067
81.5,2.04408,3.46275,-0.00837443
82,2.06142,3.45505,-0.0080209
82.5,2.07982,3.45383,-0.00880439
83,2.09883,3.45494,-0.00794568
83.5,2.11695,3.46094,-0.00911897
84,2.13558,3.45547,-0.0078895
84.5,2.15428,3.46261,-0.0090878
85,2.17271,3.46025,-0.00788884
85.5,2.19122,3.47002,-0.00845605
86,2.20906,3.46894,-0.00798995
86.5,2.22698,3.47014,-0.0079219
87,2.2451,3.47616,-0.00701874
87.5,2.26352,3.4823,-0.00660634
88,2.28185,3.4794,-0.00658066
88.5,2.29846,3.4889,-0.00660401
89,2.31746,3.48796,-0.005696
89.5,2.33548,3.49448,-0.00664026
90,2.35326,3.50077,-0.00655064
90.5,2.37096,3.50808,-0.00606269
91,2.38936,3.51245,-0.00661399
91.5,2.40718,3.52373,-0.00697558
92,2.42453,3.52874,-0.00696818
92.5,2.44258,3.53854,-0.00745044
93,2.46036,3.54223,-0.0083668
93.5,2.47823,3.55569,-0.00921692
94,2.49619,3.56553,-0.00873853
94.5,2.51236,3.57342,-0.00912691
95,2.5308,3.58817,-0.00990193
95.5,2.54879,3.59106,-0.0092568
96,2.56668,3.59795,-0.00940331
96.5,2.584,3.611,-0.0099017
97,2.60131,3.6319,-0.0091185
97.5,2.61856,3.63388,-0.00876813
98,2.6363,3.6435,-0.00991429
98.5,2.65389,3.65469,-0.00988363
99,2.67122,3.66506,-0.0094311
99.5,2.6886,3.68434,-0.0085383
100,2.70597,3.69357,-0.00856445
100.5,2.72357,3.7031,-0.0098229
101,2.74064,3.72495,-0.00984977
101.5,2.758,3.73622,-0.00869069
102,2.77566,3.74732,-0.0085757
102.5,2.79272,3.75848,-0.00851995
103,2.81013,3.76787,-0.00964381
103.5,2.82713,3.7773,-0.00990644
104,2.8445,3.79297,-0.00884521
104.5,2.86181,3.81507,-0.00856902
105,2.87918,3.82,-0.00854978
105.5,2.89616,3.82909,-0.00904705
106,2.91311,3.84867,-0.00925799
106.5,2.93054,3.85445,-0.00856776
107,2.94744,3.86558,-0.00861606
107.5,2.96502,3.87757,-0.00795261
108,2.9816,3.89364,-0.00858866
108.5,2.99883,3.90831,-0.00852754
109,3.01579,3.92857,-0.009312
109.5,3.03308,3.94894,-0.0100467
110,3.05048,3.94995,-0.00953373
110.5,3.06743,3.97296,-0.0100084
111,3.08409,3.99042,-0.00997435
111.5,3.10071,3.99787,-0.00997305
112,3.11831,4.01046,-0.009702
112.5,3.13512,4.02345,-0.0095756
113,3.15261,4.03596,-0.00998742
113.5,3.16912,4.03906,-0.00999082
114,3.18613,4.0554,-0.0099906
114.5,3.20235,4.07239,-0.00998365
115,3.21914,4.0886,-0.00990232
115.5,3.23686,4.09289,-0.0109687
116,3.25431,4.10545,-0.00987536
116.5,3.27099,4.11989,-0.00997629
117,3.28793,4.13204,-0.0099807
117.5,3.30457,4.15302,-0.00997854
118,3.32106,4.16202,-0.0099745
118.5,3.3383,4.1726,-0.0100468
119,3.35508,4.18613,-0.00872061
119.5,3.3718,4.19772,-0.00866073
120,3.38858,4.21533,-0.00866388
120.5,3.40509,4.22006,-0.00777942
121,3.42182,4.23717,-0.00744514
121.5,3.43866,4.24316,-0.00873944
122,3.45581,4.26302,-0.00873819
122.5,3.47188,4.2689,-0.0075422
123,3.48846,4.28452,-0.00731154
123.5,3.50523,4.28881,-0.00822086
124,3.522,4.30434,-0.00816247
124.5,3.53864,4.32576,-0.00739189
125,3.55481,4.33658,-0.00860912
125.5,3.57152,4.33818,-0.00865635
126,3.58843,4.3549,-0.00866948
126.5,3.60466,4.377,-0.0086701
127,3.62119,4.3789,-0.00866971
127.5,3.63779,4.39026,-0.00866945
128,3.65355,4.40722,-0.00869423
128.5,3.67083,4.41954,-0.00896018
129,3.6869,4.423,-0.00997832
129.5,3.70348,4.43218,-0.00997446
130,3.71966,4.44741,-0.00996132
130.5,3.73534,4.45977,-0.009556
131,3.75278,4.46171,-0.0102983
131.5,3.76893,4.47254,-0.0102025
132,3.78499,4.48984,-0.0101989
132.5,3.80158,4.50266,-0.0102002
133,3.81786,4.52077,-0.0101999
133.5,3.83443,4.53327,-0.010176
134,3.8502,4.53843,-0.0100269
134.5,3.86675,4.54694,-0.0088912
135,3.88278,4.5583,-0.00888276
135.5,3.89889,4.57838,-0.00888
136,3.91529,4.58577,-0.00888172
136.5,3.93128,4.59905,-0.00889442
137,3.94756,4.60997,-0.0088329
137.5,3.96386,4.61491,-0.0101279
138,3.9795,4.62102,-0.0101984
138.5,3.99564,4.63141,-0.0102004
139,4.01228,4.64464,-0.0102001
139.5,4.02829,4.65857,-0.0101999
140,4.04378,4.6668,-0.0101986
140.5,4.0594,4.67648,-0.010202
141,4.076,4.68562,-0.0102825
141.5,4.09193,4.69761,-0.00907074
142,4.10808,4.71131,-0.00912341
142.5,4.12416,4.71439,-0.0102989
143,4.14044,4.72795,-0.010203
143.5,4.15616,4.74143,-0.01019
144,4.17239,4.75058,-0.0107885
144.5,4.18797,4.75732,-0.0115486
145,4.20391,4.76824,-0.0115266
145.5,4.21974,4.77531,-0.01152
146,4.23565,4.79589,-0.0115158
146.5,4.25161,4.79172,-0.0115016
147,4.26741,4.80334,-0.0119589
147.5,4.28349,4.81387,-0.0128803
148,4.29895,4.82375,-0.0128277
148.5,4.31499,4.83028,-0.0128291
149,4.32981,4.84106,-0.01283
149.5,4.34563,4.85791,-0.01283
150,4.36272,4.86312,-0.01283
150.5,4.37803,4.87541,-0.01283
151,4.39406,4.88685,-0.01283
151.5,4.40999,4.89359,-0.01283
152,4.42568,4.89372,-0.0128301
152.5,4.44116,4.90322,-0.0128297
153,4.45694,4.9255,-0.0128228
153.5,4.47262,4.93421,-0.0128084
154,4.48834,4.94321,-0.0107878
154.5,4.50443,4.95824,-0.0102176
155,4.5198,4.9656,-0.0102083
155.5,4.53582,4.97348,-0.00988503
156,4.55138,4.98471,-0.00885558
156.5,4.56717,4.99118,-0.00889758
157,4.58251,4.99963,-0.00889091
157.5,4.5982,5.00874,-0.00888992
158,4.61398,5.01564,-0.00889003
158.5,4.62981,5.02032,-0.00888959
159,4.64508,5.02581,-0.00888491
159.5,4.66109,5.03484,-0.00890254
160,4.67663,5.04531,-0.00926509
160.5,4.69202,5.05572,-0.0101999
161,4.70799,5.06249,-0.0101992
161.5,4.72343,5.06187,-0.0102109
162,4.73847,5.07018,-0.0101595
162.5,4.75464,5.07755,-0.0112386
163,4.77035,5.0815,-0.0115171
163.5,4.78597,5.09344,-0.011521
164,4.80143,5.10654,-0.0115131
164.5,4.81691,5.11188,-0.0116087
165,4.8319,5.11446,-0.0103892
165.5,4.84779,5.11672,-0.0101904
166,4.86355,5.12313,-0.0105778
166.5,4.87896,5.13068,-0.0115952
167,4.89475,5.15222,-0.0115254
167.5,4.91015,5.15492,-0.0115188
168,4.92602,5.15356,-0.0115199
168.5,4.94063,5.16664,-0.01152
169,4.95675,5.17354,-0.01152
169.5,4.97224,5.17755,-0.01152
170,4.98772,5.18903,-0.01152
170.5,5.00312,5.19786,-0.01152
171,5.01873,5.1947,-0.01152
171.5,5.03442,5.20625,-0.0115202
172,5.04975,5.21395,-0.0115199
172.5,5.06523,5.21795,-0.0115064
173,5.08071,5.22702,-0.0114931
173.5,5.09606,5.23655,-0.0103855
174,5.11155,5.23737,-0.0102094
174.5,5.12711,5.25019,-0.0101979
175,5.14211,5.25286,-0.0101998
175.5,5.15799,5.25931,-0.0102
176,5.17335,5.26527,-0.0102001
176.5,5.1888,5.26864,-0.0102017
177,5.20392,5.27857,-0.0101976
177.5,5.21972,5.29669,-0.0100989
178,5.23481,5.30096,-0.0112032
178.5,5.25026,5.31095,-0.0111628
179,5.2656,5.3186,-0.0112029
179.5,5.28069,5.32508,-0.0112175
180,5.29608,5.32713,-0.0123235
180.5,5.31141,5.33416,-0.0125044
181,5.32602,5.34587,-0.0125305
181.5,5.34248,5.35116,-0.0120986
182,5.35781,5.36036,-0.0111478
182.5,5.37286,5.37398,-0.0111972
183,5.38833,5.37901,-0.0111914
183.5,5.40345,5.38274,-0.0111866
184,5.41878,5.39443,-0.0111555
184.5,5.43404,5.39117,-0.0117006
185,5.44835,5.39553,-0.0125642
185.5,5.4649,5.40439,-0.0125046
186,5.48005,5.41416,-0.0125089
186.5,5.49507,5.42805,-0.0125446
187,5.51035,5.43193,-0.0121714
187.5,5.52527,5.43764,-0.0121908
188,5.54052,5.44516,-0.0121842
188.5,5.55594,5.4534,-0.0119778
189,5.57093,5.45619,-0.0118549
189.5,5.58617,5.46114,-0.0118479
190,5.60151,5.4725,-0.0118499
190.5,5.61686,5.47975,-0.01185
191,5.63177,5.48701,-0.01185
191.5,5.64708,5.49885,-0.01185
192,5.66227,5.50616,-0.01185
192.5,5.67723,5.50938,-0.01185
193,5.69234,5.51237,-0.01185
193.5,5.70752,5.52216,-0.01185
194,5.72275,5.51981,-0.01185
194.5,5.7378,5.5302,-0.01185
195,5.75295,5.53211,-0.01185
195.5,5.76826,5.53973,-0.01185
196,5.78311,5.54548,-0.01185
196.5,5.79829,5.55487,-0.01185
197,5.81331,5.56108,-0.0118504
197.5,5.8285,5.56486,-0.01185
198,5.8437,5.57431,-0.0118311
198.5,5.85858,5.57871,-0.0118136
199,5.8738,5.58271,-0.0111307
199.5,5.889,5.59521,-0.011188
200,5.90377,5.60718,-0.0111911
200.5,5.91901,5.61412,-0.01119
201,5.93386,5.62822,-0.01119
201.5,5.949,5.63677,-0.01119
202,5.96411,5.63801,-0.01119
202.5,5.97935,5.64655,-0.01119
203,5.99449,5.65251,-0.01119
203.5,6.00935,5.6619,-0.01119
204,6.02453,5.66733,-0.0111901
204.5,6.03972,5.67509,-0.0111903
205,6.05498,5.68375,-0.0111825
205.5,6.06943,5.69452,-0.0111905
206,6.08468,5.70281,-0.0117174
206.5,6.0993,5.70781,-0.0125124
207,6.11447,5.72407,-0.0125086
207.5,6.12923,5.73376,-0.01251
208,6.14464,5.74145,-0.01251
208.5,6.15996,5.74644,-0.01251
209,6.17492,5.7561,-0.01251
209.5,6.1899,5.76032,-0.01251
210,6.20492,5.77489,-0.01251
210.5,6.2199,5.78257,-0.01251
211,6.23492,5.79737,-0.0125095
211.5,6.24996,5.81077,-0.0125095
212,6.26493,5.81592,-0.0125324
212.5,6.27918,5.82136,-0.0121775
213,6.29444,5.82642,-0.0118245
213.5,6.30966,5.83871,-0.01185
214,6.32495,5.84392,-0.0118505
214.5,6.33972,5.8569,-0.01185
215,6.35489,5.86966,-0.01185
215.5,6.37002,5.87316,-0.01185
216,6.38478,5.88831,-0.01185
216.5,6.39979,5.9049,-0.01185
217,6.41377,5.92054,-0.01185
217.5,6.42888,5.9286,-0.01185
218,6.44396,5.93033,-0.0118515
218.5,6.45911,5.94059,-0.0118478
219,6.47388,5.95446,-0.0117505
219.5,6.48977,5.97345,-0.0112067
220,6.50458,5.98638,-0.0111973
220.5,6.51917,6.00044,-0.0111894
221,6.5344,6.00994,-0.0111836
221.5,6.54931,6.02015,-0.0111983
222,6.56462,6.03501,-0.011612
222.5,6.5794,6.04536,-0.012508
223,6.59426,6.0502,-0.0125085
223.5,6.60916,6.06375,-0.0125101
224,6.62414,6.07911,-0.0125102
224.5,6.63936,6.09552,-0.0125097
225,6.65416,6.11607,-0.0124992
225.5,6.66925,6.12144,-0.0125275
226,6.68392,6.12772,-0.0115263
226.5,6.69916,6.14117,-0.0111825
227,6.71396,6.1539,-0.0111863
227.5,6.72898,6.1753,-0.0111902
228,6.74398,6.19251,-0.0111901
228.5,6.75904,6.20834,-0.01119
229,6.77385,6.2284,-0.01119
229.5,6.78855,6.2346,-0.01119
230,6.80384,6.25503,-0.0111905
230.5,6.81796,6.27448,-0.0111878
231,6.83348,6.29089,-0.0111651
231.5,6.84852,6.30444,-0.0114833
232,6.86335,6.32941,-0.011512
232.5,6.87837,6.33922,-0.0115156
233,6.89364,6.35031,-0.0114425
233.5,6.90812,6.37553,-0.0123689
234,6.92318,6.39219,-0.0124829
234.5,6.93806,6.41139,-0.0125125
235,6.95319,6.43326,-0.0125081
235.5,6.96793,6.45509,-0.0125221
236,6.98284,6.48137,-0.012642
236.5,6.99818,6.48933,-0.0137771
237,7.01307,6.51513,-0.0138073
237.5,7.02797,6.53387,-0.0145597
238,7.04278,6.56855,-0.0144897
238.5,7.05769,6.59715,-0.0144886
239,7.0726,6.62564,-0.01449
239.5,7.08778,6.6615,-0.01449
240,7.10256,6.69203,-0.01449
240.5,7.11744,6.72863,-0.01449
241,7.13247,6.76178,-0.01449
241.5,7.14737,6.81445,-0.01449
242,7.16253,6.86179,-0.01449
242.5,7.17777,6.90998,-0.01449
243,7.19251,6.97224,-0.01449
243.5,7.20786,7.04102,-0.01449
244,7.22297,7.10263,-0.01449
244.5,7.23793,7.17662,-0.01449
245,7.2534,7.27186,-0.01449
245.5,7.26832,7.37179,-0.01449
246,7.28345,7.47758,-0.01449
246.5,7.29933,7.59026,-0.01449
247,7.31405,7.7153,-0.01449
247.5,7.32954,7.86798,-0.01449
248,7.34488,8.02605,-0.01449
248.5,7.36021,8.20697,-0.01449
249,7.37597,8.42006,-0.0144896
249.5,7.39155,8.65902,-0.0144894
250,7.4073,8.93328,-0.014509
250.5,7.42342,9.24071,-0.0144976
251,7.43929,9.58531,-0.015215
251.5,7.45546,9.94495,-0.0151494
252,7.47167,10.3232,-0.0151487
252.5,7.48761,10.6978,-0.01515
253,7.50397,11.0903,-0.0151492
253.5,7.52057,11.4953,-0.0151521
254,7.53653,11.8871,-0.0151885
254.5,7.55278,12.2947,-0.01461
255,7.569,12.6835,-0.0137765
255.5,7.58535,13.0817,-0.0138283
256,7.60148,13.4658,-0.013802
256.5,7.61799,13.8592,-0.0146229
257,7.63402,14.2344,-0.0151448
257.5,7.65029,14.6074,-0.0151497
258,7.66635,14.983,-0.0145983
258.5,7.68288,15.3528,-0.0137626
259,7.69862,15.6956,-0.0138141
259.5,7.7146,16.0152,-0.0138199
260,7.73066,16.2601,-0.0138173
260.5,7.74479,16.3088,-0.0139057
261,7.75877,16.0651,-0.0129405
261.5,7.77138,15.5425,-0.0125214
262,7.78433,14.8176,-0.012521
262.5,7.79722,14.0807,-0.0135613
263,7.80978,13.4256,-0.0138311
263.5,7.8227,12.8004,-0.0138338
264,7.83566,12.2274,-0.0138298
264.5,7.84876,11.7124,-0.0138299
265,7.8622,11.2242,-0.01383
265.5,7.87547,10.7841,-0.0138302
266,7.88895,10.3855,-0.0138296
266.5,7.90225,10.0183,-0.0138232
267,7.91623,9.66809,-0.0138554
267.5,7.92971,9.36039,-0.0134631
268,7.94351,9.07928,-0.0135038
268.5,7.95733,8.81415,-0.0135006
269,7.97151,8.56409,-0.0134999
269.5,7.98546,8.3469,-0.0135
270,7.99952,8.14469,-0.0135
270.5,8.01334,7.97469,-0.0135004
271,8.02752,7.8105,-0.0134982
271.5,8.04173,7.65504,-0.0134909
272,8.05638,7.51552,-0.0136022
272.5,8.07032,7.38789,-0.0123629
273,8.08465,7.2718,-0.0119421
273.5,8.09921,7.16246,-0.011965
274,8.11355,7.07749,-0.0121125
274.5,8.12793,6.98449,-0.0133938
275,8.14257,6.92064,-0.0135804
275.5,8.15696,6.85393,-0.0148434
276,8.17151,6.78686,-0.0150794
276.5,8.186,6.71764,-0.0143882
277,8.20056,6.66815,-0.0144087
277.5,8.21522,6.62492,-0.0154521
278,8.22955,6.58149,-0.0153586
278.5,8.24425,6.54048,-0.0153581
279,8.25883,6.50126,-0.0153601
279.5,8.27362,6.47251,-0.01536
280,8.28806,6.45212,-0.01536
280.5,8.30277,6.43242,-0.01536
281,8.3172,6.40487,-0.01536
281.5,8.33191,6.38065,-0.01536
282,8.3466,6.3659,-0.01536
282.5,8.36156,6.35002,-0.01536
283,8.37596,6.3293,-0.01536
283.5,8.39099,6.32475,-0.01536
284,8.40548,6.31126,-0.0153599
284.5,8.42042,6.2945,-0.0153621
285,8.43498,6.27982,-0.0153672
285.5,8.44984,6.27471,-0.0152542
286,8.46446,6.2643,-0.0165409
286.5,8.47926,6.24966,-0.0169132
287,8.49376,6.25151,-0.0169004
287.5,8.50887,6.24115,-0.0168979
288,8.52326,6.23389,-0.0168994
288.5,8.53821,6.22718,-0.0169874
289,8.55279,6.21482,-0.0159046
289.5,8.56776,6.21322,-0.0154538
290,8.58216,6.21482,-0.0154686
290.5,8.59725,6.20773,-0.0154849
291,8.61195,6.20288,-0.0155471
291.5,8.62671,6.1985,-0.0165282
292,8.64164,6.19589,-0.0164417
292.5,8.65628,6.19735,-0.01646
293,8.67099,6.19532,-0.0164604
293.5,8.68594,6.18363,-0.01646
294,8.70075,6.19531,-0.01646
294.5,8.71573,6.1934,-0.01646
295,8.73045,6.19871,-0.01646
295.5,8.74535,6.19938,-0.01646
296,8.75976,6.20184,-0.01646
296.5,8.77446,6.18992,-0.01646
297,8.78945,6.19238,-0.01646
297.5,8.80443,6.19575,-0.01646
298,8.8189,6.1948,-0.01646
298.5,8.83375,6.19437,-0.01646
299,8.84896,6.19389,-0.01646
299.5,8.86356,6.19453,-0.01646
300,8.87836,6.19107,-0.01646
300.5,8.89316,6.1938,-0.01646
301,8.90808,6.199,-0.01646
301.5,8.923,6.19643,-0.01646
302,8.93768,6.19114,-0.01646
302.5,8.95249,6.19,-0.01646
303,8.96723,6.18816,-0.01646
303.5,8.98203,6.18727,-0.0164598
304,8.99678,6.19307,-0.0164619
304.5,9.01177,6.1953,-0.0164691
305,9.02661,6.19042,-0.0163644
305.5,9.04153,6.1872,-0.0175583
306,9.05626,6.18694,-0.0177741
306.5,9.07088,6.18153,-0.0177702
307,9.0859,6.18603,-0.0177697
307.5,9.10074,6.18247,-0.0177705
308,9.11548,6.17758,-0.0177804
308.5,9.1303,6.17393,-0.0177417
309,9.14528,6.17487,-0.0187091
309.5,9.15972,6.17505,-0.0191049
310,9.17474,6.17346,-0.0190933
310.5,9.18948,6.17541,-0.0190897
311,9.20436,6.17229,-0.0190635
311.5,9.2194,6.17504,-0.0175984
312,9.23408,6.16964,-0.0173845
312.5,9.24884,6.16645,-0.0162754
313,9.26385,6.16776,-0.0162473
313.5,9.27872,6.1741,-0.0178951
314,9.29364,6.18138,-0.0183805
314.5,9.30843,6.1852,-0.0198249
315,9.32283,6.18101,-0.0204419
315.5,9.33814,6.18134,-0.0207435
316,9.35279,6.17899,-0.0208679
316.5,9.36746,6.17776,-0.0219551
317,9.38289,6.17233,-0.0220447
317.5,9.39743,6.17648,-0.022062
318,9.41244,6.17334,-0.0220603
318.5,9.42745,6.17299,-0.02206
319,9.44156,6.17427,-0.02206
319.5,9.45633,6.1684,-0.02206
320,9.47137,6.16639,-0.02206
320.5,9.48659,6.16061,-0.02206
321,9.50176,6.16105,-0.02206
321.5,9.51653,6.16596,-0.02206
322,9.53159,6.16674,-0.02206
322.5,9.54613,6.17166,-0.0220595
323,9.56127,6.17228,-0.0220581
323.5,9.57601,6.16479,-0.0220877
324,9.59099,6.17179,-0.0216926
324.5,9.60569,6.17119,-0.0211815
325,9.62054,6.17304,-0.0210722
325.5,9.63584,6.1753,-0.0210685
326,9.65052,6.16709,-0.02107
326.5,9.66532,6.17171,-0.02107
327,9.68038,6.17311,-0.02107
327.5,9.69513,6.17243,-0.0210694
328,9.71025,6.1749,-0.0210696
328.5,9.72493,6.17504,-0.0211415
329,9.73961,6.17259,-0.0223679
329.5,9.75461,6.1696,-0.0230804
330,9.76969,6.17034,-0.0237379
330.5,9.78442,6.17284,-0.0237184
331,9.79958,6.17742,-0.0237086
331.5,9.81428,6.17722,-0.0236659
332,9.82928,6.17049,-0.0243185
332.5,9.84415,6.16686,-0.0244331
333,9.85907,6.16923,-0.0236624
333.5,9.87403,6.17201,-0.0236922
334,9.88871,6.16304,-0.0237009
334.5,9.90398,6.15862,-0.0237016
335,9.91855,6.1597,-0.0236951
335.5,9.93353,6.16096,-0.0243981
336,9.94864,6.16011,-0.0250435
336.5,9.96351,6.16149,-0.0250288
337,9.9784,6.16471,-0.0250066
337.5,9.99325,6.15954,-0.0249204
338,10.0084,6.16488,-0.0238074
338.5,10.0233,6.16676,-0.023713
339,10.038,6.16607,-0.0236986
339.5,10.0532,6.16695,-0.0237238
340,10.068,6.17353,-0.0250408
340.5,10.0833,6.17705,-0.0263837
341,10.0981,6.17528,-0.0263479
341.5,10.1131,6.17855,-0.0265925
342,10.128,6.18091,-0.0277417
342.5,10.143,6.18053,-0.0277653
343,10.158,6.1782,-0.0277714
343.5,10.1728,6.17947,-0.0277672
344,10.1879,6.184,-0.0290534
344.5,10.2028,6.18459,-0.0297061
345,10.2175,6.18331,-0.0302661
345.5,10.2328,6.1886,-0.0303754
346,10.2478,6.18964,-0.0304878
346.5,10.2626,6.19647,-0.029288
347,10.2775,6.19881,-0.0290963
347.5,10.2929,6.19263,-0.0293023
348,10.3075,6.19184,-0.0304704
348.5,10.3228,6.19465,-0.030505
349,10.338,6.20176,-0.0305101
349.5,10.3526,6.2061,-0.0305064
350,10.3678,6.2103,-0.0305323
350.5,10.3827,6.21491,-0.0307336
351,10.3978,6.21986,-0.0318159
351.5,10.4125,6.23072,-0.0318283
352,10.4279,6.22587,-0.0318302
352.5,10.4427,6.23193,-0.03183
353,10.458,6.23218,-0.03183
353.5,10.4728,6.23234,-0.03183
354,10.4879,6.23763,-0.03183
354.5,10.5029,6.24529,-0.0318296
355,10.5178,6.25263,-0.0318322
355.5,10.533,6.25748,-0.0318601
356,10.548,6.25514,-0.033008
356.5,10.5631,6.26123,-0.0331213
357,10.5779,6.26297,-0.0331739
357.5,10.5931,6.26939,-0.0334066
358,10.6082,6.28052,-0.0344482
358.5,10.6232,6.28711,-0.0344554
359,10.6384,6.28829,-0.0344689
359.5,10.6535,6.29308,-0.0346261
360,10.6684,6.29675,-0.0357359
360.5,10.6835,6.31517,-0.0358531
361,10.6984,6.3085,-0.0369764
361.5,10.7135,6.31077,-0.0370893
362,10.7285,6.32804,-0.0371015
362.5,10.7436,6.34174,-0.0370948
363,10.7586,6.33893,-0.0371173
363.5,10.7737,6.35094,-0.0374298
364,10.7891,6.36417,-0.0384144
364.5,10.804,6.36604,-0.0383768
365,10.8191,6.37396,-0.0390127
365.5,10.8342,6.40049,-0.03978
366,10.8493,6.3981,-0.0397257
366.5,10.8643,6.39335,-0.0396482
367,10.8794,6.39293,-0.0406814
367.5,10.8945,6.41778,-0.0404202
368,10.9096,6.4264,-0.0396976
368.5,10.9247,6.43966,-0.0397169
369,10.9398,6.45641,-0.0400477
369.5,10.955,6.47126,-0.0411363
370,10.9702,6.48351,-0.0412709
370.5,10.9852,6.49163,-0.0424039
371,11.0005,6.49966,-0.0430701
371.5,11.0157,6.51753,-0.0437256
372,11.0305,6.53668,-0.04368
372.5,11.0455,6.55325,-0.0441831
373,11.061,6.57016,-0.0437396
373.5,11.076,6.58943,-0.0437795
374,11.0911,6.59044,-0.0452753
374.5,11.1065,6.61632,-0.0455507
375,11.1209,6.62971,-0.0467945
375.5,11.137,6.64544,-0.046662
376,11.1519,6.6679,-0.0478856
376.5,11.1673,6.69254,-0.0480851
377,11.1823,6.71626,-0.0480811
377.5,11.1974,6.73832,-0.0480755
378,11.2129,6.7603,-0.0487143
378.5,11.2278,6.77641,-0.0495645
379,11.2432,6.80259,-0.0497892
379.5,11.2578,6.83022,-0.0513007
380,11.2733,6.85104,-0.05251
380.5,11.2883,6.87543,-0.0538041
381,11.3033,6.90509,-0.0546986
381.5,11.3185,6.93898,-0.0558755
382,11.3337,6.97168,-0.0574584
382.5,11.3495,7.00414,-0.0586798
383,11.3651,7.04326,-0.0595851
383.5,11.3801,7.08242,-0.0609068
384,11.3953,7.10265,-0.0608168
384.5,11.4105,7.14036,-0.0616279
385,11.4259,7.17659,-0.06319
385.5,11.4413,7.22165,-0.063722
386,11.4565,7.26467,-0.0655926
386.5,11.4716,7.30721,-0.0677859
387,11.4873,7.3514,-0.0693238
387.5,11.5024,7.3914,-0.0707652
388,11.5178,7.43903,-0.0722757
388.5,11.5333,7.4956,-0.0740066
389,11.5482,7.53512,-0.0757995
389.5,11.5637,7.58121,-0.0778454
390,11.5791,7.63635,-0.0790701
390.5,11.5943,7.68528,-0.0810715
391,11.6097,7.73097,-0.0821552
391.5,11.6252,7.76654,-0.0832551
392,11.6403,7.82631,-0.0846705
392.5,11.6559,7.8791,-0.0868234
393,11.6706,7.92209,-0.0886418
393.5,11.686,7.97281,-0.0899578
394,11.7019,8.02485,-0.091175
394.5,11.7173,8.0721,-0.093002
395,11.7328,8.11953,-0.0957578
395.5,11.7479,8.1735,-0.097237
396,11.7635,8.21586,-0.099466
396.5,11.7789,8.2612,-0.10207
397,11.7942,8.30604,-0.103403
397.5,11.8096,8.36483,-0.105351
398,11.825,8.41729,-0.107661
398.5,11.8405,8.46817,-0.109535
399,11.8562,8.51744,-0.112007
399.5,11.8713,8.57895,-0.114233
400,11.8869,8.64867,-0.116666
400.5,11.902,8.6989,-0.119622
401,11.9177,8.72385,-0.121658
401.5,11.9332,8.75637,-0.124097
402,11.9483,8.78624,-0.127017
402.5,11.9635,8.8347,-0.128977
403,11.979,8.87696,-0.132133
403.5,11.9947,8.92061,-0.135095
404,12.01,8.96015,-0.137774
404.5,12.0256,8.99193,-0.141196
405,12.0405,9.03075,-0.143721
405.5,12.0562,9.07216,-0.14687
406,12.0716,9.11053,-0.149501
406.5,12.0873,9.13626,-0.152668
407,12.1023,9.16262,-0.156991
407.5,12.1178,9.18402,-0.159491
408,12.1334,9.23222,-0.162908
408.5,12.1486,9.26513,-0.167012
409,12.1641,9.27344,-0.170601
409.5,12.1789,9.28881,-0.175946
410,12.1949,9.30945,-0.183562
410.5,12.2102,9.35591,-0.190613
411,12.2257,9.3945,-0.196751
411.5,12.2413,9.4336,-0.201367
412,12.2567,9.48325,-0.206197
412.5,12.272,9.52516,-0.211739
413,12.2876,9.58878,-0.216088
413.5,12.303,9.64197,-0.221285
414,12.3183,9.70466,-0.226511
414.5,12.3336,9.77511,-0.231929
415,12.3498,9.85162,-0.238831
415.5,12.3656,9.93363,-0.244024
416,12.3811,10.0065,-0.250457
416.5,12.3966,10.0787,-0.257135
417,12.4125,10.1465,-0.263227
417.5,12.4277,10.2196,-0.27014
418,12.4437,10.2967,-0.275853
418.5,12.4591,10.3618,-0.282869
419,12.4747,10.4261,-0.29076
419.5,12.4905,10.5034,-0.297219
420,12.5059,10.5748,-0.305483
420.5,12.5213,10.6369,-0.312113
421,12.5374,10.7136,-0.319657
421.5,12.5527,10.7923,-0.329018
422,12.5684,10.8652,-0.335918
422.5,12.5839,10.9473,-0.344746
423,12.5996,11.0296,-0.352787
423.5,12.6155,11.0987,-0.360893
424,12.6311,11.1717,-0.371056
424.5,12.6465,11.244,-0.378565
425,12.6623,11.3198,-0.388245
425.5,12.678,11.3884,-0.397406
426,12.6935,11.4593,-0.405591
426.5,12.7095,11.5276,-0.416438
427,12.7244,11.591,-0.424362
427.5,12.7398,11.6619,-0.43466
428,12.7563,11.7401,-0.446706
428.5,12.7719,11.8029,-0.456542
429,12.7875,11.8678,-0.468998
429.5,12.8033,11.9297,-0.478746
430,12.8186,11.9944,-0.489923
430.5,12.8346,12.055,-0.502751
431,12.8504,12.1249,-0.51291
431.5,12.8656,12.1875,-0.525251
432,12.8813,12.2546,-0.535841
432.5,12.897,12.3137,-0.547677
433,12.9128,12.3815,-0.561833
433.5,12.928,12.4488,-0.572176
434,12.9442,12.5197,-0.58649
434.5,12.9597,12.5856,-0.598581
435,12.9754,12.6546,-0.611043
435.5,12.9911,12.7196,-0.625955
436,13.0067,12.794,-0.636822
436.5,13.0224,12.8612,-0.650806
437,13.0382,12.9266,-0.664276
437.5,13.0535,12.992,-0.677799
438,13.0693,13.0588,-0.695142
438.5,13.0851,13.1215,-0.707914
439,13.101,13.1847,-0.723129
439.5,13.1166,13.2517,-0.738341
440,13.1324,13.318,-0.752206
440.5,13.1482,13.3982,-0.770009
441,13.1638,13.4624,-0.783714
441.5,13.1797,13.5375,-0.80033
442,13.1953,13.6211,-0.818243
442.5,13.2104,13.6963,-0.83301
443,13.2268,13.7783,-0.853217
443.5,13.2428,13.8527,-0.86936
444,13.2585,13.9231,-0.887165
444.5,13.2742,14.0087,-0.907134
445,13.2901,14.0909,-0.923713
445.5,13.3057,14.1614,-0.944281
446,13.3215,14.2404,-0.961498
446.5,13.3372,14.33,-0.98004
447,13.3529,14.4222,-1.00258
447.5,13.3692,14.5045,-1.02127
448,13.3848,14.5908,-1.04413
448.5,13.4007,14.6819,-1.06415
449,13.4166,14.7774,-1.08472
449.5,13.4326,14.8689,-1.10966
450,13.4484,14.9371,-1.12875
450.5,13.4639,15.0115,-1.15268
451,13.4801,15.1136,-1.17493
451.5,13.4957,15.1978,-1.19652
452,13.5117,15.2803,-1.22336
452.5,13.5274,15.3558,-1.24371
453,13.5434,15.419,-1.27002
453.5,13.5593,15.4952,-1.29415
454,13.5751,15.5815,-1.31805
454.5,13.5902,15.664,-1.34645
455,13.6065,15.7371,-1.3698
455.5,13.6226,15.8062,-1.39825
456,13.6382,15.8693,-1.42476
456.5,13.6541,15.9216,-1.45035
457,13.6701,15.9761,-1.4827
457.5,13.6858,16.0216,-1.50736
458,13.7015,16.0585,-1.53742
458.5,13.7173,16.0934,-1.56763
459,13.7333,16.1217,-1.59539
459.5,13.7488,16.144,-1.62921
460,13.7635,16.1608,-1.65352
460.5,13.7793,16.1655,-1.68399
461,13.7954,16.1716,-1.71795
461.5,13.8108,16.1756,-1.74576
462,13.827,16.1737,-1.78144
462.5,13.8424,16.1592,-1.80852
463,13.8583,16.1452,-1.83975
463.5,13.8736,16.1109,-1.87336
464,13.8892,16.0752,-1.90075
464.5,13.9047,16.0337,-1.93518
465,13.9201,15.9822,-1.96531
465.5,13.9354,15.9366,-1.99578
466,13.9511,15.8631,-2.03353
466.5,13.9664,15.8003,-2.06114
467,13.9818,15.7255,-2.09524
467.5,13.9972,15.6433,-2.12808
468,14.0125,15.566,-2.15704
468.5,14.0278,15.4699,-2.19394
469,14.0433,15.3718,-2.22287
469.5,14.0584,15.2749,-2.25507
470,14.0729,15.1641,-2.28958
470.5,14.0885,15.0395,-2.31811
471,14.1038,14.9026,-2.35291
471.5,14.1194,14.7725,-2.38448
472,14.1344,14.6443,-2.4144
472.5,14.1498,14.4988,-2.45195
473,14.165,14.3476,-2.47941
473.5,14.18,14.18,-2.51212
474,14.1951,14.015,-2.54634
474.5,14.2102,13.8455,-2.57425
475,14.2254,13.6706,-2.60856
475.5,14.2401,13.4824,-2.63634
476,14.2549,13.2837,-2.66504
476.5,14.27,13.0774,-2.70038
477,14.2853,12.8635,-2.72682
477.5,14.2998,12.642,-2.75619
478,14.3147,12.4103,-2.7881
478.5,14.3295,12.1797,-2.81332
479,14.3443,11.9485,-2.8445
479.5,14.3593,11.7075,-2.8722
480,14.3734,11.4626,-2.89762
480.5,14.3882,11.2018,-2.93018
481,14.403,10.9351,-2.95443
481.5,14.4182,10.6615,-2.9821
482,14.4329,10.3922,-3.01109
482.5,14.4476,10.1312,-3.03256
483,14.4622,9.86487,-3.05906
483.5,14.4774,9.58016,-3.08491
484,14.4919,9.31228,-3.1069
484.5,14.5065,9.03216,-3.13401
485,14.5212,8.74987,-3.15482
485.5,14.536,8.50363,-3.17718
486,14.5506,8.24819,-3.20304
486.5,14.5655,7.98602,-3.2221
487,14.5801,7.71805,-3.24477
487.5,14.5948,7.45236,-3.269
488,14.6096,7.18785,-3.28834
488.5,14.6243,6.91398,-3.31203
489,14.639,6.6387,-3.33235
489.5,14.6537,6.36536,-3.3522
490,14.6685,6.09674,-3.37602
490.5,14.683,5.82243,-3.3929
491,14.6982,5.54971,-3.41255
491.5,14.712,5.31577,-3.43229
492,14.7273,5.05889,-3.44892
492.5,14.7419,4.81165,-3.46706
493,14.7568,4.56868,-3.48361
493.5,14.7715,4.35251,-3.49744
494,14.7863,4.1312,-3.51298
494.5,14.8013,3.91177,-3.5257
495,14.8162,3.7078,-3.5389
495.5,14.8313,3.50353,-3.55477
496,14.8461,3.31826,-3.56583
496.5,14.8614,3.13041,-3.57944
497,14.8758,2.96755,-3.59153
497.5,14.8914,2.79787,-3.60165
498,14.9063,2.63944,-3.61333
498.5,14.9211,2.48332,-3.62241
499,14.9364,2.34436,-3.63239
499.5,14.9517,2.2063,-3.64531
500,14.967,2.07448,-3.65375
500.5,14.9821,1.94422,-3.66356
501,14.9972,1.82583,-3.67215
501.5,15.0126,1.71777,-3.67976
502,15.0278,1.61942,-3.68847
502.5,15.0433,1.52297,-3.69454
503,15.0586,1.42264,-3.70031
503.5,15.0739,1.34392,-3.70752
504,15.0894,1.24531,-3.71308
504.5,15.1047,1.16464,-3.71991
505,15.1201,1.07862,-3.72535
505.5,15.1355,1.01829,-3.73152
506,15.1512,0.944625,-3.73703
506.5,15.1665,0.872526,-3.74101
507,15.182,0.798241,-3.74599
507.5,15.1975,0.740234,-3.75079
508,15.2132,0.691435,-3.75487
508.5,15.2287,0.638564,-3.75931
509,15.2441,0.585193,-3.7623
509.5,15.2597,0.531874,-3.7658
510,15.2752,0.480912,-3.76961
510.5,15.2908,0.444593,-3.77226
511,15.3064,0.410213,-3.77599
511.5,15.3219,0.363237,-3.77851
512,15.337,0.341683,-3.7802
512.5,15.3533,0.30336,-3.78225
513,15.3687,0.255605,-3.78394
513.5,15.3845,0.228717,-3.7851
514,15.4,0.208731,-3.78639
514.5,15.4158,0.178762,-3.78848
515,15.4313,0.153973,-3.7908
515.5,15.4472,0.13242,-3.79209
516,15.4629,0.108606,-3.79252
516.5,15.4784,0.0857009,-3.79371
517,15.4944,0.0718313,-3.79399
517.5,15.5102,0.0522546,-3.79553
518,15.526,0.0336013,-3.79689
518.5,15.5415,0.0128833,-3.79823
519,15.5574,0.0121837,-3.79926
519.5,15.573,-0.00206228,-3.8002
520,15.5886,-0.0180829,-3.80085
520.5,15.6049,-0.0294077,-3.80039
521,15.6203,-0.0423065,-3.80077
521.5,15.6358,-0.0570962,-3.80078
522,15.6513,-0.0711927,-3.80076
522.5,15.6677,-0.0793881,-3.80131
523,15.6835,-0.0909678,-3.8014
523.5,15.6992,-0.120513,-3.80174
524,15.7147,-0.137261,-3.80213
524.5,15.7307,-0.14678,-3.8021
525,15.7466,-0.16059,-3.80204
525.5,15.7623,-0.172503,-3.80294
526,15.7784,-0.170126,-3.803
526.5,15.7943,-0.168105,-3.80468
527,15.8099,-0.153424,-3.80473
527.5,15.8257,-0.152366,-3.80467
528,15.8417,-0.153656,-3.80554
528.5,15.8575,-0.157951,-3.80606
529,15.8734,-0.146498,-3.80604
529.5,15.8893,-0.14521,-3.80604
530,15.9052,-0.140342,-3.80604
530.5,15.921,-0.137716,-3.80603
531,15.937,-0.135734,-3.80491
531.5,15.9527,-0.134668,-3.80476
532,15.9686,-0.132485,-3.80473
532.5,15.9844,-0.134174,-3.80473
533,16.0002,-0.138927,-3.80473
533.5,16.0164,-0.151737,-3.80574
534,16.032,-0.148053,-3.80603
534.5,16.0482,-0.147271,-3.80605
535,16.064,-0.14743,-3.80605
535.5,16.0798,-0.155767,-3.80605
536,16.0961,-0.158095,-3.80604
536.5,16.1118,-0.158203,-3.80601
537,16.1275,-0.161819,-3.80681
537.5,16.1434,-0.162345,-3.80768
538,16.1595,-0.159639,-3.80802
538.5,16.1751,-0.168335,-3.80803
539,16.1915,-0.164019,-3.80803
539.5,16.2069,-0.170611,-3.80803
540,16.2229,-0.16964,-3.80803
540.5,16.2387,-0.167914,-3.80803
541,16.2549,-0.170201,-3.80803
541.5,16.2706,-0.16511,-3.80806
542,16.2865,-0.169054,-3.80751
542.5,16.3025,-0.173687,-3.80666
543,16.3185,-0.175716,-3.80668
543.5,16.3346,-0.170764,-3.80774
544,16.3504,-0.174495,-3.80803
544.5,16.3663,-0.180893,-3.80804
545,16.382,-0.176554,-3.80813
545.5,16.398,-0.180054,-3.80869
546,16.4142,-0.178793,-3.80869
546.5,16.4297,-0.182988,-3.8087
547,16.446,-0.187389,-3.80863
547.5,16.4623,-0.189334,-3.80942
548,16.4779,-0.190087,-3.80936
548.5,16.4931,-0.191733,-3.8095
549,16.5092,-0.187125,-3.81063
549.5,16.5249,-0.188804,-3.81066
550,16.5409,-0.190216,-3.81084
550.5,16.5571,-0.185798,-3.81196
551,16.5732,-0.193459,-3.81196
551.5,16.5888,-0.195776,-3.81197
552,16.6054,-0.19663,-3.81197
552.5,16.6216,-0.193253,-3.81197
553,16.6372,-0.195791,-3.81197
553.5,16.6536,-0.195646,-3.81184
554,16.6692,-0.199081,-3.81094
554.5,16.6852,-0.193927,-3.81099
555,16.7012,-0.198855,-3.81098
555.5,16.7172,-0.201977,-3.81098
556,16.7333,-0.199946,-3.81098
556.5,16.7493,-0.201385,-3.81099
557,16.765,-0.199657,-3.81098
557.5,16.7812,-0.203054,-3.812
558,16.797,-0.201161,-3.81198
558.5,16.8133,-0.203934,-3.81071
559,16.8293,-0.19911,-3.81066
559.5,16.8453,-0.19998,-3.81065
560,16.8615,-0.201524,-3.81063
560.5,16.8775,-0.195749,-3.81141
561,16.893,-0.191147,-3.81198
561.5,16.9087,-0.190876,-3.81198
562,16.9252,-0.191441,-3.81198
562.5,16.9415,-0.187538,-3.81198
563,16.9575,-0.187737,-3.81198
563.5,16.9734,-0.19567,-3.81198
564,16.9893,-0.198341,-3.81198
564.5,17.0053,-0.204845,-3.81198
565,17.0214,-0.199496,-3.81198
565.5,17.0373,-0.19719,-3.81198
566,17.0533,-0.206783,-3.81198
566.5,17.0692,-0.198714,-3.81198
567,17.0853,-0.204895,-3.81198
567.5,17.1016,-0.201459,-3.81197
568,17.1177,-0.203867,-3.81204
568.5,17.1334,-0.200796,-3.81125
569,17.1495,-0.203194,-3.81132
569.5,17.1657,-0.203066,-3.81132
570,17.1816,-0.20809,-3.81132
570.5,17.1976,-0.21346,-3.81132
571,17.2136,-0.211517,-3.81133
571.5,17.2298,-0.212461,-3.8113
572,17.2457,-0.217016,-3.81272
572.5,17.262,-0.217797,-3.81331
573,17.2779,-0.214585,-3.8133
573.5,17.2937,-0.215705,-3.8133
574,17.3101,-0.210313,-3.8133
574.5,17.3259,-0.211047,-3.8133
575,17.3421,-0.21287,-3.8133
575.5,17.3582,-0.214249,-3.8133
576,17.3742,-0.209554,-3.8133
576.5,17.3902,-0.211241,-3.8133
577,17.4063,-0.214827,-3.8133
577.5,17.4226,-0.222237,-3.8133
578,17.4379,-0.222433,-3.8133
578.5,17.4545,-0.21702,-3.81333
579,17.4705,-0.219585,-3.81341
579.5,17.4867,-0.220729,-3.81357
580,17.5028,-0.223529,-3.81328
580.5,17.5187,-0.229035,-3.81329
581,17.5349,-0.229866,-3.81331
581.5,17.5506,-0.234104,-3.81369
582,17.5668,-0.239445,-3.81461
582.5,17.5832,-0.232799,-3.81461
583,17.5991,-0.239454,-3.81459
583.5,17.6152,-0.251842,-3.81466
584,17.6311,-0.2505,-3.81334
584.5,17.6474,-0.255177,-3.81329
585,17.6635,-0.250578,-3.81329
585.5,17.6797,-0.242936,-3.81333
586,17.6958,-0.236429,-3.81172
586.5,17.7118,-0.237067,-3.81064
587,17.7281,-0.231259,-3.81065
587.5,17.7444,-0.232663,-3.81065
588,17.76,-0.232951,-3.81066
588.5,17.7766,-0.246823,-3.81131
589,17.7925,-0.237611,-3.81198
589.5,17.8087,-0.236235,-3.81195
590,17.825,-0.230002,-3.813
590.5,17.8409,-0.232058,-3.81431
591,17.8572,-0.232159,-3.8146
591.5,17.873,-0.244245,-3.8145
592,17.8894,-0.240335,-3.81647
592.5,17.9052,-0.237895,-3.81726
593,17.9214,-0.230643,-3.81726
593.5,17.9378,-0.240228,-3.81721
594,17.9537,-0.241687,-3.81822
594.5,17.9699,-0.231104,-3.81857
595,17.9862,-0.225584,-3.81857
595.5,18.0026,-0.231035,-3.81857
596,18.0184,-0.233171,-3.81856
596.5,18.0348,-0.230032,-3.81861
597,18.0507,-0.228106,-3.81755
597.5,18.067,-0.228324,-3.81726
598,18.0831,-0.223537,-3.81725
598.5,18.0992,-0.222756,-3.81725
599,18.1154,-0.22781,-3.81725
599.5,18.1316,-0.231128,-3.81725
600,18.1476,-0.239077,-3.81725
600.5,18.1641,-0.237347,-3.81725
601,18.1799,-0.235441,-3.81725
601.5,18.1963,-0.225805,-3.81709
602,18.2125,-0.230318,-3.81689
602.5,18.2287,-0.223741,-3.8169
603,18.2447,-0.230913,-3.81691
603.5,18.2609,-0.236347,-3.81691
604,18.2773,-0.238313,-3.8169
604.5,18.2932,-0.23705,-3.81605
605,18.3095,-0.232604,-3.81464
605.5,18.3256,-0.233382,-3.81316
606,18.3419,-0.239261,-3.81327
606.5,18.3581,-0.244303,-3.81497
607,18.3743,-0.235266,-3.81559
607.5,18.3905,-0.235222,-3.81691
608,18.4067,-0.242979,-3.81724
608.5,18.4228,-0.235932,-3.81831
609,18.4388,-0.234886,-3.81819
609.5,18.4551,-0.237739,-3.81899
610,18.4713,-0.240488,-3.81783
610.5,18.4875,-0.244052,-3.81758
611,18.5037,-0.242545,-3.81757
611.5,18.5199,-0.243932,-3.81757
612,18.5362,-0.24867,-3.81757
612.5,18.5524,-0.24935,-3.81757
613,18.5686,-0.251271,-3.81757
613.5,18.5847,-0.250069,-3.81757
614,18.6013,-0.246363,-3.81751
614.5,18.6172,-0.245365,-3.81624
615,18.6327,-0.247063,-3.81626
615.5,18.6499,-0.253419,-3.81625
616,18.6658,-0.248632,-3.81625
616.5,18.6821,-0.250139,-3.81625
617,18.6983,-0.247311,-3.81625
617.5,18.7147,-0.242351,-3.81627
618,18.7307,-0.229608,-3.81663
618.5,18.747,-0.231422,-3.81757
619,18.7634,-0.228386,-3.81757
619.5,18.7796,-0.234651,-3.81757
620,18.7959,-0.231691,-3.81757
620.5,18.8119,-0.230144,-3.81758
621,18.8283,-0.233485,-3.81752
621.5,18.8444,-0.231832,-3.8183
622,18.8604,-0.236951,-3.81823
622.5,18.877,-0.240586,-3.81823
623,18.8933,-0.232975,-3.81821
623.5,18.9094,-0.232728,-3.818
624,18.9255,-0.226931,-3.81801
624.5,18.9421,-0.221239,-3.81822
625,18.9581,-0.22165,-3.81823
625.5,18.9743,-0.226045,-3.81823
626,18.9908,-0.230339,-3.81823
626.5,19.0069,-0.224783,-3.81823
627,19.0232,-0.224671,-3.81823
627.5,19.0396,-0.226418,-3.81823
628,19.0558,-0.217219,-3.81823
628.5,19.0713,-0.231137,-3.81823
629,19.0883,-0.221047,-3.81823
629.5,19.1046,-0.202011,-3.81823
630,19.121,-0.204146,-3.81823
630.5,19.137,-0.208426,-3.81823
631,19.1534,-0.216122,-3.81823
631.5,19.1698,-0.216843,-3.81822
632,19.1859,-0.217096,-3.81827
632.5,19.202,-0.214013,-3.81752
633,19.2183,-0.20929,-3.81758
633.5,19.2347,-0.22318,-3.81758
634,19.2507,-0.218448,-3.81758
634.5,19.2663,-0.219541,-3.81758
635,19.2833,-0.21613,-3.81757
635.5,19.2995,-0.215763,-3.8175
636,19.3159,-0.218317,-3.81724
636.5,19.3321,-0.222337,-3.81725
637,19.3482,-0.221686,-3.81725
637.5,19.3644,-0.223125,-3.81725
638,19.3809,-0.229145,-3.81725
638.5,19.3969,-0.240764,-3.81725
639,19.4133,-0.246786,-3.81725
639.5,19.4294,-0.248395,-3.81725
640,19.4459,-0.253794,-3.81716
640.5,19.4621,-0.365394,-3.81839
641,19.4786,-0.378971,-3.81857
641.5,19.4945,-0.408178,-3.81857
642,19.5111,-0.418637,-3.81857
642.5,19.5273,-0.435459,-3.81857
643,19.5434,-0.441082,-3.81857
643.5,19.5598,-0.45294,-3.81857
644,19.5762,-0.389016,-3.81857
644.5,19.5924,-0.342133,-3.81857
645,19.6088,-0.327964,-3.81855
645.5,19.6249,-0.316022,-3.81894
646,19.6409,-0.299714,-3.81892
646.5,19.657,-0.291972,-3.8195
647,19.6731,-0.282222,-3.81929
647.5,19.6895,-0.277248,-3.81924
648,19.7067,-0.275037,-3.81923
648.5,19.7228,-0.265466,-3.81921
649,19.739,-0.276845,-3.8191
649.5,19.7555,-0.279184,-3.81812
650,19.7715,-0.275752,-3.81824
650.5,19.7878,-0.271176,-3.81823
651,19.8041,-0.264724,-3.81822
651.5,19.8202,-0.269179,-3.81823
652,19.837,-0.264702,-3.81891
652.5,19.8529,-0.27081,-3.81957
653,19.8693,-0.268219,-3.81971
653.5,19.8855,-0.278011,-3.82086
654,19.902,-0.276182,-3.82086
654.5,19.9185,-0.280716,-3.82087
655,19.9347,-0.301677,-3.82087
655.5,19.9508,-0.300324,-3.82085
656,19.967,-0.294387,-3.82079
656.5,19.9838,-0.296296,-3.81957
657,19.9999,-0.286696,-3.81955
657.5,20.0161,-0.291618,-3.81955
658,20.0325,-0.283848,-3.81955
658.5,20.049,-0.285731,-3.81955
659,20.0651,-0.285126,-3.81955
659.5,20.0813,-0.283068,-3.81955
660,20.0977,-0.284862,-3.81955
660.5,20.1143,-0.286897,-3.81955
661,20.1302,-0.295227,-3.81955
661.5,20.1468,-0.291362,-3.81954
662,20.1632,-0.288022,-3.82021
662.5,20.1794,-0.290742,-3.82088
663,20.1955,-0.282831,-3.82088
663.5,20.212,-0.285692,-3.82087
664,20.2284,-0.289004,-3.82087
664.5,20.2445,-0.290634,-3.82087
665,20.261,-0.294363,-3.82087
665.5,20.2772,-0.295156,-3.82087
666,20.2934,-0.288476,-3.82087
666.5,20.3099,-0.292792,-3.82087
667,20.3264,-0.293992,-3.82087
667.5,20.3424,-0.286732,-3.82087
668,20.3589,-0.293784,-3.82087
668.5,20.3755,-0.296272,-3.82087
669,20.3915,-0.284341,-3.82087
669.5,20.4079,-0.289266,-3.82086
670,20.4243,-0.308699,-3.82165
670.5,20.4405,-0.305105,-3.82225
671,20.4571,-0.305663,-3.82149
671.5,20.4731,-0.309605,-3.82127
672,20.4895,-0.311263,-3.8212
672.5,20.5059,-0.312049,-3.82118
673,20.5222,-0.313573,-3.82085
673.5,20.5387,-0.308149,-3.82087
674,20.5548,-0.30515,-3.82087
674.5,20.5709,-0.307148,-3.82088
675,20.5876,-0.311994,-3.82064
675.5,20.6039,-0.318675,-3.81998
676,20.6202,-0.312075,-3.81917
676.5,20.6365,-0.302215,-3.81922
677,20.6529,-0.309804,-3.81922
677.5,20.6693,-0.312531,-3.81922
678,20.6856,-0.312794,-3.81922
678.5,20.7019,-0.312521,-3.81924
679,20.7184,-0.313558,-3.81928
679.5,20.7347,-0.31447,-3.82181
680,20.7511,-0.313354,-3.82194
680.5,20.7673,-0.316433,-3.82212
681,20.7836,-0.322661,-3.82338
681.5,20.8,-0.328452,-3.82328
682,20.8166,-0.317659,-3.82367
682.5,20.8328,-0.307187,-3.82441
683,20.8492,-0.305707,-3.82355
683.5,20.8652,-0.310927,-3.82363
684,20.8819,-0.311642,-3.82376
684.5,20.8982,-0.309785,-3.82492
685,20.9147,-0.300364,-3.82492
685.5,20.9309,-0.302375,-3.82533
686,20.9472,-0.303751,-3.8262
686.5,20.9638,-0.297512,-3.82591
687,20.9804,-0.301414,-3.82591
687.5,20.9965,-0.298444,-3.82591
688,21.0128,-0.298484,-3.82591
688.5,21.0294,-0.301036,-3.82591
689,21.0458,-0.298339,-3.82578
689.5,21.0619,-0.293462,-3.82488
690,21.0782,-0.293896,-3.82493
690.5,21.0947,-0.289441,-3.82477
691,21.111,-0.290499,-3.82467
691.5,21.1275,-0.295604,-3.82377
692,21.1436,-0.291896,-3.82362
692.5,21.1602,-0.304055,-3.82362
693,21.1766,-0.319544,-3.82362
693.5,21.1929,-0.317245,-3.82362
694,21.2094,-0.324263,-3.82362
694.5,21.2258,-0.329793,-3.82394
695,21.2422,-0.31811,-3.82497
695.5,21.2584,-0.312371,-3.82493
696,21.2752,-0.314047,-3.82493
696.5,21.291,-0.315301,-3.82496
697,21.3075,-0.323526,-3.82456
697.5,21.3239,-0.314321,-3.8246
698,21.3405,-0.318646,-3.8246
698.5,21.3568,-0.317631,-3.8246
699,21.3733,-0.320868,-3.8246
699.5,21.3897,-0.314879,-3.8246
700,21.4061,-0.311073,-3.8245
700.5,21.4226,-0.311325,-3.82577
701,21.4388,-0.310837,-3.82596
701.5,21.4554,-0.299637,-3.82556
702,21.4718,-0.307079,-3.82559
702.5,21.4882,-0.312015,-3.82558
703,21.5045,-0.314318,-3.82561
703.5,21.5208,-0.314768,-3.82661
704,21.5367,-0.315329,-3.82656
704.5,21.5538,-0.322023,-3.82658
705,21.5703,-0.324312,-3.82658
705.5,21.5869,-0.319993,-3.82658
706,21.603,-0.320033,-3.82658
706.5,21.6192,-0.320508,-3.82658
707,21.636,-0.316921,-3.82658
707.5,21.6522,-0.330122,-3.82658
708,21.6686,-0.336793,-3.82658
708.5,21.6852,-0.331348,-3.82658
709,21.7017,-0.333699,-3.82658
709.5,21.7179,-0.322047,-3.82658
710,21.7346,-0.318452,-3.82658
710.5,21.7508,-0.322708,-3.82659
711,21.7672,-0.327419,-3.82659
711.5,21.784,-0.328529,-3.82685
712,21.8003,-0.321438,-3.82724
712.5,21.8168,-0.318516,-3.82724
713,21.8329,-0.317654,-3.82724
713.5,21.8495,-0.310037,-3.82724
714,21.866,-0.31067,-3.82724
714.5,21.8824,-0.308397,-3.82725
715,21.8989,-0.307652,-3.82924
715.5,21.9155,-0.306019,-3.82949
716,21.9316,-0.304247,-3.82954
716.5,21.9482,-0.304128,-3.82954
717,21.9645,-0.314836,-3.82957
717.5,21.9809,-0.315478,-3.82891
718,21.9977,-0.317606,-3.82818
718.5,22.0143,-0.317076,-3.8283
719,22.0308,-0.319271,-3.82718
719.5,22.047,-0.310759,-3.82691
720,22.0636,-0.308172,-3.82691
720.5,22.08,-0.312206,-3.82689
721,22.0963,-0.311272,-3.82639
721.5,22.113,-0.304779,-3.82559
722,22.1291,-0.30407,-3.82559
722.5,22.1459,-0.301876,-3.82559
723,22.1619,-0.301388,-3.82561
723.5,22.179,-0.303074,-3.82684
724,22.1954,-0.302868,-3.82688
724.5,22.212,-0.293643,-3.8269
725,22.2282,-0.292308,-3.8269
725.5,22.2449,-0.294066,-3.8269
726,22.2614,-0.297607,-3.82691
726.5,22.2781,-0.28978,-3.82808
727,22.2943,-0.287448,-3.82817
727.5,22.3107,-0.287381,-3.82691
728,22.327,-0.285665,-3.82693
728.5,22.3436,-0.278281,-3.82691
729,22.3598,-0.275866,-3.82691
729.5,22.3766,-0.277357,-3.82691
730,22.3932,-0.279694,-3.82691
730.5,22.4097,-0.279805,-3.82691
731,22.4261,-0.277637,-3.82691
731.5,22.4426,-0.276513,-3.82691
732,22.4591,-0.266657,-3.82691
732.5,22.4755,-0.271341,-3.82691
733,22.492,-0.2608,-3.82691
733.5,22.5088,-0.254807,-3.82691
734,22.5251,-0.249916,-3.82691
734.5,22.5418,-0.248682,-3.82691
735,22.5582,-0.252783,-3.82687
735.5,22.5745,-0.250261,-3.82794
736,22.5911,-0.245755,-3.82822
736.5,22.6076,-0.24608,-3.82823
737,22.6236,-0.24836,-3.82825
737.5,22.6406,-0.248619,-3.82827
738,22.6571,-0.236863,-3.82952
738.5,22.6736,-0.240555,-3.82955
739,22.6898,-0.237319,-3.82955
739.5,22.7067,-0.241815,-3.82955
740,22.7232,-0.231487,-3.82955