File: 01_Data/Helmet_Buckle/STA/N2/30K_min/Helmet_Buckle_STA_N2_30KData_250307_R3.csv
Temp./C,Time/min,DSC/(mW/mg),Mass loss/mg
60.0,0.0,1.7855,-0.00342094
60.5,0.0312651,1.84493,-0.00227384
61,0.0616297,1.90847,-0.00230436
61.5,0.0916297,1.96668,-0.00373328
62,0.121106,2.02713,-0.0043993
62.5,0.149173,2.08257,-0.00339127
63,0.177163,2.14259,-0.00307124
63.5,0.204843,2.19781,-0.00523555
64,0.232194,2.24921,-0.00455862
64.5,0.259128,2.30949,-0.0029766
65,0.285507,2.36148,-0.00288329
65.5,0.310902,2.41393,-0.00456309
66,0.33672,2.47397,-0.0056197
66.5,0.362284,2.53422,-0.00598384
67,0.387686,2.58284,-0.0067806
67.5,0.412631,2.62616,-0.00691513
68,0.436002,2.68125,-0.00753965
68.5,0.460752,2.72353,-0.00759409
69,0.484836,2.7755,-0.00652136
69.5,0.508838,2.82722,-0.00465795
70,0.532305,2.87456,-0.00422686
70.5,0.556002,2.90332,-0.00434096
71,0.578548,2.93256,-0.00495799
71.5,0.60178,2.95349,-0.00554442
72,0.624414,2.97647,-0.00535257
72.5,0.646853,2.97878,-0.00416281
73,0.668661,2.99009,-0.00372744
73.5,0.691619,2.99171,-0.00390292
74,0.713354,2.97881,-0.00423054
74.5,0.733932,2.98398,-0.0047192
75,0.756272,2.98696,-0.00464051
75.5,0.778102,2.98786,-0.00380137
76,0.799974,2.98631,-0.00506504
76.5,0.821333,2.99215,-0.00572766
77,0.84239,2.98045,-0.0054564
77.5,0.863694,2.98679,-0.00454927
78,0.88465,2.98786,-0.00381904
78.5,0.90457,2.98317,-0.00371948
79,0.926264,2.98373,-0.00161044
79.5,0.947411,2.99621,0.001017
80,0.968141,3.00725,0.000931755
80.5,0.988596,3.00922,8.95497e-05
81,1.00847,3.0224,-0.000826608
81.5,1.02952,3.01476,-0.00292859
82,1.05066,3.05262,-0.00465547
82.5,1.07092,3.04712,-0.0062556
83,1.09044,3.05253,-0.007398
83.5,1.11037,3.07993,-0.00803512
84,1.13087,3.1031,-0.00693179
84.5,1.14992,3.11459,-0.00678858
85,1.16934,3.13066,-0.00623883
85.5,1.19088,3.14729,-0.00505249
86,1.21068,3.16871,-0.00564569
86.5,1.23055,3.18592,-0.0064816
87,1.24991,3.19806,-0.00653414
87.5,1.26888,3.21971,-0.00694087
88,1.28903,3.23961,-0.0069097
88.5,1.30861,3.26412,-0.00789638
89,1.32786,3.28349,-0.00689103
89.5,1.34734,3.30268,-0.00753735
90,1.36691,3.32246,-0.00718846
90.5,1.38574,3.33815,-0.00686754
91,1.405,3.36085,-0.00641548
91.5,1.42439,3.39665,-0.00611611
92,1.4434,3.39354,-0.00522219
92.5,1.46247,3.41088,-0.00499338
93,1.48132,3.43928,-0.00496121
93.5,1.50057,3.47073,-0.00571303
94,1.51929,3.47967,-0.00498454
94.5,1.53768,3.49707,-0.00578063
95,1.55697,3.52506,-0.00511181
95.5,1.57584,3.55857,-0.00577208
96,1.59454,3.56638,-0.00482741
96.5,1.61311,3.57995,-0.0058329
97,1.63186,3.59333,-0.00477759
97.5,1.65052,3.6214,-0.00593688
98,1.6688,3.64203,-0.00486123
98.5,1.6876,3.66731,-0.00436342
99,1.70587,3.70676,-0.00388483
99.5,1.7244,3.70893,-0.00462906
100,1.74245,3.71231,-0.0049665
100.5,1.76124,3.73557,-0.00478962
101,1.77951,3.76431,-0.00613908
101.5,1.79757,3.78528,-0.0047512
102,1.81599,3.8029,-0.00474655
102.5,1.83418,3.82003,-0.00480308
103,1.85219,3.83714,-0.00524914
103.5,1.87021,3.85253,-0.00644298
104,1.88887,3.87959,-0.00651706
104.5,1.90698,3.89561,-0.00735325
105,1.92489,3.91462,-0.00636852
105.5,1.94281,3.92582,-0.00712009
106,1.96106,3.95392,-0.00781426
106.5,1.97923,3.97718,-0.00773237
107,1.99705,3.98944,-0.00885395
107.5,2.01537,4.01857,-0.00899703
108,2.0332,4.03667,-0.00778821
108.5,2.05127,4.04386,-0.00780372
109,2.06915,4.04659,-0.00780187
109.5,2.08676,4.07563,-0.00780542
110,2.10474,4.10542,-0.00905129
110.5,2.12281,4.12623,-0.00912807
111,2.14037,4.14209,-0.0094847
111.5,2.1581,4.1641,-0.0104465
112,2.1763,4.18186,-0.0104431
112.5,2.1937,4.19786,-0.0112477
113,2.21165,4.22378,-0.010571
113.5,2.2295,4.23956,-0.01216
114,2.24686,4.24791,-0.0107725
114.5,2.26485,4.27875,-0.0119363
115,2.28225,4.27819,-0.0113328
115.5,2.30017,4.29608,-0.0105472
116,2.31774,4.32586,-0.0116494
116.5,2.33513,4.33845,-0.0105766
117,2.35284,4.35385,-0.0106613
117.5,2.37055,4.36798,-0.00933476
118,2.38774,4.37463,-0.0100082
118.5,2.40517,4.39747,-0.00865695
119,2.42277,4.42122,-0.00687087
119.5,2.44064,4.4377,-0.00654834
120,2.45774,4.45742,-0.00682083
120.5,2.47492,4.4634,-0.00556711
121,2.49214,4.4901,-0.00537928
121.5,2.51006,4.51085,-0.00537964
122,2.52679,4.52379,-0.00537998
122.5,2.54457,4.52895,-0.00538035
123,2.56186,4.54517,-0.00538106
123.5,2.57896,4.56515,-0.00536345
124,2.59603,4.59093,-0.00632712
124.5,2.61359,4.59888,-0.005357
125,2.63062,4.60689,-0.00537986
125.5,2.64783,4.61761,-0.00537873
126,2.66525,4.63272,-0.00528232
126.5,2.68178,4.64971,-0.00657389
127,2.69928,4.66649,-0.0066989
127.5,2.71626,4.69225,-0.0066997
128,2.73334,4.71331,-0.00670046
128.5,2.75026,4.71982,-0.00675614
129,2.76704,4.72883,-0.00567295
129.5,2.78425,4.73586,-0.00667147
130,2.80024,4.74303,-0.00678057
130.5,2.81727,4.75508,-0.00541266
131,2.83414,4.78263,-0.005151
131.5,2.85202,4.79036,-0.00522676
132,2.86893,4.80585,-0.00528681
132.5,2.88551,4.8348,-0.00525689
133,2.90233,4.84368,-0.00529175
133.5,2.91946,4.84731,-0.00398082
134,2.93582,4.86937,-0.00395466
134.5,2.9524,4.88023,-0.00400224
135,2.9695,4.8994,-0.00529012
135.5,2.98639,4.90905,-0.0049651
136,3.00247,4.92484,-0.0038526
136.5,3.01923,4.928,-0.00385699
137,3.03587,4.94003,-0.00375949
137.5,3.0525,4.95904,-0.00508408
138,3.06871,4.98543,-0.00516979
138.5,3.0859,4.98564,-0.00514358
139,3.10241,5.01404,-0.00565494
139.5,3.11916,5.03118,-0.00644663
140,3.13533,5.03159,-0.00714595
140.5,3.15145,5.04311,-0.00713974
141,3.16841,5.05432,-0.00713995
141.5,3.18472,5.07076,-0.0071438
142,3.20084,5.09357,-0.00716382
142.5,3.21752,5.10603,-0.00656972
143,3.23385,5.10736,-0.00575415
143.5,3.25024,5.12129,-0.00575927
144,3.26718,5.13636,-0.0046467
144.5,3.28237,5.1729,-0.0058152
145,3.29933,5.17468,-0.00580704
145.5,3.31557,5.17771,-0.00577093
146,3.33173,5.18623,-0.00675267
146.5,3.34849,5.19361,-0.00715226
147,3.36436,5.20624,-0.00707964
147.5,3.3807,5.22156,-0.00860483
148,3.39691,5.24459,-0.00880247
148.5,3.41305,5.26294,-0.00879764
149,3.42935,5.26848,-0.00793151
149.5,3.44524,5.28972,-0.00689438
150,3.46176,5.29743,-0.00683064
150.5,3.47823,5.30763,-0.00614906
151,3.49387,5.32056,-0.00517141
151.5,3.5102,5.33477,-0.00520187
152,3.52644,5.34601,-0.00586364
152.5,3.54223,5.36519,-0.00582468
153,3.55838,5.37661,-0.00582008
153.5,3.5743,5.38425,-0.00582095
154,3.59065,5.39511,-0.00580872
154.5,3.60687,5.40836,-0.00561846
155,3.62267,5.41291,-0.00450192
155.5,3.63888,5.42138,-0.00451067
156,3.65474,5.43107,-0.00450085
156.5,3.6705,5.46412,-0.00449966
157,3.68691,5.4684,-0.00449708
157.5,3.7028,5.47565,-0.00449946
158,3.719,5.48365,-0.00485359
158.5,3.73462,5.49018,-0.00585805
159,3.75058,5.50901,-0.00581423
159.5,3.76628,5.53054,-0.00581924
160,3.78261,5.5291,-0.00581994
160.5,3.79849,5.53624,-0.00580786
161,3.81468,5.54752,-0.00574416
161.5,3.83035,5.55381,-0.00459991
162,3.84636,5.57303,-0.00451377
162.5,3.86213,5.58391,-0.00450229
163,3.87747,5.60933,-0.00366649
163.5,3.8933,5.60707,-0.00314748
164,3.90966,5.61262,-0.00380964
164.5,3.92559,5.62354,-0.00377894
165,3.9412,5.64179,-0.00463104
165.5,3.95635,5.6486,-0.00521437
166,3.97207,5.65685,-0.00528643
166.5,3.98804,5.66707,-0.00640068
167,4.0039,5.67254,-0.00639369
167.5,4.02012,5.68552,-0.00518257
168,4.0361,5.69035,-0.00608901
168.5,4.05173,5.70868,-0.00646826
169,4.06776,5.7285,-0.00648422
169.5,4.08322,5.75046,-0.00647958
170,4.09885,5.73585,-0.0064806
170.5,4.11485,5.75019,-0.00654366
171,4.1306,5.76001,-0.00596931
171.5,4.14623,5.76481,-0.00653907
172,4.1619,5.77177,-0.00648762
172.5,4.17742,5.78416,-0.00648915
173,4.19302,5.79142,-0.00649243
173.5,4.20891,5.80678,-0.00648917
174,4.2249,5.8121,-0.00574845
174.5,4.24018,5.82003,-0.00381261
175,4.25607,5.82633,-0.00385454
175.5,4.27146,5.84139,-0.00385011
176,4.28735,5.85402,-0.00386345
176.5,4.30273,5.86202,-0.00394892
177,4.31838,5.87082,-0.00512785
177.5,4.33409,5.89931,-0.004385
178,4.34949,5.89838,-0.00381488
178.5,4.36505,5.90686,-0.00384708
179,4.38064,5.91167,-0.00385042
179.5,4.39637,5.92551,-0.00385007
180,4.41211,5.92786,-0.00385
180.5,4.4272,5.93539,-0.00385
181,4.4428,5.93448,-0.00385
181.5,4.45854,5.94332,-0.00385
182,4.47384,5.95464,-0.00385
182.5,4.48936,5.9745,-0.00385
183,4.50484,5.98318,-0.00385
183.5,4.52017,5.99237,-0.00385
184,4.53567,5.9964,-0.00385
184.5,4.5511,6.00634,-0.00385
185,4.56672,6.0207,-0.00384992
185.5,4.58183,6.02903,-0.00384968
186,4.5973,6.03838,-0.00385422
186.5,4.61295,6.0475,-0.00386561
187,4.62814,6.06062,-0.00342505
187.5,4.64367,6.08913,-0.00248984
188,4.65921,6.08293,-0.00253544
188.5,4.67439,6.08214,-0.00253091
189,4.68975,6.08844,-0.00252993
189.5,4.70515,6.09388,-0.00253006
190,4.72036,6.10502,-0.00252994
190.5,4.73573,6.12097,-0.00252555
191,4.75107,6.12046,-0.00283224
191.5,4.7665,6.13166,-0.00394566
192,4.78178,6.13818,-0.00385235
192.5,4.79678,6.15149,-0.00395975
193,4.8123,6.16519,-0.00523436
193.5,4.82758,6.18017,-0.00514399
194,4.84297,6.19199,-0.00515841
194.5,4.85781,6.19909,-0.00516076
195,4.87341,6.20426,-0.00516086
195.5,4.88871,6.22139,-0.0051337
196,4.90362,6.24805,-0.00509991
196.5,4.919,6.25471,-0.00386938
197,4.93434,6.25359,-0.00380326
197.5,4.94945,6.2575,-0.00439735
198,4.96478,6.27331,-0.00521324
198.5,4.98029,6.2746,-0.0051582
199,4.99529,6.27981,-0.00516002
199.5,5.01051,6.28444,-0.00515368
200,5.02575,6.29727,-0.00579628
200.5,5.04135,6.32768,-0.00650515
201,5.05595,6.31232,-0.00648674
201.5,5.0718,6.32115,-0.00647968
202,5.08657,6.33243,-0.0064796
202.5,5.10181,6.34182,-0.00648055
203,5.11701,6.37417,-0.00649415
203.5,5.13217,6.3578,-0.00618425
204,5.14705,6.3604,-0.00543356
204.5,5.16234,6.37367,-0.00549104
205,5.17748,6.39068,-0.00549108
205.5,5.1928,6.42494,-0.00549
206,5.20792,6.4399,-0.00548996
206.5,5.22335,6.42114,-0.00548997
207,5.23832,6.42636,-0.0054909
207.5,5.25355,6.43708,-0.00549205
208,5.26853,6.45368,-0.00544086
208.5,5.28342,6.46124,-0.00620788
209,5.29867,6.48074,-0.00685524
209.5,5.31425,6.49191,-0.00617067
210,5.32938,6.49858,-0.00648832
210.5,5.34427,6.51625,-0.0067858
211,5.35966,6.5238,-0.00681562
211.5,5.37454,6.52782,-0.00681311
212,5.38946,6.55598,-0.00679205
212.5,5.4049,6.56495,-0.00664659
213,5.41976,6.59414,-0.00648752
213.5,5.43527,6.58774,-0.00682913
214,5.45021,6.59184,-0.0068111
214.5,5.46529,6.60408,-0.00683655
215,5.48046,6.61898,-0.00633862
215.5,5.49564,6.62874,-0.00544211
216,5.51075,6.64046,-0.00548928
216.5,5.52566,6.65951,-0.00611885
217,5.54096,6.6828,-0.00684024
217.5,5.55581,6.69648,-0.00681211
218,5.57071,6.70763,-0.00699466
218.5,5.58618,6.72057,-0.00831986
219,5.60127,6.72774,-0.00713759
219.5,5.61607,6.74078,-0.00680282
220,5.6312,6.76589,-0.00681459
220.5,5.64681,6.76545,-0.00691502
221,5.66169,6.77739,-0.00744632
221.5,5.67647,6.807,-0.00700646
222,5.6918,6.81299,-0.0061616
222.5,5.70668,6.82863,-0.00616079
223,5.7216,6.84622,-0.00616
223.5,5.73685,6.86831,-0.00615999
224,5.7514,6.87497,-0.00616
224.5,5.76715,6.90995,-0.00616
225,5.78179,6.91163,-0.00616
225.5,5.797,6.93417,-0.00616
226,5.81172,6.93637,-0.00616
226.5,5.82698,6.95621,-0.00616004
227,5.84156,6.96469,-0.00615991
227.5,5.85717,6.99615,-0.00615803
228,5.87212,7.02188,-0.00616271
228.5,5.88718,7.03897,-0.00536335
229,5.90218,7.05106,-0.00483139
229.5,5.91728,7.06637,-0.00483358
230,5.93247,7.08768,-0.00484008
230.5,5.94671,7.10032,-0.00484013
231,5.96237,7.10736,-0.00484
231.5,5.97737,7.13294,-0.00483974
232,5.99244,7.1619,-0.00484016
232.5,6.00774,7.18457,-0.00485308
233,6.02232,7.20106,-0.00483674
233.5,6.03792,7.21871,-0.00578704
234,6.05276,7.23346,-0.00714247
234.5,6.06758,7.25067,-0.00748251
235,6.08267,7.27522,-0.0074693
235.5,6.09763,7.30005,-0.00742067
236,6.11289,7.32808,-0.0081222
236.5,6.12786,7.34336,-0.00911465
237,6.14294,7.37861,-0.0100589
237.5,6.15796,7.39946,-0.0100857
238,6.17291,7.41975,-0.0101006
238.5,6.18742,7.45121,-0.0101002
239,6.2028,7.49014,-0.0101
239.5,6.21797,7.52008,-0.0100999
240,6.23297,7.557,-0.0101
240.5,6.24832,7.59577,-0.0101034
241,6.26249,7.67084,-0.0100981
241.5,6.2783,7.69104,-0.00980938
242,6.29333,7.72942,-0.00877296
242.5,6.30849,7.80127,-0.0088009
243,6.32265,7.84441,-0.00879016
243.5,6.33882,7.91204,-0.00883322
244,6.35374,7.99518,-0.00804329
244.5,6.36909,8.06614,-0.0073964
245,6.38431,8.15273,-0.00626378
245.5,6.39941,8.24348,-0.006175
246,6.41488,8.34929,-0.00614739
246.5,6.43012,8.46093,-0.00614952
247,6.4456,8.60072,-0.00615005
247.5,6.4607,8.73618,-0.00615001
248,6.47654,8.90572,-0.00615
248.5,6.49222,9.08671,-0.00615
249,6.50748,9.29745,-0.00615
249.5,6.52333,9.53656,-0.00615
250,6.5393,9.81808,-0.00615
250.5,6.55532,10.1206,-0.00615
251,6.57099,10.4555,-0.00615
251.5,6.58747,10.8336,-0.00615
252,6.60368,11.1824,-0.00614999
252.5,6.61985,11.549,-0.00615
253,6.63618,11.9383,-0.00615118
253.5,6.65209,12.3166,-0.00615131
254,6.66858,12.7028,-0.0059741
254.5,6.68456,13.0807,-0.00558748
255,6.70105,13.4909,-0.00619651
255.5,6.7173,13.9211,-0.00616411
256,6.73391,14.2681,-0.00615776
256.5,6.75001,14.6215,-0.00631831
257,6.76639,14.9998,-0.00756675
257.5,6.7826,15.3753,-0.00746951
258,6.79906,15.7505,-0.00748036
258.5,6.81523,16.1268,-0.00756696
259,6.83069,16.4931,-0.00869344
259.5,6.84729,16.8723,-0.00876781
260,6.8641,17.2248,-0.00770704
260.5,6.87926,17.4255,-0.00737758
261,6.89414,17.2839,-0.00856859
261.5,6.90712,16.8346,-0.00879232
262,6.91966,16.1198,-0.00878586
262.5,6.93182,15.4027,-0.00879667
263,6.94479,14.6919,-0.00887272
263.5,6.95763,14.0549,-0.00984143
264,6.97074,13.4496,-0.0101315
264.5,6.98376,12.9007,-0.0101088
265,6.99709,12.4187,-0.0108224
265.5,7.01046,11.947,-0.0114929
266,7.02407,11.5183,-0.0106621
266.5,7.03727,11.1268,-0.0099131
267,7.051,10.7639,-0.0109079
267.5,7.06468,10.4489,-0.0112511
268,7.07847,10.1405,-0.01021
268.5,7.092,9.8851,-0.00998318
269,7.10657,9.61157,-0.00998492
269.5,7.12051,9.36514,-0.00999613
270,7.13452,9.15821,-0.00949238
270.5,7.14863,8.9669,-0.00856577
271,7.16313,8.79149,-0.00863989
271.5,7.177,8.64204,-0.00635609
272,7.19134,8.50039,-0.00595665
272.5,7.2056,8.37242,-0.00594104
273,7.2201,8.24875,-0.00592696
273.5,7.23431,8.14014,-0.00549377
274,7.24877,8.05206,-0.00331554
274.5,7.26331,7.9571,-0.00331033
275,7.27789,7.87375,-0.00332669
275.5,7.29222,7.79918,-0.00326979
276,7.30687,7.72878,-0.00470759
276.5,7.32132,7.66212,-0.00471753
277,7.33583,7.60759,-0.00441791
277.5,7.35063,7.55757,-0.00498743
278,7.36533,7.50766,-0.00494477
278.5,7.38008,7.46171,-0.00493631
279,7.39457,7.43347,-0.00546113
279.5,7.40925,7.40832,-0.00644438
280,7.42398,7.37585,-0.00637454
280.5,7.4381,7.36525,-0.00662198
281,7.45276,7.35257,-0.00768129
281.5,7.46816,7.30995,-0.00772614
282,7.48297,7.27434,-0.00701045
282.5,7.49772,7.26503,-0.00632165
283,7.51241,7.24442,-0.00637079
283.5,7.52736,7.2272,-0.00637455
284,7.54216,7.21405,-0.00636503
284.5,7.5563,7.20313,-0.00617497
285,7.57109,7.19251,-0.00541232
285.5,7.58601,7.18346,-0.00539421
286,7.60133,7.17397,-0.00538967
286.5,7.61607,7.17074,-0.00538998
287,7.63126,7.15873,-0.00538976
287.5,7.64559,7.13987,-0.0053867
288,7.66055,7.14227,-0.00556214
288.5,7.67518,7.13843,-0.00638528
289,7.68996,7.1347,-0.00550554
289.5,7.70481,7.13039,-0.00645367
290,7.71967,7.12948,-0.00724713
290.5,7.7346,7.14028,-0.00642487
291,7.74946,7.13178,-0.00727901
291.5,7.76459,7.11776,-0.00735338
292,7.77931,7.10306,-0.00735787
292.5,7.79412,7.09582,-0.00734727
293,7.80896,7.10384,-0.00770007
293.5,7.82362,7.10718,-0.00879913
294,7.83873,7.108,-0.00908282
294.5,7.85351,7.10609,-0.0103523
295,7.86826,7.10129,-0.0101987
295.5,7.88337,7.09685,-0.0113612
296,7.89813,7.09307,-0.0116168
296.5,7.91296,7.08662,-0.0116241
297,7.92711,7.08982,-0.0101182
297.5,7.94245,7.08853,-0.00913856
298,7.95757,7.09861,-0.00811289
298.5,7.97243,7.09891,-0.00756024
299,7.9874,7.09702,-0.00746879
299.5,8.00204,7.08979,-0.00748428
300,8.01638,7.08927,-0.00779468
300.5,8.03204,7.08346,-0.00878534
301,8.0468,7.0926,-0.00878713
301.5,8.06195,7.08745,-0.00879011
302,8.0766,7.08789,-0.00879005
302.5,8.09156,7.08509,-0.00879
303,8.10641,7.08544,-0.00879
303.5,8.12061,7.08451,-0.00879
304,8.13598,7.08431,-0.00879
304.5,8.15128,7.0857,-0.00879
305,8.16604,7.08923,-0.00879
305.5,8.18103,7.10457,-0.00879
306,8.19587,7.08911,-0.00878987
306.5,8.21098,7.08635,-0.00879006
307,8.2254,7.09049,-0.00879618
307.5,8.24054,7.08497,-0.00878382
308,8.25536,7.07995,-0.00928429
308.5,8.27041,7.08161,-0.00953276
309,8.28534,7.08128,-0.00828844
309.5,8.30032,7.08753,-0.00812649
310,8.31493,7.08806,-0.00812678
310.5,8.32987,7.08488,-0.00813422
311,8.34472,7.08401,-0.00832066
311.5,8.35945,7.08046,-0.00938599
312,8.37441,7.08287,-0.00943603
312.5,8.38963,7.11277,-0.00945056
313,8.40415,7.09695,-0.00945022
313.5,8.4194,7.09474,-0.00945016
314,8.43415,7.08869,-0.00945326
314.5,8.44933,7.09862,-0.00943975
315,8.46391,7.09972,-0.00930896
315.5,8.47907,7.08588,-0.00818451
316,8.49401,7.07616,-0.00814901
316.5,8.50899,7.07873,-0.00804485
317,8.52384,7.07469,-0.00927838
317.5,8.53879,7.07645,-0.00875466
318,8.55383,7.07446,-0.00866093
318.5,8.5685,7.07443,-0.0097448
319,8.58353,7.07105,-0.00954524
319.5,8.59845,7.08068,-0.00929244
320,8.61339,7.09073,-0.00962936
320.5,8.62827,7.07589,-0.00872771
321,8.64341,7.08413,-0.00800214
321.5,8.65833,7.07518,-0.0080277
322,8.67347,7.0725,-0.00742166
322.5,8.68816,7.06868,-0.00665152
323,8.70301,7.07056,-0.0066908
323.5,8.71788,7.06527,-0.00672499
324,8.73289,7.05503,-0.00690826
324.5,8.74771,7.05905,-0.00800114
325,8.76276,7.06617,-0.00801582
325.5,8.77771,7.06204,-0.00803174
326,8.79276,7.06582,-0.00812913
326.5,8.80766,7.06904,-0.00922909
327,8.82282,7.07014,-0.00932717
327.5,8.83755,7.06776,-0.00934196
328,8.85259,7.06314,-0.00934033
328.5,8.86763,7.06986,-0.00933938
329,8.88188,7.08673,-0.00933589
329.5,8.89753,7.0455,-0.00949651
330,8.91222,7.04984,-0.0107316
330.5,8.92757,7.05973,-0.0106486
331,8.94232,7.07602,-0.0107455
331.5,8.95738,7.06292,-0.0118385
332,8.97226,7.04408,-0.0119337
332.5,8.98711,7.05011,-0.0123871
333,9.00216,7.04337,-0.0133457
333.5,9.01714,7.04761,-0.0132816
334,9.03233,7.05136,-0.0132891
334.5,9.04726,7.05049,-0.0132902
335,9.06197,7.05075,-0.01329
335.5,9.07708,7.04813,-0.01329
336,9.09198,7.0489,-0.01329
336.5,9.10728,7.04609,-0.01329
337,9.12204,7.0584,-0.01329
337.5,9.13716,7.06333,-0.0132902
338,9.15217,7.07057,-0.0132917
338.5,9.16705,7.05932,-0.0132776
339,9.18208,7.06592,-0.0131723
339.5,9.19704,7.05734,-0.0120774
340,9.21202,7.04836,-0.0120081
340.5,9.22717,7.05615,-0.0115062
341,9.24223,7.05576,-0.0104892
341.5,9.25727,7.05285,-0.0103654
342,9.27219,7.05757,-0.00942404
342.5,9.28728,7.04873,-0.0108024
343,9.3022,7.04521,-0.0106329
343.5,9.31725,7.07055,-0.0118853
344,9.33252,7.08606,-0.0107825
344.5,9.34734,7.05198,-0.0107969
345,9.36218,7.05752,-0.0118156
345.5,9.37737,7.05344,-0.0122249
346,9.39254,7.06265,-0.0121843
346.5,9.40761,7.06249,-0.0132549
347,9.42267,7.06171,-0.0120957
347.5,9.4375,7.05951,-0.0121972
348,9.45261,7.05707,-0.0121835
348.5,9.46791,7.06171,-0.0122286
349,9.48259,7.06688,-0.0112402
349.5,9.49783,7.08561,-0.0108887
350,9.51307,7.06628,-0.0105296
350.5,9.52793,7.08041,-0.0105512
351,9.54315,7.09222,-0.0105435
351.5,9.558,7.08674,-0.010436
352,9.57306,7.10777,-0.0115958
352.5,9.58828,7.10112,-0.0129687
353,9.60315,7.10828,-0.0137759
353.5,9.61834,7.09611,-0.0147889
354,9.63345,7.10003,-0.0147172
354.5,9.64858,7.11084,-0.0147924
355,9.66396,7.11908,-0.0156959
355.5,9.67891,7.1259,-0.0146876
356,9.69405,7.1222,-0.0151717
356.5,9.70919,7.12795,-0.0162169
357,9.72419,7.13522,-0.0166351
357.5,9.73929,7.13344,-0.0177817
358,9.75459,7.14129,-0.0178199
358.5,9.76964,7.15042,-0.0189574
359,9.78476,7.15541,-0.0189855
359.5,9.79986,7.15389,-0.0191324
360,9.8151,7.16832,-0.0203985
360.5,9.83008,7.16901,-0.0204444
361,9.84497,7.16447,-0.0218271
361.5,9.86004,7.17117,-0.0217239
362,9.87541,7.19092,-0.0217629
362.5,9.89064,7.18992,-0.0218386
363,9.90565,7.18712,-0.0230328
363.5,9.92102,7.1888,-0.0230304
364,9.93622,7.20055,-0.0239077
364.5,9.95104,7.2021,-0.025526
365,9.96618,7.20185,-0.0256969
365.5,9.98139,7.21318,-0.0256908
366,9.9964,7.22698,-0.0256855
366.5,10.0118,7.22399,-0.0262706
367,10.0267,7.23231,-0.0270543
367.5,10.0421,7.24237,-0.0270162
368,10.0571,7.25658,-0.0270095
368.5,10.0727,7.2798,-0.0270099
369,10.0876,7.27343,-0.0270038
369.5,10.1028,7.28372,-0.0273478
370,10.118,7.30687,-0.0284233
370.5,10.1329,7.30339,-0.0283308
371,10.1481,7.30718,-0.0283265
371.5,10.1636,7.33936,-0.0287519
372,10.1786,7.34411,-0.0299995
372.5,10.1942,7.35635,-0.0299711
373,10.2093,7.37483,-0.0313808
373.5,10.2241,7.3702,-0.0320119
374,10.2397,7.38746,-0.0342311
374.5,10.2548,7.40384,-0.034418
375,10.2701,7.42005,-0.0357783
375.5,10.2852,7.43242,-0.0353178
376,10.3004,7.44359,-0.0357913
376.5,10.3159,7.4616,-0.0359058
377,10.3308,7.48917,-0.0372694
377.5,10.3466,7.50958,-0.0373195
378,10.3618,7.55408,-0.0385483
378.5,10.3767,7.55833,-0.0391
379,10.3921,7.56689,-0.0407977
379.5,10.4077,7.58464,-0.0410579
380,10.422,7.60348,-0.0424056
380.5,10.4382,7.6384,-0.0414543
381,10.4534,7.68018,-0.0422185
381.5,10.4686,7.70531,-0.0425026
382,10.4839,7.72387,-0.0439676
382.5,10.4993,7.75149,-0.0439082
383,10.5144,7.77648,-0.0445948
383.5,10.5298,7.81014,-0.0449422
384,10.5452,7.83438,-0.0461197
384.5,10.5605,7.86299,-0.047043
385,10.5761,7.89931,-0.0480273
385.5,10.5914,7.96209,-0.0494294
386,10.6065,8.02085,-0.0506116
386.5,10.6221,8.02249,-0.0519821
387,10.6375,8.06958,-0.0538792
387.5,10.6527,8.10925,-0.0561
388,10.6682,8.16166,-0.057363
388.5,10.6836,8.21203,-0.0581354
389,10.6988,8.27214,-0.0597875
389.5,10.7145,8.34805,-0.0607987
390,10.7297,8.36431,-0.0605807
390.5,10.7451,8.40589,-0.0623565
391,10.7606,8.46299,-0.0630845
391.5,10.7761,8.51907,-0.0637944
392,10.7916,8.57819,-0.0653478
392.5,10.8073,8.62614,-0.0660384
393,10.8224,8.67292,-0.0676039
393.5,10.8376,8.71001,-0.069212
394,10.8536,8.77056,-0.0713429
394.5,10.869,8.82942,-0.0727598
395,10.8845,8.89285,-0.0739554
395.5,10.9,8.96058,-0.0757617
396,10.9155,9.04085,-0.0781913
396.5,10.9312,9.13916,-0.0803617
397,10.9464,9.15925,-0.083415
397.5,10.9622,9.16391,-0.0869446
398,10.9774,9.17804,-0.0889457
398.5,10.9929,9.21385,-0.0921399
399,11.0083,9.25151,-0.095122
399.5,11.0237,9.27422,-0.0975139
400,11.0392,9.31222,-0.100331
400.5,11.0547,9.34343,-0.102408
401,11.0701,9.38248,-0.105191
401.5,11.0855,9.41652,-0.108342
402,11.1011,9.45652,-0.111578
402.5,11.1166,9.4865,-0.115672
403,11.132,9.51425,-0.118084
403.5,11.1474,9.54378,-0.120876
404,11.1631,9.62129,-0.124679
404.5,11.1789,9.74013,-0.126674
405,11.1945,9.84116,-0.129684
405.5,11.2102,9.88107,-0.133559
406,11.2255,9.91966,-0.137029
406.5,11.2411,9.96752,-0.140753
407,11.2563,10.0164,-0.145464
407.5,11.2723,10.1026,-0.14931
408,11.2877,10.1404,-0.15326
408.5,11.3032,10.1945,-0.15547
409,11.3186,10.2449,-0.159622
409.5,11.3344,10.3004,-0.164813
410,11.3499,10.367,-0.168413
410.5,11.3652,10.4209,-0.17391
411,11.3808,10.4852,-0.178672
411.5,11.3968,10.589,-0.183465
412,11.4121,10.6544,-0.189577
412.5,11.4278,10.7192,-0.194708
413,11.4434,10.8166,-0.202146
413.5,11.4592,10.8934,-0.208525
414,11.4751,10.9548,-0.214029
414.5,11.4906,11.0287,-0.221493
415,11.5061,11.0964,-0.226473
415.5,11.522,11.1947,-0.232748
416,11.5376,11.2978,-0.240172
416.5,11.5531,11.3616,-0.247372
417,11.5691,11.4036,-0.255666
417.5,11.5843,11.4507,-0.261852
418,11.6002,11.5586,-0.268702
418.5,11.6159,11.5883,-0.276459
419,11.6315,11.6311,-0.282596
419.5,11.6471,11.7032,-0.290783
420,11.6626,11.749,-0.298033
420.5,11.6783,11.7916,-0.304925
421,11.6939,11.877,-0.312871
421.5,11.7094,11.8821,-0.318979
422,11.7248,11.9388,-0.326771
422.5,11.7409,11.9954,-0.335058
423,11.7564,12.1221,-0.342707
423.5,11.7725,12.181,-0.353123
424,11.788,12.2186,-0.360324
424.5,11.8034,12.2644,-0.368892
425,11.8189,12.3314,-0.376457
425.5,11.8348,12.393,-0.383282
426,11.8504,12.4684,-0.393279
426.5,11.8665,12.5375,-0.400641
427,11.8818,12.5885,-0.409808
427.5,11.8978,12.6944,-0.42087
428,11.9133,12.7494,-0.429955
428.5,11.9293,12.7855,-0.442063
429,11.9447,12.8718,-0.451206
429.5,11.9605,12.9684,-0.460599
430,11.9762,13.0343,-0.471822
430.5,11.9915,13.1254,-0.481127
431,12.0076,13.1953,-0.493252
431.5,12.0233,13.2134,-0.503123
432,12.0393,13.3176,-0.513685
432.5,12.0552,13.4043,-0.526643
433,12.0709,13.4549,-0.536887
433.5,12.0865,13.5707,-0.550016
434,12.102,13.6143,-0.56165
434.5,12.1183,13.7571,-0.573561
435,12.1335,13.8044,-0.588601
435.5,12.1497,13.9001,-0.601405
436,12.1658,14.0001,-0.616918
436.5,12.1812,14.1077,-0.630062
437,12.1974,14.1489,-0.641783
437.5,12.213,14.233,-0.656929
438,12.2289,14.3167,-0.669337
438.5,12.2447,14.4209,-0.684588
439,12.2605,14.4545,-0.698949
439.5,12.2758,14.5535,-0.711522
440,12.2917,14.6622,-0.72851
440.5,12.3084,14.7909,-0.74248
441,12.3242,14.9332,-0.759038
441.5,12.3401,15.0463,-0.77623
442,12.3556,15.057,-0.791655
442.5,12.3722,15.135,-0.812941
443,12.3878,15.2864,-0.828079
443.5,12.4039,15.394,-0.846882
444,12.4197,15.4857,-0.865772
444.5,12.4354,15.605,-0.882624
445,12.4514,15.69,-0.902949
445.5,12.4674,15.759,-0.919952
446,12.4822,15.7752,-0.937967
446.5,12.4985,15.8806,-0.959644
447,12.514,16.0104,-0.977112
447.5,12.5297,15.9973,-1.00003
448,12.5471,16.2443,-1.02073
448.5,12.5626,16.2691,-1.04256
449,12.5789,16.3844,-1.06657
449.5,12.5951,16.6135,-1.08697
450,12.6106,16.6123,-1.11168
450.5,12.6276,16.9645,-1.13281
451,12.6434,17.1872,-1.15613
451.5,12.6595,17.2008,-1.18061
452,12.6749,17.2478,-1.20152
452.5,12.6911,17.3608,-1.23012
453,12.7068,17.3224,-1.25225
453.5,12.7235,17.5912,-1.28015
454,12.7389,17.567,-1.3068
454.5,12.7548,17.674,-1.33069
455,12.7706,17.7507,-1.36067
455.5,12.787,17.8817,-1.38512
456,12.8022,17.8948,-1.40994
456.5,12.8177,17.8271,-1.43896
457,12.8338,17.8467,-1.46371
457.5,12.8496,17.9407,-1.49544
458,12.8655,18.0493,-1.52261
458.5,12.8814,18.0894,-1.55237
459,12.8973,18.1449,-1.58583
459.5,12.9127,18.1664,-1.61215
460,12.9286,18.1693,-1.64612
460.5,12.9437,18.1141,-1.67246
461,12.96,18.1608,-1.70295
461.5,12.9756,18.1906,-1.73807
462,12.9905,18.1819,-1.7646
462.5,13.0068,18.1384,-1.80153
463,13.0224,18.1408,-1.83243
463.5,13.0377,18.0591,-1.86159
464,13.0528,17.8872,-1.89641
464.5,13.0683,17.743,-1.92301
465,13.0837,17.6504,-1.95504
465.5,13.0992,17.5831,-1.98799
466,13.1153,17.7193,-2.01806
466.5,13.1309,17.829,-2.05597
467,13.1467,17.8031,-2.08596
467.5,13.1615,17.6795,-2.11854
468,13.1773,17.5571,-2.15699
468.5,13.1927,17.4386,-2.18786
469,13.2078,17.3193,-2.2248
469.5,13.2234,17.1913,-2.25853
470,13.2384,17.0682,-2.29077
470.5,13.2537,16.9301,-2.32957
471,13.2692,16.7962,-2.35785
471.5,13.2843,16.6578,-2.39116
472,13.2993,16.5052,-2.42516
472.5,13.315,16.364,-2.45552
473,13.33,16.2011,-2.49199
473.5,13.3449,16.0332,-2.52053
474,13.3604,15.8707,-2.55339
474.5,13.3754,15.6873,-2.58984
475,13.3903,15.5004,-2.61795
475.5,13.4055,15.3054,-2.65319
476,13.4204,15.0933,-2.6859
476.5,13.4354,14.8656,-2.71543
477,13.4505,14.631,-2.7514
477.5,13.4653,14.401,-2.77688
478,13.4799,14.1633,-2.80446
478.5,13.4947,13.9073,-2.83639
479,13.5098,13.6419,-2.86198
479.5,13.5245,13.3672,-2.89386
480,13.5392,13.0857,-2.92541
480.5,13.554,12.801,-2.95131
481,13.5687,12.5168,-2.98314
481.5,13.5834,12.2061,-3.00823
482,13.5979,11.8887,-3.03345
482.5,13.6128,11.5606,-3.06375
483,13.6273,11.2577,-3.08357
483.5,13.642,10.9571,-3.10845
484,13.6567,10.6295,-3.13441
484.5,13.6713,10.3065,-3.15514
485,13.6859,10.0093,-3.18055
485.5,13.7007,9.68161,-3.20387
486,13.7152,9.34662,-3.22479
486.5,13.7299,9.03095,-3.25047
487,13.7445,8.72671,-3.26967
487.5,13.7593,8.42204,-3.2901
488,13.7737,8.12899,-3.3131
488.5,13.7886,7.82352,-3.33008
489,13.8032,7.54,-3.35033
489.5,13.818,7.28057,-3.3706
490,13.8327,6.98889,-3.38557
490.5,13.8474,6.67481,-3.40424
491,13.862,6.39662,-3.41961
491.5,13.8771,6.12508,-3.43649
492,13.8918,5.87004,-3.45972
492.5,13.9066,5.62444,-3.47577
493,13.9215,5.37537,-3.49334
493.5,13.9365,5.14318,-3.51063
494,13.9516,4.91488,-3.52343
494.5,13.9656,4.71071,-3.53762
495,13.9807,4.49553,-3.55216
495.5,13.9958,4.30232,-3.56462
496,14.0113,4.09449,-3.57824
496.5,14.0266,3.90548,-3.58896
497,14.0417,3.73403,-3.59991
497.5,14.0568,3.54469,-3.61151
498,14.0721,3.39643,-3.62015
498.5,14.0872,3.26386,-3.63046
499,14.1025,3.10247,-3.63962
499.5,14.1177,2.94078,-3.64802
500,14.1332,2.79706,-3.65811
500.5,14.1481,2.67449,-3.66469
501,14.1637,2.53728,-3.67292
501.5,14.1789,2.41518,-3.68034
502,14.1942,2.3346,-3.68761
502.5,14.2096,2.19741,-3.69636
503,14.2248,2.09056,-3.70256
503.5,14.2404,1.99027,-3.70904
504,14.2561,1.90272,-3.71587
504.5,14.2715,1.81713,-3.72065
505,14.2868,1.72369,-3.72641
505.5,14.3023,1.63653,-3.73238
506,14.3181,1.56245,-3.73705
506.5,14.3334,1.49545,-3.7419
507,14.3484,1.42625,-3.74491
507.5,14.364,1.3574,-3.74888
508,14.3797,1.30087,-3.75166
508.5,14.3955,1.23448,-3.75452
509,14.4114,1.17275,-3.75854
509.5,14.4269,1.12705,-3.76154
510,14.4423,1.07198,-3.76501
510.5,14.4578,1.0176,-3.76813
511,14.4737,0.98127,-3.77069
511.5,14.4894,0.937571,-3.77305
512,14.5052,0.898707,-3.7761
512.5,14.5205,0.861167,-3.77797
513,14.5365,0.826637,-3.78019
513.5,14.552,0.796902,-3.78183
514,14.5678,0.765195,-3.7829
514.5,14.5837,0.731484,-3.78425
515,14.5995,0.701648,-3.78464
515.5,14.6151,0.681144,-3.78587
516,14.6307,0.654628,-3.78673
516.5,14.6468,0.62699,-3.78738
517,14.6625,0.62251,-3.78804
517.5,14.6782,0.625006,-3.78872
518,14.6942,0.577896,-3.78952
518.5,14.7098,0.56257,-3.79012
519,14.726,0.550264,-3.79107
519.5,14.7413,0.543922,-3.79147
520,14.7574,0.534641,-3.79146
520.5,14.7734,0.538901,-3.79146
521,14.789,0.511206,-3.79129
521.5,14.8047,0.494655,-3.79169
522,14.8208,0.474095,-3.79186
522.5,14.8363,0.470918,-3.79309
523,14.8525,0.463284,-3.79308
523.5,14.8685,0.456571,-3.79438
524,14.884,0.44447,-3.79439
524.5,14.8993,0.430791,-3.79559
525,14.9154,0.424789,-3.79563
525.5,14.9317,0.424274,-3.79563
526,14.9476,0.428412,-3.79564
526.5,14.9635,0.441321,-3.79566
527,14.9794,0.434326,-3.7968
527.5,14.9954,0.423698,-3.79694
528,15.0113,0.416857,-3.79699
528.5,15.0268,0.426773,-3.79627
529,15.0432,0.415787,-3.79559
529.5,15.0583,0.414004,-3.79563
530,15.0743,0.424715,-3.79563
530.5,15.0906,0.421928,-3.79563
531,15.1068,0.419776,-3.79563
531.5,15.1226,0.415171,-3.79554
532,15.1385,0.411179,-3.79673
532.5,15.1546,0.403024,-3.79695
533,15.1704,0.399183,-3.79695
533.5,15.1864,0.394625,-3.79695
534,15.2022,0.388385,-3.79695
534.5,15.2182,0.387453,-3.79695
535,15.2343,0.3764,-3.79695
535.5,15.25,0.397632,-3.79695
536,15.2662,0.369074,-3.79692
536.5,15.2821,0.365718,-3.79756
537,15.2979,0.365081,-3.79835
537.5,15.314,0.359642,-3.79862
538,15.3298,0.365823,-3.7986
538.5,15.346,0.373294,-3.7986
539,15.3618,0.369961,-3.7986
539.5,15.3778,0.3638,-3.7986
540,15.3939,0.359006,-3.79753
540.5,15.4097,0.345479,-3.7973
541,15.4255,0.337368,-3.79728
541.5,15.4412,0.358123,-3.79721
542,15.4576,0.341496,-3.79675
542.5,15.4737,0.347244,-3.79727
543,15.4894,0.350033,-3.79728
543.5,15.5054,0.348323,-3.79702
544,15.521,0.35556,-3.79588
544.5,15.5374,0.338913,-3.79596
545,15.5534,0.329612,-3.79559
545.5,15.5692,0.328857,-3.79436
546,15.5855,0.356796,-3.79472
546.5,15.6013,0.356093,-3.79449
547,15.6173,0.324112,-3.79442
547.5,15.6333,0.31986,-3.79442
548,15.6494,0.317731,-3.79442
548.5,15.6651,0.316145,-3.79442
549,15.6812,0.315568,-3.79442
549.5,15.6973,0.310354,-3.79438
550,15.7131,0.305417,-3.7951
550.5,15.729,0.306152,-3.79576
551,15.7452,0.314331,-3.79629
551.5,15.7613,0.297463,-3.79719
552,15.7773,0.31028,-3.7979
552.5,15.7931,0.288404,-3.79864
553,15.8093,0.287973,-3.79865
553.5,15.8253,0.284631,-3.80004
554,15.8413,0.283718,-3.8012
554.5,15.8573,0.28621,-3.80123
555,15.8733,0.282286,-3.80123
555.5,15.8892,0.274217,-3.80123
556,15.9055,0.271798,-3.80123
556.5,15.9213,0.281495,-3.8021
557,15.9373,0.278928,-3.80254
557.5,15.9533,0.248739,-3.80246
558,15.9694,0.247382,-3.80374
558.5,15.9855,0.253461,-3.80387
559,16.0015,0.237691,-3.80387
559.5,16.0175,0.227772,-3.80387
560,16.0336,0.239846,-3.80387
560.5,16.0496,0.232857,-3.80387
561,16.066,0.219799,-3.80387
561.5,16.0815,0.217014,-3.80387
562,16.0978,0.214967,-3.80387
562.5,16.1135,0.215275,-3.80386
563,16.1296,0.207264,-3.80364
563.5,16.1458,0.203612,-3.80345
564,16.1622,0.205393,-3.80388
564.5,16.1777,0.193968,-3.80387
565,16.194,0.187083,-3.80386
565.5,16.2102,0.199015,-3.80382
566,16.226,0.190194,-3.8048
566.5,16.2419,0.187878,-3.80454
567,16.258,0.185605,-3.80385
567.5,16.2741,0.18808,-3.80386
568,16.2903,0.177525,-3.80361
568.5,16.3061,0.17582,-3.80258
569,16.3222,0.174578,-3.80319
569.5,16.3386,0.171096,-3.80214
570,16.3547,0.167693,-3.80221
570.5,16.3704,0.16591,-3.80107
571,16.3868,0.165303,-3.80091
571.5,16.4026,0.168357,-3.8009
572,16.419,0.209915,-3.8009
572.5,16.4349,0.154203,-3.8009
573,16.4511,0.143212,-3.8009
573.5,16.4669,0.142263,-3.8009
574,16.4833,0.150393,-3.8009
574.5,16.4992,0.150727,-3.80134
575,16.5152,0.145513,-3.80366
575.5,16.5311,0.139848,-3.80353
576,16.5473,0.141731,-3.80355
576.5,16.5632,0.134129,-3.80355
577,16.5796,0.129421,-3.80471
577.5,16.5954,0.126545,-3.80484
578,16.6118,0.125295,-3.80488
578.5,16.6277,0.127264,-3.8038
579,16.6439,0.137861,-3.80266
579.5,16.6601,0.125261,-3.80154
580,16.6762,0.105343,-3.80057
580.5,16.6921,0.105876,-3.79957
581,16.7085,0.103697,-3.79831
581.5,16.7243,0.0981078,-3.79795
582,16.7403,0.114445,-3.79793
582.5,16.7564,0.111312,-3.79792
583,16.7727,0.0995907,-3.79826
583.5,16.7886,0.0960272,-3.79949
584,16.8049,0.0929982,-3.80068
584.5,16.821,0.0880772,-3.80057
585,16.8372,0.0906135,-3.80057
585.5,16.8534,0.0874816,-3.80057
586,16.8694,0.0884494,-3.80057
586.5,16.8856,0.0933076,-3.80057
587,16.9019,0.115877,-3.80057
587.5,16.9179,0.0917481,-3.80068
588,16.9338,0.0914054,-3.80162
588.5,16.9501,0.0850051,-3.8019
589,16.9661,0.113769,-3.80189
589.5,16.9821,0.130725,-3.80188
590,16.9984,0.0977914,-3.80194
590.5,17.0145,0.0888588,-3.80064
591,17.0307,0.089932,-3.80057
591.5,17.0465,0.0820991,-3.80065
592,17.0633,0.0947433,-3.79938
592.5,17.0791,0.104985,-3.79925
593,17.0953,0.0752609,-3.79925
593.5,17.1113,0.0875667,-3.79925
594,17.1275,0.0799061,-3.79925
594.5,17.1437,0.0848504,-3.79935
595,17.1598,0.0846488,-3.79823
595.5,17.1758,0.0799976,-3.79828
596,17.1925,0.0896905,-3.79827
596.5,17.2084,0.0887476,-3.79827
597,17.2242,0.0835431,-3.79831
597.5,17.2407,0.0940278,-3.79791
598,17.2569,0.0772199,-3.79794
598.5,17.2732,0.0750082,-3.79794
599,17.2891,0.0790293,-3.79795
599.5,17.3057,0.0746776,-3.79729
600,17.3219,0.0728397,-3.7965
600.5,17.338,0.0787133,-3.79556
601,17.3542,0.0830244,-3.79511
601.5,17.3707,0.0700154,-3.79508
602,17.3865,0.0187833,-3.79508
602.5,17.4027,0.000621673,-3.79587
603,17.4183,-0.00482191,-3.79778
603.5,17.4353,0.0385306,-3.79772
604,17.4515,0.0517097,-3.79771
604.5,17.4677,0.04909,-3.79771
605,17.484,0.0587922,-3.79771
605.5,17.5001,0.069222,-3.79771
606,17.5165,0.0602344,-3.7977
606.5,17.5325,0.0539732,-3.79781
607,17.5482,0.0542516,-3.79594
607.5,17.565,0.0512832,-3.79573
608,17.5814,0.0623403,-3.79574
608.5,17.5973,0.0535951,-3.79574
609,17.6136,0.0458961,-3.79574
609.5,17.63,0.0466199,-3.79576
610,17.6463,0.0679921,-3.79527
610.5,17.6626,0.0505512,-3.79508
611,17.6787,0.0466404,-3.79507
611.5,17.6952,0.0509694,-3.79575
612,17.7109,-0.007535,-3.7964
612.5,17.7276,-0.0483155,-3.79642
613,17.7437,-0.0816523,-3.79646
613.5,17.7597,-0.0952496,-3.7977
614,17.7763,-0.111191,-3.79786
614.5,17.7921,-0.102872,-3.79924
615,17.8087,-0.0332277,-3.79965
615.5,17.8246,-0.0297281,-3.80215
616,17.8413,-0.0232314,-3.80217
616.5,17.8574,-0.0133717,-3.80325
617,17.8737,-0.00724964,-3.80352
617.5,17.8899,-0.0107611,-3.80353
618,17.9062,-0.00427677,-3.80357
618.5,17.9225,-0.00345277,-3.80249
619,17.939,0.000202856,-3.80221
619.5,17.9551,0.00914847,-3.8022
620,17.9716,0.00093915,-3.80224
620.5,17.9877,0.0198577,-3.80116
621,18.0041,-0.0839997,-3.80091
621.5,18.0203,-0.114509,-3.8009
622,18.0363,-0.133972,-3.80092
622.5,18.0531,-0.15099,-3.80093
623,18.0691,-0.141845,-3.80189
623.5,18.0853,-0.154139,-3.80119
624,18.1018,-0.172873,-3.80118
624.5,18.1181,-0.190279,-3.8025
625,18.1335,-0.169208,-3.80255
625.5,18.1499,-0.183106,-3.80245
626,18.1669,-0.203941,-3.80379
626.5,18.1831,-0.200916,-3.80388
627,18.1997,-0.212097,-3.80524
627.5,18.2161,-0.219498,-3.80568
628,18.232,-0.21398,-3.80682
628.5,18.2485,-0.23236,-3.80661
629,18.2646,-0.224745,-3.80661
629.5,18.281,-0.230167,-3.80661
630,18.2974,-0.228556,-3.80655
630.5,18.3135,-0.230899,-3.80527
631,18.3299,-0.243639,-3.80484
631.5,18.3461,-0.257998,-3.80395
632,18.3627,-0.244038,-3.80397
632.5,18.3785,-0.252861,-3.80398
633,18.3952,-0.25043,-3.80398
633.5,18.4115,-0.244118,-3.80398
634,18.4281,-0.256171,-3.80399
634.5,18.4439,-0.252218,-3.80403
635,18.4603,-0.266555,-3.80519
635.5,18.4767,-0.264959,-3.80528
636,18.493,-0.260778,-3.80528
636.5,18.5094,-0.264143,-3.80526
637,18.5255,-0.268483,-3.80411
637.5,18.5418,-0.270135,-3.80398
638,18.5586,-0.25532,-3.80396
638.5,18.5746,-0.286031,-3.8039
639,18.5907,-0.253883,-3.80274
639.5,18.6072,-0.262882,-3.80267
640,18.6231,-0.230075,-3.80229
640.5,18.6398,-0.192721,-3.80116
641,18.6559,-0.246642,-3.8012
641.5,18.6723,-0.255938,-3.79994
642,18.6889,-0.248373,-3.79992
642.5,18.705,-0.263768,-3.80079
643,18.7215,-0.267852,-3.80121
643.5,18.7374,-0.276483,-3.80123
644,18.7541,-0.273611,-3.80123
644.5,18.7704,-0.250138,-3.80122
645,18.7868,-0.249767,-3.80115
645.5,18.8032,-0.262207,-3.80226
646,18.8194,-0.245055,-3.80256
646.5,18.8357,-0.275473,-3.80283
647,18.8519,-0.270953,-3.80391
647.5,18.8684,-0.21533,-3.80386
648,18.8846,-0.245233,-3.80388
648.5,18.9009,-0.269745,-3.80379
649,18.9174,-0.279502,-3.80512
649.5,18.9335,-0.274467,-3.8052
650,18.9501,-0.264199,-3.8049
650.5,18.9663,-0.27679,-3.80376
651,18.9828,-0.28167,-3.80452
651.5,18.9989,-0.280764,-3.80522
652,19.0154,-0.286884,-3.80519
652.5,19.0318,-0.305263,-3.80516
653,19.048,-0.324258,-3.80626
653.5,19.0642,-0.334714,-3.8065
654,19.0808,-0.352933,-3.80642
654.5,19.097,-0.373192,-3.80773
655,19.1135,-0.38935,-3.80782
655.5,19.1298,-0.387549,-3.80782
656,19.1459,-0.41892,-3.80782
656.5,19.1623,-0.412671,-3.80782
657,19.1789,-0.4055,-3.80879
657.5,19.1951,-0.40935,-3.80911
658,19.2113,-0.418393,-3.80913
658.5,19.2278,-0.420991,-3.80913
659,19.2441,-0.417286,-3.80913
659.5,19.2602,-0.385691,-3.80913
660,19.2769,-0.375934,-3.80913
660.5,19.2932,-0.377478,-3.80913
661,19.3096,-0.383573,-3.80914
661.5,19.326,-0.392065,-3.80918
662,19.3424,-0.397808,-3.80849
662.5,19.3586,-0.405848,-3.80809
663,19.375,-0.388713,-3.80784
663.5,19.3916,-0.396012,-3.80782
664,19.4076,-0.397034,-3.80782
664.5,19.4241,-0.422173,-3.80782
665,19.4406,-0.424445,-3.80782
665.5,19.4569,-0.423218,-3.80782
666,19.4734,-0.428371,-3.8078
666.5,19.4896,-0.425575,-3.8066
667,19.506,-0.410665,-3.80718
667.5,19.5224,-0.382564,-3.80781
668,19.5389,-0.372716,-3.80781
668.5,19.5549,-0.372933,-3.80781
669,19.5714,-0.281358,-3.80781
669.5,19.5878,-0.243556,-3.80783
670,19.6041,-0.232114,-3.80743
670.5,19.6207,-0.187489,-3.80715
671,19.6363,-0.186013,-3.80715
671.5,19.6534,-0.18452,-3.80714
672,19.6697,-0.175528,-3.80784
672.5,19.6861,-0.164471,-3.80862
673,19.7026,-0.156324,-3.80859
673.5,19.7189,-0.166198,-3.80955
674,19.7355,-0.170991,-3.81076
674.5,19.7516,-0.174803,-3.81123
675,19.7676,-0.226859,-3.81124
675.5,19.7838,-0.286803,-3.81098
676,19.8005,-0.312594,-3.81102
676.5,19.8171,-0.248766,-3.81084
677,19.8337,-0.215817,-3.81128
677.5,19.8502,-0.214533,-3.81046
678,19.8663,-0.20563,-3.80997
678.5,19.8826,-0.192363,-3.81069
679,19.899,-0.189324,-3.80962
679.5,19.9149,-0.198595,-3.80968
680,19.9318,-0.196494,-3.80969
680.5,19.9483,-0.180059,-3.80969
681,19.9649,-0.180906,-3.80969
681.5,19.9811,-0.154817,-3.80969
682,19.9975,-0.171376,-3.80969
682.5,20.0134,-0.184519,-3.80968
683,20.0301,-0.190342,-3.81011
683.5,20.0468,-0.186224,-3.81178
684,20.0632,-0.192705,-3.8123
684.5,20.0795,-0.194491,-3.81231
685,20.0959,-0.205596,-3.81231
685.5,20.1124,-0.195119,-3.81231
686,20.1287,-0.194978,-3.81231
686.5,20.1449,-0.210198,-3.8123
687,20.1617,-0.213363,-3.81112
687.5,20.1781,-0.218946,-3.81112
688,20.1944,-0.225805,-3.80989
688.5,20.2108,-0.220083,-3.80969
689,20.2272,-0.218233,-3.80976
689.5,20.2437,-0.219449,-3.8087
690,20.2601,-0.226834,-3.80836
690.5,20.2763,-0.228072,-3.80837
691,20.2929,-0.23002,-3.80837
691.5,20.3092,-0.236801,-3.80839
692,20.3257,-0.231635,-3.80849
692.5,20.3422,-0.220885,-3.8109
693,20.3585,-0.231962,-3.81097
693.5,20.3752,-0.233185,-3.811
694,20.3914,-0.238916,-3.811
694.5,20.4081,-0.241387,-3.811
695,20.424,-0.238408,-3.81101
695.5,20.4409,-0.221216,-3.81218
696,20.4573,-0.23193,-3.8123
696.5,20.4732,-0.242207,-3.81231
697,20.4903,-0.242796,-3.81178
697.5,20.5065,-0.241095,-3.81091
698,20.523,-0.233816,-3.81223
698.5,20.5396,-0.238292,-3.81219
699,20.5557,-0.248135,-3.81221
699.5,20.5722,-0.2419,-3.81222
700,20.5885,-0.230837,-3.81262
700.5,20.6053,-0.238572,-3.81254
701,20.6217,-0.244158,-3.8122
701.5,20.6382,-0.197617,-3.81221
702,20.6546,-0.225621,-3.81221
702.5,20.6713,-0.249852,-3.81221
703,20.6876,-0.250885,-3.81221
703.5,20.7038,-0.25077,-3.81221
704,20.7204,-0.241934,-3.81221
704.5,20.7368,-0.242737,-3.81221
705,20.7534,-0.2616,-3.81221
705.5,20.7697,-0.24749,-3.81222
706,20.7863,-0.249694,-3.81229
706.5,20.8026,-0.252541,-3.81285
707,20.8191,-0.25018,-3.81361
707.5,20.8356,-0.268644,-3.81417
708,20.8521,-0.274314,-3.81418
708.5,20.8686,-0.275825,-3.81418
709,20.8849,-0.249901,-3.81418
709.5,20.9012,-0.280262,-3.81418
710,20.9179,-0.289008,-3.81419
710.5,20.9343,-0.281467,-3.81415
711,20.9506,-0.273432,-3.81557
711.5,20.9672,-0.287309,-3.81592
712,20.9835,-0.286307,-3.81594
712.5,21,-0.288904,-3.81598
713,21.0164,-0.29781,-3.81516
713.5,21.0326,-0.289973,-3.81437
714,21.0493,-0.272958,-3.81447
714.5,21.0659,-0.298344,-3.81332
715,21.0823,-0.272716,-3.81371
715.5,21.0988,-0.272689,-3.81369
716,21.1153,-0.278372,-3.81438
716.5,21.1318,-0.26828,-3.81522
717,21.1483,-0.265262,-3.81517
717.5,21.1645,-0.254088,-3.81517
718,21.1812,-0.267716,-3.81518
718.5,21.1978,-0.278001,-3.81544
719,21.2139,-0.275721,-3.8165
719.5,21.2306,-0.270942,-3.81603
720,21.2471,-0.278801,-3.81505
720.5,21.2632,-0.293269,-3.81489
721,21.28,-0.27076,-3.81342
721.5,21.2964,-0.284758,-3.81353
722,21.313,-0.283787,-3.81337
722.5,21.3295,-0.292157,-3.81212
723,21.346,-0.28501,-3.81221
723.5,21.3625,-0.280978,-3.81221
724,21.3788,-0.300381,-3.81387
724.5,21.3953,-0.319868,-3.81482
725,21.4118,-0.337309,-3.81473
725.5,21.4282,-0.324092,-3.8163
726,21.4449,-0.441331,-3.81601
726.5,21.4613,-0.440112,-3.81723
727,21.4773,-0.478033,-3.81721
727.5,21.4935,-0.494741,-3.81611
728,21.5105,-0.526191,-3.81539
728.5,21.5265,-0.533908,-3.81384
729,21.543,-0.54463,-3.81396
729.5,21.5602,-0.5339,-3.81386
730,21.5767,-0.545063,-3.81256
730.5,21.5927,-0.547802,-3.81266
731,21.6096,-0.561808,-3.81387
731.5,21.6261,-0.567086,-3.81429
732,21.6426,-0.577193,-3.81572
732.5,21.6591,-0.581184,-3.81638
733,21.6758,-0.554122,-3.81727
733.5,21.6922,-0.560651,-3.81728
734,21.7087,-0.569901,-3.81759
734.5,21.7254,-0.56528,-3.81974
735,21.7417,-0.582807,-3.81989
735.5,21.7583,-0.593884,-3.81989
736,21.7747,-0.610563,-3.81989
736.5,21.7916,-0.6104,-3.81999
737,21.8079,-0.597572,-3.81868
737.5,21.8241,-0.588376,-3.81858
738,21.8409,-0.61006,-3.81858
738.5,21.8577,-0.601287,-3.81861
739,21.8741,-0.590239,-3.81823
739.5,21.8909,-0.578654,-3.81825
740,21.9095,-0.599674,-3.81825