File: 01_Data/Helmet_Buckle/STA/N2/30K_min/Helmet_Buckle_STA_N2_30KData_250530_R5.csv
Temp./C,Time/min,DSC/(mW/mg),Mass loss/mg
40.0,0.0,1.46195,-0.0214331
40.5,0.0319065,1.51707,-0.022901
41,0.0626061,1.5857,-0.023097
41.5,0.0927437,1.62569,-0.0217061
42,0.123112,1.68365,-0.021741
42.5,0.152877,1.72798,-0.022783
43,0.180928,1.78281,-0.0235659
43.5,0.209255,1.83211,-0.0223626
44,0.23657,1.88993,-0.0233419
44.5,0.263915,1.93831,-0.0221818
45,0.29052,1.97451,-0.021608
45.5,0.318115,2.03076,-0.0221898
46,0.34409,2.07284,-0.022351
46.5,0.370249,2.11307,-0.0226296
47,0.395589,2.1624,-0.0231156
47.5,0.420616,2.21574,-0.0237296
48,0.444989,2.25035,-0.0242306
48.5,0.470314,2.30015,-0.0245771
49,0.494226,2.33935,-0.0245172
49.5,0.519098,2.37854,-0.0238433
50,0.543429,2.41959,-0.0240318
50.5,0.567303,2.45587,-0.0244138
51,0.590655,2.48566,-0.0248965
51.5,0.614175,2.52989,-0.0257447
52,0.637511,2.57462,-0.0263137
52.5,0.659955,2.60908,-0.0263087
53,0.683293,2.64904,-0.0262955
53.5,0.705874,2.67346,-0.026329
54,0.728787,2.7171,-0.0259721
54.5,0.751026,2.74497,-0.0258432
55,0.77336,2.77291,-0.0265758
55.5,0.795385,2.82088,-0.0276448
56,0.817803,2.85916,-0.0282091
56.5,0.839855,2.88628,-0.0287522
57,0.861872,2.91527,-0.0286296
57.5,0.882559,2.94693,-0.0288589
58,0.904383,2.97597,-0.0287014
58.5,0.925679,3.00582,-0.0282313
59,0.947192,3.04206,-0.0280212
59.5,0.968306,3.06273,-0.0289746
60,0.990102,3.10176,-0.0286584
60.5,1.0111,3.12922,-0.0281229
61,1.0316,3.16023,-0.0290008
61.5,1.05281,3.18619,-0.029302
62,1.07402,3.21427,-0.0299593
62.5,1.09396,3.24037,-0.0295884
63,1.11458,3.26675,-0.0298975
63.5,1.13549,3.29911,-0.0314323
64,1.15627,3.32439,-0.0312782
64.5,1.17564,3.34889,-0.0311708
65,1.19674,3.3714,-0.0321088
65.5,1.21664,3.39804,-0.031274
66,1.23742,3.41821,-0.0315742
66.5,1.25685,3.44223,-0.0325814
67,1.27744,3.46648,-0.034394
67.5,1.29731,3.47843,-0.0337208
68,1.31722,3.49701,-0.0345983
68.5,1.33761,3.53311,-0.0350203
69,1.35679,3.55239,-0.0357012
69.5,1.37688,3.56666,-0.0349498
70,1.39589,3.58218,-0.0353589
70.5,1.41581,3.60747,-0.0351179
71,1.43577,3.61721,-0.0349022
71.5,1.45551,3.6341,-0.0356815
72,1.47507,3.65371,-0.0347717
72.5,1.49464,3.66857,-0.0353345
73,1.51418,3.68011,-0.0346034
73.5,1.53367,3.69204,-0.0356358
74,1.55342,3.71662,-0.0346954
74.5,1.57186,3.72601,-0.0351183
75,1.5916,3.73863,-0.0358658
75.5,1.61058,3.75146,-0.0349779
76,1.62994,3.76647,-0.0362038
76.5,1.64905,3.78495,-0.0373863
77,1.66824,3.79707,-0.0371018
77.5,1.68619,3.80681,-0.0378164
78,1.70626,3.81848,-0.0382957
78.5,1.7255,3.82522,-0.0388989
79,1.74357,3.82667,-0.0395249
79.5,1.7624,3.84489,-0.0396943
80,1.78228,3.84792,-0.0393141
80.5,1.80061,3.86541,-0.0396214
81,1.81931,3.87626,-0.0396488
81.5,1.83868,3.88196,-0.0397004
82,1.85731,3.90015,-0.0397349
82.5,1.87531,3.90992,-0.0399232
83,1.89396,3.92366,-0.0400604
83.5,1.91255,3.92946,-0.0401286
84,1.9315,3.94515,-0.0412507
84.5,1.94935,3.94918,-0.0400838
85,1.96775,3.96693,-0.0404702
85.5,1.98653,3.97459,-0.0411931
86,2.00447,3.98303,-0.0412959
86.5,2.02289,3.99162,-0.0417381
87,2.04132,4.00485,-0.0411904
87.5,2.05958,4.01741,-0.0411362
88,2.07744,4.03124,-0.041166
88.5,2.09595,4.03499,-0.0413124
89,2.1141,4.04128,-0.0417544
89.5,2.13171,4.06305,-0.0413496
90,2.15005,4.07173,-0.0426454
90.5,2.16758,4.07459,-0.0426108
91,2.18618,4.07814,-0.041249
91.5,2.20381,4.08231,-0.0425703
92,2.22185,4.09242,-0.0425903
92.5,2.23944,4.09946,-0.0425879
93,2.25732,4.11274,-0.0428508
93.5,2.27529,4.12001,-0.0440722
94,2.29336,4.13404,-0.0426506
94.5,2.31099,4.14387,-0.0425901
95,2.32881,4.14997,-0.0425872
95.5,2.34627,4.14102,-0.0415872
96,2.36341,4.14681,-0.0427078
96.5,2.38121,4.15518,-0.0426337
97,2.39956,4.15389,-0.0421632
97.5,2.41681,4.15813,-0.0426343
98,2.43422,4.16955,-0.0426059
98.5,2.45153,4.18149,-0.0426202
99,2.46824,4.18239,-0.0426091
99.5,2.48547,4.18391,-0.043159
100,2.50395,4.18932,-0.0425796
100.5,2.52146,4.18493,-0.0426093
101,2.5389,4.17343,-0.0439113
101.5,2.55574,4.18291,-0.0431613
102,2.57328,4.18203,-0.0429391
102.5,2.59055,4.17735,-0.0439175
103,2.60748,4.17525,-0.0439102
103.5,2.62473,4.17435,-0.0440105
104,2.64278,4.16251,-0.0453323
104.5,2.65897,4.15553,-0.0452284
105,2.67661,4.15913,-0.0440342
105.5,2.69356,4.15108,-0.0439422
106,2.71091,4.14745,-0.0439211
106.5,2.72813,4.15036,-0.0439198
107,2.74481,4.12903,-0.0439815
107.5,2.76241,4.12783,-0.0436107
108,2.77961,4.13068,-0.0439009
108.5,2.79647,4.12452,-0.0439212
109,2.81331,4.12246,-0.0441722
109.5,2.83052,4.10589,-0.0450983
110,2.84759,4.11781,-0.0439111
110.5,2.8639,4.11223,-0.0449499
111,2.88051,4.09981,-0.0452032
111.5,2.89837,4.09268,-0.0452303
112,2.91541,4.0956,-0.0452303
112.5,2.9322,4.09522,-0.04523
113,2.9493,4.0905,-0.0452299
113.5,2.96578,4.08881,-0.0452312
114,2.98294,4.08891,-0.0452509
114.5,2.99993,4.08471,-0.0448371
115,3.01684,4.09056,-0.0451679
115.5,3.03392,4.09188,-0.0451962
116,3.05065,4.08991,-0.0458663
116.5,3.0675,4.08722,-0.0453889
117,3.08418,4.0936,-0.0453653
117.5,3.10075,4.1011,-0.0453421
118,3.11761,4.1013,-0.0453399
118.5,3.13465,4.10423,-0.0453409
119,3.15164,4.11343,-0.0453526
119.5,3.16846,4.1193,-0.0453748
120,3.18496,4.12321,-0.0464362
120.5,3.20144,4.13033,-0.045235
121,3.21846,4.13816,-0.0453375
121.5,3.23506,4.15519,-0.0453631
122,3.25142,4.16584,-0.0457132
122.5,3.26827,4.17009,-0.04666
123,3.28522,4.16519,-0.0466592
123.5,3.3013,4.17364,-0.0466599
124,3.31782,4.18876,-0.04666
124.5,3.33439,4.19455,-0.0466599
125,3.35138,4.20186,-0.0466587
125.5,3.36783,4.20736,-0.0466613
126,3.38461,4.21435,-0.0456509
126.5,3.40077,4.23218,-0.0453638
127,3.41719,4.23756,-0.0453387
127.5,3.43399,4.25328,-0.0453395
128,3.45039,4.25723,-0.0453396
128.5,3.46705,4.26719,-0.0453418
129,3.4832,4.28128,-0.0453858
129.5,3.49924,4.28917,-0.0445999
130,3.51573,4.29482,-0.0439339
130.5,3.53227,4.30881,-0.044897
131,3.54872,4.32339,-0.0449991
131.5,3.56501,4.33208,-0.0449826
132,3.58163,4.34845,-0.0448168
132.5,3.5976,4.35179,-0.0440225
133,3.61369,4.3638,-0.0440229
133.5,3.63016,4.37151,-0.0440202
134,3.64641,4.38265,-0.0440199
134.5,3.66251,4.39607,-0.0440196
135,3.67861,4.41375,-0.0440189
135.5,3.69491,4.42082,-0.0440442
136,3.71096,4.426,-0.0442274
136.5,3.72712,4.44089,-0.0453598
137,3.74301,4.45493,-0.0442973
137.5,3.75938,4.46753,-0.0440275
138,3.77527,4.47851,-0.044164
138.5,3.79127,4.48427,-0.0454316
139,3.80739,4.48922,-0.045336
139.5,3.82324,4.50148,-0.0453384
140,3.83932,4.51636,-0.04534
140.5,3.85573,4.52513,-0.045339
141,3.87155,4.53616,-0.0453286
141.5,3.88738,4.55163,-0.0456225
142,3.90333,4.55875,-0.0463839
142.5,3.91942,4.56826,-0.0463326
143,3.93516,4.57824,-0.0463292
143.5,3.9513,4.58579,-0.0463293
144,3.96676,4.59475,-0.0463325
144.5,3.98298,4.59336,-0.0463779
145,3.99864,4.61242,-0.0456302
145.5,4.01459,4.62239,-0.044969
146,4.03067,4.6321,-0.0449854
146.5,4.04628,4.64306,-0.0455002
147,4.06196,4.65205,-0.0463707
147.5,4.07773,4.65437,-0.0463295
148,4.09353,4.66123,-0.0464237
148.5,4.10933,4.67584,-0.0452538
149,4.1254,4.68704,-0.0450055
149.5,4.14116,4.7056,-0.0450094
150,4.15666,4.70845,-0.04501
150.5,4.17214,4.71995,-0.04501
151,4.18798,4.73841,-0.04501
151.5,4.2038,4.74312,-0.04501
152,4.21954,4.7504,-0.04501
152.5,4.23506,4.77697,-0.0450101
153,4.25078,4.77758,-0.0450104
153.5,4.26645,4.79026,-0.0450061
154,4.28213,4.7966,-0.0449725
154.5,4.29778,4.80432,-0.0455864
155,4.31375,4.81433,-0.0460053
155.5,4.32923,4.81914,-0.0459898
156,4.34407,4.82661,-0.0459898
156.5,4.35969,4.84205,-0.0459903
157,4.37486,4.84658,-0.0459858
157.5,4.39074,4.84968,-0.0459591
158,4.40582,4.87037,-0.0448355
158.5,4.42253,4.87497,-0.0447018
159,4.43792,4.88068,-0.0446797
159.5,4.45374,4.89407,-0.0446788
160,4.46925,4.90349,-0.0446798
160.5,4.48467,4.91254,-0.0437592
161,4.50005,4.92468,-0.0438851
161.5,4.51576,4.92961,-0.0447286
162,4.53107,4.92851,-0.0446866
162.5,4.54696,4.93639,-0.0446795
163,4.56258,4.94214,-0.0446777
163.5,4.57763,4.96299,-0.0446827
164,4.59336,4.96383,-0.0438046
164.5,4.60901,4.97174,-0.0433807
165,4.62456,4.97865,-0.0433651
165.5,4.63977,4.98423,-0.0433697
166,4.65526,4.99106,-0.0433708
166.5,4.67081,5.00216,-0.0433705
167,4.68594,5.01394,-0.0434833
167.5,4.70151,5.01568,-0.0455616
168,4.7174,5.0238,-0.0456735
168.5,4.73249,5.03643,-0.0456446
169,4.74792,5.0391,-0.0459453
169.5,4.76317,5.04206,-0.0459778
170,4.7786,5.04882,-0.0459883
170.5,4.79428,5.06085,-0.0450189
171,4.80964,5.07264,-0.0446977
171.5,4.82482,5.06791,-0.0446751
172,4.84044,5.07977,-0.0446796
172.5,4.85564,5.0839,-0.0446801
173,4.87124,5.08752,-0.04468
173.5,4.88638,5.10364,-0.04468
174,4.90176,5.10783,-0.04468
174.5,4.91731,5.11805,-0.04468
175,4.93266,5.1222,-0.0446789
175.5,4.94779,5.12807,-0.0446809
176,4.96323,5.14266,-0.0447772
176.5,4.97847,5.14145,-0.0456706
177,4.99323,5.15506,-0.0456447
177.5,5.00915,5.16275,-0.0456594
178,5.02421,5.17283,-0.0456605
178.5,5.03983,5.17745,-0.0456612
179,5.05489,5.18396,-0.0456465
179.5,5.07054,5.18629,-0.0455636
180,5.08493,5.19516,-0.0444881
180.5,5.10024,5.20035,-0.0443588
181,5.11577,5.21249,-0.0443486
181.5,5.13108,5.21463,-0.0443502
182,5.14626,5.21811,-0.0443412
182.5,5.16128,5.22707,-0.0442962
183,5.17661,5.2346,-0.0440093
183.5,5.19196,5.24592,-0.0440476
184,5.20739,5.25412,-0.0439949
184.5,5.22236,5.26419,-0.0452474
185,5.23734,5.27359,-0.0453412
185.5,5.25252,5.28387,-0.0453405
186,5.26757,5.28609,-0.04534
186.5,5.2828,5.29078,-0.04534
187,5.29761,5.29893,-0.04534
187.5,5.31296,5.30864,-0.04534
188,5.32817,5.31383,-0.04534
188.5,5.34309,5.31456,-0.04534
189,5.35811,5.32673,-0.04534
189.5,5.37318,5.3369,-0.04534
190,5.38874,5.34464,-0.04534
190.5,5.40342,5.35655,-0.04534
191,5.41884,5.35592,-0.04534
191.5,5.43344,5.36195,-0.04534
192,5.44904,5.37054,-0.04534
192.5,5.46358,5.38139,-0.04534
193,5.47893,5.38963,-0.04534
193.5,5.4933,5.39008,-0.04534
194,5.50877,5.39603,-0.04534
194.5,5.52387,5.40862,-0.0453409
195,5.53864,5.41162,-0.0453381
195.5,5.55396,5.42874,-0.0452797
196,5.56871,5.43634,-0.0443877
196.5,5.58379,5.4427,-0.0443681
197,5.59893,5.44588,-0.0443494
197.5,5.61367,5.45235,-0.0443491
198,5.62792,5.46037,-0.0443503
198.5,5.64344,5.47402,-0.0443742
199,5.65822,5.48209,-0.0443535
199.5,5.67363,5.49598,-0.0456092
200,5.68903,5.50533,-0.0456689
200.5,5.70391,5.50549,-0.0456714
201,5.71912,5.51426,-0.045667
201.5,5.73358,5.52331,-0.0456355
202,5.74899,5.53004,-0.0461798
202.5,5.76373,5.53838,-0.0470323
203,5.77893,5.54564,-0.0469777
203.5,5.79363,5.5524,-0.0469581
204,5.80881,5.56279,-0.046942
204.5,5.82262,5.57575,-0.0457148
205,5.83807,5.57968,-0.0444336
205.5,5.85361,5.58324,-0.0443744
206,5.8681,5.59332,-0.0443487
206.5,5.88361,5.60474,-0.0443511
207,5.8984,5.6156,-0.0443509
207.5,5.91334,5.63227,-0.0452235
208,5.92802,5.64249,-0.0456721
208.5,5.94337,5.64565,-0.0456737
209,5.9579,5.65806,-0.0456813
209.5,5.97324,5.66831,-0.0458271
210,5.98776,5.67488,-0.0466303
210.5,6.00291,5.67469,-0.046656
211,6.01781,5.69058,-0.0466606
211.5,6.03281,5.70263,-0.0466601
212,6.04748,5.7081,-0.04666
212.5,6.06261,5.71758,-0.0466603
213,6.07766,5.72658,-0.0466582
213.5,6.09247,5.74433,-0.0466493
214,6.10734,5.7503,-0.0467516
214.5,6.1223,5.7541,-0.0455157
215,6.1371,5.7714,-0.0453369
215.5,6.15217,5.78331,-0.0453396
216,6.16728,5.79546,-0.0453401
216.5,6.18151,5.79991,-0.04534
217,6.19671,5.8163,-0.0453401
217.5,6.21195,5.82271,-0.0453414
218,6.22659,5.83442,-0.0453353
218.5,6.24142,5.8476,-0.0459976
219,6.2561,5.85855,-0.0466996
219.5,6.27119,5.8735,-0.0466667
220,6.28585,5.87776,-0.0466591
220.5,6.30113,5.89398,-0.0466599
221,6.31613,5.91004,-0.0466599
221.5,6.33074,5.92372,-0.0466599
222,6.34557,5.93053,-0.0466649
222.5,6.36092,5.94449,-0.0466624
223,6.37553,5.95948,-0.0463346
223.5,6.39018,5.96629,-0.0460003
224,6.40536,5.97305,-0.0459951
224.5,6.42018,5.9868,-0.0460001
225,6.43531,6.00903,-0.0460001
225.5,6.44997,6.01394,-0.046
226,6.46485,6.03159,-0.046
226.5,6.4797,6.05314,-0.046
227,6.49436,6.06932,-0.046
227.5,6.50947,6.0875,-0.046
228,6.52423,6.10043,-0.046
228.5,6.53915,6.10997,-0.046
229,6.55394,6.11878,-0.0459995
229.5,6.56898,6.14172,-0.0459995
230,6.58372,6.15553,-0.0460821
230.5,6.59855,6.17187,-0.0473233
231,6.61349,6.19074,-0.0471585
231.5,6.62814,6.20085,-0.0466226
232,6.64337,6.21589,-0.0466564
232.5,6.65763,6.23481,-0.0466609
233,6.67243,6.25233,-0.0466601
233.5,6.68798,6.26726,-0.04666
234,6.70268,6.28807,-0.04666
234.5,6.71757,6.30835,-0.04666
235,6.73236,6.32556,-0.04666
235.5,6.7473,6.34847,-0.04666
236,6.76209,6.37374,-0.04666
236.5,6.77685,6.38752,-0.04666
237,6.79172,6.41403,-0.04666
237.5,6.80663,6.43739,-0.04666
238,6.82154,6.45882,-0.04666
238.5,6.83659,6.47762,-0.04666
239,6.85138,6.51151,-0.04666
239.5,6.86636,6.54185,-0.04666
240,6.88123,6.57861,-0.0466598
240.5,6.8961,6.60844,-0.0466612
241,6.91112,6.64563,-0.0466714
241.5,6.92589,6.68883,-0.0465976
242,6.94067,6.73517,-0.0473685
242.5,6.95572,6.78289,-0.0475966
243,6.97074,6.84095,-0.0471891
243.5,6.9854,6.89496,-0.0466423
244,7.00088,6.9655,-0.0466503
244.5,7.01603,7.03648,-0.0466501
245,7.0312,7.11622,-0.04665
245.5,7.04601,7.20632,-0.04665
246,7.06128,7.31151,-0.04665
246.5,7.07641,7.41135,-0.04665
247,7.09171,7.54077,-0.0466507
247.5,7.1067,7.67601,-0.0466523
248,7.12226,7.84627,-0.0466155
248.5,7.13762,8.0363,-0.0469926
249,7.15323,8.25251,-0.0469735
249.5,7.16915,8.50249,-0.0469845
250,7.18433,8.76346,-0.046878
250.5,7.20033,9.07141,-0.0481202
251,7.21632,9.399,-0.0483023
251.5,7.23236,9.74702,-0.0483005
252,7.24852,10.0992,-0.0483
252.5,7.2643,10.4541,-0.0482999
253,7.2805,10.8356,-0.0482994
253.5,7.2965,11.2071,-0.0483036
254,7.31258,11.5804,-0.0475072
254.5,7.32894,11.9633,-0.0469933
255,7.34511,12.3489,-0.0469878
255.5,7.36122,12.72,-0.0467487
256,7.37738,13.1091,-0.0466559
256.5,7.39363,13.5011,-0.0466416
257,7.40944,13.8806,-0.0466294
257.5,7.42626,14.2835,-0.0474453
258,7.44176,14.6632,-0.0479747
258.5,7.45838,15.0726,-0.0479701
259,7.47461,15.456,-0.04797
259.5,7.49065,15.8346,-0.0479663
260,7.50642,16.1495,-0.0479668
260.5,7.52196,16.3065,-0.0472843
261,7.53582,16.1213,-0.0469762
261.5,7.5485,15.58,-0.0469755
262,7.5611,14.8473,-0.0469802
262.5,7.57357,14.1106,-0.0469802
263,7.58604,13.4354,-0.0469796
263.5,7.59904,12.8084,-0.0469791
264,7.61189,12.2247,-0.0469957
264.5,7.62489,11.7103,-0.0469006
265,7.63822,11.2178,-0.0476416
265.5,7.65136,10.7838,-0.0478147
266,7.6647,10.3683,-0.0483534
266.5,7.67831,9.98253,-0.0483038
267,7.69199,9.64075,-0.0482655
267.5,7.70554,9.32006,-0.0482402
268,7.71901,9.03977,-0.0472306
268.5,7.73318,8.76636,-0.0473168
269,7.74676,8.52281,-0.0473218
269.5,7.76092,8.29173,-0.04732
270,7.775,8.08949,-0.04732
270.5,7.78886,7.9051,-0.04732
271,7.80298,7.73409,-0.04732
271.5,7.81716,7.58189,-0.04732
272,7.83143,7.45057,-0.04732
272.5,7.84587,7.31765,-0.04732
273,7.85975,7.19304,-0.04732
273.5,7.87438,7.08543,-0.04732
274,7.88857,6.98709,-0.04732
274.5,7.90295,6.89555,-0.04732
275,7.91717,6.81956,-0.04732
275.5,7.93168,6.74994,-0.04732
276,7.94614,6.68345,-0.04732
276.5,7.96075,6.62223,-0.04732
277,7.97483,6.56349,-0.04732
277.5,7.9889,6.50967,-0.0473202
278,8.0041,6.46974,-0.0473207
278.5,8.01877,6.43292,-0.0473103
279,8.03318,6.39239,-0.0473003
279.5,8.04808,6.35975,-0.0472793
280,8.0623,6.31955,-0.0484001
280.5,8.07702,6.30261,-0.0483551
281,8.0918,6.26679,-0.0476656
281.5,8.10632,6.24862,-0.0469392
282,8.12075,6.22723,-0.0469922
282.5,8.13556,6.20532,-0.0469901
283,8.15038,6.18602,-0.0469927
283.5,8.16483,6.1749,-0.0477684
284,8.17976,6.15219,-0.0488256
284.5,8.19449,6.13607,-0.0509212
285,8.20868,6.12529,-0.0525286
285.5,8.22366,6.12117,-0.0534877
286,8.23817,6.11387,-0.0519467
286.5,8.25286,6.10418,-0.050335
287,8.26775,6.09987,-0.048684
287.5,8.28226,6.09055,-0.047232
288,8.29727,6.07985,-0.0474351
288.5,8.31189,6.07558,-0.0462406
289,8.32657,6.07588,-0.0459851
289.5,8.34127,6.0744,-0.0459901
290,8.35616,6.06166,-0.0459829
290.5,8.37091,6.05552,-0.045989
291,8.38533,6.04816,-0.0464477
291.5,8.40039,6.04101,-0.0473099
292,8.4147,6.03883,-0.0473083
292.5,8.42953,6.03865,-0.0473101
293,8.44434,6.03816,-0.0473097
293.5,8.45932,6.03269,-0.0473089
294,8.47395,6.02809,-0.0473281
294.5,8.48863,6.02364,-0.0473312
295,8.50332,6.02085,-0.048033
295.5,8.51829,6.02048,-0.0479688
296,8.53294,6.02552,-0.04795
296.5,8.54762,6.02166,-0.0468612
297,8.56246,6.02214,-0.0466727
297.5,8.57704,6.01879,-0.0466477
298,8.59167,6.01678,-0.0466582
298.5,8.60669,6.0182,-0.0465486
299,8.62148,6.01722,-0.0478149
299.5,8.63643,6.0166,-0.0474062
300,8.65115,6.00981,-0.0473291
300.5,8.66578,6.01275,-0.0473075
301,8.68076,6.01559,-0.0473094
301.5,8.69543,6.01168,-0.0473115
302,8.71029,6.00562,-0.0473228
302.5,8.72494,6.00307,-0.0483576
303,8.73941,6.00416,-0.048615
303.5,8.75443,6.00348,-0.0486362
304,8.76924,6.0036,-0.0486329
304.5,8.78398,6.0038,-0.0485776
305,8.79868,6.00394,-0.0493321
305.5,8.81338,5.99907,-0.0499998
306,8.82829,6.00401,-0.0499503
306.5,8.84338,5.99907,-0.0499491
307,8.85781,5.99866,-0.04995
307.5,8.87253,5.99899,-0.0499501
308,8.88743,5.99537,-0.0499497
308.5,8.90215,5.99362,-0.0499475
309,8.9172,5.99032,-0.049965
309.5,8.9318,5.99323,-0.0494607
310,8.94678,5.99555,-0.0489238
310.5,8.96144,5.99663,-0.0489248
311,8.97632,5.99359,-0.0494659
311.5,8.99082,5.99472,-0.0503276
312,9.00599,5.99489,-0.0502744
312.5,9.02067,5.99286,-0.0502791
313,9.03539,5.99702,-0.0502801
313.5,9.05046,5.99647,-0.05028
314,9.06506,5.98938,-0.05028
314.5,9.08007,5.98979,-0.05028
315,9.09467,5.98853,-0.05028
315.5,9.10971,5.98727,-0.05028
316,9.1243,5.99299,-0.05028
316.5,9.1391,5.99193,-0.05028
317,9.15387,5.98816,-0.05028
317.5,9.16843,5.98814,-0.05028
318,9.18301,5.99075,-0.0502798
318.5,9.19761,5.99033,-0.0502806
319,9.21316,5.98889,-0.0502914
319.5,9.22811,5.98889,-0.0502451
320,9.24294,5.98557,-0.0512359
320.5,9.25784,5.98533,-0.0516179
321,9.27258,5.98663,-0.0516122
321.5,9.28763,5.98752,-0.0515917
322,9.30156,5.98924,-0.0525898
322.5,9.3171,5.99388,-0.052176
323,9.33193,5.99149,-0.0515869
323.5,9.34658,5.99569,-0.0515908
324,9.36157,5.9865,-0.0515899
324.5,9.37645,5.98836,-0.0515901
325,9.39154,5.98348,-0.0516005
325.5,9.40585,5.97974,-0.0515642
326,9.42115,5.98945,-0.0520569
326.5,9.43588,5.98732,-0.0522673
327,9.45104,5.98921,-0.0522514
327.5,9.4655,5.99004,-0.0522496
328,9.48024,5.98807,-0.05225
328.5,9.49534,5.98541,-0.05225
329,9.51007,5.98898,-0.05225
329.5,9.52529,5.98284,-0.0522501
330,9.53981,5.97859,-0.0522504
330.5,9.55506,5.98325,-0.052246
331,9.56966,5.98439,-0.0527212
331.5,9.58475,5.98353,-0.0536449
332,9.59941,5.98291,-0.0535744
332.5,9.61408,5.98512,-0.0535684
333,9.62906,5.98448,-0.0535699
333.5,9.64385,5.98846,-0.05357
334,9.6591,5.98665,-0.0535699
334.5,9.67362,5.99017,-0.0535718
335,9.68893,5.98524,-0.0535734
335.5,9.70369,5.98668,-0.053474
336,9.7188,5.98528,-0.0546151
336.5,9.7336,5.98336,-0.0550172
337,9.74858,5.98298,-0.0550014
337.5,9.76347,5.98803,-0.0549426
338,9.77843,5.98561,-0.0556664
338.5,9.79325,5.99131,-0.0559952
339,9.80823,5.99001,-0.05598
339.5,9.82307,5.98966,-0.0559795
340,9.83798,5.9905,-0.0559801
340.5,9.85288,5.99105,-0.0559884
341,9.86787,5.98725,-0.0559742
341.5,9.8827,5.9886,-0.056342
342,9.89776,5.99152,-0.0563096
342.5,9.91228,5.99655,-0.0563485
343,9.92745,5.99575,-0.0575844
343.5,9.94262,5.99963,-0.0576029
344,9.95733,6.00256,-0.0576311
344.5,9.97258,6.00497,-0.0576305
345,9.98751,6.00936,-0.05763
345.5,10.0024,6.0124,-0.0576298
346,10.0172,6.02339,-0.0576305
346.5,10.0322,6.0307,-0.057641
347,10.0472,6.03478,-0.0576057
347.5,10.0621,6.03292,-0.0586113
348,10.0776,6.03007,-0.0589555
348.5,10.0921,6.02827,-0.0589649
349,10.1072,6.02708,-0.0589245
349.5,10.122,6.03348,-0.0599086
350,10.1372,6.037,-0.0603433
350.5,10.152,6.03678,-0.0595559
351,10.167,6.03961,-0.0596297
351.5,10.1819,6.04238,-0.0596227
352,10.197,6.04684,-0.059615
352.5,10.2122,6.05231,-0.0603458
353,10.2271,6.05658,-0.0610017
353.5,10.2421,6.06449,-0.0600431
354,10.257,6.06746,-0.0595854
354.5,10.2722,6.07244,-0.059608
355,10.287,6.07454,-0.0596076
355.5,10.3019,6.08066,-0.0603514
356,10.3173,6.08826,-0.0620782
356.5,10.3321,6.09319,-0.0622523
357,10.347,6.09467,-0.0621936
357.5,10.3622,6.09907,-0.0634615
358,10.3768,6.10285,-0.0636414
358.5,10.3924,6.11005,-0.0623313
359,10.4071,6.11281,-0.06314
359.5,10.4225,6.12476,-0.0635671
360,10.4372,6.12284,-0.0635595
360.5,10.4525,6.12819,-0.0635525
361,10.4676,6.13718,-0.0638447
361.5,10.4825,6.1442,-0.0649175
362,10.4977,6.15711,-0.0656908
362.5,10.5126,6.16274,-0.0661149
363,10.528,6.16661,-0.067171
363.5,10.543,6.17893,-0.0675257
364,10.5579,6.18657,-0.0675199
364.5,10.573,6.19818,-0.0675168
365,10.5884,6.20885,-0.0675171
365.5,10.6032,6.22002,-0.0677753
366,10.6184,6.21817,-0.0676369
366.5,10.6333,6.23901,-0.067489
367,10.6485,6.24196,-0.0682033
367.5,10.6637,6.25043,-0.0688885
368,10.6788,6.27277,-0.068851
368.5,10.6937,6.28263,-0.0699712
369,10.7087,6.29492,-0.0702454
369.5,10.7239,6.30739,-0.0708088
370,10.739,6.308,-0.0715821
370.5,10.7542,6.32329,-0.0715917
371,10.7692,6.34041,-0.0716171
371.5,10.7843,6.36425,-0.0727126
372,10.7995,6.37374,-0.072897
372.5,10.8146,6.38831,-0.0728128
373,10.83,6.40369,-0.0740242
373.5,10.8451,6.42138,-0.0743296
374,10.8605,6.43822,-0.0749194
374.5,10.8756,6.45627,-0.0759346
375,10.8906,6.47544,-0.0764988
375.5,10.906,6.492,-0.0785488
376,10.9211,6.51739,-0.0793977
376.5,10.9361,6.52913,-0.0803055
377,10.9514,6.5547,-0.080481
377.5,10.9666,6.58141,-0.0805344
378,10.9818,6.60311,-0.0803905
378.5,10.997,6.62206,-0.0816985
379,11.0123,6.65167,-0.0817854
379.5,11.0275,6.67681,-0.0832809
380,11.0429,6.7001,-0.0833258
380.5,11.0579,6.72626,-0.084839
381,11.0733,6.7481,-0.0847484
381.5,11.0883,6.7785,-0.0858629
382,11.1036,6.81136,-0.0861144
382.5,11.1187,6.83161,-0.0858572
383,11.1342,6.86987,-0.086486
383.5,11.1496,6.90198,-0.0877152
384,11.1644,6.9321,-0.0884106
384.5,11.1794,6.96487,-0.0908448
385,11.1952,6.99817,-0.0922858
385.5,11.2106,7.03551,-0.0928256
386,11.2257,7.07249,-0.0942051
386.5,11.2411,7.10772,-0.0952632
387,11.2566,7.15179,-0.0960307
387.5,11.2718,7.18491,-0.0979725
388,11.2871,7.22812,-0.0996698
388.5,11.3025,7.26068,-0.100813
389,11.3178,7.30522,-0.102066
389.5,11.3332,7.34718,-0.103891
390,11.3485,7.38397,-0.105972
390.5,11.3637,7.4173,-0.10723
391,11.3792,7.4562,-0.107982
391.5,11.3944,7.49323,-0.10944
392,11.4098,7.53139,-0.111108
392.5,11.4251,7.57112,-0.112719
393,11.4406,7.61724,-0.11429
393.5,11.4559,7.66675,-0.115978
394,11.4711,7.70856,-0.117654
394.5,11.4867,7.72623,-0.119384
395,11.502,7.76054,-0.120308
395.5,11.5173,7.78895,-0.12085
396,11.5326,7.81285,-0.122568
396.5,11.5479,7.83853,-0.124571
397,11.5634,7.87479,-0.126286
397.5,11.5785,7.91203,-0.127929
398,11.594,7.95828,-0.129999
398.5,11.6094,7.99701,-0.132198
399,11.6249,8.04096,-0.13486
399.5,11.6402,8.08834,-0.13703
400,11.6553,8.12863,-0.139105
400.5,11.6711,8.18063,-0.141223
401,11.6864,8.2256,-0.143002
401.5,11.7017,8.27669,-0.145921
402,11.7173,8.32948,-0.148222
402.5,11.7328,8.37723,-0.151394
403,11.748,8.42869,-0.154864
403.5,11.7634,8.49062,-0.156907
404,11.7786,8.56929,-0.16001
404.5,11.7949,8.63387,-0.163048
405,11.81,8.66171,-0.165129
405.5,11.8254,8.68417,-0.168086
406,11.8409,8.7202,-0.170598
406.5,11.8564,8.74849,-0.173684
407,11.8716,8.78556,-0.175905
407.5,11.8864,8.82094,-0.178845
408,11.9023,8.84661,-0.183156
408.5,11.918,8.94386,-0.185828
409,11.934,9.05637,-0.189032
409.5,11.9495,9.11963,-0.193097
410,11.965,9.17478,-0.196445
410.5,11.9804,9.2226,-0.201917
411,11.9959,9.26908,-0.207925
411.5,12.0115,9.32384,-0.212987
412,12.0272,9.38406,-0.218507
412.5,12.0426,9.44004,-0.222203
413,12.0581,9.49705,-0.226679
413.5,12.0738,9.56961,-0.231891
414,12.0894,9.63408,-0.23619
414.5,12.1049,9.69661,-0.241887
415,12.1203,9.7662,-0.246294
415.5,12.1358,9.83421,-0.251375
416,12.1514,9.90676,-0.257495
416.5,12.1672,9.9735,-0.262386
417,12.1826,10.0447,-0.268207
417.5,12.1985,10.1185,-0.273679
418,12.2139,10.186,-0.279208
418.5,12.2299,10.2651,-0.28655
419,12.2454,10.34,-0.291974
419.5,12.2611,10.4188,-0.299188
420,12.2765,10.4873,-0.305829
420.5,12.2921,10.5654,-0.312201
421,12.3079,10.6313,-0.320117
421.5,12.3234,10.7137,-0.325826
422,12.3395,10.8003,-0.3331
422.5,12.3546,10.8764,-0.339773
423,12.3703,10.9512,-0.34617
423.5,12.3862,11.0245,-0.354105
424,12.4017,11.1017,-0.360595
424.5,12.4176,11.1885,-0.368723
425,12.4331,11.2611,-0.377609
425.5,12.449,11.3401,-0.383989
426,12.4644,11.4187,-0.392895
426.5,12.4801,11.4849,-0.400741
427,12.4959,11.5724,-0.40955
427.5,12.5116,11.651,-0.419575
428,12.5272,11.7292,-0.426843
428.5,12.5428,11.804,-0.436399
429,12.5585,11.8709,-0.445225
429.5,12.5743,11.9443,-0.454567
430,12.59,12.0239,-0.466069
430.5,12.6059,12.0957,-0.474982
431,12.6214,12.1711,-0.485916
431.5,12.6365,12.2397,-0.495951
432,12.6523,12.3104,-0.505912
432.5,12.6685,12.3909,-0.518593
433,12.6841,12.4631,-0.527582
433.5,12.7002,12.5345,-0.538029
434,12.7158,12.5978,-0.548977
434.5,12.7314,12.6691,-0.559147
435,12.7472,12.7423,-0.573239
435.5,12.763,12.8046,-0.5842
436,12.7786,12.8706,-0.596581
436.5,12.7937,12.9513,-0.608412
437,12.8098,12.9832,-0.619275
437.5,12.8255,13.0167,-0.633672
438,12.8414,13.0764,-0.645729
438.5,12.857,13.1504,-0.659306
439,12.8724,13.1679,-0.673623
439.5,12.8884,13.1816,-0.6852
440,12.9039,13.315,-0.699602
440.5,12.9196,13.333,-0.71235
441,12.9354,13.3646,-0.726114
441.5,12.951,13.4314,-0.742016
442,12.9671,13.5424,-0.755263
442.5,12.9825,13.5483,-0.771403
443,12.9991,13.8271,-0.786499
443.5,13.015,13.9911,-0.801345
444,13.0304,13.9658,-0.818304
444.5,13.0457,14.0193,-0.831323
445,13.0617,14.1701,-0.848426
445.5,13.0778,14.273,-0.864103
446,13.0933,14.2152,-0.879256
446.5,13.1091,14.1724,-0.898677
447,13.1245,14.1807,-0.913406
447.5,13.1403,14.2196,-0.932116
448,13.1566,14.4236,-0.951189
448.5,13.173,14.7191,-0.969427
449,13.1888,14.7759,-0.990925
449.5,13.2046,14.8495,-1.00688
450,13.2198,14.807,-1.02595
450.5,13.236,14.8819,-1.04605
451,13.2516,14.9997,-1.06394
451.5,13.2682,15.0844,-1.0876
452,13.2841,15.3417,-1.10487
452.5,13.2999,15.3574,-1.12593
453,13.3162,15.5836,-1.14779
453.5,13.3313,15.5805,-1.16685
454,13.347,15.5183,-1.19231
454.5,13.3626,15.4514,-1.21077
455,13.3781,15.4393,-1.2327
455.5,13.394,15.4799,-1.2564
456,13.4101,15.5748,-1.27566
456.5,13.4266,15.8219,-1.30278
457,13.4424,16.0321,-1.3231
457.5,13.458,16.0497,-1.34719
458,13.4742,16.1047,-1.37407
458.5,13.49,16.163,-1.39648
459,13.5063,16.3316,-1.42614
459.5,13.5221,16.4725,-1.44893
460,13.5375,16.4483,-1.47459
460.5,13.5536,16.4496,-1.5038
461,13.5697,16.5417,-1.52852
461.5,13.5853,16.6373,-1.55891
462,13.6013,16.6458,-1.58438
462.5,13.617,16.7214,-1.61284
463,13.6323,16.6939,-1.64358
463.5,13.6483,16.7054,-1.6691
464,13.6641,16.7026,-1.70128
464.5,13.6802,16.7991,-1.72889
465,13.6956,16.8348,-1.75765
465.5,13.7117,16.8709,-1.79168
466,13.7275,16.865,-1.81783
466.5,13.7429,16.8621,-1.85052
467,13.759,16.9227,-1.88054
467.5,13.7748,16.9386,-1.91157
468,13.7906,16.999,-1.94789
468.5,13.8061,16.9671,-1.97503
469,13.8221,16.9582,-2.01001
469.5,13.8372,16.9635,-2.03985
470,13.8531,16.9263,-2.07096
470.5,13.8686,16.8936,-2.10802
471,13.8843,16.8865,-2.13611
471.5,13.9001,16.8774,-2.17081
472,13.916,16.8472,-2.20508
472.5,13.9312,16.7855,-2.23508
473,13.9461,16.7353,-2.27208
473.5,13.9616,16.6645,-2.30151
474,13.9771,16.5671,-2.33513
474.5,13.9926,16.4264,-2.37254
475,14.0079,16.2535,-2.40199
475.5,14.0235,16.1491,-2.43909
476,14.0389,16.0832,-2.47012
476.5,14.0541,15.9331,-2.50167
477,14.0693,15.7609,-2.53918
477.5,14.0845,15.6232,-2.56714
478,14.0996,15.5046,-2.6013
478.5,14.1148,15.3095,-2.63564
479,14.1301,15.1235,-2.66531
479.5,14.1452,14.961,-2.70222
480,14.1603,14.7673,-2.73068
480.5,14.1751,14.5263,-2.76108
481,14.1904,14.353,-2.79712
481.5,14.2049,14.0811,-2.82283
482,14.22,13.875,-2.85592
482.5,14.235,13.659,-2.88835
483,14.2498,13.3931,-2.91587
483.5,14.2645,13.13,-2.94929
484,14.2793,12.8645,-2.97594
484.5,14.2943,12.6228,-3.00496
485,14.3088,12.3236,-3.03795
485.5,14.3236,11.9772,-3.06246
486,14.3382,11.6518,-3.09133
486.5,14.3525,11.3147,-3.12117
487,14.3669,10.9339,-3.14485
487.5,14.3816,10.5486,-3.17425
488,14.3961,10.1737,-3.20018
488.5,14.4101,9.82629,-3.22247
489,14.4247,9.45786,-3.24996
489.5,14.4393,9.08931,-3.27127
490,14.4538,8.73253,-3.29314
490.5,14.4682,8.3938,-3.31866
491,14.4829,8.03863,-3.33701
491.5,14.4972,7.70321,-3.35768
492,14.5117,7.37671,-3.38012
492.5,14.5259,7.05799,-3.39674
493,14.5408,6.72059,-3.41815
493.5,14.5555,6.40205,-3.43732
494,14.5699,6.1003,-3.45338
494.5,14.5848,5.79118,-3.47297
495,14.5993,5.49735,-3.48743
495.5,14.614,5.20884,-3.50256
496,14.6285,4.94537,-3.52048
496.5,14.6436,4.67583,-3.53382
497,14.6586,4.41027,-3.54906
497.5,14.6731,4.1823,-3.56358
498,14.6877,3.9415,-3.57452
498.5,14.7029,3.71797,-3.58804
499,14.7178,3.4931,-3.59901
499.5,14.7326,3.29439,-3.6096
500,14.7477,3.09625,-3.62251
500.5,14.7627,2.9083,-3.63144
501,14.7779,2.73857,-3.64186
501.5,14.793,2.56864,-3.65195
502,14.8073,2.41654,-3.65911
502.5,14.8233,2.25696,-3.66894
503,14.8381,2.11663,-3.67615
503.5,14.8533,1.98306,-3.68383
504,14.8691,1.85194,-3.69287
504.5,14.8845,1.72553,-3.69893
505,14.8995,1.61898,-3.70588
505.5,14.915,1.51502,-3.71176
506,14.9307,1.40936,-3.71641
506.5,14.9458,1.3156,-3.72299
507,14.9612,1.22611,-3.7278
507.5,14.9766,1.14543,-3.73293
508,14.9921,1.069,-3.73814
508.5,15.0076,0.988377,-3.7416
509,15.0231,0.920409,-3.74536
509.5,15.0386,0.852792,-3.74862
510,15.0541,0.7914,-3.75205
510.5,15.0699,0.732446,-3.7564
511,15.0853,0.683679,-3.75948
511.5,15.1009,0.628607,-3.76257
512,15.1165,0.573986,-3.76538
512.5,15.1324,0.539415,-3.76841
513,15.1479,0.502724,-3.77055
513.5,15.1636,0.458091,-3.77294
514,15.1793,0.423331,-3.77552
514.5,15.1949,0.39009,-3.77663
515,15.2106,0.360923,-3.77716
515.5,15.2263,0.334906,-3.77865
516,15.242,0.300299,-3.77997
516.5,15.2579,0.279117,-3.78143
517,15.2733,0.267908,-3.78249
517.5,15.2892,0.242332,-3.7832
518,15.3049,0.220951,-3.78335
518.5,15.3208,0.21787,-3.78461
519,15.3366,0.208225,-3.78473
519.5,15.352,0.190966,-3.78625
520,15.3682,0.174196,-3.78695
520.5,15.384,0.167084,-3.78788
521,15.3995,0.16368,-3.78781
521.5,15.4158,0.156543,-3.78858
522,15.4316,0.151913,-3.78916
522.5,15.4475,0.140349,-3.78936
523,15.4632,0.136624,-3.78947
523.5,15.4791,0.12571,-3.78947
524,15.4951,0.124027,-3.78988
524.5,15.5109,0.121256,-3.79085
525,15.5269,0.112288,-3.79075
525.5,15.5428,0.112833,-3.79182
526,15.5583,0.106313,-3.79211
526.5,15.5745,0.106435,-3.79211
527,15.5904,0.10245,-3.79211
527.5,15.6061,0.102413,-3.79211
528,15.6221,0.0954358,-3.79211
528.5,15.638,0.0960897,-3.79211
529,15.6536,0.0959557,-3.7921
529.5,15.6693,0.0879745,-3.79209
530,15.6857,0.0891454,-3.79286
530.5,15.7017,0.0899708,-3.79343
531,15.7177,0.0914097,-3.79343
531.5,15.7333,0.090841,-3.79345
532,15.7493,0.0923622,-3.79344
532.5,15.7653,0.0880262,-3.7955
533,15.7815,0.0838169,-3.79573
533.5,15.7971,0.0872877,-3.79574
534,15.8134,0.0836053,-3.79574
534.5,15.8291,0.0842931,-3.79574
535,15.8451,0.0752134,-3.79574
535.5,15.861,0.0773194,-3.79573
536,15.877,0.0767326,-3.79478
536.5,15.8928,0.0753219,-3.79485
537,15.9088,0.0723566,-3.79573
537.5,15.9249,0.0679668,-3.79573
538,15.9405,0.0678681,-3.79573
538.5,15.9565,0.0599282,-3.79573
539,15.9724,0.0553052,-3.79573
539.5,15.9882,0.05519,-3.79573
540,16.0047,0.0540924,-3.79573
540.5,16.0204,0.0565591,-3.79573
541,16.0361,0.059547,-3.79573
541.5,16.0524,0.0556434,-3.79572
542,16.0682,0.0507153,-3.79599
542.5,16.0841,0.0506067,-3.79605
543,16.1003,0.0441903,-3.79606
543.5,16.1161,0.0429813,-3.79606
544,16.1321,0.0458883,-3.79606
544.5,16.1479,0.0483395,-3.79606
545,16.1639,0.0428926,-3.79605
545.5,16.1799,0.0329821,-3.79603
546,16.196,0.0377856,-3.79684
546.5,16.2121,0.0450203,-3.79739
547,16.2278,0.040108,-3.79738
547.5,16.244,0.0370459,-3.79737
548,16.2599,0.0365839,-3.79739
548.5,16.2758,0.0397733,-3.79622
549,16.2922,0.0428409,-3.79607
549.5,16.308,0.0435675,-3.79606
550,16.3237,0.036922,-3.79601
550.5,16.3399,0.0391477,-3.79686
551,16.356,0.0399144,-3.79752
551.5,16.3718,0.035374,-3.7988
552,16.3879,0.0332075,-3.79869
552.5,16.4039,0.032248,-3.7987
553,16.4199,0.0328586,-3.7987
553.5,16.436,0.0315177,-3.7987
554,16.4521,0.0283457,-3.7987
554.5,16.4675,0.0278211,-3.7987
555,16.4839,0.016681,-3.7987
555.5,16.4999,0.0222078,-3.7987
556,16.516,0.0235166,-3.7987
556.5,16.5319,0.0253347,-3.7987
557,16.5478,0.0322678,-3.7987
557.5,16.5639,0.0310628,-3.7987
558,16.5801,0.0233865,-3.7987
558.5,16.596,0.0203527,-3.7987
559,16.6121,0.0136382,-3.79872
559.5,16.6282,0.0152841,-3.79811
560,16.644,0.0219197,-3.79733
560.5,16.6601,0.0156758,-3.79738
561,16.6761,0.0167094,-3.79738
561.5,16.6922,0.0181209,-3.79738
562,16.7083,0.0205984,-3.79738
562.5,16.7242,0.0211793,-3.79738
563,16.7402,0.0147567,-3.79738
563.5,16.7564,0.0151228,-3.79759
564,16.7722,0.0114924,-3.7988
564.5,16.7884,0.0131296,-3.7987
565,16.8043,0.0139514,-3.7987
565.5,16.8201,0.0162409,-3.7987
566,16.8358,0.0118467,-3.79871
566.5,16.8522,0.0126023,-3.79884
567,16.8686,0.00827779,-3.79903
567.5,16.8849,0.00589015,-3.79903
568,16.9011,0.00583646,-3.79903
568.5,16.917,0.0123994,-3.79903
569,16.933,0.00824605,-3.79903
569.5,16.9491,0.00638955,-3.79902
570,16.9655,0.00850178,-3.79946
570.5,16.9813,0.00467177,-3.80039
571,16.9973,0.00298408,-3.80034
571.5,17.0135,0.00618561,-3.80034
572,17.0291,0.00427819,-3.80034
572.5,17.045,0.00461549,-3.80034
573,17.0614,0.00376871,-3.80034
573.5,17.0779,-0.000112894,-3.80034
574,17.0941,0.00823861,-3.79943
574.5,17.11,0.00526088,-3.79904
575,17.1262,0.00365144,-3.79902
575.5,17.1423,0.0064279,-3.79902
576,17.1584,0.00695609,-3.79902
576.5,17.1745,0.00590892,-3.79912
577,17.1905,0.00461658,-3.80042
577.5,17.2065,0.00404541,-3.80057
578,17.2227,0.00302042,-3.80139
578.5,17.2389,0.00611561,-3.80133
579,17.2552,0.00276331,-3.80133
579.5,17.2712,-0.000444006,-3.80133
580,17.2873,0.00147118,-3.80133
580.5,17.3033,0.00368789,-3.80133
581,17.3193,0.00306972,-3.80133
581.5,17.3358,0.00278636,-3.80133
582,17.3516,0.00289174,-3.80133
582.5,17.368,-0.000742566,-3.80133
583,17.3839,0.00505307,-3.80133
583.5,17.4001,0.00335097,-3.80133
584,17.4163,-0.00305462,-3.80135
584.5,17.4321,-0.00408575,-3.80096
585,17.4483,0.00219298,-3.801
585.5,17.4644,-0.00343244,-3.801
586,17.4808,-0.00655122,-3.801
586.5,17.4966,-0.00682925,-3.801
587,17.513,-0.00711144,-3.80102
587.5,17.5291,-0.0019377,-3.80106
588,17.5453,-0.00287008,-3.8023
588.5,17.5616,-0.00530518,-3.80232
589,17.5776,-0.00644454,-3.80232
589.5,17.5939,-0.00318091,-3.80232
590,17.61,-0.00455732,-3.80232
590.5,17.6261,-0.00604189,-3.80232
591,17.6421,-0.00764793,-3.80232
591.5,17.6585,-0.00613784,-3.80232
592,17.6745,-0.00588003,-3.80232
592.5,17.6906,-0.012317,-3.80232
593,17.7069,-0.0166235,-3.80232
593.5,17.7232,-0.0163702,-3.80232
594,17.7394,-0.0121757,-3.80232
594.5,17.7556,-0.0199387,-3.80232
595,17.7716,-0.0162445,-3.80232
595.5,17.7879,-0.0193022,-3.80232
596,17.8037,-0.0276744,-3.80232
596.5,17.82,-0.0241246,-3.80232
597,17.8361,-0.0198771,-3.80231
597.5,17.8525,-0.0281628,-3.80209
598,17.8688,-0.0269123,-3.80028
598.5,17.8849,-0.0253872,-3.7983
599,17.9012,-0.0285401,-3.79797
599.5,17.9176,-0.0340586,-3.79819
600,17.9336,-0.0311576,-3.7993
600.5,17.9497,-0.0365312,-3.80056
601,17.9656,-0.0325217,-3.80043
601.5,17.9821,-0.0378711,-3.80119
602,17.9984,-0.0379768,-3.80178
602.5,18.0144,-0.0442923,-3.80187
603,18.0307,-0.041879,-3.80342
603.5,18.0469,-0.0400201,-3.80327
604,18.0629,-0.044224,-3.80435
604.5,18.0795,-0.0424989,-3.80462
605,18.0955,-0.0427759,-3.80463
605.5,18.112,-0.041585,-3.80464
606,18.1281,-0.0445494,-3.80463
606.5,18.1443,-0.0437758,-3.80405
607,18.16,-0.0458199,-3.80331
607.5,18.1768,-0.0459484,-3.80331
608,18.1929,-0.0441514,-3.80331
608.5,18.2092,-0.041921,-3.80331
609,18.2253,-0.0482482,-3.80331
609.5,18.2416,-0.0467485,-3.80331
610,18.2579,-0.0599537,-3.80331
610.5,18.2739,-0.059014,-3.80386
611,18.2904,-0.0553409,-3.80464
611.5,18.3065,-0.0521866,-3.80463
612,18.3227,-0.0543691,-3.80463
612.5,18.3389,-0.0585442,-3.80463
613,18.3554,-0.0572465,-3.80448
613.5,18.3716,-0.0593134,-3.80322
614,18.387,-0.0560197,-3.80292
614.5,18.4032,-0.0616438,-3.80195
615,18.4202,-0.069772,-3.80198
615.5,18.4368,-0.0725721,-3.802
616,18.4528,-0.0653354,-3.80229
616.5,18.4691,-0.0667464,-3.80264
617,18.4855,-0.0696294,-3.80265
617.5,18.5015,-0.0681772,-3.80265
618,18.5178,-0.0711359,-3.80265
618.5,18.5338,-0.0714067,-3.80257
619,18.5505,-0.0727611,-3.80337
619.5,18.5667,-0.0757945,-3.80366
620,18.5829,-0.078624,-3.80469
620.5,18.5992,-0.0851878,-3.80464
621,18.6156,-0.0782678,-3.80463
621.5,18.6316,-0.0863563,-3.80463
622,18.648,-0.0809772,-3.80463
622.5,18.6641,-0.0890647,-3.80463
623,18.6808,-0.0906402,-3.80383
623.5,18.6969,-0.0922607,-3.80332
624,18.7132,-0.0970584,-3.8033
624.5,18.7292,-0.0974443,-3.8033
625,18.7456,-0.0922209,-3.80376
625.5,18.7619,-0.0952788,-3.80469
626,18.778,-0.0956765,-3.80463
626.5,18.7946,-0.10328,-3.80461
627,18.8109,-0.0932329,-3.80428
627.5,18.8268,-0.0942348,-3.80453
628,18.8426,-0.0935375,-3.80533
628.5,18.86,-0.0916574,-3.80529
629,18.8761,-0.0927012,-3.80529
629.5,18.8924,-0.0923016,-3.80529
630,18.9088,-0.101002,-3.80529
630.5,18.9251,-0.0970612,-3.80529
631,18.9414,-0.0909768,-3.80527
631.5,18.9577,-0.093703,-3.8052
632,18.9738,-0.0995726,-3.8046
632.5,18.9902,-0.1046,-3.80462
633,19.0065,-0.114556,-3.80463
633.5,19.0228,-0.108459,-3.80463
634,19.0391,-0.0980274,-3.80463
634.5,19.0554,-0.107313,-3.80463
635,19.0713,-0.103604,-3.80463
635.5,19.0882,-0.109669,-3.80463
636,19.1045,-0.110938,-3.80463
636.5,19.1206,-0.110886,-3.80463
637,19.137,-0.110469,-3.80463
637.5,19.1532,-0.107253,-3.80466
638,19.1699,-0.110622,-3.80476
638.5,19.1859,-0.108654,-3.80566
639,19.2022,-0.107318,-3.80562
639.5,19.218,-0.11687,-3.80561
640,19.235,-0.111053,-3.80561
640.5,19.251,-0.116111,-3.80561
641,19.2675,-0.114442,-3.80561
641.5,19.284,-0.119253,-3.80558
642,19.3004,-0.116145,-3.80597
642.5,19.3164,-0.120134,-3.80595
643,19.3329,-0.122902,-3.80548
643.5,19.3491,-0.127059,-3.80457
644,19.3651,-0.1225,-3.80462
644.5,19.3818,-0.124229,-3.80462
645,19.3982,-0.128676,-3.80462
645.5,19.4143,-0.127224,-3.80461
646,19.4309,-0.137432,-3.80458
646.5,19.4474,-0.138907,-3.80524
647,19.4635,-0.13848,-3.80528
647.5,19.4799,-0.131911,-3.80562
648,19.4961,-0.124578,-3.80655
648.5,19.5129,-0.128943,-3.8066
649,19.529,-0.130999,-3.8066
649.5,19.5454,-0.135658,-3.8066
650,19.5611,-0.134969,-3.80662
650.5,19.5773,-0.136511,-3.80786
651,19.5939,-0.133271,-3.8079
651.5,19.6106,-0.13708,-3.80792
652,19.627,-0.138479,-3.80792
652.5,19.6436,-0.138054,-3.80792
653,19.6599,-0.146197,-3.80792
653.5,19.6761,-0.144762,-3.80792
654,19.6925,-0.143309,-3.80792
654.5,19.709,-0.14202,-3.80792
655,19.7252,-0.138651,-3.80792
655.5,19.7409,-0.135255,-3.80801
656,19.7574,-0.144572,-3.80673
656.5,19.7743,-0.137722,-3.80758
657,19.7908,-0.139999,-3.8079
657.5,19.8072,-0.137341,-3.80792
658,19.8235,-0.144947,-3.80792
658.5,19.8397,-0.145307,-3.80792
659,19.8561,-0.135957,-3.80792
659.5,19.8723,-0.135535,-3.80792
660,19.8888,-0.146415,-3.80792
660.5,19.9051,-0.139154,-3.80792
661,19.9217,-0.142521,-3.80792
661.5,19.9382,-0.144646,-3.80792
662,19.9543,-0.151882,-3.80792
662.5,19.9708,-0.149606,-3.80792
663,19.9872,-0.152419,-3.80792
663.5,20.003,-0.154683,-3.80792
664,20.0202,-0.150597,-3.8079
664.5,20.0361,-0.153111,-3.8084
665,20.0526,-0.156727,-3.80929
665.5,20.0693,-0.155086,-3.80923
666,20.0854,-0.160331,-3.80923
666.5,20.1018,-0.166115,-3.80922
667,20.1183,-0.164593,-3.80923
667.5,20.1346,-0.160492,-3.80989
668,20.151,-0.156549,-3.81019
668.5,20.1672,-0.160815,-3.81014
669,20.1836,-0.157225,-3.80954
669.5,20.2002,-0.164911,-3.80993
670,20.2164,-0.172353,-3.80984
670.5,20.2328,-0.172206,-3.80926
671,20.2493,-0.162025,-3.80925
671.5,20.2656,-0.16339,-3.80924
672,20.2821,-0.165886,-3.80924
672.5,20.2985,-0.172498,-3.80924
673,20.315,-0.157895,-3.80924
673.5,20.3312,-0.162271,-3.80924
674,20.3475,-0.168073,-3.80924
674.5,20.3641,-0.177529,-3.80925
675,20.3804,-0.166828,-3.80933
675.5,20.3966,-0.163793,-3.8105
676,20.4134,-0.175705,-3.81055
676.5,20.4295,-0.174005,-3.81057
677,20.4459,-0.171193,-3.81061
677.5,20.4624,-0.165708,-3.80968
678,20.4788,-0.167846,-3.80923
678.5,20.4951,-0.167075,-3.80924
679,20.5116,-0.179751,-3.80924
679.5,20.5279,-0.178048,-3.80924
680,20.5443,-0.175023,-3.80918
680.5,20.561,-0.161964,-3.81014
681,20.5771,-0.167048,-3.81057
681.5,20.5937,-0.171303,-3.81056
682,20.6101,-0.17083,-3.81056
682.5,20.6259,-0.173477,-3.81055
683,20.643,-0.170748,-3.81057
683.5,20.6594,-0.17478,-3.80964
684,20.6759,-0.17281,-3.80957
684.5,20.6921,-0.17014,-3.80957
685,20.7085,-0.174663,-3.80957
685.5,20.7252,-0.173127,-3.80957
686,20.7415,-0.168921,-3.80958
686.5,20.7578,-0.172871,-3.80956
687,20.7743,-0.165426,-3.81069
687.5,20.7906,-0.169031,-3.81087
688,20.8066,-0.17475,-3.81088
688.5,20.8237,-0.175134,-3.81088
689,20.8403,-0.166451,-3.81088
689.5,20.8566,-0.164148,-3.81088
690,20.8729,-0.157857,-3.81088