File: 01_Data/NFPA_1981-2019_SCBA_Lens/STA/N2/30K_min/NFPA_1981-2019_SCBA_Lens_STA_N2_30KData_241112_R1.csv
Temp./C,Time/min,DSC/(mW/mg),Mass loss/mg
35.0,0.0,1.27834,0.00184971
35.6,0.0326631,1.33621,0.000740707
36.2,0.0629796,1.39136,-0.000953004
36.8,0.092358,1.44137,-0.00214945
37.4,0.122447,1.49071,-0.00076065
38,0.151096,1.53085,0.00136379
38.6,0.179243,1.57616,0.000522317
39.2,0.206776,1.61803,-5.60014e-05
39.8,0.233721,1.66216,0.00140399
40.4,0.260848,1.69304,0.00026949
41,0.28747,1.7315,-0.000280487
41.6,0.31251,1.77454,0.000519923
42.2,0.33892,1.80907,0.00308189
42.8,0.364203,1.83651,0.00143272
43.4,0.389006,1.86547,0.000549943
44,0.414465,1.90583,0.00127127
44.6,0.439474,1.93932,0.00168781
45.2,0.46334,1.96686,0.0024834
45.8,0.487795,1.99135,0.00353064
46.4,0.512003,2.02003,0.00340829
47,0.535573,2.04613,0.00139989
47.6,0.55956,2.06609,0.000987546
48.2,0.583073,2.09776,-0.000139904
48.8,0.606367,2.11481,0.000776737
49.4,0.629369,2.14721,0.00119019
50,0.652316,2.16144,0.00112378
50.6,0.675708,2.18275,-0.000425746
51.2,0.698443,2.20779,-0.00159258
51.8,0.720846,2.23421,-0.000658621
52.4,0.743395,2.25058,-0.000177141
53,0.765818,2.26883,7.51475e-05
53.6,0.787531,2.29003,0.00091088
54.2,0.810379,2.30679,9.07502e-05
54.8,0.832031,2.32609,-0.000828622
55.4,0.854455,2.3507,-0.00124207
56,0.876109,2.35985,-0.00231715
56.6,0.898222,2.37784,-0.00132172
57.2,0.920175,2.39037,-0.00175057
57.8,0.942144,2.40894,-0.00110241
58.4,0.963692,2.42848,-0.000810079
59,0.985151,2.44031,-0.000378382
59.6,1.00633,2.45737,0.00216724
60.2,1.02814,2.48386,0.000872441
60.8,1.04922,2.49225,-0.000793484
61.4,1.07094,2.5088,-3.80086e-05
62,1.09196,2.52398,0.000635864
62.6,1.11299,2.54028,0.0015832
63.2,1.13433,2.55207,7.60618e-05
63.8,1.15604,2.57158,-0.000536687
64.4,1.17691,2.57942,0.0014622
65,1.19733,2.59149,0.00355248
65.6,1.21878,2.59439,0.00353914
66.2,1.23991,2.61171,0.00252411
66.8,1.2609,2.62995,0.00253993
67.4,1.28153,2.64022,0.00253352
68,1.30249,2.65012,0.0040407
68.6,1.32335,2.66158,0.00396104
69.2,1.34442,2.6772,0.00362769
69.8,1.36524,2.68722,0.00359549
70.4,1.38576,2.69067,0.00495246
71,1.40714,2.70041,0.00502813
71.6,1.42725,2.71236,0.0034982
72.2,1.44873,2.72866,0.00352217
72.8,1.46915,2.74134,0.00241393
73.4,1.48969,2.75271,0.00157375
74,1.51064,2.75265,0.000445835
74.6,1.53129,2.75285,-0.000309353
75.2,1.55135,2.77002,-0.000885389
75.8,1.57243,2.77209,-0.00218393
76.4,1.59341,2.78445,-0.00199591
77,1.61371,2.78598,-0.00274547
77.6,1.63393,2.79665,-0.00180146
78.2,1.65466,2.79586,-0.00204442
78.8,1.67518,2.7978,-0.00119771
79.4,1.69549,2.80582,-0.00273675
80,1.71628,2.81766,-0.00272815
80.6,1.73682,2.8247,3.30774e-05
81.2,1.75703,2.81863,7.45958e-05
81.8,1.77759,2.83653,0.000179402
82.4,1.79807,2.84387,0.00191551
83,1.81819,2.84245,0.00339322
83.6,1.83843,2.84115,0.00265992
84.2,1.85843,2.8511,-0.00109235
84.8,1.87935,2.85243,-0.00251069
85.4,1.89878,2.85791,-0.00328181
86,1.919,2.86541,-0.00330187
86.6,1.93982,2.86498,-0.00179983
87.2,1.96006,2.8688,-0.00341382
87.8,1.98014,2.87677,-0.00338438
88.4,2.00014,2.88923,-0.00205583
89,2.0206,2.89354,-0.00196586
89.6,2.04066,2.89366,-0.00286993
90.2,2.06029,2.89277,-0.00340136
90.8,2.08055,2.90792,-0.00309467
91.4,2.10036,2.91316,-0.00186627
92,2.12037,2.91866,-0.000941303
92.6,2.14094,2.9233,-0.00053969
93.2,2.16056,2.9391,-0.000489915
93.8,2.18027,2.94338,-0.000218807
94.4,2.20043,2.94547,-0.000103375
95,2.22021,2.95453,0.000307097
95.6,2.23936,2.96212,-0.000222471
96.2,2.26028,2.97366,-0.000229865
96.8,2.27966,2.98002,0.00145682
97.4,2.29974,2.99013,0.00310559
98,2.31967,2.99854,0.00374128
98.6,2.33963,3.00997,0.00374758
99.2,2.3588,3.01812,0.00403995
99.8,2.37933,3.02466,0.00562139
100.4,2.39871,3.03438,0.00560016
101,2.41839,3.04129,0.0056
101.6,2.4382,3.04874,0.00560004
102.2,2.45803,3.05734,0.00560353
102.8,2.47745,3.06138,0.00419744
103.4,2.49723,3.07117,0.00361543
104,2.51704,3.08411,0.00264659
104.6,2.53696,3.08765,0.00264003
105.2,2.55601,3.08687,0.00264007
105.8,2.57584,3.09306,0.00265181
106.4,2.59529,3.10482,0.00107079
107,2.61478,3.10961,0.00109995
107.6,2.63442,3.11714,0.00111398
108.2,2.6542,3.11974,-0.000364733
108.8,2.67383,3.12355,-0.00127576
109.4,2.69391,3.13593,-0.00317014
110,2.71325,3.13972,-0.00317003
110.6,2.73256,3.14786,-0.0029236
111.2,2.75199,3.16457,-0.000509455
111.8,2.77195,3.15872,-0.000551305
112.4,2.79139,3.17933,-0.0015737
113,2.81073,3.19337,-0.000504144
113.6,2.83082,3.19499,0.000110163
114.2,2.85011,3.199,0.00235979
114.8,2.86944,3.2044,0.000308934
115.4,2.88904,3.21218,-0.00155839
116,2.90832,3.21554,-0.00152979
116.6,2.92806,3.2281,-0.00153
117.2,2.94742,3.23912,-0.00153093
117.8,2.96712,3.24721,-0.00197486
118.4,2.98659,3.25312,-0.00281858
119,3.00613,3.26857,-0.00131474
119.6,3.0254,3.27725,-0.00131458
120.2,3.04515,3.2814,-0.00211507
120.8,3.06385,3.28589,-0.00128036
121.4,3.08356,3.29753,-0.0013705
122,3.10306,3.30557,4.22487e-05
122.6,3.12236,3.30855,3.30056e-05
123.2,3.14185,3.32126,-0.00257291
123.8,3.1603,3.32826,-0.0027407
124.4,3.18026,3.33517,-0.00274
125,3.19885,3.3443,-0.00274002
125.6,3.21843,3.35574,-0.00275229
126.2,3.23781,3.36611,-0.00398308
126.8,3.25749,3.36828,-0.00404945
127.4,3.27724,3.37855,-0.00404297
128,3.29576,3.38279,-0.00319486
128.6,3.31516,3.39373,-0.00274113
129.2,3.3344,3.40398,-0.00271418
129.8,3.35381,3.41285,-0.00428852
130.4,3.37245,3.41831,-0.0051436
131,3.39189,3.4306,-0.00560562
131.6,3.41067,3.43581,-0.00381492
132.2,3.42981,3.4497,-0.00237924
132.8,3.44869,3.46042,0.000428259
133.4,3.46798,3.47151,0.001415
134,3.48703,3.47829,0.00220176
134.6,3.50637,3.48295,0.00214857
135.2,3.5251,3.48803,0.00145495
135.8,3.54428,3.50283,0.00213716
136.4,3.56348,3.51021,0.00388802
137,3.5821,3.51799,0.00385021
137.6,3.60097,3.52358,0.00385
138.2,3.61984,3.53248,0.0038489
138.8,3.63914,3.54149,0.00344661
139.4,3.65803,3.54286,0.00241229
140,3.67674,3.55904,0.0013061
140.6,3.69516,3.56419,0.00110031
141.2,3.71438,3.56999,0.00110516
141.8,3.7336,3.5807,0.000232747
142.4,3.75219,3.58192,-0.000210694
143,3.77082,3.5943,-0.000558659
143.6,3.78957,3.60444,-0.00129981
144.2,3.80884,3.60477,-0.000556834
144.8,3.82755,3.60438,-0.000550044
145.4,3.84575,3.61249,-0.00055
146,3.86482,3.62414,-0.00054999
146.6,3.8834,3.63295,-0.000547578
147.2,3.90247,3.63571,-0.000949353
147.8,3.92135,3.64527,-0.00197208
148.4,3.93956,3.64676,-0.0019711
149,3.95868,3.65432,-0.00226056
149.6,3.97692,3.65921,-0.00349359
150.2,3.99568,3.66402,-0.00411229
150.8,4.01423,3.67177,-0.00449155
151.4,4.03302,3.68798,-0.00449373
152,4.05165,3.69269,-0.00376194
152.6,4.07053,3.69291,-0.00318118
153.2,4.08883,3.70323,-0.00319749
153.8,4.10738,3.71611,-0.00425866
154.4,4.12598,3.72443,-0.00449
155,4.14478,3.72341,-0.00394162
155.6,4.16327,3.73536,-0.00317619
156.2,4.18159,3.74078,-0.00319713
156.8,4.20072,3.75052,-0.00351178
157.4,4.21911,3.76118,-0.00351001
158,4.23762,3.76139,-0.00351
158.6,4.25607,3.76874,-0.00351
159.2,4.2746,3.77838,-0.00351
159.8,4.29306,3.78537,-0.00350977
160.4,4.31137,3.79715,-0.00350169
161,4.33025,3.80229,-0.00218579
161.6,4.34874,3.8121,-0.00218998
162.2,4.36751,3.81527,-0.00219349
162.8,4.38574,3.82483,-0.000698104
163.4,4.4044,3.83148,-0.000650626
164,4.4227,3.832,-0.000650003
164.6,4.44145,3.84194,-0.000650004
165.2,4.45987,3.8505,-0.000648975
165.8,4.47814,3.86404,-0.000383718
166.4,4.49727,3.86839,0.000661925
167,4.51498,3.87071,-0.000283236
167.6,4.53371,3.88038,-0.000873039
168.2,4.55212,3.88777,-0.000870002
168.8,4.57057,3.89877,-0.00087
169.4,4.58951,3.89601,-0.00087
170,4.60762,3.9121,-0.000869999
170.6,4.62613,3.91944,-0.000870288
171.2,4.64416,3.92659,-0.000934763
171.8,4.66284,3.92937,0.000589186
172.4,4.6813,3.93842,0.00125652
173,4.69964,3.94321,0.00187519
173.6,4.71814,3.9529,0.00187999
174.2,4.73635,3.95284,0.00187732
174.8,4.75484,3.9674,0.00273495
175.4,4.77332,3.97152,0.00324423
176,4.7913,3.98079,0.0018713
176.6,4.80981,3.98322,0.000330243
177.2,4.8284,3.99371,-0.000635101
177.8,4.84701,3.9995,-0.000649939
178.4,4.86533,4.01036,-0.00065
179,4.883,4.01306,-0.00065
179.6,4.90177,4.02058,-0.00065
180.2,4.92035,4.02216,-0.00065
180.8,4.93812,4.02865,-0.00065
181.4,4.95631,4.03041,-0.00065
182,4.97412,4.03093,-0.00065
182.6,4.99329,4.03496,-0.00065
183.2,5.01155,4.0353,-0.000650004
183.8,5.0296,4.04873,-0.000651099
184.4,5.04725,4.05185,-0.000712651
185,5.06531,4.05446,-0.00238686
185.6,5.08333,4.06175,-0.00278794
186.2,5.10289,4.06211,-0.00429014
186.8,5.12077,4.06536,-0.0042801
187.4,5.13888,4.0724,-0.0044533
188,5.15705,4.07882,-0.00557579
188.6,5.1752,4.08522,-0.00558676
189.2,5.19352,4.09129,-0.00644968
189.8,5.2114,4.09697,-0.0059898
190.4,5.22999,4.09246,-0.00558916
191,5.2479,4.09663,-0.00563427
191.6,5.26607,4.10225,-0.00692808
192.2,5.28432,4.10788,-0.0069103
192.8,5.30216,4.11728,-0.00691124
193.4,5.32048,4.13241,-0.00660599
194,5.33863,4.12968,-0.00656546
194.6,5.35673,4.13695,-0.0055782
195.2,5.37478,4.15569,-0.00558619
195.8,5.393,4.15466,-0.00424439
196.4,5.41101,4.16305,-0.00406002
197,5.42938,4.17234,-0.00405992
197.6,5.44747,4.17991,-0.00404983
198.2,5.46548,4.18815,-0.00299732
198.8,5.48361,4.19407,-0.0014088
199.4,5.50089,4.2049,-0.000218911
200,5.51967,4.21805,0.000120771
200.6,5.53765,4.22599,0.00011625
201.2,5.55597,4.2455,-0.000379656
201.8,5.57389,4.2563,-0.00150545
202.4,5.59218,4.26633,-0.00306785
203,5.61034,4.28383,-0.00306083
203.6,5.62823,4.29239,-0.0019656
204.2,5.6465,4.31978,-0.000475443
204.8,5.66458,4.33029,0.000530179
205.4,5.68268,4.35003,0.00191259
206,5.701,4.37139,0.00153794
206.6,5.71873,4.40603,0.000461364
207.2,5.73681,4.42769,0.000440089
207.8,5.75553,4.45749,0.000439999
208.4,5.77307,4.48181,0.000439647
209,5.79142,4.52468,0.000428946
209.6,5.80962,4.55301,-0.000890453
210.2,5.82779,4.58932,-0.000880091
210.8,5.846,4.60996,-0.000879843
211.4,5.86397,4.63666,-0.000863125
212,5.88199,4.66798,-0.00223816
212.6,5.89992,4.68311,-0.00229886
213.2,5.91756,4.69228,-0.0023
213.8,5.93635,4.70555,-0.00230001
214.4,5.95443,4.72619,-0.00229767
215,5.97282,4.73597,-0.00272594
215.6,5.98989,4.73561,-0.00360228
216.2,6.00853,4.74393,-0.00361084
216.8,6.02642,4.7507,-0.00322501
217.4,6.04458,4.75558,-0.00230343
218,6.06257,4.75949,-0.00230003
218.6,6.08086,4.76187,-0.0023
219.2,6.09856,4.76677,-0.0023
219.8,6.1171,4.77394,-0.0023
220.4,6.1349,4.78258,-0.0023
221,6.15284,4.79778,-0.0023
221.6,6.17088,4.80668,-0.0023
222.2,6.18909,4.81074,-0.0023
222.8,6.20736,4.81668,-0.0023
223.4,6.22505,4.81859,-0.0023
224,6.24313,4.81601,-0.00230025
224.6,6.26106,4.82016,-0.00230188
225.2,6.27917,4.82543,-0.00108203
225.8,6.29647,4.82941,-0.000980283
226.4,6.31463,4.83186,-0.000977687
227,6.33363,4.84771,-0.00145846
227.6,6.3513,4.85266,-0.00230141
228.2,6.36946,4.85916,-0.00229995
228.8,6.3872,4.86217,-0.00229999
229.4,6.40538,4.85767,-0.00229816
230,6.42345,4.86275,-0.00263575
230.6,6.44117,4.8653,-0.00360678
231.2,6.45958,4.8765,-0.0036197
231.8,6.47716,4.87547,-0.00364433
232.4,6.49511,4.87912,-0.00223694
233,6.5131,4.88424,-0.00230091
233.6,6.53128,4.88867,-0.00338244
234.2,6.54944,4.8918,-0.00338248
234.8,6.56716,4.89707,-0.00328696
235.4,6.58543,4.89384,-0.00223829
236,6.60316,4.90058,-0.00229994
236.6,6.62116,4.90606,-0.00230001
237.2,6.63921,4.90868,-0.0023
237.8,6.65712,4.908,-0.0023
238.4,6.675,4.91351,-0.0023
239,6.69275,4.91635,-0.0023
239.6,6.71103,4.91795,-0.0023
240.2,6.72893,4.91887,-0.00230004
240.8,6.74679,4.9201,-0.00230257
241.4,6.76484,4.92412,-0.00288317
242,6.78263,4.93127,-0.0032713
242.6,6.80058,4.92834,-0.00461926
243.2,6.81855,4.93349,-0.00459992
243.8,6.83675,4.94015,-0.0044192
244.4,6.85437,4.94092,-0.00328382
245,6.87273,4.94107,-0.00327998
245.6,6.89049,4.94732,-0.00328
246.2,6.90843,4.95199,-0.00328
246.8,6.92642,4.95353,-0.00328
247.4,6.94423,4.94868,-0.00328
248,6.96218,4.94988,-0.00328
248.6,6.98024,4.95285,-0.00328
249.2,6.99818,4.9527,-0.00328
249.8,7.01615,4.95358,-0.00328
250.4,7.03351,4.95685,-0.00328
251,7.05183,4.96327,-0.00328
251.6,7.06989,4.96504,-0.00328
252.2,7.08777,4.97737,-0.00328
252.8,7.10572,4.97683,-0.00328
253.4,7.1238,4.97291,-0.00328
254,7.1421,4.96797,-0.00328
254.6,7.15981,4.96892,-0.00328
255.2,7.17758,4.97527,-0.00328
255.8,7.19549,4.97755,-0.00328
256.4,7.21363,4.98531,-0.00328
257,7.23128,4.9802,-0.00328008
257.6,7.24942,4.9786,-0.00328829
258.2,7.26739,4.98101,-0.0042496
258.8,7.28506,4.97971,-0.00426966
259.4,7.30299,4.98356,-0.00427
260,7.321,4.98418,-0.00427
260.6,7.33911,4.98812,-0.00427
261.2,7.35637,4.99119,-0.00427002
261.8,7.37405,4.9932,-0.00427469
262.4,7.39293,4.99469,-0.00358803
263,7.41104,4.99762,-0.00361097
263.6,7.42862,5.00252,-0.00294184
264.2,7.44664,4.99578,-0.00229928
264.8,7.46378,4.99924,-0.00231226
265.4,7.48245,5.00288,-0.00237
266,7.50042,5.01022,-0.00212786
266.6,7.51838,5.01327,-0.00100935
267.2,7.53613,5.01327,0.000776247
267.8,7.55404,5.01436,0.00076959
268.4,7.57213,5.01628,0.000809914
269,7.58992,5.015,0.000555309
269.6,7.60768,5.02101,0.000657462
270.2,7.62586,5.02586,-0.000242907
270.8,7.64375,5.0253,-0.000596717
271.4,7.66187,5.02951,-0.00199266
272,7.67947,5.03108,-0.00196962
272.6,7.69783,5.03403,-0.00197
273.2,7.71565,5.03034,-0.00197
273.8,7.73337,5.03369,-0.00197
274.4,7.75139,5.03919,-0.00197
275,7.76922,5.03865,-0.00197021
275.6,7.78711,5.0412,-0.00195428
276.2,7.80524,5.04136,-0.0033421
276.8,7.82329,5.04575,-0.00328028
277.4,7.84089,5.04633,-0.00328
278,7.85911,5.04818,-0.00328
278.6,7.87705,5.0466,-0.00328002
279.2,7.89508,5.04646,-0.00327857
279.8,7.91272,5.04778,-0.00368504
280.4,7.93086,5.05718,-0.00481906
281,7.94893,5.05864,-0.0048199
281.6,7.96659,5.05336,-0.00482029
282.2,7.98466,5.05424,-0.00476157
282.8,8.00256,5.06077,-0.00640518
283.4,8.02079,5.06927,-0.00483356
284,8.0385,5.06885,-0.00343969
284.6,8.05639,5.06437,-0.00161455
285.2,8.07447,5.06596,-0.000294154
285.8,8.09235,5.0671,-0.00124588
286.4,8.11033,5.06884,-0.00196725
287,8.12882,5.06807,-0.00196988
287.6,8.14644,5.06953,-0.00196521
288.2,8.16439,5.07037,-0.00378164
288.8,8.18233,5.06859,-0.00468347
289.4,8.20023,5.06723,-0.00599846
290,8.21817,5.06931,-0.00604352
290.6,8.23613,5.0736,-0.00449592
291.2,8.25421,5.07311,-0.00450036
291.8,8.27241,5.06916,-0.00450001
292.4,8.29023,5.07109,-0.00449928
293,8.30842,5.0683,-0.0042187
293.6,8.32624,5.06663,-0.00296282
294.2,8.34449,5.06628,-0.00295987
294.8,8.36223,5.05787,-0.0029572
295.4,8.37989,5.06358,-0.00210018
296,8.39846,5.06441,-0.00163849
296.6,8.41622,5.06358,-0.00164011
297.2,8.43427,5.06668,-0.00172922
297.8,8.45224,5.06907,-0.0029464
298.4,8.4705,5.06736,-0.00295005
299,8.48842,5.06229,-0.00295001
299.6,8.50639,5.06059,-0.00295019
300.2,8.52445,5.05803,-0.00289344
300.8,8.54245,5.05212,-0.0039361
301.4,8.56045,5.05236,-0.00393946
302,8.57851,5.0514,-0.003829
302.6,8.59634,5.04678,-0.00262757
303.2,8.61448,5.04457,-0.0026297
303.8,8.63245,5.04371,-0.00263
304.4,8.65044,5.04107,-0.00263
305,8.66846,5.04091,-0.00263
305.6,8.68654,5.03987,-0.00263
306.2,8.70438,5.04132,-0.00263001
306.8,8.72244,5.0343,-0.00263073
307.4,8.74046,5.0354,-0.00237389
308,8.75881,5.0315,-0.00130584
308.6,8.77641,5.03217,-5.42027e-05
309.2,8.79474,5.02792,-5.97656e-05
309.8,8.8127,5.02201,-0.000864462
310.4,8.83074,5.02329,-0.00237642
311,8.8486,5.01594,-0.00143923
311.6,8.86668,5.01792,-0.00112192
312.2,8.88478,5.02071,-0.00244045
312.8,8.90254,5.01665,-0.00241052
313.4,8.92077,5.0185,-0.00239856
314,8.93863,5.0131,-0.00177257
314.6,8.95671,5.00465,-0.00174977
315.2,8.97498,5.00549,-0.00319723
315.8,8.99318,5.00558,-0.00406344
316.4,9.011,5.00467,-0.00405999
317,9.02923,5.00015,-0.00405877
317.6,9.04721,4.99926,-0.00454957
318.2,9.06544,4.99559,-0.00411014
318.8,9.08321,5.00363,-0.00406867
319.4,9.10139,4.99557,-0.00438584
320,9.11945,4.99453,-0.0044055
320.6,9.13734,4.99171,-0.00538777
321.2,9.15504,4.98864,-0.00531216
321.8,9.17308,4.99073,-0.00671783
322.4,9.19168,4.98736,-0.00668999
323,9.20968,4.99163,-0.00669
323.6,9.22789,4.98251,-0.00669
324.2,9.24573,4.9768,-0.00668999
324.8,9.26394,4.98339,-0.00668437
325.4,9.28212,4.97638,-0.00556926
326,9.30013,4.97968,-0.00499549
326.6,9.31822,4.97647,-0.00343738
327.2,9.33634,4.97722,-0.00397137
327.8,9.35431,4.98125,-0.00371925
328.4,9.37238,4.97454,-0.00371871
329,9.39062,4.96934,-0.0040264
329.6,9.40867,4.96642,-0.00547769
330.2,9.42679,4.97191,-0.0067631
330.8,9.44478,4.97182,-0.0071597
331.4,9.46302,4.97055,-0.00577289
332,9.48097,4.97049,-0.00582036
332.6,9.4992,4.95821,-0.00582001
333.2,9.51758,4.96494,-0.00582
333.8,9.53546,4.95819,-0.00582
334.4,9.55338,4.95652,-0.00582
335,9.5716,4.95599,-0.00582001
335.6,9.58953,4.95072,-0.0058289
336.2,9.60752,4.9478,-0.0066658
336.8,9.62564,4.95146,-0.0073518
337.4,9.64425,4.95065,-0.00735017
338,9.66193,4.94367,-0.00735602
338.6,9.68025,4.94318,-0.00702489
339.2,9.69768,4.94251,-0.00701997
339.8,9.71584,4.94379,-0.00702072
340.4,9.73478,4.93878,-0.00609079
341,9.75287,4.93631,-0.00569745
341.6,9.77121,4.9287,-0.00569732
342.2,9.7892,4.93056,-0.00683869
342.8,9.80739,4.92629,-0.00805433
343.4,9.82563,4.92498,-0.00834108
344,9.84364,4.926,-0.00834001
344.6,9.86195,4.9292,-0.00834
345.2,9.87992,4.92563,-0.00834
345.8,9.89834,4.92019,-0.00834
346.4,9.91626,4.92306,-0.00834
347,9.93466,4.91526,-0.00834003
347.6,9.95271,4.9086,-0.00834246
348.2,9.97094,4.91315,-0.00924457
348.8,9.98907,4.91058,-0.00977334
349.4,10.0073,4.90964,-0.00935437
350,10.0256,4.90675,-0.0084159
350.6,10.0437,4.90226,-0.00854982
351.2,10.0618,4.90318,-0.00844025
351.8,10.0799,4.89444,-0.00818682
352.4,10.0984,4.88791,-0.00809758
353,10.1167,4.89348,-0.00717258
353.6,10.1347,4.88544,-0.00679893
354.2,10.1531,4.87799,-0.00684764
354.8,10.1713,4.87458,-0.005481
355.4,10.1895,4.87752,-0.00549031
356,10.2077,4.87899,-0.00549
356.6,10.226,4.88138,-0.00549013
357.2,10.2442,4.88108,-0.00560667
357.8,10.2625,4.88049,-0.00647168
358.4,10.2803,4.87031,-0.00646998
359,10.299,4.86628,-0.00647
359.6,10.3173,4.86393,-0.00647
360.2,10.3355,4.85985,-0.00647
360.8,10.3538,4.8623,-0.00646998
361.4,10.3722,4.85997,-0.00646788
362,10.3901,4.85873,-0.00700001
362.6,10.4083,4.85287,-0.00745821
363.2,10.4269,4.84891,-0.00777507
363.8,10.4453,4.84478,-0.00778008
364.4,10.4633,4.84053,-0.00777986
365,10.4817,4.84248,-0.00777401
365.6,10.4999,4.84209,-0.00848105
366.2,10.5183,4.83894,-0.00779617
366.8,10.5368,4.83385,-0.00779002
367.4,10.5551,4.83654,-0.00778988
368,10.5733,4.83617,-0.00776362
368.6,10.5918,4.83376,-0.00915054
369.2,10.6098,4.83351,-0.0093176
369.8,10.6283,4.83209,-0.010402
370.4,10.6465,4.82639,-0.010418
371,10.6651,4.82302,-0.00949302
371.6,10.6832,4.81977,-0.00946311
372.2,10.7016,4.82346,-0.00942873
372.8,10.7198,4.81978,-0.00848712
373.4,10.7382,4.81549,-0.007902
374,10.7568,4.80958,-0.00889335
374.6,10.7752,4.80772,-0.00888019
375.2,10.7933,4.8034,-0.00893446
375.8,10.8112,4.80738,-0.00641216
376.4,10.8295,4.80299,-0.00613925
377,10.8486,4.79903,-0.00614
377.6,10.8671,4.80175,-0.00614
378.2,10.8856,4.79078,-0.00614
378.8,10.9036,4.78925,-0.00614
379.4,10.9221,4.77974,-0.00614017
380,10.9405,4.77887,-0.00613276
380.6,10.959,4.78503,-0.00746758
381.2,10.977,4.78272,-0.00699213
381.8,10.9957,4.76987,-0.00614063
382.4,11.0141,4.77274,-0.0062942
383,11.0326,4.77278,-0.00755226
383.6,11.051,4.76993,-0.0075652
384.2,11.0694,4.77397,-0.00889064
384.8,11.0879,4.77178,-0.0088801
385.4,11.1064,4.76672,-0.00888
386,11.1247,4.76033,-0.00888
386.6,11.1429,4.76486,-0.00888
387.2,11.1615,4.76447,-0.0088799
387.8,11.1792,4.76738,-0.00888725
388.4,11.1979,4.76029,-0.00753554
389,11.217,4.7605,-0.00889696
389.6,11.2354,4.75105,-0.00888316
390.2,11.254,4.7506,-0.00920349
390.8,11.2722,4.74898,-0.00920995
391.4,11.2908,4.7462,-0.00921
392,11.309,4.74009,-0.00921
392.6,11.3276,4.74004,-0.00921
393.2,11.346,4.73178,-0.00921
393.8,11.3646,4.72834,-0.00921009
394.4,11.3833,4.72856,-0.00924349
395,11.4013,4.7272,-0.00887913
395.6,11.4202,4.72811,-0.00887995
396.2,11.4384,4.72247,-0.00886358
396.8,11.457,4.7118,-0.00787713
397.4,11.4756,4.70907,-0.00920804
398,11.4932,4.70785,-0.00919379
398.6,11.5125,4.70149,-0.0106326
399.2,11.531,4.70781,-0.00920823
399.8,11.5494,4.70432,-0.00920899
400.4,11.5679,4.69779,-0.00978776
401,11.5865,4.68955,-0.0105309
401.6,11.6049,4.68512,-0.01053
402.2,11.6235,4.68472,-0.01053
402.8,11.6422,4.68128,-0.01053
403.4,11.6606,4.67564,-0.01053
404,11.6794,4.67536,-0.01053
404.6,11.698,4.67146,-0.0105298
405.2,11.7164,4.65544,-0.0105137
405.8,11.7347,4.65088,-0.0107986
406.4,11.7535,4.64539,-0.0105388
407,11.7719,4.64045,-0.01054
407.6,11.7906,4.63709,-0.01054
408.2,11.8086,4.63382,-0.01054
408.8,11.8275,4.62623,-0.01054
409.4,11.8463,4.61394,-0.01054
410,11.8645,4.61471,-0.01054
410.6,11.8832,4.6077,-0.01054
411.2,11.9013,4.59689,-0.01054
411.8,11.9205,4.59038,-0.01054
412.4,11.9392,4.59061,-0.01054
413,11.9576,4.58773,-0.010546
413.6,11.9762,4.58338,-0.011213
414.2,11.9949,4.58238,-0.0118558
414.8,12.0136,4.57855,-0.0130765
415.4,12.0322,4.57231,-0.0131697
416,12.0506,4.56827,-0.01317
416.6,12.0695,4.56597,-0.01317
417.2,12.0879,4.56085,-0.01317
417.8,12.1066,4.55497,-0.01317
418.4,12.1254,4.54612,-0.01317
419,12.1437,4.54279,-0.01317
419.6,12.1624,4.53933,-0.0131673
420.2,12.1811,4.53657,-0.013844
420.8,12.1995,4.52904,-0.0144825
421.4,12.2184,4.52892,-0.0145476
422,12.2368,4.52358,-0.0144824
422.6,12.2558,4.51564,-0.0144782
423.2,12.2741,4.51401,-0.0149012
423.8,12.2929,4.5166,-0.01448
424.4,12.3117,4.50415,-0.01448
425,12.3301,4.49559,-0.0144852
425.6,12.3489,4.49321,-0.0151635
426.2,12.3675,4.49266,-0.0151391
426.8,12.3859,4.49078,-0.016323
427.4,12.4049,4.48423,-0.0164629
428,12.4231,4.48366,-0.0178266
428.6,12.4422,4.47769,-0.0180359
429.2,12.4606,4.47098,-0.019534
429.8,12.4792,4.46294,-0.0195301
430.4,12.4978,4.45474,-0.0195305
431,12.5165,4.45077,-0.0195525
431.6,12.5351,4.44902,-0.0209836
432.2,12.5538,4.44284,-0.02096
432.8,12.5723,4.43929,-0.0209329
433.4,12.591,4.43646,-0.023717
434,12.6098,4.42844,-0.0239599
434.6,12.6283,4.42271,-0.0251103
435.2,12.6473,4.41454,-0.0251299
435.8,12.6659,4.41132,-0.0251302
436.4,12.6844,4.40788,-0.0244264
437,12.7035,4.40173,-0.023686
437.6,12.7218,4.39436,-0.0227076
438.2,12.7406,4.39016,-0.02271
438.8,12.7594,4.38535,-0.0227076
439.4,12.778,4.3765,-0.0231786
440,12.7967,4.37289,-0.0246675
440.6,12.8155,4.3681,-0.0255692
441.2,12.8341,4.36086,-0.0255673
441.8,12.8525,4.36046,-0.0244599
442.4,12.8714,4.35526,-0.0242519
443,12.89,4.34699,-0.0238975
443.6,12.9086,4.34636,-0.02294
444.2,12.9271,4.34449,-0.0234241
444.8,12.9461,4.33417,-0.0248161
445.4,12.9648,4.33828,-0.0258958
446,12.9833,4.33505,-0.025898
446.6,13.0021,4.33335,-0.0262948
447.2,13.0211,4.33425,-0.0272203
447.8,13.0395,4.33789,-0.0276781
448.4,13.0582,4.34117,-0.0287395
449,13.0769,4.35006,-0.02875
449.6,13.0958,4.35278,-0.0287488
450.2,13.1147,4.37263,-0.0296613
450.8,13.1334,4.39234,-0.0301166
451.4,13.152,4.43089,-0.0318599
452,13.1709,4.45429,-0.0318213
452.6,13.1897,4.49198,-0.030827
453.2,13.2087,4.52469,-0.0308316
453.8,13.2277,4.59094,-0.03204
454.4,13.2467,4.67823,-0.0331376
455,13.2658,4.81237,-0.0319093
455.6,13.2851,4.91116,-0.0319201
456.2,13.304,4.99329,-0.0337734
456.8,13.3229,5.07517,-0.0351833
457.4,13.3417,5.14648,-0.0354322
458,13.3609,5.21415,-0.0367763
458.6,13.3799,5.28858,-0.0376419
459.2,13.3988,5.34681,-0.0395691
459.8,13.4175,5.39103,-0.0406667
460.4,13.4365,5.45239,-0.0412929
461,13.4557,5.5098,-0.0426942
461.6,13.4745,5.56127,-0.0437577
462.2,13.4934,5.61051,-0.0464454
462.8,13.5125,5.6601,-0.0472061
463.4,13.5315,5.71542,-0.0482328
464,13.5503,5.76292,-0.0488
464.6,13.5691,5.82006,-0.0509237
465.2,13.588,5.86774,-0.0529349
465.8,13.6072,5.92425,-0.0532724
466.4,13.6259,5.98767,-0.0532381
467,13.645,6.02915,-0.0547427
467.6,13.6637,6.08534,-0.0571209
468.2,13.6828,6.14107,-0.0588315
468.8,13.702,6.18587,-0.0588407
469.4,13.7211,6.23298,-0.0589921
470,13.7398,6.2818,-0.0616765
470.6,13.7589,6.3241,-0.0636771
471.2,13.7779,6.36553,-0.0660087
471.8,13.7968,6.37563,-0.0660517
472.4,13.8155,6.36891,-0.0672779
473,13.8349,6.36343,-0.0692513
473.6,13.8538,6.35248,-0.0716144
474.2,13.873,6.34494,-0.0732853
474.8,13.8919,6.34167,-0.0750383
475.4,13.9112,6.33516,-0.0767924
476,13.93,6.32709,-0.0803141
476.6,13.9491,6.31124,-0.0826317
477.2,13.9681,6.29472,-0.08348
477.8,13.9874,6.25625,-0.0844795
478.4,14.0066,6.20866,-0.0869789
479,14.0255,6.16615,-0.0915643
479.6,14.0447,6.09027,-0.0959277
480.2,14.0637,5.9727,-0.0974567
480.8,14.0829,5.85025,-0.0994907
481.4,14.1022,5.70976,-0.103944
482,14.1214,5.58385,-0.107981
482.6,14.1404,5.47888,-0.111183
483.2,14.1595,5.39399,-0.111797
483.8,14.1788,5.31777,-0.114863
484.4,14.198,5.25945,-0.118853
485,14.2171,5.21704,-0.122131
485.6,14.2362,5.17467,-0.1251
486.2,14.2554,5.13452,-0.128096
486.8,14.2749,5.11244,-0.132295
487.4,14.2943,5.10909,-0.137413
488,14.3134,5.09107,-0.141772
488.6,14.3321,5.06602,-0.144971
489.2,14.3518,5.0484,-0.149207
489.8,14.3711,5.02458,-0.156108
490.4,14.39,5.02283,-0.161948
491,14.4093,5.01953,-0.165679
491.6,14.4284,5.01692,-0.168499
492.2,14.4477,5.0135,-0.173419
492.8,14.4671,5.01665,-0.179705
493.4,14.4862,5.02453,-0.184506
494,14.5057,5.03343,-0.18909
494.6,14.5245,5.04117,-0.193633
495.2,14.5439,5.04087,-0.197897
495.8,14.5631,5.04657,-0.205738
496.4,14.5824,5.06392,-0.21074
497,14.6016,5.07498,-0.215608
497.6,14.621,5.08905,-0.221659
498.2,14.6399,5.10567,-0.229906
498.8,14.6592,5.12629,-0.239944
499.4,14.6787,5.147,-0.246146
500,14.6979,5.16965,-0.252178
500.6,14.7175,5.20055,-0.259503
501.2,14.7366,5.21591,-0.270327
501.8,14.7561,5.24549,-0.278204
502.4,14.7751,5.2744,-0.285076
503,14.7944,5.28723,-0.293457
503.6,14.8139,5.31196,-0.303603
504.2,14.8326,5.33852,-0.315611
504.8,14.8526,5.36819,-0.325139
505.4,14.8717,5.38834,-0.335219
506,14.8911,5.4038,-0.344453
506.6,14.9105,5.44542,-0.358298
507.2,14.93,5.50129,-0.369085
507.8,14.9494,5.56136,-0.380523
508.4,14.9688,5.61359,-0.391183
509,14.9881,5.65791,-0.405206
509.6,15.0077,5.72681,-0.422102
510.2,15.0272,5.76976,-0.436656
510.8,15.0467,5.81185,-0.452441
511.4,15.0658,5.86019,-0.466414
512,15.0855,5.90907,-0.488136
512.6,15.104,5.95298,-0.504667
513.2,15.1243,5.98279,-0.524194
513.8,15.1439,6.01222,-0.536907
514.4,15.1633,6.0618,-0.555094
515,15.1828,6.12628,-0.573708
515.6,15.2024,6.17503,-0.596013
516.2,15.222,6.21639,-0.614229
516.8,15.2415,6.25945,-0.635103
517.4,15.2608,6.29777,-0.655924
518,15.2804,6.33737,-0.679975
518.6,15.2997,6.3945,-0.704896
519.2,15.3195,6.41815,-0.7276
519.8,15.3384,6.45985,-0.750996
520.4,15.3582,6.48602,-0.77587
521,15.3778,6.50866,-0.80293
521.6,15.3971,6.5159,-0.827996
522.2,15.4166,6.55186,-0.854382
522.8,15.4364,6.60448,-0.882403
523.4,15.4556,6.66111,-0.912578
524,15.4754,6.72445,-0.941446
524.6,15.4949,6.7739,-0.969394
525.2,15.5143,6.80693,-1.0011
525.8,15.5341,6.84065,-1.03356
526.4,15.5539,6.90179,-1.06991
527,15.573,6.92095,-1.09959
527.6,15.592,6.92628,-1.1363
528.2,15.6123,6.95361,-1.16929
528.8,15.631,6.9739,-1.21113
529.4,15.651,6.97445,-1.24459
530,15.6706,6.96092,-1.28533
530.6,15.6894,6.97641,-1.31824
531.2,15.7095,7.00114,-1.3626
531.8,15.7291,6.99261,-1.4018
532.4,15.7485,6.97853,-1.44264
533,15.7679,6.97492,-1.48345
533.6,15.7873,6.95737,-1.52394
534.2,15.8067,6.95522,-1.57261
534.8,15.8262,6.94262,-1.614
535.4,15.8457,6.92096,-1.66603
536,15.8651,6.89147,-1.708
536.6,15.8842,6.83905,-1.75635
537.2,15.9035,6.78845,-1.8152
537.8,15.923,6.72821,-1.87587
538.4,15.9421,6.65317,-1.92473
539,15.9613,6.56744,-1.9762
539.6,15.9808,6.47509,-2.03036
540.2,16,6.36946,-2.08192
540.8,16.0188,6.24934,-2.12974
541.4,16.0377,6.10556,-2.17842
542,16.0571,5.92832,-2.23114
542.6,16.0757,5.75736,-2.28365
543.2,16.0947,5.55845,-2.33533
543.8,16.1135,5.35572,-2.38536
544.4,16.1323,5.12772,-2.43557
545,16.1507,4.8887,-2.486
545.6,16.1694,4.63567,-2.5328
546.2,16.1879,4.37407,-2.57496
546.8,16.2063,4.0936,-2.6154
547.4,16.2247,3.80967,-2.65237
548,16.2435,3.50685,-2.69581
548.6,16.2616,3.21364,-2.73212
549.2,16.28,2.90921,-2.77162
549.8,16.2983,2.61912,-2.80163
550.4,16.3165,2.32229,-2.83086
551,16.335,2.04309,-2.86655
551.6,16.3533,1.78254,-2.89329
552.2,16.3718,1.53906,-2.92059
552.8,16.39,1.30229,-2.94254
553.4,16.4086,1.08446,-2.96347
554,16.4273,0.893163,-2.98559
554.6,16.4461,0.724288,-3.00382
555.2,16.4648,0.584206,-3.01857
555.8,16.4835,0.466454,-3.03319
556.4,16.5025,0.358191,-3.04644
557,16.5214,0.284143,-3.06244
557.6,16.5403,0.20334,-3.0715
558.2,16.5594,0.16092,-3.08024
558.8,16.5785,0.119635,-3.08816
559.4,16.5976,0.0937443,-3.09795
560,16.6168,0.0764414,-3.10744
560.6,16.6363,0.0660728,-3.1128
561.2,16.6553,0.0567674,-3.11891
561.8,16.6749,0.0498121,-3.12383
562.4,16.6942,0.0506212,-3.13295
563,16.7136,0.059363,-3.1396
563.6,16.733,0.0719646,-3.14445
564.2,16.7522,0.0781281,-3.1483
564.8,16.771,0.0877811,-3.15253
565.4,16.7913,0.103662,-3.15844
566,16.8106,0.107949,-3.16234
566.6,16.8301,0.112175,-3.16423
567.2,16.8497,0.122602,-3.16718
567.8,16.8692,0.132351,-3.17109
568.4,16.8886,0.136192,-3.17603
569,16.9082,0.141782,-3.17883
569.6,16.9274,0.153294,-3.18026
570.2,16.9473,0.151661,-3.18185
570.8,16.9666,0.153669,-3.18575
571.4,16.9861,0.161832,-3.18764
572,17.006,0.177765,-3.19061
572.6,17.0255,0.185569,-3.1922
573.2,17.045,0.184982,-3.19596
573.8,17.0646,0.195853,-3.19891
574.4,17.0841,0.210829,-3.20034
575,17.1038,0.218994,-3.20038
575.6,17.1232,0.218123,-3.20247
576.2,17.1429,0.233831,-3.20589
576.8,17.1622,0.248329,-3.20812
577.4,17.182,0.26242,-3.20904
578,17.2015,0.284043,-3.21085
578.6,17.2212,0.30771,-3.21347
579.2,17.2408,0.340411,-3.21643
579.8,17.2602,0.3698,-3.21861
580.4,17.2799,0.42163,-3.21861
581,17.2991,0.468189,-3.21921
581.6,17.3187,0.525789,-3.22011
582.2,17.338,0.569746,-3.2221
582.8,17.3584,0.612791,-3.22339
583.4,17.378,0.654809,-3.22491
584,17.3979,0.697966,-3.2273
584.6,17.4173,0.750085,-3.22938
585.2,17.4368,0.796279,-3.23069
585.8,17.4566,0.844849,-3.23069
586.4,17.4763,0.886256,-3.23071
587,17.4958,0.925361,-3.23164
587.6,17.5157,0.965231,-3.23333
588.2,17.5352,1.0045,-3.23511
588.8,17.5547,1.03068,-3.23596
589.4,17.5744,1.06344,-3.23704
590,17.5939,1.08931,-3.23843
590.6,17.6138,1.11124,-3.24064
591.2,17.6328,1.13782,-3.242
591.8,17.6531,1.15883,-3.24194
592.4,17.6726,1.18157,-3.24378
593,17.6926,1.20417,-3.24572
593.6,17.712,1.21792,-3.24696
594.2,17.7317,1.24306,-3.248
594.8,17.7514,1.25859,-3.2476
595.4,17.7712,1.26753,-3.25005
596,17.7907,1.28464,-3.25195
596.6,17.8104,1.2913,-3.25255
597.2,17.83,1.29913,-3.25351
597.8,17.85,1.3033,-3.25464
598.4,17.87,1.30636,-3.25662
599,17.8895,1.31593,-3.2575
599.6,17.9091,1.30261,-3.25803
600.2,17.9287,1.3085,-3.25951
600.8,17.9486,1.30897,-3.26171
601.4,17.9683,1.3049,-3.26328
602,17.9874,1.30289,-3.26489
602.6,18.0075,1.30022,-3.26484
603.2,18.0274,1.29281,-3.26622
603.8,18.0473,1.28792,-3.2668
604.4,18.067,1.28151,-3.26713
605,18.0865,1.28636,-3.26713
605.6,18.1063,1.27634,-3.26901
606.2,18.1265,1.27162,-3.27058
606.8,18.1461,1.26272,-3.27153
607.4,18.1657,1.26046,-3.27185
608,18.1852,1.26476,-3.2718
608.6,18.2054,1.24969,-3.2737
609.2,18.225,1.2471,-3.27561
609.8,18.2447,1.24451,-3.27559
610.4,18.2645,1.23682,-3.27612
611,18.2844,1.23392,-3.27706
611.6,18.3043,1.21717,-3.27901
612.2,18.3239,1.20885,-3.28084
612.8,18.3437,1.20056,-3.28353
613.4,18.3634,1.1939,-3.2845
614,18.3834,1.17747,-3.28635
614.6,18.4027,1.16944,-3.28766
615.2,18.4228,1.1589,-3.28885
615.8,18.4428,1.14942,-3.28887
616.4,18.4626,1.14723,-3.28887
617,18.4826,1.14117,-3.28908
617.6,18.5023,1.1217,-3.29039
618.2,18.5222,1.10732,-3.29019
618.8,18.542,1.08353,-3.29019
619.4,18.562,1.07627,-3.29175
620,18.5818,1.06341,-3.29219
620.6,18.6014,1.03128,-3.29293
621.2,18.6207,1.00964,-3.29293
621.8,18.6407,0.968432,-3.2925
622.4,18.6601,0.935351,-3.29369
623,18.68,0.902164,-3.29431
623.6,18.6998,0.874926,-3.29446
624.2,18.7203,0.832704,-3.29608
624.8,18.7401,0.796573,-3.29825
625.4,18.76,0.7572,-3.30021
626,18.7798,0.711111,-3.30084
626.6,18.7995,0.658568,-3.3016
627.2,18.8191,0.596609,-3.30175
627.8,18.839,0.534341,-3.30318
628.4,18.8587,0.459411,-3.30483
629,18.8781,0.376432,-3.30545
629.6,18.8979,0.279836,-3.30545
630.2,18.9175,0.199955,-3.30688
630.8,18.9371,0.117797,-3.30759
631.4,18.957,0.0487631,-3.30863
632,18.9768,-0.0386145,-3.30863
632.6,18.9966,-0.10834,-3.30899
633.2,19.0164,-0.183094,-3.31029
633.8,19.0362,-0.261671,-3.31203
634.4,19.056,-0.326556,-3.31203
635,19.0755,-0.389322,-3.31203
635.6,19.0957,-0.452948,-3.31354
636.2,19.1154,-0.520836,-3.31416
636.8,19.1354,-0.578862,-3.31489
637.4,19.1552,-0.635719,-3.31489
638,19.1751,-0.688535,-3.31517
638.6,19.1951,-0.722189,-3.31644
639.2,19.2149,-0.76144,-3.31789
639.8,19.2351,-0.792765,-3.31796
640.4,19.255,-0.824615,-3.31796
641,19.2749,-0.861608,-3.31895
641.6,19.2947,-0.895069,-3.31817
642.2,19.3145,-0.925632,-3.31818
642.8,19.3346,-0.967936,-3.31911
643.4,19.3545,-0.988685,-3.31949
644,19.3742,-1.0191,-3.32105
644.6,19.3947,-1.04261,-3.32105
645.2,19.4149,-1.07606,-3.32229
645.8,19.4345,-1.10723,-3.3228
646.4,19.4547,-1.13304,-3.32423
647,19.4743,-1.14623,-3.32457
647.6,19.4941,-1.1719,-3.32496
648.2,19.5146,-1.185,-3.32587
648.8,19.5345,-1.20006,-3.32761
649.4,19.5544,-1.22768,-3.32852
650,19.5746,-1.2477,-3.32904
650.6,19.5945,-1.26068,-3.32761
651.2,19.6145,-1.25652,-3.32751
651.8,19.6337,-1.26614,-3.32757
652.4,19.6544,-1.28482,-3.32616
653,19.6744,-1.30097,-3.32489
653.6,19.6946,-1.31964,-3.32465
654.2,19.7145,-1.33816,-3.32511
654.8,19.7345,-1.35395,-3.32618
655.4,19.7545,-1.36312,-3.32617
656,19.7746,-1.38066,-3.32753
656.6,19.7946,-1.38527,-3.32797
657.2,19.8147,-1.39755,-3.32853
657.8,19.8345,-1.40959,-3.32763
658.4,19.8545,-1.41846,-3.32763
659,19.8747,-1.42521,-3.32762
659.6,19.8948,-1.43712,-3.32895
660.2,19.9143,-1.44321,-3.32895
660.8,19.9346,-1.44651,-3.33012
661.4,19.9549,-1.44336,-3.33026
662,19.9746,-1.44853,-3.33243
662.6,19.9947,-1.44547,-3.3329
663.2,20.0145,-1.43843,-3.33158
663.8,20.0344,-1.44087,-3.33158
664.4,20.0547,-1.43515,-3.33156
665,20.0747,-1.43161,-3.33312
665.6,20.0949,-1.42257,-3.33311
666.2,20.1149,-1.42315,-3.33311
666.8,20.1349,-1.41863,-3.33311
667.4,20.1549,-1.41431,-3.33309
668,20.1751,-1.40925,-3.33444
668.6,20.195,-1.41109,-3.33348
669.2,20.2145,-1.40402,-3.33311
669.8,20.2346,-1.39462,-3.33311
670.4,20.2549,-1.38864,-3.33312
671,20.2754,-1.38776,-3.3344
671.6,20.2958,-1.37942,-3.33443
672.2,20.3151,-1.3774,-3.33443
672.8,20.3353,-1.36876,-3.33444
673.4,20.3559,-1.3649,-3.33574
674,20.3758,-1.36342,-3.33575
674.6,20.3958,-1.36031,-3.33575
675.2,20.416,-1.36263,-3.3361
675.8,20.4359,-1.35585,-3.33761
676.4,20.4559,-1.35254,-3.3386
677,20.4761,-1.35262,-3.3386
677.6,20.4961,-1.34195,-3.3386
678.2,20.5164,-1.34667,-3.3386
678.8,20.5364,-1.35086,-3.3386
679.4,20.5562,-1.34502,-3.3386
680,20.5765,-1.3344,-3.33859
680.6,20.5965,-1.33734,-3.34018
681.2,20.6167,-1.33246,-3.341
681.8,20.6369,-1.32101,-3.3419
682.4,20.6571,-1.31998,-3.34178
683,20.6772,-1.31972,-3.34059
683.6,20.6971,-1.3183,-3.34061
684.2,20.7173,-1.31992,-3.34117
684.8,20.7372,-1.32361,-3.34058
685.4,20.7576,-1.32174,-3.33925
686,20.7777,-1.31823,-3.33927
686.6,20.798,-1.31537,-3.34036
687.2,20.8179,-1.31502,-3.34056
687.8,20.8379,-1.31612,-3.33947
688.4,20.858,-1.30783,-3.33767
689,20.8782,-1.29679,-3.33888
689.6,20.8983,-1.29892,-3.33904
690.2,20.9184,-1.30166,-3.33904
690.8,20.9386,-1.30472,-3.33901
691.4,20.9587,-1.30275,-3.3414
692,20.9788,-1.3066,-3.34262
692.6,20.9991,-1.29996,-3.34387
693.2,21.0188,-1.29989,-3.34433
693.8,21.0391,-1.29184,-3.34542
694.4,21.059,-1.2943,-3.34729
695,21.079,-1.29371,-3.34893
695.6,21.0996,-1.29203,-3.34759
696.2,21.12,-1.29017,-3.34815
696.8,21.14,-1.28881,-3.34962
697.4,21.1602,-1.29294,-3.3522
698,21.1804,-1.29573,-3.35194
698.6,21.2004,-1.29651,-3.35068
699.2,21.2205,-1.29406,-3.35067
699.8,21.2408,-1.28715,-3.35067
700.4,21.2608,-1.29085,-3.35067
701,21.2812,-1.28857,-3.34968
701.6,21.301,-1.2909,-3.3486
702.2,21.3214,-1.28805,-3.34827
702.8,21.3417,-1.28934,-3.34827
703.4,21.3618,-1.28298,-3.34827
704,21.3821,-1.29158,-3.34821
704.6,21.4021,-1.29398,-3.34794
705.2,21.4223,-1.29298,-3.34868
705.8,21.4426,-1.2896,-3.34991
706.4,21.4628,-1.28571,-3.34993
707,21.4825,-1.28817,-3.34932
707.6,21.503,-1.2923,-3.34989
708.2,21.523,-1.29271,-3.35124
708.8,21.5435,-1.3023,-3.35122
709.4,21.5637,-1.30196,-3.35123
710,21.5837,-1.30746,-3.35239
710.6,21.6039,-1.31307,-3.35276
711.2,21.6244,-1.31379,-3.35277
711.8,21.6443,-1.32225,-3.35205
712.4,21.6645,-1.33016,-3.35234
713,21.6848,-1.34381,-3.35365
713.6,21.705,-1.34484,-3.35487
714.2,21.7252,-1.34881,-3.35496
714.8,21.7454,-1.35626,-3.35496
715.4,21.7657,-1.35591,-3.35496
716,21.7859,-1.36491,-3.35496
716.6,21.8062,-1.36418,-3.35496
717.2,21.8267,-1.37127,-3.35496
717.8,21.8466,-1.38739,-3.35496
718.4,21.867,-1.39267,-3.35496
719,21.8872,-1.39531,-3.35497
719.6,21.9076,-1.39567,-3.35359
720.2,21.9277,-1.40274,-3.35432
720.8,21.9481,-1.40897,-3.35551
721.4,21.9683,-1.41672,-3.3554
722,21.9886,-1.42303,-3.3554
722.6,22.0086,-1.43117,-3.3554
723.2,22.0287,-1.43724,-3.35541
723.8,22.0494,-1.44647,-3.35652
724.4,22.0695,-1.46165,-3.35672
725,22.0897,-1.46507,-3.35692
725.6,22.1098,-1.48232,-3.35814
726.2,22.1302,-1.4947,-3.35965
726.8,22.1508,-1.49076,-3.35968
727.4,22.1708,-1.50901,-3.35968
728,22.1908,-1.51916,-3.35898
728.6,22.2114,-1.53112,-3.35836
729.2,22.2315,-1.53909,-3.35839
729.8,22.2518,-1.54199,-3.35968
730.4,22.2721,-1.5538,-3.35926
731,22.2917,-1.56294,-3.35802
731.6,22.3127,-1.57361,-3.35803
732.2,22.3331,-1.58372,-3.35803
732.8,22.353,-1.59472,-3.35803
733.4,22.3735,-1.61085,-3.35802
734,22.3938,-1.61648,-3.35936
734.6,22.4134,-1.63578,-3.35934
735.2,22.4336,-1.63773,-3.35831
735.8,22.4547,-1.64109,-3.35802
736.4,22.4743,-1.6548,-3.35958
737,22.4953,-1.66141,-3.35957
737.6,22.5155,-1.67721,-3.35957
738.2,22.536,-1.68837,-3.35885
738.8,22.556,-1.70182,-3.35979
739.4,22.5766,-1.71523,-3.36154
740,22.5968,-1.72178,-3.3626
740.6,22.6169,-1.73795,-3.3642
741.2,22.6371,-1.74186,-3.36421
741.8,22.657,-1.76365,-3.36571
742.4,22.6774,-1.77793,-3.36572
743,22.6984,-1.78697,-3.36572
743.6,22.7186,-1.79028,-3.36572
744.2,22.7389,-1.80394,-3.36693
744.8,22.7588,-1.81877,-3.36922
745.4,22.7794,-1.831,-3.36916
746,22.7997,-1.83523,-3.37021
746.6,22.82,-1.85137,-3.36874
747.2,22.84,-1.86397,-3.36846
747.8,22.8605,-1.87622,-3.36846
748.4,22.8809,-1.8827,-3.36878
749,22.9015,-1.8906,-3.36984
749.6,22.9213,-1.89888,-3.36843
750.2,22.942,-1.91017,-3.36846
750.8,22.9621,-1.92801,-3.36938
751.4,22.9825,-1.93785,-3.36841
752,23.0028,-1.94668,-3.37001
752.6,23.0232,-1.95655,-3.37176
753.2,23.0435,-1.96164,-3.37176
753.8,23.0638,-1.96624,-3.37152
754.4,23.0844,-1.97626,-3.36869
755,23.1043,-1.99151,-3.36695
755.6,23.1248,-2.00076,-3.36657
756.2,23.1452,-2.00086,-3.3666
756.8,23.1657,-2.00809,-3.36732
757.4,23.1857,-2.02308,-3.36777
758,23.2061,-2.0345,-3.36868
758.6,23.2265,-2.04828,-3.36868
759.2,23.2466,-2.05861,-3.36868
759.8,23.2673,-2.06925,-3.36868
760.4,23.2876,-2.06761,-3.36868
761,23.308,-2.0772,-3.36868
761.6,23.3284,-2.08303,-3.36873
762.2,23.349,-2.09385,-3.36934
762.8,23.3691,-2.0975,-3.36931
763.4,23.3895,-2.1076,-3.3707
764,23.4098,-2.11375,-3.37066
764.6,23.4301,-2.11441,-3.37066
765.2,23.4504,-2.12012,-3.37012
765.8,23.4707,-2.12164,-3.36904
766.4,23.4914,-2.12382,-3.36867
767,23.5117,-2.12737,-3.369
767.6,23.5321,-2.13139,-3.37055
768.2,23.5523,-2.13701,-3.37207
768.8,23.573,-2.13758,-3.37079
769.4,23.5934,-2.1466,-3.3714
770,23.6137,-2.13364,-3.37077
770.6,23.6341,-2.1329,-3.37059
771.2,23.6547,-2.12716,-3.37065
771.8,23.6747,-2.12437,-3.37066
772.4,23.6953,-2.12986,-3.37189
773,23.7158,-2.13768,-3.37229
773.6,23.7361,-2.13851,-3.37175
774.2,23.7566,-2.1454,-3.37175
774.8,23.7769,-2.14882,-3.371
775.4,23.7973,-2.14923,-3.37043
776,23.818,-2.15416,-3.37126
776.6,23.8384,-2.16184,-3.37175
777.2,23.8587,-2.1586,-3.37172
777.8,23.879,-2.15611,-3.37311
778.4,23.8993,-2.15619,-3.37302
779,23.92,-2.15229,-3.37384
779.6,23.9408,-2.15163,-3.37307
780.2,23.9606,-2.1483,-3.3737
780.8,23.9814,-2.15377,-3.37461
781.4,24.0019,-2.15562,-3.3746
782,24.0222,-2.15563,-3.37559
782.6,24.0425,-2.15981,-3.37558
783.2,24.063,-2.15947,-3.37605
783.8,24.0835,-2.15647,-3.37742
784.4,24.104,-2.15282,-3.37624
785,24.1243,-2.1589,-3.37614
785.6,24.1448,-2.15004,-3.37614
786.2,24.1654,-2.14345,-3.37672
786.8,24.1856,-2.14801,-3.37768
787.4,24.2061,-2.14223,-3.37768
788,24.226,-2.14145,-3.37735
788.6,24.2466,-2.14015,-3.37735
789.2,24.2676,-2.13699,-3.37735
789.8,24.2882,-2.13897,-3.37616
790,24.2947,-2.13794,-3.37603