File: 01_Data/NFPA_1981-2019_SCBA_Lens/STA/N2/30K_min/NFPA_1981-2019_SCBA_Lens_STA_N2_30KData_250910_R3.csv
Temp./C,Time/min,DSC/(mW/mg),Mass loss/mg
40,0,1.11E+00,-8.97E-03
40.6,0.03886994,1.16E+00,-1.01E-02
41.2,0.07601095,1.21E+00,-9.86E-03
41.8,0.11261,1.26E+00,-9.11E-03
42.4,0.148046,1.31E+00,-1.00E-02
43,0.182635,1.34E+00,-8.74E-03
43.6,0.216898,1.38E+00,-8.32E-03
44.2,0.249704,1.42E+00,-8.00E-03
44.8,0.282872,1.46E+00,-8.01E-03
45.4,0.315002,1.50E+00,-8.62E-03
46,0.346846,1.53E+00,-8.85E-03
46.6,0.377231,1.56E+00,-8.51E-03
47.2,0.4083,1.59E+00,-8.56E-03
47.8,0.438251,1.63E+00,-7.98E-03
48.4,0.467802,1.67E+00,-7.18E-03
49,0.497536,1.69E+00,-7.39E-03
49.6,0.526189,1.71E+00,-6.95E-03
50.2,0.55559,1.74E+00,-6.19E-03
50.8,0.584642,1.77E+00,-6.75E-03
51.4,0.612007,1.79E+00,-7.96E-03
52,0.63976,1.82E+00,-7.29E-03
52.6,0.667045,1.84E+00,-6.26E-03
53.2,0.695108,1.86E+00,-5.36E-03
53.8,0.722105,1.89E+00,-4.78E-03
54.4,0.748541,1.91E+00,-4.34E-03
55,0.77597,1.93E+00,-4.15E-03
55.6,0.802454,1.95E+00,-3.96E-03
56.2,0.828507,1.97E+00,-4.19E-03
56.8,0.854803,1.99E+00,-4.06E-03
57.4,0.880799,2.01E+00,-3.56E-03
58,0.905224,2.03E+00,-2.91E-03
58.6,0.932303,2.05E+00,-2.25E-03
59.2,0.957606,2.07E+00,-2.11E-03
59.8,0.98254,2.08E+00,-2.14E-03
60.4,1.00704,2.11E+00,-2.32E-03
61,1.033,2.13E+00,-1.89E-03
61.6,1.05804,2.15E+00,-1.70E-03
62.2,1.0829,2.16E+00,-1.73E-03
62.8,1.10792,2.18E+00,-1.75E-03
63.4,1.13226,2.20E+00,-1.85E-03
64,1.15693,2.21E+00,-1.61E-03
64.6,1.18002,2.23E+00,-1.45E-03
65.2,1.2055,2.24E+00,-1.78E-03
65.8,1.22995,2.26E+00,-2.35E-03
66.4,1.25411,2.27E+00,-2.19E-03
67,1.27847,2.29E+00,-2.32E-03
67.6,1.30257,2.30E+00,-2.29E-03
68.2,1.32621,2.31E+00,-1.74E-03
68.8,1.35016,2.32E+00,-1.57E-03
69.4,1.37322,2.34E+00,-1.51E-03
70,1.39739,2.35E+00,-1.70E-03
70.6,1.42031,2.37E+00,-8.81E-04
71.2,1.44462,2.39E+00,-5.30E-04
71.8,1.46704,2.40E+00,-7.83E-04
72.4,1.49138,2.40E+00,-1.14E-03
73,1.51448,2.42E+00,-1.55E-03
73.6,1.53795,2.43E+00,-1.70E-03
74.2,1.56126,2.45E+00,-1.16E-03
74.8,1.58468,2.46E+00,-1.04E-03
75.4,1.60735,2.47E+00,-6.47E-04
76,1.63061,2.48E+00,-7.16E-04
76.6,1.65359,2.49E+00,-1.22E-03
77.2,1.67634,2.51E+00,-4.05E-04
77.8,1.69915,2.53E+00,-8.29E-04
78.4,1.72242,2.53E+00,-1.05E-04
79,1.7444,2.54E+00,-2.82E-04
79.6,1.76737,2.56E+00,-1.83E-04
80.2,1.79008,2.58E+00,1.42E-04
80.8,1.81251,2.60E+00,-6.22E-04
81.4,1.83521,2.60E+00,-8.25E-04
82,1.85834,2.61E+00,-6.35E-04
82.6,1.87999,2.63E+00,-1.20E-03
83.2,1.90309,2.64E+00,-4.98E-04
83.8,1.92487,2.65E+00,-2.49E-04
84.4,1.94715,2.67E+00,-3.53E-04
85,1.96955,2.67E+00,3.19E-04
85.6,1.99092,2.68E+00,9.81E-04
86.2,2.01277,2.70E+00,7.25E-04
86.8,2.03439,2.71E+00,8.70E-04
87.4,2.05702,2.73E+00,1.49E-05
88,2.07914,2.74E+00,-5.44E-04
88.6,2.1013,2.74E+00,-1.76E-04
89.2,2.12282,2.74E+00,-9.40E-04
89.8,2.14454,2.76E+00,-3.72E-04
90.4,2.16636,2.76E+00,2.11E-04
91,2.18767,2.77E+00,8.24E-04
91.6,2.20912,2.77E+00,2.26E-04
92.2,2.23054,2.78E+00,5.76E-04
92.8,2.25234,2.79E+00,1.15E-03
93.4,2.27394,2.79E+00,6.89E-04
94,2.29466,2.80E+00,8.83E-04
94.6,2.31634,2.81E+00,-1.29E-04
95.2,2.33756,2.82E+00,4.31E-04
95.8,2.35911,2.82E+00,-5.51E-04
96.4,2.38013,2.82E+00,-3.45E-04
97,2.40129,2.82E+00,-7.86E-04
97.6,2.42256,2.83E+00,-2.87E-04
98.2,2.444,2.83E+00,1.88E-04
98.8,2.46482,2.85E+00,6.40E-04
99.4,2.48555,2.85E+00,9.51E-04
100,2.50669,2.86E+00,1.07E-04
100.6,2.52732,2.87E+00,5.20E-04
101.2,2.54838,2.87E+00,-4.22E-04
101.8,2.5695,2.89E+00,8.76E-05
102.4,2.59028,2.90E+00,6.13E-04
103,2.61102,2.92E+00,-3.61E-04
103.6,2.63197,2.94E+00,3.05E-05
104.2,2.6527,2.94E+00,1.50E-04
104.8,2.67387,2.95E+00,-4.65E-04
105.4,2.6948,2.96E+00,-7.23E-05
106,2.7155,2.98E+00,3.26E-04
106.6,2.73602,2.98E+00,-1.59E-04
107.2,2.75666,2.99E+00,-2.07E-04
107.8,2.77721,2.98E+00,1.81E-04
108.4,2.79806,2.99E+00,5.77E-04
109,2.8184,3.00E+00,9.73E-04
109.6,2.83879,3.01E+00,1.36E-03
110.2,2.85939,3.01E+00,1.68E-03
110.8,2.87994,3.02E+00,1.41E-03
111.4,2.90075,3.03E+00,1.04E-03
112,2.92077,3.04E+00,1.36E-03
112.6,2.94126,3.05E+00,1.68E-03
113.2,2.96211,3.07E+00,2.00E-03
113.8,2.98254,3.08E+00,1.07E-03
114.4,3.0027,3.09E+00,1.31E-03
115,3.02292,3.10E+00,1.61E-03
115.6,3.04346,3.11E+00,1.90E-03
116.2,3.06413,3.12E+00,1.50E-03
116.8,3.08439,3.14E+00,1.16E-03
117.4,3.10453,3.15E+00,1.45E-03
118,3.12537,3.15E+00,1.73E-03
118.6,3.14503,3.17E+00,2.00E-03
119.2,3.16537,3.17E+00,2.27E-03
119.8,3.18558,3.19E+00,2.51E-03
120.4,3.20565,3.21E+00,1.36E-03
121,3.22608,3.21E+00,1.67E-03
121.6,3.24613,3.22E+00,1.90E-03
122.2,3.26633,3.23E+00,2.12E-03
122.8,3.28584,3.24E+00,2.38E-03
123.4,3.30616,3.26E+00,1.37E-03
124,3.32594,3.26E+00,1.41E-03
124.6,3.34612,3.27E+00,1.61E-03
125.2,3.36646,3.28E+00,1.80E-03
125.8,3.38648,3.29E+00,1.98E-03
126.4,3.40609,3.30E+00,2.17E-03
127,3.4264,3.31E+00,2.34E-03
127.6,3.44621,3.32E+00,2.50E-03
128.2,3.46607,3.33E+00,2.68E-03
128.8,3.48601,3.34E+00,2.90E-03
129.4,3.50566,3.35E+00,1.88E-03
130,3.52533,3.35E+00,1.85E-03
130.6,3.54529,3.37E+00,2.00E-03
131.2,3.56486,3.38E+00,2.15E-03
131.8,3.58487,3.39E+00,2.28E-03
132.4,3.6041,3.39E+00,2.02E-03
133,3.62398,3.41E+00,1.20E-03
133.6,3.64321,3.42E+00,1.31E-03
134.2,3.66329,3.43E+00,1.44E-03
134.8,3.68289,3.43E+00,1.57E-03
135.4,3.7022,3.45E+00,1.71E-03
136,3.72187,3.45E+00,1.84E-03
136.6,3.74187,3.46E+00,1.97E-03
137.2,3.76134,3.46E+00,2.09E-03
137.8,3.78047,3.47E+00,1.12E-03
138.4,3.80021,3.49E+00,1.00E-03
139,3.81942,3.49E+00,1.05E-03
139.6,3.8387,3.50E+00,6.88E-04
140.2,3.85851,3.51E+00,-3.17E-05
140.8,3.87755,3.52E+00,8.88E-05
141.4,3.89712,3.53E+00,2.02E-04
142,3.91645,3.53E+00,2.89E-04
142.6,3.93563,3.54E+00,3.67E-04
143.2,3.95488,3.55E+00,4.47E-04
143.8,3.97467,3.55E+00,5.24E-04
144.4,3.99377,3.57E+00,6.00E-04
145,4.01282,3.58E+00,6.77E-04
145.6,4.03209,3.58E+00,7.51E-04
146.2,4.05149,3.59E+00,8.25E-04
146.8,4.07048,3.60E+00,8.98E-04
147.4,4.08968,3.61E+00,9.67E-04
148,4.1084,3.62E+00,1.03E-03
148.6,4.12775,3.63E+00,1.12E-03
149.2,4.14677,3.64E+00,1.20E-03
149.8,4.16585,3.65E+00,1.28E-03
150.4,4.18468,3.66E+00,1.36E-03
151,4.20397,3.66E+00,1.44E-03
151.6,4.22304,3.67E+00,1.52E-03
152.2,4.242,3.69E+00,1.59E-03
152.8,4.26104,3.69E+00,1.66E-03
153.4,4.28019,3.70E+00,1.73E-03
154,4.29811,3.71E+00,1.79E-03
154.6,4.31797,3.72E+00,1.86E-03
155.2,4.33731,3.73E+00,1.93E-03
155.8,4.35591,3.73E+00,2.00E-03
156.4,4.37477,3.74E+00,2.07E-03
157,4.39354,3.75E+00,2.12E-03
157.6,4.413,3.76E+00,2.18E-03
158.2,4.43149,3.77E+00,2.22E-03
158.8,4.45031,3.78E+00,2.27E-03
159.4,4.46935,3.78E+00,2.39E-03
160,4.48868,3.79E+00,1.08E-03
160.6,4.50708,3.80E+00,1.03E-03
161.2,4.526,3.81E+00,1.05E-03
161.8,4.54461,3.82E+00,1.08E-03
162.4,4.56352,3.82E+00,1.10E-03
163,4.5822,3.83E+00,1.12E-03
163.6,4.60133,3.84E+00,1.14E-03
164.2,4.61979,3.84E+00,1.07E-03
164.8,4.63845,3.86E+00,2.45E-03
165.4,4.65744,3.86E+00,2.53E-03
166,4.67642,3.87E+00,2.55E-03
166.6,4.69503,3.88E+00,2.55E-03
167.2,4.71344,3.89E+00,1.26E-03
167.8,4.73244,3.89E+00,1.28E-03
168.4,4.75108,3.89E+00,1.29E-03
169,4.76989,3.91E+00,1.32E-03
169.6,4.7884,3.91E+00,1.34E-03
170.2,4.80704,3.92E+00,1.36E-03
170.8,4.82596,3.93E+00,1.39E-03
171.4,4.8446,3.94E+00,1.41E-03
172,4.86326,3.94E+00,1.43E-03
172.6,4.88177,3.95E+00,1.44E-03
173.2,4.90058,3.96E+00,1.47E-03
173.8,4.91914,3.98E+00,5.67E-04
174.4,4.9377,3.98E+00,2.02E-04
175,4.95618,3.98E+00,1.86E-04
175.6,4.97497,3.99E+00,1.89E-04
176.2,4.99309,4.00E+00,1.91E-04
176.8,5.01168,4.01E+00,1.93E-04
177.4,5.02986,4.01E+00,1.95E-04
178,5.04862,4.02E+00,1.99E-04
178.6,5.0675,4.01E+00,2.05E-04
179.2,5.08599,4.02E+00,2.23E-04
179.8,5.1043,4.04E+00,1.57E-03
180.4,5.1228,4.05E+00,1.52E-03
181,5.1413,4.05E+00,1.50E-03
181.6,5.15991,4.06E+00,1.48E-03
182.2,5.17788,4.07E+00,1.46E-03
182.8,5.19621,4.07E+00,1.43E-03
183.4,5.21475,4.07E+00,1.39E-03
184,5.23323,4.09E+00,1.21E-04
184.6,5.25155,4.10E+00,1.06E-04
185.2,5.27016,4.10E+00,1.06E-04
185.8,5.28819,4.11E+00,1.05E-04
186.4,5.30622,4.12E+00,9.65E-05
187,5.32488,4.13E+00,8.64E-05
187.6,5.34309,4.12E+00,7.55E-05
188.2,5.36157,4.13E+00,6.31E-05
188.8,5.37947,4.13E+00,4.70E-05
189.4,5.39783,4.15E+00,4.52E-07
190,5.41612,4.16E+00,9.01E-04
190.6,5.43439,4.16E+00,1.34E-03
191.2,5.45276,4.16E+00,1.34E-03
191.8,5.47085,4.16E+00,1.34E-03
192.4,5.48913,4.18E+00,1.33E-03
193,5.5072,4.19E+00,1.32E-03
193.6,5.52537,4.20E+00,1.32E-03
194.2,5.54361,4.21E+00,1.31E-03
194.8,5.56191,4.22E+00,1.31E-03
195.4,5.58016,4.24E+00,1.30E-03
196,5.59831,4.24E+00,1.30E-03
196.6,5.61625,4.25E+00,1.30E-03
197.2,5.63378,4.26E+00,1.29E-03
197.8,5.65201,4.28E+00,1.28E-03
198.4,5.67128,4.29E+00,1.26E-03
199,5.68886,4.30E+00,1.23E-03
199.6,5.70713,4.31E+00,1.21E-03
200.2,5.72521,4.33E+00,1.19E-03
200.8,5.74298,4.35E+00,1.17E-03
201.4,5.76167,4.37E+00,1.15E-03
202,5.77964,4.40E+00,1.12E-03
202.6,5.79744,4.42E+00,1.10E-03
203.2,5.81594,4.45E+00,1.08E-03
203.8,5.83413,4.48E+00,1.06E-03
204.4,5.85193,4.50E+00,1.04E-03
205,5.87074,4.53E+00,1.47E-03
205.6,5.88861,4.57E+00,1.62E-03
206.2,5.90681,4.60E+00,1.61E-03
206.8,5.92477,4.63E+00,1.58E-03
207.4,5.94299,4.65E+00,1.56E-03
208,5.96127,4.68E+00,1.54E-03
208.6,5.97907,4.71E+00,1.51E-03
209.2,5.99721,4.74E+00,1.48E-03
209.8,6.0154,4.75E+00,1.45E-03
210.4,6.03336,4.76E+00,1.43E-03
211,6.05167,4.78E+00,1.40E-03
211.6,6.06943,4.78E+00,1.38E-03
212.2,6.08742,4.80E+00,1.35E-03
212.8,6.10492,4.81E+00,1.32E-03
213.4,6.12271,4.82E+00,1.31E-03
214,6.14098,4.83E+00,1.30E-03
214.6,6.15933,4.85E+00,1.27E-03
215.2,6.1773,4.84E+00,1.24E-03
215.8,6.19585,4.85E+00,1.22E-03
216.4,6.2134,4.86E+00,1.19E-03
217,6.23161,4.86E+00,1.16E-03
217.6,6.24954,4.87E+00,1.14E-03
218.2,6.26746,4.88E+00,1.11E-03
218.8,6.28527,4.88E+00,1.08E-03
219.4,6.3035,4.88E+00,1.04E-03
220,6.32118,4.89E+00,1.00E-03
220.6,6.33911,4.89E+00,9.60E-04
221.2,6.35741,4.89E+00,9.00E-04
221.8,6.37506,4.90E+00,1.24E-03
222.4,6.39334,4.90E+00,1.17E-03
223,6.41111,4.91E+00,1.13E-03
223.6,6.42892,4.92E+00,1.09E-03
224.2,6.44635,4.91E+00,1.05E-03
224.8,6.46452,4.92E+00,1.01E-03
225.4,6.48266,4.92E+00,9.72E-04
226,6.50029,4.93E+00,9.26E-04
226.6,6.51843,4.93E+00,6.32E-04
227.2,6.53661,4.94E+00,-1.11E-04
227.8,6.55453,4.94E+00,-1.36E-04
228.4,6.57207,4.94E+00,-1.75E-04
229,6.5901,4.95E+00,-2.15E-04
229.6,6.60804,4.96E+00,-2.59E-04
230.2,6.62604,4.97E+00,2.15E-04
230.8,6.64318,4.97E+00,9.75E-04
231.4,6.66104,4.98E+00,9.35E-04
232,6.67961,4.99E+00,8.95E-04
232.6,6.69775,4.99E+00,8.57E-04
233.2,6.71557,5.00E+00,8.25E-04
233.8,6.73302,5.01E+00,7.92E-04
234.4,6.75131,5.02E+00,7.59E-04
235,6.76923,5.03E+00,7.23E-04
235.6,6.78689,5.03E+00,6.85E-04
236.2,6.80503,5.04E+00,6.48E-04
236.8,6.82262,5.04E+00,6.08E-04
237.4,6.84043,5.06E+00,5.67E-04
238,6.85845,5.06E+00,5.26E-04
238.6,6.87625,5.08E+00,4.85E-04
239.2,6.8942,5.09E+00,4.57E-04
239.8,6.91181,5.10E+00,3.55E-04
240.4,6.92953,5.12E+00,1.68E-03
241,6.94758,5.13E+00,1.69E-03
241.6,6.96561,5.14E+00,1.65E-03
242.2,6.98322,5.15E+00,1.61E-03
242.8,7.00143,5.16E+00,1.58E-03
243.4,7.01917,5.18E+00,1.55E-03
244,7.03678,5.19E+00,1.52E-03
244.6,7.05447,5.20E+00,1.48E-03
245.2,7.07242,5.22E+00,1.45E-03
245.8,7.09045,5.23E+00,1.42E-03
246.4,7.10813,5.23E+00,1.39E-03
247,7.12621,5.23E+00,1.36E-03
247.6,7.14375,5.24E+00,1.32E-03
248.2,7.16174,5.24E+00,1.29E-03
248.8,7.17935,5.24E+00,1.25E-03
249.4,7.19706,5.25E+00,1.21E-03
250,7.21492,5.25E+00,1.18E-03
250.6,7.23287,5.26E+00,2.39E-03
251.2,7.25054,5.26E+00,2.39E-03
251.8,7.26866,5.27E+00,2.36E-03
252.4,7.28598,5.27E+00,2.32E-03
253,7.30383,5.27E+00,2.27E-03
253.6,7.32134,5.28E+00,2.24E-03
254.2,7.3397,5.28E+00,2.21E-03
254.8,7.35734,5.28E+00,2.18E-03
255.4,7.37528,5.28E+00,2.15E-03
256,7.39301,5.30E+00,2.13E-03
256.6,7.41079,5.30E+00,2.11E-03
257.2,7.42857,5.30E+00,2.08E-03
257.8,7.44641,5.30E+00,2.04E-03
258.4,7.46392,5.31E+00,2.00E-03
259,7.48188,5.32E+00,1.73E-03
259.6,7.49964,5.33E+00,8.84E-04
260.2,7.51747,5.34E+00,8.91E-04
260.8,7.53533,5.33E+00,8.58E-04
261.4,7.55308,5.34E+00,8.21E-04
262,7.5707,5.35E+00,7.85E-04
262.6,7.58846,5.36E+00,7.39E-04
263.2,7.60633,5.36E+00,1.28E-03
263.8,7.62399,5.36E+00,1.96E-03
264.4,7.64202,5.36E+00,1.92E-03
265,7.65947,5.37E+00,1.87E-03
265.6,7.6774,5.37E+00,1.82E-03
266.2,7.69526,5.38E+00,1.77E-03
266.8,7.71222,5.39E+00,1.97E-03
267.4,7.72998,5.39E+00,3.04E-03
268,7.74795,5.40E+00,2.92E-03
268.6,7.76644,5.41E+00,2.85E-03
269.2,7.78393,5.42E+00,2.79E-03
269.8,7.80162,5.41E+00,2.74E-03
270.4,7.81978,5.42E+00,2.69E-03
271,7.83744,5.43E+00,2.64E-03
271.6,7.85509,5.44E+00,2.59E-03
272.2,7.87273,5.44E+00,2.54E-03
272.8,7.8907,5.44E+00,2.46E-03
273.4,7.90863,5.45E+00,2.95E-03
274,7.92608,5.44E+00,3.04E-03
274.6,7.94399,5.46E+00,2.99E-03
275.2,7.96177,5.47E+00,3.62E-03
275.8,7.97926,5.48E+00,3.54E-03
276.4,7.99704,5.48E+00,3.49E-03
277,8.01441,5.48E+00,3.44E-03
277.6,8.03229,5.48E+00,3.39E-03
278.2,8.05031,5.49E+00,3.34E-03
278.8,8.06816,5.50E+00,3.28E-03
279.4,8.08615,5.50E+00,3.23E-03
280,8.10384,5.51E+00,3.18E-03
280.6,8.12186,5.51E+00,3.14E-03
281.2,8.13948,5.51E+00,3.10E-03
281.8,8.15732,5.51E+00,3.05E-03
282.4,8.17503,5.52E+00,3.00E-03
283,8.19291,5.54E+00,2.95E-03
283.6,8.21057,5.54E+00,2.90E-03
284.2,8.22842,5.54E+00,2.85E-03
284.8,8.24602,5.55E+00,2.78E-03
285.4,8.26402,5.53E+00,2.72E-03
286,8.28194,5.54E+00,2.66E-03
286.6,8.29958,5.55E+00,2.51E-03
287.2,8.31738,5.56E+00,3.77E-03
287.8,8.33503,5.56E+00,3.82E-03
288.4,8.35307,5.56E+00,3.76E-03
289,8.37079,5.55E+00,3.70E-03
289.6,8.38845,5.56E+00,3.64E-03
290.2,8.4065,5.56E+00,3.58E-03
290.8,8.42425,5.58E+00,3.52E-03
291.4,8.44206,5.58E+00,3.47E-03
292,8.45958,5.58E+00,3.42E-03
292.6,8.47778,5.57E+00,3.38E-03
293.2,8.49564,5.58E+00,3.33E-03
293.8,8.51329,5.58E+00,3.27E-03
294.4,8.531,5.59E+00,3.22E-03
295,8.54891,5.58E+00,3.16E-03
295.6,8.56659,5.59E+00,3.10E-03
296.2,8.5839,5.59E+00,3.04E-03
296.8,8.60237,5.59E+00,2.98E-03
297.4,8.62015,5.60E+00,2.93E-03
298,8.63813,5.60E+00,2.90E-03
298.6,8.65548,5.60E+00,2.98E-03
299.2,8.67358,5.60E+00,4.08E-03
299.8,8.69153,5.61E+00,4.02E-03
300.4,8.70918,5.61E+00,3.97E-03
301,8.72676,5.61E+00,3.91E-03
301.6,8.74486,5.61E+00,3.85E-03
302.2,8.76259,5.61E+00,3.80E-03
302.8,8.78057,5.61E+00,3.74E-03
303.4,8.79816,5.61E+00,3.68E-03
304,8.81595,5.61E+00,3.59E-03
304.6,8.83391,5.61E+00,4.55E-03
305.2,8.85183,5.61E+00,4.82E-03
305.8,8.86939,5.62E+00,4.76E-03
306.4,8.88718,5.62E+00,4.70E-03
307,8.90503,5.62E+00,4.65E-03
307.6,8.92317,5.64E+00,4.59E-03
308.2,8.94083,5.64E+00,4.54E-03
308.8,8.95876,5.64E+00,4.48E-03
309.4,8.97652,5.65E+00,4.44E-03
310,8.99453,5.65E+00,3.63E-03
310.6,9.01234,5.65E+00,3.28E-03
311.2,9.03016,5.65E+00,3.21E-03
311.8,9.04793,5.66E+00,3.15E-03
312.4,9.06587,5.66E+00,3.08E-03
313,9.08334,5.66E+00,3.02E-03
313.6,9.10115,5.66E+00,2.97E-03
314.2,9.11867,5.66E+00,2.91E-03
314.8,9.13672,5.67E+00,3.50E-03
315.4,9.15488,5.68E+00,4.10E-03
316,9.1732,5.68E+00,4.05E-03
316.6,9.1908,5.68E+00,3.99E-03
317.2,9.20851,5.68E+00,3.93E-03
317.8,9.22649,5.68E+00,3.87E-03
318.4,9.2445,5.69E+00,3.81E-03
319,9.26235,5.69E+00,3.75E-03
319.6,9.27993,5.69E+00,3.60E-03
320.2,9.29798,5.70E+00,4.87E-03
320.8,9.31571,5.70E+00,4.89E-03
321.4,9.3335,5.70E+00,4.82E-03
322,9.35141,5.70E+00,4.77E-03
322.6,9.36932,5.71E+00,4.71E-03
323.2,9.38734,5.71E+00,4.66E-03
323.8,9.40539,5.71E+00,4.60E-03
324.4,9.42314,5.71E+00,4.54E-03
325,9.4406,5.71E+00,4.49E-03
325.6,9.45885,5.71E+00,4.43E-03
326.2,9.47681,5.71E+00,4.37E-03
326.8,9.49466,5.71E+00,4.31E-03
327.4,9.51283,5.71E+00,4.25E-03
328,9.53029,5.72E+00,4.19E-03
328.6,9.54823,5.72E+00,4.14E-03
329.2,9.56631,5.73E+00,4.08E-03
329.8,9.58428,5.73E+00,4.02E-03
330.4,9.60205,5.73E+00,3.96E-03
331,9.62005,5.73E+00,3.89E-03
331.6,9.63801,5.73E+00,3.82E-03
332.2,9.65577,5.73E+00,3.75E-03
332.8,9.67403,5.73E+00,3.67E-03
333.4,9.69179,5.74E+00,3.61E-03
334,9.70959,5.74E+00,3.55E-03
334.6,9.7275,5.74E+00,3.49E-03
335.2,9.7454,5.75E+00,3.43E-03
335.8,9.76356,5.75E+00,3.37E-03
336.4,9.78105,5.74E+00,3.26E-03
337,9.79955,5.75E+00,4.35E-03
337.6,9.81737,5.75E+00,4.49E-03
338.2,9.83529,5.75E+00,4.44E-03
338.8,9.85321,5.75E+00,4.37E-03
339.4,9.87123,5.75E+00,4.31E-03
340,9.8893,5.75E+00,4.24E-03
340.6,9.90699,5.76E+00,4.18E-03
341.2,9.92515,5.75E+00,4.12E-03
341.8,9.94333,5.76E+00,4.06E-03
342.4,9.96105,5.75E+00,3.98E-03
343,9.97933,5.76E+00,3.91E-03
343.6,9.99743,5.76E+00,3.83E-03
344.2,10.0151,5.76E+00,3.75E-03
344.8,10.0333,5.76E+00,3.67E-03
345.4,10.0511,5.75E+00,3.58E-03
346,10.069,5.75E+00,3.50E-03
346.6,10.0874,5.76E+00,3.41E-03
347.2,10.1052,5.76E+00,3.32E-03
347.8,10.1234,5.76E+00,3.23E-03
348.4,10.1413,5.76E+00,4.27E-03
349,10.1592,5.76E+00,4.35E-03
349.6,10.1776,5.75E+00,4.29E-03
350.2,10.1953,5.75E+00,4.21E-03
350.8,10.2132,5.76E+00,4.13E-03
351.4,10.2312,5.76E+00,4.04E-03
352,10.2497,5.76E+00,3.95E-03
352.6,10.2673,5.76E+00,3.86E-03
353.2,10.2854,5.76E+00,3.77E-03
353.8,10.3038,5.76E+00,3.67E-03
354.4,10.3217,5.76E+00,3.56E-03
355,10.3398,5.76E+00,3.46E-03
355.6,10.3578,5.75E+00,3.36E-03
356.2,10.376,5.75E+00,3.26E-03
356.8,10.3941,5.75E+00,3.16E-03
357.4,10.4118,5.75E+00,3.03E-03
358,10.43,5.75E+00,3.30E-03
358.6,10.4483,5.75E+00,3.18E-03
359.2,10.4656,5.74E+00,3.07E-03
359.8,10.4838,5.74E+00,2.98E-03
360.4,10.5018,5.75E+00,2.89E-03
361,10.5202,5.74E+00,2.80E-03
361.6,10.5387,5.75E+00,2.71E-03
362.2,10.5568,5.74E+00,2.61E-03
362.8,10.5747,5.75E+00,2.50E-03
363.4,10.593,5.73E+00,2.40E-03
364,10.611,5.73E+00,2.30E-03
364.6,10.6293,5.74E+00,2.19E-03
365.2,10.6472,5.74E+00,2.08E-03
365.8,10.6656,5.73E+00,1.96E-03
366.4,10.6837,5.73E+00,2.54E-03
367,10.7018,5.73E+00,2.45E-03
367.6,10.7198,5.74E+00,2.55E-03
368.2,10.7376,5.74E+00,2.56E-03
368.8,10.7561,5.74E+00,2.46E-03
369.4,10.7744,5.73E+00,2.36E-03
370,10.7926,5.73E+00,2.25E-03
370.6,10.8105,5.74E+00,2.15E-03
371.2,10.8287,5.73E+00,2.05E-03
371.8,10.8467,5.74E+00,1.96E-03
372.4,10.8648,5.74E+00,1.86E-03
373,10.8833,5.74E+00,1.76E-03
373.6,10.9013,5.74E+00,1.67E-03
374.2,10.9198,5.74E+00,1.57E-03
374.8,10.938,5.74E+00,1.46E-03
375.4,10.956,5.75E+00,1.36E-03
376,10.9743,5.74E+00,1.25E-03
376.6,10.9917,5.75E+00,1.14E-03
377.2,11.0099,5.75E+00,1.03E-03
377.8,11.0291,5.74E+00,9.17E-04
378.4,11.0472,5.74E+00,8.07E-04
379,11.0653,5.75E+00,6.95E-04
379.6,11.0833,5.75E+00,5.73E-04
380.2,11.1017,5.75E+00,4.56E-04
380.8,11.1199,5.74E+00,3.37E-04
381.4,11.1379,5.74E+00,2.15E-04
382,11.1562,5.74E+00,1.04E-04
382.6,11.1745,5.74E+00,-5.53E-06
383.2,11.1924,5.75E+00,1.12E-03
383.8,11.2109,5.75E+00,1.05E-03
384.4,11.2292,5.75E+00,9.30E-04
385,11.2475,5.75E+00,7.99E-04
385.6,11.2656,5.75E+00,6.63E-04
386.2,11.2842,5.74E+00,5.32E-04
386.8,11.3021,5.75E+00,-2.72E-04
387.4,11.3203,5.75E+00,-3.99E-04
388,11.3386,5.75E+00,-5.36E-04
388.6,11.3569,5.74E+00,-6.76E-04
389.2,11.3752,5.75E+00,-8.10E-04
389.8,11.3935,5.74E+00,3.49E-04
390.4,11.4117,5.74E+00,2.09E-04
391,11.4302,5.74E+00,7.82E-05
391.6,11.4481,5.75E+00,-6.16E-05
392.2,11.4666,5.75E+00,-2.03E-04
392.8,11.4846,5.74E+00,-3.57E-04
393.4,11.5031,5.74E+00,-5.13E-04
394,11.5214,5.75E+00,-6.68E-04
394.6,11.5397,5.74E+00,-8.20E-04
395.2,11.558,5.74E+00,-9.72E-04
395.8,11.5765,5.74E+00,-1.12E-03
396.4,11.5947,5.74E+00,-1.25E-03
397,11.6131,5.73E+00,-1.12E-03
397.6,11.6312,5.74E+00,-9.00E-04
398.2,11.6498,5.74E+00,-9.17E-04
398.8,11.6677,5.73E+00,-5.64E-04
399.4,11.6862,5.73E+00,-7.46E-04
400,11.7043,5.72E+00,-8.75E-04
400.6,11.7229,5.73E+00,2.22E-04
401.2,11.7413,5.73E+00,7.20E-05
401.8,11.7595,5.73E+00,-7.93E-05
402.4,11.7782,5.73E+00,-2.35E-04
403,11.7963,5.73E+00,-3.96E-04
403.6,11.8149,5.73E+00,-5.75E-04
404.2,11.8328,5.73E+00,-7.54E-04
404.8,11.8513,5.73E+00,-9.48E-04
405.4,11.8698,5.73E+00,-1.15E-03
406,11.8881,5.74E+00,-1.35E-03
406.6,11.9068,5.73E+00,-1.54E-03
407.2,11.925,5.73E+00,-1.73E-03
407.8,11.9434,5.74E+00,-1.91E-03
408.4,11.9617,5.74E+00,-2.11E-03
409,11.98,5.74E+00,-2.30E-03
409.6,11.9986,5.75E+00,-2.51E-03
410.2,12.0168,5.75E+00,-2.72E-03
410.8,12.0352,5.74E+00,-2.93E-03
411.4,12.0537,5.74E+00,-3.15E-03
412,12.0723,5.74E+00,-4.89E-03
412.6,12.0908,5.74E+00,-5.79E-03
413.2,12.109,5.75E+00,-6.65E-03
413.8,12.1275,5.74E+00,-6.85E-03
414.4,12.1461,5.74E+00,-7.07E-03
415,12.1645,5.74E+00,-6.89E-03
415.6,12.1828,5.74E+00,-5.92E-03
416.2,12.2013,5.74E+00,-4.31E-03
416.8,12.2196,5.74E+00,-3.46E-03
417.4,12.238,5.74E+00,-3.32E-03
418,12.2566,5.74E+00,-3.52E-03
418.6,12.2748,5.76E+00,-2.41E-03
419.2,12.2935,5.75E+00,-2.67E-03
419.8,12.312,5.75E+00,-2.92E-03
420.4,12.3304,5.76E+00,-3.17E-03
421,12.3488,5.76E+00,-3.43E-03
421.6,12.3673,5.76E+00,-3.70E-03
422.2,12.3858,5.76E+00,-3.98E-03
422.8,12.4043,5.76E+00,-4.25E-03
423.4,12.4228,5.77E+00,-4.54E-03
424,12.4413,5.77E+00,-4.79E-03
424.6,12.46,5.77E+00,-5.17E-03
425.2,12.478,5.76E+00,-4.16E-03
425.8,12.4967,5.76E+00,-4.40E-03
426.4,12.5149,5.75E+00,-4.76E-03
427,12.5328,5.76E+00,-5.12E-03
427.6,12.552,5.76E+00,-5.50E-03
428.2,12.5705,5.77E+00,-5.88E-03
428.8,12.589,5.76E+00,-6.27E-03
429.4,12.6078,5.77E+00,-7.99E-03
430,12.6262,5.77E+00,-8.29E-03
430.6,12.6447,5.77E+00,-8.68E-03
431.2,12.6627,5.78E+00,-9.11E-03
431.8,12.6814,5.78E+00,-9.60E-03
432.4,12.7005,5.77E+00,-8.88E-03
433,12.7189,5.78E+00,-9.09E-03
433.6,12.7372,5.78E+00,-9.58E-03
434.2,12.7558,5.79E+00,-1.01E-02
434.8,12.7745,5.78E+00,-1.06E-02
435.4,12.7927,5.78E+00,-1.11E-02
436,12.8116,5.79E+00,-1.17E-02
436.6,12.83,5.80E+00,-1.23E-02
437.2,12.8489,5.80E+00,-1.28E-02
437.8,12.8671,5.79E+00,-1.34E-02
438.4,12.8858,5.80E+00,-1.40E-02
439,12.9043,5.79E+00,-1.47E-02
439.6,12.9227,5.79E+00,-1.53E-02
440.2,12.9414,5.80E+00,-1.60E-02
440.8,12.9602,5.80E+00,-1.61E-02
441.4,12.9786,5.81E+00,-1.61E-02
442,12.9972,5.81E+00,-1.68E-02
442.6,13.0157,5.80E+00,-1.76E-02
443.2,13.0343,5.80E+00,-1.84E-02
443.8,13.053,5.80E+00,-1.93E-02
444.4,13.0712,5.80E+00,-2.01E-02
445,13.0899,5.80E+00,-2.09E-02
445.6,13.1086,5.80E+00,-2.18E-02
446.2,13.1273,5.80E+00,-2.27E-02
446.8,13.146,5.80E+00,-2.37E-02
447.4,13.1645,5.80E+00,-2.47E-02
448,13.1833,5.80E+00,-2.57E-02
448.6,13.2018,5.80E+00,-2.68E-02
449.2,13.2204,5.80E+00,-2.77E-02
449.8,13.2389,5.81E+00,-2.89E-02
450.4,13.2575,5.80E+00,-3.01E-02
451,13.2762,5.80E+00,-3.12E-02
451.6,13.2947,5.81E+00,-3.12E-02
452.2,13.3135,5.81E+00,-3.25E-02
452.8,13.332,5.82E+00,-3.36E-02
453.4,13.3507,5.82E+00,-3.50E-02
454,13.3692,5.83E+00,-3.64E-02
454.6,13.3882,5.83E+00,-3.79E-02
455.2,13.4062,5.84E+00,-3.94E-02
455.8,13.4252,5.84E+00,-4.10E-02
456.4,13.4441,5.85E+00,-4.19E-02
457,13.4628,5.86E+00,-4.27E-02
457.6,13.4811,5.86E+00,-4.43E-02
458.2,13.4999,5.86E+00,-4.61E-02
458.8,13.5185,5.86E+00,-4.81E-02
459.4,13.5372,5.87E+00,-5.10E-02
460,13.5561,5.88E+00,-5.29E-02
460.6,13.5743,5.87E+00,-5.48E-02
461.2,13.5932,5.87E+00,-5.65E-02
461.8,13.6119,5.86E+00,-5.85E-02
462.4,13.6306,5.86E+00,-6.07E-02
463,13.6491,5.86E+00,-6.15E-02
463.6,13.6678,5.86E+00,-6.37E-02
464.2,13.6867,5.85E+00,-6.60E-02
464.8,13.7056,5.86E+00,-6.83E-02
465.4,13.7242,5.85E+00,-7.07E-02
466,13.7422,5.85E+00,-7.28E-02
466.6,13.7613,5.83E+00,-7.53E-02
467.2,13.7801,5.85E+00,-7.80E-02
467.8,13.7992,5.88E+00,-8.08E-02
468.4,13.8177,5.91E+00,-8.36E-02
469,13.8365,5.91E+00,-8.70E-02
469.6,13.8553,5.94E+00,-9.03E-02
470.2,13.8738,5.94E+00,-9.34E-02
470.8,13.8927,5.94E+00,-9.62E-02
471.4,13.9115,5.95E+00,-9.96E-02
472,13.9304,5.97E+00,-0.10305
472.6,13.9491,6.00E+00,-0.10663
473.2,13.9679,6.03E+00,-0.11032
473.8,13.9865,6.04E+00,-0.11417
474.4,14.0054,6.07E+00,-0.11817
475,14.0244,6.08E+00,-0.12233
475.6,14.0431,6.08E+00,-0.12591
476.2,14.0619,6.08E+00,-0.1303
476.8,14.0808,6.09E+00,-0.13488
477.4,14.0994,6.11E+00,-0.13963
478,14.1185,6.14E+00,-0.14458
478.6,14.1373,6.16E+00,-0.1497
479.2,14.1561,6.19E+00,-0.15505
479.8,14.1745,6.18E+00,-0.16062
480.4,14.1936,6.21E+00,-0.16537
481,14.2126,6.23E+00,-0.17141
481.6,14.2313,6.27E+00,-0.17653
482.2,14.2501,6.30E+00,-0.18305
482.8,14.2693,6.33E+00,-0.18974
483.4,14.2882,6.37E+00,-0.19675
484,14.3069,6.42E+00,-0.20401
484.6,14.3259,6.45E+00,-0.21156
485.2,14.3446,6.49E+00,-0.2194
485.8,14.3638,6.52E+00,-0.22757
486.4,14.3826,6.54E+00,-0.23606
487,14.4014,6.58E+00,-0.24455
487.6,14.4202,6.63E+00,-0.2539
488.2,14.4393,6.70E+00,-0.2613
488.8,14.4582,6.71E+00,-0.2713
489.4,14.4771,6.75E+00,-0.28153
490,14.4962,6.80E+00,-0.29215
490.6,14.515,6.84E+00,-0.30319
491.2,14.5339,6.90E+00,-0.31467
491.8,14.5532,6.98E+00,-0.32718
492.4,14.5722,7.03E+00,-0.33986
493,14.591,7.03E+00,-0.35264
493.6,14.6098,7.04E+00,-0.3658
494.2,14.6289,7.13E+00,-0.37948
494.8,14.6478,7.22E+00,-0.39368
495.4,14.667,7.27E+00,-0.40857
496,14.6859,7.30E+00,-0.42159
496.6,14.7052,7.38E+00,-0.43753
497.2,14.7241,7.41E+00,-0.45377
497.8,14.743,7.44E+00,-0.46932
498.4,14.7619,7.48E+00,-0.4866
499,14.781,7.58E+00,-0.50452
499.6,14.8,7.64E+00,-0.52302
500.2,14.8188,7.66E+00,-0.54217
500.8,14.8379,7.71E+00,-0.56189
501.4,14.8571,7.77E+00,-0.58223
502,14.8764,7.85E+00,-0.60329
502.6,14.8951,7.89E+00,-0.62495
503.2,14.9145,7.98E+00,-0.64729
503.8,14.9335,8.09E+00,-0.67012
504.4,14.9524,8.09E+00,-0.69358
505,14.9709,8.07E+00,-0.71781
505.6,14.9896,8.07E+00,-0.74167
506.2,15.0094,8.16E+00,-0.76591
506.8,15.0286,8.25E+00,-0.79159
507.4,15.0476,8.27E+00,-0.81896
508,15.0667,8.37E+00,-0.84688
508.6,15.0857,8.48E+00,-0.87561
509.2,15.1045,8.49E+00,-0.90504
509.8,15.1238,8.48E+00,-0.93548
510.4,15.1426,8.52E+00,-0.96674
511,15.1622,8.66E+00,-1.00027
511.6,15.1815,8.80E+00,-1.03329
512.2,15.2006,8.83E+00,-1.06673
512.8,15.2195,8.83E+00,-1.10004
513.4,15.2385,8.90E+00,-1.13535
514,15.2576,8.96E+00,-1.17144
514.6,15.2769,8.94E+00,-1.20834
515.2,15.2955,8.94E+00,-1.24603
515.8,15.3145,8.98E+00,-1.28439
516.4,15.3337,9.04E+00,-1.32374
517,15.3525,9.02E+00,-1.36451
517.6,15.3716,9.06E+00,-1.40601
518.2,15.3908,9.07E+00,-1.44794
518.8,15.4094,9.06E+00,-1.49064
519.4,15.4285,9.09E+00,-1.5329
520,15.4476,9.11E+00,-1.57737
520.6,15.4669,9.15E+00,-1.62261
521.2,15.4859,9.20E+00,-1.66709
521.8,15.5049,9.25E+00,-1.71332
522.4,15.5239,9.25E+00,-1.76015
523,15.5431,9.28E+00,-1.80726
523.6,15.5621,9.31E+00,-1.85467
524.2,15.5811,9.30E+00,-1.90229
524.8,15.6002,9.30E+00,-1.94975
525.4,15.6194,9.31E+00,-1.99722
526,15.6381,9.29E+00,-2.04444
526.6,15.6571,9.26E+00,-2.09115
527.2,15.6761,9.19E+00,-2.1375
527.8,15.6947,9.12E+00,-2.18281
528.4,15.7135,9.03E+00,-2.22711
529,15.7324,8.91E+00,-2.27111
529.6,15.7509,8.76E+00,-2.31282
530.2,15.7695,8.58E+00,-2.35275
530.8,15.7879,8.36E+00,-2.39084
531.4,15.8064,8.11E+00,-2.42728
532,15.825,7.83E+00,-2.46196
532.6,15.8427,7.53E+00,-2.49453
533.2,15.8608,7.15E+00,-2.52481
533.8,15.879,6.79E+00,-2.55312
534.4,15.8972,6.42E+00,-2.57747
535,15.9148,6.05E+00,-2.59734
535.6,15.9326,5.67E+00,-2.62127
536.2,15.9511,5.30E+00,-2.64495
536.8,15.969,4.92E+00,-2.66746
537.4,15.9868,4.55E+00,-2.68804
538,16.0049,4.21E+00,-2.70657
538.6,16.0229,3.91E+00,-2.72409
539.2,16.041,3.62E+00,-2.74145
539.8,16.0588,3.36E+00,-2.75823
540.4,16.0773,3.13E+00,-2.77355
541,16.0956,2.91E+00,-2.78625
541.6,16.1138,2.72E+00,-2.79673
542.2,16.1324,2.54E+00,-2.80534
542.8,16.1509,2.37E+00,-2.81249
543.4,16.1693,2.24E+00,-2.81962
544,16.1878,2.12E+00,-2.8286
544.6,16.2065,2.03E+00,-2.83669
545.2,16.2254,1.93E+00,-2.84239
545.8,16.2438,1.84E+00,-2.84573
546.4,16.2627,1.78E+00,-2.85049
547,16.2817,1.74E+00,-2.85555
547.6,16.3004,1.70E+00,-2.86081
548.2,16.3193,1.68E+00,-2.86626
548.8,16.3382,1.66E+00,-2.8723
549.4,16.3574,1.65E+00,-2.88088
550,16.3763,1.62E+00,-2.89064
550.6,16.3953,1.62E+00,-2.89986
551.2,16.4142,1.62E+00,-2.90749
551.8,16.4333,1.62E+00,-2.91327
552.4,16.4521,1.62E+00,-2.91895
553,16.4711,1.62E+00,-2.92422
553.6,16.49,1.62E+00,-2.93126
554.2,16.509,1.63E+00,-2.9366
554.8,16.5282,1.65E+00,-2.94116
555.4,16.5476,1.65E+00,-2.94753
556,16.5667,1.63E+00,-2.95836
556.6,16.5857,1.65E+00,-2.97135
557.2,16.6048,1.66E+00,-2.98443
557.8,16.6237,1.67E+00,-2.997
558.4,16.6429,1.68E+00,-3.00804
559,16.6619,1.69E+00,-3.01791
559.6,16.6812,1.68E+00,-3.02857
560.2,16.7001,1.69E+00,-3.04352
560.8,16.7193,1.70E+00,-3.05655
561.4,16.7383,1.71E+00,-3.06956
562,16.7578,1.71E+00,-3.08196
562.6,16.7769,1.71E+00,-3.09358
563.2,16.7964,1.70E+00,-3.10506
563.8,16.8153,1.70E+00,-3.11678
564.4,16.8343,1.68E+00,-3.12767
565,16.8541,1.69E+00,-3.13656
565.6,16.8733,1.70E+00,-3.14354
566.2,16.8929,1.69E+00,-3.15104
566.8,16.9125,1.68E+00,-3.15968
567.4,16.9314,1.68E+00,-3.16992
568,16.951,1.67E+00,-3.18052
568.6,16.9703,1.68E+00,-3.19071
569.2,16.9896,1.69E+00,-3.20035
569.8,17.0089,1.70E+00,-3.20976
570.4,17.0281,1.68E+00,-3.21697
571,17.0472,1.68E+00,-3.22462
571.6,17.0669,1.69E+00,-3.23361
572.2,17.086,1.68E+00,-3.23995
572.8,17.1052,1.68E+00,-3.24486
573.4,17.1245,1.68E+00,-3.24948
574,17.144,1.67E+00,-3.25361
574.6,17.1634,1.66E+00,-3.25729
575.2,17.1823,1.65E+00,-3.25729
575.8,17.2019,1.66E+00,-3.2601
576.4,17.2209,1.65E+00,-3.26196
577,17.2404,1.66E+00,-3.2632
577.6,17.2597,1.66E+00,-3.26445
578.2,17.2791,1.65E+00,-3.26577
578.8,17.2982,1.65E+00,-3.26711
579.4,17.3176,1.64E+00,-3.26746
580,17.3369,1.65E+00,-3.26841
580.6,17.3564,1.65E+00,-3.26923
581.2,17.3757,1.64E+00,-3.26996
581.8,17.3949,1.63E+00,-3.26974
582.4,17.4144,1.64E+00,-3.26962
583,17.4333,1.63E+00,-3.27002
583.6,17.4531,1.62E+00,-3.27052
584.2,17.4725,1.64E+00,-3.271
584.8,17.4918,1.65E+00,-3.27147
585.4,17.511,1.64E+00,-3.27192
586,17.5304,1.63E+00,-3.2724
586.6,17.5498,1.62E+00,-3.27288
587.2,17.5697,1.84E+00,-3.27364
587.8,17.5888,1.79E+00,-3.27418
588.4,17.6077,1.57E+00,-3.27475
589,17.6268,1.35E+00,-3.27536
589.6,17.6454,1.19E+00,-3.27599
590.2,17.6644,1.07E+00,-3.27665
590.8,17.6837,9.49E-01,-3.27743
591.4,17.7029,8.58E-01,-3.27812
592,17.7225,8.02E-01,-3.27886
592.6,17.7412,7.49E-01,-3.27962
593.2,17.7609,6.95E-01,-3.28054
593.8,17.7798,6.42E-01,-3.28259
594.4,17.7993,6.10E-01,-3.2834
595,17.8186,5.78E-01,-3.28378
595.6,17.838,5.32E-01,-3.28373
596.2,17.8569,4.68E-01,-3.28458
596.8,17.8764,4.29E-01,-3.28543
597.4,17.8956,4.03E-01,-3.28629
598,17.9152,3.81E-01,-3.28716
598.6,17.934,3.75E-01,-3.28803
599.2,17.9538,3.57E-01,-3.28892
599.8,17.9732,3.41E-01,-3.28981
600.4,17.9926,3.34E-01,-3.29071
601,18.0119,3.26E-01,-3.29158
601.6,18.0315,3.21E-01,-3.29246
602.2,18.0509,3.17E-01,-3.29292
602.8,18.0702,3.13E-01,-3.29288
603.4,18.0897,3.14E-01,-3.29379
604,18.1093,3.33E-01,-3.29465
604.6,18.1289,3.76E-01,-3.29547
605.2,18.1481,3.81E-01,-3.29623
605.8,18.1677,3.73E-01,-3.29809
606.4,18.187,3.50E-01,-3.29923
607,18.2065,3.26E-01,-3.30009
607.6,18.2261,3.21E-01,-3.3
608.2,18.2454,3.13E-01,-3.30034
608.8,18.2648,3.09E-01,-3.30108
609.4,18.2843,3.03E-01,-3.30186
610,18.3035,3.09E-01,-3.30263
610.6,18.3237,3.12E-01,-3.30242
611.2,18.3427,3.06E-01,-3.30281
611.8,18.3621,3.04E-01,-3.3035
612.4,18.3817,2.96E-01,-3.30423
613,18.4011,2.90E-01,-3.30496
613.6,18.4205,2.91E-01,-3.30569
614.2,18.4401,2.99E-01,-3.3064
614.8,18.4596,2.94E-01,-3.3071
615.4,18.479,2.72E-01,-3.30778
616,18.4987,2.69E-01,-3.30845
616.6,18.5181,2.57E-01,-3.30916
617.2,18.5378,2.67E-01,-3.31019
617.8,18.5573,2.66E-01,-3.31183
618.4,18.5771,2.77E-01,-3.31251
619,18.5963,2.98E-01,-3.31317
619.6,18.6158,2.94E-01,-3.31382
620.2,18.6354,2.84E-01,-3.31452
620.8,18.6548,2.90E-01,-3.31443
621.4,18.6747,2.98E-01,-3.31485
622,18.6939,2.91E-01,-3.31549
622.6,18.7135,2.97E-01,-3.31615
623.2,18.7331,3.14E-01,-3.31678
623.8,18.7527,3.16E-01,-3.31743
624.4,18.7722,3.31E-01,-3.31807
625,18.7915,3.18E-01,-3.31872
625.6,18.8115,3.12E-01,-3.31937
626.2,18.831,3.61E-01,-3.32001
626.8,18.8506,4.30E-01,-3.32064
627.4,18.8702,4.56E-01,-3.32126
628,18.8899,4.80E-01,-3.32189
628.6,18.9093,4.80E-01,-3.32251
629.2,18.9289,4.74E-01,-3.32317
629.8,18.9487,4.66E-01,-3.32339
630.4,18.9678,4.47E-01,-3.32403
631,18.9878,4.23E-01,-3.32464
631.6,19.0073,3.94E-01,-3.32525
632.2,19.0266,3.77E-01,-3.32592
632.8,19.0463,3.71E-01,-3.3253
633.4,19.0659,3.59E-01,-3.32576
634,19.0855,4.25E-01,-3.32636
634.6,19.1045,4.29E-01,-3.32697
635.2,19.1242,4.35E-01,-3.32758
635.8,19.144,4.18E-01,-3.32819
636.4,19.1636,4.03E-01,-3.3288
637,19.183,3.80E-01,-3.3294
637.6,19.2025,3.54E-01,-3.33
638.2,19.2223,3.41E-01,-3.3306
638.8,19.2418,3.34E-01,-3.33119
639.4,19.2614,3.32E-01,-3.33179
640,19.2808,3.26E-01,-3.3324
640.6,19.3007,3.21E-01,-3.333
641.2,19.3198,3.27E-01,-3.33361
641.8,19.34,3.29E-01,-3.3342
642.4,19.3595,3.20E-01,-3.3347
643,19.379,3.05E-01,-3.33399
643.6,19.3985,3.14E-01,-3.33467
644.2,19.4184,3.77E-01,-3.33527
644.8,19.4382,4.36E-01,-3.33587
645.4,19.4581,4.72E-01,-3.33646
646,19.4776,4.86E-01,-3.33705
646.6,19.4972,5.08E-01,-3.33762
647.2,19.517,5.06E-01,-3.33819
647.8,19.5368,5.13E-01,-3.33876
648.4,19.556,5.22E-01,-3.33933
649,19.575,5.16E-01,-3.33993
649.6,19.5953,5.16E-01,-3.33934
650.2,19.615,5.01E-01,-3.33968
650.8,19.6343,4.81E-01,-3.34022
651.4,19.6543,4.70E-01,-3.34075
652,19.6738,4.55E-01,-3.34128
652.6,19.6931,4.39E-01,-3.34181
653.2,19.7128,4.23E-01,-3.34233
653.8,19.7327,4.09E-01,-3.34283
654.4,19.7523,3.86E-01,-3.34335
655,19.7719,3.78E-01,-3.34386
655.6,19.7915,3.66E-01,-3.34437
656.2,19.8112,3.60E-01,-3.34488
656.8,19.8301,3.59E-01,-3.34538
657.4,19.8503,3.39E-01,-3.34587
658,19.8702,3.40E-01,-3.34637
658.6,19.8894,3.37E-01,-3.34687
659.2,19.9094,3.25E-01,-3.34735
659.8,19.9289,3.13E-01,-3.34782
660.4,19.9486,3.05E-01,-3.34828
661,19.9681,2.98E-01,-3.34875
661.6,19.9877,2.93E-01,-3.34919
662.2,20.0075,2.97E-01,-3.34961
662.8,20.027,2.85E-01,-3.35007
663.4,20.0468,2.78E-01,-3.35052
664,20.0665,2.83E-01,-3.35096
664.6,20.086,2.69E-01,-3.35139
665.2,20.1056,2.59E-01,-3.35183
665.8,20.1253,2.48E-01,-3.35226
666.4,20.1449,2.43E-01,-3.35263
667,20.1648,2.43E-01,-3.35176
667.6,20.1843,2.43E-01,-3.35219
668.2,20.2042,2.42E-01,-3.3526
668.8,20.2238,2.41E-01,-3.353
669.4,20.2434,2.31E-01,-3.3534
670,20.2631,2.33E-01,-3.35379
670.6,20.2825,2.26E-01,-3.35413
671.2,20.3026,2.21E-01,-3.35451
671.8,20.322,2.14E-01,-3.3549
672.4,20.342,2.09E-01,-3.35528
673,20.3615,2.05E-01,-3.35446
673.6,20.3813,2.51E-01,-3.3547
674.2,20.4011,3.11E-01,-3.35505
674.8,20.4207,3.33E-01,-3.3554
675.4,20.4406,3.43E-01,-3.35575
676,20.4603,3.68E-01,-3.35611
676.6,20.4797,3.62E-01,-3.35647
677.2,20.4997,3.65E-01,-3.35682
677.8,20.51894,3.71E-01,-3.35716
678.4,20.5391,3.76E-01,-3.35749
679,20.5584,3.76E-01,-3.35783
679.6,20.5783,3.67E-01,-3.35802
680.2,20.598,3.49E-01,-3.35818
680.8,20.6176,3.46E-01,-3.35848
681.4,20.6373,3.42E-01,-3.35881
682,20.657,3.39E-01,-3.35913
682.6,20.6765,3.26E-01,-3.35946
683.2,20.6961,3.14E-01,-3.35976
683.8,20.7158,3.03E-01,-3.35997
684.4,20.7354,2.95E-01,-3.35939
685,20.7552,2.85E-01,-3.3597
685.6,20.775,2.84E-01,-3.35999
686.2,20.7947,2.77E-01,-3.36028
686.8,20.8145,2.75E-01,-3.36056
687.4,20.834,2.64E-01,-3.36084
688,20.8535,2.58E-01,-3.36112
688.6,20.8734,2.54E-01,-3.36141
689.2,20.893,2.49E-01,-3.36169
689.8,20.9126,2.38E-01,-3.36171
690.4,20.9324,2.34E-01,-3.3609
691,20.9521,2.13E-01,-3.3612
691.6,20.9715,2.17E-01,-3.36148
692.2,20.9912,1.93E-01,-3.36176
692.8,21.011,1.74E-01,-3.36203
693.4,21.0304,1.66E-01,-3.36229
694,21.0502,1.59E-01,-3.36256
694.6,21.0701,1.41E-01,-3.36283
695.2,21.0896,1.19E-01,-3.36309
695.8,21.1094,1.12E-01,-3.36335
696.4,21.1289,1.04E-01,-3.36361
697,21.1484,9.75E-02,-3.36386
697.6,21.1683,6.99E-02,-3.36412
698.2,21.1876,6.07E-02,-3.36438
698.8,21.2077,4.44E-02,-3.36464
699.4,21.2273,2.82E-02,-3.36489
700,21.2469,1.19E-02,-3.36513
700.6,21.2667,-4.21E-03,-3.36538
701.2,21.2858,-2.61E-02,-3.36564
701.8,21.3051,-3.58E-02,-3.3659
702.4,21.3251,-4.39E-02,-3.36616
703,21.3451,-5.21E-02,-3.3664
703.6,21.3649,-6.14E-02,-3.36665
704.2,21.3843,-6.48E-02,-3.36689
704.8,21.4042,-8.03E-02,-3.36713
705.4,21.4237,-8.35E-02,-3.36738
706,21.4433,-9.87E-02,-3.36762
706.6,21.4631,-1.09E-01,-3.36785
707.2,21.4827,-1.28E-01,-3.36808
707.8,21.5027,-1.45E-01,-3.36832
708.4,21.5221,-1.53E-01,-3.36726
709,21.5421,-1.53E-01,-3.36743
709.6,21.5616,-1.81E-01,-3.36765
710.2,21.5813,-2.01E-01,-3.36786
710.8,21.6011,-2.18E-01,-3.36808
711.4,21.6204,-2.35E-01,-3.3683
712,21.6405,-2.47E-01,-3.36852
712.6,21.66,-2.52E-01,-3.36863
713.2,21.6798,-2.63E-01,-3.36757
713.8,21.6993,-2.68E-01,-3.36784
714.4,21.7191,-2.76E-01,-3.36805
715,21.7387,-2.86E-01,-3.36826
715.6,21.7585,-2.97E-01,-3.36846
716.2,21.7782,-3.08E-01,-3.36866
716.8,21.7978,-3.27E-01,-3.36886
717.4,21.8176,-3.36E-01,-3.36906
718,21.8371,-3.55E-01,-3.36927
718.6,21.8563,-3.56E-01,-3.36948
719.2,21.8761,-3.70E-01,-3.36969
719.8,21.8956,-3.77E-01,-3.3699
720.4,21.9152,-3.96E-01,-3.37006
721,21.9356,-4.02E-01,-3.36952
721.6,21.9559,-4.14E-01,-3.36921
722.2,21.9751,-4.21E-01,-3.3694
722.8,21.9951,-4.35E-01,-3.3696
723.4,22.0146,-4.48E-01,-3.36979
724,22.0345,-4.61E-01,-3.36999
724.6,22.054,-4.68E-01,-3.37019
725.2,22.0737,-4.66E-01,-3.3704
725.8,22.0938,-4.69E-01,-3.37061
726.4,22.1133,-4.75E-01,-3.37081
727,22.1333,-4.87E-01,-3.37101
727.6,22.153,-4.97E-01,-3.37121
728.2,22.1726,-5.05E-01,-3.37142
728.8,22.1923,-5.22E-01,-3.37162
729.4,22.2121,-5.36E-01,-3.37183
730,22.2319,-5.51E-01,-3.37203
730.6,22.2514,-5.63E-01,-3.37223
731.2,22.2712,-5.61E-01,-3.37243
731.8,22.2912,-5.85E-01,-3.37262
732.4,22.3107,-6.09E-01,-3.37267
733,22.3305,-5.99E-01,-3.37164
733.6,22.3502,-6.00E-01,-3.37189
734.2,22.3702,-6.15E-01,-3.37208
734.8,22.3896,-6.15E-01,-3.37227
735.4,22.4094,-6.29E-01,-3.37245
736,22.4292,-6.51E-01,-3.37265
736.6,22.4492,-6.55E-01,-3.37284
737.2,22.4688,-6.67E-01,-3.37303
737.8,22.4888,-6.85E-01,-3.37322
738.4,22.5084,-6.91E-01,-3.3734
739,22.5284,-6.95E-01,-3.37356
739.6,22.548,-6.98E-01,-3.37372
740.2,22.5675,-7.03E-01,-3.37389
740.8,22.5875,-7.12E-01,-3.37407
741.4,22.6074,-7.30E-01,-3.37427
742,22.6271,-7.42E-01,-3.37404
742.6,22.6469,-7.47E-01,-3.37405
743.2,22.6666,-7.60E-01,-3.3738
743.8,22.6863,-7.74E-01,-3.37356
744.4,22.7061,-7.83E-01,-3.37374
745,22.7259,-7.88E-01,-3.37389
745.6,22.7459,-8.02E-01,-3.37405
746.2,22.7655,-8.19E-01,-3.37421
746.8,22.7854,-8.24E-01,-3.37387
747.4,22.8052,-8.37E-01,-3.37323
748,22.8247,-8.44E-01,-3.37338
748.6,22.8445,-8.56E-01,-3.37355
749.2,22.8642,-8.69E-01,-3.37372
749.8,22.8841,-8.86E-01,-3.3739
750.4,22.9038,-8.87E-01,-3.37408
751,22.9238,-9.05E-01,-3.37425
751.6,22.9433,-9.15E-01,-3.37442
752.2,22.9631,-9.34E-01,-3.37459
752.8,22.9831,-9.42E-01,-3.37477
753.4,23.0027,-9.50E-01,-3.37494
754,23.0225,-9.65E-01,-3.37512
754.6,23.0425,-9.76E-01,-3.37529
755.2,23.0623,-9.87E-01,-3.37547
755.8,23.0819,-9.81E-01,-3.3757
756.4,23.1019,-9.82E-01,-3.37514
757,23.1213,-9.86E-01,-3.37534
757.6,23.1414,-9.90E-01,-3.37557
758.2,23.1611,-9.93E-01,-3.37499
758.8,23.181,-1.01E+00,-3.37519
759.4,23.2007,-1.01E+00,-3.37495
760,23.2204,-1.03E+00,-3.3742
760.6,23.2403,-1.03E+00,-3.37439
761.2,23.2601,-1.05E+00,-3.37456
761.8,23.2801,-1.06E+00,-3.37458
762.4,23.2998,-1.06E+00,-3.37387
763,23.3199,-1.07E+00,-3.37408
763.6,23.3396,-1.06E+00,-3.37425
764.2,23.3594,-1.07E+00,-3.37441
764.8,23.379,-1.08E+00,-3.37458
765.4,23.3989,-1.08E+00,-3.37476
766,23.4186,-1.09E+00,-3.37491
766.6,23.4386,-1.10E+00,-3.37508
767.2,23.4586,-1.11E+00,-3.37524
767.8,23.4781,-1.11E+00,-3.37539
768.4,23.498,-1.12E+00,-3.37555
769,23.5177,-1.13E+00,-3.37571
769.6,23.5375,-1.14E+00,-3.37587
770.2,23.5574,-1.14E+00,-3.37603
770.8,23.577,-1.13E+00,-3.37619
771.4,23.5969,-1.14E+00,-3.37635
772,23.6167,-1.14E+00,-3.37651
772.6,23.6366,-1.15E+00,-3.37659
773.2,23.6563,-1.15E+00,-3.37648
773.8,23.6765,-1.17E+00,-3.37599
774.4,23.6966,-1.17E+00,-3.37544
775,23.7159,-1.19E+00,-3.37561
775.6,23.7357,-1.19E+00,-3.37637
776.2,23.7558,-1.18E+00,-3.37728
776.8,23.7756,-1.20E+00,-3.3775
777.4,23.7956,-1.20E+00,-3.37775
778,23.8154,-1.21E+00,-3.37799
778.6,23.835,-1.21E+00,-3.37813
779.2,23.8551,-1.21E+00,-3.37712
779.8,23.8747,-1.20E+00,-3.37733
780.4,23.8948,-1.22E+00,-3.37751
781,23.9142,-1.22E+00,-3.37771
781.6,23.9341,-1.23E+00,-3.37752
782.2,23.9542,-1.24E+00,-3.37708
782.8,23.9741,-1.24E+00,-3.37726
783.4,23.9937,-1.24E+00,-3.37712
784,24.0136,-1.25E+00,-3.37727
784.6,24.0337,-1.25E+00,-3.37744
785.2,24.0537,-1.25E+00,-3.37633
785.8,24.0734,-1.25E+00,-3.37656
786.4,24.0929,-1.25E+00,-3.37672
787,24.1133,-1.28E+00,-3.37691
787.6,24.1331,-1.28E+00,-3.37714
788.2,24.1527,-1.28E+00,-3.37743
788.8,24.1729,-1.28E+00,-3.37762
789.4,24.1925,-1.28E+00,-3.37787
790,24.2126,-1.29E+00,-3.37821