File: 01_Data/NFPA_1981-2019_SCBA_Lens/STA/N2/30K_min/NFPA_1981-2019_SCBA_Lens_STA_N2_30KData_250909_R1.csv
Temp./C,Time/min,DSC/(mW/mg),Mass loss/mg
40,0,1.04E+00,-1.04E-05
40.6,0.0396038,1.08E+00,2.86E-04
41.2,0.076989,1.12E+00,1.49E-04
41.8,0.113017,1.17E+00,2.28E-04
42.4,0.148806,1.22E+00,6.58E-04
43,0.18415,1.25E+00,7.10E-04
43.6,0.218196,1.29E+00,1.53E-03
44.2,0.251001,1.33E+00,7.89E-04
44.8,0.284139,1.36E+00,6.13E-04
45.4,0.316929,1.40E+00,1.55E-03
46,0.347929,1.42E+00,2.18E-03
46.6,0.378286,1.45E+00,2.27E-03
47.2,0.409397,1.48E+00,1.88E-03
47.8,0.440881,1.52E+00,1.79E-03
48.4,0.470447,1.55E+00,1.00E-03
49,0.499349,1.58E+00,1.08E-03
49.6,0.528977,1.60E+00,7.07E-04
50.2,0.557992,1.63E+00,6.10E-04
50.8,0.58681,1.65E+00,1.47E-03
51.4,0.614715,1.68E+00,1.24E-03
52,0.643053,1.70E+00,1.41E-03
52.6,0.670236,1.73E+00,1.94E-03
53.2,0.69843,1.74E+00,2.15E-03
53.8,0.725516,1.77E+00,1.40E-03
54.4,0.752873,1.78E+00,9.16E-04
55,0.780069,1.81E+00,1.92E-03
55.6,0.806209,1.82E+00,2.19E-03
56.2,0.832706,1.84E+00,2.30E-03
56.8,0.858829,1.86E+00,2.09E-03
57.4,0.885337,1.89E+00,2.47E-03
58,0.911277,1.90E+00,2.80E-03
58.6,0.936898,1.92E+00,2.85E-03
59.2,0.962066,1.94E+00,3.32E-03
59.8,0.987954,1.95E+00,3.48E-03
60.4,1.013491,1.97E+00,2.90E-03
61,1.03876,1.99E+00,2.78E-03
61.6,1.06355,2.01E+00,3.80E-03
62.2,1.08911,2.03E+00,4.25E-03
62.8,1.11422,2.03E+00,4.01E-03
63.4,1.13772,2.05E+00,3.93E-03
64,1.16299,2.07E+00,3.77E-03
64.6,1.1872,2.08E+00,3.38E-03
65.2,1.21195,2.10E+00,3.76E-03
65.8,1.23632,2.11E+00,3.70E-03
66.4,1.2604,2.13E+00,3.60E-03
67,1.2848,2.14E+00,3.50E-03
67.6,1.30841,2.16E+00,4.27E-03
68.2,1.33256,2.16E+00,4.62E-03
68.8,1.35632,2.18E+00,4.45E-03
69.4,1.38044,2.21E+00,4.23E-03
70,1.40405,2.20E+00,4.49E-03
70.6,1.42766,2.22E+00,4.47E-03
71.2,1.45127,2.24E+00,4.69E-03
71.8,1.47466,2.24E+00,4.66E-03
72.4,1.49846,2.25E+00,4.48E-03
73,1.52182,2.27E+00,4.93E-03
73.6,1.54461,2.28E+00,4.91E-03
74.2,1.56842,2.30E+00,4.62E-03
74.8,1.59214,2.31E+00,5.24E-03
75.4,1.61494,2.32E+00,5.40E-03
76,1.63803,2.34E+00,4.91E-03
76.6,1.6608,2.35E+00,5.65E-03
77.2,1.68381,2.37E+00,5.26E-03
77.8,1.70688,2.37E+00,5.80E-03
78.4,1.73068,2.38E+00,5.46E-03
79,1.7525,2.41E+00,5.03E-03
79.6,1.77565,2.43E+00,5.60E-03
80.2,1.79719,2.44E+00,5.13E-03
80.8,1.82032,2.44E+00,5.77E-03
81.4,1.84297,2.46E+00,5.16E-03
82,1.86603,2.47E+00,5.98E-03
82.6,1.88843,2.48E+00,5.41E-03
83.2,1.91101,2.49E+00,6.02E-03
83.8,1.93326,2.50E+00,5.49E-03
84.4,1.95564,2.51E+00,5.99E-03
85,1.9777,2.52E+00,5.25E-03
85.6,1.9999,2.53E+00,5.89E-03
86.2,2.0219,2.55E+00,4.93E-03
86.8,2.044,2.56E+00,4.81E-03
87.4,2.06609,2.57E+00,4.59E-03
88,2.08818,2.58E+00,4.44E-03
88.6,2.11002,2.59E+00,4.45E-03
89.2,2.13233,2.61E+00,4.27E-03
89.8,2.15364,2.61E+00,4.36E-03
90.4,2.17564,2.62E+00,3.84E-03
91,2.19684,2.63E+00,4.13E-03
91.6,2.2183,2.63E+00,4.51E-03
92.2,2.23981,2.64E+00,3.92E-03
92.8,2.26119,2.64E+00,4.10E-03
93.4,2.28267,2.65E+00,3.57E-03
94,2.30429,2.66E+00,2.68E-03
94.6,2.32518,2.66E+00,3.07E-03
95.2,2.34681,2.67E+00,2.61E-03
95.8,2.3679,2.68E+00,2.82E-03
96.4,2.38905,2.68E+00,3.33E-03
97,2.4106,2.69E+00,3.85E-03
97.6,2.43173,2.69E+00,4.36E-03
98.2,2.45255,2.70E+00,4.89E-03
98.8,2.47368,2.71E+00,4.76E-03
99.4,2.49457,2.71E+00,4.65E-03
100,2.51594,2.72E+00,5.14E-03
100.6,2.53683,2.72E+00,5.63E-03
101.2,2.55773,2.73E+00,5.43E-03
101.8,2.57845,2.73E+00,5.33E-03
102.4,2.59953,2.75E+00,5.83E-03
103,2.62007,2.77E+00,5.34E-03
103.6,2.64115,2.77E+00,5.46E-03
104.2,2.66237,2.78E+00,5.90E-03
104.8,2.68249,2.78E+00,6.23E-03
105.4,2.70333,2.80E+00,5.38E-03
106,2.72418,2.81E+00,5.85E-03
106.6,2.74463,2.82E+00,5.47E-03
107.2,2.76567,2.82E+00,5.35E-03
107.8,2.78627,2.83E+00,5.70E-03
108.4,2.8063,2.84E+00,6.07E-03
109,2.82786,2.86E+00,6.29E-03
109.6,2.84837,2.87E+00,5.43E-03
110.2,2.86862,2.86E+00,5.79E-03
110.8,2.88921,2.87E+00,6.12E-03
111.4,2.90989,2.88E+00,5.87E-03
112,2.93026,2.89E+00,5.46E-03
112.6,2.95026,2.91E+00,5.77E-03
113.2,2.97104,2.91E+00,6.07E-03
113.8,2.99147,2.93E+00,6.33E-03
114.4,3.01209,2.93E+00,6.50E-03
115,3.03243,2.94E+00,5.53E-03
115.6,3.05272,2.95E+00,5.77E-03
116.2,3.07308,2.97E+00,6.05E-03
116.8,3.09376,2.98E+00,5.06E-03
117.4,3.11345,2.99E+00,5.15E-03
118,3.13394,2.99E+00,5.37E-03
118.6,3.15447,2.99E+00,5.59E-03
119.2,3.17409,3.01E+00,5.80E-03
119.8,3.19485,3.02E+00,6.01E-03
120.4,3.21507,3.03E+00,6.23E-03
121,3.23489,3.04E+00,6.44E-03
121.6,3.25474,3.04E+00,6.63E-03
122.2,3.27507,3.06E+00,6.61E-03
122.8,3.29544,3.06E+00,5.67E-03
123.4,3.3152,3.07E+00,5.89E-03
124,3.33492,3.08E+00,6.09E-03
124.6,3.35511,3.10E+00,5.48E-03
125.2,3.37503,3.10E+00,5.19E-03
125.8,3.39509,3.11E+00,5.37E-03
126.4,3.41395,3.13E+00,5.55E-03
127,3.43477,3.13E+00,5.71E-03
127.6,3.45432,3.13E+00,5.69E-03
128.2,3.47464,3.14E+00,5.07E-03
128.8,3.49389,3.15E+00,5.28E-03
129.4,3.51372,3.16E+00,5.39E-03
130,3.53351,3.17E+00,5.36E-03
130.6,3.55295,3.18E+00,5.56E-03
131.2,3.57303,3.19E+00,5.69E-03
131.8,3.59243,3.19E+00,4.63E-03
132.4,3.61184,3.21E+00,4.89E-03
133,3.63175,3.21E+00,5.09E-03
133.6,3.65104,3.22E+00,5.29E-03
134.2,3.67085,3.23E+00,4.49E-03
134.8,3.69044,3.24E+00,4.37E-03
135.4,3.7093,3.25E+00,4.57E-03
136,3.72902,3.26E+00,4.77E-03
136.6,3.74843,3.27E+00,4.98E-03
137.2,3.76767,3.28E+00,5.17E-03
137.8,3.78687,3.29E+00,5.36E-03
138.4,3.80658,3.30E+00,5.55E-03
139,3.82589,3.31E+00,5.75E-03
139.6,3.84445,3.32E+00,5.76E-03
140.2,3.8638,3.33E+00,4.80E-03
140.8,3.88359,3.34E+00,5.02E-03
141.4,3.90294,3.34E+00,5.20E-03
142,3.92204,3.35E+00,5.37E-03
142.6,3.94118,3.36E+00,5.53E-03
143.2,3.96009,3.37E+00,5.69E-03
143.8,3.97971,3.38E+00,5.85E-03
144.4,3.99853,3.40E+00,6.00E-03
145,4.01786,3.40E+00,6.13E-03
145.6,4.03694,3.41E+00,6.25E-03
146.2,4.05577,3.42E+00,6.36E-03
146.8,4.07494,3.43E+00,6.45E-03
147.4,4.09384,3.44E+00,6.53E-03
148,4.11296,3.44E+00,6.62E-03
148.6,4.13159,3.45E+00,6.69E-03
149.2,4.1507,3.46E+00,6.77E-03
149.8,4.16976,3.47E+00,6.86E-03
150.4,4.18833,3.48E+00,6.95E-03
151,4.20758,3.48E+00,7.04E-03
151.6,4.22655,3.49E+00,7.13E-03
152.2,4.24514,3.51E+00,7.21E-03
152.8,4.2644,3.51E+00,7.29E-03
153.4,4.28304,3.52E+00,7.35E-03
154,4.3017,3.53E+00,7.42E-03
154.6,4.3208,3.54E+00,7.49E-03
155.2,4.33986,3.55E+00,7.54E-03
155.8,4.35836,3.55E+00,7.59E-03
156.4,4.37746,3.56E+00,7.63E-03
157,4.39616,3.57E+00,7.68E-03
157.6,4.41475,3.58E+00,7.76E-03
158.2,4.43365,3.59E+00,6.86E-03
158.8,4.45235,3.60E+00,6.50E-03
159.4,4.47109,3.61E+00,6.54E-03
160,4.48976,3.61E+00,6.57E-03
160.6,4.5085,3.63E+00,6.63E-03
161.2,4.52737,3.64E+00,6.69E-03
161.8,4.54607,3.64E+00,6.75E-03
162.4,4.5649,3.64E+00,6.79E-03
163,4.58277,3.66E+00,6.83E-03
163.6,4.60156,3.67E+00,6.83E-03
164.2,4.62092,3.67E+00,5.58E-03
164.8,4.63989,3.69E+00,5.61E-03
165.4,4.65827,3.70E+00,5.63E-03
166,4.67719,3.71E+00,5.66E-03
166.6,4.69546,3.72E+00,5.68E-03
167.2,4.71423,3.72E+00,5.67E-03
167.8,4.73265,3.73E+00,5.67E-03
168.4,4.75153,3.74E+00,5.67E-03
169,4.77024,3.75E+00,5.68E-03
169.6,4.78877,3.75E+00,5.68E-03
170.2,4.80716,3.77E+00,5.69E-03
170.8,4.82539,3.78E+00,5.67E-03
171.4,4.84432,3.78E+00,5.64E-03
172,4.86269,3.79E+00,5.62E-03
172.6,4.88167,3.79E+00,5.60E-03
173.2,4.90009,3.81E+00,5.58E-03
173.8,4.9184,3.82E+00,5.56E-03
174.4,4.93692,3.82E+00,5.53E-03
175,4.95568,3.83E+00,5.50E-03
175.6,4.97418,3.83E+00,5.44E-03
176.2,4.99282,3.85E+00,5.79E-03
176.8,5.01045,3.86E+00,5.73E-03
177.4,5.0294,3.86E+00,6.62E-03
178,5.0479,3.87E+00,6.59E-03
178.6,5.06666,3.86E+00,6.54E-03
179.2,5.0843,3.88E+00,6.48E-03
179.8,5.10312,3.90E+00,6.48E-03
180.4,5.121654,3.91E+00,5.30E-03
181,5.13994,3.91E+00,5.00E-03
181.6,5.15848,3.92E+00,4.94E-03
182.2,5.17674,3.93E+00,4.88E-03
182.8,5.19514,3.93E+00,4.83E-03
183.4,5.21362,3.94E+00,4.77E-03
184,5.23186,3.95E+00,4.72E-03
184.6,5.2503,3.96E+00,4.67E-03
185.2,5.26839,3.97E+00,4.63E-03
185.8,5.2864,3.97E+00,4.58E-03
186.4,5.30469,3.98E+00,4.54E-03
187,5.32307,3.98E+00,4.50E-03
187.6,5.34184,3.99E+00,4.46E-03
188.2,5.35953,4.00E+00,4.43E-03
188.8,5.37839,4.00E+00,4.37E-03
189.4,5.39603,4.01E+00,5.50E-03
190,5.414,4.02E+00,5.70E-03
190.6,5.43222,4.03E+00,5.70E-03
191.2,5.45026,4.04E+00,5.68E-03
191.8,5.46859,4.05E+00,5.67E-03
192.4,5.48657,4.06E+00,5.67E-03
193,5.50455,4.06E+00,5.66E-03
193.6,5.52303,4.07E+00,5.64E-03
194.2,5.54152,4.08E+00,5.61E-03
194.8,5.55977,4.09E+00,5.59E-03
195.4,5.57799,4.11E+00,5.56E-03
196,5.5959,4.12E+00,5.54E-03
196.6,5.61428,4.13E+00,5.52E-03
197.2,5.6323,4.14E+00,5.50E-03
197.8,5.65051,4.16E+00,5.50E-03
198.4,5.66856,4.17E+00,5.50E-03
199,5.68606,4.18E+00,5.50E-03
199.6,5.70433,4.20E+00,5.50E-03
200.2,5.72239,4.22E+00,5.53E-03
200.8,5.74097,4.24E+00,4.47E-03
201.4,5.75947,4.27E+00,4.17E-03
202,5.77731,4.29E+00,4.19E-03
202.6,5.79555,4.31E+00,4.22E-03
203.2,5.81362,4.35E+00,4.36E-03
203.8,5.83184,4.38E+00,5.60E-03
204.4,5.84952,4.41E+00,5.58E-03
205,5.86811,4.44E+00,5.58E-03
205.6,5.88638,4.48E+00,5.58E-03
206.2,5.90455,4.52E+00,6.32E-03
206.8,5.9225,4.55E+00,6.88E-03
207.4,5.94094,4.58E+00,6.90E-03
208,5.95834,4.61E+00,6.90E-03
208.6,5.97663,4.64E+00,6.90E-03
209.2,5.99482,4.66E+00,6.92E-03
209.8,6.01298,4.68E+00,7.09E-03
210.4,6.03136,4.69E+00,8.22E-03
211,6.04943,4.71E+00,8.21E-03
211.6,6.06736,4.71E+00,8.21E-03
212.2,6.08556,4.72E+00,8.21E-03
212.8,6.1034,4.73E+00,8.26E-03
213.4,6.12106,4.74E+00,7.14E-03
214,6.13929,4.75E+00,6.87E-03
214.6,6.15753,4.76E+00,6.87E-03
215.2,6.17543,4.76E+00,6.86E-03
215.8,6.19312,4.77E+00,6.85E-03
216.4,6.21117,4.77E+00,6.84E-03
217,6.22918,4.78E+00,6.82E-03
217.6,6.24728,4.79E+00,6.81E-03
218.2,6.2653,4.80E+00,6.80E-03
218.8,6.28269,4.81E+00,6.77E-03
219.4,6.30096,4.82E+00,6.73E-03
220,6.31907,4.83E+00,6.67E-03
220.6,6.33719,4.83E+00,6.61E-03
221.2,6.35487,4.85E+00,6.55E-03
221.8,6.37277,4.85E+00,6.49E-03
222.4,6.3907,4.86E+00,6.45E-03
223,6.40876,4.86E+00,6.41E-03
223.6,6.42688,4.87E+00,6.36E-03
224.2,6.44486,4.88E+00,6.32E-03
224.8,6.46262,4.88E+00,6.27E-03
225.4,6.48072,4.89E+00,6.23E-03
226,6.4986,4.90E+00,6.18E-03
226.6,6.51663,4.91E+00,6.12E-03
227.2,6.53445,4.92E+00,5.88E-03
227.8,6.55221,4.92E+00,5.06E-03
228.4,6.5704,4.93E+00,5.03E-03
229,6.58807,4.94E+00,4.99E-03
229.6,6.60587,4.95E+00,4.96E-03
230.2,6.62394,4.95E+00,4.92E-03
230.8,6.64164,4.95E+00,4.89E-03
231.4,6.65958,4.96E+00,6.10E-03
232,6.67756,4.97E+00,6.11E-03
232.6,6.69546,4.97E+00,6.09E-03
233.2,6.71324,4.98E+00,6.05E-03
233.8,6.73122,4.98E+00,6.02E-03
234.4,6.7492,4.99E+00,5.98E-03
235,6.7668,5.00E+00,5.94E-03
235.6,6.78511,4.99E+00,5.91E-03
236.2,6.80228,5.00E+00,5.87E-03
236.8,6.82046,5.01E+00,5.83E-03
237.4,6.8384,5.02E+00,5.83E-03
238,6.85633,5.02E+00,5.06E-03
238.6,6.874,5.03E+00,4.81E-03
239.2,6.89207,5.02E+00,4.78E-03
239.8,6.90996,5.03E+00,4.77E-03
240.4,6.92673,5.04E+00,4.75E-03
241,6.94556,5.05E+00,4.74E-03
241.6,6.96303,5.05E+00,4.73E-03
242.2,6.98125,5.06E+00,4.72E-03
242.8,6.99897,5.06E+00,4.70E-03
243.4,7.01683,5.07E+00,4.69E-03
244,7.03466,5.07E+00,4.67E-03
244.6,7.05248,5.08E+00,4.66E-03
245.2,7.07018,5.09E+00,4.64E-03
245.8,7.08813,5.10E+00,5.08E-03
246.4,7.10609,5.10E+00,5.97E-03
247,7.12401,5.10E+00,5.90E-03
247.6,7.14172,5.10E+00,5.86E-03
248.2,7.15939,5.11E+00,5.82E-03
248.8,7.17723,5.11E+00,5.78E-03
249.4,7.19494,5.12E+00,5.73E-03
250,7.21251,5.12E+00,5.68E-03
250.6,7.23066,5.12E+00,5.63E-03
251.2,7.24832,5.13E+00,5.58E-03
251.8,7.26628,5.14E+00,5.53E-03
252.4,7.28394,5.14E+00,5.47E-03
253,7.30164,5.14E+00,5.40E-03
253.6,7.31979,5.15E+00,5.33E-03
254.2,7.33699,5.16E+00,5.25E-03
254.8,7.3551,5.16E+00,5.18E-03
255.4,7.37307,5.17E+00,5.11E-03
256,7.39066,5.17E+00,5.04E-03
256.6,7.40851,5.18E+00,5.24E-03
257.2,7.42621,5.18E+00,5.21E-03
257.8,7.44423,5.18E+00,5.14E-03
258.4,7.46226,5.19E+00,5.05E-03
259,7.47933,5.21E+00,5.94E-03
259.6,7.49764,5.20E+00,5.90E-03
260.2,7.51537,5.21E+00,5.84E-03
260.8,7.53303,5.21E+00,5.77E-03
261.4,7.55106,5.23E+00,5.70E-03
262,7.56877,5.23E+00,5.62E-03
262.6,7.58637,5.24E+00,5.54E-03
263.2,7.60423,5.24E+00,5.40E-03
263.8,7.62224,5.25E+00,6.48E-03
264.4,7.64015,5.26E+00,6.62E-03
265,7.65746,5.26E+00,6.54E-03
265.6,7.67564,5.26E+00,6.47E-03
266.2,7.69309,5.27E+00,6.41E-03
266.8,7.71114,5.28E+00,6.34E-03
267.4,7.72881,5.28E+00,6.27E-03
268,7.74642,5.29E+00,6.19E-03
268.6,7.76432,5.29E+00,6.11E-03
269.2,7.78228,5.30E+00,6.04E-03
269.8,7.79913,5.30E+00,5.98E-03
270.4,7.81692,5.30E+00,5.92E-03
271,7.83493,5.31E+00,5.87E-03
271.6,7.85305,5.31E+00,5.82E-03
272.2,7.87101,5.32E+00,5.78E-03
272.8,7.88868,5.32E+00,4.58E-03
273.4,7.9064,5.33E+00,4.44E-03
274,7.92429,5.33E+00,4.40E-03
274.6,7.94205,5.34E+00,4.38E-03
275.2,7.95992,5.34E+00,4.33E-03
275.8,7.9776,5.35E+00,5.51E-03
276.4,7.99529,5.35E+00,5.61E-03
277,8.01339,5.36E+00,5.61E-03
277.6,8.0313,5.36E+00,5.58E-03
278.2,8.04911,5.37E+00,5.54E-03
278.8,8.06655,5.37E+00,5.51E-03
279.4,8.08429,5.38E+00,5.47E-03
280,8.10226,5.39E+00,5.43E-03
280.6,8.12006,5.38E+00,5.40E-03
281.2,8.13763,5.39E+00,5.36E-03
281.8,8.15582,5.38E+00,5.32E-03
282.4,8.17322,5.39E+00,5.28E-03
283,8.19127,5.39E+00,5.25E-03
283.6,8.20894,5.39E+00,5.21E-03
284.2,8.22675,5.39E+00,5.17E-03
284.8,8.24461,5.40E+00,5.13E-03
285.4,8.26235,5.41E+00,5.09E-03
286,8.28027,5.41E+00,5.08E-03
286.6,8.29783,5.41E+00,5.05E-03
287.2,8.31586,5.41E+00,5.03E-03
287.8,8.33338,5.41E+00,4.97E-03
288.4,8.35136,5.40E+00,5.70E-03
289,8.36892,5.40E+00,6.29E-03
289.6,8.38671,5.39E+00,6.25E-03
290.2,8.40472,5.39E+00,6.23E-03
290.8,8.42261,5.41E+00,6.19E-03
291.4,8.44042,5.41E+00,6.13E-03
292,8.45838,5.42E+00,6.10E-03
292.6,8.47577,5.42E+00,6.56E-03
293.2,8.4938,5.43E+00,6.91E-03
293.8,8.5118,5.44E+00,6.88E-03
294.4,8.52918,5.44E+00,6.82E-03
295,8.54738,5.45E+00,6.75E-03
295.6,8.56521,5.45E+00,6.68E-03
296.2,8.58289,5.46E+00,6.62E-03
296.8,8.60116,5.46E+00,6.57E-03
297.4,8.61849,5.47E+00,6.52E-03
298,8.63626,5.47E+00,6.46E-03
298.6,8.65428,5.48E+00,6.40E-03
299.2,8.67235,5.49E+00,6.34E-03
299.8,8.68996,5.49E+00,6.28E-03
300.4,8.7077,5.50E+00,6.23E-03
301,8.72555,5.50E+00,6.18E-03
301.6,8.74311,5.50E+00,5.49E-03
302.2,8.76117,5.50E+00,4.71E-03
302.8,8.77919,5.51E+00,4.63E-03
303.4,8.79691,5.51E+00,4.56E-03
304,8.81475,5.51E+00,4.50E-03
304.6,8.83261,5.51E+00,4.56E-03
305.2,8.85028,5.52E+00,5.65E-03
305.8,8.86851,5.52E+00,5.57E-03
306.4,8.88594,5.53E+00,5.50E-03
307,8.90352,5.52E+00,5.44E-03
307.6,8.92189,5.54E+00,5.43E-03
308.2,8.93966,5.55E+00,6.58E-03
308.8,8.95756,5.54E+00,6.51E-03
309.4,8.97552,5.55E+00,6.45E-03
310,8.99318,5.55E+00,6.38E-03
310.6,9.01133,5.55E+00,6.32E-03
311.2,9.02885,5.55E+00,5.73E-03
311.8,9.04656,5.55E+00,4.83E-03
312.4,9.06448,5.55E+00,4.80E-03
313,9.08266,5.55E+00,4.74E-03
313.6,9.10025,5.55E+00,4.68E-03
314.2,9.1181,5.55E+00,4.79E-03
314.8,9.1358,5.56E+00,5.97E-03
315.4,9.1539,5.56E+00,5.83E-03
316,9.17185,5.57E+00,5.77E-03
316.6,9.18981,5.57E+00,5.71E-03
317.2,9.20758,5.57E+00,5.65E-03
317.8,9.22536,5.58E+00,5.54E-03
318.4,9.24316,5.58E+00,6.25E-03
319,9.261,5.58E+00,6.14E-03
319.6,9.27811,5.58E+00,6.08E-03
320.2,9.29614,5.58E+00,6.05E-03
320.8,9.31423,5.58E+00,6.01E-03
321.4,9.33273,5.59E+00,5.97E-03
322,9.35042,5.60E+00,5.93E-03
322.6,9.36803,5.60E+00,5.82E-03
323.2,9.3863,5.59E+00,6.56E-03
323.8,9.40401,5.60E+00,6.46E-03
324.4,9.42204,5.59E+00,6.41E-03
325,9.44,5.58E+00,6.37E-03
325.6,9.45761,5.59E+00,6.31E-03
326.2,9.47572,5.60E+00,6.26E-03
326.8,9.49278,5.60E+00,6.21E-03
327.4,9.51111,5.60E+00,6.14E-03
328,9.52928,5.61E+00,6.08E-03
328.6,9.54723,5.60E+00,6.02E-03
329.2,9.56513,5.61E+00,5.96E-03
329.8,9.58306,5.61E+00,5.89E-03
330.4,9.60102,5.61E+00,5.83E-03
331,9.61897,5.61E+00,5.76E-03
331.6,9.63654,5.61E+00,5.60E-03
332.2,9.65481,5.62E+00,6.74E-03
332.8,9.67234,5.62E+00,6.57E-03
333.4,9.6904,5.63E+00,6.50E-03
334,9.70835,5.63E+00,6.44E-03
334.6,9.72646,5.63E+00,6.37E-03
335.2,9.74436,5.63E+00,6.28E-03
335.8,9.76168,5.63E+00,6.59E-03
336.4,9.78042,5.63E+00,6.48E-03
337,9.79818,5.64E+00,6.40E-03
337.6,9.8165,5.63E+00,6.32E-03
338.2,9.83428,5.62E+00,6.24E-03
338.8,9.85194,5.63E+00,6.15E-03
339.4,9.8699,5.63E+00,6.07E-03
340,9.88803,5.63E+00,6.03E-03
340.6,9.90602,5.63E+00,4.81E-03
341.2,9.92362,5.63E+00,4.50E-03
341.8,9.94195,5.63E+00,4.40E-03
342.4,9.95943,5.63E+00,4.30E-03
343,9.97731,5.64E+00,4.20E-03
343.6,9.9958,5.64E+00,4.12E-03
344.2,10.014,5.63E+00,4.02E-03
344.8,10.0317,5.63E+00,3.93E-03
345.4,10.0497,5.63E+00,3.85E-03
346,10.0681,5.63E+00,3.76E-03
346.6,10.086,5.63E+00,3.66E-03
347.2,10.1039,5.63E+00,3.56E-03
347.8,10.1218,5.63E+00,3.48E-03
348.4,10.1392,5.63E+00,3.36E-03
349,10.1578,5.63E+00,4.48E-03
349.6,10.1758,5.63E+00,4.51E-03
350.2,10.194,5.64E+00,4.42E-03
350.8,10.2122,5.65E+00,4.33E-03
351.4,10.2299,5.65E+00,4.24E-03
352,10.2476,5.65E+00,4.15E-03
352.6,10.2662,5.64E+00,4.05E-03
353.2,10.284,5.64E+00,3.96E-03
353.8,10.3022,5.65E+00,3.85E-03
354.4,10.3203,5.64E+00,3.75E-03
355,10.3384,5.64E+00,3.65E-03
355.6,10.3564,5.63E+00,3.55E-03
356.2,10.3744,5.63E+00,3.44E-03
356.8,10.3926,5.64E+00,3.34E-03
357.4,10.4108,5.64E+00,3.24E-03
358,10.4286,5.64E+00,3.12E-03
358.6,10.4466,5.64E+00,3.01E-03
359.2,10.46503,5.64E+00,2.90E-03
359.8,10.4829,5.63E+00,2.78E-03
360.4,10.5009,5.63E+00,2.67E-03
361,10.5191,5.63E+00,2.54E-03
361.6,10.5372,5.64E+00,2.36E-03
362.2,10.5551,5.63E+00,3.33E-03
362.8,10.5734,5.64E+00,3.47E-03
363.4,10.5915,5.63E+00,3.36E-03
364,10.6097,5.62E+00,3.24E-03
364.6,10.6278,5.63E+00,3.14E-03
365.2,10.6457,5.63E+00,3.02E-03
365.8,10.6641,5.62E+00,2.90E-03
366.4,10.6821,5.63E+00,2.78E-03
367,10.7004,5.64E+00,2.65E-03
367.6,10.7183,5.64E+00,2.56E-03
368.2,10.7363,5.64E+00,2.05E-03
368.8,10.7547,5.63E+00,2.01E-03
369.4,10.7727,5.63E+00,1.12E-03
370,10.7911,5.63E+00,1.06E-03
370.6,10.809,5.64E+00,9.34E-04
371.2,10.8271,5.63E+00,8.10E-04
371.8,10.8454,5.63E+00,7.01E-04
372.4,10.8636,5.64E+00,6.01E-04
373,10.8816,5.64E+00,5.01E-04
373.6,10.8999,5.63E+00,3.95E-04
374.2,10.9182,5.63E+00,2.54E-04
374.8,10.9361,5.63E+00,7.05E-04
375.4,10.9545,5.63E+00,6.85E-04
376,10.9723,5.63E+00,5.83E-04
376.6,10.9907,5.63E+00,4.78E-04
377.2,11.009,5.63E+00,3.85E-04
377.8,11.0272,5.63E+00,7.17E-04
378.4,11.0455,5.63E+00,7.96E-04
379,11.0635,5.63E+00,7.15E-04
379.6,11.082,5.64E+00,6.16E-04
380.2,11.1001,5.63E+00,5.16E-04
380.8,11.1184,5.63E+00,4.15E-04
381.4,11.136,5.64E+00,3.06E-04
382,11.154,5.63E+00,1.80E-04
382.6,11.1727,5.63E+00,-6.74E-05
383.2,11.191,5.63E+00,-1.33E-03
383.8,11.2093,5.63E+00,-1.42E-03
384.4,11.2277,5.63E+00,-1.53E-03
385,11.2459,5.62E+00,-1.65E-03
385.6,11.2641,5.62E+00,-1.77E-03
386.2,11.2825,5.62E+00,-1.90E-03
386.8,11.3009,5.62E+00,-2.03E-03
387.4,11.3191,5.62E+00,-2.15E-03
388,11.3372,5.63E+00,-2.28E-03
388.6,11.3554,5.63E+00,-2.41E-03
389.2,11.3738,5.63E+00,-2.59E-03
389.8,11.392,5.62E+00,-1.55E-03
390.4,11.4103,5.62E+00,-1.45E-03
391,11.4285,5.63E+00,-1.57E-03
391.6,11.4468,5.63E+00,-1.71E-03
392.2,11.4652,5.63E+00,-1.83E-03
392.8,11.4836,5.62E+00,-1.95E-03
393.4,11.5017,5.62E+00,-2.07E-03
394,11.5202,5.63E+00,-2.19E-03
394.6,11.5383,5.62E+00,-2.32E-03
395.2,11.5566,5.62E+00,-2.57E-03
395.8,11.5748,5.63E+00,-3.61E-03
396.4,11.5932,5.63E+00,-3.66E-03
397,11.6118,5.62E+00,-3.77E-03
397.6,11.6298,5.62E+00,-3.88E-03
398.2,11.6482,5.62E+00,-4.01E-03
398.8,11.6668,5.62E+00,-4.13E-03
399.4,11.685,5.62E+00,-4.25E-03
400,11.703,5.62E+00,-4.37E-03
400.6,11.7214,5.63E+00,-4.50E-03
401.2,11.7401,5.62E+00,-4.66E-03
401.8,11.7581,5.62E+00,-4.16E-03
402.4,11.7761,5.63E+00,-4.08E-03
403,11.7944,5.63E+00,-4.12E-03
403.6,11.8134,5.63E+00,-3.85E-03
404.2,11.8318,5.63E+00,-4.02E-03
404.8,11.8505,5.64E+00,-4.16E-03
405.4,11.8686,5.64E+00,-4.30E-03
406,11.8871,5.63E+00,-4.43E-03
406.6,11.9054,5.63E+00,-4.57E-03
407.2,11.9236,5.63E+00,-4.72E-03
407.8,11.9418,5.63E+00,-4.88E-03
408.4,11.9601,5.63E+00,-5.03E-03
409,11.9783,5.63E+00,-5.17E-03
409.6,11.9969,5.63E+00,-5.30E-03
410.2,12.0153,5.63E+00,-5.46E-03
410.8,12.0342,5.63E+00,-5.62E-03
411.4,12.0524,5.63E+00,-5.79E-03
412,12.0708,5.63E+00,-5.96E-03
412.6,12.0894,5.63E+00,-6.13E-03
413.2,12.1078,5.64E+00,-5.21E-03
413.8,12.1263,5.64E+00,-5.19E-03
414.4,12.1445,5.64E+00,-5.36E-03
415,12.1628,5.64E+00,-5.60E-03
415.6,12.1814,5.64E+00,-5.10E-03
416.2,12.2,5.64E+00,-5.35E-03
416.8,12.2184,5.64E+00,-5.58E-03
417.4,12.2367,5.64E+00,-5.83E-03
418,12.2551,5.64E+00,-6.15E-03
418.6,12.2737,5.65E+00,-5.62E-03
419.2,12.2923,5.65E+00,-5.91E-03
419.8,12.3102,5.65E+00,-6.18E-03
420.4,12.3288,5.65E+00,-6.44E-03
421,12.3474,5.65E+00,-6.72E-03
421.6,12.3659,5.65E+00,-7.01E-03
422.2,12.3843,5.66E+00,-7.31E-03
422.8,12.4028,5.66E+00,-7.63E-03
423.4,12.4213,5.66E+00,-7.96E-03
424,12.4397,5.66E+00,-8.29E-03
424.6,12.4584,5.66E+00,-8.63E-03
425.2,12.4771,5.65E+00,-8.93E-03
425.8,12.4953,5.64E+00,-1.02E-02
426.4,12.5139,5.64E+00,-1.06E-02
427,12.5323,5.64E+00,-1.10E-02
427.6,12.551,5.64E+00,-1.14E-02
428.2,12.5694,5.65E+00,-1.18E-02
428.8,12.5879,5.65E+00,-1.22E-02
429.4,12.6064,5.65E+00,-1.21E-02
430,12.6249,5.65E+00,-1.18E-02
430.6,12.6434,5.66E+00,-1.23E-02
431.2,12.662,5.67E+00,-1.29E-02
431.8,12.6807,5.66E+00,-1.34E-02
432.4,12.6991,5.66E+00,-1.26E-02
433,12.7175,5.67E+00,-1.32E-02
433.6,12.7361,5.68E+00,-1.37E-02
434.2,12.7546,5.68E+00,-1.44E-02
434.8,12.773,5.67E+00,-1.50E-02
435.4,12.7913,5.68E+00,-1.57E-02
436,12.8105,5.69E+00,-1.64E-02
436.6,12.8291,5.70E+00,-1.71E-02
437.2,12.8475,5.70E+00,-1.91E-02
437.8,12.8663,5.70E+00,-1.99E-02
438.4,12.8848,5.70E+00,-2.07E-02
439,12.9033,5.69E+00,-2.15E-02
439.6,12.922,5.70E+00,-2.24E-02
440.2,12.9403,5.71E+00,-2.33E-02
440.8,12.9589,5.72E+00,-2.42E-02
441.4,12.9777,5.72E+00,-2.52E-02
442,12.9964,5.71E+00,-2.49E-02
442.6,13.0148,5.71E+00,-2.57E-02
443.2,13.0333,5.71E+00,-2.68E-02
443.8,13.0523,5.71E+00,-2.70E-02
444.4,13.0706,5.71E+00,-2.76E-02
445,13.0893,5.72E+00,-2.88E-02
445.6,13.1076,5.73E+00,-3.00E-02
446.2,13.1265,5.73E+00,-3.11E-02
446.8,13.145,5.73E+00,-3.23E-02
447.4,13.1638,5.73E+00,-3.36E-02
448,13.1823,5.72E+00,-3.50E-02
448.6,13.201,5.73E+00,-3.64E-02
449.2,13.2197,5.73E+00,-3.69E-02
449.8,13.238,5.73E+00,-3.83E-02
450.4,13.2568,5.73E+00,-3.98E-02
451,13.2752,5.72E+00,-4.12E-02
451.6,13.294,5.73E+00,-4.29E-02
452.2,13.3127,5.73E+00,-4.45E-02
452.8,13.3317,5.74E+00,-4.63E-02
453.4,13.3501,5.75E+00,-4.81E-02
454,13.3688,5.76E+00,-5.00E-02
454.6,13.3876,5.77E+00,-5.19E-02
455.2,13.4063,5.79E+00,-5.37E-02
455.8,13.4246,5.79E+00,-5.71E-02
456.4,13.4436,5.79E+00,-5.91E-02
457,13.4623,5.80E+00,-6.13E-02
457.6,13.4805,5.81E+00,-6.35E-02
458.2,13.4993,5.80E+00,-6.58E-02
458.8,13.5178,5.80E+00,-6.82E-02
459.4,13.5368,5.80E+00,-7.04E-02
460,13.5554,5.78E+00,-7.29E-02
460.6,13.5741,5.79E+00,-7.55E-02
461.2,13.5929,5.80E+00,-7.81E-02
461.8,13.6117,5.83E+00,-8.09E-02
462.4,13.6303,5.82E+00,-8.27E-02
463,13.6491,5.83E+00,-8.51E-02
463.6,13.6677,5.84E+00,-8.72E-02
464.2,13.6864,5.86E+00,-8.95E-02
464.8,13.7051,5.90E+00,-9.27E-02
465.4,13.7242,5.93E+00,-9.59E-02
466,13.7429,5.96E+00,-9.93E-02
466.6,13.7616,5.96E+00,-0.10409
467.2,13.7804,5.98E+00,-0.10759
467.8,13.799,5.98E+00,-0.11129
468.4,13.8177,6.00E+00,-0.11457
469,13.8366,6.01E+00,-0.1185
469.6,13.8555,6.03E+00,-0.12255
470.2,13.8742,6.05E+00,-0.1268
470.8,13.8927,6.06E+00,-0.13119
471.4,13.912,6.07E+00,-0.13579
472,13.9305,6.09E+00,-0.13986
472.6,13.9495,6.15E+00,-0.14453
473.2,13.9681,6.16E+00,-0.14929
473.8,13.9868,6.15E+00,-0.15454
474.4,14.0058,6.17E+00,-0.16008
475,14.0246,6.21E+00,-0.16586
475.6,14.0435,6.25E+00,-0.17195
476.2,14.062,6.27E+00,-0.17824
476.8,14.0813,6.27E+00,-0.18483
477.4,14.1,6.31E+00,-0.19162
478,14.119,6.36E+00,-0.20013
478.6,14.1378,6.39E+00,-0.20675
479.2,14.1568,6.43E+00,-0.21451
479.8,14.1754,6.48E+00,-0.22255
480.4,14.1946,6.49E+00,-0.23089
481,14.2132,6.54E+00,-0.23958
481.6,14.2322,6.55E+00,-0.24865
482.2,14.2512,6.60E+00,-0.25811
482.8,14.2703,6.66E+00,-0.2667
483.4,14.289,6.71E+00,-0.27696
484,14.3081,6.73E+00,-0.28771
484.6,14.3269,6.79E+00,-0.2977
485.2,14.3459,6.80E+00,-0.30925
485.8,14.3648,6.87E+00,-0.32124
486.4,14.3837,6.90E+00,-0.33368
487,14.403,6.98E+00,-0.34655
487.6,14.4219,7.00E+00,-0.35993
488.2,14.4404,7.07E+00,-0.37379
488.8,14.4595,7.14E+00,-0.38805
489.4,14.4784,7.17E+00,-0.40416
490,14.4977,7.19E+00,-0.41952
490.6,14.5164,7.27E+00,-0.43539
491.2,14.5355,7.29E+00,-0.4519
491.8,14.5546,7.38E+00,-0.46707
492.4,14.5737,7.40E+00,-0.48374
493,14.5927,7.47E+00,-0.50188
493.6,14.6117,7.53E+00,-0.52061
494.2,14.6309,7.58E+00,-0.53868
494.8,14.6497,7.64E+00,-0.55865
495.4,14.6687,7.75E+00,-0.57939
496,14.6874,7.78E+00,-0.60071
496.6,14.7069,7.83E+00,-0.62294
497.2,14.7259,7.90E+00,-0.64588
497.8,14.7451,7.98E+00,-0.66986
498.4,14.7642,8.09E+00,-0.69451
499,14.7834,8.21E+00,-0.72013
499.6,14.8023,8.28E+00,-0.74653
500.2,14.8217,8.41E+00,-0.7725
500.8,14.8409,8.52E+00,-0.80058
501.4,14.86,8.59E+00,-0.82952
502,14.8788,8.60E+00,-0.85938
502.6,14.898,8.71E+00,-0.88852
503.2,14.9174,8.83E+00,-0.92161
503.8,14.9365,8.94E+00,-0.9541
504.4,14.9557,9.01E+00,-0.98746
505,14.9746,9.04E+00,-1.02119
505.6,14.9937,9.05E+00,-1.05608
506.2,15.0126,9.06E+00,-1.0914
506.8,15.032,9.11E+00,-1.1277
507.4,15.0513,9.18E+00,-1.16444
508,15.07,9.22E+00,-1.20224
508.6,15.0892,9.27E+00,-1.24039
509.2,15.1081,9.29E+00,-1.27949
509.8,15.1273,9.36E+00,-1.31905
510.4,15.1463,9.37E+00,-1.35959
511,15.1653,9.38E+00,-1.4006
511.6,15.1844,9.47E+00,-1.44233
512.2,15.2036,9.53E+00,-1.48459
512.8,15.2225,9.53E+00,-1.52734
513.4,15.2416,9.55E+00,-1.57151
514,15.2605,9.54E+00,-1.61439
514.6,15.2795,9.49E+00,-1.65721
515.2,15.2985,9.49E+00,-1.69939
515.8,15.3172,9.45E+00,-1.74116
516.4,15.3358,9.41E+00,-1.7817
517,15.355,9.43E+00,-1.82128
517.6,15.3738,9.43E+00,-1.85901
518.2,15.393,9.42E+00,-1.89513
518.8,15.4114,9.40E+00,-1.92892
519.4,15.4306,9.38E+00,-1.96145
520,15.4493,9.38E+00,-1.9925
520.6,15.4684,9.43E+00,-2.02413
521.2,15.4869,9.42E+00,-2.0554
521.8,15.5057,9.38E+00,-2.08875
522.4,15.5244,9.34E+00,-2.12427
523,15.543,9.29E+00,-2.15997
523.6,15.5616,9.21E+00,-2.19408
524.2,15.5804,9.05E+00,-2.22741
524.8,15.5986,8.85E+00,-2.26084
525.4,15.6167,8.62E+00,-2.29683
526,15.6349,8.38E+00,-2.33447
526.6,15.6536,8.13E+00,-2.3708
527.2,15.6716,7.86E+00,-2.40561
527.8,15.6896,7.52E+00,-2.43985
528.4,15.7075,7.17E+00,-2.47289
529,15.7255,6.82E+00,-2.50205
529.6,15.7435,6.49E+00,-2.52965
530.2,15.7622,6.17E+00,-2.55676
530.8,15.7802,5.85E+00,-2.58309
531.4,15.7986,5.53E+00,-2.60697
532,15.8161,5.21E+00,-2.63137
532.6,15.8343,4.89E+00,-2.6528
533.2,15.8525,4.58E+00,-2.67223
533.8,15.8708,4.30E+00,-2.69225
534.4,15.8888,4.00E+00,-2.7121
535,15.9072,3.73E+00,-2.72898
535.6,15.9254,3.47E+00,-2.74501
536.2,15.9436,3.24E+00,-2.76045
536.8,15.962,3.01E+00,-2.77469
537.4,15.9805,2.80E+00,-2.788
538,15.9989,2.62E+00,-2.80044
538.6,16.0174,2.48E+00,-2.8113
539.2,16.0361,2.34E+00,-2.82094
539.8,16.0547,2.22E+00,-2.83009
540.4,16.0732,2.14E+00,-2.83797
541,16.092,2.04E+00,-2.84416
541.6,16.1111,1.98E+00,-2.84957
542.2,16.1296,1.91E+00,-2.85491
542.8,16.1484,1.86E+00,-2.86035
543.4,16.1672,1.82E+00,-2.8662
544,16.186,1.78E+00,-2.87191
544.6,16.205,1.75E+00,-2.87753
545.2,16.2239,1.74E+00,-2.88328
545.8,16.2429,1.72E+00,-2.88912
546.4,16.2618,1.72E+00,-2.89531
547,16.2807,1.72E+00,-2.90181
547.6,16.2996,1.71E+00,-2.90942
548.2,16.3186,1.73E+00,-2.91684
548.8,16.3375,1.73E+00,-2.924
549.4,16.3565,1.74E+00,-2.93591
550,16.3755,1.75E+00,-2.9484
550.6,16.3944,1.75E+00,-2.95424
551.2,16.4136,1.77E+00,-2.95821
551.8,16.4329,1.77E+00,-2.96308
552.4,16.452,1.76E+00,-2.96816
553,16.4709,1.76E+00,-2.97435
553.6,16.4903,1.77E+00,-2.98075
554.2,16.5092,1.78E+00,-2.98733
554.8,16.5281,1.79E+00,-2.99154
555.4,16.547,1.79E+00,-2.99546
556,16.5663,1.78E+00,-2.99911
556.6,16.5854,1.78E+00,-3.00117
557.2,16.6047,1.79E+00,-3.00243
557.8,16.6235,1.80E+00,-2.99967
558.4,16.6429,1.80E+00,-2.9969
559,16.6617,1.79E+00,-2.99899
559.6,16.6804,1.78E+00,-3.0035
560.2,16.6998,1.74E+00,-3.0097
560.8,16.7189,1.72E+00,-3.01682
561.4,16.7382,1.72E+00,-3.0229
562,16.7572,1.73E+00,-3.02758
562.6,16.7763,1.73E+00,-3.05252
563.2,16.7953,1.74E+00,-3.07246
563.8,16.8147,1.73E+00,-3.08765
564.4,16.8339,1.73E+00,-3.10322
565,16.853,1.73E+00,-3.12139
565.6,16.8722,1.73E+00,-3.14021
566.2,16.8913,1.73E+00,-3.15968
566.8,16.9111,1.71E+00,-3.18061
567.4,16.9304,1.69E+00,-3.20178
568,16.9492,1.69E+00,-3.22892
568.6,16.9687,1.69E+00,-3.25542
569.2,16.988,1.67E+00,-3.28283
569.8,17.0075,1.69E+00,-3.31034
570.4,17.0267,1.67E+00,-3.33803
571,17.0455,1.66E+00,-3.36693
571.6,17.0651,1.65E+00,-3.39485
572.2,17.0848,1.64E+00,-3.41088
572.8,17.1044,1.63E+00,-3.42751
573.4,17.124,1.62E+00,-3.44645
574,17.1435,1.59E+00,-3.46745
574.6,17.1628,1.58E+00,-3.48863
575.2,17.1822,1.57E+00,-3.50398
575.8,17.2023,1.64E+00,-3.52148
576.4,17.2214,1.66E+00,-3.54004
577,17.2409,1.60E+00,-3.55331
577.6,17.26,1.52E+00,-3.56853
578.2,17.2797,1.47E+00,-3.58203
578.8,17.2991,1.41E+00,-3.59299
579.4,17.3185,1.37E+00,-3.60177
580,17.3383,1.34E+00,-3.60741
580.6,17.3577,1.31E+00,-3.61028
581.2,17.3773,1.28E+00,-3.61445
581.8,17.3969,1.25E+00,-3.61866
582.4,17.4163,1.24E+00,-3.62185
583,17.4358,1.22E+00,-3.62453
583.6,17.4554,1.22E+00,-3.62663
584.2,17.475,1.22E+00,-3.62822
584.8,17.494,1.21E+00,-3.62581
585.4,17.5137,1.20E+00,-3.6275
586,17.5331,1.21E+00,-3.62667
586.6,17.5527,1.21E+00,-3.62528
587.2,17.5721,1.20E+00,-3.62212
587.8,17.5916,1.19E+00,-3.61974
588.4,17.6113,1.17E+00,-3.61655
589,17.6306,1.18E+00,-3.612
589.6,17.6497,1.18E+00,-3.6083
590.2,17.6693,1.18E+00,-3.60447
590.8,17.6884,1.17E+00,-3.60041
591.4,17.7081,1.16E+00,-3.59607
592,17.7276,1.17E+00,-3.59147
592.6,17.7472,1.16E+00,-3.58669
593.2,17.7665,1.15E+00,-3.58193
593.8,17.7859,1.15E+00,-3.57721
594.4,17.8055,1.16E+00,-3.57251
595,17.8249,1.17E+00,-3.56636
595.6,17.8443,1.16E+00,-3.56141
596.2,17.8635,1.14E+00,-3.55657
596.8,17.8833,1.14E+00,-3.55158
597.4,17.9025,1.14E+00,-3.54563
598,17.9219,1.13E+00,-3.5409
598.6,17.9413,1.13E+00,-3.53621
599.2,17.9603,1.13E+00,-3.53153
599.8,17.9797,1.12E+00,-3.52587
600.4,17.9993,1.11E+00,-3.52085
601,18.0191,1.12E+00,-3.51608
601.6,18.0384,1.12E+00,-3.51135
602.2,18.0579,1.11E+00,-3.50663
602.8,18.0773,1.10E+00,-3.50191
603.4,18.0968,1.09E+00,-3.49721
604,18.1163,1.09E+00,-3.49258
604.6,18.1356,1.09E+00,-3.48804
605.2,18.1544,1.09E+00,-3.48514
605.8,18.1742,1.10E+00,-3.48057
606.4,18.1938,1.09E+00,-3.47615
607,18.2133,1.09E+00,-3.4718
607.6,18.2326,1.09E+00,-3.46757
608.2,18.2522,1.07E+00,-3.46338
608.8,18.2707,1.07E+00,-3.45794
609.4,18.2909,1.07E+00,-3.45449
610,18.3103,1.09E+00,-3.45066
610.6,18.3293,1.09E+00,-3.44689
611.2,18.3485,1.09E+00,-3.44323
611.8,18.3687,1.08E+00,-3.43956
612.4,18.3882,1.08E+00,-3.43745
613,18.4074,1.09E+00,-3.43438
613.6,18.427,1.09E+00,-3.43118
614.2,18.4464,1.09E+00,-3.4292
614.8,18.4658,1.07E+00,-3.42632
615.4,18.4854,1.06E+00,-3.42336
616,18.5045,1.05E+00,-3.42045
616.6,18.5242,1.05E+00,-3.41837
617.2,18.5437,1.06E+00,-3.41469
617.8,18.5632,1.05E+00,-3.41172
618.4,18.5824,1.07E+00,-3.40924
619,18.6019,1.07E+00,-3.40681
619.6,18.6216,1.06E+00,-3.40361
620.2,18.6407,1.06E+00,-3.40109
620.8,18.6603,1.06E+00,-3.39933
621.4,18.6799,1.06E+00,-3.39731
622,18.6994,1.06E+00,-3.39538
622.6,18.7189,1.07E+00,-3.39353
623.2,18.7383,1.07E+00,-3.39104
623.8,18.7577,1.08E+00,-3.3888
624.4,18.7769,1.08E+00,-3.38717
625,18.7965,1.08E+00,-3.38606
625.6,18.8162,1.07E+00,-3.38459
626.2,18.8356,1.07E+00,-3.38407
626.8,18.8549,1.08E+00,-3.38321
627.4,18.8738,1.08E+00,-3.38201
628,18.8937,1.08E+00,-3.38218
628.6,18.9135,1.07E+00,-3.38094
629.2,18.9329,1.08E+00,-3.37985
629.8,18.9529,1.08E+00,-3.37883
630.4,18.9722,1.09E+00,-3.37786
631,18.9917,1.09E+00,-3.37696
631.6,19.011,1.09E+00,-3.37635
632.2,19.0306,1.08E+00,-3.37483
632.8,19.0504,1.07E+00,-3.37339
633.4,19.0696,1.07E+00,-3.37266
634,19.0892,1.07E+00,-3.37195
634.6,19.1086,1.07E+00,-3.37128
635.2,19.1285,1.07E+00,-3.37066
635.8,19.148,1.06E+00,-3.37015
636.4,19.1675,1.07E+00,-3.36823
637,19.1868,1.08E+00,-3.36769
637.6,19.2062,1.07E+00,-3.36721
638.2,19.2258,1.08E+00,-3.36675
638.8,19.2454,1.07E+00,-3.36632
639.4,19.2649,1.08E+00,-3.36605
640,19.2845,1.09E+00,-3.36565
640.6,19.3043,1.08E+00,-3.36533
641.2,19.3236,1.08E+00,-3.36502
641.8,19.3426,1.08E+00,-3.36475
642.4,19.3622,1.08E+00,-3.3645
643,19.3823,1.09E+00,-3.36429
643.6,19.402,1.09E+00,-3.3641
644.2,19.4214,1.08E+00,-3.36392
644.8,19.4411,1.07E+00,-3.36378
645.4,19.4604,1.07E+00,-3.36364
646,19.4798,1.08E+00,-3.36352
646.6,19.4997,1.08E+00,-3.36216
647.2,19.5192,1.08E+00,-3.36202
647.8,19.5386,1.07E+00,-3.36193
648.4,19.5583,1.07E+00,-3.36197
649,19.5779,1.07E+00,-3.36123
649.6,19.5972,1.07E+00,-3.3606
650.2,19.617,1.07E+00,-3.36059
650.8,19.6367,1.08E+00,-3.36059
651.4,19.6562,1.09E+00,-3.3606
652,19.6755,1.07E+00,-3.36064
652.6,19.6954,1.06E+00,-3.36068
653.2,19.7148,1.05E+00,-3.36069
653.8,19.7346,1.05E+00,-3.36178
654.4,19.7541,1.05E+00,-3.36218
655,19.7736,1.05E+00,-3.36228
655.6,19.7932,1.05E+00,-3.36237
656.2,19.8127,1.05E+00,-3.36247
656.8,19.8321,1.05E+00,-3.36257
657.4,19.8519,1.03E+00,-3.36274
658,19.8712,1.01E+00,-3.36288
658.6,19.891,9.94E-01,-3.36304
659.2,19.9108,9.91E-01,-3.36321
659.8,19.9307,9.88E-01,-3.3634
660.4,19.95,9.90E-01,-3.36361
661,19.9697,9.94E-01,-3.36381
661.6,19.9894,1.00E+00,-3.36401
662.2,20.0091,9.99E-01,-3.36426
662.8,20.0285,9.91E-01,-3.36374
663.4,20.048,9.93E-01,-3.36398
664,20.0675,9.88E-01,-3.3642
664.6,20.0871,9.81E-01,-3.36442
665.2,20.1068,9.84E-01,-3.36465
665.8,20.1266,9.79E-01,-3.36488
666.4,20.1462,9.80E-01,-3.36511
667,20.1658,9.67E-01,-3.36534
667.6,20.185,9.60E-01,-3.36556
668.2,20.2051,9.60E-01,-3.3658
668.8,20.2244,9.59E-01,-3.36605
669.4,20.2442,9.36E-01,-3.36628
670,20.2636,9.36E-01,-3.3665
670.6,20.2835,9.36E-01,-3.36674
671.2,20.3024,9.22E-01,-3.36698
671.8,20.3225,9.18E-01,-3.36721
672.4,20.3423,9.12E-01,-3.36741
673,20.3618,9.09E-01,-3.367
673.6,20.3813,8.89E-01,-3.36724
674.2,20.4006,8.85E-01,-3.36745
674.8,20.4203,8.90E-01,-3.36736
675.4,20.4394,8.89E-01,-3.36658
676,20.4598,8.85E-01,-3.36683
676.6,20.4794,8.71E-01,-3.36708
677.2,20.4991,8.61E-01,-3.36732
677.8,20.5186,8.55E-01,-3.36757
678.4,20.5383,8.52E-01,-3.3678
679,20.5582,8.46E-01,-3.36803
679.6,20.5771,8.29E-01,-3.36826
680.2,20.5968,8.10E-01,-3.36854
680.8,20.6169,7.94E-01,-3.3684
681.4,20.6363,7.85E-01,-3.36866
682,20.656,7.68E-01,-3.3689
682.6,20.6755,7.51E-01,-3.36915
683.2,20.6952,7.36E-01,-3.36942
683.8,20.7149,7.23E-01,-3.36902
684.4,20.7343,7.13E-01,-3.36893
685,20.7541,7.11E-01,-3.36916
685.6,20.7732,7.06E-01,-3.36943
686.2,20.7929,6.95E-01,-3.36967
686.8,20.8127,6.95E-01,-3.36992
687.4,20.8323,6.88E-01,-3.37016
688,20.852,6.83E-01,-3.37042
688.6,20.8715,6.80E-01,-3.37068
689.2,20.8911,6.73E-01,-3.37128
689.8,20.9106,6.55E-01,-3.37151
690.4,20.9303,6.51E-01,-3.37178
691,20.95,6.30E-01,-3.37205
691.6,20.9694,6.23E-01,-3.37229
692.2,20.9886,6.10E-01,-3.37253
692.8,21.0079,5.99E-01,-3.37278
693.4,21.0284,5.92E-01,-3.37304
694,21.0474,5.89E-01,-3.3733
694.6,21.0673,5.80E-01,-3.37357
695.2,21.0867,5.58E-01,-3.37386
695.8,21.1068,5.59E-01,-3.37415
696.4,21.1266,5.52E-01,-3.37444
697,21.1462,5.37E-01,-3.37471
697.6,21.1657,5.26E-01,-3.37501
698.2,21.1852,5.19E-01,-3.37488
698.8,21.2051,5.18E-01,-3.3752
699.4,21.2246,5.13E-01,-3.37549
700,21.244,5.04E-01,-3.37578
700.6,21.2637,4.92E-01,-3.37608
701.2,21.2835,4.87E-01,-3.37638
701.8,21.3031,4.86E-01,-3.37668
702.4,21.3225,4.75E-01,-3.37697
703,21.3422,4.69E-01,-3.37728
703.6,21.3619,4.57E-01,-3.37759
704.2,21.3816,4.57E-01,-3.3779
704.8,21.401,4.41E-01,-3.37716
705.4,21.4207,4.35E-01,-3.3775
706,21.4402,4.20E-01,-3.37781
706.6,21.4599,4.13E-01,-3.37812
707.2,21.4793,3.96E-01,-3.37712
707.8,21.499,3.87E-01,-3.37738
708.4,21.5187,3.80E-01,-3.37767
709,21.5383,3.79E-01,-3.37793
709.6,21.5579,3.58E-01,-3.37946
710.2,21.5771,3.55E-01,-3.37987
710.8,21.5969,3.47E-01,-3.38017
711.4,21.6165,3.31E-01,-3.38045
712,21.6363,3.23E-01,-3.38073
712.6,21.6558,3.21E-01,-3.38104
713.2,21.6756,3.21E-01,-3.38062
713.8,21.6951,3.04E-01,-3.38064
714.4,21.7149,2.96E-01,-3.3809
715,21.7347,2.94E-01,-3.38118
715.6,21.7539,2.86E-01,-3.38147
716.2,21.7735,2.78E-01,-3.38174
716.8,21.7933,2.64E-01,-3.38201
717.4,21.8128,2.50E-01,-3.38228
718,21.8326,2.33E-01,-3.38255
718.6,21.852,2.38E-01,-3.38284
719.2,21.8718,2.18E-01,-3.38312
719.8,21.8915,2.10E-01,-3.38339
720.4,21.911,1.98E-01,-3.38366
721,21.9306,1.92E-01,-3.38392
721.6,21.95,1.85E-01,-3.38419
722.2,21.9693,1.69E-01,-3.38446
722.8,21.9894,1.63E-01,-3.38472
723.4,22.0091,1.54E-01,-3.38499
724,22.0287,1.35E-01,-3.38527
724.6,22.0484,1.28E-01,-3.38553
725.2,22.0681,1.22E-01,-3.38554
725.8,22.0873,1.24E-01,-3.38574
726.4,22.1073,1.20E-01,-3.38495
727,22.1267,1.06E-01,-3.38493
727.6,22.1463,1.12E-01,-3.38515
728.2,22.1661,1.05E-01,-3.3854
728.8,22.1858,8.30E-02,-3.38566
729.4,22.2054,8.11E-02,-3.38596
730,22.225,5.93E-02,-3.38516
730.6,22.2445,4.09E-02,-3.38512
731.2,22.2643,4.13E-02,-3.38538
731.8,22.284,3.34E-02,-3.38563
732.4,22.3037,9.70E-03,-3.38589
733,22.3231,8.19E-03,-3.38617
733.6,22.3427,6.59E-03,-3.38644
734.2,22.3624,-5.72E-04,-3.38663
734.8,22.3821,-5.84E-03,-3.38562
735.4,22.4017,-3.82E-03,-3.38592
736,22.4212,-1.82E-02,-3.3862
736.6,22.4413,-2.41E-02,-3.38646
737.2,22.4608,-2.94E-02,-3.38672
737.8,22.4803,-4.99E-02,-3.38699
738.4,22.5001,-4.64E-02,-3.38727
739,22.5197,-4.75E-02,-3.38754
739.6,22.5394,-5.77E-02,-3.38781
740.2,22.5589,-5.10E-02,-3.38807
740.8,22.5784,-6.77E-02,-3.38832
741.4,22.5978,-8.36E-02,-3.3886
742,22.6178,-9.55E-02,-3.38888
742.6,22.6372,-9.78E-02,-3.38954
743.2,22.6572,-1.06E-01,-3.39077
743.8,22.6766,-1.11E-01,-3.39099
744.4,22.6962,-1.24E-01,-3.39125
745,22.716,-1.26E-01,-3.39151
745.6,22.7355,-1.35E-01,-3.39176
746.2,22.7553,-1.51E-01,-3.39201
746.8,22.7752,-1.60E-01,-3.39227
747.4,22.7947,-1.66E-01,-3.39253
748,22.8141,-1.69E-01,-3.3928
748.6,22.8335,-1.85E-01,-3.39308
749.2,22.8538,-1.96E-01,-3.39336
749.8,22.8733,-2.07E-01,-3.39375
750.4,22.8929,-2.15E-01,-3.39529
751,22.9125,-2.31E-01,-3.39552
751.6,22.9322,-2.41E-01,-3.39579
752.2,22.9519,-2.60E-01,-3.39602
752.8,22.9716,-2.64E-01,-3.395
753.4,22.9913,-2.79E-01,-3.39529
754,23.0111,-2.88E-01,-3.39555
754.6,23.0305,-3.00E-01,-3.39583
755.2,23.0502,-3.13E-01,-3.3961
755.8,23.0698,-3.16E-01,-3.39637
756.4,23.0895,-3.17E-01,-3.3967
757,23.1091,-3.09E-01,-3.39562
757.6,23.1286,-3.07E-01,-3.39588
758.2,23.1483,-3.05E-01,-3.39615
758.8,23.1681,-3.14E-01,-3.39643
759.4,23.1879,-3.27E-01,-3.3967
760,23.2074,-3.31E-01,-3.39659
760.6,23.227,-3.46E-01,-3.39591
761.2,23.2465,-3.45E-01,-3.39621
761.8,23.2664,-3.65E-01,-3.39649
762.4,23.2863,-3.72E-01,-3.39677
763,23.3056,-3.80E-01,-3.39705
763.6,23.3255,-3.77E-01,-3.39733
764.2,23.3448,-3.78E-01,-3.39759
764.8,23.3647,-3.95E-01,-3.39786
765.4,23.3846,-3.98E-01,-3.39811
766,23.4043,-4.05E-01,-3.39837
766.6,23.4241,-4.14E-01,-3.39862
767.2,23.4435,-4.31E-01,-3.39888
767.8,23.4633,-4.40E-01,-3.39919
768.4,23.4829,-4.42E-01,-3.39824
769,23.5029,-4.45E-01,-3.39834
769.6,23.5224,-4.48E-01,-3.39858
770.2,23.5422,-4.56E-01,-3.39883
770.8,23.5619,-4.63E-01,-3.39906
771.4,23.5815,-4.63E-01,-3.39929
772,23.6012,-4.60E-01,-3.39952
772.6,23.6207,-4.69E-01,-3.39975
773.2,23.6405,-4.75E-01,-3.39998
773.8,23.6603,-4.86E-01,-3.4002
774.4,23.68,-4.94E-01,-3.40042
775,23.6997,-4.97E-01,-3.40065
775.6,23.7193,-5.11E-01,-3.40065
776.2,23.739,-5.09E-01,-3.39977
776.8,23.7587,-5.10E-01,-3.40002
777.4,23.7782,-5.27E-01,-3.40031
778,23.7973,-5.24E-01,-3.39931
778.6,23.8181,-5.26E-01,-3.39944
779.2,23.8368,-5.28E-01,-3.39968
779.8,23.8568,-5.33E-01,-3.39993
780.4,23.8764,-5.37E-01,-3.40015
781,23.8962,-5.53E-01,-3.40036
781.6,23.9165,-5.48E-01,-3.40056
782.2,23.9361,-5.58E-01,-3.40076
782.8,23.9557,-5.64E-01,-3.40092
783.4,23.9755,-5.52E-01,-3.40108
784,23.9952,-5.58E-01,-3.4012
784.6,24.0152,-5.74E-01,-3.40132
785.2,24.0349,-5.77E-01,-3.40146
785.8,24.0548,-5.76E-01,-3.40162
786.4,24.0743,-5.90E-01,-3.4018
787,24.0939,-5.96E-01,-3.40191
787.6,24.114,-6.08E-01,-3.40204
788.2,24.1334,-5.99E-01,-3.40219
788.8,24.153,-6.06E-01,-3.40239
789.4,24.1729,-6.17E-01,-3.40264
790,24.1928,-6.11E-01,-3.40299
,,-6.30E-01,
,,-6.53E-01,
,,-6.35E-01,
,,-6.19E-01,
,,-6.16E-01,
,,-6.15E-01,