File: 01_Data/NFPA_1981-2019_SCBA_Lens/STA/N2/30K_min/NFPA_1981-2019_SCBA_Lens_STA_N2_30KData_250908_R2.csv
Temp./C,Time/min,DSC/(mW/mg),Mass loss/mg
40,0,9.92E-01,-1.41E-02
40.6,0.0384763,1.04E+00,-1.58E-02
41.2,0.07469247,1.10E+00,-1.57E-02
41.8,0.110659,1.14E+00,-1.67E-02
42.4,0.148021,1.18E+00,-1.61E-02
43,0.183552,1.21E+00,-1.66E-02
43.6,0.217496,1.26E+00,-1.79E-02
44.2,0.250301,1.30E+00,-1.76E-02
44.8,0.283793,1.33E+00,-1.79E-02
45.4,0.316371,1.37E+00,-1.82E-02
46,0.34757,1.40E+00,-1.76E-02
46.6,0.379535,1.43E+00,-1.77E-02
47.2,0.410144,1.45E+00,-1.79E-02
47.8,0.440557,1.49E+00,-1.74E-02
48.4,0.47053,1.53E+00,-1.78E-02
49,0.500042,1.55E+00,-1.70E-02
49.6,0.528769,1.57E+00,-1.58E-02
50.2,0.558152,1.60E+00,-1.51E-02
50.8,0.58618,1.63E+00,-1.55E-02
51.4,0.614552,1.66E+00,-1.52E-02
52,0.643177,1.68E+00,-1.44E-02
52.6,0.669526,1.70E+00,-1.45E-02
53.2,0.698404,1.73E+00,-1.37E-02
53.8,0.72565,1.74E+00,-1.33E-02
54.4,0.752249,1.77E+00,-1.34E-02
55,0.778935,1.80E+00,-1.27E-02
55.6,0.806299,1.81E+00,-1.20E-02
56.2,0.832383,1.84E+00,-1.10E-02
56.8,0.858021,1.86E+00,-1.06E-02
57.4,0.885155,1.89E+00,-9.47E-03
58,0.911056,1.90E+00,-8.33E-03
58.6,0.937065,1.92E+00,-8.57E-03
59.2,0.962636,1.93E+00,-8.72E-03
59.8,0.987584,1.97E+00,-8.34E-03
60.4,1.01336,1.98E+00,-7.21E-03
61,1.0388,1.99E+00,-6.86E-03
61.6,1.06357,2.01E+00,-7.18E-03
62.2,1.08878,2.02E+00,-6.65E-03
62.8,1.11284,2.05E+00,-5.99E-03
63.4,1.13817,2.07E+00,-6.51E-03
64,1.16243,2.08E+00,-6.45E-03
64.6,1.18685,2.10E+00,-5.50E-03
65.2,1.2109,2.10E+00,-5.11E-03
65.8,1.23641,2.12E+00,-4.93E-03
66.4,1.25984,2.14E+00,-4.70E-03
67,1.28483,2.16E+00,-4.91E-03
67.6,1.3082,2.16E+00,-4.78E-03
68.2,1.33126,2.18E+00,-3.63E-03
68.8,1.35582,2.19E+00,-3.07E-03
69.4,1.37987,2.22E+00,-2.69E-03
70,1.40365,2.23E+00,-1.91E-03
70.6,1.42709,2.24E+00,-1.40E-03
71.2,1.45064,2.25E+00,-1.83E-03
71.8,1.47487,2.26E+00,-1.92E-03
72.4,1.49727,2.28E+00,-9.52E-04
73,1.52052,2.29E+00,-8.36E-04
73.6,1.54353,2.31E+00,-4.57E-04
74.2,1.56784,2.32E+00,-1.71E-04
74.8,1.59083,2.33E+00,-2.76E-04
75.4,1.6133,2.34E+00,-6.96E-04
76,1.63627,2.35E+00,-1.06E-03
76.6,1.65979,2.37E+00,-1.85E-03
77.2,1.68253,2.39E+00,-2.70E-03
77.8,1.70684,2.41E+00,-2.74E-03
78.4,1.72962,2.42E+00,-1.61E-03
79,1.75203,2.42E+00,-6.03E-04
79.6,1.77489,2.44E+00,3.68E-04
80.2,1.79752,2.45E+00,1.31E-03
80.8,1.82013,2.47E+00,2.10E-03
81.4,1.84297,2.48E+00,2.99E-03
82,1.86553,2.50E+00,2.34E-03
82.6,1.88793,2.51E+00,3.03E-03
83.2,1.90983,2.52E+00,2.62E-03
83.8,1.93273,2.54E+00,2.32E-03
84.4,1.95464,2.55E+00,2.75E-03
85,1.97739,2.56E+00,1.95E-03
85.6,1.99928,2.58E+00,2.44E-03
86.2,2.02134,2.58E+00,2.34E-03
86.8,2.04365,2.60E+00,3.02E-03
87.4,2.06524,2.61E+00,2.42E-03
88,2.08683,2.63E+00,2.90E-03
88.6,2.10904,2.63E+00,2.38E-03
89.2,2.13069,2.64E+00,2.25E-03
89.8,2.15225,2.66E+00,2.49E-03
90.4,2.1739,2.66E+00,3.17E-03
91,2.19603,2.67E+00,2.54E-03
91.6,2.2172,2.69E+00,3.05E-03
92.2,2.23866,2.69E+00,3.64E-03
92.8,2.26035,2.70E+00,3.71E-03
93.4,2.28159,2.72E+00,3.52E-03
94,2.3033,2.72E+00,4.12E-03
94.6,2.32488,2.73E+00,3.78E-03
95.2,2.34585,2.73E+00,3.96E-03
95.8,2.36685,2.74E+00,4.54E-03
96.4,2.3885,2.74E+00,5.12E-03
97,2.40972,2.76E+00,4.36E-03
97.6,2.43039,2.77E+00,4.77E-03
98.2,2.45115,2.77E+00,4.95E-03
98.8,2.47291,2.78E+00,4.46E-03
99.4,2.49375,2.78E+00,4.93E-03
100,2.51484,2.79E+00,5.47E-03
100.6,2.5359,2.79E+00,4.65E-03
101.2,2.55659,2.81E+00,4.99E-03
101.8,2.57771,2.82E+00,5.52E-03
102.4,2.59827,2.82E+00,5.83E-03
103,2.6194,2.84E+00,4.89E-03
103.6,2.64028,2.85E+00,3.76E-03
104.2,2.66101,2.86E+00,3.43E-03
104.8,2.68222,2.87E+00,3.12E-03
105.4,2.70238,2.89E+00,3.53E-03
106,2.72327,2.89E+00,3.93E-03
106.6,2.74395,2.90E+00,4.32E-03
107.2,2.76492,2.91E+00,4.71E-03
107.8,2.78512,2.93E+00,5.08E-03
108.4,2.80603,2.94E+00,5.49E-03
109,2.8267,2.95E+00,5.43E-03
109.6,2.84658,2.95E+00,4.90E-03
110.2,2.86755,2.96E+00,5.25E-03
110.8,2.88854,2.97E+00,5.60E-03
111.4,2.90903,2.98E+00,5.92E-03
112,2.92884,2.99E+00,5.54E-03
112.6,2.94971,3.00E+00,5.28E-03
113.2,2.9695,3.00E+00,5.61E-03
113.8,2.99048,3.01E+00,5.70E-03
114.4,3.01154,3.02E+00,4.94E-03
115,3.03135,3.04E+00,5.27E-03
115.6,3.05203,3.05E+00,5.58E-03
116.2,3.0722,3.06E+00,4.90E-03
116.8,3.09246,3.07E+00,4.90E-03
117.4,3.11292,3.08E+00,5.19E-03
118,3.13288,3.10E+00,5.47E-03
118.6,3.15356,3.11E+00,5.74E-03
119.2,3.17371,3.12E+00,4.63E-03
119.8,3.19388,3.14E+00,4.97E-03
120.4,3.21406,3.13E+00,5.23E-03
121,3.23407,3.14E+00,5.31E-03
121.6,3.254,3.16E+00,4.43E-03
122.2,3.27446,3.17E+00,4.67E-03
122.8,3.29465,3.18E+00,4.91E-03
123.4,3.31435,3.20E+00,5.14E-03
124,3.33461,3.21E+00,5.37E-03
124.6,3.35461,3.23E+00,5.60E-03
125.2,3.37446,3.23E+00,5.64E-03
125.8,3.39445,3.23E+00,4.76E-03
126.4,3.41431,3.25E+00,4.76E-03
127,3.43416,3.27E+00,3.66E-03
127.6,3.45418,3.27E+00,3.88E-03
128.2,3.47408,3.28E+00,4.09E-03
128.8,3.49365,3.29E+00,4.29E-03
129.4,3.51314,3.31E+00,4.61E-03
130,3.53326,3.31E+00,5.99E-03
130.6,3.55313,3.32E+00,6.18E-03
131.2,3.57273,3.33E+00,6.38E-03
131.8,3.59121,3.34E+00,6.56E-03
132.4,3.61214,3.35E+00,6.74E-03
133,3.63152,3.37E+00,6.92E-03
133.6,3.65081,3.38E+00,7.09E-03
134.2,3.67084,3.39E+00,6.35E-03
134.8,3.68998,3.40E+00,6.09E-03
135.4,3.70943,3.41E+00,6.26E-03
136,3.72852,3.43E+00,6.41E-03
136.6,3.74856,3.43E+00,6.58E-03
137.2,3.76822,3.44E+00,6.38E-03
137.8,3.78704,3.45E+00,5.51E-03
138.4,3.80686,3.47E+00,4.66E-03
139,3.82592,3.47E+00,4.23E-03
139.6,3.84527,3.48E+00,4.34E-03
140.2,3.86489,3.49E+00,4.47E-03
140.8,3.88399,3.49E+00,4.56E-03
141.4,3.90318,3.50E+00,5.84E-03
142,3.92267,3.51E+00,6.19E-03
142.6,3.94178,3.53E+00,6.32E-03
143.2,3.96104,3.53E+00,6.44E-03
143.8,3.98031,3.54E+00,6.56E-03
144.4,3.99865,3.55E+00,6.67E-03
145,4.01825,3.55E+00,6.78E-03
145.6,4.03728,3.57E+00,6.88E-03
146.2,4.05633,3.58E+00,6.99E-03
146.8,4.07553,3.58E+00,6.35E-03
147.4,4.09461,3.60E+00,5.89E-03
148,4.11352,3.60E+00,5.96E-03
148.6,4.13262,3.61E+00,6.06E-03
149.2,4.15181,3.63E+00,6.15E-03
149.8,4.17056,3.64E+00,6.25E-03
150.4,4.18971,3.65E+00,6.34E-03
151,4.20868,3.66E+00,6.43E-03
151.6,4.22747,3.66E+00,6.52E-03
152.2,4.24641,3.66E+00,6.62E-03
152.8,4.26514,3.68E+00,6.72E-03
153.4,4.28403,3.69E+00,6.80E-03
154,4.30319,3.69E+00,6.87E-03
154.6,4.32146,3.70E+00,6.94E-03
155.2,4.34028,3.71E+00,7.01E-03
155.8,4.35919,3.72E+00,7.07E-03
156.4,4.37859,3.73E+00,7.13E-03
157,4.39723,3.73E+00,6.90E-03
157.6,4.41625,3.75E+00,5.92E-03
158.2,4.43475,3.76E+00,6.03E-03
158.8,4.45394,3.76E+00,6.10E-03
159.4,4.47232,3.77E+00,6.16E-03
160,4.49116,3.78E+00,6.22E-03
160.6,4.5104,3.79E+00,4.81E-03
161.2,4.52865,3.80E+00,4.78E-03
161.8,4.54734,3.81E+00,4.81E-03
162.4,4.56624,3.82E+00,4.81E-03
163,4.58512,3.83E+00,5.88E-03
163.6,4.60366,3.83E+00,6.36E-03
164.2,4.62235,3.84E+00,6.42E-03
164.8,4.64117,3.86E+00,6.45E-03
165.4,4.65951,3.86E+00,6.50E-03
166,4.67852,3.86E+00,6.54E-03
166.6,4.69644,3.87E+00,6.58E-03
167.2,4.71568,3.88E+00,6.62E-03
167.8,4.73402,3.89E+00,6.65E-03
168.4,4.75293,3.90E+00,6.69E-03
169,4.77162,3.91E+00,6.73E-03
169.6,4.79003,3.92E+00,6.77E-03
170.2,4.80876,3.92E+00,6.80E-03
170.8,4.82715,3.93E+00,6.84E-03
171.4,4.84559,3.94E+00,6.87E-03
172,4.86414,3.95E+00,6.89E-03
172.6,4.88284,3.96E+00,6.92E-03
173.2,4.90151,3.97E+00,6.95E-03
173.8,4.91975,3.97E+00,6.96E-03
174.4,4.93852,3.97E+00,6.98E-03
175,4.95712,3.99E+00,6.99E-03
175.6,4.97546,4.00E+00,7.00E-03
176.2,4.99402,4.00E+00,7.01E-03
176.8,5.01221,4.01E+00,7.03E-03
177.4,5.03098,4.03E+00,7.05E-03
178,5.04952,4.03E+00,7.07E-03
178.6,5.06769,4.04E+00,7.09E-03
179.2,5.08618,4.04E+00,7.11E-03
179.8,5.10474,4.05E+00,7.13E-03
180.4,5.12297,4.05E+00,7.13E-03
181,5.14154,4.06E+00,7.13E-03
181.6,5.15941,4.07E+00,7.12E-03
182.2,5.17788,4.08E+00,7.12E-03
182.8,5.1964,4.09E+00,7.11E-03
183.4,5.21463,4.10E+00,7.11E-03
184,5.23283,4.10E+00,7.10E-03
184.6,5.25123,4.11E+00,7.09E-03
185.2,5.26951,4.13E+00,7.09E-03
185.8,5.28785,4.13E+00,7.08E-03
186.4,5.30562,4.14E+00,7.86E-03
187,5.32374,4.14E+00,8.38E-03
187.6,5.34207,4.15E+00,8.41E-03
188.2,5.3606,4.16E+00,8.41E-03
188.8,5.37926,4.17E+00,8.41E-03
189.4,5.3973,4.17E+00,8.41E-03
190,5.41555,4.18E+00,8.39E-03
190.6,5.43366,4.19E+00,8.39E-03
191.2,5.45198,4.20E+00,8.02E-03
191.8,5.46986,4.21E+00,8.00E-03
192.4,5.48848,4.22E+00,7.57E-03
193,5.50636,4.23E+00,6.97E-03
193.6,5.52446,4.24E+00,6.97E-03
194.2,5.54247,4.25E+00,6.95E-03
194.8,5.56061,4.26E+00,6.94E-03
195.4,5.57886,4.27E+00,6.94E-03
196,5.59709,4.28E+00,6.93E-03
196.6,5.61518,4.29E+00,6.92E-03
197.2,5.63323,4.30E+00,6.92E-03
197.8,5.65116,4.31E+00,6.91E-03
198.4,5.66945,4.33E+00,6.89E-03
199,5.68759,4.35E+00,6.86E-03
199.6,5.70571,4.37E+00,6.84E-03
200.2,5.7237,4.39E+00,6.84E-03
200.8,5.74176,4.41E+00,5.76E-03
201.4,5.75997,4.42E+00,5.43E-03
202,5.77821,4.44E+00,5.42E-03
202.6,5.79622,4.47E+00,5.39E-03
203.2,5.8141,4.50E+00,5.35E-03
203.8,5.83256,4.52E+00,6.10E-03
204.4,5.85105,4.56E+00,6.67E-03
205,5.86847,4.59E+00,6.64E-03
205.6,5.88608,4.63E+00,6.62E-03
206.2,5.90518,4.66E+00,6.60E-03
206.8,5.92298,4.69E+00,6.58E-03
207.4,5.941,4.73E+00,6.55E-03
208,5.95905,4.74E+00,6.51E-03
208.6,5.977,4.78E+00,6.47E-03
209.2,5.99478,4.80E+00,6.43E-03
209.8,6.01325,4.82E+00,6.39E-03
210.4,6.03135,4.83E+00,6.35E-03
211,6.04932,4.84E+00,6.32E-03
211.6,6.06723,4.85E+00,6.28E-03
212.2,6.08437,4.87E+00,6.24E-03
212.8,6.10341,4.88E+00,6.21E-03
213.4,6.12105,4.89E+00,6.17E-03
214,6.13926,4.90E+00,6.13E-03
214.6,6.157,4.90E+00,6.09E-03
215.2,6.17511,4.92E+00,6.05E-03
215.8,6.19299,4.93E+00,6.02E-03
216.4,6.21108,4.93E+00,6.00E-03
217,6.22835,4.93E+00,5.97E-03
217.6,6.24706,4.94E+00,5.95E-03
218.2,6.26484,4.95E+00,5.93E-03
218.8,6.28297,4.96E+00,5.90E-03
219.4,6.30101,4.96E+00,5.87E-03
220,6.31862,4.96E+00,5.83E-03
220.6,6.3367,4.97E+00,6.67E-03
221.2,6.35468,4.97E+00,7.05E-03
221.8,6.37244,4.97E+00,7.04E-03
222.4,6.39082,4.99E+00,7.00E-03
223,6.40848,4.99E+00,6.97E-03
223.6,6.42632,5.00E+00,6.94E-03
224.2,6.44338,5.00E+00,6.92E-03
224.8,6.46172,5.01E+00,6.89E-03
225.4,6.47987,5.02E+00,6.85E-03
226,6.49749,5.01E+00,6.25E-03
226.6,6.51596,5.02E+00,5.49E-03
227.2,6.53314,5.03E+00,5.47E-03
227.8,6.55079,5.03E+00,5.44E-03
228.4,6.56874,5.03E+00,5.40E-03
229,6.58676,5.04E+00,5.43E-03
229.6,6.60475,5.05E+00,6.74E-03
230.2,6.62252,5.06E+00,6.60E-03
230.8,6.64151,5.07E+00,6.55E-03
231.4,6.65854,5.07E+00,6.51E-03
232,6.67676,5.07E+00,6.48E-03
232.6,6.69473,5.09E+00,6.44E-03
233.2,6.71233,5.10E+00,6.41E-03
233.8,6.73042,5.10E+00,6.39E-03
234.4,6.74809,5.11E+00,6.36E-03
235,6.76584,5.12E+00,6.33E-03
235.6,6.78394,5.12E+00,6.30E-03
236.2,6.80178,5.13E+00,6.27E-03
236.8,6.81954,5.14E+00,6.24E-03
237.4,6.83756,5.14E+00,6.20E-03
238,6.85539,5.16E+00,6.15E-03
238.6,6.87329,5.17E+00,6.10E-03
239.2,6.89073,5.18E+00,6.05E-03
239.8,6.90909,5.19E+00,6.01E-03
240.4,6.92689,5.20E+00,5.96E-03
241,6.94455,5.20E+00,5.90E-03
241.6,6.9626,5.21E+00,5.85E-03
242.2,6.98016,5.23E+00,5.81E-03
242.8,6.99815,5.24E+00,5.77E-03
243.4,7.01592,5.24E+00,5.73E-03
244,7.03354,5.24E+00,5.69E-03
244.6,7.05175,5.26E+00,5.65E-03
245.2,7.06944,5.26E+00,5.57E-03
245.8,7.08726,5.26E+00,6.68E-03
246.4,7.1051,5.27E+00,6.83E-03
247,7.12313,5.28E+00,6.80E-03
247.6,7.14083,5.30E+00,6.76E-03
248.2,7.15859,5.30E+00,6.69E-03
248.8,7.17624,5.29E+00,6.34E-03
249.4,7.19428,5.30E+00,5.98E-03
250,7.21219,5.31E+00,5.90E-03
250.6,7.23013,5.31E+00,5.86E-03
251.2,7.24751,5.31E+00,5.81E-03
251.8,7.26542,5.32E+00,5.77E-03
252.4,7.28322,5.33E+00,5.73E-03
253,7.30121,5.34E+00,5.69E-03
253.6,7.31898,5.34E+00,5.65E-03
254.2,7.33658,5.34E+00,5.61E-03
254.8,7.35451,5.34E+00,5.56E-03
255.4,7.37236,5.35E+00,5.52E-03
256,7.39022,5.35E+00,5.48E-03
256.6,7.40778,5.36E+00,5.34E-03
257.2,7.4258,5.37E+00,6.62E-03
257.8,7.44344,5.38E+00,6.66E-03
258.4,7.46135,5.37E+00,6.61E-03
259,7.47884,5.37E+00,6.56E-03
259.6,7.49666,5.38E+00,6.52E-03
260.2,7.51474,5.39E+00,6.52E-03
260.8,7.53206,5.38E+00,5.37E-03
261.4,7.55042,5.39E+00,5.37E-03
262,7.56792,5.40E+00,5.31E-03
262.6,7.58574,5.40E+00,5.25E-03
263.2,7.60346,5.41E+00,5.20E-03
263.8,7.62148,5.41E+00,5.15E-03
264.4,7.63912,5.42E+00,5.10E-03
265,7.65699,5.41E+00,5.05E-03
265.6,7.67382,5.41E+00,5.02E-03
266.2,7.69168,5.43E+00,6.29E-03
266.8,7.71015,5.43E+00,6.21E-03
267.4,7.72781,5.43E+00,6.16E-03
268,7.74589,5.44E+00,6.11E-03
268.6,7.76347,5.44E+00,6.05E-03
269.2,7.78154,5.44E+00,6.00E-03
269.8,7.79922,5.45E+00,5.94E-03
270.4,7.81668,5.45E+00,5.89E-03
271,7.8346,5.46E+00,5.83E-03
271.6,7.85227,5.46E+00,5.78E-03
272.2,7.87007,5.47E+00,5.80E-03
272.8,7.8881,5.47E+00,4.34E-03
273.4,7.90586,5.48E+00,4.25E-03
274,7.92352,5.47E+00,4.34E-03
274.6,7.94136,5.48E+00,5.57E-03
275.2,7.95909,5.49E+00,5.53E-03
275.8,7.97679,5.50E+00,5.42E-03
276.4,7.99474,5.50E+00,6.18E-03
277,8.01257,5.50E+00,6.06E-03
277.6,8.03033,5.51E+00,6.02E-03
278.2,8.04831,5.50E+00,6.41E-03
278.8,8.06576,5.51E+00,6.55E-03
279.4,8.08384,5.51E+00,6.51E-03
280,8.10122,5.51E+00,6.46E-03
280.6,8.11965,5.52E+00,6.41E-03
281.2,8.13716,5.52E+00,6.36E-03
281.8,8.15462,5.53E+00,6.32E-03
282.4,8.17264,5.53E+00,6.28E-03
283,8.19048,5.53E+00,6.24E-03
283.6,8.20855,5.53E+00,6.20E-03
284.2,8.22596,5.53E+00,6.16E-03
284.8,8.24353,5.53E+00,6.11E-03
285.4,8.26159,5.54E+00,6.07E-03
286,8.27951,5.54E+00,6.02E-03
286.6,8.29732,5.54E+00,5.97E-03
287.2,8.31506,5.54E+00,5.91E-03
287.8,8.33278,5.55E+00,5.85E-03
288.4,8.35057,5.55E+00,5.76E-03
289,8.36874,5.56E+00,6.67E-03
289.6,8.38631,5.56E+00,6.65E-03
290.2,8.40408,5.57E+00,6.60E-03
290.8,8.42196,5.57E+00,6.54E-03
291.4,8.43979,5.57E+00,6.48E-03
292,8.45764,5.56E+00,6.43E-03
292.6,8.47537,5.56E+00,6.37E-03
293.2,8.49307,5.57E+00,6.31E-03
293.8,8.51108,5.57E+00,6.26E-03
294.4,8.52879,5.57E+00,6.20E-03
295,8.54677,5.58E+00,6.14E-03
295.6,8.56449,5.56E+00,6.08E-03
296.2,8.58232,5.57E+00,6.03E-03
296.8,8.6,5.58E+00,5.97E-03
297.4,8.61785,5.58E+00,5.91E-03
298,8.63595,5.58E+00,5.85E-03
298.6,8.65381,5.58E+00,5.79E-03
299.2,8.67145,5.58E+00,5.73E-03
299.8,8.68939,5.59E+00,5.68E-03
300.4,8.70733,5.59E+00,5.62E-03
301,8.72488,5.59E+00,5.57E-03
301.6,8.74293,5.58E+00,5.55E-03
302.2,8.76043,5.58E+00,5.81E-03
302.8,8.77836,5.58E+00,5.76E-03
303.4,8.79617,5.58E+00,5.71E-03
304,8.8139,5.59E+00,5.66E-03
304.6,8.83218,5.59E+00,5.60E-03
305.2,8.84973,5.58E+00,6.06E-03
305.8,8.86771,5.58E+00,6.85E-03
306.4,8.88523,5.59E+00,6.76E-03
307,8.90356,5.59E+00,6.70E-03
307.6,8.92127,5.59E+00,6.64E-03
308.2,8.93916,5.60E+00,6.59E-03
308.8,8.9566,5.60E+00,6.53E-03
309.4,8.97376,5.60E+00,6.47E-03
310,8.99189,5.59E+00,6.42E-03
310.6,9.01027,5.60E+00,6.37E-03
311.2,9.02797,5.59E+00,6.33E-03
311.8,9.04598,5.59E+00,6.28E-03
312.4,9.06351,5.60E+00,6.24E-03
313,9.08146,5.60E+00,6.19E-03
313.6,9.09888,5.60E+00,6.14E-03
314.2,9.11726,5.60E+00,6.10E-03
314.8,9.13528,5.60E+00,6.05E-03
315.4,9.15289,5.61E+00,6.00E-03
316,9.17079,5.61E+00,5.95E-03
316.6,9.18816,5.60E+00,5.89E-03
317.2,9.20612,5.60E+00,5.83E-03
317.8,9.22409,5.61E+00,5.76E-03
318.4,9.24224,5.61E+00,5.69E-03
319,9.26003,5.61E+00,5.63E-03
319.6,9.27775,5.62E+00,5.56E-03
320.2,9.29599,5.61E+00,5.49E-03
320.8,9.3137,5.61E+00,5.42E-03
321.4,9.33169,5.61E+00,5.35E-03
322,9.3496,5.62E+00,5.29E-03
322.6,9.3672,5.62E+00,5.22E-03
323.2,9.38513,5.62E+00,5.15E-03
323.8,9.40294,5.63E+00,5.08E-03
324.4,9.421,5.62E+00,5.01E-03
325,9.43868,5.62E+00,5.37E-03
325.6,9.45657,5.62E+00,6.23E-03
326.2,9.47435,5.62E+00,6.10E-03
326.8,9.49259,5.61E+00,6.01E-03
327.4,9.51031,5.62E+00,5.92E-03
328,9.52836,5.63E+00,5.84E-03
328.6,9.54638,5.63E+00,5.75E-03
329.2,9.56383,5.63E+00,5.67E-03
329.8,9.58185,5.62E+00,5.58E-03
330.4,9.59905,5.62E+00,5.50E-03
331,9.61704,5.63E+00,5.42E-03
331.6,9.63561,5.63E+00,5.34E-03
332.2,9.6536,5.63E+00,5.26E-03
332.8,9.67116,5.62E+00,5.18E-03
333.4,9.68882,5.63E+00,5.10E-03
334,9.70716,5.63E+00,5.01E-03
334.6,9.72459,5.62E+00,4.93E-03
335.2,9.74292,5.63E+00,4.84E-03
335.8,9.76074,5.63E+00,4.75E-03
336.4,9.77861,5.63E+00,4.66E-03
337,9.79687,5.63E+00,4.58E-03
337.6,9.81462,5.63E+00,4.50E-03
338.2,9.8326,5.63E+00,4.42E-03
338.8,9.8508,5.62E+00,4.34E-03
339.4,9.86824,5.62E+00,4.26E-03
340,9.88632,5.62E+00,4.18E-03
340.6,9.90429,5.63E+00,4.10E-03
341.2,9.92222,5.63E+00,4.02E-03
341.8,9.94022,5.63E+00,3.93E-03
342.4,9.95809,5.63E+00,3.85E-03
343,9.97621,5.63E+00,3.77E-03
343.6,9.99406,5.63E+00,3.69E-03
344.2,10.0119,5.63E+00,3.61E-03
344.8,10.0301,5.63E+00,3.53E-03
345.4,10.0481,5.63E+00,3.45E-03
346,10.0661,5.63E+00,3.44E-03
346.6,10.0838,5.63E+00,4.71E-03
347.2,10.1019,5.63E+00,4.56E-03
347.8,10.1194,5.64E+00,4.48E-03
348.4,10.138,5.63E+00,4.40E-03
349,10.156,5.63E+00,4.32E-03
349.6,10.1738,5.63E+00,4.15E-03
350.2,10.192,5.63E+00,2.84E-03
350.8,10.21,5.64E+00,2.78E-03
351.4,10.228,5.65E+00,2.70E-03
352,10.2459,5.65E+00,2.61E-03
352.6,10.2638,5.65E+00,2.52E-03
353.2,10.282,5.65E+00,2.43E-03
353.8,10.3,5.64E+00,2.34E-03
354.4,10.318,5.64E+00,2.16E-03
355,10.336,5.64E+00,3.41E-03
355.6,10.3539,5.64E+00,3.41E-03
356.2,10.3722,5.65E+00,3.32E-03
356.8,10.3901,5.65E+00,3.23E-03
357.4,10.4081,5.64E+00,3.14E-03
358,10.4262,5.64E+00,3.04E-03
358.6,10.4443,5.63E+00,2.96E-03
359.2,10.4625,5.63E+00,2.87E-03
359.8,10.4804,5.63E+00,2.79E-03
360.4,10.4985,5.64E+00,2.70E-03
361,10.5166,5.63E+00,2.61E-03
361.6,10.5346,5.64E+00,2.52E-03
362.2,10.5526,5.63E+00,2.42E-03
362.8,10.5706,5.63E+00,2.33E-03
363.4,10.5887,5.63E+00,2.24E-03
364,10.607,5.63E+00,2.15E-03
364.6,10.6251,5.63E+00,2.06E-03
365.2,10.6431,5.63E+00,1.96E-03
365.8,10.6615,5.63E+00,1.87E-03
366.4,10.6793,5.62E+00,1.79E-03
367,10.6976,5.62E+00,1.70E-03
367.6,10.7157,5.62E+00,1.60E-03
368.2,10.7337,5.62E+00,1.39E-03
368.8,10.7518,5.61E+00,7.84E-04
369.4,10.7703,5.62E+00,6.93E-04
370,10.7884,5.62E+00,6.12E-04
370.6,10.8065,5.62E+00,5.30E-04
371.2,10.8246,5.61E+00,4.49E-04
371.8,10.8425,5.61E+00,3.69E-04
372.4,10.8609,5.61E+00,2.91E-04
373,10.8791,5.60E+00,2.08E-04
373.6,10.8971,5.60E+00,1.22E-04
374.2,10.9153,5.61E+00,3.80E-05
374.8,10.9335,5.61E+00,-4.58E-05
375.4,10.9517,5.61E+00,-1.30E-04
376,10.9702,5.62E+00,-2.78E-04
376.6,10.9877,5.61E+00,9.97E-04
377.2,11.0058,5.60E+00,9.43E-04
377.8,11.0242,5.60E+00,8.58E-04
378.4,11.0426,5.60E+00,7.72E-04
379,11.0605,5.60E+00,6.86E-04
379.6,11.0791,5.60E+00,6.01E-04
380.2,11.0973,5.60E+00,4.22E-04
380.8,11.1152,5.59E+00,1.53E-03
381.4,11.1336,5.59E+00,1.34E-03
382,11.1518,5.60E+00,1.23E-03
382.6,11.1703,5.59E+00,1.15E-03
383.2,11.1882,5.59E+00,1.05E-03
383.8,11.2064,5.59E+00,9.64E-04
384.4,11.2247,5.58E+00,9.23E-04
385,11.2428,5.59E+00,-3.19E-04
385.6,11.261,5.58E+00,-6.26E-04
386.2,11.2792,5.58E+00,-7.31E-04
386.8,11.2975,5.58E+00,-8.37E-04
387.4,11.3158,5.57E+00,-9.47E-04
388,11.3343,5.57E+00,-1.06E-03
388.6,11.3522,5.56E+00,-1.18E-03
389.2,11.3704,5.55E+00,-1.28E-03
389.8,11.389,5.55E+00,-1.40E-03
390.4,11.4069,5.55E+00,-1.53E-03
391,11.4254,5.55E+00,-1.66E-03
391.6,11.4433,5.55E+00,-1.79E-03
392.2,11.4619,5.54E+00,-1.89E-03
392.8,11.4802,5.53E+00,-2.03E-03
393.4,11.4986,5.53E+00,-2.16E-03
394,11.5169,5.53E+00,-2.30E-03
394.6,11.535,5.53E+00,-2.44E-03
395.2,11.5534,5.53E+00,-2.56E-03
395.8,11.5717,5.52E+00,-2.72E-03
396.4,11.5899,5.52E+00,-2.87E-03
397,11.6085,5.51E+00,-3.03E-03
397.6,11.6266,5.51E+00,-3.19E-03
398.2,11.645,5.51E+00,-3.32E-03
398.8,11.6634,5.51E+00,-3.48E-03
399.4,11.6819,5.51E+00,-3.63E-03
400,11.6999,5.51E+00,-3.79E-03
400.6,11.7182,5.51E+00,-3.96E-03
401.2,11.7366,5.50E+00,-4.10E-03
401.8,11.7551,5.50E+00,-4.28E-03
402.4,11.773,5.50E+00,-4.45E-03
403,11.7914,5.50E+00,-4.63E-03
403.6,11.8101,5.49E+00,-4.82E-03
404.2,11.8284,5.49E+00,-4.99E-03
404.8,11.8466,5.48E+00,-5.17E-03
405.4,11.8651,5.47E+00,-5.35E-03
406,11.8834,5.47E+00,-5.52E-03
406.6,11.9019,5.47E+00,-5.69E-03
407.2,11.9202,5.47E+00,-4.60E-03
407.8,11.9387,5.47E+00,-4.74E-03
408.4,11.9568,5.47E+00,-4.94E-03
409,11.9755,5.46E+00,-5.14E-03
409.6,11.9933,5.46E+00,-5.34E-03
410.2,12.0116,5.45E+00,-5.54E-03
410.8,12.0304,5.45E+00,-5.74E-03
411.4,12.049,5.45E+00,-5.24E-03
412,12.0673,5.46E+00,-4.85E-03
412.6,12.0859,5.44E+00,-5.06E-03
413.2,12.1043,5.45E+00,-5.27E-03
413.8,12.1225,5.45E+00,-5.50E-03
414.4,12.1411,5.44E+00,-5.69E-03
415,12.1593,5.44E+00,-7.25E-03
415.6,12.1778,5.43E+00,-7.49E-03
416.2,12.1965,5.42E+00,-7.73E-03
416.8,12.2149,5.42E+00,-7.97E-03
417.4,12.2334,5.42E+00,-8.22E-03
418,12.2518,5.42E+00,-8.46E-03
418.6,12.2703,5.42E+00,-8.71E-03
419.2,12.2884,5.42E+00,-8.97E-03
419.8,12.3069,5.42E+00,-9.18E-03
420.4,12.3259,5.43E+00,-9.44E-03
421,12.3442,5.43E+00,-9.70E-03
421.6,12.3624,5.44E+00,-9.97E-03
422.2,12.381,5.44E+00,-1.02E-02
422.8,12.3993,5.43E+00,-1.05E-02
423.4,12.4174,5.43E+00,-1.06E-02
424,12.4364,5.43E+00,-9.62E-03
424.6,12.455,5.43E+00,-1.00E-02
425.2,12.4736,5.43E+00,-1.03E-02
425.8,12.4923,5.43E+00,-1.06E-02
426.4,12.5105,5.43E+00,-1.09E-02
427,12.529,5.43E+00,-1.12E-02
427.6,12.5478,5.44E+00,-1.16E-02
428.2,12.5661,5.43E+00,-1.20E-02
428.8,12.5847,5.43E+00,-1.14E-02
429.4,12.6034,5.43E+00,-1.13E-02
430,12.621,5.43E+00,-1.16E-02
430.6,12.6402,5.42E+00,-1.20E-02
431.2,12.6588,5.42E+00,-1.24E-02
431.8,12.6778,5.43E+00,-1.29E-02
432.4,12.6961,5.43E+00,-1.33E-02
433,12.7146,5.43E+00,-1.38E-02
433.6,12.7331,5.43E+00,-1.42E-02
434.2,12.7515,5.43E+00,-1.46E-02
434.8,12.7697,5.43E+00,-1.51E-02
435.4,12.7886,5.43E+00,-1.57E-02
436,12.8077,5.43E+00,-1.62E-02
436.6,12.8258,5.43E+00,-1.68E-02
437.2,12.8447,5.44E+00,-1.74E-02
437.8,12.8631,5.43E+00,-1.80E-02
438.4,12.8819,5.44E+00,-1.86E-02
439,12.9007,5.44E+00,-1.94E-02
439.6,12.9192,5.44E+00,-2.01E-02
440.2,12.9377,5.45E+00,-2.09E-02
440.8,12.9564,5.45E+00,-2.04E-02
441.4,12.9748,5.45E+00,-2.09E-02
442,12.9937,5.46E+00,-2.17E-02
442.6,13.012,5.46E+00,-2.26E-02
443.2,13.0307,5.46E+00,-2.35E-02
443.8,13.0492,5.46E+00,-2.44E-02
444.4,13.068,5.47E+00,-2.53E-02
445,13.0864,5.47E+00,-2.73E-02
445.6,13.1051,5.47E+00,-2.84E-02
446.2,13.1236,5.47E+00,-2.94E-02
446.8,13.1425,5.47E+00,-3.05E-02
447.4,13.161,5.48E+00,-3.16E-02
448,13.1795,5.48E+00,-3.27E-02
448.6,13.1982,5.49E+00,-3.39E-02
449.2,13.2168,5.50E+00,-3.49E-02
449.8,13.2355,5.51E+00,-3.46E-02
450.4,13.2542,5.51E+00,-3.60E-02
451,13.273,5.52E+00,-3.73E-02
451.6,13.2912,5.52E+00,-3.87E-02
452.2,13.31,5.52E+00,-4.01E-02
452.8,13.3291,5.51E+00,-4.16E-02
453.4,13.3473,5.51E+00,-4.30E-02
454,13.3664,5.51E+00,-4.54E-02
454.6,13.3849,5.52E+00,-4.73E-02
455.2,13.4035,5.53E+00,-4.90E-02
455.8,13.4222,5.54E+00,-5.07E-02
456.4,13.4407,5.53E+00,-5.24E-02
457,13.4598,5.53E+00,-5.42E-02
457.6,13.4781,5.53E+00,-5.60E-02
458.2,13.497,5.54E+00,-5.78E-02
458.8,13.5157,5.54E+00,-5.96E-02
459.4,13.5344,5.56E+00,-6.15E-02
460,13.5531,5.57E+00,-6.35E-02
460.6,13.5717,5.56E+00,-6.56E-02
461.2,13.5901,5.57E+00,-6.71E-02
461.8,13.6092,5.57E+00,-6.85E-02
462.4,13.6279,5.57E+00,-7.08E-02
463,13.6467,5.57E+00,-7.26E-02
463.6,13.6654,5.57E+00,-7.50E-02
464.2,13.6842,5.57E+00,-7.74E-02
464.8,13.7028,5.57E+00,-7.98E-02
465.4,13.7214,5.54E+00,-8.23E-02
466,13.7401,5.54E+00,-8.49E-02
466.6,13.7589,5.56E+00,-8.89E-02
467.2,13.7779,5.57E+00,-9.18E-02
467.8,13.7964,5.60E+00,-9.42E-02
468.4,13.8154,5.62E+00,-9.72E-02
469,13.8339,5.61E+00,-0.10028
469.6,13.8527,5.61E+00,-0.10345
470.2,13.8715,5.62E+00,-0.10672
470.8,13.8902,5.63E+00,-0.10879
471.4,13.9091,5.64E+00,-0.11228
472,13.9278,5.66E+00,-0.11592
472.6,13.9466,5.68E+00,-0.11974
473.2,13.9654,5.70E+00,-0.12288
473.8,13.9843,5.73E+00,-0.12695
474.4,14.0033,5.76E+00,-0.13107
475,14.022,5.77E+00,-0.13529
475.6,14.0406,5.79E+00,-0.13967
476.2,14.0589,5.80E+00,-0.14426
476.8,14.0779,5.80E+00,-0.14895
477.4,14.0972,5.82E+00,-0.15472
478,14.1161,5.82E+00,-0.15985
478.6,14.135,5.82E+00,-0.16528
479.2,14.1538,5.84E+00,-0.1698
479.8,14.1725,5.89E+00,-0.1756
480.4,14.1913,5.92E+00,-0.18159
481,14.2104,5.95E+00,-0.1878
481.6,14.2294,5.99E+00,-0.1943
482.2,14.2482,6.03E+00,-0.20102
482.8,14.2673,6.07E+00,-0.20802
483.4,14.2859,6.11E+00,-0.21527
484,14.3049,6.14E+00,-0.2228
484.6,14.324,6.15E+00,-0.23061
485.2,14.342,6.17E+00,-0.23882
485.8,14.3612,6.22E+00,-0.24565
486.4,14.3805,6.28E+00,-0.25434
487,14.3988,6.34E+00,-0.26342
487.6,14.418,6.36E+00,-0.27282
488.2,14.4367,6.38E+00,-0.28256
488.8,14.4557,6.43E+00,-0.29279
489.4,14.4747,6.49E+00,-0.30342
490,14.4946,6.56E+00,-0.31453
490.6,14.513,6.62E+00,-0.326
491.2,14.5324,6.62E+00,-0.33654
491.8,14.5512,6.66E+00,-0.34879
492.4,14.5702,6.71E+00,-0.36151
493,14.5893,6.78E+00,-0.37576
493.6,14.6083,6.84E+00,-0.38834
494.2,14.6272,6.89E+00,-0.40188
494.8,14.6456,6.93E+00,-0.41643
495.4,14.6649,7.01E+00,-0.43017
496,14.6844,7.08E+00,-0.44593
496.6,14.7033,7.10E+00,-0.46227
497.2,14.7221,7.15E+00,-0.47916
497.8,14.7417,7.21E+00,-0.49641
498.4,14.7608,7.32E+00,-0.51426
499,14.7791,7.41E+00,-0.53268
499.6,14.7981,7.44E+00,-0.55163
500.2,14.8174,7.45E+00,-0.57116
500.8,14.8362,7.52E+00,-0.5916
501.4,14.8556,7.61E+00,-0.61267
502,14.8753,7.69E+00,-0.63423
502.6,14.8941,7.71E+00,-0.65658
503.2,14.9127,7.75E+00,-0.67958
503.8,14.9324,7.87E+00,-0.70312
504.4,14.9516,7.95E+00,-0.72741
505,14.9706,7.98E+00,-0.75265
505.6,14.9895,8.00E+00,-0.77582
506.2,15.0087,8.04E+00,-0.8022
506.8,15.0273,8.00E+00,-0.82921
507.4,15.0465,8.03E+00,-0.85702
508,15.0654,8.10E+00,-0.88566
508.6,15.0845,8.12E+00,-0.91514
509.2,15.1036,8.13E+00,-0.94545
509.8,15.1225,8.13E+00,-0.97527
510.4,15.1415,8.15E+00,-1.00743
511,15.1607,8.23E+00,-1.04028
511.6,15.1799,8.31E+00,-1.07411
512.2,15.1987,8.39E+00,-1.10875
512.8,15.2178,8.46E+00,-1.14447
513.4,15.2368,8.49E+00,-1.18094
514,15.2566,8.49E+00,-1.21838
514.6,15.2756,8.52E+00,-1.2569
515.2,15.2947,8.57E+00,-1.29643
515.8,15.3138,8.60E+00,-1.33666
516.4,15.3327,8.64E+00,-1.37772
517,15.3523,8.72E+00,-1.41954
517.6,15.3713,8.78E+00,-1.462
518.2,15.3903,8.79E+00,-1.50523
518.8,15.4092,8.81E+00,-1.54884
519.4,15.4283,8.81E+00,-1.59306
520,15.4473,8.82E+00,-1.63761
520.6,15.4664,8.82E+00,-1.68285
521.2,15.4852,8.81E+00,-1.72827
521.8,15.5047,8.83E+00,-1.77371
522.4,15.5238,8.86E+00,-1.81903
523,15.5424,8.85E+00,-1.86447
523.6,15.5616,8.83E+00,-1.90948
524.2,15.5807,8.83E+00,-1.95395
524.8,15.5997,8.82E+00,-1.99795
525.4,15.6187,8.78E+00,-2.04109
526,15.6376,8.73E+00,-2.08304
526.6,15.6565,8.66E+00,-2.12343
527.2,15.6754,8.57E+00,-2.16238
527.8,15.694,8.50E+00,-2.1997
528.4,15.713,8.37E+00,-2.23586
529,15.7312,8.24E+00,-2.27146
529.6,15.7496,8.06E+00,-2.30586
530.2,15.7684,7.86E+00,-2.33902
530.8,15.7866,7.63E+00,-2.37119
531.4,15.8053,7.38E+00,-2.40252
532,15.8235,7.12E+00,-2.43347
532.6,15.8414,6.85E+00,-2.46351
533.2,15.8596,6.55E+00,-2.4917
533.8,15.8774,6.23E+00,-2.51211
534.4,15.8959,5.91E+00,-2.53685
535,15.9133,5.54E+00,-2.55996
535.6,15.9315,5.18E+00,-2.5819
536.2,15.9495,4.82E+00,-2.6026
536.8,15.9672,4.47E+00,-2.62207
537.4,15.9854,4.13E+00,-2.64018
538,16.0032,3.78E+00,-2.65703
538.6,16.0216,3.45E+00,-2.6732
539.2,16.0395,3.16E+00,-2.68892
539.8,16.058,2.91E+00,-2.70404
540.4,16.0763,2.68E+00,-2.7184
541,16.0943,2.47E+00,-2.7324
541.6,16.1131,2.31E+00,-2.74653
542.2,16.1314,2.16E+00,-2.7604
542.8,16.1493,2.03E+00,-2.77345
543.4,16.1681,1.91E+00,-2.78545
544,16.1872,1.79E+00,-2.79631
544.6,16.2059,1.70E+00,-2.80879
545.2,16.2247,1.62E+00,-2.82099
545.8,16.2435,1.56E+00,-2.8305
546.4,16.2623,1.51E+00,-2.83898
547,16.2811,1.46E+00,-2.84609
547.6,16.2999,1.42E+00,-2.85424
548.2,16.3186,1.42E+00,-2.86195
548.8,16.3378,1.40E+00,-2.86969
549.4,16.3569,1.38E+00,-2.87696
550,16.3758,1.38E+00,-2.88375
550.6,16.3947,1.37E+00,-2.89018
551.2,16.4139,1.36E+00,-2.89536
551.8,16.4327,1.36E+00,-2.90046
552.4,16.4515,1.36E+00,-2.90547
553,16.4707,1.36E+00,-2.91011
553.6,16.4899,1.37E+00,-2.91318
554.2,16.5087,1.39E+00,-2.9172
554.8,16.5278,1.39E+00,-2.92113
555.4,16.5466,1.40E+00,-2.92554
556,16.566,1.39E+00,-2.92972
556.6,16.5848,1.39E+00,-2.93372
557.2,16.6038,1.40E+00,-2.93773
557.8,16.6227,1.40E+00,-2.94376
558.4,16.6418,1.41E+00,-2.94683
559,16.6607,1.41E+00,-2.95007
559.6,16.68,1.41E+00,-2.95213
560.2,16.6989,1.42E+00,-2.95442
560.8,16.7183,1.42E+00,-2.96375
561.4,16.7371,1.42E+00,-2.97071
562,16.7561,1.41E+00,-2.97759
562.6,16.7753,1.41E+00,-2.98384
563.2,16.7942,1.41E+00,-2.9889
563.8,16.8137,1.41E+00,-2.9934
564.4,16.8326,1.41E+00,-2.99834
565,16.8514,1.40E+00,-3.00537
565.6,16.8706,1.40E+00,-3.01148
566.2,16.8899,1.39E+00,-3.01956
566.8,16.9089,1.40E+00,-3.02525
567.4,16.9279,1.39E+00,-3.03156
568,16.9474,1.38E+00,-3.04082
568.6,16.967,1.37E+00,-3.05638
569.2,16.986,1.36E+00,-3.06983
569.8,17.0053,1.35E+00,-3.0824
570.4,17.0237,1.35E+00,-3.09528
571,17.0434,1.35E+00,-3.10886
571.6,17.0625,1.35E+00,-3.1251
572.2,17.0815,1.35E+00,-3.14019
572.8,17.1007,1.35E+00,-3.15606
573.4,17.1199,1.35E+00,-3.17234
574,17.1389,1.35E+00,-3.18918
574.6,17.1582,1.35E+00,-3.20659
575.2,17.1778,1.35E+00,-3.22455
575.8,17.197,1.35E+00,-3.24348
576.4,17.2157,1.33E+00,-3.26825
577,17.2355,1.32E+00,-3.28915
577.6,17.2549,1.31E+00,-3.30475
578.2,17.2742,1.30E+00,-3.32202
578.8,17.2933,1.29E+00,-3.34131
579.4,17.3134,1.35E+00,-3.36084
580,17.3328,1.44E+00,-3.38012
580.6,17.3519,1.38E+00,-3.39817
581.2,17.3712,1.28E+00,-3.41617
581.8,17.3906,1.18E+00,-3.43259
582.4,17.4097,1.10E+00,-3.44869
583,17.4293,1.04E+00,-3.46609
583.6,17.4486,9.74E-01,-3.48388
584.2,17.4687,9.32E-01,-3.49807
584.8,17.4879,8.84E-01,-3.51383
585.4,17.508,8.36E-01,-3.52896
586,17.5276,8.23E-01,-3.5378
586.6,17.547,8.00E-01,-3.54746
587.2,17.5668,7.83E-01,-3.55801
587.8,17.5864,7.59E-01,-3.56586
588.4,17.6058,7.46E-01,-3.57272
589,17.6255,7.35E-01,-3.58274
589.6,17.6449,7.20E-01,-3.59239
590.2,17.6647,7.11E-01,-3.6011
590.8,17.6846,7.05E-01,-3.60564
591.4,17.7041,6.94E-01,-3.60538
592,17.7233,6.85E-01,-3.61126
592.6,17.743,6.71E-01,-3.61636
593.2,17.7622,6.73E-01,-3.62083
593.8,17.782,6.63E-01,-3.62444
594.4,17.8014,6.55E-01,-3.62542
595,17.821,6.53E-01,-3.62094
595.6,17.8405,6.38E-01,-3.61983
596.2,17.8599,6.50E-01,-3.61841
596.8,17.8796,6.45E-01,-3.61674
597.4,17.8991,6.39E-01,-3.61462
598,17.9185,6.31E-01,-3.60935
598.6,17.938,6.31E-01,-3.60662
599.2,17.9574,6.28E-01,-3.60335
599.8,17.9769,6.18E-01,-3.59932
600.4,17.9965,6.26E-01,-3.5949
601,18.016,6.32E-01,-3.5887
601.6,18.0355,6.24E-01,-3.58403
602.2,18.055,6.18E-01,-3.57914
602.8,18.0741,6.15E-01,-3.57415
603.4,18.0939,6.17E-01,-3.56903
604,18.113,6.12E-01,-3.56338
604.6,18.1326,6.04E-01,-3.55808
605.2,18.1521,5.97E-01,-3.55269
605.8,18.1714,5.89E-01,-3.54732
606.4,18.1907,5.82E-01,-3.54063
607,18.2104,5.77E-01,-3.53529
607.6,18.2299,5.72E-01,-3.52996
608.2,18.2494,5.75E-01,-3.52461
608.8,18.2686,5.74E-01,-3.51933
609.4,18.2883,5.75E-01,-3.51406
610,18.3075,5.80E-01,-3.50959
610.6,18.327,5.75E-01,-3.50452
611.2,18.3468,5.74E-01,-3.49957
611.8,18.366,5.63E-01,-3.49462
612.4,18.3856,5.62E-01,-3.49049
613,18.405,5.60E-01,-3.48574
613.6,18.4243,5.53E-01,-3.48112
614.2,18.4439,5.56E-01,-3.47663
614.8,18.4635,5.73E-01,-3.47229
615.4,18.4826,5.72E-01,-3.46852
616,18.5025,5.70E-01,-3.46433
616.6,18.5222,5.75E-01,-3.46021
617.2,18.5413,5.96E-01,-3.45523
617.8,18.5611,5.97E-01,-3.45213
618.4,18.5806,6.12E-01,-3.44836
619,18.6,6.06E-01,-3.44469
619.6,18.6196,6.05E-01,-3.44107
620.2,18.6389,5.97E-01,-3.43842
620.8,18.6585,5.99E-01,-3.43501
621.4,18.678,6.10E-01,-3.43173
622,18.6975,5.96E-01,-3.42849
622.6,18.7171,5.74E-01,-3.42644
623.2,18.7365,5.87E-01,-3.4234
623.8,18.7556,5.85E-01,-3.42052
624.4,18.7756,5.92E-01,-3.4177
625,18.7947,6.03E-01,-3.41566
625.6,18.8146,6.09E-01,-3.413
626.2,18.8339,6.02E-01,-3.41049
626.8,18.8534,6.13E-01,-3.40816
627.4,18.873,6.21E-01,-3.40641
628,18.8925,6.27E-01,-3.40416
628.6,18.9121,6.26E-01,-3.40196
629.2,18.9317,6.17E-01,-3.40045
629.8,18.9513,6.24E-01,-3.39841
630.4,18.9707,6.15E-01,-3.39645
631,18.9904,6.23E-01,-3.39453
631.6,19.01,6.12E-01,-3.39328
632.2,19.0294,6.20E-01,-3.39151
632.8,19.0486,6.36E-01,-3.38987
633.4,19.0682,6.42E-01,-3.38822
634,19.0879,6.53E-01,-3.38684
634.6,19.1074,6.58E-01,-3.38534
635.2,19.1269,6.60E-01,-3.38388
635.8,19.1464,6.60E-01,-3.38218
636.4,19.166,6.64E-01,-3.38037
637,19.1855,6.63E-01,-3.37908
637.6,19.2052,6.48E-01,-3.37801
638.2,19.2243,6.43E-01,-3.37717
638.8,19.244,6.46E-01,-3.37607
639.4,19.2638,6.42E-01,-3.375
640,19.2832,6.40E-01,-3.37439
640.6,19.3029,6.32E-01,-3.37339
641.2,19.3224,6.53E-01,-3.37245
641.8,19.3421,6.50E-01,-3.37186
642.4,19.3617,6.48E-01,-3.37102
643,19.3805,6.56E-01,-3.36964
643.6,19.4003,6.43E-01,-3.36811
644.2,19.4198,6.44E-01,-3.3678
644.8,19.44,6.38E-01,-3.36708
645.4,19.4587,6.44E-01,-3.36639
646,19.4789,6.56E-01,-3.36608
646.6,19.4985,6.59E-01,-3.36546
647.2,19.518,6.55E-01,-3.36485
647.8,19.5377,6.39E-01,-3.36479
648.4,19.5572,6.28E-01,-3.36515
649,19.5769,6.25E-01,-3.36462
649.6,19.5963,6.30E-01,-3.36426
650.2,19.6159,6.28E-01,-3.36393
650.8,19.6357,6.24E-01,-3.36354
651.4,19.6549,6.30E-01,-3.36325
652,19.6748,6.18E-01,-3.36307
652.6,19.6944,6.23E-01,-3.36274
653.2,19.7139,6.14E-01,-3.36247
653.8,19.7333,6.10E-01,-3.36233
654.4,19.7523,6.07E-01,-3.36206
655,19.7719,6.05E-01,-3.36182
655.6,19.7922,6.07E-01,-3.36174
656.2,19.8117,6.09E-01,-3.36153
656.8,19.8314,5.90E-01,-3.36133
657.4,19.8507,5.98E-01,-3.36135
658,19.8705,5.87E-01,-3.3612
658.6,19.8902,5.88E-01,-3.36105
659.2,19.9096,5.85E-01,-3.36104
659.8,19.9294,5.68E-01,-3.36095
660.4,19.9491,5.70E-01,-3.36086
661,19.9685,5.70E-01,-3.36089
661.6,19.9881,5.66E-01,-3.36086
662.2,20.0075,5.66E-01,-3.3608
662.8,20.0266,5.54E-01,-3.3609
663.4,20.0468,5.68E-01,-3.35999
664,20.0663,5.58E-01,-3.35952
664.6,20.0856,5.57E-01,-3.35963
665.2,20.1056,5.50E-01,-3.35961
665.8,20.1251,5.48E-01,-3.35961
666.4,20.1446,5.40E-01,-3.35978
667,20.1641,5.32E-01,-3.35981
667.6,20.1838,5.25E-01,-3.35985
668.2,20.2037,6.00E-01,-3.35861
668.8,20.2231,6.54E-01,-3.35874
669.4,20.2429,6.81E-01,-3.35883
670,20.2627,7.08E-01,-3.35899
670.6,20.2824,7.15E-01,-3.35909
671.2,20.3017,7.22E-01,-3.35927
671.8,20.3215,7.38E-01,-3.35937
672.4,20.3412,7.30E-01,-3.35948
673,20.3608,7.29E-01,-3.35911
673.6,20.3798,7.40E-01,-3.35836
674.2,20.3995,7.36E-01,-3.35852
674.8,20.4192,7.29E-01,-3.35876
675.4,20.4392,7.29E-01,-3.35891
676,20.4586,7.16E-01,-3.35911
676.6,20.4783,7.05E-01,-3.35929
677.2,20.498,7.25E-01,-3.35945
677.8,20.5177,7.19E-01,-3.35971
678.4,20.537,7.11E-01,-3.35988
679,20.5566,7.04E-01,-3.36009
679.6,20.5762,7.04E-01,-3.36031
680.2,20.5958,6.84E-01,-3.3605
680.8,20.6154,6.77E-01,-3.36077
681.4,20.6349,6.76E-01,-3.36097
682,20.6546,6.73E-01,-3.3612
682.6,20.6744,6.59E-01,-3.36145
683.2,20.6938,6.42E-01,-3.36166
683.8,20.7136,6.33E-01,-3.36193
684.4,20.7332,6.25E-01,-3.36213
685,20.7526,6.21E-01,-3.3624
685.6,20.7723,6.13E-01,-3.36262
686.2,20.7918,6.03E-01,-3.36284
686.8,20.8115,5.90E-01,-3.36311
687.4,20.8313,5.96E-01,-3.36334
688,20.8507,5.99E-01,-3.36363
688.6,20.8706,5.98E-01,-3.36386
689.2,20.8898,5.96E-01,-3.36415
689.8,20.9097,5.93E-01,-3.3644
690.4,20.9288,5.85E-01,-3.36471
691,20.9482,5.79E-01,-3.36458
691.6,20.9676,5.74E-01,-3.36488
692.2,20.9875,5.63E-01,-3.36513
692.8,21.0075,5.52E-01,-3.36543
693.4,21.0273,5.63E-01,-3.36569
694,21.047,5.51E-01,-3.36609
694.6,21.0664,5.43E-01,-3.36516
695.2,21.0862,5.30E-01,-3.36554
695.8,21.1053,5.24E-01,-3.3658
696.4,21.1255,5.16E-01,-3.36612
697,21.1449,5.07E-01,-3.36638
697.6,21.1648,5.03E-01,-3.36669
698.2,21.1841,4.90E-01,-3.36696
698.8,21.204,4.85E-01,-3.36726
699.4,21.2232,4.65E-01,-3.36753
700,21.2433,4.66E-01,-3.36784
700.6,21.2625,4.61E-01,-3.36812
701.2,21.2822,4.39E-01,-3.36841
701.8,21.302,4.27E-01,-3.36869
702.4,21.3215,4.25E-01,-3.36899
703,21.3409,4.27E-01,-3.3686
703.6,21.3606,4.19E-01,-3.3689
704.2,21.3802,4.03E-01,-3.36919
704.8,21.4001,4.04E-01,-3.36885
705.4,21.4193,3.97E-01,-3.3691
706,21.4391,3.85E-01,-3.36938
706.6,21.4589,3.77E-01,-3.3692
707.2,21.4786,3.72E-01,-3.36934
707.8,21.4979,3.70E-01,-3.36962
708.4,21.5176,3.56E-01,-3.36992
709,21.5373,3.40E-01,-3.37021
709.6,21.5569,3.41E-01,-3.37051
710.2,21.5763,3.27E-01,-3.3708
710.8,21.596,3.31E-01,-3.37109
711.4,21.6157,3.24E-01,-3.37136
712,21.6353,3.15E-01,-3.37164
712.6,21.6549,3.12E-01,-3.37192
713.2,21.6744,3.07E-01,-3.3722
713.8,21.6936,3.00E-01,-3.37249
714.4,21.7138,2.80E-01,-3.37278
715,21.7332,2.67E-01,-3.37307
715.6,21.7527,2.66E-01,-3.37337
716.2,21.7725,2.65E-01,-3.37366
716.8,21.7922,2.59E-01,-3.37395
717.4,21.8117,2.51E-01,-3.37424
718,21.8314,2.46E-01,-3.37387
718.6,21.851,2.28E-01,-3.37416
719.2,21.8706,2.13E-01,-3.37445
719.8,21.8903,1.97E-01,-3.37474
720.4,21.9099,1.92E-01,-3.37452
721,21.9292,1.79E-01,-3.37398
721.6,21.949,1.79E-01,-3.37429
722.2,21.9687,1.64E-01,-3.37458
722.8,21.9883,1.53E-01,-3.37487
723.4,22.0078,1.45E-01,-3.37514
724,22.0275,1.34E-01,-3.37543
724.6,22.0472,1.19E-01,-3.37571
725.2,22.0667,1.08E-01,-3.37599
725.8,22.0864,9.92E-02,-3.37627
726.4,22.1057,9.38E-02,-3.37655
727,22.1257,8.66E-02,-3.37677
727.6,22.1456,6.57E-02,-3.37608
728.2,22.165,6.01E-02,-3.37641
728.8,22.1846,4.51E-02,-3.3767
729.4,22.2043,3.65E-02,-3.37691
730,22.2238,2.85E-02,-3.37695
730.6,22.2436,2.02E-02,-3.37723
731.2,22.2634,6.35E-03,-3.37751
731.8,22.283,-1.12E-02,-3.37642
732.4,22.3026,-1.89E-02,-3.37676
733,22.3223,-2.69E-02,-3.37705
733.6,22.3418,-3.28E-02,-3.37734
734.2,22.3614,-4.12E-02,-3.37762
734.8,22.381,-5.22E-02,-3.3779
735.4,22.4008,-4.93E-02,-3.37818
736,22.4203,-6.71E-02,-3.37847
736.6,22.4401,-6.44E-02,-3.37995
737.2,22.4597,-7.88E-02,-3.38034
737.8,22.4793,-8.33E-02,-3.38062
738.4,22.499,-8.50E-02,-3.3809
739,22.5187,-1.04E-01,-3.38118
739.6,22.5384,-1.05E-01,-3.38147
740.2,22.558,-1.15E-01,-3.38176
740.8,22.5778,-1.19E-01,-3.38105
741.4,22.5976,-1.25E-01,-3.38103
742,22.6169,-1.28E-01,-3.38129
742.6,22.6366,-1.48E-01,-3.38157
743.2,22.6557,-1.52E-01,-3.38186
743.8,22.6754,-1.61E-01,-3.38214
744.4,22.6951,-1.75E-01,-3.38242
745,22.7149,-1.76E-01,-3.3827
745.6,22.7351,-1.85E-01,-3.38299
746.2,22.7547,-1.91E-01,-3.38327
746.8,22.774,-1.99E-01,-3.38354
747.4,22.7938,-1.99E-01,-3.38383
748,22.8134,-2.12E-01,-3.38409
748.6,22.8332,-2.12E-01,-3.38395
749.2,22.8528,-2.20E-01,-3.38368
749.8,22.8723,-2.25E-01,-3.38395
750.4,22.8926,-2.23E-01,-3.38423
751,22.9119,-2.37E-01,-3.38451
751.6,22.9317,-2.29E-01,-3.38478
752.2,22.9514,-2.33E-01,-3.38506
752.8,22.9708,-2.37E-01,-3.38533
753.4,22.9906,-2.49E-01,-3.38561
754,23.0104,-2.58E-01,-3.3859
754.6,23.0297,-2.81E-01,-3.3858
755.2,23.0496,-2.86E-01,-3.38609
755.8,23.0692,-2.90E-01,-3.38641
756.4,23.089,-2.96E-01,-3.38543
757,23.1086,-3.03E-01,-3.38559
757.6,23.1282,-2.96E-01,-3.38585
758.2,23.1483,-3.13E-01,-3.3861
758.8,23.1677,-3.21E-01,-3.38635
759.4,23.1873,-3.21E-01,-3.38661
760,23.207,-3.21E-01,-3.38687
760.6,23.2268,-3.28E-01,-3.38708
761.2,23.2463,-3.33E-01,-3.38734
761.8,23.2661,-3.47E-01,-3.3876
762.4,23.2858,-3.52E-01,-3.38786
763,23.3053,-3.47E-01,-3.3881
763.6,23.3254,-3.67E-01,-3.38807
764.2,23.345,-3.80E-01,-3.3873
764.8,23.3645,-3.83E-01,-3.38755
765.4,23.3841,-3.86E-01,-3.38779
766,23.404,-3.83E-01,-3.38802
766.6,23.4238,-3.91E-01,-3.38826
767.2,23.4432,-3.91E-01,-3.38853
767.8,23.4631,-4.03E-01,-3.38881
768.4,23.4832,-4.20E-01,-3.38908
769,23.5025,-4.14E-01,-3.38934
769.6,23.5221,-4.16E-01,-3.38852
770.2,23.5419,-4.27E-01,-3.38847
770.8,23.562,-4.45E-01,-3.38869
771.4,23.5813,-4.35E-01,-3.38892
772,23.6013,-4.35E-01,-3.38915
772.6,23.6207,-4.42E-01,-3.38937
773.2,23.6407,-4.51E-01,-3.3896
773.8,23.6604,-4.43E-01,-3.38984
774.4,23.6799,-4.46E-01,-3.38878
775,23.6998,-4.57E-01,-3.38901
775.6,23.719,-4.57E-01,-3.38927
776.2,23.7392,-4.65E-01,-3.38954
776.8,23.759,-4.66E-01,-3.38978
777.4,23.7786,-4.70E-01,-3.39005
778,23.7985,-4.72E-01,-3.39073
778.6,23.8183,-4.92E-01,-3.39115
779.2,23.8378,-4.89E-01,-3.39142
779.8,23.8576,-4.92E-01,-3.39166
780.4,23.8775,-4.99E-01,-3.39192
781,23.8971,-5.11E-01,-3.39217
781.6,23.9171,-4.96E-01,-3.39242
782.2,23.9367,-4.98E-01,-3.39269
782.8,23.9566,-4.99E-01,-3.39208
783.4,23.9762,-5.03E-01,-3.39188
784,23.9959,-5.10E-01,-3.39207
784.6,24.0155,-5.11E-01,-3.39227
785.2,24.0358,-5.15E-01,-3.39243
785.8,24.0552,-5.20E-01,-3.39262
786.4,24.0752,-5.26E-01,-3.39284
787,24.0948,-5.28E-01,-3.39304
787.6,24.1148,-5.35E-01,-3.39321
788.2,24.1345,-5.25E-01,-3.39342
788.8,24.1541,-5.29E-01,-3.39369
789.4,24.1739,-5.36E-01,-3.39399
790,24.1938,-5.36E-01,-3.39422
,,,-3.39445
,,,-3.39376
,,,-3.39345
,,,-3.39392
,,,-3.39404
,,,-3.39404