File: 01_Data/Two_Layer_Turnout_Gear_Moisture_Barrier/STA/N2/10K_min/Two_Layer_Turnout_Gear_Moisture_Barrier_STA_N2_10KData_240521_R1.csv
Temp./C,Time/min,DSC/(mW/mg),Mass loss/mg
60.0,0.0,0.85659,-0.0192619
60.5,0.0575407,0.87204,-0.019385
61,0.11376,0.893902,-0.0192621
61.5,0.171034,0.907946,-0.0194326
62,0.225285,0.922275,-0.0207499
62.5,0.280584,0.937756,-0.0206098
63,0.336934,0.942237,-0.0216934
63.5,0.389979,0.957639,-0.0220331
64,0.446062,0.970293,-0.0213011
64.5,0.49945,0.982821,-0.0222687
65,0.553417,0.99608,-0.0211686
65.5,0.607153,1.01094,-0.0209034
66,0.661251,1.01083,-0.020972
66.5,0.715257,1.03161,-0.0221818
67,0.768735,1.04274,-0.0233535
67.5,0.819188,1.04694,-0.0235897
68,0.87516,1.06446,-0.024198
68.5,0.927172,1.06639,-0.0235771
69,0.97933,1.07937,-0.0249197
69.5,1.03251,1.09144,-0.0249406
70,1.08686,1.10245,-0.02492
70.5,1.13779,1.11367,-0.0249184
71,1.19088,1.1205,-0.0261353
71.5,1.24421,1.12474,-0.0263012
72,1.29662,1.13128,-0.0261279
72.5,1.34845,1.14882,-0.0268911
73,1.4009,1.15065,-0.0262092
73.5,1.45495,1.15626,-0.0262302
74,1.5062,1.17092,-0.0258066
74.5,1.55814,1.17138,-0.0262399
75,1.60826,1.18285,-0.0263143
75.5,1.66215,1.18632,-0.02755
76,1.71338,1.19484,-0.0275464
76.5,1.76611,1.19515,-0.0289171
77,1.81632,1.20333,-0.0282269
77.5,1.86892,1.21195,-0.0275594
78,1.92048,1.21976,-0.0288716
78.5,1.97121,1.22442,-0.0288699
79,2.02336,1.23329,-0.0302504
79.5,2.07444,1.23992,-0.0301899
80,2.1264,1.24103,-0.0302014
80.5,2.17642,1.24794,-0.0305022
81,2.22876,1.24208,-0.0305101
81.5,2.28021,1.24988,-0.03051
82,2.33001,1.25618,-0.03051
82.5,2.38209,1.25506,-0.0305084
83,2.43208,1.2641,-0.0318303
83.5,2.48399,1.26604,-0.0331516
84,2.53428,1.2661,-0.03315
84.5,2.58322,1.2666,-0.0331224
85,2.63429,1.26781,-0.0341424
85.5,2.68375,1.26692,-0.0341368
86,2.73425,1.27061,-0.035132
86.5,2.78586,1.26191,-0.03512
87,2.83436,1.27178,-0.0351264
87.5,2.88641,1.27085,-0.0354476
88,2.93621,1.26691,-0.0367849
88.5,2.98642,1.2676,-0.03677
89,3.03477,1.26415,-0.0368797
89.5,3.08419,1.26036,-0.0352734
90,3.13273,1.26375,-0.0368556
90.5,3.18475,1.26054,-0.0380857
91,3.23466,1.25742,-0.03809
91.5,3.28358,1.25512,-0.0380877
92,3.33266,1.25281,-0.0383124
92.5,3.38269,1.25871,-0.0380975
93,3.43059,1.24901,-0.03941
93.5,3.483,1.23729,-0.03941
94,3.53166,1.24203,-0.03941
94.5,3.58101,1.23633,-0.03941
95,3.62882,1.24223,-0.0394439
95.5,3.67816,1.23933,-0.039081
96,3.72773,1.22785,-0.03908
96.5,3.77568,1.22344,-0.0390804
97,3.82531,1.22383,-0.0394365
97.5,3.87407,1.2163,-0.0407016
98,3.91948,1.20811,-0.0402495
98.5,3.97205,1.20781,-0.0400698
99,4.02214,1.20941,-0.0400607
99.5,4.07002,1.19809,-0.0413806
100,4.11828,1.19436,-0.0413884
100.5,4.16752,1.19136,-0.0417143
101,4.21689,1.18386,-0.0428067
101.5,4.26563,1.17725,-0.0426999
102,4.31414,1.18441,-0.0426793
102.5,4.36242,1.17558,-0.0417281
103,4.41157,1.17907,-0.0407215
103.5,4.46114,1.16701,-0.0406748
104,4.50856,1.16487,-0.0433933
104.5,4.55767,1.14783,-0.0433599
105,4.60573,1.15581,-0.0433618
105.5,4.6549,1.14422,-0.0420249
106,4.70077,1.13853,-0.0434431
106.5,4.75105,1.14046,-0.04336
107,4.80092,1.13567,-0.0433639
107.5,4.84898,1.13344,-0.0446646
108,4.89762,1.12934,-0.0446658
108.5,4.9459,1.12443,-0.0460267
109,4.99483,1.1222,-0.0460234
109.5,5.04293,1.12318,-0.0446773
110,5.09073,1.11327,-0.04468
110.5,5.13996,1.10955,-0.0446805
111,5.18802,1.1126,-0.0454577
111.5,5.23743,1.10816,-0.0466063
112,5.28682,1.1037,-0.0459988
112.5,5.33381,1.10411,-0.0459998
113,5.38407,1.10122,-0.0456055
113.5,5.43035,1.1002,-0.0437117
114,5.479,1.1071,-0.042411
114.5,5.52765,1.10036,-0.0421494
115,5.57559,1.09783,-0.04371
115.5,5.62379,1.09933,-0.0450066
116,5.67316,1.09137,-0.0449958
116.5,5.72058,1.09102,-0.0460035
117,5.76941,1.09478,-0.046001
117.5,5.81891,1.08727,-0.0471557
118,5.86744,1.09128,-0.0473099
118.5,5.91481,1.08435,-0.0464517
119,5.96407,1.08109,-0.0463197
119.5,6.01214,1.08047,-0.04632
120,6.05845,1.08606,-0.04632
120.5,6.10787,1.07616,-0.0468048
121,6.15471,1.08359,-0.0476306
121.5,6.20335,1.08322,-0.0473106
122,6.2533,1.08284,-0.0459533
122.5,6.30082,1.07839,-0.0459901
123,6.34883,1.07783,-0.0459857
123.5,6.39856,1.07785,-0.0473134
124,6.44574,1.0824,-0.0473097
124.5,6.49394,1.07986,-0.0475805
125,6.54221,1.07587,-0.0486304
125.5,6.58957,1.08356,-0.0486316
126,6.63757,1.0772,-0.046663
126.5,6.68642,1.07062,-0.04666
127,6.73419,1.07717,-0.0466416
127.5,6.7826,1.08237,-0.0456673
128,6.83032,1.08131,-0.0461617
128.5,6.87745,1.07724,-0.04665
129,6.92614,1.07439,-0.04665
129.5,6.97426,1.06832,-0.04665
130,7.02137,1.07456,-0.04665
130.5,7.07082,1.0743,-0.04665
131,7.11842,1.07242,-0.0466523
131.5,7.16749,1.07513,-0.045664
132,7.21483,1.07871,-0.0456656
132.5,7.26342,1.06957,-0.0466413
133,7.3116,1.07192,-0.0466499
133.5,7.35923,1.07201,-0.0466826
134,7.40683,1.07847,-0.046293
134.5,7.45585,1.07983,-0.045341
135,7.50278,1.07285,-0.0466165
135.5,7.55078,1.08127,-0.046646
136,7.59918,1.08225,-0.0479768
136.5,7.64604,1.08103,-0.04797
137,7.69427,1.08924,-0.0479697
137.5,7.74237,1.08399,-0.0470077
138,7.79101,1.08046,-0.0466534
138.5,7.83857,1.08206,-0.0456466
139,7.88584,1.07943,-0.0469967
139.5,7.93328,1.08237,-0.0469889
140,7.98138,1.0876,-0.048312
140.5,8.02979,1.08934,-0.0483002
141,8.07717,1.08839,-0.0483
141.5,8.12535,1.09034,-0.0483
142,8.17399,1.09932,-0.0482906
142.5,8.22168,1.09062,-0.0467464
143,8.26847,1.09118,-0.0454374
143.5,8.31796,1.09385,-0.0469812
144,8.3649,1.0898,-0.0480797
144.5,8.41258,1.0885,-0.0481398
145,8.46085,1.09451,-0.04775
145.5,8.50858,1.09241,-0.04775
146,8.55602,1.10526,-0.0477466
146.5,8.60346,1.09715,-0.0478065
147,8.65256,1.1026,-0.04775
147.5,8.69899,1.10266,-0.0471775
148,8.74615,1.10311,-0.0464154
148.5,8.79262,1.10433,-0.047757
149,8.84079,1.10071,-0.0477486
149.5,8.89039,1.10716,-0.0491245
150,8.93881,1.10647,-0.0490892
150.5,8.98623,1.10733,-0.0477508
151,9.034,1.11249,-0.04775
151.5,9.08135,1.11591,-0.0477504
152,9.12878,1.10765,-0.0481393
152.5,9.17634,1.10821,-0.0499506
153,9.22386,1.11433,-0.0485393
153.5,9.27239,1.11217,-0.0487368
154,9.31968,1.1195,-0.0487403
154.5,9.36733,1.11212,-0.0499431
155,9.41506,1.11765,-0.0500839
155.5,9.46318,1.12311,-0.0487272
156,9.51119,1.1208,-0.0487304
156.5,9.55732,1.11972,-0.0486921
157,9.60355,1.12251,-0.0474184
157.5,9.65496,1.12503,-0.0474131
158,9.70121,1.13044,-0.0487462
158.5,9.74769,1.12876,-0.0477165
159,9.79675,1.13543,-0.04775
159.5,9.84481,1.12762,-0.04775
160,9.89269,1.12531,-0.0477454
160.5,9.94091,1.12922,-0.0487475
161,9.98824,1.1298,-0.0487399
161.5,10.0354,1.12935,-0.04874
162,10.084,1.13113,-0.04874
162.5,10.1316,1.13526,-0.0487399
163,10.1779,1.12519,-0.0487324
163.5,10.226,1.13079,-0.0490696
164,10.2744,1.13458,-0.04907
164.5,10.3223,1.13337,-0.0490679
165,10.3689,1.13838,-0.0503892
165.5,10.4176,1.13714,-0.050061
166,10.4638,1.13803,-0.0487556
166.5,10.5121,1.134,-0.0485878
167,10.5599,1.13815,-0.0480806
167.5,10.6088,1.14236,-0.04808
168,10.6554,1.14089,-0.0480867
168.5,10.7012,1.14482,-0.0493847
169,10.7513,1.14238,-0.0493805
169.5,10.7984,1.14236,-0.0493505
170,10.846,1.15016,-0.0493902
170.5,10.8945,1.1451,-0.04939
171,10.9421,1.14232,-0.04939
171.5,10.9886,1.14653,-0.04939
172,11.0383,1.15179,-0.04939
172.5,11.0853,1.15265,-0.04939
173,11.1313,1.1462,-0.0493898
173.5,11.1796,1.14626,-0.049441
174,11.2275,1.1487,-0.0507101
174.5,11.2773,1.15368,-0.0506708
175,11.324,1.15584,-0.0493998
175.5,11.3708,1.15987,-0.0494
176,11.4192,1.15979,-0.0494084
176.5,11.4636,1.15674,-0.0500742
177,11.5155,1.15934,-0.0498316
177.5,11.5612,1.15752,-0.0494
178,11.6098,1.15855,-0.0494
178.5,11.6569,1.16147,-0.0494
179,11.7046,1.15816,-0.0494
179.5,11.7532,1.15388,-0.0493858
180,11.8,1.15965,-0.0503935
180.5,11.8484,1.17267,-0.0503854
181,11.8956,1.16922,-0.049076
181.5,11.9433,1.16816,-0.0490605
182,11.991,1.1642,-0.0484606
182.5,12.0389,1.16308,-0.0481638
183,12.0868,1.17223,-0.0506121
183.5,12.1341,1.16026,-0.05061
184,12.1817,1.16345,-0.05061
184.5,12.2288,1.16744,-0.05061
185,12.2766,1.1689,-0.05061
185.5,12.3232,1.16384,-0.0492581
186,12.3723,1.16751,-0.0492955
186.5,12.4196,1.163,-0.0476558
187,12.4675,1.16814,-0.0466613
187.5,12.5152,1.16908,-0.0481062
188,12.5627,1.16899,-0.04928
188.5,12.6095,1.16353,-0.0508316
189,12.6574,1.17045,-0.052323
189.5,12.7052,1.16036,-0.0506363
190,12.7524,1.16837,-0.0492801
190.5,12.7988,1.1716,-0.0492798
191,12.8488,1.1745,-0.0488688
191.5,12.8952,1.17588,-0.0486301
192,12.9419,1.16955,-0.04863
192.5,12.9902,1.1763,-0.04863
193,13.0383,1.17245,-0.0486296
193.5,13.0854,1.16462,-0.0488523
194,13.1331,1.17127,-0.04995
194.5,13.1806,1.17133,-0.04995
195,13.2287,1.17787,-0.0499509
195.5,13.2754,1.17174,-0.0509256
196,13.3238,1.16667,-0.0522526
196.5,13.3704,1.16993,-0.05225
197,13.418,1.17139,-0.0522326
197.5,13.4656,1.17992,-0.0512693
198,13.5136,1.17297,-0.0512726
198.5,13.5608,1.17499,-0.0509515
199,13.6083,1.18005,-0.05094
199.5,13.6562,1.17079,-0.05094
200,13.7036,1.17096,-0.0509405
200.5,13.7506,1.16672,-0.052274
201,13.7988,1.17918,-0.0522595
201.5,13.8457,1.177,-0.0516688
202,13.8932,1.17822,-0.0509405
202.5,13.9405,1.17957,-0.05094
203,13.9884,1.17429,-0.05094
203.5,14.0355,1.18177,-0.0509399
204,14.0832,1.18713,-0.0523674
204.5,14.131,1.18144,-0.05225
205,14.1785,1.18392,-0.05225
205.5,14.2276,1.18291,-0.05225
206,14.2731,1.19548,-0.0522491
206.5,14.3219,1.1931,-0.0513511
207,14.3692,1.19456,-0.0512599
207.5,14.4154,1.19321,-0.05126
208,14.4645,1.19499,-0.0512601
208.5,14.5115,1.19668,-0.0521205
209,14.5584,1.19953,-0.0525796
209.5,14.607,1.19772,-0.0517951
210,14.6552,1.20171,-0.052326
210.5,14.7031,1.20347,-0.05258
211,14.7497,1.20087,-0.0525687
211.5,14.799,1.19859,-0.0539042
212,14.8465,1.20463,-0.0538896
212.5,14.8943,1.20758,-0.0532373
213,14.9422,1.20581,-0.05324
213.5,14.9892,1.21033,-0.05324
214,15.0359,1.21212,-0.05324
214.5,15.0832,1.21396,-0.0532399
215,15.1302,1.21249,-0.0531631
215.5,15.1795,1.21967,-0.0535732
216,15.2271,1.21592,-0.05357
216.5,15.2737,1.21992,-0.05357
217,15.3216,1.22293,-0.05357
217.5,15.3702,1.22199,-0.05357
218,15.4176,1.22023,-0.05357
218.5,15.4646,1.22076,-0.05357
219,15.5119,1.21714,-0.05357
219.5,15.56,1.21786,-0.05357
220,15.6048,1.21697,-0.05357
220.5,15.6559,1.22008,-0.0535704
221,15.7027,1.22853,-0.0544427
221.5,15.7501,1.22382,-0.0548606
222,15.7973,1.21755,-0.0535767
222.5,15.8456,1.21369,-0.0548904
223,15.8928,1.21827,-0.0538731
223.5,15.9405,1.21969,-0.0545503
224,15.9878,1.22028,-0.0545473
224.5,16.0346,1.21894,-0.0548763
225,16.0827,1.22254,-0.05488
225.5,16.1302,1.21866,-0.05488
226,16.1776,1.22148,-0.05488
226.5,16.2244,1.2176,-0.0548769
227,16.2732,1.22826,-0.0558901
227.5,16.3201,1.22566,-0.0562029
228,16.3676,1.22675,-0.0562
228.5,16.416,1.22222,-0.0562063
229,16.463,1.2298,-0.0565127
229.5,16.5098,1.22794,-0.0562001
230,16.5575,1.22599,-0.0558266
230.5,16.6046,1.22355,-0.0562337
231,16.6525,1.22568,-0.0556192
231.5,16.7008,1.23079,-0.0557201
232,16.7481,1.22207,-0.0562004
232.5,16.796,1.2281,-0.0568882
233,16.843,1.22725,-0.0577885
233.5,16.8902,1.23203,-0.057749
234,16.9378,1.23468,-0.0564412
234.5,16.9842,1.23122,-0.0564293
235,17.032,1.22797,-0.0551073
235.5,17.08,1.22495,-0.0579518
236,17.1277,1.2297,-0.0579442
236.5,17.1759,1.23359,-0.0566528
237,17.2233,1.23274,-0.0567719
237.5,17.2694,1.23888,-0.0579588
238,17.3187,1.2301,-0.0585305
238.5,17.3656,1.22206,-0.0592638
239,17.4133,1.23149,-0.0591282
239.5,17.4601,1.22609,-0.0579529
240,17.5089,1.23202,-0.0589563
240.5,17.5559,1.23463,-0.0601875
241,17.6033,1.23589,-0.05944
241.5,17.6516,1.2397,-0.05895
242,17.6996,1.24157,-0.05895
242.5,17.7475,1.24505,-0.05895
243,17.7942,1.2509,-0.05895
243.5,17.8409,1.24483,-0.05895
244,17.8886,1.24448,-0.0589513
244.5,17.9343,1.25272,-0.0601712
245,17.9845,1.25105,-0.06038
245.5,18.0329,1.25381,-0.0603778
246,18.08,1.25542,-0.0593975
246.5,18.1285,1.25901,-0.0591182
247,18.1747,1.26607,-0.0593961
247.5,18.2243,1.25723,-0.0593878
248,18.2714,1.26495,-0.0606492
248.5,18.3193,1.25989,-0.0607094
249,18.3671,1.26222,-0.0609965
249.5,18.415,1.25954,-0.0628231
250,18.4617,1.26226,-0.0645061
250.5,18.5104,1.26457,-0.0636057
251,18.5577,1.26831,-0.0615943
251.5,18.6055,1.26479,-0.0629834
252,18.6534,1.26711,-0.0623605
252.5,18.7014,1.26757,-0.06236
253,18.7492,1.26428,-0.06236
253.5,18.7964,1.2679,-0.0623595
254,18.8444,1.27076,-0.0636688
254.5,18.893,1.26878,-0.06367
255,18.9397,1.26929,-0.0636596
255.5,18.987,1.26864,-0.0649965
256,19.0358,1.26577,-0.0662729
256.5,19.0821,1.26239,-0.0663003
257,19.1305,1.26529,-0.0663011
257.5,19.1781,1.26271,-0.0670115
258,19.2247,1.25647,-0.0669601
258.5,19.2728,1.25154,-0.0669604
259,19.3206,1.24924,-0.0655614
259.5,19.3689,1.24735,-0.0656272
260,19.4165,1.25202,-0.0663187
260.5,19.4618,1.24943,-0.0676233
261,19.5121,1.25425,-0.068916
261.5,19.5598,1.26362,-0.0702684
262,19.6065,1.26667,-0.0688366
262.5,19.654,1.26371,-0.06894
263,19.7022,1.27384,-0.06894
263.5,19.7495,1.28107,-0.0689397
264,19.7977,1.28234,-0.0690266
264.5,19.8462,1.29011,-0.07025
265,19.8937,1.30073,-0.07025
265.5,19.942,1.30773,-0.0702516
266,19.9891,1.3094,-0.0715492
266.5,20.0372,1.32021,-0.0715946
267,20.0854,1.32821,-0.0728908
267.5,20.1332,1.33685,-0.07289
268,20.1812,1.35134,-0.07289
268.5,20.2286,1.35234,-0.0728925
269,20.2765,1.35418,-0.07388
269.5,20.3238,1.36684,-0.0746354
270,20.3725,1.37657,-0.0755247
270.5,20.4201,1.37929,-0.0768878
271,20.4672,1.38656,-0.07684
271.5,20.5146,1.39245,-0.0768431
272,20.5647,1.39644,-0.0781544
272.5,20.6119,1.41051,-0.0781479
273,20.6595,1.41084,-0.0794859
273.5,20.7083,1.41396,-0.07948
274,20.7556,1.41882,-0.0794804
274.5,20.8037,1.41919,-0.0806739
275,20.8512,1.42325,-0.0819829
275.5,20.8984,1.424,-0.0821201
276,20.9471,1.42443,-0.0825016
276.5,20.9935,1.42122,-0.0834243
277,21.043,1.42449,-0.0847769
277.5,21.0908,1.42709,-0.0838393
278,21.1385,1.42421,-0.0858841
278.5,21.187,1.4231,-0.0860441
279,21.2341,1.41465,-0.0880347
279.5,21.2829,1.41255,-0.0880419
280,21.3306,1.40706,-0.0892671
280.5,21.3784,1.40772,-0.0904875
281,21.4267,1.40533,-0.0906788
281.5,21.4739,1.40642,-0.0919909
282,21.5224,1.40328,-0.0920136
282.5,21.5696,1.40369,-0.0932978
283,21.6179,1.40222,-0.0933629
283.5,21.6655,1.39706,-0.0953232
284,21.7138,1.39927,-0.0965941
284.5,21.7619,1.39992,-0.0965725
285,21.8066,1.39385,-0.0976
285.5,21.8578,1.38591,-0.0979289
286,21.9051,1.38958,-0.0993513
286.5,21.9537,1.38744,-0.100946
287,22.0014,1.38836,-0.1021
287.5,22.0493,1.3939,-0.103257
288,22.0975,1.38962,-0.10637
288.5,22.1443,1.39298,-0.10768
289,22.1925,1.38292,-0.107634
289.5,22.2406,1.38853,-0.10659
290,22.2895,1.39019,-0.10771
290.5,22.3361,1.3907,-0.109012
291,22.3833,1.39362,-0.10941
291.5,22.4325,1.39508,-0.110326
292,22.4801,1.39089,-0.11157
292.5,22.5284,1.39499,-0.114355
293,22.5763,1.39685,-0.116234
293.5,22.6238,1.39396,-0.116903
294,22.672,1.38864,-0.118267
294.5,22.7192,1.39656,-0.119518
295,22.7663,1.39576,-0.120861
295.5,22.8159,1.39293,-0.122178
296,22.8637,1.39393,-0.123636
296.5,22.9108,1.39702,-0.124927
297,22.9568,1.40447,-0.124872
297.5,23.0069,1.39817,-0.128261
298,23.0561,1.39618,-0.128948
298.5,23.1025,1.39209,-0.129572
299,23.1508,1.39522,-0.13163
299.5,23.1984,1.38801,-0.132927
300,23.2468,1.387,-0.134504
300.5,23.295,1.39136,-0.134387
301,23.3426,1.38959,-0.136127
301.5,23.3905,1.3791,-0.137461
302,23.4387,1.38995,-0.139661
302.5,23.4844,1.39042,-0.141556
303,23.534,1.38885,-0.143516
303.5,23.5824,1.38273,-0.144999
304,23.6307,1.38692,-0.146034
304.5,23.6786,1.37884,-0.147802
305,23.7261,1.379,-0.148049
305.5,23.7745,1.37163,-0.14958
306,23.8222,1.37359,-0.150955
306.5,23.8704,1.37466,-0.152258
307,23.9186,1.37193,-0.153511
307.5,23.965,1.37829,-0.154951
308,24.0135,1.37077,-0.155711
308.5,24.0599,1.37183,-0.157298
309,24.109,1.37276,-0.159467
309.5,24.1579,1.3768,-0.162367
310,24.2057,1.37222,-0.163272
310.5,24.254,1.37258,-0.165005
311,24.3012,1.36065,-0.166251
311.5,24.3501,1.36634,-0.167639
312,24.3982,1.36161,-0.166725
312.5,24.445,1.35643,-0.167325
313,24.4936,1.35867,-0.170663
313.5,24.5417,1.35217,-0.173556
314,24.5903,1.34975,-0.17579
314.5,24.6388,1.34543,-0.17792
315,24.6874,1.34325,-0.177842
315.5,24.7344,1.34311,-0.179355
316,24.7821,1.34143,-0.181816
316.5,24.8306,1.34237,-0.182563
317,24.8787,1.34353,-0.18321
317.5,24.9259,1.33799,-0.18451
318,24.9753,1.33611,-0.185832
318.5,25.0238,1.34272,-0.188545
319,25.0709,1.34484,-0.189829
319.5,25.1192,1.35535,-0.189919
320,25.1653,1.3591,-0.19132
320.5,25.216,1.36005,-0.1936
321,25.265,1.37192,-0.194291
321.5,25.3126,1.37676,-0.19553
322,25.3605,1.3879,-0.195551
322.5,25.4093,1.40127,-0.196933
323,25.4572,1.41948,-0.200501
323.5,25.5062,1.44088,-0.202434
324,25.5544,1.47141,-0.20405
324.5,25.6033,1.50658,-0.205532
325,25.6526,1.55369,-0.206779
325.5,25.7012,1.61356,-0.208387
326,25.7499,1.67588,-0.209747
326.5,25.7975,1.74563,-0.210845
327,25.8481,1.8137,-0.212567
327.5,25.8975,1.86866,-0.213459
328,25.9455,1.90472,-0.213395
328.5,25.9943,1.92263,-0.217019
329,26.0429,1.90838,-0.218901
329.5,26.09,1.86923,-0.220496
330,26.1388,1.82755,-0.222309
330.5,26.1857,1.77129,-0.223604
331,26.2342,1.72488,-0.225513
331.5,26.2817,1.67557,-0.227808
332,26.3289,1.61577,-0.229322
332.5,26.3777,1.56826,-0.229315
333,26.4248,1.53589,-0.23126
333.5,26.473,1.50318,-0.233423
334,26.52,1.47065,-0.23461
334.5,26.5683,1.43787,-0.237875
335,26.6165,1.41165,-0.239211
335.5,26.6636,1.39621,-0.240008
336,26.7124,1.38396,-0.240047
336.5,26.7597,1.36407,-0.241968
337,26.809,1.35046,-0.244231
337.5,26.8567,1.33726,-0.245588
338,26.9048,1.3387,-0.247102
338.5,26.9536,1.33208,-0.250614
339,27.0022,1.32464,-0.25186
339.5,27.0502,1.32218,-0.252397
340,27.0977,1.31949,-0.254816
340.5,27.1466,1.31145,-0.256896
341,27.1952,1.31299,-0.258203
341.5,27.2432,1.31625,-0.25957
342,27.2913,1.311,-0.261177
342.5,27.3404,1.30606,-0.264201
343,27.3895,1.31218,-0.266775
343.5,27.4372,1.30381,-0.268087
344,27.4853,1.30329,-0.268579
344.5,27.5343,1.3065,-0.269858
345,27.5824,1.30568,-0.272328
345.5,27.6304,1.30692,-0.273859
346,27.6789,1.30422,-0.276759
346.5,27.7257,1.30425,-0.279299
347,27.7741,1.30272,-0.280829
347.5,27.8238,1.29458,-0.283968
348,27.8733,1.28625,-0.285177
348.5,27.9212,1.28914,-0.287755
349,27.9701,1.28693,-0.290532
349.5,28.0181,1.28634,-0.29164
350,28.0656,1.2892,-0.293996
350.5,28.1142,1.2849,-0.294463
351,28.1624,1.27831,-0.296349
351.5,28.2121,1.28164,-0.298252
352,28.2599,1.28299,-0.299668
352.5,28.3084,1.28095,-0.298248
353,28.3564,1.27888,-0.30288
353.5,28.405,1.27795,-0.306259
354,28.4537,1.27205,-0.30869
354.5,28.5031,1.2766,-0.309935
355,28.5504,1.26966,-0.31121
355.5,28.5989,1.26746,-0.312507
356,28.6474,1.26835,-0.313864
356.5,28.697,1.26661,-0.31519
357,28.7442,1.25652,-0.318065
357.5,28.7932,1.25384,-0.319633
358,28.841,1.24719,-0.32098
358.5,28.8896,1.24058,-0.322117
359,28.9378,1.24428,-0.324311
359.5,28.986,1.24162,-0.325702
360,29.0348,1.23659,-0.327534
360.5,29.0823,1.23025,-0.330175
361,29.1331,1.22837,-0.331562
361.5,29.1811,1.22528,-0.33481
362,29.2304,1.22207,-0.3368
362.5,29.2788,1.2143,-0.337168
363,29.3262,1.212,-0.338679
363.5,29.3755,1.2082,-0.341694
364,29.4237,1.19903,-0.344138
364.5,29.4723,1.19132,-0.345433
365,29.5173,1.19677,-0.34538
365.5,29.5695,1.18735,-0.346724
366,29.6183,1.18662,-0.348414
366.5,29.667,1.18609,-0.350363
367,29.7154,1.17888,-0.352601
367.5,29.764,1.17628,-0.353966
368,29.8108,1.17127,-0.356832
368.5,29.8605,1.1632,-0.358339
369,29.9105,1.16107,-0.35962
369.5,29.9584,1.16309,-0.362117
370,30.0069,1.15941,-0.364032
370.5,30.0548,1.15636,-0.365413
371,30.1039,1.14725,-0.36669
371.5,30.1525,1.14817,-0.368315
372,30.2009,1.14312,-0.369599
372.5,30.2493,1.14221,-0.370694
373,30.2991,1.13819,-0.373063
373.5,30.3471,1.13233,-0.374453
374,30.3951,1.13759,-0.37591
374.5,30.4444,1.13689,-0.377927
375,30.4922,1.13479,-0.379625
375.5,30.5408,1.12768,-0.381645
376,30.5895,1.1336,-0.383734
376.5,30.6382,1.12414,-0.385285
377,30.6861,1.12449,-0.387276
377.5,30.7355,1.11517,-0.389607
378,30.7841,1.11084,-0.390972
378.5,30.8327,1.11652,-0.391135
379,30.8817,1.11493,-0.392945
379.5,30.9309,1.11023,-0.395588
380,30.9795,1.1132,-0.399105
380.5,31.0285,1.11524,-0.401466
381,31.0772,1.10821,-0.404597
381.5,31.126,1.10949,-0.405867
382,31.1754,1.10906,-0.407292
382.5,31.2238,1.11037,-0.408369
383,31.2721,1.1114,-0.410482
383.5,31.3219,1.11547,-0.412449
384,31.3695,1.11048,-0.414763
384.5,31.4174,1.1066,-0.416174
385,31.4676,1.11386,-0.418917
385.5,31.5172,1.11492,-0.420575
386,31.5653,1.11361,-0.421913
386.5,31.6155,1.10797,-0.426662
387,31.6639,1.11192,-0.429853
387.5,31.7134,1.11285,-0.430032
388,31.761,1.10748,-0.432919
388.5,31.8109,1.11422,-0.435563
389,31.8594,1.10918,-0.438923
389.5,31.9079,1.10523,-0.442116
390,31.957,1.11324,-0.442587
390.5,32.0062,1.11184,-0.44407
391,32.0555,1.11251,-0.446488
391.5,32.1046,1.11172,-0.448629
392,32.1529,1.11047,-0.450468
392.5,32.2013,1.11456,-0.452755
393,32.2502,1.11333,-0.454778
393.5,32.3001,1.11568,-0.457712
394,32.3474,1.11786,-0.461033
394.5,32.3963,1.1198,-0.464907
395,32.4466,1.11707,-0.467026
395.5,32.4957,1.12627,-0.468907
396,32.5452,1.12626,-0.469871
396.5,32.5936,1.12902,-0.473152
397,32.6427,1.13712,-0.474751
397.5,32.6915,1.13228,-0.477664
398,32.7411,1.14446,-0.480393
398.5,32.7896,1.14638,-0.482028
399,32.8395,1.1497,-0.484584
399.5,32.8885,1.15775,-0.487023
400,32.9377,1.15631,-0.489999
400.5,32.9877,1.15908,-0.491472
401,33.0361,1.16727,-0.495541
401.5,33.0853,1.16579,-0.496919
402,33.1342,1.17627,-0.497532
402.5,33.1811,1.18226,-0.500773
403,33.2329,1.18979,-0.502496
403.5,33.2813,1.19368,-0.505314
404,33.3308,1.19581,-0.507799
404.5,33.3812,1.20036,-0.509909
405,33.4297,1.21356,-0.511621
405.5,33.4798,1.21321,-0.512798
406,33.5281,1.22275,-0.514215
406.5,33.5781,1.22554,-0.517568
407,33.6263,1.23193,-0.520474
407.5,33.6761,1.24121,-0.521918
408,33.7257,1.24451,-0.522149
408.5,33.7733,1.25263,-0.525444
409,33.8243,1.26017,-0.528823
409.5,33.8718,1.26189,-0.529578
410,33.9223,1.26689,-0.532134
410.5,33.972,1.27256,-0.534514
411,34.0212,1.28239,-0.536633
411.5,34.0701,1.28546,-0.540645
412,34.1191,1.29143,-0.54259
412.5,34.1688,1.29468,-0.543264
413,34.2179,1.3058,-0.545951
413.5,34.2671,1.31237,-0.547589
414,34.3165,1.32263,-0.54889
414.5,34.3656,1.32177,-0.551352
415,34.4149,1.32749,-0.552674
415.5,34.4635,1.32659,-0.554256
416,34.5127,1.33638,-0.55743
416.5,34.5618,1.3395,-0.560892
417,34.6108,1.34807,-0.562993
417.5,34.6581,1.34964,-0.563971
418,34.7088,1.35312,-0.565249
418.5,34.758,1.3598,-0.566941
419,34.8088,1.35562,-0.569974
419.5,34.8566,1.36486,-0.571198
420,34.9062,1.37253,-0.57292
420.5,34.9534,1.36704,-0.575766
421,35.0047,1.36411,-0.579149
421.5,35.054,1.36588,-0.582931
422,35.1029,1.35862,-0.58468
422.5,35.1502,1.36366,-0.585973
423,35.1996,1.36169,-0.588757
423.5,35.2494,1.36563,-0.589282
424,35.299,1.35698,-0.590923
424.5,35.3478,1.35485,-0.593971
425,35.397,1.36474,-0.595364
425.5,35.4452,1.36204,-0.598237
426,35.4955,1.35209,-0.599693
426.5,35.5454,1.35736,-0.602925
427,35.593,1.35477,-0.605152
427.5,35.6425,1.35678,-0.607349
428,35.6916,1.35324,-0.609269
428.5,35.7412,1.35324,-0.611954
429,35.7897,1.35252,-0.613434
429.5,35.8376,1.35624,-0.615163
430,35.8883,1.35782,-0.617873
430.5,35.9384,1.34724,-0.620331
431,35.9868,1.35113,-0.62083
431.5,36.0364,1.35187,-0.622884
432,36.0866,1.34734,-0.626977
432.5,36.1357,1.35446,-0.629946
433,36.1844,1.34559,-0.631951
433.5,36.2336,1.3424,-0.633813
434,36.2827,1.34476,-0.635949
434.5,36.3322,1.34327,-0.637536
435,36.3815,1.34441,-0.640757
435.5,36.431,1.3392,-0.643577
436,36.48,1.34094,-0.647838
436.5,36.5295,1.34025,-0.651469
437,36.5794,1.34298,-0.649903
437.5,36.6286,1.34384,-0.651651
438,36.6763,1.33363,-0.654727
438.5,36.7269,1.3307,-0.657648
439,36.7771,1.33996,-0.661676
439.5,36.8263,1.33508,-0.662966
440,36.8764,1.33575,-0.666041
440.5,36.9249,1.3302,-0.667455
441,36.9746,1.33202,-0.671843
441.5,37.0241,1.32201,-0.676684
442,37.0735,1.32332,-0.676222
442.5,37.123,1.3244,-0.677936
443,37.1708,1.3237,-0.680334
443.5,37.2226,1.32423,-0.682958
444,37.2723,1.32435,-0.686055
444.5,37.3216,1.32599,-0.689107
445,37.371,1.32283,-0.69156
445.5,37.4197,1.3302,-0.694304
446,37.4703,1.32131,-0.697209
446.5,37.5188,1.32004,-0.701042
447,37.5688,1.31793,-0.703644
447.5,37.6164,1.31218,-0.704901
448,37.6677,1.31702,-0.707781
448.5,37.7182,1.30804,-0.710557
449,37.7676,1.30664,-0.713042
449.5,37.8172,1.30904,-0.716115
450,37.8666,1.30083,-0.71886
450.5,37.9159,1.30102,-0.720806
451,37.9653,1.2985,-0.724299
451.5,38.0126,1.29396,-0.726108
452,38.0639,1.29053,-0.727338
452.5,38.1129,1.29148,-0.730027
453,38.1636,1.29257,-0.732277
453.5,38.2125,1.28546,-0.735281
454,38.2621,1.27935,-0.738106
454.5,38.3124,1.27873,-0.741055
455,38.3611,1.27424,-0.742462
455.5,38.4109,1.27314,-0.744891
456,38.4609,1.26533,-0.747725
456.5,38.5095,1.26263,-0.750506
457,38.5591,1.26102,-0.754459
457.5,38.6084,1.25323,-0.756802
458,38.6584,1.26104,-0.758948
458.5,38.7076,1.2546,-0.76193
459,38.758,1.248,-0.763367
459.5,38.8068,1.25038,-0.766931
460,38.8567,1.24664,-0.769039
460.5,38.906,1.24436,-0.771455
461,38.9561,1.24118,-0.774478
461.5,39.006,1.23588,-0.77583
462,39.0551,1.23319,-0.778774
462.5,39.1034,1.2275,-0.779868
463,39.1539,1.22004,-0.782025
463.5,39.2033,1.2196,-0.783382
464,39.2531,1.21186,-0.785293
464.5,39.3018,1.21665,-0.7881
465,39.3519,1.21074,-0.789439
465.5,39.4005,1.20013,-0.791752
466,39.4502,1.19853,-0.793744
466.5,39.5003,1.19516,-0.79612
467,39.5501,1.18961,-0.798484
467.5,39.5976,1.18527,-0.799189
468,39.6489,1.18149,-0.800994
468.5,39.698,1.16736,-0.802729
469,39.7478,1.1693,-0.805239
469.5,39.7988,1.17457,-0.80687
470,39.847,1.15965,-0.808712
470.5,39.8967,1.15966,-0.811433
471,39.9467,1.15117,-0.811398
471.5,39.9959,1.14594,-0.812719
472,40.0447,1.14203,-0.815545
472.5,40.0954,1.13208,-0.816571
473,40.1455,1.13216,-0.818522
473.5,40.1943,1.12083,-0.819873
474,40.2443,1.11947,-0.82133
474.5,40.294,1.11732,-0.82245
475,40.343,1.10926,-0.823698
475.5,40.3922,1.1033,-0.825722
476,40.4417,1.09923,-0.8282
476.5,40.4918,1.09164,-0.829423
477,40.5417,1.08475,-0.830223
477.5,40.5916,1.07853,-0.831469
478,40.6409,1.07164,-0.832866
478.5,40.6894,1.06518,-0.835064
479,40.7393,1.06446,-0.836952
479.5,40.7871,1.05713,-0.838317
480,40.8376,1.05433,-0.83976
480.5,40.8879,1.05675,-0.841045
481,40.9382,1.04586,-0.84234
481.5,40.9876,1.05205,-0.843684
482,41.0374,1.04377,-0.844996
482.5,41.0862,1.04614,-0.84631
483,41.1378,1.03615,-0.846309
483.5,41.187,1.03019,-0.848076
484,41.2367,1.02837,-0.853015
484.5,41.2862,1.02633,-0.854625
485,41.3372,1.01823,-0.855493
485.5,41.3859,1.01885,-0.855779
486,41.4346,1.01966,-0.857404
486.5,41.4854,1.01434,-0.858801
487,41.5356,1.01699,-0.860244
487.5,41.5847,1.00244,-0.86157
488,41.6345,1.00796,-0.863489
488.5,41.6841,1.00462,-0.865821
489,41.7321,0.997135,-0.867188
489.5,41.783,1.00164,-0.868732
490,41.8325,1.00227,-0.868699
490.5,41.8819,0.993153,-0.870495
491,41.9333,0.992885,-0.872658
491.5,41.9823,0.991387,-0.873629
492,42.032,0.990657,-0.87728
492.5,42.0822,0.984918,-0.878788
493,42.1313,0.984923,-0.880039
493.5,42.1812,0.990498,-0.881318
494,42.2313,0.98452,-0.881282
494.5,42.2811,0.981787,-0.882696
495,42.3313,0.98068,-0.884248
495.5,42.3807,0.981533,-0.885453
496,42.4308,0.981438,-0.886849
496.5,42.4796,0.986437,-0.889899
497,42.5304,0.979052,-0.891657
497.5,42.5799,0.979718,-0.894258
498,42.6293,0.981242,-0.895485
498.5,42.6795,0.983424,-0.896188
499,42.7294,0.980076,-0.898578
499.5,42.7786,0.985552,-0.899982
500,42.829,0.978143,-0.901301
500.5,42.8783,0.981073,-0.902747
501,42.9278,0.972103,-0.903735
501.5,42.9774,0.980577,-0.905023
502,43.0283,0.980304,-0.906458
502.5,43.0783,0.976044,-0.90915
503,43.1272,0.972918,-0.911783
503.5,43.1779,0.974896,-0.913281
504,43.2275,0.980792,-0.91631
504.5,43.2777,0.975011,-0.917585
505,43.3274,0.968929,-0.919103
505.5,43.3776,0.969355,-0.92043
506,43.4276,0.971308,-0.923042
506.5,43.4777,0.977901,-0.925702
507,43.5279,0.974691,-0.927553
507.5,43.5775,0.974108,-0.929089
508,43.6265,0.982973,-0.929787
508.5,43.6753,0.983945,-0.930547
509,43.7266,0.982277,-0.932401
509.5,43.7752,0.980345,-0.935087
510,43.8263,0.98049,-0.936768
510.5,43.8745,0.976579,-0.939754
511,43.9259,0.979271,-0.942321
511.5,43.9766,0.981974,-0.944846
512,44.026,0.984115,-0.948952
512.5,44.0763,0.988719,-0.952148
513,44.1257,0.992472,-0.952679
513.5,44.1755,0.988889,-0.955344
514,44.2257,0.991141,-0.956717
514.5,44.2735,0.99341,-0.959493
515,44.3233,1.00191,-0.960902
515.5,44.376,0.996009,-0.964
516,44.4262,1.00337,-0.966521
516.5,44.4755,0.999658,-0.968715
517,44.5256,1.00262,-0.970753
517.5,44.5754,1.01015,-0.973555
518,44.6258,1.00783,-0.975464
518.5,44.676,1.01385,-0.978378
519,44.724,1.01049,-0.981622
519.5,44.7756,1.01166,-0.984333
520,44.8264,1.01072,-0.986356
520.5,44.8743,1.01368,-0.989128
521,44.9236,1.01865,-0.99294
521.5,44.9761,1.0174,-0.995571
522,45.0256,1.01992,-0.998478
522.5,45.0748,1.01594,-1.00236
523,45.1263,1.01904,-1.00517
523.5,45.1753,1.01613,-1.00819
524,45.2259,1.02304,-1.01151
524.5,45.2756,1.03002,-1.01365
525,45.3259,1.02371,-1.01708
525.5,45.3762,1.02135,-1.01983
526,45.4259,1.01853,-1.02388
526.5,45.4763,1.02005,-1.02611
527,45.5254,1.01692,-1.0292
527.5,45.5735,1.01333,-1.03266
528,45.6264,1.01155,-1.03844
528.5,45.6764,1.00547,-1.04238
529,45.7268,1.00972,-1.04451
529.5,45.7767,1.00622,-1.04799
530,45.8257,1.00109,-1.05124
530.5,45.8768,1.00968,-1.05469
531,45.9267,1.00023,-1.05821
531.5,45.9762,1.00786,-1.06343
532,46.0272,1.01259,-1.06878
532.5,46.0764,1.01317,-1.07181
533,46.1241,1.02615,-1.07451
533.5,46.1765,1.0291,-1.08015
534,46.2259,1.04291,-1.08365
534.5,46.2767,1.05669,-1.0873
535,46.3265,1.0696,-1.09223
535.5,46.3768,1.10045,-1.0962
536,46.4261,1.11494,-1.09948
536.5,46.4772,1.14321,-1.10502
537,46.5269,1.16826,-1.10885
537.5,46.5777,1.18025,-1.11544
538,46.6269,1.20643,-1.12005
538.5,46.6779,1.23201,-1.12609
539,46.7271,1.25256,-1.13011
539.5,46.7783,1.28621,-1.13377
540,46.8282,1.30423,-1.13838
540.5,46.8789,1.32467,-1.145
541,46.9284,1.33997,-1.15045
541.5,46.9789,1.37254,-1.15546
542,47.0292,1.39316,-1.16085
542.5,47.0797,1.41425,-1.16459
543,47.1301,1.42728,-1.17074
543.5,47.1798,1.45277,-1.17566
544,47.23,1.4671,-1.18268
544.5,47.2817,1.48654,-1.18862
545,47.331,1.4964,-1.19437
545.5,47.3811,1.51873,-1.19921
546,47.4311,1.52787,-1.20514
546.5,47.4822,1.54119,-1.212
547,47.5327,1.55267,-1.21818
547.5,47.5818,1.56601,-1.22439
548,47.6326,1.57403,-1.23149
548.5,47.6822,1.59244,-1.23759
549,47.733,1.60675,-1.24447
549.5,47.7834,1.60722,-1.25041
550,47.834,1.62486,-1.25792
550.5,47.8841,1.63729,-1.26487
551,47.9342,1.64049,-1.27095
551.5,47.9846,1.65946,-1.27718
552,48.035,1.66364,-1.28323
552.5,48.0842,1.66886,-1.29158
553,48.1344,1.67803,-1.29878
553.5,48.1846,1.6869,-1.30564
554,48.2345,1.68995,-1.3132
554.5,48.2852,1.69901,-1.32023
555,48.3363,1.70874,-1.32746
555.5,48.3861,1.70932,-1.33499
556,48.4371,1.70762,-1.3433
556.5,48.4865,1.71877,-1.35121
557,48.5369,1.72417,-1.35897
557.5,48.5845,1.71513,-1.36733
558,48.6365,1.71997,-1.37542
558.5,48.6864,1.72281,-1.38292
559,48.738,1.7232,-1.39267
559.5,48.7868,1.72032,-1.39975
560,48.8367,1.71757,-1.40877
560.5,48.8876,1.71898,-1.41722
561,48.9348,1.70968,-1.42623
561.5,48.9879,1.70631,-1.43498
562,49.0376,1.69909,-1.4438
562.5,49.0858,1.69428,-1.45128
563,49.1381,1.68382,-1.46114
563.5,49.1885,1.66939,-1.46932
564,49.2383,1.66273,-1.47852
564.5,49.2863,1.64423,-1.48708
565,49.3381,1.62418,-1.49687
565.5,49.3879,1.60687,-1.50676
566,49.4381,1.58517,-1.5131
566.5,49.4877,1.56037,-1.52263
567,49.5379,1.53796,-1.53116
567.5,49.5882,1.51019,-1.53839
568,49.6387,1.47504,-1.54624
568.5,49.6885,1.44708,-1.55528
569,49.738,1.40991,-1.56414
569.5,49.7875,1.38543,-1.57375
570,49.8378,1.34055,-1.58247
570.5,49.8878,1.31169,-1.59069
571,49.9366,1.26509,-1.59901
571.5,49.9863,1.22091,-1.60663
572,50.0362,1.17478,-1.61507
572.5,50.0871,1.1201,-1.62225
573,50.1354,1.06781,-1.62996
573.5,50.1846,1.01411,-1.63678
574,50.2341,0.940824,-1.64502
574.5,50.2842,0.878203,-1.65224
575,50.3334,0.798933,-1.65845
575.5,50.3839,0.734299,-1.66586
576,50.4326,0.661886,-1.67234
576.5,50.4825,0.590117,-1.67766
577,50.5321,0.529,-1.68369
577.5,50.5809,0.464436,-1.68885
578,50.6296,0.401766,-1.6934
578.5,50.6791,0.351102,-1.69828
579,50.7298,0.285401,-1.70065
579.5,50.7805,0.233418,-1.70503
580,50.8299,0.198048,-1.70865
580.5,50.8796,0.16854,-1.7121
581,50.9303,0.139388,-1.71551
581.5,50.98,0.128107,-1.71777
582,51.0317,0.117188,-1.71941
582.5,51.0818,0.115285,-1.72315
583,51.1317,0.127747,-1.72575
583.5,51.1817,0.149708,-1.72641
584,51.2327,0.164968,-1.72899
584.5,51.2839,0.184244,-1.73239
585,51.334,0.200942,-1.73426
585.5,51.3855,0.237589,-1.73581
586,51.436,0.258947,-1.73817
586.5,51.4858,0.278258,-1.7382
587,51.5366,0.288494,-1.73951
587.5,51.5881,0.311031,-1.74084
588,51.6388,0.328646,-1.74083
588.5,51.69,0.346032,-1.74219
589,51.7399,0.358717,-1.74232
589.5,51.7905,0.375513,-1.74366
590,51.8401,0.390773,-1.74479
590.5,51.8923,0.400741,-1.7461
591,51.9421,0.406856,-1.74735
591.5,51.9934,0.429493,-1.74807
592,52.0437,0.434661,-1.74873
592.5,52.0934,0.439582,-1.74873
593,52.145,0.453708,-1.74999
593.5,52.1968,0.460233,-1.7504
594,52.2459,0.464392,-1.7503
594.5,52.2964,0.469806,-1.7517
595,52.3483,0.483942,-1.75167
595.5,52.3986,0.48797,-1.75301
596,52.4489,0.494495,-1.75302
596.5,52.5001,0.500608,-1.75457
597,52.5499,0.504299,-1.75561
597.5,52.6013,0.514679,-1.75684
598,52.6516,0.517272,-1.75829
598.5,52.7034,0.523446,-1.75829
599,52.7537,0.525406,-1.75961
599.5,52.8023,0.52637,-1.76078
600,52.8549,0.53039,-1.7604
600.5,52.906,0.540087,-1.76092
601,52.9561,0.545747,-1.76224
601.5,53.007,0.548209,-1.76355
602,53.0579,0.564036,-1.76358
602.5,53.1068,0.565859,-1.76355
603,53.159,0.568764,-1.76488
603.5,53.2103,0.578666,-1.76579
604,53.2604,0.574843,-1.76588
604.5,53.3115,0.58683,-1.76718
605,53.3629,0.5898,-1.76832
605.5,53.4132,0.586054,-1.76863
606,53.464,0.593036,-1.7698
606.5,53.5156,0.601022,-1.77113
607,53.5658,0.602761,-1.77029
607.5,53.6166,0.61177,-1.77112
608,53.6669,0.623119,-1.77375
608.5,53.7183,0.625921,-1.77376
609,53.7679,0.625131,-1.77375
609.5,53.8192,0.632092,-1.77432
610,53.8696,0.634708,-1.7764
610.5,53.9205,0.638764,-1.77661
611,53.9708,0.644772,-1.77627
611.5,54.0215,0.654613,-1.77771
612,54.071,0.659387,-1.77772
612.5,54.1226,0.659545,-1.77903
613,54.1732,0.665054,-1.78034
613.5,54.2235,0.67091,-1.78029
614,54.2751,0.672178,-1.78131
614.5,54.325,0.679176,-1.78162
615,54.3754,0.685746,-1.78298
615.5,54.4263,0.696483,-1.78228
616,54.4763,0.700201,-1.78264
616.5,54.5275,0.706559,-1.78364
617,54.5786,0.70982,-1.78497
617.5,54.6285,0.717624,-1.78579
618,54.6802,0.720339,-1.78628
618.5,54.7308,0.729352,-1.78757
619,54.7811,0.731334,-1.7876
619.5,54.8313,0.737291,-1.7876
620,54.8817,0.73748,-1.7877
620.5,54.9333,0.748771,-1.78829
621,54.9846,0.76091,-1.78958
621.5,55.033,0.755679,-1.79023
622,55.0853,0.766631,-1.79089
622.5,55.136,0.772189,-1.7922
623,55.1862,0.780507,-1.79353
623.5,55.2371,0.780603,-1.79484
624,55.2882,0.785393,-1.79472
624.5,55.3385,0.791267,-1.79501
625,55.3893,0.794276,-1.79528
625.5,55.4404,0.803216,-1.79645
626,55.4909,0.80356,-1.79777
626.5,55.541,0.810738,-1.79913
627,55.5921,0.810424,-1.79915
627.5,55.6431,0.81493,-1.80043
628,55.694,0.814701,-1.80039
628.5,55.7445,0.823262,-1.80176
629,55.7955,0.825611,-1.80176
629.5,55.8463,0.833115,-1.79936
630,55.8969,0.835393,-1.7989
630.5,55.9483,0.839444,-1.80321
631,55.9991,0.840201,-1.80449
631.5,56.0502,0.844427,-1.80451
632,56.0996,0.847258,-1.80477
632.5,56.1509,0.851381,-1.80582
633,56.2022,0.859452,-1.80582
633.5,56.2515,0.856952,-1.80589
634,56.3033,0.86099,-1.80697
634.5,56.3536,0.866256,-1.80717
635,56.404,0.870266,-1.80977
635.5,56.4548,0.871318,-1.81061
636,56.5062,0.877368,-1.81044
636.5,56.5556,0.882052,-1.80978
637,56.6071,0.885123,-1.81109
637.5,56.6575,0.896336,-1.81109
638,56.7088,0.897205,-1.81195
638.5,56.7574,0.909061,-1.81245
639,56.8093,0.911268,-1.81376
639.5,56.8607,0.912578,-1.81306
640,56.9108,0.921346,-1.81325
640.5,56.9607,0.919172,-1.81497
641,57.0126,0.922544,-1.8156
641.5,57.0629,0.93338,-1.81658
642,57.1138,0.934281,-1.81687
642.5,57.1649,0.942773,-1.81784
643,57.2146,0.944865,-1.81916
643.5,57.2646,0.943331,-1.81954
644,57.3153,0.952322,-1.81954
644.5,57.3669,0.954607,-1.82024
645,57.4169,0.962514,-1.82217
645.5,57.4679,0.967909,-1.82324
646,57.519,0.966147,-1.82238
646.5,57.5694,0.972033,-1.8235
647,57.6197,0.981433,-1.8248
647.5,57.6711,0.983906,-1.82495
648,57.7204,0.981534,-1.82613
648.5,57.7731,0.987672,-1.82546
649,57.8238,0.988321,-1.82613
649.5,57.8739,0.993544,-1.82613
650,57.9251,0.99552,-1.82747
650.5,57.9756,0.997938,-1.82876
651,58.0267,0.998599,-1.83008
651.5,58.0776,1.00404,-1.83073
652,58.1287,1.00671,-1.83091
652.5,58.1802,1.01322,-1.83273
653,58.2303,1.01449,-1.8337
653.5,58.2818,1.01799,-1.83274
654,58.3323,1.02144,-1.83302
654.5,58.383,1.0204,-1.83518
655,58.4337,1.02224,-1.83636
655.5,58.4829,1.02788,-1.83546
656,58.5366,1.02999,-1.8358
656.5,58.5879,1.04071,-1.83676
657,58.6393,1.04704,-1.83811
657.5,58.6899,1.05104,-1.83941
658,58.7406,1.04979,-1.84065
658.5,58.7912,1.05816,-1.84072
659,58.8418,1.06581,-1.84205
659.5,58.8929,1.06298,-1.84204
660,58.9439,1.0614,-1.84204
660.5,58.9949,1.05963,-1.84268
661,59.0452,1.06849,-1.84331
661.5,59.0965,1.06872,-1.84337
662,59.1477,1.07497,-1.84602
662.5,59.1964,1.0818,-1.846
663,59.2481,1.07866,-1.84599
663.5,59.2997,1.07528,-1.84595
664,59.3503,1.07755,-1.84732
664.5,59.4013,1.0846,-1.84738
665,59.4521,1.09668,-1.84967
665.5,59.5039,1.08854,-1.84995
666,59.5544,1.09558,-1.84974
666.5,59.6047,1.10067,-1.84996
667,59.6562,1.10541,-1.85127
667.5,59.7069,1.10927,-1.85259
668,59.7576,1.11249,-1.85261
668.5,59.8082,1.11862,-1.85259
669,59.859,1.11887,-1.85271
669.5,59.9105,1.12452,-1.85391
670,59.9611,1.12124,-1.85642
670.5,60.0123,1.13218,-1.85785
671,60.062,1.13638,-1.85928
671.5,60.114,1.13819,-1.85816
672,60.1646,1.13533,-1.85836
672.5,60.2159,1.14529,-1.86054
673,60.2657,1.14395,-1.86176
673.5,60.3177,1.14382,-1.86181
674,60.3677,1.14508,-1.86186
674.5,60.4189,1.15039,-1.86313
675,60.4697,1.15375,-1.86449
675.5,60.5209,1.15435,-1.86456
676,60.5718,1.15522,-1.86452
676.5,60.6222,1.15974,-1.86576
677,60.6741,1.16546,-1.86707
677.5,60.7247,1.16809,-1.86708
678,60.7751,1.1748,-1.86708
678.5,60.826,1.17851,-1.8684
679,60.8768,1.17639,-1.86841
679.5,60.9284,1.19069,-1.86971
680,60.9792,1.18968,-1.86929
680.5,61.0302,1.18832,-1.86976
681,61.0804,1.19431,-1.86973
681.5,61.1326,1.19469,-1.87157
682,61.1834,1.20338,-1.87446
682.5,61.2344,1.20326,-1.87376
683,61.2855,1.20482,-1.87377
683.5,61.3349,1.21046,-1.87377
684,61.387,1.20712,-1.87448
684.5,61.4375,1.21148,-1.87668
685,61.4877,1.20422,-1.87664
685.5,61.5391,1.21209,-1.87795
686,61.5908,1.22018,-1.87936
686.5,61.6411,1.21454,-1.87926
687,61.6922,1.2145,-1.88055
687.5,61.7433,1.21966,-1.88058
688,61.7942,1.22295,-1.88134
688.5,61.8446,1.22664,-1.88066
689,61.8958,1.23088,-1.88118
689.5,61.9464,1.23137,-1.8819
690,61.9977,1.23326,-1.88421
690.5,62.0488,1.23111,-1.88561
691,62.0999,1.23322,-1.88601
691.5,62.1501,1.2402,-1.88564
692,62.2017,1.24253,-1.88669
692.5,62.2523,1.23944,-1.88685
693,62.303,1.2372,-1.88838
693.5,62.3545,1.24523,-1.88952
694,62.4058,1.24668,-1.89087
694.5,62.4563,1.24594,-1.89233
695,62.5068,1.25055,-1.89138
695.5,62.5577,1.2491,-1.89214
696,62.6094,1.25073,-1.89389
696.5,62.6604,1.24707,-1.89379
697,62.7105,1.24959,-1.89319
697.5,62.7612,1.25375,-1.89401
698,62.8121,1.24874,-1.89508
698.5,62.8624,1.25291,-1.8962
699,62.9144,1.25063,-1.89639
699.5,62.9647,1.24989,-1.89639
700,63.0162,1.24922,-1.89639
700.5,63.0668,1.25031,-1.89576
701,63.1177,1.25208,-1.89791
701.5,63.1684,1.24906,-1.90057
702,63.2179,1.25546,-1.90186
702.5,63.2689,1.25614,-1.90319
703,63.3214,1.25705,-1.90425
703.5,63.3722,1.24882,-1.90452
704,63.4236,1.25515,-1.90494
704.5,63.4746,1.24785,-1.90583
705,63.5249,1.24583,-1.90715
705.5,63.5754,1.2476,-1.90772
706,63.6268,1.25399,-1.90851
706.5,63.6776,1.24661,-1.90856
707,63.729,1.2463,-1.90878
707.5,63.7799,1.24905,-1.91009
708,63.8302,1.24363,-1.91144
708.5,63.881,1.24454,-1.91283
709,63.9324,1.25401,-1.91336
709.5,63.9833,1.25666,-1.91473
710,64.0343,1.25607,-1.91474
710.5,64.0852,1.25653,-1.91508
711,64.1359,1.2567,-1.91472
711.5,64.1865,1.2458,-1.91615
712,64.2378,1.25291,-1.91755
712.5,64.2888,1.26085,-1.91613
713,64.3405,1.25702,-1.91879
713.5,64.391,1.24902,-1.92003
714,64.4426,1.25036,-1.92013
714.5,64.4933,1.25685,-1.92142
715,64.5418,1.25701,-1.92145
715.5,64.5941,1.25769,-1.92274
716,64.6457,1.26699,-1.92333
716.5,64.6958,1.26433,-1.92406
717,64.7473,1.26218,-1.92537
717.5,64.7986,1.26597,-1.9267
718,64.8493,1.26507,-1.92669
718.5,64.9004,1.26307,-1.92766
719,64.9511,1.26032,-1.92801
719.5,65.0028,1.26006,-1.92812
720,65.0534,1.25511,-1.93082
720.5,65.1043,1.26156,-1.92902
721,65.1555,1.2599,-1.93008
721.5,65.2058,1.25747,-1.93027
722,65.2576,1.262,-1.93163
722.5,65.308,1.25567,-1.93231
723,65.3587,1.25797,-1.93262
723.5,65.4101,1.25567,-1.93332
724,65.4616,1.25869,-1.93393
724.5,65.5124,1.25759,-1.93526
725,65.5639,1.25895,-1.93658
725.5,65.6131,1.25495,-1.93654
726,65.6647,1.26235,-1.93751
726.5,65.7167,1.26287,-1.93745
727,65.768,1.26896,-1.93702
727.5,65.8184,1.26726,-1.94084
728,65.8706,1.26516,-1.94204
728.5,65.9207,1.26946,-1.94229
729,65.9714,1.26455,-1.94338
729.5,66.0233,1.26291,-1.94352
730,66.0743,1.2607,-1.94338
730.5,66.1258,1.2535,-1.94465
731,66.1762,1.25159,-1.94325
731.5,66.2267,1.24302,-1.9447
732,66.2776,1.24286,-1.94492
732.5,66.3293,1.24191,-1.94733
733,66.3805,1.23483,-1.94726
733.5,66.4315,1.23909,-1.94738
734,66.4834,1.23838,-1.94877
734.5,66.5341,1.23412,-1.95006
735,66.5851,1.23383,-1.95138
735.5,66.6352,1.23175,-1.95141
736,66.686,1.22718,-1.95271
736.5,66.7369,1.22195,-1.95271
737,66.7885,1.21904,-1.9541
737.5,66.838,1.21018,-1.95479
738,66.8902,1.20555,-1.95403
738.5,66.9411,1.2063,-1.95531
739,66.9911,1.20547,-1.95528
739.5,67.0428,1.19689,-1.95666
740,67.0934,1.19111,-1.95796
740.5,67.1441,1.18789,-1.95797
741,67.1959,1.18638,-1.95815
741.5,67.2472,1.1832,-1.95929
742,67.2978,1.17582,-1.95929
742.5,67.3488,1.1788,-1.95947
743,67.4003,1.16558,-1.96135
743.5,67.451,1.16696,-1.96185
744,67.5018,1.16202,-1.96334
744.5,67.5532,1.16197,-1.96455
745,67.6038,1.15866,-1.96457
745.5,67.6546,1.15505,-1.96457
746,67.7059,1.15437,-1.96585
746.5,67.7576,1.14704,-1.9672
747,67.8078,1.1426,-1.96765
747.5,67.8592,1.14542,-1.96722
748,67.9099,1.1421,-1.96858
748.5,67.962,1.14018,-1.96881
749,68.0127,1.13812,-1.96983
749.5,68.0638,1.13355,-1.97128
750,68.1144,1.13005,-1.97127
750.5,68.1638,1.11648,-1.97259
751,68.2168,1.11773,-1.9739
751.5,68.268,1.11338,-1.97522
752,68.3183,1.10476,-1.97522
752.5,68.3702,1.10477,-1.97655
753,68.4205,1.10333,-1.97656
753.5,68.4726,1.10641,-1.97842
754,68.5214,1.09846,-1.97906
754.5,68.5723,1.10049,-1.97776
755,68.6229,1.0943,-1.9792
755.5,68.6757,1.10161,-1.98049
756,68.7273,1.1015,-1.97921
756.5,68.7783,1.09155,-1.98049
757,68.8283,1.0799,-1.98178
757.5,68.8804,1.08347,-1.9821
758,68.9307,1.07877,-1.98312
758.5,68.9823,1.08655,-1.98312
759,69.0333,1.07703,-1.98312
759.5,69.0839,1.07939,-1.98444
760,69.1356,1.07753,-1.98444
760.5,69.1851,1.07297,-1.98765
761,69.2379,1.06831,-1.98739
761.5,69.2883,1.0729,-1.98737
762,69.3387,1.0645,-1.98794
762.5,69.3899,1.0645,-1.98872
763,69.4413,1.06496,-1.98872
763.5,69.4925,1.06007,-1.98863
764,69.5419,1.06395,-1.98905
764.5,69.5944,1.05524,-1.98905
765,69.6447,1.05123,-1.98955
765.5,69.6971,1.0606,-1.99039
766,69.7465,1.05168,-1.99255
766.5,69.7981,1.05322,-1.99264
767,69.8493,1.04812,-1.99399
767.5,69.9,1.04112,-1.99399
768,69.9512,1.04309,-1.993
768.5,70.0026,1.04249,-1.99442
769,70.0537,1.03884,-1.99562
769.5,70.1047,1.03649,-1.99564
770,70.1532,1.04195,-1.99658
770.5,70.2056,1.03946,-1.99791
771,70.2572,1.03175,-1.99794
771.5,70.3063,1.03146,-1.99925
772,70.3586,1.02964,-1.99926
772.5,70.4103,1.0271,-2.00064
773,70.4604,1.01197,-2.00057
773.5,70.5114,1.024,-2.00055
774,70.5631,1.02384,-2.00189
774.5,70.6149,1.01491,-2.00189
775,70.6663,1.02086,-2.00189
775.5,70.7144,1.01928,-2.00255
776,70.7681,1.01551,-2.00346
776.5,70.8173,1.01887,-2.00322
777,70.8692,1.00927,-2.00319
777.5,70.9193,1.00768,-2.00453
778,70.972,1.01224,-2.00585
778.5,71.0234,1.00896,-2.00718
779,71.0742,1.00288,-2.00585
779.5,71.1229,0.998986,-2.00585
780,71.1765,1.00326,-2.00585
780.5,71.2277,1.0039,-2.00717
781,71.2785,1.00049,-2.00853
781.5,71.3291,1.00056,-2.00849
782,71.3804,0.994742,-2.0099
782.5,71.4323,0.993659,-2.01026
783,71.4825,0.99141,-2.00993
783.5,71.5342,0.98995,-2.01037
784,71.585,0.997767,-2.01439
784.5,71.6362,0.995187,-2.01285
785,71.687,0.991567,-2.01155
785.5,71.738,0.995693,-2.01026
786,71.7887,0.997577,-2.01288
786.5,71.8406,1.00154,-2.01422
787,71.8903,0.992745,-2.0144
787.5,71.9434,0.993523,-2.01452
788,71.9945,0.995465,-2.01544
788.5,72.0464,0.999392,-2.01559
789,72.0959,1.00198,-2.01419
789.5,72.1485,0.993647,-2.0155
790,72.1993,0.991925,-2.01687