File: 01_Data/Two_Layer_Turnout_Gear_Moisture_Barrier/STA/N2/10K_min/Two_Layer_Turnout_Gear_Moisture_Barrier_STA_N2_10KData_240530_R2.csv
Temp./C,Time/min,DSC/(mW/mg),Mass loss/mg
60.0,0.0,0.853347,-0.0182473
60.5,0.0589711,0.861748,-0.0194997
61,0.110784,0.875516,-0.017153
61.5,0.171097,0.892404,-0.0166366
62,0.22545,0.911541,-0.0168048
62.5,0.283519,0.926999,-0.0175949
63,0.336707,0.939182,-0.0181108
63.5,0.391483,0.947645,-0.0166558
64,0.44567,0.9624,-0.0164535
64.5,0.499887,0.974879,-0.0167389
65,0.553699,0.981506,-0.0168269
65.5,0.608644,0.990962,-0.0181136
66,0.663164,1.00021,-0.0169287
66.5,0.716366,1.01601,-0.0181038
67,0.770008,1.03108,-0.0167473
67.5,0.822459,1.0438,-0.0183664
68,0.874468,1.0466,-0.0194419
68.5,0.929242,1.05825,-0.0207465
69,0.979509,1.06153,-0.02075
69.5,1.03137,1.08304,-0.0207498
70,1.0882,1.08815,-0.0203086
70.5,1.13926,1.10136,-0.020673
71,1.1929,1.11009,-0.0220766
71.5,1.24649,1.11733,-0.0233133
72,1.29815,1.12244,-0.0220708
72.5,1.35158,1.12417,-0.0224853
73,1.40268,1.13868,-0.0229227
73.5,1.4563,1.14091,-0.0225922
74,1.50731,1.14733,-0.0233898
74.5,1.55945,1.15624,-0.024813
75,1.61186,1.16567,-0.0237201
75.5,1.66285,1.17733,-0.023439
76,1.71572,1.18417,-0.0231726
76.5,1.7662,1.19522,-0.0234371
77,1.81824,1.19652,-0.0244894
77.5,1.86949,1.20859,-0.0244854
78,1.92148,1.20896,-0.0241567
78.5,1.97408,1.21833,-0.0248187
79,2.02451,1.22353,-0.0246789
79.5,2.0749,1.23347,-0.0246099
80,2.12749,1.23196,-0.0247001
80.5,2.17757,1.24084,-0.0248474
81,2.22995,1.24236,-0.0260203
81.5,2.28189,1.24207,-0.02602
82,2.3323,1.249,-0.0256043
82.5,2.38256,1.25499,-0.0261513
83,2.43408,1.25096,-0.0260171
83.5,2.48427,1.25053,-0.0266616
84,2.53413,1.25642,-0.02668
84.5,2.5843,1.25225,-0.0266937
85,2.63557,1.25545,-0.0272287
85.5,2.68717,1.25756,-0.0280134
86,2.73649,1.25333,-0.0294361
86.5,2.78675,1.25028,-0.0293469
87,2.83772,1.25643,-0.0294301
87.5,2.88838,1.25488,-0.0294316
88,2.93721,1.25129,-0.0307494
88.5,2.98629,1.25408,-0.0307501
89,3.03706,1.25671,-0.0297173
89.5,3.08571,1.25403,-0.029127
90,3.13389,1.24122,-0.0304166
90.5,3.18572,1.24305,-0.03042
91,3.23468,1.25325,-0.0304392
91.5,3.28553,1.24002,-0.0317283
92,3.33537,1.24032,-0.0315819
92.5,3.38485,1.23857,-0.0304212
93,3.43345,1.2394,-0.03042
93.5,3.48299,1.23411,-0.0304211
94,3.53166,1.22693,-0.0306239
94.5,3.58312,1.22765,-0.0310713
95,3.63088,1.22391,-0.0320192
95.5,3.68096,1.21735,-0.0336544
96,3.72986,1.21736,-0.03393
96.5,3.77838,1.21305,-0.03393
97,3.8271,1.21342,-0.03393
97.5,3.87561,1.2085,-0.0339135
98,3.92566,1.20669,-0.0326121
98.5,3.97416,1.20693,-0.03261
99,4.02338,1.19693,-0.03261
99.5,4.07243,1.19102,-0.03261
100,4.12021,1.18979,-0.0326098
100.5,4.16966,1.18546,-0.0329493
101,4.2156,1.18485,-0.0325324
101.5,4.2669,1.17689,-0.0326005
102,4.31614,1.17426,-0.0332525
102.5,4.36395,1.17614,-0.0339199
103,4.41293,1.16568,-0.033921
103.5,4.46366,1.16086,-0.0352479
104,4.51239,1.15878,-0.0370914
104.5,4.55899,1.15836,-0.037059
105,4.60849,1.148,-0.0357912
105.5,4.65322,1.15046,-0.0358068
106,4.70519,1.14623,-0.0344715
106.5,4.75533,1.14253,-0.03448
107,4.80301,1.14139,-0.0344814
107.5,4.85179,1.1382,-0.0357549
108,4.90008,1.13138,-0.0358001
108.5,4.94836,1.13021,-0.0358
109,4.99805,1.12643,-0.0357967
109.5,5.04638,1.12695,-0.0371088
110,5.09373,1.11561,-0.0371081
110.5,5.142,1.11959,-0.0384085
111,5.19058,1.11625,-0.0371095
111.5,5.23974,1.11377,-0.03711
112,5.28882,1.11261,-0.0371093
112.5,5.33562,1.11231,-0.0360831
113,5.38617,1.11162,-0.0357898
113.5,5.43443,1.1072,-0.03579
114,5.48374,1.10564,-0.0357908
114.5,5.5303,1.10829,-0.0371098
115,5.57816,1.10686,-0.0371101
115.5,5.62729,1.10716,-0.036995
116,5.67593,1.09858,-0.0384199
116.5,5.7244,1.10259,-0.0384219
117,5.77217,1.09998,-0.037094
117.5,5.82035,1.10094,-0.03711
118,5.86857,1.09547,-0.03711
118.5,5.91796,1.10189,-0.0371227
119,5.96687,1.10022,-0.038417
119.5,6.01519,1.09211,-0.0385507
120,6.06397,1.09422,-0.0397506
120.5,6.11137,1.09811,-0.03975
121,6.15939,1.10056,-0.0397501
121.5,6.20885,1.10482,-0.0396628
122,6.25558,1.10555,-0.0394375
122.5,6.30404,1.10436,-0.0393894
123,6.35423,1.10227,-0.0381018
123.5,6.40026,1.10653,-0.0381
124,6.44973,1.10616,-0.0381
124.5,6.49602,1.10521,-0.0381
125,6.54611,1.10664,-0.0381
125.5,6.59421,1.10306,-0.0381
126,6.64147,1.11142,-0.0381
126.5,6.69033,1.11085,-0.0381
127,6.73982,1.10884,-0.0380973
127.5,6.78793,1.10232,-0.0394262
128,6.8368,1.10709,-0.0394194
128.5,6.8844,1.10368,-0.0381296
129,6.93223,1.10839,-0.0381033
129.5,6.98025,1.10712,-0.0396773
130,7.0301,1.1049,-0.0399039
130.5,7.07611,1.10707,-0.0398505
131,7.12469,1.10746,-0.0406613
131.5,7.17401,1.10507,-0.0412768
132,7.22205,1.10035,-0.0424895
132.5,7.27061,1.10565,-0.0400365
133,7.31897,1.11946,-0.03985
133.5,7.36603,1.11011,-0.0398326
134,7.41464,1.10447,-0.0385299
134.5,7.4626,1.10859,-0.0393235
135,7.51137,1.10964,-0.0372202
135.5,7.55915,1.11846,-0.0372664
136,7.60633,1.11803,-0.0362118
136.5,7.65467,1.12127,-0.0371738
137,7.7027,1.11898,-0.0375357
137.5,7.75146,1.12193,-0.0388703
138,7.79887,1.11368,-0.0376594
138.5,7.8471,1.11726,-0.0389085
139,7.89468,1.11864,-0.0375112
139.5,7.94316,1.12207,-0.0388603
140,7.9908,1.11841,-0.03886
140.5,8.03912,1.11647,-0.03886
141,8.08739,1.11895,-0.03886
141.5,8.13297,1.1172,-0.0388815
142,8.1825,1.12144,-0.0395268
142.5,8.22851,1.12525,-0.0402744
143,8.27752,1.12722,-0.0408396
143.5,8.32616,1.13146,-0.04084
144,8.37368,1.1268,-0.0408264
144.5,8.42282,1.12964,-0.0395251
145,8.47036,1.13221,-0.0401631
145.5,8.51793,1.13696,-0.04153
146,8.56584,1.1373,-0.0415001
146.5,8.61375,1.13135,-0.0415
147,8.66147,1.13433,-0.0415
147.5,8.70912,1.13709,-0.0414939
148,8.7567,1.14467,-0.0405152
148.5,8.80386,1.13792,-0.0405119
149,8.85241,1.14485,-0.0395092
149.5,8.90032,1.14516,-0.0394778
150,8.94754,1.14616,-0.0408405
150.5,8.99552,1.14802,-0.0407129
151,9.04317,1.14902,-0.0405198
151.5,9.09044,1.14917,-0.0405197
152,9.13712,1.15537,-0.0394218
152.5,9.18584,1.15948,-0.0392011
153,9.23357,1.15556,-0.0404733
153.5,9.28062,1.16249,-0.04052
154,9.3288,1.16344,-0.0405202
154.5,9.37651,1.16717,-0.0402573
155,9.42409,1.16265,-0.039201
155.5,9.4721,1.16697,-0.0392
156,9.51911,1.18104,-0.0392
156.5,9.56676,1.16923,-0.0392
157,9.61265,1.17119,-0.0392
157.5,9.66174,1.17748,-0.0392
158,9.71013,1.17401,-0.0391987
158.5,9.7568,1.17868,-0.0378981
159,9.80426,1.18244,-0.039186
159.5,9.85346,1.18212,-0.0391898
160,9.8995,1.17928,-0.0393821
160.5,9.94698,1.18298,-0.0405092
161,9.99514,1.18682,-0.04048
161.5,10.0426,1.18917,-0.0401541
162,10.0894,1.19288,-0.0404107
162.5,10.1385,1.19153,-0.0418105
163,10.1854,1.19304,-0.0430573
163.5,10.2324,1.19212,-0.0430399
164,10.28,1.1966,-0.0430441
164.5,10.3278,1.20349,-0.0416805
165,10.3752,1.20037,-0.0417249
165.5,10.4227,1.20318,-0.0404056
166,10.4699,1.19882,-0.0410483
166.5,10.5165,1.20044,-0.0417301
167,10.5643,1.20492,-0.0417377
167.5,10.6116,1.20858,-0.0430405
168,10.6602,1.20845,-0.04304
168.5,10.7079,1.21125,-0.04304
169,10.7549,1.21368,-0.0430204
169.5,10.8019,1.21223,-0.0417193
170,10.8494,1.20579,-0.0387376
170.5,10.8981,1.21494,-0.0378685
171,10.9451,1.20975,-0.0392619
171.5,10.9929,1.21037,-0.0406198
172,11.0406,1.22118,-0.0404188
172.5,11.0881,1.21536,-0.0404099
173,11.1349,1.21806,-0.0404097
173.5,11.1831,1.21941,-0.0405025
174,11.2308,1.22021,-0.0417202
174.5,11.2781,1.22178,-0.04172
175,11.3253,1.21977,-0.04172
175.5,11.3733,1.22028,-0.0417261
176,11.4207,1.22095,-0.0430605
176.5,11.4675,1.21881,-0.0420494
177,11.5159,1.22425,-0.0417483
177.5,11.5632,1.22586,-0.0407302
178,11.6108,1.22451,-0.04073
178.5,11.658,1.22676,-0.040637
179,11.7054,1.23285,-0.0420503
179.5,11.753,1.22521,-0.04205
180,11.8011,1.23291,-0.0420503
180.5,11.8484,1.23894,-0.0427608
181,11.8966,1.24218,-0.0427018
181.5,11.9439,1.24398,-0.042378
182,11.9913,1.24099,-0.0423819
182.5,12.0376,1.24229,-0.0430923
183,12.0868,1.23903,-0.0430399
183.5,12.1328,1.24096,-0.04304
184,12.1812,1.24192,-0.0430399
184.5,12.2289,1.24351,-0.041666
185,12.2754,1.2408,-0.0430331
185.5,12.3236,1.23888,-0.0430316
186,12.3717,1.23979,-0.0417087
186.5,12.4185,1.24163,-0.0417181
187,12.4671,1.23446,-0.0430064
187.5,12.5141,1.23859,-0.0430401
188,12.5614,1.23979,-0.04304
188.5,12.608,1.24147,-0.04304
189,12.6569,1.24376,-0.04304
189.5,12.7053,1.23997,-0.04304
190,12.7513,1.24019,-0.04304
190.5,12.7984,1.24416,-0.0430428
191,12.8457,1.24812,-0.0416656
191.5,12.8944,1.24733,-0.0411174
192,12.9426,1.25041,-0.0404004
192.5,12.9886,1.24493,-0.0417636
193,13.0362,1.24381,-0.0417198
193.5,13.0837,1.25177,-0.042339
194,13.1316,1.24634,-0.0443531
194.5,13.1783,1.24827,-0.0456478
195,13.2253,1.24393,-0.0466465
195.5,13.2737,1.24858,-0.0456801
196,13.3215,1.25367,-0.0456804
196.5,13.3688,1.24978,-0.0450667
197,13.4162,1.25631,-0.0443601
197.5,13.4638,1.25468,-0.0443601
198,13.511,1.25248,-0.0443699
198.5,13.5583,1.2581,-0.0436814
199,13.6059,1.2591,-0.0433675
199.5,13.6542,1.25975,-0.04337
200,13.7011,1.26704,-0.04337
200.5,13.7481,1.26311,-0.0433698
201,13.7953,1.26435,-0.0420792
201.5,13.8436,1.26261,-0.04205
202,13.8901,1.26,-0.0420496
202.5,13.9379,1.26191,-0.0426832
203,13.9847,1.26688,-0.0433699
203.5,14.0327,1.27625,-0.04337
204,14.0801,1.26712,-0.04337
204.5,14.1286,1.26339,-0.04337
205,14.1755,1.27671,-0.0433699
205.5,14.2211,1.27034,-0.0433802
206,14.2708,1.26623,-0.0443631
206.5,14.3185,1.26848,-0.0454765
207,14.3652,1.26543,-0.0443611
207.5,14.4144,1.27181,-0.0456537
208,14.4617,1.26664,-0.04567
208.5,14.5081,1.27244,-0.04567
209,14.555,1.2718,-0.04567
209.5,14.6037,1.27352,-0.0456718
210,14.6506,1.27741,-0.0443764
210.5,14.6974,1.27606,-0.0443498
211,14.745,1.27389,-0.04435
211.5,14.7927,1.2783,-0.044351
212,14.8408,1.27067,-0.0430502
212.5,14.8885,1.27471,-0.04304
213,14.9344,1.28432,-0.04304
213.5,14.983,1.28421,-0.0430383
214,15.0302,1.28103,-0.0442448
214.5,15.0774,1.28473,-0.045688
215,15.1246,1.28248,-0.04699
215.5,15.1734,1.28013,-0.0469925
216,15.2199,1.28294,-0.0468773
216.5,15.268,1.2848,-0.0469902
217,15.3163,1.28717,-0.04699
217.5,15.3625,1.28715,-0.0469901
218,15.4105,1.28589,-0.0470174
218.5,15.4583,1.28308,-0.0443361
219,15.5055,1.28707,-0.0446701
219.5,15.5535,1.28871,-0.0446731
220,15.6019,1.28785,-0.0456712
220.5,15.6486,1.29216,-0.0456584
221,15.6964,1.293,-0.0453504
221.5,15.7435,1.29589,-0.0446799
222,15.7906,1.29496,-0.04468
222.5,15.8393,1.29306,-0.0446802
223,15.8841,1.29803,-0.045315
223.5,15.9322,1.29841,-0.046
224,15.9811,1.30385,-0.046
224.5,16.0286,1.29867,-0.046
225,16.0753,1.29728,-0.0460001
225.5,16.1243,1.2986,-0.0464162
226,16.1716,1.30598,-0.0472446
226.5,16.2165,1.30433,-0.0486546
227,16.2663,1.30797,-0.0499375
227.5,16.3137,1.30428,-0.04995
228,16.3616,1.30823,-0.051261
228.5,16.4086,1.30906,-0.0498525
229,16.4567,1.31488,-0.0499522
229.5,16.5031,1.31132,-0.0486114
230,16.552,1.31631,-0.0495966
230.5,16.5971,1.31527,-0.0510574
231,16.6466,1.32112,-0.0497127
231.5,16.6937,1.32201,-0.0497384
232,16.7415,1.32326,-0.0484204
232.5,16.7887,1.32336,-0.048331
233,16.8363,1.32763,-0.0497406
233.5,16.8841,1.32926,-0.04974
234,16.9318,1.32233,-0.04974
234.5,16.9781,1.3253,-0.04974
235,17.0269,1.32984,-0.049739
235.5,17.0753,1.33276,-0.0489594
236,17.1218,1.32815,-0.0484155
236.5,17.1694,1.32789,-0.0497602
237,17.2167,1.33317,-0.0510392
237.5,17.2642,1.33804,-0.05105
238,17.3123,1.3373,-0.0510503
238.5,17.3609,1.3384,-0.0507092
239,17.4073,1.34378,-0.049741
239.5,17.4543,1.3332,-0.049744
240,17.5021,1.33672,-0.0484162
240.5,17.5501,1.34106,-0.0468323
241,17.5971,1.33904,-0.048233
241.5,17.6443,1.34296,-0.050736
242,17.6928,1.34003,-0.0525036
242.5,17.7404,1.34396,-0.0551174
243,17.7886,1.34433,-0.0550875
243.5,17.8355,1.3535,-0.0554494
244,17.8825,1.3511,-0.05545
244.5,17.9304,1.35231,-0.0543475
245,17.978,1.36018,-0.0541278
245.5,18.0259,1.36169,-0.0529599
246,18.0727,1.36723,-0.05281
246.5,18.1201,1.36636,-0.05281
247,18.1678,1.37272,-0.0527965
247.5,18.216,1.37355,-0.0515116
248,18.2629,1.37518,-0.0515017
248.5,18.3115,1.37577,-0.0528111
249,18.3587,1.3795,-0.05281
249.5,18.4054,1.38576,-0.0528099
250,18.4517,1.38604,-0.0528192
250.5,18.5021,1.38174,-0.0553872
251,18.549,1.38327,-0.0565849
251.5,18.5939,1.38905,-0.0579707
252,18.644,1.39763,-0.0579829
252.5,18.6916,1.38557,-0.0573107
253,18.7389,1.39383,-0.05731
253.5,18.7867,1.39573,-0.05731
254,18.8345,1.39769,-0.0573098
254.5,18.8822,1.4001,-0.0586241
255,18.9302,1.40315,-0.0577337
255.5,18.9769,1.39727,-0.0576386
256,19.024,1.40368,-0.0590554
256.5,19.0716,1.40117,-0.0589599
257,19.1204,1.40626,-0.05896
257.5,19.1667,1.39325,-0.0589605
258,19.2146,1.39657,-0.0586696
258.5,19.2631,1.40006,-0.0589658
259,19.3108,1.39655,-0.0602595
259.5,19.3582,1.39373,-0.0602801
260,19.4062,1.40155,-0.0602801
260.5,19.4534,1.40102,-0.0615656
261,19.5013,1.40449,-0.06159
261.5,19.5491,1.39993,-0.0615901
262,19.5962,1.40346,-0.0615363
262.5,19.6422,1.41112,-0.0628839
263,19.6898,1.42773,-0.0642326
263.5,19.7396,1.42663,-0.0633127
264,19.7874,1.42421,-0.0645542
264.5,19.8354,1.4391,-0.0637935
265,19.8827,1.44757,-0.0650121
265.5,19.931,1.45783,-0.0658799
266,19.9782,1.46656,-0.0658801
266.5,20.0257,1.47733,-0.0658411
267,20.0743,1.48036,-0.0675359
267.5,20.1221,1.49395,-0.06752
268,20.1694,1.49814,-0.0674216
268.5,20.2171,1.50565,-0.0685086
269,20.2651,1.52133,-0.0688757
269.5,20.3128,1.53077,-0.0688786
270,20.3604,1.52904,-0.0688395
270.5,20.4085,1.54111,-0.0692379
271,20.4557,1.55259,-0.0708185
271.5,20.5042,1.56412,-0.0708169
272,20.5516,1.56004,-0.0726866
272.5,20.5993,1.56396,-0.0727136
273,20.6478,1.56547,-0.0741005
273.5,20.6954,1.57153,-0.0741332
274,20.7428,1.58075,-0.0754031
274.5,20.7907,1.577,-0.0767385
275,20.8394,1.58408,-0.0767353
275.5,20.8866,1.58184,-0.0780688
276,20.9323,1.58507,-0.0780533
276.5,20.9817,1.58133,-0.0784162
277,21.0293,1.5814,-0.0783912
277.5,21.0782,1.57747,-0.0795689
278,21.1256,1.58018,-0.0806959
278.5,21.1738,1.5848,-0.0810303
279,21.2219,1.58495,-0.08103
279.5,21.2688,1.58153,-0.0811991
280,21.3165,1.58144,-0.0837515
280.5,21.3645,1.58304,-0.0849687
281,21.413,1.57794,-0.0849385
281.5,21.4598,1.58524,-0.0856682
282,21.5075,1.58211,-0.086967
282.5,21.5558,1.57297,-0.0876143
283,21.6046,1.57997,-0.0882384
283.5,21.6521,1.58038,-0.0889302
284,21.6995,1.58429,-0.0889499
284.5,21.7474,1.58125,-0.0902452
285,21.7954,1.58033,-0.0916208
285.5,21.8433,1.5806,-0.0928873
286,21.89,1.57381,-0.0942023
286.5,21.9381,1.58187,-0.0946006
287,21.9868,1.57881,-0.0955207
287.5,22.0338,1.58085,-0.0968158
288,22.0812,1.58086,-0.0981278
288.5,22.1287,1.58358,-0.0994372
289,22.1776,1.58068,-0.100648
289.5,22.2233,1.58465,-0.0996231
290,22.2736,1.5829,-0.101767
290.5,22.3209,1.58551,-0.103418
291,22.3684,1.58911,-0.105662
291.5,22.4161,1.59621,-0.106457
292,22.4651,1.59244,-0.108594
292.5,22.513,1.59273,-0.1087
293,22.5608,1.5946,-0.110018
293.5,22.6069,1.59644,-0.111831
294,22.6556,1.60188,-0.11334
294.5,22.7038,1.59947,-0.114668
295,22.7514,1.60299,-0.11462
295.5,22.7994,1.60747,-0.116424
296,22.8472,1.60573,-0.118363
296.5,22.8946,1.60284,-0.119654
297,22.942,1.60496,-0.118617
297.5,22.9903,1.61244,-0.120124
298,23.0375,1.6088,-0.121955
298.5,23.0847,1.61029,-0.123702
299,23.1348,1.60778,-0.12387
299.5,23.1821,1.60682,-0.125157
300,23.2295,1.61845,-0.127778
300.5,23.2774,1.60942,-0.128987
301,23.3263,1.61421,-0.131444
301.5,23.3738,1.61288,-0.131994
302,23.4216,1.61355,-0.131955
302.5,23.4695,1.6136,-0.133398
303,23.5169,1.60929,-0.134623
303.5,23.5655,1.61851,-0.138492
304,23.6129,1.61548,-0.140205
304.5,23.6609,1.61573,-0.141715
305,23.709,1.61381,-0.142881
305.5,23.7568,1.61541,-0.144204
306,23.8048,1.60586,-0.145884
306.5,23.8529,1.61003,-0.147234
307,23.8999,1.60991,-0.148888
307.5,23.9481,1.60585,-0.151346
308,23.9962,1.61324,-0.152413
308.5,24.0435,1.61449,-0.153676
309,24.0931,1.61295,-0.155254
309.5,24.138,1.61136,-0.155347
310,24.1888,1.60549,-0.156339
310.5,24.2368,1.604,-0.157874
311,24.2838,1.60662,-0.159434
311.5,24.3321,1.60817,-0.160773
312,24.38,1.60556,-0.162947
312.5,24.4288,1.60523,-0.16476
313,24.4761,1.60494,-0.166214
313.5,24.5225,1.60313,-0.167532
314,24.5714,1.60756,-0.16754
314.5,24.6185,1.60805,-0.170134
315,24.6671,1.59642,-0.17185
315.5,24.7151,1.60281,-0.17325
316,24.7637,1.59491,-0.174724
316.5,24.8119,1.5946,-0.175912
317,24.8598,1.59663,-0.177217
317.5,24.9045,1.59907,-0.178517
318,24.9552,1.59319,-0.181503
318.5,25.0037,1.59362,-0.1813
319,25.0506,1.59539,-0.182801
319.5,25.0984,1.60356,-0.184107
320,25.1469,1.609,-0.185604
320.5,25.1952,1.61169,-0.189232
321,25.2427,1.61102,-0.191424
321.5,25.291,1.62054,-0.193959
322,25.3386,1.64166,-0.193994
322.5,25.3882,1.65338,-0.196453
323,25.4356,1.66402,-0.197951
323.5,25.4838,1.69192,-0.199084
324,25.5325,1.72053,-0.202037
324.5,25.5809,1.76283,-0.203373
325,25.6294,1.81392,-0.202034
325.5,25.6773,1.86728,-0.203176
326,25.7256,1.93042,-0.204821
326.5,25.7752,2.00459,-0.207809
327,25.8252,2.07818,-0.209033
327.5,25.8729,2.13356,-0.209015
328,25.9221,2.16701,-0.210339
328.5,25.9702,2.17144,-0.211889
329,26.018,2.16501,-0.211905
329.5,26.0657,2.13746,-0.213195
330,26.1139,2.07438,-0.214609
330.5,26.1618,2.0237,-0.215952
331,26.209,1.96259,-0.21775
331.5,26.2558,1.91165,-0.222522
332,26.304,1.85872,-0.226889
332.5,26.3512,1.8053,-0.228231
333,26.3992,1.77229,-0.230718
333.5,26.4462,1.73921,-0.229834
334,26.4951,1.70547,-0.232623
334.5,26.5426,1.67543,-0.235266
335,26.5902,1.65369,-0.236599
335.5,26.6381,1.63916,-0.234973
336,26.6853,1.61902,-0.236789
336.5,26.7341,1.60318,-0.240772
337,26.7818,1.59657,-0.243825
337.5,26.83,1.58596,-0.245129
338,26.8782,1.576,-0.24718
338.5,26.9252,1.57045,-0.248362
339,26.9746,1.56512,-0.25086
339.5,27.0199,1.56555,-0.252705
340,27.0685,1.55524,-0.254761
340.5,27.1179,1.55498,-0.256358
341,27.1668,1.55507,-0.257788
341.5,27.2132,1.54534,-0.257784
342,27.2623,1.54212,-0.259126
342.5,27.3102,1.54016,-0.261719
343,27.3579,1.54325,-0.264377
343.5,27.4063,1.53593,-0.266594
344,27.4546,1.53886,-0.270932
344.5,27.5034,1.53255,-0.271962
345,27.5511,1.52986,-0.273749
345.5,27.5994,1.52596,-0.274937
346,27.6471,1.52916,-0.275443
346.5,27.6934,1.52703,-0.276764
347,27.7437,1.52667,-0.278121
347.5,27.7911,1.52121,-0.280721
348,27.8399,1.5164,-0.282053
348.5,27.8886,1.51735,-0.284753
349,27.9357,1.51536,-0.28722
349.5,27.9836,1.51578,-0.289349
350,28.0332,1.51043,-0.290891
350.5,28.0812,1.5017,-0.292562
351,28.1285,1.49835,-0.294005
351.5,28.1755,1.50023,-0.295225
352,28.2261,1.49102,-0.296633
352.5,28.2738,1.49207,-0.297954
353,28.3227,1.49051,-0.299337
353.5,28.3702,1.48319,-0.300607
354,28.4185,1.48583,-0.301946
354.5,28.4663,1.47739,-0.303342
355,28.5154,1.47391,-0.306009
355.5,28.5633,1.46872,-0.308941
356,28.612,1.46567,-0.310357
356.5,28.6601,1.46589,-0.312872
357,28.7078,1.46495,-0.314461
357.5,28.7557,1.46856,-0.315807
358,28.8049,1.47199,-0.317603
358.5,28.8532,1.46425,-0.318979
359,28.9018,1.46023,-0.320051
359.5,28.9488,1.45188,-0.322286
360,28.9976,1.45343,-0.323463
360.5,29.0462,1.44801,-0.326103
361,29.0945,1.44722,-0.326252
361.5,29.1426,1.44055,-0.328164
362,29.1914,1.44272,-0.33057
362.5,29.24,1.43992,-0.331988
363,29.2879,1.43598,-0.332767
363.5,29.3367,1.43827,-0.334026
364,29.3851,1.43089,-0.335212
364.5,29.4339,1.42898,-0.337195
365,29.4814,1.42061,-0.339672
365.5,29.5296,1.41389,-0.342168
366,29.5784,1.41506,-0.344492
366.5,29.6262,1.41113,-0.348589
367,29.6745,1.4087,-0.351336
367.5,29.724,1.4073,-0.353367
368,29.7717,1.39671,-0.354705
368.5,29.8199,1.3923,-0.356031
369,29.8683,1.38583,-0.357577
369.5,29.9171,1.38248,-0.359979
370,29.9652,1.38041,-0.361976
370.5,30.0142,1.37808,-0.362001
371,30.0622,1.38103,-0.36349
371.5,30.1111,1.37967,-0.365556
372,30.1591,1.36991,-0.366185
372.5,30.206,1.37247,-0.367579
373,30.2564,1.37596,-0.368863
373.5,30.3042,1.37122,-0.37025
374,30.3521,1.36992,-0.371756
374.5,30.402,1.36699,-0.374617
375,30.4493,1.36252,-0.376984
375.5,30.4974,1.36172,-0.379134
376,30.5469,1.36317,-0.380442
376.5,30.5953,1.35998,-0.382204
377,30.6445,1.35467,-0.384998
377.5,30.693,1.35587,-0.387672
378,30.7417,1.35086,-0.389411
378.5,30.7894,1.35581,-0.391392
379,30.8383,1.35827,-0.394475
379.5,30.8871,1.35567,-0.397381
380,30.9353,1.35061,-0.398953
380.5,30.9838,1.35528,-0.401228
381,31.0332,1.35885,-0.402455
381.5,31.0819,1.35431,-0.401798
382,31.1293,1.35543,-0.405112
382.5,31.1783,1.35581,-0.408713
383,31.227,1.35084,-0.410554
383.5,31.2752,1.35591,-0.413316
384,31.3241,1.34781,-0.416418
384.5,31.3732,1.35716,-0.418323
385,31.4224,1.35616,-0.420355
385.5,31.4699,1.35913,-0.422952
386,31.5184,1.3553,-0.424666
386.5,31.5671,1.35105,-0.425574
387,31.6158,1.35674,-0.428297
387.5,31.6657,1.3601,-0.431053
388,31.713,1.3639,-0.433879
388.5,31.7623,1.36172,-0.437198
389,31.8109,1.35875,-0.43963
389.5,31.8591,1.35654,-0.440394
390,31.9084,1.3638,-0.443695
390.5,31.9562,1.37453,-0.445103
391,32.0055,1.37118,-0.447465
391.5,32.0539,1.36869,-0.44952
392,32.1026,1.36683,-0.450768
392.5,32.1516,1.38031,-0.453527
393,32.1997,1.38175,-0.455251
393.5,32.2478,1.38776,-0.458159
394,32.298,1.38773,-0.459539
394.5,32.3458,1.38678,-0.46269
395,32.3955,1.39381,-0.465119
395.5,32.4444,1.4004,-0.467324
396,32.4928,1.40206,-0.470349
396.5,32.5416,1.40294,-0.473315
397,32.5901,1.40659,-0.476765
397.5,32.6384,1.4149,-0.478726
398,32.6874,1.41696,-0.47866
398.5,32.7348,1.41985,-0.478645
399,32.7854,1.42137,-0.482601
399.5,32.8339,1.42603,-0.485755
400,32.8804,1.43188,-0.490708
400.5,32.9314,1.42792,-0.49271
401,32.9806,1.44021,-0.495196
401.5,33.0299,1.44438,-0.496962
402,33.0784,1.45037,-0.499701
402.5,33.1277,1.44837,-0.501052
403,33.1758,1.45433,-0.504466
403.5,33.2256,1.46943,-0.50674
404,33.274,1.47293,-0.509072
404.5,33.3235,1.47453,-0.510634
405,33.3726,1.47651,-0.51341
405.5,33.421,1.47918,-0.514729
406,33.4682,1.49626,-0.516501
406.5,33.5186,1.50816,-0.517989
407,33.5678,1.51325,-0.51921
407.5,33.6167,1.51299,-0.52184
408,33.6659,1.52317,-0.524787
408.5,33.7148,1.52919,-0.526988
409,33.7645,1.53495,-0.530698
409.5,33.8132,1.53765,-0.532845
410,33.8623,1.54643,-0.535188
410.5,33.9106,1.55475,-0.537418
411,33.9596,1.56196,-0.539844
411.5,34.0085,1.57451,-0.539535
412,34.058,1.57147,-0.540824
412.5,34.107,1.58055,-0.544533
413,34.156,1.58813,-0.546834
413.5,34.2046,1.59733,-0.548467
414,34.253,1.59879,-0.549779
414.5,34.3031,1.61362,-0.551453
415,34.3518,1.61146,-0.5543
415.5,34.4011,1.62334,-0.556023
416,34.4496,1.63043,-0.558972
416.5,34.498,1.64469,-0.56162
417,34.5476,1.64546,-0.561794
417.5,34.5957,1.65142,-0.564434
418,34.6447,1.65619,-0.5676
418.5,34.6944,1.6542,-0.571057
419,34.7433,1.65568,-0.574136
419.5,34.7925,1.65859,-0.574163
420,34.8406,1.66013,-0.576178
420.5,34.8902,1.663,-0.578479
421,34.9394,1.6623,-0.580549
421.5,34.9886,1.65957,-0.583225
422,35.0357,1.66784,-0.587303
422.5,35.0864,1.66422,-0.588945
423,35.1346,1.66802,-0.591068
423.5,35.184,1.66982,-0.593065
424,35.2327,1.66539,-0.594342
424.5,35.2827,1.65912,-0.596702
425,35.3308,1.66616,-0.598063
425.5,35.3801,1.65856,-0.601166
426,35.4268,1.65994,-0.603787
426.5,35.4787,1.66373,-0.607174
427,35.5265,1.66115,-0.609184
427.5,35.5754,1.65672,-0.610782
428,35.6247,1.65882,-0.614367
428.5,35.6746,1.6566,-0.617152
429,35.724,1.65435,-0.619176
429.5,35.7721,1.65268,-0.622339
430,35.8213,1.65104,-0.62566
430.5,35.8705,1.64796,-0.626427
431,35.9204,1.64576,-0.628651
431.5,35.9693,1.64394,-0.630184
432,36.0176,1.63931,-0.633354
432.5,36.0664,1.64733,-0.634994
433,36.1165,1.64202,-0.636309
433.5,36.1655,1.64862,-0.638998
434,36.2146,1.64354,-0.640386
434.5,36.2644,1.64253,-0.64194
435,36.3118,1.64269,-0.644757
435.5,36.362,1.64305,-0.647571
436,36.4109,1.64272,-0.649473
436.5,36.459,1.64413,-0.652658
437,36.5082,1.64031,-0.656063
437.5,36.559,1.639,-0.660087
438,36.6081,1.63325,-0.663045
438.5,36.6562,1.63628,-0.665043
439,36.7059,1.63621,-0.666308
439.5,36.7545,1.63196,-0.667852
440,36.805,1.63846,-0.670789
440.5,36.8517,1.63424,-0.67409
441,36.9026,1.62691,-0.675975
441.5,36.9519,1.62921,-0.678546
442,37.0005,1.63218,-0.681688
442.5,37.05,1.63108,-0.683332
443,37.099,1.62985,-0.685122
443.5,37.1478,1.63074,-0.68741
444,37.1966,1.62902,-0.688981
444.5,37.2464,1.63197,-0.692474
445,37.2958,1.63124,-0.694815
445.5,37.3457,1.6316,-0.697791
446,37.3945,1.62877,-0.700792
446.5,37.443,1.62578,-0.702303
447,37.4921,1.62725,-0.705504
447.5,37.5417,1.62424,-0.708652
448,37.5906,1.62742,-0.709934
448.5,37.6404,1.62933,-0.713385
449,37.6892,1.62689,-0.716983
449.5,37.7383,1.63155,-0.720228
450,37.7874,1.62773,-0.72182
450.5,37.837,1.6317,-0.724455
451,37.8859,1.6263,-0.727571
451.5,37.9348,1.62439,-0.730148
452,37.9844,1.62454,-0.732404
452.5,38.0347,1.62403,-0.735711
453,38.0824,1.62104,-0.737538
453.5,38.1324,1.62111,-0.739627
454,38.1803,1.6247,-0.743003
454.5,38.2306,1.61934,-0.745157
455,38.2794,1.62106,-0.747569
455.5,38.3288,1.61903,-0.750436
456,38.3778,1.61824,-0.75244
456.5,38.4276,1.61507,-0.755263
457,38.4763,1.60726,-0.759345
457.5,38.5255,1.60754,-0.763453
458,38.5752,1.6091,-0.763892
458.5,38.6238,1.60745,-0.76531
459,38.6737,1.60868,-0.767036
459.5,38.7227,1.61028,-0.768527
460,38.7723,1.60835,-0.769816
460.5,38.8216,1.60843,-0.771119
461,38.8714,1.605,-0.774203
461.5,38.9197,1.60196,-0.77461
462,38.9698,1.60125,-0.777136
462.5,39.019,1.59752,-0.778466
463,39.0683,1.59772,-0.780642
463.5,39.1173,1.60092,-0.784172
464,39.1662,1.58979,-0.786697
464.5,39.2164,1.59443,-0.789393
465,39.2645,1.59234,-0.790145
465.5,39.3151,1.58209,-0.79094
466,39.3631,1.57773,-0.792876
466.5,39.4125,1.57821,-0.795051
467,39.4617,1.57388,-0.797156
467.5,39.5113,1.57268,-0.798454
468,39.5592,1.56859,-0.799779
468.5,39.6097,1.56399,-0.801608
469,39.6589,1.55978,-0.80448
469.5,39.709,1.55703,-0.805858
470,39.7574,1.5529,-0.806134
470.5,39.8074,1.54668,-0.808088
471,39.8565,1.54826,-0.809502
471.5,39.906,1.54918,-0.811209
472,39.9552,1.53826,-0.812846
472.5,40.0044,1.53022,-0.815063
473,40.0537,1.53217,-0.819893
473.5,40.1028,1.53065,-0.820901
474,40.1527,1.53065,-0.819052
474.5,40.2019,1.53151,-0.819322
475,40.2511,1.52611,-0.820637
475.5,40.3004,1.51606,-0.823168
476,40.3497,1.51307,-0.82635
476.5,40.3985,1.5178,-0.82857
477,40.4477,1.51985,-0.829589
477.5,40.4982,1.5106,-0.830862
478,40.5466,1.51977,-0.832184
478.5,40.5956,1.51373,-0.833436
479,40.6455,1.51087,-0.835703
479.5,40.6956,1.50255,-0.838395
480,40.7443,1.5035,-0.840338
480.5,40.7943,1.50684,-0.841626
481,40.844,1.51181,-0.842918
481.5,40.8932,1.502,-0.843854
482,40.942,1.50592,-0.841715
482.5,40.9926,1.50551,-0.8417
483,41.0418,1.51517,-0.845264
483.5,41.0911,1.51601,-0.848708
484,41.1405,1.51394,-0.849919
484.5,41.19,1.51586,-0.851261
485,41.2391,1.51547,-0.852529
485.5,41.2886,1.51509,-0.852819
486,41.3388,1.51594,-0.854123
486.5,41.389,1.52103,-0.855427
487,41.4373,1.515,-0.856766
487.5,41.4873,1.51274,-0.856871
488,41.5367,1.51682,-0.858181
488.5,41.5868,1.51783,-0.859626
489,41.6359,1.52274,-0.860919
489.5,41.6857,1.51105,-0.863601
490,41.7354,1.51569,-0.865233
490.5,41.7846,1.51726,-0.868025
491,41.8346,1.51799,-0.869249
491.5,41.8838,1.51677,-0.872129
492,41.9325,1.52317,-0.873864
492.5,41.9829,1.51708,-0.873935
493,42.0324,1.52529,-0.877094
493.5,42.0831,1.52547,-0.880205
494,42.1318,1.52379,-0.880129
494.5,42.1818,1.5225,-0.881451
495,42.2312,1.52093,-0.88277
495.5,42.2809,1.51972,-0.884078
496,42.3314,1.51933,-0.885411
496.5,42.3788,1.52045,-0.888078
497,42.4313,1.52549,-0.88804
497.5,42.4806,1.52945,-0.889628
498,42.5303,1.52937,-0.892265
498.5,42.58,1.52976,-0.894797
499,42.63,1.52772,-0.896717
499.5,42.6795,1.52739,-0.898947
500,42.7294,1.53569,-0.89946
500.5,42.7789,1.53354,-0.900823
501,42.8276,1.53418,-0.902351
501.5,42.879,1.53691,-0.904781
502,42.928,1.54093,-0.906054
502.5,42.9782,1.54059,-0.909447
503,43.0279,1.53823,-0.910284
503.5,43.0772,1.54226,-0.911768
504,43.1277,1.5455,-0.913179
504.5,43.1767,1.54587,-0.915767
505,43.2268,1.54425,-0.917633
505.5,43.2769,1.55086,-0.918956
506,43.3266,1.54957,-0.921528
506.5,43.3766,1.5532,-0.924351
507,43.426,1.55579,-0.926066
507.5,43.4757,1.55967,-0.927955
508,43.5258,1.55742,-0.930133
508.5,43.5757,1.56694,-0.931752
509,43.6253,1.56872,-0.933136
509.5,43.6752,1.57272,-0.934929
510,43.7238,1.56728,-0.936247
510.5,43.7747,1.56809,-0.938767
511,43.8236,1.57136,-0.940999
511.5,43.874,1.57107,-0.943937
512,43.9236,1.57507,-0.945534
512.5,43.9732,1.5861,-0.948543
513,44.0227,1.58747,-0.949821
513.5,44.0732,1.58613,-0.952205
514,44.1209,1.59419,-0.95425
514.5,44.1717,1.59958,-0.956896
515,44.2212,1.60263,-0.959156
515.5,44.2713,1.60789,-0.96301
516,44.3215,1.61139,-0.965774
516.5,44.3704,1.61853,-0.968443
517,44.4201,1.61675,-0.970061
517.5,44.4697,1.62464,-0.972391
518,44.5205,1.63008,-0.975459
518.5,44.5701,1.6327,-0.977346
519,44.6195,1.6355,-0.980478
519.5,44.6692,1.64967,-0.98198
520,44.7195,1.64894,-0.985594
520.5,44.7694,1.65163,-0.987697
521,44.8185,1.64912,-0.990764
521.5,44.8686,1.65503,-0.994133
522,44.9179,1.65923,-0.997556
522.5,44.9679,1.66509,-1.0001
523,45.0185,1.67422,-1.00249
523.5,45.0681,1.67253,-1.0057
524,45.1177,1.67912,-1.00864
524.5,45.1677,1.68201,-1.01234
525,45.2161,1.6882,-1.01232
525.5,45.2667,1.68816,-1.01356
526,45.3167,1.68722,-1.01655
526.5,45.3669,1.67965,-1.02167
527,45.4165,1.68578,-1.02699
527.5,45.4659,1.68976,-1.03282
528,45.5152,1.69263,-1.03662
528.5,45.565,1.68466,-1.04213
529,45.616,1.68592,-1.04603
529.5,45.6659,1.69079,-1.04757
530,45.7155,1.68437,-1.04978
530.5,45.7643,1.6852,-1.05174
531,45.8149,1.68095,-1.05482
531.5,45.8643,1.68136,-1.06002
532,45.9149,1.67458,-1.06418
532.5,45.9635,1.67607,-1.06869
533,46.0146,1.67727,-1.07213
533.5,46.0639,1.67765,-1.0772
534,46.1144,1.68088,-1.08261
534.5,46.1628,1.68632,-1.08771
535,46.2132,1.68904,-1.09367
535.5,46.2634,1.6941,-1.09877
536,46.3134,1.70148,-1.10379
536.5,46.3633,1.71232,-1.10689
537,46.4134,1.72416,-1.11217
537.5,46.4628,1.73377,-1.11809
538,46.5122,1.75641,-1.12108
538.5,46.5629,1.77844,-1.12397
539,46.6132,1.80018,-1.1282
539.5,46.6638,1.82075,-1.13388
540,46.7141,1.85138,-1.13932
540.5,46.7633,1.87151,-1.14559
541,46.8135,1.89936,-1.14975
541.5,46.8643,1.92345,-1.15399
542,46.9133,1.94681,-1.15926
542.5,46.964,1.96919,-1.16565
543,47.014,1.98754,-1.16909
543.5,47.063,2.01665,-1.17439
544,47.114,2.04479,-1.18057
544.5,47.1618,2.05694,-1.18673
545,47.2137,2.07798,-1.19457
545.5,47.2647,2.0989,-1.20169
546,47.3143,2.10803,-1.20552
546.5,47.3647,2.13004,-1.21169
547,47.4155,2.1473,-1.2196
547.5,47.4642,2.15654,-1.22559
548,47.5149,2.17986,-1.23148
548.5,47.5648,2.1893,-1.23797
549,47.6152,2.20059,-1.24484
549.5,47.6653,2.21667,-1.25043
550,47.7155,2.22762,-1.25644
550.5,47.7642,2.24222,-1.26428
551,47.8146,2.2576,-1.27175
551.5,47.8653,2.26663,-1.27897
552,47.9153,2.28475,-1.28532
552.5,47.964,2.29992,-1.29231
553,48.0156,2.30863,-1.29995
553.5,48.0657,2.31442,-1.3069
554,48.1153,2.31712,-1.31303
554.5,48.1651,2.33079,-1.32065
555,48.2146,2.3366,-1.32808
555.5,48.265,2.34188,-1.33577
556,48.3149,2.35239,-1.34389
556.5,48.365,2.3534,-1.35152
557,48.4152,2.35239,-1.35887
557.5,48.4642,2.35334,-1.36601
558,48.5145,2.36155,-1.37369
558.5,48.5652,2.35937,-1.38219
559,48.6144,2.3571,-1.38971
559.5,48.6642,2.35247,-1.39773
560,48.7144,2.35822,-1.40657
560.5,48.7643,2.35994,-1.41478
561,48.8153,2.35503,-1.42269
561.5,48.8648,2.35264,-1.43119
562,48.9138,2.34083,-1.43951
562.5,48.964,2.3231,-1.44744
563,49.0142,2.31763,-1.45499
563.5,49.0643,2.30524,-1.46425
564,49.1135,2.29247,-1.47307
564.5,49.1634,2.27952,-1.48151
565,49.2138,2.26847,-1.4903
565.5,49.2636,2.24607,-1.49955
566,49.3117,2.23222,-1.50728
566.5,49.3635,2.21278,-1.5168
567,49.4115,2.18454,-1.5255
567.5,49.4625,2.16818,-1.53398
568,49.5124,2.13671,-1.5429
568.5,49.5624,2.10559,-1.55251
569,49.6121,2.05755,-1.56138
569.5,49.6601,2.0401,-1.56969
570,49.7115,2.00218,-1.57837
570.5,49.7618,1.95911,-1.58733
571,49.8105,1.93044,-1.5952
571.5,49.8589,1.87765,-1.60273
572,49.9098,1.83835,-1.61155
572.5,49.959,1.77882,-1.61929
573,50.0067,1.72801,-1.62658
573.5,50.0576,1.6714,-1.63393
574,50.1072,1.59188,-1.64115
574.5,50.156,1.52782,-1.64778
575,50.2056,1.45677,-1.6555
575.5,50.2554,1.37246,-1.66232
576,50.3041,1.29532,-1.66649
576.5,50.353,1.21009,-1.67299
577,50.4024,1.12812,-1.68113
577.5,50.4523,1.06417,-1.68749
578,50.5019,0.975101,-1.69061
578.5,50.55,0.907511,-1.69469
579,50.6007,0.840042,-1.69935
579.5,50.6506,0.779686,-1.70433
580,50.6998,0.725664,-1.70675
580.5,50.7484,0.677046,-1.7096
581,50.7987,0.631247,-1.7139
581.5,50.8484,0.603754,-1.71658
582,50.8973,0.597674,-1.71869
582.5,50.9477,0.575291,-1.72109
583,50.9985,0.574431,-1.72655
583.5,51.0491,0.581517,-1.72812
584,51.0993,0.585074,-1.72813
584.5,51.1489,0.607116,-1.73014
585,51.1982,0.629174,-1.73357
585.5,51.2498,0.647433,-1.73712
586,51.2979,0.663669,-1.73913
586.5,51.3505,0.672072,-1.7404
587,51.3984,0.689046,-1.74173
587.5,51.4509,0.703569,-1.74301
588,51.5,0.708004,-1.74304
588.5,51.5521,0.724751,-1.74168
589,51.602,0.748701,-1.74303
589.5,51.6529,0.749925,-1.74302
590,51.7039,0.760387,-1.74437
590.5,51.7533,0.772949,-1.74567
591,51.8044,0.790653,-1.74659
591.5,51.8542,0.796778,-1.74673
592,51.9045,0.811733,-1.74614
592.5,51.9555,0.81864,-1.747
593,52.0055,0.823405,-1.74832
593.5,52.0554,0.825127,-1.75095
594,52.1061,0.834434,-1.75227
594.5,52.1564,0.842831,-1.75355
595,52.2061,0.850655,-1.75357
595.5,52.2571,0.856562,-1.75499
596,52.3068,0.865167,-1.75488
596.5,52.3582,0.862203,-1.75621
597,52.4084,0.869054,-1.75625
597.5,52.458,0.875092,-1.7573
598,52.5084,0.876887,-1.75861
598.5,52.5579,0.883773,-1.75928
599,52.6099,0.884268,-1.75994
599.5,52.6596,0.889028,-1.76127
600,52.7103,0.891752,-1.76125
600.5,52.761,0.899438,-1.76125
601,52.8109,0.897947,-1.76257
601.5,52.8621,0.897173,-1.76262
602,52.9117,0.89807,-1.76521
602.5,52.9615,0.901599,-1.76664
603,53.0126,0.912456,-1.76795
603.5,53.0633,0.913896,-1.76795
604,53.1137,0.912534,-1.76879
604.5,53.1642,0.919826,-1.76927
605,53.2122,0.912485,-1.76931
605.5,53.2643,0.923162,-1.77026
606,53.3146,0.92989,-1.77056
606.5,53.3662,0.931842,-1.77099
607,53.4167,0.933547,-1.77242
607.5,53.4678,0.933719,-1.77377
608,53.5181,0.941835,-1.77477
608.5,53.5668,0.949631,-1.77475
609,53.6184,0.952087,-1.7734
609.5,53.6686,0.953826,-1.77257
610,53.7178,0.958461,-1.77336
610.5,53.7699,0.964264,-1.77409
611,53.8201,0.970421,-1.77544
611.5,53.8706,0.971904,-1.77674
612,53.9211,0.968818,-1.77771
612.5,53.971,0.971902,-1.77805
613,54.0215,0.984797,-1.77937
613.5,54.0721,0.985923,-1.77937
614,54.1222,0.988998,-1.77979
614.5,54.1727,0.998038,-1.782
615,54.2231,0.996572,-1.78199
615.5,54.2738,0.998708,-1.78333
616,54.3234,1.00807,-1.78415
616.5,54.3743,1.01095,-1.78322
617,54.4248,1.01407,-1.78464
617.5,54.4753,1.01603,-1.78464
618,54.5256,1.01631,-1.78587
618.5,54.5754,1.02361,-1.78737
619,54.626,1.02364,-1.78702
619.5,54.6769,1.03022,-1.78827
620,54.7276,1.02457,-1.78857
620.5,54.7776,1.03796,-1.78892
621,54.8281,1.04096,-1.78989
621.5,54.8787,1.04667,-1.78991
622,54.9284,1.04595,-1.79111
622.5,54.9799,1.04993,-1.79189
623,55.0289,1.05655,-1.79177
623.5,55.0809,1.06945,-1.79388
624,55.1308,1.06804,-1.79518
624.5,55.1817,1.06913,-1.7952
625,55.2324,1.06982,-1.7956
625.5,55.2824,1.08217,-1.79608
626,55.3328,1.08155,-1.79643
626.5,55.3838,1.08531,-1.79914
627,55.4344,1.08622,-1.79914
627.5,55.4851,1.08735,-1.8006
628,55.5358,1.09473,-1.80063
628.5,55.5873,1.09816,-1.80167
629,55.6367,1.10085,-1.80196
629.5,55.6873,1.10631,-1.80388
630,55.738,1.11806,-1.80561
630.5,55.7881,1.11908,-1.80561
631,55.8395,1.11596,-1.807
631.5,55.8901,1.12886,-1.80561
632,55.9405,1.13245,-1.80561
632.5,55.9911,1.13465,-1.80561
633,56.0418,1.13578,-1.80561
633.5,56.0915,1.14262,-1.80761
634,56.1429,1.14717,-1.80791
634.5,56.193,1.14575,-1.80922
635,56.2446,1.15611,-1.80925
635.5,56.2949,1.16097,-1.81055
636,56.3459,1.16581,-1.81159
636.5,56.3951,1.16655,-1.81259
637,56.4458,1.17299,-1.8132
637.5,56.4966,1.17396,-1.81222
638,56.5465,1.18251,-1.81316
638.5,56.5976,1.17574,-1.81359
639,56.6481,1.18093,-1.81325
639.5,56.6986,1.19031,-1.8159
640,56.7485,1.19599,-1.81715
640.5,56.8004,1.1978,-1.81735
641,56.8505,1.20334,-1.81735
641.5,56.9014,1.20759,-1.81867
642,56.9501,1.2085,-1.8199
642.5,57.0025,1.22346,-1.82075
643,57.0528,1.22178,-1.82131
643.5,57.1038,1.22413,-1.82126
644,57.1536,1.21912,-1.82262
644.5,57.2054,1.21944,-1.82262
645,57.2556,1.22639,-1.82262
645.5,57.3057,1.229,-1.82283
646,57.357,1.22847,-1.82405
646.5,57.4074,1.23714,-1.82503
647,57.4583,1.23274,-1.824
647.5,57.5088,1.24112,-1.82526
648,57.5594,1.2482,-1.82536
648.5,57.6099,1.24741,-1.82755
649,57.6607,1.25033,-1.829
649.5,57.7118,1.24979,-1.82899
650,57.763,1.25264,-1.83047
650.5,57.8139,1.25806,-1.8317
651,57.8638,1.26274,-1.83175
651.5,57.9142,1.26815,-1.83202
652,57.9654,1.26624,-1.83338
652.5,58.0162,1.26598,-1.83479
653,58.0669,1.27553,-1.8347
653.5,58.1174,1.28648,-1.83606
654,58.1682,1.28211,-1.83737
654.5,58.2181,1.28261,-1.83747
655,58.2665,1.29301,-1.83766
655.5,58.3202,1.29915,-1.83802
656,58.3701,1.2951,-1.83886
656.5,58.4202,1.3051,-1.83925
657,58.4712,1.30301,-1.83929
657.5,58.522,1.30904,-1.83839
658,58.573,1.30396,-1.84042
658.5,58.6227,1.3067,-1.84171
659,58.672,1.31146,-1.8443
659.5,58.7223,1.31218,-1.84458
660,58.7747,1.31287,-1.84551
660.5,58.8246,1.31849,-1.84459
661,58.8758,1.3206,-1.84459
661.5,58.9261,1.32335,-1.84613
662,58.9748,1.33166,-1.84717
662.5,59.0248,1.33445,-1.84853
663,59.0786,1.33699,-1.84853
663.5,59.1293,1.33911,-1.84853
664,59.1797,1.34562,-1.84953
664.5,59.23,1.34208,-1.85037
665,59.2813,1.34373,-1.85268
665.5,59.3312,1.34386,-1.8514
666,59.3823,1.35192,-1.85142
666.5,59.4329,1.35615,-1.85271
667,59.4816,1.35572,-1.85271
667.5,59.5338,1.35516,-1.85271
668,59.5849,1.36276,-1.85427
668.5,59.6352,1.36107,-1.85433
669,59.684,1.36196,-1.85545
669.5,59.7373,1.36767,-1.85671
670,59.7869,1.36875,-1.85811
670.5,59.8374,1.36004,-1.85954
671,59.8863,1.36708,-1.86082
671.5,59.9383,1.36122,-1.86215
672,59.9894,1.36621,-1.86118
672.5,60.0403,1.36993,-1.86083
673,60.0915,1.36746,-1.86219
673.5,60.1416,1.37501,-1.86118
674,60.1909,1.37326,-1.86213
674.5,60.243,1.37476,-1.86307
675,60.2934,1.37502,-1.86477
675.5,60.3438,1.37801,-1.86574
676,60.3948,1.37794,-1.86755
676.5,60.4456,1.38208,-1.86746
677,60.4965,1.38275,-1.86742
677.5,60.5463,1.37532,-1.86867
678,60.596,1.38011,-1.87113
678.5,60.6481,1.38014,-1.87272
679,60.6985,1.38545,-1.87405
679.5,60.75,1.38487,-1.87401
680,60.8,1.38158,-1.87401
680.5,60.8505,1.38257,-1.87534
681,60.9013,1.38605,-1.87532
681.5,60.9529,1.39139,-1.87664
682,61.0034,1.3918,-1.87797
682.5,61.0542,1.39468,-1.87946
683,61.1054,1.39847,-1.87946
683.5,61.1543,1.4032,-1.87958
684,61.2066,1.39905,-1.87817
684.5,61.2581,1.40139,-1.87883
685,61.3081,1.40339,-1.87883
685.5,61.3592,1.4093,-1.87884
686,61.4097,1.41296,-1.88159
686.5,61.4603,1.41763,-1.8829
687,61.5104,1.42157,-1.8829
687.5,61.5621,1.41679,-1.88361
688,61.6127,1.41306,-1.8853
688.5,61.6632,1.42127,-1.8842
689,61.7149,1.42307,-1.88564
689.5,61.764,1.4184,-1.88652
690,61.8156,1.41545,-1.8886
690.5,61.8662,1.42098,-1.88895
691,61.9173,1.42281,-1.88911
691.5,61.9677,1.42058,-1.89076
692,62.0191,1.42422,-1.8908
692.5,62.0697,1.42436,-1.89223
693,62.1204,1.42313,-1.89222
693.5,62.1707,1.42481,-1.89222
694,62.2203,1.42514,-1.8922
694.5,62.2728,1.42803,-1.89419
695,62.3238,1.42814,-1.89421
695.5,62.3738,1.43008,-1.89289
696,62.4245,1.42763,-1.89421
696.5,62.4743,1.43519,-1.89509
697,62.5261,1.43239,-1.89551
697.5,62.5769,1.43536,-1.89693
698,62.6279,1.43407,-1.89947
698.5,62.6766,1.43094,-1.89946
699,62.7282,1.43686,-1.90079
699.5,62.7809,1.43088,-1.90211
700,62.8311,1.43242,-1.9021
700.5,62.881,1.42853,-1.90353
701,62.9319,1.43155,-1.90353
701.5,62.9826,1.43377,-1.90484
702,63.0335,1.43041,-1.90618
702.5,63.0852,1.42997,-1.90613
703,63.1334,1.44114,-1.9067
703.5,63.1866,1.43923,-1.90776
704,63.2371,1.44069,-1.90883
704.5,63.2858,1.44135,-1.91012
705,63.3391,1.44011,-1.91013
705.5,63.3895,1.44753,-1.91132
706,63.4409,1.44962,-1.91144
706.5,63.4915,1.44164,-1.91276
707,63.5422,1.44507,-1.91408
707.5,63.5937,1.44534,-1.91464
708,63.6446,1.4411,-1.9154
708.5,63.6956,1.44301,-1.91561
709,63.746,1.43366,-1.91571
709.5,63.7978,1.45017,-1.91705
710,63.8476,1.44021,-1.91738
710.5,63.8986,1.43307,-1.91862
711,63.9486,1.43247,-1.91994
711.5,64.0003,1.43377,-1.92111
712,64.0512,1.44545,-1.92211
712.5,64.1022,1.43624,-1.92076
713,64.1528,1.43345,-1.92209
713.5,64.2041,1.43214,-1.92203
714,64.2543,1.43498,-1.92459
714.5,64.3064,1.43142,-1.92468
715,64.3572,1.42963,-1.92604
715.5,64.4072,1.43671,-1.92659
716,64.4578,1.43733,-1.92736
716.5,64.5086,1.43892,-1.92846
717,64.558,1.43509,-1.92868
717.5,64.6101,1.42686,-1.93001
718,64.6605,1.42289,-1.93132
718.5,64.7116,1.42014,-1.93136
719,64.7619,1.42122,-1.93131
719.5,64.8129,1.41831,-1.93241
720,64.8639,1.4118,-1.93395
720.5,64.9156,1.40827,-1.93526
721,64.9643,1.41613,-1.93563
721.5,65.0155,1.41348,-1.93652
722,65.067,1.41903,-1.93799
722.5,65.1155,1.41808,-1.93922
723,65.1686,1.39676,-1.93921
723.5,65.22,1.40565,-1.94061
724,65.2702,1.39985,-1.94196
724.5,65.3214,1.40054,-1.94146
725,65.3725,1.39885,-1.94195
725.5,65.4222,1.39508,-1.94325
726,65.4736,1.3876,-1.9449
726.5,65.5239,1.3877,-1.94492
727,65.5758,1.37609,-1.94496
727.5,65.6262,1.38194,-1.94633
728,65.6779,1.3734,-1.94734
728.5,65.7281,1.37268,-1.94733
729,65.7791,1.36702,-1.94833
729.5,65.8294,1.37224,-1.9486
730,65.8812,1.3643,-1.94997
730.5,65.9306,1.3626,-1.95126
731,65.9818,1.36498,-1.95128
731.5,66.0321,1.35343,-1.95261
732,66.084,1.35201,-1.95403
732.5,66.1343,1.34506,-1.95393
733,66.1853,1.34644,-1.95524
733.5,66.2359,1.33909,-1.95527
734,66.2867,1.32979,-1.95526
734.5,66.3379,1.33805,-1.95655
735,66.3884,1.33807,-1.95789
735.5,66.4402,1.34153,-1.95656
736,66.4902,1.3347,-1.95657
736.5,66.5411,1.33132,-1.95786
737,66.5922,1.31931,-1.95936
737.5,66.6431,1.31716,-1.96113
738,66.6941,1.31402,-1.96258
738.5,66.7446,1.30881,-1.96555
739,66.7954,1.30531,-1.96941
739.5,66.8462,1.30621,-1.96973
740,66.8974,1.29833,-1.9708
740.5,66.9476,1.29052,-1.97072
741,66.9991,1.28741,-1.97072
741.5,67.0492,1.28854,-1.97206
742,67.0999,1.28932,-1.97204
742.5,67.152,1.28432,-1.97204
743,67.2031,1.28413,-1.97197
743.5,67.2534,1.28318,-1.97106
744,67.3042,1.27636,-1.9701
744.5,67.3548,1.27989,-1.96875
745,67.4058,1.26902,-1.96875
745.5,67.4563,1.26569,-1.96875
746,67.5083,1.26208,-1.96875
746.5,67.5589,1.26209,-1.97034
747,67.6098,1.25588,-1.97329
747.5,67.6603,1.24934,-1.97635
748,67.7116,1.25126,-1.97997
748.5,67.762,1.25289,-1.98083
749,67.8134,1.25402,-1.97944
749.5,67.8644,1.24926,-1.97977
750,67.9153,1.24589,-1.98191
750.5,67.9661,1.24038,-1.98326
751,68.017,1.2443,-1.98236
751.5,68.0678,1.23272,-1.98222
752,68.1197,1.23515,-1.98368
752.5,68.17,1.23682,-1.98368
753,68.2191,1.23285,-1.98368
753.5,68.2723,1.22368,-1.98346
754,68.3236,1.21783,-1.98368
754.5,68.3743,1.21756,-1.98497
755,68.425,1.21202,-1.98617
755.5,68.4759,1.21531,-1.98763
756,68.5272,1.21299,-1.98899
756.5,68.5789,1.20687,-1.99034
757,68.6293,1.20102,-1.9913
757.5,68.68,1.20074,-1.99031
758,68.7304,1.19741,-1.99165
758.5,68.7818,1.19181,-1.99301
759,68.8308,1.19548,-1.99242
759.5,68.883,1.19228,-1.99169
760,68.9351,1.18499,-1.99266
760.5,68.9843,1.1739,-1.99584
761,69.0366,1.1788,-1.99704
761.5,69.0868,1.177,-1.99703
762,69.1391,1.16957,-1.99836
762.5,69.1897,1.17068,-1.99793
763,69.2413,1.16641,-1.99907
763.5,69.293,1.16512,-2.00102
764,69.3436,1.15839,-2.00156
764.5,69.3951,1.15522,-2.00221
765,69.446,1.14869,-2.00296
765.5,69.4956,1.14824,-2.00443
766,69.5453,1.15444,-2.00292
766.5,69.5982,1.14573,-2.00288
767,69.6482,1.15032,-2.00289
767.5,69.7001,1.14517,-2.0041
768,69.751,1.14196,-2.00552
768.5,69.8009,1.14602,-2.00424
769,69.8532,1.1444,-2.00421
769.5,69.9044,1.14243,-2.00419
770,69.9555,1.14401,-2.00485
770.5,70.0062,1.1419,-2.00619
771,70.057,1.14006,-2.00675
771.5,70.1081,1.13572,-2.0075
772,70.1594,1.13665,-2.0088
772.5,70.2101,1.12796,-2.00878
773,70.2614,1.12985,-2.01013
773.5,70.3117,1.12765,-2.01145
774,70.3621,1.12809,-2.01175
774.5,70.4115,1.12664,-2.01179
775,70.4639,1.11983,-2.01174
775.5,70.5154,1.12194,-2.0131
776,70.5666,1.12106,-2.01306
776.5,70.6168,1.11999,-2.01409
777,70.6675,1.12376,-2.01544
777.5,70.7182,1.12229,-2.01795
778,70.7678,1.11281,-2.01991
778.5,70.8209,1.1108,-2.01902
779,70.8713,1.11474,-2.01836
779.5,70.9221,1.1147,-2.01837
780,70.9737,1.12109,-2.01962
780.5,71.0241,1.11433,-2.01837
781,71.0759,1.10531,-2.01842
781.5,71.1266,1.10799,-2.01968
782,71.1777,1.10272,-2.0209
782.5,71.2287,1.10261,-2.021
783,71.2796,1.1018,-2.02236
783.5,71.331,1.09778,-2.02232
784,71.38,1.09606,-2.02232
784.5,71.4326,1.10231,-2.02234
785,71.4841,1.08734,-2.021
785.5,71.5356,1.08423,-2.021
786,71.5862,1.08909,-2.0236
786.5,71.6367,1.08654,-2.02364
787,71.6888,1.09272,-2.02367
787.5,71.7398,1.09248,-2.02496
788,71.79,1.08993,-2.02568
788.5,71.8425,1.09265,-2.02495
789,71.8934,1.08863,-2.02502
789.5,71.944,1.0921,-2.02571
790,71.9945,1.09252,-2.02528