File: 01_Data/Protective_Hood/STA/N2/30K_min/Protective_Hood_STA_N2_30KData_240318_R1.csv
Temp./C,Time/min,DSC/(mW/mg),Mass loss/mg
60.0,0.0,1.40241,-0.0225303
60.5,0.0249209,1.44095,-0.0215277
61,0.0505405,1.48772,-0.0211737
61.5,0.0749466,1.53393,-0.0212991
62,0.0996962,1.57197,-0.0206106
62.5,0.123591,1.61241,-0.0205812
63,0.147014,1.65873,-0.0205342
63.5,0.169657,1.6934,-0.0209189
64,0.193141,1.72396,-0.0204779
64.5,0.215381,1.76883,-0.0211016
65,0.237639,1.8149,-0.0218098
65.5,0.2584,1.84573,-0.0223689
66,0.280477,1.88093,-0.0219728
66.5,0.302202,1.91207,-0.0221208
67,0.323398,1.93947,-0.0226205
67.5,0.344483,1.96807,-0.0227265
68,0.365001,1.99757,-0.0230556
68.5,0.385462,2.02605,-0.0227485
69,0.4062,2.06218,-0.0225958
69.5,0.426012,2.09052,-0.0226978
70,0.446653,2.10993,-0.0241075
70.5,0.466375,2.1413,-0.025328
71,0.485809,2.17394,-0.0255124
71.5,0.505375,2.20178,-0.0249028
72,0.525259,2.23436,-0.0243928
72.5,0.544433,2.25738,-0.024142
73,0.563477,2.28496,-0.022857
73.5,0.58327,2.30788,-0.0235992
74,0.602013,2.33085,-0.0227308
74.5,0.619747,2.3552,-0.022021
75,0.639124,2.37626,-0.0215808
75.5,0.658466,2.40294,-0.0214474
76,0.677941,2.42731,-0.0212611
76.5,0.696501,2.44916,-0.0213921
77,0.715124,2.46639,-0.0227774
77.5,0.733661,2.48968,-0.0239724
78,0.751228,2.51032,-0.0238436
78.5,0.769354,2.5349,-0.0247709
79,0.787831,2.55143,-0.0256588
79.5,0.806259,2.57067,-0.0254544
80,0.824472,2.58808,-0.026351
80.5,0.84309,2.6054,-0.0266858
81,0.861114,2.62605,-0.0273431
81.5,0.879225,2.65216,-0.0275465
82,0.897068,2.6655,-0.0277266
82.5,0.915141,2.68782,-0.0290903
83,0.932496,2.69936,-0.0279037
83.5,0.950419,2.71315,-0.0276889
84,0.968817,2.73586,-0.0275675
84.5,0.986393,2.76156,-0.0264436
85,1.00397,2.77658,-0.0264996
85.5,1.02115,2.79359,-0.0258326
86,1.03906,2.80936,-0.0240877
86.5,1.05663,2.82869,-0.0248469
87,1.07384,2.8406,-0.0243244
87.5,1.09097,2.85391,-0.0257419
88,1.10886,2.87639,-0.0244476
88.5,1.12629,2.8924,-0.024603
89,1.14348,2.89895,-0.024612
89.5,1.16073,2.91961,-0.025896
90,1.17801,2.93809,-0.0259083
90.5,1.1952,2.94674,-0.0259099
91,1.21248,2.96223,-0.02591
91.5,1.2294,2.98193,-0.02591
92,1.24672,2.99489,-0.0259098
92.5,1.26304,3.01209,-0.0259097
93,1.28067,3.0153,-0.0260562
93.5,1.29801,3.02937,-0.0275562
94,1.31489,3.03473,-0.0274274
94.5,1.33195,3.04558,-0.0282764
95,1.34868,3.05871,-0.0279528
95.5,1.3653,3.06562,-0.0280471
96,1.38287,3.08074,-0.0291444
96.5,1.39925,3.09617,-0.029096
97,1.41631,3.10343,-0.0290904
97.5,1.43305,3.11159,-0.0290899
98,1.44978,3.12039,-0.0290892
98.5,1.46731,3.13246,-0.0290852
99,1.48371,3.12896,-0.0291244
99.5,1.50035,3.14465,-0.0280497
100,1.51677,3.16057,-0.0277907
100.5,1.53374,3.15421,-0.0277761
101,1.55049,3.16426,-0.0276857
101.5,1.56642,3.1585,-0.0289266
102,1.58408,3.16361,-0.0290719
102.5,1.60031,3.17248,-0.0296705
103,1.61704,3.18302,-0.0291263
103.5,1.6338,3.18407,-0.0302132
104,1.65065,3.17518,-0.030755
104.5,1.66669,3.17776,-0.0307558
105,1.68369,3.17732,-0.0320062
105.5,1.70049,3.18808,-0.0320376
106,1.71684,3.19529,-0.0320637
106.5,1.73372,3.17865,-0.0320345
107,1.75011,3.17768,-0.0331332
107.5,1.76644,3.17391,-0.0333647
108,1.78307,3.18348,-0.0333091
108.5,1.79994,3.18053,-0.0340221
109,1.81633,3.17533,-0.0333552
109.5,1.83287,3.17014,-0.0333723
110,1.84901,3.16651,-0.0333704
110.5,1.86625,3.1641,-0.0333699
111,1.88234,3.17352,-0.0333717
111.5,1.89888,3.16307,-0.0333883
112,1.91524,3.16073,-0.0333645
112.5,1.93198,3.15238,-0.0346535
113,1.94854,3.15139,-0.0346849
113.5,1.96507,3.14936,-0.0346935
114,1.98151,3.15049,-0.0350743
114.5,1.99796,3.13559,-0.036065
115,2.01438,3.13472,-0.0360098
115.5,2.0305,3.12433,-0.0360331
116,2.04741,3.1303,-0.0362748
116.5,2.06347,3.11642,-0.0373266
117,2.07999,3.11194,-0.0373285
117.5,2.09639,3.11456,-0.0373298
118,2.11293,3.10466,-0.0373307
118.5,2.12952,3.09382,-0.03734
119,2.14598,3.0973,-0.0369455
119.5,2.16186,3.09379,-0.035956
120,2.17851,3.09424,-0.0360344
120.5,2.19483,3.08078,-0.0353934
121,2.21146,3.07651,-0.0346572
121.5,2.2275,3.07357,-0.034674
122,2.24377,3.06986,-0.0334798
122.5,2.26036,3.06031,-0.0340363
123,2.27633,3.05728,-0.0346998
123.5,2.2932,3.05686,-0.0346893
124,2.30927,3.05479,-0.0346898
124.5,2.32572,3.04073,-0.03469
125,2.34182,3.04172,-0.03469
125.5,2.35828,3.03589,-0.03469
126,2.3744,3.03121,-0.03469
126.5,2.39073,3.02036,-0.03469
127,2.40685,3.03003,-0.03469
127.5,2.42349,3.01676,-0.03469
128,2.43946,3.00981,-0.03469
128.5,2.45618,3.01969,-0.03469
129,2.47174,3.01545,-0.03469
129.5,2.48816,3.01672,-0.0346911
130,2.50414,3.0067,-0.0346943
130.5,2.52012,3.00035,-0.0346343
131,2.53637,2.99237,-0.035684
131.5,2.55238,2.99806,-0.036009
132,2.56865,2.99348,-0.0360127
132.5,2.58465,2.98544,-0.0360102
133,2.60093,2.9882,-0.0360096
133.5,2.61714,2.98284,-0.0360084
134,2.63328,2.97585,-0.036024
134.5,2.64933,2.979,-0.0353911
135,2.66537,2.97822,-0.0350203
135.5,2.68149,2.98766,-0.0350167
136,2.69762,2.98276,-0.0350198
136.5,2.71319,2.97818,-0.03502
137,2.72934,2.97737,-0.03502
137.5,2.74575,2.98217,-0.03502
138,2.7614,2.98739,-0.0350202
138.5,2.77747,2.97838,-0.0350212
139,2.79387,2.9834,-0.0350139
139.5,2.80987,2.98005,-0.0358266
140,2.82543,2.98428,-0.0363387
140.5,2.84136,2.98258,-0.0363451
141,2.85739,2.98655,-0.0363413
141.5,2.87318,2.98264,-0.0363332
142,2.88933,2.97696,-0.0370743
142.5,2.90507,2.9887,-0.0376539
143,2.92139,2.99213,-0.0376537
143.5,2.93709,2.99052,-0.037641
144,2.95298,3.00081,-0.0377436
144.5,2.969,2.99783,-0.0362889
145,2.98482,3.00121,-0.0361208
145.5,3.00085,2.99391,-0.0352034
146,3.01681,2.9963,-0.034817
146.5,3.03242,3.01031,-0.0347959
147,3.04834,3.02062,-0.0347995
147.5,3.06448,3.02521,-0.0348
148,3.08039,3.02797,-0.0348001
148.5,3.09598,3.01935,-0.0348013
149,3.11212,3.01915,-0.0348045
149.5,3.1278,3.03598,-0.0358626
150,3.1433,3.0422,-0.0360959
150.5,3.15922,3.03592,-0.0361214
151,3.17515,3.03344,-0.0361159
151.5,3.19109,3.04443,-0.0364113
152,3.20666,3.05177,-0.0375117
152.5,3.22281,3.06188,-0.037444
153,3.2382,3.06264,-0.0374492
153.5,3.25407,3.05534,-0.037605
154,3.26994,3.06521,-0.0387412
154.5,3.28571,3.05968,-0.0387357
155,3.3013,3.06732,-0.0387495
155.5,3.31722,3.07011,-0.0387502
156,3.33289,3.08129,-0.03875
156.5,3.34882,3.09235,-0.03875
157,3.36428,3.09235,-0.0387501
157.5,3.38047,3.08723,-0.0387499
158,3.39582,3.09483,-0.0387429
158.5,3.4116,3.10788,-0.0387289
159,3.42752,3.10797,-0.0394504
159.5,3.44325,3.11294,-0.0400745
160,3.45866,3.1142,-0.0400695
160.5,3.47432,3.11774,-0.0400699
161,3.48974,3.11786,-0.04007
161.5,3.50553,3.1297,-0.0400701
162,3.52158,3.13361,-0.0400702
162.5,3.53705,3.13473,-0.0400659
163,3.5532,3.13718,-0.0400396
163.5,3.56862,3.15254,-0.0405297
164,3.5842,3.15751,-0.0414401
164.5,3.5998,3.16305,-0.0413771
165,3.61559,3.16418,-0.0424459
165.5,3.63126,3.16284,-0.0426963
166,3.64687,3.17594,-0.0426894
166.5,3.66273,3.17648,-0.0426214
167,3.67818,3.1808,-0.0414023
167.5,3.69381,3.1741,-0.0412769
168,3.70938,3.18407,-0.0399376
168.5,3.72524,3.20426,-0.0398805
169,3.74044,3.19272,-0.0398505
169.5,3.75619,3.2134,-0.0397746
170,3.77192,3.21882,-0.0384641
170.5,3.78725,3.21195,-0.0385481
171,3.8029,3.21044,-0.0385314
171.5,3.81872,3.21465,-0.0385298
172,3.83438,3.23228,-0.0385299
172.5,3.85019,3.235,-0.0385272
173,3.86534,3.23541,-0.03886
173.5,3.88127,3.24012,-0.0399337
174,3.89675,3.23951,-0.0398547
174.5,3.91216,3.25184,-0.0398487
175,3.92805,3.25604,-0.0398496
175.5,3.94308,3.25849,-0.0398514
176,3.9589,3.25633,-0.0398809
176.5,3.97489,3.27295,-0.0411414
177,3.99006,3.26456,-0.0411428
177.5,4.00571,3.26437,-0.0411696
178,4.02126,3.28531,-0.0411704
178.5,4.03673,3.29563,-0.04117
179,4.05196,3.29364,-0.04117
179.5,4.06797,3.29206,-0.0411699
180,4.08304,3.29642,-0.0411707
180.5,4.09856,3.30405,-0.0411775
181,4.11436,3.31317,-0.0409125
181.5,4.12899,3.31597,-0.0397595
182,4.14412,3.31672,-0.0397703
182.5,4.15967,3.32955,-0.039214
183,4.17506,3.33762,-0.0391969
183.5,4.19114,3.34061,-0.03919
184,4.20685,3.34212,-0.0391899
184.5,4.22245,3.34244,-0.03919
185,4.2377,3.35185,-0.03919
185.5,4.25282,3.35147,-0.03919
186,4.26825,3.35339,-0.0391901
186.5,4.28402,3.35803,-0.0391904
187,4.29927,3.36802,-0.039187
187.5,4.31465,3.37447,-0.0391652
188,4.33022,3.37555,-0.0396745
188.5,4.34546,3.37888,-0.0405624
189,4.35992,3.39214,-0.0405051
189.5,4.37619,3.38865,-0.0404335
190,4.39148,3.39678,-0.0413718
190.5,4.407,3.40458,-0.042947
191,4.42225,3.40805,-0.0431544
191.5,4.43732,3.41056,-0.0431503
192,4.45291,3.42176,-0.0431497
192.5,4.46815,3.42397,-0.0431474
193,4.48348,3.4259,-0.0431629
193.5,4.49902,3.431,-0.0425592
194,4.51411,3.44261,-0.0421455
194.5,4.52952,3.44167,-0.0421556
195,4.54483,3.44669,-0.0421601
195.5,4.55985,3.46088,-0.0421601
196,4.57537,3.46826,-0.04216
196.5,4.59059,3.47796,-0.0421601
197,4.60629,3.4864,-0.0421602
197.5,4.62161,3.49472,-0.0421535
198,4.63701,3.48302,-0.0421345
198.5,4.6522,3.48747,-0.0428232
199,4.6672,3.49611,-0.0431903
199.5,4.68285,3.50229,-0.0428018
200,4.69772,3.51299,-0.0430456
200.5,4.71332,3.51073,-0.0435112
201,4.72837,3.51493,-0.0434486
201.5,4.74372,3.52806,-0.0433988
202,4.75867,3.52865,-0.0420622
202.5,4.77412,3.54265,-0.04293
203,4.78934,3.54492,-0.0429987
203.5,4.80458,3.55197,-0.0420124
204,4.82003,3.55389,-0.0420553
204.5,4.83499,3.56063,-0.0420534
205,4.85069,3.57446,-0.0423319
205.5,4.8658,3.575,-0.0433827
206,4.8816,3.58203,-0.043362
206.5,4.89661,3.59623,-0.0433777
207,4.91175,3.5973,-0.0443782
207.5,4.92697,3.60564,-0.0446605
208,4.94196,3.61052,-0.0447103
208.5,4.95764,3.6184,-0.0448505
209,4.97277,3.62003,-0.045981
209.5,4.98795,3.63152,-0.0460053
210,5.00348,3.64358,-0.0459389
210.5,5.01831,3.65488,-0.0475555
211,5.03381,3.65593,-0.0487364
211.5,5.04872,3.66822,-0.0486423
212,5.06399,3.68403,-0.0499704
212.5,5.0793,3.69445,-0.0514784
213,5.09446,3.70805,-0.0513769
213.5,5.10969,3.71692,-0.0514171
214,5.12528,3.72988,-0.0526746
214.5,5.14019,3.74384,-0.053223
215,5.15537,3.76246,-0.0540153
215.5,5.17084,3.77084,-0.055099
216,5.18582,3.78614,-0.0553284
216.5,5.20117,3.80919,-0.0552403
217,5.21643,3.82708,-0.0564153
217.5,5.23213,3.85415,-0.0567315
218,5.24698,3.88875,-0.0575807
218.5,5.26225,3.91823,-0.0581714
219,5.27771,3.95455,-0.0592043
219.5,5.29273,3.98916,-0.0598665
220,5.30831,4.05205,-0.0599441
220.5,5.32338,4.11153,-0.0604339
221,5.33928,4.2018,-0.0604054
221.5,5.35453,4.29339,-0.0615077
222,5.37055,4.4148,-0.0620041
222.5,5.38614,4.5578,-0.0627708
223,5.40175,4.70808,-0.0636805
223.5,5.41708,4.85646,-0.0649064
224,5.43297,5.00356,-0.066387
224.5,5.44889,5.18661,-0.0667769
225,5.4652,5.44803,-0.0681783
225.5,5.48127,5.75232,-0.0692781
226,5.49744,6.10607,-0.0697669
226.5,5.51339,6.23049,-0.0711377
227,5.52768,6.08322,-0.0718488
227.5,5.54242,5.89629,-0.0727669
228,5.55686,5.74462,-0.0742742
228.5,5.57151,5.60063,-0.0761779
229,5.58644,5.46606,-0.0775857
229.5,5.6012,5.34863,-0.0789408
230,5.61596,5.22997,-0.0801935
230.5,5.6303,5.12242,-0.081878
231,5.64568,5.005,-0.0823062
231.5,5.66052,4.90207,-0.0836763
232,5.67522,4.8014,-0.084521
232.5,5.68987,4.71563,-0.0858901
233,5.7048,4.62184,-0.0857012
233.5,5.71959,4.54831,-0.0871877
234,5.73457,4.46628,-0.0887433
234.5,5.74945,4.38297,-0.0898794
235,5.76437,4.32016,-0.0912005
235.5,5.77914,4.25582,-0.0936992
236,5.79425,4.1981,-0.0957472
236.5,5.80924,4.13861,-0.0969472
237,5.82409,4.09874,-0.0982475
237.5,5.83905,4.05462,-0.0987589
238,5.85397,4.01397,-0.0996412
238.5,5.8688,3.96621,-0.101323
239,5.88386,3.93467,-0.1026
239.5,5.89888,3.89565,-0.102617
240,5.91368,3.86027,-0.103339
240.5,5.92891,3.84528,-0.103909
241,5.94363,3.82365,-0.105622
241.5,5.95862,3.80007,-0.106837
242,5.97332,3.7845,-0.108321
242.5,5.98836,3.7666,-0.110813
243,6.00327,3.74731,-0.112151
243.5,6.01834,3.72825,-0.115462
244,6.03386,3.71035,-0.118747
244.5,6.04939,3.69648,-0.120557
245,6.06405,3.67877,-0.123026
245.5,6.07903,3.66863,-0.125191
246,6.09384,3.65897,-0.127337
246.5,6.10917,3.64105,-0.129492
247,6.12419,3.63092,-0.131219
247.5,6.13916,3.62274,-0.134062
248,6.15449,3.61569,-0.136082
248.5,6.16931,3.59901,-0.138143
249,6.18446,3.58881,-0.140906
249.5,6.19938,3.58167,-0.142744
250,6.2145,3.57059,-0.145869
250.5,6.22933,3.55869,-0.148664
251,6.24349,3.5544,-0.151306
251.5,6.25937,3.54672,-0.152875
252,6.27433,3.53367,-0.154719
252.5,6.28995,3.52031,-0.157615
253,6.30479,3.52301,-0.159307
253.5,6.31991,3.51075,-0.161449
254,6.33491,3.49536,-0.16459
254.5,6.35009,3.4968,-0.166496
255,6.36537,3.48377,-0.169946
255.5,6.37955,3.4776,-0.172579
256,6.39537,3.46837,-0.175213
256.5,6.40941,3.46047,-0.178362
257,6.4251,3.45205,-0.18136
257.5,6.43942,3.44992,-0.186626
258,6.45487,3.44822,-0.189581
258.5,6.47036,3.44699,-0.192489
259,6.48537,3.44821,-0.195856
259.5,6.50057,3.43923,-0.197961
260,6.51548,3.44063,-0.201365
260.5,6.53057,3.44577,-0.204932
261,6.54599,3.44807,-0.208039
261.5,6.5611,3.45544,-0.212046
262,6.57602,3.46344,-0.214926
262.5,6.5912,3.47779,-0.219054
263,6.60614,3.50861,-0.223961
263.5,6.62124,3.53415,-0.227662
264,6.63644,3.57318,-0.231428
264.5,6.65201,3.61303,-0.235749
265,6.66709,3.66449,-0.238853
265.5,6.68232,3.7262,-0.242948
266,6.6974,3.80353,-0.24753
266.5,6.71276,3.89347,-0.250958
267,6.72791,3.99633,-0.255519
267.5,6.74394,4.11981,-0.260473
268,6.75948,4.25687,-0.265136
268.5,6.77528,4.42928,-0.269893
269,6.7908,4.60063,-0.274504
269.5,6.80678,4.79926,-0.280193
270,6.82231,5.0114,-0.285722
270.5,6.83843,5.24574,-0.290245
271,6.85442,5.4933,-0.296581
271.5,6.87009,5.7555,-0.301975
272,6.88634,6.02841,-0.309108
272.5,6.90222,6.30711,-0.316349
273,6.91844,6.59396,-0.323097
273.5,6.93426,6.89207,-0.332081
274,6.95053,7.19128,-0.339584
274.5,6.96673,7.47993,-0.349221
275,6.98259,7.75962,-0.359252
275.5,6.99893,8.04379,-0.36901
276,7.01515,8.3206,-0.380761
276.5,7.03033,8.56528,-0.388807
277,7.04717,8.83168,-0.400482
277.5,7.06294,9.05731,-0.412004
278,7.07867,9.28346,-0.423783
278.5,7.09506,9.50265,-0.438244
279,7.11064,9.69518,-0.449193
279.5,7.1266,9.88384,-0.463049
280,7.14245,10.0623,-0.477429
280.5,7.15818,10.2382,-0.489836
281,7.17385,10.3994,-0.505476
281.5,7.18973,10.5509,-0.517827
282,7.20552,10.7016,-0.532978
282.5,7.22107,10.8398,-0.548847
283,7.23668,10.9633,-0.562386
283.5,7.25231,11.092,-0.579393
284,7.26805,11.2091,-0.594428
284.5,7.28362,11.3237,-0.610133
285,7.29893,11.4325,-0.627703
285.5,7.31454,11.5333,-0.641947
286,7.32934,11.6157,-0.659439
286.5,7.34512,11.6979,-0.675632
287,7.36065,11.7718,-0.691583
287.5,7.37617,11.8428,-0.710858
288,7.39155,11.8921,-0.725202
288.5,7.40738,11.9327,-0.743666
289,7.42255,11.9607,-0.761146
289.5,7.43764,11.9854,-0.776993
290,7.45285,11.9962,-0.796783
290.5,7.46811,11.9812,-0.811775
291,7.4829,11.944,-0.829015
291.5,7.4984,11.89,-0.849255
292,7.51318,11.8177,-0.862987
292.5,7.52806,11.7204,-0.881643
293,7.54279,11.5914,-0.89945
293.5,7.55729,11.4355,-0.915866
294,7.57197,11.246,-0.93689
294.5,7.58622,11.0307,-0.952125
295,7.60059,10.7871,-0.968105
295.5,7.61483,10.5152,-0.987019
296,7.62884,10.1941,-1.00013
296.5,7.64293,9.86182,-1.01518
297,7.65683,9.4991,-1.03227
297.5,7.6706,9.12811,-1.04421
298,7.68462,8.71667,-1.05839
298.5,7.69805,8.3127,-1.07258
299,7.71189,7.89217,-1.08313
299.5,7.72553,7.47925,-1.09524
300,7.7394,7.0637,-1.10795
300.5,7.753,6.67059,-1.11531
301,7.76683,6.27917,-1.12534
301.5,7.78063,5.91013,-1.13438
302,7.79472,5.55408,-1.14119
302.5,7.80853,5.22606,-1.14915
303,7.82254,4.91788,-1.156
303.5,7.83689,4.63232,-1.16184
304,7.85107,4.37244,-1.16828
304.5,7.86493,4.12915,-1.1726
305,7.87882,3.91165,-1.17525
305.5,7.89295,3.73464,-1.1799
306,7.90765,3.53837,-1.18165
306.5,7.9222,3.36221,-1.18557
307,7.93724,3.23122,-1.18938
307.5,7.95158,3.08414,-1.19185
308,7.9661,2.95855,-1.19584
308.5,7.98078,2.84877,-1.1986
309,7.9954,2.74037,-1.20241
309.5,8.01007,2.6506,-1.20645
310,8.02498,2.56748,-1.20925
310.5,8.03948,2.49268,-1.21328
311,8.05436,2.42064,-1.21544
311.5,8.06902,2.36721,-1.21797
312,8.08358,2.31496,-1.21936
312.5,8.09872,2.26336,-1.22101
313,8.11328,2.21719,-1.22146
313.5,8.12849,2.1782,-1.22312
314,8.14343,2.12918,-1.22462
314.5,8.15839,2.09558,-1.22542
315,8.1726,2.06933,-1.22727
315.5,8.18775,2.03686,-1.22833
316,8.20294,2.00669,-1.2303
316.5,8.21801,1.97406,-1.23209
317,8.23287,1.94558,-1.23346
317.5,8.24804,1.92904,-1.23647
318,8.26287,1.90787,-1.23792
318.5,8.27797,1.89125,-1.23931
319,8.29292,1.8692,-1.24073
319.5,8.30782,1.85381,-1.24122
320,8.32322,1.84043,-1.24281
320.5,8.33805,1.82658,-1.24447
321,8.35299,1.80655,-1.24625
321.5,8.36834,1.78968,-1.24781
322,8.38317,1.77129,-1.24958
322.5,8.39839,1.75998,-1.25191
323,8.4133,1.74637,-1.25407
323.5,8.42836,1.73326,-1.2553
324,8.44341,1.72448,-1.25672
324.5,8.45871,1.71799,-1.2587
325,8.47361,1.70724,-1.26053
325.5,8.48878,1.69566,-1.2628
326,8.50374,1.67537,-1.26403
326.5,8.51897,1.66186,-1.26571
327,8.53409,1.65935,-1.2676
327.5,8.54909,1.65309,-1.26887
328,8.56427,1.63554,-1.2701
328.5,8.57943,1.63027,-1.27176
329,8.59435,1.62269,-1.27369
329.5,8.60973,1.61029,-1.2751
330,8.62444,1.5988,-1.27649
330.5,8.63985,1.59328,-1.27709
331,8.65521,1.58634,-1.27864
331.5,8.67021,1.57393,-1.27959
332,8.68531,1.57357,-1.28116
332.5,8.70026,1.56712,-1.28222
333,8.71549,1.5617,-1.28327
333.5,8.73091,1.56636,-1.28511
334,8.74603,1.55186,-1.28742
334.5,8.76108,1.54645,-1.28866
335,8.77624,1.54707,-1.29166
335.5,8.7914,1.54002,-1.2936
336,8.80629,1.53424,-1.29511
336.5,8.82174,1.5268,-1.29672
337,8.8366,1.51823,-1.29843
337.5,8.8516,1.50799,-1.29983
338,8.86682,1.50719,-1.30216
338.5,8.88195,1.49708,-1.30347
339,8.89695,1.49659,-1.30378
339.5,8.9122,1.49065,-1.30467
340,8.92827,1.48841,-1.30484
340.5,8.94307,1.48183,-1.30583
341,8.95851,1.47317,-1.30684
341.5,8.9735,1.4699,-1.30718
342,8.98893,1.47254,-1.30832
342.5,9.00429,1.46383,-1.30953
343,9.01936,1.45392,-1.31097
343.5,9.03467,1.44858,-1.31194
344,9.04989,1.44695,-1.31307
344.5,9.06513,1.44159,-1.31496
345,9.08054,1.43269,-1.31627
345.5,9.09546,1.42147,-1.31806
346,9.111,1.42266,-1.32017
346.5,9.12565,1.41494,-1.32194
347,9.14057,1.40996,-1.3237
347.5,9.15561,1.40319,-1.32532
348,9.17155,1.39748,-1.32533
348.5,9.18668,1.40092,-1.32699
349,9.20173,1.39154,-1.32778
349.5,9.21716,1.38377,-1.32901
350,9.23257,1.3803,-1.33056
350.5,9.24784,1.3714,-1.33099
351,9.26293,1.36868,-1.3317
351.5,9.2782,1.3624,-1.33294
352,9.29377,1.35609,-1.33452
352.5,9.309,1.36258,-1.33571
353,9.32396,1.35519,-1.33744
353.5,9.33943,1.35027,-1.33873
354,9.35479,1.3462,-1.33951
354.5,9.37005,1.34563,-1.34136
355,9.38593,1.34115,-1.34325
355.5,9.40033,1.33451,-1.34427
356,9.41566,1.3328,-1.34497
356.5,9.43129,1.32884,-1.34655
357,9.44734,1.32539,-1.34771
357.5,9.46261,1.33009,-1.34871
358,9.47776,1.32854,-1.35068
358.5,9.49325,1.32644,-1.35215
359,9.50878,1.32628,-1.35328
359.5,9.52415,1.32194,-1.3553
360,9.53947,1.31513,-1.3572
360.5,9.5547,1.32062,-1.3585
361,9.57014,1.31669,-1.36067
361.5,9.58543,1.31362,-1.36188
362,9.60097,1.31121,-1.36269
362.5,9.61632,1.31083,-1.36405
363,9.63158,1.31553,-1.36457
363.5,9.64693,1.31994,-1.36621
364,9.66193,1.32108,-1.36653
364.5,9.67727,1.32079,-1.36784
365,9.69266,1.32182,-1.3679
365.5,9.70799,1.3201,-1.3694
366,9.72348,1.32444,-1.3698
366.5,9.73888,1.32422,-1.37109
367,9.75425,1.3266,-1.37138
367.5,9.76977,1.3259,-1.37257
368,9.78527,1.32699,-1.37393
368.5,9.80037,1.33678,-1.37501
369,9.81578,1.33603,-1.37671
369.5,9.83107,1.33243,-1.37698
370,9.84623,1.34398,-1.37847
370.5,9.86202,1.34396,-1.37981
371,9.87783,1.34674,-1.38036
371.5,9.89314,1.34956,-1.38273
372,9.90848,1.35373,-1.38417
372.5,9.92385,1.36384,-1.38507
373,9.93939,1.36645,-1.38704
373.5,9.9548,1.36537,-1.3871
374,9.97008,1.38063,-1.38783
374.5,9.98581,1.38016,-1.38932
375,10.0012,1.37814,-1.38995
375.5,10.0164,1.38642,-1.39107
376,10.0322,1.38606,-1.39236
376.5,10.0476,1.39175,-1.39279
377,10.0635,1.4011,-1.39429
377.5,10.0792,1.40118,-1.39471
378,10.0944,1.40566,-1.39586
378.5,10.1101,1.40946,-1.39703
379,10.1253,1.41857,-1.39782
379.5,10.1409,1.42096,-1.39835
380,10.1563,1.43551,-1.39984
380.5,10.172,1.43937,-1.40072
381,10.1872,1.44546,-1.40211
381.5,10.2027,1.44457,-1.40205
382,10.2185,1.45111,-1.40229
382.5,10.2338,1.4606,-1.40335
383,10.2494,1.46422,-1.40335
383.5,10.2651,1.46989,-1.4051
384,10.2806,1.47336,-1.40564
384.5,10.296,1.47724,-1.40683
385,10.3116,1.48378,-1.40852
385.5,10.327,1.49195,-1.40996
386,10.3425,1.49684,-1.41155
386.5,10.3581,1.50064,-1.41334
387,10.3735,1.50786,-1.4134
387.5,10.3891,1.52267,-1.41486
388,10.4045,1.52127,-1.41535
388.5,10.4202,1.52962,-1.41638
389,10.4359,1.53606,-1.41951
389.5,10.4514,1.53912,-1.42093
390,10.4669,1.54803,-1.42208
390.5,10.4825,1.54873,-1.42363
391,10.498,1.55426,-1.42559
391.5,10.5135,1.55043,-1.42622
392,10.5292,1.56009,-1.42638
392.5,10.5447,1.57212,-1.42749
393,10.5596,1.57244,-1.42752
393.5,10.5764,1.584,-1.4276
394,10.5914,1.59026,-1.42933
394.5,10.6074,1.59753,-1.43051
395,10.6226,1.60912,-1.43189
395.5,10.6384,1.6175,-1.43217
396,10.654,1.61587,-1.43241
396.5,10.6696,1.61589,-1.43292
397,10.6852,1.62005,-1.43311
397.5,10.7007,1.62987,-1.43359
398,10.7161,1.642,-1.43402
398.5,10.7318,1.64961,-1.43545
399,10.7477,1.64983,-1.43471
399.5,10.7632,1.65366,-1.43593
400,10.779,1.66034,-1.43589
400.5,10.7942,1.66884,-1.43685
401,10.8101,1.68055,-1.43744
401.5,10.8256,1.69102,-1.43741
402,10.8413,1.70097,-1.43887
402.5,10.857,1.69963,-1.43897
403,10.8726,1.70831,-1.43994
403.5,10.8881,1.71449,-1.43938
404,10.9037,1.7242,-1.44067
404.5,10.9193,1.7284,-1.44154
405,10.9349,1.72886,-1.44234
405.5,10.9507,1.73877,-1.44337
406,10.9667,1.7512,-1.44389
406.5,10.9819,1.75507,-1.44519
407,10.9974,1.7544,-1.44547
407.5,11.0133,1.76584,-1.44699
408,11.0289,1.77341,-1.44823
408.5,11.0446,1.77729,-1.44884
409,11.0603,1.78095,-1.44962
409.5,11.0761,1.78807,-1.44957
410,11.0916,1.79391,-1.45123
410.5,11.1071,1.79966,-1.45217
411,11.1229,1.80948,-1.45304
411.5,11.138,1.81164,-1.45376
412,11.1537,1.81988,-1.45514
412.5,11.1693,1.82418,-1.45546
413,11.1848,1.82297,-1.45691
413.5,11.2016,1.83821,-1.45724
414,11.2172,1.84476,-1.45852
414.5,11.2329,1.84958,-1.45862
415,11.2485,1.85996,-1.46015
415.5,11.2642,1.86825,-1.46122
416,11.2798,1.87295,-1.46276
416.5,11.2956,1.87881,-1.46283
417,11.3111,1.88487,-1.4652
417.5,11.327,1.8966,-1.46625
418,11.3429,1.90881,-1.46727
418.5,11.3585,1.91614,-1.46825
419,11.3742,1.91822,-1.46878
419.5,11.3898,1.92512,-1.46986
420,11.4055,1.92664,-1.47022
420.5,11.4213,1.9391,-1.47054
421,11.4373,1.9495,-1.47167
421.5,11.4531,1.96026,-1.47217
422,11.4685,1.95852,-1.47333
422.5,11.4842,1.96933,-1.47384
423,11.5,1.98291,-1.47478
423.5,11.5159,1.98879,-1.47473
424,11.5316,1.99747,-1.47508
424.5,11.5473,1.99978,-1.47467
425,11.5631,2.01196,-1.47461
425.5,11.5787,2.02274,-1.47457
426,11.5947,2.0239,-1.47502
426.5,11.6103,2.03342,-1.47655
427,11.6261,2.03885,-1.47633
427.5,11.642,2.04497,-1.47702
428,11.6571,2.0556,-1.47789
428.5,11.6732,2.07536,-1.47712
429,11.6886,2.07625,-1.47695
429.5,11.7047,2.08414,-1.47795
430,11.7203,2.09565,-1.47834
430.5,11.7364,2.10159,-1.47879
431,11.7518,2.10025,-1.47991
431.5,11.7679,2.10852,-1.4808
432,11.7837,2.12051,-1.48161
432.5,11.7995,2.11913,-1.48323
433,11.8152,2.12675,-1.48426
433.5,11.8309,2.1277,-1.48472
434,11.8466,2.1421,-1.48517
434.5,11.8624,2.14941,-1.48632
435,11.8785,2.15698,-1.48667
435.5,11.8934,2.17007,-1.48909
436,11.9101,2.17145,-1.4893
436.5,11.9258,2.17767,-1.49053
437,11.9418,2.18326,-1.49061
437.5,11.9572,2.1922,-1.49202
438,11.9732,2.19372,-1.49209
438.5,11.989,2.20381,-1.49379
439,12.0048,2.21432,-1.49567
439.5,12.0207,2.21296,-1.49674
440,12.0365,2.21836,-1.49811
440.5,12.0518,2.23024,-1.49849
441,12.0676,2.2287,-1.50025
441.5,12.0835,2.23484,-1.50108
442,12.0992,2.23069,-1.50193
442.5,12.1151,2.23754,-1.50346
443,12.1312,2.24352,-1.50356
443.5,12.1465,2.24674,-1.50485
444,12.1626,2.25524,-1.50468
444.5,12.1785,2.26229,-1.50614
445,12.1942,2.26581,-1.50655
445.5,12.21,2.27606,-1.50819
446,12.2257,2.27061,-1.50878
446.5,12.2417,2.27093,-1.50958
447,12.2581,2.27398,-1.50975
447.5,12.2739,2.28183,-1.51127
448,12.2896,2.2844,-1.51296
448.5,12.3056,2.29334,-1.51408
449,12.3212,2.28898,-1.51584
449.5,12.3374,2.28363,-1.51702
450,12.3529,2.29104,-1.51743
450.5,12.3691,2.28614,-1.51981
451,12.3846,2.28776,-1.52094
451.5,12.4008,2.28901,-1.52168
452,12.4164,2.28643,-1.52277
452.5,12.4325,2.288,-1.52187
453,12.4481,2.29272,-1.52343
453.5,12.4641,2.29771,-1.52397
454,12.4801,2.29305,-1.52521
454.5,12.4959,2.29312,-1.52648
455,12.512,2.29038,-1.52707
455.5,12.5274,2.29094,-1.52879
456,12.5435,2.29024,-1.52957
456.5,12.5594,2.28897,-1.52929
457,12.5751,2.28901,-1.53082
457.5,12.591,2.29107,-1.53189
458,12.6071,2.28441,-1.53247
458.5,12.6227,2.28084,-1.53381
459,12.6386,2.27676,-1.53488
459.5,12.6545,2.27525,-1.53543
460,12.6703,2.27362,-1.53628
460.5,12.6862,2.2713,-1.53673
461,12.7021,2.25915,-1.53666
461.5,12.7179,2.26153,-1.53793
462,12.7339,2.2596,-1.53838
462.5,12.7499,2.24704,-1.53973
463,12.7653,2.24617,-1.54101
463.5,12.7813,2.24159,-1.54194
464,12.7975,2.24035,-1.54352
464.5,12.8133,2.23525,-1.54499
465,12.8292,2.2226,-1.54555
465.5,12.8449,2.21808,-1.54684
466,12.8612,2.21051,-1.54738
466.5,12.877,2.20475,-1.54827
467,12.8928,2.20162,-1.5488
467.5,12.9081,2.20161,-1.55061
468,12.9237,2.18944,-1.55107
468.5,12.9405,2.18163,-1.55219
469,12.9561,2.17439,-1.55415
469.5,12.9721,2.16708,-1.55545
470,12.9883,2.16546,-1.55608
470.5,13.0037,2.16457,-1.55757
471,13.0201,2.15847,-1.55853
471.5,13.0359,2.14287,-1.55915
472,13.0517,2.14139,-1.56045
472.5,13.0677,2.13238,-1.56133
473,13.0838,2.13223,-1.56238
473.5,13.0992,2.12137,-1.56399
474,13.1152,2.11548,-1.56383
474.5,13.1312,2.1085,-1.56482
475,13.1474,2.09709,-1.56626
475.5,13.163,2.09107,-1.56676
476,13.1791,2.08052,-1.56824
476.5,13.1945,2.08093,-1.56881
477,13.2105,2.07454,-1.56999
477.5,13.2269,2.07101,-1.57172
478,13.243,2.06607,-1.57246
478.5,13.2584,2.05644,-1.5732
479,13.2745,2.04619,-1.57488
479.5,13.2907,2.03316,-1.57518
480,13.3066,2.03342,-1.57641
480.5,13.3224,2.02896,-1.57626
481,13.3384,2.02432,-1.57773
481.5,13.3542,2.01418,-1.57785
482,13.3702,2.00975,-1.57934
482.5,13.386,1.99721,-1.57988
483,13.4019,1.99044,-1.58153
483.5,13.418,1.98559,-1.5834
484,13.4341,1.98267,-1.58491
484.5,13.4493,1.97779,-1.5858
485,13.4653,1.96685,-1.58767
485.5,13.4811,1.96072,-1.58795
486,13.4977,1.95658,-1.58911
486.5,13.5137,1.95348,-1.59024
487,13.5297,1.94925,-1.59152
487.5,13.5455,1.94096,-1.59296
488,13.5613,1.9334,-1.59455
488.5,13.5776,1.92787,-1.5956
489,13.5934,1.92566,-1.59628
489.5,13.6095,1.92536,-1.59643
490,13.6254,1.91878,-1.59668
490.5,13.6413,1.91303,-1.5979
491,13.6573,1.90332,-1.59787
491.5,13.6729,1.89382,-1.59873
492,13.6892,1.88603,-1.60004
492.5,13.7055,1.88137,-1.60196
493,13.7214,1.87666,-1.60269
493.5,13.7372,1.87199,-1.60462
494,13.7534,1.867,-1.60677
494.5,13.7693,1.86282,-1.60846
495,13.7853,1.85703,-1.61007
495.5,13.8014,1.85051,-1.61153
496,13.8173,1.84718,-1.61347
496.5,13.8335,1.84826,-1.61574
497,13.8492,1.84014,-1.61702
497.5,13.8653,1.83181,-1.61754
498,13.8811,1.82984,-1.6192
498.5,13.8973,1.82662,-1.6199
499,13.9131,1.82077,-1.62113
499.5,13.9294,1.81674,-1.62333
500,13.9452,1.80885,-1.62577
500.5,13.9611,1.80586,-1.6271
501,13.9771,1.80518,-1.6285
501.5,13.9927,1.80846,-1.63006
502,14.0096,1.7981,-1.63126
502.5,14.0252,1.79218,-1.63171
503,14.0411,1.79524,-1.63295
503.5,14.0574,1.79262,-1.63318
504,14.0736,1.78635,-1.63415
504.5,14.0894,1.78591,-1.63475
505,14.1057,1.78515,-1.63559
505.5,14.1216,1.78241,-1.63645
506,14.1377,1.77745,-1.63779
506.5,14.1535,1.77546,-1.63765
507,14.1697,1.77178,-1.63942
507.5,14.1858,1.76683,-1.64113
508,14.2019,1.76528,-1.64223
508.5,14.218,1.75973,-1.64442
509,14.234,1.7618,-1.64619
509.5,14.25,1.75625,-1.64832
510,14.2657,1.75336,-1.65063
510.5,14.2818,1.75158,-1.65233
511,14.2981,1.74693,-1.6544
511.5,14.314,1.74997,-1.65582
512,14.3303,1.74853,-1.65728
512.5,14.3461,1.74737,-1.65875
513,14.3623,1.7411,-1.65914
513.5,14.3784,1.74409,-1.66053
514,14.3944,1.73928,-1.66233
514.5,14.4107,1.7361,-1.66366
515,14.4265,1.73414,-1.6649
515.5,14.4427,1.73015,-1.66689
516,14.4585,1.73456,-1.66859
516.5,14.4749,1.73486,-1.67026
517,14.4907,1.73945,-1.67266
517.5,14.5071,1.74034,-1.67387
518,14.5228,1.73736,-1.67422
518.5,14.5392,1.73686,-1.67515
519,14.5552,1.73111,-1.67692
519.5,14.5715,1.73882,-1.67838
520,14.5873,1.73771,-1.68043
520.5,14.6036,1.73494,-1.68128
521,14.62,1.74057,-1.68308
521.5,14.6359,1.74344,-1.6848
522,14.6521,1.7504,-1.68689
522.5,14.668,1.7452,-1.68876
523,14.6843,1.74299,-1.69073
523.5,14.7003,1.74371,-1.69278
524,14.7164,1.75141,-1.69533
524.5,14.7324,1.76149,-1.69731
525,14.748,1.75555,-1.69946
525.5,14.7648,1.75763,-1.70162
526,14.7808,1.75786,-1.70453
526.5,14.797,1.75951,-1.70631
527,14.8132,1.76407,-1.70784
527.5,14.8292,1.77064,-1.70946
528,14.8456,1.7752,-1.71236
528.5,14.8618,1.77852,-1.71403
529,14.8778,1.77855,-1.71612
529.5,14.894,1.78215,-1.7184
530,14.9094,1.78677,-1.72144
530.5,14.9263,1.79032,-1.72479
531,14.9424,1.79142,-1.72713
531.5,14.9585,1.7975,-1.72885
532,14.9746,1.8034,-1.73086
532.5,14.991,1.80666,-1.73256
533,15.007,1.80716,-1.73433
533.5,15.023,1.80766,-1.73671
534,15.0393,1.81343,-1.73883
534.5,15.0555,1.8152,-1.74073
535,15.0714,1.81687,-1.7431
535.5,15.0877,1.82517,-1.74515
536,15.1036,1.82743,-1.74778
536.5,15.1203,1.82533,-1.75086
537,15.1363,1.84076,-1.75307
537.5,15.1525,1.8396,-1.75427
538,15.1686,1.84084,-1.75603
538.5,15.1846,1.84229,-1.75774
539,15.2012,1.84873,-1.76038
539.5,15.2175,1.85274,-1.76304
540,15.2333,1.8581,-1.76559
540.5,15.2499,1.85848,-1.76911
541,15.266,1.862,-1.7715
541.5,15.2819,1.86783,-1.77395
542,15.2983,1.86072,-1.77592
542.5,15.3145,1.8636,-1.7781
543,15.3304,1.86468,-1.78032
543.5,15.3472,1.86785,-1.78348
544,15.3631,1.86634,-1.78569
544.5,15.3792,1.86695,-1.7886
545,15.3955,1.87306,-1.79246
545.5,15.4117,1.87705,-1.795
546,15.4281,1.88152,-1.79804
546.5,15.4443,1.88416,-1.80124
547,15.4606,1.88283,-1.80304
547.5,15.4767,1.87854,-1.806
548,15.493,1.88368,-1.80924
548.5,15.509,1.88574,-1.81148
549,15.5253,1.88272,-1.81494
549.5,15.5416,1.89084,-1.81894
550,15.5579,1.8871,-1.8211
550.5,15.5741,1.88423,-1.82559
551,15.5902,1.88492,-1.82883
551.5,15.6065,1.88306,-1.83203
552,15.6228,1.88447,-1.83627
552.5,15.6391,1.88072,-1.83986
553,15.6549,1.87661,-1.84182
553.5,15.6716,1.87947,-1.84504
554,15.6877,1.88141,-1.84741
554.5,15.7038,1.87857,-1.8491
555,15.7202,1.87959,-1.85205
555.5,15.7364,1.88007,-1.85387
556,15.7529,1.8739,-1.85715
556.5,15.7693,1.86853,-1.85968
557,15.7852,1.87247,-1.86224
557.5,15.8016,1.87176,-1.86605
558,15.8178,1.86755,-1.86893
558.5,15.8341,1.8594,-1.87153
559,15.8503,1.86218,-1.87564
559.5,15.8664,1.85767,-1.87886
560,15.8826,1.84737,-1.88151
560.5,15.8992,1.84156,-1.88518
561,15.9152,1.84253,-1.88757
561.5,15.9316,1.83917,-1.8906
562,15.9479,1.8356,-1.89534
562.5,15.9641,1.83142,-1.89763
563,15.9802,1.83044,-1.901
563.5,15.9968,1.825,-1.90531
564,16.013,1.81644,-1.90663
564.5,16.0292,1.81666,-1.90888
565,16.0451,1.80964,-1.91174
565.5,16.062,1.81033,-1.91336
566,16.0781,1.80177,-1.91573
566.5,16.0944,1.79934,-1.91976
567,16.1106,1.79514,-1.92195
567.5,16.1271,1.79483,-1.92508
568,16.1435,1.78559,-1.9296
568.5,16.1594,1.78331,-1.93185
569,16.1762,1.76978,-1.93562
569.5,16.1924,1.77018,-1.93912
570,16.2078,1.76771,-1.94132
570.5,16.2249,1.76276,-1.94473
571,16.2407,1.75665,-1.94772
571.5,16.2579,1.75134,-1.95022
572,16.2739,1.74692,-1.95348
572.5,16.2903,1.74267,-1.95579
573,16.3067,1.739,-1.95771
573.5,16.3229,1.72647,-1.96073
574,16.3392,1.72948,-1.96309
574.5,16.3553,1.72342,-1.96554
575,16.3717,1.71632,-1.9691
575.5,16.3881,1.70879,-1.97207
576,16.4045,1.70648,-1.9754
576.5,16.421,1.70043,-1.97921
577,16.4372,1.69389,-1.98182
577.5,16.4534,1.69242,-1.98488
578,16.47,1.68073,-1.98809
578.5,16.4863,1.67674,-1.9908
579,16.5025,1.67478,-1.99393
579.5,16.519,1.66817,-1.99697
580,16.5353,1.66452,-1.9999
580.5,16.5515,1.66002,-2.00323
581,16.5676,1.6446,-2.00612
581.5,16.5842,1.64776,-2.00848
582,16.6007,1.63764,-2.01132
582.5,16.6169,1.63571,-2.01396
583,16.6334,1.62765,-2.01668
583.5,16.6495,1.62419,-2.02014
584,16.6659,1.6126,-2.023
584.5,16.6822,1.60758,-2.02551
585,16.6988,1.60333,-2.02789
585.5,16.7151,1.5959,-2.03027
586,16.7315,1.58894,-2.03314
586.5,16.7477,1.59082,-2.03696
587,16.7644,1.5841,-2.03945
587.5,16.7806,1.57885,-2.04235
588,16.7973,1.5717,-2.04602
588.5,16.8134,1.56503,-2.04832
589,16.8299,1.55686,-2.05238
589.5,16.8459,1.5534,-2.05609
590,16.8625,1.5505,-2.05799
590.5,16.8785,1.547,-2.06149
591,16.8951,1.54185,-2.06443
591.5,16.9114,1.53112,-2.0662
592,16.9277,1.5291,-2.06963
592.5,16.9436,1.52263,-2.07208
593,16.9609,1.51485,-2.07462
593.5,16.977,1.51264,-2.07787
594,16.9936,1.50945,-2.08102
594.5,17.0095,1.49924,-2.08295
595,17.0263,1.49431,-2.08577
595.5,17.0424,1.48676,-2.08867
596,17.0591,1.48007,-2.09078
596.5,17.0756,1.48128,-2.09348
597,17.0918,1.47674,-2.09588
597.5,17.1081,1.46697,-2.09761
598,17.1247,1.46518,-2.10028
598.5,17.1409,1.45977,-2.10429
599,17.1574,1.45872,-2.10707
599.5,17.1736,1.44711,-2.11052
600,17.19,1.44378,-2.11319
600.5,17.2063,1.43213,-2.11661
601,17.2228,1.43514,-2.11942
601.5,17.2394,1.42589,-2.12212
602,17.2555,1.42962,-2.12487
602.5,17.2721,1.41925,-2.12841
603,17.2884,1.40914,-2.1313
603.5,17.3046,1.40885,-2.13302
604,17.3213,1.40436,-2.13632
604.5,17.3377,1.40604,-2.13816
605,17.3541,1.39897,-2.14018
605.5,17.3704,1.39893,-2.14321
606,17.3866,1.38572,-2.14509
606.5,17.4032,1.37951,-2.14774
607,17.4195,1.37858,-2.15027
607.5,17.4363,1.37437,-2.15249
608,17.4525,1.36546,-2.15474
608.5,17.4692,1.35974,-2.1565
609,17.4854,1.35327,-2.15877
609.5,17.5017,1.35227,-2.16159
610,17.5182,1.34104,-2.16381
610.5,17.5343,1.3336,-2.16616
611,17.5509,1.3315,-2.16908
611.5,17.5675,1.32216,-2.17146
612,17.5837,1.32419,-2.17342
612.5,17.6002,1.32557,-2.17675
613,17.6164,1.32088,-2.17924
613.5,17.633,1.31612,-2.18252
614,17.6493,1.30785,-2.186
614.5,17.6655,1.30605,-2.18876
615,17.6823,1.2997,-2.19132
615.5,17.6985,1.29552,-2.1935
616,17.715,1.29066,-2.19622
616.5,17.7312,1.28943,-2.19895
617,17.7478,1.28575,-2.20104
617.5,17.7642,1.27477,-2.20376
618,17.7807,1.27155,-2.20608
618.5,17.7968,1.26546,-2.20765
619,17.8135,1.26669,-2.20942
619.5,17.8297,1.26419,-2.21169
620,17.8463,1.26064,-2.21375
620.5,17.8626,1.255,-2.21626
621,17.8791,1.25338,-2.21846
621.5,17.8955,1.24783,-2.22043
622,17.9119,1.24105,-2.22361
622.5,17.9283,1.24174,-2.22614
623,17.9441,1.23645,-2.22813
623.5,17.9613,1.2269,-2.23091
624,17.9777,1.22941,-2.23314
624.5,17.994,1.23306,-2.23495
625,18.0103,1.23147,-2.23713
625.5,18.0272,1.23409,-2.23894
626,18.0432,1.23273,-2.24081
626.5,18.0597,1.22787,-2.24261
627,18.0762,1.21723,-2.24514
627.5,18.0924,1.21194,-2.24723
628,18.109,1.21819,-2.24768
628.5,18.1252,1.21564,-2.24933
629,18.1418,1.20745,-2.25029
629.5,18.1581,1.20377,-2.25206
630,18.1745,1.2056,-2.25376
630.5,18.1911,1.20431,-2.25522
631,18.2077,1.19808,-2.25554
631.5,18.224,1.19116,-2.2576
632,18.2403,1.19455,-2.2596
632.5,18.2566,1.19448,-2.26142
633,18.2732,1.18392,-2.26369
633.5,18.2897,1.18083,-2.26549
634,18.3057,1.17627,-2.26733
634.5,18.3229,1.17055,-2.26973
635,18.3391,1.16651,-2.27201
635.5,18.3559,1.16878,-2.27379
636,18.3722,1.1615,-2.27592
636.5,18.3885,1.15637,-2.27783
637,18.4049,1.15671,-2.27947
637.5,18.4218,1.15194,-2.28222
638,18.4378,1.14748,-2.28439
638.5,18.4544,1.14171,-2.28613
639,18.4707,1.139,-2.28806
639.5,18.4875,1.13755,-2.29017
640,18.5039,1.14049,-2.29168
640.5,18.5202,1.14531,-2.29309
641,18.5365,1.1448,-2.29436
641.5,18.5532,1.14314,-2.29539
642,18.5691,1.14203,-2.29683
642.5,18.5858,1.14028,-2.29699
643,18.6026,1.13427,-2.29852
643.5,18.6191,1.1336,-2.29981
644,18.6349,1.12841,-2.30117
644.5,18.6521,1.12628,-2.30364
645,18.6683,1.12482,-2.30408
645.5,18.6848,1.12391,-2.30563
646,18.7014,1.11972,-2.30642
646.5,18.7177,1.11722,-2.30866
647,18.7344,1.11451,-2.3107
647.5,18.7507,1.11263,-2.31336
648,18.7668,1.11417,-2.31561
648.5,18.7836,1.11017,-2.31839
649,18.8001,1.10884,-2.32046
649.5,18.8167,1.10243,-2.3215
650,18.8331,1.10516,-2.32251
650.5,18.8496,1.10378,-2.32384
651,18.8661,1.10265,-2.32456
651.5,18.8825,1.10192,-2.32688
652,18.899,1.10562,-2.32775
652.5,18.9153,1.10178,-2.32871
653,18.932,1.09495,-2.3299
653.5,18.9483,1.09095,-2.33128
654,18.9648,1.08997,-2.33143
654.5,18.9813,1.08989,-2.33287
655,18.9981,1.08549,-2.3341
655.5,19.0146,1.08425,-2.33513
656,19.0306,1.08526,-2.33653
656.5,19.047,1.08256,-2.33684
657,19.064,1.08225,-2.33935
657.5,19.0805,1.08624,-2.3394
658,19.0967,1.08436,-2.34093
658.5,19.1134,1.08085,-2.3418
659,19.1298,1.07984,-2.34355
659.5,19.1465,1.08669,-2.34517
660,19.1631,1.08019,-2.34667
660.5,19.1794,1.07838,-2.34699
661,19.1962,1.07693,-2.34816
661.5,19.2125,1.07676,-2.34852
662,19.2294,1.07919,-2.34989
662.5,19.2457,1.0722,-2.35137
663,19.2622,1.07487,-2.35083
663.5,19.2786,1.07945,-2.35171
664,19.295,1.08056,-2.35284
664.5,19.3116,1.07913,-2.35323
665,19.328,1.08278,-2.35452
665.5,19.3446,1.07959,-2.35468
666,19.3613,1.07711,-2.35605
666.5,19.3776,1.07547,-2.35514
667,19.3945,1.07261,-2.35648
667.5,19.4106,1.07209,-2.35751
668,19.4271,1.06914,-2.35808
668.5,19.4438,1.07176,-2.3597
669,19.4605,1.0717,-2.36094
669.5,19.477,1.07303,-2.36075
670,19.4931,1.07736,-2.36215
670.5,19.5099,1.07665,-2.36217
671,19.5257,1.06931,-2.36329
671.5,19.5423,1.06727,-2.36463
672,19.559,1.06573,-2.36531
672.5,19.5752,1.06912,-2.36684
673,19.592,1.07037,-2.36727
673.5,19.6091,1.06868,-2.36742
674,19.6256,1.06928,-2.3689
674.5,19.6421,1.07103,-2.36878
675,19.6586,1.07193,-2.37012
675.5,19.6753,1.07195,-2.37032
676,19.6919,1.06961,-2.37039
676.5,19.7085,1.06767,-2.36962
677,19.7248,1.06685,-2.36968
677.5,19.7414,1.0654,-2.37031
678,19.7581,1.06517,-2.3712
678.5,19.7744,1.05818,-2.37299
679,19.7911,1.05856,-2.37363
679.5,19.8075,1.05994,-2.37463
680,19.824,1.05858,-2.37593
680.5,19.8409,1.06215,-2.37593
681,19.8574,1.05894,-2.37718
681.5,19.8739,1.05266,-2.37747
682,19.8901,1.05222,-2.37848
682.5,19.9069,1.04926,-2.37833
683,19.9234,1.05043,-2.37979
683.5,19.94,1.05326,-2.38007
684,19.9566,1.05128,-2.38143
684.5,19.9733,1.05084,-2.38229
685,19.9898,1.04661,-2.38321
685.5,20.0061,1.04198,-2.38474
686,20.0229,1.04005,-2.38601
686.5,20.0394,1.03905,-2.38643
687,20.056,1.03978,-2.3879
687.5,20.0725,1.03652,-2.38874
688,20.0891,1.03465,-2.38969
688.5,20.1059,1.03693,-2.39122
689,20.1225,1.03932,-2.39118
689.5,20.1388,1.03448,-2.39148
690,20.1556,1.03317,-2.39251
690.5,20.1717,1.03633,-2.39363
691,20.1884,1.03515,-2.39373
691.5,20.2051,1.04044,-2.39477
692,20.2213,1.03519,-2.39514
692.5,20.2386,1.02957,-2.3966
693,20.2547,1.0267,-2.39705
693.5,20.2713,1.02544,-2.39836
694,20.288,1.02093,-2.39927
694.5,20.3046,1.02134,-2.39982
695,20.3213,1.01994,-2.40141
695.5,20.3377,1.01421,-2.40344
696,20.3543,1.01785,-2.40448
696.5,20.3711,1.01476,-2.40546
697,20.3875,1.01026,-2.40582
697.5,20.4041,1.00645,-2.40677
698,20.4206,1.00475,-2.40707
698.5,20.4375,1.00252,-2.40579
699,20.4539,1.00627,-2.40588
699.5,20.4706,1.00246,-2.40684
700,20.4869,0.997716,-2.40601
700.5,20.504,0.997479,-2.4059
701,20.5204,0.992384,-2.40616
701.5,20.5369,0.988685,-2.40724
702,20.5534,0.983941,-2.40722
702.5,20.5701,0.986387,-2.40745
703,20.5868,0.983711,-2.40856
703.5,20.6033,0.981854,-2.40853
704,20.6195,0.97737,-2.40858
704.5,20.6365,0.977126,-2.41002
705,20.653,0.977822,-2.40996
705.5,20.6696,0.97266,-2.41017
706,20.6863,0.96757,-2.4113
706.5,20.7029,0.968097,-2.41126
707,20.7194,0.962571,-2.41127
707.5,20.7361,0.96264,-2.41123
708,20.753,0.961811,-2.41192
708.5,20.7695,0.961274,-2.4136
709,20.7862,0.958505,-2.41389
709.5,20.8031,0.955055,-2.41437
710,20.8195,0.951695,-2.4154
710.5,20.8362,0.946235,-2.41535
711,20.8525,0.946267,-2.41651
711.5,20.8694,0.942321,-2.41745
712,20.8863,0.935727,-2.41945
712.5,20.9026,0.93831,-2.4195
713,20.9192,0.931009,-2.42105
713.5,20.9358,0.924049,-2.42131
714,20.9527,0.925027,-2.42254
714.5,20.9692,0.919764,-2.42275
715,20.9858,0.918987,-2.42251
715.5,21.0027,0.913422,-2.42272
716,21.0191,0.90702,-2.42401
716.5,21.0359,0.905111,-2.42394
717,21.0525,0.899516,-2.42553
717.5,21.0691,0.892351,-2.42588
718,21.086,0.888788,-2.42682
718.5,21.1027,0.887108,-2.42661
719,21.1192,0.88266,-2.42738
719.5,21.1362,0.879377,-2.42814
720,21.1526,0.878512,-2.42876
720.5,21.1694,0.876877,-2.42874
721,21.1857,0.86794,-2.42874
721.5,21.2028,0.866158,-2.42932
722,21.2193,0.859578,-2.42869
722.5,21.2359,0.85278,-2.42874
723,21.2528,0.843777,-2.42993
723.5,21.2695,0.838794,-2.43005
724,21.2858,0.77316,-2.43007
724.5,21.3024,0.770323,-2.43142
725,21.3194,0.76749,-2.4315
725.5,21.336,0.763021,-2.43282
726,21.3523,0.759667,-2.43277
726.5,21.3693,0.762303,-2.43357
727,21.3858,0.758762,-2.43421
727.5,21.4028,0.754526,-2.43418
728,21.4191,0.747355,-2.43517
728.5,21.4357,0.743283,-2.43553
729,21.4525,0.735968,-2.43568
729.5,21.4689,0.738706,-2.43695
730,21.4856,0.734234,-2.43685
730.5,21.5026,0.727196,-2.43676
731,21.5193,0.721276,-2.43807
731.5,21.5362,0.716615,-2.43706
732,21.5532,0.713525,-2.43676
732.5,21.5698,0.711524,-2.43754
733,21.5866,0.699698,-2.43791
733.5,21.6032,0.694553,-2.43665
734,21.62,0.684656,-2.43666
734.5,21.6367,0.679692,-2.43783
735,21.6535,0.675819,-2.43802
735.5,21.6702,0.667879,-2.43696
736,21.6866,0.665761,-2.4381
736.5,21.7033,0.655884,-2.43805
737,21.7201,0.647497,-2.43888
737.5,21.7368,0.643406,-2.43935
738,21.7537,0.638345,-2.43989
738.5,21.7702,0.638246,-2.441
739,21.7875,0.634365,-2.44107
739.5,21.8039,0.625383,-2.44217
740,21.8206,0.620458,-2.44305