File: 01_Data/Protective_Hood/STA/N2/30K_min/Protective_Hood_STA_N2_30KData_250623_R4.csv
Temp./C,Time/min,DSC/(mW/mg),Mass loss/mg
60.0,0.0,1.21763,-0.0253221
60.5,0.0311576,1.2687,-0.0240947
61,0.0616549,1.30561,-0.0236264
61.5,0.0911807,1.3494,-0.0226506
62,0.119983,1.38712,-0.0236838
62.5,0.149679,1.42408,-0.0237322
63,0.177464,1.46879,-0.0233682
63.5,0.204914,1.50456,-0.0234394
64,0.231771,1.54269,-0.023137
64.5,0.257586,1.57675,-0.0237271
65,0.283336,1.61101,-0.0245848
65.5,0.309746,1.64588,-0.0252946
66,0.336225,1.68425,-0.0249631
66.5,0.361283,1.708,-0.0250622
67,0.386669,1.74009,-0.0247132
67.5,0.410591,1.77784,-0.0265435
68,0.435813,1.8037,-0.0277569
68.5,0.459928,1.83396,-0.02598
69,0.483621,1.87363,-0.0252877
69.5,0.507583,1.90902,-0.0255061
70,0.5309,1.9383,-0.0259014
70.5,0.554514,1.95817,-0.0256916
71,0.576074,1.98709,-0.0264514
71.5,0.6008,2.01913,-0.0275371
72,0.622793,2.04716,-0.0305819
72.5,0.645808,2.07163,-0.0323031
73,0.668166,2.0876,-0.0314287
73.5,0.690751,2.11798,-0.0284639
74,0.713219,2.15006,-0.0256563
74.5,0.734774,2.17871,-0.0260169
75,0.756764,2.20684,-0.0261345
75.5,0.778399,2.24049,-0.0261722
76,0.799868,2.26164,-0.0265765
76.5,0.821537,2.27939,-0.026598
77,0.842762,2.30279,-0.0274811
77.5,0.864941,2.33685,-0.0267145
78,0.88518,2.37152,-0.0267261
78.5,0.907243,2.39505,-0.0272854
79,0.927405,2.41379,-0.0277035
79.5,0.948952,2.4488,-0.02736
80,0.969131,2.46639,-0.0271595
80.5,0.989945,2.4928,-0.0280557
81,1.0107,2.49866,-0.0271207
81.5,1.03149,2.52158,-0.0280884
82,1.05196,2.54835,-0.0278295
82.5,1.07184,2.57217,-0.0279365
83,1.09259,2.59737,-0.0283818
83.5,1.11307,2.61608,-0.0291833
84,1.13272,2.64169,-0.0294861
84.5,1.15312,2.66859,-0.03013
85,1.17341,2.69035,-0.0304392
85.5,1.19282,2.71462,-0.0288974
86,1.21278,2.74309,-0.0288535
86.5,1.23246,2.77381,-0.0291496
87,1.25257,2.7859,-0.0307878
87.5,1.27206,2.81962,-0.0300021
88,1.29163,2.83714,-0.0305558
88.5,1.31091,2.86166,-0.0308983
89,1.33054,2.88768,-0.0320044
89.5,1.34965,2.91709,-0.0320377
90,1.36889,2.9444,-0.0334612
90.5,1.38832,2.95826,-0.0331769
91,1.40763,2.97718,-0.0331626
91.5,1.42637,3.00562,-0.0320258
92,1.44578,3.03229,-0.0334416
92.5,1.4644,3.05972,-0.0338062
93,1.48353,3.08057,-0.0347218
93.5,1.50241,3.1056,-0.0342168
94,1.52133,3.13224,-0.0346575
94.5,1.54024,3.16289,-0.0349051
95,1.55896,3.18073,-0.0350291
95.5,1.57799,3.20056,-0.0350508
96,1.59654,3.21903,-0.035867
96.5,1.61536,3.24123,-0.0363776
97,1.63399,3.27723,-0.0355518
97.5,1.65261,3.29747,-0.0363763
98,1.67153,3.32379,-0.0369541
98.5,1.69,3.34732,-0.0378021
99,1.70789,3.36833,-0.0367454
99.5,1.72573,3.38693,-0.0379396
100,1.74552,3.40343,-0.0382218
100.5,1.76328,3.4202,-0.039315
101,1.7819,3.4512,-0.0396045
101.5,1.80023,3.48125,-0.0393789
102,1.8184,3.49447,-0.0399886
102.5,1.83633,3.51767,-0.0408675
103,1.85533,3.53639,-0.0417964
103.5,1.87314,3.55524,-0.0422833
104,1.89116,3.56805,-0.0416426
104.5,1.90949,3.58795,-0.0422853
105,1.92725,3.60058,-0.0422762
105.5,1.94551,3.61997,-0.0423647
106,1.96334,3.63446,-0.0436836
106.5,1.98126,3.64924,-0.0435953
107,1.99973,3.66132,-0.0435895
107.5,2.01764,3.67474,-0.0435824
108,2.03558,3.68546,-0.0445151
108.5,2.05339,3.70723,-0.0448853
109,2.07118,3.71376,-0.044908
109.5,2.08921,3.72519,-0.0451508
110,2.10683,3.74037,-0.0462877
110.5,2.12439,3.755,-0.0462408
111,2.1422,3.76163,-0.0463285
111.5,2.16005,3.77317,-0.0449856
112,2.17804,3.77822,-0.0460535
112.5,2.19548,3.79045,-0.0461966
113,2.2131,3.80061,-0.0462194
113.5,2.23093,3.80746,-0.0462236
114,2.24822,3.8179,-0.0461544
114.5,2.26575,3.82425,-0.0474938
115,2.28356,3.82888,-0.0475326
115.5,2.30088,3.83575,-0.0475189
116,2.31855,3.83815,-0.0484234
116.5,2.33642,3.84005,-0.0488656
117,2.3534,3.84677,-0.0488627
117.5,2.37109,3.84804,-0.0488818
118,2.38845,3.85777,-0.0502375
118.5,2.40623,3.85785,-0.0511571
119,2.42365,3.85909,-0.0519421
119.5,2.44037,3.8604,-0.0525764
120,2.45823,3.86292,-0.0525887
120.5,2.47531,3.86496,-0.0535409
121,2.49287,3.86768,-0.0538845
121.5,2.51011,3.86919,-0.0539093
122,2.52709,3.86185,-0.0539098
122.5,2.54424,3.8596,-0.0539042
123,2.56126,3.86076,-0.0538701
123.5,2.57857,3.85835,-0.0548528
124,2.59578,3.85365,-0.0552355
124.5,2.61307,3.85871,-0.0552305
125,2.62888,3.84572,-0.05523
125.5,2.64653,3.85185,-0.0552298
126,2.66421,3.84894,-0.0552265
126.5,2.68083,3.84207,-0.055209
127,2.69799,3.84039,-0.0558165
127.5,2.71451,3.83795,-0.0565869
128,2.73219,3.82567,-0.056549
128.5,2.74884,3.82324,-0.0565435
129,2.76511,3.82203,-0.0572454
129.5,2.78226,3.82049,-0.0578661
130,2.79879,3.81282,-0.0578602
130.5,2.81585,3.80498,-0.0578599
131,2.83272,3.80527,-0.05786
131.5,2.84925,3.79168,-0.05786
132,2.86599,3.78754,-0.05786
132.5,2.88291,3.77707,-0.05786
133,2.89939,3.77084,-0.0578598
133.5,2.91619,3.76947,-0.0578609
134,2.93282,3.76266,-0.0578871
134.5,2.94934,3.75283,-0.0580444
135,2.96588,3.74571,-0.0591747
135.5,2.98213,3.74686,-0.0591786
136,2.99906,3.73801,-0.0591797
136.5,3.01558,3.72859,-0.0591807
137,3.03196,3.72719,-0.0592533
137.5,3.04842,3.73329,-0.0605906
138,3.06438,3.72293,-0.0604892
138.5,3.08092,3.71248,-0.0604147
139,3.09691,3.70714,-0.0616034
139.5,3.11366,3.70166,-0.061813
140,3.1304,3.69647,-0.0618107
140.5,3.14684,3.69098,-0.06181
141,3.16299,3.6856,-0.06181
141.5,3.1794,3.67703,-0.06181
142,3.19592,3.67753,-0.06181
142.5,3.2119,3.66684,-0.0618099
143,3.22808,3.67284,-0.0618095
143.5,3.24438,3.65926,-0.0618105
144,3.26066,3.65348,-0.0619167
144.5,3.27695,3.65593,-0.0632142
145,3.29301,3.65092,-0.0631228
145.5,3.3092,3.65347,-0.0631306
146,3.32548,3.64099,-0.0631368
146.5,3.34112,3.64172,-0.0642453
147,3.35774,3.62834,-0.0644241
147.5,3.37394,3.62185,-0.0644507
148,3.38988,3.62794,-0.0644504
148.5,3.40605,3.61852,-0.0644498
149,3.42224,3.60531,-0.0644514
149.5,3.43819,3.61211,-0.0644736
150,3.45422,3.61739,-0.0644888
150.5,3.47058,3.60537,-0.0655071
151,3.48639,3.59709,-0.0654468
151.5,3.50238,3.58228,-0.0654396
152,3.5184,3.58463,-0.0654404
152.5,3.5348,3.58871,-0.065442
153,3.55034,3.58056,-0.0654066
153.5,3.5662,3.57249,-0.0658031
154,3.58253,3.56138,-0.0660424
154.5,3.59769,3.55686,-0.0676393
155,3.61371,3.55119,-0.0675234
155.5,3.6303,3.55064,-0.0675186
156,3.64645,3.5437,-0.0675234
156.5,3.66219,3.55102,-0.0672564
157,3.67838,3.55431,-0.0661192
157.5,3.69417,3.55467,-0.0662071
158,3.70964,3.54446,-0.066211
158.5,3.72601,3.54636,-0.0662094
159,3.74184,3.54867,-0.0662129
159.5,3.75757,3.54833,-0.0662713
160,3.77356,3.54459,-0.0655251
160.5,3.78958,3.54344,-0.0655515
161,3.80544,3.54342,-0.0655521
161.5,3.82135,3.54063,-0.0644375
162,3.8372,3.5296,-0.0642418
162.5,3.85273,3.53679,-0.0642243
163,3.86866,3.5301,-0.0642203
163.5,3.88465,3.52456,-0.0649467
164,3.90028,3.52771,-0.0668897
164.5,3.91607,3.5257,-0.0668596
165,3.93194,3.529,-0.0668594
165.5,3.94773,3.53577,-0.06686
166,3.96292,3.5228,-0.06686
166.5,3.97952,3.52909,-0.06686
167,3.99529,3.53097,-0.0668599
167.5,4.01071,3.532,-0.0668607
168,4.02648,3.53716,-0.0668902
168.5,4.0425,3.54019,-0.0681638
169,4.05831,3.53665,-0.0681555
169.5,4.07382,3.54093,-0.0681789
170,4.08972,3.54159,-0.0681803
170.5,4.10531,3.5468,-0.06818
171,4.12091,3.55087,-0.06818
171.5,4.13672,3.55117,-0.06818
172,4.15236,3.55297,-0.06818
172.5,4.16802,3.55812,-0.0681802
173,4.18342,3.55976,-0.0681791
173.5,4.19976,3.55941,-0.0681671
174,4.21513,3.56164,-0.0684886
174.5,4.23092,3.57114,-0.0692274
175,4.24647,3.58036,-0.0691722
175.5,4.26209,3.58328,-0.0691691
176,4.27771,3.58709,-0.0691699
176.5,4.29293,3.58539,-0.06917
177,4.30884,3.58886,-0.0691696
177.5,4.32424,3.59595,-0.0691686
178,4.34006,3.60163,-0.0691876
178.5,4.35567,3.59895,-0.0693165
179,4.37063,3.60615,-0.0698381
179.5,4.38693,3.60903,-0.0697831
180,4.40245,3.60757,-0.0686439
180.5,4.41798,3.61604,-0.068522
181,4.43347,3.6205,-0.0685086
181.5,4.44894,3.62746,-0.0685105
182,4.46431,3.63423,-0.0685083
182.5,4.47983,3.63042,-0.068463
183,4.49541,3.63886,-0.0691375
183.5,4.511,3.64645,-0.0704022
184,4.52582,3.64887,-0.0704736
184.5,4.54173,3.65068,-0.0704909
185,4.55713,3.66067,-0.0704903
185.5,4.57248,3.66642,-0.07049
186,4.58776,3.66828,-0.07049
186.5,4.60368,3.67125,-0.07049
187,4.61866,3.68598,-0.07049
187.5,4.63426,3.69229,-0.07049
188,4.64948,3.6953,-0.07049
188.5,4.66496,3.69536,-0.07049
189,4.68012,3.69268,-0.07049
189.5,4.69565,3.70423,-0.07049
190,4.7108,3.715,-0.07049
190.5,4.72581,3.71344,-0.07049
191,4.74106,3.7218,-0.07049
191.5,4.75622,3.72965,-0.07049
192,4.77178,3.73314,-0.07049
192.5,4.78743,3.74791,-0.0704901
193,4.80258,3.7579,-0.0704895
193.5,4.8179,3.76386,-0.0704862
194,4.83298,3.77161,-0.0706565
194.5,4.84862,3.77415,-0.0719725
195,4.86357,3.79003,-0.0731033
195.5,4.87902,3.79355,-0.0730915
196,4.89437,3.79735,-0.0731271
196.5,4.90961,3.80361,-0.073325
197,4.92489,3.80532,-0.0744205
197.5,4.94016,3.8153,-0.0744261
198,4.95502,3.81247,-0.0744403
198.5,4.97043,3.81952,-0.0744402
199,4.9858,3.831,-0.07444
199.5,5.00074,3.83835,-0.07444
200,5.01617,3.84274,-0.07444
200.5,5.03135,3.85562,-0.07444
201,5.04642,3.8583,-0.07444
201.5,5.06154,3.85789,-0.0744402
202,5.07689,3.86991,-0.0744408
202.5,5.09166,3.87606,-0.0744308
203,5.10752,3.89476,-0.074962
203.5,5.12209,3.90411,-0.0758234
204,5.13763,3.91417,-0.0757655
204.5,5.1527,3.91599,-0.0757599
205,5.16803,3.93005,-0.0757668
205.5,5.18318,3.94175,-0.0757167
206,5.19816,3.94673,-0.0766392
206.5,5.21325,3.95295,-0.0771055
207,5.22849,3.95823,-0.0771285
207.5,5.24365,3.96492,-0.0764756
208,5.25872,3.9682,-0.0757115
208.5,5.27382,3.98095,-0.075762
209,5.28869,3.98859,-0.0757664
209.5,5.30415,4.00652,-0.0757328
210,5.31922,4.01413,-0.0769607
210.5,5.33456,4.02533,-0.0783927
211,5.34943,4.04164,-0.0783806
211.5,5.36434,4.05461,-0.0783898
212,5.37956,4.06492,-0.0783898
212.5,5.39492,4.08337,-0.0783905
213,5.40981,4.09795,-0.0784375
213.5,5.42504,4.11287,-0.0796813
214,5.4396,4.13392,-0.0797062
214.5,5.45524,4.15706,-0.0796969
215,5.47049,4.18102,-0.0809603
215.5,5.48517,4.20676,-0.0810326
216,5.50053,4.23164,-0.0812938
216.5,5.51597,4.25543,-0.0823648
217,5.53084,4.30037,-0.0823365
217.5,5.54632,4.35123,-0.0823491
218,5.5615,4.39394,-0.0823611
218.5,5.57673,4.44357,-0.0823862
219,5.592,4.50982,-0.0836568
219.5,5.6072,4.57946,-0.0844372
220,5.62227,4.66717,-0.0870119
220.5,5.63803,4.7644,-0.0871852
221,5.65298,4.88709,-0.0900158
221.5,5.66895,5.03381,-0.0912445
222,5.68419,5.18887,-0.0934943
222.5,5.6999,5.38155,-0.0937675
223,5.7157,5.59692,-0.0935196
223.5,5.73179,5.85406,-0.092858
224,5.74786,6.19391,-0.0927969
224.5,5.76468,6.67318,-0.0921602
225,5.78188,7.27819,-0.0925869
225.5,5.79977,8.09295,-0.0927527
226,5.81721,8.85655,-0.0940228
226.5,5.83234,8.93902,-0.0943422
227,5.84647,8.69968,-0.095547
227.5,5.86038,8.33473,-0.0957738
228,5.87408,7.97575,-0.0972051
228.5,5.88796,7.63668,-0.0974561
229,5.90181,7.3238,-0.0988692
229.5,5.91579,7.04661,-0.097728
230,5.93022,6.76939,-0.098376
230.5,5.94417,6.53722,-0.0989097
231,5.95859,6.31171,-0.100106
231.5,5.97282,6.11379,-0.102567
232,5.98724,5.93184,-0.104093
232.5,6.00148,5.75682,-0.105231
233,6.01568,5.6137,-0.105521
233.5,6.03032,5.4704,-0.106949
234,6.04468,5.34686,-0.107286
234.5,6.05941,5.22679,-0.108857
235,6.07408,5.11468,-0.10984
235.5,6.08852,5.03341,-0.11072
236,6.10337,4.94542,-0.112263
236.5,6.11795,4.87098,-0.113077
237,6.13261,4.79265,-0.113273
237.5,6.14673,4.72235,-0.114079
238,6.1612,4.66474,-0.114849
238.5,6.17595,4.61706,-0.11639
239,6.19097,4.56883,-0.117659
239.5,6.20562,4.51546,-0.11836
240,6.22056,4.48523,-0.120271
240.5,6.23515,4.45246,-0.121827
241,6.24983,4.42106,-0.123088
241.5,6.26484,4.38961,-0.12444
242,6.27966,4.37061,-0.126119
242.5,6.29406,4.33869,-0.128816
243,6.30884,4.31735,-0.130058
243.5,6.32407,4.30518,-0.131521
244,6.33894,4.28378,-0.133203
244.5,6.35336,4.27041,-0.134694
245,6.36853,4.2631,-0.136049
245.5,6.38311,4.253,-0.137777
246,6.39784,4.23857,-0.139871
246.5,6.41255,4.22676,-0.14165
247,6.42789,4.21948,-0.14308
247.5,6.44235,4.20971,-0.145367
248,6.4575,4.19845,-0.148294
248.5,6.4722,4.18297,-0.150203
249,6.48721,4.18883,-0.152847
249.5,6.50174,4.17606,-0.154886
250,6.51646,4.17449,-0.157834
250.5,6.53131,4.17056,-0.160583
251,6.54635,4.16277,-0.163612
251.5,6.56107,4.16014,-0.165863
252,6.57574,4.16198,-0.167913
252.5,6.5908,4.16882,-0.170402
253,6.60565,4.17552,-0.173714
253.5,6.6206,4.19028,-0.175972
254,6.6353,4.18464,-0.17904
254.5,6.6502,4.19032,-0.180481
255,6.66503,4.20365,-0.182336
255.5,6.6799,4.23298,-0.183902
256,6.69447,4.2517,-0.185874
256.5,6.70906,4.27493,-0.188436
257,6.72496,4.31047,-0.191217
257.5,6.73933,4.35644,-0.194244
258,6.75465,4.3963,-0.19847
258.5,6.76959,4.45899,-0.201417
259,6.78463,4.54695,-0.205555
259.5,6.79983,4.63998,-0.21106
260,6.81475,4.75276,-0.214143
260.5,6.83037,4.88782,-0.218674
261,6.84581,5.03598,-0.223058
261.5,6.86102,5.22236,-0.227586
262,6.87656,5.43486,-0.233792
262.5,6.89245,5.678,-0.23894
263,6.90829,5.95676,-0.245991
263.5,6.92399,6.2671,-0.252571
264,6.93993,6.60959,-0.258941
264.5,6.95616,6.9816,-0.267189
265,6.97242,7.37906,-0.273958
265.5,6.98886,7.80104,-0.283019
266,7.00496,8.23922,-0.291567
266.5,7.0216,8.69722,-0.300955
267,7.03813,9.16305,-0.312467
267.5,7.0546,9.64666,-0.322322
268,7.07067,10.092,-0.334575
268.5,7.08727,10.5635,-0.346133
269,7.10339,11.01,-0.358914
269.5,7.12021,11.4659,-0.374019
270,7.13683,11.9115,-0.386832
270.5,7.15297,12.3358,-0.403027
271,7.16918,12.7429,-0.416906
271.5,7.18538,13.1295,-0.43374
272,7.20168,13.503,-0.452444
272.5,7.21765,13.8571,-0.468841
273,7.234,14.2113,-0.490919
273.5,7.24966,14.518,-0.507609
274,7.26564,14.8256,-0.528535
274.5,7.28172,15.1182,-0.552014
275,7.29761,15.381,-0.572866
275.5,7.31323,15.6268,-0.599441
276,7.329,15.8485,-0.620894
276.5,7.34468,16.0547,-0.645705
277,7.36005,16.2336,-0.673388
277.5,7.37538,16.3909,-0.696952
278,7.39081,16.5165,-0.727196
278.5,7.40595,16.6328,-0.7532
279,7.42144,16.7187,-0.781768
279.5,7.43644,16.7698,-0.815602
280,7.45133,16.7975,-0.841359
280.5,7.46595,16.7941,-0.872422
281,7.48086,16.7291,-0.906557
281.5,7.49522,16.6382,-0.933918
282,7.50959,16.5205,-0.968553
282.5,7.52414,16.3605,-0.99994
283,7.53795,16.1666,-1.02886
283.5,7.55221,15.9276,-1.06679
284,7.56624,15.6564,-1.09564
284.5,7.57978,15.3549,-1.12544
285,7.59349,15.0051,-1.16187
285.5,7.60691,14.6322,-1.18852
286,7.62034,14.206,-1.21769
286.5,7.63382,13.7466,-1.25177
287,7.64671,13.2741,-1.27527
287.5,7.65985,12.7479,-1.30241
288,7.67271,12.1921,-1.33371
288.5,7.68565,11.6083,-1.35743
289,7.69835,11.0099,-1.38166
289.5,7.71144,10.3504,-1.41141
290,7.7238,9.72714,-1.43409
290.5,7.73648,9.07885,-1.45589
291,7.7491,8.42778,-1.48083
291.5,7.76173,7.79591,-1.50253
292,7.77451,7.17083,-1.52074
292.5,7.78718,6.58486,-1.54155
293,7.80016,6.00371,-1.56263
293.5,7.81303,5.48269,-1.57767
294,7.82607,4.98856,-1.59502
294.5,7.83971,4.51369,-1.61268
295,7.8531,4.09975,-1.62501
295.5,7.8665,3.72673,-1.63889
296,7.87996,3.38807,-1.65202
296.5,7.89386,3.08101,-1.66157
297,7.90755,2.81716,-1.67209
297.5,7.92165,2.57368,-1.6817
298,7.9357,2.37346,-1.68936
298.5,7.94979,2.18374,-1.69811
299,7.96388,2.01941,-1.70482
299.5,7.97804,1.88415,-1.71132
300,7.9917,1.76202,-1.71834
300.5,8.00649,1.65239,-1.7237
301,8.0206,1.56069,-1.72924
301.5,8.03513,1.48088,-1.73605
302,8.04933,1.40779,-1.74023
302.5,8.06459,1.3397,-1.74544
303,8.07914,1.28834,-1.75037
303.5,8.09389,1.2464,-1.75391
304,8.10825,1.2101,-1.75792
304.5,8.12314,1.17186,-1.7617
305,8.13757,1.14243,-1.76566
305.5,8.15214,1.11422,-1.7695
306,8.16718,1.085,-1.77303
306.5,8.18165,1.07505,-1.77637
307,8.19661,1.06169,-1.7799
307.5,8.21129,1.03669,-1.78239
308,8.22562,1.02059,-1.7862
308.5,8.24076,1.01488,-1.78975
309,8.25513,1.00075,-1.79249
309.5,8.27009,0.998112,-1.79578
310,8.28482,0.987232,-1.79855
310.5,8.29978,0.977046,-1.8029
311,8.31455,0.961017,-1.80671
311.5,8.32929,0.951161,-1.80957
312,8.34398,0.938134,-1.81224
312.5,8.35899,0.938483,-1.81525
313,8.37342,0.937365,-1.81691
313.5,8.38869,0.927205,-1.81992
314,8.40338,0.926778,-1.82321
314.5,8.41765,0.91802,-1.82399
315,8.43284,0.903646,-1.82726
315.5,8.44762,0.895381,-1.82944
316,8.46264,0.892631,-1.83198
316.5,8.47737,0.88083,-1.83457
317,8.49218,0.876028,-1.83702
317.5,8.50714,0.86808,-1.84083
318,8.52178,0.867773,-1.84286
318.5,8.53684,0.863866,-1.84588
319,8.5515,0.851431,-1.84848
319.5,8.56657,0.83874,-1.85041
320,8.58132,0.829327,-1.85316
320.5,8.5963,0.819568,-1.85564
321,8.61102,0.808026,-1.85872
321.5,8.62565,0.804832,-1.86075
322,8.64044,0.796586,-1.86305
322.5,8.65527,0.782279,-1.86596
323,8.67032,0.771711,-1.86768
323.5,8.68509,0.763818,-1.87001
324,8.69995,0.755891,-1.87205
324.5,8.71512,0.742789,-1.87397
325,8.72965,0.735644,-1.87618
325.5,8.74433,0.730132,-1.878
326,8.75931,0.716071,-1.88064
326.5,8.7742,0.705539,-1.88265
327,8.7891,0.702776,-1.88497
327.5,8.80393,0.688518,-1.88778
328,8.81885,0.678899,-1.88936
328.5,8.83353,0.66325,-1.89214
329,8.84851,0.653611,-1.89432
329.5,8.86322,0.641679,-1.89589
330,8.87804,0.627546,-1.89836
330.5,8.89301,0.616187,-1.90072
331,8.90774,0.608046,-1.90449
331.5,8.92286,0.598279,-1.90669
332,8.93736,0.592289,-1.9095
332.5,8.95239,0.580276,-1.91233
333,8.96734,0.56949,-1.91388
333.5,8.98227,0.560408,-1.91633
334,8.9972,0.553116,-1.91869
334.5,9.01188,0.537849,-1.92142
335,9.02658,0.532675,-1.92412
335.5,9.04184,0.522406,-1.9264
336,9.05643,0.513601,-1.9288
336.5,9.07142,0.514417,-1.93005
337,9.08653,0.503554,-1.93242
337.5,9.10142,0.491304,-1.93478
338,9.11611,0.483532,-1.93664
338.5,9.13114,0.474277,-1.9393
339,9.14598,0.465501,-1.9414
339.5,9.16094,0.456021,-1.94453
340,9.17572,0.448098,-1.94661
340.5,9.19089,0.439435,-1.94926
341,9.20569,0.429971,-1.95231
341.5,9.22068,0.422862,-1.95411
342,9.23545,0.425128,-1.95688
342.5,9.2504,0.418273,-1.95918
343,9.26536,0.414586,-1.96138
343.5,9.2803,0.404716,-1.96429
344,9.29514,0.395008,-1.96659
344.5,9.30992,0.38753,-1.96952
345,9.32544,0.37584,-1.9718
345.5,9.34014,0.372235,-1.97382
346,9.35488,0.358906,-1.97616
346.5,9.37011,0.355217,-1.97699
347,9.38502,0.350409,-1.97997
347.5,9.40001,0.343884,-1.98255
348,9.41488,0.337242,-1.98445
348.5,9.42983,0.326114,-1.9873
349,9.445,0.321651,-1.98942
349.5,9.45974,0.313734,-1.99221
350,9.47507,0.306527,-1.99451
350.5,9.48959,0.302695,-1.99793
351,9.50471,0.301189,-2.00104
351.5,9.51984,0.295794,-2.00235
352,9.53501,0.293687,-2.00437
352.5,9.54982,0.28863,-2.00698
353,9.56491,0.291682,-2.00934
353.5,9.57969,0.282982,-2.01217
354,9.59511,0.281725,-2.0124
354.5,9.60967,0.279466,-2.01427
355,9.62477,0.27487,-2.0175
355.5,9.63997,0.271025,-2.01865
356,9.65503,0.278697,-2.02093
356.5,9.66974,0.280047,-2.0228
357,9.685,0.281145,-2.02458
357.5,9.70005,0.276574,-2.0269
358,9.71487,0.283354,-2.02891
358.5,9.73029,0.278492,-2.03149
359,9.74471,0.284908,-2.03316
359.5,9.76044,0.282378,-2.03532
360,9.7752,0.277393,-2.03786
360.5,9.79034,0.290331,-2.03949
361,9.80575,0.293836,-2.04199
361.5,9.8206,0.296686,-2.04398
362,9.83526,0.302904,-2.04568
362.5,9.85061,0.320534,-2.04815
363,9.86533,0.320232,-2.05017
363.5,9.88025,0.325959,-2.05316
364,9.89513,0.332558,-2.0551
364.5,9.91057,0.340673,-2.05651
365,9.92615,0.34795,-2.05819
365.5,9.94137,0.360389,-2.06088
366,9.9564,0.374554,-2.06288
366.5,9.97155,0.379321,-2.06551
367,9.98665,0.38449,-2.06847
367.5,10.0016,0.392737,-2.0698
368,10.0167,0.396621,-2.07145
368.5,10.0322,0.408907,-2.07274
369,10.0471,0.418828,-2.07373
369.5,10.0624,0.435098,-2.07472
370,10.0775,0.444132,-2.0762
370.5,10.0928,0.450903,-2.07885
371,10.1075,0.45468,-2.08104
371.5,10.123,0.469683,-2.08348
372,10.138,0.481533,-2.08538
372.5,10.1528,0.494101,-2.08716
373,10.1683,0.506233,-2.08815
373.5,10.1836,0.512685,-2.08924
374,10.1985,0.524418,-2.09081
374.5,10.2139,0.537859,-2.09284
375,10.2289,0.549628,-2.09494
375.5,10.2441,0.561487,-2.09674
376,10.2593,0.574882,-2.09896
376.5,10.2746,0.585065,-2.10099
377,10.2896,0.593896,-2.1033
377.5,10.3051,0.595937,-2.10527
378,10.3199,0.612419,-2.10577
378.5,10.3353,0.612937,-2.10705
379,10.3503,0.631127,-2.10867
379.5,10.3659,0.640879,-2.11076
380,10.3812,0.653564,-2.11216
380.5,10.3963,0.672586,-2.11476
381,10.4114,0.68761,-2.11645
381.5,10.4264,0.700456,-2.11812
382,10.4418,0.709455,-2.11945
382.5,10.4571,0.722611,-2.12066
383,10.4723,0.730462,-2.12241
383.5,10.4874,0.737819,-2.12441
384,10.5027,0.738192,-2.12461
384.5,10.5177,0.747079,-2.12579
385,10.5331,0.762556,-2.12721
385.5,10.5483,0.780582,-2.12892
386,10.5635,0.788142,-2.12989
386.5,10.5788,0.797877,-2.13157
387,10.5943,0.801242,-2.13286
387.5,10.6093,0.813832,-2.13421
388,10.6246,0.816522,-2.13555
388.5,10.6399,0.828896,-2.13692
389,10.6551,0.834801,-2.13853
389.5,10.6699,0.84037,-2.13986
390,10.6856,0.849849,-2.14202
390.5,10.7009,0.857263,-2.14419
391,10.7164,0.865164,-2.14557
391.5,10.7314,0.877606,-2.14698
392,10.7467,0.873932,-2.14861
392.5,10.7619,0.88787,-2.15025
393,10.7774,0.90262,-2.15172
393.5,10.7926,0.91418,-2.1531
394,10.8077,0.915884,-2.15342
394.5,10.8231,0.909429,-2.15401
395,10.8382,0.922226,-2.15364
395.5,10.8535,0.938856,-2.15536
396,10.8688,0.947053,-2.15643
396.5,10.884,0.951567,-2.15776
397,10.8994,0.956258,-2.16009
397.5,10.9149,0.962691,-2.1621
398,10.9304,0.967914,-2.1632
398.5,10.9455,0.974983,-2.16393
399,10.9607,0.980808,-2.16571
399.5,10.976,0.982837,-2.16794
400,10.9915,0.985144,-2.16929
400.5,11.0069,0.992221,-2.17082
401,11.0221,0.997671,-2.17089
401.5,11.0371,1.00433,-2.17099
402,11.0528,1.01138,-2.17195
402.5,11.0682,1.01832,-2.17296
403,11.0835,1.01507,-2.1745
403.5,11.0984,1.02043,-2.17561
404,11.1133,1.02972,-2.17693
404.5,11.1288,1.03682,-2.17849
405,11.1443,1.03961,-2.18017
405.5,11.1598,1.04853,-2.18154
406,11.1756,1.04245,-2.18206
406.5,11.1904,1.04456,-2.18338
407,11.2056,1.05188,-2.18341
407.5,11.2215,1.06259,-2.18593
408,11.2366,1.06258,-2.18746
408.5,11.2522,1.06546,-2.18844
409,11.2675,1.06978,-2.19028
409.5,11.2827,1.0739,-2.19063
410,11.2985,1.07759,-2.19182
410.5,11.3137,1.08892,-2.19281
411,11.3289,1.09465,-2.19385
411.5,11.3444,1.09982,-2.19439
412,11.3597,1.1018,-2.1952
412.5,11.3751,1.11307,-2.1961
413,11.3904,1.11507,-2.19729
413.5,11.4056,1.11702,-2.19764
414,11.421,1.11775,-2.19922
414.5,11.4368,1.11719,-2.20032
415,11.4518,1.1197,-2.20121
415.5,11.4673,1.12515,-2.20265
416,11.4825,1.1282,-2.203
416.5,11.4976,1.13656,-2.20476
417,11.513,1.13296,-2.20622
417.5,11.529,1.13613,-2.20739
418,11.5444,1.1356,-2.20875
418.5,11.5599,1.14114,-2.21052
419,11.5749,1.15027,-2.21071
419.5,11.5908,1.15275,-2.21171
420,11.6059,1.15137,-2.21249
420.5,11.6215,1.15349,-2.21342
421,11.6371,1.15486,-2.21529
421.5,11.6519,1.16058,-2.21593
422,11.6672,1.15943,-2.21704
422.5,11.683,1.16733,-2.21872
423,11.6984,1.16555,-2.21966
423.5,11.7138,1.17058,-2.22086
424,11.7293,1.17742,-2.22098
424.5,11.7446,1.17461,-2.22221
425,11.7601,1.1763,-2.22272
425.5,11.7755,1.17906,-2.22398
426,11.7911,1.17593,-2.22523
426.5,11.8066,1.18348,-2.22562
427,11.8217,1.18357,-2.22663
427.5,11.8374,1.1821,-2.22745
428,11.8523,1.18755,-2.22818
428.5,11.868,1.18106,-2.22991
429,11.8837,1.18086,-2.23037
429.5,11.8991,1.17803,-2.23163
430,11.9146,1.18315,-2.23323
430.5,11.9298,1.19047,-2.23348
431,11.9455,1.19647,-2.23485
431.5,11.9609,1.19028,-2.23552
432,11.9763,1.19016,-2.2369
432.5,11.9919,1.19413,-2.23862
433,12.0072,1.19343,-2.23975
433.5,12.0228,1.19083,-2.24064
434,12.0384,1.19954,-2.24085
434.5,12.054,1.19764,-2.24218
435,12.0694,1.20391,-2.24374
435.5,12.0848,1.20644,-2.24495
436,12.1,1.20989,-2.24545
436.5,12.1156,1.21375,-2.2466
437,12.1313,1.21119,-2.24787
437.5,12.1466,1.21233,-2.24892
438,12.1623,1.21091,-2.2505
438.5,12.1778,1.21886,-2.25246
439,12.1931,1.20995,-2.25379
439.5,12.209,1.21082,-2.25411
440,12.2243,1.21648,-2.25642
440.5,12.2394,1.22015,-2.2582
441,12.2552,1.22928,-2.26096
441.5,12.2706,1.22596,-2.26224
442,12.2864,1.22516,-2.26267
442.5,12.3017,1.22709,-2.26236
443,12.3175,1.22956,-2.2624
443.5,12.3327,1.24292,-2.26225
444,12.3483,1.23545,-2.26255
444.5,12.3637,1.23187,-2.26212
445,12.3793,1.23944,-2.2633
445.5,12.3949,1.23838,-2.2641
446,12.4105,1.24604,-2.26588
446.5,12.426,1.24628,-2.26737
447,12.4416,1.25022,-2.26808
447.5,12.4569,1.24905,-2.26922
448,12.4724,1.24859,-2.27037
448.5,12.4881,1.25578,-2.27071
449,12.5038,1.2638,-2.27218
449.5,12.5191,1.26731,-2.27318
450,12.5348,1.2647,-2.27413
450.5,12.5505,1.26998,-2.27561
451,12.5658,1.27186,-2.2757
451.5,12.5812,1.2756,-2.27696
452,12.5972,1.2778,-2.27824
452.5,12.6124,1.28438,-2.28028
453,12.6281,1.28586,-2.28148
453.5,12.6437,1.29226,-2.2828
454,12.6594,1.29536,-2.28405
454.5,12.6749,1.30117,-2.28531
455,12.6906,1.30277,-2.28522
455.5,12.7061,1.30262,-2.28651
456,12.7217,1.30804,-2.28727
456.5,12.7371,1.31531,-2.29025
457,12.753,1.32906,-2.29186
457.5,12.7686,1.32526,-2.29324
458,12.7842,1.32775,-2.29369
458.5,12.7997,1.33459,-2.29339
459,12.8153,1.33951,-2.29412
459.5,12.8308,1.34,-2.294
460,12.8467,1.35512,-2.29506
460.5,12.8621,1.3548,-2.29648
461,12.8776,1.35519,-2.29705
461.5,12.8933,1.37015,-2.29757
462,12.9091,1.36392,-2.29885
462.5,12.9246,1.37052,-2.30022
463,12.9403,1.37784,-2.30078
463.5,12.956,1.3906,-2.30206
464,12.9715,1.39107,-2.30362
464.5,12.9871,1.39935,-2.3045
465,13.0027,1.40897,-2.30558
465.5,13.0183,1.40321,-2.30651
466,13.0336,1.40947,-2.30711
466.5,13.049,1.42261,-2.30783
467,13.0649,1.43045,-2.3085
467.5,13.0812,1.434,-2.30994
468,13.0966,1.44324,-2.31074
468.5,13.1123,1.45162,-2.31214
469,13.1281,1.46154,-2.31345
469.5,13.1439,1.46112,-2.31385
470,13.1591,1.46599,-2.31553
470.5,13.1752,1.47757,-2.31617
471,13.1909,1.47989,-2.31704
471.5,13.2063,1.48821,-2.31825
472,13.2213,1.48648,-2.3191
472.5,13.2375,1.49889,-2.32074
473,13.2533,1.50054,-2.32209
473.5,13.2692,1.50789,-2.32308
474,13.2849,1.51615,-2.32427
474.5,13.3007,1.52589,-2.32605
475,13.3161,1.53443,-2.32822
475.5,13.3319,1.53274,-2.32944
476,13.3475,1.53957,-2.32991
476.5,13.3635,1.54931,-2.33227
477,13.3789,1.56163,-2.33261
477.5,13.3947,1.56913,-2.33397
478,13.4106,1.57191,-2.33507
478.5,13.4261,1.58131,-2.33575
479,13.442,1.58895,-2.33733
479.5,13.4576,1.58791,-2.3382
480,13.4735,1.59433,-2.3392
480.5,13.4892,1.59815,-2.34088
481,13.5048,1.60708,-2.3418
481.5,13.5204,1.61275,-2.34324
482,13.5358,1.61324,-2.34465
482.5,13.5515,1.6177,-2.34492
483,13.5679,1.61858,-2.34625
483.5,13.5835,1.62371,-2.34612
484,13.5992,1.63075,-2.3472
484.5,13.6151,1.63637,-2.34758
485,13.6307,1.63715,-2.34926
485.5,13.6466,1.63663,-2.351
486,13.6622,1.64656,-2.35238
486.5,13.678,1.64238,-2.35344
487,13.6939,1.65188,-2.35497
487.5,13.7094,1.65912,-2.35523
488,13.7253,1.6609,-2.35649
488.5,13.741,1.66832,-2.35628
489,13.7568,1.67557,-2.35668
489.5,13.7727,1.67778,-2.35828
490,13.7883,1.68661,-2.35959
490.5,13.8042,1.68984,-2.36085
491,13.8201,1.69514,-2.36256
491.5,13.8356,1.69139,-2.36342
492,13.8515,1.69712,-2.36451
492.5,13.8671,1.69938,-2.36624
493,13.8832,1.70334,-2.36667
493.5,13.8986,1.70218,-2.36778
494,13.9145,1.7075,-2.36878
494.5,13.9304,1.7132,-2.36938
495,13.946,1.71152,-2.37089
495.5,13.9618,1.71009,-2.37153
496,13.9777,1.70447,-2.37262
496.5,13.9933,1.70398,-2.37422
497,14.0092,1.69807,-2.37524
497.5,14.0249,1.69059,-2.37611
498,14.0408,1.69457,-2.37778
498.5,14.0565,1.69968,-2.37988
499,14.0723,1.69238,-2.38143
499.5,14.088,1.68639,-2.38241
500,14.1039,1.6807,-2.38389
500.5,14.1198,1.68018,-2.384
501,14.1356,1.6757,-2.38581
501.5,14.1514,1.68289,-2.38652
502,14.1673,1.6777,-2.38782
502.5,14.1829,1.67089,-2.39016
503,14.1985,1.66234,-2.39128
503.5,14.2144,1.65784,-2.39261
504,14.2304,1.64976,-2.39363
504.5,14.2457,1.65336,-2.39426
505,14.2617,1.64484,-2.39586
505.5,14.2779,1.63122,-2.39703
506,14.2935,1.63273,-2.39766
506.5,14.3085,1.62688,-2.39866
507,14.3245,1.62025,-2.39915
507.5,14.341,1.61207,-2.4006
508,14.3566,1.60081,-2.39997
508.5,14.3725,1.59123,-2.40101
509,14.3884,1.58335,-2.40093
509.5,14.4039,1.57739,-2.40146
510,14.42,1.57018,-2.40234
510.5,14.4358,1.56229,-2.40361
511,14.4516,1.56121,-2.40481
511.5,14.4673,1.55737,-2.40597
512,14.4832,1.54535,-2.40743
512.5,14.4989,1.53403,-2.40869
513,14.5148,1.52761,-2.40956
513.5,14.5306,1.51048,-2.41102
514,14.5465,1.50032,-2.41185
514.5,14.5623,1.49322,-2.41274
515,14.5784,1.47911,-2.41428
515.5,14.5941,1.46391,-2.41439
516,14.61,1.45483,-2.41587
516.5,14.6252,1.44742,-2.4163
517,14.6415,1.43667,-2.41758
517.5,14.6573,1.42416,-2.41836
518,14.6732,1.41591,-2.41897
518.5,14.6891,1.40175,-2.41969
519,14.7048,1.39114,-2.42039
519.5,14.7207,1.38361,-2.42046
520,14.7366,1.37688,-2.42187
520.5,14.7519,1.35788,-2.42184
521,14.7676,1.34085,-2.42368
521.5,14.784,1.32989,-2.42377
522,14.7997,1.31758,-2.42521
522.5,14.8158,1.31373,-2.42546
523,14.8317,1.29967,-2.42672
523.5,14.8473,1.29283,-2.42715
524,14.8633,1.27836,-2.428
524.5,14.879,1.26142,-2.42811
525,14.8947,1.2561,-2.42946
525.5,14.9108,1.24322,-2.42973
526,14.9267,1.23464,-2.43106
526.5,14.9426,1.23069,-2.43143
527,14.9585,1.21922,-2.43252
527.5,14.9743,1.21145,-2.43269
528,14.9902,1.20229,-2.43386
528.5,15.006,1.19593,-2.43415
529,15.0222,1.18594,-2.43527
529.5,15.0378,1.17759,-2.43522
530,15.0536,1.17286,-2.43518
530.5,15.0696,1.16585,-2.43566
531,15.0855,1.16058,-2.43552
531.5,15.1014,1.15676,-2.43585
532,15.1172,1.1369,-2.43712
532.5,15.1332,1.13178,-2.43722
533,15.1492,1.12768,-2.43862
533.5,15.1651,1.11743,-2.43849
534,15.1807,1.11452,-2.43958
534.5,15.1967,1.10452,-2.43979
535,15.2124,1.09671,-2.4405
535.5,15.2287,1.08755,-2.44112
536,15.2445,1.08709,-2.44171
536.5,15.2604,1.08606,-2.44269
537,15.2766,1.08423,-2.44343
537.5,15.2924,1.07913,-2.44413
538,15.3081,1.07007,-2.44407
538.5,15.3248,1.07041,-2.4447
539,15.3405,1.06498,-2.44546
539.5,15.3564,1.05351,-2.44585
540,15.3723,1.05031,-2.44694
540.5,15.3881,1.05138,-2.44708
541,15.4043,1.04447,-2.44836
541.5,15.42,1.04179,-2.44842
542,15.4362,1.04017,-2.44985
542.5,15.4518,1.03832,-2.44979
543,15.4679,1.03598,-2.44981
543.5,15.484,1.03371,-2.44981
544,15.5,1.02976,-2.45061
544.5,15.5158,1.02366,-2.45113
545,15.5317,1.02004,-2.45123
545.5,15.5479,1.01614,-2.45265
546,15.5636,1.01331,-2.45254
546.5,15.5797,1.01773,-2.45259
547,15.5956,1.01783,-2.45388
547.5,15.6118,1.01878,-2.45385
548,15.6278,1.01874,-2.45388
548.5,15.6436,1.01308,-2.45515
549,15.6597,1.00605,-2.45527
549.5,15.6759,1.00776,-2.45529
550,15.6916,1.00769,-2.4559
550.5,15.7078,1.0168,-2.45664
551,15.7237,1.00514,-2.45654
551.5,15.7397,1.01068,-2.45791
552,15.7553,1.01128,-2.45768
552.5,15.7716,1.01349,-2.45829
553,15.7869,1.00842,-2.45903
553.5,15.8037,1.00428,-2.45903
554,15.8194,1.00586,-2.45899
554.5,15.8354,1.00227,-2.45968
555,15.8514,1.00356,-2.4605
555.5,15.8677,1.00967,-2.46031
556,15.8834,1.01116,-2.46234
556.5,15.8997,1.00811,-2.46276
557,15.9155,1.00411,-2.46276
557.5,15.9319,1.0073,-2.46288
558,15.9474,1.00816,-2.46415
558.5,15.9637,1.00551,-2.46409
559,15.9797,1.00793,-2.46444
559.5,15.9956,0.997892,-2.46551
560,16.0114,0.998649,-2.46614
560.5,16.0277,1.00644,-2.46707
561,16.0436,1.00434,-2.46841
561.5,16.0599,1.00237,-2.46851
562,16.0756,1.00688,-2.46925
562.5,16.0917,1.00049,-2.46994
563,16.1078,1.00181,-2.4699
563.5,16.1241,1.01187,-2.4699
564,16.1397,1.01411,-2.46986
564.5,16.1556,1.00374,-2.47058
565,16.1721,1.00022,-2.47126
565.5,16.188,1.00718,-2.47062
566,16.2041,1.00136,-2.47048
566.5,16.2201,1.00684,-2.47164
567,16.2361,1.00709,-2.47155
567.5,16.2523,1.00087,-2.47146
568,16.2682,1.00168,-2.4727
568.5,16.2843,1.01541,-2.47286
569,16.3004,1.01621,-2.47281
569.5,16.3163,1.01544,-2.47359
570,16.3326,1.01437,-2.47421
570.5,16.3486,1.01133,-2.47412
571,16.3647,1.01059,-2.4751
571.5,16.3807,1.01505,-2.4755
572,16.3966,1.01188,-2.47549
572.5,16.4127,1.00878,-2.47593
573,16.4288,1.00968,-2.47687
573.5,16.4443,1.00372,-2.47667
574,16.4612,0.999927,-2.47757
574.5,16.4769,1.00582,-2.47779
575,16.493,1.01036,-2.47745
575.5,16.5092,1.01148,-2.47785
576,16.5255,1.01473,-2.47779
576.5,16.5413,1.00953,-2.47836
577,16.5575,1.0131,-2.47913
577.5,16.5733,1.01556,-2.47912
578,16.5894,1.01849,-2.47914
578.5,16.6057,1.01652,-2.47913
579,16.6218,1.01663,-2.48039
579.5,16.6379,1.01486,-2.48043
580,16.6538,1.01467,-2.48114
580.5,16.6696,1.01667,-2.48322
581,16.6857,1.01923,-2.48404
581.5,16.7016,1.00515,-2.48458
582,16.7175,1.0052,-2.48505
582.5,16.7336,1.01456,-2.48409
583,16.7503,1.02195,-2.48358
583.5,16.7663,1.02279,-2.48284
584,16.7826,1.02035,-2.48404
584.5,16.7982,1.01936,-2.48416
585,16.8147,1.03033,-2.48417
585.5,16.8308,1.03286,-2.48425
586,16.8471,1.03358,-2.48565
586.5,16.863,1.03223,-2.48433
587,16.8793,1.02881,-2.48412
587.5,16.8953,1.04177,-2.4848
588,16.9117,1.04285,-2.48552
588.5,16.9275,1.0397,-2.48548
589,16.9437,1.04848,-2.48548
589.5,16.9598,1.04427,-2.4855
590,16.9756,1.05157,-2.48549
590.5,16.9923,1.04795,-2.48677
591,17.0079,1.04477,-2.48681
591.5,17.0241,1.05022,-2.48823
592,17.0402,1.04008,-2.48831
592.5,17.0566,1.04331,-2.48834
593,17.0729,1.05027,-2.48833
593.5,17.0889,1.05737,-2.48902
594,17.1049,1.05892,-2.48966
594.5,17.1214,1.06124,-2.48965
595,17.137,1.06368,-2.48962
595.5,17.1534,1.06058,-2.49047
596,17.1697,1.05485,-2.49038
596.5,17.1857,1.05536,-2.48961
597,17.2018,1.05603,-2.49001
597.5,17.2179,1.05949,-2.49103
598,17.2342,1.06945,-2.49098
598.5,17.25,1.06613,-2.49098
599,17.2666,1.06206,-2.49097
599.5,17.2823,1.06032,-2.49136
600,17.2986,1.0673,-2.49259
600.5,17.3148,1.0688,-2.49278
601,17.3309,1.06712,-2.49404
601.5,17.347,1.07106,-2.49393
602,17.3634,1.07801,-2.49441
602.5,17.3793,1.07016,-2.49563
603,17.3955,1.07597,-2.49629
603.5,17.412,1.07484,-2.49726
604,17.428,1.07893,-2.49753
604.5,17.4442,1.07857,-2.49758
605,17.4604,1.08095,-2.498
605.5,17.4766,1.08086,-2.49899
606,17.4928,1.08742,-2.49894
606.5,17.5083,1.07948,-2.49987
607,17.5252,1.09073,-2.5003
607.5,17.5412,1.0835,-2.50032
608,17.5575,1.0854,-2.50073
608.5,17.5738,1.08915,-2.50193
609,17.5897,1.08536,-2.50196
609.5,17.6061,1.08451,-2.50197
610,17.6222,1.08765,-2.50312
610.5,17.6383,1.10209,-2.50326
611,17.6547,1.09271,-2.50327
611.5,17.6708,1.0962,-2.50328
612,17.6872,1.10028,-2.50334
612.5,17.7031,1.10183,-2.50449
613,17.7196,1.10038,-2.50457
613.5,17.7358,1.11189,-2.50456
614,17.7518,1.11344,-2.50441
614.5,17.7683,1.11031,-2.50414
615,17.7844,1.10887,-2.50523
615.5,17.8007,1.1147,-2.50524
616,17.8166,1.11813,-2.50525
616.5,17.8333,1.11615,-2.50638
617,17.8489,1.11415,-2.50653
617.5,17.8656,1.11581,-2.50656
618,17.8818,1.12294,-2.50692
618.5,17.8982,1.12445,-2.50793
619,17.9141,1.13594,-2.50788
619.5,17.9304,1.13368,-2.50787
620,17.9466,1.12917,-2.50831
620.5,17.9632,1.13688,-2.50924
621,17.9792,1.13722,-2.5092
621.5,17.9956,1.13913,-2.50919
622,18.0117,1.13638,-2.50928
622.5,18.0282,1.14031,-2.51063
623,18.0443,1.14701,-2.5098
623.5,18.0603,1.14464,-2.50935
624,18.0769,1.14198,-2.50844
624.5,18.093,1.14331,-2.50963
625,18.1094,1.14684,-2.5097
625.5,18.1256,1.14818,-2.51042
626,18.1418,1.1543,-2.51112
626.5,18.1581,1.16143,-2.51118
627,18.1745,1.17055,-2.51234
627.5,18.1909,1.17212,-2.51238
628,18.2069,1.16997,-2.51243
628.5,18.223,1.17093,-2.5136
629,18.2395,1.17779,-2.51368
629.5,18.2558,1.1851,-2.51369
630,18.2725,1.18264,-2.51438
630.5,18.2875,1.18552,-2.51502
631,18.304,1.18614,-2.51501
631.5,18.3207,1.19576,-2.51497
632,18.3374,1.1946,-2.51587
632.5,18.3535,1.1987,-2.51684
633,18.3698,1.20245,-2.51771
633.5,18.3859,1.21142,-2.51767
634,18.4022,1.21276,-2.51765
634.5,18.4186,1.21185,-2.51789
635,18.4347,1.21909,-2.51762
635.5,18.4509,1.22105,-2.5176
636,18.4674,1.22298,-2.51847
636.5,18.4833,1.23083,-2.51902
637,18.4995,1.23776,-2.51933
637.5,18.5165,1.23613,-2.5203
638,18.5326,1.23347,-2.5202
638.5,18.5489,1.23746,-2.52148
639,18.5654,1.23401,-2.52161
639.5,18.5816,1.23136,-2.52092
640,18.5979,1.23852,-2.52025
640.5,18.6144,1.25071,-2.52084
641,18.6307,1.25473,-2.52165
641.5,18.6468,1.25426,-2.5216
642,18.663,1.25659,-2.5216
642.5,18.6795,1.2631,-2.52164
643,18.696,1.2708,-2.52295
643.5,18.7122,1.27253,-2.5229
644,18.7286,1.27569,-2.52288
644.5,18.7448,1.2753,-2.52353
645,18.7611,1.27925,-2.52429
645.5,18.7777,1.28772,-2.52426
646,18.7939,1.29412,-2.52544
646.5,18.8101,1.30087,-2.52552
647,18.8265,1.29223,-2.52555
647.5,18.8427,1.30048,-2.52555
648,18.8587,1.31014,-2.52552
648.5,18.8752,1.30681,-2.52619
649,18.8914,1.2973,-2.52691
649.5,18.9078,1.30426,-2.52687
650,18.9244,1.31263,-2.52687
650.5,18.9406,1.32301,-2.52774
651,18.9567,1.33219,-2.52817
651.5,18.9735,1.33356,-2.52822
652,18.9894,1.33957,-2.52854
652.5,19.0063,1.34347,-2.52951
653,19.0224,1.35294,-2.52952
653.5,19.0385,1.35338,-2.52965
654,19.0551,1.36237,-2.53081
654.5,19.0715,1.35841,-2.53083
655,19.0876,1.37361,-2.53098
655.5,19.1041,1.3774,-2.53213
656,19.1198,1.38505,-2.53214
656.5,19.1365,1.38946,-2.53214
657,19.1533,1.39598,-2.53215
657.5,19.1694,1.39901,-2.53234
658,19.1858,1.40662,-2.53347
658.5,19.2018,1.39195,-2.53345
659,19.2185,1.41395,-2.53344
659.5,19.2348,1.42099,-2.53355
660,19.2512,1.41772,-2.53479
660.5,19.2676,1.41334,-2.53509
661,19.2837,1.4249,-2.53506
661.5,19.3005,1.41802,-2.53617
662,19.3166,1.42313,-2.53636
662.5,19.3329,1.43387,-2.53785
663,19.3493,1.44075,-2.53915
663.5,19.3656,1.43786,-2.53906
664,19.3819,1.44005,-2.53899
664.5,19.3984,1.44149,-2.53994
665,19.4146,1.43299,-2.53919
665.5,19.431,1.44722,-2.53924
666,19.4476,1.4582,-2.54056
666.5,19.4639,1.4537,-2.54047
667,19.48,1.46314,-2.54048
667.5,19.4965,1.46654,-2.54048
668,19.5126,1.46314,-2.54038
668.5,19.5293,1.46493,-2.5417
669,19.5456,1.46741,-2.5418
669.5,19.5619,1.469,-2.54179
670,19.5784,1.46777,-2.54176
670.5,19.5947,1.47639,-2.54248
671,19.6109,1.48423,-2.54197
671.5,19.6275,1.49686,-2.54181
672,19.6439,1.50704,-2.54181
672.5,19.6601,1.50499,-2.54181
673,19.6764,1.50613,-2.54223
673.5,19.6931,1.50851,-2.54329
674,19.7093,1.51416,-2.54327
674.5,19.7258,1.51558,-2.54457
675,19.742,1.51556,-2.54452
675.5,19.7585,1.5239,-2.54449
676,19.7748,1.54248,-2.54548
676.5,19.7914,1.54306,-2.54588
677,19.8075,1.54282,-2.54587
677.5,19.824,1.5517,-2.54609
678,19.8401,1.55343,-2.54729
678.5,19.8563,1.55852,-2.54721
679,19.8726,1.57653,-2.54748
679.5,19.8892,1.57166,-2.54881
680,19.9058,1.57019,-2.54976
680.5,19.9221,1.58321,-2.54982
681,19.9385,1.5914,-2.54995
681.5,19.9555,1.58396,-2.55123
682,19.9716,1.58054,-2.54994
682.5,19.9878,1.58141,-2.55024
683,20.0041,1.59851,-2.55051
683.5,20.0207,1.5983,-2.54966
684,20.037,1.6077,-2.5505
684.5,20.0535,1.615,-2.55105
685,20.0698,1.60734,-2.55149
685.5,20.0863,1.62272,-2.55398
686,20.1023,1.63651,-2.55386
686.5,20.1188,1.63545,-2.55454
687,20.1348,1.64218,-2.55521
687.5,20.1518,1.65008,-2.5552
688,20.1681,1.6506,-2.55578
688.5,20.1844,1.65496,-2.55622
689,20.2009,1.65971,-2.55517
689.5,20.217,1.65256,-2.55514
690,20.2337,1.66123,-2.55715
690.5,20.2499,1.6688,-2.55909
691,20.2664,1.67553,-2.56011
691.5,20.2826,1.67626,-2.56097
692,20.2993,1.68003,-2.55969
692.5,20.3157,1.68444,-2.55802
693,20.3319,1.68539,-2.55819
693.5,20.3482,1.70336,-2.55803
694,20.3647,1.71202,-2.55789
694.5,20.3813,1.71615,-2.55931
695,20.3975,1.70754,-2.55851
695.5,20.4142,1.71054,-2.5585
696,20.4303,1.71828,-2.55856
696.5,20.4465,1.71972,-2.55985
697,20.4634,1.72193,-2.55979
697.5,20.4796,1.72531,-2.55979
698,20.4962,1.72865,-2.5602
698.5,20.5125,1.72971,-2.5613
699,20.5287,1.73293,-2.56137
699.5,20.5451,1.73893,-2.56275
700,20.5618,1.74984,-2.56275
700.5,20.5781,1.74686,-2.56277
701,20.5944,1.75354,-2.56277
701.5,20.6108,1.75638,-2.56272
702,20.627,1.75536,-2.56355
702.5,20.6434,1.76197,-2.56411
703,20.6605,1.76343,-2.56401
703.5,20.6765,1.76226,-2.56515
704,20.6933,1.764,-2.56541
704.5,20.71,1.77034,-2.56542
705,20.726,1.77769,-2.56544
705.5,20.7427,1.77781,-2.56669
706,20.7589,1.77169,-2.56665
706.5,20.7754,1.78206,-2.56771
707,20.7914,1.78963,-2.56816
707.5,20.8084,1.78971,-2.56882
708,20.8246,1.79775,-2.56969
708.5,20.8412,1.79574,-2.56959
709,20.8576,1.80534,-2.57081
709.5,20.8739,1.80839,-2.571
710,20.8905,1.79851,-2.57101
710.5,20.9071,1.80964,-2.57109
711,20.9232,1.81455,-2.57249
711.5,20.94,1.8161,-2.57363
712,20.9562,1.82258,-2.57366
712.5,20.9725,1.83034,-2.57483
713,20.9894,1.83195,-2.57494
713.5,21.0056,1.83682,-2.57488
714,21.0222,1.84472,-2.57422
714.5,21.0388,1.85681,-2.57497
715,21.0551,1.84949,-2.57494
715.5,21.0716,1.84736,-2.57608
716,21.0883,1.85802,-2.57509
716.5,21.1046,1.86412,-2.57557
717,21.1212,1.86521,-2.57646
717.5,21.1374,1.86755,-2.57647
718,21.1538,1.86722,-2.57764
718.5,21.1704,1.87723,-2.5777
719,21.1868,1.88709,-2.57772
719.5,21.2034,1.88931,-2.57886
720,21.2198,1.88775,-2.57899
720.5,21.2363,1.89083,-2.57942
721,21.2529,1.89417,-2.58039
721.5,21.2693,1.90013,-2.58038
722,21.2859,1.90352,-2.58179
722.5,21.3025,1.9145,-2.58175
723,21.3188,1.91665,-2.58248
723.5,21.3353,1.91956,-2.5832
724,21.3516,1.92155,-2.58312
724.5,21.3681,1.92316,-2.58435
725,21.3847,1.92582,-2.58451
725.5,21.4014,1.92871,-2.58451
726,21.4176,1.93443,-2.58456
726.5,21.4344,1.94322,-2.58353
727,21.4508,1.94725,-2.5831
727.5,21.4672,1.9472,-2.5843
728,21.4841,1.94582,-2.58451
728.5,21.5004,1.95975,-2.58457
729,21.5169,1.95935,-2.58589
729.5,21.5334,1.96321,-2.58582
730,21.55,1.96897,-2.58585
730.5,21.5663,1.97359,-2.58589
731,21.5828,1.97566,-2.58733
731.5,21.5996,1.97739,-2.58755
732,21.6161,1.97108,-2.58881
732.5,21.6325,1.97508,-2.58873
733,21.6492,1.97317,-2.58984
733.5,21.6656,1.98972,-2.58996
734,21.6818,1.99681,-2.59061
734.5,21.6984,1.99358,-2.59132
735,21.7155,2.00271,-2.59166
735.5,21.732,2.00877,-2.59271
736,21.7483,2.00625,-2.59273
736.5,21.7649,1.99725,-2.59359
737,21.7815,1.99952,-2.59307
737.5,21.7981,1.99919,-2.59304
738,21.8144,1.99759,-2.59364
738.5,21.8309,1.99639,-2.59443
739,21.8475,2.004,-2.59437
739.5,21.8638,2.00672,-2.59491
740,21.8807,1.99995,-2.59577
740.5,21.8972,2.00408,-2.59578
741,21.9136,2.0076,-2.59704
741.5,21.9304,2.00586,-2.59707
742,21.9467,2.00958,-2.59789
742.5,21.9633,2.00577,-2.59849
743,21.9801,2.00862,-2.59886
743.5,21.9966,2.0051,-2.5999
744,22.013,2.00053,-2.59979
744.5,22.0297,2.00266,-2.6011
745,22.0462,2.00456,-2.60062
745.5,22.0626,2.00526,-2.60063
746,22.0792,2.01056,-2.60136
746.5,22.0957,2.00224,-2.60242
747,22.1123,2.0073,-2.60285
747.5,22.1288,2.00444,-2.60287
748,22.1452,2.00209,-2.60414
748.5,22.162,2.00828,-2.60414
749,22.1783,2.00479,-2.60416
749.5,22.1946,1.98945,-2.60416
750,22.211,1.99441,-2.60412
750.5,22.2276,1.99424,-2.60449
751,22.2446,1.99729,-2.60411
751.5,22.2611,1.99279,-2.60521
752,22.2779,1.98871,-2.60563
752.5,22.2942,1.98793,-2.60666
753,22.3109,1.99301,-2.60715
753.5,22.3276,1.99567,-2.60852
754,22.3441,1.98953,-2.60877
754.5,22.3608,1.98156,-2.60878
755,22.3771,1.97451,-2.60883
755.5,22.3938,1.97312,-2.61002
756,22.41,1.96206,-2.61007
756.5,22.4268,1.95873,-2.61054
757,22.4431,1.96407,-2.61146
757.5,22.46,1.95492,-2.61142
758,22.4767,1.94944,-2.61141
758.5,22.4932,1.94072,-2.61264
759,22.5097,1.93315,-2.61281
759.5,22.5262,1.92041,-2.61324
760,22.5428,1.91684,-2.61433
760.5,22.5592,1.92161,-2.61443
761,22.5758,1.92125,-2.61561
761.5,22.5922,1.9142,-2.61427
762,22.6086,1.90463,-2.61502
762.5,22.6257,1.9003,-2.61569
763,22.6421,1.88966,-2.6156
763.5,22.6586,1.88038,-2.61687
764,22.6749,1.87892,-2.61701
764.5,22.6916,1.86328,-2.6171
765,22.7082,1.86118,-2.61854
765.5,22.7249,1.85299,-2.61841
766,22.741,1.84758,-2.61964
766.5,22.7579,1.82778,-2.61993
767,22.7746,1.81349,-2.62058
767.5,22.7912,1.80156,-2.62146
768,22.8077,1.78183,-2.62227
768.5,22.824,1.74948,-2.62313
769,22.8405,1.72439,-2.6236
769.5,22.8572,1.71191,-2.6236
770,22.874,1.68844,-2.62481
770.5,22.8904,1.65571,-2.62491
771,22.9068,1.62927,-2.625
771.5,22.9235,1.61434,-2.62626
772,22.9402,1.59877,-2.62497
772.5,22.9566,1.58482,-2.62502
773,22.9735,1.56211,-2.62551
773.5,22.99,1.54594,-2.62638
774,23.0065,1.53697,-2.62642
774.5,23.0231,1.5214,-2.62586
775,23.0398,1.49114,-2.62635
775.5,23.056,1.48026,-2.62635
776,23.0722,1.4609,-2.6275
776.5,23.0893,1.45128,-2.62759
777,23.1061,1.43156,-2.62836
777.5,23.1226,1.40724,-2.62903
778,23.1389,1.39089,-2.6293
778.5,23.1554,1.37331,-2.63051
779,23.172,1.36389,-2.63041
779.5,23.1887,1.35363,-2.63169
780,23.2052,1.33584,-2.63182
780.5,23.2217,1.31913,-2.6328
781,23.2384,1.30394,-2.63188
781.5,23.255,1.28783,-2.63185
782,23.2714,1.27951,-2.63173
782.5,23.2884,1.27421,-2.63302
783,23.3046,1.26049,-2.6331
783.5,23.3214,1.24814,-2.63482
784,23.3379,1.23211,-2.63508
784.5,23.3545,1.22038,-2.63622
785,23.3712,1.20245,-2.63622
785.5,23.3877,1.19325,-2.63622
786,23.4041,1.17572,-2.63645
786.5,23.4208,1.17011,-2.63763
787,23.4374,1.15627,-2.63755
787.5,23.4538,1.144,-2.63754
788,23.4704,1.12947,-2.6375
788.5,23.487,1.11781,-2.63834
789,23.5038,1.10507,-2.63899
789.5,23.5203,1.09406,-2.63893
790,23.5368,1.09296,-2.63973