File: 01_Data/Protective_Hood/STA/N2/30K_min/Protective_Hood_STA_N2_30KData_240318_R2.csv
Temp./C,Time/min,DSC/(mW/mg),Mass loss/mg
60.0,0.0,1.59398,-0.0113896
60.5,0.0267859,1.63731,-0.0130501
61,0.0514129,1.68571,-0.0144621
61.5,0.0758211,1.73558,-0.0155355
62,0.100439,1.77589,-0.0159222
62.5,0.124579,1.81869,-0.0158747
63,0.148117,1.86217,-0.0155273
63.5,0.171135,1.90187,-0.0155344
64,0.194141,1.94663,-0.0165669
64.5,0.216044,1.98548,-0.0167019
65,0.238426,2.01906,-0.0166802
65.5,0.260377,2.0586,-0.0164378
66,0.281898,2.09079,-0.0154143
66.5,0.302645,2.13683,-0.0143821
67,0.324354,2.17454,-0.0137261
67.5,0.345305,2.21819,-0.0131386
68,0.366268,2.24981,-0.0131959
68.5,0.386761,2.27831,-0.012616
69,0.407104,2.31765,-0.0119529
69.5,0.427883,2.34544,-0.0125919
70,0.447423,2.37653,-0.0137344
70.5,0.467788,2.40771,-0.0138736
71,0.487348,2.43639,-0.0131505
71.5,0.506614,2.46242,-0.0126035
72,0.526676,2.50394,-0.0120419
72.5,0.545935,2.52737,-0.0111183
73,0.565194,2.55257,-0.0104141
73.5,0.584498,2.58137,-0.0106653
74,0.603732,2.6012,-0.0122121
74.5,0.622508,2.62029,-0.0123573
75,0.641302,2.66073,-0.0132743
75.5,0.660589,2.66974,-0.0123525
76,0.67911,2.69863,-0.012707
76.5,0.697735,2.72684,-0.0132775
77,0.716311,2.75358,-0.0140899
77.5,0.734694,2.77394,-0.0141951
78,0.753428,2.79112,-0.0141077
78.5,0.771375,2.81394,-0.0155433
79,0.788913,2.83621,-0.0160472
79.5,0.807004,2.85445,-0.0157571
80,0.825431,2.88068,-0.0171177
80.5,0.844301,2.88836,-0.0157919
81,0.862626,2.91813,-0.0170442
81.5,0.880192,2.92977,-0.0158411
82,0.898738,2.95507,-0.0158472
82.5,0.916173,2.97455,-0.0158916
83,0.934257,2.99034,-0.0158205
83.5,0.952081,3.0157,-0.0160684
84,0.969953,3.03801,-0.0163796
84.5,0.987777,3.0493,-0.0167566
85,1.00528,3.07584,-0.0173368
85.5,1.02283,3.09659,-0.0169206
86,1.04034,3.10371,-0.0167525
86.5,1.05757,3.12199,-0.0171182
87,1.07504,3.1471,-0.0170093
87.5,1.09259,3.16117,-0.0178251
88,1.10983,3.17417,-0.0178049
88.5,1.12714,3.19387,-0.0178251
89,1.14374,3.20674,-0.0179241
89.5,1.16085,3.21753,-0.017688
90,1.1791,3.23995,-0.0189788
90.5,1.19602,3.25257,-0.019397
91,1.21328,3.27384,-0.0186572
91.5,1.23019,3.28054,-0.019334
92,1.24707,3.30113,-0.0193147
92.5,1.2647,3.3175,-0.0186108
93,1.28168,3.32133,-0.0180545
93.5,1.29868,3.33819,-0.0194227
94,1.31556,3.35378,-0.0185194
94.5,1.33185,3.37162,-0.0180074
95,1.34919,3.38042,-0.0180187
95.5,1.36635,3.39563,-0.0176978
96,1.38329,3.39652,-0.017836
96.5,1.40044,3.41215,-0.0179906
97,1.41693,3.42123,-0.0179975
97.5,1.43377,3.42807,-0.0179174
98,1.45056,3.44343,-0.0191706
98.5,1.46704,3.44828,-0.0193151
99,1.48329,3.45777,-0.0187718
99.5,1.49967,3.46914,-0.0180164
100,1.51733,3.49279,-0.0192866
100.5,1.53411,3.49949,-0.0193013
101,1.55083,3.49802,-0.0192955
101.5,1.568,3.50173,-0.0179772
102,1.58443,3.50787,-0.0179134
102.5,1.60076,3.51423,-0.0191944
103,1.61691,3.52248,-0.019332
103.5,1.63327,3.52731,-0.0193897
104,1.64988,3.53489,-0.0185421
104.5,1.66674,3.53966,-0.0183376
105,1.68351,3.54563,-0.0183389
105.5,1.69974,3.55172,-0.01834
106,1.71624,3.55583,-0.0183397
106.5,1.73306,3.54721,-0.0183345
107,1.74967,3.55208,-0.0188384
107.5,1.76578,3.54272,-0.0196788
108,1.78272,3.55912,-0.0196587
108.5,1.79939,3.55848,-0.0196595
109,1.81579,3.56641,-0.0195846
109.5,1.83233,3.5576,-0.0210065
110,1.84877,3.54892,-0.0224439
110.5,1.86538,3.55174,-0.0224124
111,1.88229,3.54692,-0.0227748
111.5,1.89824,3.55109,-0.0237259
112,1.9152,3.55301,-0.0236245
112.5,1.9309,3.54013,-0.0249207
113,1.94788,3.54189,-0.0250301
113.5,1.96418,3.53874,-0.0250383
114,1.98078,3.54215,-0.0251241
114.5,1.99684,3.5396,-0.0253878
115,2.01373,3.53815,-0.0250014
115.5,2.03055,3.53323,-0.0250187
116,2.04664,3.53578,-0.0250528
116.5,2.06372,3.52996,-0.0238941
117,2.08041,3.52211,-0.0237251
117.5,2.09673,3.51588,-0.0237095
118,2.11339,3.51242,-0.0237101
118.5,2.12969,3.51507,-0.023711
119,2.14587,3.50819,-0.0235219
119.5,2.16229,3.51216,-0.0222855
120,2.17874,3.51282,-0.0223876
120.5,2.1949,3.5067,-0.022391
121,2.21122,3.50962,-0.0223901
121.5,2.22785,3.48854,-0.02239
122,2.2441,3.48712,-0.02239
122.5,2.26054,3.48409,-0.0223903
123,2.27707,3.4856,-0.0223896
123.5,2.29325,3.4814,-0.0222977
124,2.30949,3.48783,-0.0209903
124.5,2.32542,3.48111,-0.0210803
125,2.3421,3.48483,-0.0210718
125.5,2.35831,3.49145,-0.0210701
126,2.37482,3.4727,-0.02107
126.5,2.39118,3.47254,-0.02107
127,2.40781,3.47701,-0.02107
127.5,2.42382,3.46819,-0.0210692
128,2.43976,3.46235,-0.0210677
128.5,2.45609,3.45976,-0.0212593
129,2.47262,3.46801,-0.0224858
129.5,2.48858,3.45162,-0.0223929
130,2.50501,3.46187,-0.022395
130.5,2.521,3.47209,-0.0224628
131,2.53727,3.47184,-0.0214166
131.5,2.55328,3.47244,-0.0210756
132,2.56935,3.47244,-0.0210796
132.5,2.58596,3.47456,-0.0210807
133,2.60181,3.47156,-0.0210887
133.5,2.61772,3.47054,-0.0210854
134,2.63432,3.47528,-0.0221918
134.5,2.65012,3.47502,-0.0223369
135,2.66658,3.48214,-0.0233009
135.5,2.68271,3.48079,-0.0237161
136,2.69848,3.48687,-0.0237102
136.5,2.71452,3.48495,-0.0237099
137,2.73111,3.48322,-0.02371
137.5,2.74712,3.48409,-0.02371
138,2.76271,3.48702,-0.0237106
138.5,2.77932,3.49828,-0.0237132
139,2.79507,3.49395,-0.0235366
139.5,2.81124,3.50359,-0.0223041
140,2.82715,3.50396,-0.0224014
140.5,2.84311,3.51071,-0.0224014
141,2.8596,3.52238,-0.0223996
141.5,2.87535,3.53285,-0.0224059
142,2.89101,3.53775,-0.0217326
142.5,2.9069,3.54128,-0.0222804
143,2.9231,3.54685,-0.0223719
143.5,2.93903,3.5445,-0.0223995
144,2.95488,3.5529,-0.0223861
144.5,2.97067,3.55144,-0.0223467
145,2.98664,3.56281,-0.0211981
145.5,3.00276,3.5655,-0.0210946
146,3.01863,3.57348,-0.0210794
146.5,3.03478,3.57704,-0.0210808
147,3.05066,3.58359,-0.0210895
147.5,3.06616,3.58808,-0.0210453
148,3.08224,3.59296,-0.0221219
148.5,3.09772,3.60488,-0.0223982
149,3.11383,3.61129,-0.0224021
149.5,3.12999,3.62071,-0.0223984
150,3.14501,3.62865,-0.0224124
150.5,3.16183,3.62514,-0.0226066
151,3.17753,3.63085,-0.0237119
151.5,3.19317,3.63666,-0.0236987
152,3.20883,3.64759,-0.0237115
152.5,3.22515,3.65519,-0.0235366
153,3.24057,3.6599,-0.0223108
153.5,3.25639,3.67205,-0.0224053
154,3.27182,3.68039,-0.0224073
154.5,3.28797,3.68323,-0.0224092
155,3.30375,3.69247,-0.0217977
155.5,3.31965,3.69918,-0.0210701
156,3.33536,3.70037,-0.0222129
156.5,3.35099,3.70858,-0.0214523
157,3.36676,3.71548,-0.021075
157.5,3.38291,3.7295,-0.0210765
158,3.39801,3.7358,-0.0210798
158.5,3.41404,3.73909,-0.0210792
159,3.42994,3.74945,-0.0210817
159.5,3.44546,3.76194,-0.0211335
160,3.46139,3.75004,-0.0203305
160.5,3.47685,3.76445,-0.0197216
161,3.49257,3.77417,-0.019827
161.5,3.50839,3.76995,-0.0211271
162,3.52412,3.77853,-0.0210562
162.5,3.53976,3.7832,-0.0210296
163,3.55523,3.78866,-0.02186
163.5,3.57134,3.79155,-0.0224081
164,3.58694,3.8013,-0.0223998
164.5,3.60234,3.80336,-0.0223998
165,3.61774,3.80869,-0.0224001
165.5,3.634,3.82026,-0.0224008
166,3.6492,3.81501,-0.0223984
166.5,3.66539,3.82577,-0.022353
167,3.68042,3.83354,-0.0231147
167.5,3.69657,3.83477,-0.0250119
168,3.71193,3.84095,-0.025
168.5,3.7268,3.84884,-0.0250318
169,3.74245,3.85474,-0.025087
169.5,3.7586,3.86215,-0.024282
170,3.77396,3.86065,-0.0237319
170.5,3.79008,3.86854,-0.0229598
171,3.80538,3.87984,-0.0218448
171.5,3.82102,3.87111,-0.0217546
172,3.83638,3.8924,-0.0217386
172.5,3.852,3.89366,-0.021734
173,3.86762,3.89851,-0.0220851
173.5,3.88322,3.90509,-0.0231606
174,3.89856,3.91135,-0.0230077
174.5,3.91431,3.91459,-0.0243032
175,3.92964,3.92225,-0.0244249
175.5,3.94527,3.92758,-0.0236024
176,3.96099,3.93369,-0.0230535
176.5,3.97643,3.93922,-0.0230603
177,3.99248,3.94362,-0.0230601
177.5,4.00767,3.94636,-0.02306
178,4.0236,3.95822,-0.02306
178.5,4.03943,3.96179,-0.02306
179,4.05463,3.9769,-0.0230597
179.5,4.07022,3.97916,-0.0230579
180,4.08566,3.97669,-0.0230715
180.5,4.10131,3.9807,-0.0232436
181,4.1157,3.99277,-0.0243233
181.5,4.13238,3.99639,-0.0243669
182,4.14762,4.00365,-0.0244447
182.5,4.1629,4.01339,-0.0236624
183,4.17835,4.01422,-0.0237318
183.5,4.19363,4.02566,-0.0237235
184,4.20912,4.03551,-0.0237074
184.5,4.2248,4.03529,-0.0235074
185,4.24012,4.04528,-0.0230437
185.5,4.2553,4.05737,-0.0230551
186,4.27077,4.06356,-0.0230601
186.5,4.28624,4.07246,-0.0230601
187,4.30172,4.07373,-0.02306
187.5,4.31694,4.08076,-0.02306
188,4.33218,4.09207,-0.02306
188.5,4.34784,4.09444,-0.02306
189,4.36323,4.10803,-0.02306
189.5,4.37837,4.11972,-0.02306
190,4.394,4.11565,-0.02306
190.5,4.40893,4.13063,-0.0230599
191,4.42449,4.14211,-0.0230588
191.5,4.43973,4.14405,-0.0230646
192,4.45502,4.15183,-0.0231489
192.5,4.47043,4.15936,-0.0237183
193,4.48574,4.17252,-0.0236425
193.5,4.50127,4.1821,-0.024922
194,4.51639,4.18149,-0.0250317
194.5,4.53166,4.19638,-0.0250301
195,4.54694,4.20555,-0.0250296
195.5,4.56243,4.2121,-0.0250946
196,4.57762,4.22464,-0.0264119
196.5,4.59277,4.22988,-0.0255702
197,4.60841,4.24,-0.0249941
197.5,4.62321,4.25404,-0.0250292
198,4.63872,4.26503,-0.0250372
198.5,4.65424,4.27722,-0.0260749
199,4.6691,4.28388,-0.0263277
199.5,4.68489,4.29335,-0.0263153
200,4.69987,4.29838,-0.0254529
200.5,4.71527,4.31393,-0.0253769
201,4.73069,4.32996,-0.0253586
201.5,4.74564,4.33707,-0.0253597
202,4.7606,4.35106,-0.02536
202.5,4.77548,4.36748,-0.02536
203,4.79103,4.37559,-0.02536
203.5,4.80641,4.38841,-0.0253608
204,4.82248,4.40203,-0.0253583
204.5,4.8374,4.42266,-0.0256408
205,4.8528,4.44081,-0.027569
205.5,4.8678,4.4561,-0.0281522
206,4.88257,4.45903,-0.0280988
206.5,4.89797,4.47664,-0.0280987
207,4.91363,4.49538,-0.0281985
207.5,4.92911,4.5171,-0.0294904
208,4.9444,4.53369,-0.0294034
208.5,4.95966,4.54779,-0.0294165
209,4.97501,4.56853,-0.029408
209.5,4.99002,4.59085,-0.0295153
210,5.00578,4.61262,-0.0282712
210.5,5.0209,4.63289,-0.0282599
211,5.03605,4.6542,-0.0293669
211.5,5.05134,4.6758,-0.0294034
212,5.06657,4.69606,-0.0294275
212.5,5.08166,4.7211,-0.029636
213,5.09723,4.74987,-0.0307322
213.5,5.11207,4.7674,-0.030726
214,5.12743,4.79709,-0.0307369
214.5,5.1431,4.82307,-0.0307606
215,5.15816,4.84855,-0.0310258
215.5,5.17359,4.87331,-0.0328481
216,5.18883,4.89037,-0.0330272
216.5,5.20402,4.91568,-0.0330446
217,5.21973,4.95292,-0.0330566
217.5,5.23464,4.98486,-0.0341342
218,5.2498,5.01937,-0.0343089
218.5,5.26516,5.05163,-0.0347037
219,5.28084,5.08226,-0.0346474
219.5,5.29561,5.11058,-0.0352001
220,5.31089,5.12739,-0.0360668
220.5,5.32633,5.14162,-0.0360136
221,5.34137,5.15543,-0.0361935
221.5,5.35652,5.15001,-0.0373955
222,5.37161,5.13334,-0.0373335
222.5,5.38701,5.10134,-0.0384824
223,5.40167,5.06364,-0.0388998
223.5,5.4169,5.02546,-0.0398924
224,5.43203,5.00523,-0.0404106
224.5,5.44687,4.98606,-0.0402689
225,5.46223,4.98253,-0.0405266
225.5,5.47737,4.97546,-0.04182
226,5.49237,4.97462,-0.042322
226.5,5.5077,4.96152,-0.0437055
227,5.52267,4.93949,-0.0436618
227.5,5.53773,4.90232,-0.044046
228,5.5523,4.87235,-0.0453637
228.5,5.56725,4.83867,-0.0452223
229,5.58255,4.80253,-0.0465299
229.5,5.59784,4.76037,-0.0468863
230,5.61274,4.72708,-0.0480138
230.5,5.6271,4.70009,-0.0482938
231,5.64238,4.65262,-0.0496859
231.5,5.65764,4.63478,-0.0505177
232,5.67259,4.59899,-0.0520213
232.5,5.68767,4.56398,-0.0526001
233,5.70271,4.53521,-0.0534037
233.5,5.71761,4.51009,-0.053696
234,5.73301,4.48336,-0.0549488
234.5,5.74779,4.46139,-0.055701
235,5.76266,4.44815,-0.056611
235.5,5.77804,4.4234,-0.0578608
236,5.79305,4.41318,-0.0592257
236.5,5.80812,4.39596,-0.0613307
237,5.82313,4.38253,-0.0618874
237.5,5.83801,4.37055,-0.0630437
238,5.85321,4.36546,-0.0644535
238.5,5.86818,4.34724,-0.0648168
239,5.88317,4.34058,-0.0663674
239.5,5.89836,4.32853,-0.0672749
240,5.9136,4.3185,-0.0686355
240.5,5.92873,4.30656,-0.07002
241,5.94373,4.30849,-0.0712629
241.5,5.95878,4.29303,-0.0721746
242,5.97371,4.27981,-0.0722386
242.5,5.98898,4.27444,-0.0736922
243,6.00391,4.25931,-0.0748847
243.5,6.01909,4.25414,-0.0759358
244,6.03411,4.24443,-0.077441
244.5,6.04915,4.24641,-0.0782841
245,6.06402,4.23768,-0.0798617
245.5,6.07915,4.22611,-0.0818006
246,6.09409,4.21559,-0.0830916
246.5,6.10919,4.21027,-0.0836571
247,6.12413,4.20078,-0.0851675
247.5,6.13948,4.19041,-0.0862952
248,6.15448,4.18131,-0.0876777
248.5,6.16955,4.17252,-0.0893415
249,6.18393,4.16497,-0.0908336
249.5,6.19982,4.14815,-0.0922388
250,6.21466,4.14023,-0.0935589
250.5,6.22894,4.13351,-0.0948574
251,6.24445,4.12671,-0.0963583
251.5,6.25973,4.10757,-0.0980151
252,6.2747,4.08809,-0.0998246
252.5,6.28958,4.07337,-0.10178
253,6.30467,4.05704,-0.103632
253.5,6.31961,4.04341,-0.104635
254,6.3346,4.0352,-0.10613
254.5,6.34982,4.01584,-0.107557
255,6.36478,3.99431,-0.107999
255.5,6.38003,3.98121,-0.108778
256,6.39465,3.96832,-0.110749
256.5,6.40969,3.96059,-0.112802
257,6.42488,3.93383,-0.113891
257.5,6.43968,3.91433,-0.116549
258,6.45488,3.89094,-0.118142
258.5,6.46999,3.87159,-0.120249
259,6.48474,3.85813,-0.122579
259.5,6.50016,3.84606,-0.124562
260,6.51477,3.82014,-0.127551
260.5,6.52971,3.80529,-0.13011
261,6.54495,3.78631,-0.132704
261.5,6.55993,3.77156,-0.134414
262,6.5747,3.7566,-0.136003
262.5,6.58996,3.7318,-0.138385
263,6.60516,3.71915,-0.140196
263.5,6.61985,3.70818,-0.142551
264,6.63503,3.68773,-0.145041
264.5,6.65037,3.68052,-0.146668
265,6.66537,3.68191,-0.149041
265.5,6.68057,3.67127,-0.150942
266,6.69527,3.67135,-0.152839
266.5,6.7103,3.67119,-0.155282
267,6.72518,3.6677,-0.157819
267.5,6.74023,3.66364,-0.161621
268,6.75511,3.67574,-0.163877
268.5,6.77062,3.6811,-0.167264
269,6.78553,3.69552,-0.171077
269.5,6.80067,3.71579,-0.17363
270,6.81582,3.74366,-0.17732
270.5,6.83088,3.7834,-0.180367
271,6.84617,3.80992,-0.183898
271.5,6.86135,3.85857,-0.187333
272,6.87683,3.91589,-0.192794
272.5,6.89165,3.98318,-0.196799
273,6.90728,4.05785,-0.201403
273.5,6.923,4.13832,-0.206142
274,6.93823,4.23317,-0.210137
274.5,6.95353,4.34807,-0.215377
275,6.96876,4.46814,-0.21951
275.5,6.98443,4.60818,-0.225302
276,6.99985,4.74852,-0.231016
276.5,7.01576,4.9045,-0.236268
277,7.03109,5.0769,-0.242896
277.5,7.0464,5.2679,-0.248856
278,7.06248,5.47984,-0.254959
278.5,7.0791,5.71021,-0.262946
279,7.09475,5.92474,-0.268861
279.5,7.11089,6.15716,-0.276236
280,7.12675,6.41374,-0.283814
280.5,7.14243,6.66496,-0.291645
281,7.15875,6.9244,-0.302559
281.5,7.17487,7.1915,-0.311326
282,7.19059,7.44255,-0.322628
282.5,7.20695,7.708,-0.333567
283,7.22278,7.96133,-0.343931
283.5,7.23908,8.19956,-0.357356
284,7.25498,8.42864,-0.366651
284.5,7.2705,8.65605,-0.379543
285,7.2867,8.87211,-0.39291
285.5,7.30257,9.06798,-0.406484
286,7.3182,9.25436,-0.423481
286.5,7.33432,9.4296,-0.437682
287,7.3497,9.57746,-0.454881
287.5,7.36517,9.71757,-0.472008
288,7.38122,9.85352,-0.488327
288.5,7.39682,9.96516,-0.50788
289,7.41217,10.0689,-0.522922
289.5,7.42795,10.1503,-0.542149
290,7.44338,10.2352,-0.562432
290.5,7.45857,10.2924,-0.579578
291,7.47413,10.3406,-0.600593
291.5,7.4893,10.3797,-0.617908
292,7.50445,10.4083,-0.637189
292.5,7.51973,10.3987,-0.660373
293,7.53482,10.3864,-0.677946
293.5,7.55013,10.3546,-0.700602
294,7.56488,10.2925,-0.721518
294.5,7.57952,10.2098,-0.740505
295,7.5946,10.0736,-0.764965
295.5,7.60936,9.90119,-0.783613
296,7.62331,9.70586,-0.803664
296.5,7.63783,9.4333,-0.828444
297,7.65202,9.14421,-0.846008
297.5,7.66591,8.79925,-0.866719
298,7.67994,8.37529,-0.890156
298.5,7.69319,7.96222,-0.906189
299,7.70643,7.5432,-0.925136
299.5,7.72018,7.09796,-0.944962
300,7.73388,6.64657,-0.958681
300.5,7.74817,6.19913,-0.975104
301,7.76201,5.82282,-0.99032
301.5,7.77595,5.49838,-1.00145
302,7.79032,5.19935,-1.01406
302.5,7.80435,4.94608,-1.02403
303,7.81845,4.71953,-1.03187
303.5,7.83331,4.5128,-1.0408
304,7.84778,4.352,-1.04746
304.5,7.86236,4.21474,-1.05389
305,7.87664,4.09846,-1.06043
305.5,7.8917,3.99079,-1.06429
306,7.9065,3.89585,-1.06804
306.5,7.92113,3.81244,-1.07195
307,7.93515,3.73457,-1.07483
307.5,7.95071,3.66386,-1.07801
308,7.96576,3.60891,-1.08073
308.5,7.98035,3.5599,-1.08335
309,7.99541,3.52307,-1.08538
309.5,8.01011,3.47794,-1.08768
310,8.02532,3.43577,-1.08938
310.5,8.04002,3.39798,-1.09095
311,8.055,3.3803,-1.09356
311.5,8.07,3.35451,-1.0959
312,8.08531,3.32428,-1.09715
312.5,8.09968,3.30647,-1.09902
313,8.11448,3.29865,-1.10118
313.5,8.1302,3.27476,-1.10384
314,8.14521,3.25838,-1.10494
314.5,8.16012,3.25121,-1.10713
315,8.1756,3.24244,-1.10908
315.5,8.19054,3.22835,-1.11046
316,8.20569,3.22531,-1.11224
316.5,8.22062,3.21402,-1.1148
317,8.23582,3.20601,-1.11628
317.5,8.25093,3.20088,-1.11707
318,8.26605,3.18541,-1.11854
318.5,8.28095,3.18569,-1.11865
319,8.29629,3.18337,-1.12024
319.5,8.31104,3.17781,-1.12073
320,8.32666,3.1809,-1.12214
320.5,8.34131,3.17235,-1.12388
321,8.35671,3.16801,-1.12604
321.5,8.37175,3.16254,-1.12758
322,8.38689,3.1647,-1.13024
322.5,8.40204,3.16196,-1.13252
323,8.41765,3.1641,-1.1344
323.5,8.43215,3.16397,-1.1363
324,8.44759,3.16873,-1.13801
324.5,8.46264,3.17542,-1.13934
325,8.47796,3.1817,-1.14027
325.5,8.49313,3.18863,-1.14213
326,8.50859,3.19653,-1.14419
326.5,8.52367,3.20957,-1.14554
327,8.53869,3.2188,-1.14767
327.5,8.55431,3.23554,-1.14922
328,8.56913,3.24713,-1.15032
328.5,8.58471,3.25154,-1.15147
329,8.59984,3.25801,-1.1506
329.5,8.6151,3.26914,-1.15207
330,8.63021,3.27049,-1.15242
330.5,8.64527,3.27689,-1.15385
331,8.66059,3.27305,-1.1549
331.5,8.67583,3.27182,-1.15621
332,8.69096,3.25936,-1.15807
332.5,8.70625,3.25494,-1.16022
333,8.72119,3.24329,-1.16385
333.5,8.73665,3.24007,-1.16563
334,8.75165,3.22703,-1.16764
334.5,8.76716,3.20706,-1.16937
335,8.7822,3.19211,-1.17037
335.5,8.79767,3.18682,-1.17172
336,8.8124,3.17111,-1.17285
336.5,8.82789,3.16684,-1.17359
337,8.84307,3.14886,-1.17529
337.5,8.858,3.13615,-1.17616
338,8.87335,3.11913,-1.17693
338.5,8.8887,3.11027,-1.1783
339,8.90377,3.096,-1.17871
339.5,8.91877,3.08222,-1.1802
340,8.93422,3.06353,-1.18094
340.5,8.94945,3.04727,-1.18201
341,8.96481,3.04348,-1.18366
341.5,8.98003,3.03384,-1.18455
342,8.99481,3.0201,-1.18568
342.5,9.01049,2.99668,-1.18616
343,9.02577,2.98608,-1.18615
343.5,9.04069,2.97691,-1.18769
344,9.05569,2.96361,-1.18815
344.5,9.07133,2.95008,-1.18922
345,9.08633,2.93614,-1.18981
345.5,9.10176,2.93354,-1.19101
346,9.11702,2.91753,-1.19228
346.5,9.13239,2.91118,-1.19197
347,9.14749,2.90087,-1.19334
347.5,9.16301,2.8928,-1.19455
348,9.17786,2.88166,-1.19525
348.5,9.19339,2.87541,-1.19651
349,9.2087,2.86722,-1.19783
349.5,9.22383,2.86562,-1.19915
350,9.23935,2.86359,-1.20071
350.5,9.25474,2.85963,-1.20375
351,9.26958,2.85678,-1.20547
351.5,9.28505,2.8475,-1.20682
352,9.30037,2.84499,-1.20777
352.5,9.31564,2.84189,-1.2094
353,9.33087,2.83762,-1.21073
353.5,9.3462,2.83325,-1.21158
354,9.36158,2.82602,-1.2132
354.5,9.37699,2.81938,-1.21381
355,9.39212,2.82213,-1.21494
355.5,9.40771,2.81615,-1.21664
356,9.42201,2.81964,-1.21704
356.5,9.43856,2.81401,-1.21829
357,9.45359,2.81543,-1.21991
357.5,9.4679,2.81587,-1.21938
358,9.4842,2.81309,-1.2208
358.5,9.49955,2.80801,-1.22218
359,9.51485,2.80373,-1.22298
359.5,9.53031,2.80155,-1.22442
360,9.54558,2.80437,-1.22578
360.5,9.56108,2.80956,-1.22714
361,9.57635,2.80077,-1.22859
361.5,9.59157,2.7988,-1.23023
362,9.60702,2.79877,-1.23163
362.5,9.62227,2.8027,-1.23269
363,9.63796,2.79832,-1.23341
363.5,9.65318,2.79619,-1.23461
364,9.66861,2.79931,-1.23487
364.5,9.68396,2.79838,-1.23616
365,9.69925,2.7988,-1.23642
365.5,9.71484,2.7981,-1.23767
366,9.72976,2.80101,-1.23789
366.5,9.74544,2.80052,-1.23946
367,9.76076,2.7991,-1.2399
367.5,9.77614,2.80067,-1.24136
368,9.79141,2.79591,-1.24277
368.5,9.80711,2.7983,-1.24302
369,9.82204,2.80467,-1.24428
369.5,9.83769,2.80184,-1.24594
370,9.85334,2.80438,-1.24748
370.5,9.86866,2.8069,-1.24843
371,9.88367,2.80534,-1.24923
371.5,9.89934,2.80718,-1.24987
372,9.91466,2.80836,-1.25131
372.5,9.93029,2.81274,-1.25257
373,9.94566,2.81468,-1.25422
373.5,9.96123,2.81626,-1.25645
374,9.97631,2.81606,-1.2586
374.5,9.99213,2.81936,-1.26094
375,10.0077,2.82881,-1.26251
375.5,10.0227,2.822,-1.26411
376,10.0383,2.82022,-1.26442
376.5,10.0541,2.82576,-1.26694
377,10.0691,2.83424,-1.26699
377.5,10.0847,2.83352,-1.2681
378,10.1003,2.83565,-1.2683
378.5,10.1157,2.84431,-1.26832
379,10.1311,2.84248,-1.26836
379.5,10.1467,2.84457,-1.2699
380,10.1616,2.84692,-1.27101
380.5,10.1769,2.85594,-1.27278
381,10.1924,2.85975,-1.27301
381.5,10.2078,2.86194,-1.27443
382,10.2233,2.8636,-1.27434
382.5,10.2397,2.86006,-1.27501
383,10.2552,2.86045,-1.27659
383.5,10.2706,2.86939,-1.27786
384,10.286,2.87413,-1.27884
384.5,10.3015,2.87757,-1.28071
385,10.3171,2.88187,-1.28152
385.5,10.3325,2.8811,-1.28247
386,10.3481,2.88928,-1.28399
386.5,10.3636,2.89441,-1.2861
387,10.3788,2.88887,-1.28768
387.5,10.3946,2.90137,-1.28775
388,10.4103,2.90275,-1.28884
388.5,10.4257,2.90396,-1.29027
389,10.4413,2.90661,-1.29221
389.5,10.4567,2.90832,-1.29393
390,10.4724,2.91658,-1.29508
390.5,10.4879,2.92502,-1.29625
391,10.5033,2.92176,-1.29779
391.5,10.5189,2.92647,-1.29961
392,10.5343,2.93347,-1.30097
392.5,10.5501,2.93377,-1.30101
393,10.5659,2.93653,-1.30157
393.5,10.5811,2.94408,-1.30174
394,10.5968,2.94809,-1.30309
394.5,10.6125,2.94917,-1.30338
395,10.6278,2.9498,-1.30546
395.5,10.6433,2.96168,-1.30676
396,10.6593,2.96877,-1.30788
396.5,10.6746,2.96353,-1.30913
397,10.6902,2.96643,-1.30963
397.5,10.706,2.98214,-1.31103
398,10.7214,2.98378,-1.31272
398.5,10.7372,2.98518,-1.31462
399,10.7527,2.98979,-1.316
399.5,10.7682,2.99142,-1.31737
400,10.7836,2.996,-1.31897
400.5,10.7992,3.0036,-1.32095
401,10.8149,3.00302,-1.32272
401.5,10.8307,3.00418,-1.32416
402,10.8464,3.00604,-1.32565
402.5,10.8617,3.01464,-1.32735
403,10.8776,3.02494,-1.32908
403.5,10.8929,3.02948,-1.33006
404,10.9086,3.03041,-1.33078
404.5,10.9243,3.03052,-1.33282
405,10.9398,3.03451,-1.3345
405.5,10.9555,3.04396,-1.33483
406,10.9712,3.05514,-1.3364
406.5,10.9867,3.06101,-1.33766
407,11.0022,3.06799,-1.33683
407.5,11.018,3.0743,-1.33816
408,11.0337,3.07619,-1.33893
408.5,11.0492,3.08058,-1.34009
409,11.0649,3.08516,-1.34168
409.5,11.0808,3.09032,-1.34268
410,11.096,3.08664,-1.34363
410.5,11.112,3.09768,-1.34419
411,11.1276,3.11104,-1.34574
411.5,11.1431,3.11693,-1.34714
412,11.1591,3.12284,-1.34853
412.5,11.1743,3.12287,-1.35009
413,11.1903,3.12708,-1.35134
413.5,11.2059,3.12916,-1.35265
414,11.2214,3.13111,-1.35551
414.5,11.2374,3.14066,-1.35671
415,11.2526,3.14371,-1.35773
415.5,11.2686,3.14714,-1.36022
416,11.2841,3.15092,-1.36189
416.5,11.3,3.15933,-1.36339
417,11.3156,3.16118,-1.36434
417.5,11.3312,3.16206,-1.36696
418,11.3471,3.16664,-1.36873
418.5,11.3626,3.165,-1.3699
419,11.3784,3.17303,-1.37108
419.5,11.3939,3.1766,-1.37279
420,11.4099,3.18856,-1.37462
420.5,11.4256,3.18942,-1.37622
421,11.441,3.1939,-1.37741
421.5,11.4569,3.19614,-1.37894
422,11.4725,3.20118,-1.38056
422.5,11.4881,3.20094,-1.38191
423,11.5042,3.2082,-1.38294
423.5,11.5196,3.21274,-1.38443
424,11.5355,3.21356,-1.38602
424.5,11.5504,3.21603,-1.38596
425,11.5669,3.22177,-1.38685
425.5,11.5827,3.22604,-1.38837
426,11.5983,3.22924,-1.38862
426.5,11.6141,3.23067,-1.39094
427,11.63,3.22482,-1.39321
427.5,11.6457,3.24133,-1.39437
428,11.6612,3.24275,-1.3959
428.5,11.6769,3.24764,-1.39649
429,11.6929,3.24974,-1.3979
429.5,11.7085,3.25279,-1.39825
430,11.724,3.25445,-1.40027
430.5,11.7394,3.24992,-1.40192
431,11.7558,3.25474,-1.40306
431.5,11.7715,3.25183,-1.40457
432,11.7873,3.25743,-1.40481
432.5,11.8031,3.26101,-1.40635
433,11.8188,3.25968,-1.40821
433.5,11.8344,3.26344,-1.4101
434,11.8504,3.26994,-1.41063
434.5,11.8659,3.26236,-1.41201
435,11.8819,3.26466,-1.41291
435.5,11.8979,3.26453,-1.41395
436,11.9132,3.26837,-1.41672
436.5,11.9295,3.26683,-1.41833
437,11.9451,3.26636,-1.41925
437.5,11.9607,3.26284,-1.42016
438,11.9766,3.26409,-1.42183
438.5,11.9923,3.26462,-1.42212
439,12.0081,3.26272,-1.4238
439.5,12.024,3.26439,-1.42523
440,12.0397,3.26832,-1.42635
440.5,12.0557,3.26749,-1.42771
441,12.0713,3.26592,-1.42952
441.5,12.0871,3.26337,-1.43131
442,12.1021,3.26167,-1.43236
442.5,12.1191,3.26207,-1.43361
443,12.1346,3.26098,-1.43514
443.5,12.1505,3.26196,-1.43709
444,12.1663,3.26138,-1.43899
444.5,12.1821,3.26109,-1.44024
445,12.1981,3.2603,-1.44115
445.5,12.214,3.25679,-1.44275
446,12.2298,3.26049,-1.44392
446.5,12.2456,3.26378,-1.44552
447,12.2616,3.26166,-1.44747
447.5,12.2772,3.25756,-1.44868
448,12.2934,3.25794,-1.44928
448.5,12.3089,3.25956,-1.45029
449,12.3248,3.26092,-1.45004
449.5,12.3407,3.25966,-1.45063
450,12.3565,3.25652,-1.45212
450.5,12.3725,3.25798,-1.45353
451,12.3882,3.26521,-1.45492
451.5,12.4041,3.27018,-1.45608
452,12.42,3.26847,-1.4578
452.5,12.4356,3.26776,-1.45826
453,12.4518,3.26299,-1.45938
453.5,12.4678,3.26573,-1.46155
454,12.4835,3.27306,-1.46251
454.5,12.4995,3.27416,-1.46373
455,12.5153,3.26913,-1.46515
455.5,12.531,3.274,-1.46541
456,12.5472,3.2764,-1.46672
456.5,12.5627,3.27512,-1.46622
457,12.579,3.27782,-1.46681
457.5,12.595,3.28218,-1.46772
458,12.6106,3.27447,-1.46874
458.5,12.6265,3.28082,-1.47084
459,12.6425,3.28309,-1.47358
459.5,12.6583,3.28531,-1.47567
460,12.6741,3.28217,-1.47779
460.5,12.6901,3.28672,-1.47892
461,12.7061,3.28223,-1.48005
461.5,12.722,3.27977,-1.48181
462,12.7381,3.27891,-1.48236
462.5,12.7537,3.27541,-1.48371
463,12.7693,3.27527,-1.48495
463.5,12.7852,3.26634,-1.48578
464,12.8015,3.26999,-1.48755
464.5,12.8177,3.2743,-1.48911
465,12.8335,3.27058,-1.49061
465.5,12.8494,3.26479,-1.49206
466,12.8652,3.25748,-1.49308
466.5,12.8814,3.25551,-1.49505
467,12.8974,3.25599,-1.49721
467.5,12.913,3.25357,-1.49854
468,12.9288,3.25032,-1.4998
468.5,12.9452,3.24157,-1.50148
469,12.9609,3.23798,-1.50339
469.5,12.9768,3.2359,-1.50502
470,12.9926,3.23124,-1.50449
470.5,13.0087,3.22507,-1.50564
471,13.0246,3.22569,-1.50713
471.5,13.0407,3.2244,-1.50807
472,13.0565,3.22097,-1.50895
472.5,13.0726,3.21384,-1.50997
473,13.0887,3.20499,-1.51005
473.5,13.1044,3.2043,-1.51113
474,13.1203,3.20321,-1.51316
474.5,13.1367,3.19601,-1.51361
475,13.1524,3.19285,-1.51463
475.5,13.1685,3.19339,-1.51456
476,13.184,3.191,-1.51493
476.5,13.2003,3.17895,-1.51599
477,13.2164,3.17617,-1.51697
477.5,13.2322,3.17124,-1.51745
478,13.2474,3.16409,-1.51863
478.5,13.2641,3.15423,-1.51943
479,13.2802,3.15234,-1.52077
479.5,13.2959,3.1512,-1.52252
480,13.3121,3.1519,-1.52316
480.5,13.3281,3.14203,-1.52445
481,13.3443,3.14109,-1.52627
481.5,13.3599,3.13771,-1.52687
482,13.3762,3.13745,-1.52857
482.5,13.3921,3.13201,-1.52997
483,13.4077,3.13104,-1.53084
483.5,13.4241,3.12489,-1.53211
484,13.44,3.11895,-1.53263
484.5,13.456,3.11753,-1.53349
485,13.4721,3.11464,-1.53386
485.5,13.488,3.11881,-1.53488
486,13.5042,3.11578,-1.53498
486.5,13.5202,3.11571,-1.53577
487,13.5361,3.11645,-1.5353
487.5,13.5521,3.1133,-1.53674
488,13.5681,3.11286,-1.53703
488.5,13.5835,3.11131,-1.53821
489,13.5995,3.10968,-1.53923
489.5,13.6154,3.10622,-1.53946
490,13.632,3.10256,-1.54089
490.5,13.6481,3.0982,-1.5416
491,13.6641,3.10243,-1.54184
491.5,13.6796,3.0966,-1.54269
492,13.6955,3.094,-1.54325
492.5,13.7117,3.08938,-1.54489
493,13.7275,3.08616,-1.54674
493.5,13.7438,3.08246,-1.54899
494,13.7598,3.07993,-1.54967
494.5,13.7757,3.08004,-1.55159
495,13.792,3.0743,-1.55297
495.5,13.8086,3.0725,-1.55441
496,13.8245,3.06513,-1.5559
496.5,13.8404,3.05762,-1.55782
497,13.857,3.05541,-1.56008
497.5,13.8723,3.05798,-1.56231
498,13.8887,3.05025,-1.56429
498.5,13.9047,3.04301,-1.56595
499,13.9207,3.03991,-1.56818
499.5,13.9369,3.04576,-1.57004
500,13.9529,3.04292,-1.57166
500.5,13.969,3.04303,-1.57304
501,13.9848,3.03374,-1.57443
501.5,14.0011,3.03085,-1.5754
502,14.0174,3.02479,-1.57582
502.5,14.0332,3.02326,-1.57591
503,14.0492,3.01776,-1.5772
503.5,14.0652,3.0207,-1.57758
504,14.0816,3.01964,-1.57908
504.5,14.0971,3.01789,-1.58072
505,14.1133,3.01598,-1.58219
505.5,14.1295,3.0148,-1.58267
506,14.1457,3.01296,-1.58403
506.5,14.1615,3.00732,-1.58495
507,14.1778,3.00899,-1.58572
507.5,14.1937,3.00786,-1.58718
508,14.2102,3.00885,-1.58725
508.5,14.226,3.00562,-1.58854
509,14.242,2.99977,-1.58866
509.5,14.258,2.99829,-1.59023
510,14.2742,3.00052,-1.5909
510.5,14.2903,2.99666,-1.59169
511,14.3063,2.99622,-1.59281
511.5,14.3223,2.99536,-1.59334
512,14.3382,2.9913,-1.59423
512.5,14.3545,2.9965,-1.5951
513,14.3706,2.99526,-1.59529
513.5,14.3866,2.99361,-1.59635
514,14.4026,2.98607,-1.59665
514.5,14.4189,2.99032,-1.59815
515,14.435,2.98614,-1.5996
515.5,14.4511,2.9848,-1.60024
516,14.4672,2.98297,-1.60171
516.5,14.4835,2.98012,-1.60347
517,14.4993,2.97824,-1.60514
517.5,14.5154,2.98076,-1.6076
518,14.5315,2.97632,-1.6099
518.5,14.5476,2.97689,-1.61184
519,14.5635,2.97462,-1.6137
519.5,14.58,2.97429,-1.61676
520,14.5956,2.97243,-1.6182
520.5,14.612,2.97029,-1.62006
521,14.6283,2.96176,-1.62168
521.5,14.6443,2.9664,-1.62345
522,14.6606,2.97007,-1.6255
522.5,14.6767,2.96977,-1.62712
523,14.6928,2.97591,-1.6282
523.5,14.7089,2.97325,-1.62969
524,14.7251,2.96238,-1.63158
524.5,14.7411,2.9698,-1.63343
525,14.757,2.96538,-1.63497
525.5,14.7735,2.96092,-1.63639
526,14.7896,2.96467,-1.63719
526.5,14.806,2.96547,-1.63905
527,14.8218,2.97022,-1.64064
527.5,14.838,2.96685,-1.64275
528,14.8541,2.96372,-1.64491
528.5,14.8703,2.95779,-1.6465
529,14.8862,2.96804,-1.64807
529.5,14.9023,2.96384,-1.64965
530,14.9191,2.96221,-1.65136
530.5,14.9351,2.95791,-1.6533
531,14.9513,2.95903,-1.65628
531.5,14.9673,2.96473,-1.65814
532,14.9834,2.9631,-1.65995
532.5,14.9997,2.96954,-1.6621
533,15.0159,2.96438,-1.66431
533.5,15.0319,2.96196,-1.66587
534,15.0483,2.96394,-1.66733
534.5,15.0645,2.96506,-1.66829
535,15.0805,2.9679,-1.67001
535.5,15.097,2.96927,-1.67061
536,15.1132,2.9724,-1.67231
536.5,15.1292,2.96943,-1.67402
537,15.1455,2.97076,-1.67593
537.5,15.1615,2.97175,-1.6774
538,15.178,2.97578,-1.67918
538.5,15.194,2.96676,-1.68156
539,15.2102,2.96736,-1.68365
539.5,15.2267,2.97058,-1.68608
540,15.243,2.97024,-1.68852
540.5,15.259,2.97749,-1.68983
541,15.2751,2.97668,-1.69167
541.5,15.2913,2.98186,-1.6938
542,15.3075,2.98373,-1.69549
542.5,15.3236,2.98531,-1.69823
543,15.34,2.98036,-1.70193
543.5,15.3563,2.98446,-1.70423
544,15.3723,2.98351,-1.70731
544.5,15.3887,2.98181,-1.70996
545,15.4047,2.98161,-1.71119
545.5,15.421,2.98605,-1.71365
546,15.4372,2.98585,-1.71695
546.5,15.4536,2.98436,-1.71915
547,15.4702,2.99115,-1.72216
547.5,15.4859,2.98868,-1.72494
548,15.5026,2.99149,-1.72694
548.5,15.5187,2.99247,-1.73002
549,15.5348,2.9921,-1.73357
549.5,15.5512,2.9919,-1.73624
550,15.5679,2.99159,-1.74001
550.5,15.5838,2.99206,-1.74318
551,15.6,2.9949,-1.7452
551.5,15.6164,2.99783,-1.74805
552,15.6325,3.00232,-1.75052
552.5,15.6487,3.00242,-1.75283
553,15.6651,3.00185,-1.75603
553.5,15.6814,3.00849,-1.75895
554,15.6976,3.00524,-1.76193
554.5,15.714,3.00512,-1.76526
555,15.7298,3.00686,-1.76782
555.5,15.7465,3.00911,-1.77038
556,15.7625,3.00603,-1.77308
556.5,15.7789,3.00532,-1.77564
557,15.795,3.00678,-1.779
557.5,15.8114,3.00108,-1.78279
558,15.8276,3.00077,-1.78588
558.5,15.8436,3.00118,-1.78944
559,15.8599,3.00949,-1.79192
559.5,15.8759,3.00343,-1.79341
560,15.8928,3.007,-1.7978
560.5,15.9092,3.0064,-1.80134
561,15.9255,3.00079,-1.80656
561.5,15.9416,3.00342,-1.81026
562,15.958,3.00446,-1.81408
562.5,15.9741,3.00167,-1.81807
563,15.9906,3.00107,-1.82142
563.5,16.0068,2.99657,-1.82576
564,16.023,2.99212,-1.82887
564.5,16.0393,2.98905,-1.83292
565,16.0559,2.99238,-1.8369
565.5,16.0722,2.98681,-1.84067
566,16.0882,2.98474,-1.84508
566.5,16.1043,2.98418,-1.84957
567,16.121,2.97411,-1.8546
567.5,16.1372,2.96957,-1.85942
568,16.1536,2.96507,-1.86467
568.5,16.1695,2.96457,-1.87054
569,16.1859,2.96292,-1.87503
569.5,16.2022,2.95763,-1.88062
570,16.2186,2.95137,-1.88501
570.5,16.2347,2.95289,-1.88923
571,16.2512,2.94785,-1.8937
571.5,16.2676,2.94263,-1.89642
572,16.2837,2.93939,-1.90001
572.5,16.3,2.93221,-1.90254
573,16.3163,2.92328,-1.90594
573.5,16.3326,2.91621,-1.90987
574,16.3489,2.90996,-1.9133
574.5,16.3652,2.89791,-1.91816
575,16.3817,2.88773,-1.92306
575.5,16.3977,2.88677,-1.92653
576,16.4142,2.86805,-1.93083
576.5,16.4302,2.8632,-1.93417
577,16.4465,2.85618,-1.93805
577.5,16.4629,2.84231,-1.9426
578,16.4791,2.82883,-1.9462
578.5,16.4954,2.81665,-1.95024
579,16.5117,2.80677,-1.95273
579.5,16.5278,2.79063,-1.95593
580,16.5443,2.77361,-1.95899
580.5,16.5604,2.76095,-1.96125
581,16.5766,2.74766,-1.96481
581.5,16.593,2.73915,-1.96827
582,16.6089,2.73455,-1.97264
582.5,16.6252,2.72393,-1.9762
583,16.6418,2.70349,-1.98177
583.5,16.658,2.69432,-1.98518
584,16.6745,2.68194,-1.98863
584.5,16.6905,2.67528,-1.99239
585,16.707,2.67175,-1.99541
585.5,16.7229,2.65965,-1.998
586,16.7396,2.63096,-2.0016
586.5,16.7557,2.63718,-2.004
587,16.7719,2.63377,-2.0072
587.5,16.7874,2.63051,-2.01056
588,16.8046,2.62884,-2.01298
588.5,16.8208,2.62611,-2.01661
589,16.8365,2.6195,-2.02045
589.5,16.8535,2.62214,-2.02331
590,16.8701,2.62177,-2.02698
590.5,16.8861,2.61993,-2.02961
591,16.9026,2.62179,-2.03103
591.5,16.919,2.62179,-2.03414
592,16.9354,2.61716,-2.03617
592.5,16.9519,2.62206,-2.03829
593,16.9684,2.62309,-2.04103
593.5,16.9851,2.61984,-2.04367
594,17.0015,2.62887,-2.04572
594.5,17.018,2.63768,-2.04952
595,17.0343,2.64405,-2.05247
595.5,17.0507,2.64677,-2.05415
596,17.0673,2.65136,-2.05674
596.5,17.083,2.65067,-2.05794
597,17.0994,2.66415,-2.06004
597.5,17.1162,2.66412,-2.06329
598,17.1327,2.67258,-2.06597
598.5,17.1495,2.6693,-2.06822
599,17.1658,2.67138,-2.06965
599.5,17.1822,2.6728,-2.0719
600,17.1984,2.67751,-2.07366
600.5,17.2149,2.68552,-2.07582
601,17.2316,2.69135,-2.0779
601.5,17.248,2.69102,-2.07989
602,17.2641,2.69244,-2.08222
602.5,17.2806,2.70533,-2.08493
603,17.297,2.70763,-2.08671
603.5,17.3135,2.70919,-2.08845
604,17.3301,2.7058,-2.09066
604.5,17.3466,2.71489,-2.09237
605,17.3631,2.7223,-2.09497
605.5,17.3791,2.72224,-2.09695
606,17.3962,2.72102,-2.09941
606.5,17.4124,2.7289,-2.10208
607,17.429,2.73312,-2.10521
607.5,17.4453,2.73696,-2.10737
608,17.4618,2.73931,-2.1101
608.5,17.4783,2.74539,-2.11201
609,17.4947,2.75395,-2.11388
609.5,17.511,2.75164,-2.11536
610,17.5277,2.75466,-2.11744
610.5,17.544,2.75752,-2.11955
611,17.5606,2.75618,-2.12239
611.5,17.5771,2.76015,-2.12314
612,17.5931,2.76788,-2.12506
612.5,17.61,2.77027,-2.12851
613,17.6266,2.77517,-2.13061
613.5,17.643,2.77368,-2.13288
614,17.6596,2.77575,-2.13529
614.5,17.676,2.78382,-2.13682
615,17.6924,2.78567,-2.1387
615.5,17.7089,2.78277,-2.14046
616,17.7257,2.78654,-2.14209
616.5,17.7417,2.78682,-2.14386
617,17.7586,2.78573,-2.14591
617.5,17.7749,2.79001,-2.14862
618,17.7916,2.79285,-2.15086
618.5,17.8082,2.79539,-2.15415
619,17.8245,2.79575,-2.15775
619.5,17.8411,2.79657,-2.16013
620,17.8576,2.80256,-2.16165
620.5,17.8741,2.80577,-2.16273
621,17.8905,2.80966,-2.16529
621.5,17.907,2.80686,-2.16811
622,17.9237,2.8112,-2.17044
622.5,17.9403,2.81654,-2.17323
623,17.9566,2.81809,-2.17476
623.5,17.9731,2.82317,-2.17559
624,17.9898,2.82774,-2.17726
624.5,18.0062,2.82914,-2.17841
625,18.0228,2.83516,-2.1801
625.5,18.0388,2.83168,-2.18152
626,18.0555,2.82726,-2.1825
626.5,18.072,2.83469,-2.18419
627,18.0885,2.83709,-2.1863
627.5,18.1052,2.8457,-2.18865
628,18.1218,2.84733,-2.19229
628.5,18.1384,2.84473,-2.19486
629,18.1549,2.84888,-2.19712
629.5,18.1713,2.85035,-2.20033
630,18.1878,2.8533,-2.20275
630.5,18.2044,2.84876,-2.20511
631,18.2209,2.84964,-2.20731
631.5,18.2375,2.85416,-2.20938
632,18.2537,2.85493,-2.21078
632.5,18.2706,2.85798,-2.21234
633,18.2868,2.85655,-2.21381
633.5,18.3037,2.86045,-2.21493
634,18.3203,2.86581,-2.21666
634.5,18.3369,2.86569,-2.2168
635,18.3532,2.85759,-2.21755
635.5,18.3694,2.86607,-2.21749
636,18.3862,2.86144,-2.2178
636.5,18.4028,2.86791,-2.21807
637,18.4192,2.86792,-2.21938
637.5,18.436,2.87214,-2.2205
638,18.4522,2.87225,-2.22194
638.5,18.4688,2.86675,-2.22385
639,18.4856,2.86973,-2.22592
639.5,18.5021,2.87099,-2.22821
640,18.5184,2.87253,-2.23017
640.5,18.535,2.87598,-2.23222
641,18.5517,2.87339,-2.23429
641.5,18.5684,2.87315,-2.23623
642,18.5846,2.88433,-2.2376
642.5,18.6014,2.88728,-2.23833
643,18.6176,2.88573,-2.24089
643.5,18.6344,2.88499,-2.24274
644,18.6508,2.89187,-2.24421
644.5,18.6674,2.88902,-2.24571
645,18.6842,2.89031,-2.24757
645.5,18.7006,2.88695,-2.24961
646,18.717,2.89258,-2.25061
646.5,18.733,2.89445,-2.25113
647,18.7502,2.89635,-2.25194
647.5,18.7667,2.8984,-2.25318
648,18.7834,2.89876,-2.25422
648.5,18.7998,2.89762,-2.25601
649,18.8165,2.89661,-2.25693
649.5,18.8329,2.9045,-2.25799
650,18.8496,2.90378,-2.25975
650.5,18.8659,2.90749,-2.26059
651,18.8827,2.91085,-2.26146
651.5,18.8992,2.91736,-2.26298
652,18.9157,2.91249,-2.2645
652.5,18.932,2.91327,-2.26503
653,18.9488,2.91711,-2.26616
653.5,18.9653,2.91905,-2.26718
654,18.982,2.9234,-2.26905
654.5,18.9984,2.92665,-2.26932
655,19.0152,2.92456,-2.27036
655.5,19.0316,2.9294,-2.2712
656,19.0483,2.93181,-2.27192
656.5,19.0648,2.93418,-2.27388
657,19.0813,2.94244,-2.27546
657.5,19.098,2.93976,-2.27717
658,19.1145,2.9418,-2.27889
658.5,19.1312,2.95714,-2.28062
659,19.1479,2.96715,-2.28244
659.5,19.1645,2.96572,-2.28415
660,19.1808,2.964,-2.28598
660.5,19.1977,2.96539,-2.2866
661,19.2144,2.96141,-2.28842
661.5,19.2308,2.96254,-2.28996
662,19.2474,2.96769,-2.29073
662.5,19.2641,2.97422,-2.29241
663,19.2803,2.97174,-2.29323
663.5,19.2973,2.96917,-2.29424
664,19.3136,2.96368,-2.29571
664.5,19.3304,2.95895,-2.29643
665,19.3472,2.95955,-2.2972
665.5,19.3636,2.96685,-2.2972
666,19.3801,2.9687,-2.29782
666.5,19.3968,2.96901,-2.29864
667,19.4129,2.96769,-2.29867
667.5,19.4301,2.96956,-2.3003
668,19.4463,2.96258,-2.30034
668.5,19.4632,2.96255,-2.30278
669,19.4798,2.96323,-2.30393
669.5,19.4965,2.96114,-2.30455
670,19.5131,2.96835,-2.3058
670.5,19.5297,2.96879,-2.30617
671,19.5462,2.96598,-2.308
671.5,19.563,2.9681,-2.30946
672,19.5797,2.96818,-2.31038
672.5,19.596,2.97023,-2.31211
673,19.6128,2.96542,-2.31275
673.5,19.6293,2.97013,-2.31391
674,19.6464,2.96991,-2.31541
674.5,19.6625,2.96727,-2.315
675,19.6797,2.9682,-2.31551
675.5,19.6958,2.97448,-2.31573
676,19.7128,2.9719,-2.31697
676.5,19.7293,2.96902,-2.31742
677,19.7461,2.97137,-2.31756
677.5,19.7622,2.97078,-2.31884
678,19.7787,2.96833,-2.31934
678.5,19.7956,2.96573,-2.31935
679,19.8128,2.96891,-2.3198
679.5,19.8286,2.96545,-2.3196
680,19.846,2.9679,-2.32069
680.5,19.8625,2.96489,-2.32032
681,19.8791,2.96111,-2.32144
681.5,19.8959,2.96061,-2.32239
682,19.9124,2.96355,-2.32306
682.5,19.9289,2.95913,-2.32505
683,19.9457,2.95555,-2.32581
683.5,19.9621,2.95165,-2.3273
684,19.9789,2.95125,-2.3275
684.5,19.9954,2.95085,-2.32891
685,20.0122,2.95074,-2.32898
685.5,20.0289,2.94408,-2.33031
686,20.0455,2.94606,-2.33024
686.5,20.0623,2.94223,-2.33022
687,20.0788,2.93826,-2.33015
687.5,20.0954,2.93704,-2.32874
688,20.1121,2.93667,-2.32876
688.5,20.129,2.93808,-2.32793
689,20.1459,2.94259,-2.32738
689.5,20.1615,2.93585,-2.3274
690,20.1783,2.93192,-2.32741
690.5,20.1955,2.9282,-2.32693
691,20.2122,2.92313,-2.32629
691.5,20.2285,2.92309,-2.32786
692,20.2455,2.9172,-2.32956
692.5,20.2623,2.91669,-2.33112
693,20.2787,2.91456,-2.33377
693.5,20.2954,2.91026,-2.33791
694,20.3123,2.90164,-2.34158
694.5,20.3289,2.90057,-2.34466
695,20.3456,2.89746,-2.34874
695.5,20.3625,2.89254,-2.34991
696,20.3789,2.88964,-2.35126
696.5,20.3959,2.89128,-2.35173
697,20.4124,2.88673,-2.35282
697.5,20.4292,2.88471,-2.35325
698,20.4457,2.8825,-2.35411
698.5,20.4623,2.87964,-2.35409
699,20.4793,2.87612,-2.35408
699.5,20.4959,2.87254,-2.3541
700,20.5122,2.8727,-2.35453
700.5,20.5286,2.87097,-2.35559
701,20.5462,2.86116,-2.35666
701.5,20.5626,2.85685,-2.35717
702,20.5796,2.85593,-2.35854
702.5,20.5963,2.85277,-2.35878
703,20.6127,2.85132,-2.3595
703.5,20.6291,2.84247,-2.35966
704,20.6464,2.84394,-2.36023
704.5,20.6624,2.84348,-2.36126
705,20.6792,2.83823,-2.36118
705.5,20.6967,2.83072,-2.36213
706,20.7134,2.82445,-2.36254
706.5,20.7302,2.81999,-2.36259
707,20.7469,2.81796,-2.36183
707.5,20.7637,2.81227,-2.36188
708,20.78,2.80859,-2.36187
708.5,20.7971,2.80465,-2.36187
709,20.8138,2.79798,-2.36188
709.5,20.8307,2.798,-2.36101
710,20.8476,2.79723,-2.36057
710.5,20.8643,2.79052,-2.36055
711,20.8809,2.78476,-2.36054
711.5,20.8979,2.78253,-2.36054
712,20.9142,2.77731,-2.36122
712.5,20.9313,2.77165,-2.36188
713,20.9479,2.76026,-2.36187
713.5,20.9648,2.75445,-2.36229
714,20.9819,2.74757,-2.36336
714.5,20.9983,2.74842,-2.36371
715,21.0152,2.74552,-2.36477
715.5,21.0319,2.73477,-2.36648
716,21.0479,2.73077,-2.36816
716.5,21.0647,2.72643,-2.36985
717,21.0816,2.71814,-2.3714
717.5,21.0984,2.71625,-2.37294
718,21.1151,2.7119,-2.37453
718.5,21.1321,2.70649,-2.37594
719,21.1489,2.69948,-2.37681
719.5,21.166,2.68315,-2.37682
720,21.1828,2.68067,-2.37727
720.5,21.1997,2.67939,-2.37779
721,21.2165,2.67467,-2.3769
721.5,21.2332,2.67372,-2.37784
722,21.25,2.674,-2.37819
722.5,21.2668,2.66471,-2.37822
723,21.2836,2.6565,-2.37859
723.5,21.3008,2.64802,-2.37847
724,21.3174,2.63859,-2.37825
724.5,21.3342,2.63559,-2.37952
725,21.351,2.62645,-2.37888
725.5,21.3678,2.62672,-2.37822
726,21.3847,2.6225,-2.37823
726.5,21.4012,2.61524,-2.37806
727,21.418,2.60995,-2.37681
727.5,21.4351,2.60077,-2.37691
728,21.4519,2.59778,-2.37566
728.5,21.4686,2.5877,-2.37681
729,21.4853,2.57778,-2.37588
729.5,21.5021,2.57532,-2.37536
730,21.5191,2.56422,-2.37533
730.5,21.5359,2.54551,-2.37621
731,21.5523,2.5475,-2.37824
731.5,21.5693,2.5368,-2.3791
732,21.586,2.5333,-2.38127
732.5,21.6028,2.51974,-2.38312
733,21.6197,2.51021,-2.3847
733.5,21.6363,2.49952,-2.38634
734,21.6534,2.49533,-2.38831
734.5,21.6701,2.48163,-2.3892
735,21.6868,2.47508,-2.38947
735.5,21.7038,2.46292,-2.39054
736,21.7203,2.46069,-2.38929
736.5,21.737,2.44455,-2.38922
737,21.7542,2.43995,-2.3892
737.5,21.7706,2.43148,-2.38927
738,21.7875,2.42303,-2.38794
738.5,21.8045,2.41382,-2.38907
739,21.8213,2.40795,-2.38918
739.5,21.8377,2.39786,-2.38955
740,21.855,2.37668,-2.39059
740.5,21.8714,2.37506,-2.39178
741,21.8884,2.36436,-2.3929
741.5,21.9051,2.35645,-2.39335
742,21.9219,2.35498,-2.39451
742.5,21.9386,2.34256,-2.39447
743,21.9556,2.33525,-2.39448
743.5,21.9724,2.31965,-2.39448
744,21.9892,2.31167,-2.39448
744.5,22.0061,2.30362,-2.39448
745,22.0227,2.2924,-2.39443
745.5,22.0395,2.28331,-2.39468
746,22.0563,2.26875,-2.39431
746.5,22.0733,2.2589,-2.39538
747,22.09,2.25251,-2.3948
747.5,22.1068,2.23258,-2.39632
748,22.1238,2.21899,-2.39771
748.5,22.1405,2.21083,-2.39874
749,22.1572,2.19968,-2.39974
749.5,22.1741,2.19802,-2.40117
750,22.1909,2.17919,-2.4013
750.5,22.2079,2.17133,-2.40254
751,22.2244,2.15893,-2.40283
751.5,22.2413,2.15524,-2.40446
752,22.258,2.13893,-2.40507
752.5,22.2751,2.12862,-2.40639
753,22.2919,2.12227,-2.40626
753.5,22.3086,2.11578,-2.4074
754,22.3254,2.10136,-2.40765
754.5,22.342,2.08608,-2.40764
755,22.3587,2.06709,-2.4081
755.5,22.3755,2.06376,-2.40804
756,22.3924,2.05057,-2.40838
756.5,22.4092,2.04583,-2.40941
757,22.4257,2.04058,-2.4094
757.5,22.4429,2.02712,-2.4094
758,22.4596,2.01045,-2.4094
758.5,22.4766,1.9985,-2.4094
759,22.4934,1.98309,-2.4094
759.5,22.51,1.98007,-2.4094
760,22.5273,1.9664,-2.4094
760.5,22.5438,1.95479,-2.4094
761,22.5607,1.94213,-2.40936
761.5,22.5778,1.93201,-2.41009
762,22.5949,1.91978,-2.41039
762.5,22.6119,1.91347,-2.41035
763,22.6285,1.89954,-2.41114
763.5,22.6455,1.8869,-2.41173
764,22.6624,1.8735,-2.41171
764.5,22.6793,1.86376,-2.41171
765,22.696,1.84584,-2.41171
765.5,22.7128,1.83797,-2.41161
766,22.7295,1.83126,-2.41284
766.5,22.7467,1.82096,-2.41303
767,22.7635,1.80641,-2.41312
767.5,22.7803,1.79656,-2.41348
768,22.7969,1.78163,-2.41486
768.5,22.8141,1.77128,-2.41522
769,22.8307,1.76272,-2.41566
769.5,22.8477,1.74815,-2.41698
770,22.8646,1.73078,-2.41848
770.5,22.8814,1.71803,-2.41903
771,22.898,1.70727,-2.42052
771.5,22.9153,1.69833,-2.42051
772,22.932,1.68094,-2.4209
772.5,22.9488,1.67182,-2.42181
773,22.9656,1.66021,-2.42181
773.5,22.9825,1.65408,-2.42182
774,22.9994,1.63316,-2.42196
774.5,23.0162,1.62403,-2.42402
775,23.0332,1.60858,-2.42434
775.5,23.0501,1.5993,-2.42563
776,23.0669,1.5861,-2.42587
776.5,23.0839,1.5691,-2.42587
777,23.1006,1.56409,-2.42587
777.5,23.1175,1.55415,-2.42587
778,23.1345,1.53412,-2.42587
778.5,23.151,1.52712,-2.42587
779,23.168,1.51893,-2.42587
779.5,23.185,1.50835,-2.42587
780,23.2018,1.49694,-2.42595
780.5,23.2184,1.47779,-2.42462
781,23.2355,1.45915,-2.42458
781.5,23.2524,1.46043,-2.42501
782,23.2694,1.45,-2.426
782.5,23.2861,1.43711,-2.42599
783,23.3031,1.42167,-2.42607
783.5,23.32,1.41373,-2.42739
784,23.3366,1.40334,-2.42727
784.5,23.3537,1.39424,-2.42844
785,23.3705,1.3868,-2.42861
785.5,23.3875,1.38058,-2.42858
786,23.4042,1.3564,-2.42709
786.5,23.4212,1.35378,-2.42725
787,23.4382,1.34316,-2.42564
787.5,23.4549,1.33612,-2.42676
788,23.472,1.3205,-2.42685
788.5,23.489,1.30485,-2.42686
789,23.5056,1.30327,-2.42686
789.5,23.5227,1.30126,-2.42686
790,23.5398,1.29851,-2.42669