File: 01_Data/Protective_Hood/STA/N2/30K_min/Protective_Hood_STA_N2_30KData_250625_R5.csv
Temp./C,Time/min,DSC/(mW/mg),Mass loss/mg
60.0,0.0,1.23672,-0.0183545
60.5,0.0303293,1.29201,-0.0177859
61,0.0609159,1.32605,-0.0189509
61.5,0.0901306,1.36379,-0.0205661
62,0.119223,1.41326,-0.0201743
62.5,0.147958,1.44647,-0.0197488
63,0.175856,1.4907,-0.0198049
63.5,0.203302,1.51679,-0.0200668
64,0.230346,1.54964,-0.0198289
64.5,0.257335,1.58084,-0.0192907
65,0.283664,1.62179,-0.0192398
65.5,0.308925,1.65858,-0.0208064
66,0.334773,1.68176,-0.0207477
66.5,0.358695,1.71462,-0.0212003
67,0.384354,1.74588,-0.0201292
67.5,0.409378,1.78078,-0.0193586
68,0.43356,1.80149,-0.0201117
68.5,0.457678,1.82858,-0.0212872
69,0.481693,1.85903,-0.0218635
69.5,0.505682,1.89365,-0.0215589
70,0.528726,1.92391,-0.0193821
70.5,0.552031,1.93802,-0.0172891
71,0.575262,1.97158,-0.0168077
71.5,0.598323,1.99834,-0.0187329
72,0.621079,2.02265,-0.0233808
72.5,0.643194,2.04229,-0.0254496
73,0.666097,2.06494,-0.0275621
73.5,0.687193,2.09196,-0.0275941
74,0.710511,2.1254,-0.0273858
74.5,0.732683,2.14453,-0.0268283
75,0.754333,2.17214,-0.026112
75.5,0.776295,2.19263,-0.0249126
76,0.79821,2.22306,-0.0248911
76.5,0.819568,2.24146,-0.0243702
77,0.839927,2.26026,-0.0244538
77.5,0.86173,2.28827,-0.0245364
78,0.883403,2.30654,-0.0247797
78.5,0.90505,2.33411,-0.0250202
79,0.925857,2.35387,-0.0248023
79.5,0.946367,2.3865,-0.0250143
80,0.967105,2.3974,-0.0259239
80.5,0.987777,2.42318,-0.0266986
81,1.00889,2.44365,-0.0261559
81.5,1.02912,2.46504,-0.0256383
82,1.04938,2.48907,-0.0253033
82.5,1.06955,2.50904,-0.0256267
83,1.08998,2.52789,-0.0258046
83.5,1.1107,2.55046,-0.0276926
84,1.13031,2.56844,-0.0283122
84.5,1.1508,2.59853,-0.0297491
85,1.16996,2.62949,-0.0292535
85.5,1.19047,2.6549,-0.0285735
86,1.21014,2.67144,-0.0287922
86.5,1.22953,2.70661,-0.0280177
87,1.24819,2.72598,-0.0282368
87.5,1.2698,2.75898,-0.0283924
88,1.28893,2.77428,-0.0294704
88.5,1.30819,2.79031,-0.0294413
89,1.32782,2.81256,-0.0295821
89.5,1.34788,2.83351,-0.0297572
90,1.36533,2.85828,-0.0302124
90.5,1.38478,2.8821,-0.0313414
91,1.40468,2.91174,-0.0310123
91.5,1.42401,2.92971,-0.0303181
92,1.44292,2.95503,-0.0313001
92.5,1.46231,2.98567,-0.0302212
93,1.48103,3.00981,-0.0301951
93.5,1.50015,3.02784,-0.0314261
94,1.51886,3.04882,-0.031382
94.5,1.53832,3.0715,-0.032786
95,1.55659,3.09609,-0.033234
95.5,1.57533,3.12608,-0.0342034
96,1.59432,3.15484,-0.0357069
96.5,1.6125,3.17177,-0.0349252
97,1.63137,3.18251,-0.0360264
97.5,1.65004,3.21575,-0.0366636
98,1.66846,3.23426,-0.037457
98.5,1.68642,3.25571,-0.036715
99,1.70547,3.28248,-0.0374477
99.5,1.72394,3.304,-0.0374396
100,1.74221,3.321,-0.037299
100.5,1.76026,3.34512,-0.0363711
101,1.779,3.36858,-0.0374495
101.5,1.79706,3.38914,-0.0375288
102,1.81473,3.41187,-0.0375575
102.5,1.83328,3.4246,-0.0374635
103,1.85159,3.44394,-0.0374638
103.5,1.86966,3.46559,-0.0387144
104,1.88794,3.48524,-0.038643
104.5,1.90609,3.50921,-0.0400101
105,1.92405,3.51841,-0.0400781
105.5,1.94229,3.53108,-0.040055
106,1.96031,3.54638,-0.0395368
106.5,1.9782,3.56599,-0.040039
107,1.99618,3.58366,-0.0400704
107.5,2.01412,3.59871,-0.0400869
108,2.03219,3.61449,-0.0413719
108.5,2.05003,3.62497,-0.0413824
109,2.06835,3.63889,-0.0414137
109.5,2.08579,3.65496,-0.0416689
110,2.10339,3.67437,-0.0426956
110.5,2.12147,3.68288,-0.0432725
111,2.13851,3.69518,-0.043362
111.5,2.15658,3.70537,-0.0433642
112,2.17427,3.71722,-0.0439393
112.5,2.19206,3.72501,-0.0447945
113,2.20996,3.73089,-0.0449784
113.5,2.22783,3.74575,-0.046197
114,2.24553,3.75459,-0.0467709
114.5,2.26285,3.77012,-0.0477807
115,2.28048,3.7672,-0.0495877
115.5,2.29813,3.76884,-0.0496165
116,2.3157,3.7797,-0.0496193
116.5,2.33262,3.78699,-0.0496195
117,2.35048,3.7862,-0.04847
117.5,2.36773,3.79203,-0.0483402
118,2.38464,3.79276,-0.0483124
118.5,2.40212,3.78591,-0.0483074
119,2.42008,3.79687,-0.0482585
119.5,2.43773,3.7987,-0.0493471
120,2.4549,3.7981,-0.0496066
120.5,2.47225,3.80244,-0.0502125
121,2.48937,3.79936,-0.0502652
121.5,2.50653,3.79897,-0.0509946
122,2.52396,3.79936,-0.0515877
122.5,2.54089,3.8031,-0.0516071
123,2.55854,3.80031,-0.0527107
123.5,2.57497,3.80064,-0.05352
124,2.59266,3.79492,-0.055424
124.5,2.60965,3.79853,-0.0567798
125,2.62669,3.79507,-0.0569663
125.5,2.64372,3.79221,-0.05516
126,2.66095,3.7837,-0.0547393
126.5,2.67664,3.77704,-0.0538627
127,2.69383,3.77374,-0.0539069
127.5,2.71058,3.75876,-0.0539102
128,2.72769,3.7597,-0.0539102
128.5,2.74555,3.75372,-0.0539112
129,2.76265,3.74451,-0.0539097
129.5,2.77917,3.75297,-0.0538075
130,2.79625,3.7398,-0.0551334
130.5,2.81262,3.73076,-0.0552329
131,2.82946,3.72946,-0.0552745
131.5,2.84646,3.72382,-0.0544861
132,2.86286,3.72046,-0.0551135
132.5,2.87954,3.71588,-0.0534413
133,2.89662,3.70638,-0.0532713
133.5,2.91315,3.69329,-0.0544262
134,2.9298,3.68854,-0.0547036
134.5,2.94649,3.67543,-0.0547893
135,2.96282,3.67031,-0.0563781
135.5,2.97951,3.66424,-0.0581778
136,2.99634,3.64672,-0.0592934
136.5,3.01264,3.65264,-0.0601995
137,3.02845,3.63324,-0.0601156
137.5,3.04585,3.61803,-0.0608781
138,3.06209,3.61716,-0.062114
138.5,3.07867,3.62591,-0.062125
139,3.09489,3.61579,-0.062138
139.5,3.11179,3.60835,-0.0621397
140,3.12764,3.59928,-0.0622431
140.5,3.14453,3.58662,-0.0635522
141,3.16069,3.58258,-0.0634469
141.5,3.17695,3.57819,-0.0634485
142,3.19346,3.57152,-0.0634499
142.5,3.20958,3.55823,-0.06345
143,3.22581,3.56033,-0.06345
143.5,3.24196,3.55302,-0.06345
144,3.25827,3.54514,-0.0634503
144.5,3.27403,3.54322,-0.0634492
145,3.29047,3.54118,-0.0633808
145.5,3.30622,3.53707,-0.0620761
146,3.32347,3.52712,-0.0627195
146.5,3.3393,3.52236,-0.063474
147,3.35541,3.51393,-0.0634566
147.5,3.37169,3.50667,-0.0634503
148,3.38813,3.50412,-0.0634499
148.5,3.40364,3.49531,-0.06345
149,3.42022,3.48467,-0.06345
149.5,3.43585,3.48034,-0.0634501
150,3.45212,3.47439,-0.0634504
150.5,3.46829,3.46959,-0.063447
151,3.48436,3.46581,-0.0642049
151.5,3.50046,3.46188,-0.0647732
152,3.51664,3.44997,-0.0647757
152.5,3.53242,3.43332,-0.0647704
153,3.54848,3.43673,-0.06477
153.5,3.56437,3.43687,-0.0647699
154,3.58011,3.43168,-0.0647683
154.5,3.59639,3.42242,-0.0647662
155,3.61193,3.41432,-0.0648739
155.5,3.62801,3.41514,-0.0635162
156,3.64388,3.3997,-0.0647029
156.5,3.65993,3.39761,-0.0647796
157,3.67556,3.39741,-0.0647802
157.5,3.69156,3.39617,-0.0647805
158,3.7077,3.40334,-0.0647754
158.5,3.72318,3.39734,-0.064731
159,3.73928,3.39134,-0.0654202
159.5,3.75505,3.39601,-0.0654243
160,3.77094,3.38357,-0.0654394
160.5,3.78654,3.38152,-0.0654402
161,3.80263,3.3766,-0.06544
161.5,3.81844,3.37949,-0.06544
162,3.83426,3.37857,-0.06544
162.5,3.85003,3.37817,-0.06544
163,3.86563,3.3674,-0.06544
163.5,3.88177,3.37177,-0.06544
164,3.8975,3.36819,-0.06544
164.5,3.91312,3.372,-0.06544
165,3.92878,3.37516,-0.06544
165.5,3.94452,3.36297,-0.06544
166,3.96028,3.36843,-0.06544
166.5,3.97585,3.3737,-0.0654396
167,3.99197,3.36858,-0.0654374
167.5,4.00772,3.364,-0.065457
168,4.02296,3.36534,-0.0656802
168.5,4.03886,3.3676,-0.0660958
169,4.05461,3.36626,-0.0660949
169.5,4.06995,3.37021,-0.0660966
170,4.08608,3.37064,-0.0661048
170.5,4.10159,3.37038,-0.066658
171,4.11719,3.37139,-0.0667369
171.5,4.13285,3.37293,-0.0667605
172,4.14851,3.36777,-0.066716
172.5,4.16428,3.3712,-0.0681617
173,4.17953,3.37302,-0.0686726
173.5,4.19537,3.37446,-0.0696643
174,4.21099,3.37714,-0.0695348
174.5,4.22638,3.37813,-0.0682004
175,4.24194,3.37878,-0.0680931
175.5,4.25815,3.37575,-0.0678055
176,4.27322,3.37203,-0.0673739
176.5,4.28875,3.38149,-0.0674003
177,4.30471,3.38605,-0.0674023
177.5,4.31986,3.4048,-0.0674042
178,4.33549,3.39857,-0.0672116
178.5,4.35074,3.39317,-0.066718
179,4.36665,3.39818,-0.0667437
179.5,4.3818,3.40494,-0.0667405
180,4.3972,3.40861,-0.06674
180.5,4.41308,3.41665,-0.0667401
181,4.42797,3.42008,-0.06674
181.5,4.44351,3.42497,-0.0667332
182,4.45921,3.4248,-0.0670555
182.5,4.47445,3.43337,-0.0668905
183,4.48966,3.43714,-0.0667793
183.5,4.50567,3.43889,-0.0667492
184,4.52114,3.43813,-0.0667494
184.5,4.53617,3.43856,-0.0667499
185,4.55164,3.45906,-0.0667519
185.5,4.56701,3.45704,-0.066759
186,4.58231,3.4514,-0.0666558
186.5,4.59758,3.44966,-0.0679095
187,4.61207,3.46103,-0.0680609
187.5,4.62785,3.46824,-0.0680601
188,4.64352,3.48061,-0.06806
188.5,4.65855,3.48054,-0.06806
189,4.67339,3.49182,-0.0680575
189.5,4.68917,3.49363,-0.0680563
190,4.70465,3.49681,-0.0682569
190.5,4.72023,3.50191,-0.0684109
191,4.73518,3.50942,-0.0687489
191.5,4.75067,3.50711,-0.068722
192,4.76546,3.52511,-0.0687194
192.5,4.78073,3.51529,-0.0687192
193,4.79613,3.52576,-0.0687262
193.5,4.8112,3.53226,-0.0687826
194,4.82682,3.53512,-0.0693394
194.5,4.84173,3.54054,-0.0693377
195,4.85706,3.53837,-0.0692148
195.5,4.87242,3.5455,-0.0677621
196,4.88725,3.55379,-0.067741
196.5,4.90255,3.55502,-0.0677403
197,4.91795,3.56191,-0.0677444
197.5,4.93283,3.57297,-0.0678607
198,4.94804,3.57661,-0.0695561
198.5,4.96361,3.58167,-0.0704912
199,4.97865,3.58829,-0.0712848
199.5,4.99381,3.59715,-0.0726644
200,5.00873,3.60491,-0.0727571
200.5,5.02403,3.59802,-0.0727928
201,5.03901,3.60263,-0.072813
201.5,5.05411,3.61339,-0.0727512
202,5.0693,3.62148,-0.07352
202.5,5.08438,3.63336,-0.0727319
203,5.09954,3.62984,-0.0727545
203.5,5.11481,3.64468,-0.0731119
204,5.12988,3.63946,-0.0731104
204.5,5.14522,3.65204,-0.0731195
205,5.16013,3.66155,-0.0731194
205.5,5.17525,3.65827,-0.0732129
206,5.19003,3.66077,-0.0744887
206.5,5.20551,3.67889,-0.0744989
207,5.2203,3.69249,-0.0760342
207.5,5.23536,3.70107,-0.0759458
208,5.25079,3.69844,-0.0768549
208.5,5.26591,3.70651,-0.0758931
209,5.28082,3.72387,-0.0755461
209.5,5.29591,3.72415,-0.0741545
210,5.31075,3.73063,-0.0740004
210.5,5.32611,3.75003,-0.0751588
211,5.34112,3.76284,-0.0754265
211.5,5.35636,3.77606,-0.0754255
212,5.37145,3.78815,-0.0753265
212.5,5.3863,3.8049,-0.0764911
213,5.40153,3.81673,-0.0767464
213.5,5.41668,3.83408,-0.0767407
214,5.43155,3.84521,-0.0767358
214.5,5.44665,3.86272,-0.0767255
215,5.46203,3.89794,-0.077139
215.5,5.47688,3.91313,-0.078082
216,5.49179,3.93512,-0.0780688
216.5,5.50717,3.97187,-0.07819
217,5.52208,4.01254,-0.0793494
217.5,5.53756,4.05503,-0.0793689
218,5.55241,4.10334,-0.0793702
218.5,5.5677,4.16189,-0.0793701
219,5.58303,4.2333,-0.0793698
219.5,5.598,4.30619,-0.0793679
220,5.61347,4.40191,-0.0795652
220.5,5.62896,4.53173,-0.0809086
221,5.64427,4.66622,-0.080792
221.5,5.66038,4.83264,-0.081715
222,5.67553,5.00227,-0.0822228
222.5,5.69143,5.19788,-0.0825618
223,5.70709,5.39771,-0.0838253
223.5,5.72284,5.62784,-0.0837035
224,5.73933,5.95941,-0.0847437
224.5,5.7556,6.41213,-0.0850742
225,5.77297,7.03853,-0.0855504
225.5,5.79152,7.94019,-0.0864575
226,5.80877,8.71378,-0.0866812
226.5,5.82316,8.70085,-0.088864
227,5.8369,8.36843,-0.0892585
227.5,5.8506,7.96043,-0.0905828
228,5.86453,7.57926,-0.0909458
228.5,5.87825,7.26077,-0.0923869
229,5.89218,6.96198,-0.0915074
229.5,5.90665,6.67112,-0.0924753
230,5.92043,6.41737,-0.092648
230.5,5.93458,6.19016,-0.0940475
231,5.94903,5.96206,-0.0949312
231.5,5.96301,5.77124,-0.0959043
232,5.97731,5.59901,-0.0964174
232.5,5.99169,5.43372,-0.0974742
233,6.00611,5.27445,-0.0974108
233.5,6.02074,5.12991,-0.0986131
234,6.03504,5.00559,-0.0989012
234.5,6.04972,4.89467,-0.100288
235,6.06362,4.78747,-0.10096
235.5,6.07868,4.69262,-0.102067
236,6.09328,4.60178,-0.103534
236.5,6.10802,4.52194,-0.103829
237,6.12266,4.45959,-0.105271
237.5,6.13703,4.38759,-0.105564
238,6.15189,4.31978,-0.107074
238.5,6.16623,4.27506,-0.108539
239,6.18108,4.23061,-0.109712
239.5,6.19555,4.19287,-0.110786
240,6.20994,4.15957,-0.112084
240.5,6.22476,4.13122,-0.113266
241,6.23937,4.09729,-0.114875
241.5,6.25421,4.07274,-0.117882
242,6.26884,4.04197,-0.119664
242.5,6.28426,4.01662,-0.121411
243,6.29877,4.00444,-0.122658
243.5,6.3138,3.97172,-0.122844
244,6.3286,3.95714,-0.123273
244.5,6.34333,3.95175,-0.123435
245,6.35823,3.92436,-0.125097
245.5,6.37299,3.91082,-0.126615
246,6.38787,3.90071,-0.126735
246.5,6.40242,3.88586,-0.128328
247,6.41676,3.86914,-0.130393
247.5,6.43216,3.86924,-0.132474
248,6.44694,3.86738,-0.133863
248.5,6.46184,3.86726,-0.135883
249,6.47675,3.8554,-0.137113
249.5,6.49149,3.84311,-0.139008
250,6.50606,3.84063,-0.141072
250.5,6.52142,3.8396,-0.143106
251,6.53584,3.83183,-0.14453
251.5,6.55076,3.83283,-0.146757
252,6.56548,3.83147,-0.148604
252.5,6.58077,3.82763,-0.151304
253,6.59513,3.82578,-0.15309
253.5,6.61023,3.82795,-0.155788
254,6.62479,3.83034,-0.158036
254.5,6.6399,3.83494,-0.159572
255,6.65471,3.84328,-0.162296
255.5,6.66959,3.85358,-0.165205
256,6.68441,3.86222,-0.168178
256.5,6.6991,3.87883,-0.171719
257,6.71418,3.92585,-0.174451
257.5,6.72899,3.98633,-0.177702
258,6.74436,4.02462,-0.180019
258.5,6.75925,4.08571,-0.18411
259,6.77415,4.159,-0.188111
259.5,6.78922,4.26359,-0.191724
260,6.80479,4.39717,-0.196761
260.5,6.82007,4.54765,-0.201582
261,6.83534,4.70467,-0.205804
261.5,6.85123,4.90107,-0.211039
262,6.86667,5.12404,-0.215122
262.5,6.8826,5.40136,-0.220822
263,6.89808,5.68937,-0.226418
263.5,6.91448,6.02963,-0.232028
264,6.93037,6.39721,-0.239041
264.5,6.9464,6.78129,-0.244426
265,6.96244,7.19384,-0.251254
265.5,6.97916,7.65548,-0.260649
266,6.99558,8.12322,-0.268366
266.5,7.01204,8.59618,-0.279258
267,7.02874,9.09246,-0.289253
267.5,7.04492,9.56945,-0.299471
268,7.06181,10.0574,-0.311544
268.5,7.07796,10.5212,-0.322111
269,7.09463,10.9868,-0.336767
269.5,7.11105,11.4429,-0.348884
270,7.12711,11.8661,-0.363733
270.5,7.14333,12.2944,-0.379346
271,7.15999,12.719,-0.395017
271.5,7.17639,13.1128,-0.414685
272,7.19257,13.4841,-0.430057
272.5,7.20847,13.8478,-0.44881
273,7.22479,14.2009,-0.467795
273.5,7.24091,14.5253,-0.487161
274,7.25664,14.8215,-0.51119
274.5,7.27264,15.1046,-0.530883
275,7.28862,15.3708,-0.556288
275.5,7.30412,15.5972,-0.579882
276,7.32011,15.8245,-0.604205
276.5,7.3357,16.0263,-0.634059
277,7.35101,16.2119,-0.656905
277.5,7.36651,16.3502,-0.68588
278,7.38162,16.4744,-0.715318
278.5,7.39675,16.5715,-0.741585
279,7.41164,16.6211,-0.775503
279.5,7.42613,16.6459,-0.802838
280,7.44128,16.648,-0.833779
280.5,7.45618,16.5938,-0.870806
281,7.47075,16.5062,-0.898206
281.5,7.48527,16.3825,-0.931776
282,7.49971,16.2108,-0.968153
282.5,7.5136,16.0018,-0.996181
283,7.52764,15.7593,-1.03155
283.5,7.54155,15.4786,-1.06594
284,7.55494,15.1737,-1.09432
284.5,7.56893,14.7959,-1.1304
285,7.58226,14.3841,-1.16058
285.5,7.59587,13.9287,-1.18915
286,7.60873,13.4588,-1.22225
286.5,7.62176,12.9377,-1.2531
287,7.63519,12.3596,-1.28077
287.5,7.64748,11.8048,-1.31079
288,7.66012,11.1879,-1.34045
288.5,7.67324,10.5235,-1.36424
289,7.68569,9.86423,-1.39017
289.5,7.69789,9.20077,-1.41577
290,7.71044,8.51256,-1.43415
290.5,7.72317,7.81451,-1.45603
291,7.73557,7.1359,-1.48104
291.5,7.74832,6.47003,-1.49995
292,7.76086,5.86093,-1.52123
292.5,7.7742,5.24616,-1.54653
293,7.78667,4.72426,-1.56134
293.5,7.79996,4.21159,-1.57888
294,7.81301,3.76746,-1.59708
294.5,7.82629,3.34746,-1.60957
295,7.83996,2.97492,-1.62269
295.5,7.85361,2.6558,-1.63656
296,7.86741,2.36201,-1.64583
296.5,7.88119,2.1093,-1.65545
297,7.89552,1.88783,-1.66637
297.5,7.90934,1.70215,-1.67319
298,7.92335,1.53237,-1.6809
298.5,7.93783,1.38972,-1.6903
299,7.95206,1.26631,-1.69773
299.5,7.96666,1.15202,-1.70506
300,7.9806,1.07377,-1.7114
300.5,7.99539,0.987199,-1.71487
301,8.0096,0.927593,-1.7196
301.5,8.02448,0.887727,-1.7232
302,8.03873,0.84024,-1.72649
302.5,8.05326,0.797979,-1.73181
303,8.06803,0.76604,-1.73575
303.5,8.08285,0.742923,-1.74017
304,8.09739,0.715249,-1.7449
304.5,8.11257,0.690956,-1.74821
305,8.1268,0.676625,-1.75183
305.5,8.14116,0.660282,-1.75544
306,8.15562,0.650573,-1.7586
306.5,8.17063,0.63655,-1.76304
307,8.18587,0.631504,-1.76665
307.5,8.2005,0.624581,-1.77001
308,8.21542,0.613255,-1.7738
308.5,8.23007,0.614672,-1.77647
309,8.24478,0.616666,-1.77926
309.5,8.25984,0.601263,-1.78237
310,8.27467,0.601664,-1.7854
310.5,8.28938,0.602727,-1.78753
311,8.30405,0.594212,-1.79105
311.5,8.31917,0.592637,-1.7926
312,8.33388,0.590453,-1.79494
312.5,8.34863,0.585615,-1.79746
313,8.36339,0.582319,-1.80002
313.5,8.37821,0.581812,-1.80406
314,8.3934,0.595714,-1.8063
314.5,8.40774,0.587028,-1.80885
315,8.42255,0.576218,-1.81141
315.5,8.43784,0.567026,-1.8139
316,8.45249,0.565137,-1.81773
316.5,8.46723,0.562229,-1.82073
317,8.48199,0.541553,-1.82349
317.5,8.49691,0.523849,-1.82541
318,8.51146,0.530864,-1.827
318.5,8.5264,0.514142,-1.83032
319,8.54149,0.510614,-1.83219
319.5,8.55613,0.499441,-1.83423
320,8.57126,0.490443,-1.83702
320.5,8.586,0.488776,-1.83882
321,8.60075,0.481427,-1.8413
321.5,8.61558,0.466147,-1.84297
322,8.6305,0.460908,-1.84497
322.5,8.64533,0.457989,-1.84711
323,8.66011,0.45181,-1.84941
323.5,8.67494,0.433396,-1.85198
324,8.69007,0.427463,-1.85542
324.5,8.70465,0.439984,-1.85754
325,8.71947,0.427989,-1.85966
325.5,8.73434,0.419942,-1.86132
326,8.74932,0.410689,-1.86358
326.5,8.76427,0.408949,-1.86677
327,8.77901,0.398808,-1.86866
327.5,8.79361,0.388786,-1.87136
328,8.80827,0.383785,-1.87338
328.5,8.8234,0.377764,-1.87549
329,8.8386,0.371491,-1.87784
329.5,8.85323,0.359463,-1.88009
330,8.86799,0.349867,-1.88251
330.5,8.88297,0.339872,-1.8836
331,8.89773,0.332355,-1.88592
331.5,8.91263,0.320448,-1.88881
332,8.92765,0.309812,-1.89094
332.5,8.94231,0.294266,-1.89437
333,8.95699,0.286687,-1.89705
333.5,8.97195,0.272515,-1.8998
334,8.98673,0.262919,-1.90168
334.5,9.00192,0.255557,-1.9033
335,9.01657,0.246451,-1.90613
335.5,9.03187,0.244068,-1.9078
336,9.04645,0.233522,-1.91049
336.5,9.0615,0.236807,-1.91329
337,9.07656,0.227285,-1.91543
337.5,9.09147,0.215185,-1.91818
338,9.10634,0.205928,-1.92021
338.5,9.12109,0.198988,-1.92271
339,9.136,0.188899,-1.92452
339.5,9.15107,0.187083,-1.92639
340,9.16599,0.180273,-1.92862
340.5,9.18069,0.172225,-1.92971
341,9.19584,0.161585,-1.93034
341.5,9.21064,0.152925,-1.93194
342,9.22525,0.145393,-1.93472
342.5,9.24054,0.124395,-1.93828
343,9.25539,0.132157,-1.94301
343.5,9.27027,0.123248,-1.9478
344,9.28527,0.117314,-1.9503
344.5,9.30013,0.102317,-1.95322
345,9.31513,0.0884539,-1.95501
345.5,9.33011,0.0821962,-1.95664
346,9.34506,0.0811923,-1.95803
346.5,9.35958,0.0789013,-1.95935
347,9.375,0.066971,-1.96168
347.5,9.38969,0.0636165,-1.96454
348,9.40476,0.0610151,-1.96689
348.5,9.41983,0.0541663,-1.96971
349,9.43458,0.0459923,-1.97169
349.5,9.44971,0.0352724,-1.97378
350,9.46483,0.0337596,-1.97636
350.5,9.47963,0.0336597,-1.97783
351,9.49451,0.0261329,-1.98018
351.5,9.50977,0.0260709,-1.98233
352,9.52453,0.0301784,-1.98371
352.5,9.5394,0.0250911,-1.98568
353,9.55476,0.0133866,-1.98657
353.5,9.56968,0.00442329,-1.98816
354,9.58476,0.00149656,-1.99106
354.5,9.5997,-0.00375225,-1.9938
355,9.61464,0.00117441,-1.99634
355.5,9.62977,0.0106464,-1.99904
356,9.6448,0.013229,-2.00115
356.5,9.65975,0.0226315,-2.00386
357,9.6751,0.0246046,-2.0056
357.5,9.6898,0.0310954,-2.00717
358,9.70471,0.0371182,-2.00874
358.5,9.71995,0.0323288,-2.01068
359,9.73515,0.0440598,-2.01253
359.5,9.74995,0.0517542,-2.01513
360,9.76466,0.0606592,-2.01737
360.5,9.77959,0.0584181,-2.0201
361,9.79534,0.0751175,-2.02189
361.5,9.81031,0.0787322,-2.02377
362,9.82506,0.083164,-2.02625
362.5,9.84058,0.0923911,-2.02776
363,9.85542,0.0945841,-2.02913
363.5,9.8707,0.104961,-2.03162
364,9.8851,0.11777,-2.03316
364.5,9.90066,0.126441,-2.03539
365,9.91625,0.13528,-2.03757
365.5,9.93124,0.144054,-2.03925
366,9.94632,0.151652,-2.04068
366.5,9.96136,0.157334,-2.04293
367,9.97642,0.166515,-2.04552
367.5,9.99136,0.182961,-2.04703
368,10.0069,0.193992,-2.04922
368.5,10.0218,0.203885,-2.0508
369,10.0368,0.21458,-2.05213
369.5,10.052,0.220327,-2.05358
370,10.0668,0.222413,-2.05554
370.5,10.0825,0.231177,-2.05641
371,10.0974,0.239486,-2.05734
371.5,10.1127,0.240659,-2.05886
372,10.1279,0.254704,-2.06105
372.5,10.143,0.268547,-2.0634
373,10.158,0.273661,-2.06502
373.5,10.1733,0.285751,-2.06755
374,10.1884,0.308301,-2.07004
374.5,10.2035,0.316022,-2.07157
375,10.2187,0.335857,-2.07326
375.5,10.234,0.34615,-2.07516
376,10.2492,0.359032,-2.07653
376.5,10.2643,0.360834,-2.07692
377,10.2795,0.372716,-2.07863
377.5,10.2947,0.389808,-2.08043
378,10.3099,0.402565,-2.0819
378.5,10.3252,0.416386,-2.08455
379,10.3402,0.432672,-2.08735
379.5,10.3553,0.445222,-2.08897
380,10.3706,0.462368,-2.09032
380.5,10.386,0.467815,-2.09162
381,10.401,0.469036,-2.09172
381.5,10.4163,0.488729,-2.09345
382,10.4312,0.498817,-2.09479
382.5,10.4467,0.50783,-2.09504
383,10.4621,0.514637,-2.09635
383.5,10.4771,0.526672,-2.09786
384,10.4925,0.536214,-2.09927
384.5,10.5074,0.547924,-2.1004
385,10.5228,0.550659,-2.10187
385.5,10.538,0.560818,-2.10328
386,10.5532,0.571924,-2.10475
386.5,10.5684,0.580895,-2.10588
387,10.584,0.600013,-2.10722
387.5,10.599,0.603787,-2.10868
388,10.614,0.613194,-2.1086
388.5,10.6293,0.621893,-2.10979
389,10.6448,0.631849,-2.11183
389.5,10.6601,0.645754,-2.11323
390,10.6752,0.658067,-2.11453
390.5,10.6907,0.661111,-2.11586
391,10.7055,0.671273,-2.11708
391.5,10.721,0.673162,-2.11797
392,10.7365,0.683927,-2.11958
392.5,10.7515,0.69929,-2.12094
393,10.7668,0.708273,-2.12228
393.5,10.7821,0.717306,-2.12375
394,10.7973,0.723248,-2.12503
394.5,10.8127,0.727364,-2.12635
395,10.8276,0.734877,-2.12682
395.5,10.8432,0.742362,-2.12849
396,10.8582,0.751866,-2.12974
396.5,10.8738,0.762606,-2.1304
397,10.889,0.763927,-2.1319
397.5,10.9042,0.76708,-2.13321
398,10.9197,0.777222,-2.13431
398.5,10.9348,0.786958,-2.13537
399,10.9502,0.787834,-2.13642
399.5,10.9656,0.791712,-2.13621
400,10.9805,0.796993,-2.13776
400.5,10.9961,0.800143,-2.13943
401,11.0111,0.810763,-2.14024
401.5,11.0264,0.815895,-2.14192
402,11.0417,0.825189,-2.14344
402.5,11.0574,0.825625,-2.14452
403,11.0729,0.832708,-2.14557
403.5,11.0879,0.840293,-2.14661
404,11.1029,0.844106,-2.14721
404.5,11.118,0.844895,-2.14863
405,11.1332,0.848523,-2.1503
405.5,11.1492,0.848543,-2.15094
406,11.1644,0.854533,-2.15237
406.5,11.1799,0.85677,-2.1537
407,11.1951,0.861298,-2.15448
407.5,11.2104,0.863661,-2.1557
408,11.2259,0.866541,-2.15685
408.5,11.241,0.871315,-2.1576
409,11.2565,0.874212,-2.1592
409.5,11.2715,0.873133,-2.16056
410,11.287,0.878514,-2.16029
410.5,11.3025,0.884703,-2.16114
411,11.3177,0.888907,-2.16173
411.5,11.3331,0.888589,-2.16273
412,11.3485,0.891294,-2.16391
412.5,11.3638,0.899471,-2.1648
413,11.3791,0.907162,-2.16645
413.5,11.3947,0.910252,-2.16705
414,11.4098,0.90752,-2.16777
414.5,11.425,0.912073,-2.16777
415,11.4409,0.919636,-2.16884
415.5,11.4558,0.923764,-2.17055
416,11.4713,0.917471,-2.17168
416.5,11.4869,0.926327,-2.17213
417,11.5024,0.930061,-2.17361
417.5,11.5176,0.940238,-2.17414
418,11.5328,0.93662,-2.17572
418.5,11.5486,0.936631,-2.17753
419,11.5638,0.940348,-2.17797
419.5,11.5791,0.945332,-2.17951
420,11.5947,0.949256,-2.18001
420.5,11.6097,0.946346,-2.18101
421,11.6253,0.951803,-2.18279
421.5,11.6407,0.94529,-2.18225
422,11.6562,0.938903,-2.18342
422.5,11.6715,0.938245,-2.18466
423,11.687,0.94655,-2.18496
423.5,11.7025,0.958221,-2.18641
424,11.7176,0.964737,-2.18674
424.5,11.733,0.965068,-2.188
425,11.7485,0.969616,-2.18929
425.5,11.7642,0.975413,-2.18931
426,11.7794,0.976259,-2.19052
426.5,11.7945,0.974066,-2.19172
427,11.8102,0.976774,-2.19238
427.5,11.8257,0.979201,-2.19236
428,11.8413,0.986741,-2.19235
428.5,11.8565,0.987016,-2.19191
429,11.8722,0.990661,-2.19077
429.5,11.8876,0.991488,-2.19098
430,11.9027,0.995713,-2.19292
430.5,11.9184,0.994638,-2.19657
431,11.9338,0.996569,-2.19868
431.5,11.9492,0.996784,-2.20086
432,11.9645,0.997563,-2.20281
432.5,11.9801,1.00352,-2.20386
433,11.9956,1.00785,-2.20544
433.5,12.0111,1.00616,-2.20663
434,12.0266,1.0005,-2.2072
434.5,12.0419,1.00641,-2.20843
435,12.0576,1.00737,-2.20859
435.5,12.073,1.01358,-2.20994
436,12.0882,1.01586,-2.21024
436.5,12.1034,1.01922,-2.21178
437,12.1194,1.01943,-2.21309
437.5,12.1349,1.02053,-2.21312
438,12.1504,1.02817,-2.21397
438.5,12.1658,1.02699,-2.21431
439,12.1813,1.02925,-2.21561
439.5,12.1968,1.02897,-2.21619
440,12.2123,1.03244,-2.21753
440.5,12.228,1.0386,-2.21857
441,12.2436,1.03467,-2.21909
441.5,12.2589,1.04144,-2.22077
442,12.2744,1.03724,-2.2217
442.5,12.2899,1.04843,-2.22276
443,12.3055,1.04926,-2.22331
443.5,12.3208,1.04949,-2.22291
444,12.3366,1.05104,-2.22378
444.5,12.3521,1.0529,-2.22435
445,12.3676,1.05233,-2.2257
445.5,12.3831,1.0549,-2.22641
446,12.3984,1.05502,-2.22769
446.5,12.4142,1.05838,-2.22906
447,12.4299,1.06675,-2.22936
447.5,12.4452,1.06773,-2.2309
448,12.4604,1.07093,-2.23191
448.5,12.4762,1.07274,-2.23249
449,12.4919,1.07843,-2.23387
449.5,12.5075,1.0893,-2.235
450,12.5229,1.09565,-2.2359
450.5,12.5387,1.09329,-2.23657
451,12.5541,1.08929,-2.23661
451.5,12.5697,1.09547,-2.23757
452,12.5849,1.10139,-2.23865
452.5,12.601,1.10544,-2.23918
453,12.6162,1.10671,-2.24104
453.5,12.632,1.10754,-2.24177
454,12.6476,1.11499,-2.24287
454.5,12.6631,1.12005,-2.24439
455,12.6788,1.12388,-2.24481
455.5,12.6942,1.13102,-2.24604
456,12.7098,1.14008,-2.24644
456.5,12.7256,1.14547,-2.24747
457,12.7412,1.14109,-2.24809
457.5,12.7567,1.14047,-2.24901
458,12.7724,1.15182,-2.25054
458.5,12.788,1.16418,-2.25112
459,12.8034,1.16536,-2.25277
459.5,12.8193,1.17378,-2.25394
460,12.8348,1.18133,-2.25437
460.5,12.8506,1.18261,-2.25582
461,12.8659,1.18132,-2.25634
461.5,12.8819,1.19854,-2.25761
462,12.8976,1.20884,-2.25862
462.5,12.9132,1.20999,-2.25929
463,12.9285,1.21825,-2.25974
463.5,12.9445,1.22752,-2.26046
464,12.96,1.23052,-2.26159
464.5,12.9756,1.23109,-2.26351
465,12.9912,1.23738,-2.26466
465.5,13.007,1.24593,-2.26675
466,13.0226,1.25646,-2.26804
466.5,13.0385,1.26543,-2.26829
467,13.054,1.27331,-2.26833
467.5,13.0697,1.27948,-2.26835
468,13.0853,1.28471,-2.26759
468.5,13.101,1.2936,-2.26569
469,13.1165,1.29427,-2.26619
469.5,13.1325,1.30919,-2.26832
470,13.1481,1.31531,-2.27106
470.5,13.1639,1.31993,-2.27429
471,13.1794,1.32368,-2.27748
471.5,13.1948,1.33412,-2.27937
472,13.2107,1.35063,-2.27999
472.5,13.2262,1.35184,-2.28121
473,13.2422,1.36233,-2.28251
473.5,13.2577,1.37114,-2.28333
474,13.2733,1.37562,-2.2842
474.5,13.2892,1.38531,-2.28576
475,13.3051,1.38623,-2.28676
475.5,13.3206,1.39842,-2.28795
476,13.3365,1.40893,-2.29021
476.5,13.3519,1.41603,-2.29074
477,13.3677,1.42206,-2.29194
477.5,13.3835,1.43454,-2.29293
478,13.3992,1.4346,-2.29392
478.5,13.415,1.44413,-2.29564
479,13.4308,1.45525,-2.2971
479.5,13.4462,1.46161,-2.29795
480,13.462,1.46815,-2.29904
480.5,13.4779,1.4696,-2.30036
481,13.4933,1.48122,-2.30117
481.5,13.5092,1.48864,-2.30241
482,13.5251,1.49676,-2.30301
482.5,13.5407,1.50358,-2.30396
483,13.5564,1.51281,-2.304
483.5,13.5721,1.51799,-2.30468
484,13.5878,1.52068,-2.30603
484.5,13.6039,1.52834,-2.30661
485,13.6193,1.53149,-2.3076
485.5,13.6353,1.54358,-2.30885
486,13.6508,1.54828,-2.30968
486.5,13.6668,1.55774,-2.31118
487,13.6825,1.55778,-2.31168
487.5,13.6986,1.56822,-2.31229
488,13.7141,1.57838,-2.31353
488.5,13.7299,1.5847,-2.3147
489,13.7456,1.58469,-2.31548
489.5,13.7617,1.59569,-2.31698
490,13.7773,1.597,-2.31822
490.5,13.793,1.59639,-2.31943
491,13.8087,1.60746,-2.32145
491.5,13.8246,1.61316,-2.32327
492,13.8403,1.62488,-2.3239
492.5,13.856,1.62434,-2.32534
493,13.8718,1.6231,-2.32688
493.5,13.8877,1.61912,-2.32782
494,13.9033,1.62535,-2.32874
494.5,13.9192,1.62908,-2.32873
495,13.935,1.63644,-2.32926
495.5,13.9506,1.63828,-2.33043
496,13.9665,1.63756,-2.33073
496.5,13.9823,1.64561,-2.33225
497,13.998,1.64536,-2.3332
497.5,14.014,1.63405,-2.33467
498,14.0293,1.6444,-2.33622
498.5,14.0455,1.64409,-2.33742
499,14.0609,1.64733,-2.33791
499.5,14.0762,1.63959,-2.3393
500,14.092,1.64019,-2.3393
500.5,14.1079,1.64369,-2.34108
501,14.1238,1.64483,-2.34205
501.5,14.14,1.64051,-2.34302
502,14.1552,1.64349,-2.3443
502.5,14.1716,1.6381,-2.34435
503,14.1875,1.62876,-2.34614
503.5,14.2031,1.62866,-2.34691
504,14.2191,1.62861,-2.34776
504.5,14.235,1.62429,-2.34912
505,14.2507,1.62827,-2.34911
505.5,14.2666,1.62599,-2.3512
506,14.2821,1.61683,-2.35282
506.5,14.2983,1.61707,-2.35451
507,14.3142,1.61275,-2.35606
507.5,14.3298,1.60493,-2.35731
508,14.3456,1.602,-2.35807
508.5,14.3616,1.59665,-2.35885
509,14.3772,1.59038,-2.36015
509.5,14.393,1.58127,-2.36089
510,14.409,1.57087,-2.36198
510.5,14.4249,1.56318,-2.36285
511,14.4406,1.56591,-2.36229
511.5,14.4561,1.5534,-2.36388
512,14.4724,1.54015,-2.36422
512.5,14.488,1.52569,-2.36538
513,14.504,1.5193,-2.36643
513.5,14.52,1.51335,-2.36713
514,14.5356,1.50563,-2.36783
514.5,14.5516,1.49291,-2.36868
515,14.5669,1.48098,-2.36964
515.5,14.5831,1.47681,-2.37061
516,14.5987,1.46175,-2.37226
516.5,14.6148,1.45109,-2.37323
517,14.6305,1.44637,-2.37368
517.5,14.6464,1.4298,-2.3745
518,14.662,1.42185,-2.3753
518.5,14.6779,1.40659,-2.37591
519,14.6933,1.39845,-2.37683
519.5,14.7099,1.38881,-2.37773
520,14.7254,1.37734,-2.37833
520.5,14.7415,1.37294,-2.37965
521,14.7574,1.36975,-2.38007
521.5,14.773,1.36091,-2.38166
522,14.7889,1.34016,-2.38279
522.5,14.805,1.33149,-2.38326
523,14.8207,1.31957,-2.38442
523.5,14.8365,1.30684,-2.38318
524,14.8524,1.29314,-2.38368
524.5,14.8685,1.28246,-2.38489
525,14.8842,1.27207,-2.38506
525.5,14.8999,1.2682,-2.38623
526,14.9159,1.25709,-2.38615
526.5,14.9319,1.24414,-2.38744
527,14.9477,1.2355,-2.3885
527.5,14.9634,1.22632,-2.3911
528,14.9789,1.21467,-2.39286
528.5,14.9955,1.21115,-2.39417
529,15.0114,1.20179,-2.39402
529.5,15.0275,1.19875,-2.39517
530,15.0433,1.19098,-2.39364
530.5,15.059,1.18227,-2.39308
531,15.0748,1.17549,-2.39316
531.5,15.0907,1.16869,-2.39216
532,15.1067,1.16155,-2.39309
532.5,15.1224,1.15488,-2.39227
533,15.1384,1.14564,-2.39292
533.5,15.1544,1.1428,-2.39316
534,15.1701,1.14017,-2.39321
534.5,15.1863,1.13239,-2.39465
535,15.2022,1.12957,-2.39442
535.5,15.218,1.12157,-2.39691
536,15.234,1.12018,-2.39745
536.5,15.2501,1.11523,-2.3977
537,15.2657,1.11078,-2.39877
537.5,15.2818,1.10075,-2.39875
538,15.2979,1.09162,-2.39876
538.5,15.3139,1.08605,-2.39899
539,15.3295,1.08204,-2.4003
539.5,15.3457,1.07354,-2.40021
540,15.3613,1.07175,-2.40146
540.5,15.3772,1.0658,-2.40154
541,15.3933,1.06179,-2.40053
541.5,15.4092,1.06037,-2.39971
542,15.4253,1.05401,-2.39974
542.5,15.4413,1.04225,-2.40013
543,15.4572,1.03645,-2.40201
543.5,15.4732,1.03195,-2.40351
544,15.4891,1.03369,-2.40579
544.5,15.505,1.03237,-2.40801
545,15.5211,1.0238,-2.40886
545.5,15.5368,1.02429,-2.40967
546,15.5523,1.01618,-2.41042
546.5,15.5691,1.04282,-2.41111
547,15.585,1.04574,-2.4117
547.5,15.6009,1.04877,-2.4117
548,15.6167,1.04449,-2.41167
548.5,15.6328,1.03832,-2.41245
549,15.649,1.02938,-2.41317
549.5,15.6648,1.03005,-2.4131
550,15.6807,1.0303,-2.41446
550.5,15.6967,1.02832,-2.41352
551,15.7127,1.0287,-2.41313
551.5,15.729,1.02521,-2.41315
552,15.7448,1.02221,-2.41313
552.5,15.7608,1.02516,-2.41424
553,15.7762,1.02525,-2.41446
553.5,15.7926,1.02059,-2.41442
554,15.8079,1.01739,-2.41533
554.5,15.8237,1.01648,-2.41578
555,15.8405,1.01805,-2.41586
555.5,15.8568,1.02136,-2.4146
556,15.8723,1.01786,-2.41435
556.5,15.8885,1.01735,-2.41565
557,15.9044,1.02258,-2.41577
557.5,15.9204,1.02351,-2.41574
558,15.9365,1.02305,-2.41673
558.5,15.9526,1.02456,-2.41781
559,15.9686,1.01625,-2.41806
559.5,15.9847,1.01999,-2.41928
560,16.0005,1.02112,-2.41976
560.5,16.0167,1.02676,-2.42072
561,16.0326,1.02362,-2.42086
561.5,16.0486,1.021,-2.42212
562,16.0644,1.02492,-2.42203
562.5,16.0805,1.0292,-2.42231
563,16.0965,1.02677,-2.42338
563.5,16.1126,1.02633,-2.42337
564,16.1286,1.02349,-2.42363
564.5,16.1443,1.02493,-2.42465
565,16.1605,1.02698,-2.42457
565.5,16.1767,1.03002,-2.42576
566,16.1925,1.03364,-2.42601
566.5,16.2083,1.03135,-2.42627
567,16.2247,1.03649,-2.42751
567.5,16.2405,1.043,-2.42759
568,16.2567,1.05003,-2.42895
568.5,16.2727,1.04837,-2.42813
569,16.2887,1.04618,-2.42748
569.5,16.3049,1.04599,-2.42752
570,16.3207,1.04367,-2.42755
570.5,16.3366,1.04818,-2.42762
571,16.3529,1.05085,-2.42882
571.5,16.3689,1.05127,-2.42884
572,16.3851,1.05248,-2.42817
572.5,16.4009,1.05641,-2.42759
573,16.417,1.0646,-2.4289
573.5,16.433,1.06413,-2.42881
574,16.4492,1.06311,-2.42874
574.5,16.4653,1.0645,-2.43054
575,16.4813,1.07272,-2.43148
575.5,16.4973,1.07128,-2.43149
576,16.5134,1.07136,-2.43275
576.5,16.5295,1.06891,-2.43283
577,16.5458,1.07583,-2.4336
577.5,16.5618,1.07999,-2.43425
578,16.5779,1.07702,-2.43422
578.5,16.5938,1.07756,-2.43365
579,16.6098,1.08754,-2.43311
579.5,16.6258,1.08277,-2.43422
580,16.642,1.08906,-2.4342
580.5,16.6582,1.09367,-2.43424
581,16.6742,1.09662,-2.43546
581.5,16.6904,1.10129,-2.4355
582,16.7066,1.09862,-2.43552
582.5,16.7224,1.09988,-2.43597
583,16.7385,1.10439,-2.43678
583.5,16.7546,1.1084,-2.43793
584,16.7711,1.10692,-2.43877
584.5,16.7867,1.11314,-2.43914
585,16.8031,1.11913,-2.43907
585.5,16.8189,1.11726,-2.44036
586,16.8351,1.12078,-2.44047
586.5,16.851,1.12067,-2.44079
587,16.8674,1.12557,-2.44183
587.5,16.8834,1.12137,-2.44176
588,16.8996,1.12665,-2.44262
588.5,16.9155,1.13179,-2.44183
589,16.9317,1.13453,-2.44178
589.5,16.9478,1.13458,-2.44236
590,16.9641,1.13509,-2.44312
590.5,16.98,1.14325,-2.44311
591,16.9962,1.14192,-2.4431
591.5,17.0119,1.14528,-2.4431
592,17.0279,1.14697,-2.44312
592.5,17.0439,1.15065,-2.44433
593,17.0607,1.15387,-2.4444
593.5,17.0764,1.16071,-2.44442
594,17.0932,1.16066,-2.44443
594.5,17.1093,1.16527,-2.44463
595,17.1253,1.17098,-2.44602
595.5,17.1416,1.17581,-2.44704
596,17.1577,1.17781,-2.44791
596.5,17.1739,1.17835,-2.44836
597,17.19,1.18467,-2.44842
597.5,17.2064,1.18581,-2.44867
598,17.2222,1.187,-2.44868
598.5,17.2383,1.19171,-2.44885
599,17.2548,1.19649,-2.44975
599.5,17.2709,1.19024,-2.44973
600,17.2869,1.19245,-2.4507
600.5,17.303,1.1978,-2.44994
601,17.3193,1.20397,-2.44983
601.5,17.3356,1.2126,-2.44983
602,17.3514,1.21243,-2.45107
602.5,17.368,1.21619,-2.45107
603,17.384,1.21296,-2.452
603.5,17.4001,1.22005,-2.45245
604,17.4164,1.22326,-2.45244
604.5,17.4323,1.22682,-2.45243
605,17.4486,1.22904,-2.45312
605.5,17.465,1.23421,-2.45376
606,17.4812,1.24036,-2.45378
606.5,17.4975,1.25168,-2.45385
607,17.5137,1.24819,-2.45502
607.5,17.5297,1.24339,-2.45507
608,17.5459,1.24832,-2.45508
608.5,17.562,1.26356,-2.45509
609,17.5782,1.26488,-2.45521
609.5,17.5943,1.26975,-2.45636
610,17.6107,1.26194,-2.45638
610.5,17.6269,1.26452,-2.4564
611,17.6432,1.27428,-2.45631
611.5,17.6594,1.27479,-2.45762
612,17.6755,1.27848,-2.45771
612.5,17.6917,1.2857,-2.45761
613,17.7079,1.29221,-2.4589
613.5,17.7239,1.29431,-2.45915
614,17.7403,1.29522,-2.45917
614.5,17.7563,1.30706,-2.45922
615,17.7731,1.31692,-2.46044
615.5,17.7889,1.32468,-2.46045
616,17.8051,1.3225,-2.46045
616.5,17.8215,1.32612,-2.46035
617,17.8377,1.33062,-2.46158
617.5,17.8543,1.33017,-2.46146
618,17.8703,1.34042,-2.46139
618.5,17.8855,1.33955,-2.46255
619,17.9021,1.34772,-2.46248
619.5,17.9189,1.35371,-2.46349
620,17.9352,1.36794,-2.46389
620.5,17.9516,1.37242,-2.46334
621,17.9676,1.37003,-2.46433
621.5,17.984,1.37555,-2.46451
622,18,1.3872,-2.46451
622.5,18.0167,1.39031,-2.46452
623,18.0327,1.38905,-2.46564
623.5,18.0493,1.39958,-2.4658
624,18.0652,1.40612,-2.46583
624.5,18.0815,1.40988,-2.46583
625,18.0976,1.4148,-2.46585
625.5,18.114,1.4159,-2.46707
626,18.1299,1.42403,-2.46712
626.5,18.1457,1.43153,-2.46715
627,18.1628,1.43866,-2.46715
627.5,18.1791,1.44348,-2.46719
628,18.1954,1.45535,-2.46848
628.5,18.2117,1.46659,-2.46845
629,18.2281,1.47268,-2.46848
629.5,18.2443,1.47709,-2.46845
630,18.2605,1.48377,-2.46962
630.5,18.277,1.48339,-2.4694
631,18.2932,1.49337,-2.46987
631.5,18.3094,1.50136,-2.47008
632,18.3258,1.51216,-2.47011
632.5,18.3421,1.51896,-2.47001
633,18.3584,1.53246,-2.4713
633.5,18.3746,1.53963,-2.47143
634,18.3909,1.54238,-2.47174
634.5,18.4072,1.55308,-2.47279
635,18.4234,1.55222,-2.47274
635.5,18.4398,1.56403,-2.47275
636,18.4559,1.56109,-2.47313
636.5,18.4725,1.56685,-2.47411
637,18.4888,1.5772,-2.47408
637.5,18.5051,1.59085,-2.47406
638,18.5214,1.60042,-2.47519
638.5,18.5377,1.60482,-2.47536
639,18.554,1.60563,-2.4754
639.5,18.5702,1.61372,-2.47584
640,18.5866,1.62527,-2.4767
640.5,18.6029,1.6284,-2.47672
641,18.6193,1.64271,-2.47706
641.5,18.6351,1.65195,-2.47801
642,18.652,1.64691,-2.478
642.5,18.6683,1.65286,-2.47795
643,18.6848,1.6647,-2.47896
643.5,18.7011,1.67045,-2.47934
644,18.7173,1.67972,-2.47934
644.5,18.7335,1.68685,-2.47926
645,18.7499,1.69407,-2.48057
645.5,18.7665,1.7025,-2.48064
646,18.7831,1.71242,-2.48077
646.5,18.7992,1.71635,-2.48142
647,18.8151,1.72115,-2.48135
647.5,18.8318,1.72922,-2.4814
648,18.8481,1.73317,-2.48304
648.5,18.8644,1.74799,-2.48433
649,18.8809,1.74542,-2.48437
649.5,18.8969,1.74953,-2.4839
650,18.9135,1.75491,-2.48263
650.5,18.93,1.76508,-2.48377
651,18.9464,1.77288,-2.48371
651.5,18.9623,1.78195,-2.48269
652,18.9793,1.78767,-2.48273
652.5,18.9951,1.79146,-2.48271
653,19.0118,1.79613,-2.48327
653.5,19.0282,1.80929,-2.48276
654,19.0446,1.80785,-2.48273
654.5,19.061,1.81205,-2.48368
655,19.0773,1.82113,-2.4847
655.5,19.0936,1.83146,-2.48539
656,19.1102,1.839,-2.48563
656.5,19.1265,1.84416,-2.48671
657,19.1429,1.84616,-2.48667
657.5,19.1593,1.85639,-2.48744
658,19.1755,1.86084,-2.48805
658.5,19.192,1.87051,-2.48742
659,19.2082,1.87808,-2.48842
659.5,19.2244,1.88891,-2.48834
660,19.2412,1.89444,-2.48833
660.5,19.2573,1.90101,-2.48832
661,19.2738,1.90603,-2.48888
661.5,19.2904,1.91913,-2.48971
662,19.307,1.9192,-2.48966
662.5,19.3229,1.92916,-2.48983
663,19.3391,1.93248,-2.49106
663.5,19.3556,1.93649,-2.49097
664,19.3721,1.94644,-2.4911
664.5,19.3878,1.95753,-2.4924
665,19.4044,1.967,-2.49192
665.5,19.4209,1.96523,-2.49198
666,19.4376,1.97021,-2.49215
666.5,19.4541,1.97798,-2.49327
667,19.4705,1.9895,-2.49328
667.5,19.4867,1.99247,-2.49328
668,19.5025,2.00151,-2.49343
668.5,19.519,2.00257,-2.49472
669,19.5356,2.01243,-2.49462
669.5,19.5519,2.01748,-2.49595
670,19.5687,2.01908,-2.49605
670.5,19.585,2.03795,-2.49733
671,19.6017,2.03314,-2.49732
671.5,19.6176,2.03878,-2.49729
672,19.6337,2.04212,-2.4982
672.5,19.6509,2.04839,-2.49869
673,19.6672,2.06294,-2.49851
673.5,19.6838,2.07244,-2.49862
674,19.7001,2.06897,-2.49862
674.5,19.7165,2.07815,-2.49942
675,19.7328,2.08199,-2.5
675.5,19.7491,2.08438,-2.49999
676,19.7653,2.08467,-2.49998
676.5,19.782,2.09888,-2.50126
677,19.7985,2.11417,-2.50128
677.5,19.8149,2.12218,-2.50159
678,19.8309,2.12178,-2.50269
678.5,19.8478,2.11206,-2.50261
679,19.8644,2.11796,-2.50262
679.5,19.8807,2.13061,-2.50313
680,19.8969,2.14078,-2.50393
680.5,19.9135,2.14187,-2.50385
681,19.9297,2.15146,-2.50516
681.5,19.9463,2.16054,-2.50524
682,19.9628,2.16782,-2.50524
682.5,19.9791,2.17288,-2.50526
683,19.9959,2.1775,-2.50528
683.5,20.012,2.1759,-2.50652
684,20.0284,2.18387,-2.50656
684.5,20.0447,2.19815,-2.50655
685,20.0613,2.21222,-2.5076
685.5,20.0778,2.21385,-2.50661
686,20.094,2.21051,-2.50651
686.5,20.1103,2.21025,-2.50781
687,20.1269,2.22356,-2.50787
687.5,20.1431,2.22548,-2.50783
688,20.1595,2.23148,-2.50887
688.5,20.1761,2.23752,-2.50918
689,20.1925,2.23834,-2.50919
689.5,20.2086,2.23751,-2.50919
690,20.2254,2.2509,-2.50919
690.5,20.2412,2.25408,-2.50927
691,20.2585,2.25619,-2.51062
691.5,20.2743,2.25986,-2.5105
692,20.2909,2.26884,-2.51152
692.5,20.3076,2.27479,-2.51191
693,20.3238,2.27407,-2.51217
693.5,20.3403,2.28478,-2.51346
694,20.3567,2.28268,-2.51337
694.5,20.3731,2.27999,-2.51461
695,20.3895,2.28811,-2.51476
695.5,20.4062,2.30793,-2.51522
696,20.4226,2.29795,-2.51628
696.5,20.439,2.30642,-2.51626
697,20.4556,2.31164,-2.51756
697.5,20.472,2.30771,-2.51752
698,20.4882,2.31255,-2.51753
698.5,20.5048,2.32659,-2.51869
699,20.5214,2.32904,-2.51752
699.5,20.5376,2.33208,-2.51753
700,20.5542,2.33077,-2.51753
700.5,20.5704,2.33556,-2.51754
701,20.5867,2.33574,-2.51759
701.5,20.603,2.33483,-2.51876
702,20.6191,2.34095,-2.51883
702.5,20.6364,2.34163,-2.51928
703,20.6525,2.35145,-2.52021
703.5,20.669,2.35452,-2.5201
704,20.6854,2.34913,-2.52111
704.5,20.7021,2.35622,-2.52085
705,20.7184,2.35973,-2.52087
705.5,20.7349,2.35627,-2.52213
706,20.7513,2.35966,-2.52212
706.5,20.7679,2.36155,-2.5221
707,20.7843,2.35812,-2.52306
707.5,20.8009,2.35801,-2.52347
708,20.8174,2.34929,-2.52343
708.5,20.8337,2.35233,-2.52432
709,20.8502,2.34781,-2.5248
709.5,20.8658,2.34551,-2.52478
710,20.8825,2.34139,-2.52478
710.5,20.899,2.33803,-2.52421
711,20.916,2.32917,-2.52561
711.5,20.9325,2.33334,-2.52543
712,20.9489,2.32933,-2.52691
712.5,20.9654,2.32426,-2.52709
713,20.9821,2.32022,-2.52749
713.5,20.9983,2.31957,-2.52846
714,21.015,2.31074,-2.52842
714.5,21.0314,2.31971,-2.52809
715,21.048,2.31927,-2.52825
715.5,21.0642,2.31684,-2.52874
716,21.081,2.30745,-2.52886
716.5,21.0975,2.30826,-2.52977
717,21.114,2.30805,-2.52971
717.5,21.1304,2.29983,-2.52972
718,21.1468,2.29748,-2.5297
718.5,21.1634,2.28784,-2.53022
719,21.1797,2.27191,-2.53121
719.5,21.1965,2.26484,-2.53116
720,21.213,2.25778,-2.53239
720.5,21.2292,2.253,-2.53256
721,21.2456,2.24944,-2.53371
721.5,21.2623,2.24075,-2.53266
722,21.2786,2.23695,-2.53267
722.5,21.2954,2.24005,-2.53268
723,21.3116,2.23578,-2.5333
723.5,21.3282,2.23114,-2.53401
724,21.3448,2.22325,-2.534
724.5,21.3613,2.21233,-2.53401
725,21.3777,2.20869,-2.5341
725.5,21.3942,2.20396,-2.53528
726,21.4106,2.2042,-2.53525
726.5,21.4276,2.19801,-2.53619
727,21.444,2.19632,-2.53678
727.5,21.4599,2.19332,-2.53717
728,21.4764,2.18495,-2.53819
728.5,21.4931,2.17573,-2.53809
729,21.5097,2.17582,-2.53945
729.5,21.5263,2.16134,-2.53958
730,21.5428,2.17046,-2.54036
730.5,21.5595,2.17005,-2.54095
731,21.5759,2.16445,-2.54096
731.5,21.5925,2.15778,-2.5423
732,21.609,2.15819,-2.54238
732.5,21.6255,2.16066,-2.54367
733,21.6421,2.1651,-2.54364
733.5,21.6586,2.16661,-2.54368
734,21.6751,2.16248,-2.54497
734.5,21.6915,2.15414,-2.54496
735,21.7076,2.15801,-2.54555
735.5,21.7246,2.16025,-2.54637
736,21.7412,2.15276,-2.54531
736.5,21.7579,2.15203,-2.54493
737,21.7742,2.14803,-2.54599
737.5,21.7911,2.14391,-2.54649
738,21.8065,2.14002,-2.5473
738.5,21.8232,2.13897,-2.54797
739,21.8406,2.1376,-2.54791
739.5,21.8568,2.1358,-2.54875
740,21.8735,2.13449,-2.54929
740.5,21.8901,2.13398,-2.54926
741,21.9066,2.12548,-2.54894
741.5,21.9233,2.11742,-2.54871
742,21.9398,2.11371,-2.5493
742.5,21.9563,2.11189,-2.54934
743,21.9727,2.10392,-2.55056
743.5,21.9891,2.09975,-2.55062
744,22.0057,2.09946,-2.55193
744.5,22.0223,2.09768,-2.55188
745,22.0389,2.09462,-2.5526
745.5,22.0551,2.08157,-2.55322
746,22.0719,2.08155,-2.55322
746.5,22.0883,2.07801,-2.55322
747,22.1046,2.07311,-2.5535
747.5,22.1212,2.07329,-2.55463
748,22.1372,2.06257,-2.55456
748.5,22.1545,2.0541,-2.5559
749,22.1707,2.04421,-2.55596
749.5,22.1875,2.03426,-2.55613
750,22.2044,2.02438,-2.55727
750.5,22.2206,2.01701,-2.55718
751,22.2371,2.00997,-2.55853
751.5,22.2537,2.00899,-2.55861
752,22.2699,2.00358,-2.55863
752.5,22.2866,1.9976,-2.559
753,22.3025,1.97758,-2.55975
753.5,22.3192,1.98027,-2.56036
754,22.3362,1.97217,-2.56035
754.5,22.3529,1.95913,-2.56038
755,22.3691,1.95069,-2.56069
755.5,22.3855,1.94337,-2.5613
756,22.4023,1.94279,-2.56033
756.5,22.4189,1.93449,-2.56066
757,22.4357,1.9213,-2.56167
757.5,22.4519,1.90753,-2.56179
758,22.4685,1.90482,-2.56319
758.5,22.4852,1.90262,-2.56309
759,22.5015,1.88959,-2.56415
759.5,22.5182,1.88473,-2.56447
760,22.5345,1.87725,-2.56512
760.5,22.5512,1.8637,-2.56602
761,22.5676,1.85178,-2.56605
761.5,22.584,1.8301,-2.56733
762,22.6009,1.82422,-2.56736
762.5,22.6174,1.82111,-2.56792
763,22.6342,1.81727,-2.56872
763.5,22.6505,1.80327,-2.5682
764,22.6673,1.79039,-2.5689
764.5,22.6837,1.78734,-2.56873
765,22.7003,1.78234,-2.57013
765.5,22.7169,1.77459,-2.57029
766,22.7333,1.75309,-2.57156
766.5,22.7498,1.74331,-2.57207
767,22.7664,1.74424,-2.57408
767.5,22.7827,1.73722,-2.5743
768,22.7996,1.73542,-2.57434
768.5,22.8161,1.71802,-2.57565
769,22.8327,1.70495,-2.57559
769.5,22.8493,1.69514,-2.57552
770,22.8661,1.69618,-2.57674
770.5,22.8822,1.68877,-2.5757
771,22.8983,1.67434,-2.57576
771.5,22.9156,1.66053,-2.57694
772,22.9319,1.65663,-2.57693
772.5,22.9485,1.65032,-2.57708
773,22.965,1.64443,-2.57824
773.5,22.9818,1.63462,-2.57823
774,22.9981,1.61891,-2.57819
774.5,23.0147,1.61348,-2.5792
775,23.0313,1.60148,-2.57957
775.5,23.048,1.59009,-2.58023
776,23.0642,1.58708,-2.58113
776.5,23.0811,1.5749,-2.58212
777,23.0975,1.56495,-2.58251
777.5,23.1142,1.56061,-2.58254
778,23.1307,1.55156,-2.58283
778.5,23.1475,1.5427,-2.5839
779,23.1639,1.53789,-2.58386
779.5,23.1804,1.52774,-2.58416
780,23.1968,1.51373,-2.58451
780.5,23.2134,1.5097,-2.58381
781,23.2301,1.49995,-2.5847
781.5,23.2468,1.49417,-2.58517
782,23.2636,1.49062,-2.58437
782.5,23.2801,1.48857,-2.5855
783,23.2965,1.4799,-2.5856
783.5,23.3131,1.47208,-2.58556
784,23.3298,1.46175,-2.58663
784.5,23.3466,1.45528,-2.58691
785,23.3629,1.45061,-2.58824
785.5,23.3797,1.4379,-2.58839
786,23.3961,1.429,-2.5892
786.5,23.413,1.42649,-2.58979
787,23.4291,1.42052,-2.58973
787.5,23.4452,1.41829,-2.59043
788,23.4626,1.41322,-2.59112
788.5,23.4793,1.41084,-2.59109
789,23.4958,1.3998,-2.59109
789.5,23.5125,1.39805,-2.59109
790,23.5289,1.3998,-2.59112