File: 01_Data/Protective_Hood/STA/N2/30K_min/Protective_Hood_STA_N2_30KData_250611_R3.csv
Temp./C,Time/min,DSC/(mW/mg),Mass loss/mg
60.0,0.0,1.3472,-0.0165945
60.5,0.0299748,1.3928,-0.0175064
61,0.0591187,1.43802,-0.0191905
61.5,0.0899111,1.48309,-0.0173608
62,0.118958,1.52448,-0.0170354
62.5,0.146208,1.56571,-0.017859
63,0.175445,1.60791,-0.0194868
63.5,0.201804,1.65088,-0.0196659
64,0.228839,1.696,-0.0191611
64.5,0.254865,1.72485,-0.0180178
65,0.281402,1.76418,-0.0178584
65.5,0.30719,1.78867,-0.0179403
66,0.332509,1.82854,-0.0187013
66.5,0.357878,1.86474,-0.0188879
67,0.382613,1.88885,-0.0185258
67.5,0.406978,1.93251,-0.0180639
68,0.431197,1.96349,-0.0185736
68.5,0.456048,1.99069,-0.0196768
69,0.479233,2.01992,-0.0213195
69.5,0.502667,2.05924,-0.0211391
70,0.524864,2.08926,-0.0200757
70.5,0.548862,2.12203,-0.0196383
71,0.572374,2.14229,-0.0207094
71.5,0.595341,2.17183,-0.0218204
72,0.617652,2.21208,-0.0214864
72.5,0.6403,2.23828,-0.0210318
73,0.662696,2.26384,-0.0205793
73.5,0.684527,2.29391,-0.0206113
74,0.707325,2.33456,-0.0211575
74.5,0.728758,2.35552,-0.0214343
75,0.750745,2.38181,-0.0218601
75.5,0.772536,2.41045,-0.0216464
76,0.794008,2.43538,-0.0222009
76.5,0.815724,2.47496,-0.0218694
77,0.837677,2.49523,-0.0215548
77.5,0.858333,2.52683,-0.0216819
78,0.879616,2.55738,-0.0218327
78.5,0.900352,2.58992,-0.0219174
79,0.921418,2.61599,-0.0229271
79.5,0.942374,2.64182,-0.0234402
80,0.963387,2.6688,-0.0241822
80.5,0.983703,2.69495,-0.0249529
81,1.00415,2.72744,-0.0243698
81.5,1.02447,2.75099,-0.0231856
82,1.04553,2.77994,-0.0215598
82.5,1.06369,2.80298,-0.0229867
83,1.08554,2.82731,-0.022369
83.5,1.10619,2.86694,-0.0229826
84,1.12572,2.89985,-0.0237017
84.5,1.14571,2.9174,-0.02463
85,1.16526,2.94008,-0.0252259
85.5,1.18602,2.96743,-0.0248341
86,1.20534,3.00432,-0.0250122
86.5,1.2254,3.0253,-0.0252206
87,1.24527,3.05489,-0.0250981
87.5,1.26482,3.08081,-0.0252672
88,1.28434,3.10958,-0.0264244
88.5,1.30351,3.13549,-0.0257886
89,1.32297,3.16286,-0.0273668
89.5,1.34258,3.18936,-0.0277374
90,1.36167,3.21324,-0.0274854
90.5,1.38076,3.24011,-0.0293461
91,1.40019,3.26076,-0.0298271
91.5,1.41938,3.29532,-0.0295439
92,1.43889,3.32656,-0.0301697
92.5,1.45748,3.35193,-0.029552
93,1.47698,3.3704,-0.029937
93.5,1.49508,3.38655,-0.0310063
94,1.51367,3.41865,-0.0307996
94.5,1.53295,3.4365,-0.0310232
95,1.55167,3.47162,-0.030277
95.5,1.57069,3.49818,-0.0308665
96,1.58927,3.51309,-0.0307679
96.5,1.60761,3.54249,-0.031724
97,1.62672,3.56143,-0.030807
97.5,1.64508,3.59812,-0.0317042
98,1.66334,3.61326,-0.0321555
98.5,1.6815,3.6352,-0.0327326
99,1.70043,3.66195,-0.0337567
99.5,1.7186,3.68171,-0.0342421
100,1.73735,3.69622,-0.035153
100.5,1.75534,3.7226,-0.0356933
101,1.77384,3.74527,-0.0365356
101.5,1.79192,3.76747,-0.0357846
102,1.81053,3.78245,-0.0366985
102.5,1.82808,3.80395,-0.036756
103,1.84659,3.82356,-0.0380835
103.5,1.86478,3.84582,-0.0380674
104,1.88285,3.86694,-0.0394107
104.5,1.90096,3.88881,-0.0393368
105,1.91902,3.89992,-0.040677
105.5,1.9367,3.92069,-0.0407349
106,1.95542,3.93811,-0.0412033
106.5,1.97289,3.96334,-0.0407954
107,1.99116,3.96667,-0.0407383
107.5,2.00876,3.98036,-0.0407828
108,2.02687,4.00364,-0.0421537
108.5,2.04443,4.0189,-0.0420504
109,2.06197,4.0369,-0.04205
109.5,2.08033,4.04155,-0.0420649
110,2.09822,4.05376,-0.0422316
110.5,2.11598,4.06328,-0.043408
111,2.13364,4.07297,-0.0423263
111.5,2.15136,4.08302,-0.0420766
112,2.16857,4.08594,-0.042052
112.5,2.18691,4.09377,-0.042056
113,2.2045,4.09275,-0.0420512
113.5,2.22227,4.11329,-0.0434214
114,2.23971,4.12267,-0.0448146
114.5,2.25726,4.1223,-0.0456621
115,2.27492,4.12582,-0.0461069
115.5,2.29227,4.13921,-0.046113
116,2.30972,4.14946,-0.0461863
116.5,2.32729,4.15014,-0.0475306
117,2.34473,4.14887,-0.0474317
117.5,2.36231,4.1526,-0.0473405
118,2.37983,4.14572,-0.0486897
118.5,2.39701,4.15653,-0.0487488
119,2.41465,4.15304,-0.0487495
119.5,2.4317,4.15816,-0.0487071
120,2.4492,4.1694,-0.0497276
120.5,2.46639,4.17481,-0.0500514
121,2.48359,4.17734,-0.0500606
121.5,2.50104,4.17486,-0.0500595
122,2.51812,4.16457,-0.0500533
122.5,2.53536,4.16561,-0.0504558
123,2.55211,4.17023,-0.0514159
123.5,2.56961,4.16875,-0.051399
124,2.58573,4.15707,-0.0514694
124.5,2.603,4.14264,-0.0526728
125,2.62097,4.15221,-0.0526898
125.5,2.63796,4.15059,-0.052699
126,2.65472,4.14824,-0.0527001
126.5,2.67211,4.13321,-0.0527035
127,2.68887,4.13405,-0.0527746
127.5,2.70602,4.13151,-0.0540788
128,2.7225,4.12879,-0.053945
128.5,2.73988,4.12054,-0.0548357
129,2.75637,4.12119,-0.055018
129.5,2.77322,4.12066,-0.0549821
130,2.79022,4.11016,-0.0561285
130.5,2.80673,4.11237,-0.0563087
131,2.82375,4.10419,-0.0563204
131.5,2.84044,4.09479,-0.0563207
132,2.85711,4.08952,-0.0563211
132.5,2.87328,4.08987,-0.0562893
133,2.88946,4.07806,-0.056019
133.5,2.90635,4.07223,-0.0561967
134,2.92354,4.08178,-0.0563215
134.5,2.94045,4.07202,-0.0563226
135,2.95659,4.06511,-0.0563451
135.5,2.97349,4.05631,-0.0576077
136,2.98918,4.04929,-0.0576204
136.5,3.00633,4.04529,-0.0576383
137,3.02297,4.04315,-0.0576401
137.5,3.03916,4.03892,-0.0576418
138,3.05609,4.02987,-0.0576522
138.5,3.07241,4.03209,-0.0575923
139,3.08867,4.03178,-0.0589003
139.5,3.10572,4.0253,-0.0589585
140,3.1214,4.0244,-0.0589602
140.5,3.13767,4.01303,-0.05896
141,3.15446,4.00045,-0.05896
141.5,3.1707,3.99933,-0.058961
142,3.1864,3.99736,-0.0589701
142.5,3.20349,3.99324,-0.0589532
143,3.21958,3.99151,-0.0600947
143.5,3.23573,3.97489,-0.0602562
144,3.25221,3.97767,-0.0602711
144.5,3.26834,3.97067,-0.0602703
145,3.2847,3.96864,-0.0602699
145.5,3.3005,3.96924,-0.060271
146,3.3172,3.9546,-0.0602807
146.5,3.33343,3.9622,-0.0602402
147,3.34913,3.97068,-0.0613761
147.5,3.36537,3.95614,-0.0615777
148,3.38171,3.9501,-0.0615915
148.5,3.3977,3.95253,-0.0615904
149,3.41377,3.9555,-0.0615881
149.5,3.42985,3.95328,-0.0615753
150,3.44607,3.95626,-0.0616328
150.5,3.46189,3.95289,-0.0603343
151,3.47818,3.94435,-0.0602709
151.5,3.4939,3.9407,-0.0602695
152,3.51025,3.95229,-0.0602771
152.5,3.52621,3.94535,-0.0603416
153,3.54177,3.94254,-0.0608968
153.5,3.55825,3.94357,-0.061439
154,3.57415,3.93869,-0.0615866
154.5,3.58996,3.93323,-0.0615912
155,3.60609,3.93896,-0.0615901
155.5,3.62213,3.93522,-0.06159
156,3.6379,3.93321,-0.06159
156.5,3.65412,3.92408,-0.06159
157,3.66986,3.92635,-0.0615917
157.5,3.68561,3.92932,-0.0616024
158,3.70157,3.94084,-0.0615312
158.5,3.7178,3.93979,-0.0628176
159,3.73315,3.93583,-0.0628833
159.5,3.74894,3.93418,-0.0627615
160,3.76512,3.92771,-0.0616026
160.5,3.78101,3.92388,-0.0615928
161,3.79652,3.93958,-0.061589
161.5,3.81247,3.93789,-0.0615414
162,3.82836,3.94125,-0.0623658
162.5,3.84406,3.93371,-0.0629402
163,3.85998,3.93746,-0.0629138
163.5,3.8754,3.93669,-0.0629097
164,3.89146,3.93949,-0.0629099
164.5,3.90743,3.94217,-0.0629101
165,3.92334,3.94358,-0.0629099
165.5,3.93823,3.94187,-0.0629061
166,3.95467,3.95321,-0.0629014
166.5,3.96991,3.95015,-0.0633119
167,3.98586,3.95697,-0.0642698
167.5,4.00147,3.96082,-0.0642159
168,4.01773,3.95711,-0.064219
168.5,4.03304,3.95452,-0.06422
169,4.04866,3.96564,-0.0642201
169.5,4.06393,3.97205,-0.064219
170,4.0802,3.97627,-0.0642107
170.5,4.09555,3.98143,-0.0642548
171,4.11136,3.9883,-0.0632043
171.5,4.12726,3.97345,-0.0629022
172,4.1427,3.98648,-0.062897
172.5,4.15838,3.98751,-0.0628997
173,4.1739,3.988,-0.0629019
173.5,4.1894,3.9902,-0.0629121
174,4.20521,3.99712,-0.0628306
174.5,4.22062,4.00447,-0.0641105
175,4.23676,4.01506,-0.0642203
175.5,4.25199,4.02366,-0.0642205
176,4.26743,4.02494,-0.06422
176.5,4.28298,4.03321,-0.06422
177,4.29845,4.03137,-0.06422
177.5,4.31446,4.03465,-0.06422
178,4.32987,4.03636,-0.06422
178.5,4.34533,4.04,-0.0642206
179,4.36076,4.05151,-0.0642227
179.5,4.37631,4.05873,-0.0641895
180,4.39194,4.06545,-0.0640575
180.5,4.40738,4.06555,-0.0632184
181,4.42267,4.07194,-0.0632323
181.5,4.43828,4.08051,-0.0632452
182,4.45364,4.08325,-0.0632408
182.5,4.46885,4.09628,-0.0641515
183,4.48453,4.09708,-0.0653419
183.5,4.49969,4.10386,-0.0655143
184,4.51515,4.1134,-0.0655426
184.5,4.53068,4.12194,-0.0655405
185,4.54609,4.12561,-0.06554
185.5,4.56139,4.13019,-0.06554
186,4.57667,4.1403,-0.06554
186.5,4.59194,4.14446,-0.06554
187,4.60738,4.14613,-0.06554
187.5,4.62295,4.15247,-0.06554
188,4.63798,4.16074,-0.06554
188.5,4.65304,4.16765,-0.06554
189,4.66844,4.17304,-0.06554
189.5,4.68381,4.17784,-0.06554
190,4.69914,4.18733,-0.06554
190.5,4.7144,4.19803,-0.06554
191,4.72955,4.20525,-0.06554
191.5,4.7449,4.2121,-0.06554
192,4.75936,4.21122,-0.06554
192.5,4.77542,4.21156,-0.0655397
193,4.7907,4.22903,-0.0655422
193.5,4.806,4.23713,-0.0655668
194,4.82129,4.23987,-0.0667194
194.5,4.83628,4.24851,-0.0668406
195,4.85159,4.25487,-0.0671016
195.5,4.86686,4.26198,-0.0681768
196,4.88198,4.27164,-0.0681671
196.5,4.89704,4.28334,-0.0681804
197,4.91236,4.28611,-0.0681789
197.5,4.92763,4.28956,-0.0681562
198,4.94278,4.30572,-0.068285
198.5,4.95767,4.31397,-0.0682842
199,4.97302,4.32027,-0.0681606
199.5,4.98804,4.32376,-0.0681722
200,5.00349,4.33021,-0.0681733
200.5,5.01841,4.34652,-0.0686996
201,5.03363,4.35992,-0.0694067
201.5,5.04889,4.3632,-0.07062
202,5.06401,4.36631,-0.0708139
202.5,5.079,4.37689,-0.0708104
203,5.09417,4.38525,-0.0708095
203.5,5.1093,4.38773,-0.0708108
204,5.12459,4.39735,-0.0708279
204.5,5.13992,4.40592,-0.070705
205,5.15471,4.41632,-0.0718012
205.5,5.16973,4.42812,-0.0718952
206,5.18431,4.44153,-0.0719027
206.5,5.19992,4.45818,-0.0725263
207,5.215,4.46736,-0.0732654
207.5,5.22993,4.47215,-0.0732052
208,5.24519,4.47449,-0.0737404
208.5,5.26034,4.48793,-0.0746
209,5.27526,4.49518,-0.074545
209.5,5.29052,4.50713,-0.0745438
210,5.30558,4.52611,-0.0747769
210.5,5.32065,4.53737,-0.075951
211,5.33533,4.54682,-0.0758547
211.5,5.35008,4.56197,-0.0758342
212,5.36557,4.57506,-0.0763145
212.5,5.38092,4.59872,-0.0768739
213,5.39627,4.61763,-0.0778376
213.5,5.4112,4.62933,-0.0778321
214,5.42622,4.65509,-0.0781104
214.5,5.44138,4.66786,-0.0792567
215,5.45613,4.69916,-0.0791616
215.5,5.47151,4.72977,-0.0793752
216,5.48661,4.75893,-0.0805758
216.5,5.50176,4.78764,-0.0806328
217,5.51704,4.81966,-0.0819034
217.5,5.53196,4.86641,-0.0819003
218,5.54725,4.90901,-0.081916
218.5,5.5623,4.95972,-0.0831612
219,5.57765,5.02834,-0.0832132
219.5,5.5928,5.10246,-0.0835482
220,5.60825,5.19579,-0.0845788
220.5,5.62364,5.29966,-0.084429
221,5.63904,5.42502,-0.0858087
221.5,5.6546,5.56732,-0.0860988
222,5.66999,5.72922,-0.0863115
222.5,5.68553,5.91812,-0.0874887
223,5.7015,6.14817,-0.0876977
223.5,5.71776,6.4583,-0.0890685
224,5.73413,6.87732,-0.0904035
224.5,5.75082,7.41312,-0.0910765
225,5.76831,8.115,-0.0924807
225.5,5.78648,9.03614,-0.0930893
226,5.80292,9.5108,-0.0936208
226.5,5.81794,9.564,-0.0945214
227,5.83212,9.36613,-0.0949913
227.5,5.84611,8.98954,-0.0958521
228,5.85976,8.61154,-0.0960581
228.5,5.87357,8.25695,-0.0983869
229,5.88744,7.93398,-0.0986968
229.5,5.90148,7.64475,-0.0999984
230,5.91567,7.36858,-0.10067
230.5,5.92955,7.12872,-0.102574
231,5.94404,6.89353,-0.103755
231.5,5.95799,6.69542,-0.104152
232,5.97229,6.51001,-0.10583
232.5,5.98672,6.34784,-0.10625
233,6.00062,6.18654,-0.107383
233.5,6.01551,6.04722,-0.107188
234,6.02972,5.91867,-0.108529
234.5,6.04455,5.79562,-0.109914
235,6.05886,5.69,-0.111694
235.5,6.07363,5.59365,-0.11354
236,6.08792,5.50619,-0.115696
236.5,6.10286,5.42975,-0.116807
237,6.11748,5.36855,-0.117383
237.5,6.13199,5.30389,-0.118749
238,6.1468,5.24656,-0.119653
238.5,6.16116,5.20845,-0.120992
239,6.17608,5.1653,-0.121079
239.5,6.19094,5.11532,-0.122379
240,6.20576,5.07152,-0.123621
240.5,6.22021,5.04484,-0.125078
241,6.23499,5.00768,-0.126578
241.5,6.24975,4.97169,-0.127843
242,6.26455,4.95185,-0.129832
242.5,6.27935,4.93259,-0.1315
243,6.29415,4.9156,-0.133535
243.5,6.30877,4.90486,-0.135317
244,6.32384,4.885,-0.136747
244.5,6.33848,4.87166,-0.138723
245,6.35341,4.85471,-0.140614
245.5,6.36807,4.84028,-0.142172
246,6.38294,4.82997,-0.144535
246.5,6.39763,4.82676,-0.146457
247,6.4127,4.8172,-0.148837
247.5,6.42747,4.80605,-0.150374
248,6.44216,4.80363,-0.152253
248.5,6.45677,4.80361,-0.154444
249,6.47195,4.79768,-0.155996
249.5,6.48651,4.79852,-0.158691
250,6.50151,4.79724,-0.161292
250.5,6.51645,4.79581,-0.164549
251,6.53102,4.80242,-0.167229
251.5,6.54628,4.79873,-0.169382
252,6.5607,4.80079,-0.172452
252.5,6.57555,4.79498,-0.174853
253,6.5905,4.80501,-0.178324
253.5,6.60496,4.80978,-0.18196
254,6.62022,4.81965,-0.184254
254.5,6.63486,4.82864,-0.18659
255,6.64987,4.84822,-0.188731
255.5,6.66517,4.87246,-0.191776
256,6.67967,4.88978,-0.195291
256.5,6.69465,4.92267,-0.198512
257,6.70954,4.9499,-0.201643
257.5,6.72472,4.99369,-0.206284
258,6.73959,5.05759,-0.210145
258.5,6.75475,5.12624,-0.21527
259,6.76984,5.20903,-0.220734
259.5,6.78495,5.30856,-0.224434
260,6.80032,5.42433,-0.228676
260.5,6.81561,5.56041,-0.23306
261,6.83083,5.72879,-0.23772
261.5,6.84619,5.91276,-0.245121
262,6.86215,6.14367,-0.251022
262.5,6.87751,6.3831,-0.25736
263,6.89365,6.67737,-0.263578
263.5,6.90938,7.00005,-0.268864
264,6.9254,7.35248,-0.276147
264.5,6.94122,7.72674,-0.283638
265,6.95757,8.14137,-0.292715
265.5,6.97403,8.58443,-0.301346
266,6.99027,9.03017,-0.309324
266.5,7.00668,9.51253,-0.320598
267,7.02341,10.0081,-0.330141
267.5,7.03975,10.4896,-0.34166
268,7.05642,10.9841,-0.353597
268.5,7.07303,11.4808,-0.365635
269,7.08944,11.9692,-0.380676
269.5,7.10601,12.4467,-0.392778
270,7.12272,12.9177,-0.409044
270.5,7.13862,13.3478,-0.423272
271,7.15467,13.7719,-0.439009
271.5,7.17141,14.2004,-0.458134
272,7.18759,14.6059,-0.473723
272.5,7.2039,14.9878,-0.494989
273,7.2202,15.3659,-0.513395
273.5,7.23602,15.7053,-0.53382
274,7.25197,16.0293,-0.557296
274.5,7.26832,16.3471,-0.577762
275,7.28441,16.6491,-0.603891
275.5,7.29983,16.9071,-0.624503
276,7.31556,17.1484,-0.648739
276.5,7.33137,17.3738,-0.677357
277,7.34669,17.5835,-0.700368
277.5,7.36223,17.7591,-0.73066
278,7.37775,17.8812,-0.756951
278.5,7.39292,17.9971,-0.784233
279,7.40831,18.0866,-0.818719
279.5,7.42323,18.1096,-0.844142
280,7.43812,18.1271,-0.875574
280.5,7.45304,18.1011,-0.908179
281,7.46715,18.0316,-0.934837
281.5,7.48186,17.9211,-0.97022
282,7.49631,17.7788,-1.00067
282.5,7.51047,17.6018,-1.03025
283,7.52451,17.3976,-1.06682
283.5,7.53881,17.1291,-1.0953
284,7.5527,16.8555,-1.12566
284.5,7.56638,16.5535,-1.16248
285,7.58002,16.205,-1.18894
285.5,7.59366,15.8138,-1.21893
286,7.6073,15.3814,-1.25433
286.5,7.62036,14.9476,-1.27822
287,7.63362,14.4609,-1.30634
287.5,7.64685,13.9314,-1.33907
288,7.65994,13.3867,-1.36215
288.5,7.67254,12.8188,-1.38756
289,7.68553,12.2124,-1.41791
289.5,7.69836,11.5951,-1.43897
290,7.71093,10.9591,-1.46053
290.5,7.72348,10.3307,-1.48697
291,7.73613,9.68125,-1.50744
291.5,7.74891,9.0449,-1.52749
292,7.76169,8.41984,-1.5506
292.5,7.77479,7.80556,-1.5699
293,7.78715,7.24818,-1.58616
293.5,7.80021,6.68379,-1.60586
294,7.81347,6.1564,-1.6237
294.5,7.82645,5.69159,-1.63866
295,7.8399,5.24017,-1.65468
295.5,7.85333,4.83154,-1.66828
296,7.86611,4.48572,-1.67794
296.5,7.88019,4.13746,-1.69008
297,7.89421,3.82608,-1.70104
297.5,7.90772,3.56462,-1.70959
298,7.9219,3.31773,-1.71946
298.5,7.93597,3.11273,-1.7272
299,7.95002,2.92615,-1.7343
299.5,7.96434,2.74732,-1.74278
300,7.97815,2.61433,-1.7485
300.5,7.99276,2.47722,-1.75438
301,8.00721,2.36216,-1.76068
301.5,8.0214,2.26969,-1.76528
302,8.03592,2.18062,-1.77098
302.5,8.05022,2.09882,-1.77705
303,8.06492,2.01819,-1.78133
303.5,8.07921,1.97614,-1.78626
304,8.09375,1.92875,-1.79083
304.5,8.10833,1.88302,-1.79442
305,8.12317,1.83435,-1.79886
305.5,8.13769,1.79522,-1.80211
306,8.15226,1.76357,-1.80544
306.5,8.16713,1.72932,-1.80959
307,8.1818,1.70298,-1.81253
307.5,8.19658,1.68422,-1.81606
308,8.21112,1.6679,-1.8195
308.5,8.22593,1.65191,-1.8236
309,8.24053,1.62921,-1.8272
309.5,8.2555,1.61239,-1.83048
310,8.26991,1.60541,-1.83352
310.5,8.28475,1.58638,-1.83749
311,8.29949,1.56674,-1.83989
311.5,8.31407,1.56283,-1.84338
312,8.32932,1.54178,-1.8462
312.5,8.3439,1.52941,-1.84925
313,8.3588,1.52255,-1.85129
313.5,8.37347,1.51229,-1.85281
314,8.38852,1.49395,-1.85627
314.5,8.40302,1.49055,-1.85854
315,8.41797,1.48896,-1.86171
315.5,8.43256,1.47611,-1.86433
316,8.44755,1.46093,-1.86518
316.5,8.4623,1.44774,-1.86787
317,8.47716,1.4418,-1.8703
317.5,8.4917,1.4311,-1.87362
318,8.50676,1.41856,-1.87624
318.5,8.52165,1.41185,-1.88006
319,8.53637,1.39293,-1.88309
319.5,8.55103,1.38182,-1.88454
320,8.56601,1.37267,-1.88723
320.5,8.5809,1.36029,-1.88963
321,8.59574,1.35326,-1.89121
321.5,8.61046,1.34477,-1.89376
322,8.62545,1.33754,-1.89609
322.5,8.63985,1.32803,-1.89933
323,8.65489,1.31619,-1.90127
323.5,8.66994,1.30463,-1.90351
324,8.68485,1.30508,-1.90563
324.5,8.69962,1.29366,-1.90709
325,8.71446,1.27614,-1.90969
325.5,8.72912,1.26595,-1.91205
326,8.74417,1.25795,-1.91488
326.5,8.75872,1.24652,-1.91738
327,8.77385,1.23213,-1.91959
327.5,8.78847,1.21455,-1.92261
328,8.80361,1.21104,-1.92423
328.5,8.81848,1.19787,-1.92748
329,8.8332,1.18253,-1.93066
329.5,8.84812,1.1711,-1.93287
330,8.86287,1.17025,-1.93573
330.5,8.87787,1.163,-1.93771
331,8.8928,1.14156,-1.9401
331.5,8.90742,1.14344,-1.94203
332,8.92172,1.13267,-1.94441
332.5,8.93749,1.12084,-1.94782
333,8.952,1.10886,-1.95121
333.5,8.96698,1.09695,-1.95424
334,8.98185,1.09133,-1.95644
334.5,8.99658,1.07308,-1.95816
335,9.01195,1.06672,-1.96016
335.5,9.02665,1.05679,-1.96197
336,9.04137,1.04364,-1.96462
336.5,9.05625,1.03206,-1.96617
337,9.07116,1.02861,-1.96876
337.5,9.08612,1.01061,-1.97123
338,9.10099,1.00865,-1.97269
338.5,9.11611,1.00086,-1.97531
339,9.13076,0.991251,-1.97788
339.5,9.14506,0.979763,-1.9805
340,9.16068,0.97059,-1.98277
340.5,9.1754,0.961915,-1.9845
341,9.19029,0.951646,-1.98663
341.5,9.20555,0.942575,-1.98971
342,9.22035,0.93374,-1.99215
342.5,9.23527,0.927839,-1.99531
343,9.25,0.925297,-1.99722
343.5,9.26498,0.914524,-1.99922
344,9.28015,0.906435,-2.00293
344.5,9.29485,0.891227,-2.00516
345,9.30975,0.882025,-2.00808
345.5,9.32484,0.874462,-2.0099
346,9.33933,0.864556,-2.0125
346.5,9.35377,0.856649,-2.01416
347,9.36967,0.850922,-2.01596
347.5,9.38443,0.847476,-2.01848
348,9.39958,0.836775,-2.02042
348.5,9.41441,0.830081,-2.02291
349,9.42936,0.821568,-2.02557
349.5,9.44432,0.822114,-2.02803
350,9.45958,0.816909,-2.03172
350.5,9.47416,0.803855,-2.03343
351,9.4894,0.802737,-2.03562
351.5,9.50422,0.798464,-2.0377
352,9.51918,0.797854,-2.03925
352.5,9.53435,0.800397,-2.04196
353,9.54896,0.793263,-2.04422
353.5,9.56423,0.790867,-2.04739
354,9.5792,0.793562,-2.04983
354.5,9.59428,0.791876,-2.05138
355,9.60926,0.790654,-2.05375
355.5,9.62447,0.788683,-2.05624
356,9.63921,0.791373,-2.0581
356.5,9.65426,0.789771,-2.06116
357,9.66943,0.790452,-2.06345
357.5,9.68461,0.791346,-2.06582
358,9.69938,0.79968,-2.06785
358.5,9.71455,0.801394,-2.06971
359,9.7293,0.80372,-2.07245
359.5,9.74445,0.802923,-2.07403
360,9.7596,0.802547,-2.07625
360.5,9.77454,0.810646,-2.07864
361,9.7897,0.818975,-2.08024
361.5,9.80471,0.82033,-2.08262
362,9.81979,0.821885,-2.08457
362.5,9.83491,0.833216,-2.0868
363,9.85006,0.840328,-2.08904
363.5,9.86508,0.850014,-2.09095
364,9.87989,0.858446,-2.09368
364.5,9.89519,0.863598,-2.09543
365,9.91014,0.869878,-2.09753
365.5,9.92524,0.881242,-2.09946
366,9.9403,0.89016,-2.10076
366.5,9.9556,0.890867,-2.10248
367,9.97081,0.900244,-2.10514
367.5,9.98588,0.90621,-2.10718
368,10.0006,0.923477,-2.10956
368.5,10.016,0.924346,-2.11207
369,10.0308,0.928614,-2.1136
369.5,10.0462,0.941643,-2.11618
370,10.0613,0.954124,-2.11843
370.5,10.0764,0.967205,-2.11974
371,10.0914,0.97561,-2.12161
371.5,10.1068,0.988841,-2.12329
372,10.1216,1.00023,-2.12467
372.5,10.1369,1.01414,-2.12615
373,10.152,1.02354,-2.1285
373.5,10.1671,1.02271,-2.13025
374,10.1825,1.03682,-2.13208
374.5,10.1976,1.05473,-2.13493
375,10.213,1.06819,-2.13646
375.5,10.2275,1.07852,-2.13885
376,10.2427,1.08672,-2.1412
376.5,10.2584,1.1029,-2.14196
377,10.2738,1.11707,-2.14417
377.5,10.2887,1.12918,-2.14501
378,10.3039,1.14043,-2.1463
378.5,10.3191,1.15281,-2.14799
379,10.3342,1.16655,-2.14962
379.5,10.3494,1.17448,-2.15129
380,10.3645,1.18911,-2.15287
380.5,10.3797,1.19754,-2.15426
381,10.3951,1.20968,-2.15581
381.5,10.41,1.22191,-2.15716
382,10.4256,1.23913,-2.15986
382.5,10.4405,1.24903,-2.16044
383,10.4559,1.26108,-2.16247
383.5,10.4706,1.27244,-2.16419
384,10.4857,1.29052,-2.16555
384.5,10.5009,1.30352,-2.16785
385,10.5168,1.31515,-2.16929
385.5,10.5321,1.32866,-2.1709
386,10.5472,1.33998,-2.17239
386.5,10.5623,1.35024,-2.17359
387,10.5778,1.36453,-2.1743
387.5,10.5929,1.37263,-2.17597
388,10.6081,1.38881,-2.1774
388.5,10.6232,1.38827,-2.17871
389,10.6386,1.40189,-2.18003
389.5,10.6536,1.41015,-2.18149
390,10.6692,1.42742,-2.18323
390.5,10.6845,1.43988,-2.18455
391,10.6996,1.45025,-2.18562
391.5,10.7147,1.45369,-2.18692
392,10.7302,1.45969,-2.18865
392.5,10.7449,1.46677,-2.19014
393,10.7606,1.4809,-2.19149
393.5,10.7761,1.49308,-2.19295
394,10.7911,1.50481,-2.1944
394.5,10.8066,1.50601,-2.19539
395,10.8216,1.51416,-2.19662
395.5,10.837,1.52184,-2.1984
396,10.8526,1.53664,-2.19961
396.5,10.8675,1.54327,-2.20074
397,10.883,1.55052,-2.20373
397.5,10.8982,1.56001,-2.20601
398,10.9131,1.56101,-2.20823
398.5,10.9285,1.57333,-2.20944
399,10.9437,1.58162,-2.21098
399.5,10.9596,1.58479,-2.21111
400,10.9747,1.59692,-2.21175
400.5,10.99,1.60705,-2.21302
401,11.0052,1.61785,-2.21406
401.5,11.0209,1.62607,-2.21549
402,11.0359,1.62531,-2.21698
402.5,11.0513,1.64006,-2.21867
403,11.0664,1.65044,-2.21984
403.5,11.0818,1.65701,-2.22052
404,11.0972,1.66964,-2.22167
404.5,11.1121,1.67835,-2.221
405,11.128,1.68411,-2.22263
405.5,11.143,1.68765,-2.22398
406,11.158,1.6863,-2.22554
406.5,11.1738,1.69306,-2.22718
407,11.1892,1.70328,-2.22833
407.5,11.2045,1.71495,-2.22956
408,11.2196,1.71721,-2.23005
408.5,11.235,1.72464,-2.23256
409,11.2506,1.73321,-2.2343
409.5,11.2659,1.74496,-2.23562
410,11.2812,1.75098,-2.23619
410.5,11.2966,1.769,-2.23778
411,11.3118,1.76547,-2.23806
411.5,11.3274,1.76396,-2.23948
412,11.3424,1.76986,-2.24049
412.5,11.3578,1.77899,-2.24102
413,11.3734,1.7769,-2.24249
413.5,11.3886,1.77869,-2.24344
414,11.4041,1.78429,-2.24513
414.5,11.4195,1.79228,-2.24708
415,11.4349,1.79541,-2.24892
415.5,11.4502,1.80131,-2.24947
416,11.4656,1.80092,-2.25075
416.5,11.4807,1.80354,-2.25069
417,11.4963,1.8035,-2.25169
417.5,11.5117,1.81612,-2.25249
418,11.5269,1.8219,-2.25394
418.5,11.5425,1.82106,-2.25539
419,11.5579,1.82555,-2.25624
419.5,11.5733,1.83448,-2.2574
420,11.5886,1.83129,-2.25818
420.5,11.6039,1.83431,-2.25906
421,11.6195,1.83667,-2.26108
421.5,11.635,1.84025,-2.26193
422,11.6501,1.84276,-2.2629
422.5,11.6658,1.84052,-2.26442
423,11.6811,1.84794,-2.26542
423.5,11.6964,1.85148,-2.26623
424,11.7118,1.84929,-2.26778
424.5,11.7272,1.85856,-2.26906
425,11.7425,1.85643,-2.27034
425.5,11.7582,1.858,-2.27179
426,11.7736,1.85576,-2.2725
426.5,11.7891,1.86189,-2.27339
427,11.8045,1.86441,-2.27476
427.5,11.8198,1.86925,-2.27501
428,11.8354,1.87304,-2.27643
428.5,11.8507,1.86525,-2.27655
429,11.866,1.86571,-2.27804
429.5,11.8816,1.87159,-2.27873
430,11.8969,1.8739,-2.28029
430.5,11.9125,1.88111,-2.28194
431,11.9278,1.8858,-2.28345
431.5,11.9435,1.89039,-2.28402
432,11.9585,1.89205,-2.28567
432.5,11.9742,1.89179,-2.28544
433,11.9897,1.89574,-2.28698
433.5,12.0052,1.90072,-2.28771
434,12.0205,1.8996,-2.28909
434.5,12.0362,1.8996,-2.29046
435,12.0515,1.89723,-2.29156
435.5,12.067,1.90124,-2.29238
436,12.0824,1.90624,-2.29396
436.5,12.0977,1.90535,-2.295
437,12.1133,1.90646,-2.29628
437.5,12.1288,1.9058,-2.29774
438,12.1443,1.91085,-2.29774
438.5,12.1598,1.91189,-2.29942
439,12.1754,1.9123,-2.29916
439.5,12.1911,1.91124,-2.29967
440,12.2064,1.91552,-2.29989
440.5,12.2219,1.92147,-2.30124
441,12.2375,1.92127,-2.30187
441.5,12.2529,1.92046,-2.3029
442,12.2685,1.92325,-2.30478
442.5,12.2839,1.92755,-2.30604
443,12.2996,1.93101,-2.30712
443.5,12.315,1.93391,-2.30825
444,12.3308,1.94268,-2.31057
444.5,12.346,1.94517,-2.31083
445,12.3616,1.94129,-2.31103
445.5,12.3769,1.94071,-2.31235
446,12.3926,1.94232,-2.31292
446.5,12.4083,1.9445,-2.31406
447,12.4238,1.94477,-2.31553
447.5,12.4392,1.94636,-2.31641
448,12.4547,1.9513,-2.31792
448.5,12.4705,1.95352,-2.31969
449,12.4861,1.9616,-2.3208
449.5,12.5015,1.96425,-2.32149
450,12.517,1.973,-2.32181
450.5,12.5328,1.97313,-2.32313
451,12.5483,1.97929,-2.32312
451.5,12.5641,1.98799,-2.32464
452,12.5794,1.98148,-2.32581
452.5,12.5952,1.98026,-2.3267
453,12.6105,1.98625,-2.32865
453.5,12.6264,1.98644,-2.33019
454,12.6419,1.99779,-2.33134
454.5,12.6575,2.00073,-2.33212
455,12.6729,1.99835,-2.33359
455.5,12.6886,1.99841,-2.33401
456,12.7041,1.99625,-2.33563
456.5,12.7197,2.01146,-2.33701
457,12.7354,2.02192,-2.33777
457.5,12.7512,2.02806,-2.33935
458,12.7666,2.03757,-2.33975
458.5,12.7821,2.04223,-2.34154
459,12.798,2.04224,-2.34231
459.5,12.8136,2.04197,-2.34297
460,12.8293,2.04059,-2.34402
460.5,12.8448,2.04918,-2.34491
461,12.8602,2.05016,-2.34661
461.5,12.8761,2.05701,-2.34718
462,12.8914,2.0681,-2.34816
462.5,12.9076,2.07687,-2.34886
463,12.9228,2.08376,-2.34962
463.5,12.9387,2.08858,-2.35107
464,12.9543,2.08937,-2.35154
464.5,12.9699,2.08906,-2.35355
465,12.9857,2.0947,-2.35515
465.5,13.0015,2.09654,-2.3557
466,13.017,2.11025,-2.3574
466.5,13.0326,2.1141,-2.35837
467,13.0483,2.11435,-2.35948
467.5,13.064,2.12209,-2.35983
468,13.0797,2.12654,-2.36086
468.5,13.0955,2.12609,-2.36202
469,13.1109,2.13937,-2.36317
469.5,13.1267,2.14526,-2.36436
470,13.1421,2.15039,-2.36605
470.5,13.1582,2.16144,-2.36768
471,13.1735,2.16319,-2.36885
471.5,13.1896,2.1691,-2.36992
472,13.2052,2.17328,-2.37134
472.5,13.2206,2.17439,-2.37178
473,13.2363,2.18099,-2.37307
473.5,13.252,2.1866,-2.37424
474,13.2679,2.19839,-2.37498
474.5,13.2836,2.20083,-2.37662
475,13.2991,2.20762,-2.3773
475.5,13.3148,2.21316,-2.37847
476,13.3307,2.22872,-2.37949
476.5,13.3462,2.23028,-2.38078
477,13.3619,2.22536,-2.38245
477.5,13.3774,2.2236,-2.38396
478,13.3935,2.24231,-2.38508
478.5,13.4092,2.244,-2.38543
479,13.4245,2.2464,-2.387
479.5,13.4405,2.25344,-2.38765
480,13.456,2.26063,-2.38814
480.5,13.4719,2.26861,-2.38948
481,13.4876,2.27382,-2.3899
481.5,13.5032,2.27326,-2.39153
482,13.5189,2.27673,-2.39222
482.5,13.5347,2.27954,-2.39351
483,13.5505,2.29149,-2.39453
483.5,13.5659,2.29838,-2.39521
484,13.582,2.29868,-2.39807
484.5,13.5977,2.30829,-2.3995
485,13.6134,2.31004,-2.40048
485.5,13.629,2.30604,-2.40216
486,13.6449,2.30945,-2.40311
486.5,13.6605,2.32037,-2.4036
487,13.6763,2.31619,-2.40498
487.5,13.6923,2.32359,-2.40644
488,13.708,2.33346,-2.4073
488.5,13.7236,2.33312,-2.40854
489,13.7394,2.32604,-2.40863
489.5,13.7551,2.33042,-2.40993
490,13.7708,2.33678,-2.4109
490.5,13.7865,2.3368,-2.4118
491,13.8024,2.33717,-2.41359
491.5,13.8183,2.33788,-2.41471
492,13.834,2.34339,-2.41548
492.5,13.8495,2.34914,-2.4171
493,13.8656,2.3497,-2.41803
493.5,13.881,2.35592,-2.41935
494,13.8971,2.35359,-2.42127
494.5,13.9127,2.35015,-2.42181
495,13.9281,2.34929,-2.4228
495.5,13.944,2.35359,-2.42422
496,13.96,2.34902,-2.42477
496.5,13.9757,2.35094,-2.42615
497,13.9912,2.35354,-2.42762
497.5,14.0071,2.35181,-2.42783
498,14.0228,2.34786,-2.42951
498.5,14.0388,2.34648,-2.43097
499,14.0544,2.34923,-2.43229
499.5,14.0704,2.34075,-2.43352
500,14.086,2.3398,-2.43494
500.5,14.1016,2.33615,-2.43633
501,14.1176,2.32887,-2.43723
501.5,14.1333,2.32709,-2.43852
502,14.1491,2.32032,-2.43855
502.5,14.1649,2.31599,-2.43969
503,14.1807,2.31344,-2.4397
503.5,14.1968,2.3056,-2.44001
504,14.2124,2.29965,-2.44124
504.5,14.2282,2.29475,-2.44243
505,14.2439,2.29304,-2.44383
505.5,14.2597,2.28638,-2.44526
506,14.2754,2.27606,-2.44707
506.5,14.2912,2.26227,-2.44861
507,14.3067,2.24772,-2.44911
507.5,14.3228,2.24104,-2.45041
508,14.3385,2.23764,-2.45118
508.5,14.3542,2.22952,-2.45205
509,14.3701,2.21583,-2.45353
509.5,14.3857,2.20558,-2.45395
510,14.4016,2.20432,-2.45507
510.5,14.4173,2.19438,-2.45652
511,14.4332,2.18842,-2.45682
511.5,14.4488,2.16826,-2.45798
512,14.465,2.1689,-2.45809
512.5,14.4807,2.15773,-2.45949
513,14.4965,2.1487,-2.46052
513.5,14.5124,2.12863,-2.46129
514,14.5281,2.12446,-2.46259
514.5,14.5438,2.10608,-2.46373
515,14.5593,2.08801,-2.46379
515.5,14.5753,2.08469,-2.46431
516,14.5912,2.07053,-2.46431
516.5,14.607,2.05966,-2.4654
517,14.6228,2.04149,-2.46579
517.5,14.6387,2.03374,-2.4668
518,14.6545,2.02321,-2.46774
518.5,14.6703,2.00561,-2.46945
519,14.6859,1.99183,-2.47034
519.5,14.7015,1.97996,-2.47228
520,14.7176,1.96905,-2.47293
520.5,14.7333,1.96135,-2.47363
521,14.7493,1.94978,-2.47452
521.5,14.7651,1.93179,-2.47521
522,14.7807,1.91896,-2.47549
522.5,14.797,1.89618,-2.47648
523,14.8126,1.88548,-2.4768
523.5,14.8284,1.87704,-2.47804
524,14.8443,1.86757,-2.47901
524.5,14.8601,1.85474,-2.48045
525,14.8763,1.84107,-2.48064
525.5,14.8918,1.83513,-2.48174
526,14.9078,1.82683,-2.48206
526.5,14.9237,1.81266,-2.4828
527,14.9397,1.80147,-2.48363
527.5,14.9554,1.79141,-2.48495
528,14.9712,1.78476,-2.48395
528.5,14.9872,1.76712,-2.4854
529,15.0031,1.75958,-2.48536
529.5,15.0193,1.751,-2.48546
530,15.0347,1.73533,-2.48659
530.5,15.0506,1.72775,-2.48661
531,15.0668,1.72235,-2.48766
531.5,15.0825,1.71124,-2.48814
532,15.0984,1.6953,-2.48813
532.5,15.1142,1.69058,-2.48921
533,15.1304,1.68594,-2.48964
533.5,15.1461,1.67898,-2.49001
534,15.1619,1.66941,-2.49129
534.5,15.1777,1.65758,-2.4916
535,15.1937,1.64903,-2.49296
535.5,15.2095,1.64272,-2.49306
536,15.2254,1.63748,-2.49437
536.5,15.2413,1.6297,-2.49457
537,15.2572,1.62689,-2.49592
537.5,15.2733,1.61797,-2.4958
538,15.289,1.61639,-2.49704
538.5,15.305,1.60825,-2.49724
539,15.3211,1.60202,-2.49743
539.5,15.3372,1.59923,-2.49856
540,15.3529,1.60046,-2.49853
540.5,15.3691,1.5976,-2.4991
541,15.385,1.59676,-2.50001
541.5,15.4007,1.59215,-2.50001
542,15.4166,1.59136,-2.50138
542.5,15.4326,1.58581,-2.50137
543,15.4485,1.57982,-2.50138
543.5,15.4646,1.57908,-2.50186
544,15.4804,1.58148,-2.50277
544.5,15.4963,1.58216,-2.50272
545,15.5126,1.58767,-2.50302
545.5,15.5283,1.58303,-2.50419
546,15.5445,1.5778,-2.50405
546.5,15.5603,1.56949,-2.50549
547,15.576,1.57272,-2.50566
547.5,15.5922,1.57423,-2.50687
548,15.6083,1.58032,-2.50721
548.5,15.6239,1.58534,-2.50722
549,15.6401,1.58386,-2.50789
549.5,15.6561,1.58042,-2.50867
550,15.6719,1.56871,-2.50872
550.5,15.688,1.5674,-2.50998
551,15.7039,1.57081,-2.50974
551.5,15.72,1.56636,-2.50859
552,15.7357,1.56585,-2.50952
552.5,15.7518,1.56737,-2.50996
553,15.768,1.56879,-2.50994
553.5,15.7838,1.56526,-2.51063
554,15.7998,1.56247,-2.51129
554.5,15.8155,1.55892,-2.51124
555,15.832,1.55786,-2.51238
555.5,15.8478,1.55517,-2.51269
556,15.8637,1.55323,-2.51343
556.5,15.8797,1.54959,-2.51425
557,15.8958,1.54404,-2.51448
557.5,15.9118,1.54524,-2.51565
558,15.9277,1.54282,-2.51556
558.5,15.9438,1.54133,-2.51558
559,15.9594,1.53174,-2.51576
559.5,15.9757,1.52587,-2.51687
560,15.9917,1.52465,-2.51679
560.5,16.0078,1.52109,-2.51794
561,16.0238,1.52643,-2.5182
561.5,16.0399,1.52407,-2.51815
562,16.0557,1.51883,-2.51906
562.5,16.0719,1.52374,-2.51952
563,16.0879,1.52731,-2.51951
563.5,16.1038,1.52914,-2.51951
564,16.12,1.52516,-2.51953
564.5,16.1355,1.5186,-2.52073
565,16.1518,1.5164,-2.52083
565.5,16.1678,1.52416,-2.52089
566,16.1841,1.52672,-2.52233
566.5,16.2,1.52725,-2.52239
567,16.2162,1.52354,-2.52364
567.5,16.2323,1.51224,-2.52367
568,16.248,1.51126,-2.52412
568.5,16.2644,1.51517,-2.52529
569,16.28,1.52833,-2.5252
569.5,16.2963,1.52236,-2.52583
570,16.3122,1.52331,-2.52659
570.5,16.3283,1.52563,-2.52654
571,16.3441,1.52451,-2.52654
571.5,16.3604,1.52366,-2.5265
572,16.3766,1.52196,-2.52717
572.5,16.3927,1.52216,-2.5279
573,16.4084,1.52203,-2.52784
573.5,16.4246,1.52212,-2.52869
574,16.4406,1.52107,-2.5289
574.5,16.4567,1.51548,-2.52834
575,16.4729,1.52069,-2.52947
575.5,16.4889,1.52375,-2.52947
576,16.5047,1.51747,-2.53065
576.5,16.5208,1.51775,-2.53166
577,16.5372,1.51533,-2.5325
577.5,16.5531,1.52364,-2.53353
578,16.5692,1.52274,-2.53347
578.5,16.5855,1.52217,-2.53343
579,16.6013,1.52541,-2.53322
579.5,16.6174,1.52624,-2.53251
580,16.6337,1.52868,-2.53351
580.5,16.6499,1.51889,-2.5334
581,16.6657,1.5162,-2.53431
581.5,16.6819,1.51824,-2.53488
582,16.6978,1.51489,-2.53518
582.5,16.7139,1.52033,-2.5366
583,16.7306,1.52091,-2.53721
583.5,16.7462,1.51716,-2.53717
584,16.7626,1.51405,-2.53828
584.5,16.7784,1.51856,-2.5385
585,16.7945,1.51844,-2.53851
585.5,16.8108,1.5087,-2.53851
586,16.8268,1.5075,-2.53851
586.5,16.8431,1.50323,-2.53849
587,16.859,1.50846,-2.53898
587.5,16.8748,1.50184,-2.53953
588,16.8909,1.49922,-2.53983
588.5,16.9073,1.5054,-2.54093
589,16.9235,1.50625,-2.54034
589.5,16.9395,1.50548,-2.5402
590,16.9557,1.50124,-2.54015
590.5,16.9717,1.50599,-2.54134
591,16.9881,1.499,-2.54125
591.5,17.004,1.50681,-2.54126
592,17.0202,1.50796,-2.5414
592.5,17.0363,1.51149,-2.54253
593,17.0523,1.50709,-2.54245
593.5,17.0688,1.50279,-2.5437
594,17.0848,1.49956,-2.54399
594.5,17.1008,1.49875,-2.54471
595,17.117,1.50071,-2.54531
595.5,17.1333,1.5024,-2.54497
596,17.1495,1.50616,-2.545
596.5,17.1652,1.51491,-2.54491
597,17.1816,1.50477,-2.54624
597.5,17.1976,1.50782,-2.54631
598,17.2142,1.50126,-2.54631
598.5,17.2302,1.50187,-2.54631
599,17.2463,1.51062,-2.54631
599.5,17.2629,1.50777,-2.54623
600,17.2785,1.50255,-2.5474
600.5,17.2946,1.50878,-2.54762
601,17.3111,1.50814,-2.54755
601.5,17.327,1.50967,-2.54862
602,17.3433,1.50908,-2.54907
602.5,17.3597,1.50716,-2.54909
603,17.3758,1.50891,-2.55025
603.5,17.3917,1.51562,-2.5516
604,17.4083,1.51721,-2.55168
604.5,17.4241,1.5147,-2.55183
605,17.4404,1.52369,-2.55319
605.5,17.4559,1.52483,-2.55197
606,17.4728,1.51776,-2.55171
606.5,17.4888,1.52727,-2.55183
607,17.5054,1.52578,-2.55299
607.5,17.5216,1.53064,-2.553
608,17.5377,1.53083,-2.553
608.5,17.5538,1.52994,-2.55406
609,17.5701,1.52942,-2.5543
609.5,17.5865,1.52989,-2.55432
610,17.6025,1.53026,-2.55432
610.5,17.6188,1.53153,-2.55434
611,17.635,1.52971,-2.55421
611.5,17.6512,1.53372,-2.55445
612,17.6674,1.53605,-2.55443
612.5,17.6837,1.54325,-2.55433
613,17.6996,1.54413,-2.5556
613.5,17.7156,1.55437,-2.55575
614,17.7326,1.54986,-2.55566
614.5,17.7485,1.5542,-2.55684
615,17.765,1.55128,-2.55707
615.5,17.7809,1.54784,-2.55737
616,17.7975,1.54692,-2.55844
616.5,17.8135,1.55031,-2.55966
617,17.8296,1.55527,-2.5597
617.5,17.846,1.56126,-2.55967
618,17.8622,1.56285,-2.56077
618.5,17.8783,1.56096,-2.56101
619,17.8948,1.56725,-2.56102
619.5,17.9108,1.57274,-2.56103
620,17.9272,1.57446,-2.56102
620.5,17.9433,1.57702,-2.56221
621,17.9599,1.58166,-2.56134
621.5,17.976,1.57974,-2.56101
622,17.9925,1.58638,-2.56192
622.5,18.0086,1.58366,-2.56232
623,18.0248,1.58235,-2.56229
623.5,18.0412,1.58695,-2.56333
624,18.0574,1.58878,-2.56365
624.5,18.0735,1.59126,-2.56377
625,18.0897,1.59631,-2.56506
625.5,18.1062,1.5973,-2.56496
626,18.1222,1.60247,-2.56487
626.5,18.1386,1.61427,-2.56608
627,18.1547,1.60524,-2.56641
627.5,18.1711,1.61001,-2.56659
628,18.1874,1.60732,-2.56772
628.5,18.2035,1.6133,-2.56769
629,18.22,1.62239,-2.56765
629.5,18.2361,1.62536,-2.56863
630,18.2525,1.62287,-2.56904
630.5,18.2687,1.62142,-2.56903
631,18.2849,1.62379,-2.56902
631.5,18.3015,1.62937,-2.56885
632,18.3175,1.6275,-2.56866
632.5,18.3337,1.64116,-2.56906
633,18.3502,1.64585,-2.56918
633.5,18.3663,1.65136,-2.57032
634,18.3828,1.64918,-2.57033
634.5,18.3991,1.65211,-2.57035
635,18.4151,1.6597,-2.5703
635.5,18.4316,1.66748,-2.57137
636,18.4479,1.66785,-2.57166
636.5,18.464,1.66487,-2.57161
637,18.4804,1.66815,-2.57263
637.5,18.4969,1.67357,-2.57309
638,18.5132,1.67245,-2.57345
638.5,18.5293,1.68296,-2.57446
639,18.5458,1.68044,-2.57441
639.5,18.5619,1.68609,-2.57441
640,18.5785,1.68843,-2.5744
640.5,18.5945,1.69088,-2.57443
641,18.6108,1.68899,-2.57335
641.5,18.6271,1.69125,-2.57311
642,18.6433,1.6985,-2.57442
642.5,18.6596,1.70971,-2.57445
643,18.6762,1.7083,-2.57543
643.5,18.6927,1.71401,-2.57596
644,18.7087,1.72152,-2.57594
644.5,18.7251,1.71938,-2.57818
645,18.7413,1.72347,-2.57857
645.5,18.7577,1.72221,-2.5786
646,18.7742,1.72712,-2.5781
646.5,18.7902,1.72999,-2.57723
647,18.8066,1.73576,-2.57855
647.5,18.8228,1.74033,-2.57858
648,18.8389,1.73804,-2.57872
648.5,18.8558,1.74955,-2.57988
649,18.872,1.74928,-2.57988
649.5,18.8881,1.74824,-2.57988
650,18.9043,1.73617,-2.58033
650.5,18.9208,1.75668,-2.58127
651,18.9373,1.75935,-2.58122
651.5,18.9529,1.77049,-2.58235
652,18.9702,1.77075,-2.58252
652.5,18.9861,1.76993,-2.58253
653,19.0025,1.76879,-2.58256
653.5,19.0186,1.76864,-2.58269
654,19.0354,1.78412,-2.58318
654.5,19.0516,1.78528,-2.58245
655,19.0679,1.78819,-2.58327
655.5,19.0843,1.79645,-2.58388
656,19.1006,1.79374,-2.58388
656.5,19.1169,1.7851,-2.58386
657,19.1333,1.79755,-2.58506
657.5,19.1496,1.7954,-2.58642
658,19.166,1.80497,-2.58784
658.5,19.1824,1.80354,-2.58788
659,19.1989,1.80917,-2.58841
659.5,19.2152,1.80818,-2.58925
660,19.2308,1.80894,-2.58924
660.5,19.2479,1.81003,-2.58866
661,19.2642,1.81919,-2.58789
661.5,19.2806,1.81697,-2.58783
662,19.2968,1.82389,-2.58889
662.5,19.3132,1.82503,-2.58923
663,19.3295,1.83572,-2.58918
663.5,19.3461,1.83209,-2.59014
664,19.3626,1.84156,-2.59049
664.5,19.3785,1.83919,-2.59127
665,19.3953,1.84505,-2.5912
665.5,19.4115,1.84928,-2.59201
666,19.4279,1.85461,-2.59251
666.5,19.4443,1.8585,-2.59255
667,19.4605,1.85954,-2.59282
667.5,19.4772,1.86275,-2.59383
668,19.4937,1.87318,-2.59385
668.5,19.51,1.8733,-2.59407
669,19.5262,1.87345,-2.59515
669.5,19.5422,1.8766,-2.59517
670,19.559,1.8812,-2.59531
670.5,19.5754,1.88249,-2.59542
671,19.5919,1.88511,-2.59514
671.5,19.6083,1.88294,-2.59515
672,19.6246,1.89012,-2.59562
672.5,19.6408,1.89843,-2.59653
673,19.6573,1.90169,-2.59648
673.5,19.6736,1.90539,-2.59648
674,19.69,1.90563,-2.59643
674.5,19.7064,1.91164,-2.59716
675,19.7227,1.9244,-2.5984
675.5,19.7391,1.91927,-2.59845
676,19.7555,1.92168,-2.59867
676.5,19.7721,1.92437,-2.59986
677,19.7882,1.92385,-2.59977
677.5,19.8049,1.92191,-2.59995
678,19.8207,1.92881,-2.60116
678.5,19.8376,1.92798,-2.60108
679,19.8537,1.93778,-2.60175
679.5,19.8704,1.9471,-2.60242
680,19.887,1.94943,-2.60241
680.5,19.9031,1.95099,-2.6025
681,19.9196,1.95361,-2.60381
681.5,19.9358,1.95027,-2.60372
682,19.9523,1.96017,-2.60373
682.5,19.969,1.95909,-2.6038
683,19.9852,1.96103,-2.60497
683.5,20.0014,1.96791,-2.60504
684,20.0179,1.97125,-2.60507
684.5,20.0335,1.98217,-2.6062
685,20.0508,1.98168,-2.60634
685.5,20.0672,1.98677,-2.60636
686,20.0835,1.98946,-2.60674
686.5,20.1003,1.99067,-2.60777
687,20.1162,2.00451,-2.6069
687.5,20.1326,2.00277,-2.60664
688,20.1493,1.99273,-2.60771
688.5,20.1656,1.99514,-2.60767
689,20.182,1.99846,-2.60793
689.5,20.1985,2.00911,-2.60903
690,20.2147,2.01117,-2.60894
690.5,20.2313,2.01207,-2.61005
691,20.248,2.01136,-2.61042
691.5,20.2641,2.01407,-2.6115
692,20.2808,2.0068,-2.61167
692.5,20.2972,2.01727,-2.61241
693,20.3137,2.01827,-2.61311
693.5,20.33,2.01882,-2.6133
694,20.3462,2.01797,-2.61437
694.5,20.363,2.01807,-2.61437
695,20.3794,2.01493,-2.61443
695.5,20.3959,2.03591,-2.6137
696,20.4121,2.03581,-2.61398
696.5,20.4286,2.03215,-2.61434
697,20.4452,2.03901,-2.61486
697.5,20.4615,2.04559,-2.61585
698,20.4778,2.04888,-2.61579
698.5,20.4938,2.0515,-2.61592
699,20.5105,2.05509,-2.61719
699.5,20.5272,2.0526,-2.61711
700,20.5438,2.05978,-2.61776
700.5,20.5602,2.05481,-2.61856
701,20.5769,2.05855,-2.61854
701.5,20.5935,2.0577,-2.61849
702,20.6097,2.05522,-2.61945
702.5,20.6262,2.05505,-2.61998
703,20.6424,2.05167,-2.62025
703.5,20.659,2.05375,-2.62132
704,20.6754,2.05223,-2.62127
704.5,20.6921,2.04469,-2.62221
705,20.7085,2.03755,-2.62275
705.5,20.7255,2.0336,-2.62175
706,20.7414,2.03291,-2.62219
706.5,20.7579,2.03565,-2.6227
707,20.7739,2.03677,-2.62272
707.5,20.7908,2.03143,-2.62275
708,20.8076,2.03362,-2.62405
708.5,20.824,2.03833,-2.624
709,20.8405,2.03997,-2.62402
709.5,20.857,2.03164,-2.62402
710,20.8734,2.04016,-2.62401
710.5,20.89,2.04118,-2.62465
711,20.9064,2.04323,-2.62535
711.5,20.9224,2.03806,-2.62529
712,20.9387,2.03764,-2.62616
712.5,20.9553,2.03551,-2.62678
713,20.9726,2.02851,-2.62668
713.5,20.9891,2.03004,-2.6279
714,21.0054,2.02329,-2.62809
714.5,21.0221,2.01684,-2.62906
715,21.0386,2.01336,-2.62961
715.5,21.0551,2.02943,-2.6308
716,21.0716,2.03239,-2.63094
716.5,21.0883,2.02724,-2.63103
717,21.1048,2.01265,-2.63225
717.5,21.1212,2.02459,-2.63226
718,21.1377,2.0199,-2.63226
718.5,21.1541,2.01443,-2.63239
719,21.1709,2.02227,-2.63379
719.5,21.1874,2.02156,-2.63369
720,21.2039,2.02207,-2.63436
720.5,21.2205,2.00883,-2.63502
721,21.2371,1.99796,-2.635
721.5,21.2537,1.99588,-2.63634
722,21.27,1.99474,-2.63522
722.5,21.2867,1.98887,-2.63512
723,21.303,1.9821,-2.63522
723.5,21.3199,1.978,-2.63657
724,21.3364,1.96697,-2.6358
724.5,21.3524,1.96562,-2.6351
725,21.3694,1.95415,-2.63521
725.5,21.3859,1.94591,-2.63639
726,21.4026,1.94244,-2.63642
726.5,21.4188,1.93877,-2.63643
727,21.435,1.93327,-2.63642
727.5,21.4524,1.92748,-2.63738
728,21.4686,1.91874,-2.63783
728.5,21.4856,1.90381,-2.63836
729,21.5019,1.89994,-2.64027
729.5,21.5184,1.89063,-2.64047
730,21.5349,1.88253,-2.64129
730.5,21.5514,1.87659,-2.64182
731,21.5681,1.86872,-2.6418
731.5,21.5845,1.85575,-2.64256
732,21.6013,1.84859,-2.64314
732.5,21.6176,1.83569,-2.64352
733,21.6345,1.81893,-2.64449
733.5,21.6509,1.81091,-2.64315
734,21.6671,1.79662,-2.64324
734.5,21.6838,1.78926,-2.64324
735,21.7006,1.77204,-2.64324
735.5,21.7174,1.77454,-2.64324
736,21.7337,1.76555,-2.64279
736.5,21.7504,1.75315,-2.64335
737,21.7669,1.74777,-2.64433
737.5,21.7835,1.73379,-2.64535
738,21.7998,1.73704,-2.64692
738.5,21.8165,1.73319,-2.64791
739,21.8328,1.72476,-2.64869
739.5,21.8491,1.71013,-2.64985
740,21.8654,1.7054,-2.65098
740.5,21.8829,1.69579,-2.65098
741,21.8995,1.6907,-2.65196
741.5,21.916,1.68384,-2.65253
742,21.9326,1.68211,-2.65421
742.5,21.9492,1.67296,-2.6549
743,21.9657,1.67592,-2.65597
743.5,21.9824,1.67896,-2.65467
744,21.999,1.67434,-2.65456
744.5,22.0155,1.67572,-2.65575
745,22.0318,1.67156,-2.65584
745.5,22.0487,1.6714,-2.65586
746,22.0653,1.67246,-2.65586
746.5,22.0817,1.66995,-2.65591
747,22.0982,1.65736,-2.65735
747.5,22.115,1.65352,-2.65724
748,22.1314,1.64971,-2.6583
748.5,22.148,1.64643,-2.6586
749,22.1645,1.64676,-2.65864
749.5,22.1812,1.6335,-2.65836
750,22.1979,1.62757,-2.6586
750.5,22.2141,1.6272,-2.65855
751,22.2301,1.62144,-2.65953
751.5,22.2472,1.62249,-2.65992
752,22.2639,1.62088,-2.66006
752.5,22.2803,1.62078,-2.66134
753,22.2968,1.60893,-2.66124
753.5,22.3137,1.61195,-2.66248
754,22.33,1.60588,-2.66263
754.5,22.3465,1.59724,-2.66328
755,22.3632,1.59298,-2.66414
755.5,22.3798,1.5852,-2.66468
756,22.3967,1.58274,-2.66607
756.5,22.413,1.5808,-2.66872
757,22.4295,1.57008,-2.66891
757.5,22.4462,1.56253,-2.66892
758,22.4627,1.55688,-2.66787
758.5,22.4793,1.54168,-2.66709
759,22.4957,1.53973,-2.66546
759.5,22.5123,1.53062,-2.66475
760,22.5288,1.52544,-2.66535
760.5,22.5457,1.51594,-2.66626
761,22.562,1.51816,-2.66677
761.5,22.5784,1.51469,-2.66794
762,22.5952,1.51694,-2.66816
762.5,22.6115,1.51306,-2.66816
763,22.6283,1.51076,-2.66861
763.5,22.6449,1.50529,-2.66888
764,22.6612,1.50076,-2.66836
764.5,22.678,1.49396,-2.66963
765,22.6944,1.4854,-2.66954
765.5,22.7108,1.47525,-2.67064
766,22.727,1.46941,-2.67112
766.5,22.7435,1.4636,-2.67223
767,22.7609,1.4545,-2.67248
767.5,22.7772,1.45865,-2.67323
768,22.7941,1.45545,-2.6739
768.5,22.8105,1.4496,-2.67388
769,22.8269,1.44576,-2.67387
769.5,22.8437,1.43778,-2.67503
770,22.8603,1.43123,-2.67518
770.5,22.8768,1.4208,-2.67519
771,22.8935,1.40964,-2.67622
771.5,22.91,1.41489,-2.67802
772,22.9266,1.41172,-2.67791
772.5,22.9431,1.39929,-2.67927
773,22.9597,1.3977,-2.67933
773.5,22.9763,1.39261,-2.67946
774,22.993,1.3834,-2.67943
774.5,23.0095,1.3738,-2.68039
775,23.0261,1.36582,-2.681
775.5,23.0425,1.36399,-2.68222
776,23.0592,1.35894,-2.68253
776.5,23.0757,1.35189,-2.68254
777,23.0924,1.35721,-2.68345
777.5,23.109,1.35368,-2.68384
778,23.1257,1.34989,-2.68365
778.5,23.1421,1.33781,-2.68365
779,23.1587,1.32711,-2.68453
779.5,23.1752,1.32584,-2.68448
780,23.1918,1.32364,-2.68551
780.5,23.2081,1.3165,-2.68527
781,23.2253,1.31083,-2.68657
781.5,23.2412,1.30573,-2.68668
782,23.2583,1.28758,-2.68671
782.5,23.2748,1.27972,-2.68663
783,23.2913,1.27133,-2.68795
783.5,23.3079,1.25575,-2.68803
784,23.3243,1.24853,-2.68922
784.5,23.3409,1.24593,-2.68943
785,23.3576,1.23357,-2.68946
785.5,23.3742,1.23087,-2.68941
786,23.3907,1.22657,-2.69042
786.5,23.4074,1.21355,-2.69077
787,23.4241,1.21014,-2.6908
787.5,23.4406,1.20651,-2.69109
788,23.4572,1.19793,-2.69209
788.5,23.4737,1.19481,-2.69212
789,23.4903,1.19114,-2.6924
789.5,23.507,1.18054,-2.69364
790,23.5228,1.17338,-2.69321