File: 01_Data/EIFS_XPS/STA/N2/30K_min/EIFS_XPS_STA_N2_30KData_230901_R1.csv
##Temp./Â°C,Time/min,DSC/(uV/mg),Mass loss/mg
40.0,10.4841,-2.39161,0.00858728
40.5,10.6167,-2.36651,0.0114817
41,10.6991,-2.34939,0.00940408
41.5,10.7697,-2.3348,0.00933819
42,10.8283,-2.32093,0.00976678
42.5,10.8785,-2.30978,0.00970515
43,10.9256,-2.30051,0.0101868
43.5,10.9666,-2.29093,0.00996826
44,11.0066,-2.28302,0.010437
44.5,11.0454,-2.27181,0.0113345
45,11.0792,-2.26341,0.0118806
45.5,11.1125,-2.25507,0.0110314
46,11.1451,-2.24811,0.0113101
46.5,11.1766,-2.23835,0.0109137
47,11.2069,-2.23176,0.011551
47.5,11.2344,-2.22425,0.0128813
48,11.2626,-2.21588,0.0119051
48.5,11.2911,-2.20884,0.0113618
49,11.3156,-2.20187,0.0117017
49.5,11.3422,-2.19531,0.0116748
50,11.3684,-2.18847,0.0108032
50.5,11.3935,-2.1817,0.00950852
51,11.419,-2.17343,0.010424
51.5,11.4432,-2.16684,0.0116358
52,11.4671,-2.16063,0.011863
52.5,11.4895,-2.15336,0.0113679
53,11.5129,-2.14849,0.010958
53.5,11.5356,-2.13974,0.0112233
54,11.5593,-2.13668,0.0117568
54.5,11.5816,-2.128,0.0116456
55,11.6025,-2.12155,0.0114445
55.5,11.6253,-2.11595,0.0114358
56,11.6471,-2.1105,0.0110479
56.5,11.6685,-2.10297,0.0110675
57,11.689,-2.09926,0.0109503
57.5,11.7101,-2.09318,0.010642
58,11.7304,-2.08598,0.010389
58.5,11.7505,-2.08182,0.0104559
59,11.7709,-2.0752,0.0106367
59.5,11.7915,-2.07032,0.0113471
60,11.8115,-2.06487,0.0124315
60.5,11.8314,-2.05872,0.0116313
61,11.851,-2.05646,0.0105954
61.5,11.8712,-2.04877,0.0102519
62,11.8909,-2.04275,0.0101399
62.5,11.9099,-2.038,0.0103328
63,11.9293,-2.03299,0.0111173
63.5,11.9485,-2.02713,0.0109219
64,11.9673,-2.02229,0.0116648
64.5,11.9863,-2.01801,0.0112228
65,12.0048,-2.01509,0.010062
65.5,12.024,-2.00937,0.0111738
66,12.0429,-2.00368,0.0111941
66.5,12.0615,-1.9984,0.0109958
67,12.08,-1.99455,0.0114772
67.5,12.0988,-1.98927,0.0122899
68,12.1174,-1.98527,0.0126214
68.5,12.1356,-1.98079,0.0126819
69,12.1543,-1.97663,0.0123271
69.5,12.1725,-1.97272,0.0126285
70,12.1908,-1.9696,0.0119157
70.5,12.2087,-1.96566,0.0112997
71,12.2273,-1.96143,0.0117954
71.5,12.2443,-1.95745,0.010338
72,12.2625,-1.9536,0.0109562
72.5,12.2813,-1.94989,0.0105982
73,12.2992,-1.94713,0.0101311
73.5,12.3173,-1.94486,0.0112544
74,12.3352,-1.94176,0.0102218
74.5,12.3536,-1.93692,0.0113627
75,12.3714,-1.93265,0.0115503
75.5,12.3893,-1.93074,0.0119494
76,12.4067,-1.92747,0.0115006
76.5,12.4245,-1.92532,0.0114803
77,12.4419,-1.92319,0.0112992
77.5,12.4598,-1.91865,0.0100301
78,12.4778,-1.91667,0.0104734
78.5,12.4948,-1.91538,0.0111399
79,12.5131,-1.91435,0.00994303
79.5,12.5305,-1.9126,0.0103795
80,12.5481,-1.90949,0.010169
80.5,12.5654,-1.90853,0.00993492
81,12.5828,-1.90608,0.0111813
81.5,12.6008,-1.90487,0.0111569
82,12.6183,-1.90514,0.010533
82.5,12.6357,-1.90387,0.0114421
83,12.6531,-1.90197,0.01208
83.5,12.6704,-1.89944,0.0116604
84,12.6878,-1.89945,0.011698
84.5,12.7052,-1.89717,0.0128541
85,12.7221,-1.89582,0.0116449
85.5,12.7395,-1.89104,0.0119851
86,12.7566,-1.88549,0.0120395
86.5,12.7739,-1.88004,0.0116042
87,12.7913,-1.87401,0.0123747
87.5,12.8079,-1.86683,0.012496
88,12.8247,-1.85869,0.0116268
88.5,12.842,-1.85111,0.0116389
89,12.859,-1.84114,0.0106366
89.5,12.8757,-1.83253,0.0112622
90,12.8925,-1.82475,0.0113766
90.5,12.9095,-1.81659,0.011247
91,12.9261,-1.81083,0.0102934
91.5,12.9435,-1.80357,0.0106017
92,12.9605,-1.79704,0.0116426
92.5,12.9769,-1.79276,0.0116333
93,12.9938,-1.78747,0.0115951
93.5,13.0105,-1.78392,0.0111328
94,13.027,-1.77932,0.011685
94.5,13.0444,-1.77474,0.0116351
95,13.0617,-1.77141,0.0114667
95.5,13.0778,-1.76966,0.0102204
96,13.0952,-1.76683,0.0103284
96.5,13.1116,-1.7643,0.0104315
97,13.1287,-1.76172,0.0117124
97.5,13.1453,-1.75907,0.0104711
98,13.1616,-1.75726,0.0103193
98.5,13.1788,-1.75882,0.0103199
99,13.1956,-1.75655,0.0103225
99.5,13.2116,-1.7559,0.0103292
100,13.228,-1.75619,0.0102015
100.5,13.2459,-1.75617,0.0114086
101,13.2629,-1.75578,0.0103188
101.5,13.2795,-1.75588,0.010327
102,13.2959,-1.75774,0.0108942
102.5,13.3128,-1.75998,0.0116497
103,13.3293,-1.76137,0.0117364
103.5,13.3462,-1.76357,0.01051
104,13.3631,-1.76532,0.0105719
104.5,13.3796,-1.77095,0.0116286
105,13.3966,-1.77548,0.0116292
105.5,13.4134,-1.77745,0.0116301
106,13.4305,-1.78262,0.0116302
106.5,13.4475,-1.78846,0.0116302
107,13.4636,-1.79306,0.0116301
107.5,13.4803,-1.79791,0.0116292
108,13.497,-1.80569,0.0116258
108.5,13.5139,-1.81122,0.0116746
109,13.531,-1.81465,0.010599
109.5,13.5471,-1.82135,0.0103191
110,13.5644,-1.82686,0.010308
110.5,13.5809,-1.83268,0.0103102
111,13.5976,-1.83748,0.0103101
111.5,13.6141,-1.84369,0.0101601
112,13.6311,-1.84861,0.00934083
112.5,13.6475,-1.85296,0.010363
113,13.6644,-1.86001,0.0103278
113.5,13.6809,-1.86477,0.0103204
114,13.6979,-1.87039,0.01032
114.5,13.7144,-1.87424,0.0103197
115,13.7315,-1.88024,0.0103174
115.5,13.7478,-1.88375,0.0103266
116,13.7647,-1.88832,0.00959167
116.5,13.7812,-1.89378,0.00901436
117,13.7981,-1.89925,0.00816847
117.5,13.8145,-1.90555,0.00803028
118,13.8313,-1.91232,0.00797765
118.5,13.8479,-1.91646,0.00766485
119,13.8644,-1.92168,0.00767766
119.5,13.8807,-1.92568,0.00768009
120,13.8975,-1.93039,0.00768018
120.5,13.9141,-1.93496,0.00768018
121,13.9301,-1.93912,0.00768016
121.5,13.9474,-1.94297,0.00767926
122,13.9636,-1.94458,0.00766986
122.5,13.9798,-1.94806,0.00768612
123,13.9966,-1.94806,0.0065338
123.5,14.0128,-1.94818,0.00638356
124,14.0295,-1.94939,0.00636946
124.5,14.0455,-1.94921,0.0063681
125,14.0621,-1.9484,0.00636605
125.5,14.0784,-1.9481,0.00528344
126,14.0944,-1.94388,0.00511947
126.5,14.1107,-1.94089,0.00433243
127,14.1271,-1.93545,0.00370105
127.5,14.1426,-1.92851,0.00375171
128,14.1593,-1.92344,0.00318509
128.5,14.1757,-1.91759,0.00236048
129,14.1918,-1.91032,0.00240816
129.5,14.2078,-1.9033,0.00241054
130,14.2243,-1.89555,0.00241002
130.5,14.24,-1.88651,0.00240995
131,14.2564,-1.87809,0.00240997
131.5,14.2721,-1.87066,0.0024101
132,14.2883,-1.86078,0.00240895
132.5,14.3042,-1.85278,0.00239363
133,14.3206,-1.84395,0.0023852
133.5,14.3366,-1.83498,0.00169966
134,14.3524,-1.82692,0.00174543
134.5,14.3683,-1.81826,0.00175045
135,14.3847,-1.80994,0.0017501
135.5,14.4,-1.80046,0.00175
136,14.416,-1.79154,0.00175
136.5,14.431,-1.78366,0.00174997
137,14.4474,-1.77491,0.00175019
137.5,14.4635,-1.76649,0.00175295
138,14.4799,-1.75806,0.00175186
138.5,14.4957,-1.75056,0.00138517
139,14.5116,-1.7433,0.000381307
139.5,14.5274,-1.73755,0.000445164
140,14.5433,-1.73104,0.000441072
140.5,14.5595,-1.72272,0.000440018
141,14.575,-1.7194,0.000439989
141.5,14.5904,-1.71511,0.000440002
142,14.606,-1.71057,0.000440003
142.5,14.6222,-1.70542,0.000440003
143,14.6384,-1.70067,0.000440003
143.5,14.6545,-1.69746,0.000440003
144,14.6702,-1.69603,0.000440003
144.5,14.686,-1.69203,0.000440003
145,14.7017,-1.68954,0.000440003
145.5,14.717,-1.68631,0.000440003
146,14.7337,-1.68345,0.000440003
146.5,14.7488,-1.68011,0.000440003
147,14.7647,-1.6779,0.000440003
147.5,14.7808,-1.67716,0.000440003
148,14.7967,-1.67324,0.000440003
148.5,14.8126,-1.66971,0.000440003
149,14.8282,-1.66803,0.000440003
149.5,14.844,-1.664,0.000440003
150,14.8598,-1.66318,0.000440003
150.5,14.8759,-1.66061,0.000440003
151,14.8913,-1.65858,0.000440003
151.5,14.907,-1.65836,0.000440011
152,14.9231,-1.65548,0.000440053
152.5,14.9376,-1.65369,0.000439452
153,14.9538,-1.65145,0.000436962
153.5,14.9699,-1.64828,0.000451601
154,14.9858,-1.64585,0.000741059
154.5,15.0013,-1.64473,0.0010217
155,15.0168,-1.64334,0.000469481
155.5,15.0325,-1.64163,0.000446419
156,15.0486,-1.6384,0.000439931
156.5,15.0642,-1.6366,0.000439798
157,15.0794,-1.63494,0.000439901
157.5,15.0951,-1.63241,0.000439767
158,15.1114,-1.63061,0.000438616
158.5,15.1269,-1.62998,0.000443827
159,15.1426,-1.62776,0.000527997
159.5,15.1584,-1.62611,-0.000532788
160,15.1739,-1.62297,-0.000529518
160.5,15.1896,-1.6219,-0.000549107
161,15.2052,-1.62081,-0.000550414
161.5,15.2203,-1.61913,-0.000550138
162,15.2363,-1.61586,-0.000550102
162.5,15.2515,-1.61302,-0.000550104
163,15.2677,-1.61279,-0.000550105
163.5,15.2833,-1.61104,-0.000550105
164,15.2991,-1.60835,-0.000550105
164.5,15.3147,-1.60623,-0.000550105
165,15.3301,-1.60581,-0.000550105
165.5,15.3457,-1.60511,-0.000550105
166,15.3614,-1.60364,-0.000550105
166.5,15.3771,-1.60176,-0.000550105
167,15.3924,-1.59833,-0.000550105
167.5,15.4082,-1.59615,-0.000550105
168,15.4236,-1.59493,-0.000550105
168.5,15.4393,-1.59442,-0.000550106
169,15.4547,-1.59078,-0.000550092
169.5,15.4705,-1.58914,-0.00055003
170,15.4861,-1.58797,-0.000550651
170.5,15.5017,-1.586,-0.000556097
171,15.5171,-1.58392,-0.000530624
171.5,15.5324,-1.58213,-0.000913306
172,15.548,-1.58217,-0.000880327
172.5,15.5639,-1.5794,-0.00087952
173,15.5793,-1.57598,-0.000880079
173.5,15.5949,-1.57674,-0.000880181
174,15.6101,-1.57328,-0.000880116
174.5,15.626,-1.57285,-0.000876355
175,15.641,-1.57206,-0.000869753
175.5,15.6567,-1.57,-0.0012728
176,15.6727,-1.5685,-0.00225299
176.5,15.6879,-1.56754,-0.00219403
177,15.7033,-1.56411,-0.00219888
177.5,15.719,-1.56461,-0.00220005
178,15.7344,-1.56202,-0.00220002
178.5,15.7501,-1.5601,-0.0022
179,15.7651,-1.55894,-0.0022
179.5,15.7808,-1.55791,-0.0022
180,15.7962,-1.55459,-0.0022
180.5,15.8119,-1.55306,-0.0022
181,15.8271,-1.55146,-0.0022
181.5,15.8428,-1.54908,-0.0022
182,15.8572,-1.5475,-0.0022
182.5,15.873,-1.54668,-0.00220001
183,15.8886,-1.54498,-0.00220001
183.5,15.904,-1.54319,-0.00219948
184,15.9196,-1.54118,-0.00219802
184.5,15.9348,-1.53956,-0.00222853
185,15.9503,-1.53729,-0.00237868
185.5,15.9656,-1.53513,-0.00324108
186,15.9812,-1.53418,-0.00319716
186.5,15.9962,-1.53218,-0.0031893
187,16.0117,-1.53054,-0.00318985
187.5,16.0272,-1.52917,-0.00319
188,16.0425,-1.52811,-0.00319
188.5,16.0572,-1.52676,-0.00319
189,16.0729,-1.52509,-0.00319
189.5,16.0885,-1.523,-0.00319
190,16.103,-1.52206,-0.00319
190.5,16.1182,-1.51898,-0.00319
191,16.1335,-1.51722,-0.00319
191.5,16.1489,-1.51491,-0.00319
192,16.165,-1.51276,-0.00319
192.5,16.1801,-1.51075,-0.00319
193,16.1955,-1.50953,-0.00318998
193.5,16.211,-1.50736,-0.00318995
194,16.2254,-1.50596,-0.00319105
194.5,16.2414,-1.50428,-0.00319344
195,16.2566,-1.502,-0.00313727
195.5,16.272,-1.50017,-0.0040147
196,16.2873,-1.49856,-0.00454077
196.5,16.3025,-1.49662,-0.0045134
197,16.3175,-1.49448,-0.00450936
197.5,16.3328,-1.49219,-0.00450982
198,16.3484,-1.49057,-0.0045099
198.5,16.3635,-1.48968,-0.00450989
199,16.3787,-1.48933,-0.00450989
199.5,16.3941,-1.48365,-0.00450989
200,16.409,-1.48427,-0.00450989
200.5,16.4246,-1.48394,-0.00450989
201,16.4402,-1.48034,-0.00450989
201.5,16.4548,-1.4794,-0.00450989
202,16.4702,-1.47805,-0.00450989
202.5,16.4849,-1.47687,-0.00450989
203,16.5006,-1.47511,-0.00450989
203.5,16.5161,-1.4738,-0.00450989
204,16.5311,-1.47074,-0.00450989
204.5,16.5464,-1.47074,-0.00450989
205,16.5616,-1.47065,-0.00450989
205.5,16.577,-1.46911,-0.00450989
206,16.592,-1.46685,-0.00450989
206.5,16.6071,-1.46626,-0.00450989
207,16.6225,-1.46481,-0.00450989
207.5,16.6378,-1.46299,-0.00450989
208,16.6529,-1.46325,-0.00450993
208.5,16.668,-1.46218,-0.00450967
209,16.6834,-1.46105,-0.00450711
209.5,16.6989,-1.45997,-0.00451723
210,16.7137,-1.45878,-0.00469263
210.5,16.7294,-1.45786,-0.00579755
211,16.7444,-1.45693,-0.00580532
211.5,16.7596,-1.45572,-0.00582004
212,16.7746,-1.4548,-0.00582007
212.5,16.7902,-1.45378,-0.00581981
213,16.8053,-1.45317,-0.00581988
213.5,16.8204,-1.45259,-0.00581989
214,16.8357,-1.45186,-0.00581559
214.5,16.8509,-1.45202,-0.0058104
215,16.8659,-1.45187,-0.00618337
215.5,16.8813,-1.45106,-0.00682359
216,16.8964,-1.45063,-0.0067699
216.5,16.9116,-1.45066,-0.00716425
217,16.9268,-1.44982,-0.00713397
217.5,16.9421,-1.44935,-0.00713953
218,16.9572,-1.44862,-0.0071402
218.5,16.9722,-1.44842,-0.00714011
219,16.9877,-1.44676,-0.0071401
219.5,17.0026,-1.44652,-0.0071401
220,17.018,-1.44631,-0.0071401
220.5,17.0332,-1.44623,-0.0071401
221,17.0483,-1.44567,-0.0071401
221.5,17.0638,-1.44424,-0.0071401
222,17.0788,-1.44294,-0.0071401
222.5,17.094,-1.44247,-0.0071401
223,17.1093,-1.44229,-0.00714008
223.5,17.1243,-1.44192,-0.00713968
224,17.1398,-1.44117,-0.00714029
224.5,17.1542,-1.4405,-0.00716504
225,17.1696,-1.44022,-0.0071228
225.5,17.185,-1.43968,-0.00839018
226,17.2,-1.43869,-0.00845995
226.5,17.2154,-1.43826,-0.00846048
227,17.2304,-1.43653,-0.00846
227.5,17.2456,-1.4355,-0.00845998
228,17.2607,-1.43599,-0.00845999
228.5,17.2757,-1.43484,-0.00845999
229,17.2905,-1.43352,-0.00845999
229.5,17.3056,-1.43405,-0.00845999
230,17.3216,-1.43297,-0.00845999
230.5,17.3367,-1.43341,-0.00846001
231,17.3515,-1.43156,-0.00846006
231.5,17.3672,-1.43045,-0.00845905
232,17.382,-1.42922,-0.00845468
232.5,17.397,-1.42838,-0.00862562
233,17.4123,-1.42715,-0.00950605
233.5,17.4274,-1.42747,-0.00944085
234,17.4421,-1.42642,-0.00944879
234.5,17.4575,-1.4264,-0.00944996
235,17.473,-1.42527,-0.00945805
235.5,17.4882,-1.42369,-0.0094603
236,17.5032,-1.42324,-0.00980636
236.5,17.5183,-1.42227,-0.0097441
237,17.5335,-1.42082,-0.0101368
237.5,17.5487,-1.42055,-0.0100985
238,17.5634,-1.41954,-0.0101165
238.5,17.5789,-1.41849,-0.0100522
239,17.5939,-1.41748,-0.0113126
239.5,17.609,-1.41559,-0.0114306
240,17.6246,-1.41642,-0.0107922
240.5,17.6393,-1.41598,-0.0100948
241,17.6544,-1.41507,-0.0101012
241.5,17.6696,-1.41444,-0.0101003
242,17.6847,-1.41266,-0.0101
242.5,17.7003,-1.41229,-0.0101008
243,17.7151,-1.41154,-0.010158
243.5,17.7304,-1.41034,-0.0113937
244,17.7453,-1.40857,-0.0121492
244.5,17.7602,-1.40865,-0.0127364
245,17.7759,-1.40745,-0.0127295
245.5,17.7908,-1.40665,-0.01273
246,17.8063,-1.40509,-0.0127301
246.5,17.8208,-1.40481,-0.0127301
247,17.8364,-1.40435,-0.0127301
247.5,17.8513,-1.40332,-0.01273
248,17.8666,-1.40198,-0.012731
248.5,17.8814,-1.40124,-0.0127335
249,17.8967,-1.39979,-0.0126852
249.5,17.9113,-1.39944,-0.0134969
250,17.9269,-1.3985,-0.0140866
250.5,17.9419,-1.39792,-0.0140533
251,17.957,-1.39745,-0.0140493
251.5,17.9721,-1.39558,-0.0140499
252,17.9871,-1.39474,-0.01405
252.5,18.0023,-1.39454,-0.0140481
253,18.0174,-1.39464,-0.0140515
253.5,18.0325,-1.39361,-0.0132038
254,18.0475,-1.39229,-0.0129023
254.5,18.0626,-1.39124,-0.0141362
255,18.0777,-1.38994,-0.0140476
255.5,18.0929,-1.38868,-0.0140576
256,18.1078,-1.38811,-0.0140595
256.5,18.1229,-1.38792,-0.0141443
257,18.138,-1.38754,-0.0153969
257.5,18.1532,-1.3859,-0.015348
258,18.1683,-1.38441,-0.0153709
258.5,18.1834,-1.38496,-0.0153727
259,18.1986,-1.38388,-0.0152703
259.5,18.2135,-1.38344,-0.0154205
260,18.2286,-1.38183,-0.015391
260.5,18.2438,-1.38091,-0.0155481
261,18.2588,-1.37947,-0.0166462
261.5,18.2741,-1.37923,-0.0166755
262,18.289,-1.37851,-0.0166888
262.5,18.304,-1.37716,-0.0167156
263,18.3191,-1.37618,-0.0168225
263.5,18.3343,-1.37593,-0.0179788
264,18.3495,-1.37559,-0.0179988
264.5,18.3643,-1.37591,-0.0179943
265,18.3797,-1.37333,-0.0180041
265.5,18.3944,-1.37408,-0.018404
266,18.4101,-1.37366,-0.0193195
266.5,18.4247,-1.3717,-0.0193241
267,18.4397,-1.37159,-0.0193705
267.5,18.4551,-1.37046,-0.0185636
268,18.4701,-1.37004,-0.0180045
268.5,18.485,-1.37011,-0.0180037
269,18.5002,-1.37041,-0.0180037
269.5,18.5151,-1.37022,-0.0185005
270,18.5303,-1.36906,-0.0195039
270.5,18.5454,-1.36788,-0.0200128
271,18.5602,-1.36699,-0.0199951
271.5,18.5754,-1.3663,-0.0199894
272,18.5909,-1.36626,-0.0199898
272.5,18.6058,-1.36579,-0.0199899
273,18.6205,-1.36485,-0.0199899
273.5,18.6358,-1.36412,-0.0199899
274,18.6508,-1.3643,-0.0199899
274.5,18.666,-1.36409,-0.0199899
275,18.6811,-1.36387,-0.0199899
275.5,18.6963,-1.36373,-0.0199898
276,18.7113,-1.36407,-0.0199882
276.5,18.7266,-1.36315,-0.0199926
277,18.741,-1.36256,-0.0200693
277.5,18.7565,-1.36228,-0.0191496
278,18.7713,-1.36176,-0.0200294
278.5,18.7867,-1.36061,-0.0199642
279,18.802,-1.36138,-0.0199788
279.5,18.817,-1.3609,-0.0199815
280,18.832,-1.36022,-0.0199857
280.5,18.847,-1.35986,-0.0199305
281,18.8621,-1.36003,-0.0208126
281.5,18.8774,-1.35918,-0.0213265
282,18.8921,-1.35871,-0.0213256
282.5,18.9073,-1.35807,-0.0213286
283,18.9227,-1.35777,-0.0227569
283.5,18.9376,-1.35748,-0.0239179
284,18.9529,-1.35756,-0.0239377
284.5,18.9676,-1.35705,-0.0239403
285,18.9829,-1.35701,-0.02394
285.5,18.9977,-1.35668,-0.0239399
286,19.013,-1.35662,-0.0239398
286.5,19.0281,-1.35631,-0.0239407
287,19.0429,-1.35609,-0.0239477
287.5,19.0583,-1.35576,-0.023901
288,19.0732,-1.3557,-0.0248607
288.5,19.0883,-1.35574,-0.0252777
289,19.1033,-1.35456,-0.0252635
289.5,19.1185,-1.35409,-0.0252592
290,19.1337,-1.35456,-0.0252547
290.5,19.1486,-1.3545,-0.0252766
291,19.1639,-1.35246,-0.0255931
291.5,19.1791,-1.35278,-0.0265651
292,19.194,-1.3535,-0.026568
292.5,19.2093,-1.35448,-0.0265702
293,19.2241,-1.35446,-0.0265703
293.5,19.2394,-1.35417,-0.02657
294,19.2546,-1.35438,-0.0265655
294.5,19.2696,-1.35436,-0.0268708
295,19.2847,-1.35403,-0.0279855
295.5,19.2997,-1.35418,-0.0278889
296,19.3149,-1.35357,-0.0278882
296.5,19.33,-1.35417,-0.0278901
297,19.3451,-1.35387,-0.0278901
297.5,19.3599,-1.35474,-0.0278901
298,19.3753,-1.35406,-0.0278917
298.5,19.3901,-1.35321,-0.0278904
299,19.4053,-1.35325,-0.0278064
299.5,19.4205,-1.35321,-0.0289248
300,19.4356,-1.35346,-0.0293352
300.5,19.4508,-1.35321,-0.0293208
301,19.4658,-1.35353,-0.0293198
301.5,19.4809,-1.3538,-0.0293133
302,19.496,-1.35362,-0.0293176
302.5,19.5113,-1.35308,-0.029836
303,19.5262,-1.35363,-0.0316212
303.5,19.5415,-1.35348,-0.0319201
304,19.5565,-1.35424,-0.0319444
304.5,19.5716,-1.35452,-0.0319477
305,19.5869,-1.35409,-0.0315145
305.5,19.6022,-1.35449,-0.0305411
306,19.6169,-1.35378,-0.0310353
306.5,19.6324,-1.35405,-0.0319984
307,19.6472,-1.35391,-0.0319418
307.5,19.6624,-1.35361,-0.0319491
308,19.6773,-1.35338,-0.0319345
308.5,19.6928,-1.35399,-0.032613
309,19.708,-1.35395,-0.0324669
309.5,19.7222,-1.3538,-0.0319302
310,19.7375,-1.35424,-0.0319455
310.5,19.7533,-1.35504,-0.0319463
311,19.7683,-1.35502,-0.0319692
311.5,19.7835,-1.35405,-0.0322469
312,19.7988,-1.3538,-0.0332627
312.5,19.8137,-1.35417,-0.0332624
313,19.8289,-1.35402,-0.0332361
313.5,19.8441,-1.35344,-0.0340293
314,19.8592,-1.35354,-0.0360274
314.5,19.8746,-1.35446,-0.0360132
315,19.8898,-1.35398,-0.0359999
315.5,19.9044,-1.35446,-0.0372453
316,19.9198,-1.35341,-0.0373303
316.5,19.9348,-1.35345,-0.0373307
317,19.9502,-1.35343,-0.0373301
317.5,19.9653,-1.35438,-0.0373236
318,19.9803,-1.35475,-0.0373252
318.5,19.9956,-1.3543,-0.0378514
319,20.0105,-1.35435,-0.0386519
319.5,20.0258,-1.35476,-0.0386481
320,20.041,-1.35408,-0.0386491
320.5,20.056,-1.3536,-0.0386642
321,20.0715,-1.35458,-0.0387036
321.5,20.0864,-1.35427,-0.0398049
322,20.1018,-1.35355,-0.0399601
322.5,20.117,-1.3537,-0.0399724
323,20.1322,-1.35446,-0.0399711
323.5,20.1473,-1.35509,-0.0399644
324,20.1625,-1.3547,-0.0405462
324.5,20.178,-1.35461,-0.0413209
325,20.1929,-1.3544,-0.0412867
325.5,20.2083,-1.35467,-0.0412796
326,20.2234,-1.35487,-0.0412815
326.5,20.2384,-1.35412,-0.0412745
327,20.2538,-1.35478,-0.0420004
327.5,20.2687,-1.35438,-0.0426232
328,20.2841,-1.3554,-0.0426065
328.5,20.2992,-1.35625,-0.0426004
329,20.3143,-1.35658,-0.0426459
329.5,20.3298,-1.35781,-0.0439087
330,20.3449,-1.35617,-0.0438945
330.5,20.3601,-1.35666,-0.04392
331,20.3751,-1.35687,-0.0438748
331.5,20.3906,-1.35824,-0.044628
332,20.4057,-1.35893,-0.0452813
332.5,20.4211,-1.35993,-0.045243
333,20.4365,-1.35991,-0.0452431
333.5,20.4514,-1.3605,-0.0451143
334,20.4671,-1.36123,-0.0452841
334.5,20.4823,-1.362,-0.0455474
335,20.4974,-1.36252,-0.0455665
335.5,20.5127,-1.3636,-0.0455811
336,20.5279,-1.36497,-0.046721
336.5,20.543,-1.36507,-0.046854
337,20.5582,-1.36563,-0.0468938
337.5,20.5735,-1.36656,-0.0470402
338,20.5887,-1.36694,-0.048153
338.5,20.604,-1.36774,-0.0481868
339,20.6198,-1.36926,-0.0481995
339.5,20.6346,-1.36973,-0.0490272
340,20.6502,-1.37044,-0.0495174
340.5,20.6648,-1.37181,-0.0495189
341,20.6806,-1.37235,-0.049888
341.5,20.6957,-1.37255,-0.0509109
342,20.7113,-1.37414,-0.0508345
342.5,20.7265,-1.37491,-0.05082
343,20.7419,-1.37588,-0.0513393
343.5,20.757,-1.37683,-0.0522051
344,20.7723,-1.37842,-0.0521341
344.5,20.7874,-1.37896,-0.0525905
345,20.8029,-1.38076,-0.0535544
345.5,20.8182,-1.38129,-0.0535579
346,20.8335,-1.38207,-0.0557346
346.5,20.8488,-1.38434,-0.0562231
347,20.8644,-1.38444,-0.0562581
347.5,20.8796,-1.38683,-0.0576123
348,20.8948,-1.38679,-0.0575706
348.5,20.9099,-1.38761,-0.0582862
349,20.9254,-1.39017,-0.0591395
349.5,20.9409,-1.39156,-0.0584658
350,20.9561,-1.39318,-0.0591251
350.5,20.9714,-1.39512,-0.0594854
351,20.987,-1.39571,-0.0595386
351.5,21.0016,-1.39561,-0.0596281
352,21.0174,-1.39869,-0.0607943
352.5,21.0328,-1.40006,-0.0608326
353,21.0481,-1.40166,-0.0620954
353.5,21.0633,-1.40345,-0.0622169
354,21.0792,-1.40472,-0.0625144
354.5,21.0941,-1.40695,-0.0638064
355,21.1094,-1.40729,-0.0636489
355.5,21.1251,-1.4089,-0.0650166
356,21.1403,-1.4116,-0.0651285
356.5,21.1558,-1.41373,-0.0664508
357,21.1711,-1.41428,-0.0665613
357.5,21.1865,-1.41621,-0.0678321
358,21.2018,-1.41845,-0.0680604
358.5,21.2171,-1.42044,-0.0693219
359,21.2326,-1.42256,-0.0695892
359.5,21.2481,-1.42494,-0.0709739
360,21.2633,-1.42692,-0.0712452
360.5,21.2788,-1.42934,-0.0726327
361,21.294,-1.43261,-0.0730474
361.5,21.3097,-1.43348,-0.0742224
362,21.325,-1.43681,-0.0747564
362.5,21.3402,-1.43911,-0.0759727
363,21.3557,-1.44242,-0.0770382
363.5,21.3713,-1.44409,-0.0774862
364,21.3863,-1.44654,-0.0786711
364.5,21.4018,-1.45026,-0.0790515
365,21.4175,-1.45286,-0.0800423
365.5,21.4328,-1.45515,-0.0804883
366,21.4482,-1.45664,-0.0817337
366.5,21.4636,-1.46041,-0.0830059
367,21.479,-1.46433,-0.0839076
367.5,21.4944,-1.46712,-0.0855232
368,21.5099,-1.47079,-0.0860634
368.5,21.5253,-1.47447,-0.0868989
369,21.5409,-1.47752,-0.0882456
369.5,21.5563,-1.48142,-0.0891272
370,21.5718,-1.48503,-0.0905255
370.5,21.5871,-1.48837,-0.0917111
371,21.6027,-1.49165,-0.0920724
371.5,21.6179,-1.49832,-0.0934247
372,21.6337,-1.50212,-0.0943418
372.5,21.649,-1.50802,-0.0954182
373,21.6645,-1.51345,-0.0979494
373.5,21.68,-1.51843,-0.100559
374,21.6955,-1.52118,-0.102062
374.5,21.711,-1.52751,-0.103316
375,21.7265,-1.53516,-0.10501
375.5,21.7419,-1.53929,-0.10706
376,21.7576,-1.54659,-0.108564
376.5,21.773,-1.55349,-0.109895
377,21.7888,-1.56071,-0.111657
377.5,21.8041,-1.56727,-0.113829
378,21.8195,-1.57481,-0.115351
378.5,21.8351,-1.58255,-0.115991
379,21.8508,-1.58811,-0.117448
379.5,21.8664,-1.59681,-0.119048
380,21.8817,-1.60596,-0.121321
380.5,21.8974,-1.61541,-0.123819
381,21.9133,-1.62466,-0.125603
381.5,21.9288,-1.63595,-0.128192
382,21.9443,-1.64291,-0.130216
382.5,21.9598,-1.65593,-0.131946
383,21.9755,-1.66527,-0.134053
383.5,21.9913,-1.67617,-0.136292
384,22.0068,-1.68734,-0.138922
384.5,22.0224,-1.69962,-0.141339
385,22.0379,-1.70999,-0.143769
385.5,22.0538,-1.72137,-0.14698
386,22.0691,-1.7339,-0.149027
386.5,22.085,-1.74806,-0.151651
387,22.1007,-1.76118,-0.154924
387.5,22.1164,-1.77843,-0.15703
388,22.1321,-1.79405,-0.160537
388.5,22.1479,-1.81001,-0.164269
389,22.1634,-1.82829,-0.166685
389.5,22.1794,-1.84665,-0.170387
390,22.1951,-1.86348,-0.173731
390.5,22.2109,-1.88456,-0.176801
391,22.2263,-1.90239,-0.180769
391.5,22.2421,-1.92198,-0.184079
392,22.2579,-1.9417,-0.187577
392.5,22.274,-1.96216,-0.191227
393,22.2898,-1.98393,-0.195155
393.5,22.3056,-2.00821,-0.2
394,22.3211,-2.03046,-0.204625
394.5,22.3371,-2.05552,-0.209753
395,22.3533,-2.08152,-0.215182
395.5,22.369,-2.10769,-0.219167
396,22.385,-2.13369,-0.224551
396.5,22.4007,-2.16017,-0.229309
397,22.4166,-2.18925,-0.234488
397.5,22.4326,-2.21808,-0.240827
398,22.4485,-2.24576,-0.245526
398.5,22.4646,-2.27414,-0.25187
399,22.4805,-2.30545,-0.257618
399.5,22.4965,-2.34195,-0.263502
400,22.5127,-2.37782,-0.270752
400.5,22.5288,-2.41448,-0.276575
401,22.5447,-2.45592,-0.284072
401.5,22.5608,-2.49711,-0.290552
402,22.5772,-2.53624,-0.297423
402.5,22.5932,-2.5835,-0.305587
403,22.6095,-2.63372,-0.312424
403.5,22.6256,-2.67452,-0.321327
404,22.6421,-2.71951,-0.32935
404.5,22.6584,-2.76815,-0.338498
405,22.6747,-2.82297,-0.348805
405.5,22.6911,-2.87986,-0.357114
406,22.7074,-2.93319,-0.367678
406.5,22.7237,-2.98149,-0.376974
407,22.7399,-3.03474,-0.388008
407.5,22.7565,-3.09918,-0.400268
408,22.7732,-3.16604,-0.410698
408.5,22.7897,-3.22306,-0.423751
409,22.8065,-3.30306,-0.43412
409.5,22.8227,-3.36476,-0.447113
410,22.8389,-3.4301,-0.459915
410.5,22.8562,-3.49719,-0.473636
411,22.8727,-3.55678,-0.489334
411.5,22.8889,-3.61976,-0.501082
412,22.9058,-3.68958,-0.516628
412.5,22.9223,-3.76281,-0.529474
413,22.9386,-3.81524,-0.543903
413.5,22.9555,-3.88158,-0.560846
414,22.9723,-3.95687,-0.574794
414.5,22.9888,-4.02616,-0.592424
415,23.0054,-4.09207,-0.606098
415.5,23.022,-4.16665,-0.622597
416,23.0388,-4.2366,-0.638864
416.5,23.0556,-4.32031,-0.654563
417,23.0726,-4.40372,-0.673685
417.5,23.0896,-4.49375,-0.688672
418,23.1067,-4.58205,-0.708456
418.5,23.1235,-4.66801,-0.724751
419,23.1409,-4.78505,-0.744475
419.5,23.1584,-4.89945,-0.763687
420,23.1756,-5.02328,-0.781868
420.5,23.1931,-5.14412,-0.805921
421,23.2106,-5.26771,-0.828211
421.5,23.228,-5.39327,-0.859849
422,23.2458,-5.52685,-0.886999
422.5,23.2632,-5.65376,-0.919277
423,23.2808,-5.77846,-0.949645
423.5,23.2984,-5.91023,-0.980811
424,23.3165,-6.05652,-1.01677
424.5,23.3341,-6.19038,-1.0478
425,23.3517,-6.31832,-1.08654
425.5,23.3695,-6.44441,-1.11837
426,23.3874,-6.58886,-1.1607
426.5,23.4051,-6.71997,-1.19481
427,23.4228,-6.86208,-1.23645
427.5,23.4405,-6.9979,-1.27545
428,23.4583,-7.12108,-1.31614
428.5,23.4762,-7.24754,-1.36384
429,23.494,-7.3881,-1.40844
429.5,23.5115,-7.50564,-1.45292
430,23.5291,-7.62014,-1.51171
430.5,23.5467,-7.72244,-1.56148
431,23.5643,-7.83586,-1.61097
431.5,23.5817,-7.93481,-1.6604
432,23.5986,-8.01992,-1.70795
432.5,23.6159,-8.09871,-1.75726
433,23.6328,-8.17481,-1.80627
433.5,23.6502,-8.25563,-1.85771
434,23.6672,-8.3251,-1.90974
434.5,23.6831,-8.37549,-1.95989
435,23.6996,-8.42033,-2.01177
435.5,23.7168,-8.48093,-2.06529
436,23.7338,-8.52003,-2.11735
436.5,23.7503,-8.54655,-2.16841
437,23.7666,-8.56715,-2.22155
437.5,23.783,-8.57962,-2.27671
438,23.7991,-8.57885,-2.32997
438.5,23.8147,-8.57164,-2.37956
439,23.8305,-8.54935,-2.42968
439.5,23.8464,-8.51967,-2.48213
440,23.8619,-8.48902,-2.53455
440.5,23.8771,-8.44075,-2.58497
441,23.8925,-8.37755,-2.63557
441.5,23.9075,-8.29869,-2.68667
442,23.9222,-8.21402,-2.73846
442.5,23.9367,-8.1208,-2.78673
443,23.9515,-8.01046,-2.83377
443.5,23.966,-7.90165,-2.88084
444,23.9806,-7.80923,-2.92797
444.5,23.9949,-7.69335,-2.97168
445,24.0088,-7.55563,-3.01682
445.5,24.0225,-7.40451,-3.06695
446,24.036,-7.24397,-3.11457
446.5,24.0493,-7.07913,-3.15953
447,24.0628,-6.90706,-3.20528
447.5,24.0766,-6.72007,-3.24549
448,24.0901,-6.53367,-3.2806
448.5,24.103,-6.35252,-3.31503
449,24.1162,-6.15798,-3.34605
449.5,24.1295,-5.96041,-3.38345
450,24.1423,-5.76837,-3.40322
450.5,24.1551,-5.56934,-3.42662
451,24.1681,-5.36769,-3.45372
451.5,24.181,-5.16501,-3.47529
452,24.1936,-4.96358,-3.49738
452.5,24.2068,-4.7542,-3.52369
453,24.2196,-4.55246,-3.54305
453.5,24.2325,-4.34876,-3.5623
454,24.2455,-4.14716,-3.58417
454.5,24.2577,-3.96074,-3.60111
455,24.2707,-3.76502,-3.61738
455.5,24.2839,-3.56984,-3.63617
456,24.2967,-3.38749,-3.65186
456.5,24.3098,-3.20263,-3.66544
457,24.3227,-3.02731,-3.68055
457.5,24.3358,-2.85691,-3.69452
458,24.3491,-2.6893,-3.70604
458.5,24.3622,-2.53268,-3.7192
459,24.3754,-2.3779,-3.73131
459.5,24.3884,-2.23661,-3.74052
460,24.4016,-2.09907,-3.75092
460.5,24.4157,-1.96301,-3.76117
461,24.4293,-1.83705,-3.76959
461.5,24.443,-1.71809,-3.77819
462,24.4571,-1.60631,-3.78627
462.5,24.4707,-1.50182,-3.79285
463,24.4847,-1.4022,-3.80045
463.5,24.4989,-1.30944,-3.80655
464,24.5127,-1.22336,-3.81213
464.5,24.5271,-1.1405,-3.81867
465,24.541,-1.06602,-3.82285
465.5,24.5555,-0.991445,-3.82645
466,24.5702,-0.9251,-3.8316
466.5,24.5843,-0.864731,-3.83509
467,24.599,-0.804192,-3.83925
467.5,24.6133,-0.749188,-3.84339
468,24.6281,-0.697942,-3.84644
468.5,24.6429,-0.657215,-3.85086
469,24.6573,-0.616514,-3.85397
469.5,24.6725,-0.575097,-3.85707
470,24.6872,-0.537759,-3.86023
470.5,24.7017,-0.50751,-3.86242
471,24.7169,-0.475552,-3.86307
471.5,24.7322,-0.44661,-3.86411
472,24.7471,-0.423338,-3.86544
472.5,24.7625,-0.399087,-3.86663
473,24.7775,-0.378836,-3.86814
473.5,24.7925,-0.362533,-3.86983
474,24.8077,-0.343162,-3.87132
474.5,24.8233,-0.326015,-3.87322
475,24.8384,-0.313748,-3.87452
475.5,24.8537,-0.30054,-3.87664
476,24.8691,-0.289416,-3.87821
476.5,24.8843,-0.276801,-3.87913
477,24.8998,-0.266301,-3.8805
477.5,24.9153,-0.256988,-3.88054
478,24.9308,-0.2495,-3.88209
478.5,24.9464,-0.240585,-3.88237
479,24.9613,-0.235136,-3.8836
479.5,24.9772,-0.227817,-3.88429
480,24.9928,-0.22263,-3.88492
480.5,25.0082,-0.218009,-3.88483
481,25.0236,-0.212577,-3.88612
481.5,25.0391,-0.207677,-3.88618
482,25.0549,-0.204411,-3.88753
482.5,25.0701,-0.199612,-3.88765
483,25.0859,-0.19538,-3.88862
483.5,25.1014,-0.191002,-3.88899
484,25.1171,-0.18769,-3.88832
484.5,25.1326,-0.183162,-3.88849
485,25.1484,-0.179768,-3.88911
485.5,25.1639,-0.177325,-3.88945
486,25.1794,-0.172617,-3.89061
486.5,25.1953,-0.169093,-3.89067
487,25.211,-0.164954,-3.89198
487.5,25.2267,-0.160812,-3.89191
488,25.2421,-0.156284,-3.89193
488.5,25.2578,-0.152378,-3.89193
489,25.2735,-0.148622,-3.89261
489.5,25.2891,-0.148507,-3.89326
490,25.305,-0.144721,-3.89325
490.5,25.3209,-0.142364,-3.89325
491,25.3365,-0.141165,-3.89327
491.5,25.3516,-0.138752,-3.89246
492,25.3677,-0.136877,-3.89229
492.5,25.3837,-0.135362,-3.89226
493,25.3994,-0.135214,-3.89226
493.5,25.4153,-0.133834,-3.89226
494,25.4304,-0.133654,-3.89226
494.5,25.4463,-0.133756,-3.89228
495,25.4629,-0.133964,-3.89221
495.5,25.4787,-0.133646,-3.89349
496,25.4938,-0.134043,-3.89357
496.5,25.5102,-0.134811,-3.89357
497,25.5262,-0.135107,-3.89357
497.5,25.5418,-0.136935,-3.89357
498,25.5576,-0.139633,-3.89357
498.5,25.5737,-0.144222,-3.89357
499,25.5898,-0.148921,-3.89357
499.5,25.6054,-0.152122,-3.8939
500,25.6212,-0.157242,-3.89458
500.5,25.6371,-0.162985,-3.89483
501,25.6531,-0.167885,-3.89522
501.5,25.6689,-0.168176,-3.89522
502,25.6848,-0.172369,-3.89519
502.5,25.7008,-0.176317,-3.89557
503,25.7165,-0.17927,-3.89554
503.5,25.7326,-0.181905,-3.89555
504,25.7482,-0.184928,-3.89555
504.5,25.7645,-0.184851,-3.89557
505,25.7803,-0.185333,-3.89557
505.5,25.7962,-0.18848,-3.89683
506,25.8117,-0.189874,-3.89687
506.5,25.8279,-0.191925,-3.89687
507,25.8438,-0.193972,-3.89687
507.5,25.8601,-0.19542,-3.89687
508,25.8758,-0.194618,-3.89687
508.5,25.8918,-0.195365,-3.89688
509,25.9077,-0.195693,-3.89667
509.5,25.9238,-0.195045,-3.89581
510,25.9392,-0.193939,-3.89588
510.5,25.9551,-0.193803,-3.89588
511,25.971,-0.193658,-3.89588
511.5,25.9874,-0.193312,-3.89588
512,26.0037,-0.192941,-3.89588
512.5,26.0195,-0.189345,-3.89588
513,26.0356,-0.19039,-3.89588
513.5,26.0514,-0.190032,-3.89588
514,26.0674,-0.189082,-3.89588
514.5,26.0833,-0.188021,-3.89588
515,26.0996,-0.186857,-3.89588
515.5,26.1156,-0.185936,-3.89588
516,26.1313,-0.18659,-3.89588
516.5,26.1472,-0.185486,-3.89588
517,26.1634,-0.185516,-3.89588
517.5,26.1795,-0.184751,-3.89569
518,26.1954,-0.183613,-3.89447
518.5,26.2117,-0.183342,-3.89457
519,26.2276,-0.183065,-3.89457
519.5,26.2436,-0.182877,-3.89457
520,26.2596,-0.182436,-3.89457
520.5,26.2755,-0.181258,-3.89457
521,26.2919,-0.181082,-3.89457
521.5,26.3078,-0.180338,-3.89455
522,26.3237,-0.178618,-3.89507
522.5,26.3401,-0.178778,-3.89557
523,26.3559,-0.177557,-3.89555
523.5,26.372,-0.176768,-3.89555
524,26.388,-0.176017,-3.89555
524.5,26.4039,-0.172991,-3.89555
525,26.42,-0.17247,-3.89555
525.5,26.436,-0.171282,-3.89555
526,26.4522,-0.169065,-3.89555
526.5,26.4684,-0.168349,-3.89555
527,26.4843,-0.166717,-3.89555
527.5,26.5003,-0.165756,-3.89555
528,26.5161,-0.164993,-3.89555
528.5,26.5319,-0.164506,-3.89555
529,26.5482,-0.162052,-3.89573
529.5,26.5649,-0.161178,-3.89679
530,26.5808,-0.161209,-3.89557
530.5,26.5968,-0.160998,-3.89557
531,26.613,-0.160501,-3.89556
531.5,26.6291,-0.159644,-3.89556
532,26.6453,-0.160125,-3.89556
532.5,26.6613,-0.159697,-3.89556
533,26.6778,-0.159983,-3.89556
533.5,26.6935,-0.15867,-3.89557
534,26.7096,-0.158705,-3.89555
534.5,26.7254,-0.158885,-3.89665
535,26.7415,-0.159554,-3.89688
535.5,26.758,-0.160203,-3.89795
536,26.7741,-0.160721,-3.89815
536.5,26.7901,-0.159843,-3.89819
537,26.8061,-0.159528,-3.89706
537.5,26.8225,-0.159384,-3.89688
538,26.8384,-0.159354,-3.89687
538.5,26.8544,-0.160387,-3.89687
539,26.8709,-0.160415,-3.89687
539.5,26.8869,-0.160356,-3.89687
540,26.9032,-0.160741,-3.89687
540.5,26.9186,-0.161016,-3.89687
541,26.9351,-0.161158,-3.89687
541.5,26.9514,-0.161792,-3.89687
542,26.9678,-0.161637,-3.89692
542.5,26.984,-0.161148,-3.89677
543,26.9999,-0.160243,-3.89721
543.5,27.0162,-0.160623,-3.89721
544,27.0322,-0.160554,-3.89721
544.5,27.0484,-0.161222,-3.89721
545,27.065,-0.161295,-3.89721
545.5,27.0808,-0.160213,-3.89721
546,27.097,-0.160387,-3.89721
546.5,27.1132,-0.159653,-3.89721
547,27.1294,-0.159103,-3.89721
547.5,27.1457,-0.160319,-3.89721
548,27.1617,-0.160175,-3.89721
548.5,27.1779,-0.159897,-3.89703
549,27.194,-0.15961,-3.89579
549.5,27.21,-0.16005,-3.89589
550,27.2265,-0.158944,-3.89589
550.5,27.2425,-0.157718,-3.89589
551,27.2587,-0.158307,-3.89589
551.5,27.275,-0.157614,-3.89589
552,27.291,-0.156446,-3.89589
552.5,27.3074,-0.157045,-3.89589
553,27.3236,-0.157402,-3.89589
553.5,27.34,-0.15756,-3.89589
554,27.3558,-0.157145,-3.89592
554.5,27.3721,-0.156865,-3.89604
555,27.3879,-0.155604,-3.8972
555.5,27.4046,-0.154655,-3.8972
556,27.4205,-0.154934,-3.89722
556.5,27.437,-0.155962,-3.89776
557,27.4526,-0.156157,-3.89853
557.5,27.4695,-0.156227,-3.89852
558,27.4849,-0.156089,-3.89852
558.5,27.5019,-0.157397,-3.89854
559,27.5177,-0.156424,-3.89803
559.5,27.5338,-0.156304,-3.89696
560,27.55,-0.15679,-3.89653
560.5,27.5661,-0.157022,-3.8966
561,27.5826,-0.157207,-3.89584
561.5,27.5988,-0.157799,-3.8959
562,27.615,-0.158041,-3.89589
562.5,27.6312,-0.158568,-3.89589
563,27.6476,-0.158586,-3.89589
563.5,27.664,-0.160115,-3.89588
564,27.6807,-0.160405,-3.89591
564.5,27.6969,-0.161176,-3.89556
565,27.7131,-0.162912,-3.89584
565.5,27.7294,-0.164409,-3.89662
566,27.7455,-0.165078,-3.89583
566.5,27.7619,-0.166782,-3.89589
567,27.7782,-0.168332,-3.89589
567.5,27.7939,-0.169547,-3.89589
568,27.8103,-0.170586,-3.89589
568.5,27.8271,-0.172117,-3.89589
569,27.8433,-0.172487,-3.89589
569.5,27.8595,-0.174503,-3.89589
570,27.8757,-0.176161,-3.89681
570.5,27.892,-0.176283,-3.89716
571,27.9082,-0.177017,-3.89792
571.5,27.9245,-0.178775,-3.89816
572,27.9409,-0.180391,-3.89819
572.5,27.9569,-0.180508,-3.89819
573,27.9734,-0.181744,-3.89819
573.5,27.9898,-0.18297,-3.89819
574,28.0055,-0.184833,-3.89819
574.5,28.0217,-0.184425,-3.89819
575,28.0381,-0.185616,-3.89819
575.5,28.0545,-0.186577,-3.89818
576,28.071,-0.187846,-3.89819
576.5,28.0867,-0.188283,-3.89748
577,28.1033,-0.187827,-3.89752
577.5,28.1188,-0.188352,-3.89754
578,28.1358,-0.189,-3.89699
578.5,28.1521,-0.190931,-3.89688
579,28.1683,-0.192014,-3.89687
579.5,28.1848,-0.192533,-3.89689
580,28.2012,-0.192295,-3.89695
580.5,28.2173,-0.194577,-3.89816
581,28.2336,-0.1943,-3.89812
581.5,28.2501,-0.195238,-3.89916
582,28.2665,-0.195869,-3.89916
582.5,28.2828,-0.197766,-3.89918
583,28.2988,-0.19858,-3.89917
583.5,28.3153,-0.199071,-3.8989
584,28.3315,-0.199107,-3.89783
584.5,28.348,-0.199877,-3.89787
585,28.3642,-0.201038,-3.89786
585.5,28.3808,-0.201504,-3.89786
586,28.3973,-0.202105,-3.89786
586.5,28.4136,-0.203182,-3.89786
587,28.43,-0.20383,-3.89786
587.5,28.4462,-0.203946,-3.89788
588,28.4624,-0.204915,-3.89798
588.5,28.4789,-0.206777,-3.89884
589,28.4953,-0.207447,-3.89885
589.5,28.5117,-0.209574,-3.89885
590,28.5279,-0.209779,-3.89885
590.5,28.5443,-0.210371,-3.89885
591,28.5605,-0.210563,-3.89885
591.5,28.5768,-0.21154,-3.89886
592,28.5933,-0.211832,-3.89819
592.5,28.6098,-0.21205,-3.89752
593,28.6261,-0.212705,-3.89753
593.5,28.6423,-0.214339,-3.89754
594,28.6588,-0.215722,-3.89748
594.5,28.6749,-0.216526,-3.89879
595,28.6913,-0.21665,-3.89885
595.5,28.7076,-0.217197,-3.89886
596,28.7239,-0.21909,-3.89897
596.5,28.7406,-0.219331,-3.89918
597,28.7563,-0.219831,-3.89918
597.5,28.7732,-0.220959,-3.89918
598,28.7895,-0.223464,-3.89918
598.5,28.8059,-0.224825,-3.89918
599,28.8223,-0.223747,-3.89918
599.5,28.8389,-0.224965,-3.89919
600,28.8551,-0.225811,-3.89864
600.5,28.8713,-0.226945,-3.89853
601,28.8879,-0.227713,-3.89852
601.5,28.9039,-0.228397,-3.8984
602,28.9206,-0.229087,-3.89784
602.5,28.9368,-0.229192,-3.89786
603,28.9532,-0.22967,-3.89786
603.5,28.9699,-0.230599,-3.89786
604,28.9862,-0.232667,-3.89786
604.5,29.0024,-0.233349,-3.89786
605,29.0189,-0.233671,-3.89811
605.5,29.0352,-0.235106,-3.89927
606,29.052,-0.235871,-3.89919
606.5,29.0684,-0.235901,-3.89918
607,29.0844,-0.237001,-3.89918
607.5,29.1009,-0.238111,-3.89867
608,29.1173,-0.238777,-3.89783
608.5,29.1337,-0.239614,-3.89785
609,29.15,-0.241125,-3.89786
609.5,29.1663,-0.243008,-3.89786
610,29.1832,-0.2433,-3.89786
610.5,29.1991,-0.243342,-3.89786
611,29.215,-0.244932,-3.89786
611.5,29.2314,-0.245615,-3.89786
612,29.2481,-0.247517,-3.89786
612.5,29.2649,-0.247639,-3.89786
613,29.2813,-0.247221,-3.89786
613.5,29.2977,-0.247877,-3.89786
614,29.314,-0.249992,-3.89791
614.5,29.3305,-0.25162,-3.898
615,29.347,-0.251588,-3.90047
615.5,29.3634,-0.252129,-3.9005
616,29.3799,-0.253929,-3.9005
616.5,29.3964,-0.254208,-3.9005
617,29.4127,-0.254405,-3.9005
617.5,29.4292,-0.254833,-3.9005
618,29.4457,-0.255722,-3.90056
618.5,29.4622,-0.257069,-3.89965
619,29.4785,-0.258716,-3.89951
619.5,29.4943,-0.258956,-3.89951
620,29.511,-0.25986,-3.89952
620.5,29.5278,-0.260171,-3.90066
621,29.5443,-0.2613,-3.9008
621.5,29.5602,-0.261208,-3.90082
622,29.577,-0.262053,-3.90082
622.5,29.5936,-0.263423,-3.90082
623,29.6099,-0.263107,-3.90082
623.5,29.6264,-0.264314,-3.90082
624,29.6426,-0.264759,-3.90084
624.5,29.6592,-0.265427,-3.90095
625,29.6756,-0.265549,-3.90213
625.5,29.6921,-0.265745,-3.90214
626,29.7086,-0.266684,-3.90214
626.5,29.725,-0.266696,-3.9021
627,29.7415,-0.2669,-3.90214
627.5,29.7579,-0.267645,-3.90217
628,29.7743,-0.269435,-3.90214
628.5,29.791,-0.269021,-3.90214
629,29.8071,-0.269154,-3.90214
629.5,29.8238,-0.269104,-3.90214
630,29.84,-0.269799,-3.90214
630.5,29.8566,-0.270153,-3.90214
631,29.8732,-0.270398,-3.90214
631.5,29.8893,-0.27058,-3.90214
632,29.9059,-0.270937,-3.90214
632.5,29.9221,-0.27195,-3.90214
633,29.9384,-0.272077,-3.90214
633.5,29.9548,-0.272271,-3.90214
634,29.9718,-0.27273,-3.90214
634.5,29.9883,-0.273195,-3.90214
635,30.0047,-0.273664,-3.90214
635.5,30.0212,-0.273621,-3.90214
636,30.0374,-0.27388,-3.90213
636.5,30.0544,-0.27319,-3.90096
637,30.0706,-0.272654,-3.90085
637.5,30.0872,-0.273208,-3.90082
638,30.1033,-0.273835,-3.90082
638.5,30.1197,-0.274385,-3.90082
639,30.1362,-0.275205,-3.90082
639.5,30.153,-0.275229,-3.90082
640,30.1694,-0.274452,-3.90082
640.5,30.1853,-0.27476,-3.90082
641,30.2025,-0.274906,-3.90082
641.5,30.2186,-0.275142,-3.90082
642,30.2354,-0.275138,-3.90084
642.5,30.2517,-0.275372,-3.90094
643,30.268,-0.276091,-3.90212
643.5,30.2844,-0.277708,-3.90214
644,30.3014,-0.27755,-3.90214
644.5,30.3179,-0.276691,-3.90214
645,30.3343,-0.276646,-3.90214
645.5,30.3511,-0.277064,-3.90214
646,30.3669,-0.276619,-3.90214
646.5,30.3842,-0.27729,-3.90214
647,30.4006,-0.278011,-3.90214
647.5,30.4171,-0.277813,-3.90229
648,30.4333,-0.278823,-3.90355
648.5,30.45,-0.279169,-3.90346
649,30.4665,-0.278905,-3.90346
649.5,30.4829,-0.279246,-3.90346
650,30.4993,-0.278786,-3.90346
650.5,30.5162,-0.27847,-3.90346
651,30.5325,-0.279513,-3.90346
651.5,30.5493,-0.27896,-3.90346
652,30.5654,-0.279691,-3.90346
652.5,30.582,-0.280148,-3.90346
653,30.5987,-0.279793,-3.90346
653.5,30.6151,-0.279568,-3.90346
654,30.6316,-0.280295,-3.90347
654.5,30.6481,-0.279532,-3.90463
655,30.6645,-0.28022,-3.90474
655.5,30.6812,-0.280442,-3.90477
656,30.6973,-0.280348,-3.90481
656.5,30.7137,-0.280533,-3.90417
657,30.7309,-0.280867,-3.90413
657.5,30.7472,-0.280678,-3.90408
658,30.7638,-0.281316,-3.90348
658.5,30.7799,-0.282236,-3.90347
659,30.7968,-0.282391,-3.90346
659.5,30.8135,-0.28257,-3.90346
660,30.83,-0.282227,-3.90346
660.5,30.8462,-0.28174,-3.90346
661,30.8633,-0.283422,-3.90346
661.5,30.8798,-0.28375,-3.90346
662,30.8961,-0.284788,-3.90346
662.5,30.9123,-0.285691,-3.90346
663,30.9292,-0.286069,-3.90346
663.5,30.9456,-0.285921,-3.90346
664,30.9624,-0.286019,-3.90346
664.5,30.9789,-0.286199,-3.90346
665,30.9955,-0.286872,-3.90346
665.5,31.0116,-0.286757,-3.90346
666,31.0283,-0.287096,-3.90346
666.5,31.0449,-0.28728,-3.90348
667,31.0612,-0.287398,-3.90354
667.5,31.0777,-0.286802,-3.90476
668,31.0944,-0.286474,-3.90478
668.5,31.111,-0.288364,-3.90478
669,31.1277,-0.288294,-3.90478
669.5,31.1443,-0.288827,-3.90478
670,31.1608,-0.288713,-3.90478
670.5,31.1774,-0.289193,-3.90478
671,31.1938,-0.290017,-3.90478
671.5,31.2101,-0.289879,-3.90478
672,31.227,-0.290317,-3.90478
672.5,31.2438,-0.291285,-3.90478
673,31.2598,-0.291602,-3.90478
673.5,31.2768,-0.291793,-3.90478
674,31.293,-0.292493,-3.90478
674.5,31.3096,-0.292176,-3.90478
675,31.3262,-0.291187,-3.90478
675.5,31.343,-0.292572,-3.90478
676,31.3597,-0.293115,-3.90478
676.5,31.3758,-0.293456,-3.90477
677,31.3924,-0.294417,-3.9042
677.5,31.4087,-0.294993,-3.90381
678,31.4254,-0.295784,-3.90469
678.5,31.4421,-0.29543,-3.90509
679,31.4584,-0.295872,-3.90511
679.5,31.4751,-0.296172,-3.90511
680,31.4919,-0.297648,-3.90511
680.5,31.508,-0.298185,-3.90511
681,31.5244,-0.298358,-3.90514
681.5,31.5408,-0.298119,-3.90474
682,31.558,-0.2982,-3.90478
682.5,31.5746,-0.298717,-3.90478
683,31.5913,-0.298938,-3.90478
683.5,31.6076,-0.300359,-3.90478
684,31.6243,-0.302563,-3.90478
684.5,31.6407,-0.301304,-3.90478
685,31.6573,-0.301322,-3.90478
685.5,31.6741,-0.302018,-3.90478
686,31.6907,-0.301748,-3.90478
686.5,31.7072,-0.302643,-3.90478
687,31.7237,-0.303834,-3.90478
687.5,31.7401,-0.305185,-3.90478
688,31.7566,-0.305157,-3.90478
688.5,31.7733,-0.30554,-3.90478
689,31.7899,-0.306314,-3.90478
689.5,31.8063,-0.307248,-3.90515
690,31.8229,-0.308463,-3.90542
690.5,31.8393,-0.308795,-3.90512
691,31.8561,-0.309128,-3.90511
691.5,31.8726,-0.311381,-3.90511
692,31.8893,-0.31093,-3.90511
692.5,31.9058,-0.310217,-3.90511
693,31.9221,-0.310486,-3.90514
693.5,31.939,-0.311045,-3.90476
694,31.9557,-0.31204,-3.90479
694.5,31.9721,-0.31205,-3.90478
695,31.9885,-0.312473,-3.90478