File: 01_Data/Nylon_SCBA_Nosecup/STA/N2/30K_min/Nylon_SCBA_Nosecup_STA_N2_30KData_240304_R1.csv
Temp./C,Time/min,DSC/(mW/mg),Mass loss/mg
60.0,0.0,2.13416,-0.00680305
60.5,0.0267601,2.20772,-0.00695043
61,0.0522217,2.28375,-0.00656356
61.5,0.0767842,2.3439,-0.00550449
62,0.101708,2.40397,-0.00602418
62.5,0.125063,2.45606,-0.0064647
63,0.14867,2.51874,-0.00644489
63.5,0.171927,2.57227,-0.00686844
64,0.195092,2.63353,-0.00802557
64.5,0.217599,2.6841,-0.00900668
65,0.240066,2.74211,-0.0101048
65.5,0.261216,2.77856,-0.0104378
66,0.283329,2.84354,-0.010196
66.5,0.30502,2.89688,-0.00961093
67,0.326104,2.94482,-0.0086305
67.5,0.34724,2.99101,-0.008658
68,0.36806,3.03968,-0.00842195
68.5,0.389056,3.07908,-0.00816324
69,0.409076,3.13829,-0.00712631
69.5,0.429272,3.18013,-0.00691376
70,0.44935,3.219,-0.00721577
70.5,0.469308,3.25989,-0.00742761
71,0.489038,3.30415,-0.0070929
71.5,0.50939,3.33967,-0.00697772
72,0.52848,3.37389,-0.00757355
72.5,0.548186,3.40855,-0.0078495
73,0.567297,3.44829,-0.00835192
73.5,0.586743,3.48496,-0.00802253
74,0.605663,3.52071,-0.00773445
74.5,0.625376,3.55302,-0.00766524
75,0.644176,3.58194,-0.00780096
75.5,0.663068,3.61316,-0.00831396
76,0.681544,3.64221,-0.00881274
76.5,0.700001,3.6601,-0.00981901
77,0.718752,3.70378,-0.00996883
77.5,0.737342,3.7288,-0.0100971
78,0.756282,3.75574,-0.00992929
78.5,0.774272,3.78452,-0.00987979
79,0.792407,3.81008,-0.00954348
79.5,0.810306,3.82847,-0.00946973
80,0.828684,3.8543,-0.00781079
80.5,0.846848,3.8711,-0.00682681
81,0.864883,3.89463,-0.00731311
81.5,0.882904,3.89896,-0.0072788
82,0.900812,3.90854,-0.00755145
82.5,0.918738,3.92353,-0.00770153
83,0.936241,3.92745,-0.00684851
83.5,0.95431,3.94766,-0.0078208
84,0.971727,3.9545,-0.00811153
84.5,0.989285,3.95781,-0.00899228
85,1.00717,3.97006,-0.00817339
85.5,1.02413,3.97297,-0.00829917
86,1.04158,3.97832,-0.0089028
86.5,1.05919,3.98806,-0.0089769
87,1.07667,3.98644,-0.00906731
87.5,1.09368,3.99398,-0.0096173
88,1.11123,3.98691,-0.00981058
88.5,1.12817,3.99904,-0.00964326
89,1.14597,3.99929,-0.00842659
89.5,1.16331,4.00764,-0.00929381
90,1.17989,4.02363,-0.00829936
90.5,1.19758,4.03294,-0.00788891
91,1.21401,4.03862,-0.00697447
91.5,1.23148,4.05271,-0.00640845
92,1.24838,4.05374,-0.00673846
92.5,1.26546,4.07297,-0.00629638
93,1.28225,4.08875,-0.00636988
93.5,1.29891,4.09899,-0.00747464
94,1.31623,4.09881,-0.0072871
94.5,1.33229,4.10962,-0.00636724
95,1.34967,4.12551,-0.00759671
95.5,1.36641,4.13981,-0.0076774
96,1.38334,4.14496,-0.00772992
96.5,1.40081,4.16151,-0.00889561
97,1.41769,4.17397,-0.00773253
97.5,1.43485,4.18668,-0.00769503
98,1.45113,4.18878,-0.00764004
98.5,1.4681,4.20186,-0.00881443
99,1.48499,4.21441,-0.00773302
99.5,1.50142,4.22779,-0.00768899
100,1.51849,4.23627,-0.0075872
100.5,1.53499,4.24931,-0.00881721
101,1.55205,4.26895,-0.00889594
101.5,1.56886,4.28064,-0.00765208
102,1.58539,4.2954,-0.00856293
102.5,1.60198,4.30879,-0.00900423
103,1.6185,4.31413,-0.00902154
103.5,1.63561,4.32473,-0.00843871
104,1.6518,4.34334,-0.00903105
104.5,1.66851,4.35428,-0.00900628
105,1.6855,4.36734,-0.00900486
105.5,1.7017,4.38599,-0.0090168
106,1.71861,4.3974,-0.00932097
106.5,1.7356,4.41097,-0.0089487
107,1.75177,4.42339,-0.00899823
107.5,1.76826,4.43173,-0.00900071
108,1.7852,4.44569,-0.00900042
108.5,1.80162,4.46088,-0.00899745
109,1.81833,4.47333,-0.00894747
109.5,1.83492,4.48446,-0.00980413
110,1.85143,4.49707,-0.0103427
110.5,1.86826,4.51515,-0.0103111
111,1.88472,4.52348,-0.0098282
111.5,1.90129,4.53449,-0.00900148
112,1.91747,4.54772,-0.00900804
112.5,1.93423,4.56292,-0.00899757
113,1.95074,4.57256,-0.00943614
113.5,1.96714,4.57984,-0.0103773
114,1.98381,4.58655,-0.0103205
114.5,2.00028,4.60843,-0.0103193
115,2.01677,4.60783,-0.0103202
115.5,2.03367,4.62699,-0.0103233
116,2.05013,4.63745,-0.0103275
116.5,2.0668,4.65098,-0.0098701
117,2.08343,4.6633,-0.00894713
117.5,2.09971,4.67191,-0.00899926
118,2.11581,4.67654,-0.00900047
118.5,2.13246,4.68601,-0.00900139
119,2.14897,4.6989,-0.00907218
119.5,2.16556,4.70399,-0.010379
120,2.18203,4.71401,-0.0103092
120.5,2.19826,4.72139,-0.0103181
121,2.21469,4.72966,-0.0103198
121.5,2.23152,4.74199,-0.010319
122,2.24754,4.75014,-0.0103229
122.5,2.26437,4.7625,-0.0107158
123,2.28063,4.76495,-0.01063
123.5,2.29705,4.77564,-0.0103245
124,2.31323,4.79046,-0.0103193
124.5,2.32998,4.79744,-0.0103199
125,2.3461,4.80894,-0.0103189
125.5,2.36201,4.82096,-0.0103118
126,2.37839,4.83035,-0.0103448
126.5,2.39506,4.84118,-0.00921888
127,2.41125,4.85115,-0.00901034
127.5,2.42783,4.86251,-0.00899886
128,2.44395,4.87653,-0.00899974
128.5,2.4603,4.89313,-0.00899971
129,2.47633,4.88999,-0.00899848
129.5,2.49294,4.90637,-0.00901136
130,2.50879,4.90513,-0.00920293
130.5,2.52544,4.91562,-0.0103421
131,2.54176,4.92994,-0.0103106
131.5,2.5579,4.94086,-0.010319
132,2.57357,4.95139,-0.01032
132.5,2.59023,4.96231,-0.010319
133,2.60619,4.97243,-0.0103154
133.5,2.62258,4.98242,-0.0103609
134,2.63857,4.98673,-0.00932169
134.5,2.65486,5.00054,-0.009
135,2.67095,5.00807,-0.00899719
135.5,2.6872,5.02592,-0.00899976
136,2.70331,5.03548,-0.00900001
136.5,2.71908,5.03539,-0.00899954
137,2.73565,5.05113,-0.00899829
137.5,2.75166,5.05894,-0.00902146
138,2.76783,5.07451,-0.00924374
138.5,2.78409,5.0891,-0.00929627
139,2.79981,5.09719,-0.00901112
139.5,2.81521,5.11196,-0.00900649
140,2.83162,5.12554,-0.00900734
140.5,2.84809,5.12404,-0.00956364
141,2.86405,5.13252,-0.0103458
141.5,2.87997,5.13987,-0.0103276
142,2.89642,5.15705,-0.0102712
142.5,2.91233,5.1653,-0.0112243
143,2.92844,5.17562,-0.011638
143.5,2.94423,5.18443,-0.0116331
144,2.95999,5.19944,-0.0116299
144.5,2.97628,5.20854,-0.0116366
145,2.99223,5.21969,-0.0110244
145.5,3.00749,5.22143,-0.0102833
146,3.02412,5.23414,-0.0103149
146.5,3.04001,5.24913,-0.010322
147,3.05517,5.26272,-0.0102412
147.5,3.07107,5.26804,-0.0110316
148,3.08689,5.28052,-0.0109703
148.5,3.10269,5.29181,-0.0109786
149,3.11893,5.29727,-0.01098
149.5,3.13455,5.3054,-0.01098
150,3.1512,5.32143,-0.0109791
150.5,3.16712,5.33079,-0.0109783
151,3.18291,5.34783,-0.0110265
151.5,3.19891,5.36017,-0.0101095
152,3.21456,5.37393,-0.00965295
152.5,3.23057,5.37303,-0.00962379
153,3.24554,5.39001,-0.0103331
153.5,3.26222,5.40429,-0.0110241
154,3.27789,5.41648,-0.0109829
154.5,3.29385,5.42445,-0.0109795
155,3.30954,5.42746,-0.0109799
155.5,3.32515,5.44257,-0.01098
156,3.34151,5.45887,-0.01098
156.5,3.357,5.47372,-0.01098
157,3.37274,5.47285,-0.01098
157.5,3.38839,5.48613,-0.01098
158,3.40421,5.49849,-0.01098
158.5,3.4202,5.50795,-0.0109798
159,3.4359,5.52139,-0.0109805
159.5,3.45146,5.53611,-0.0109915
160,3.46764,5.54757,-0.0109954
160.5,3.48305,5.56054,-0.0121237
161,3.49898,5.5623,-0.0122885
161.5,3.51465,5.57441,-0.0123019
162,3.53052,5.58916,-0.0123003
162.5,3.54627,5.59902,-0.0123
163,3.56185,5.61301,-0.0123
163.5,3.57677,5.62769,-0.0123
164,3.59331,5.63151,-0.0123
164.5,3.60915,5.65433,-0.0123
165,3.62497,5.66188,-0.0123001
165.5,3.64044,5.6762,-0.0123012
166,3.65621,5.68594,-0.0122959
166.5,3.67197,5.69687,-0.0122207
167,3.68805,5.71512,-0.0132873
167.5,3.70261,5.72315,-0.0136265
168,3.71901,5.73732,-0.0136202
168.5,3.73471,5.74776,-0.0136147
169,3.75033,5.75332,-0.0136078
169.5,3.76622,5.76441,-0.0140794
170,3.78176,5.78057,-0.0142532
170.5,3.79727,5.79429,-0.0142722
171,3.81303,5.80731,-0.0142704
171.5,3.8284,5.81926,-0.01427
172,3.84418,5.8336,-0.01427
172.5,3.85976,5.84145,-0.01427
173,3.87535,5.85382,-0.01427
173.5,3.8911,5.87054,-0.01427
174,3.90679,5.8876,-0.0142701
174.5,3.92241,5.90641,-0.0142706
175,3.93792,5.91087,-0.0142676
175.5,3.95376,5.93583,-0.0142272
176,3.9693,5.94854,-0.0149222
176.5,3.98494,5.95357,-0.0156348
177,4.00061,5.96815,-0.0155922
177.5,4.01608,5.98634,-0.0155893
178,4.03185,5.99927,-0.0155899
178.5,4.04714,6.02233,-0.01559
179,4.06282,6.03983,-0.01559
179.5,4.07822,6.05661,-0.01559
180,4.09379,6.0682,-0.0155904
180.5,4.10957,6.07537,-0.0155902
181,4.12474,6.09521,-0.0155661
181.5,4.14052,6.10975,-0.0155142
182,4.15599,6.13743,-0.0143027
182.5,4.17139,6.15725,-0.0142683
183,4.1869,6.17335,-0.0142956
183.5,4.20238,6.18348,-0.0145301
184,4.21805,6.20968,-0.0153013
184.5,4.23335,6.22593,-0.0152692
185,4.24896,6.24518,-0.0152577
185.5,4.2644,6.26222,-0.016125
186,4.28016,6.28478,-0.0165696
186.5,4.29533,6.30273,-0.0165854
187,4.31056,6.32818,-0.0165803
187.5,4.32639,6.35816,-0.01658
188,4.34164,6.38165,-0.0165803
188.5,4.35716,6.40286,-0.0165767
189,4.37251,6.43131,-0.0165575
189.5,4.38847,6.45698,-0.0154729
190,4.40357,6.49368,-0.0156633
190.5,4.41924,6.5254,-0.0165762
191,4.43442,6.55693,-0.0165688
191.5,4.44978,6.59499,-0.0166049
192,4.46511,6.63812,-0.015599
192.5,4.48083,6.66139,-0.0152549
193,4.49607,6.70319,-0.015256
193.5,4.51183,6.74868,-0.01526
194,4.52634,6.79353,-0.0152607
194.5,4.54192,6.8414,-0.0152645
195,4.55763,6.89078,-0.0152353
195.5,4.57273,6.94161,-0.0156217
196,4.5892,7.00532,-0.0155831
196.5,4.60441,7.05461,-0.0155568
197,4.61981,7.12128,-0.0163057
197.5,4.63587,7.19672,-0.0169171
198,4.6511,7.27311,-0.016909
198.5,4.6669,7.36243,-0.0169095
199,4.68227,7.4528,-0.0169115
199.5,4.69798,7.55803,-0.0169478
200,4.71404,7.6704,-0.0181096
200.5,4.72936,7.78515,-0.0182048
201,4.74541,7.91505,-0.0182306
201.5,4.76135,8.04995,-0.0182303
202,4.77689,8.18325,-0.01823
202.5,4.79252,8.32787,-0.0182367
203,4.80842,8.48118,-0.0182339
203.5,4.82391,8.64068,-0.0176781
204,4.83992,8.80174,-0.0169069
204.5,4.85579,8.96578,-0.0169112
205,4.87196,9.1349,-0.0169094
205.5,4.88799,9.29422,-0.0169169
206,4.9036,9.46928,-0.0169497
206.5,4.91968,9.64303,-0.0162013
207,4.93588,9.81673,-0.015586
207.5,4.95162,9.98889,-0.0155904
208,4.96728,10.1588,-0.0155911
208.5,4.98306,10.3178,-0.015602
209,4.99892,10.4799,-0.0155739
209.5,5.0148,10.6265,-0.0164947
210,5.03059,10.7629,-0.0165773
210.5,5.04669,10.8841,-0.0165813
211,5.06198,10.9739,-0.0166023
211.5,5.0773,11.013,-0.0165513
212,5.09246,10.9989,-0.0178269
212.5,5.10739,10.9031,-0.0179004
213,5.12244,10.7117,-0.0179004
213.5,5.13647,10.4618,-0.0179
214,5.15042,10.1611,-0.0179
214.5,5.1647,9.83829,-0.0179
215,5.17904,9.52773,-0.0179
215.5,5.19345,9.24275,-0.0179
216,5.20744,8.99352,-0.0179
216.5,5.22185,8.75819,-0.0178999
217,5.23625,8.54552,-0.0179005
217.5,5.2511,8.34606,-0.0179024
218,5.26528,8.17653,-0.0178739
218.5,5.27994,8.00917,-0.0182531
219,5.29459,7.87288,-0.0185828
219.5,5.30909,7.74248,-0.0185597
220,5.32406,7.62088,-0.0185594
220.5,5.33915,7.50471,-0.01856
221,5.35392,7.40961,-0.0185659
221.5,5.36839,7.32613,-0.0185492
222,5.38326,7.24761,-0.0190249
222.5,5.39814,7.17167,-0.0190545
223,5.41245,7.10285,-0.0179365
223.5,5.42763,7.04351,-0.0179021
224,5.44276,6.98808,-0.0178546
224.5,5.458,6.94375,-0.018433
225,5.47235,6.90387,-0.0192521
225.5,5.48757,6.85485,-0.0200104
226,5.50255,6.81862,-0.0205352
226.5,5.51776,6.78116,-0.0205375
227,5.53253,6.75964,-0.0205334
227.5,5.54752,6.73563,-0.0203366
228,5.56243,6.72234,-0.01912
228.5,5.57757,6.69491,-0.0192191
229,5.59263,6.66597,-0.0192118
229.5,5.60755,6.64466,-0.0192098
230,5.62279,6.63322,-0.01921
230.5,5.63787,6.62007,-0.0192104
231,5.65284,6.60345,-0.0192106
231.5,5.66796,6.6095,-0.0191137
232,5.68275,6.59065,-0.0178529
232.5,5.69795,6.58315,-0.0178436
233,5.71311,6.57397,-0.0191086
233.5,5.7284,6.57322,-0.0192107
234,5.74276,6.56356,-0.0192103
234.5,5.75825,6.55608,-0.01921
235,5.77322,6.55608,-0.01921
235.5,5.78826,6.54557,-0.0192099
236,5.80345,6.5435,-0.019209
236.5,5.81842,6.53875,-0.0192149
237,5.83346,6.53752,-0.019277
237.5,5.84835,6.53997,-0.0200219
238,5.86364,6.5372,-0.0191385
238.5,5.8787,6.52899,-0.0192173
239,5.8939,6.52521,-0.0192095
239.5,5.90884,6.52917,-0.0192124
240,5.92394,6.53643,-0.0183957
240.5,5.93942,6.52875,-0.0178905
241,5.95403,6.53257,-0.0178836
241.5,5.96915,6.53799,-0.0178896
242,5.9845,6.53846,-0.0178942
242.5,5.99963,6.53597,-0.0181257
243,6.01444,6.53367,-0.020369
243.5,6.0296,6.53222,-0.0205213
244,6.04478,6.53546,-0.0205315
244.5,6.05972,6.54068,-0.0205301
245,6.07503,6.53821,-0.0205295
245.5,6.08983,6.54385,-0.0205309
246,6.1049,6.54919,-0.0205817
246.5,6.12038,6.54743,-0.0218128
247,6.13525,6.5541,-0.0218238
247.5,6.14999,6.55666,-0.0218502
248,6.16457,6.55442,-0.0218366
248.5,6.18011,6.55656,-0.0218575
249,6.19553,6.55826,-0.020799
249.5,6.21075,6.56144,-0.0205302
250,6.22561,6.55774,-0.0205268
250.5,6.24038,6.5599,-0.02053
251,6.2556,6.56237,-0.0205301
251.5,6.27075,6.56132,-0.02053
252,6.28573,6.56278,-0.0205301
252.5,6.3009,6.5626,-0.0205304
253,6.316,6.56593,-0.0205257
253.5,6.3309,6.56687,-0.0205115
254,6.34575,6.56853,-0.0209437
254.5,6.36148,6.5689,-0.0215902
255,6.37619,6.57035,-0.0218691
255.5,6.39145,6.56835,-0.0218518
256,6.40651,6.57145,-0.0218497
256.5,6.42132,6.57466,-0.02185
257,6.43662,6.57508,-0.02185
257.5,6.45147,6.58294,-0.02185
258,6.46644,6.57637,-0.02185
258.5,6.48166,6.57201,-0.02185
259,6.49668,6.56966,-0.02185
259.5,6.51196,6.56788,-0.0218502
260,6.52676,6.56772,-0.0218481
260.5,6.54198,6.58129,-0.021841
261,6.55697,6.5766,-0.0219526
261.5,6.57163,6.57704,-0.0207127
262,6.58737,6.5725,-0.0205267
262.5,6.60197,6.5684,-0.0205297
263,6.61698,6.57047,-0.0205301
263.5,6.63225,6.57225,-0.02053
264,6.647,6.56946,-0.02053
264.5,6.66211,6.57538,-0.02053
265,6.67717,6.5745,-0.02053
265.5,6.69227,6.57104,-0.02053
266,6.70751,6.57076,-0.02053
266.5,6.72252,6.57096,-0.02053
267,6.73755,6.57206,-0.02053
267.5,6.75266,6.57202,-0.02053
268,6.76751,6.57137,-0.02053
268.5,6.78282,6.56742,-0.0205301
269,6.79748,6.56663,-0.0205294
269.5,6.81289,6.56029,-0.0205212
270,6.8278,6.55679,-0.0205603
270.5,6.84294,6.55699,-0.0202576
271,6.85797,6.55963,-0.0205456
271.5,6.87306,6.56124,-0.0205314
272,6.88801,6.56287,-0.0205351
272.5,6.90326,6.55787,-0.0197733
273,6.91804,6.54798,-0.0191908
273.5,6.93318,6.55194,-0.0192034
274,6.94831,6.55444,-0.0192103
274.5,6.96324,6.54941,-0.0192101
275,6.97847,6.54749,-0.01921
275.5,6.99351,6.54969,-0.0192096
276,7.00863,6.54686,-0.0192103
276.5,7.02379,6.54704,-0.0192336
277,7.03882,6.54757,-0.019194
277.5,7.05373,6.5462,-0.020416
278,7.06875,6.54159,-0.0211354
278.5,7.08357,6.54346,-0.0218943
279,7.09909,6.53841,-0.0218494
279.5,7.11383,6.5399,-0.021849
280,7.12839,6.54675,-0.02185
280.5,7.14448,6.53912,-0.02185
281,7.15913,6.54147,-0.02185
281.5,7.17457,6.5449,-0.02185
282,7.18927,6.5382,-0.02185
282.5,7.20473,6.5361,-0.02185
283,7.21945,6.53236,-0.02185
283.5,7.23472,6.53497,-0.02185
284,7.24984,6.52396,-0.02185
284.5,7.26498,6.53552,-0.02185
285,7.27965,6.53412,-0.02185
285.5,7.29433,6.52607,-0.02185
286,7.31036,6.52077,-0.02185
286.5,7.32499,6.51889,-0.02185
287,7.34039,6.51484,-0.02185
287.5,7.35528,6.52049,-0.02185
288,7.37014,6.52085,-0.02185
288.5,7.38542,6.52049,-0.02185
289,7.40058,6.52106,-0.02185
289.5,7.41554,6.51921,-0.02185
290,7.43086,6.51465,-0.02185
290.5,7.44584,6.51829,-0.02185
291,7.46106,6.51786,-0.02185
291.5,7.47578,6.51306,-0.02185
292,7.49129,6.51063,-0.02185
292.5,7.50635,6.51454,-0.02185
293,7.52149,6.51291,-0.02185
293.5,7.53645,6.50751,-0.02185
294,7.5516,6.50822,-0.02185
294.5,7.56654,6.50601,-0.02185
295,7.58152,6.50872,-0.0218501
295.5,7.59697,6.51184,-0.021849
296,7.61166,6.51414,-0.021842
296.5,7.62673,6.50931,-0.0220391
297,7.64196,6.50954,-0.0229013
297.5,7.65655,6.5079,-0.0228308
298,7.67222,6.50703,-0.0228388
298.5,7.68743,6.50585,-0.0228401
299,7.70238,6.50095,-0.02284
299.5,7.71788,6.49836,-0.02284
300,7.73264,6.50294,-0.02284
300.5,7.74793,6.5025,-0.02284
301,7.76283,6.4953,-0.02284
301.5,7.77809,6.49706,-0.02284
302,7.79319,6.49582,-0.0228405
302.5,7.80855,6.49527,-0.0228389
303,7.82361,6.49914,-0.0228114
303.5,7.83856,6.49436,-0.0231503
304,7.85364,6.48655,-0.023161
304.5,7.86876,6.48346,-0.0231703
305,7.884,6.48512,-0.0231702
305.5,7.89906,6.48209,-0.0231699
306,7.91408,6.48845,-0.0231706
306.5,7.92957,6.48595,-0.0231747
307,7.9445,6.47947,-0.023143
307.5,7.9596,6.47419,-0.0228628
308,7.97474,6.47826,-0.0226569
308.5,7.98981,6.47733,-0.0234941
309,8.00494,6.48159,-0.0234989
309.5,8.02016,6.4731,-0.0235001
310,8.03534,6.47429,-0.0235
310.5,8.05048,6.47559,-0.0235
311,8.06547,6.47529,-0.0235
311.5,8.08058,6.47374,-0.0235
312,8.09574,6.47661,-0.0235
312.5,8.11087,6.47639,-0.0235
313,8.1263,6.47517,-0.0235
313.5,8.14136,6.47613,-0.0235
314,8.15611,6.4749,-0.0235
314.5,8.17147,6.47375,-0.0235
315,8.18663,6.47381,-0.0235
315.5,8.20165,6.47407,-0.0235
316,8.21715,6.47263,-0.0235
316.5,8.23181,6.47396,-0.0235
317,8.24718,6.47263,-0.0234997
317.5,8.2622,6.4683,-0.023497
318,8.27717,6.46612,-0.0236686
318.5,8.29263,6.46668,-0.0249113
319,8.30763,6.46252,-0.0248009
319.5,8.32289,6.46305,-0.0248091
320,8.33812,6.46539,-0.024807
320.5,8.3534,6.46309,-0.0247525
321,8.36856,6.46503,-0.0254307
321.5,8.3836,6.4659,-0.02545
322,8.39871,6.46068,-0.0254706
322.5,8.41392,6.45999,-0.0254704
323,8.42913,6.46512,-0.02547
323.5,8.44368,6.46515,-0.02547
324,8.4588,6.4661,-0.02547
324.5,8.47405,6.45978,-0.02547
325,8.48961,6.46518,-0.0254724
325.5,8.50532,6.4669,-0.0254707
326,8.51995,6.4663,-0.0252985
326.5,8.53548,6.45957,-0.0251427
327,8.55031,6.45855,-0.0251385
327.5,8.56509,6.46195,-0.0251412
328,8.58049,6.46134,-0.0250314
328.5,8.5961,6.46117,-0.0237681
329,8.61122,6.46053,-0.0238375
329.5,8.62665,6.46512,-0.0238166
330,8.64184,6.4623,-0.0237843
330.5,8.65706,6.46162,-0.0243482
331,8.67242,6.46162,-0.0246065
331.5,8.68733,6.45993,-0.025897
332,8.70253,6.46603,-0.0257588
332.5,8.7177,6.46278,-0.0263182
333,8.73307,6.46389,-0.0271736
333.5,8.74842,6.46626,-0.0271175
334,8.7633,6.46688,-0.027119
334.5,8.77887,6.46063,-0.02712
335,8.79414,6.45996,-0.02712
335.5,8.80899,6.46673,-0.02712
336,8.8245,6.46737,-0.02712
336.5,8.83945,6.4712,-0.02712
337,8.85496,6.47173,-0.02712
337.5,8.87009,6.47129,-0.02712
338,8.88508,6.47099,-0.02712
338.5,8.90058,6.4764,-0.02712
339,8.91583,6.4784,-0.02712
339.5,8.93109,6.48016,-0.02712
340,8.9462,6.47569,-0.02712
340.5,8.96152,6.47784,-0.0271196
341,8.97662,6.48085,-0.0271211
341.5,8.99225,6.48554,-0.027151
342,9.00691,6.48138,-0.0283096
342.5,9.02241,6.48692,-0.0276021
343,9.03761,6.486,-0.0274796
343.5,9.05288,6.48308,-0.0274461
344,9.06801,6.48454,-0.0276658
344.5,9.08368,6.48678,-0.0288615
345,9.0986,6.48869,-0.0287562
345.5,9.11406,6.48694,-0.0287581
346,9.12933,6.48862,-0.0287601
346.5,9.14427,6.49347,-0.0287602
347,9.15977,6.49394,-0.0287564
347.5,9.17518,6.48965,-0.0287448
348,9.19042,6.49547,-0.0291506
348.5,9.20563,6.49219,-0.0301231
349,9.22119,6.49754,-0.0300701
349.5,9.2363,6.49543,-0.030105
350,9.25165,6.49568,-0.0302537
350.5,9.26702,6.49373,-0.0313842
351,9.28211,6.49587,-0.0313985
351.5,9.297,6.49742,-0.0314004
352,9.31287,6.49992,-0.0313998
352.5,9.32794,6.50439,-0.0313888
353,9.34325,6.49887,-0.0314035
353.5,9.35859,6.49862,-0.0303273
354,9.37399,6.50393,-0.0300355
354.5,9.3893,6.50298,-0.0307293
355,9.40417,6.50339,-0.0314487
355.5,9.41984,6.50646,-0.0314008
356,9.4352,6.50636,-0.031393
356.5,9.45019,6.50647,-0.0318082
357,9.46577,6.51071,-0.0328355
357.5,9.48087,6.50426,-0.0319006
358,9.49642,6.50295,-0.0313858
358.5,9.51203,6.50396,-0.0314082
359,9.52682,6.50645,-0.0325146
359.5,9.54233,6.50409,-0.0326857
360,9.55799,6.50264,-0.0327129
360.5,9.57316,6.50253,-0.0327303
361,9.58844,6.50733,-0.0326627
361.5,9.60364,6.50388,-0.0339534
362,9.61889,6.50443,-0.0340303
362.5,9.63413,6.5063,-0.0340304
363,9.64983,6.49909,-0.0340297
363.5,9.66554,6.50171,-0.0340196
364,9.68078,6.50337,-0.0341899
364.5,9.69622,6.50684,-0.0361248
365,9.71138,6.50436,-0.036667
365.5,9.72676,6.50197,-0.036661
366,9.74229,6.50811,-0.0366131
366.5,9.75759,6.51046,-0.0374813
367,9.77293,6.51114,-0.0379844
367.5,9.78797,6.51136,-0.0379889
368,9.80339,6.51165,-0.0381762
368.5,9.81923,6.51418,-0.0392948
369,9.83468,6.51526,-0.0392864
369.5,9.85049,6.52394,-0.039298
370,9.86576,6.52757,-0.0393256
370.5,9.88107,6.52941,-0.0394237
371,9.89652,6.53357,-0.0405994
371.5,9.91172,6.53927,-0.0406302
372,9.92722,6.54618,-0.0405366
372.5,9.94254,6.54222,-0.0418094
373,9.95816,6.54303,-0.0419411
373.5,9.9737,6.54872,-0.0419349
374,9.98887,6.55426,-0.0422351
374.5,10.0042,6.55864,-0.0428318
375,10.02,6.56385,-0.0418698
375.5,10.035,6.57172,-0.0424606
376,10.0505,6.57329,-0.0432547
376.5,10.0659,6.57762,-0.0432488
377,10.0815,6.58539,-0.0432503
377.5,10.097,6.58268,-0.0432475
378,10.1125,6.5871,-0.0432196
378.5,10.1277,6.58863,-0.0437403
379,10.1434,6.59762,-0.0451436
379.5,10.1583,6.60183,-0.0459517
380,10.1737,6.60408,-0.0470838
380.5,10.1893,6.61329,-0.046989
381,10.2048,6.62182,-0.0470118
381.5,10.2209,6.62933,-0.0470883
382,10.2361,6.63358,-0.0482706
382.5,10.2519,6.6344,-0.0482978
383,10.2672,6.64424,-0.0496239
383.5,10.2826,6.6448,-0.0497287
384,10.298,6.65164,-0.0507981
384.5,10.3139,6.6569,-0.0513539
385,10.3291,6.66608,-0.0520152
385.5,10.3445,6.66969,-0.0528836
386,10.3603,6.67341,-0.0528638
386.5,10.3757,6.67511,-0.0543069
387,10.3913,6.68619,-0.0545045
387.5,10.4071,6.68996,-0.0560493
388,10.4224,6.70218,-0.0567531
388.5,10.4377,6.71716,-0.057553
389,10.4532,6.72256,-0.0583333
389.5,10.4689,6.72762,-0.0590758
390,10.4842,6.73566,-0.0596098
390.5,10.4996,6.7424,-0.0607112
391,10.5154,6.75582,-0.061843
391.5,10.5311,6.76371,-0.0623632
392,10.5463,6.76927,-0.0639358
392.5,10.5622,6.77637,-0.0647086
393,10.5777,6.79018,-0.0658084
393.5,10.5931,6.80369,-0.066596
394,10.6088,6.80534,-0.0674283
394.5,10.6246,6.82418,-0.0684272
395,10.6397,6.8264,-0.0681945
395.5,10.6555,6.84156,-0.0689145
396,10.6712,6.85094,-0.0695223
396.5,10.6866,6.85846,-0.0711527
397,10.7023,6.87545,-0.0723681
397.5,10.718,6.89254,-0.0733388
398,10.7334,6.89246,-0.0749048
398.5,10.749,6.90925,-0.0763759
399,10.7645,6.91865,-0.0770559
399.5,10.7804,6.93128,-0.0785363
400,10.7958,6.94672,-0.0800765
400.5,10.8114,6.96156,-0.0814868
401,10.8269,6.97922,-0.0825882
401.5,10.8426,6.99478,-0.0845161
402,10.8584,7.00656,-0.085509
402.5,10.874,7.0165,-0.0864532
403,10.8898,7.03422,-0.0880766
403.5,10.905,7.05093,-0.089386
404,10.9208,7.06467,-0.0905979
404.5,10.9364,7.07938,-0.0915731
405,10.9519,7.09836,-0.0933907
405.5,10.9676,7.11491,-0.0943956
406,10.9833,7.13114,-0.0958042
406.5,10.9992,7.15021,-0.0971292
407,11.0146,7.17028,-0.0992525
407.5,11.0306,7.1856,-0.101601
408,11.046,7.20014,-0.103327
408.5,11.0621,7.22322,-0.106553
409,11.0777,7.24397,-0.108991
409.5,11.0931,7.26398,-0.110322
410,11.1088,7.2863,-0.11237
410.5,11.1249,7.30665,-0.114058
411,11.1403,7.32765,-0.115578
411.5,11.1562,7.35387,-0.116928
412,11.1717,7.36856,-0.118509
412.5,11.1877,7.39249,-0.120988
413,11.2032,7.41761,-0.123125
413.5,11.2189,7.44702,-0.125324
414,11.2347,7.46814,-0.127686
414.5,11.2504,7.49429,-0.129492
415,11.266,7.52123,-0.13045
415.5,11.2815,7.54624,-0.1323
416,11.2974,7.57172,-0.134187
416.5,11.3132,7.60031,-0.137134
417,11.3291,7.63004,-0.139263
417.5,11.3447,7.65879,-0.141511
418,11.3607,7.6941,-0.144543
418.5,11.3765,7.72424,-0.146148
419,11.3922,7.75291,-0.149173
419.5,11.4078,7.788,-0.152533
420,11.4238,7.81273,-0.15457
420.5,11.4393,7.84625,-0.157527
421,11.4555,7.8872,-0.160366
421.5,11.471,7.92384,-0.162599
422,11.4868,7.95945,-0.166062
422.5,11.5028,7.99643,-0.169005
423,11.5186,8.02864,-0.171848
423.5,11.5346,8.06114,-0.174881
424,11.5501,8.091,-0.17838
424.5,11.5662,8.13712,-0.181895
425,11.5821,8.17059,-0.184899
425.5,11.5978,8.20618,-0.18788
426,11.6137,8.24779,-0.192419
426.5,11.6298,8.2955,-0.195757
427,11.6452,8.34474,-0.199125
427.5,11.6612,8.38859,-0.203578
428,11.677,8.42786,-0.206388
428.5,11.6929,8.4732,-0.210687
429,11.7088,8.5213,-0.214569
429.5,11.7245,8.5716,-0.218913
430,11.7405,8.62553,-0.22293
430.5,11.7564,8.65516,-0.227413
431,11.7723,8.71558,-0.230016
431.5,11.7885,8.76139,-0.234287
432,11.8045,8.81648,-0.239643
432.5,11.8202,8.87668,-0.244076
433,11.8361,8.92238,-0.24956
433.5,11.8519,8.97437,-0.253817
434,11.8682,9.02509,-0.258561
434.5,11.8841,9.08614,-0.263957
435,11.9002,9.14429,-0.268554
435.5,11.9161,9.20334,-0.273893
436,11.9318,9.24848,-0.277224
436.5,11.9479,9.31046,-0.28233
437,11.9639,9.36761,-0.288586
437.5,11.9797,9.42421,-0.293896
438,11.9958,9.47456,-0.300719
438.5,12.0121,9.52787,-0.30615
439,12.0281,9.57848,-0.312093
439.5,12.0439,9.65084,-0.318727
440,12.0599,9.75386,-0.324408
440.5,12.0755,9.84128,-0.331919
441,12.0915,9.8929,-0.338367
441.5,12.1081,9.9578,-0.345912
442,12.124,10.0197,-0.354049
442.5,12.1405,10.0833,-0.361175
443,12.1562,10.1505,-0.369722
443.5,12.1722,10.2229,-0.376714
444,12.1886,10.3008,-0.385222
444.5,12.2043,10.3744,-0.393932
445,12.2207,10.4659,-0.401351
445.5,12.2368,10.5492,-0.410897
446,12.2528,10.6289,-0.418603
446.5,12.2688,10.7103,-0.427341
447,12.285,10.7976,-0.437162
447.5,12.3013,10.8873,-0.446756
448,12.317,10.9778,-0.457685
448.5,12.3336,11.0824,-0.466714
449,12.3499,11.1743,-0.477486
449.5,12.3657,11.2662,-0.488474
450,12.3822,11.3563,-0.498506
450.5,12.3984,11.4635,-0.511002
451,12.4148,11.5669,-0.520589
451.5,12.4306,11.6755,-0.531974
452,12.4473,11.7872,-0.544434
452.5,12.4626,11.8884,-0.553815
453,12.4797,12.0042,-0.568229
453.5,12.4961,12.1277,-0.579266
454,12.5122,12.2504,-0.59299
454.5,12.5286,12.347,-0.606118
455,12.5449,12.449,-0.618868
455.5,12.561,12.5571,-0.634497
456,12.5773,12.67,-0.647567
456.5,12.5936,12.7857,-0.662859
457,12.6097,12.9009,-0.676733
457.5,12.6263,13.0283,-0.691519
458,12.6424,13.1437,-0.708921
458.5,12.6588,13.2735,-0.722706
459,12.6754,13.3957,-0.740785
459.5,12.6915,13.5284,-0.755644
460,12.7079,13.6613,-0.772421
460.5,12.7244,13.8172,-0.791447
461,12.741,13.9625,-0.807141
461.5,12.7574,14.077,-0.827434
462,12.7734,14.199,-0.843045
462.5,12.7902,14.3117,-0.862793
463,12.8068,14.4925,-0.88297
463.5,12.8227,14.6203,-0.901361
464,12.8396,14.7955,-0.92525
464.5,12.8559,14.895,-0.942859
465,12.8717,15.0096,-0.96394
465.5,12.8889,15.1623,-0.985978
466,12.905,15.3044,-1.00453
466.5,12.9216,15.4373,-1.02923
467,12.9381,15.5442,-1.04888
467.5,12.9542,15.6714,-1.07396
468,12.9709,15.811,-1.09629
468.5,12.9873,15.9738,-1.12109
469,13.0038,16.0776,-1.1479
469.5,13.0203,16.17,-1.16994
470,13.037,16.3238,-1.19849
470.5,13.0529,16.3913,-1.2192
471,13.0695,16.4994,-1.24507
471.5,13.0855,16.6188,-1.27268
472,13.102,16.7391,-1.2969
472.5,13.1177,16.8266,-1.32619
473,13.1347,16.8938,-1.35085
473.5,13.1513,17.0007,-1.38007
474,13.1673,17.0834,-1.40765
474.5,13.1835,17.1199,-1.43394
475,13.1995,17.1696,-1.46756
475.5,13.2159,17.1978,-1.49307
476,13.2317,17.2035,-1.52351
476.5,13.248,17.194,-1.55313
477,13.2637,17.1789,-1.57975
477.5,13.2798,17.1474,-1.61335
478,13.2957,17.0885,-1.63828
478.5,13.3113,17.0254,-1.66847
479,13.3273,16.9378,-1.6985
479.5,13.343,16.8446,-1.72534
480,13.3583,16.7121,-1.75812
480.5,13.3741,16.5975,-1.78342
481,13.3895,16.4626,-1.81285
481.5,13.4051,16.3009,-1.84395
482,13.4205,16.1109,-1.86985
482.5,13.4357,15.9227,-1.90088
483,13.4516,15.7109,-1.92612
483.5,13.4665,15.494,-1.95258
484,13.4818,15.2682,-1.98362
484.5,13.497,15.0135,-2.00709
485,13.5119,14.7579,-2.03504
485.5,13.5271,14.4921,-2.06151
486,13.5418,14.2032,-2.08448
486.5,13.557,13.9075,-2.11341
487,13.5719,13.6102,-2.13638
487.5,13.5869,13.2876,-2.16082
488,13.6016,12.964,-2.1878
488.5,13.6165,12.6397,-2.20787
489,13.6311,12.3134,-2.23205
489.5,13.6459,11.9558,-2.25534
490,13.6606,11.6051,-2.27505
490.5,13.675,11.2462,-2.29772
491,13.6898,10.8742,-2.31624
491.5,13.7045,10.492,-2.33538
492,13.7189,10.1151,-2.3574
492.5,13.7335,9.72338,-2.37323
493,13.748,9.32831,-2.39103
493.5,13.7626,8.94173,-2.41044
494,13.7772,8.56394,-2.42459
494.5,13.7917,8.18143,-2.44143
495,13.8066,7.80309,-2.45706
495.5,13.8212,7.42236,-2.47011
496,13.8357,7.08094,-2.48534
496.5,13.8503,6.7584,-2.49656
497,13.8652,6.43992,-2.50804
497.5,13.8798,6.13923,-2.52092
498,13.8948,5.84902,-2.5303
498.5,13.9092,5.58189,-2.54099
499,13.9242,5.32027,-2.55234
499.5,13.9394,5.07859,-2.56088
500,13.9544,4.85027,-2.5709
500.5,13.9693,4.64052,-2.57896
501,13.9845,4.44268,-2.58696
501.5,13.9995,4.26,-2.59632
502,14.0148,4.07204,-2.60315
502.5,14.0299,3.91894,-2.61081
503,14.0451,3.76656,-2.61866
503.5,14.0604,3.61998,-2.62479
504,14.0758,3.48973,-2.63189
504.5,14.0912,3.35881,-2.63695
505,14.1066,3.25177,-2.64234
505.5,14.1217,3.14148,-2.64821
506,14.1376,3.02873,-2.65235
506.5,14.1528,2.93085,-2.65717
507,14.1681,2.84182,-2.66117
507.5,14.1839,2.75458,-2.66533
508,14.1994,2.66881,-2.67014
508.5,14.2149,2.59512,-2.67271
509,14.2306,2.51498,-2.67708
509.5,14.2462,2.45099,-2.67925
510,14.2616,2.38653,-2.68145
510.5,14.2774,2.31753,-2.68496
511,14.2929,2.26205,-2.68716
511.5,14.3088,2.20282,-2.69026
512,14.3243,2.14752,-2.69257
512.5,14.3403,2.10205,-2.69438
513,14.3558,2.05854,-2.69611
513.5,14.3719,2.01468,-2.69804
514,14.3873,1.96995,-2.69938
514.5,14.4033,1.93314,-2.70076
515,14.4193,1.90302,-2.70219
515.5,14.4349,1.87065,-2.70303
516,14.4508,1.84938,-2.70443
516.5,14.4666,1.83393,-2.70464
517,14.4824,1.81455,-2.70605
517.5,14.4986,1.78557,-2.70652
518,14.5142,1.77642,-2.70791
518.5,14.5302,1.76129,-2.70781
519,14.546,1.75061,-2.70884
519.5,14.5622,1.7343,-2.7091
520,14.5779,1.72853,-2.70912
520.5,14.5938,1.71845,-2.70917
521,14.6098,1.70658,-2.71046
521.5,14.6256,1.70503,-2.71042
522,14.6417,1.70387,-2.71044
522.5,14.6576,1.69834,-2.71044
523,14.673,1.68634,-2.71044
523.5,14.6894,1.68952,-2.71044
524,14.7055,1.68923,-2.71036
524.5,14.7217,1.68691,-2.71158
525,14.738,1.68654,-2.71175
525.5,14.7537,1.68247,-2.71175
526,14.7694,1.67918,-2.71175
526.5,14.7857,1.67774,-2.71175
527,14.8018,1.67175,-2.71175
527.5,14.8178,1.66648,-2.71177
528,14.8339,1.66315,-2.71216
528.5,14.8501,1.6598,-2.71307
529,14.8658,1.6601,-2.71307
529.5,14.882,1.65917,-2.71307
530,14.8982,1.65708,-2.71307
530.5,14.9141,1.65583,-2.71307
531,14.9296,1.66198,-2.71307
531.5,14.9463,1.65695,-2.71307
532,14.9627,1.66132,-2.71307
532.5,14.9782,1.66281,-2.71307
533,14.9945,1.66265,-2.71308
533.5,15.0102,1.66605,-2.7131
534,15.0266,1.65953,-2.71427
534.5,15.0426,1.66062,-2.71438
535,15.0589,1.66466,-2.71439
535.5,15.0745,1.66252,-2.71439
536,15.0903,1.66578,-2.7144
536.5,15.1069,1.6659,-2.71445
537,15.1229,1.66048,-2.71474
537.5,15.139,1.65816,-2.71472
538,15.1554,1.65795,-2.71472
538.5,15.1714,1.65977,-2.71471
539,15.1875,1.65379,-2.71354
539.5,15.2038,1.65432,-2.71343
540,15.2197,1.65774,-2.71342
540.5,15.2358,1.65792,-2.7135
541,15.2513,1.65399,-2.71407
541.5,15.2677,1.65108,-2.71406
542,15.2843,1.65082,-2.71405
542.5,15.3008,1.64728,-2.71405
543,15.3168,1.64855,-2.71405
543.5,15.3326,1.6437,-2.71405
544,15.3492,1.64107,-2.71405
544.5,15.3649,1.64301,-2.71405
545,15.3812,1.63922,-2.71404
545.5,15.3973,1.6358,-2.71432
546,15.4135,1.63452,-2.71437
546.5,15.43,1.6333,-2.71438
547,15.4459,1.63543,-2.71438
547.5,15.4623,1.63081,-2.71442
548,15.4782,1.62865,-2.71532
548.5,15.4944,1.63088,-2.71535
549,15.5107,1.62601,-2.71538
549.5,15.5267,1.61591,-2.71474
550,15.5429,1.61341,-2.71405
550.5,15.5591,1.61588,-2.71405
551,15.5753,1.61514,-2.71405
551.5,15.5916,1.61459,-2.7146
552,15.6076,1.61108,-2.7154
552.5,15.6237,1.60592,-2.71538
553,15.64,1.60352,-2.71537
553.5,15.6562,1.60218,-2.71537
554,15.6724,1.59846,-2.71537
554.5,15.6883,1.6003,-2.71537
555,15.7048,1.58791,-2.71537
555.5,15.7209,1.58121,-2.71539
556,15.7372,1.58085,-2.71571
556.5,15.7536,1.5732,-2.71636
557,15.7695,1.5753,-2.71636
557.5,15.7858,1.56748,-2.71635
558,15.8018,1.57001,-2.71635
558.5,15.818,1.56527,-2.71635
559,15.8345,1.56285,-2.71635
559.5,15.8506,1.5585,-2.71635
560,15.8668,1.54794,-2.71635
560.5,15.8832,1.55319,-2.71632
561,15.8994,1.54646,-2.71657
561.5,15.9155,1.54265,-2.71527
562,15.9315,1.53677,-2.71537
562.5,15.9483,1.53785,-2.71537
563,15.9643,1.52996,-2.71537
563.5,15.9803,1.52477,-2.71537
564,15.9969,1.52103,-2.71537
564.5,16.0131,1.52197,-2.71537
565,16.0292,1.51889,-2.71537
565.5,16.0447,1.51233,-2.71537
566,16.0617,1.50975,-2.71537
566.5,16.078,1.50402,-2.71537
567,16.0944,1.50397,-2.71528
567.5,16.1105,1.50162,-2.71641
568,16.1267,1.49639,-2.71634
568.5,16.1431,1.49338,-2.71636
569,16.1592,1.48896,-2.71636
569.5,16.1757,1.48279,-2.71636
570,16.1918,1.48138,-2.71636
570.5,16.2082,1.48195,-2.71636
571,16.2245,1.4816,-2.71636
571.5,16.2405,1.47688,-2.71636
572,16.2571,1.47254,-2.71636
572.5,16.2733,1.46792,-2.71636
573,16.2895,1.46171,-2.71636
573.5,16.3059,1.45151,-2.71636
574,16.3222,1.4489,-2.71636
574.5,16.3383,1.44364,-2.71636
575,16.3547,1.44153,-2.71636
575.5,16.3711,1.44188,-2.71615
576,16.387,1.44127,-2.71495
576.5,16.4037,1.42819,-2.71504
577,16.4199,1.42634,-2.71504
577.5,16.4362,1.42611,-2.71504
578,16.4524,1.42636,-2.71504
578.5,16.4689,1.42183,-2.71504
579,16.485,1.4155,-2.71504
579.5,16.5014,1.41335,-2.71505
580,16.517,1.41084,-2.71494
580.5,16.5336,1.4106,-2.71657
581,16.5507,1.40461,-2.7174
581.5,16.5667,1.39939,-2.71736
582,16.5831,1.39556,-2.71735
582.5,16.5999,1.39014,-2.71735
583,16.6158,1.38653,-2.71673
583.5,16.6319,1.38175,-2.71602
584,16.6487,1.38247,-2.71602
584.5,16.6648,1.38107,-2.71604
585,16.6811,1.37928,-2.71598
585.5,16.6974,1.37128,-2.71676
586,16.7139,1.37295,-2.71669
586.5,16.73,1.36724,-2.71669
587,16.7464,1.35989,-2.71669
587.5,16.763,1.35767,-2.71669
588,16.7791,1.35358,-2.71669
588.5,16.7958,1.35572,-2.71669
589,16.8121,1.34939,-2.71669
589.5,16.8285,1.34706,-2.71669
590,16.8449,1.34825,-2.71669
590.5,16.8609,1.34096,-2.71669
591,16.8777,1.33424,-2.71669
591.5,16.8939,1.336,-2.71669
592,16.9097,1.33144,-2.71669
592.5,16.9264,1.32721,-2.71669
593,16.9427,1.32153,-2.7167
593.5,16.9596,1.31677,-2.71669
594,16.9753,1.31358,-2.71705
594.5,16.9925,1.31099,-2.71702
595,17.0086,1.30561,-2.71702
595.5,17.0248,1.30088,-2.7172
596,17.0413,1.29627,-2.71734
596.5,17.0578,1.2929,-2.71736
597,17.074,1.2833,-2.71736
597.5,17.0904,1.28204,-2.71794
598,17.1071,1.2775,-2.718
598.5,17.1232,1.26739,-2.71801
599,17.14,1.26415,-2.71801
599.5,17.156,1.26426,-2.71801
600,17.1726,1.26059,-2.71799
600.5,17.189,1.25483,-2.7183
601,17.2057,1.25024,-2.71852
601.5,17.2219,1.2458,-2.71736
602,17.2382,1.24738,-2.71735
602.5,17.2545,1.23736,-2.71735
603,17.2706,1.23499,-2.71735
603.5,17.2871,1.22943,-2.71735
604,17.3041,1.22585,-2.71735
604.5,17.3206,1.21804,-2.71733
605,17.3371,1.2108,-2.71704
605.5,17.3534,1.20477,-2.71603
606,17.3703,1.19367,-2.71603
606.5,17.3866,1.19283,-2.716
607,17.4028,1.18414,-2.71639
607.5,17.4195,1.18206,-2.71636
608,17.4357,1.18002,-2.71636
608.5,17.4523,1.18071,-2.71636
609,17.4684,1.17268,-2.71636
609.5,17.4852,1.17076,-2.71636
610,17.5016,1.1598,-2.71636
610.5,17.5182,1.15577,-2.71636
611,17.5345,1.15489,-2.71636
611.5,17.5512,1.14628,-2.71636
612,17.5677,1.14052,-2.71636
612.5,17.5844,1.13515,-2.71646
613,17.6003,1.1354,-2.71631
613.5,17.6171,1.13681,-2.71605
614,17.634,1.13404,-2.71603
614.5,17.6502,1.12565,-2.71603
615,17.6667,1.1201,-2.71603
615.5,17.6832,1.11716,-2.71603
616,17.6996,1.11133,-2.71603
616.5,17.7163,1.11263,-2.71603
617,17.7324,1.10996,-2.71603
617.5,17.7493,1.10287,-2.71603
618,17.7658,1.10126,-2.71603
618.5,17.782,1.09313,-2.71603
619,17.7988,1.09014,-2.71603
619.5,17.815,1.08968,-2.71603
620,17.8315,1.08852,-2.71603
620.5,17.8484,1.0885,-2.71605
621,17.8646,1.08598,-2.71605
621.5,17.8812,1.08357,-2.71732
622,17.8976,1.07736,-2.71734
622.5,17.9145,1.07027,-2.71734
623,17.931,1.06722,-2.71733
623.5,17.9473,1.0699,-2.71796
624,17.9638,1.06939,-2.71867
624.5,17.9806,1.0642,-2.71867
625,17.9968,1.0612,-2.71866
625.5,18.0133,1.05917,-2.71866
626,18.0299,1.05763,-2.71866
626.5,18.0466,1.05032,-2.71866
627,18.063,1.05199,-2.71866
627.5,18.0794,1.05324,-2.71872
628,18.0961,1.03905,-2.71795
628.5,18.1131,1.11472,-2.718
629,18.1298,1.1595,-2.71789
629.5,18.1463,1.15763,-2.71733
630,18.1625,1.14978,-2.71734
630.5,18.1792,1.12711,-2.71734
631,18.1954,1.11188,-2.71755
631.5,18.2121,1.09789,-2.71766
632,18.2284,1.08524,-2.71767
632.5,18.2445,1.0799,-2.71767
633,18.2614,1.07621,-2.71765
633.5,18.2779,1.07068,-2.71821
634,18.2944,1.06122,-2.71904
634.5,18.311,1.06097,-2.71899
635,18.3274,1.05798,-2.71918
635.5,18.3439,1.05403,-2.7204
636,18.3604,1.05072,-2.72031
636.5,18.3771,1.04537,-2.72031
637,18.3936,1.04256,-2.72031
637.5,18.4102,1.03431,-2.72037
638,18.4267,1.02854,-2.7196
638.5,18.4432,1.02633,-2.71966
639,18.4597,1.02253,-2.71965
639.5,18.4762,1.01651,-2.71965
640,18.4931,1.00575,-2.71965
640.5,18.5095,0.998603,-2.71965
641,18.5259,0.994575,-2.71965
641.5,18.5425,0.987465,-2.71965
642,18.5585,0.985871,-2.71965
642.5,18.5754,0.980845,-2.71965
643,18.5924,0.975036,-2.71965
643.5,18.6084,0.972846,-2.71965
644,18.6254,0.966666,-2.71965
644.5,18.642,0.960909,-2.71965
645,18.6585,0.958146,-2.71965
645.5,18.6753,0.945359,-2.71965
646,18.6919,0.945497,-2.71923
646.5,18.7084,0.942656,-2.71902
647,18.7252,0.939738,-2.719
647.5,18.7417,0.938702,-2.719
648,18.7582,0.931264,-2.719
648.5,18.7748,0.928418,-2.719
649,18.7919,0.925658,-2.719
649.5,18.808,0.909357,-2.71899
650,18.8247,0.91559,-2.71971
650.5,18.8413,0.916074,-2.71998
651,18.8581,0.908181,-2.71999
651.5,18.8747,0.901326,-2.71999
652,18.8912,0.89689,-2.71996
652.5,18.9077,0.898188,-2.72033
653,18.9245,0.894181,-2.7203
653.5,18.941,0.887758,-2.7203
654,18.9577,0.884299,-2.7206
654.5,18.9744,0.8771,-2.72063
655,18.9908,0.878324,-2.72064
655.5,19.0074,0.886313,-2.72064
656,19.0241,0.87911,-2.72064
656.5,19.0407,0.875415,-2.72064
657,19.0575,0.869636,-2.72064
657.5,19.0737,0.87048,-2.72064
658,19.0905,0.871105,-2.72064
658.5,19.1073,0.868361,-2.72064
659,19.1238,0.868215,-2.72064
659.5,19.1403,0.852981,-2.72064
660,19.1573,0.862613,-2.72064
660.5,19.1738,0.863252,-2.72064
661,19.1904,0.855653,-2.71986
661.5,19.207,0.855394,-2.71951
662,19.2239,0.856252,-2.72073
662.5,19.2404,0.858268,-2.72064
663,19.2572,0.856618,-2.72064
663.5,19.2735,0.852638,-2.72064
664,19.2901,0.851157,-2.72064
664.5,19.3066,0.84662,-2.72064
665,19.3233,0.839338,-2.72065
665.5,19.3404,0.842908,-2.72066
666,19.3566,0.848558,-2.71989
666.5,19.3737,0.847989,-2.71969
667,19.3902,0.847077,-2.71966
667.5,19.4069,0.845348,-2.71966
668,19.4235,0.848661,-2.71966
668.5,19.4404,0.8466,-2.71969
669,19.457,0.848539,-2.71898
669.5,19.4734,0.844551,-2.71831
670,19.4901,0.848885,-2.71834
670.5,19.5067,0.853633,-2.71834
671,19.5237,0.846615,-2.71834
671.5,19.5402,0.854223,-2.71834
672,19.5569,0.854587,-2.71834
672.5,19.5735,0.847408,-2.71834
673,19.5899,0.853803,-2.71834
673.5,19.607,0.85984,-2.71834
674,19.6236,0.853586,-2.7183
674.5,19.6401,0.848733,-2.71905
675,19.6566,0.854212,-2.71968
675.5,19.6733,0.856947,-2.71923
676,19.6903,0.862846,-2.71827
676.5,19.7069,0.857725,-2.71878
677,19.7237,0.853606,-2.71984
677.5,19.7403,0.858471,-2.72119
678,19.7569,0.861992,-2.72108
678.5,19.7736,0.862793,-2.72108
679,19.7901,0.866355,-2.72108
679.5,19.8069,0.865934,-2.72108
680,19.8237,0.867454,-2.72108
680.5,19.8403,0.864961,-2.72108
681,19.8569,0.869696,-2.72108
681.5,19.8737,0.874928,-2.72108
682,19.8904,0.868468,-2.72108
682.5,19.9069,0.878819,-2.72108
683,19.9237,0.881694,-2.72107
683.5,19.9403,0.885615,-2.72107
684,19.9572,0.887141,-2.7215
684.5,19.9738,0.883948,-2.72102
685,19.9904,0.886384,-2.72107
685.5,20.0071,0.887762,-2.72108
686,20.024,0.89297,-2.72108
686.5,20.0409,0.902412,-2.72108
687,20.0573,0.905512,-2.72108
687.5,20.0743,0.903553,-2.72108
688,20.0907,0.903461,-2.72108
688.5,20.1076,0.89965,-2.72088
689,20.1244,0.908448,-2.72034
689.5,20.1409,0.917884,-2.7212
690,20.1579,0.914532,-2.72119
690.5,20.1745,0.913683,-2.72119
691,20.1913,0.912912,-2.72119
691.5,20.208,0.913566,-2.72119
692,20.2245,0.923386,-2.72079
692.5,20.2413,0.921254,-2.71982
693,20.2581,0.936562,-2.71987
693.5,20.2748,0.933719,-2.71987
694,20.2917,0.935116,-2.71987
694.5,20.3083,0.93275,-2.71987
695,20.3251,0.936084,-2.71987
695.5,20.3416,0.934919,-2.71987
696,20.3584,0.9372,-2.71987
696.5,20.3747,0.942508,-2.71987
697,20.3912,0.941001,-2.71988
697.5,20.4086,0.94508,-2.71985
698,20.4253,0.944837,-2.72099
698.5,20.4421,0.949057,-2.72118
699,20.4586,0.947938,-2.72119
699.5,20.4755,0.95035,-2.72119
700,20.4922,0.95165,-2.72119
700.5,20.5091,0.964159,-2.72119
701,20.5259,0.96359,-2.72119
701.5,20.5424,0.956187,-2.72123
702,20.559,0.963566,-2.72051
702.5,20.5762,0.968049,-2.71984
703,20.5928,0.973281,-2.71987
703.5,20.6097,0.976553,-2.71987
704,20.6263,0.977456,-2.71987
704.5,20.6431,0.975966,-2.71984
705,20.6596,0.97671,-2.7202
705.5,20.6766,0.984016,-2.72091
706,20.6931,0.986055,-2.72153
706.5,20.7103,0.987961,-2.72152
707,20.7267,0.989971,-2.72152
707.5,20.7435,0.991989,-2.72152
708,20.7604,0.992807,-2.72152
708.5,20.7774,0.995582,-2.72152
709,20.7934,1.00564,-2.72152
709.5,20.8107,1.00636,-2.72153
710,20.8274,1.00875,-2.72268
710.5,20.8442,1.00524,-2.7228
711,20.8609,1.01037,-2.72283
711.5,20.8779,1.018,-2.72282
712,20.894,1.02219,-2.72264
712.5,20.9109,1.02079,-2.72151
713,20.9279,1.02594,-2.72153
713.5,20.9449,1.02458,-2.72153
714,20.9616,1.02408,-2.72153
714.5,20.9781,1.02764,-2.72079
715,20.995,1.03505,-2.7202
715.5,21.012,1.03624,-2.7202
716,21.0287,1.03893,-2.7202
716.5,21.0454,1.036,-2.7202
717,21.0624,1.03857,-2.7202
717.5,21.079,1.03563,-2.72132
718,21.096,1.04143,-2.72147
718.5,21.1125,1.04913,-2.72147
719,21.1296,1.05095,-2.72002
719.5,21.1461,1.04118,-2.71998
720,21.1633,1.05318,-2.71998
720.5,21.1798,1.04818,-2.71998
721,21.1969,1.04912,-2.71998
721.5,21.2129,1.04863,-2.71999
722,21.2303,1.05657,-2.72
722.5,21.2469,1.06113,-2.72052
723,21.2638,1.05949,-2.72136
723.5,21.2806,1.06723,-2.7213
724,21.2972,1.0557,-2.7213
724.5,21.3144,1.06161,-2.7213
725,21.3309,1.06812,-2.7213
725.5,21.3477,1.06802,-2.72129
726,21.3646,1.06864,-2.72125
726.5,21.3814,1.07373,-2.72005
727,21.3983,1.07042,-2.71999
727.5,21.4153,1.06536,-2.71998
728,21.432,1.06383,-2.71998
728.5,21.4487,1.07156,-2.71998
729,21.4658,1.0799,-2.71998
729.5,21.482,1.07817,-2.71998
730,21.4988,1.0757,-2.72005
730.5,21.516,1.07069,-2.72135
731,21.5324,1.06782,-2.72129
731.5,21.5494,1.07153,-2.7213
732,21.5659,1.07276,-2.7213
732.5,21.5832,1.07323,-2.7213
733,21.5998,1.07395,-2.7213
733.5,21.6167,1.07132,-2.72131
734,21.6335,1.07014,-2.72151
734.5,21.6504,1.06995,-2.72264
735,21.6672,1.06591,-2.72262
735.5,21.6842,1.06377,-2.72263
736,21.7006,1.07209,-2.72267
736.5,21.7176,1.06605,-2.72326
737,21.7345,1.06734,-2.72259
737.5,21.7511,1.06531,-2.7226
738,21.768,1.06405,-2.72261
738.5,21.7848,1.05927,-2.72261
739,21.8019,1.0578,-2.72261
739.5,21.8185,1.05784,-2.72263
740,21.8353,1.05599,-2.72262