File: 01_Data/PE_Foam_Pipe_Insulation/STA/N2/10K_min/PE_Foam_Pipe_STA_N2_10KData_220923_R2.csv
##Temp./Â°C,Time/min,DSC/(mW/mg),Mass loss/mg
51.0,10.763,-1.56269,-0.0400535
51.4,10.9262,-1.4976,-0.0395252
51.8,11.0546,-1.44196,-0.0372019
52.2,11.1607,-1.398,-0.0351556
52.6,11.2617,-1.35693,-0.0340834
53,11.3454,-1.32207,-0.0365631
53.4,11.4275,-1.29006,-0.0364131
53.8,11.5026,-1.26215,-0.0357839
54.2,11.5768,-1.23321,-0.0341211
54.6,11.6481,-1.20845,-0.0341718
55,11.7166,-1.18345,-0.0353395
55.4,11.7813,-1.16285,-0.0345559
55.8,11.8457,-1.14224,-0.0330398
56.2,11.9063,-1.123,-0.0324382
56.6,11.9675,-1.10532,-0.034881
57,12.0288,-1.08667,-0.0380587
57.4,12.0856,-1.07006,-0.0371114
57.8,12.141,-1.05658,-0.037487
58.2,12.2011,-1.04152,-0.0357949
58.6,12.2583,-1.0258,-0.0342305
59,12.3106,-1.014,-0.0352531
59.4,12.3673,-1.00039,-0.0340721
59.8,12.4247,-0.988417,-0.0339169
60.2,12.4771,-0.979724,-0.0344676
60.6,12.5293,-0.971129,-0.0351593
61,12.584,-0.962309,-0.0341344
61.4,12.6349,-0.955391,-0.035866
61.8,12.6875,-0.94737,-0.0356965
62.2,12.7348,-0.941703,-0.0366488
62.6,12.7902,-0.936843,-0.0367331
63,12.8374,-0.931019,-0.0362836
63.4,12.888,-0.925381,-0.036114
63.8,12.9389,-0.921328,-0.0350778
64.2,12.9876,-0.914943,-0.0348539
64.6,13.0385,-0.91154,-0.0362445
65,13.088,-0.906198,-0.0369767
65.4,13.1358,-0.902305,-0.0360305
65.8,13.1846,-0.897803,-0.0363192
66.2,13.2327,-0.891047,-0.0361959
66.6,13.2809,-0.886693,-0.0371459
67,13.329,-0.882669,-0.0377383
67.4,13.3764,-0.877091,-0.0366792
67.8,13.4239,-0.869614,-0.0366036
68.2,13.4716,-0.86522,-0.0367291
68.6,13.5163,-0.86099,-0.0376948
69,13.5637,-0.855978,-0.0366722
69.4,13.6123,-0.848764,-0.0366506
69.8,13.6586,-0.844784,-0.0366613
70.2,13.7046,-0.838532,-0.036415
70.6,13.7515,-0.833027,-0.0366717
71,13.7941,-0.82753,-0.0365245
71.4,13.8389,-0.820949,-0.0355129
71.8,13.8887,-0.813402,-0.0366664
72.2,13.9335,-0.808266,-0.0379304
72.6,13.9791,-0.802825,-0.0366602
73,14.0241,-0.795909,-0.0366102
73.4,14.0698,-0.789312,-0.0370397
73.8,14.1134,-0.783182,-0.0380467
74.2,14.159,-0.776507,-0.0381795
74.6,14.2031,-0.771508,-0.0380714
75,14.2481,-0.764631,-0.0379727
75.4,14.293,-0.759119,-0.0392768
75.8,14.3374,-0.752679,-0.0393523
76.2,14.3811,-0.748631,-0.0379293
76.6,14.4264,-0.738361,-0.0393745
77,14.4709,-0.733336,-0.0380815
77.4,14.5135,-0.726878,-0.0378779
77.8,14.5581,-0.720393,-0.0388323
78.2,14.6007,-0.713938,-0.0379363
78.6,14.6437,-0.705959,-0.0392926
79,14.6864,-0.699606,-0.0387414
79.4,14.7313,-0.69474,-0.0393152
79.8,14.7743,-0.686461,-0.039414
80.2,14.8163,-0.68008,-0.0392404
80.6,14.8606,-0.674967,-0.040621
81,14.9019,-0.667652,-0.0404387
81.4,14.9455,-0.66065,-0.0395285
81.8,14.9876,-0.653189,-0.0405541
82.2,15.0328,-0.647914,-0.040419
82.6,15.0747,-0.638429,-0.0398644
83,15.1149,-0.632915,-0.040656
83.4,15.1596,-0.626465,-0.0403272
83.8,15.2014,-0.619955,-0.0393174
84.2,15.2428,-0.612983,-0.0393001
84.6,15.2853,-0.605372,-0.039172
85,15.3275,-0.599371,-0.0392566
85.4,15.37,-0.5925,-0.0407368
85.8,15.4117,-0.585569,-0.0420609
86.2,15.4534,-0.57886,-0.0407441
86.6,15.4942,-0.573751,-0.0407314
87,15.5364,-0.563606,-0.0411134
87.4,15.5788,-0.558775,-0.0407273
87.8,15.6203,-0.551689,-0.0413108
88.2,15.6614,-0.544513,-0.0407208
88.6,15.7034,-0.538901,-0.0400624
89,15.7433,-0.531085,-0.0394113
89.4,15.7833,-0.526102,-0.0394095
89.8,15.8259,-0.51791,-0.0390509
90.2,15.867,-0.509211,-0.0394056
90.6,15.9079,-0.503635,-0.0407028
91,15.9487,-0.492683,-0.0416153
91.4,15.9904,-0.485398,-0.0410008
91.8,16.0312,-0.480053,-0.0419657
92.2,16.0715,-0.469441,-0.0420274
92.6,16.1127,-0.461373,-0.041997
93,16.1539,-0.451565,-0.0424011
93.4,16.1935,-0.4414,-0.0420512
93.8,16.2342,-0.433116,-0.0423034
94.2,16.2749,-0.422795,-0.0419758
94.6,16.3166,-0.412915,-0.0433596
95,16.3565,-0.404683,-0.0434422
95.4,16.396,-0.392787,-0.0420425
95.8,16.4373,-0.384352,-0.0420398
96.2,16.4774,-0.372779,-0.042034
96.6,16.5189,-0.365837,-0.04202
97,16.5575,-0.356045,-0.0420398
97.4,16.5987,-0.347222,-0.0420396
97.8,16.6386,-0.340934,-0.0433587
98.2,16.6789,-0.335244,-0.0420534
98.6,16.7177,-0.331871,-0.0434376
99,16.7578,-0.327551,-0.0431598
99.4,16.7998,-0.322769,-0.0434701
99.8,16.8389,-0.315333,-0.0421272
100.2,16.8789,-0.309065,-0.0434974
100.6,16.9192,-0.300894,-0.0434695
101,16.9584,-0.291014,-0.0433791
101.4,16.9985,-0.28157,-0.044789
101.8,17.0383,-0.271901,-0.0447902
102.2,17.0766,-0.257868,-0.0448699
102.6,17.1154,-0.245815,-0.043895
103,17.1571,-0.231454,-0.0447891
103.4,17.1967,-0.215656,-0.0453585
103.8,17.2354,-0.201974,-0.0449064
104.2,17.2749,-0.184993,-0.0461131
104.6,17.3152,-0.165775,-0.0447031
105,17.3548,-0.148444,-0.0447896
105.4,17.3949,-0.128178,-0.044791
105.8,17.4346,-0.107708,-0.0432966
106.2,17.4705,-0.0879825,-0.0434698
106.6,17.5127,-0.0651811,-0.0434658
107,17.5524,-0.0410586,-0.0429568
107.4,17.5925,-0.0162382,-0.0418259
107.8,17.6318,0.00936269,-0.0430766
108.2,17.6727,0.0400325,-0.041831
108.6,17.7116,0.069462,-0.0417717
109,17.7514,0.0988496,-0.043133
109.4,17.791,0.132943,-0.0427312
109.8,17.8311,0.167176,-0.0428925
110.2,17.8707,0.203379,-0.0431389
110.6,17.9084,0.239474,-0.0439011
111,17.949,0.281851,-0.0441157
111.4,17.9887,0.324984,-0.0447911
111.8,18.0294,0.368866,-0.0461551
112.2,18.0679,0.414662,-0.0457743
112.6,18.1076,0.458573,-0.0459612
113,18.1467,0.499471,-0.0470467
113.4,18.1863,0.539453,-0.047504
113.8,18.2265,0.572727,-0.0470751
114.2,18.266,0.597053,-0.0470997
114.6,18.3056,0.603398,-0.0471084
115,18.3458,0.584773,-0.0458227
115.4,18.3842,0.535351,-0.0457801
115.8,18.4223,0.439716,-0.0457799
116.2,18.4625,0.292587,-0.0457716
116.6,18.5012,0.141983,-0.0438031
117,18.5408,0.00666647,-0.0438012
117.4,18.579,-0.100971,-0.0451536
117.8,18.6175,-0.18824,-0.0451203
118.2,18.655,-0.258665,-0.0451197
118.6,18.6929,-0.314481,-0.043148
119,18.7328,-0.360619,-0.0433131
119.4,18.7709,-0.396836,-0.0447915
119.8,18.8093,-0.425634,-0.0450813
120.2,18.8492,-0.450135,-0.0472081
120.6,18.8879,-0.46752,-0.0475516
121,18.9263,-0.480877,-0.0475638
121.4,18.9641,-0.492181,-0.0475301
121.8,19.0032,-0.501298,-0.0475298
122.2,19.0408,-0.50597,-0.0475298
122.6,19.0795,-0.51305,-0.0475447
123,19.118,-0.515611,-0.0475182
123.4,19.1574,-0.519415,-0.0468882
123.8,19.1951,-0.519698,-0.0475295
124.2,19.2344,-0.52283,-0.0474703
124.6,19.2725,-0.522243,-0.0488435
125,19.3119,-0.521945,-0.04885
125.4,19.3494,-0.522525,-0.0488459
125.8,19.3882,-0.520978,-0.0475092
126.2,19.427,-0.520869,-0.0475254
126.6,19.4649,-0.519638,-0.0485925
127,19.5036,-0.518115,-0.0485203
127.4,19.5423,-0.517665,-0.0485293
127.8,19.581,-0.516768,-0.047865
128.2,19.6184,-0.515155,-0.0488159
128.6,19.6571,-0.513929,-0.0488502
129,19.6961,-0.513457,-0.0488969
129.4,19.734,-0.511317,-0.047522
129.8,19.7739,-0.509942,-0.0461906
130.2,19.8118,-0.50854,-0.0475303
130.6,19.8503,-0.505806,-0.0475514
131,19.8886,-0.50482,-0.0488572
131.4,19.9246,-0.501511,-0.04885
131.8,19.966,-0.500984,-0.0488499
132.2,20.0046,-0.500306,-0.0488485
132.6,20.0431,-0.497495,-0.0493039
133,20.0812,-0.494778,-0.049532
133.4,20.1195,-0.494496,-0.0505128
133.8,20.1583,-0.492334,-0.0504778
134.2,20.1961,-0.490825,-0.0495394
134.6,20.2351,-0.488469,-0.0492531
135,20.2722,-0.486396,-0.0495236
135.4,20.3115,-0.48527,-0.0495101
135.8,20.3481,-0.48268,-0.0494991
136.2,20.3887,-0.482143,-0.0481726
136.6,20.427,-0.480222,-0.0481896
137,20.4656,-0.4774,-0.0481896
137.4,20.5028,-0.476983,-0.0481633
137.8,20.5422,-0.476411,-0.0495081
138.2,20.5802,-0.474339,-0.0495101
138.6,20.6177,-0.470752,-0.0487192
139,20.6574,-0.468867,-0.049457
139.4,20.6947,-0.466823,-0.0495086
139.8,20.7344,-0.464774,-0.0492501
140.2,20.7721,-0.463652,-0.0488514
140.6,20.8094,-0.463003,-0.0487728
141,20.8469,-0.458178,-0.0501687
141.4,20.8858,-0.458675,-0.0497849
141.8,20.9233,-0.456304,-0.0495126
142.2,20.9595,-0.455286,-0.0495849
142.6,20.9968,-0.454617,-0.050303
143,21.0352,-0.450901,-0.0501656
143.4,21.076,-0.45029,-0.049488
143.8,21.1145,-0.44835,-0.0505883
144.2,21.1522,-0.447302,-0.0508292
144.6,21.1905,-0.444798,-0.05083
145,21.2291,-0.443049,-0.0508301
145.4,21.2667,-0.442651,-0.0507843
145.8,21.3043,-0.440234,-0.0513553
146.2,21.3429,-0.438609,-0.0507615
146.6,21.3798,-0.43731,-0.0521487
147,21.4184,-0.434409,-0.0521494
147.4,21.4574,-0.434337,-0.0519377
147.8,21.495,-0.432815,-0.0503219
148.2,21.5306,-0.431956,-0.0501707
148.6,21.5691,-0.429124,-0.0501665
149,21.6082,-0.42782,-0.0512015
149.4,21.6464,-0.42625,-0.0507799
149.8,21.6848,-0.424488,-0.0521268
150.2,21.7232,-0.422677,-0.0518939
150.6,21.7608,-0.421197,-0.0508197
151,21.7993,-0.420325,-0.0508202
151.4,21.8363,-0.417205,-0.0508201
151.8,21.8742,-0.416172,-0.0507662
152.2,21.9124,-0.414714,-0.0520155
152.6,21.9504,-0.413075,-0.050829
153,21.9903,-0.411623,-0.0508249
153.4,22.0269,-0.408591,-0.0521584
153.8,22.0647,-0.408476,-0.0521503
154.2,22.1036,-0.407249,-0.05215
154.6,22.1411,-0.406298,-0.0521472
155,22.1791,-0.404909,-0.0508343
155.4,22.2146,-0.400905,-0.0508303
155.8,22.2549,-0.40125,-0.0508302
156.2,22.2926,-0.397782,-0.0508288
156.6,22.3308,-0.398023,-0.052109
157,22.3684,-0.395496,-0.0521401
157.4,22.406,-0.394654,-0.0521402
157.8,22.4444,-0.393481,-0.0521401
158.2,22.4832,-0.390944,-0.052124
158.6,22.5208,-0.389173,-0.0508204
159,22.5591,-0.387998,-0.0508617
159.4,22.5973,-0.38671,-0.0509358
159.8,22.6358,-0.384802,-0.0508209
160.2,22.6734,-0.383047,-0.0508201
160.6,22.7108,-0.381538,-0.0508174
161,22.7486,-0.379295,-0.0517594
161.4,22.7877,-0.377903,-0.0521401
161.8,22.8251,-0.376649,-0.0521401
162.2,22.8604,-0.375214,-0.0521402
162.6,22.9003,-0.373593,-0.0521425
163,22.9391,-0.371995,-0.0509061
163.4,22.9767,-0.370681,-0.0521786
163.8,23.0145,-0.367565,-0.0521501
164.2,23.0528,-0.367696,-0.0521402
164.6,23.0904,-0.365691,-0.0534294
165,23.1291,-0.364427,-0.0528059
165.4,23.1675,-0.364566,-0.0541182
165.8,23.2045,-0.361137,-0.0536484
166.2,23.2427,-0.358284,-0.0534617
166.6,23.2777,-0.358661,-0.0536724
167,23.3178,-0.355529,-0.0547824
167.4,23.3567,-0.354533,-0.0547802
167.8,23.3939,-0.352004,-0.0547796
168.2,23.4311,-0.351309,-0.0561767
168.6,23.4714,-0.349134,-0.0561113
169,23.5088,-0.348243,-0.0570951
169.4,23.5463,-0.346614,-0.0558084
169.8,23.584,-0.344584,-0.0557599
170.2,23.6227,-0.343589,-0.0543471
170.6,23.6606,-0.341341,-0.054453
171,23.6992,-0.339162,-0.0518383
171.4,23.7372,-0.338172,-0.0511642
171.8,23.7743,-0.334645,-0.0511605
172.2,23.8111,-0.334516,-0.0511445
172.6,23.8493,-0.33348,-0.0505144
173,23.8871,-0.331636,-0.0505003
173.4,23.9247,-0.33061,-0.0507674
173.8,23.9635,-0.329916,-0.0518217
174.2,24.0005,-0.328636,-0.0518345
174.6,24.039,-0.325828,-0.0531734
175,24.0781,-0.325962,-0.0546416
175.4,24.1166,-0.323619,-0.0532231
175.8,24.154,-0.323607,-0.0546701
176.2,24.1924,-0.321931,-0.0560458
176.6,24.2298,-0.322092,-0.0553469
177,24.2689,-0.320183,-0.0546693
177.4,24.3068,-0.317696,-0.0546701
177.8,24.3435,-0.31685,-0.0546721
178.2,24.3793,-0.315818,-0.0534777
178.6,24.42,-0.31415,-0.05269
179,24.4576,-0.311708,-0.0525953
179.4,24.4953,-0.311224,-0.0533478
179.8,24.5334,-0.311143,-0.0538271
180.2,24.572,-0.308872,-0.0540121
180.6,24.6089,-0.3074,-0.054345
181,24.648,-0.306229,-0.0543401
181.4,24.6851,-0.305456,-0.0543396
181.8,24.7232,-0.303936,-0.0548681
182.2,24.7614,-0.301627,-0.0542218
182.6,24.7995,-0.301091,-0.0556455
183,24.8368,-0.300306,-0.0556498
183.4,24.8749,-0.298045,-0.0556498
183.8,24.9114,-0.298687,-0.0556498
184.2,24.9499,-0.297418,-0.0556435
184.6,24.9891,-0.297637,-0.0568841
185,25.0274,-0.295728,-0.0567938
185.4,25.0647,-0.293641,-0.0556539
185.8,25.1023,-0.292301,-0.0556601
186.2,25.1405,-0.292063,-0.0556597
186.6,25.1767,-0.290897,-0.0556144
187,25.216,-0.289663,-0.0563864
187.4,25.2542,-0.287526,-0.0578421
187.8,25.2922,-0.286403,-0.0579599
188.2,25.3303,-0.284676,-0.0579602
188.6,25.3682,-0.284777,-0.0579602
189,25.4052,-0.281869,-0.0579602
189.4,25.442,-0.28222,-0.0579605
189.8,25.481,-0.280416,-0.0579757
190.2,25.5189,-0.27929,-0.0579508
190.6,25.5577,-0.278937,-0.0579699
191,25.5953,-0.277001,-0.05797
191.4,25.6329,-0.275242,-0.05797
191.8,25.6702,-0.275863,-0.05797
192.2,25.7087,-0.27375,-0.0579717
192.6,25.7467,-0.272839,-0.0581835
193,25.7845,-0.272108,-0.05927
193.4,25.823,-0.271026,-0.0579004
193.8,25.8603,-0.268837,-0.0579612
194.2,25.8983,-0.267936,-0.0592767
194.6,25.9348,-0.267145,-0.05928
195,25.9745,-0.265305,-0.0592829
195.4,26.0114,-0.264076,-0.0598638
195.8,26.0472,-0.262585,-0.0592768
196.2,26.0872,-0.261587,-0.0592749
196.6,26.126,-0.261743,-0.060401
197,26.1628,-0.260306,-0.0605998
197.4,26.2011,-0.256984,-0.0605998
197.8,26.2386,-0.256826,-0.0605998
198.2,26.2768,-0.256756,-0.0605998
198.6,26.315,-0.256381,-0.0605998
199,26.3526,-0.254321,-0.0605998
199.4,26.3912,-0.252945,-0.0605998
199.8,26.4296,-0.252818,-0.0605998
200.2,26.4659,-0.25167,-0.0606064
200.6,26.5039,-0.249799,-0.0595175
201,26.5411,-0.24775,-0.0596169
201.4,26.5802,-0.246667,-0.0592797
201.8,26.6176,-0.246816,-0.05928
202.2,26.6561,-0.245602,-0.05928
202.6,26.694,-0.244479,-0.0592771
203,26.7313,-0.243175,-0.05791
203.4,26.7696,-0.241891,-0.0579707
203.8,26.8068,-0.241273,-0.0594742
204.2,26.8432,-0.239617,-0.060608
204.6,26.8827,-0.238477,-0.0608534
205,26.9214,-0.236424,-0.0619152
205.4,26.9586,-0.234807,-0.0621908
205.8,26.9964,-0.234667,-0.0638975
206.2,27.0347,-0.232448,-0.0638901
206.6,27.0724,-0.232194,-0.0638901
207,27.1098,-0.23059,-0.0638904
207.4,27.1481,-0.228574,-0.0639384
207.8,27.1863,-0.22756,-0.0632281
208.2,27.2244,-0.225771,-0.0632301
208.6,27.2628,-0.224839,-0.0632304
209,27.2999,-0.22408,-0.0633144
209.4,27.3375,-0.222843,-0.0642231
209.8,27.3756,-0.221601,-0.0642206
210.2,27.4137,-0.220732,-0.0642938
210.6,27.4514,-0.218902,-0.0634513
211,27.4902,-0.217765,-0.0635597
211.4,27.5274,-0.216806,-0.0636809
211.8,27.5655,-0.216823,-0.0648815
212.2,27.6029,-0.214779,-0.0657107
212.6,27.6415,-0.213192,-0.0671823
213,27.6791,-0.212433,-0.067231
213.4,27.7164,-0.211578,-0.0685049
213.8,27.754,-0.20998,-0.0685001
214.2,27.7927,-0.208652,-0.0684854
214.6,27.8312,-0.206794,-0.0671377
215,27.8697,-0.205518,-0.0672129
215.4,27.9071,-0.206335,-0.0658846
215.8,27.9449,-0.203442,-0.06587
216.2,27.9826,-0.202802,-0.0658702
216.6,28.0187,-0.202507,-0.0658894
217,28.0584,-0.200911,-0.0665177
217.4,28.0967,-0.200187,-0.06653
217.8,28.1347,-0.198426,-0.0665345
218.2,28.1722,-0.19771,-0.0671983
218.6,28.2108,-0.196681,-0.0671814
219,28.2495,-0.19491,-0.0672327
219.4,28.286,-0.19362,-0.0684999
219.8,28.3233,-0.194134,-0.0684732
220.2,28.3617,-0.193188,-0.0688324
220.6,28.3997,-0.191018,-0.0688302
221,28.438,-0.190878,-0.0688374
221.4,28.4755,-0.188703,-0.0698193
221.8,28.514,-0.187285,-0.0698224
222.2,28.5511,-0.186126,-0.0701419
222.6,28.5893,-0.184865,-0.070151
223,28.625,-0.184074,-0.0715606
223.4,28.6659,-0.181345,-0.0714718
223.8,28.7034,-0.181088,-0.0728088
224.2,28.7417,-0.180478,-0.0727969
224.6,28.779,-0.179423,-0.0713369
225,28.8173,-0.177837,-0.0704772
225.4,28.8551,-0.176648,-0.0704794
225.8,28.8929,-0.17601,-0.0717916
226.2,28.9309,-0.176126,-0.0717982
226.6,28.9693,-0.174084,-0.0726465
227,29.0071,-0.173601,-0.0744211
227.4,29.0455,-0.173416,-0.0751432
227.8,29.0831,-0.172412,-0.0757194
228.2,29.1199,-0.172222,-0.0770506
228.6,29.1594,-0.170163,-0.0770607
229,29.1973,-0.169719,-0.0762114
229.4,29.2344,-0.168836,-0.0757473
229.8,29.2713,-0.167877,-0.0757398
230.2,29.3121,-0.166495,-0.0757499
230.6,29.3495,-0.165145,-0.0757425
231,29.3866,-0.164454,-0.0770367
231.4,29.4251,-0.162771,-0.07706
231.8,29.4631,-0.162411,-0.07706
232.2,29.5017,-0.159965,-0.0770601
232.6,29.54,-0.16065,-0.0770703
233,29.5772,-0.159558,-0.0784012
233.4,29.6152,-0.158277,-0.0783545
233.8,29.654,-0.157725,-0.0793558
234.2,29.6924,-0.155891,-0.07937
234.6,29.7301,-0.154835,-0.0793697
235,29.7675,-0.155293,-0.0796951
235.4,29.8063,-0.154338,-0.0796998
235.8,29.844,-0.153328,-0.0796998
236.2,29.882,-0.153988,-0.0802167
236.6,29.9207,-0.152832,-0.0821107
237,29.9578,-0.151334,-0.0820102
237.4,29.9951,-0.149183,-0.082009
237.8,30.0335,-0.149334,-0.0830676
238.2,30.072,-0.147362,-0.0850386
238.6,30.1086,-0.14596,-0.0849703
239,30.1482,-0.144347,-0.0849698
239.4,30.1852,-0.143796,-0.0849698
239.8,30.2244,-0.142675,-0.0849696
240.2,30.2619,-0.142359,-0.0849509
240.6,30.2999,-0.140252,-0.0862907
241,30.3372,-0.13921,-0.0862901
241.4,30.3763,-0.138147,-0.08629
241.8,30.4134,-0.13736,-0.0862901
242.2,30.4521,-0.136024,-0.0862995
242.6,30.49,-0.13614,-0.0866008
243,30.5285,-0.135077,-0.0866098
243.4,30.5662,-0.134723,-0.0868258
243.8,30.6041,-0.133269,-0.0886549
244.2,30.6431,-0.131096,-0.0889596
244.6,30.6801,-0.130888,-0.08892
245,30.7182,-0.129892,-0.0889328
245.4,30.7557,-0.129122,-0.0905824
245.8,30.7932,-0.12802,-0.0915593
246.2,30.8315,-0.12771,-0.0926462
246.6,30.8704,-0.126189,-0.0928698
247,30.908,-0.125947,-0.0928698
247.4,30.946,-0.126258,-0.0928698
247.8,30.9849,-0.125351,-0.0928694
248.2,31.0229,-0.123692,-0.0928122
248.6,31.0593,-0.123209,-0.0951228
249,31.0988,-0.122787,-0.0955094
249.4,31.1367,-0.122848,-0.0946972
249.8,31.1742,-0.121362,-0.0945207
250.2,31.2126,-0.121494,-0.0944251
250.6,31.2508,-0.119854,-0.0955473
251,31.2894,-0.119896,-0.0968288
251.4,31.327,-0.11805,-0.0968571
251.8,31.3643,-0.117296,-0.0981531
252.2,31.4028,-0.116776,-0.0981585
252.6,31.4408,-0.11628,-0.099479
253,31.479,-0.115723,-0.09946
253.4,31.5166,-0.112877,-0.0994601
253.8,31.5556,-0.113155,-0.0994496
254.2,31.5927,-0.111879,-0.100909
254.6,31.6314,-0.111561,-0.100781
255,31.6699,-0.110265,-0.100778
255.4,31.7071,-0.109697,-0.101113
255.8,31.7449,-0.109603,-0.10177
256.2,31.7841,-0.108746,-0.103749
256.6,31.8213,-0.106902,-0.102867
257,31.8595,-0.106692,-0.10275
257.4,31.8962,-0.10639,-0.10275
257.8,31.9341,-0.105646,-0.103304
258.2,31.9733,-0.104783,-0.104088
258.6,32.0109,-0.10494,-0.105394
259,32.0482,-0.103169,-0.10539
259.4,32.0875,-0.102323,-0.105391
259.8,32.1255,-0.101598,-0.106778
260.2,32.1608,-0.100839,-0.106705
260.6,32.2009,-0.0995209,-0.108022
261,32.2389,-0.0997482,-0.10802
261.4,32.2772,-0.0995493,-0.108018
261.8,32.3153,-0.0983719,-0.109875
262.2,32.3531,-0.0955976,-0.110659
262.6,32.3893,-0.0956251,-0.11066
263,32.429,-0.093137,-0.11066
263.4,32.4675,-0.0937333,-0.110676
263.8,32.5058,-0.0928096,-0.111997
264.2,32.5434,-0.0921946,-0.11198
264.6,32.5804,-0.0910188,-0.11198
265,32.6196,-0.0922237,-0.11198
265.4,32.6569,-0.0910879,-0.11198
265.8,32.6953,-0.0904562,-0.11198
266.2,32.7333,-0.0890154,-0.111983
266.6,32.7711,-0.0892332,-0.112778
267,32.8101,-0.0886144,-0.11461
267.4,32.8469,-0.0884402,-0.115284
267.8,32.8851,-0.0868641,-0.115931
268.2,32.9235,-0.087252,-0.11593
268.6,32.9612,-0.0860495,-0.11593
269,33,-0.0854111,-0.116285
269.4,33.0383,-0.0844791,-0.11857
269.8,33.076,-0.0842821,-0.11856
270.2,33.1131,-0.0840031,-0.118559
270.6,33.1533,-0.0824467,-0.119191
271,33.1897,-0.0816238,-0.11988
271.4,33.2281,-0.0818097,-0.119891
271.8,33.2676,-0.08138,-0.120867
272.2,33.305,-0.0818376,-0.120869
272.6,33.3432,-0.0796356,-0.121182
273,33.381,-0.0788074,-0.12114
273.4,33.4178,-0.0797379,-0.1225
273.8,33.4572,-0.0786409,-0.122509
274.2,33.4948,-0.0790767,-0.123803
274.6,33.5327,-0.0761449,-0.12482
275,33.5715,-0.0770721,-0.12515
275.4,33.6098,-0.0759606,-0.125157
275.8,33.6475,-0.0753376,-0.1239
276.2,33.6855,-0.0748547,-0.123823
276.6,33.7238,-0.0748571,-0.125043
277,33.7625,-0.0740448,-0.125793
277.4,33.7996,-0.0735289,-0.12647
277.8,33.8382,-0.0733259,-0.127782
278.2,33.8761,-0.0723048,-0.12779
278.6,33.9144,-0.0713439,-0.12779
279,33.9518,-0.0703259,-0.12779
279.4,33.9908,-0.0708676,-0.12779
279.8,34.0291,-0.0703123,-0.12779
280.2,34.0671,-0.0688039,-0.12779
280.6,34.103,-0.0694267,-0.127755
281,34.1409,-0.0685518,-0.129093
281.4,34.1787,-0.0669519,-0.129108
281.8,34.2193,-0.0665344,-0.130405
282.2,34.2562,-0.0648646,-0.129099
282.6,34.2962,-0.0655827,-0.1291
283,34.334,-0.0646317,-0.129111
283.4,34.3722,-0.0640192,-0.130462
283.8,34.41,-0.0623038,-0.131742
284.2,34.449,-0.0621924,-0.131746
284.6,34.4865,-0.0620588,-0.133099
285,34.5247,-0.0616639,-0.13306
285.4,34.5626,-0.060831,-0.13306
285.8,34.6008,-0.0600084,-0.133061
286.2,34.6393,-0.0596831,-0.133862
286.6,34.6781,-0.058007,-0.134381
287,34.7154,-0.0577231,-0.133612
287.4,34.7541,-0.0565087,-0.133058
287.8,34.7912,-0.0550758,-0.134517
288.2,34.8305,-0.0552306,-0.135691
288.6,34.8686,-0.0572267,-0.135683
289,34.9062,-0.0535918,-0.136934
289.4,34.9448,-0.0535431,-0.137
289.8,34.9822,-0.0522852,-0.136997
290.2,35.0207,-0.0522309,-0.138046
290.6,35.0593,-0.0508867,-0.138646
291,35.0979,-0.0503962,-0.138606
291.4,35.1357,-0.0510559,-0.138983
291.8,35.174,-0.0494333,-0.13898
292.2,35.212,-0.0497163,-0.13898
292.6,35.2514,-0.0494637,-0.139227
293,35.2883,-0.0474856,-0.140645
293.4,35.3272,-0.0472429,-0.14063
293.8,35.3653,-0.0468126,-0.14063
294.2,35.4036,-0.0460217,-0.14063
294.6,35.4416,-0.0452803,-0.14063
295,35.4807,-0.0447986,-0.14063
295.4,35.5179,-0.0444942,-0.14063
295.8,35.5561,-0.0451212,-0.14063
296.2,35.5944,-0.0438108,-0.14063
296.6,35.6321,-0.0432094,-0.140613
297,35.6708,-0.0425977,-0.140959
297.4,35.7091,-0.0418464,-0.142285
297.8,35.7482,-0.0413232,-0.14227
298.2,35.7863,-0.0420915,-0.14227
298.6,35.8235,-0.0410657,-0.14227
299,35.8623,-0.0393955,-0.142249
299.4,35.9005,-0.0385869,-0.143586
299.8,35.9392,-0.03782,-0.14359
300.2,35.9767,-0.038314,-0.14359
300.6,36.0149,-0.0376203,-0.143589
301,36.0535,-0.036131,-0.144282
301.4,36.0917,-0.0360093,-0.144909
301.8,36.1309,-0.0359171,-0.14491
302.2,36.1669,-0.0355333,-0.14491
302.6,36.2064,-0.033152,-0.14491
303,36.2449,-0.0320172,-0.14491
303.4,36.2804,-0.0322563,-0.14491
303.8,36.322,-0.0308939,-0.144911
304.2,36.3598,-0.0305246,-0.144584
304.6,36.3988,-0.0295427,-0.14458
305,36.4362,-0.0291903,-0.14458
305.4,36.4742,-0.0281277,-0.144581
305.8,36.5113,-0.0274219,-0.14463
306.2,36.5514,-0.0281628,-0.147114
306.6,36.589,-0.0258222,-0.147219
307,36.6266,-0.0254566,-0.14722
307.4,36.6666,-0.0252144,-0.147259
307.8,36.7045,-0.0249577,-0.149865
308.2,36.7435,-0.0238467,-0.14986
308.6,36.7817,-0.023909,-0.149871
309,36.8202,-0.0229765,-0.148557
309.4,36.8581,-0.0209125,-0.14854
309.8,36.8964,-0.0195907,-0.14854
310.2,36.9342,-0.0210059,-0.14854
310.6,36.9715,-0.0194544,-0.148544
311,37.0111,-0.0188772,-0.149874
311.4,37.0487,-0.0175133,-0.149849
311.8,37.0876,-0.0160912,-0.149809
312.2,37.1251,-0.0157078,-0.150513
312.6,37.1639,-0.0144134,-0.150503
313,37.2026,-0.0120545,-0.151839
313.4,37.241,-0.0117183,-0.152161
313.8,37.2788,-0.00955831,-0.152153
314.2,37.3175,-0.00894603,-0.153376
314.6,37.3538,-0.00561096,-0.15347
315,37.3923,-0.00307514,-0.15347
315.4,37.4301,-0.0011689,-0.153471
315.8,37.47,9.46706e-08,-0.154464
316.2,37.5089,0.0018999,-0.155119
316.6,37.547,0.00285003,-0.154879
317,37.5847,0.00385997,-0.155091
317.4,37.6235,0.00558468,-0.15512
317.8,37.6615,0.00771304,-0.15512
318.2,37.7,0.00859856,-0.15512
318.6,37.7389,0.00918817,-0.155087
319,37.7762,0.0112185,-0.154931
319.4,37.8155,0.0122065,-0.155119
319.8,37.8536,0.0120435,-0.155131
320.2,37.8925,0.0142487,-0.15649
320.6,37.93,0.0148669,-0.15644
321,37.9685,0.0168791,-0.156454
321.4,38.0058,0.0165552,-0.157758
321.8,38.0439,0.017508,-0.157828
322.2,38.0823,0.0191273,-0.157775
322.6,38.1226,0.0211384,-0.157707
323,38.1601,0.0217374,-0.15907
323.4,38.1986,0.0213373,-0.159077
323.8,38.2364,0.0241666,-0.15801
324.2,38.276,0.0254197,-0.159453
324.6,38.3127,0.0260229,-0.1594
325,38.3504,0.0274739,-0.1594
325.4,38.3906,0.0284369,-0.1594
325.8,38.4287,0.0301865,-0.160725
326.2,38.4671,0.0328396,-0.161694
326.6,38.505,0.0320707,-0.161788
327,38.5425,0.0339435,-0.163026
327.4,38.5815,0.0358976,-0.16302
327.8,38.6196,0.0360692,-0.16302
328.2,38.6589,0.0386911,-0.163591
328.6,38.6966,0.0387057,-0.164343
329,38.7363,0.0392905,-0.164368
329.4,38.7738,0.0404373,-0.164042
329.8,38.8125,0.0411444,-0.164681
330.2,38.8501,0.0438022,-0.16467
330.6,38.8896,0.0455701,-0.16467
331,38.9275,0.0459207,-0.164804
331.4,38.9655,0.0480359,-0.165997
331.8,39.004,0.0493278,-0.16592
332.2,39.0425,0.0505095,-0.167298
332.6,39.0812,0.053043,-0.167349
333,39.1201,0.0533006,-0.168279
333.4,39.1579,0.0542772,-0.168289
333.8,39.1964,0.0553471,-0.170764
334.2,39.2355,0.056651,-0.17093
334.6,39.2738,0.0580038,-0.170949
335,39.3121,0.0591305,-0.172258
335.4,39.3499,0.0592554,-0.17225
335.8,39.389,0.0606531,-0.173551
336.2,39.4267,0.0609816,-0.173552
336.6,39.4671,0.0633825,-0.174851
337,39.505,0.0645978,-0.174877
337.4,39.5434,0.0660809,-0.17603
337.8,39.5824,0.0672164,-0.176288
338.2,39.6202,0.0693866,-0.17752
338.6,39.6588,0.0699409,-0.177514
339,39.6978,0.070633,-0.17966
339.4,39.7344,0.0730054,-0.180156
339.8,39.7727,0.0739632,-0.181303
340.2,39.8134,0.074791,-0.181488
340.6,39.8521,0.0771086,-0.182798
341,39.8901,0.0785454,-0.183789
341.4,39.9283,0.0794374,-0.184106
341.8,39.9667,0.0807445,-0.184718
342.2,40.0042,0.080328,-0.184132
342.6,40.0441,0.081758,-0.185431
343,40.0833,0.0834437,-0.185421
343.4,40.1209,0.085256,-0.185476
343.8,40.16,0.0859641,-0.188024
344.2,40.1981,0.086758,-0.188882
344.6,40.2368,0.0888173,-0.189329
345,40.276,0.0891625,-0.190679
345.4,40.3148,0.0890403,-0.190726
345.8,40.3519,0.090904,-0.192248
346.2,40.3909,0.0938486,-0.193556
346.6,40.4294,0.0941032,-0.194853
347,40.4673,0.0961813,-0.19487
347.4,40.5078,0.0962409,-0.196112
347.8,40.5459,0.0982216,-0.195125
348.2,40.5838,0.0992931,-0.196496
348.6,40.6229,0.0989662,-0.196628
349,40.6599,0.100828,-0.197831
349.4,40.6985,0.101386,-0.199163
349.8,40.7391,0.100955,-0.199331
350.2,40.7748,0.100268,-0.201762
350.6,40.8157,0.099786,-0.203134
351,40.8551,0.0993213,-0.204464
351.4,40.894,0.0998583,-0.20671
351.8,40.9318,0.0996724,-0.208153
352.2,40.9711,0.100418,-0.209105
352.6,41.0102,0.0996135,-0.20968
353,41.0472,0.0994484,-0.210114
353.4,41.086,0.0997407,-0.211003
353.8,41.1255,0.09957,-0.211982
354.2,41.1639,0.0993466,-0.212621
354.6,41.2023,0.0998041,-0.213047
355,41.2409,0.100902,-0.213743
355.4,41.2789,0.0991157,-0.213707
355.8,41.3182,0.100558,-0.215049
356.2,41.3563,0.0997094,-0.216395
356.6,41.3954,0.100414,-0.216266
357,41.4338,0.0997559,-0.217712
357.4,41.4727,0.099462,-0.219029
357.8,41.5113,0.0993142,-0.220556
358.2,41.5492,0.0991658,-0.223185
358.6,41.5889,0.0991984,-0.223176
359,41.626,0.0987112,-0.223054
359.4,41.6662,0.0967992,-0.22454
359.8,41.7048,0.0970416,-0.225526
360.2,41.7422,0.0967305,-0.225986
360.6,41.7819,0.0973356,-0.228436
361,41.8212,0.0958206,-0.229807
361.4,41.8598,0.0960591,-0.229759
361.8,41.8978,0.095313,-0.231083
362.2,41.9369,0.0943968,-0.232384
362.6,41.9753,0.0929976,-0.232424
363,42.0134,0.0922111,-0.23376
363.4,42.0536,0.0902016,-0.235169
363.8,42.0927,0.0898689,-0.235055
364.2,42.13,0.0888123,-0.23636
364.6,42.1704,0.0884475,-0.235993
365,42.2083,0.0865552,-0.23637
365.4,42.2468,0.0855138,-0.237705
365.8,42.2854,0.0841982,-0.238859
366.2,42.3242,0.0828223,-0.240689
366.6,42.3629,0.0815354,-0.241655
367,42.4006,0.0810825,-0.242972
367.4,42.4404,0.0785573,-0.242964
367.8,42.4794,0.0785287,-0.242948
368.2,42.5181,0.0773822,-0.244266
368.6,42.5569,0.0766735,-0.245763
369,42.5957,0.0753452,-0.246906
369.4,42.6342,0.0745471,-0.246897
369.8,42.6734,0.0741947,-0.247901
370.2,42.7119,0.0726221,-0.250068
370.6,42.7501,0.0720842,-0.24998
371,42.7893,0.0723674,-0.252306
371.4,42.8284,0.0697015,-0.252275
371.8,42.8655,0.0697671,-0.253568
372.2,42.9056,0.0689473,-0.253602
372.6,42.9446,0.0676983,-0.255004
373,42.9816,0.0679048,-0.255713
373.4,43.0214,0.0661357,-0.256281
373.8,43.0594,0.065463,-0.257549
374.2,43.0994,0.0640241,-0.25755
374.6,43.1385,0.0635495,-0.258863
375,43.1761,0.063192,-0.259216
375.4,43.215,0.0618306,-0.260031
375.8,43.2529,0.0599983,-0.26003
376.2,43.2919,0.0587112,-0.26018
376.6,43.3312,0.059033,-0.260179
377,43.3683,0.0586624,-0.259783
377.4,43.4085,0.0560123,-0.260168
377.8,43.4471,0.0555763,-0.262958
378.2,43.4858,0.0537106,-0.263912
378.6,43.5246,0.0526145,-0.264513
379,43.5639,0.0500783,-0.265595
379.4,43.6017,0.0491144,-0.26556
379.8,43.6405,0.0477054,-0.265557
380.2,43.68,0.0468927,-0.26688
380.6,43.7178,0.044667,-0.267347
381,43.7556,0.0424941,-0.268203
381.4,43.7957,0.0418653,-0.268238
381.8,43.8348,0.0411893,-0.266888
382.2,43.8729,0.0390195,-0.266888
382.6,43.9107,0.0384882,-0.268201
383,43.9515,0.0377202,-0.268748
383.4,43.9894,0.0355026,-0.269512
383.8,44.0276,0.0350012,-0.270266
384.2,44.0662,0.0349162,-0.27083
384.6,44.1047,0.0330617,-0.270824
385,44.1439,0.033505,-0.272082
385.4,44.1835,0.0323915,-0.272741
385.8,44.2214,0.032224,-0.273528
386.2,44.2603,0.0318942,-0.274792
386.6,44.2989,0.0301318,-0.276096
387,44.3384,0.0292572,-0.276115
387.4,44.3762,0.0291688,-0.274796
387.8,44.4157,0.0292849,-0.27478
388.2,44.4545,0.0284498,-0.27478
388.6,44.4934,0.0283003,-0.274775
389,44.5319,0.0280509,-0.275902
389.4,44.5709,0.027915,-0.2761
389.8,44.6091,0.0280202,-0.2761
390.2,44.6478,0.0268116,-0.277242
390.6,44.6871,0.0285678,-0.277418
391,44.7236,0.0277997,-0.27742
391.4,44.7633,0.0287041,-0.27742
391.8,44.8036,0.0288946,-0.277427
392.2,44.8418,0.0295135,-0.278775
392.6,44.881,0.028812,-0.278731
393,44.9201,0.0302002,-0.280049
393.4,44.9581,0.0316194,-0.280045
393.8,44.9972,0.0314869,-0.281373
394.2,45.0354,0.0315695,-0.280715
394.6,45.0754,0.0329728,-0.28071
395,45.1148,0.0338069,-0.280702
395.4,45.1532,0.0340803,-0.281929
395.8,45.1913,0.0352796,-0.28203
396.2,45.2303,0.0355544,-0.282035
396.6,45.2699,0.036353,-0.284714
397,45.3087,0.037373,-0.28467
397.4,45.3478,0.0374744,-0.28467
397.8,45.386,0.0390253,-0.284636
398.2,45.4241,0.0404368,-0.285963
398.6,45.4633,0.040194,-0.285981
399,45.5033,0.0419126,-0.287409
399.4,45.5412,0.0423229,-0.287297
399.8,45.5808,0.0429861,-0.288382
400.2,45.6193,0.0440148,-0.289937
400.6,45.6582,0.0441269,-0.289941
401,45.6963,0.0464235,-0.29053
401.4,45.7367,0.0467485,-0.29126
401.8,45.7747,0.0489623,-0.291152
402.2,45.8136,0.0480603,-0.291251
402.6,45.8524,0.0500637,-0.292774
403,45.8894,0.0495122,-0.29329
403.4,45.93,0.0503693,-0.294
403.8,45.9694,0.052396,-0.294
404.2,46.008,0.0528783,-0.293951
404.6,46.0471,0.0533151,-0.295303
405,46.0856,0.0550196,-0.295323
405.4,46.1251,0.0567382,-0.296684
405.8,46.1622,0.0570692,-0.29663
406.2,46.203,0.0598646,-0.296629
406.6,46.2421,0.0609599,-0.297937
407,46.281,0.0602788,-0.299274
407.4,46.3192,0.0630312,-0.300195
407.8,46.3582,0.0638317,-0.301456
408.2,46.3982,0.0660565,-0.302885
408.6,46.4367,0.0669059,-0.303006
409,46.4759,0.0685841,-0.304209
409.4,46.5147,0.0690998,-0.305454
409.8,46.5538,0.0700751,-0.30553
410.2,46.5921,0.0718709,-0.305549
410.6,46.6318,0.0732511,-0.306846
411,46.6701,0.0743584,-0.307523
411.4,46.7091,0.0752547,-0.308745
411.8,46.7483,0.0764696,-0.309815
412.2,46.788,0.0773868,-0.311182
412.6,46.8267,0.0782527,-0.313319
413,46.8658,0.0802482,-0.314903
413.4,46.9046,0.08213,-0.315992
413.8,46.9437,0.0833663,-0.315962
414.2,46.9805,0.0841375,-0.316298
414.6,47.0214,0.0852741,-0.316283
415,47.0594,0.0867035,-0.316284
415.4,47.0999,0.0877118,-0.317596
415.8,47.139,0.0894028,-0.319558
416.2,47.1784,0.0916961,-0.321164
416.6,47.2173,0.0921219,-0.322713
417,47.2546,0.0937054,-0.324037
417.4,47.293,0.0951566,-0.324744
417.8,47.3328,0.0978946,-0.3254
418.2,47.3728,0.0985418,-0.32679
418.6,47.4117,0.100646,-0.327189
419,47.45,0.10274,-0.32836
419.4,47.4896,0.105811,-0.329783
419.8,47.5287,0.108579,-0.331315
420.2,47.5673,0.110919,-0.332889
420.6,47.6061,0.111689,-0.334331
421,47.6462,0.114362,-0.335739
421.4,47.6842,0.117208,-0.33741
421.8,47.7238,0.120871,-0.340091
422.2,47.7628,0.123069,-0.341003
422.6,47.8019,0.127292,-0.343283
423,47.8404,0.129709,-0.345491
423.4,47.879,0.133398,-0.347475
423.8,47.9184,0.135398,-0.349318
424.2,47.9575,0.139335,-0.351392
424.6,47.9966,0.141636,-0.351641
425,48.035,0.144904,-0.352994
425.4,48.0741,0.148404,-0.354882
425.8,48.1128,0.151277,-0.35755
426.2,48.1525,0.155747,-0.359329
426.6,48.1886,0.156951,-0.361936
427,48.2307,0.160047,-0.363321
427.4,48.2693,0.164534,-0.365937
427.8,48.309,0.169098,-0.368108
428.2,48.3468,0.171786,-0.37272
428.6,48.386,0.174962,-0.376109
429,48.425,0.177082,-0.378357
429.4,48.4638,0.180597,-0.379876
429.8,48.503,0.185446,-0.382011
430.2,48.5417,0.18903,-0.383065
430.6,48.5805,0.191699,-0.385085
431,48.6204,0.195276,-0.388207
431.4,48.6596,0.199065,-0.391108
431.8,48.6979,0.203293,-0.393393
432.2,48.7371,0.206343,-0.396714
432.6,48.7762,0.212086,-0.40038
433,48.8163,0.21595,-0.404233
433.4,48.8546,0.219602,-0.40733
433.8,48.8938,0.224366,-0.410032
434.2,48.9326,0.229578,-0.412996
434.6,48.9716,0.234573,-0.416074
435,49.0116,0.236939,-0.420622
435.4,49.0497,0.244082,-0.423521
435.8,49.088,0.247896,-0.426967
436.2,49.1282,0.253852,-0.430714
436.6,49.1672,0.259332,-0.434523
437,49.2065,0.265195,-0.43981
437.4,49.246,0.268324,-0.445428
437.8,49.2843,0.274682,-0.450296
438.2,49.324,0.280304,-0.454484
438.6,49.3628,0.286145,-0.458866
439,49.402,0.292246,-0.463388
439.4,49.442,0.298399,-0.468469
439.8,49.4804,0.303967,-0.472226
440.2,49.5183,0.310106,-0.476138
440.6,49.5589,0.315316,-0.480858
441,49.598,0.321057,-0.486601
441.4,49.6368,0.329511,-0.490762
441.8,49.6759,0.334612,-0.495334
442.2,49.7157,0.341726,-0.500459
442.6,49.7532,0.348246,-0.505777
443,49.7938,0.357795,-0.513245
443.4,49.8316,0.362161,-0.51938
443.8,49.8704,0.369108,-0.525246
444.2,49.9099,0.375788,-0.531773
444.6,49.9501,0.383264,-0.537874
445,49.9873,0.390934,-0.543735
445.4,50.0285,0.399747,-0.549858
445.8,50.0662,0.406771,-0.556564
446.2,50.1076,0.415648,-0.565404
446.6,50.1455,0.423332,-0.571072
447,50.1854,0.43029,-0.579275
447.4,50.2237,0.439896,-0.587249
447.8,50.2631,0.449573,-0.597026
448.2,50.3027,0.456437,-0.604446
448.6,50.3409,0.464522,-0.612981
449,50.3812,0.475492,-0.621426
449.4,50.4199,0.483279,-0.627194
449.8,50.4592,0.493096,-0.637047
450.2,50.4981,0.5024,-0.646019
450.6,50.5371,0.511301,-0.655045
451,50.5758,0.521738,-0.665361
451.4,50.6159,0.531925,-0.67662
451.8,50.6554,0.54038,-0.687617
452.2,50.6944,0.550769,-0.698586
452.6,50.7325,0.560513,-0.70746
453,50.7728,0.571986,-0.719087
453.4,50.8111,0.582963,-0.730111
453.8,50.8499,0.594825,-0.740888
454.2,50.8899,0.60617,-0.753512
454.6,50.9298,0.621068,-0.766755
455,50.969,0.633805,-0.778726
455.4,51.0072,0.647031,-0.793598
455.8,51.0478,0.659397,-0.808842
456.2,51.0865,0.674047,-0.823105
456.6,51.1248,0.685925,-0.837039
457,51.1641,0.69701,-0.851181
457.4,51.2037,0.71159,-0.86675
457.8,51.2434,0.724885,-0.881857
458.2,51.282,0.736923,-0.89757
458.6,51.3219,0.749177,-0.915225
459,51.3598,0.762739,-0.93014
459.4,51.3986,0.776282,-0.946726
459.8,51.4392,0.789404,-0.965388
460.2,51.48,0.8037,-0.9842
460.6,51.5194,0.819393,-1.00334
461,51.5584,0.83112,-1.02138
461.4,51.5975,0.846068,-1.04183
461.8,51.6362,0.857733,-1.06248
462.2,51.6743,0.873165,-1.0826
462.6,51.7152,0.889666,-1.10406
463,51.7549,0.902607,-1.12598
463.4,51.7933,0.91558,-1.14931
463.8,51.8335,0.93235,-1.17373
464.2,51.8726,0.945869,-1.19746
464.6,51.9126,0.961496,-1.22102
465,51.9518,0.977087,-1.24624
465.4,51.991,0.990706,-1.27158
465.8,52.0293,1.00746,-1.29727
466.2,52.0693,1.02203,-1.32393
466.6,52.1082,1.03449,-1.35041
467,52.1472,1.05105,-1.37714
467.4,52.1869,1.06443,-1.4055
467.8,52.2255,1.07835,-1.43364
468.2,52.2647,1.09489,-1.46462
468.6,52.3054,1.10843,-1.49557
469,52.3449,1.12134,-1.52545
469.4,52.383,1.13613,-1.55572
469.8,52.4229,1.14779,-1.58832
470.2,52.4618,1.16055,-1.62048
470.6,52.5015,1.1753,-1.65257
471,52.5401,1.18543,-1.68602
471.4,52.5808,1.1982,-1.72208
471.8,52.6192,1.20774,-1.75771
472.2,52.6583,1.2217,-1.79355
472.6,52.6983,1.23084,-1.83033
473,52.7372,1.2414,-1.86615
473.4,52.7763,1.24925,-1.90326
473.8,52.8161,1.25783,-1.94233
474.2,52.8553,1.26456,-1.98034
474.6,52.8942,1.27367,-2.01938
475,52.9344,1.27849,-2.05935
475.4,52.9723,1.28525,-2.09807
475.8,53.0124,1.28578,-2.13968
476.2,53.0517,1.29096,-2.18125
476.6,53.0913,1.29421,-2.22261
477,53.1281,1.29355,-2.26251
477.4,53.1696,1.29426,-2.30727
477.8,53.2084,1.29535,-2.34935
478.2,53.2471,1.29135,-2.39132
478.6,53.2871,1.28836,-2.43595
479,53.3268,1.28249,-2.47905
479.4,53.3671,1.27722,-2.52437
479.8,53.4059,1.27316,-2.57017
480.2,53.4445,1.26438,-2.61389
480.6,53.484,1.25619,-2.65895
481,53.5209,1.24787,-2.70256
481.4,53.5625,1.23757,-2.7507
481.8,53.6016,1.2265,-2.79517
482.2,53.6403,1.21103,-2.83969
482.6,53.6799,1.19628,-2.88519
483,53.7195,1.17872,-2.929
483.4,53.7589,1.16072,-2.9738
483.8,53.7983,1.13978,-3.01889
484.2,53.8382,1.11951,-3.0636
484.6,53.8764,1.09471,-3.10759
485,53.9149,1.06935,-3.15079
485.4,53.9553,1.04119,-3.19411
485.8,53.9912,1.01484,-3.23211
486.2,54.0332,0.981049,-3.27559
486.6,54.0724,0.952507,-3.31577
487,54.1118,0.920236,-3.35614
487.4,54.1504,0.886412,-3.39496
487.8,54.1893,0.84803,-3.43369
488.2,54.2299,0.810224,-3.47281
488.6,54.2677,0.771719,-3.50761
489,54.3078,0.73012,-3.54526
489.4,54.3471,0.689779,-3.58014
489.8,54.3859,0.647234,-3.61308
490.2,54.4253,0.606227,-3.64393
490.6,54.4639,0.563207,-3.67409
491,54.5033,0.519381,-3.70338
491.4,54.5424,0.476108,-3.73106
491.8,54.5818,0.432938,-3.75747
492.2,54.6207,0.389417,-3.78104
492.6,54.6595,0.348101,-3.80467
493,54.6986,0.307744,-3.82622
493.4,54.7353,0.269965,-3.84641
493.8,54.7773,0.229671,-3.86795
494.2,54.8151,0.193004,-3.8862
494.6,54.8547,0.156402,-3.90314
495,54.8941,0.12416,-3.91907
495.4,54.9325,0.0904524,-3.93389
495.8,54.9724,0.0586335,-3.94641
496.2,55.0115,0.0296039,-3.95867
496.6,55.0505,0.000746203,-3.96989
497,55.0899,-0.0260993,-3.98179
497.4,55.1291,-0.0530906,-3.99258
497.8,55.168,-0.0772465,-4.00138
498.2,55.2065,-0.100021,-4.00927
498.6,55.2456,-0.121256,-4.01515
499,55.2859,-0.142929,-4.0202
499.4,55.3226,-0.159412,-4.02639
499.8,55.3644,-0.180282,-4.03089
500.2,55.4039,-0.197502,-4.03486
500.6,55.4419,-0.210344,-4.03876
501,55.483,-0.22732,-4.04217
501.4,55.5217,-0.240025,-4.04537
501.8,55.5586,-0.249184,-4.04789
502.2,55.5998,-0.263383,-4.05046
502.6,55.64,-0.27404,-4.05407
503,55.6791,-0.282627,-4.05541
503.4,55.7183,-0.289223,-4.05796
503.8,55.7585,-0.29718,-4.05803
504.2,55.7964,-0.303274,-4.05932
504.6,55.8364,-0.309547,-4.06097
505,55.8766,-0.314594,-4.06159
505.4,55.9152,-0.31857,-4.06089
505.8,55.9544,-0.320165,-4.0623
506.2,55.9938,-0.322369,-4.0623
506.6,56.0343,-0.325077,-4.0623
507,56.0731,-0.325357,-4.0623
507.4,56.1123,-0.325097,-4.06247
507.8,56.1519,-0.325065,-4.06362
508.2,56.1926,-0.325575,-4.06361
508.6,56.2315,-0.324795,-4.06224
509,56.2698,-0.322298,-4.06263
509.4,56.3086,-0.322089,-4.06263
509.8,56.349,-0.320659,-4.06354
510.2,56.3889,-0.320203,-4.06362
510.6,56.4282,-0.315202,-4.0636
511,56.4668,-0.314063,-4.06288
511.4,56.5066,-0.313437,-4.06188
511.8,56.5455,-0.31281,-4.06164
512.2,56.585,-0.31165,-4.06156
512.6,56.6239,-0.311112,-4.06033
513,56.6635,-0.31234,-4.06164
513.4,56.7036,-0.310751,-4.06164
513.8,56.743,-0.310879,-4.06164
514.2,56.7818,-0.311242,-4.06164
514.6,56.8216,-0.311908,-4.06165
515,56.8589,-0.312474,-4.06301
515.4,56.8998,-0.312786,-4.06296
515.8,56.9372,-0.313595,-4.06296
516.2,56.9799,-0.313255,-4.06287
516.6,57.0188,-0.315462,-4.06428
517,57.058,-0.317772,-4.06428
517.4,57.0975,-0.319853,-4.06428
517.8,57.1376,-0.321199,-4.06428
518.2,57.1769,-0.322966,-4.06428
518.6,57.2163,-0.323621,-4.06428
519,57.2559,-0.327298,-4.06429
519.4,57.2953,-0.32855,-4.06496
519.8,57.3354,-0.330215,-4.06494
520.2,57.3746,-0.332966,-4.06395
520.6,57.4146,-0.336204,-4.06362
521,57.4531,-0.338912,-4.06362
521.4,57.4934,-0.342032,-4.06362
521.8,57.5335,-0.343561,-4.06362
522.2,57.5729,-0.34494,-4.06362
522.6,57.6129,-0.345204,-4.06262
523,57.6517,-0.34696,-4.0623
523.4,57.6914,-0.34954,-4.06232
523.8,57.7306,-0.351633,-4.06367
524.2,57.7714,-0.354091,-4.06459
524.6,57.8106,-0.354288,-4.06459
525,57.8483,-0.355805,-4.06583
525.4,57.8878,-0.357372,-4.06559
525.8,57.9296,-0.357372,-4.06555
526.2,57.9689,-0.360033,-4.0646
526.6,58.0087,-0.359861,-4.0646
527,58.0476,-0.361372,-4.06254
527.4,58.0873,-0.361459,-4.06197
527.8,58.1268,-0.362916,-4.06328
528.2,58.1667,-0.36178,-4.06328
528.6,58.2059,-0.363045,-4.06328
529,58.2464,-0.364866,-4.06365
529.4,58.2859,-0.366708,-4.0646
529.8,58.3256,-0.365271,-4.0646
530.2,58.3654,-0.365935,-4.0646
530.6,58.4039,-0.366605,-4.0646
531,58.4444,-0.367257,-4.0646
531.4,58.4841,-0.368336,-4.0646
531.8,58.5237,-0.368595,-4.0646
532.2,58.5636,-0.367921,-4.06469
532.6,58.6034,-0.36842,-4.06329
533,58.6432,-0.368725,-4.06329
533.4,58.6819,-0.369158,-4.06252
533.8,58.7217,-0.368799,-4.06201
534.2,58.7617,-0.368641,-4.06275
534.6,58.801,-0.369954,-4.06395
535,58.8409,-0.369221,-4.06395
535.4,58.88,-0.36896,-4.06461
535.8,58.9175,-0.369338,-4.06461
536.2,58.9588,-0.369576,-4.06461
536.6,58.9999,-0.368265,-4.06592
537,59.0393,-0.368426,-4.06592
537.4,59.0778,-0.368865,-4.06592
537.8,59.1188,-0.368947,-4.06593
538.2,59.158,-0.368051,-4.06691
538.6,59.1972,-0.368937,-4.06691
539,59.2368,-0.368185,-4.06761
539.4,59.2765,-0.368602,-4.06757
539.8,59.3172,-0.367752,-4.06755
540.2,59.3561,-0.368773,-4.0666
540.6,59.3956,-0.367538,-4.06625
541,59.435,-0.36752,-4.06625
541.4,59.4749,-0.367337,-4.06584
541.8,59.5141,-0.367864,-4.06494
542.2,59.5548,-0.367237,-4.06494
542.6,59.5933,-0.366739,-4.06494
543,59.6335,-0.366221,-4.06492
543.4,59.6733,-0.367169,-4.06554
543.8,59.7124,-0.36865,-4.06691
544.2,59.752,-0.368853,-4.06694
544.6,59.7909,-0.368196,-4.06561
545,59.8306,-0.367855,-4.0656
545.4,59.8701,-0.368459,-4.06674
545.8,59.9096,-0.368441,-4.06691
546,59.9306,-0.367778,-4.06691