File: 01_Data/Helmet_Tetrahedron/STA/N2/30K_min/Helmet_Tetrahedron_STA_N2_30KData_250513_R4.csv
Temp./C,Time/min,DSC/(mW/mg),Mass loss/mg
35.0,0.0,1.20172,-0.00218143
35.5,0.0320102,1.24711,-0.00277171
36,0.0627925,1.2989,-0.003783
36.5,0.0941948,1.35018,-0.00306317
37,0.124143,1.38262,-0.00312577
37.5,0.153784,1.42615,-0.00384417
38,0.183302,1.46447,-0.00287251
38.5,0.211093,1.49814,-0.00312462
39,0.237544,1.53438,-0.00384971
39.5,0.266452,1.57404,-0.00407461
40,0.294186,1.61342,-0.00277827
40.5,0.321133,1.6517,-0.00219409
41,0.347498,1.67295,-0.00299422
41.5,0.373503,1.71049,-0.00242085
42,0.399561,1.73311,-0.00227714
42.5,0.424573,1.76947,-0.00198076
43,0.449869,1.79214,-0.00178948
43.5,0.474159,1.83064,-0.00186923
44,0.499088,1.84892,-0.00278703
44.5,0.523387,1.88101,-0.0029835
45,0.547993,1.9153,-0.00371743
45.5,0.572033,1.93238,-0.0039248
46,0.595588,1.96507,-0.00361069
46.5,0.619584,1.98597,-0.00322228
47,0.641892,2.01474,-0.00304687
47.5,0.665528,2.0471,-0.00250437
48,0.689487,2.05434,-0.00278518
48.5,0.71123,2.08307,-0.00334707
49,0.734635,2.09954,-0.00346314
49.5,0.756812,2.13393,-0.00292836
50,0.779512,2.15169,-0.00275497
50.5,0.802146,2.16956,-0.00224922
51,0.824062,2.19446,-0.00175664
51.5,0.846058,2.22449,-0.00201039
52,0.867751,2.23908,-0.0030969
52.5,0.890286,2.26948,-0.00282135
53,0.911168,2.27259,-0.00236754
53.5,0.933523,2.29801,-0.00115273
54,0.954494,2.32193,-0.000388934
54.5,0.976043,2.35267,-0.000799233
55,0.997025,2.3735,-0.00119686
55.5,1.01891,2.40123,-0.00202783
56,1.03998,2.41606,-0.00271745
56.5,1.06124,2.4374,-0.00246986
57,1.08222,2.46272,-0.00239281
57.5,1.1027,2.48682,-0.00206956
58,1.12307,2.50715,-0.00187836
58.5,1.14325,2.53041,-0.00138267
59,1.16349,2.54115,-0.00161276
59.5,1.18514,2.5671,-0.00207728
60,1.20582,2.58785,-0.00210879
60.5,1.22625,2.616,-0.00224131
61,1.24672,2.62422,-0.0027398
61.5,1.26682,2.64574,-0.00239199
62,1.28606,2.65551,-0.00286354
62.5,1.30713,2.67097,-0.00356141
63,1.32754,2.67976,-0.0028644
63.5,1.34714,2.69531,-0.00419039
64,1.36687,2.70615,-0.00490821
64.5,1.38697,2.71589,-0.00568339
65,1.40617,2.71952,-0.00520929
65.5,1.42681,2.73426,-0.00572991
66,1.44595,2.72867,-0.00539824
66.5,1.46525,2.73888,-0.00549143
67,1.48544,2.74866,-0.00430613
67.5,1.50481,2.74447,-0.00400125
68,1.52496,2.74605,-0.00356094
68.5,1.54356,2.74544,-0.00394927
69,1.56285,2.7482,-0.00430923
69.5,1.58265,2.76044,-0.00429558
70,1.60162,2.75994,-0.00433296
70.5,1.62123,2.75847,-0.00434599
71,1.6405,2.76361,-0.00452835
71.5,1.65935,2.77137,-0.00429992
72,1.67867,2.76931,-0.00278171
72.5,1.6975,2.7786,-0.0027014
73,1.71678,2.79377,-0.00278638
73.5,1.73591,2.79868,-0.00359694
74,1.7549,2.80382,-0.00362361
74.5,1.77378,2.80765,-0.00468598
75,1.79296,2.81911,-0.00428271
75.5,1.81187,2.82317,-0.0044207
76,1.83087,2.82416,-0.00479847
76.5,1.84966,2.83463,-0.00342423
77,1.86791,2.83807,-0.00339879
77.5,1.88664,2.8429,-0.00345885
78,1.9054,2.84778,-0.0034721
78.5,1.92439,2.85019,-0.00402192
79,1.94319,2.85719,-0.00351023
79.5,1.96199,2.87384,-0.00344089
80,1.98015,2.88607,-0.00341446
80.5,1.99914,2.9003,-0.00399845
81,2.01743,2.89884,-0.00341316
81.5,2.03585,2.91036,-0.00463057
82,2.05457,2.92183,-0.00331208
82.5,2.07287,2.93016,-0.0038963
83,2.09162,2.93167,-0.00328354
83.5,2.10969,2.94286,-0.00344881
84,2.12837,2.94885,-0.00343979
84.5,2.14654,2.95295,-0.00331292
85,2.16469,2.96333,-0.00329812
85.5,2.18284,2.97609,-0.00324613
86,2.20083,2.98399,-0.00397572
86.5,2.21916,2.99456,-0.00326449
87,2.23708,3.0024,-0.00335041
87.5,2.25469,3.01939,-0.00357511
88,2.27328,3.0275,-0.00330465
88.5,2.29127,3.03147,-0.00325746
89,2.3089,3.03611,-0.0033272
89.5,2.32704,3.04811,-0.0032851
90,2.34495,3.05957,-0.00411522
90.5,2.36262,3.07086,-0.00396161
91,2.38038,3.08333,-0.00370415
91.5,2.39759,3.09126,-0.0043427
92,2.41608,3.10301,-0.00334881
92.5,2.43397,3.11082,-0.00343205
93,2.45182,3.1216,-0.00379512
93.5,2.46925,3.12558,-0.00472415
94,2.48684,3.14011,-0.00471623
94.5,2.50422,3.14617,-0.00464786
95,2.52197,3.15253,-0.00567269
95.5,2.53928,3.17373,-0.00471577
96,2.557,3.17691,-0.00473084
96.5,2.57453,3.17953,-0.00542987
97,2.59206,3.18837,-0.00560269
97.5,2.60941,3.19772,-0.00470423
98,2.62612,3.19744,-0.00472243
98.5,2.64309,3.21174,-0.00517266
99,2.66149,3.21311,-0.0047294
99.5,2.67914,3.21804,-0.0046983
100,2.69611,3.23335,-0.00529418
100.5,2.71331,3.24968,-0.00468551
101,2.73113,3.24816,-0.00474286
101.5,2.74809,3.25851,-0.00533961
102,2.76539,3.26961,-0.00469708
102.5,2.78287,3.27497,-0.00467112
103,2.79983,3.29378,-0.00553162
103.5,2.817,3.30262,-0.0050634
104,2.83448,3.30923,-0.00475846
104.5,2.85144,3.31375,-0.00473064
105,2.8682,3.32941,-0.00472958
105.5,2.88572,3.34005,-0.0047424
106,2.90287,3.34841,-0.00494596
106.5,2.91997,3.35058,-0.0060903
107,2.93717,3.35076,-0.00504744
107.5,2.95384,3.3604,-0.00470044
108,2.9708,3.37103,-0.00558627
108.5,2.98818,3.39028,-0.00604998
109,3.00502,3.38991,-0.00608128
109.5,3.02158,3.39984,-0.00531579
110,3.03888,3.41584,-0.00505272
110.5,3.05627,3.42146,-0.00608823
111,3.07291,3.42673,-0.00604653
111.5,3.09004,3.43733,-0.00604312
112,3.10717,3.44611,-0.0061346
112.5,3.12401,3.45426,-0.0048498
113,3.14094,3.46172,-0.00470101
113.5,3.15822,3.46649,-0.00559151
114,3.17478,3.47535,-0.00604589
114.5,3.19177,3.48362,-0.00604684
115,3.2085,3.49466,-0.00601644
115.5,3.2253,3.50017,-0.00715449
116,3.24203,3.50175,-0.00734732
116.5,3.25874,3.51591,-0.0073697
117,3.27585,3.52799,-0.00651019
117.5,3.29265,3.53355,-0.00607193
118,3.30941,3.53902,-0.00604164
118.5,3.32601,3.54702,-0.00683746
119,3.34257,3.55332,-0.00701536
119.5,3.35968,3.55974,-0.00703052
120,3.3762,3.5677,-0.00703022
120.5,3.39242,3.57862,-0.00703
121,3.40918,3.58978,-0.00703019
121.5,3.42608,3.59862,-0.00703372
122,3.44276,3.60645,-0.00704899
122.5,3.45954,3.6203,-0.00648236
123,3.47586,3.62584,-0.00566749
123.5,3.49246,3.62712,-0.00570646
124,3.50927,3.63753,-0.00571657
124.5,3.52557,3.63952,-0.00588633
125,3.54227,3.64642,-0.00603706
125.5,3.55811,3.65377,-0.00600524
126,3.57544,3.66745,-0.00707089
126.5,3.59129,3.67383,-0.00698559
127,3.60816,3.68065,-0.00598888
127.5,3.62453,3.68782,-0.00603279
128,3.64002,3.69624,-0.00604032
128.5,3.65686,3.69836,-0.00604007
129,3.6734,3.70615,-0.00603985
129.5,3.69011,3.71111,-0.00604066
130,3.70607,3.71965,-0.00605402
130.5,3.72232,3.72697,-0.00609234
131,3.73901,3.7285,-0.00727407
131.5,3.75509,3.72972,-0.00734651
132,3.77132,3.73464,-0.00735987
132.5,3.78759,3.74475,-0.00736015
133,3.80388,3.75618,-0.00735995
133.5,3.81996,3.7618,-0.00736021
134,3.83604,3.76273,-0.00736574
134.5,3.85221,3.77894,-0.0073815
135,3.86838,3.78177,-0.00676273
135.5,3.88467,3.78999,-0.00745838
136,3.90058,3.79255,-0.00735634
136.5,3.9166,3.79739,-0.00735858
137,3.93255,3.80547,-0.00735992
137.5,3.94881,3.80815,-0.00736002
138,3.96463,3.81534,-0.00736
138.5,3.98106,3.82589,-0.00736
139,3.99708,3.83475,-0.00736
139.5,4.0134,3.83923,-0.00736
140,4.02885,3.8423,-0.00736
140.5,4.045,3.84451,-0.00736
141,4.06116,3.85874,-0.00736
141.5,4.0769,3.86764,-0.00736014
142,4.09309,3.86796,-0.00736078
142.5,4.10888,3.87941,-0.00735451
143,4.12471,3.88078,-0.00729056
143.5,4.14061,3.88733,-0.00833035
144,4.15654,3.88923,-0.00873855
144.5,4.17267,3.89595,-0.00998353
145,4.18845,3.90689,-0.00997021
145.5,4.20406,3.91081,-0.00998852
146,4.21971,3.91368,-0.00999047
146.5,4.2358,3.92324,-0.00999166
147,4.25134,3.92444,-0.00998511
147.5,4.26737,3.92931,-0.0108295
148,4.28295,3.9312,-0.0113056
148.5,4.29907,3.93598,-0.0113153
149,4.31455,3.94056,-0.0113104
149.5,4.33065,3.95066,-0.0113099
150,4.34625,3.95246,-0.01131
150.5,4.36206,3.9611,-0.01131
151,4.37798,3.96896,-0.01131
151.5,4.39312,3.97743,-0.01131
152,4.40865,3.97672,-0.0113091
152.5,4.42406,3.9836,-0.0113056
153,4.44046,3.99081,-0.0113534
153.5,4.45605,3.99714,-0.0104274
154,4.47189,4.00886,-0.00997581
154.5,4.48737,4.01237,-0.00998636
155,4.50305,4.01163,-0.0099901
155.5,4.5188,4.01101,-0.00999006
156,4.53431,4.01931,-0.00999
156.5,4.5497,4.01459,-0.00999
157,4.56532,4.02296,-0.00999
157.5,4.58126,4.03282,-0.00999
158,4.5967,4.03808,-0.00999
158.5,4.61239,4.03707,-0.00999
159,4.62707,4.04361,-0.00998997
159.5,4.64319,4.04935,-0.00998982
160,4.65907,4.05517,-0.00999126
160.5,4.6749,4.05984,-0.0100288
161,4.69006,4.06499,-0.0112588
161.5,4.70583,4.07326,-0.011287
162,4.7213,4.08316,-0.0113096
162.5,4.7368,4.08216,-0.0113104
163,4.75213,4.09509,-0.01131
163.5,4.76753,4.10153,-0.01131
164,4.78354,4.10999,-0.01131
164.5,4.79894,4.11478,-0.01131
165,4.81432,4.12197,-0.01131
165.5,4.83004,4.13342,-0.01131
166,4.84574,4.14261,-0.01131
166.5,4.86087,4.1525,-0.01131
167,4.87632,4.15897,-0.01131
167.5,4.89222,4.1624,-0.0113101
168,4.90734,4.17207,-0.0113104
168.5,4.923,4.17888,-0.0113071
169,4.93826,4.19364,-0.0112788
169.5,4.95395,4.21489,-0.0118412
170,4.96913,4.23861,-0.0126782
170.5,4.98469,4.25822,-0.0126284
171,5.00018,4.2732,-0.012629
171.5,5.01537,4.29553,-0.01263
172,5.03112,4.31679,-0.01263
172.5,5.04637,4.31438,-0.01263
173,5.06197,4.32435,-0.01263
173.5,5.07742,4.32631,-0.0126301
174,5.09238,4.32348,-0.0126306
174.5,5.10815,4.32813,-0.0126233
175,5.12334,4.32917,-0.0132062
175.5,5.13891,4.33611,-0.0139846
176,5.15434,4.34476,-0.0139665
176.5,5.16964,4.34745,-0.0139204
177,5.18496,4.35269,-0.0149285
177.5,5.20026,4.35277,-0.0152656
178,5.2154,4.35116,-0.0152638
178.5,5.23063,4.35097,-0.01526
179,5.24604,4.36293,-0.0152595
179.5,5.26122,4.35334,-0.0152596
180,5.27634,4.35183,-0.0152854
180.5,5.29173,4.35565,-0.0153171
181,5.30709,4.35613,-0.0165455
181.5,5.3223,4.35658,-0.016579
182,5.33774,4.35322,-0.0165803
182.5,5.35291,4.35412,-0.0165801
183,5.36799,4.35498,-0.0165798
183.5,5.38328,4.36212,-0.0165782
184,5.39864,4.36241,-0.0165913
184.5,5.41358,4.36741,-0.0167004
185,5.42875,4.36585,-0.0178099
185.5,5.44323,4.37071,-0.017888
186,5.45809,4.37603,-0.017911
186.5,5.47339,4.37896,-0.0178415
187,5.48896,4.37633,-0.0186214
187.5,5.50452,4.38093,-0.0185516
188,5.51942,4.37189,-0.0185587
188.5,5.5347,4.37793,-0.0185616
189,5.54997,4.38244,-0.0185569
189.5,5.56492,4.3841,-0.018476
190,5.57995,4.38082,-0.0194677
190.5,5.59503,4.38139,-0.0198864
191,5.61002,4.38793,-0.0198799
191.5,5.625,4.39186,-0.0198794
192,5.64009,4.38984,-0.0198616
192.5,5.65526,4.39102,-0.018668
193,5.67013,4.38987,-0.0185894
193.5,5.68522,4.394,-0.0185576
194,5.70041,4.39761,-0.0185594
194.5,5.71538,4.39959,-0.0185572
195,5.73034,4.40114,-0.0185634
195.5,5.74565,4.40795,-0.0187936
196,5.76053,4.40929,-0.0198586
196.5,5.77541,4.40669,-0.0198553
197,5.79027,4.40511,-0.0198707
197.5,5.80545,4.40412,-0.0198825
198,5.82033,4.40974,-0.0198549
198.5,5.83529,4.41059,-0.0208858
199,5.85044,4.40932,-0.0211937
199.5,5.86568,4.41847,-0.0211935
200,5.88075,4.41817,-0.02119
200.5,5.89513,4.41443,-0.0211898
201,5.90977,4.4188,-0.0211886
201.5,5.92474,4.41562,-0.0211957
202,5.93957,4.41227,-0.0212702
202.5,5.95528,4.41314,-0.0203419
203,5.97012,4.41528,-0.0202262
203.5,5.98516,4.40611,-0.0209762
204,6.00032,4.40106,-0.0215283
204.5,6.0153,4.39702,-0.0215269
205,6.02993,4.4062,-0.0215197
205.5,6.045,4.41031,-0.0215199
206,6.06015,4.41018,-0.02152
206.5,6.07478,4.40515,-0.02152
207,6.08989,4.40263,-0.02152
207.5,6.10486,4.40832,-0.0215201
208,6.1197,4.41366,-0.0215197
208.5,6.13448,4.41323,-0.021515
209,6.14976,4.41036,-0.0215335
209.5,6.16431,4.41233,-0.0218187
210,6.17941,4.41302,-0.0228218
210.5,6.19421,4.41375,-0.0228282
211,6.20908,4.41467,-0.0228303
211.5,6.22428,4.41765,-0.0228312
212,6.23885,4.42017,-0.0228245
212.5,6.25404,4.4233,-0.0227721
213,6.26871,4.42694,-0.0236144
213.5,6.28371,4.42751,-0.0241604
214,6.2987,4.4302,-0.0241569
214.5,6.31376,4.4326,-0.0251617
215,6.32856,4.4265,-0.025459
215.5,6.34329,4.40854,-0.0254879
216,6.35834,4.41769,-0.0253866
216.5,6.37313,4.42626,-0.0266172
217,6.38785,4.43415,-0.0267927
217.5,6.40283,4.42607,-0.0267889
218,6.41813,4.42645,-0.0266177
218.5,6.43244,4.42915,-0.0267595
219,6.44745,4.42481,-0.0267716
219.5,6.46235,4.42057,-0.0267908
220,6.477,4.42699,-0.0267904
220.5,6.49206,4.42096,-0.02679
221,6.50642,4.41919,-0.0267897
221.5,6.52175,4.41947,-0.0267895
222,6.5366,4.42485,-0.0268029
222.5,6.55152,4.42009,-0.02681
223,6.56631,4.41893,-0.0279321
223.5,6.58116,4.41212,-0.0282083
224,6.59612,4.41589,-0.0281271
224.5,6.61063,4.41751,-0.0291803
225,6.62575,4.41991,-0.0295382
225.5,6.64064,4.41967,-0.0295299
226,6.65554,4.42715,-0.0295298
226.5,6.66963,4.42657,-0.0295301
227,6.68523,4.42002,-0.0295317
227.5,6.69985,4.42602,-0.0295261
228,6.71465,4.43085,-0.029443
228.5,6.72988,4.43098,-0.0304282
229,6.74432,4.4247,-0.0308559
229.5,6.75932,4.42549,-0.0310704
230,6.77421,4.41452,-0.0321137
230.5,6.78894,4.42635,-0.0310334
231,6.80381,4.42532,-0.0311031
231.5,6.81866,4.42596,-0.0310038
232,6.83334,4.42753,-0.0322238
232.5,6.84805,4.42811,-0.0323956
233,6.86281,4.42621,-0.0323988
233.5,6.87788,4.4282,-0.0334549
234,6.89271,4.42503,-0.0337077
234.5,6.90716,4.42099,-0.0336481
235,6.92248,4.42136,-0.0336699
235.5,6.93755,4.41969,-0.0337045
236,6.95187,4.40947,-0.0341339
236.5,6.9668,4.40401,-0.0351138
237,6.98155,4.4024,-0.0350335
237.5,6.99624,4.40326,-0.0359798
238,7.01107,4.39826,-0.036447
238.5,7.02572,4.39035,-0.0373563
239,7.04066,4.38926,-0.0378838
239.5,7.05534,4.38547,-0.0379099
240,7.07002,4.38104,-0.0378342
240.5,7.08422,4.38129,-0.0389696
241,7.09969,4.36592,-0.0388644
241.5,7.11433,4.35702,-0.0388662
242,7.12921,4.34946,-0.038877
242.5,7.14382,4.34232,-0.0389577
243,7.15852,4.33626,-0.0392172
243.5,7.17328,4.32062,-0.0392029
244,7.18814,4.30973,-0.0391962
244.5,7.20285,4.30235,-0.0397379
245,7.21758,4.28931,-0.0406951
245.5,7.23227,4.29131,-0.0406357
246,7.24721,4.27653,-0.041632
246.5,7.26209,4.2623,-0.0419319
247,7.27647,4.25526,-0.0418432
247.5,7.29153,4.24141,-0.0431038
248,7.30606,4.23283,-0.0434903
248.5,7.32052,4.23171,-0.0437781
249,7.33557,4.21893,-0.0450261
249.5,7.35046,4.20307,-0.0448987
250,7.36486,4.1791,-0.0459749
250.5,7.37961,4.16422,-0.0464301
251,7.39438,4.15775,-0.0474338
251.5,7.40913,4.1519,-0.0478566
252,7.42404,4.14674,-0.0488655
252.5,7.43843,4.1284,-0.049392
253,7.45343,4.11668,-0.0504639
253.5,7.46772,4.10255,-0.0509734
254,7.48254,4.08551,-0.0524313
254.5,7.4975,4.07013,-0.0529084
255,7.51156,4.051,-0.0546125
255.5,7.52661,4.02792,-0.0548315
256,7.54122,4.00927,-0.0561137
256.5,7.55604,3.99909,-0.0571046
257,7.57051,3.97668,-0.05762
257.5,7.58577,3.95123,-0.0593381
258,7.59983,3.93489,-0.0600696
258.5,7.61487,3.91649,-0.0610323
259,7.62925,3.89655,-0.0620154
259.5,7.64388,3.87277,-0.0617192
260,7.65876,3.84949,-0.062965
260.5,7.67344,3.82795,-0.0641945
261,7.68802,3.79911,-0.0656129
261.5,7.70298,3.76245,-0.0671742
262,7.71745,3.73768,-0.0683979
262.5,7.73218,3.71578,-0.0688195
263,7.74658,3.68894,-0.0697839
263.5,7.76142,3.65391,-0.0701397
264,7.77575,3.61933,-0.0712301
264.5,7.79048,3.59113,-0.0722051
265,7.80515,3.54689,-0.0739373
265.5,7.81955,3.52526,-0.0755888
266,7.8345,3.51344,-0.0765246
266.5,7.84922,3.52408,-0.0776001
267,7.86414,3.57405,-0.0795172
267.5,7.87905,3.66572,-0.0813009
268,7.89414,3.79645,-0.0826018
268.5,7.90943,3.92497,-0.0843156
269,7.92443,4.05132,-0.0867966
269.5,7.9398,4.18073,-0.0882139
270,7.95471,4.2912,-0.0903315
270.5,7.96988,4.38921,-0.0935583
271,7.98487,4.48297,-0.0954735
271.5,7.99981,4.56335,-0.0984339
272,8.01491,4.61535,-0.101027
272.5,8.02963,4.68526,-0.103593
273,8.04496,4.74254,-0.106862
273.5,8.05957,4.80181,-0.109484
274,8.0747,4.85884,-0.113394
274.5,8.0895,4.90456,-0.115833
275,8.10442,4.93562,-0.118615
275.5,8.11924,4.97327,-0.121931
276,8.13408,5.01059,-0.124165
276.5,8.1487,5.04455,-0.128044
277,8.16386,5.07548,-0.131637
277.5,8.17837,5.08879,-0.135147
278,8.19381,5.11929,-0.138515
278.5,8.20864,5.15001,-0.141131
279,8.22369,5.17852,-0.145106
279.5,8.23846,5.19782,-0.1483
280,8.25215,5.21844,-0.152117
280.5,8.26794,5.2444,-0.155794
281,8.28268,5.26785,-0.15989
281.5,8.29757,5.28827,-0.163872
282,8.31237,5.3075,-0.166999
282.5,8.32739,5.32536,-0.17123
283,8.34209,5.34602,-0.174723
283.5,8.35715,5.37595,-0.178779
284,8.37159,5.40113,-0.183309
284.5,8.38647,5.42092,-0.186624
285,8.40108,5.44318,-0.190545
285.5,8.41631,5.46419,-0.195177
286,8.43129,5.48574,-0.197741
286.5,8.44609,5.52316,-0.201788
287,8.46098,5.54828,-0.205535
287.5,8.47576,5.57589,-0.209249
288,8.49084,5.60126,-0.214071
288.5,8.50565,5.64071,-0.217952
289,8.52042,5.67132,-0.222792
289.5,8.53522,5.70458,-0.228482
290,8.55046,5.73475,-0.233041
290.5,8.5649,5.7686,-0.238454
291,8.57997,5.80045,-0.243355
291.5,8.59479,5.83971,-0.248271
292,8.60996,5.88038,-0.254673
292.5,8.62496,5.91544,-0.259332
293,8.63983,5.95311,-0.264998
293.5,8.65475,5.99084,-0.27129
294,8.66946,6.03233,-0.276298
294.5,8.68496,6.0759,-0.283365
295,8.6996,6.1162,-0.289582
295.5,8.71434,6.15914,-0.294706
296,8.72965,6.21181,-0.302927
296.5,8.74455,6.25507,-0.308896
297,8.75936,6.30624,-0.315997
297.5,8.7744,6.35164,-0.324244
298,8.78949,6.39731,-0.330565
298.5,8.80435,6.4513,-0.338536
299,8.81925,6.50447,-0.346031
299.5,8.8342,6.55977,-0.353124
300,8.84939,6.61488,-0.361833
300.5,8.86441,6.67641,-0.369446
301,8.87963,6.734,-0.378458
301.5,8.89452,6.79196,-0.38836
302,8.9096,6.85935,-0.396526
302.5,8.92461,6.92209,-0.407142
303,8.93958,6.99273,-0.41702
303.5,8.95477,7.05955,-0.426817
304,8.96977,7.13262,-0.439388
304.5,8.98485,7.19072,-0.449025
305,8.99994,7.26354,-0.460487
305.5,9.01532,7.33412,-0.473511
306,9.03008,7.40952,-0.483544
306.5,9.04495,7.48212,-0.496845
307,9.06017,7.55515,-0.510048
307.5,9.0755,7.62711,-0.52275
308,9.09061,7.69747,-0.537492
308.5,9.1054,7.77229,-0.548392
309,9.12007,7.84561,-0.561866
309.5,9.13536,7.9264,-0.578254
310,9.15053,8.00303,-0.591832
310.5,9.16564,8.08232,-0.609196
311,9.18078,8.16301,-0.62437
311.5,9.19611,8.2361,-0.640834
312,9.21098,8.31566,-0.660151
312.5,9.22593,8.39805,-0.674463
313,9.24087,8.47393,-0.69196
313.5,9.25636,8.54718,-0.711991
314,9.27133,8.61839,-0.728425
314.5,9.28652,8.69777,-0.749986
315,9.30165,8.77162,-0.768131
315.5,9.31674,8.84103,-0.787584
316,9.33142,8.90583,-0.810858
316.5,9.34671,8.97013,-0.829113
317,9.36161,9.04232,-0.850885
317.5,9.37674,9.11555,-0.874303
318,9.39158,9.17556,-0.894142
318.5,9.40686,9.22564,-0.919994
319,9.4217,9.2791,-0.941042
319.5,9.43671,9.33296,-0.963696
320,9.45176,9.37618,-0.991566
320.5,9.46675,9.42463,-1.01255
321,9.48151,9.46422,-1.03819
321.5,9.49661,9.50451,-1.06584
322,9.51141,9.53857,-1.08756
322.5,9.52634,9.56063,-1.11651
323,9.54139,9.59825,-1.14131
323.5,9.55632,9.61008,-1.16718
324,9.57104,9.62502,-1.1984
324.5,9.58617,9.6251,-1.22234
325,9.60078,9.63505,-1.25024
325.5,9.61577,9.62836,-1.28124
326,9.63058,9.615,-1.30629
326.5,9.64546,9.60175,-1.33641
327,9.66007,9.57076,-1.36281
327.5,9.67515,9.5316,-1.39001
328,9.68975,9.50578,-1.42269
328.5,9.70465,9.47059,-1.44807
329,9.71912,9.42689,-1.47638
329.5,9.73385,9.37458,-1.509
330,9.74872,9.32429,-1.53406
330.5,9.76326,9.27316,-1.56424
331,9.77796,9.22483,-1.59345
331.5,9.79289,9.16965,-1.61963
332,9.80753,9.13565,-1.65172
332.5,9.8223,9.11189,-1.67766
333,9.83715,9.07937,-1.70569
333.5,9.85201,9.00829,-1.73835
334,9.86622,8.91655,-1.76086
334.5,9.88101,8.80522,-1.78878
335,9.89563,8.67334,-1.81741
335.5,9.90935,8.54345,-1.83863
336,9.92437,8.39863,-1.8665
336.5,9.93875,8.25142,-1.89005
337,9.95316,8.07381,-1.91212
337.5,9.96732,7.88885,-1.9386
338,9.98181,7.74622,-1.95979
338.5,9.99658,7.59329,-1.9823
339,10.0109,7.45095,-2.00786
339.5,10.0256,7.30589,-2.02659
340,10.0398,7.17265,-2.04782
340.5,10.0545,7.04826,-2.07118
341,10.069,6.92447,-2.0884
341.5,10.0834,6.79454,-2.10894
342,10.0978,6.66146,-2.12802
342.5,10.1125,6.52696,-2.14473
343,10.1271,6.38923,-2.16651
343.5,10.1416,6.26416,-2.18266
344,10.156,6.14018,-2.1989
344.5,10.1708,6.0153,-2.21839
345,10.185,5.88899,-2.23187
345.5,10.2,5.75959,-2.24857
346,10.2141,5.63607,-2.26536
346.5,10.2288,5.51078,-2.27811
347,10.2435,5.38704,-2.29347
347.5,10.2577,5.26708,-2.30783
348,10.2726,5.14538,-2.31954
348.5,10.2869,5.02986,-2.33451
349,10.3016,4.90729,-2.34661
349.5,10.3162,4.77968,-2.35866
350,10.3302,4.66541,-2.37251
350.5,10.3444,4.54007,-2.38219
351,10.3593,4.42333,-2.39372
351.5,10.3742,4.30075,-2.40672
352,10.3888,4.18072,-2.41632
352.5,10.4033,4.07305,-2.42863
353,10.4181,3.95261,-2.43895
353.5,10.4326,3.84299,-2.44752
354,10.447,3.7341,-2.45795
354.5,10.4617,3.62387,-2.46671
355,10.476,3.51801,-2.47583
355.5,10.4909,3.40627,-2.48682
356,10.5055,3.30534,-2.4939
356.5,10.5199,3.20885,-2.50181
357,10.5346,3.10285,-2.51011
357.5,10.5492,3.00372,-2.51543
358,10.564,2.91574,-2.52329
358.5,10.5787,2.82459,-2.53071
359,10.5934,2.72439,-2.53751
359.5,10.6077,2.64719,-2.54539
360,10.6219,2.56757,-2.55131
360.5,10.6364,2.48506,-2.55743
361,10.6522,2.39463,-2.56483
361.5,10.6665,2.32065,-2.56958
362,10.6814,2.24127,-2.5755
362.5,10.6963,2.16548,-2.58163
363,10.7107,2.08861,-2.58681
363.5,10.7258,2.02011,-2.59255
364,10.7402,1.95729,-2.59759
364.5,10.7551,1.88546,-2.60268
365,10.7699,1.8282,-2.60846
365.5,10.7845,1.75811,-2.61217
366,10.7994,1.69863,-2.61632
366.5,10.8142,1.644,-2.62093
367,10.8291,1.59252,-2.62435
367.5,10.8441,1.53414,-2.62861
368,10.859,1.48042,-2.63251
368.5,10.8738,1.43102,-2.6364
369,10.8884,1.38824,-2.64128
369.5,10.9035,1.34057,-2.6448
370,10.9182,1.29534,-2.64819
370.5,10.9331,1.25919,-2.65161
371,10.9482,1.22111,-2.65433
371.5,10.9631,1.17955,-2.65725
372,10.978,1.14318,-2.66026
372.5,10.9928,1.11417,-2.66225
373,11.0077,1.08229,-2.66494
373.5,11.0226,1.05252,-2.66718
374,11.0376,1.0312,-2.66932
374.5,11.0524,0.999895,-2.67171
375,11.0676,0.976659,-2.67454
375.5,11.0825,0.949142,-2.67832
376,11.0975,0.916095,-2.6803
376.5,11.1125,0.89747,-2.68295
377,11.1276,0.882522,-2.68537
377.5,11.1426,0.856814,-2.68688
378,11.1574,0.845308,-2.68922
378.5,11.1726,0.83724,-2.69107
379,11.1877,0.814007,-2.69326
379.5,11.2027,0.795407,-2.69523
380,11.2178,0.791381,-2.69685
380.5,11.2328,0.780601,-2.69947
381,11.2481,0.771405,-2.7008
381.5,11.263,0.759286,-2.70284
382,11.278,0.747106,-2.70467
382.5,11.2932,0.744064,-2.7053
383,11.3083,0.736337,-2.70719
383.5,11.3233,0.733733,-2.70913
384,11.3384,0.730186,-2.71077
384.5,11.3535,0.722308,-2.7121
385,11.3684,0.716124,-2.71414
385.5,11.3836,0.707858,-2.7154
386,11.3987,0.71376,-2.71719
386.5,11.414,0.711848,-2.71809
387,11.4289,0.709638,-2.72007
387.5,11.444,0.702401,-2.72163
388,11.4593,0.701209,-2.72274
388.5,11.4745,0.701464,-2.72425
389,11.4897,0.704079,-2.72579
389.5,11.5048,0.703447,-2.72607
390,11.52,0.71661,-2.72762
390.5,11.5352,0.711673,-2.72858
391,11.55,0.708079,-2.72927
391.5,11.5656,0.70929,-2.73104
392,11.5806,0.71473,-2.73202
392.5,11.5958,0.718169,-2.73365
393,11.6112,0.718655,-2.73529
393.5,11.6261,0.721129,-2.73705
394,11.6414,0.727084,-2.73935
394.5,11.6567,0.72369,-2.74086
395,11.6718,0.730864,-2.7416
395.5,11.687,0.736806,-2.7429
396,11.702,0.734755,-2.74317
396.5,11.7175,0.734884,-2.74468
397,11.7325,0.740868,-2.74554
397.5,11.7477,0.751224,-2.74756
398,11.7629,0.747659,-2.74907
398.5,11.7782,0.749953,-2.75001
399,11.7932,0.750368,-2.75133
399.5,11.8086,0.753628,-2.75286
400,11.8237,0.755898,-2.75337
400.5,11.8388,0.761584,-2.75481
401,11.8543,0.76725,-2.75605
401.5,11.8696,0.766503,-2.75741
402,11.8846,0.769923,-2.75892
402.5,11.9001,0.772544,-2.76031
403,11.9149,0.779349,-2.76156
403.5,11.9307,0.781234,-2.76288
404,11.9456,0.780919,-2.76447
404.5,11.9614,0.784195,-2.76614
405,11.9764,0.803676,-2.76753
405.5,11.9916,0.797722,-2.7689
406,12.0069,0.79742,-2.77062
406.5,12.022,0.799667,-2.77246
407,12.0376,0.797288,-2.77379
407.5,12.0525,0.800872,-2.77399
408,12.0678,0.808415,-2.77569
408.5,12.0831,0.811476,-2.77752
409,12.0985,0.818423,-2.77938
409.5,12.1135,0.820017,-2.78105
410,12.1288,0.822042,-2.78278
410.5,12.1443,0.830207,-2.78479
411,12.1595,0.833124,-2.78663
411.5,12.1746,0.835347,-2.78856
412,12.1899,0.830714,-2.79042
412.5,12.2053,0.830063,-2.792
413,12.2204,0.832961,-2.79416
413.5,12.2359,0.834031,-2.79567
414,12.2511,0.83062,-2.79728
414.5,12.2664,0.828488,-2.79945
415,12.2817,0.829112,-2.80164
415.5,12.2971,0.83072,-2.80298
416,12.3126,0.833505,-2.80525
416.5,12.3277,0.834114,-2.80748
417,12.3431,0.836963,-2.80915
417.5,12.3584,0.839318,-2.81155
418,12.3737,0.837404,-2.81347
418.5,12.3892,0.836022,-2.81628
419,12.4043,0.835978,-2.81919
419.5,12.4197,0.836208,-2.82111
420,12.4349,0.834619,-2.82393
420.5,12.4504,0.833879,-2.82593
421,12.4657,0.829563,-2.82835
421.5,12.4809,0.827689,-2.83132
422,12.4964,0.830279,-2.83243
422.5,12.5119,0.825831,-2.83424
423,12.527,0.825012,-2.83662
423.5,12.5423,0.822605,-2.83873
424,12.5576,0.82147,-2.8417
424.5,12.5732,0.814956,-2.84437
425,12.5884,0.807229,-2.84711
425.5,12.6037,0.808131,-2.8495
426,12.6193,0.807093,-2.85158
426.5,12.6346,0.804676,-2.85426
427,12.6498,0.801954,-2.8566
427.5,12.6652,0.802127,-2.85979
428,12.6806,0.795173,-2.86496
428.5,12.6959,0.797931,-2.86784
429,12.7114,0.792355,-2.8709
429.5,12.7267,0.791678,-2.87346
430,12.7422,0.794484,-2.87561
430.5,12.7575,0.794022,-2.87883
431,12.7727,0.787483,-2.88163
431.5,12.7883,0.786581,-2.88485
432,12.8038,0.781091,-2.88766
432.5,12.8192,0.772752,-2.89043
433,12.8345,0.774147,-2.89424
433.5,12.8499,0.769066,-2.8969
434,12.8654,0.770699,-2.90039
434.5,12.8807,0.769408,-2.90471
435,12.8962,0.763834,-2.90754
435.5,12.9114,0.759296,-2.91167
436,12.9269,0.76,-2.91468
436.5,12.9422,0.760242,-2.91879
437,12.9575,0.754098,-2.92275
437.5,12.9731,0.753175,-2.92531
438,12.9886,0.756985,-2.92964
438.5,13.0041,0.759405,-2.93271
439,13.0195,0.757825,-2.93611
439.5,13.0351,0.75388,-2.9403
440,13.0501,0.760293,-2.94363
440.5,13.066,0.762931,-2.94712
441,13.0813,0.756237,-2.95085
441.5,13.0966,0.750286,-2.95453
442,13.1121,0.750209,-2.95919
442.5,13.1278,0.755048,-2.96291
443,13.1433,0.753697,-2.96776
443.5,13.1587,0.759631,-2.97224
444,13.174,0.761233,-2.97575
444.5,13.1897,0.767264,-2.97977
445,13.2051,0.766684,-2.9833
445.5,13.2207,0.770349,-2.98799
446,13.2361,0.771033,-2.99319
446.5,13.2516,0.771929,-2.99743
447,13.267,0.774431,-3.00238
447.5,13.2826,0.778599,-3.00743
448,13.2984,0.784624,-3.01213
448.5,13.3132,0.779155,-3.01727
449,13.3287,0.793266,-3.02143
449.5,13.3444,0.794603,-3.02694
450,13.3605,0.806486,-3.0319
450.5,13.376,0.80932,-3.03631
451,13.3911,0.814706,-3.0426
451.5,13.4068,0.830533,-3.04718
452,13.4222,0.82986,-3.05237
452.5,13.4373,0.835475,-3.05743
453,13.4532,0.854655,-3.0619
453.5,13.4686,0.864055,-3.06723
454,13.4843,0.878821,-3.07141
454.5,13.5003,0.890361,-3.07657
455,13.5158,0.902058,-3.08226
455.5,13.5316,0.906747,-3.08712
456,13.5471,0.922648,-3.0932
456.5,13.5624,0.929779,-3.0977
457,13.5783,0.942759,-3.10267
457.5,13.5942,0.954111,-3.10898
458,13.6094,0.960158,-3.11388
458.5,13.625,0.971488,-3.12022
459,13.6407,0.986815,-3.12504
459.5,13.6564,1.00268,-3.12961
460,13.6719,1.01739,-3.13542
460.5,13.6874,1.02879,-3.14019
461,13.7033,1.0358,-3.14616
461.5,13.7189,1.05206,-3.15117
462,13.7346,1.0664,-3.15624
462.5,13.7501,1.07758,-3.16209
463,13.7658,1.08851,-3.16694
463.5,13.7815,1.10626,-3.17253
464,13.7969,1.12867,-3.1783
464.5,13.8126,1.14004,-3.18358
465,13.8285,1.14405,-3.19014
465.5,13.8439,1.15075,-3.19498
466,13.8595,1.16502,-3.20077
466.5,13.8753,1.16977,-3.2073
467,13.8909,1.18858,-3.21225
467.5,13.9066,1.1956,-3.21822
468,13.922,1.21608,-3.22288
468.5,13.9379,1.21756,-3.22815
469,13.9537,1.22084,-3.2347
469.5,13.9692,1.23481,-3.23962
470,13.9852,1.23389,-3.24596
470.5,14.0007,1.23217,-3.25105
471,14.0162,1.22728,-3.25622
471.5,14.0316,1.22983,-3.26292
472,14.0474,1.23765,-3.26797
472.5,14.0627,1.24165,-3.27386
473,14.0788,1.23793,-3.27954
473.5,14.0943,1.23897,-3.28429
474,14.1101,1.23214,-3.29144
474.5,14.1256,1.22427,-3.29582
475,14.1414,1.2216,-3.30173
475.5,14.157,1.22896,-3.30803
476,14.173,1.23259,-3.31287
476.5,14.1884,1.22942,-3.31869
477,14.204,1.22273,-3.32308
477.5,14.2194,1.22107,-3.32793
478,14.2355,1.2204,-3.33412
478.5,14.2506,1.21731,-3.33863
479,14.2666,1.21331,-3.34496
479.5,14.2824,1.19916,-3.34978
480,14.2981,1.19288,-3.35456
480.5,14.3137,1.1796,-3.35994
481,14.3293,1.17507,-3.36405
481.5,14.3449,1.17572,-3.36922
482,14.3608,1.1749,-3.37394
482.5,14.3765,1.17575,-3.37884
483,14.3923,1.16577,-3.38512
483.5,14.4077,1.16845,-3.38976
484,14.4237,1.16683,-3.3956
484.5,14.4391,1.15687,-3.40033
485,14.4549,1.1428,-3.40453
485.5,14.4705,1.13413,-3.40952
486,14.4864,1.12569,-3.4137
486.5,14.5022,1.12703,-3.41869
487,14.5179,1.12084,-3.4237
487.5,14.5335,1.11029,-3.42827
488,14.5493,1.09858,-3.43411
488.5,14.5651,1.08759,-3.43873
489,14.5805,1.0708,-3.44363
489.5,14.5965,1.06192,-3.44884
490,14.6122,1.06393,-3.45281
490.5,14.6278,1.05832,-3.45792
491,14.6436,1.0476,-3.46215
491.5,14.6594,1.02801,-3.46685
492,14.6746,1.01505,-3.47225
492.5,14.6908,1.00142,-3.47657
493,14.7064,0.990183,-3.4814
493.5,14.722,0.977069,-3.48518
494,14.7377,0.969307,-3.48931
494.5,14.7535,0.960411,-3.49434
495,14.7694,0.940364,-3.49849
495.5,14.785,0.923339,-3.50299
496,14.801,0.91431,-3.50704
496.5,14.8164,0.913666,-3.51069
497,14.8322,0.887167,-3.51547
497.5,14.8481,0.868978,-3.51896
498,14.8638,0.862994,-3.52302
498.5,14.8794,0.845828,-3.52667
499,14.895,0.840841,-3.53099
499.5,14.911,0.830891,-3.53697
500,14.9266,0.811491,-3.54089
500.5,14.9423,0.800277,-3.54523
501,14.9577,0.776444,-3.54931
501.5,14.9738,0.768252,-3.55244
502,14.9897,0.761891,-3.55574
502.5,15.0055,0.74805,-3.55839
503,15.0212,0.731617,-3.56196
503.5,15.0371,0.714801,-3.56564
504,15.0526,0.693677,-3.56743
504.5,15.0682,0.678472,-3.57095
505,15.0844,0.655432,-3.57411
505.5,15.1001,0.6383,-3.5778
506,15.1157,0.630411,-3.58189
506.5,15.1316,0.617012,-3.58397
507,15.1473,0.605165,-3.587
507.5,15.163,0.596043,-3.58992
508,15.1788,0.580727,-3.59219
508.5,15.1946,0.570804,-3.59354
509,15.2103,0.550845,-3.59604
509.5,15.2261,0.539859,-3.59958
510,15.2421,0.524508,-3.60295
510.5,15.2579,0.507813,-3.60601
511,15.2739,0.490452,-3.60955
511.5,15.2894,0.476487,-3.61175
512,15.3052,0.465965,-3.61494
512.5,15.3209,0.452082,-3.6194
513,15.3369,0.436993,-3.62101
513.5,15.3525,0.416522,-3.6233
514,15.3683,0.401029,-3.62602
514.5,15.3843,0.386691,-3.6282
515,15.3998,0.369134,-3.63001
515.5,15.4155,0.362458,-3.63264
516,15.4316,0.345926,-3.63457
516.5,15.4475,0.326929,-3.63637
517,15.4633,0.318457,-3.63866
517.5,15.4791,0.309984,-3.64026
518,15.4948,0.297179,-3.64344
518.5,15.5109,0.285726,-3.64723
519,15.5265,0.274299,-3.64916
519.5,15.5425,0.269794,-3.65144
520,15.5582,0.256093,-3.65179
520.5,15.5741,0.245662,-3.65311
521,15.59,0.240021,-3.65447
521.5,15.606,0.222688,-3.65661
522,15.6215,0.213978,-3.65856
522.5,15.6378,0.204366,-3.66012
523,15.6531,0.187524,-3.66098
523.5,15.6689,0.1768,-3.66288
524,15.685,0.167097,-3.66463
524.5,15.7008,0.163522,-3.66652
525,15.7165,0.152615,-3.66786
525.5,15.733,0.144856,-3.66924
526,15.7484,0.131027,-3.67073
526.5,15.7645,0.120382,-3.67389
527,15.7801,0.109696,-3.67542
527.5,15.7959,0.0997114,-3.67701
528,15.8115,0.0933507,-3.67844
528.5,15.8278,0.0837883,-3.67953
529,15.8437,0.0774878,-3.68114
529.5,15.8596,0.0677556,-3.68122
530,15.8753,0.0626129,-3.6827
530.5,15.8911,0.0556764,-3.68257
531,15.9072,0.0466235,-3.68405
531.5,15.9234,0.0419981,-3.6843
532,15.9385,0.0355356,-3.68555
532.5,15.9546,0.0336873,-3.68687
533,15.9708,0.0289907,-3.68663
533.5,15.9865,0.0277847,-3.68764
534,16.0027,0.0198612,-3.68772
534.5,16.0186,0.0156008,-3.68788
535,16.0343,0.0101363,-3.6892
535.5,16.0505,0.0100209,-3.68986
536,16.0664,0.0075362,-3.69106
536.5,16.082,-0.00246776,-3.69248
537,16.0982,-0.00375587,-3.69362
537.5,16.114,-0.00651078,-3.69517
538,16.13,-0.010804,-3.69564
538.5,16.146,-0.00967257,-3.69656
539,16.1619,-0.00745683,-3.69791
539.5,16.1778,-0.010545,-3.69829
540,16.1938,-0.0114552,-3.69849
540.5,16.2098,-0.00810672,-3.69968
541,16.2257,-0.0119252,-3.7002
541.5,16.2416,-0.017634,-3.70144
542,16.2574,-0.0127084,-3.70259
542.5,16.2736,-0.0181438,-3.70205
543,16.2895,-0.0273281,-3.70208
543.5,16.3054,-0.0279553,-3.70312
544,16.3211,-0.0319351,-3.70342
544.5,16.3376,-0.0305717,-3.7038
545,16.3532,-0.0307677,-3.70489
545.5,16.3691,-0.037588,-3.70504
546,16.3851,-0.0373891,-3.70625
546.5,16.4011,-0.0332916,-3.70616
547,16.4171,-0.0321279,-3.70616
547.5,16.433,-0.0281537,-3.70618
548,16.4489,-0.0395492,-3.70734
548.5,16.4649,-0.0287562,-3.70746
549,16.4811,-0.0318133,-3.70748
549.5,16.4969,-0.0357665,-3.70747
550,16.5131,-0.0292378,-3.70744
550.5,16.529,-0.0302628,-3.70829
551,16.545,-0.0329293,-3.70879
551.5,16.5606,-0.0296068,-3.70881
552,16.577,-0.0312587,-3.70842
552.5,16.5928,-0.0267633,-3.70842
553,16.6089,-0.0271609,-3.70926
553.5,16.6249,-0.0291442,-3.70979
554,16.6407,-0.0290544,-3.70978
554.5,16.6569,-0.0295434,-3.70978
555,16.6729,-0.0276939,-3.70978
555.5,16.6889,-0.0229141,-3.70977
556,16.705,-0.0231808,-3.70969
556.5,16.7209,-0.0228674,-3.71083
557,16.7365,-0.0133027,-3.70985
557.5,16.7529,-0.0161066,-3.70978
558,16.769,-0.0210006,-3.70998
558.5,16.7848,-0.0189625,-3.7112
559,16.801,-0.015941,-3.7111
559.5,16.8171,-0.0186229,-3.71109
560,16.833,-0.0187128,-3.71107
560.5,16.8489,-0.0164708,-3.71186
561,16.8653,-0.00971557,-3.71337
561.5,16.8812,-0.00666055,-3.71374
562,16.8973,0.00128686,-3.71363
562.5,16.9132,0.000545984,-3.71488
563,16.9286,-0.00354793,-3.71505
563.5,16.9457,-0.00553708,-3.71505
564,16.9613,0.000933962,-3.71505
564.5,16.9774,-0.00557944,-3.71505
565,16.9934,0.00269557,-3.71505
565.5,17.0096,0.011472,-3.71505
566,17.0254,0.0180484,-3.71509
566.5,17.0416,0.0226175,-3.71436
567,17.0576,0.0159076,-3.71435
567.5,17.0739,0.0147799,-3.71506
568,17.09,0.0229137,-3.71505
568.5,17.1062,0.0233192,-3.71505
569,17.122,0.0155717,-3.71505
569.5,17.1381,0.0201128,-3.71506
570,17.1542,0.0263519,-3.71521
570.5,17.1707,0.022798,-3.71637
571,17.1861,0.0277394,-3.71636
571.5,17.2022,0.0278178,-3.71637
572,17.2184,0.0283908,-3.71748
572.5,17.2345,0.0258218,-3.71765
573,17.2506,0.0327773,-3.71768
573.5,17.2668,0.0287036,-3.7177
574,17.2829,0.0270387,-3.71779
574.5,17.2991,0.020978,-3.71836
575,17.3148,0.0252981,-3.71829
575.5,17.3311,0.0306342,-3.71901
576,17.3471,0.0309405,-3.71899
576.5,17.3633,0.0268462,-3.719
577,17.3795,0.0278756,-3.719
577.5,17.3955,0.0315654,-3.719
578,17.4118,0.0312366,-3.719
578.5,17.4277,0.0280837,-3.719
579,17.4438,0.0208546,-3.71902
579.5,17.4599,0.0297075,-3.72026
580,17.4759,0.0292711,-3.7203
580.5,17.4922,0.0285246,-3.72032
581,17.5082,0.0276261,-3.72032
581.5,17.5245,0.0286852,-3.72028
582,17.5404,0.0266322,-3.72094
582.5,17.5564,0.0307001,-3.72168
583,17.573,0.0253014,-3.72164
583.5,17.5891,0.0267305,-3.72164
584,17.6048,0.0301453,-3.72164
584.5,17.6208,0.0267545,-3.72164
585,17.6363,0.029349,-3.72256
585.5,17.6534,0.0308688,-3.72293
586,17.6692,0.0272626,-3.72295
586.5,17.6855,0.0279368,-3.72295
587,17.7018,0.0256303,-3.72295
587.5,17.718,0.0244419,-3.72295
588,17.734,0.0327608,-3.72295
588.5,17.7502,0.0345921,-3.72295
589,17.7664,0.030496,-3.72295
589.5,17.7823,0.0312868,-3.72295
590,17.7986,0.0278653,-3.72294
590.5,17.8147,0.0300195,-3.72281
591,17.8307,0.0275555,-3.72164
591.5,17.8471,0.0266451,-3.72164
592,17.8632,0.0257879,-3.72163
592.5,17.8792,0.0277622,-3.72163
593,17.8955,0.0195585,-3.72163
593.5,17.9116,0.0221699,-3.72163
594,17.9277,0.0128913,-3.72163
594.5,17.9439,0.0178334,-3.72163
595,17.9597,0.0152619,-3.72164
595.5,17.9762,0.0104567,-3.72192
596,17.9925,0.0171938,-3.72299
596.5,18.0083,0.0241103,-3.7229
597,18.0248,0.026063,-3.72394
597.5,18.0409,0.022049,-3.72427
598,18.0574,0.0154906,-3.72438
598.5,18.0732,0.0155775,-3.72579
599,18.0893,0.0117079,-3.72569
599.5,18.1055,0.0108124,-3.72568
600,18.1219,0.00892241,-3.72565
600.5,18.138,0.00794644,-3.72451
601,18.154,0.00254116,-3.72454
601.5,18.1707,0.00299579,-3.7257
602,18.1863,0.00780629,-3.72569
602.5,18.2027,0.0111544,-3.7257
603,18.2183,0.00796664,-3.72569
603.5,18.2354,-0.000376254,-3.72559
604,18.2514,-0.000743071,-3.72503
604.5,18.2672,0.00137445,-3.72505
605,18.2829,-0.00600054,-3.72504
605.5,18.2997,0.00114091,-3.72504
606,18.3162,-0.000308046,-3.72504
606.5,18.3325,-0.00457033,-3.72504
607,18.3488,-0.00437688,-3.72504
607.5,18.3646,-0.00764755,-3.72504
608,18.3803,-0.00726439,-3.72504
608.5,18.3964,-0.00774015,-3.72504
609,18.4135,-0.00796347,-3.72504
609.5,18.4298,-0.00641473,-3.72503
610,18.4458,-0.00479077,-3.72451
610.5,18.4621,-0.00295996,-3.72373
611,18.4785,-0.00377894,-3.72373
611.5,18.4943,-0.0066757,-3.72373
612,18.5106,-0.00761716,-3.72373
612.5,18.5268,-0.00293658,-3.72373
613,18.5429,-0.0104426,-3.72373
613.5,18.5592,-0.0090372,-3.72373
614,18.5756,-0.0109202,-3.72373
614.5,18.5918,-0.00575915,-3.72373
615,18.6078,-0.0060275,-3.72373
615.5,18.6242,-0.00763746,-3.72375
616,18.6402,-0.00922797,-3.72338
616.5,18.6564,-0.0115685,-3.72308
617,18.6729,-0.0146218,-3.72323
617.5,18.689,-0.0143907,-3.72409
618,18.7052,-0.0185188,-3.72406
618.5,18.7215,-0.0187686,-3.72405
619,18.738,-0.0272502,-3.72405
619.5,18.7542,-0.0139766,-3.72405
620,18.7703,-0.0173958,-3.72405
620.5,18.7866,-0.0229421,-3.72405
621,18.8031,-0.0175584,-3.72405
621.5,18.8192,-0.0138173,-3.72405
622,18.8352,-0.0162425,-3.72405
622.5,18.8518,-0.011386,-3.72405
623,18.8681,-0.0148701,-3.72405
623.5,18.8842,-0.0226896,-3.72405
624,18.9006,-0.0137359,-3.72405
624.5,18.9168,-0.0111053,-3.72405
625,18.9329,-0.0141674,-3.72405
625.5,18.9493,-0.0110616,-3.72403
626,18.9655,-0.00779642,-3.72429
626.5,18.9816,-0.00557651,-3.72427
627,18.998,-0.00793614,-3.72441
627.5,19.0141,-0.00930147,-3.72568
628,19.0305,-0.0100298,-3.72559
628.5,19.0469,-0.0104977,-3.72617
629,19.0631,-0.0102203,-3.72692
629.5,19.0794,-0.00720832,-3.72691
630,19.0955,-0.00573756,-3.72691
630.5,19.1118,-0.00754476,-3.72691
631,19.1281,-0.0145853,-3.72691
631.5,19.1445,-0.0136743,-3.72691
632,19.1606,-0.00963977,-3.72691
632.5,19.177,-0.0113324,-3.72693
633,19.1935,-0.00471666,-3.72638
633.5,19.2098,-0.00783659,-3.72714
634,19.226,-0.00903964,-3.72758
634.5,19.2422,-0.0109301,-3.72757
635,19.2584,-0.0205104,-3.72757
635.5,19.275,-0.0184275,-3.72757
636,19.2911,-0.0141373,-3.72757
636.5,19.3074,-0.0163602,-3.72757
637,19.3236,-0.0112127,-3.72757
637.5,19.3401,-0.0171565,-3.72757
638,19.3562,-0.0114874,-3.72757
638.5,19.3724,-0.01348,-3.72757
639,19.3888,-0.0182794,-3.72757
639.5,19.4051,-0.0175645,-3.72757
640,19.4215,-0.0140183,-3.72757
640.5,19.4378,-0.0194911,-3.72757
641,19.4541,-0.0240463,-3.72754
641.5,19.47,-0.0238064,-3.72755
642,19.4868,-0.0246566,-3.72532
642.5,19.5029,-0.0243116,-3.72495
643,19.5194,-0.0237653,-3.72493
643.5,19.5355,-0.0287844,-3.72493
644,19.5519,-0.0264981,-3.72493
644.5,19.5678,-0.0305981,-3.72493
645,19.5842,-0.0284873,-3.72493
645.5,19.6008,-0.0297686,-3.72493
646,19.6174,-0.0275898,-3.72493
646.5,19.6335,-0.037031,-3.72493
647,19.6497,-0.0315892,-3.72494
647.5,19.6662,-0.0295571,-3.72522
648,19.6826,-0.0277585,-3.72629
648.5,19.6989,-0.0320161,-3.72624
649,19.7151,-0.0323258,-3.72625
649.5,19.7312,-0.0358463,-3.72625
650,19.748,-0.0374348,-3.72608
650.5,19.7641,-0.0394266,-3.72483
651,19.7806,-0.0359687,-3.72493
651.5,19.7969,-0.0389471,-3.72495
652,19.8132,-0.034128,-3.72574
652.5,19.8296,-0.0332394,-3.72727
653,19.8455,-0.0376346,-3.72724
653.5,19.8621,-0.0376398,-3.72723
654,19.8787,-0.0388908,-3.72719
654.5,19.895,-0.0368722,-3.72822
655,19.9113,-0.0325451,-3.72855
655.5,19.9278,-0.0339755,-3.72855
656,19.9438,-0.0383958,-3.72855
656.5,19.9601,-0.0421935,-3.72855
657,19.9766,-0.03802,-3.72855
657.5,19.9927,-0.0356659,-3.72906
658,20.0094,-0.0378695,-3.7299
658.5,20.0255,-0.0356351,-3.72988
659,20.0421,-0.0356497,-3.72987
659.5,20.0582,-0.0387978,-3.72987
660,20.0745,-0.0377412,-3.72987
660.5,20.0909,-0.0366479,-3.72987
661,20.1076,-0.0339699,-3.72901
661.5,20.1237,-0.0426728,-3.72926
662,20.1398,-0.0926692,-3.72921
662.5,20.1563,-0.0875935,-3.72921
663,20.1725,-0.0697861,-3.72921
663.5,20.1892,-0.0609266,-3.72921
664,20.2057,-0.0538078,-3.72921
664.5,20.2216,-0.048562,-3.72921
665,20.2382,-0.0397908,-3.72921
665.5,20.2544,-0.0361304,-3.7292
666,20.2702,-0.0340298,-3.72923
666.5,20.2874,-0.0334977,-3.72805
667,20.3037,-0.0385697,-3.7279
667.5,20.3199,-0.0346709,-3.72789
668,20.3364,-0.0340965,-3.72789
668.5,20.3527,-0.0317033,-3.72789
669,20.3689,-0.0344474,-3.72789
669.5,20.3855,-0.0366249,-3.72794
670,20.4017,-0.0425682,-3.72925
670.5,20.4182,-0.0389388,-3.7292
671,20.4343,-0.0366053,-3.72921
671.5,20.4509,-0.0365952,-3.72921
672,20.4674,-0.0380502,-3.7291
672.5,20.4839,-0.0460704,-3.73032
673,20.5002,-0.0425918,-3.7302
673.5,20.5163,-0.0478569,-3.73019
674,20.5328,-0.0428119,-3.73012
674.5,20.5491,-0.0452128,-3.72896
675,20.5657,-0.0443947,-3.7289
675.5,20.5821,-0.046784,-3.72889
676,20.5984,-0.0548255,-3.72889
676.5,20.6146,-0.0523067,-3.72893
677,20.6313,-0.0456106,-3.72821
677.5,20.6475,-0.045314,-3.72753
678,20.6637,-0.0491387,-3.72757
678.5,20.6803,-0.0508144,-3.72757
679,20.6966,-0.0561723,-3.72752
679.5,20.7131,-0.05521,-3.72841
680,20.7295,-0.0536837,-3.7289
680.5,20.7457,-0.0562839,-3.72889
681,20.7623,-0.051911,-3.72889
681.5,20.7786,-0.0389993,-3.72887
682,20.795,-0.0541417,-3.72866
682.5,20.8113,-0.0580886,-3.72754
683,20.8279,-0.0620815,-3.72627
683.5,20.8437,-0.0536113,-3.72619
684,20.8607,-0.0585913,-3.72723
684.5,20.8769,-0.0559299,-3.72757
685,20.8936,-0.0556973,-3.72754
685.5,20.9099,-0.05811,-3.72814
686,20.9263,-0.0574986,-3.72892
686.5,20.9425,-0.0540709,-3.72888
687,20.9592,-0.0564565,-3.72888
687.5,20.9753,-0.0574134,-3.72888
688,20.992,-0.0509175,-3.72888
688.5,21.0081,-0.0531122,-3.72998
689,21.0246,-0.0498539,-3.73017
689.5,21.041,-0.0494447,-3.7302
690,21.0574,-0.0546538,-3.7302
690.5,21.0736,-0.0554015,-3.7302
691,21.0902,-0.0553742,-3.73019
691.5,21.1068,-0.057618,-3.72967
692,21.1229,-0.0593974,-3.72888
692.5,21.1397,-0.0565481,-3.72888
693,21.1562,-0.0586096,-3.72888
693.5,21.1723,-0.0573093,-3.72888
694,21.1885,-0.0567165,-3.72888
694.5,21.2053,-0.0575181,-3.72888
695,21.2216,-0.0546407,-3.72888
695.5,21.238,-0.0520541,-3.72888
696,21.2545,-0.0592211,-3.72884
696.5,21.2709,-0.0564375,-3.72954
697,21.2871,-0.057926,-3.73024
697.5,21.3036,-0.0606039,-3.7302
698,21.3201,-0.061489,-3.7302
698.5,21.3366,-0.0605202,-3.7302
699,21.3531,-0.0595185,-3.7302
699.5,21.3696,-0.0623544,-3.7302
700,21.3858,-0.0625899,-3.7302
700.5,21.4021,-0.0665493,-3.7302
701,21.4187,-0.072609,-3.7302
701.5,21.4351,-0.0674205,-3.7302
702,21.4516,-0.0641879,-3.7302
702.5,21.468,-0.0646456,-3.7302
703,21.4842,-0.0602024,-3.7302
703.5,21.5008,-0.0677287,-3.7302
704,21.517,-0.0706413,-3.7302
704.5,21.5336,-0.0691408,-3.7302
705,21.5501,-0.0720901,-3.7302
705.5,21.5666,-0.0822113,-3.73021
706,21.583,-0.0811344,-3.73029
706.5,21.5992,-0.0807766,-3.73123
707,21.6159,-0.0786502,-3.7301
707.5,21.6323,-0.0804313,-3.73019
708,21.6488,-0.0854597,-3.7302
708.5,21.6653,-0.0818192,-3.7302
709,21.6817,-0.0773911,-3.7302
709.5,21.6981,-0.0798674,-3.73034
710,21.7144,-0.0817397,-3.73161
710.5,21.7311,-0.0800131,-3.73151
711,21.7475,-0.0806775,-3.73151
711.5,21.7638,-0.0807992,-3.73151
712,21.7804,-0.0816679,-3.73151
712.5,21.797,-0.078268,-3.73151
713,21.8133,-0.0782796,-3.73151
713.5,21.8297,-0.0785213,-3.73151
714,21.8463,-0.0819537,-3.73156
714.5,21.8627,-0.0834524,-3.73069
715,21.879,-0.0839651,-3.73019
715.5,21.8957,-0.0862409,-3.7302
716,21.912,-0.0842658,-3.7302
716.5,21.9279,-0.0893316,-3.7302
717,21.9445,-0.0892151,-3.7302
717.5,21.9606,-0.0918775,-3.7302
718,21.9779,-0.0932702,-3.7302
718.5,21.9944,-0.0889712,-3.7302
719,22.0108,-0.100134,-3.7302
719.5,22.0273,-0.0934145,-3.7302
720,22.0439,-0.0972754,-3.73021
720.5,22.0603,-0.0961482,-3.73019
721,22.0763,-0.0999593,-3.73131
721.5,22.0934,-0.0994573,-3.73095
722,22.1098,-0.0864679,-3.73053
722.5,22.1265,-0.0905157,-3.73053
723,22.1427,-0.092312,-3.73053
723.5,22.1592,-0.0954753,-3.73053
724,22.1758,-0.10176,-3.73053
724.5,22.1925,-0.0973957,-3.73053
725,22.2088,-0.102168,-3.73053
725.5,22.225,-0.0952441,-3.73053
726,22.2418,-0.0909716,-3.73053
726.5,22.2584,-0.0929313,-3.73053
727,22.2748,-0.0953267,-3.7305
727.5,22.2915,-0.0939543,-3.73087
728,22.3079,-0.097242,-3.73086
728.5,22.3246,-0.0993063,-3.73097
729,22.3406,-0.103134,-3.73119
729.5,22.3572,-0.107369,-3.73119
730,22.3742,-0.0964383,-3.73119
730.5,22.3906,-0.0992993,-3.73119
731,22.407,-0.102873,-3.73079
731.5,22.4236,-0.108922,-3.72982
732,22.4401,-0.106074,-3.72987
732.5,22.4565,-0.10813,-3.72987
733,22.4734,-0.105156,-3.72987
733.5,22.4899,-0.110667,-3.72987
734,22.5064,-0.111491,-3.73006
734.5,22.5229,-0.107273,-3.7302
735,22.5396,-0.111071,-3.73017
735.5,22.5558,-0.110089,-3.73125
736,22.5726,-0.109215,-3.7315
736.5,22.5892,-0.110602,-3.73151
737,22.6057,-0.116557,-3.73235
737.5,22.6223,-0.118812,-3.73282
738,22.6388,-0.112423,-3.73276
738.5,22.6551,-0.117571,-3.73407
739,22.6717,-0.115902,-3.73415
739.5,22.6883,-0.117013,-3.73415
740,22.7049,-0.108953,-3.73415