File: 01_Data/Helmet_Tetrahedron/STA/N2/30K_min/Helmet_Tetrahedron_STA_N2_30KData_250512_R3.csv
Temp./C,Time/min,DSC/(mW/mg),Mass loss/mg
35.0,0.0,1.08609,-0.0136036
35.5,0.0380248,1.14958,-0.0117198
36,0.0752206,1.18175,-0.0114413
36.5,0.109717,1.23414,-0.00946817
37,0.142239,1.27834,-0.00796349
37.5,0.175304,1.32728,-0.00607219
38,0.207977,1.37218,-0.00467823
38.5,0.238896,1.41625,-0.00487804
39,0.269276,1.44964,-0.00402985
39.5,0.299632,1.48809,-0.00503039
40,0.328129,1.51742,-0.00407112
40.5,0.357405,1.55544,-0.00283719
41,0.385109,1.58456,-0.00146483
41.5,0.413603,1.61609,-0.000456405
42,0.439974,1.65499,-0.00145654
42.5,0.467494,1.68886,-0.000317319
43,0.493694,1.72142,0.000266821
43.5,0.520398,1.74713,0.000872024
44,0.547214,1.78119,0.000524533
44.5,0.572661,1.80972,-5.16407e-06
45,0.597913,1.83727,0.000274757
45.5,0.62333,1.8645,0.000700608
46,0.647369,1.89697,0.000257756
46.5,0.672196,1.92152,0.000192314
47,0.697242,1.94894,0.000547686
47.5,0.721574,1.97238,0.00147396
48,0.746211,2.00257,0.0020286
48.5,0.769417,2.02895,0.00230071
49,0.793512,2.05426,0.00267244
49.5,0.816618,2.07692,0.00362957
50,0.84012,2.10333,0.00453998
50.5,0.863484,2.13243,0.00488247
51,0.886416,2.15206,0.00409104
51.5,0.908156,2.17947,0.00355136
52,0.930537,2.19721,0.00346209
52.5,0.954672,2.2215,0.00394239
53,0.976685,2.24892,0.00439425
53.5,0.999121,2.2725,0.00415912
54,1.02182,2.29414,0.00394576
54.5,1.04411,2.32289,0.00541553
55,1.06606,2.34864,0.00557599
55.5,1.08796,2.36631,0.00552754
56,1.10927,2.39308,0.0060759
56.5,1.13124,2.4105,0.00645913
57,1.15277,2.44398,0.00643749
57.5,1.17408,2.46301,0.00667666
58,1.19592,2.49095,0.00646502
58.5,1.21734,2.50073,0.00634433
59,1.2382,2.52601,0.00517081
59.5,1.25955,2.54483,0.00591495
60,1.28034,2.56536,0.00697124
60.5,1.3013,2.58638,0.00681256
61,1.32223,2.60452,0.00731211
61.5,1.34293,2.62004,0.00675452
62,1.36424,2.63921,0.00660306
62.5,1.38421,2.65445,0.00553117
63,1.40476,2.66317,0.0049363
63.5,1.42541,2.67708,0.00567169
64,1.44538,2.67575,0.0058776
64.5,1.46549,2.69414,0.00619502
65,1.48544,2.70082,0.00571784
65.5,1.50615,2.70109,0.00672148
66,1.52599,2.70424,0.00606762
66.5,1.54594,2.71459,0.00661469
67,1.56524,2.71316,0.00713928
67.5,1.58484,2.72602,0.00746006
68,1.60474,2.73341,0.00867426
68.5,1.62458,2.73387,0.0087837
69,1.64467,2.74208,0.00931115
69.5,1.66457,2.7565,0.00897739
70,1.68487,2.75854,0.00836745
70.5,1.70416,2.76293,0.00817474
71,1.72394,2.77206,0.00841236
71.5,1.74313,2.77207,0.00872901
72,1.76315,2.78455,0.00969766
72.5,1.78205,2.78951,0.0087292
73,1.80197,2.80267,0.00846796
73.5,1.82111,2.80948,0.00823122
74,1.8408,2.8125,0.00845804
74.5,1.85976,2.80858,0.0071851
75,1.87932,2.81649,0.0077294
75.5,1.89822,2.83202,0.00789042
76,1.91716,2.83739,0.00822517
76.5,1.93647,2.8478,0.00806811
77,1.95588,2.85871,0.00810688
77.5,1.97454,2.86581,0.0094278
78,1.99369,2.87838,0.00952937
78.5,2.01242,2.8782,0.00976657
79,2.03182,2.8884,0.00952306
79.5,2.05074,2.90127,0.00972345
80,2.06882,2.90436,0.00957128
80.5,2.08828,2.92118,0.00957517
81,2.10708,2.93156,0.00992676
81.5,2.12538,2.9348,0.00862555
82,2.14422,2.94774,0.00970904
82.5,2.16287,2.96022,0.00886199
83,2.18123,2.97017,0.0100414
83.5,2.19928,2.97781,0.00889461
84,2.21848,2.98518,0.00981929
84.5,2.23663,2.99587,0.00940267
85,2.25552,3.02513,0.00840938
85.5,2.27371,3.03286,0.00855899
86,2.29214,3.04234,0.00978994
86.5,2.3103,3.0576,0.00838068
87,2.32859,3.06569,0.0100929
87.5,2.34686,3.08256,0.0086633
88,2.36506,3.09072,0.00882681
88.5,2.38325,3.10724,0.00883577
89,2.40107,3.11726,0.00849119
89.5,2.41937,3.12426,0.00972229
90,2.43746,3.13701,0.00901393
90.5,2.45545,3.15015,0.00858505
91,2.47357,3.15664,0.00959803
91.5,2.49138,3.16627,0.00987728
92,2.50916,3.18216,0.00997978
92.5,2.52673,3.19973,0.011162
93,2.54472,3.20616,0.00982107
93.5,2.56221,3.21836,0.00990632
94,2.58052,3.23158,0.00992935
94.5,2.59794,3.24446,0.00981045
95,2.61496,3.25078,0.00979489
95.5,2.63337,3.25637,0.0112261
96,2.65111,3.26849,0.0112193
96.5,2.6686,3.27974,0.0112872
97,2.68612,3.28412,0.0113035
97.5,2.70377,3.29744,0.0110956
98,2.72112,3.31201,0.00996586
98.5,2.7394,3.32087,0.01138
99,2.75596,3.33048,0.00994417
99.5,2.77389,3.33364,0.0100195
100,2.79103,3.34938,0.0101842
100.5,2.8088,3.35348,0.0113535
101,2.82574,3.36444,0.0113038
101.5,2.84338,3.37143,0.010093
102,2.86102,3.3782,0.011256
102.5,2.87857,3.39032,0.0113486
103,2.89534,3.39598,0.0104125
103.5,2.91248,3.4044,0.00999775
104,2.92996,3.40827,0.0101035
104.5,2.94638,3.41932,0.0112893
105,2.96487,3.4394,0.0113108
105.5,2.98192,3.44733,0.011386
106,2.99886,3.44942,0.0102609
106.5,3.01662,3.45797,0.00999654
107,3.03294,3.4722,0.00998785
107.5,3.05062,3.47493,0.00994199
108,3.06753,3.48494,0.0100353
108.5,3.08498,3.49508,0.00998916
109,3.10177,3.50698,0.00998947
109.5,3.11865,3.51716,0.0099963
110,3.1363,3.52684,0.00885652
110.5,3.15301,3.53244,0.00997846
111,3.17031,3.54275,0.00999976
111.5,3.18697,3.55409,0.00950786
112,3.20394,3.56727,0.00856175
112.5,3.22138,3.58239,0.00968372
113,3.23834,3.58923,0.00998244
113.5,3.25521,3.59278,0.00999169
114,3.27148,3.60076,0.00999393
114.5,3.28887,3.61377,0.00999855
115,3.3059,3.61531,0.0108957
115.5,3.32269,3.62436,0.00992883
116,3.3399,3.63753,0.00999956
116.5,3.35595,3.64472,0.0100008
117,3.37376,3.64492,0.00999997
117.5,3.39007,3.65808,0.00999971
118,3.40694,3.66462,0.0100067
118.5,3.42387,3.66915,0.0101038
119,3.44058,3.67853,0.00927167
119.5,3.45711,3.68993,0.00998701
120,3.47417,3.69502,0.00998851
120.5,3.49058,3.71374,0.00998986
121,3.50736,3.72315,0.00998999
121.5,3.52426,3.73321,0.0099899
122,3.54097,3.73705,0.00999
122.5,3.55754,3.75613,0.00999765
123,3.57415,3.76271,0.00934221
123.5,3.59068,3.76736,0.00865569
124,3.60711,3.77967,0.00864946
124.5,3.6237,3.78827,0.00920411
125,3.64046,3.79432,0.00870296
125.5,3.65677,3.79885,0.0086832
126,3.67332,3.80699,0.00866323
126.5,3.68994,3.82134,0.00860985
127,3.70674,3.83027,0.00963666
127.5,3.72257,3.83821,0.00999397
128,3.73931,3.84583,0.0099902
128.5,3.75534,3.84534,0.00998757
129,3.7717,3.85424,0.0099835
129.5,3.78814,3.86408,0.00894791
130,3.80447,3.87833,0.00943879
130.5,3.82043,3.88418,0.0100026
131,3.83704,3.89332,0.00999961
131.5,3.85317,3.89357,0.00999991
132,3.86979,3.90401,0.01
132.5,3.88519,3.91258,0.01
133,3.90213,3.91589,0.01
133.5,3.91838,3.91643,0.01
134,3.93445,3.92895,0.01
134.5,3.95061,3.93408,0.01
135,3.96682,3.93466,0.01
135.5,3.98294,3.95068,0.01
136,3.99922,3.95451,0.00999999
136.5,4.01499,3.9561,0.00999994
137,4.03141,3.96773,0.0100001
137.5,4.04759,3.97381,0.0100044
138,4.06366,3.97866,0.0100164
138.5,4.07954,3.9921,0.0095079
139,4.09565,4.00327,0.00899605
139.5,4.11147,4.01146,0.0090106
140,4.12776,4.01535,0.00901251
140.5,4.14395,4.0163,0.00901519
141,4.15958,4.02353,0.00877589
141.5,4.17567,4.03487,0.0086877
142,4.1916,4.03935,0.00867922
142.5,4.20714,4.04649,0.00867986
143,4.2238,4.05533,0.00867401
143.5,4.23942,4.06169,0.00924671
144,4.25529,4.06628,0.0100216
144.5,4.27108,4.07434,0.00999614
145,4.28723,4.08401,0.00997959
145.5,4.30265,4.09171,0.00999181
146,4.31848,4.09681,0.0088901
146.5,4.33456,4.09644,0.00867768
147,4.35042,4.10111,0.00866789
147.5,4.36638,4.10322,0.00866977
148,4.3816,4.11261,0.00867001
148.5,4.39695,4.12435,0.00866993
149,4.41297,4.13107,0.00867001
149.5,4.42861,4.13878,0.00867446
150,4.44432,4.14809,0.00868743
150.5,4.46098,4.1524,0.00821572
151,4.47615,4.15736,0.0074031
151.5,4.49238,4.15566,0.00627747
152,4.50761,4.15798,0.00636783
152.5,4.5231,4.17588,0.00637118
153,4.53955,4.17962,0.00636819
153.5,4.55521,4.18841,0.00638055
154,4.57101,4.19661,0.00656698
154.5,4.58617,4.20451,0.00765428
155,4.60228,4.2165,0.00766839
155.5,4.61798,4.21187,0.0076793
156,4.63366,4.21502,0.00768683
156.5,4.64913,4.21776,0.00714843
157,4.66466,4.22548,0.00632419
157.5,4.68047,4.23887,0.00636301
158,4.69584,4.2429,0.00637043
158.5,4.71134,4.24256,0.00637012
159,4.72734,4.26018,0.00637
159.5,4.74262,4.26472,0.00637025
160,4.75835,4.26139,0.00637091
160.5,4.77388,4.26263,0.00635777
161,4.78935,4.26891,0.0062736
161.5,4.80392,4.27754,0.00516998
162,4.82125,4.28542,0.00509449
162.5,4.8364,4.28826,0.00471464
163,4.85234,4.29299,0.00472398
163.5,4.86779,4.30176,0.00470414
164,4.88332,4.30914,0.00359229
164.5,4.89868,4.31842,0.0034207
165,4.9143,4.32684,0.00340773
165.5,4.92973,4.33494,0.00340975
166,4.9453,4.34496,0.00341003
166.5,4.96097,4.34965,0.00341001
167,4.97646,4.36003,0.00341
167.5,4.99218,4.3727,0.00341
168,5.00771,4.38151,0.00341001
168.5,5.02296,4.39782,0.00340984
169,5.03845,4.4084,0.00340971
169.5,5.05393,4.421,0.0034174
170,5.06947,4.43129,0.00345515
170.5,5.08439,4.44791,0.00262274
171,5.09984,4.46107,0.00244428
171.5,5.11523,4.47519,0.00241665
172,5.13068,4.49976,0.00241988
172.5,5.14626,4.52282,0.00241931
173,5.16149,4.53066,0.0023978
173.5,5.17698,4.54173,0.0024218
174,5.19244,4.55305,0.00115185
174.5,5.20801,4.56141,0.0011007
175,5.22414,4.56916,0.00109975
175.5,5.23934,4.56392,0.00109997
176,5.25475,4.56532,0.0011
176.5,5.26951,4.57559,0.0011
177,5.28525,4.57386,0.00109999
177.5,5.30053,4.57774,0.0010999
178,5.31592,4.57487,0.00110026
178.5,5.33127,4.57951,0.00110598
179,5.34652,4.58008,0.000809105
179.5,5.36194,4.5857,-0.000299849
180,5.37695,4.58878,-0.00020984
180.5,5.39222,4.58585,-0.000209738
181,5.40767,4.57852,-0.00020672
181.5,5.42312,4.58634,-0.000100264
182,5.43776,4.59497,0.000441679
182.5,5.45313,4.59927,0.00044308
183,5.46842,4.60629,0.000450281
183.5,5.48361,4.59943,0.000450126
184,5.49881,4.60507,0.000450001
184.5,5.51418,4.60667,0.000450023
185,5.5293,4.61555,0.000450032
185.5,5.54435,4.62345,0.000448578
186,5.55966,4.621,0.000446536
186.5,5.57498,4.62221,0.000524249
187,5.58983,4.62324,-0.000255762
187.5,5.60509,4.62365,-0.000194933
188,5.62022,4.63169,-0.000209222
188.5,5.63545,4.63658,-0.000210277
189,5.65036,4.63612,-0.000210019
189.5,5.66587,4.63579,-0.000209996
190,5.68081,4.64061,-0.00021
190.5,5.69593,4.64935,-0.000209995
191,5.71095,4.64479,-0.000209974
191.5,5.72607,4.64814,-0.00021027
192,5.74106,4.66375,-0.000211419
192.5,5.75612,4.65431,-0.000197249
193,5.77109,4.66126,-0.000117509
193.5,5.78651,4.66456,0.000974008
194,5.80123,4.6715,0.0010914
194.5,5.81621,4.67302,0.00109691
195,5.83169,4.67263,0.000863888
195.5,5.84653,4.67844,-0.000204146
196,5.86137,4.68375,-0.00020645
196.5,5.8764,4.69484,-0.000220378
197,5.89174,4.68592,-0.000220258
197.5,5.90677,4.68618,-0.000219997
198,5.92147,4.6989,-0.000219995
198.5,5.93676,4.6986,-0.00022
199,5.95156,4.70047,-0.000219998
199.5,5.96661,4.70867,-0.000220002
200,5.98161,4.7097,-0.000220093
200.5,5.99686,4.71251,-0.000219967
201,6.01167,4.71386,-0.000215032
201.5,6.02636,4.71227,-0.000497257
202,6.04162,4.71548,-0.00163179
202.5,6.05662,4.72288,-0.00153828
203,6.07174,4.72218,-0.0015382
203.5,6.0866,4.72124,-0.00154003
204,6.10135,4.71332,-0.0015396
204.5,6.11626,4.72226,-0.00154074
205,6.1314,4.73269,-0.00159036
205.5,6.14659,4.71871,-0.00283342
206,6.16113,4.71599,-0.00283296
206.5,6.17627,4.72087,-0.0028609
207,6.1912,4.72299,-0.00286049
207.5,6.20635,4.72336,-0.00286002
208,6.22103,4.721,-0.00286113
208.5,6.23576,4.72151,-0.00285673
209,6.25079,4.71974,-0.00356291
209.5,6.26556,4.72447,-0.00419759
210,6.28061,4.72464,-0.00417714
210.5,6.29556,4.72679,-0.00417021
211,6.31051,4.73609,-0.00418149
211.5,6.32567,4.7301,-0.00413515
212,6.3405,4.73072,-0.00500329
212.5,6.35545,4.73701,-0.00516589
213,6.37035,4.73626,-0.00516182
213.5,6.38511,4.735,-0.00515791
214,6.40011,4.72601,-0.00513889
214.5,6.41492,4.7294,-0.00543332
215,6.42995,4.73071,-0.00548126
215.5,6.44488,4.73983,-0.00549097
216,6.45951,4.74188,-0.00549031
216.5,6.47426,4.73648,-0.00549595
217,6.48941,4.7443,-0.00548139
217.5,6.50443,4.74949,-0.00524277
218,6.51899,4.74849,-0.00556279
218.5,6.53393,4.75186,-0.00547649
219,6.54904,4.74586,-0.0054861
219.5,6.56344,4.7535,-0.00545398
220,6.57896,4.75409,-0.00600451
220.5,6.59376,4.75379,-0.00686186
221,6.60847,4.75467,-0.00677818
221.5,6.6234,4.76389,-0.00742872
222,6.63827,4.76042,-0.0081239
222.5,6.65311,4.75935,-0.00811828
223,6.66807,4.75846,-0.00811888
223.5,6.68259,4.76314,-0.00819977
224,6.69778,4.77172,-0.00948084
224.5,6.71241,4.77221,-0.0094157
225,6.72736,4.77554,-0.00943922
225.5,6.74234,4.77075,-0.0094638
226,6.75724,4.76698,-0.00945365
226.5,6.77184,4.76663,-0.0106867
227,6.78674,4.7777,-0.0107605
227.5,6.80165,4.77327,-0.0108099
228,6.81664,4.77625,-0.0120571
228.5,6.83158,4.77965,-0.012048
229,6.8464,4.77825,-0.0120997
229.5,6.86093,4.77845,-0.0120237
230,6.87584,4.78216,-0.0120798
230.5,6.8908,4.78589,-0.0121027
231,6.90551,4.78229,-0.0130239
231.5,6.92044,4.77924,-0.0135996
232,6.93495,4.78397,-0.0140782
232.5,6.95004,4.77677,-0.0152267
233,6.96471,4.78427,-0.015142
233.5,6.97945,4.78758,-0.0151669
234,6.99437,4.78909,-0.0162609
234.5,7.00924,4.78686,-0.0164479
235,7.02403,4.7895,-0.0164737
235.5,7.03882,4.77478,-0.0164677
236,7.05367,4.77991,-0.0165949
236.5,7.06824,4.78037,-0.0178342
237,7.08315,4.77628,-0.0177632
237.5,7.0982,4.7593,-0.0177849
238,7.11307,4.76307,-0.0176794
238.5,7.12768,4.7589,-0.0189441
239,7.14243,4.75308,-0.0192793
239.5,7.1571,4.74412,-0.0200994
240,7.1718,4.73463,-0.0209971
240.5,7.18656,4.72423,-0.021593
241,7.20147,4.72244,-0.0225634
241.5,7.21595,4.71369,-0.0224499
242,7.23069,4.70612,-0.0230566
242.5,7.24545,4.69982,-0.0239677
243,7.26051,4.68906,-0.0245416
243.5,7.27517,4.6803,-0.0253954
244,7.28986,4.67491,-0.0260276
244.5,7.30467,4.65769,-0.026003
245,7.31921,4.65078,-0.0265545
245.5,7.33406,4.64416,-0.0273913
246,7.34873,4.63913,-0.0273389
246.5,7.36377,4.63052,-0.0272874
247,7.37824,4.62278,-0.0281022
247.5,7.39314,4.60883,-0.0285968
248,7.40765,4.59628,-0.0297951
248.5,7.42237,4.57977,-0.0308652
249,7.43722,4.56319,-0.0319503
249.5,7.45211,4.55054,-0.0333423
250,7.46649,4.53901,-0.0340935
250.5,7.48136,4.53563,-0.0355055
251,7.49622,4.52774,-0.0364686
251.5,7.51073,4.51718,-0.0371875
252,7.5253,4.50196,-0.0387917
252.5,7.54037,4.48288,-0.0400936
253,7.55451,4.46373,-0.0413702
253.5,7.56977,4.45063,-0.0427827
254,7.58443,4.43895,-0.044342
254.5,7.59894,4.42391,-0.0448288
255,7.61403,4.41329,-0.0464857
255.5,7.62853,4.39248,-0.0465972
256,7.64302,4.37687,-0.047697
256.5,7.65778,4.35472,-0.0473062
257,7.67248,4.34531,-0.0470547
257.5,7.68695,4.33737,-0.0481938
258,7.70163,4.31014,-0.0495938
258.5,7.71642,4.28686,-0.0504012
259,7.73105,4.26783,-0.0530038
259.5,7.74547,4.2498,-0.0540118
260,7.76024,4.2225,-0.0549603
260.5,7.77505,4.20174,-0.0550281
261,7.78963,4.17688,-0.0568602
261.5,7.80408,4.14335,-0.0585828
262,7.81876,4.10907,-0.0589182
262.5,7.83355,4.08241,-0.0606287
263,7.84771,4.06636,-0.0621251
263.5,7.86232,4.0415,-0.0641272
264,7.8767,3.99302,-0.0657045
264.5,7.89194,3.97217,-0.0674947
265,7.90645,3.93815,-0.0696595
265.5,7.92112,3.90852,-0.070732
266,7.93597,3.9059,-0.0720433
266.5,7.95039,3.92456,-0.0739414
267,7.9652,3.99291,-0.0758113
267.5,7.98036,4.08996,-0.0771507
268,7.99569,4.23037,-0.0794918
268.5,8.0108,4.37275,-0.0818071
269,8.02602,4.50844,-0.0838113
269.5,8.04131,4.62631,-0.0867292
270,8.05643,4.73387,-0.0889006
270.5,8.07157,4.8332,-0.0918827
271,8.08604,4.91365,-0.0957048
271.5,8.10143,4.99285,-0.0982939
272,8.11655,5.06759,-0.102011
272.5,8.13138,5.11859,-0.105305
273,8.14616,5.18016,-0.108355
273.5,8.16115,5.23564,-0.111582
274,8.17591,5.27914,-0.114343
274.5,8.19017,5.31456,-0.118617
275,8.20514,5.3498,-0.121588
275.5,8.22079,5.39236,-0.126246
276,8.23534,5.4245,-0.130263
276.5,8.25031,5.45071,-0.134006
277,8.26524,5.49272,-0.138202
277.5,8.2799,5.51026,-0.141083
278,8.29482,5.53054,-0.144342
278.5,8.30993,5.54767,-0.148452
279,8.32445,5.57846,-0.151884
279.5,8.33955,5.60368,-0.15628
280,8.35448,5.61695,-0.160293
280.5,8.36899,5.64612,-0.163919
281,8.38393,5.67514,-0.167607
281.5,8.39876,5.69411,-0.170505
282,8.41389,5.71479,-0.174391
282.5,8.42825,5.7433,-0.178961
283,8.44319,5.75852,-0.182663
283.5,8.45828,5.78132,-0.187566
284,8.47279,5.80218,-0.192682
284.5,8.48795,5.82605,-0.197017
285,8.50257,5.85302,-0.201997
285.5,8.51746,5.87234,-0.206167
286,8.5326,5.90472,-0.210376
286.5,8.54744,5.92896,-0.21587
287,8.56206,5.95642,-0.220233
287.5,8.57689,5.98595,-0.225551
288,8.5917,6.01609,-0.231255
288.5,8.6065,6.06097,-0.235855
289,8.6216,6.0788,-0.24186
289.5,8.6365,6.11884,-0.247977
290,8.65131,6.15309,-0.253846
290.5,8.66614,6.19137,-0.260578
291,8.68127,6.2264,-0.266141
291.5,8.69613,6.26377,-0.271523
292,8.71067,6.30138,-0.278316
292.5,8.72578,6.34405,-0.283942
293,8.74052,6.38742,-0.290804
293.5,8.75575,6.42218,-0.297389
294,8.77061,6.46386,-0.303648
294.5,8.78558,6.51457,-0.311634
295,8.80059,6.55545,-0.31759
295.5,8.81539,6.60726,-0.324679
296,8.83049,6.66465,-0.333589
296.5,8.84545,6.70843,-0.34057
297,8.86047,6.76434,-0.349677
297.5,8.87548,6.8234,-0.357844
298,8.89045,6.87669,-0.365962
298.5,8.90537,6.93631,-0.376167
299,8.9206,7.00074,-0.384306
299.5,8.93537,7.05653,-0.393393
300,8.95013,7.1168,-0.403681
300.5,8.96536,7.18989,-0.411968
301,8.98022,7.25076,-0.422463
301.5,8.99558,7.32632,-0.433034
302,9.01042,7.40468,-0.443147
302.5,9.02558,7.47039,-0.456105
303,9.04056,7.54048,-0.465998
303.5,9.0555,7.62286,-0.477327
304,9.07073,7.70274,-0.490394
304.5,9.08566,7.77872,-0.499676
305,9.10076,7.85589,-0.512527
305.5,9.11576,7.9419,-0.524759
306,9.13104,8.0274,-0.537327
306.5,9.14601,8.10643,-0.553246
307,9.16093,8.19216,-0.566911
307.5,9.17617,8.28101,-0.581861
308,9.19143,8.36937,-0.598772
308.5,9.20654,8.45565,-0.61265
309,9.22148,8.54165,-0.630347
309.5,9.23679,8.63293,-0.645477
310,9.25175,8.71412,-0.661066
310.5,9.26725,8.81024,-0.681367
311,9.28191,8.89247,-0.695692
311.5,9.29722,8.97938,-0.714204
312,9.31234,9.06039,-0.733738
312.5,9.32727,9.13436,-0.750254
313,9.34261,9.21937,-0.772444
313.5,9.35755,9.29547,-0.791279
314,9.37242,9.37273,-0.811271
314.5,9.38727,9.43568,-0.835597
315,9.40174,9.50317,-0.853187
315.5,9.4177,9.56879,-0.876805
316,9.43238,9.63077,-0.900132
316.5,9.44707,9.68746,-0.91974
317,9.46253,9.73481,-0.946087
317.5,9.47763,9.77761,-0.967757
318,9.49261,9.80847,-0.990298
318.5,9.50743,9.83212,-1.01708
319,9.52251,9.85427,-1.03716
319.5,9.53701,9.86776,-1.06181
320,9.55195,9.87866,-1.08946
320.5,9.56671,9.87707,-1.11213
321,9.58155,9.88014,-1.14121
321.5,9.59657,9.88317,-1.16665
322,9.61144,9.87006,-1.1925
322.5,9.62601,9.8547,-1.22247
323,9.64085,9.827,-1.24494
323.5,9.65584,9.78926,-1.2718
324,9.67042,9.76831,-1.30175
324.5,9.68524,9.73269,-1.32541
325,9.69974,9.6961,-1.35392
325.5,9.71446,9.64276,-1.3813
326,9.72889,9.58417,-1.40541
326.5,9.74371,9.53083,-1.4362
327,9.75862,9.4665,-1.46085
327.5,9.7729,9.40701,-1.48606
328,9.7875,9.34391,-1.5169
328.5,9.802,9.2709,-1.53941
329,9.81668,9.20163,-1.56646
329.5,9.83169,9.12463,-1.59611
330,9.8461,9.03544,-1.61858
330.5,9.8607,8.9562,-1.64669
331,9.8754,8.87121,-1.67222
331.5,9.88981,8.78823,-1.69591
332,9.90471,8.68809,-1.72587
332.5,9.9186,8.60022,-1.74709
333,9.93337,8.51373,-1.77155
333.5,9.94779,8.43447,-1.79951
334,9.96311,8.36511,-1.82114
334.5,9.97772,8.29518,-1.84618
335,9.99261,8.2185,-1.87175
335.5,10.0074,8.17044,-1.89249
336,10.0221,8.12566,-1.91807
336.5,10.0369,8.07842,-1.93924
337,10.0515,8.00107,-1.96018
337.5,10.0661,7.91694,-1.98503
338,10.0808,7.83018,-2.00269
338.5,10.0955,7.7263,-2.02382
339,10.11,7.62021,-2.04736
339.5,10.1245,7.51213,-2.06474
340,10.1392,7.40791,-2.0861
340.5,10.1537,7.28874,-2.10565
341,10.1683,7.17198,-2.12209
341.5,10.1827,7.04729,-2.142
342,10.1968,6.92638,-2.15777
342.5,10.2117,6.79734,-2.17482
343,10.2267,6.66323,-2.19524
343.5,10.2411,6.53686,-2.20989
344,10.2556,6.4074,-2.22623
344.5,10.2703,6.28018,-2.24444
345,10.2845,6.1519,-2.25706
345.5,10.2992,6.02082,-2.27262
346,10.3137,5.90341,-2.28716
346.5,10.328,5.78437,-2.29941
347,10.3429,5.64581,-2.31535
347.5,10.3575,5.51747,-2.32772
348,10.3717,5.39698,-2.33981
348.5,10.3863,5.27365,-2.35415
349,10.4009,5.15283,-2.36441
349.5,10.4154,5.02162,-2.37623
350,10.4299,4.9031,-2.38896
350.5,10.4444,4.78759,-2.39838
351,10.4591,4.66291,-2.40967
351.5,10.4736,4.5417,-2.42029
352,10.4882,4.42892,-2.42946
352.5,10.5029,4.29878,-2.44103
353,10.5173,4.1955,-2.45033
353.5,10.5317,4.09017,-2.45976
354,10.5466,3.97583,-2.47064
354.5,10.561,3.87375,-2.47818
355,10.5756,3.76862,-2.48663
355.5,10.5903,3.66009,-2.49461
356,10.6048,3.56277,-2.50127
356.5,10.6195,3.46552,-2.50886
357,10.634,3.36465,-2.51597
357.5,10.6489,3.27339,-2.52289
358,10.6635,3.17622,-2.53135
358.5,10.6783,3.09341,-2.53788
359,10.6929,2.99864,-2.54497
359.5,10.7076,2.90865,-2.55318
360,10.7223,2.83094,-2.55859
360.5,10.7367,2.74959,-2.56482
361,10.7516,2.67263,-2.57104
361.5,10.7663,2.59485,-2.57557
362,10.7811,2.5245,-2.58139
362.5,10.7959,2.45108,-2.5865
363,10.8104,2.38744,-2.5912
363.5,10.8255,2.3169,-2.59573
364,10.8399,2.25287,-2.5998
364.5,10.8549,2.18576,-2.60458
365,10.8697,2.13492,-2.61001
365.5,10.8845,2.07082,-2.61396
366,10.8993,2.01818,-2.61816
366.5,10.9142,1.96939,-2.62196
367,10.929,1.91391,-2.62516
367.5,10.9439,1.86009,-2.63004
368,10.9587,1.81802,-2.63496
368.5,10.9734,1.77411,-2.63867
369,10.9886,1.73278,-2.64261
369.5,11.0033,1.69321,-2.64486
370,11.0182,1.64817,-2.64911
370.5,11.0331,1.6061,-2.65177
371,11.0479,1.5695,-2.65464
371.5,11.0631,1.53636,-2.65765
372,11.0778,1.50609,-2.66141
372.5,11.0927,1.47228,-2.66385
373,11.1078,1.4395,-2.66765
373.5,11.1227,1.40697,-2.67024
374,11.1377,1.37629,-2.67174
374.5,11.1525,1.36627,-2.67394
375,11.1679,1.33573,-2.67592
375.5,11.1825,1.31392,-2.67892
376,11.1978,1.29219,-2.68138
376.5,11.2127,1.27179,-2.68373
377,11.2274,1.24784,-2.68597
377.5,11.2425,1.24247,-2.68748
378,11.2571,1.22384,-2.6888
378.5,11.2721,1.20514,-2.69155
379,11.2877,1.18436,-2.69341
379.5,11.3027,1.16862,-2.69567
380,11.3179,1.16343,-2.69831
380.5,11.333,1.14748,-2.69979
381,11.3482,1.142,-2.70051
381.5,11.3631,1.13308,-2.70215
382,11.3781,1.12714,-2.70383
382.5,11.3934,1.11,-2.70659
383,11.4081,1.10086,-2.70822
383.5,11.4235,1.09817,-2.70984
384,11.4385,1.09197,-2.7116
384.5,11.454,1.09549,-2.7121
385,11.4689,1.09821,-2.7126
385.5,11.4839,1.10126,-2.71405
386,11.4989,1.0971,-2.71532
386.5,11.5142,1.09476,-2.71692
387,11.5292,1.093,-2.71911
387.5,11.5445,1.09768,-2.72054
388,11.5596,1.09429,-2.72234
388.5,11.5745,1.09457,-2.72287
389,11.5901,1.09822,-2.7244
389.5,11.6048,1.09902,-2.72413
390,11.62,1.10034,-2.7257
390.5,11.6354,1.10272,-2.72661
391,11.6505,1.10738,-2.72783
391.5,11.6657,1.09906,-2.7295
392,11.6809,1.10232,-2.73006
392.5,11.6959,1.10652,-2.73142
393,11.7111,1.10415,-2.73294
393.5,11.7261,1.11631,-2.73446
394,11.7414,1.1145,-2.73539
394.5,11.7568,1.1223,-2.73697
395,11.772,1.12422,-2.73826
395.5,11.7873,1.12868,-2.73954
396,11.8023,1.13012,-2.74085
396.5,11.8173,1.13091,-2.7425
397,11.8331,1.13793,-2.7431
397.5,11.8479,1.1375,-2.74421
398,11.8631,1.14029,-2.74563
398.5,11.8785,1.14809,-2.74733
399,11.8937,1.15793,-2.74877
399.5,11.9087,1.16262,-2.74993
400,11.9241,1.16127,-2.75157
400.5,11.9386,1.16526,-2.7536
401,11.9547,1.17084,-2.75515
401.5,11.9697,1.17013,-2.7563
402,11.985,1.16849,-2.75777
402.5,12.0002,1.17191,-2.75988
403,12.0155,1.18177,-2.76181
403.5,12.0308,1.18516,-2.76314
404,12.0458,1.18999,-2.76455
404.5,12.0613,1.18856,-2.76636
405,12.0763,1.19117,-2.76854
405.5,12.0916,1.19117,-2.76962
406,12.1068,1.19267,-2.77047
406.5,12.1221,1.20003,-2.77184
407,12.1374,1.1967,-2.7726
407.5,12.1528,1.20357,-2.77417
408,12.1677,1.20481,-2.77635
408.5,12.1833,1.20814,-2.77783
409,12.1985,1.21669,-2.77903
409.5,12.2134,1.22033,-2.78102
410,12.2283,1.21998,-2.78363
410.5,12.2441,1.22014,-2.78524
411,12.2595,1.22119,-2.78753
411.5,12.2748,1.21815,-2.78975
412,12.2902,1.22133,-2.79081
412.5,12.3053,1.21657,-2.7922
413,12.3207,1.21409,-2.79458
413.5,12.3357,1.21315,-2.79595
414,12.3509,1.21329,-2.79808
414.5,12.3663,1.20911,-2.80063
415,12.3817,1.21194,-2.80254
415.5,12.3971,1.21155,-2.80483
416,12.4125,1.21181,-2.80705
416.5,12.4276,1.21719,-2.80884
417,12.4431,1.21245,-2.81121
417.5,12.4582,1.20935,-2.81305
418,12.473,1.2093,-2.8152
418.5,12.489,1.20855,-2.81725
419,12.504,1.21145,-2.81911
419.5,12.5193,1.20765,-2.82192
420,12.5347,1.21216,-2.8237
420.5,12.5501,1.21173,-2.82644
421,12.5656,1.21116,-2.82947
421.5,12.5802,1.20804,-2.83137
422,12.5961,1.20415,-2.83435
422.5,12.6114,1.20096,-2.83678
423,12.6269,1.19773,-2.83908
423.5,12.642,1.19636,-2.84173
424,12.6574,1.19565,-2.84412
424.5,12.6728,1.18761,-2.8469
425,12.6882,1.18083,-2.84945
425.5,12.7035,1.17978,-2.85196
426,12.7191,1.17983,-2.85557
426.5,12.7343,1.18601,-2.8576
427,12.7496,1.1813,-2.86053
427.5,12.7645,1.17424,-2.86264
428,12.7798,1.1721,-2.86426
428.5,12.7955,1.1657,-2.86778
429,12.8109,1.16478,-2.87066
429.5,12.8263,1.16109,-2.87357
430,12.8414,1.16034,-2.87702
430.5,12.8568,1.15417,-2.87998
431,12.8723,1.15311,-2.88404
431.5,12.8879,1.15261,-2.88682
432,12.9031,1.14977,-2.88945
432.5,12.9185,1.14514,-2.8935
433,12.9338,1.14653,-2.89652
433.5,12.9489,1.14304,-2.90077
434,12.9647,1.14134,-2.90414
434.5,12.9802,1.13483,-2.90863
435,12.9957,1.13007,-2.91215
435.5,13.011,1.127,-2.91554
436,13.0266,1.11572,-2.91903
436.5,13.0418,1.1123,-2.92295
437,13.057,1.10636,-2.92679
437.5,13.0728,1.1065,-2.93069
438,13.0873,1.10142,-2.93478
438.5,13.1026,1.10613,-2.93771
439,13.1188,1.10179,-2.94146
439.5,13.1342,1.10432,-2.94526
440,13.1496,1.10403,-2.94887
440.5,13.165,1.10088,-2.95357
441,13.1804,1.10066,-2.95711
441.5,13.1954,1.09959,-2.96129
442,13.2107,1.10435,-2.96621
442.5,13.2263,1.09529,-2.97039
443,13.2418,1.08887,-2.97518
443.5,13.2579,1.08951,-2.97889
444,13.2732,1.08979,-2.9824
444.5,13.2883,1.08349,-2.9871
445,13.3043,1.07631,-2.99133
445.5,13.3197,1.07485,-2.99635
446,13.3351,1.07245,-3.00131
446.5,13.3505,1.07065,-3.00567
447,13.3663,1.07436,-3.0111
447.5,13.3817,1.07359,-3.01564
448,13.3972,1.07356,-3.02084
448.5,13.4127,1.06604,-3.02613
449,13.4283,1.07355,-3.03025
449.5,13.4436,1.07793,-3.03503
450,13.4595,1.07441,-3.03943
450.5,13.4746,1.08918,-3.04413
451,13.4902,1.09275,-3.05031
451.5,13.506,1.10377,-3.05544
452,13.5213,1.10419,-3.06128
452.5,13.537,1.10694,-3.06612
453,13.5523,1.11962,-3.07054
453.5,13.5681,1.1161,-3.07587
454,13.5837,1.12607,-3.07999
454.5,13.5993,1.13179,-3.08554
455,13.6147,1.13346,-3.09088
455.5,13.6304,1.15547,-3.09564
456,13.6459,1.1577,-3.10169
456.5,13.661,1.16129,-3.10621
457,13.6763,1.16941,-3.11173
457.5,13.693,1.17907,-3.11796
458,13.7082,1.18703,-3.12262
458.5,13.7239,1.20045,-3.12872
459,13.7394,1.21234,-3.13397
459.5,13.755,1.22787,-3.13988
460,13.7706,1.23811,-3.14632
460.5,13.786,1.24811,-3.15086
461,13.802,1.25894,-3.15663
461.5,13.8175,1.27356,-3.16145
462,13.8334,1.28418,-3.16659
462.5,13.8483,1.29083,-3.1726
463,13.8638,1.30443,-3.17691
463.5,13.8795,1.30617,-3.18282
464,13.8958,1.31639,-3.18841
464.5,13.9113,1.32407,-3.19355
465,13.927,1.33872,-3.20061
465.5,13.9426,1.34591,-3.20595
466,13.9581,1.34924,-3.21254
466.5,13.9737,1.35767,-3.21905
467,13.9894,1.36484,-3.2244
467.5,14.0051,1.37053,-3.23076
468,14.0209,1.38217,-3.23516
468.5,14.0365,1.38971,-3.24056
469,14.052,1.39047,-3.2465
469.5,14.0676,1.39009,-3.25141
470,14.0833,1.38705,-3.25738
470.5,14.0987,1.39318,-3.26212
471,14.1138,1.39882,-3.26725
471.5,14.13,1.40092,-3.27402
472,14.1456,1.40357,-3.27905
472.5,14.1615,1.39645,-3.285
473,14.1772,1.39721,-3.29
473.5,14.1925,1.39804,-3.29495
474,14.2087,1.39155,-3.30106
474.5,14.2242,1.38661,-3.30551
475,14.2397,1.38984,-3.31121
475.5,14.2554,1.38964,-3.31673
476,14.2713,1.38639,-3.32201
476.5,14.2864,1.38531,-3.32818
477,14.3021,1.37021,-3.33275
477.5,14.3179,1.36672,-3.33804
478,14.3335,1.36158,-3.34347
478.5,14.3493,1.35601,-3.34823
479,14.3648,1.3563,-3.35413
479.5,14.3804,1.35487,-3.35877
480,14.3961,1.34628,-3.36415
480.5,14.4115,1.34387,-3.36987
481,14.4269,1.33764,-3.3747
481.5,14.4431,1.3352,-3.38121
482,14.4588,1.33517,-3.3862
482.5,14.4745,1.34068,-3.39127
483,14.4905,1.32567,-3.39674
483.5,14.5059,1.30888,-3.40062
484,14.5217,1.30126,-3.40577
484.5,14.5373,1.31106,-3.41026
485,14.5532,1.31612,-3.41514
485.5,14.5688,1.30855,-3.42104
486,14.5844,1.2871,-3.42508
486.5,14.6001,1.27582,-3.43019
487,14.6162,1.27186,-3.4351
487.5,14.6318,1.27066,-3.44017
488,14.6473,1.26499,-3.44606
488.5,14.6629,1.26284,-3.45
489,14.679,1.25998,-3.45461
489.5,14.6943,1.23158,-3.45886
490,14.7102,1.22125,-3.46317
490.5,14.7259,1.2203,-3.46867
491,14.7416,1.21235,-3.47263
491.5,14.7573,1.20175,-3.47733
492,14.773,1.1937,-3.4818
492.5,14.7888,1.1922,-3.48566
493,14.8044,1.18308,-3.4907
493.5,14.82,1.16408,-3.49482
494,14.8357,1.15097,-3.49951
494.5,14.8516,1.1504,-3.50469
495,14.8673,1.14642,-3.50863
495.5,14.8829,1.14893,-3.51364
496,14.8991,1.13144,-3.51741
496.5,14.9146,1.12448,-3.52127
497,14.9303,1.11819,-3.5255
497.5,14.9462,1.11173,-3.52877
498,14.9609,1.10328,-3.53268
498.5,14.9769,1.09744,-3.53642
499,14.9932,1.08677,-3.54001
499.5,15.0091,1.07314,-3.54353
500,15.0247,1.05531,-3.5458
500.5,15.0402,1.04132,-3.55002
501,15.056,1.04157,-3.5539
501.5,15.0717,1.02606,-3.55746
502,15.0872,1.02318,-3.56133
502.5,15.103,1.01563,-3.5654
503,15.1192,1.00904,-3.57004
503.5,15.135,1.00184,-3.57381
504,15.1506,1.00622,-3.57724
504.5,15.1664,0.991815,-3.58163
505,15.1821,0.983672,-3.58469
505.5,15.1976,0.966004,-3.58784
506,15.2136,0.950303,-3.59127
506.5,15.2294,0.94103,-3.59476
507,15.2451,0.933126,-3.59683
507.5,15.261,0.920862,-3.59991
508,15.277,0.912423,-3.60383
508.5,15.2924,0.900467,-3.60592
509,15.3082,0.887338,-3.60904
509.5,15.3241,0.876851,-3.61224
510,15.3398,0.874364,-3.61445
510.5,15.3559,0.865621,-3.61771
511,15.3715,0.853191,-3.62038
511.5,15.3875,0.839126,-3.62265
512,15.403,0.825449,-3.62552
512.5,15.4187,0.824454,-3.62801
513,15.4349,0.808795,-3.63083
513.5,15.4503,0.802106,-3.63352
514,15.4661,0.797766,-3.63541
514.5,15.4819,0.7815,-3.63802
515,15.4974,0.769321,-3.64014
515.5,15.5136,0.765151,-3.64273
516,15.5291,0.755285,-3.64559
516.5,15.5454,0.739404,-3.64738
517,15.561,0.727897,-3.64909
517.5,15.577,0.723341,-3.6511
518,15.5925,0.722803,-3.65254
518.5,15.6086,0.716347,-3.65431
519,15.6242,0.704213,-3.65597
519.5,15.6398,0.705313,-3.65768
520,15.6559,0.704293,-3.65968
520.5,15.6718,0.703044,-3.66126
521,15.6877,0.696247,-3.6634
521.5,15.7034,0.690724,-3.66548
522,15.7191,0.679908,-3.66676
522.5,15.7354,0.682526,-3.66824
523,15.7504,0.688832,-3.67021
523.5,15.7662,0.679644,-3.67276
524,15.7827,0.662394,-3.67395
524.5,15.7985,0.641905,-3.67512
525,15.8143,0.633772,-3.67659
525.5,15.8302,0.634563,-3.67747
526,15.8462,0.643088,-3.67835
526.5,15.8618,0.643942,-3.67977
527,15.878,0.638145,-3.6812
527.5,15.8935,0.632006,-3.68261
528,15.9098,0.620539,-3.68369
528.5,15.9256,0.604842,-3.68453
529,15.9413,0.604752,-3.68586
529.5,15.9573,0.601937,-3.68707
530,15.9732,0.599469,-3.68798
530.5,15.9889,0.596944,-3.68949
531,16.0048,0.588012,-3.69039
531.5,16.021,0.583284,-3.69126
532,16.0369,0.584855,-3.69286
532.5,16.0525,0.578588,-3.69311
533,16.0687,0.57746,-3.69434
533.5,16.0846,0.573049,-3.69444
534,16.1005,0.568373,-3.69596
534.5,16.1164,0.56473,-3.6958
535,16.1322,0.564295,-3.69717
535.5,16.1484,0.558748,-3.69734
536,16.1638,0.555521,-3.69863
536.5,16.1799,0.549337,-3.6987
537,16.1957,0.548757,-3.69992
537.5,16.2121,0.551531,-3.69999
538,16.2276,0.542626,-3.70002
538.5,16.2438,0.539554,-3.70118
539,16.2597,0.542869,-3.70133
539.5,16.2754,0.535428,-3.70251
540,16.2913,0.538755,-3.70256
540.5,16.3076,0.537735,-3.70334
541,16.3234,0.534625,-3.7041
541.5,16.3391,0.534368,-3.70464
542,16.3552,0.537498,-3.70564
542.5,16.3712,0.536213,-3.70553
543,16.3868,0.534387,-3.70658
543.5,16.4028,0.541144,-3.70693
544,16.4184,0.544807,-3.70739
544.5,16.4345,0.544572,-3.70853
545,16.4511,0.541994,-3.7088
545.5,16.4667,0.54427,-3.70988
546,16.4831,0.537748,-3.70988
546.5,16.4991,0.535213,-3.70989
547,16.515,0.544088,-3.71105
547.5,16.5312,0.541544,-3.7112
548,16.5467,0.542343,-3.71118
548.5,16.5631,0.545024,-3.71266
549,16.5788,0.538507,-3.7127
549.5,16.5947,0.540962,-3.7135
550,16.6108,0.542301,-3.71406
550.5,16.627,0.5498,-3.71405
551,16.6426,0.55287,-3.71405
551.5,16.6588,0.546165,-3.71406
552,16.675,0.545829,-3.71522
552.5,16.6905,0.541012,-3.71534
553,16.7068,0.537586,-3.71537
553.5,16.7226,0.536377,-3.71568
554,16.7386,0.539756,-3.71672
554.5,16.7546,0.543035,-3.71642
555,16.7709,0.539917,-3.71536
555.5,16.7868,0.539544,-3.71539
556,16.8028,0.54477,-3.71533
556.5,16.8189,0.55136,-3.71619
557,16.8348,0.549885,-3.71671
557.5,16.8509,0.551232,-3.71671
558,16.8671,0.549267,-3.7167
558.5,16.883,0.550354,-3.71796
559,16.899,0.548116,-3.71801
559.5,16.9151,0.55031,-3.7181
560,16.9311,0.557193,-3.71898
560.5,16.9468,0.564108,-3.71963
561,16.9632,0.560774,-3.72035
561.5,16.979,0.565694,-3.72031
562,16.9952,0.564007,-3.72032
562.5,17.0109,0.565253,-3.72032
563,17.0269,0.567481,-3.71964
563.5,17.043,0.563885,-3.719
564,17.059,0.5736,-3.719
564.5,17.075,0.577136,-3.719
565,17.0911,0.574099,-3.719
565.5,17.1073,0.572923,-3.719
566,17.1235,0.575116,-3.71891
566.5,17.1392,0.571818,-3.72013
567,17.1551,0.573373,-3.72032
567.5,17.1716,0.573181,-3.72032
568,17.1873,0.575605,-3.72032
568.5,17.2036,0.575258,-3.72023
569,17.2198,0.576144,-3.72148
569.5,17.2355,0.578837,-3.72163
570,17.2514,0.57858,-3.72163
570.5,17.2677,0.578119,-3.72163
571,17.2839,0.579309,-3.72163
571.5,17.2999,0.574657,-3.72163
572,17.3157,0.579554,-3.72166
572.5,17.332,0.579334,-3.72127
573,17.3477,0.581959,-3.7213
573.5,17.364,0.583205,-3.72129
574,17.3802,0.585159,-3.72124
574.5,17.396,0.576424,-3.7222
575,17.4124,0.581955,-3.72263
575.5,17.4284,0.5854,-3.72262
576,17.4446,0.583243,-3.72262
576.5,17.4602,0.585547,-3.72262
577,17.4763,0.58091,-3.7229
577.5,17.4926,0.585184,-3.72402
578,17.5086,0.591289,-3.72395
578.5,17.5243,0.583725,-3.72394
579,17.5402,0.582905,-3.72394
579.5,17.556,0.585509,-3.72392
580,17.5727,0.57938,-3.72379
580.5,17.5892,0.57716,-3.72296
581,17.6054,0.58016,-3.72295
581.5,17.6213,0.579718,-3.72295
582,17.6371,0.576883,-3.72295
582.5,17.6533,0.576843,-3.72295
583,17.6694,0.576435,-3.72295
583.5,17.6856,0.579926,-3.72295
584,17.7014,0.577935,-3.72295
584.5,17.718,0.580902,-3.72296
585,17.734,0.586158,-3.72312
585.5,17.7503,0.57867,-3.72427
586,17.7663,0.577507,-3.72426
586.5,17.7821,0.57288,-3.72426
587,17.7985,0.576106,-3.72474
587.5,17.8144,0.57753,-3.72563
588,17.8303,0.57195,-3.7256
588.5,17.8465,0.57162,-3.72559
589,17.8629,0.574849,-3.72559
589.5,17.8793,0.576006,-3.72533
590,17.8948,0.568036,-3.72418
590.5,17.9112,0.569918,-3.72427
591,17.9271,0.570021,-3.72427
591.5,17.9434,0.570496,-3.72427
592,17.9598,0.573344,-3.72427
592.5,17.9758,0.574283,-3.72427
593,17.9921,0.573607,-3.72427
593.5,18.008,0.572357,-3.72468
594,18.024,0.577169,-3.72564
594.5,18.0404,0.579236,-3.72559
595,18.056,0.582548,-3.72558
595.5,18.0722,0.570584,-3.72558
596,18.0882,0.575187,-3.72558
596.5,18.1047,0.569205,-3.72556
597,18.1206,0.570966,-3.72549
597.5,18.1367,0.569297,-3.72428
598,18.1529,0.570057,-3.72459
598.5,18.169,0.572468,-3.72562
599,18.1854,0.571895,-3.72558
599.5,18.2014,0.578374,-3.72558
600,18.2175,0.57615,-3.72558
600.5,18.2339,0.576187,-3.72558
601,18.2498,0.57959,-3.72558
601.5,18.266,0.575034,-3.72578
602,18.2822,0.567455,-3.72792
602.5,18.298,0.568733,-3.72823
603,18.3144,0.571744,-3.72822
603.5,18.3308,0.576442,-3.72822
604,18.3471,0.572357,-3.72822
604.5,18.3629,0.569964,-3.72822
605,18.3793,0.56828,-3.72822
605.5,18.3954,0.575226,-3.72822
606,18.4116,0.575311,-3.72822
606.5,18.4272,0.569381,-3.72821
607,18.4434,0.569602,-3.72792
607.5,18.4602,0.571587,-3.72758
608,18.4764,0.573537,-3.7273
608.5,18.4925,0.568164,-3.72724
609,18.5087,0.565909,-3.72723
609.5,18.5251,0.569624,-3.72723
610,18.5411,0.572715,-3.72723
610.5,18.5573,0.578361,-3.72723
611,18.5734,0.567193,-3.72723
611.5,18.5898,0.567565,-3.72723
612,18.6061,0.568673,-3.72723
612.5,18.6221,0.570112,-3.7281
613,18.6383,0.569071,-3.72853
613.5,18.6541,0.567085,-3.72855
614,18.6707,0.568201,-3.72855
614.5,18.6869,0.572904,-3.72855
615,18.7031,0.57079,-3.72855
615.5,18.719,0.570035,-3.72855
616,18.7356,0.568663,-3.72855
616.5,18.7516,0.570822,-3.72855
617,18.7677,0.567886,-3.72855
617.5,18.784,0.57102,-3.72961
618,18.8002,0.571537,-3.72983
618.5,18.8165,0.568593,-3.72986
619,18.8326,0.564831,-3.72986
619.5,18.849,0.565715,-3.72986
620,18.8651,0.564285,-3.72986
620.5,18.8812,0.571666,-3.73063
621,18.8975,0.571673,-3.73117
621.5,18.914,0.575334,-3.73101
622,18.93,0.566664,-3.73086
622.5,18.9463,0.563536,-3.73085
623,18.9623,0.563415,-3.73085
623.5,18.9792,0.563456,-3.73086
624,18.9953,0.56096,-3.73079
624.5,19.0115,0.564325,-3.73172
625,19.0281,0.56042,-3.73148
625.5,19.044,0.567572,-3.73134
626,19.0598,0.56622,-3.73119
626.5,19.076,0.564145,-3.73118
627,19.0926,0.561249,-3.73118
627.5,19.1087,0.566471,-3.73118
628,19.1252,0.569747,-3.73122
628.5,19.1416,0.569639,-3.73015
629,19.1577,0.57506,-3.72987
629.5,19.1743,0.573817,-3.72986
630,19.1902,0.575743,-3.72986
630.5,19.2064,0.574061,-3.72986
631,19.2227,0.569895,-3.72986
631.5,19.239,0.568243,-3.72986
632,19.2552,0.573577,-3.72986
632.5,19.2715,0.575226,-3.72986
633,19.288,0.567877,-3.72986
633.5,19.304,0.567982,-3.72986
634,19.32,0.570219,-3.72988
634.5,19.3365,0.572564,-3.72983
635,19.3526,0.574629,-3.73113
635.5,19.369,0.576975,-3.73118
636,19.3853,0.583182,-3.73117
636.5,19.4016,0.586768,-3.73112
637,19.4177,0.583124,-3.73045
637.5,19.4342,0.588986,-3.72947
638,19.4505,0.58156,-3.72952
638.5,19.4666,0.582421,-3.72951
639,19.4829,0.582526,-3.72919
639.5,19.4992,0.582268,-3.72822
640,19.5153,0.584989,-3.72822
640.5,19.5317,0.582979,-3.72822
641,19.5477,0.585968,-3.72822
641.5,19.5643,0.588,-3.72822
642,19.5805,0.58448,-3.72822
642.5,19.5966,0.58771,-3.72822
643,19.6123,0.587033,-3.72812
643.5,19.6292,0.586594,-3.72936
644,19.6455,0.579448,-3.72954
644.5,19.6618,0.577171,-3.72954
645,19.6779,0.57532,-3.72955
645.5,19.6943,0.573006,-3.73063
646,19.7105,0.567898,-3.73083
646.5,19.7268,0.566219,-3.73085
647,19.7431,0.571224,-3.73085
647.5,19.7594,0.573254,-3.73086
648,19.7757,0.578488,-3.73082
648.5,19.7919,0.575134,-3.7319
649,19.8085,0.572747,-3.73216
649.5,19.8246,0.572396,-3.73217
650,19.8409,0.571003,-3.73217
650.5,19.8572,0.567719,-3.73217
651,19.8736,0.567581,-3.73217
651.5,19.8897,0.567325,-3.73217
652,19.906,0.574311,-3.73217
652.5,19.9222,0.571441,-3.73217
653,19.9384,0.569472,-3.73218
653.5,19.955,0.568504,-3.73209
654,19.9711,0.572193,-3.7334
654.5,19.9875,0.573905,-3.73348
655,20.004,0.577268,-3.73293
655.5,20.02,0.577409,-3.73216
656,20.0367,0.573291,-3.73217
656.5,20.0525,0.57684,-3.73217
657,20.069,0.57037,-3.73217
657.5,20.0852,0.563148,-3.73217
658,20.1016,0.54535,-3.73217
658.5,20.1176,0.521003,-3.73217
659,20.1336,0.524584,-3.73217
659.5,20.1502,0.532629,-3.73217
660,20.1667,0.538664,-3.73217
660.5,20.183,0.537352,-3.73217
661,20.1991,0.539592,-3.73217
661.5,20.2153,0.539961,-3.73217
662,20.232,0.546816,-3.73217
662.5,20.248,0.548425,-3.73217
663,20.2645,0.548571,-3.73217
663.5,20.2809,0.545816,-3.73217
664,20.2973,0.553385,-3.73253
664.5,20.3136,0.551217,-3.73356
665,20.3296,0.551955,-3.7335
665.5,20.3453,0.546071,-3.73349
666,20.3618,0.548695,-3.73349
666.5,20.3781,0.55121,-3.73349
667,20.3944,0.549063,-3.73349
667.5,20.4114,0.547978,-3.73349
668,20.4277,0.543395,-3.73349
668.5,20.4442,0.540988,-3.73349
669,20.4604,0.537012,-3.73349
669.5,20.4766,0.538667,-3.73349
670,20.4931,0.531811,-3.73349
670.5,20.5091,0.531933,-3.73347
671,20.5254,0.530179,-3.73227
671.5,20.5418,0.525912,-3.73219
672,20.558,0.529159,-3.73217
672.5,20.5744,0.532758,-3.73217
673,20.5907,0.529351,-3.73213
673.5,20.6069,0.524697,-3.73086
674,20.6236,0.518941,-3.73087
674.5,20.6399,0.522752,-3.73085
675,20.6563,0.522998,-3.73085
675.5,20.6725,0.530902,-3.73084
676,20.6887,0.530907,-3.73134
676.5,20.7051,0.524491,-3.73221
677,20.7213,0.520001,-3.73218
677.5,20.7377,0.520729,-3.73217
678,20.7543,0.516409,-3.73217
678.5,20.7704,0.510499,-3.73217
679,20.7865,0.507104,-3.73217
679.5,20.8028,0.507903,-3.73207
680,20.8194,0.50501,-3.73331
680.5,20.8357,0.501687,-3.73348
681,20.8518,0.499998,-3.73348
681.5,20.8681,0.500171,-3.73347
682,20.8846,0.504005,-3.73351
682.5,20.9009,0.508018,-3.73242
683,20.9173,0.495187,-3.73217
683.5,20.9331,0.498163,-3.73216
684,20.9495,0.494401,-3.73216
684.5,20.9666,0.496545,-3.73216
685,20.9828,0.493736,-3.73209
685.5,20.9984,0.494241,-3.73289
686,21.015,0.493381,-3.73282
686.5,21.0318,0.487746,-3.73282
687,21.0482,0.48595,-3.73282
687.5,21.0645,0.487813,-3.73282
688,21.0809,0.481679,-3.73282
688.5,21.0974,0.481522,-3.73282
689,21.1139,0.478568,-3.73282
689.5,21.1304,0.478156,-3.73282
690,21.1464,0.478695,-3.73282
690.5,21.1631,0.478029,-3.73282
691,21.1792,0.482443,-3.73282
691.5,21.1957,0.475531,-3.73282
692,21.2119,0.469409,-3.73283
692.5,21.2282,0.472456,-3.73216
693,21.245,0.473502,-3.7315
693.5,21.2614,0.473157,-3.73146
694,21.2777,0.469602,-3.73222
694.5,21.2941,0.470636,-3.73286
695,21.3105,0.464679,-3.73283
695.5,21.327,0.465921,-3.73283
696,21.3434,0.45866,-3.73283
696.5,21.3596,0.458906,-3.73283
697,21.3765,0.456707,-3.73283
697.5,21.3926,0.454211,-3.73283
698,21.4088,0.451303,-3.73283
698.5,21.4254,0.444291,-3.73283
699,21.4418,0.440508,-3.73283
699.5,21.4583,0.439467,-3.73269
700,21.4747,0.439602,-3.7328
700.5,21.4912,0.435072,-3.73283
701,21.5075,0.432227,-3.73283
701.5,21.524,0.431361,-3.73307
702,21.5404,0.429171,-3.73315
702.5,21.5569,0.422863,-3.73316
703,21.5733,0.421906,-3.73316
703.5,21.5898,0.419611,-3.73312
704,21.6062,0.413448,-3.73378
704.5,21.6228,0.409088,-3.7338
705,21.6389,0.410458,-3.73382
705.5,21.6556,0.409097,-3.73382
706,21.672,0.408528,-3.73375
706.5,21.6883,0.406126,-3.73452
707,21.7048,0.400126,-3.73447
707.5,21.7213,0.396532,-3.73448
708,21.7377,0.39501,-3.73448
708.5,21.7542,0.394133,-3.73448
709,21.7709,0.388995,-3.73448
709.5,21.7867,0.393189,-3.73448
710,21.8036,0.387954,-3.73448
710.5,21.8199,0.386067,-3.73451
711,21.8365,0.38111,-3.73412
711.5,21.853,0.379778,-3.73417
712,21.8697,0.376173,-3.73427
712.5,21.8861,0.374145,-3.73543
713,21.9023,0.372556,-3.73545
713.5,21.9189,0.374195,-3.73545
714,21.9351,0.371704,-3.73542
714.5,21.9519,0.372389,-3.73451
715,21.9683,0.36882,-3.73447
715.5,21.9849,0.369559,-3.73447
716,22.0015,0.364909,-3.73447
716.5,22.0176,0.364157,-3.73447
717,22.0345,0.356835,-3.73446
717.5,22.0511,0.35627,-3.73439
718,22.0672,0.350519,-3.73548
718.5,22.0837,0.352036,-3.73579
719,22.1003,0.350432,-3.73579
719.5,22.1169,0.342943,-3.73579
720,22.133,0.335358,-3.73579
720.5,22.1496,0.3318,-3.73579
721,22.1664,0.33588,-3.7358
721.5,22.1827,0.332731,-3.7355
722,22.1991,0.322148,-3.73535
722.5,22.2157,0.320999,-3.73478
723,22.2323,0.319796,-3.7348
723.5,22.2485,0.320699,-3.7348
724,22.265,0.318514,-3.7348
724.5,22.2817,0.310632,-3.7348
725,22.2978,0.310216,-3.7348
725.5,22.3146,0.30873,-3.7348
726,22.3309,0.308378,-3.73489
726.5,22.3477,0.309352,-3.73361
727,22.3641,0.304735,-3.73418
727.5,22.3806,0.305205,-3.73481
728,22.3972,0.300846,-3.7348
728.5,22.4135,0.300691,-3.7348
729,22.4301,0.298867,-3.7348
729.5,22.4466,0.298943,-3.7348
730,22.4632,0.291285,-3.73579
730.5,22.4799,0.28676,-3.73609
731,22.496,0.28273,-3.73612
731.5,22.5125,0.280514,-3.73612
732,22.5293,0.278233,-3.73612
732.5,22.5457,0.280828,-3.73612
733,22.562,0.275872,-3.73613
733.5,22.5785,0.26384,-3.73538
734,22.5953,0.262246,-3.73482
734.5,22.6117,0.263115,-3.73481
735,22.6284,0.269617,-3.73481
735.5,22.6448,0.26123,-3.73481
736,22.6614,0.255976,-3.73481
736.5,22.6778,0.254018,-3.73481
737,22.6945,0.252019,-3.73481
737.5,22.7109,0.24433,-3.73481
738,22.7276,0.240155,-3.73481
738.5,22.7441,0.239832,-3.73481
739,22.7607,0.241225,-3.73481
739.5,22.7771,0.237783,-3.73481
740,22.7937,0.23313,-3.73481