File: 01_Data/Helmet_Tetrahedron/STA/N2/30K_min/Helmet_Tetrahedron_STA_N2_30KData_240229_R1.csv
Temp./C,Time/min,DSC/(mW/mg),Mass loss/mg
60.0,0.0,1.70369,0.00060935
60.5,0.0263544,1.75504,0.000650502
61,0.0511082,1.81093,0.00110856
61.5,0.0757173,1.864,0.000644299
62,0.0997636,1.91229,-0.000404659
62.5,0.123843,1.96158,-0.00030729
63,0.147163,2.01328,-5.83698e-05
63.5,0.170511,2.05608,0.000612543
64,0.193152,2.09412,0.00170531
64.5,0.216036,2.13962,0.00202175
65,0.238158,2.18021,0.00150308
65.5,0.259574,2.22007,0.0016581
66,0.280734,2.25972,0.00181059
66.5,0.302814,2.29072,0.00229191
67,0.32382,2.33098,0.00283085
67.5,0.344287,2.35311,0.00350648
68,0.365241,2.39034,0.00396576
68.5,0.385945,2.42589,0.00492508
69,0.406685,2.45847,0.00627726
69.5,0.427086,2.48334,0.00654133
70,0.44676,2.51977,0.00658607
70.5,0.466564,2.53686,0.00707815
71,0.486564,2.57162,0.00764133
71.5,0.505778,2.59507,0.00722519
72,0.52551,2.61938,0.00635886
72.5,0.544989,2.64948,0.00614103
73,0.564412,2.67099,0.00560899
73.5,0.583196,2.69084,0.00554726
74,0.602759,2.70687,0.00591991
74.5,0.621641,2.73036,0.00602424
75,0.640242,2.75177,0.0045854
75.5,0.658907,2.77513,0.00355453
76,0.677939,2.78812,0.00189949
76.5,0.696791,2.80645,0.00121493
77,0.715114,2.8301,0.000241676
77.5,0.733768,2.85844,0.000840289
78,0.752151,2.86694,0.00122453
78.5,0.769725,2.88537,0.00139731
79,0.788964,2.90477,0.00287608
79.5,0.806815,2.91927,0.00278806
80,0.825163,2.9371,0.00307063
80.5,0.843324,2.95732,0.0025897
81,0.861469,2.97567,0.00361599
81.5,0.878604,2.99493,0.00268793
82,0.897356,3.00355,0.00253335
82.5,0.915045,3.01049,0.00226211
83,0.932931,3.03447,0.00190959
83.5,0.950024,3.04904,0.0018485
84,0.967987,3.06776,0.00175779
84.5,0.985593,3.08554,0.00130236
85,1.00327,3.09948,0.000988088
85.5,1.02103,3.11128,0.000899574
86,1.03865,3.12274,0.00211844
86.5,1.05614,3.13651,0.002271
87,1.07351,3.15052,0.00121306
87.5,1.09098,3.16019,0.00164958
88,1.10832,3.17885,0.000507822
88.5,1.1249,3.1942,-0.000947896
89,1.14268,3.20988,-0.00128121
89.5,1.16002,3.21672,-0.0010641
90,1.17653,3.23457,-0.00207822
90.5,1.19444,3.24149,-0.0011962
91,1.21144,3.25616,-0.00212231
91.5,1.22905,3.26549,-0.00101437
92,1.24613,3.27712,-0.00139233
92.5,1.26277,3.29331,-0.00139773
93,1.27957,3.30102,-0.00138103
93.5,1.29689,3.30946,-0.00288177
94,1.3137,3.3197,-0.00234023
94.5,1.33139,3.34653,-0.00135393
95,1.34766,3.33304,-0.00135581
95.5,1.3649,3.3656,7.60983e-05
96,1.38166,3.37769,-0.000860439
96.5,1.39856,3.38017,0.000411172
97,1.41534,3.393,0.000308685
97.5,1.43223,3.407,-9.78711e-06
98,1.44879,3.4158,0.000332534
98.5,1.46585,3.4255,0.000279466
99,1.48239,3.4318,0.0016068
99.5,1.4992,3.45176,0.000509723
100,1.51573,3.45869,0.000330891
100.5,1.53248,3.47294,0.000311759
101,1.5493,3.47775,0.000251451
101.5,1.56627,3.48857,0.00113921
102,1.58282,3.49194,0.000976013
102.5,1.5993,3.49868,0.000971367
103,1.61647,3.51607,0.00130421
103.5,1.63262,3.53097,0.0023635
104,1.64939,3.53415,0.00192984
104.5,1.66629,3.5398,0.00165789
105,1.68284,3.54844,0.00163859
105.5,1.69899,3.56594,0.00163964
106,1.7162,3.56652,0.00163998
106.5,1.73268,3.57604,0.00164005
107,1.74946,3.58727,0.00164044
107.5,1.76597,3.59455,0.00163913
108,1.78279,3.60757,0.00152464
108.5,1.79894,3.61043,0.000229225
109,1.81491,3.61964,0.000327434
109.5,1.83213,3.63532,0.000315398
110,1.84888,3.64321,0.000275624
110.5,1.86558,3.65034,0.00122
111,1.882,3.65808,0.00165693
111.5,1.89855,3.67272,0.00179225
112,1.91496,3.68559,0.0018909
112.5,1.93194,3.68566,0.00322534
113,1.94779,3.69637,0.00327839
113.5,1.9649,3.71574,0.00329009
114,1.98156,3.71414,0.00354933
114.5,1.99814,3.72264,0.00470753
115,2.01414,3.73466,0.00358612
115.5,2.03087,3.74749,0.00430019
116,2.04768,3.73804,0.00466478
116.5,2.06404,3.75386,0.00359583
117,2.08058,3.76064,0.00312756
117.5,2.09692,3.76441,0.00231142
118,2.11359,3.77518,0.00301721
118.5,2.13023,3.78815,0.00305464
119,2.14637,3.79566,0.00306085
119.5,2.16294,3.80137,0.0030421
120,2.17942,3.80859,0.00271885
120.5,2.19539,3.81816,0.00173522
121,2.21193,3.82706,0.00174167
121.5,2.22853,3.83286,0.00174019
122,2.24501,3.84137,0.00174009
122.5,2.26144,3.8509,0.00174558
123,2.27821,3.85807,0.00114949
123.5,2.29424,3.85811,0.000422061
124,2.31034,3.86214,0.000424454
124.5,2.32686,3.87669,0.000429559
125,2.34297,3.88384,0.000430036
125.5,2.35975,3.88425,0.00043001
126,2.37575,3.89375,0.00043
126.5,2.39219,3.90601,0.000430001
127,2.40836,3.90966,0.000430004
127.5,2.42507,3.91583,0.000429976
128,2.44102,3.91886,0.000429542
128.5,2.45764,3.92811,0.000428586
129,2.4739,3.93844,0.000454547
129.5,2.49006,3.94439,0.000753189
130,2.5063,3.9549,0.00142433
130.5,2.52268,3.9625,0.00142567
131,2.53839,3.96446,0.0014204
131.5,2.5547,3.9718,0.00141996
132,2.57108,3.97211,0.00142022
132.5,2.58714,3.98191,0.00142037
133,2.60355,3.98171,0.00140722
133.5,2.61963,3.99025,0.00128045
134,2.63574,4.00518,0.000137575
134.5,2.65174,4.01187,0.000123498
135,2.66826,4.01842,0.000115779
135.5,2.68346,4.01461,-0.000184051
136,2.69924,4.02926,-0.00127553
136.5,2.71656,4.03435,9.47337e-05
137,2.73205,4.03914,7.27737e-05
137.5,2.7486,4.05164,9.88828e-05
138,2.76447,4.05383,9.59014e-05
138.5,2.78038,4.06775,0.000819705
139,2.79644,4.06964,0.00140758
139.5,2.81252,4.07632,0.000246248
140,2.82901,4.08341,0.00012597
140.5,2.84386,4.08495,0.000235389
141,2.86062,4.09525,0.00152881
141.5,2.87689,4.09544,0.0014461
142,2.89277,4.09928,0.00091576
142.5,2.90872,4.11067,4.994e-05
143,2.92486,4.1204,0.000100278
143.5,2.94061,4.1316,7.77895e-06
144,2.95666,4.12605,0.00120601
144.5,2.97223,4.12882,0.00142364
145,2.98837,4.14005,0.00142065
145.5,3.00443,4.15264,0.00141999
146,3.02014,4.15359,0.00141999
146.5,3.03625,4.16417,0.00142
147,3.05202,4.16782,0.00142
147.5,3.06775,4.16751,0.00142
148,3.08364,4.18072,0.00142
148.5,3.09925,4.1824,0.00142
149,3.11517,4.18854,0.00142
149.5,3.13119,4.19787,0.00142
150,3.14711,4.19632,0.00142
150.5,3.16279,4.21005,0.00142004
151,3.17878,4.21168,0.00142024
151.5,3.19485,4.21706,0.00141865
152,3.21056,4.22324,0.00137663
152.5,3.22628,4.22827,0.000116827
153,3.24203,4.23156,0.000121153
153.5,3.25793,4.23312,8.51036e-05
154,3.27379,4.24437,0.000142994
154.5,3.28946,4.24574,-0.00114639
155,3.30458,4.24784,-0.0010328
155.5,3.32027,4.25892,0.000200615
156,3.33619,4.26731,9.84925e-05
156.5,3.35269,4.27305,9.82793e-05
157,3.36821,4.27579,9.78753e-05
157.5,3.38418,4.27797,0.000106966
158,3.3999,4.28118,0.000265016
158.5,3.41549,4.28532,-0.00183158
159,3.43112,4.29077,-0.00254115
159.5,3.44685,4.2994,-0.00253049
160,3.463,4.29854,-0.00252511
160.5,3.47826,4.31489,-0.00302789
161,3.49403,4.30894,-0.00388403
161.5,3.51024,4.30905,-0.00335753
162,3.52448,4.32224,-0.00332979
162.5,3.54126,4.31425,-0.00397976
163,3.55704,4.32995,-0.00432678
163.5,3.57248,4.33503,-0.00538607
164,3.58848,4.32955,-0.00435944
164.5,3.60409,4.33561,-0.00394727
165,3.6195,4.34701,-0.00395631
165.5,3.63504,4.35291,-0.00395998
166,3.65103,4.35362,-0.00395955
166.5,3.66656,4.35251,-0.00395813
167,3.68273,4.35923,-0.00398217
167.5,3.69815,4.36127,-0.00419218
168,3.7139,4.37003,-0.00528194
168.5,3.72961,4.37553,-0.00464472
169,3.7449,4.36731,-0.0039248
169.5,3.7603,4.37113,-0.00380015
170,3.7764,4.38263,-0.00243883
170.5,3.79185,4.39495,-0.00254527
171,3.80739,4.3986,-0.00137748
171.5,3.8232,4.40655,-0.00111102
172,3.83843,4.41091,-0.00114523
172.5,3.85417,4.41212,-0.000352928
173,3.86995,4.4222,0.000217719
173.5,3.88534,4.42584,0.000209468
174,3.90134,4.4219,0.000208258
174.5,3.91675,4.42814,0.000209199
175,3.93224,4.43309,0.000306741
175.5,3.9478,4.43584,-0.000871311
176,3.96346,4.44303,-0.00111496
176.5,3.97914,4.44527,-0.00111055
177,3.99425,4.45179,-0.00110991
177.5,4.01004,4.44702,-0.00110957
178,4.02544,4.46325,-0.00111036
178.5,4.04103,4.45829,-0.00117883
179,4.05638,4.46891,-0.00243769
179.5,4.07191,4.47093,-0.00240121
180,4.08777,4.47347,-0.00241878
180.5,4.10287,4.47978,-0.00242025
181,4.11853,4.48667,-0.00242003
181.5,4.13411,4.4872,-0.00242003
182,4.14926,4.50417,-0.00242025
182.5,4.16468,4.49629,-0.00241863
183,4.1801,4.49726,-0.00240298
183.5,4.19579,4.50293,-0.00245622
184,4.21097,4.50955,-0.00112494
184.5,4.22644,4.51043,-0.00184451
185,4.24194,4.51848,-0.00246175
185.5,4.25733,4.52107,-0.00243578
186,4.27291,4.5268,-0.00203164
186.5,4.28797,4.53449,-0.00106263
187,4.30339,4.54087,-0.0010082
187.5,4.3187,4.54575,-0.00223649
188,4.33411,4.54423,-0.00243449
188.5,4.34927,4.55356,-0.00253093
189,4.36436,4.55747,-0.00373634
189.5,4.38001,4.55774,-0.0037982
190,4.39565,4.55197,-0.00443424
190.5,4.41079,4.55793,-0.00520973
191,4.42635,4.56643,-0.00515952
191.5,4.44155,4.57124,-0.00515947
192,4.45685,4.5811,-0.00516065
192.5,4.4719,4.58401,-0.00514097
193,4.48747,4.58473,-0.00511213
193.5,4.5027,4.58947,-0.00422087
194,4.51806,4.58507,-0.00418344
194.5,4.53329,4.58877,-0.0041796
195,4.54851,4.59106,-0.00418108
195.5,4.56397,4.59854,-0.00417334
196,4.57938,4.60888,-0.00408033
196.5,4.59451,4.61094,-0.00382658
197,4.60941,4.6125,-0.00350728
197.5,4.62493,4.61424,-0.00253306
198,4.64009,4.61607,-0.00253152
198.5,4.65525,4.6191,-0.00252998
199,4.67074,4.62655,-0.00252997
199.5,4.68574,4.62961,-0.00253
200,4.70054,4.63486,-0.00253
200.5,4.71561,4.62846,-0.00253
201,4.73146,4.63104,-0.00253013
201.5,4.74684,4.63534,-0.00253008
202,4.7619,4.63763,-0.00252301
202.5,4.77764,4.63817,-0.00251033
203,4.79253,4.64496,-0.00310663
203.5,4.80801,4.64747,-0.00381238
204,4.82295,4.64755,-0.00459455
204.5,4.8383,4.64177,-0.00652377
205,4.85324,4.64402,-0.00690658
205.5,4.86872,4.64735,-0.00811717
206,4.88401,4.64481,-0.00801301
206.5,4.89923,4.65573,-0.00801815
207,4.91451,4.65515,-0.00802009
207.5,4.92921,4.65783,-0.00802004
208,4.94456,4.66198,-0.00801997
208.5,4.95983,4.66105,-0.00801968
209,4.9752,4.65884,-0.00802112
209.5,4.99034,4.65627,-0.00804031
210,5.00521,4.65967,-0.00796086
210.5,5.02062,4.65687,-0.00929929
211,5.03608,4.66984,-0.00943966
211.5,5.05047,4.67326,-0.0104804
212,5.06621,4.66305,-0.0108732
212.5,5.0811,4.66881,-0.0108656
213,5.09635,4.67437,-0.0111778
213.5,5.11151,4.67754,-0.0123648
214,5.1269,4.67929,-0.0110508
214.5,5.14196,4.68122,-0.0108763
215,5.15678,4.67381,-0.0108798
215.5,5.17252,4.67628,-0.0108801
216,5.18749,4.67653,-0.0108799
216.5,5.20277,4.67489,-0.0108806
217,5.21803,4.6743,-0.0108864
217.5,5.23319,4.68612,-0.0106347
218,5.24829,4.68287,-0.00947907
218.5,5.26317,4.68272,-0.00958077
219,5.27861,4.6788,-0.00964126
219.5,5.29349,4.67658,-0.0107399
220,5.30902,4.68152,-0.0108424
220.5,5.32386,4.68118,-0.0113216
221,5.33937,4.68451,-0.0122547
221.5,5.35468,4.69152,-0.0121929
222,5.36954,4.68426,-0.0121241
222.5,5.38464,4.68294,-0.0131459
223,5.3999,4.68723,-0.0140529
223.5,5.41489,4.68642,-0.0148502
224,5.43039,4.68928,-0.0148271
224.5,5.44534,4.68632,-0.0148295
225,5.46041,4.68651,-0.0148301
225.5,5.47542,4.68588,-0.01483
226,5.49074,4.68884,-0.0148299
226.5,5.50571,4.68932,-0.0148295
227,5.52095,4.69114,-0.0148363
227.5,5.53613,4.68804,-0.0148574
228,5.55134,4.68978,-0.0141917
228.5,5.5663,4.6861,-0.0134884
229,5.58133,4.68569,-0.0147707
229.5,5.59656,4.6915,-0.0148301
230,5.61177,4.68884,-0.0159559
230.5,5.62692,4.68825,-0.0162532
231,5.64181,4.68834,-0.0165511
231.5,5.65717,4.68712,-0.0175968
232,5.67218,4.68615,-0.0175675
232.5,5.68744,4.67845,-0.0175787
233,5.70228,4.68131,-0.0176598
233.5,5.71761,4.67713,-0.0189369
234,5.73289,4.67725,-0.0188836
234.5,5.74802,4.68323,-0.0189419
235,5.76281,4.67895,-0.0200342
235.5,5.77818,4.67446,-0.0202009
236,5.79307,4.6714,-0.0202057
236.5,5.8081,4.66694,-0.0201832
237,5.8234,4.66111,-0.0208693
237.5,5.83845,4.66375,-0.021664
238,5.85351,4.66056,-0.0215525
238.5,5.86827,4.66023,-0.0227611
239,5.88371,4.65185,-0.0230711
239.5,5.89851,4.64461,-0.0235938
240,5.91372,4.63639,-0.0245527
240.5,5.92916,4.62937,-0.0236491
241,5.94391,4.62599,-0.0243687
241.5,5.95901,4.62736,-0.0245434
242,5.97412,4.6179,-0.0250457
242.5,5.98932,4.61574,-0.0262339
243,6.00432,4.60933,-0.0260717
243.5,6.0191,4.60463,-0.0267265
244,6.03436,4.59095,-0.0261555
244.5,6.04967,4.58593,-0.0275926
245,6.06449,4.57934,-0.0276999
245.5,6.0797,4.56998,-0.0289637
246,6.0947,4.56694,-0.0291142
246.5,6.10983,4.54848,-0.0292532
247,6.12459,4.54359,-0.0303285
247.5,6.13973,4.537,-0.0303356
248,6.15472,4.52179,-0.0313113
248.5,6.17013,4.50758,-0.0319365
249,6.18494,4.49293,-0.0324527
249.5,6.19988,4.48038,-0.0337012
250,6.21508,4.46916,-0.0351058
250.5,6.2299,4.45662,-0.0362307
251,6.24477,4.44175,-0.0360513
251.5,6.2599,4.42191,-0.03736
252,6.27485,4.40803,-0.0374697
252.5,6.28979,4.39836,-0.0390575
253,6.30489,4.38014,-0.0394931
253.5,6.31945,4.36206,-0.0411324
254,6.33508,4.33947,-0.0419927
254.5,6.34992,4.31947,-0.0429522
255,6.36478,4.29962,-0.0455575
255.5,6.37993,4.2794,-0.0464353
256,6.39507,4.26132,-0.0475265
256.5,6.40989,4.23973,-0.0490759
257,6.42506,4.2191,-0.0492375
257.5,6.43992,4.20871,-0.0506707
258,6.45472,4.18977,-0.0509646
258.5,6.47005,4.18576,-0.0532718
259,6.48513,4.19254,-0.0549035
259.5,6.50036,4.20268,-0.0557699
260,6.51568,4.22985,-0.0574486
260.5,6.53063,4.2627,-0.0587769
261,6.54589,4.31064,-0.0604208
261.5,6.56111,4.36968,-0.0623437
262,6.57628,4.42027,-0.0638591
262.5,6.59162,4.47547,-0.0644095
263,6.60698,4.5352,-0.0660525
263.5,6.6219,4.59525,-0.0678204
264,6.63737,4.65345,-0.0697437
264.5,6.65243,4.71576,-0.0700929
265,6.66779,4.76138,-0.0715003
265.5,6.68297,4.80637,-0.0728318
266,6.69819,4.84351,-0.0746153
266.5,6.7136,4.88054,-0.0755804
267,6.72892,4.92324,-0.0778741
267.5,6.74391,4.9514,-0.079368
268,6.75894,4.98178,-0.0804249
268.5,6.77424,5.01915,-0.0819629
269,6.78952,5.0473,-0.0841888
269.5,6.80457,5.07334,-0.0870464
270,6.82009,5.10665,-0.0901623
270.5,6.83511,5.12113,-0.0925173
271,6.85015,5.1406,-0.0953937
271.5,6.86497,5.16436,-0.0970001
272,6.87966,5.18231,-0.0992765
272.5,6.89506,5.20457,-0.102439
273,6.91053,5.22506,-0.104842
273.5,6.9258,5.24684,-0.10826
274,6.94093,5.26726,-0.110986
274.5,6.95617,5.28774,-0.11475
275,6.9712,5.30262,-0.117526
275.5,6.98636,5.31179,-0.119847
276,7.00182,5.33624,-0.12312
276.5,7.01629,5.36334,-0.125744
277,7.03237,5.37914,-0.129269
277.5,7.04686,5.40154,-0.133467
278,7.06192,5.42372,-0.136204
278.5,7.07767,5.43456,-0.13985
279,7.09294,5.46172,-0.143431
279.5,7.10788,5.48294,-0.144973
280,7.12331,5.50837,-0.149119
280.5,7.13788,5.52285,-0.151508
281,7.15332,5.54447,-0.155685
281.5,7.16869,5.56821,-0.160608
282,7.18401,5.59227,-0.163957
282.5,7.19877,5.61675,-0.167738
283,7.21435,5.64361,-0.171676
283.5,7.22914,5.66358,-0.175392
284,7.24441,5.68492,-0.180748
284.5,7.26008,5.71009,-0.185119
285,7.27518,5.73968,-0.190178
285.5,7.29029,5.76543,-0.196721
286,7.30562,5.7995,-0.201364
286.5,7.32048,5.82435,-0.206995
287,7.3359,5.85649,-0.212446
287.5,7.35097,5.88074,-0.217948
288,7.3665,5.91496,-0.224717
288.5,7.3818,5.94345,-0.229389
289,7.39684,5.97516,-0.235182
289.5,7.41225,6.00892,-0.240692
290,7.42731,6.04509,-0.245561
290.5,7.44257,6.08853,-0.252184
291,7.45818,6.11749,-0.257917
291.5,7.47315,6.15288,-0.264178
292,7.48864,6.19087,-0.272306
292.5,7.50385,6.22685,-0.278301
293,7.5192,6.26738,-0.285512
293.5,7.53465,6.30855,-0.292949
294,7.54967,6.34894,-0.299319
294.5,7.56522,6.39037,-0.307988
295,7.58048,6.43548,-0.314741
295.5,7.59575,6.47336,-0.322711
296,7.6112,6.52396,-0.331486
296.5,7.62641,6.57349,-0.338283
297,7.64186,6.61456,-0.347442
297.5,7.65719,6.66218,-0.355214
298,7.67209,6.70993,-0.362989
298.5,7.68753,6.76079,-0.373163
299,7.70309,6.813,-0.381292
299.5,7.71843,6.86532,-0.392072
300,7.73336,6.91235,-0.401652
300.5,7.7489,6.96462,-0.410371
301,7.7642,7.01692,-0.421242
301.5,7.7795,7.0707,-0.430332
302,7.79518,7.13547,-0.4413
302.5,7.81023,7.17951,-0.45358
303,7.82601,7.24138,-0.46467
303.5,7.84113,7.29936,-0.477687
304,7.85597,7.35769,-0.488389
304.5,7.8715,7.41703,-0.499897
305,7.88684,7.47287,-0.514352
305.5,7.90188,7.53147,-0.525393
306,7.91812,7.59488,-0.539953
306.5,7.93326,7.64946,-0.553448
307,7.94858,7.71238,-0.56557
307.5,7.96414,7.77524,-0.581557
308,7.97966,7.83266,-0.594814
308.5,7.99487,7.89367,-0.609904
309,8.01024,7.95816,-0.626558
309.5,8.02586,8.01703,-0.6396
310,8.04043,8.07104,-0.655025
310.5,8.05577,8.12895,-0.669798
311,8.07186,8.19033,-0.685315
311.5,8.08722,8.24762,-0.70363
312,8.10256,8.303,-0.717361
312.5,8.1182,8.3627,-0.736064
313,8.13317,8.42297,-0.753761
313.5,8.14908,8.47198,-0.770324
314,8.16419,8.52814,-0.790112
314.5,8.17946,8.5985,-0.80551
315,8.19499,8.64332,-0.823077
315.5,8.21039,8.69905,-0.842696
316,8.22578,8.75798,-0.857241
316.5,8.2413,8.80728,-0.877981
317,8.25622,8.85663,-0.896125
317.5,8.27207,8.91264,-0.915428
318,8.28764,8.96518,-0.937402
318.5,8.30274,9.01725,-0.952644
319,8.318,9.05228,-0.972679
319.5,8.3334,9.10385,-0.993245
320,8.34824,9.14347,-1.0109
320.5,8.3636,9.17478,-1.03383
321,8.37892,9.21451,-1.05202
321.5,8.39479,9.24762,-1.07304
322,8.40968,9.27926,-1.09602
322.5,8.42543,9.30474,-1.11539
323,8.44068,9.32586,-1.13753
323.5,8.45621,9.34374,-1.15738
324,8.47121,9.338,-1.17639
324.5,8.48675,9.34051,-1.20096
325,8.50166,9.34331,-1.21865
325.5,8.51719,9.33364,-1.24093
326,8.53219,9.31858,-1.26329
326.5,8.54744,9.29741,-1.28215
327,8.56288,9.26505,-1.30613
327.5,8.57773,9.22209,-1.32385
328,8.59282,9.18521,-1.34255
328.5,8.608,9.13381,-1.36582
329,8.62298,9.08045,-1.38276
329.5,8.63828,9.0266,-1.40358
330,8.65305,8.97034,-1.42297
330.5,8.66814,8.90092,-1.43974
331,8.68296,8.82547,-1.46029
331.5,8.69805,8.74231,-1.47848
332,8.7131,8.65747,-1.4971
332.5,8.72814,8.57349,-1.51777
333,8.74302,8.48326,-1.53218
333.5,8.75788,8.38262,-1.54931
334,8.77293,8.294,-1.56638
334.5,8.78774,8.19366,-1.58082
335,8.80271,8.09552,-1.59902
335.5,8.8176,7.99584,-1.61365
336,8.83245,7.89031,-1.62865
336.5,8.84719,7.7818,-1.6456
337,8.86241,7.67402,-1.65811
337.5,8.87686,7.5708,-1.672
338,8.89235,7.459,-1.68742
338.5,8.90683,7.35307,-1.69924
339,8.92178,7.2325,-1.71419
339.5,8.93668,7.11387,-1.72665
340,8.95127,7.00285,-1.73883
340.5,8.96617,6.89054,-1.75365
341,8.98117,6.77629,-1.76441
341.5,8.99607,6.65486,-1.77687
342,9.01063,6.53646,-1.78888
342.5,9.02533,6.41626,-1.79775
343,9.04049,6.30706,-1.80987
343.5,9.05515,6.19536,-1.82036
344,9.06982,6.07781,-1.83036
344.5,9.08471,5.95715,-1.84254
345,9.09964,5.83935,-1.85141
345.5,9.11455,5.72056,-1.86097
346,9.129,5.60563,-1.87055
346.5,9.14417,5.48586,-1.87768
347,9.15885,5.37211,-1.88605
347.5,9.17399,5.25997,-1.8944
348,9.18877,5.14318,-1.90204
348.5,9.20336,5.02806,-1.91162
349,9.21819,4.90955,-1.91889
349.5,9.23315,4.79994,-1.92663
350,9.24792,4.69164,-1.93526
350.5,9.2628,4.58901,-1.94139
351,9.27736,4.48364,-1.9488
351.5,9.2926,4.36725,-1.95664
352,9.30722,4.26523,-1.96279
352.5,9.32247,4.1574,-1.97029
353,9.33692,4.05576,-1.9761
353.5,9.35221,3.95563,-1.98128
354,9.36651,3.8596,-1.98839
354.5,9.3817,3.76248,-1.99345
355,9.39693,3.65752,-1.99898
355.5,9.41178,3.57641,-2.00406
356,9.42662,3.48473,-2.00805
356.5,9.44157,3.39388,-2.0125
357,9.45635,3.31084,-2.01568
357.5,9.47118,3.22557,-2.02021
358,9.48659,3.14156,-2.02639
358.5,9.50125,3.06685,-2.03074
359,9.5165,2.99188,-2.03558
359.5,9.5317,2.91848,-2.03992
360,9.54633,2.8508,-2.04322
360.5,9.56145,2.79605,-2.04766
361,9.5765,2.72563,-2.05184
361.5,9.59165,2.65753,-2.0561
362,9.60656,2.59442,-2.06096
362.5,9.6219,2.53371,-2.06464
363,9.6369,2.48319,-2.06875
363.5,9.65229,2.42941,-2.07328
364,9.6675,2.38093,-2.07658
364.5,9.68238,2.34111,-2.07998
365,9.69738,2.29754,-2.08369
365.5,9.7127,2.25319,-2.08728
366,9.72788,2.21611,-2.0918
366.5,9.74311,2.17902,-2.09468
367,9.75829,2.14225,-2.09819
367.5,9.77338,2.11328,-2.10149
368,9.78875,2.08037,-2.10459
368.5,9.8037,2.04524,-2.10834
369,9.81907,2.02116,-2.11112
369.5,9.83425,2.004,-2.11455
370,9.84959,1.97695,-2.11629
370.5,9.86488,1.95269,-2.11907
371,9.88024,1.94131,-2.12265
371.5,9.89527,1.91841,-2.12555
372,9.9107,1.89641,-2.12861
372.5,9.92619,1.8779,-2.13104
373,9.94112,1.87132,-2.13415
373.5,9.95675,1.85669,-2.13664
374,9.97188,1.84572,-2.13939
374.5,9.98662,1.82917,-2.14243
375,10.0025,1.81339,-2.14403
375.5,10.0175,1.8054,-2.14641
376,10.0335,1.79142,-2.14827
376.5,10.0483,1.78099,-2.15061
377,10.0636,1.77502,-2.15408
377.5,10.0794,1.76837,-2.15666
378,10.0944,1.76056,-2.15905
378.5,10.1098,1.7501,-2.16145
379,10.1252,1.75028,-2.16389
379.5,10.1399,1.73954,-2.16659
380,10.1554,1.73792,-2.16731
380.5,10.1708,1.73029,-2.16903
381,10.1868,1.72721,-2.17088
381.5,10.2022,1.71811,-2.17337
382,10.2177,1.71788,-2.17572
382.5,10.2331,1.71743,-2.17876
383,10.2486,1.71674,-2.18109
383.5,10.2633,1.71811,-2.18279
384,10.2794,1.71298,-2.18557
384.5,10.2948,1.7147,-2.18739
385,10.31,1.70697,-2.19019
385.5,10.3254,1.70873,-2.19345
386,10.3412,1.70337,-2.19547
386.5,10.3563,1.70356,-2.19879
387,10.3717,1.701,-2.20309
387.5,10.3869,1.70979,-2.20549
388,10.4025,1.70728,-2.20855
388.5,10.4179,1.70826,-2.21024
389,10.4332,1.70383,-2.21231
389.5,10.4486,1.70544,-2.21589
390,10.4643,1.70734,-2.21854
390.5,10.4797,1.70904,-2.22094
391,10.4956,1.71572,-2.22469
391.5,10.5108,1.71471,-2.22792
392,10.527,1.71202,-2.23084
392.5,10.5421,1.71803,-2.23425
393,10.5575,1.7237,-2.23717
393.5,10.5733,1.72081,-2.24162
394,10.5888,1.73314,-2.24502
394.5,10.6035,1.74002,-2.24739
395,10.6197,1.73497,-2.2507
395.5,10.6351,1.73544,-2.25314
396,10.6503,1.74031,-2.25655
396.5,10.6655,1.74714,-2.26033
397,10.6814,1.75452,-2.26247
397.5,10.6968,1.7626,-2.26565
398,10.7122,1.76504,-2.26889
398.5,10.7282,1.75985,-2.27295
399,10.7438,1.76409,-2.27709
399.5,10.7595,1.7672,-2.28045
400,10.7751,1.76935,-2.28386
400.5,10.7906,1.77746,-2.28725
401,10.8054,1.78419,-2.28999
401.5,10.8214,1.78537,-2.2926
402,10.8367,1.79215,-2.29485
402.5,10.8521,1.79993,-2.2979
403,10.8684,1.8042,-2.3021
403.5,10.8839,1.80396,-2.30481
404,10.8994,1.80235,-2.30897
404.5,10.9151,1.80709,-2.31248
405,10.9305,1.81218,-2.31705
405.5,10.9455,1.81979,-2.32054
406,10.9615,1.82051,-2.32531
406.5,10.977,1.81804,-2.32892
407,10.9933,1.82239,-2.33318
407.5,11.0087,1.82546,-2.33805
408,11.0243,1.82981,-2.34155
408.5,11.0397,1.83095,-2.34589
409,11.0552,1.83116,-2.35025
409.5,11.071,1.82637,-2.35462
410,11.0864,1.8279,-2.36029
410.5,11.102,1.83326,-2.3642
411,11.1175,1.83028,-2.36842
411.5,11.1335,1.82706,-2.37266
412,11.149,1.8278,-2.3753
412.5,11.1636,1.82005,-2.38007
413,11.1794,1.82296,-2.38421
413.5,11.1952,1.81967,-2.38875
414,11.2105,1.81335,-2.39366
414.5,11.226,1.8045,-2.39783
415,11.242,1.79713,-2.40354
415.5,11.2576,1.7902,-2.40828
416,11.2737,1.77787,-2.41345
416.5,11.2889,1.76599,-2.41874
417,11.3048,1.7601,-2.42283
417.5,11.3203,1.74868,-2.42771
418,11.336,1.73656,-2.432
418.5,11.3518,1.72682,-2.43681
419,11.367,1.72101,-2.44392
419.5,11.3827,1.70391,-2.44862
420,11.3983,1.68223,-2.4549
420.5,11.4135,1.68053,-2.46175
421,11.4296,1.66599,-2.46641
421.5,11.445,1.65051,-2.47182
422,11.4606,1.62767,-2.47596
422.5,11.4762,1.61813,-2.4813
423,11.492,1.59998,-2.4873
423.5,11.5073,1.58353,-2.49213
424,11.5233,1.56633,-2.49862
424.5,11.5387,1.5449,-2.5033
425,11.5543,1.52736,-2.50837
425.5,11.5697,1.50603,-2.51296
426,11.5855,1.48373,-2.51762
426.5,11.6012,1.4564,-2.52373
427,11.6169,1.43855,-2.52928
427.5,11.6322,1.41338,-2.53489
428,11.6477,1.38997,-2.5409
428.5,11.663,1.36112,-2.54536
429,11.6793,1.33211,-2.55099
429.5,11.694,1.31928,-2.55596
430,11.7097,1.29385,-2.56069
430.5,11.7255,1.26482,-2.56688
431,11.7414,1.23209,-2.57144
431.5,11.7568,1.20498,-2.57669
432,11.7728,1.17483,-2.58267
432.5,11.7879,1.14565,-2.58699
433,11.8038,1.12353,-2.59281
433.5,11.8192,1.09486,-2.59761
434,11.835,1.05986,-2.60312
434.5,11.8503,1.02358,-2.60877
435,11.8662,0.998666,-2.61328
435.5,11.8816,0.961935,-2.61893
436,11.8973,0.929428,-2.62454
436.5,11.913,0.898587,-2.63158
437,11.9286,0.871226,-2.63827
437.5,11.9441,0.844272,-2.64279
438,11.9593,0.814749,-2.64804
438.5,11.9748,0.780841,-2.6531
439,11.9903,0.75171,-2.65788
439.5,12.0064,0.726055,-2.66439
440,12.0224,0.69755,-2.66905
440.5,12.0377,0.668884,-2.67537
441,12.0533,0.639115,-2.67988
441.5,12.0692,0.611867,-2.68395
442,12.0848,0.584698,-2.68894
442.5,12.1005,0.565337,-2.69306
443,12.1164,0.537133,-2.69808
443.5,12.1318,0.509997,-2.70317
444,12.1474,0.485926,-2.70714
444.5,12.1626,0.466313,-2.71208
445,12.1783,0.445122,-2.71527
445.5,12.1942,0.418374,-2.72033
446,12.2103,0.396658,-2.72658
446.5,12.2255,0.373644,-2.73036
447,12.2415,0.348823,-2.73492
447.5,12.257,0.337836,-2.73987
448,12.2728,0.311077,-2.74497
448.5,12.2886,0.294021,-2.75047
449,12.3042,0.272488,-2.75422
449.5,12.3199,0.261935,-2.75854
450,12.3355,0.235375,-2.76297
450.5,12.3514,0.223193,-2.76753
451,12.367,0.209045,-2.77327
451.5,12.3832,0.194427,-2.77743
452,12.398,0.17808,-2.78184
452.5,12.4139,0.161423,-2.78638
453,12.4298,0.144344,-2.79052
453.5,12.4459,0.131199,-2.79608
454,12.4617,0.115952,-2.80015
454.5,12.4771,0.108471,-2.80494
455,12.4933,0.0965348,-2.81011
455.5,12.509,0.0851947,-2.81449
456,12.5247,0.0784446,-2.81999
456.5,12.5404,0.0710928,-2.82531
457,12.5562,0.0601252,-2.83028
457.5,12.5718,0.0560945,-2.83521
458,12.5879,0.0482083,-2.8395
458.5,12.6036,0.0381916,-2.84472
459,12.6194,0.0345538,-2.84894
459.5,12.6355,0.0398418,-2.85359
460,12.6509,0.0240003,-2.85813
460.5,12.6667,0.0287965,-2.86175
461,12.6827,0.0225831,-2.86646
461.5,12.6984,0.0187539,-2.87053
462,12.7142,0.0144792,-2.87516
462.5,12.7301,0.0180122,-2.88072
463,12.746,0.0157351,-2.88493
463.5,12.762,0.0186161,-2.89004
464,12.7776,0.0275832,-2.89402
464.5,12.7935,0.0290979,-2.89822
465,12.8093,0.0356271,-2.90325
465.5,12.8253,0.0398154,-2.90594
466,12.8412,0.049222,-2.91091
466.5,12.8571,0.0528162,-2.91577
467,12.873,0.0653248,-2.92065
467.5,12.8889,0.0779666,-2.92599
468,12.905,0.0844608,-2.9291
468.5,12.9207,0.0883785,-2.93477
469,12.9366,0.110612,-2.93979
469.5,12.9527,0.132099,-2.94433
470,12.9686,0.142286,-2.94927
470.5,12.9844,0.157057,-2.95302
471,13.0004,0.172849,-2.95932
471.5,13.0166,0.184132,-2.9645
472,13.0323,0.196822,-2.96908
472.5,13.0479,0.210167,-2.97452
473,13.0642,0.234241,-2.9788
473.5,13.0799,0.246599,-2.98405
474,13.0961,0.268372,-2.98895
474.5,13.1121,0.283448,-2.99372
475,13.128,0.296357,-2.9996
475.5,13.1442,0.312118,-3.00403
476,13.1598,0.325222,-3.00914
476.5,13.1762,0.334268,-3.01391
477,13.1921,0.351429,-3.01842
477.5,13.2079,0.373227,-3.02337
478,13.2241,0.384111,-3.02641
478.5,13.2397,0.393915,-3.03119
479,13.2559,0.410375,-3.03617
479.5,13.2719,0.423021,-3.0415
480,13.2877,0.435734,-3.04693
480.5,13.304,0.44321,-3.05168
481,13.3196,0.450492,-3.05674
481.5,13.3357,0.469783,-3.06131
482,13.3516,0.465264,-3.06579
482.5,13.3678,0.474349,-3.07144
483,13.3838,0.480865,-3.07652
483.5,13.3995,0.489847,-3.08239
484,13.416,0.498179,-3.0873
484.5,13.4312,0.501755,-3.09172
485,13.4478,0.498851,-3.09747
485.5,13.4636,0.495431,-3.10175
486,13.4798,0.494468,-3.10752
486.5,13.4958,0.498676,-3.11143
487,13.5115,0.48865,-3.11539
487.5,13.5276,0.486135,-3.12071
488,13.5434,0.48638,-3.12556
488.5,13.5594,0.481537,-3.12988
489,13.5756,0.475623,-3.13358
489.5,13.5915,0.475532,-3.13701
490,13.6072,0.466881,-3.14041
490.5,13.6235,0.462608,-3.14389
491,13.6395,0.46041,-3.14835
491.5,13.6553,0.450217,-3.1523
492,13.6714,0.449214,-3.15587
492.5,13.6872,0.449144,-3.16049
493,13.7032,0.445735,-3.16423
493.5,13.7192,0.438558,-3.16889
494,13.7348,0.431936,-3.1728
494.5,13.7511,0.428889,-3.17565
495,13.7675,0.41652,-3.17951
495.5,13.7832,0.417588,-3.18255
496,13.7992,0.411647,-3.18631
496.5,13.815,0.405075,-3.18861
497,13.8313,0.397627,-3.19218
497.5,13.8473,0.39262,-3.19522
498,13.863,0.381122,-3.19953
498.5,13.8794,0.376346,-3.20278
499,13.8952,0.368544,-3.20668
499.5,13.9113,0.364393,-3.20965
500,13.9274,0.355956,-3.21384
500.5,13.9433,0.346224,-3.21847
501,13.9593,0.336204,-3.22144
501.5,13.9754,0.328417,-3.22519
502,13.9912,0.322748,-3.22854
502.5,14.0074,0.312381,-3.23148
503,14.0233,0.299749,-3.23464
503.5,14.0395,0.291,-3.23734
504,14.0553,0.28239,-3.24016
504.5,14.0715,0.265116,-3.24224
505,14.0874,0.263974,-3.24437
505.5,14.1034,0.257772,-3.24727
506,14.1197,0.247548,-3.25018
506.5,14.1354,0.234598,-3.25287
507,14.151,0.228381,-3.256
507.5,14.1674,0.215197,-3.25721
508,14.1827,0.201392,-3.2593
508.5,14.1991,0.19378,-3.26257
509,14.215,0.18922,-3.26483
509.5,14.2307,0.181406,-3.26736
510,14.2477,0.171291,-3.27021
510.5,14.2638,0.157477,-3.27204
511,14.2796,0.146719,-3.27328
511.5,14.2954,0.137952,-3.27596
512,14.3111,0.130989,-3.2791
512.5,14.3274,0.12864,-3.28124
513,14.3439,0.11685,-3.28471
513.5,14.36,0.102856,-3.28664
514,14.3759,0.0945394,-3.28841
514.5,14.3915,0.0932164,-3.28955
515,14.4076,0.0821745,-3.29076
515.5,14.4237,0.0704479,-3.29234
516,14.4396,0.065425,-3.29485
516.5,14.4556,0.0532345,-3.29632
517,14.4722,0.0409482,-3.29829
517.5,14.4884,0.0371583,-3.30036
518,14.5046,0.0273083,-3.30194
518.5,14.5206,0.0247786,-3.30322
519,14.5367,0.0243997,-3.3047
519.5,14.5526,0.0199729,-3.3055
520,14.5689,0.0117349,-3.30636
520.5,14.5846,0.00530574,-3.30559
521,14.601,0.00164891,-3.30654
521.5,14.6171,-0.00907474,-3.30608
522,14.6334,-0.0170583,-3.30736
522.5,14.649,-0.0246152,-3.30893
523,14.6649,-0.0305297,-3.31033
523.5,14.6811,-0.0338961,-3.31137
524,14.6976,-0.0398968,-3.3132
524.5,14.7134,-0.04303,-3.31453
525,14.7296,-0.0508672,-3.31515
525.5,14.7458,-0.0531028,-3.31641
526,14.7621,-0.0558124,-3.31785
526.5,14.7782,-0.062912,-3.31926
527,14.7942,-0.0724312,-3.32085
527.5,14.8106,-0.0765232,-3.32239
528,14.8261,-0.087567,-3.32503
528.5,14.8425,-0.0846475,-3.327
529,14.8588,-0.0829921,-3.32868
529.5,14.8748,-0.0868606,-3.32981
530,14.8909,-0.0847891,-3.33164
530.5,14.9072,-0.0902991,-3.33187
531,14.9232,-0.0892422,-3.33401
531.5,14.9391,-0.0939007,-3.33404
532,14.9556,-0.0937441,-3.33501
532.5,14.9715,-0.0960801,-3.33544
533,14.9878,-0.100097,-3.33543
533.5,15.0037,-0.108215,-3.33543
534,15.02,-0.113736,-3.33613
534.5,15.036,-0.107774,-3.33688
535,15.0523,-0.106393,-3.33718
535.5,15.0679,-0.109872,-3.3382
536,15.0845,-0.115506,-3.33817
536.5,15.1006,-0.121506,-3.33901
537,15.117,-0.1197,-3.3397
537.5,15.133,-0.122743,-3.34007
538,15.1492,-0.123972,-3.34119
538.5,15.1653,-0.124996,-3.34135
539,15.1817,-0.129309,-3.34344
539.5,15.197,-0.130517,-3.34401
540,15.2139,-0.129783,-3.34509
540.5,15.2301,-0.134128,-3.3453
541,15.246,-0.134453,-3.34682
541.5,15.2625,-0.138761,-3.34717
542,15.2786,-0.140493,-3.34879
542.5,15.2944,-0.139106,-3.35026
543,15.3109,-0.13965,-3.35094
543.5,15.3272,-0.144386,-3.35237
544,15.3431,-0.142667,-3.35365
544.5,15.3595,-0.142897,-3.35392
545,15.3755,-0.144504,-3.35604
545.5,15.3919,-0.145854,-3.35594
546,15.4081,-0.145835,-3.3573
546.5,15.4239,-0.145572,-3.35762
547,15.4401,-0.149153,-3.35768
547.5,15.4565,-0.150577,-3.35699
548,15.4727,-0.151408,-3.3574
548.5,15.4888,-0.149766,-3.35697
549,15.505,-0.148381,-3.35606
549.5,15.5214,-0.153506,-3.35597
550,15.5381,-0.156378,-3.35718
550.5,15.5538,-0.156744,-3.35738
551,15.57,-0.15685,-3.35738
551.5,15.5861,-0.152284,-3.35738
552,15.6026,-0.154785,-3.35738
552.5,15.6187,-0.151595,-3.35738
553,15.635,-0.155709,-3.35738
553.5,15.6513,-0.157248,-3.35738
554,15.6676,-0.156388,-3.35738
554.5,15.6838,-0.16037,-3.35738
555,15.6999,-0.169088,-3.35737
555.5,15.7163,-0.161358,-3.3579
556,15.7325,-0.158961,-3.35907
556.5,15.7486,-0.164406,-3.36007
557,15.7648,-0.164668,-3.36002
557.5,15.7809,-0.163905,-3.36002
558,15.7975,-0.171166,-3.36002
558.5,15.8134,-0.169958,-3.36002
559,15.8299,-0.171812,-3.36007
559.5,15.846,-0.174369,-3.35916
560,15.8622,-0.171993,-3.35858
560.5,15.8785,-0.174913,-3.35866
561,15.8949,-0.182221,-3.35984
561.5,15.9108,-0.180379,-3.35991
562,15.9273,-0.17883,-3.35993
562.5,15.9436,-0.177055,-3.36109
563,15.9597,-0.175813,-3.36122
563.5,15.976,-0.187845,-3.36123
564,15.9924,-0.184649,-3.36123
564.5,16.0088,-0.185386,-3.36121
565,16.0247,-0.186168,-3.36172
565.5,16.0411,-0.190538,-3.36271
566,16.0573,-0.184941,-3.36305
566.5,16.0734,-0.187994,-3.36415
567,16.0893,-0.191047,-3.36411
567.5,16.106,-0.191994,-3.36536
568,16.122,-0.190135,-3.36533
568.5,16.1378,-0.189103,-3.36618
569,16.1546,-0.195093,-3.36685
569.5,16.171,-0.196843,-3.36675
570,16.1874,-0.199067,-3.36787
570.5,16.2037,-0.200045,-3.36814
571,16.2197,-0.200892,-3.36814
571.5,16.236,-0.204361,-3.36814
572,16.2524,-0.199532,-3.36814
572.5,16.2689,-0.203844,-3.36816
573,16.2848,-0.203537,-3.36762
573.5,16.3013,-0.209364,-3.36678
574,16.3177,-0.211159,-3.36683
574.5,16.3335,-0.210393,-3.36686
575,16.3495,-0.205619,-3.36689
575.5,16.366,-0.205313,-3.36674
576,16.3828,-0.209302,-3.36682
576.5,16.399,-0.211686,-3.36742
577,16.4154,-0.213518,-3.36822
577.5,16.4316,-0.212217,-3.36926
578,16.448,-0.212285,-3.37096
578.5,16.4642,-0.217664,-3.37088
579,16.4806,-0.210633,-3.37089
579.5,16.497,-0.214362,-3.37089
580,16.5133,-0.218237,-3.37089
580.5,16.5294,-0.221224,-3.37086
581,16.5459,-0.2279,-3.37149
581.5,16.5621,-0.223057,-3.37226
582,16.5785,-0.213497,-3.37221
582.5,16.5947,-0.223255,-3.3722
583,16.6112,-0.228066,-3.37301
583.5,16.6274,-0.224669,-3.37351
584,16.6438,-0.227158,-3.37354
584.5,16.6599,-0.228294,-3.37368
585,16.6764,-0.223941,-3.37483
585.5,16.6929,-0.221135,-3.37483
586,16.709,-0.23381,-3.37485
586.5,16.7254,-0.230978,-3.37492
587,16.7416,-0.228812,-3.37382
587.5,16.7581,-0.229976,-3.37352
588,16.7743,-0.228295,-3.37354
588.5,16.7907,-0.231378,-3.3729
589,16.8071,-0.228868,-3.37254
589.5,16.8237,-0.228432,-3.37254
590,16.8398,-0.231712,-3.37254
590.5,16.8563,-0.238326,-3.37245
591,16.8727,-0.23718,-3.37364
591.5,16.889,-0.239249,-3.37385
592,16.9051,-0.243144,-3.37387
592.5,16.9217,-0.244147,-3.37416
593,16.9379,-0.240199,-3.3764
593.5,16.9542,-0.242312,-3.37648
594,16.9708,-0.250575,-3.3767
594.5,16.9874,-0.253645,-3.37783
595,17.0037,-0.258696,-3.3778
595.5,17.02,-0.257821,-3.3778
596,17.0365,-0.254756,-3.37813
596.5,17.0526,-0.260352,-3.37919
597,17.0692,-0.264746,-3.37913
597.5,17.0854,-0.273343,-3.37911
598,17.1019,-0.275805,-3.38002
598.5,17.1183,-0.273375,-3.38041
599,17.1344,-0.272743,-3.38021
599.5,17.1508,-0.277433,-3.37909
600,17.167,-0.283126,-3.37913
600.5,17.1838,-0.283785,-3.3791
601,17.1998,-0.280198,-3.3791
601.5,17.2164,-0.285506,-3.37784
602,17.2329,-0.29036,-3.37781
602.5,17.2494,-0.300152,-3.37783
603,17.2654,-0.298455,-3.37775
603.5,17.2819,-0.296466,-3.37908
604,17.2987,-0.306398,-3.37912
604.5,17.3146,-0.307089,-3.37886
605,17.3312,-0.316891,-3.37766
605.5,17.3475,-0.317181,-3.37774
606,17.3638,-0.311541,-3.37662
606.5,17.3805,-0.316768,-3.37627
607,17.3968,-0.32285,-3.37635
607.5,17.4131,-0.32389,-3.37544
608,17.4298,-0.332887,-3.37633
608.5,17.4461,-0.341056,-3.37661
609,17.4626,-0.344288,-3.37788
609.5,17.4789,-0.348965,-3.37875
610,17.4957,-0.350626,-3.38083
610.5,17.5115,-0.352158,-3.3809
611,17.5277,-0.35592,-3.38207
611.5,17.5441,-0.359895,-3.38208
612,17.5606,-0.369564,-3.38208
612.5,17.577,-0.372249,-3.38208
613,17.5935,-0.37158,-3.38278
613.5,17.6105,-0.378059,-3.38342
614,17.6271,-0.379551,-3.38341
614.5,17.6433,-0.385524,-3.38302
615,17.6601,-0.388787,-3.38203
615.5,17.6761,-0.390361,-3.38209
616,17.6927,-0.396171,-3.38209
616.5,17.7089,-0.396012,-3.38211
617,17.7255,-0.403676,-3.38334
617.5,17.7416,-0.40645,-3.38335
618,17.7582,-0.412553,-3.38208
618.5,17.7747,-0.413412,-3.3821
619,17.7909,-0.415678,-3.38289
619.5,17.8079,-0.422764,-3.38339
620,17.8241,-0.427188,-3.38341
620.5,17.8404,-0.429163,-3.38341
621,17.8569,-0.432467,-3.38341
621.5,17.8736,-0.442088,-3.3833
622,17.8901,-0.437994,-3.382
622.5,17.9061,-0.441857,-3.38209
623,17.9229,-0.442156,-3.3815
623.5,17.9393,-0.445934,-3.38077
624,17.9555,-0.455203,-3.38077
624.5,17.9722,-0.460608,-3.38077
625,17.9883,-0.462422,-3.38077
625.5,18.0049,-0.458858,-3.38077
626,18.0216,-0.46146,-3.38077
626.5,18.0382,-0.464205,-3.38077
627,18.0541,-0.476018,-3.38078
627.5,18.0711,-0.478271,-3.38103
628,18.0871,-0.478392,-3.38212
628.5,18.1038,-0.479635,-3.38208
629,18.1201,-0.479789,-3.38208
629.5,18.1365,-0.488057,-3.38242
630,18.153,-0.490105,-3.38348
630.5,18.1694,-0.496028,-3.38342
631,18.1858,-0.50298,-3.38341
631.5,18.2022,-0.506394,-3.38341
632,18.2186,-0.507272,-3.3834
632.5,18.2354,-0.509951,-3.38332
633,18.2514,-0.521365,-3.38316
633.5,18.2677,-0.513024,-3.3834
634,18.2848,-0.528044,-3.3834
634.5,18.3013,-0.528064,-3.38339
635,18.3177,-0.534114,-3.38333
635.5,18.3339,-0.54054,-3.38441
636,18.3504,-0.545557,-3.38472
636.5,18.367,-0.549992,-3.38472
637,18.3834,-0.554371,-3.38472
637.5,18.4,-0.56108,-3.38472
638,18.4165,-0.557457,-3.38472
638.5,18.4329,-0.562311,-3.38472
639,18.4495,-0.569164,-3.38473
639.5,18.4661,-0.568942,-3.38471
640,18.4826,-0.581898,-3.38598
640.5,18.499,-0.58713,-3.38625
641,18.5155,-0.586817,-3.38771
641.5,18.532,-0.584222,-3.38743
642,18.5483,-0.58507,-3.38721
642.5,18.5648,-0.592865,-3.3878
643,18.5813,-0.593496,-3.38779
643.5,18.5978,-0.59737,-3.38779
644,18.6141,-0.601708,-3.38779
644.5,18.6308,-0.601486,-3.38779
645,18.6474,-0.606527,-3.38779
645.5,18.6638,-0.60805,-3.38769
646,18.6802,-0.620134,-3.38889
646.5,18.6965,-0.625267,-3.38878
647,18.7134,-0.625203,-3.38878
647.5,18.7299,-0.626165,-3.38878
648,18.7462,-0.631596,-3.38877
648.5,18.7627,-0.635807,-3.38819
649,18.7793,-0.638252,-3.38746
649.5,18.7958,-0.640695,-3.38747
650,18.8123,-0.639864,-3.38747
650.5,18.8288,-0.646815,-3.38747
651,18.8455,-0.650048,-3.38771
651.5,18.8618,-0.650177,-3.38898
652,18.878,-0.653413,-3.3889
652.5,18.8945,-0.655453,-3.38884
653,18.9116,-0.66202,-3.38995
653.5,18.9283,-0.663124,-3.3902
654,18.9445,-0.670509,-3.39021
654.5,18.9612,-0.669854,-3.39015
655,18.9775,-0.678304,-3.3909
655.5,18.9939,-0.674272,-3.39086
656,19.0108,-0.679698,-3.39087
656.5,19.0271,-0.677477,-3.39088
657,19.0437,-0.679573,-3.39104
657.5,19.0602,-0.683637,-3.3901
658,19.0765,-0.6928,-3.39021
658.5,19.0932,-0.697567,-3.39021
659,19.1096,-0.696653,-3.39021
659.5,19.1262,-0.696347,-3.3902
660,19.1429,-0.696895,-3.38997
660.5,19.1593,-0.7102,-3.38887
661,19.1757,-0.705624,-3.3889
661.5,19.1922,-0.715212,-3.38885
662,19.209,-0.722966,-3.38976
662.5,19.2254,-0.719464,-3.39023
663,19.242,-0.718856,-3.39025
663.5,19.2586,-0.721038,-3.39037
664,19.2745,-0.725469,-3.39143
664.5,19.291,-0.730193,-3.39268
665,19.3085,-0.733952,-3.39397
665.5,19.3247,-0.739872,-3.39416
666,19.3409,-0.737563,-3.39416
666.5,19.3579,-0.742662,-3.39417
667,19.3742,-0.749823,-3.39407
667.5,19.3909,-0.750648,-3.39621
668,19.4076,-0.753322,-3.39689
668.5,19.4242,-0.755862,-3.39691
669,19.4405,-0.758854,-3.39691
669.5,19.457,-0.756166,-3.39691
670,19.4736,-0.75994,-3.39695
670.5,19.4901,-0.764186,-3.3959
671,19.5063,-0.77154,-3.3956
671.5,19.5233,-0.773571,-3.39558
672,19.5398,-0.774189,-3.39625
672.5,19.5561,-0.772248,-3.39649
673,19.5728,-0.775502,-3.39544
673.5,19.5895,-0.779901,-3.39546
674,19.6061,-0.780128,-3.39542
674.5,19.6221,-0.783453,-3.39549
675,19.6393,-0.792023,-3.3956
675.5,19.6556,-0.793028,-3.39677
676,19.6727,-0.798991,-3.39662
676.5,19.6888,-0.80037,-3.39539
677,19.7056,-0.801262,-3.39548
677.5,19.722,-0.8046,-3.39556
678,19.7385,-0.81181,-3.39688
678.5,19.7552,-0.820325,-3.39679
679,19.7716,-0.812833,-3.3968
679.5,19.7882,-0.815083,-3.3968
680,19.8048,-0.825491,-3.3968
680.5,19.8217,-0.824416,-3.3968
681,19.8383,-0.827994,-3.3968
681.5,19.8545,-0.823798,-3.3968
682,19.8713,-0.828627,-3.3968
682.5,19.8878,-0.836591,-3.3968
683,19.9045,-0.840918,-3.3968
683.5,19.9211,-0.842394,-3.3968
684,19.938,-0.845876,-3.3968
684.5,19.9546,-0.851227,-3.3968
685,19.9707,-0.856999,-3.3968
685.5,19.9878,-0.86306,-3.3968
686,20.004,-0.863347,-3.3968
686.5,20.0208,-0.886014,-3.3968
687,20.0376,-0.896383,-3.39676
687.5,20.0543,-0.899069,-3.39561
688,20.0708,-0.899106,-3.39691
688.5,20.0875,-0.907456,-3.39681
689,20.1041,-0.909052,-3.3968
689.5,20.1206,-0.913668,-3.3968
690,20.1374,-0.915958,-3.3968
690.5,20.1539,-0.92354,-3.3968
691,20.1701,-0.928827,-3.39679
691.5,20.1863,-0.936126,-3.3968
692,20.2034,-0.933184,-3.39751
692.5,20.2203,-0.937581,-3.39787
693,20.2373,-0.943924,-3.39811
693.5,20.2536,-0.946342,-3.39811
694,20.2704,-0.957559,-3.39813
694.5,20.2873,-0.963047,-3.39815
695,20.3034,-0.969267,-3.39948
695.5,20.3204,-0.972694,-3.39946
696,20.3371,-0.973683,-3.40058
696.5,20.3537,-0.978702,-3.40097
697,20.3702,-0.989887,-3.4009
697.5,20.3869,-0.991234,-3.40199
698,20.4037,-0.993496,-3.40229
698.5,20.4203,-0.997851,-3.40229
699,20.4371,-1.00767,-3.40229
699.5,20.4536,-1.01483,-3.40229
700,20.4703,-1.02015,-3.40229
700.5,20.4872,-1.02189,-3.40229
701,20.5036,-1.02507,-3.40229
701.5,20.5204,-1.02974,-3.40229
702,20.5372,-1.03238,-3.40229
702.5,20.5539,-1.03469,-3.4021
703,20.5704,-1.04182,-3.40125
703.5,20.5871,-1.04741,-3.4013
704,20.6038,-1.05522,-3.40106
704.5,20.6205,-1.06004,-3.40091
705,20.6371,-1.0653,-3.40223
705.5,20.6538,-1.07206,-3.40229
706,20.6705,-1.07572,-3.40229
706.5,20.6869,-1.0897,-3.40229
707,20.7039,-1.0909,-3.40231
707.5,20.7207,-1.0943,-3.40171
708,20.7372,-1.09594,-3.40092
708.5,20.7538,-1.09662,-3.40112
709,20.7707,-1.10075,-3.40239
709.5,20.7875,-1.10773,-3.40229
710,20.8041,-1.11972,-3.40229
710.5,20.8209,-1.12411,-3.40228
711,20.8375,-1.13024,-3.40227
711.5,20.8545,-1.13676,-3.40315
712,20.8707,-1.13487,-3.40383
712.5,20.8875,-1.14074,-3.40424
713,20.9045,-1.1436,-3.40518
713.5,20.9209,-1.1528,-3.40515
714,20.9378,-1.15495,-3.40504
714.5,20.9542,-1.15988,-3.40635
715,20.9712,-1.16629,-3.40646
715.5,20.988,-1.16881,-3.40645
716,21.0042,-1.17348,-3.40629
716.5,21.0213,-1.17612,-3.40513
717,21.038,-1.18415,-3.40515
717.5,21.0549,-1.18702,-3.40462
718,21.0719,-1.19147,-3.40524
718.5,21.0883,-1.19352,-3.40515
719,21.1049,-1.19338,-3.40515
719.5,21.1219,-1.19995,-3.40515
720,21.1388,-1.2063,-3.40514
720.5,21.1553,-1.20858,-3.40491
721,21.1723,-1.21032,-3.4038
721.5,21.189,-1.21577,-3.40381
722,21.2053,-1.22341,-3.40343
722.5,21.2225,-1.23526,-3.40367
723,21.2392,-1.24005,-3.40364
723.5,21.256,-1.23987,-3.40254
724,21.2727,-1.2436,-3.40229
724.5,21.2895,-1.24692,-3.40291
725,21.3061,-1.24867,-3.40361
725.5,21.3229,-1.25873,-3.4036
726,21.3398,-1.26442,-3.40356
726.5,21.3568,-1.26597,-3.40428
727,21.3732,-1.27387,-3.40496
727.5,21.39,-1.28283,-3.40492
728,21.4069,-1.28473,-3.40487
728.5,21.4235,-1.28746,-3.40599
729,21.4403,-1.2916,-3.40765
729.5,21.4571,-1.29202,-3.40756
730,21.4738,-1.3006,-3.40755
730.5,21.4904,-1.30696,-3.40748
731,21.5075,-1.31653,-3.40862
731.5,21.5245,-1.32486,-3.4088
732,21.5411,-1.32647,-3.40992
732.5,21.5579,-1.3316,-3.40983
733,21.5746,-1.33532,-3.41066
733.5,21.5915,-1.33688,-3.41119
734,21.6079,-1.34176,-3.41118
734.5,21.6251,-1.34803,-3.41118
735,21.6417,-1.35415,-3.41118
735.5,21.6586,-1.35718,-3.41118
736,21.6753,-1.36492,-3.41118
736.5,21.6922,-1.37135,-3.41118
737,21.7091,-1.37374,-3.41118
737.5,21.7253,-1.37561,-3.41101
738,21.7429,-1.38311,-3.4105
738.5,21.7595,-1.38852,-3.41058
739,21.7763,-1.39643,-3.41118
739.5,21.793,-1.39521,-3.41118
740,21.8101,-1.40119,-3.41118