File: 01_Data/Helmet_Tetrahedron/STA/N2/30K_min/Helmet_Tetrahedron_STA_N2_30KData_250528_R5.csv
Temp./C,Time/min,DSC/(mW/mg),Mass loss/mg
35.0,0.0,1.1843,0.00791894
35.5,0.0333532,1.2332,0.00596229
36,0.0654365,1.28373,0.00514342
36.5,0.0961379,1.3249,0.00542969
37,0.126292,1.35954,0.00451062
37.5,0.155853,1.40482,0.00293351
38,0.185205,1.44387,0.00325008
38.5,0.213257,1.486,0.00376474
39,0.241255,1.51841,0.00489448
39.5,0.268856,1.55112,0.00571563
40,0.296305,1.59288,0.00593002
40.5,0.323786,1.62637,0.00652867
41,0.349192,1.65756,0.00656847
41.5,0.375967,1.68713,0.00777347
42,0.400784,1.72507,0.00705529
42.5,0.426827,1.75463,0.00639532
43,0.452123,1.79314,0.00603745
43.5,0.476892,1.81826,0.00654702
44,0.499962,1.84665,0.00283957
44.5,0.525697,1.87202,-0.000577811
45,0.550519,1.90566,0.000768358
45.5,0.574503,1.92742,0.00586743
46,0.598793,1.96444,0.00825455
46.5,0.622717,1.98996,0.00771046
47,0.645222,2.01069,0.00718503
47.5,0.669414,2.03736,0.00875576
48,0.691413,2.07669,0.00976091
48.5,0.714788,2.08292,0.010015
49,0.737737,2.11389,0.00953753
49.5,0.760546,2.14342,0.00950789
50,0.783149,2.1655,0.00974666
50.5,0.80534,2.19016,0.00945442
51,0.826953,2.21604,0.00871497
51.5,0.848788,2.24314,0.00733712
52,0.871387,2.25735,0.00665127
52.5,0.893496,2.28892,0.00673643
53,0.915413,2.30716,0.00712632
53.5,0.936833,2.33308,0.00723752
54,0.958035,2.35112,0.00675916
54.5,0.980211,2.37704,0.00682859
55,1.00074,2.39856,0.00717402
55.5,1.02244,2.42725,0.00681774
56,1.04329,2.44814,0.0057834
56.5,1.06424,2.46803,0.00524637
57,1.0856,2.48465,0.00475462
57.5,1.10644,2.51816,0.00457895
58,1.12743,2.54256,0.0042637
58.5,1.14796,2.56229,0.00350777
59,1.16876,2.58621,0.00399759
59.5,1.18938,2.60216,0.00441722
60,1.20932,2.61988,0.00416539
60.5,1.23013,2.63741,0.0046986
61,1.25027,2.65233,0.00386606
61.5,1.27091,2.67265,0.00573626
62,1.29091,2.68831,0.00527978
62.5,1.31106,2.70023,0.00569801
63,1.33081,2.71499,0.00653968
63.5,1.35093,2.71832,0.00628934
64,1.37074,2.7288,0.00595526
64.5,1.39055,2.73502,0.00591362
65,1.4103,2.73435,0.00556572
65.5,1.43,2.74789,0.00547107
66,1.44978,2.75407,0.00568739
66.5,1.46928,2.75702,0.00565165
67,1.48892,2.76322,0.00552982
67.5,1.50807,2.76717,0.00582108
68,1.52732,2.77033,0.006878
68.5,1.54736,2.77119,0.00579994
69,1.56631,2.78378,0.00684552
69.5,1.58624,2.79009,0.00574675
70,1.60487,2.79462,0.00647101
70.5,1.62449,2.80097,0.00691819
71,1.64353,2.80917,0.00732293
71.5,1.66274,2.81562,0.00677345
72,1.68189,2.81427,0.00572184
72.5,1.70133,2.82588,0.00633695
73,1.71972,2.82565,0.00499231
73.5,1.73934,2.83289,0.00492035
74,1.75837,2.84502,0.00408801
74.5,1.77702,2.85546,0.00352833
75,1.79632,2.86011,0.00233154
75.5,1.81509,2.86355,0.00205877
76,1.83399,2.87945,0.00253644
76.5,1.85276,2.88819,0.00251845
77,1.87128,2.89711,0.00136906
77.5,1.89052,2.90307,0.00229505
78,1.90911,2.91614,0.000806277
78.5,1.92774,2.92118,0.00196862
79,1.94645,2.92218,0.00208558
79.5,1.96551,2.92384,0.00220603
80,1.98306,2.93498,0.00207997
80.5,2.00238,2.94247,0.0020075
81,2.02054,2.94981,0.00359359
81.5,2.03904,2.96089,0.00407613
82,2.05792,2.96062,0.00516142
82.5,2.07646,2.97385,0.00400757
83,2.09472,2.98243,0.00516409
83.5,2.11285,2.99121,0.00516114
84,2.13098,3.00446,0.00527625
84.5,2.14961,3.01287,0.00657593
85,2.16816,3.02428,0.00651469
85.5,2.18594,3.02819,0.00797834
86,2.20419,3.039,0.00739162
86.5,2.22238,3.04643,0.00693847
87,2.24032,3.05182,0.00782791
87.5,2.25802,3.06037,0.00618759
88,2.27619,3.06925,0.00762979
88.5,2.29424,3.07999,0.00612594
89,2.31256,3.09116,0.00682645
89.5,2.33046,3.10157,0.00708743
90,2.34813,3.10964,0.00688889
90.5,2.36562,3.11894,0.00723132
91,2.38348,3.12853,0.00598426
91.5,2.40139,3.1419,0.0057645
92,2.41839,3.15126,0.00455842
92.5,2.43702,3.15597,0.00463019
93,2.45442,3.16947,0.00375008
93.5,2.47221,3.17921,0.00329748
94,2.48999,3.19113,0.00332593
94.5,2.50715,3.19158,0.00352074
95,2.52482,3.20214,0.00348286
95.5,2.5427,3.21697,0.00330992
96,2.55971,3.22753,0.00329362
96.5,2.57745,3.2372,0.00330558
97,2.59476,3.24714,0.00330899
97.5,2.6124,3.25971,0.00458433
98,2.62953,3.26684,0.00444697
98.5,2.64697,3.27442,0.00322814
99,2.66445,3.28523,0.00429619
99.5,2.68201,3.30412,0.00463048
100,2.69869,3.31336,0.00411019
100.5,2.71628,3.31712,0.00327873
101,2.73344,3.32954,0.00384305
101.5,2.75087,3.34047,0.00428761
102,2.76777,3.35691,0.00331273
102.5,2.78538,3.35788,0.00488997
103,2.80222,3.37903,0.0047659
103.5,2.81983,3.38395,0.0059062
104,2.83665,3.38926,0.00613712
104.5,2.8538,3.40531,0.00614249
105,2.87118,3.40974,0.00634296
105.5,2.88843,3.41814,0.00618472
106,2.90551,3.42621,0.00616641
106.5,2.92224,3.45173,0.00615953
107,2.93948,3.45458,0.00615368
107.5,2.95692,3.46352,0.00617298
108,2.97277,3.47525,0.00500498
108.5,2.99002,3.48646,0.0048366
109,3.00691,3.49989,0.00481709
109.5,3.02453,3.51135,0.00353837
110,3.04158,3.51924,0.00352558
110.5,3.05831,3.53917,0.00308254
111,3.07578,3.54597,0.00200823
111.5,3.09251,3.55235,0.00262215
112,3.1096,3.55285,0.00206511
112.5,3.1264,3.5725,0.00210802
113,3.14322,3.57417,0.00198499
113.5,3.16035,3.58481,0.00179843
114,3.17657,3.59964,0.00207223
114.5,3.19319,3.61342,0.00154182
115,3.21053,3.62315,0.000762885
115.5,3.22728,3.63693,0.000770204
116,3.24401,3.6471,0.00077008
116.5,3.26082,3.65006,0.000769685
117,3.27777,3.6642,0.00077011
117.5,3.29445,3.67215,0.000794967
118,3.31104,3.69482,0.00105656
118.5,3.32815,3.69486,0.00208906
119,3.34459,3.69947,0.00208912
119.5,3.36135,3.71171,0.0021137
120,3.37787,3.71822,0.00238243
120.5,3.39482,3.7309,0.00341195
121,3.41135,3.7329,0.00340842
121.5,3.42783,3.73754,0.00340982
122,3.44445,3.74596,0.00341025
122.5,3.46113,3.76482,0.00341207
123,3.47754,3.76232,0.00340812
123.5,3.49449,3.76819,0.00307267
124,3.51058,3.77927,0.00204761
124.5,3.52683,3.79241,0.00219677
125,3.54304,3.80049,0.00335561
125.5,3.55971,3.80932,0.00339387
126,3.57636,3.81325,0.00337178
126.5,3.59314,3.82352,0.00425519
127,3.60966,3.83643,0.00466476
127.5,3.62569,3.8505,0.00342792
128,3.64187,3.85332,0.00344031
128.5,3.65856,3.85856,0.00376196
129,3.67489,3.86894,0.00401715
129.5,3.6907,3.87407,0.00317262
130,3.70712,3.87629,0.00319267
130.5,3.72357,3.88097,0.00324554
131,3.7397,3.89451,0.00240356
131.5,3.756,3.8967,0.00184486
132,3.7728,3.90924,0.00208125
132.5,3.78838,3.92099,0.00328087
133,3.80452,3.92328,0.00319029
133.5,3.821,3.92866,0.00320216
134,3.83692,3.93687,0.00329193
134.5,3.85325,3.95172,0.00444144
135,3.86956,3.96441,0.00445876
135.5,3.88535,3.9623,0.00322411
136,3.90147,3.96873,0.00319536
136.5,3.91753,3.97608,0.00322168
137,3.93298,3.98128,0.00267922
137.5,3.9488,3.9926,0.00166465
138,3.96592,3.99857,0.00200901
138.5,3.98153,4.00882,0.00134695
139,3.99689,4.01576,0.00123186
139.5,4.01269,4.01562,0.000135201
140,4.02852,4.02251,0.00109561
140.5,4.04547,4.02999,0.00295784
141,4.06148,4.04246,0.00456263
141.5,4.07743,4.05809,0.00547914
142,4.09303,4.05411,0.00355565
142.5,4.10909,4.05823,0.00232451
143,4.12533,4.06087,0.000322064
143.5,4.14044,4.06809,-0.000473176
144,4.15689,4.07989,-0.0012153
144.5,4.17243,4.08838,-0.00119599
145,4.18837,4.10226,-0.00116142
145.5,4.20395,4.10519,-0.0018181
146,4.21974,4.10827,-0.00256783
146.5,4.23582,4.11695,-0.00252206
147,4.25115,4.12194,-0.00251727
147.5,4.26614,4.1295,-0.00253192
148,4.28317,4.13922,-0.0027031
148.5,4.29881,4.13345,-0.00381761
149,4.31421,4.14212,-0.00382785
149.5,4.32998,4.14925,-0.0038444
150,4.34545,4.16452,-0.00341832
150.5,4.36125,4.16356,-0.00245743
151,4.3772,4.17369,-0.00251304
151.5,4.39255,4.17631,-0.00252038
152,4.40863,4.19129,-0.00252087
152.5,4.42414,4.19142,-0.00257691
153,4.43981,4.20164,-0.00384167
153.5,4.45527,4.21009,-0.00380944
154,4.47121,4.21796,-0.00382876
154.5,4.4868,4.22748,-0.00383026
155,4.50202,4.232,-0.00383029
155.5,4.51798,4.24249,-0.00383265
156,4.53357,4.2477,-0.003824
156.5,4.54908,4.25929,-0.0035966
157,4.56399,4.27108,-0.00253224
157.5,4.58005,4.27728,-0.00252901
158,4.59549,4.28546,-0.00159676
158.5,4.61136,4.28753,-0.00122461
159,4.62677,4.29359,-0.00118744
159.5,4.64235,4.29861,-0.00145704
160,4.65773,4.31413,-0.000383349
160.5,4.67329,4.31734,-0.000242298
161,4.689,4.32448,-0.000218322
161.5,4.7043,4.34057,-0.000219557
162,4.72021,4.33895,-0.000219997
162.5,4.73538,4.35529,-0.000220007
163,4.75096,4.37235,-0.000220001
163.5,4.76617,4.38409,-0.000219998
164,4.78202,4.39944,-0.000219983
164.5,4.79743,4.4055,-0.000220098
165,4.81313,4.4188,-0.000221167
165.5,4.82859,4.43397,-0.000216892
166,4.84388,4.44019,-0.000141679
166.5,4.85933,4.44849,-0.001044
167,4.87473,4.4559,-0.00265805
167.5,4.89028,4.47147,-0.00291915
168,4.90561,4.48101,-0.00402703
168.5,4.92103,4.48428,-0.00394306
169,4.93645,4.48355,-0.00393858
169.5,4.95174,4.49246,-0.0039399
170,4.96711,4.50264,-0.00393997
170.5,4.98238,4.50624,-0.00394029
171,4.99786,4.50471,-0.00394347
171.5,5.01308,4.50535,-0.00392868
172,5.02825,4.51254,-0.00369763
172.5,5.04439,4.51514,-0.00328452
173,5.05955,4.51459,-0.00329817
173.5,5.07448,4.51236,-0.00366977
174,5.0898,4.51655,-0.00460395
174.5,5.10544,4.51945,-0.00459978
175,5.12059,4.51834,-0.00495081
175.5,5.13612,4.52233,-0.00596148
176,5.15115,4.52256,-0.00590301
176.5,5.16646,4.52355,-0.00587942
177,5.18165,4.5294,-0.00666177
177.5,5.1967,4.53243,-0.00688752
178,5.2122,4.53683,-0.00691124
178.5,5.2271,4.53935,-0.0068922
179,5.2424,4.53579,-0.00718323
179.5,5.25773,4.54192,-0.00723135
180,5.27323,4.54753,-0.00724061
180.5,5.28791,4.54806,-0.0072403
181,5.3035,4.55058,-0.00723958
181.5,5.31858,4.5589,-0.007209
182,5.33385,4.55981,-0.00575079
182.5,5.34905,4.57146,-0.00554742
183,5.36415,4.57374,-0.00426804
183.5,5.3792,4.56887,-0.00574933
184,5.3943,4.56526,-0.00634174
184.5,5.40954,4.56634,-0.00529797
185,5.4247,4.56216,-0.00493721
185.5,5.43984,4.57384,-0.00494787
186,5.45467,4.5661,-0.005295
186.5,5.47021,4.56504,-0.00658813
187,5.48516,4.56558,-0.0079831
187.5,5.50042,4.56717,-0.00841652
188,5.51523,4.57051,-0.0091763
188.5,5.53062,4.57653,-0.0098067
189,5.54525,4.58682,-0.00976332
189.5,5.56079,4.58588,-0.0101307
190,5.57534,4.59361,-0.0111107
190.5,5.59054,4.59348,-0.0110802
191,5.60559,4.59798,-0.0110895
191.5,5.62077,4.59422,-0.0110903
192,5.63559,4.58973,-0.0110902
192.5,5.65046,4.60195,-0.0110862
193,5.66562,4.59722,-0.0110794
193.5,5.68081,4.59502,-0.0114542
194,5.69568,4.59673,-0.0123778
194.5,5.71085,4.60298,-0.0131441
195,5.72577,4.60637,-0.0137478
195.5,5.74076,4.61249,-0.0137124
196,5.75577,4.61659,-0.0137093
196.5,5.7707,4.6123,-0.01371
197,5.78597,4.61573,-0.01371
197.5,5.80057,4.61803,-0.01371
198,5.81563,4.62215,-0.01371
198.5,5.83055,4.62246,-0.01371
199,5.84596,4.61521,-0.0137099
199.5,5.86078,4.61472,-0.0137098
200,5.87538,4.61916,-0.0137139
200.5,5.89047,4.61663,-0.0137175
201,5.90535,4.61496,-0.0133632
201.5,5.92006,4.6194,-0.0123777
202,5.93533,4.61566,-0.0124104
202.5,5.9502,4.61709,-0.0124005
203,5.9649,4.60943,-0.0123999
203.5,5.97997,4.60316,-0.0123936
204,5.99484,4.60029,-0.0127634
204.5,6.00981,4.60529,-0.0138039
205,6.02463,4.60134,-0.0137206
205.5,6.0397,4.60346,-0.0137875
206,6.05454,4.60817,-0.0150433
206.5,6.06943,4.60534,-0.0150085
207,6.08448,4.6017,-0.015141
207.5,6.09926,4.6023,-0.0144826
208,6.11431,4.61061,-0.0150346
208.5,6.12896,4.61001,-0.0150499
209,6.14396,4.60486,-0.0150262
209.5,6.15894,4.60455,-0.0160483
210,6.17369,4.59726,-0.0163575
210.5,6.18857,4.59158,-0.016354
211,6.20371,4.59575,-0.0163467
211.5,6.21842,4.60037,-0.0163536
212,6.23322,4.60173,-0.0165762
212.5,6.24828,4.5935,-0.0176489
213,6.26298,4.59128,-0.0176568
213.5,6.27752,4.59619,-0.0176705
214,6.29216,4.59935,-0.0176703
214.5,6.30695,4.60037,-0.01767
215,6.32255,4.60396,-0.0176701
215.5,6.33741,4.59797,-0.0176711
216,6.35226,4.5939,-0.017664
216.5,6.367,4.5873,-0.0176212
217,6.38193,4.59121,-0.0184118
217.5,6.39687,4.59018,-0.0189972
218,6.41187,4.59267,-0.0189838
218.5,6.42655,4.59404,-0.0195224
219,6.44129,4.58728,-0.0203756
219.5,6.45623,4.58248,-0.0203151
220,6.47126,4.58532,-0.0203087
220.5,6.48577,4.58645,-0.0203098
221,6.50081,4.59247,-0.0203121
221.5,6.51562,4.58332,-0.0203167
222,6.53055,4.57771,-0.0212878
222.5,6.54522,4.57237,-0.0216202
223,6.56011,4.57724,-0.0216257
223.5,6.57479,4.57961,-0.0212594
224,6.58994,4.56559,-0.0198309
224.5,6.6043,4.5625,-0.0187854
225,6.61944,4.56588,-0.0183262
225.5,6.63436,4.55664,-0.0186473
226,6.64894,4.56087,-0.0204743
226.5,6.66368,4.55876,-0.0217064
227,6.67871,4.54911,-0.022391
227.5,6.69309,4.55214,-0.0233896
228,6.70824,4.54524,-0.0244389
228.5,6.72354,4.54608,-0.0249387
229,6.73752,4.54083,-0.0250721
229.5,6.75257,4.54397,-0.0261539
230,6.76734,4.53614,-0.0262167
230.5,6.78211,4.52872,-0.0262334
231,6.79695,4.52068,-0.026243
231.5,6.81177,4.51201,-0.0261432
232,6.8264,4.50931,-0.0273543
232.5,6.84118,4.49852,-0.0275684
233,6.85621,4.49443,-0.0276148
233.5,6.87076,4.49269,-0.0287743
234,6.88587,4.4926,-0.0289735
234.5,6.90038,4.48675,-0.0289279
235,6.91541,4.47964,-0.0297197
235.5,6.92997,4.47445,-0.0303376
236,6.94478,4.45782,-0.0302956
236.5,6.95952,4.45253,-0.0307613
237,6.97428,4.44877,-0.0316084
237.5,6.98902,4.44367,-0.0318139
238,7.00386,4.43742,-0.0321174
238.5,7.01805,4.43158,-0.0317852
239,7.03324,4.42409,-0.0323858
239.5,7.04803,4.41681,-0.0332058
240,7.06299,4.40889,-0.0330447
240.5,7.07752,4.41498,-0.0341591
241,7.09221,4.3921,-0.0346293
241.5,7.10732,4.38919,-0.0361505
242,7.12161,4.37757,-0.0358989
242.5,7.13659,4.36568,-0.0371606
243,7.15137,4.35411,-0.0373995
243.5,7.16589,4.35157,-0.0382353
244,7.18082,4.34312,-0.0390393
244.5,7.19548,4.31977,-0.0390096
245,7.21021,4.31956,-0.040091
245.5,7.22516,4.31074,-0.0403052
246,7.23982,4.30197,-0.0414988
246.5,7.25434,4.28091,-0.0421369
247,7.26922,4.27283,-0.043741
247.5,7.28407,4.25879,-0.0448532
248,7.29871,4.24288,-0.0454756
248.5,7.31336,4.22752,-0.0469963
249,7.32782,4.23237,-0.0461804
249.5,7.34282,4.22216,-0.0476633
250,7.35765,4.21373,-0.0492191
250.5,7.3724,4.20208,-0.049976
251,7.38698,4.20117,-0.0510459
251.5,7.40195,4.22211,-0.0519377
252,7.41675,4.23555,-0.0529191
252.5,7.43171,4.27106,-0.0543711
253,7.4464,4.31349,-0.0551717
253.5,7.4615,4.3678,-0.0559313
254,7.47633,4.43562,-0.0571794
254.5,7.49148,4.50645,-0.0585236
255,7.50637,4.57285,-0.0595075
255.5,7.52104,4.63828,-0.0609808
256,7.53599,4.70185,-0.0627676
256.5,7.55125,4.75054,-0.064703
257,7.56595,4.78431,-0.066316
257.5,7.5808,4.83997,-0.0685981
258,7.59585,4.88757,-0.0708813
258.5,7.61077,4.91254,-0.0721239
259,7.62541,4.95593,-0.0743265
259.5,7.64026,4.98134,-0.076834
260,7.65465,5.01391,-0.078847
260.5,7.66944,5.0441,-0.0815596
261,7.68513,5.06282,-0.0834342
261.5,7.69972,5.08813,-0.0857798
262,7.7146,5.10457,-0.0872185
262.5,7.72929,5.12554,-0.0879672
263,7.74431,5.14087,-0.0905635
263.5,7.75902,5.15521,-0.092095
264,7.77371,5.16583,-0.094537
264.5,7.78892,5.18954,-0.0966867
265,7.80341,5.2062,-0.0989539
265.5,7.81813,5.21944,-0.100955
266,7.83329,5.2287,-0.1032
266.5,7.84754,5.24158,-0.106347
267,7.86259,5.26646,-0.108181
267.5,7.87732,5.27968,-0.11093
268,7.89201,5.28905,-0.113799
268.5,7.90713,5.29926,-0.115291
269,7.92157,5.31558,-0.116085
269.5,7.93659,5.32168,-0.116033
270,7.95112,5.336,-0.116051
270.5,7.96581,5.35363,-0.116745
271,7.98089,5.37371,-0.120707
271.5,7.99534,5.39236,-0.125024
272,8.01039,5.40119,-0.13176
272.5,8.02522,5.41555,-0.137165
273,8.04,5.42711,-0.140654
273.5,8.05448,5.44559,-0.144695
274,8.06953,5.4598,-0.147592
274.5,8.08418,5.48293,-0.150549
275,8.0991,5.49756,-0.153607
275.5,8.11386,5.52117,-0.156856
276,8.12878,5.54641,-0.159069
276.5,8.14342,5.55629,-0.16266
277,8.15854,5.57648,-0.165968
277.5,8.17317,5.5887,-0.170133
278,8.1884,5.61466,-0.173474
278.5,8.20287,5.63807,-0.178428
279,8.21778,5.66069,-0.18277
279.5,8.23249,5.67937,-0.186021
280,8.24745,5.705,-0.190088
280.5,8.26218,5.73072,-0.193856
281,8.27698,5.75066,-0.197398
281.5,8.29206,5.76732,-0.202123
282,8.30675,5.7906,-0.205544
282.5,8.32195,5.82548,-0.209077
283,8.33628,5.85209,-0.213648
283.5,8.35143,5.87876,-0.217187
284,8.36627,5.91094,-0.221662
284.5,8.38145,5.93745,-0.226854
285,8.39604,5.96297,-0.231662
285.5,8.41085,5.99289,-0.238167
286,8.42598,6.02404,-0.242806
286.5,8.44043,6.06077,-0.246886
287,8.45554,6.09321,-0.252027
287.5,8.47042,6.13039,-0.255882
288,8.4854,6.16476,-0.261139
288.5,8.50034,6.19753,-0.267538
289,8.51519,6.23997,-0.273098
289.5,8.52994,6.27424,-0.279712
290,8.54483,6.31212,-0.285107
290.5,8.55958,6.35232,-0.291082
291,8.57455,6.40079,-0.298641
291.5,8.58979,6.44226,-0.304636
292,8.60448,6.4828,-0.311566
292.5,8.61959,6.52989,-0.318905
293,8.63439,6.57252,-0.3247
293.5,8.64946,6.61894,-0.33274
294,8.66472,6.66964,-0.340117
294.5,8.67927,6.71298,-0.347837
295,8.69445,6.76489,-0.35745
295.5,8.70876,6.80962,-0.364034
296,8.72433,6.86627,-0.372632
296.5,8.73931,6.92073,-0.381953
297,8.754,6.97867,-0.389466
297.5,8.76893,7.03212,-0.399338
298,8.78341,7.08,-0.408259
298.5,8.79923,7.13349,-0.418327
299,8.814,7.1933,-0.430233
299.5,8.82908,7.25249,-0.439709
300,8.8441,7.31352,-0.450475
300.5,8.85935,7.36873,-0.462491
301,8.87386,7.42541,-0.471536
301.5,8.88868,7.48834,-0.483187
302,8.90341,7.55497,-0.493712
302.5,8.91831,7.61903,-0.504341
303,8.93346,7.67943,-0.51841
303.5,8.94851,7.7496,-0.529365
304,8.96381,7.81864,-0.54287
304.5,8.97907,7.89516,-0.557699
305,8.99433,7.97093,-0.569554
305.5,9.00939,8.03581,-0.584515
306,9.02415,8.09379,-0.597209
306.5,9.03946,8.16274,-0.610957
307,9.05427,8.23355,-0.627774
307.5,9.06921,8.30304,-0.64096
308,9.08439,8.37196,-0.657085
308.5,9.09914,8.4559,-0.674609
309,9.11439,8.5237,-0.689576
309.5,9.12963,8.59466,-0.708682
310,9.14463,8.66383,-0.724167
310.5,9.15932,8.73092,-0.740504
311,9.1738,8.80033,-0.760956
311.5,9.18897,8.87505,-0.777201
312,9.20433,8.954,-0.796838
312.5,9.21945,9.02472,-0.818279
313,9.23448,9.08325,-0.835699
313.5,9.24984,9.16999,-0.858132
314,9.26473,9.23714,-0.876812
314.5,9.28008,9.29607,-0.896947
315,9.29493,9.36746,-0.921319
315.5,9.30988,9.43576,-0.940046
316,9.32487,9.48557,-0.962748
316.5,9.33969,9.54179,-0.986931
317,9.35494,9.59553,-1.00822
317.5,9.3698,9.65184,-1.03487
318,9.38487,9.69738,-1.058
318.5,9.39989,9.74107,-1.08183
319,9.4146,9.78132,-1.11003
319.5,9.42972,9.80902,-1.13155
320,9.44388,9.83863,-1.15532
320.5,9.45973,9.85747,-1.18411
321,9.4746,9.8771,-1.20654
321.5,9.48918,9.88661,-1.23439
322,9.50391,9.88985,-1.25917
322.5,9.51902,9.88586,-1.28471
323,9.53384,9.87561,-1.31515
323.5,9.54842,9.85906,-1.33744
324,9.56324,9.82991,-1.36375
324.5,9.57814,9.80582,-1.39363
325,9.59266,9.76695,-1.41612
325.5,9.60749,9.72843,-1.4447
326,9.62212,9.683,-1.47114
326.5,9.63704,9.62722,-1.49558
327,9.65178,9.57434,-1.52538
327.5,9.66608,9.52003,-1.54748
328,9.68095,9.46231,-1.57253
328.5,9.69577,9.40932,-1.6022
329,9.7106,9.35926,-1.62398
329.5,9.72541,9.35895,-1.65055
330,9.74023,9.38027,-1.67748
330.5,9.75518,9.38077,-1.70108
331,9.77004,9.34332,-1.72849
331.5,9.78465,9.2879,-1.75106
332,9.79916,9.20726,-1.7739
332.5,9.8142,9.10225,-1.8023
333,9.82857,8.98915,-1.82209
333.5,9.8433,8.87307,-1.84461
334,9.85719,8.76156,-1.86743
334.5,9.87167,8.63403,-1.88518
335,9.88708,8.50058,-1.90803
335.5,9.90134,8.37153,-1.92829
336,9.91573,8.24188,-1.94645
336.5,9.93053,8.10832,-1.96899
337,9.94483,7.98522,-1.98508
337.5,9.95937,7.85538,-2.00289
338,9.97404,7.73528,-2.02377
338.5,9.98863,7.61302,-2.03863
339,10.0032,7.49171,-2.0557
339.5,10.0175,7.37762,-2.07426
340,10.0321,7.26706,-2.08816
340.5,10.047,7.14781,-2.10519
341,10.0615,7.0323,-2.12055
341.5,10.0759,6.91299,-2.13373
342,10.0901,6.80416,-2.1496
342.5,10.1052,6.68682,-2.16295
343,10.1197,6.57698,-2.17625
343.5,10.1341,6.46888,-2.19151
344,10.149,6.3506,-2.20279
344.5,10.1635,6.23616,-2.21593
345,10.1781,6.1188,-2.22992
345.5,10.1923,6.01033,-2.23986
346,10.2072,5.89761,-2.25234
346.5,10.2216,5.79158,-2.26318
347,10.2362,5.6765,-2.2725
347.5,10.2508,5.56009,-2.28394
348,10.2652,5.44911,-2.29294
348.5,10.2798,5.33227,-2.30252
349,10.2944,5.21893,-2.31387
349.5,10.309,5.10455,-2.3219
350,10.3233,4.99468,-2.33149
350.5,10.338,4.8729,-2.34114
351,10.3524,4.76683,-2.34855
351.5,10.3671,4.65332,-2.35793
352,10.3815,4.54607,-2.36635
352.5,10.3963,4.43183,-2.37389
353,10.411,4.32068,-2.3815
353.5,10.4256,4.21053,-2.38745
354,10.4402,4.09985,-2.39442
354.5,10.4548,3.98388,-2.40232
355,10.4695,3.88324,-2.40769
355.5,10.484,3.77476,-2.4137
356,10.4987,3.6698,-2.41977
356.5,10.513,3.57255,-2.42431
357,10.5279,3.46892,-2.43108
357.5,10.5422,3.38019,-2.43693
358,10.557,3.2762,-2.44221
358.5,10.5717,3.18031,-2.4483
359,10.5863,3.08319,-2.45312
359.5,10.6009,2.99237,-2.45864
360,10.6159,2.9031,-2.46395
360.5,10.6305,2.82243,-2.46787
361,10.6451,2.72909,-2.47277
361.5,10.6598,2.64578,-2.47793
362,10.6746,2.57041,-2.4824
362.5,10.6892,2.48906,-2.48815
363,10.7041,2.40331,-2.49324
363.5,10.7191,2.33709,-2.49739
364,10.7337,2.26327,-2.50207
364.5,10.7484,2.19332,-2.50534
365,10.763,2.13487,-2.50891
365.5,10.7781,2.07032,-2.51294
366,10.7927,1.99865,-2.51592
366.5,10.8075,1.92889,-2.51996
367,10.8224,1.88616,-2.52374
367.5,10.8372,1.82751,-2.52694
368,10.8521,1.77157,-2.53046
368.5,10.867,1.72985,-2.53269
369,10.8819,1.67458,-2.53624
369.5,10.8965,1.62476,-2.53892
370,10.911,1.57907,-2.54176
370.5,10.926,1.53357,-2.54447
371,10.9406,1.49194,-2.54598
371.5,10.9563,1.45973,-2.54949
372,10.9713,1.42927,-2.55186
372.5,10.9865,1.39172,-2.55514
373,11.0013,1.36542,-2.55759
373.5,11.016,1.33664,-2.55908
374,11.0311,1.29979,-2.56069
374.5,11.046,1.27593,-2.56249
375,11.0609,1.23841,-2.56419
375.5,11.0761,1.22817,-2.5662
376,11.0911,1.20084,-2.56814
376.5,11.1061,1.17523,-2.57041
377,11.1211,1.15799,-2.57212
377.5,11.1363,1.14181,-2.57453
378,11.1513,1.13205,-2.57595
378.5,11.1665,1.11351,-2.57824
379,11.1814,1.09219,-2.58066
379.5,11.1965,1.08913,-2.58185
380,11.2113,1.07415,-2.5836
380.5,11.2266,1.06847,-2.58528
381,11.2417,1.05306,-2.58666
381.5,11.2567,1.03947,-2.58768
382,11.2719,1.03087,-2.58928
382.5,11.2869,1.02955,-2.59147
383,11.302,1.02029,-2.59286
383.5,11.3174,1.0143,-2.59392
384,11.3323,1.00542,-2.59541
384.5,11.3472,1.00663,-2.59775
385,11.3625,1.00342,-2.5995
385.5,11.3776,1.00525,-2.60003
386,11.3928,1.0034,-2.60145
386.5,11.4079,0.99411,-2.60268
387,11.4232,0.997668,-2.60349
387.5,11.4382,0.999014,-2.6052
388,11.4536,0.993192,-2.60635
388.5,11.4686,1.00352,-2.60753
389,11.4839,1.0057,-2.60882
389.5,11.4989,1.00322,-2.61049
390,11.5142,1.00555,-2.61213
390.5,11.5294,1.00915,-2.61315
391,11.5446,1.01384,-2.61458
391.5,11.5596,1.0127,-2.61573
392,11.5746,1.0168,-2.61679
392.5,11.5902,1.01515,-2.61876
393,11.6052,1.02045,-2.62091
393.5,11.6203,1.02689,-2.62204
394,11.6356,1.02526,-2.62265
394.5,11.6508,1.03088,-2.62401
395,11.6662,1.03374,-2.62508
395.5,11.6812,1.0351,-2.62638
396,11.6967,1.03816,-2.62819
396.5,11.7116,1.04656,-2.62979
397,11.7264,1.05155,-2.63236
397.5,11.7423,1.05375,-2.63385
398,11.7572,1.07084,-2.6355
398.5,11.7729,1.07428,-2.63717
399,11.7879,1.07791,-2.63836
399.5,11.8031,1.08331,-2.64002
400,11.8183,1.08883,-2.6405
400.5,11.8335,1.09502,-2.64166
401,11.849,1.0877,-2.64284
401.5,11.8641,1.09309,-2.64321
402,11.8793,1.10186,-2.64461
402.5,11.8946,1.09506,-2.64556
403,11.9099,1.10053,-2.64721
403.5,11.9252,1.10586,-2.64916
404,11.9404,1.11157,-2.65087
404.5,11.956,1.10777,-2.65341
405,11.9709,1.12168,-2.65483
405.5,11.9864,1.12822,-2.65702
406,12.0017,1.12005,-2.65951
406.5,12.0165,1.12369,-2.66116
407,12.032,1.12542,-2.66306
407.5,12.0474,1.13067,-2.66463
408,12.0621,1.13259,-2.66619
408.5,12.0772,1.13578,-2.66718
409,12.0929,1.14204,-2.66924
409.5,12.1083,1.14786,-2.67159
410,12.124,1.14652,-2.6741
410.5,12.1391,1.14265,-2.67566
411,12.1542,1.14517,-2.67725
411.5,12.1696,1.14814,-2.67786
412,12.185,1.14615,-2.67931
412.5,12.2004,1.14883,-2.68161
413,12.2156,1.1501,-2.68423
413.5,12.2307,1.14989,-2.68583
414,12.246,1.15336,-2.68742
414.5,12.2614,1.16136,-2.68899
415,12.2768,1.16515,-2.69052
415.5,12.2917,1.16467,-2.69192
416,12.3072,1.1661,-2.69313
416.5,12.3227,1.16746,-2.69599
417,12.3377,1.16907,-2.69799
417.5,12.3531,1.16726,-2.70116
418,12.3686,1.16922,-2.70333
418.5,12.3839,1.16601,-2.70528
419,12.3991,1.16609,-2.71001
419.5,12.4145,1.16124,-2.71206
420,12.4298,1.15684,-2.71477
420.5,12.445,1.16174,-2.71685
421,12.4604,1.16512,-2.7187
421.5,12.4759,1.16198,-2.72239
422,12.4911,1.15878,-2.72439
422.5,12.5058,1.15913,-2.72657
423,12.5217,1.15282,-2.7303
423.5,12.5371,1.15171,-2.73192
424,12.5526,1.145,-2.73485
424.5,12.5677,1.14944,-2.73666
425,12.5836,1.14587,-2.73924
425.5,12.5985,1.14414,-2.74216
426,12.6139,1.13835,-2.7441
426.5,12.6293,1.13261,-2.74712
427,12.6445,1.13141,-2.75164
427.5,12.66,1.12339,-2.75523
428,12.6751,1.11943,-2.75978
428.5,12.6906,1.12125,-2.76439
429,12.7061,1.11737,-2.76842
429.5,12.7214,1.11127,-2.77157
430,12.7369,1.10825,-2.77228
430.5,12.7522,1.10535,-2.77357
431,12.7669,1.09832,-2.77489
431.5,12.7828,1.09613,-2.77722
432,12.7984,1.09015,-2.78004
432.5,12.8139,1.08865,-2.78273
433,12.829,1.08135,-2.78599
433.5,12.8443,1.07398,-2.79031
434,12.8599,1.06596,-2.79289
434.5,12.8754,1.06288,-2.79675
435,12.8908,1.05843,-2.80146
435.5,12.9063,1.05677,-2.80474
436,12.9216,1.05414,-2.8091
436.5,12.9369,1.04486,-2.81467
437,12.9525,1.04162,-2.81841
437.5,12.9681,1.03742,-2.82246
438,12.9831,1.03113,-2.82597
438.5,12.9985,1.03245,-2.82938
439,13.0141,1.02932,-2.83403
439.5,13.0294,1.02281,-2.83714
440,13.045,1.01602,-2.84105
440.5,13.0603,1.01589,-2.84658
441,13.0759,1.01088,-2.85021
441.5,13.0909,1.00816,-2.85522
442,13.1068,1.00856,-2.85969
442.5,13.1223,1.00613,-2.86457
443,13.1377,1.00291,-2.86949
443.5,13.1533,0.997834,-2.87273
444,13.1686,0.985543,-2.8769
444.5,13.1842,0.993084,-2.8814
445,13.1997,0.997797,-2.88648
445.5,13.2151,0.993884,-2.89209
446,13.2306,0.98809,-2.89612
446.5,13.2462,0.98864,-2.90108
447,13.2615,0.988073,-2.90597
447.5,13.2773,0.997358,-2.91057
448,13.2926,0.997248,-2.91618
448.5,13.3082,0.997838,-2.92031
449,13.3239,1.00329,-2.92539
449.5,13.3393,1.00447,-2.93072
450,13.3548,1.00026,-2.9342
450.5,13.3701,1.00092,-2.93979
451,13.3858,1.00993,-2.94451
451.5,13.4012,1.01944,-2.94959
452,13.417,1.01816,-2.95561
452.5,13.4326,1.02444,-2.96031
453,13.448,1.02956,-2.96601
453.5,13.4634,1.03164,-2.97098
454,13.4793,1.04161,-2.97602
454.5,13.4948,1.04934,-2.98249
455,13.5102,1.05607,-2.98769
455.5,13.5261,1.06738,-2.99459
456,13.5417,1.07875,-3.00119
456.5,13.5572,1.08815,-3.00649
457,13.5729,1.09833,-3.01282
457.5,13.5883,1.10382,-3.01748
458,13.6042,1.11135,-3.02395
458.5,13.6196,1.12035,-3.03124
459,13.6353,1.13362,-3.03727
459.5,13.6506,1.14125,-3.044
460,13.6667,1.15964,-3.04908
460.5,13.6822,1.17313,-3.05469
461,13.6978,1.18394,-3.06183
461.5,13.7134,1.19976,-3.06745
462,13.7286,1.21493,-3.07405
462.5,13.7448,1.2288,-3.07871
463,13.7605,1.23766,-3.0841
463.5,13.7764,1.25436,-3.09061
464,13.7914,1.26266,-3.09653
464.5,13.8073,1.27736,-3.1042
465,13.8224,1.284,-3.11074
465.5,13.8388,1.29665,-3.11753
466,13.8544,1.30647,-3.12604
466.5,13.8701,1.32003,-3.1321
467,13.8857,1.33602,-3.13874
467.5,13.9015,1.34866,-3.14491
468,13.9169,1.36243,-3.15009
468.5,13.9331,1.36714,-3.15629
469,13.9485,1.38188,-3.16109
469.5,13.9641,1.40048,-3.16704
470,13.9798,1.40741,-3.17356
470.5,13.995,1.4216,-3.17884
471,14.0107,1.43725,-3.18583
471.5,14.0268,1.4478,-3.19172
472,14.042,1.45268,-3.1968
472.5,14.0585,1.45053,-3.20038
473,14.0742,1.45148,-3.20359
473.5,14.0896,1.46265,-3.20923
474,14.1053,1.47698,-3.21712
474.5,14.1211,1.48413,-3.22824
475,14.137,1.4898,-3.23599
475.5,14.1524,1.48778,-3.24375
476,14.1681,1.47713,-3.25079
476.5,14.1838,1.47793,-3.25437
477,14.1992,1.48426,-3.25725
477.5,14.2151,1.47756,-3.25992
478,14.2307,1.47629,-3.26529
478.5,14.2466,1.47158,-3.27174
479,14.2623,1.464,-3.28339
479.5,14.278,1.45041,-3.29166
480,14.2938,1.44654,-3.29921
480.5,14.3091,1.44157,-3.30483
481,14.325,1.4425,-3.30912
481.5,14.3409,1.44155,-3.31488
482,14.3563,1.42604,-3.31985
482.5,14.3722,1.41301,-3.3256
483,14.3879,1.40887,-3.33188
483.5,14.4035,1.40511,-3.33675
484,14.4193,1.38306,-3.34218
484.5,14.4347,1.37558,-3.34542
485,14.4506,1.36719,-3.35001
485.5,14.4663,1.36046,-3.35562
486,14.4818,1.35462,-3.35983
486.5,14.4978,1.34638,-3.36483
487,14.5136,1.33734,-3.36883
487.5,14.529,1.33659,-3.37238
488,14.5446,1.33544,-3.37708
488.5,14.5607,1.33257,-3.38261
489,14.5764,1.32197,-3.38821
489.5,14.5919,1.30457,-3.39303
490,14.6075,1.29807,-3.39625
490.5,14.6232,1.3,-3.39798
491,14.639,1.29172,-3.39935
491.5,14.6548,1.27854,-3.40045
492,14.6707,1.25609,-3.40444
492.5,14.6862,1.2574,-3.40931
493,14.7019,1.25531,-3.4151
493.5,14.7177,1.24221,-3.42188
494,14.7335,1.22958,-3.42753
494.5,14.7491,1.22232,-3.43592
495,14.7651,1.20867,-3.4431
495.5,14.7806,1.1966,-3.44935
496,14.7965,1.19599,-3.45472
496.5,14.8121,1.18898,-3.45815
497,14.8282,1.17312,-3.46204
497.5,14.8436,1.14699,-3.46545
498,14.8595,1.1388,-3.46893
498.5,14.8751,1.12949,-3.47381
499,14.8911,1.11788,-3.47789
499.5,14.9067,1.10866,-3.48226
500,14.9223,1.09534,-3.48623
500.5,14.9382,1.08115,-3.48895
501,14.9537,1.07445,-3.49131
501.5,14.9699,1.06222,-3.49444
502,14.9855,1.04788,-3.49719
502.5,15.0013,1.03476,-3.50106
503,15.0169,1.02143,-3.50467
503.5,15.0327,1.01591,-3.50867
504,15.0484,1.00307,-3.5116
504.5,15.0644,0.997443,-3.51371
505,15.0799,0.987025,-3.5169
505.5,15.0961,0.967815,-3.52048
506,15.1111,0.960892,-3.52265
506.5,15.1268,0.951955,-3.52568
507,15.1432,0.937337,-3.53006
507.5,15.159,0.922035,-3.53255
508,15.1751,0.91098,-3.53574
508.5,15.1906,0.913673,-3.53818
509,15.2065,0.904304,-3.54036
509.5,15.2225,0.892036,-3.54338
510,15.2375,0.877362,-3.54447
510.5,15.2532,0.869964,-3.54448
511,15.2697,0.848505,-3.54357
511.5,15.2853,0.845598,-3.54408
512,15.3009,0.828864,-3.54846
512.5,15.3169,0.821138,-3.55352
513,15.3329,0.80362,-3.56027
513.5,15.3487,0.792765,-3.56404
514,15.3646,0.779768,-3.5672
514.5,15.3801,0.764157,-3.57031
515,15.3959,0.75057,-3.57353
515.5,15.4118,0.733257,-3.57614
516,15.4277,0.723883,-3.57891
516.5,15.4432,0.709869,-3.58161
517,15.4592,0.69887,-3.58316
517.5,15.4751,0.687725,-3.58422
518,15.4912,0.673664,-3.58584
518.5,15.507,0.670874,-3.58586
519,15.5228,0.666982,-3.58746
519.5,15.5386,0.66073,-3.58915
520,15.5545,0.649959,-3.591
520.5,15.5705,0.642418,-3.59249
521,15.5864,0.63274,-3.59392
521.5,15.602,0.625717,-3.5954
522,15.6178,0.616888,-3.59696
522.5,15.6339,0.607202,-3.59861
523,15.6498,0.598,-3.60044
523.5,15.6657,0.577374,-3.60144
524,15.6814,0.575825,-3.60262
524.5,15.6976,0.561244,-3.60449
525,15.7132,0.554902,-3.60569
525.5,15.7292,0.538412,-3.6076
526,15.7451,0.531773,-3.6097
526.5,15.7609,0.532781,-3.61142
527,15.7772,0.52817,-3.61276
527.5,15.7929,0.521937,-3.61433
528,15.8088,0.510891,-3.61667
528.5,15.8241,0.506463,-3.61883
529,15.8405,0.502583,-3.62015
529.5,15.8567,0.492249,-3.62077
530,15.8725,0.486386,-3.62207
530.5,15.8883,0.487713,-3.62221
531,15.9042,0.480675,-3.62302
531.5,15.92,0.472533,-3.62227
532,15.936,0.464774,-3.62317
532.5,15.9519,0.464196,-3.62393
533,15.9679,0.46173,-3.62525
533.5,15.9838,0.450953,-3.62652
534,15.9996,0.442861,-3.62684
534.5,16.0157,0.436569,-3.62824
535,16.0316,0.439262,-3.62833
535.5,16.0474,0.440212,-3.62962
536,16.0634,0.442321,-3.62946
536.5,16.0794,0.445943,-3.63092
537,16.0956,0.44439,-3.63198
537.5,16.1114,0.442709,-3.63406
538,16.1273,0.430743,-3.63415
538.5,16.1435,0.430767,-3.63522
539,16.159,0.427733,-3.63523
539.5,16.1752,0.425245,-3.63523
540,16.1912,0.425218,-3.63523
540.5,16.2068,0.422119,-3.63524
541,16.2229,0.422172,-3.63671
541.5,16.2389,0.421621,-3.63636
542,16.2549,0.420072,-3.63712
542.5,16.2711,0.418778,-3.63696
543,16.2869,0.417065,-3.63767
543.5,16.3029,0.409606,-3.63702
544,16.3191,0.415219,-3.63861
544.5,16.3347,0.420667,-3.63755
545,16.3507,0.414371,-3.63879
545.5,16.3669,0.414308,-3.63951
546,16.3828,0.413204,-3.64058
546.5,16.399,0.414766,-3.64208
547,16.4148,0.413064,-3.64261
547.5,16.4311,0.413291,-3.64386
548,16.4469,0.407268,-3.64375
548.5,16.4629,0.405411,-3.64463
549,16.4789,0.406301,-3.64512
549.5,16.4948,0.410818,-3.64511
550,16.5109,0.402806,-3.64511
550.5,16.5268,0.405115,-3.64511
551,16.5434,0.400645,-3.64511
551.5,16.559,0.401458,-3.64511
552,16.5749,0.406215,-3.64511
552.5,16.5909,0.404276,-3.64516
553,16.6072,0.404999,-3.64569
553.5,16.6231,0.408276,-3.64774
554,16.6392,0.409828,-3.64774
554.5,16.6554,0.409996,-3.64773
555,16.6712,0.406581,-3.64824
555.5,16.6876,0.416859,-3.64911
556,16.7034,0.426089,-3.64906
556.5,16.7196,0.424359,-3.64905
557,16.7355,0.419089,-3.64948
557.5,16.7514,0.415561,-3.65041
558,16.7677,0.409827,-3.65
558.5,16.7834,0.408887,-3.64906
559,16.7994,0.414839,-3.64906
559.5,16.8157,0.422259,-3.64907
560,16.8318,0.40639,-3.64897
560.5,16.8477,0.415022,-3.65016
561,16.8638,0.410324,-3.65144
561.5,16.88,0.405435,-3.65169
562,16.8958,0.417942,-3.65169
562.5,16.9118,0.412387,-3.65169
563,16.9279,0.412926,-3.65169
563.5,16.9442,0.414883,-3.65169
564,16.96,0.413498,-3.65169
564.5,16.9761,0.412957,-3.65169
565,16.9923,0.420012,-3.65165
565.5,17.0083,0.414263,-3.65266
566,17.0243,0.415364,-3.65301
566.5,17.0403,0.414071,-3.65334
567,17.0565,0.412349,-3.65437
567.5,17.0726,0.421222,-3.65432
568,17.0884,0.422957,-3.65433
568.5,17.1046,0.421879,-3.65433
569,17.1208,0.423982,-3.65427
569.5,17.1366,0.417683,-3.65507
570,17.1528,0.422306,-3.6543
570.5,17.1691,0.415689,-3.6535
571,17.1851,0.41727,-3.65346
571.5,17.2013,0.42469,-3.65222
572,17.2174,0.428212,-3.65232
572.5,17.2334,0.417435,-3.65282
573,17.2495,0.423095,-3.65215
573.5,17.2657,0.428244,-3.65295
574,17.282,0.426833,-3.65303
574.5,17.2981,0.428333,-3.65456
575,17.3139,0.427637,-3.65444
575.5,17.3301,0.42589,-3.65537
576,17.3461,0.417688,-3.65575
576.5,17.3623,0.410837,-3.65577
577,17.3784,0.416249,-3.65694
577.5,17.3945,0.421866,-3.65718
578,17.4107,0.422504,-3.65713
578.5,17.4267,0.425451,-3.65788
579,17.4427,0.418453,-3.65865
579.5,17.4588,0.426135,-3.65929
580,17.4749,0.420492,-3.65928
580.5,17.4913,0.421843,-3.6601
581,17.5076,0.420439,-3.66024
581.5,17.5235,0.413778,-3.66026
582,17.5397,0.412313,-3.66026
582.5,17.5562,0.411163,-3.66026
583,17.5719,0.41488,-3.66026
583.5,17.5883,0.416957,-3.66023
584,17.6044,0.41785,-3.66014
584.5,17.6204,0.418259,-3.65895
585,17.6368,0.410532,-3.65893
585.5,17.653,0.411859,-3.65923
586,17.669,0.412695,-3.65926
586.5,17.6852,0.409385,-3.65927
587,17.7012,0.410221,-3.65927
587.5,17.7173,0.401114,-3.65927
588,17.7337,0.409962,-3.65926
588.5,17.7499,0.414531,-3.65897
589,17.7659,0.412749,-3.65792
589.5,17.7823,0.408358,-3.65796
590,17.7987,0.416293,-3.65795
590.5,17.8145,0.41723,-3.65795
591,17.8308,0.410449,-3.65795
591.5,17.8469,0.41091,-3.65795
592,17.863,0.409277,-3.65795
592.5,17.8793,0.409329,-3.65795
593,17.8955,0.407448,-3.65795
593.5,17.9119,0.403252,-3.6579
594,17.9279,0.408662,-3.6589
594.5,17.9439,0.405363,-3.65927
595,17.9603,0.399909,-3.6593
595.5,17.9763,0.404137,-3.65941
596,17.9928,0.404431,-3.66058
596.5,18.0087,0.408084,-3.66059
597,18.0252,0.410015,-3.66059
597.5,18.0412,0.411133,-3.66061
598,18.0576,0.410935,-3.661
598.5,18.0738,0.404643,-3.66324
599,18.0901,0.406938,-3.66321
599.5,18.1063,0.404128,-3.66329
600,18.1226,0.406905,-3.66446
600.5,18.1388,0.405142,-3.66452
601,18.1548,0.407289,-3.66454
601.5,18.171,0.405144,-3.66492
602,18.1873,0.39565,-3.66591
602.5,18.2036,0.403952,-3.66586
603,18.2194,0.403689,-3.6659
603.5,18.2361,0.397574,-3.66494
604,18.2521,0.401126,-3.66454
604.5,18.2686,0.406149,-3.66454
605,18.2845,0.405988,-3.66454
605.5,18.3009,0.403961,-3.66443
606,18.3173,0.405924,-3.66312
606.5,18.3332,0.404138,-3.66323
607,18.3496,0.402679,-3.66321
607.5,18.3658,0.406041,-3.66307
608,18.3821,0.400571,-3.66192
608.5,18.3982,0.402971,-3.66191
609,18.4146,0.40094,-3.6619
609.5,18.4306,0.395045,-3.6619
610,18.447,0.399979,-3.6619
610.5,18.4632,0.404716,-3.6619
611,18.4796,0.41068,-3.6619
611.5,18.4957,0.402749,-3.66189
612,18.5121,0.397626,-3.66076
612.5,18.5284,0.392565,-3.6606
613,18.5448,0.39772,-3.66058
613.5,18.5609,0.390631,-3.66058
614,18.577,0.395556,-3.66058
614.5,18.5934,0.39881,-3.66058
615,18.6096,0.392749,-3.66058
615.5,18.6262,0.394474,-3.66058
616,18.6421,0.397066,-3.66058
616.5,18.6583,0.396595,-3.66058
617,18.6747,0.389161,-3.66058
617.5,18.6908,0.394208,-3.66058
618,18.7071,0.394558,-3.66058
618.5,18.7234,0.386028,-3.6606
619,18.7396,0.390041,-3.66066
619.5,18.7561,0.390224,-3.66074
620,18.7721,0.386383,-3.66165
620.5,18.7886,0.381266,-3.66237
621,18.8047,0.380687,-3.6627
621.5,18.8209,0.386778,-3.66386
622,18.8373,0.391468,-3.66407
622.5,18.8535,0.383376,-3.66508
623,18.8699,0.383709,-3.66634
623.5,18.8861,0.380946,-3.6664
624,18.9026,0.385183,-3.6664
624.5,18.9188,0.378056,-3.6664
625,18.9351,0.378277,-3.6664
625.5,18.9512,0.375294,-3.6664
626,18.9676,0.376552,-3.6664
626.5,18.9839,0.372449,-3.6664
627,19.0001,0.375535,-3.6664
627.5,19.0164,0.370331,-3.6664
628,19.0328,0.366679,-3.6664
628.5,19.0491,0.363474,-3.6664
629,19.0655,0.36877,-3.6664
629.5,19.0817,0.370095,-3.6664
630,19.098,0.363175,-3.6664
630.5,19.1145,0.364746,-3.6664
631,19.1305,0.359271,-3.6664
631.5,19.1469,0.360329,-3.6664
632,19.1628,0.367173,-3.6664
632.5,19.1797,0.363345,-3.6664
633,19.1959,0.355069,-3.6664
633.5,19.2121,0.363455,-3.6664
634,19.2284,0.360653,-3.6664
634.5,19.2447,0.353804,-3.6664
635,19.2608,0.34724,-3.66639
635.5,19.2771,0.351387,-3.66629
636,19.2935,0.35333,-3.66513
636.5,19.3098,0.358037,-3.66511
637,19.326,0.357155,-3.66511
637.5,19.3423,0.35068,-3.66504
638,19.359,0.357864,-3.6675
638.5,19.3747,0.358315,-3.6677
639,19.3916,0.358055,-3.66814
639.5,19.4078,0.359082,-3.6691
640,19.4244,0.350524,-3.66909
640.5,19.4403,0.351528,-3.66816
641,19.4568,0.349584,-3.6677
641.5,19.473,0.353932,-3.66768
642,19.4888,0.352176,-3.66647
642.5,19.5057,0.351677,-3.66773
643,19.5222,0.35017,-3.66692
643.5,19.5382,0.35486,-3.66613
644,19.5545,0.365371,-3.66605
644.5,19.571,0.354572,-3.66527
645,19.5873,0.360086,-3.66625
645.5,19.6038,0.357852,-3.66618
646,19.6198,0.351675,-3.66499
646.5,19.6366,0.347205,-3.6649
647,19.6526,0.35259,-3.66487
647.5,19.6691,0.358647,-3.66482
648,19.6853,0.359168,-3.66589
648.5,19.7017,0.356629,-3.66712
649,19.7178,0.355088,-3.66773
649.5,19.734,0.349689,-3.66772
650,19.7507,0.354558,-3.66772
650.5,19.7668,0.352308,-3.66772
651,19.783,0.352145,-3.66772
651.5,19.7998,0.351698,-3.66772
652,19.8157,0.356398,-3.66772
652.5,19.8321,0.355421,-3.66772
653,19.8487,0.359787,-3.66772
653.5,19.8648,0.358155,-3.66772
654,19.881,0.349735,-3.66772
654.5,19.8978,0.351278,-3.66772
655,19.9138,0.348775,-3.66772
655.5,19.9303,0.349874,-3.66772
656,19.9467,0.351955,-3.66772
656.5,19.9627,0.352426,-3.6677
657,19.9791,0.345603,-3.66823
657.5,19.9955,0.346529,-3.66909
658,20.0118,0.33367,-3.66904
658.5,20.0282,0.340532,-3.66903
659,20.0444,0.34435,-3.66886
659.5,20.061,0.343771,-3.66771
660,20.0772,0.34233,-3.66773
660.5,20.0934,0.337053,-3.66772
661,20.1099,0.334648,-3.66772
661.5,20.1263,0.333266,-3.66772
662,20.1424,0.334395,-3.66772
662.5,20.1589,0.332605,-3.66772
663,20.1751,0.331686,-3.66772
663.5,20.1916,0.32886,-3.66772
664,20.2079,0.319056,-3.66772
664.5,20.2237,0.321285,-3.66772
665,20.2404,0.329178,-3.66772
665.5,20.2569,0.329478,-3.66772
666,20.2735,0.328948,-3.66772
666.5,20.2895,0.325907,-3.66772
667,20.3061,0.326807,-3.66802
667.5,20.3225,0.327512,-3.66958
668,20.339,0.327462,-3.6704
668.5,20.355,0.320224,-3.67036
669,20.3716,0.312461,-3.67079
669.5,20.3879,0.313247,-3.67173
670,20.4044,0.311129,-3.67167
670.5,20.4206,0.311264,-3.67162
671,20.4371,0.309877,-3.67141
671.5,20.4534,0.309297,-3.67181
672,20.4697,0.303667,-3.67178
672.5,20.4862,0.302806,-3.67178
673,20.5026,0.306816,-3.67178
673.5,20.519,0.300685,-3.67179
674,20.5352,0.303743,-3.67226
674.5,20.5517,0.301184,-3.67311
675,20.568,0.292984,-3.6731
675.5,20.5844,0.292637,-3.67309
676,20.6008,0.300406,-3.67308
676.5,20.6173,0.298106,-3.67191
677,20.6333,0.292389,-3.67179
677.5,20.6501,0.292054,-3.67178
678,20.6664,0.293807,-3.67178
678.5,20.6826,0.294139,-3.67181
679,20.6991,0.295346,-3.67119
679.5,20.7154,0.288858,-3.6703
680,20.7319,0.293773,-3.67035
680.5,20.7483,0.299147,-3.67035
681,20.7646,0.281725,-3.67035
681.5,20.781,0.285373,-3.67036
682,20.7974,0.290127,-3.6699
682.5,20.8138,0.285882,-3.66899
683,20.8303,0.283436,-3.66904
683.5,20.8467,0.275519,-3.66905
684,20.8628,0.277781,-3.66897
684.5,20.8794,0.275075,-3.67034
685,20.8956,0.273656,-3.67045
685.5,20.9123,0.269156,-3.67125
686,20.9286,0.274069,-3.6718
686.5,20.9451,0.263788,-3.67179
687,20.9613,0.261039,-3.67184
687.5,20.9779,0.262384,-3.67084
688,20.9942,0.254825,-3.67047
688.5,21.0107,0.260593,-3.67047
689,21.0269,0.256918,-3.67047
689.5,21.0433,0.25995,-3.67047
690,21.0596,0.255136,-3.67056
690.5,21.0761,0.246526,-3.66937
691,21.0926,0.245936,-3.66915
691.5,21.108,0.239472,-3.66915
692,21.125,0.241617,-3.66914
692.5,21.1416,0.242462,-3.66911
693,21.1583,0.240738,-3.66976
693.5,21.1747,0.241205,-3.66979
694,21.191,0.243871,-3.66981
694.5,21.2075,0.235639,-3.66981
695,21.2241,0.238024,-3.66982
695.5,21.2405,0.232312,-3.66948
696,21.2565,0.235588,-3.66984
696.5,21.2732,0.238506,-3.6698
697,21.2895,0.238501,-3.66981
697.5,21.306,0.241249,-3.66982
698,21.3224,0.242844,-3.66973
698.5,21.3389,0.241854,-3.67104
699,21.3552,0.242718,-3.67113
699.5,21.3715,0.247182,-3.67113
700,21.388,0.249862,-3.67113
700.5,21.4047,0.240273,-3.67113
701,21.4208,0.236784,-3.67124
701.5,21.4374,0.247469,-3.67255
702,21.4539,0.246703,-3.67247
702.5,21.4705,0.243189,-3.67252
703,21.4867,0.241459,-3.67324
703.5,21.503,0.236861,-3.67437
704,21.5197,0.24458,-3.67441
704.5,21.5358,0.234906,-3.67442
705,21.5523,0.22415,-3.67441
705.5,21.5684,0.221284,-3.67444
706,21.5849,0.219226,-3.67326
706.5,21.6019,0.229558,-3.67442
707,21.6182,0.222844,-3.67442
707.5,21.6347,0.226214,-3.67442
708,21.6511,0.223948,-3.67445
708.5,21.6673,0.222036,-3.67384
709,21.6841,0.220051,-3.67343
709.5,21.7004,0.219751,-3.67231
710,21.7162,0.215431,-3.67212
710.5,21.7333,0.209898,-3.67211
711,21.7498,0.212765,-3.67211
711.5,21.7661,0.206325,-3.67211
712,21.7826,0.211177,-3.67211
712.5,21.799,0.209554,-3.67211
713,21.8153,0.211295,-3.67211
713.5,21.832,0.199366,-3.67211
714,21.8477,0.200151,-3.67211
714.5,21.8648,0.20696,-3.67211
715,21.8814,0.205856,-3.67211
715.5,21.8978,0.198192,-3.67211
716,21.9143,0.196084,-3.67211
716.5,21.9306,0.191944,-3.67211
717,21.9475,0.189642,-3.67211
717.5,21.9638,0.193343,-3.67193
718,21.9802,0.195744,-3.67179
718.5,21.9968,0.193845,-3.67178
719,22.0133,0.193115,-3.67178
719.5,22.0299,0.186446,-3.67178
720,22.0464,0.187597,-3.67176
720.5,22.0628,0.179888,-3.67229
721,22.0794,0.178184,-3.67327
721.5,22.0958,0.174304,-3.6737
722,22.1123,0.165386,-3.6748
722.5,22.1288,0.17938,-3.67558
723,22.1453,0.170271,-3.67615
723.5,22.1619,0.1622,-3.67698
724,22.1783,0.15891,-3.67769
724.5,22.1947,0.162073,-3.6784
725,22.2113,0.154146,-3.6791
725.5,22.2277,0.149292,-3.67843
726,22.2443,0.152165,-3.67802
726.5,22.2603,0.146627,-3.67804
727,22.2776,0.139591,-3.67804
727.5,22.294,0.138841,-3.67804
728,22.3104,0.140923,-3.67804
728.5,22.3268,0.145789,-3.67811
729,22.3437,0.137956,-3.67676
729.5,22.3598,0.134432,-3.67638
730,22.3767,0.140114,-3.67638
730.5,22.393,0.129642,-3.67507
731,22.4095,0.130306,-3.67499
731.5,22.426,0.135839,-3.67499
732,22.4426,0.123513,-3.67415
732.5,22.4591,0.118615,-3.67364
733,22.4756,0.109712,-3.67365
733.5,22.4923,0.107392,-3.67364
734,22.5086,0.101523,-3.67441
734.5,22.5252,0.091552,-3.67495
735,22.5416,0.0851079,-3.67511
735.5,22.5577,0.0815982,-3.67637
736,22.5749,0.0832172,-3.67629
736.5,22.5913,0.0780636,-3.67566
737,22.6077,0.0830838,-3.67497
737.5,22.6243,0.0846923,-3.67496
738,22.6409,0.083396,-3.67497
738.5,22.6573,0.0768409,-3.67496
739,22.674,0.0642146,-3.67499
739.5,22.6906,0.0557341,-3.67369
740,22.707,0.0578137,-3.67365