File: 01_Data/Helmet_Tetrahedron/STA/N2/30K_min/Helmet_Tetrahedron_STA_N2_30KData_250509_R2.csv
Temp./C,Time/min,DSC/(mW/mg),Mass loss/mg
35.0,0.0,1.05339,-0.00798018
35.5,0.0329721,1.10689,-0.00671171
36,0.0635649,1.14767,-0.00617542
36.5,0.0944047,1.18765,-0.00657057
37,0.12485,1.22716,-0.00626903
37.5,0.154412,1.26695,-0.00741132
38,0.1838,1.30027,-0.00671932
38.5,0.211871,1.3345,-0.00711995
39,0.239946,1.37,-0.00806018
39.5,0.267377,1.41299,-0.00802097
40,0.293569,1.44382,-0.00816562
40.5,0.320595,1.47319,-0.00816882
41,0.347879,1.50306,-0.00936885
41.5,0.373662,1.5388,-0.00834361
42,0.398516,1.55927,-0.00805159
42.5,0.424788,1.59513,-0.00729895
43,0.450012,1.61651,-0.00713743
43.5,0.474203,1.64761,-0.00657216
44,0.498004,1.67891,-0.00545415
44.5,0.523757,1.70718,-0.00484101
45,0.54743,1.72929,-0.00549912
45.5,0.571244,1.75817,-0.00732369
46,0.595151,1.78455,-0.00826305
46.5,0.618608,1.80254,-0.00860035
47,0.641,1.83143,-0.00837394
47.5,0.666413,1.8562,-0.00771661
48,0.688536,1.8737,-0.00738349
48.5,0.711818,1.8927,-0.00676393
49,0.734028,1.91721,-0.00749074
49.5,0.756889,1.94294,-0.00800092
50,0.779361,1.96727,-0.00797556
50.5,0.80178,1.97866,-0.00794733
51,0.824303,2.00214,-0.0083935
51.5,0.846006,2.02006,-0.00897523
52,0.867487,2.04629,-0.00875509
52.5,0.889491,2.06356,-0.00817917
53,0.911619,2.08591,-0.00810892
53.5,0.932654,2.10856,-0.00805959
54,0.95448,2.12878,-0.00775458
54.5,0.97599,2.15606,-0.00736519
55,0.997114,2.16716,-0.00775413
55.5,1.01834,2.19532,-0.00798714
56,1.03933,2.21902,-0.00844918
56.5,1.06055,2.23537,-0.00891434
57,1.08164,2.24645,-0.00960625
57.5,1.10265,2.27824,-0.0104768
58,1.12333,2.29618,-0.0104138
58.5,1.14424,2.31431,-0.00966665
59,1.16496,2.33277,-0.00936669
59.5,1.18487,2.35881,-0.0101598
60,1.20488,2.3714,-0.00998943
60.5,1.22613,2.38313,-0.00946547
61,1.24619,2.39054,-0.00984302
61.5,1.26686,2.41146,-0.00984857
62,1.2866,2.42544,-0.00866698
62.5,1.30701,2.43816,-0.00843533
63,1.32691,2.4526,-0.00800274
63.5,1.34713,2.46249,-0.00740891
64,1.36713,2.46645,-0.00811263
64.5,1.38651,2.47535,-0.00857391
65,1.4064,2.47984,-0.0104534
65.5,1.42642,2.48676,-0.0110824
66,1.44535,2.48738,-0.0104966
66.5,1.46545,2.49945,-0.0105147
67,1.4853,2.50377,-0.0113392
67.5,1.50467,2.50402,-0.0103438
68,1.52388,2.50741,-0.0104308
68.5,1.54302,2.51271,-0.0115033
69,1.56253,2.51362,-0.0107405
69.5,1.58201,2.51785,-0.011525
70,1.60154,2.51078,-0.0103245
70.5,1.62071,2.52412,-0.0105671
71,1.63955,2.5246,-0.0103695
71.5,1.65899,2.52433,-0.0111722
72,1.67821,2.52503,-0.0104527
72.5,1.69758,2.52037,-0.0106803
73,1.71626,2.5254,-0.0114894
73.5,1.73518,2.53562,-0.0105106
74,1.75472,2.53565,-0.0120212
74.5,1.77351,2.54703,-0.0114874
75,1.79259,2.55031,-0.0121815
75.5,1.81126,2.55621,-0.0106055
76,1.83064,2.55618,-0.0111289
76.5,1.849,2.5698,-0.0114077
77,1.86777,2.57872,-0.0111477
77.5,1.88718,2.57634,-0.0105757
78,1.90533,2.59491,-0.0109084
78.5,1.92423,2.599,-0.0105411
79,1.94278,2.59891,-0.0104699
79.5,1.96119,2.61154,-0.0104519
80,1.97995,2.62274,-0.0103101
80.5,1.99878,2.62493,-0.0117072
81,2.01716,2.62696,-0.0105594
81.5,2.03555,2.63157,-0.0104969
82,2.05404,2.64394,-0.0102948
82.5,2.0728,2.65351,-0.00992451
83,2.09119,2.65459,-0.0105601
83.5,2.10949,2.66748,-0.0105214
84,2.12742,2.67466,-0.0103848
84.5,2.14588,2.67781,-0.0104174
85,2.16439,2.69097,-0.0110649
85.5,2.18216,2.70081,-0.0110611
86,2.20046,2.7026,-0.0115015
86.5,2.2185,2.71588,-0.0114368
87,2.23703,2.71796,-0.0120332
87.5,2.25552,2.73049,-0.0119866
88,2.27303,2.73134,-0.0105611
88.5,2.2912,2.75857,-0.0120267
89,2.3089,2.76995,-0.0120805
89.5,2.32711,2.78281,-0.0116975
90,2.34497,2.79264,-0.0120069
90.5,2.36251,2.79953,-0.0120929
91,2.3806,2.80839,-0.0113831
91.5,2.39856,2.82209,-0.0108189
92,2.41601,2.8392,-0.0120622
92.5,2.4338,2.83637,-0.0120405
93,2.45125,2.85319,-0.011989
93.5,2.4693,2.86669,-0.0107522
94,2.4866,2.87605,-0.0107452
94.5,2.50451,2.88308,-0.0112329
95,2.52186,2.88779,-0.0116103
95.5,2.53952,2.90513,-0.0106886
96,2.55701,2.92217,-0.0113882
96.5,2.57434,2.93268,-0.0105903
97,2.59163,2.94539,-0.0106733
97.5,2.6098,2.9439,-0.0108457
98,2.62588,2.95541,-0.0110113
98.5,2.64387,2.96351,-0.0106698
99,2.66125,2.97585,-0.0105826
99.5,2.67899,2.97886,-0.011809
100,2.69626,2.99021,-0.011963
100.5,2.71357,2.99445,-0.0123863
101,2.73088,3.00636,-0.013327
101.5,2.74717,3.01633,-0.0132824
102,2.7655,3.02313,-0.0132795
102.5,2.7827,3.02812,-0.0132738
103,2.79999,3.03518,-0.0139342
103.5,2.81652,3.0469,-0.0146004
104,2.83444,3.05363,-0.0146025
104.5,2.85036,3.06218,-0.0145996
105,2.8687,3.06388,-0.0146556
105.5,2.88542,3.07456,-0.0132683
106,2.90272,3.08799,-0.0141044
106.5,2.91992,3.09931,-0.0144738
107,2.93696,3.09951,-0.0132075
107.5,2.95433,3.11088,-0.0131771
108,2.97074,3.11193,-0.0131377
108.5,2.98704,3.12733,-0.0140166
109,3.00521,3.13083,-0.0132408
109.5,3.02204,3.13597,-0.0131743
110,3.03891,3.1451,-0.0131697
110.5,3.05606,3.15122,-0.0131374
111,3.07306,3.16226,-0.0137404
111.5,3.08986,3.17292,-0.0131565
112,3.1062,3.17638,-0.0131687
112.5,3.12309,3.18516,-0.0141181
113,3.14106,3.19335,-0.0144634
113.5,3.15795,3.19452,-0.0148114
114,3.17464,3.20632,-0.0156423
114.5,3.19133,3.21559,-0.0144665
115,3.20838,3.22555,-0.0144945
115.5,3.22515,3.23447,-0.0145152
116,3.24178,3.24319,-0.014838
116.5,3.25888,3.25196,-0.0158016
117,3.27538,3.25695,-0.0158066
117.5,3.29223,3.26026,-0.0152703
118,3.30879,3.26863,-0.0144703
118.5,3.3259,3.2709,-0.0144846
119,3.34244,3.28045,-0.0144896
119.5,3.35899,3.28541,-0.01449
120,3.37601,3.29171,-0.01449
120.5,3.39244,3.29832,-0.0144898
121,3.40879,3.30194,-0.0144895
121.5,3.42566,3.31403,-0.0145021
122,3.44237,3.32451,-0.014678
122.5,3.45893,3.3283,-0.0158234
123,3.47553,3.33884,-0.0158002
123.5,3.49195,3.34289,-0.0158091
124,3.50871,3.34417,-0.01581
124.5,3.52533,3.35533,-0.0158034
125,3.5415,3.3589,-0.0157483
125.5,3.55797,3.36621,-0.0167446
126,3.57479,3.37996,-0.0171341
126.5,3.59133,3.38509,-0.0171304
127,3.60753,3.3808,-0.0171282
127.5,3.62389,3.38847,-0.0171097
128,3.64053,3.39709,-0.0171021
128.5,3.6567,3.40277,-0.0158366
129,3.67314,3.40527,-0.0158114
129.5,3.68913,3.41428,-0.0158099
130,3.70573,3.41802,-0.0158118
130.5,3.72185,3.42925,-0.0158266
131,3.73769,3.43571,-0.0157658
131.5,3.75401,3.44726,-0.0170577
132,3.77025,3.44888,-0.0171233
132.5,3.78623,3.4591,-0.0159967
133,3.80293,3.46095,-0.0158234
133.5,3.8188,3.46915,-0.015809
134,3.83522,3.47565,-0.0158098
134.5,3.85143,3.48007,-0.0158107
135,3.86762,3.49414,-0.0158066
135.5,3.88356,3.49571,-0.0166061
136,3.89968,3.50193,-0.0163918
136.5,3.91581,3.51386,-0.0153088
137,3.93178,3.51606,-0.015366
137.5,3.94782,3.51496,-0.0153724
138,3.96418,3.52493,-0.0153922
138.5,3.97964,3.53256,-0.0153458
139,3.99608,3.53755,-0.016645
139.5,4.01193,3.53892,-0.0166791
140,4.02761,3.54886,-0.0166802
140.5,4.0442,3.55237,-0.0166801
141,4.05976,3.54828,-0.0166799
141.5,4.07598,3.56194,-0.0166726
142,4.09196,3.57144,-0.0171876
142.5,4.10775,3.58459,-0.0180462
143,4.12395,3.58822,-0.0180068
143.5,4.14025,3.58794,-0.0180001
144,4.1559,3.59109,-0.0179999
144.5,4.17146,3.59347,-0.018
145,4.18735,3.60067,-0.018
145.5,4.20328,3.60712,-0.0179997
146,4.21894,3.60506,-0.0180011
146.5,4.23502,3.60847,-0.018027
147,4.25052,3.6262,-0.0180287
147.5,4.26633,3.62549,-0.0202132
148,4.28234,3.62575,-0.0206228
148.5,4.29804,3.62511,-0.0206443
149,4.31396,3.63619,-0.0206406
149.5,4.32962,3.63825,-0.02064
150,4.34544,3.64862,-0.02064
150.5,4.36092,3.65753,-0.02064
151,4.37684,3.65802,-0.02064
151.5,4.39208,3.65765,-0.02064
152,4.40706,3.65976,-0.02064
152.5,4.42392,3.66737,-0.02064
153,4.43916,3.66713,-0.02064
153.5,4.45524,3.67602,-0.02064
154,4.47066,3.68469,-0.02064
154.5,4.48625,3.68365,-0.02064
155,4.50191,3.68362,-0.02064
155.5,4.51757,3.69611,-0.02064
156,4.53307,3.70141,-0.02064
156.5,4.54862,3.69781,-0.02064
157,4.56433,3.70432,-0.02064
157.5,4.57982,3.71119,-0.02064
158,4.59527,3.71625,-0.02064
158.5,4.61019,3.71995,-0.02064
159,4.62661,3.72517,-0.0206397
159.5,4.64201,3.73227,-0.0206395
160,4.65767,3.72712,-0.0206608
160.5,4.67322,3.73743,-0.0206983
161,4.68896,3.74619,-0.0228294
161.5,4.70417,3.74996,-0.0232826
162,4.72015,3.75443,-0.0232801
162.5,4.7356,3.75804,-0.0232794
163,4.75108,3.76766,-0.0232804
163.5,4.76644,3.76788,-0.0233101
164,4.78202,3.76536,-0.0229421
164.5,4.79699,3.77455,-0.0229564
165,4.8132,3.78683,-0.0229462
165.5,4.82817,3.78346,-0.0229703
166,4.8431,3.78934,-0.0232093
166.5,4.85937,3.7976,-0.0242402
167,4.87462,3.80047,-0.0240874
167.5,4.89044,3.80656,-0.0232866
168,4.90566,3.81355,-0.0232796
168.5,4.92116,3.8236,-0.0232792
169,4.93651,3.83483,-0.0228022
169.5,4.95193,3.84933,-0.0229244
170,4.96737,3.85885,-0.0232938
170.5,4.9829,3.86618,-0.0232823
171,4.9982,3.88072,-0.0232749
171.5,5.01358,3.89547,-0.02396
172,5.02907,3.91857,-0.0246069
172.5,5.04458,3.95247,-0.0245933
173,5.06012,3.96582,-0.0245895
173.5,5.0755,3.98726,-0.0248849
174,5.0911,3.99836,-0.0259379
174.5,5.10636,4.01418,-0.0258994
175,5.12157,4.0205,-0.0259092
175.5,5.137,4.02992,-0.0259112
176,5.15201,4.03275,-0.025916
176.5,5.16792,4.03946,-0.0258632
177,5.18278,4.03689,-0.0267174
177.5,5.19795,4.03563,-0.0269062
178,5.2135,4.03747,-0.0269012
178.5,5.22861,4.03837,-0.0268999
179,5.24399,4.04479,-0.0269
179.5,5.25924,4.04393,-0.0269
180,5.27482,4.04655,-0.0269
180.5,5.28962,4.05003,-0.0269
181,5.3049,4.04552,-0.0269
181.5,5.32019,4.04017,-0.0269
182,5.33566,4.04199,-0.0269
182.5,5.3504,4.049,-0.0269
183,5.36569,4.04937,-0.0268973
183.5,5.38076,4.04764,-0.0268956
184,5.39599,4.0632,-0.0271015
184.5,5.41127,4.06497,-0.0272244
185,5.42637,4.0598,-0.0272318
185.5,5.44197,4.05864,-0.02723
186,5.45695,4.06627,-0.0272321
186.5,5.47209,4.05858,-0.0272431
187,5.48613,4.05814,-0.0282
187.5,5.50151,4.06104,-0.0284681
188,5.51695,4.06161,-0.027276
188.5,5.53237,4.0641,-0.027231
189,5.54765,4.06373,-0.0272313
189.5,5.56224,4.06667,-0.027241
190,5.57761,4.0659,-0.0271423
190.5,5.59278,4.07525,-0.0283884
191,5.60798,4.07679,-0.028543
191.5,5.62285,4.07999,-0.0285413
192,5.63796,4.08244,-0.0285325
192.5,5.65311,4.07685,-0.0290794
193,5.66804,4.0813,-0.029918
193.5,5.68331,4.0819,-0.0298656
194,5.69791,4.08446,-0.0298586
194.5,5.71305,4.08025,-0.0298561
195,5.72815,4.08142,-0.0298769
195.5,5.74295,4.08582,-0.03009
196,5.75757,4.09568,-0.0311553
196.5,5.77326,4.099,-0.0311764
197,5.78796,4.09603,-0.0311818
197.5,5.80333,4.10155,-0.0311968
198,5.81834,4.10843,-0.0311121
198.5,5.83307,4.11657,-0.0323412
199,5.84821,4.11267,-0.031402
199.5,5.86323,4.11069,-0.0311996
200,5.87809,4.11207,-0.0311876
200.5,5.89279,4.11277,-0.0313031
201,5.90814,4.10766,-0.0324131
201.5,5.92302,4.10183,-0.0324756
202,5.93785,4.10413,-0.0324916
202.5,5.9529,4.11246,-0.0324903
203,5.96789,4.1124,-0.03249
203.5,5.98272,4.11198,-0.03249
204,5.99782,4.10183,-0.03249
204.5,6.01277,4.09662,-0.0324898
205,6.0275,4.09015,-0.0324914
205.5,6.04249,4.09428,-0.0325055
206,6.05741,4.09767,-0.0336035
206.5,6.07253,4.10356,-0.033796
207,6.08714,4.10063,-0.0336089
207.5,6.10179,4.09374,-0.0331314
208,6.11722,4.09495,-0.0331544
208.5,6.13188,4.10027,-0.0331504
209,6.14685,4.09849,-0.0331493
209.5,6.16148,4.10196,-0.0331477
210,6.17681,4.10354,-0.0332789
210.5,6.19159,4.10197,-0.0345323
211,6.20607,4.09821,-0.0344489
211.5,6.22182,4.10632,-0.0344686
212,6.23599,4.10099,-0.0344704
212.5,6.25124,4.10319,-0.0344699
213,6.26583,4.10235,-0.0344718
213.5,6.281,4.10145,-0.0344743
214,6.29599,4.09945,-0.0343791
214.5,6.31081,4.09971,-0.0355198
215,6.32574,4.11377,-0.0357976
215.5,6.34039,4.10795,-0.0357919
216,6.35551,4.1022,-0.0366896
216.5,6.37033,4.11097,-0.0370962
217,6.38517,4.11588,-0.0371065
217.5,6.39974,4.11837,-0.0370998
218,6.41476,4.12133,-0.0370937
218.5,6.42967,4.12175,-0.0371056
219,6.44467,4.11193,-0.0375129
219.5,6.45928,4.11746,-0.038417
220,6.47451,4.12304,-0.0384179
220.5,6.48932,4.11993,-0.038421
221,6.50418,4.12664,-0.0384708
221.5,6.5188,4.12618,-0.0396525
222,6.53363,4.11974,-0.039717
222.5,6.54848,4.12364,-0.0397437
223,6.56326,4.13034,-0.0397703
223.5,6.57819,4.13149,-0.0409249
224,6.59322,4.13029,-0.0410434
224.5,6.60771,4.1302,-0.041015
225,6.62269,4.13169,-0.0419379
225.5,6.63762,4.12822,-0.0423896
226,6.65251,4.13282,-0.0423462
226.5,6.66727,4.13852,-0.0428107
227,6.68212,4.14233,-0.043862
227.5,6.69685,4.13711,-0.0446308
228,6.71157,4.13816,-0.0446751
228.5,6.72643,4.13186,-0.044682
229,6.74142,4.13147,-0.0446836
229.5,6.75618,4.13218,-0.0446258
230,6.77124,4.13792,-0.0454411
230.5,6.78596,4.13917,-0.0459225
231,6.80074,4.13926,-0.0446377
231.5,6.81533,4.1402,-0.0449902
232,6.83024,4.14011,-0.0460081
232.5,6.84525,4.13598,-0.0458704
233,6.85956,4.13651,-0.0470096
233.5,6.87468,4.13712,-0.0461944
234,6.88951,4.14041,-0.047261
234.5,6.90333,4.12734,-0.0477363
235,6.91819,4.12452,-0.0482519
235.5,6.93326,4.12055,-0.049248
236,6.94867,4.11573,-0.049187
236.5,6.96316,4.1234,-0.0492205
237,6.97783,4.12462,-0.0503404
237.5,6.99298,4.12253,-0.050506
238,7.00719,4.11467,-0.050367
238.5,7.02243,4.11532,-0.05238
239,7.03676,4.11552,-0.0524661
239.5,7.05192,4.09919,-0.052452
240,7.06665,4.09461,-0.0526957
240.5,7.08119,4.09246,-0.0535452
241,7.09601,4.08744,-0.0541607
241.5,7.11093,4.07852,-0.0541138
242,7.12547,4.07211,-0.0544076
242.5,7.14032,4.06237,-0.0555605
243,7.15506,4.05575,-0.0554519
243.5,7.16951,4.04584,-0.0564795
244,7.18433,4.03164,-0.0569907
244.5,7.19906,4.02436,-0.0572079
245,7.2139,4.01655,-0.0585924
245.5,7.22862,4.01046,-0.0591111
246,7.24326,4.00313,-0.0602801
246.5,7.25802,3.99838,-0.0611307
247,7.27287,3.98758,-0.0618884
247.5,7.28739,3.98175,-0.0610577
248,7.3021,3.96115,-0.0619695
248.5,7.31694,3.95358,-0.0621585
249,7.33154,3.94836,-0.0634637
249.5,7.34638,3.93116,-0.064199
250,7.36099,3.91169,-0.0655788
250.5,7.37566,3.91111,-0.0665834
251,7.39041,3.90086,-0.067082
251.5,7.40471,3.87756,-0.0682604
252,7.42009,3.88057,-0.0686217
252.5,7.43448,3.85682,-0.0702712
253,7.4491,3.84102,-0.0711383
253.5,7.46385,3.82701,-0.0723679
254,7.47877,3.81588,-0.0733008
254.5,7.49313,3.7967,-0.073832
255,7.50795,3.78116,-0.0747513
255.5,7.52235,3.76408,-0.0754319
256,7.53701,3.75215,-0.0768207
256.5,7.55174,3.73164,-0.0772208
257,7.56657,3.71321,-0.0786815
257.5,7.58097,3.69681,-0.0795033
258,7.5957,3.67532,-0.0811936
258.5,7.61054,3.66176,-0.0828143
259,7.62449,3.64085,-0.0831952
259.5,7.63929,3.61726,-0.0842943
260,7.65423,3.60181,-0.0853972
260.5,7.66897,3.57132,-0.0866181
261,7.6834,3.55128,-0.0882511
261.5,7.69756,3.52422,-0.0891837
262,7.71279,3.49984,-0.0905109
262.5,7.72756,3.47092,-0.0917768
263,7.74231,3.4434,-0.0934334
263.5,7.75668,3.41728,-0.0953415
264,7.77102,3.38441,-0.0963611
264.5,7.78575,3.35033,-0.0974957
265,7.8002,3.31502,-0.0993691
265.5,7.81491,3.28675,-0.100979
266,7.82955,3.27334,-0.10305
266.5,7.84431,3.26928,-0.104429
267,7.85926,3.30601,-0.106088
267.5,7.87407,3.38296,-0.107842
268,7.88936,3.50436,-0.110222
268.5,7.90438,3.64084,-0.111727
269,7.9197,3.77253,-0.114137
269.5,7.93465,3.9013,-0.116178
270,7.94977,4.01356,-0.118313
270.5,7.96486,4.11399,-0.121513
271,7.98,4.20116,-0.124157
271.5,7.9949,4.28924,-0.127324
272,8.00961,4.35993,-0.129442
272.5,8.02484,4.43494,-0.132909
273,8.03966,4.48058,-0.136302
273.5,8.05466,4.53692,-0.139815
274,8.06968,4.59455,-0.143277
274.5,8.08423,4.64104,-0.147371
275,8.09949,4.67811,-0.150836
275.5,8.11418,4.71666,-0.154433
276,8.12895,4.75841,-0.158977
276.5,8.14387,4.79773,-0.162366
277,8.1587,4.82173,-0.165469
277.5,8.17367,4.85506,-0.168786
278,8.1882,4.87262,-0.171962
278.5,8.20354,4.88803,-0.174381
279,8.2182,4.91839,-0.17849
279.5,8.23284,4.93413,-0.181484
280,8.24748,4.95836,-0.184953
280.5,8.26243,4.98798,-0.189208
281,8.27702,5.01164,-0.192918
281.5,8.29202,5.03455,-0.197204
282,8.30687,5.0613,-0.201644
282.5,8.32162,5.08279,-0.205393
283,8.33656,5.10572,-0.21028
283.5,8.35129,5.12635,-0.214161
284,8.36595,5.1464,-0.21837
284.5,8.38098,5.1632,-0.223917
285,8.39572,5.19007,-0.227705
285.5,8.41082,5.22064,-0.232465
286,8.42535,5.25024,-0.237117
286.5,8.44027,5.28061,-0.240696
287,8.45497,5.30695,-0.245592
287.5,8.46979,5.34224,-0.250116
288,8.48471,5.3626,-0.254771
288.5,8.49968,5.39449,-0.260488
289,8.5145,5.42442,-0.264649
289.5,8.52944,5.47035,-0.26993
290,8.54446,5.49518,-0.275553
290.5,8.55941,5.53027,-0.28085
291,8.57392,5.55824,-0.287863
291.5,8.5888,5.59719,-0.294128
292,8.6037,5.64276,-0.299732
292.5,8.61875,5.67559,-0.306422
293,8.63389,5.71848,-0.311585
293.5,8.64845,5.75587,-0.317576
294,8.6634,5.79736,-0.324908
294.5,8.67809,5.84216,-0.330936
295,8.69335,5.88486,-0.338895
295.5,8.7085,5.93423,-0.346493
296,8.72296,5.9875,-0.353322
296.5,8.73814,6.03808,-0.362211
297,8.7533,6.09159,-0.369159
297.5,8.76798,6.14649,-0.376985
298,8.78319,6.20578,-0.386863
298.5,8.79803,6.25343,-0.394756
299,8.81293,6.32242,-0.404833
299.5,8.82803,6.3823,-0.414472
300,8.84296,6.43659,-0.42186
300.5,8.85817,6.50263,-0.432571
301,8.87284,6.56867,-0.440927
301.5,8.88835,6.643,-0.451129
302,8.90311,6.70974,-0.462086
302.5,8.91826,6.77845,-0.471136
303,8.93309,6.86471,-0.482757
303.5,8.94801,6.93361,-0.493839
304,8.96349,7.01111,-0.504828
304.5,8.97845,7.08533,-0.518323
305,8.99326,7.16172,-0.528814
305.5,9.00787,7.2433,-0.541208
306,9.02317,7.33237,-0.556636
306.5,9.03863,7.4173,-0.568818
307,9.05373,7.49768,-0.583798
307.5,9.06892,7.58485,-0.597456
308,9.08405,7.68348,-0.610918
308.5,9.09867,7.76582,-0.627677
309,9.11406,7.85625,-0.641437
309.5,9.12906,7.94603,-0.658425
310,9.14421,8.03589,-0.677209
310.5,9.15952,8.1237,-0.692346
311,9.17451,8.20943,-0.711146
311.5,9.18936,8.29697,-0.727623
312,9.20477,8.38055,-0.744841
312.5,9.21976,8.46594,-0.765146
313,9.23492,8.54669,-0.781993
313.5,9.25009,8.63417,-0.802665
314,9.26497,8.70733,-0.824887
314.5,9.28033,8.79125,-0.843607
315,9.29503,8.85329,-0.866303
315.5,9.31006,8.91821,-0.88616
316,9.32512,8.98364,-0.907052
316.5,9.33994,9.04439,-0.932516
317,9.35508,9.09951,-0.951955
317.5,9.36922,9.13418,-0.972653
318,9.38501,9.18417,-0.999337
318.5,9.39979,9.22981,-1.02011
319,9.41461,9.25815,-1.0468
319.5,9.42953,9.29387,-1.07011
320,9.44484,9.32079,-1.09402
320.5,9.45949,9.33262,-1.12251
321,9.47455,9.34589,-1.14479
321.5,9.48933,9.35606,-1.17183
322,9.50427,9.36355,-1.20069
322.5,9.51891,9.35514,-1.22317
323,9.53341,9.34698,-1.2511
323.5,9.54839,9.33762,-1.27802
324,9.56314,9.32387,-1.30282
324.5,9.57799,9.28774,-1.33408
325,9.59255,9.26073,-1.35769
325.5,9.60751,9.21794,-1.38489
326,9.62213,9.18347,-1.41614
326.5,9.63671,9.13795,-1.43905
327,9.65176,9.09096,-1.46789
327.5,9.66649,9.04074,-1.49583
328,9.68107,8.97785,-1.51978
328.5,9.69559,8.92742,-1.54977
329,9.71052,8.85728,-1.57529
329.5,9.72514,8.78725,-1.60104
330,9.73971,8.71045,-1.63085
330.5,9.75437,8.62985,-1.65337
331,9.76864,8.54462,-1.67896
331.5,9.78337,8.45585,-1.70802
332,9.7981,8.36756,-1.73011
332.5,9.81271,8.27812,-1.75727
333,9.82717,8.19839,-1.78285
333.5,9.84163,8.11475,-1.80549
334,9.85583,8.023,-1.83242
334.5,9.87021,7.93255,-1.85444
335,9.88569,7.84216,-1.87874
335.5,9.9003,7.76137,-1.90588
336,9.91514,7.67476,-1.9258
336.5,9.92968,7.59378,-1.94833
337,9.94422,7.5075,-1.97247
337.5,9.95898,7.4237,-1.99204
338,9.97371,7.34755,-2.01604
338.5,9.98817,7.26814,-2.03645
339,10.0031,7.18744,-2.0555
339.5,10.0176,7.09487,-2.07908
340,10.0322,7.01019,-2.09717
340.5,10.0466,6.94008,-2.11593
341,10.0615,6.84173,-2.13834
341.5,10.0762,6.73488,-2.15425
342,10.0905,6.61853,-2.17286
342.5,10.1053,6.49809,-2.19276
343,10.1199,6.36492,-2.20816
343.5,10.1341,6.23978,-2.22622
344,10.149,6.11253,-2.24214
344.5,10.1631,5.98805,-2.25636
345,10.1776,5.84728,-2.27368
345.5,10.1923,5.71163,-2.28625
346,10.2067,5.58205,-2.30062
346.5,10.2213,5.44798,-2.31735
347,10.2357,5.3141,-2.32909
347.5,10.2502,5.18929,-2.34283
348,10.2646,5.05662,-2.35675
348.5,10.2791,4.9245,-2.36756
349,10.2937,4.78665,-2.38046
349.5,10.3078,4.6592,-2.39258
350,10.3226,4.53042,-2.4032
350.5,10.3371,4.39905,-2.41586
351,10.3516,4.28049,-2.42573
351.5,10.3659,4.15282,-2.43604
352,10.3806,4.0295,-2.44864
352.5,10.3948,3.91708,-2.45738
353,10.4098,3.78742,-2.4678
353.5,10.424,3.67592,-2.47804
354,10.4385,3.56592,-2.48576
354.5,10.4532,3.45108,-2.49526
355,10.4676,3.33702,-2.50347
355.5,10.4819,3.23825,-2.51073
356,10.4969,3.133,-2.52017
356.5,10.5114,3.03118,-2.52698
357,10.5263,2.91921,-2.53329
357.5,10.5407,2.8265,-2.5419
358,10.5551,2.73464,-2.54763
358.5,10.5702,2.63787,-2.55485
359,10.5847,2.54885,-2.56213
359.5,10.5995,2.45536,-2.56799
360,10.6142,2.3752,-2.57546
360.5,10.6287,2.29081,-2.58183
361,10.6433,2.20899,-2.58778
361.5,10.658,2.13456,-2.59492
362,10.6731,2.05493,-2.59999
362.5,10.6873,1.98281,-2.60513
363,10.702,1.9088,-2.60967
363.5,10.7162,1.83742,-2.61175
364,10.7317,1.76416,-2.61429
364.5,10.7465,1.70769,-2.61738
365,10.7612,1.64921,-2.62395
365.5,10.7761,1.58332,-2.63047
366,10.7911,1.51906,-2.63736
366.5,10.8059,1.45246,-2.64285
367,10.8204,1.40177,-2.6464
367.5,10.8353,1.35316,-2.65044
368,10.85,1.30352,-2.65377
368.5,10.8647,1.25313,-2.65698
369,10.8792,1.2022,-2.66074
369.5,10.8948,1.15974,-2.6633
370,10.9094,1.12039,-2.66685
370.5,10.9245,1.07854,-2.67006
371,10.9394,1.04353,-2.67323
371.5,10.9543,1.00497,-2.6767
372,10.9691,0.972391,-2.67926
372.5,10.984,0.942741,-2.68256
373,10.999,0.918142,-2.68483
373.5,11.0139,0.886724,-2.6874
374,11.0291,0.862504,-2.69027
374.5,11.0437,0.83085,-2.69191
375,11.0588,0.815297,-2.69485
375.5,11.0739,0.787485,-2.69737
376,11.0886,0.75782,-2.69953
376.5,11.104,0.741885,-2.702
377,11.1186,0.717325,-2.70373
377.5,11.1338,0.697292,-2.70636
378,11.1486,0.684516,-2.70828
378.5,11.1637,0.672077,-2.71069
379,11.1789,0.655492,-2.7132
379.5,11.1941,0.641538,-2.71454
380,11.2089,0.626876,-2.71665
380.5,11.2242,0.618812,-2.71721
381,11.2393,0.610628,-2.71869
381.5,11.254,0.598821,-2.72036
382,11.2693,0.593086,-2.7222
382.5,11.2842,0.593017,-2.7235
383,11.2995,0.583535,-2.72486
383.5,11.3146,0.572883,-2.72649
384,11.3295,0.566672,-2.72794
384.5,11.3448,0.569702,-2.72927
385,11.3597,0.559995,-2.73004
385.5,11.3747,0.559625,-2.73128
386,11.39,0.557819,-2.73259
386.5,11.4053,0.559146,-2.73383
387,11.4202,0.561673,-2.73502
387.5,11.4354,0.558252,-2.73669
388,11.4505,0.557664,-2.73823
388.5,11.4656,0.561829,-2.73965
389,11.4811,0.561595,-2.74129
389.5,11.4959,0.57027,-2.74348
390,11.5112,0.570231,-2.74602
390.5,11.5262,0.573353,-2.7474
391,11.5414,0.574804,-2.74863
391.5,11.5567,0.576767,-2.74945
392,11.5717,0.58059,-2.74992
392.5,11.587,0.588699,-2.75095
393,11.6022,0.592197,-2.75193
393.5,11.6173,0.595851,-2.75321
394,11.6325,0.59661,-2.75491
394.5,11.6476,0.599345,-2.75783
395,11.6622,0.602387,-2.75889
395.5,11.678,0.61201,-2.76019
396,11.6934,0.60992,-2.76116
396.5,11.7086,0.615789,-2.76149
397,11.7238,0.616837,-2.76281
397.5,11.7387,0.625574,-2.76361
398,11.7542,0.63485,-2.765
398.5,11.7694,0.635235,-2.76646
399,11.7846,0.639254,-2.76815
399.5,11.7998,0.646989,-2.76979
400,11.8153,0.643941,-2.77116
400.5,11.8304,0.649429,-2.77248
401,11.8454,0.651194,-2.77412
401.5,11.8606,0.653574,-2.77568
402,11.876,0.653562,-2.77657
402.5,11.8911,0.663781,-2.77802
403,11.9061,0.667216,-2.77919
403.5,11.9215,0.66764,-2.78051
404,11.937,0.668084,-2.78216
404.5,11.952,0.672305,-2.78383
405,11.9674,0.675011,-2.78504
405.5,11.9824,0.677205,-2.78661
406,11.9979,0.683792,-2.78831
406.5,12.0132,0.691313,-2.78997
407,12.0284,0.688296,-2.79095
407.5,12.0437,0.696539,-2.79148
408,12.0588,0.697538,-2.79317
408.5,12.0744,0.700136,-2.79498
409,12.0895,0.695843,-2.79655
409.5,12.1049,0.699099,-2.79793
410,12.1199,0.712451,-2.79955
410.5,12.1352,0.709301,-2.80181
411,12.1507,0.712888,-2.80364
411.5,12.1659,0.720712,-2.80631
412,12.1811,0.717116,-2.8082
412.5,12.1963,0.718076,-2.80981
413,12.2114,0.719519,-2.81193
413.5,12.2271,0.719363,-2.81405
414,12.2416,0.719388,-2.81542
414.5,12.2572,0.72233,-2.81785
415,12.2728,0.724621,-2.81982
415.5,12.2882,0.721554,-2.82183
416,12.3029,0.722281,-2.82388
416.5,12.3188,0.730142,-2.82584
417,12.3339,0.733215,-2.82874
417.5,12.3492,0.727676,-2.83081
418,12.3647,0.72687,-2.83312
418.5,12.3801,0.726988,-2.83591
419,12.3952,0.729282,-2.83747
419.5,12.4103,0.726963,-2.84
420,12.4258,0.725435,-2.84271
420.5,12.4411,0.722041,-2.84493
421,12.4566,0.718784,-2.84768
421.5,12.4716,0.716684,-2.84972
422,12.4872,0.714061,-2.85228
422.5,12.5025,0.716909,-2.85489
423,12.5177,0.717512,-2.85774
423.5,12.533,0.715221,-2.86054
424,12.5485,0.714282,-2.86249
424.5,12.5639,0.712338,-2.86514
425,12.579,0.706077,-2.8686
425.5,12.5944,0.705751,-2.87097
426,12.6096,0.702202,-2.87459
426.5,12.6252,0.699251,-2.87751
427,12.6406,0.696515,-2.87964
427.5,12.6558,0.696721,-2.88199
428,12.671,0.693264,-2.88444
428.5,12.6866,0.687788,-2.88811
429,12.7017,0.685131,-2.89094
429.5,12.7171,0.683125,-2.89343
430,12.7327,0.678542,-2.8973
430.5,12.7479,0.675826,-2.89976
431,12.7631,0.670635,-2.90339
431.5,12.7784,0.662789,-2.90759
432,12.794,0.663415,-2.91008
432.5,12.8094,0.655185,-2.91352
433,12.8248,0.656545,-2.91641
433.5,12.84,0.651963,-2.91911
434,12.8554,0.648582,-2.92277
434.5,12.8712,0.648323,-2.92603
435,12.8864,0.647447,-2.92996
435.5,12.9016,0.647081,-2.93329
436,12.9171,0.64132,-2.93655
436.5,12.9327,0.634086,-2.94078
437,12.9481,0.632491,-2.9434
437.5,12.9632,0.633544,-2.94739
438,12.9788,0.630451,-2.95178
438.5,12.9942,0.632469,-2.95564
439,13.0097,0.627801,-2.9605
439.5,13.025,0.628843,-2.96425
440,13.0406,0.631005,-2.96848
440.5,13.0561,0.632149,-2.97268
441,13.0711,0.625611,-2.97613
441.5,13.0869,0.619346,-2.98082
442,13.1021,0.616989,-2.98462
442.5,13.1172,0.62028,-2.98875
443,13.1327,0.614853,-2.99434
443.5,13.1487,0.613907,-2.99874
444,13.164,0.619199,-3.0039
444.5,13.1796,0.62349,-3.00806
445,13.1951,0.621913,-3.01184
445.5,13.2104,0.625718,-3.01658
446,13.2259,0.629302,-3.02033
446.5,13.2408,0.62683,-3.02472
447,13.257,0.638603,-3.03025
447.5,13.2724,0.64038,-3.0352
448,13.288,0.647233,-3.04104
448.5,13.3034,0.651381,-3.04517
449,13.3191,0.655171,-3.04998
449.5,13.3344,0.658255,-3.05486
450,13.3498,0.664406,-3.05914
450.5,13.3657,0.678048,-3.065
451,13.3806,0.677393,-3.06981
451.5,13.3965,0.68408,-3.07501
452,13.4119,0.689019,-3.08088
452.5,13.4279,0.703335,-3.08541
453,13.4429,0.711234,-3.09193
453.5,13.4588,0.721603,-3.09749
454,13.4742,0.725756,-3.10391
454.5,13.4897,0.734965,-3.11
455,13.5054,0.751511,-3.1144
455.5,13.5209,0.761229,-3.11966
456,13.5364,0.771454,-3.12345
456.5,13.5523,0.783274,-3.12781
457,13.5676,0.801669,-3.13342
457.5,13.5831,0.806468,-3.13766
458,13.5991,0.809784,-3.14375
458.5,13.6144,0.827416,-3.15009
459,13.6297,0.843757,-3.15482
459.5,13.6456,0.853791,-3.16107
460,13.6615,0.868673,-3.16582
460.5,13.6769,0.88336,-3.17035
461,13.6926,0.884983,-3.1766
461.5,13.7083,0.901774,-3.18133
462,13.7238,0.915411,-3.18766
462.5,13.7396,0.925324,-3.19323
463,13.7553,0.937247,-3.19836
463.5,13.7708,0.951952,-3.20423
464,13.7864,0.959993,-3.20858
464.5,13.8017,0.971195,-3.21441
465,13.8176,0.97657,-3.22033
465.5,13.833,0.983932,-3.22518
466,13.8486,0.986622,-3.23096
466.5,13.8642,0.994813,-3.23536
467,13.8801,1.00044,-3.24134
467.5,13.8956,1.00284,-3.24757
468,13.9111,1.01124,-3.25259
468.5,13.9269,1.02395,-3.25887
469,13.9424,1.03258,-3.26364
469.5,13.9581,1.03643,-3.26882
470,13.9737,1.03761,-3.2746
470.5,13.9893,1.04379,-3.27949
471,14.0052,1.04807,-3.28613
471.5,14.0206,1.04929,-3.2912
472,14.0364,1.05499,-3.29622
472.5,14.0521,1.0598,-3.30189
473,14.0675,1.06303,-3.30731
473.5,14.0832,1.06307,-3.31279
474,14.0989,1.06574,-3.31829
474.5,14.1145,1.06308,-3.3237
475,14.1302,1.07003,-3.33029
475.5,14.1455,1.069,-3.33503
476,14.1613,1.06755,-3.33941
476.5,14.1769,1.05723,-3.34471
477,14.1925,1.04141,-3.34939
477.5,14.2082,1.03586,-3.35568
478,14.2239,1.03021,-3.36038
478.5,14.2391,1.03257,-3.36536
479,14.2553,1.02736,-3.37149
479.5,14.2708,1.02933,-3.37617
480,14.2864,1.02827,-3.38191
480.5,14.3021,1.02013,-3.38633
481,14.3177,1.02566,-3.39075
481.5,14.3336,1.03167,-3.39589
482,14.3493,1.03318,-3.40007
482.5,14.3641,1.02665,-3.40544
483,14.38,1.0188,-3.41083
483.5,14.396,1.01694,-3.41646
484,14.412,1.01385,-3.42291
484.5,14.4275,1.00976,-3.42736
485,14.4433,1.00488,-3.43288
485.5,14.4589,1.00146,-3.43778
486,14.4747,1.00308,-3.44239
486.5,14.4903,0.990951,-3.44824
487,14.506,0.989115,-3.45245
487.5,14.5216,0.97862,-3.4574
488,14.5373,0.968681,-3.46198
488.5,14.553,0.968681,-3.46575
489,14.5687,0.966554,-3.47069
489.5,14.5842,0.964305,-3.47475
490,14.5999,0.953732,-3.47973
490.5,14.6153,0.936568,-3.48475
491,14.6307,0.926754,-3.48874
491.5,14.6465,0.918665,-3.49417
492,14.6626,0.921157,-3.49829
492.5,14.6784,0.903763,-3.50255
493,14.6943,0.901142,-3.50811
493.5,14.7097,0.892211,-3.51196
494,14.7254,0.879867,-3.51737
494.5,14.7412,0.867579,-3.52214
495,14.7569,0.850673,-3.52689
495.5,14.7725,0.841678,-3.53125
496,14.7884,0.824706,-3.53293
496.5,14.8041,0.81176,-3.53668
497,14.8197,0.801629,-3.5402
497.5,14.8354,0.795575,-3.54374
498,14.8511,0.780223,-3.54845
498.5,14.8665,0.765045,-3.55186
499,14.8823,0.74013,-3.55641
499.5,14.8981,0.73986,-3.56086
500,14.9135,0.735072,-3.56403
500.5,14.9289,0.7156,-3.56857
501,14.9444,0.702572,-3.57207
501.5,14.9607,0.699215,-3.57613
502,14.9767,0.693885,-3.57984
502.5,14.9922,0.672447,-3.58315
503,15.0082,0.664845,-3.58762
503.5,15.0236,0.661707,-3.59082
504,15.0394,0.649922,-3.59369
504.5,15.055,0.625478,-3.59709
505,15.0708,0.613306,-3.60103
505.5,15.086,0.618698,-3.60356
506,15.1024,0.614221,-3.60728
506.5,15.1181,0.606565,-3.61052
507,15.1337,0.593384,-3.61293
507.5,15.1496,0.580957,-3.6165
508,15.1651,0.572167,-3.61973
508.5,15.1811,0.56818,-3.62217
509,15.1965,0.55603,-3.62499
509.5,15.2124,0.54604,-3.62737
510,15.2282,0.529349,-3.62999
510.5,15.2439,0.517206,-3.63277
511,15.2595,0.500246,-3.63522
511.5,15.2752,0.489832,-3.63851
512,15.291,0.481539,-3.64105
512.5,15.3068,0.46929,-3.64366
513,15.3228,0.455407,-3.6473
513.5,15.3385,0.442466,-3.64949
514,15.3541,0.436317,-3.65189
514.5,15.3699,0.423001,-3.65399
515,15.3858,0.414335,-3.65567
515.5,15.4013,0.400832,-3.6571
516,15.4171,0.388372,-3.65864
516.5,15.4333,0.38477,-3.66038
517,15.4488,0.374072,-3.66227
517.5,15.4644,0.365386,-3.66441
518,15.48,0.358587,-3.6664
518.5,15.4958,0.35542,-3.66902
519,15.5118,0.34938,-3.67126
519.5,15.5277,0.345393,-3.67382
520,15.5433,0.335328,-3.67599
520.5,15.5593,0.321443,-3.67754
521,15.5751,0.323018,-3.67928
521.5,15.5908,0.32277,-3.68074
522,15.6066,0.315228,-3.68209
522.5,15.6225,0.311988,-3.68401
523,15.6381,0.303638,-3.68632
523.5,15.6542,0.295583,-3.68828
524,15.6699,0.292178,-3.68939
524.5,15.6855,0.293583,-3.68943
525,15.7017,0.281066,-3.68873
525.5,15.7174,0.277935,-3.68879
526,15.7333,0.274738,-3.69274
526.5,15.7489,0.26623,-3.69625
527,15.7649,0.2701,-3.7013
527.5,15.7805,0.249268,-3.70355
528,15.7963,0.241276,-3.70587
528.5,15.8125,0.236746,-3.7073
529,15.828,0.228992,-3.707
529.5,15.844,0.229461,-3.70737
530,15.8599,0.220318,-3.70736
530.5,15.8753,0.219626,-3.70731
531,15.8907,0.213512,-3.70807
531.5,15.9068,0.20384,-3.70918
532,15.9227,0.203172,-3.70973
532.5,15.9391,0.200735,-3.71056
533,15.9548,0.20043,-3.71143
533.5,15.9708,0.196568,-3.71196
534,15.9865,0.192028,-3.71313
534.5,16.0023,0.192485,-3.71343
535,16.0184,0.192429,-3.71442
535.5,16.0342,0.193845,-3.71502
536,16.0502,0.193188,-3.71571
536.5,16.0661,0.189564,-3.71647
537,16.0816,0.186425,-3.71741
537.5,16.0976,0.186087,-3.71811
538,16.1138,0.178725,-3.71915
538.5,16.1289,0.186483,-3.71964
539,16.1454,0.184676,-3.72085
539.5,16.1615,0.187894,-3.7217
540,16.1773,0.188257,-3.72291
540.5,16.1931,0.186954,-3.72452
541,16.2092,0.188111,-3.72539
541.5,16.2248,0.184323,-3.7264
542,16.2408,0.184856,-3.72676
542.5,16.2568,0.182934,-3.72666
543,16.2726,0.185886,-3.72639
543.5,16.2886,0.184517,-3.72629
544,16.3044,0.178072,-3.72752
544.5,16.3205,0.189011,-3.72858
545,16.3359,0.182809,-3.72899
545.5,16.3525,0.179448,-3.72898
546,16.3681,0.178195,-3.72897
546.5,16.384,0.178491,-3.7289
547,16.4003,0.18046,-3.72999
547.5,16.4159,0.181974,-3.7303
548,16.4317,0.179515,-3.73028
548.5,16.4478,0.182769,-3.73078
549,16.4632,0.184886,-3.73166
549.5,16.48,0.188538,-3.73162
550,16.4954,0.188778,-3.73162
550.5,16.5113,0.19069,-3.73162
551,16.5277,0.191309,-3.73162
551.5,16.5432,0.191476,-3.73227
552,16.5588,0.202121,-3.73296
552.5,16.5752,0.200701,-3.73295
553,16.5911,0.199301,-3.73294
553.5,16.6072,0.204269,-3.73308
554,16.6234,0.204813,-3.73435
554.5,16.6392,0.200769,-3.73424
555,16.6552,0.207311,-3.73513
555.5,16.6712,0.206766,-3.73555
556,16.6871,0.203647,-3.73557
556.5,16.7031,0.20559,-3.73621
557,16.7189,0.209016,-3.73691
557.5,16.7351,0.209514,-3.7369
558,16.7512,0.206151,-3.73689
558.5,16.767,0.213781,-3.7369
559,16.7832,0.213518,-3.73704
559.5,16.7989,0.211546,-3.73813
560,16.8152,0.21291,-3.73945
560.5,16.8308,0.212321,-3.74083
561,16.847,0.218466,-3.74191
561.5,16.8631,0.225233,-3.7425
562,16.8794,0.231017,-3.74259
562.5,16.8952,0.2323,-3.74106
563,16.9113,0.22796,-3.73938
563.5,16.9273,0.224851,-3.73953
564,16.9432,0.220258,-3.73823
564.5,16.959,0.227584,-3.73899
565,16.975,0.236309,-3.73943
565.5,16.991,0.238979,-3.73942
566,17.007,0.243775,-3.73942
566.5,17.0231,0.244868,-3.73942
567,17.0391,0.248964,-3.73942
567.5,17.0551,0.248895,-3.73948
568,17.0715,0.25001,-3.74081
568.5,17.0872,0.241224,-3.74072
569,17.1034,0.246895,-3.74074
569.5,17.1192,0.244824,-3.74074
570,17.1351,0.252779,-3.74074
570.5,17.1507,0.248914,-3.74074
571,17.1676,0.254294,-3.74075
571.5,17.1834,0.257056,-3.74089
572,17.1995,0.259165,-3.74204
572.5,17.2156,0.259409,-3.74205
573,17.2315,0.261946,-3.74206
573.5,17.2479,0.261735,-3.74206
574,17.264,0.262947,-3.74202
574.5,17.2797,0.262566,-3.74268
575,17.296,0.268664,-3.74341
575.5,17.3118,0.264404,-3.74337
576,17.3281,0.262588,-3.74337
576.5,17.3441,0.265511,-3.74337
577,17.36,0.265457,-3.74337
577.5,17.376,0.271616,-3.74338
578,17.3921,0.270999,-3.74342
578.5,17.4081,0.272568,-3.74254
579,17.4244,0.273535,-3.74241
579.5,17.4405,0.276155,-3.74238
580,17.4565,0.27607,-3.74238
580.5,17.4726,0.277525,-3.74238
581,17.4884,0.280888,-3.74259
581.5,17.5047,0.280341,-3.74494
582,17.5205,0.28079,-3.74615
582.5,17.5369,0.282976,-3.74905
583,17.5527,0.280203,-3.74916
583.5,17.5691,0.281562,-3.74914
584,17.5849,0.283643,-3.74814
584.5,17.6014,0.288079,-3.74664
585,17.6173,0.290521,-3.74632
585.5,17.6335,0.288917,-3.74572
586,17.6494,0.290111,-3.74645
586.5,17.6658,0.285254,-3.74645
587,17.6817,0.287894,-3.74644
587.5,17.6978,0.292826,-3.74644
588,17.714,0.293009,-3.74644
588.5,17.7301,0.288405,-3.74644
589,17.7463,0.285712,-3.74644
589.5,17.762,0.290211,-3.74644
590,17.7785,0.28941,-3.74644
590.5,17.7945,0.291017,-3.74644
591,17.8107,0.294379,-3.74644
591.5,17.8267,0.286115,-3.74644
592,17.843,0.291257,-3.74644
592.5,17.8592,0.295462,-3.74644
593,17.875,0.29171,-3.74644
593.5,17.8913,0.290026,-3.74644
594,17.9075,0.295438,-3.74644
594.5,17.923,0.29628,-3.74644
595,17.9395,0.294479,-3.74644
595.5,17.9557,0.292677,-3.74647
596,17.9718,0.292349,-3.74657
596.5,17.9882,0.29114,-3.74775
597,18.0041,0.289939,-3.74776
597.5,18.0202,0.290468,-3.74776
598,18.0361,0.289732,-3.74776
598.5,18.0523,0.288401,-3.74778
599,18.0685,0.290018,-3.74771
599.5,18.0848,0.289211,-3.74903
600,18.1008,0.28628,-3.74908
600.5,18.1169,0.281986,-3.74908
601,18.1331,0.277911,-3.74908
601.5,18.149,0.279885,-3.74908
602,18.1654,0.278222,-3.74817
602.5,18.1815,0.278191,-3.74778
603,18.1979,0.275996,-3.74776
603.5,18.214,0.269601,-3.74776
604,18.2302,0.273995,-3.74776
604.5,18.2463,0.275286,-3.74776
605,18.2624,0.275147,-3.74777
605.5,18.2785,0.275851,-3.74924
606,18.2941,0.274573,-3.74975
606.5,18.31,0.27561,-3.74974
607,18.3267,0.268699,-3.75097
607.5,18.3426,0.270823,-3.75116
608,18.3595,0.269206,-3.75117
608.5,18.3755,0.270127,-3.75117
609,18.3916,0.271089,-3.75117
609.5,18.4074,0.267691,-3.75112
610,18.424,0.267323,-3.75214
610.5,18.4402,0.272374,-3.75248
611,18.4561,0.269791,-3.75249
611.5,18.4725,0.264552,-3.75184
612,18.4886,0.265208,-3.75113
612.5,18.5047,0.260811,-3.75074
613,18.5208,0.259139,-3.74935
613.5,18.5373,0.25729,-3.74849
614,18.5534,0.255624,-3.74852
614.5,18.5696,0.256798,-3.74853
615,18.5847,0.254162,-3.74853
615.5,18.602,0.255378,-3.74853
616,18.618,0.248255,-3.74852
616.5,18.6342,0.24852,-3.74804
617,18.6503,0.251089,-3.74722
617.5,18.6667,0.248277,-3.74722
618,18.6828,0.241694,-3.74722
618.5,18.6984,0.246793,-3.74722
619,18.7151,0.243671,-3.7476
619.5,18.7311,0.24253,-3.74858
620,18.7475,0.240381,-3.7485
620.5,18.7635,0.239085,-3.74973
621,18.7802,0.237041,-3.7512
621.5,18.7959,0.234721,-3.75116
622,18.8126,0.236484,-3.75116
622.5,18.8286,0.234846,-3.75116
623,18.8447,0.227862,-3.75116
623.5,18.861,0.222895,-3.75116
624,18.877,0.227276,-3.75116
624.5,18.8932,0.221582,-3.75116
625,18.9095,0.222073,-3.75116
625.5,18.9257,0.221252,-3.75117
626,18.9418,0.2179,-3.75124
626.5,18.9581,0.214942,-3.75013
627,18.9743,0.213338,-3.75008
627.5,18.9902,0.208882,-3.75083
628,19.0065,0.204193,-3.75084
628.5,19.023,0.210745,-3.75091
629,19.039,0.210914,-3.75116
629.5,19.0552,0.21207,-3.75111
630,19.0714,0.21161,-3.75194
630.5,19.0878,0.196764,-3.75212
631,19.1039,0.192139,-3.75111
631.5,19.1204,0.194864,-3.75116
632,19.1364,0.194584,-3.75117
632.5,19.1521,0.19453,-3.75117
633,19.1683,0.192631,-3.75117
633.5,19.1846,0.196802,-3.75117
634,19.2005,0.190777,-3.75117
634.5,19.217,0.184888,-3.75117
635,19.2332,0.182081,-3.75106
635.5,19.2496,0.18359,-3.74975
636,19.2654,0.18198,-3.74985
636.5,19.2818,0.177113,-3.74986
637,19.2982,0.170698,-3.7499
637.5,19.3141,0.166495,-3.75023
638,19.3302,0.164569,-3.74951
638.5,19.3466,0.159883,-3.74841
639,19.3628,0.159146,-3.74652
639.5,19.379,0.157381,-3.7467
640,19.3955,0.15954,-3.7473
640.5,19.4118,0.150754,-3.7486
641,19.4278,0.149283,-3.75021
641.5,19.4443,0.144941,-3.75137
642,19.4604,0.14134,-3.7518
642.5,19.4764,0.13501,-3.75179
643,19.4928,0.134012,-3.75058
643.5,19.5091,0.137065,-3.75143
644,19.5254,0.133713,-3.75146
644.5,19.5413,0.130608,-3.75149
645,19.5578,0.129459,-3.75149
645.5,19.5739,0.127978,-3.75149
646,19.5903,0.131517,-3.75149
646.5,19.6064,0.124319,-3.75149
647,19.6227,0.11808,-3.75149
647.5,19.6388,0.117254,-3.75149
648,19.655,0.108045,-3.75149
648.5,19.6716,0.10536,-3.75149
649,19.6878,0.10951,-3.75149
649.5,19.7039,0.103433,-3.75149
650,19.7206,0.101363,-3.75149
650.5,19.7367,0.0975507,-3.75149
651,19.753,0.0944398,-3.75149
651.5,19.7695,0.0926398,-3.75149
652,19.7856,0.0868281,-3.75149
652.5,19.8018,0.0849574,-3.75149
653,19.8182,0.0853163,-3.75148
653.5,19.8345,0.0818041,-3.75175
654,19.8508,0.0784958,-3.75289
654.5,19.8668,0.0813292,-3.75292
655,19.8832,0.0779763,-3.75162
655.5,19.8997,0.0780454,-3.7515
656,19.9157,0.0716882,-3.7515
656.5,19.932,0.0672063,-3.7515
657,19.9484,0.0700541,-3.7515
657.5,19.9646,0.0727958,-3.7515
658,19.9807,0.0694308,-3.7515
658.5,19.9975,0.0699526,-3.7515
659,20.0132,0.0700304,-3.7515
659.5,20.0298,0.0695252,-3.75068
660,20.046,0.0690302,-3.75019
660.5,20.0624,0.0704986,-3.75018
661,20.0785,0.0741573,-3.75018
661.5,20.095,0.074322,-3.75018
662,20.1106,0.0710298,-3.75018
662.5,20.1278,0.096698,-3.75017
663,20.144,0.103488,-3.75024
663.5,20.1604,0.0993478,-3.74893
664,20.1768,0.104224,-3.7499
664.5,20.193,0.0998061,-3.75019
665,20.2095,0.0958924,-3.7492
665.5,20.2257,0.0967161,-3.74889
666,20.2415,0.0979853,-3.74897
666.5,20.2585,0.0963862,-3.75016
667,20.2745,0.10196,-3.7501
667.5,20.2909,0.110187,-3.75124
668,20.307,0.108117,-3.75165
668.5,20.3231,0.112461,-3.75189
669,20.3399,0.116118,-3.7526
669.5,20.3563,0.11444,-3.75261
670,20.3725,0.108432,-3.7526
670.5,20.3888,0.0960542,-3.7526
671,20.405,0.0819785,-3.75261
671.5,20.4214,0.0815876,-3.75263
672,20.4379,0.0878939,-3.75293
672.5,20.4543,0.0875098,-3.75292
673,20.4709,0.0867537,-3.75292
673.5,20.4866,0.091025,-3.75292
674,20.5035,0.0941815,-3.75292
674.5,20.52,0.101259,-3.75292
675,20.5363,0.0939156,-3.75292
675.5,20.552,0.100008,-3.75292
676,20.569,0.112287,-3.75292
676.5,20.5854,0.109259,-3.75291
677,20.6018,0.113454,-3.7529
677.5,20.6184,0.116785,-3.75349
678,20.6346,0.11278,-3.75356
678.5,20.6511,0.110069,-3.75348
679,20.6672,0.119814,-3.75462
679.5,20.6838,0.123007,-3.75455
680,20.7003,0.117641,-3.75456
680.5,20.716,0.110591,-3.75456
681,20.7323,0.10417,-3.75456
681.5,20.7492,0.10615,-3.75456
682,20.7655,0.111358,-3.75365
682.5,20.7822,0.110456,-3.75327
683,20.7985,0.102426,-3.75323
683.5,20.8151,0.101725,-3.7533
684,20.8314,0.104733,-3.75199
684.5,20.8476,0.11231,-3.75194
685,20.8642,0.109613,-3.75194
685.5,20.8807,0.112435,-3.75194
686,20.8972,0.11224,-3.75195
686.5,20.9135,0.104847,-3.7521
687,20.9298,0.10007,-3.75324
687.5,20.9461,0.0925196,-3.75324
688,20.9626,0.098613,-3.75325
688.5,20.979,0.0965259,-3.75325
689,20.9952,0.0934434,-3.75326
689.5,21.0114,0.0979816,-3.75352
690,21.0283,0.0880188,-3.75504
690.5,21.0449,0.0873211,-3.75654
691,21.061,0.0854913,-3.75663
691.5,21.0777,0.0869043,-3.75668
692,21.0941,0.0862638,-3.75529
692.5,21.1105,0.0878675,-3.75497
693,21.127,0.081995,-3.75401
693.5,21.1435,0.0851165,-3.75266
694,21.1592,0.0850636,-3.7525
694.5,21.1759,0.078695,-3.75248
695,21.1925,0.0697105,-3.75249
695.5,21.2091,0.0781632,-3.75196
696,21.2255,0.0790864,-3.75149
696.5,21.242,0.077276,-3.75149
697,21.2587,0.0760756,-3.75149
697.5,21.2751,0.0755466,-3.75149
698,21.2914,0.0755936,-3.75148
698.5,21.3079,0.0730472,-3.75197
699,21.3243,0.0664975,-3.75286
699.5,21.3411,0.0610858,-3.75284
700,21.3577,0.0649871,-3.75245
700.5,21.374,0.0670533,-3.75229
701,21.3906,0.0660898,-3.75115
701.5,21.4066,0.06087,-3.75117
702,21.4234,0.0661759,-3.75116
702.5,21.4397,0.0589694,-3.75116
703,21.4562,0.0566938,-3.75083
703.5,21.473,0.0585317,-3.74978
704,21.4892,0.061934,-3.74984
704.5,21.5055,0.0554452,-3.74984
705,21.5223,0.0537643,-3.75077
705.5,21.5388,0.0478134,-3.75256
706,21.5554,0.052613,-3.75278
706.5,21.5719,0.055135,-3.75384
707,21.5881,0.0634609,-3.75379
707.5,21.6048,0.0551362,-3.7538
708,21.6212,0.0519805,-3.7538
708.5,21.638,0.0572266,-3.7538
709,21.6543,0.0472121,-3.7538
709.5,21.6709,0.0458253,-3.75377
710,21.6874,0.0504847,-3.75369
710.5,21.704,0.0516597,-3.7525
711,21.7204,0.0474848,-3.75249
711.5,21.7369,0.042678,-3.75248
712,21.7534,0.0343993,-3.75298
712.5,21.7697,0.0415701,-3.75348
713,21.7863,0.0456619,-3.75347
713.5,21.8033,0.0393677,-3.75347
714,21.8195,0.0372485,-3.75347
714.5,21.8362,0.0368505,-3.75347
715,21.8526,0.0355802,-3.75345
715.5,21.869,0.0308942,-3.75357
716,21.8853,0.0233623,-3.75355
716.5,21.9018,0.0240692,-3.75348
717,21.9187,0.0239171,-3.75347
717.5,21.9348,0.0253064,-3.75347
718,21.951,0.0119614,-3.75357
718.5,21.9678,0.00801762,-3.75225
719,21.9846,0.00945752,-3.75317
719.5,22.0012,0.00570677,-3.75346
720,22.0176,0.0108979,-3.75347
720.5,22.0342,0.0108162,-3.75347
721,22.0507,0.0127612,-3.75345
721.5,22.0672,0.00774813,-3.75335
722,22.0838,0.00228283,-3.75216
722.5,22.1002,-0.00720645,-3.75215
723,22.1166,-0.00650459,-3.75213
723.5,22.1333,-0.00416309,-3.75296
724,22.15,-0.00570587,-3.75348
724.5,22.1663,-0.0130744,-3.75347
725,22.183,-0.0152049,-3.75347
725.5,22.1993,-0.018993,-3.75347
726,22.2157,-0.0199722,-3.75352
726.5,22.2321,-0.0225179,-3.75265
727,22.2492,-0.020271,-3.75222
727.5,22.2654,-0.0237199,-3.75113
728,22.2821,-0.0272065,-3.75118
728.5,22.2986,-0.0168593,-3.75116
729,22.315,-0.0179703,-3.75202
729.5,22.3319,-0.0199091,-3.75246
730,22.3479,-0.0153918,-3.75248
730.5,22.3646,-0.016576,-3.75248
731,22.381,-0.0189812,-3.75248
731.5,22.3976,-0.024342,-3.75248
732,22.4142,-0.0254167,-3.75248
732.5,22.4305,-0.0295975,-3.75251
733,22.4473,-0.0337223,-3.75212
733.5,22.464,-0.0354406,-3.75215
734,22.4805,-0.033141,-3.75215
734.5,22.4971,-0.0301133,-3.75217
735,22.5138,-0.0274959,-3.75231
735.5,22.5303,-0.0316192,-3.75307
736,22.5469,-0.0264703,-3.75214
736.5,22.5633,-0.0271189,-3.75215
737,22.5796,-0.0298418,-3.75215
737.5,22.5965,-0.0316165,-3.75316
738,22.6126,-0.02962,-3.75344
738.5,22.6296,-0.0348456,-3.75347
739,22.6462,-0.0365028,-3.75347
739.5,22.6627,-0.0397282,-3.75347
740,22.6794,-0.0408164,-3.75348