File: 01_Data/Rayon_Bamboo_Pillowcase/FTIR/IS/Rayon_Bamboo_Pillowcase_IS_T_220909_R8.dpt
7497.03,0.03396
7491.25,0.02757
7485.46,0.03228
7479.67,0.01279
7473.89,0.01930
7468.1,0.02511
7462.32,0.02734
7456.53,0.02153
7450.74,0.02525
7444.96,0.02140
7439.17,0.01951
7433.38,0.02515
7427.6,0.02612
7421.81,0.03006
7416.03,0.02932
7410.24,0.02122
7404.45,0.02650
7398.67,0.02105
7392.88,0.02558
7387.09,0.02810
7381.31,0.02654
7375.52,0.02980
7369.74,0.02025
7363.95,0.02559
7358.16,0.03414
7352.38,0.02345
7346.59,0.02249
7340.8,0.01850
7335.02,0.02593
7329.23,0.02049
7323.45,0.02470
7317.66,0.02049
7311.87,0.02714
7306.09,0.01868
7300.3,0.02615
7294.51,0.03129
7288.73,0.02553
7282.94,0.01777
7277.16,0.02815
7271.37,0.03011
7265.58,0.01686
7259.8,0.01230
7254.01,0.02678
7248.22,0.02376
7242.44,0.02603
7236.65,0.01865
7230.87,0.02978
7225.08,0.01417
7219.29,0.02437
7213.51,0.02687
7207.72,0.02447
7201.93,0.02295
7196.15,0.02299
7190.36,0.02208
7184.58,0.02658
7178.79,0.02879
7173,0.02422
7167.22,0.02528
7161.43,0.02316
7155.65,0.02202
7149.86,0.02590
7144.07,0.02353
7138.29,0.02600
7132.5,0.02410
7126.71,0.02372
7120.93,0.02775
7115.14,0.02014
7109.36,0.02019
7103.57,0.02447
7097.78,0.03126
7092,0.02540
7086.21,0.03133
7080.42,0.02507
7074.64,0.02555
7068.85,0.02311
7063.07,0.01778
7057.28,0.02330
7051.49,0.02438
7045.71,0.01863
7039.92,0.03063
7034.13,0.02818
7028.35,0.02497
7022.56,0.02866
7016.78,0.02092
7010.99,0.02379
7005.2,0.02004
6999.42,0.02696
6993.63,0.02699
6987.84,0.02212
6982.06,0.02370
6976.27,0.02416
6970.49,0.02273
6964.7,0.02010
6958.91,0.02218
6953.13,0.03066
6947.34,0.02513
6941.55,0.02003
6935.77,0.02644
6929.98,0.02096
6924.2,0.02205
6918.41,0.02121
6912.62,0.01988
6906.84,0.02354
6901.05,0.01877
6895.26,0.02162
6889.48,0.02400
6883.69,0.02513
6877.91,0.02768
6872.12,0.02471
6866.33,0.02841
6860.55,0.02333
6854.76,0.02377
6848.97,0.02452
6843.19,0.02601
6837.4,0.03028
6831.62,0.02005
6825.83,0.01926
6820.04,0.02561
6814.26,0.02404
6808.47,0.02108
6802.68,0.02209
6796.9,0.02926
6791.11,0.03016
6785.33,0.02011
6779.54,0.01914
6773.75,0.02315
6767.97,0.02402
6762.18,0.02525
6756.39,0.02123
6750.61,0.02524
6744.82,0.02726
6739.04,0.02048
6733.25,0.02038
6727.46,0.02530
6721.68,0.02191
6715.89,0.02436
6710.1,0.02328
6704.32,0.02298
6698.53,0.02267
6692.75,0.01686
6686.96,0.02315
6681.17,0.01871
6675.39,0.02126
6669.6,0.02387
6663.82,0.02321
6658.03,0.02090
6652.24,0.01786
6646.46,0.02212
6640.67,0.02254
6634.88,0.01825
6629.1,0.02276
6623.31,0.02340
6617.53,0.02415
6611.74,0.02263
6605.95,0.02399
6600.17,0.02405
6594.38,0.02011
6588.59,0.02053
6582.81,0.02444
6577.02,0.02039
6571.24,0.02002
6565.45,0.02033
6559.66,0.01886
6553.88,0.02245
6548.09,0.02424
6542.3,0.02053
6536.52,0.02049
6530.73,0.02437
6524.95,0.02386
6519.16,0.02213
6513.37,0.02640
6507.59,0.02312
6501.8,0.02411
6496.01,0.02426
6490.23,0.02180
6484.44,0.02445
6478.66,0.02238
6472.87,0.02114
6467.08,0.02259
6461.3,0.02298
6455.51,0.02302
6449.72,0.02544
6443.94,0.02340
6438.15,0.02465
6432.37,0.02206
6426.58,0.02422
6420.79,0.02292
6415.01,0.02082
6409.22,0.02055
6403.43,0.02101
6397.65,0.02225
6391.86,0.02556
6386.08,0.02471
6380.29,0.02303
6374.5,0.02598
6368.72,0.02313
6362.93,0.02175
6357.14,0.02271
6351.36,0.01884
6345.57,0.01978
6339.79,0.02211
6334,0.02331
6328.21,0.02530
6322.43,0.02625
6316.64,0.02170
6310.85,0.02327
6305.07,0.02002
6299.28,0.02426
6293.5,0.02195
6287.71,0.01989
6281.92,0.01907
6276.14,0.01924
6270.35,0.02025
6264.56,0.02232
6258.78,0.02459
6252.99,0.02097
6247.21,0.02069
6241.42,0.01960
6235.63,0.02076
6229.85,0.01865
6224.06,0.01975
6218.27,0.02437
6212.49,0.02193
6206.7,0.02670
6200.92,0.02448
6195.13,0.02515
6189.34,0.02044
6183.56,0.02213
6177.77,0.02088
6171.98,0.02148
6166.2,0.02247
6160.41,0.02068
6154.63,0.02163
6148.84,0.02196
6143.05,0.02229
6137.27,0.02215
6131.48,0.02284
6125.7,0.02117
6119.91,0.02169
6114.12,0.02383
6108.34,0.02074
6102.55,0.02184
6096.76,0.02138
6090.98,0.02230
6085.19,0.02088
6079.41,0.02238
6073.62,0.02103
6067.83,0.02205
6062.05,0.02223
6056.26,0.02376
6050.47,0.02137
6044.69,0.02192
6038.9,0.02070
6033.12,0.02255
6027.33,0.01968
6021.54,0.02061
6015.76,0.02117
6009.97,0.02235
6004.18,0.02306
5998.4,0.02088
5992.61,0.02062
5986.83,0.01962
5981.04,0.02135
5975.25,0.02389
5969.47,0.02257
5963.68,0.02368
5957.89,0.02313
5952.11,0.01904
5946.32,0.01999
5940.54,0.02395
5934.75,0.02142
5928.96,0.02250
5923.18,0.02171
5917.39,0.02209
5911.6,0.02403
5905.82,0.02247
5900.03,0.01919
5894.25,0.02047
5888.46,0.02098
5882.67,0.02028
5876.89,0.02335
5871.1,0.02172
5865.31,0.02009
5859.53,0.02175
5853.74,0.01994
5847.96,0.02105
5842.17,0.02018
5836.38,0.02111
5830.6,0.02067
5824.81,0.02149
5819.02,0.02159
5813.24,0.02296
5807.45,0.02350
5801.67,0.02037
5795.88,0.02389
5790.09,0.02208
5784.31,0.02218
5778.52,0.02108
5772.73,0.02200
5766.95,0.02134
5761.16,0.01939
5755.38,0.02157
5749.59,0.01977
5743.8,0.02198
5738.02,0.02079
5732.23,0.02187
5726.44,0.02228
5720.66,0.02386
5714.87,0.02236
5709.09,0.02223
5703.3,0.02261
5697.51,0.02147
5691.73,0.01937
5685.94,0.02128
5680.15,0.02083
5674.37,0.02080
5668.58,0.02081
5662.8,0.02451
5657.01,0.02262
5651.22,0.02221
5645.44,0.02303
5639.65,0.02288
5633.87,0.02274
5628.08,0.02161
5622.29,0.02336
5616.51,0.02171
5610.72,0.02141
5604.93,0.02128
5599.15,0.02321
5593.36,0.02210
5587.58,0.02292
5581.79,0.02251
5576,0.02065
5570.22,0.02355
5564.43,0.02274
5558.64,0.02143
5552.86,0.02287
5547.07,0.02322
5541.29,0.02303
5535.5,0.02112
5529.71,0.02017
5523.93,0.02252
5518.14,0.02226
5512.35,0.01988
5506.57,0.02079
5500.78,0.02243
5495,0.02322
5489.21,0.02233
5483.42,0.02271
5477.64,0.02067
5471.85,0.02144
5466.06,0.02438
5460.28,0.02298
5454.49,0.02201
5448.71,0.02112
5442.92,0.02175
5437.13,0.02173
5431.35,0.02111
5425.56,0.02182
5419.77,0.02283
5413.99,0.02162
5408.2,0.02030
5402.42,0.02317
5396.63,0.02194
5390.84,0.02198
5385.06,0.02288
5379.27,0.02218
5373.48,0.02239
5367.7,0.02153
5361.91,0.02371
5356.13,0.02193
5350.34,0.02173
5344.55,0.02248
5338.77,0.02324
5332.98,0.02177
5327.19,0.02311
5321.41,0.02335
5315.62,0.02297
5309.84,0.02219
5304.05,0.02156
5298.26,0.02346
5292.48,0.02239
5286.69,0.02206
5280.9,0.02105
5275.12,0.02220
5269.33,0.02263
5263.55,0.02217
5257.76,0.02385
5251.97,0.02213
5246.19,0.02212
5240.4,0.02150
5234.61,0.02177
5228.83,0.02190
5223.04,0.02290
5217.26,0.02215
5211.47,0.02125
5205.68,0.02236
5199.9,0.02249
5194.11,0.02212
5188.32,0.02244
5182.54,0.02360
5176.75,0.02177
5170.97,0.02180
5165.18,0.02292
5159.39,0.02337
5153.61,0.02219
5147.82,0.02252
5142.03,0.02167
5136.25,0.02276
5130.46,0.02125
5124.68,0.02190
5118.89,0.02326
5113.1,0.02247
5107.32,0.02243
5101.53,0.02137
5095.75,0.02178
5089.96,0.02323
5084.17,0.02289
5078.39,0.02198
5072.6,0.02193
5066.81,0.02169
5061.03,0.02296
5055.24,0.02130
5049.46,0.02228
5043.67,0.02204
5037.88,0.02195
5032.1,0.02245
5026.31,0.02073
5020.52,0.02186
5014.74,0.02122
5008.95,0.02269
5003.17,0.02274
4997.38,0.02182
4991.59,0.02269
4985.81,0.02279
4980.02,0.02230
4974.23,0.02261
4968.45,0.02327
4962.66,0.02268
4956.88,0.02167
4951.09,0.02146
4945.3,0.02231
4939.52,0.02180
4933.73,0.02180
4927.94,0.02297
4922.16,0.02273
4916.37,0.02200
4910.59,0.02191
4904.8,0.02286
4899.01,0.02230
4893.23,0.02239
4887.44,0.02192
4881.65,0.02139
4875.87,0.02204
4870.08,0.02284
4864.3,0.02183
4858.51,0.02147
4852.72,0.02146
4846.94,0.02230
4841.15,0.02261
4835.36,0.02250
4829.58,0.02171
4823.79,0.02233
4818.01,0.02291
4812.22,0.02270
4806.43,0.02270
4800.65,0.02214
4794.86,0.02212
4789.07,0.02123
4783.29,0.02288
4777.5,0.02210
4771.72,0.02268
4765.93,0.02216
4760.14,0.02176
4754.36,0.02239
4748.57,0.02269
4742.78,0.02193
4737,0.02194
4731.21,0.02274
4725.43,0.02193
4719.64,0.02145
4713.85,0.02049
4708.07,0.02210
4702.28,0.02310
4696.49,0.02274
4690.71,0.02327
4684.92,0.02210
4679.14,0.02176
4673.35,0.02222
4667.56,0.02196
4661.78,0.02239
4655.99,0.02284
4650.2,0.02315
4644.42,0.02293
4638.63,0.02225
4632.85,0.02178
4627.06,0.02264
4621.27,0.02175
4615.49,0.02236
4609.7,0.02228
4603.92,0.02286
4598.13,0.02199
4592.34,0.02160
4586.56,0.02128
4580.77,0.02264
4574.98,0.02164
4569.2,0.02297
4563.41,0.02218
4557.63,0.02162
4551.84,0.02309
4546.05,0.02280
4540.27,0.02176
4534.48,0.02318
4528.69,0.02391
4522.91,0.02306
4517.12,0.02187
4511.34,0.02166
4505.55,0.02247
4499.76,0.02194
4493.98,0.02229
4488.19,0.02180
4482.4,0.02291
4476.62,0.02168
4470.83,0.02168
4465.05,0.02186
4459.26,0.02224
4453.47,0.02225
4447.69,0.02220
4441.9,0.02186
4436.11,0.02242
4430.33,0.02218
4424.54,0.02245
4418.76,0.02291
4412.97,0.02229
4407.18,0.02238
4401.4,0.02233
4395.61,0.02265
4389.82,0.02232
4384.04,0.02234
4378.25,0.02217
4372.47,0.02223
4366.68,0.02304
4360.89,0.02203
4355.11,0.02228
4349.32,0.02284
4343.53,0.02171
4337.75,0.02241
4331.96,0.02232
4326.18,0.02281
4320.39,0.02166
4314.6,0.02273
4308.82,0.02275
4303.03,0.02240
4297.24,0.02296
4291.46,0.02247
4285.67,0.02267
4279.89,0.02290
4274.1,0.02238
4268.31,0.02286
4262.53,0.02258
4256.74,0.02270
4250.95,0.02213
4245.17,0.02237
4239.38,0.02259
4233.6,0.02227
4227.81,0.02205
4222.02,0.02271
4216.24,0.02253
4210.45,0.02313
4204.66,0.02220
4198.88,0.02318
4193.09,0.02272
4187.31,0.02276
4181.52,0.02278
4175.73,0.02275
4169.95,0.02181
4164.16,0.02285
4158.37,0.02242
4152.59,0.02241
4146.8,0.02274
4141.02,0.02220
4135.23,0.02279
4129.44,0.02176
4123.66,0.02262
4117.87,0.02215
4112.09,0.02235
4106.3,0.02230
4100.51,0.02216
4094.73,0.02271
4088.94,0.02250
4083.15,0.02205
4077.37,0.02297
4071.58,0.02228
4065.8,0.02208
4060.01,0.02258
4054.22,0.02240
4048.44,0.02272
4042.65,0.02262
4036.86,0.02223
4031.08,0.02284
4025.29,0.02291
4019.51,0.02303
4013.72,0.02260
4007.93,0.02263
4002.15,0.02325
3996.36,0.02271
3990.57,0.02214
3984.79,0.02271
3979,0.02316
3973.22,0.02293
3967.43,0.02209
3961.64,0.02255
3955.86,0.02322
3950.07,0.02242
3944.28,0.02246
3938.5,0.02308
3932.71,0.02301
3926.93,0.02287
3921.14,0.02248
3915.35,0.02259
3909.57,0.02259
3903.78,0.02280
3897.99,0.02246
3892.21,0.02243
3886.42,0.02244
3880.64,0.02264
3874.85,0.02239
3869.06,0.02258
3863.28,0.02340
3857.49,0.02323
3851.7,0.02245
3845.92,0.02308
3840.13,0.02314
3834.35,0.02244
3828.56,0.02208
3822.77,0.02210
3816.99,0.02302
3811.2,0.02290
3805.41,0.02296
3799.63,0.02330
3793.84,0.02265
3788.06,0.02241
3782.27,0.02265
3776.48,0.02285
3770.7,0.02226
3764.91,0.02236
3759.12,0.02350
3753.34,0.02312
3747.55,0.02266
3741.77,0.02205
3735.98,0.02304
3730.19,0.02248
3724.41,0.02269
3718.62,0.02283
3712.83,0.02240
3707.05,0.02242
3701.26,0.02184
3695.48,0.02294
3689.69,0.02293
3683.9,0.02223
3678.12,0.02323
3672.33,0.02279
3666.54,0.02190
3660.76,0.02197
3654.97,0.02241
3649.19,0.02308
3643.4,0.02248
3637.61,0.02267
3631.83,0.02313
3626.04,0.02133
3620.25,0.02146
3614.47,0.02164
3608.68,0.02240
3602.9,0.02262
3597.11,0.02205
3591.32,0.02198
3585.54,0.02118
3579.75,0.02180
3573.97,0.02191
3568.18,0.02204
3562.39,0.02137
3556.61,0.02199
3550.82,0.02124
3545.03,0.02059
3539.25,0.02125
3533.46,0.02180
3527.68,0.02095
3521.89,0.02081
3516.1,0.02075
3510.32,0.02102
3504.53,0.02107
3498.74,0.02087
3492.96,0.02172
3487.17,0.02088
3481.39,0.02031
3475.6,0.02077
3469.81,0.02055
3464.03,0.02103
3458.24,0.02052
3452.45,0.02046
3446.67,0.02123
3440.88,0.02134
3435.1,0.02068
3429.31,0.02124
3423.52,0.02129
3417.74,0.02088
3411.95,0.02079
3406.16,0.02067
3400.38,0.02038
3394.59,0.02091
3388.81,0.02068
3383.02,0.01978
3377.23,0.01995
3371.45,0.02067
3365.66,0.02047
3359.87,0.02096
3354.09,0.02090
3348.3,0.02102
3342.52,0.02074
3336.73,0.02061
3330.94,0.02019
3325.16,0.02033
3319.37,0.02001
3313.58,0.02044
3307.8,0.01995
3302.01,0.02123
3296.23,0.02079
3290.44,0.02106
3284.65,0.02032
3278.87,0.01935
3273.08,0.02099
3267.29,0.02030
3261.51,0.02064
3255.72,0.02028
3249.94,0.02035
3244.15,0.01997
3238.36,0.02049
3232.58,0.02030
3226.79,0.02128
3221,0.02113
3215.22,0.02056
3209.43,0.02111
3203.65,0.02091
3197.86,0.02066
3192.07,0.02093
3186.29,0.02140
3180.5,0.02150
3174.71,0.02140
3168.93,0.02119
3163.14,0.02159
3157.36,0.02074
3151.57,0.02113
3145.78,0.02069
3140,0.02068
3134.21,0.02031
3128.42,0.02064
3122.64,0.02081
3116.85,0.02104
3111.07,0.02065
3105.28,0.02107
3099.49,0.02091
3093.71,0.02049
3087.92,0.02056
3082.14,0.02084
3076.35,0.02048
3070.56,0.02045
3064.78,0.02022
3058.99,0.02067
3053.2,0.02039
3047.42,0.02085
3041.63,0.02087
3035.85,0.02076
3030.06,0.02052
3024.27,0.02083
3018.49,0.02067
3012.7,0.02057
3006.91,0.02057
3001.13,0.02040
2995.34,0.01994
2989.56,0.02003
2983.77,0.01967
2977.98,0.02015
2972.2,0.01967
2966.41,0.01982
2960.62,0.01921
2954.84,0.01955
2949.05,0.01995
2943.27,0.02003
2937.48,0.01994
2931.69,0.01954
2925.91,0.01998
2920.12,0.02063
2914.33,0.02062
2908.55,0.02052
2902.76,0.02066
2896.98,0.02052
2891.19,0.02036
2885.4,0.02054
2879.62,0.02082
2873.83,0.02023
2868.04,0.02070
2862.26,0.02044
2856.47,0.02093
2850.69,0.02080
2844.9,0.02116
2839.11,0.02132
2833.33,0.02149
2827.54,0.02144
2821.75,0.02117
2815.97,0.02138
2810.18,0.02135
2804.4,0.02110
2798.61,0.02138
2792.82,0.02147
2787.04,0.02147
2781.25,0.02097
2775.46,0.02163
2769.68,0.02141
2763.89,0.02143
2758.11,0.02113
2752.32,0.02092
2746.53,0.02148
2740.75,0.02168
2734.96,0.02121
2729.17,0.02133
2723.39,0.02149
2717.6,0.02165
2711.82,0.02151
2706.03,0.02173
2700.24,0.02141
2694.46,0.02097
2688.67,0.02079
2682.88,0.02168
2677.1,0.02121
2671.31,0.02084
2665.53,0.02138
2659.74,0.02202
2653.95,0.02122
2648.17,0.02112
2642.38,0.02146
2636.59,0.02096
2630.81,0.02148
2625.02,0.02143
2619.24,0.02076
2613.45,0.02108
2607.66,0.02109
2601.88,0.02131
2596.09,0.02152
2590.3,0.02151
2584.52,0.02157
2578.73,0.02134
2572.95,0.02176
2567.16,0.02166
2561.37,0.02143
2555.59,0.02170
2549.8,0.02129
2544.02,0.02143
2538.23,0.02160
2532.44,0.02159
2526.66,0.02110
2520.87,0.02148
2515.08,0.02177
2509.3,0.02113
2503.51,0.02128
2497.73,0.02122
2491.94,0.02166
2486.15,0.02165
2480.37,0.02146
2474.58,0.02111
2468.79,0.02129
2463.01,0.02137
2457.22,0.02128
2451.44,0.02153
2445.65,0.02126
2439.86,0.02124
2434.08,0.02140
2428.29,0.02137
2422.5,0.02131
2416.72,0.02104
2410.93,0.02120
2405.15,0.02094
2399.36,0.02126
2393.57,0.02148
2387.79,0.02134
2382,0.02163
2376.21,0.02126
2370.43,0.02135
2364.64,0.02182
2358.86,0.02122
2353.07,0.02109
2347.28,0.02129
2341.5,0.02198
2335.71,0.02128
2329.92,0.02083
2324.14,0.02143
2318.35,0.02146
2312.57,0.02139
2306.78,0.02121
2300.99,0.02128
2295.21,0.02131
2289.42,0.02128
2283.63,0.02133
2277.85,0.02153
2272.06,0.02135
2266.28,0.02132
2260.49,0.02130
2254.7,0.02127
2248.92,0.02100
2243.13,0.02116
2237.34,0.02166
2231.56,0.02118
2225.77,0.02117
2219.99,0.02162
2214.2,0.02123
2208.41,0.02121
2202.63,0.02136
2196.84,0.02115
2191.05,0.02110
2185.27,0.02122
2179.48,0.02051
2173.7,0.02100
2167.91,0.02116
2162.12,0.02111
2156.34,0.02122
2150.55,0.02101
2144.76,0.02088
2138.98,0.02085
2133.19,0.02109
2127.41,0.02063
2121.62,0.02096
2115.83,0.02123
2110.05,0.02082
2104.26,0.02135
2098.47,0.02089
2092.69,0.02108
2086.9,0.02074
2081.12,0.02060
2075.33,0.02077
2069.54,0.02109
2063.76,0.02092
2057.97,0.02087
2052.19,0.02096
2046.4,0.02128
2040.61,0.02096
2034.83,0.02100
2029.04,0.02069
2023.25,0.02062
2017.47,0.02097
2011.68,0.02110
2005.9,0.02115
2000.11,0.02103
1994.32,0.02118
1988.54,0.02140
1982.75,0.02127
1976.96,0.02073
1971.18,0.02071
1965.39,0.02065
1959.61,0.02073
1953.82,0.02115
1948.03,0.02093
1942.25,0.02071
1936.46,0.02083
1930.67,0.02071
1924.89,0.02073
1919.1,0.02049
1913.32,0.02085
1907.53,0.02073
1901.74,0.02066
1895.96,0.02069
1890.17,0.02017
1884.38,0.02035
1878.6,0.02055
1872.81,0.02056
1867.03,0.02028
1861.24,0.02070
1855.45,0.02048
1849.67,0.02068
1843.88,0.02060
1838.09,0.02057
1832.31,0.02048
1826.52,0.02003
1820.74,0.02035
1814.95,0.02006
1809.16,0.01986
1803.38,0.01986
1797.59,0.01967
1791.8,0.01956
1786.02,0.01955
1780.23,0.01909
1774.45,0.01906
1768.66,0.01880
1762.87,0.01839
1757.09,0.01772
1751.3,0.01749
1745.51,0.01815
1739.73,0.01889
1733.94,0.02005
1728.16,0.02039
1722.37,0.02123
1716.58,0.02109
1710.8,0.02088
1705.01,0.02050
1699.22,0.01999
1693.44,0.01967
1687.65,0.01956
1681.87,0.01902
1676.08,0.01889
1670.29,0.01883
1664.51,0.01889
1658.72,0.01846
1652.93,0.01879
1647.15,0.01925
1641.36,0.01863
1635.58,0.01871
1629.79,0.01878
1624,0.01907
1618.22,0.01958
1612.43,0.01866
1606.64,0.01863
1600.86,0.01893
1595.07,0.01896
1589.29,0.01910
1583.5,0.01823
1577.71,0.01884
1571.93,0.01882
1566.14,0.01828
1560.35,0.01868
1554.57,0.01850
1548.78,0.01840
1543,0.01863
1537.21,0.01839
1531.42,0.01886
1525.64,0.01866
1519.85,0.01877
1514.07,0.01881
1508.28,0.01940
1502.49,0.01879
1496.71,0.01859
1490.92,0.01913
1485.13,0.01897
1479.35,0.01881
1473.56,0.01855
1467.78,0.01831
1461.99,0.01900
1456.2,0.01880
1450.42,0.01865
1444.63,0.01862
1438.84,0.01903
1433.06,0.01870
1427.27,0.01902
1421.49,0.01927
1415.7,0.01870
1409.91,0.01855
1404.13,0.01870
1398.34,0.01843
1392.55,0.01823
1386.77,0.01814
1380.98,0.01822
1375.2,0.01869
1369.41,0.01807
1363.62,0.01838
1357.84,0.01836
1352.05,0.01836
1346.26,0.01828
1340.48,0.01854
1334.69,0.01780
1328.91,0.01761
1323.12,0.01744
1317.33,0.01738
1311.55,0.01688
1305.76,0.01720
1299.97,0.01761
1294.19,0.01822
1288.4,0.01836
1282.62,0.01884
1276.83,0.01958
1271.04,0.01959
1265.26,0.02006
1259.47,0.02034
1253.68,0.02040
1247.9,0.02069
1242.11,0.02022
1236.33,0.02017
1230.54,0.01975
1224.75,0.01943
1218.97,0.01977
1213.18,0.01897
1207.39,0.01900
1201.61,0.01879
1195.82,0.01877
1190.04,0.01874
1184.25,0.01849
1178.46,0.01790
1172.68,0.01806
1166.89,0.01858
1161.1,0.01848
1155.32,0.01797
1149.53,0.01783
1143.75,0.01787
1137.96,0.01827
1132.17,0.01821
1126.39,0.01810
1120.6,0.01877
1114.81,0.01915
1109.03,0.01902
1103.24,0.01879
1097.46,0.01833
1091.67,0.01805
1085.88,0.01819
1080.1,0.01844
1074.31,0.01937
1068.52,0.02003
1062.74,0.02016
1056.95,0.02010
1051.17,0.01968
1045.38,0.01953
1039.59,0.01984
1033.81,0.01924
1028.02,0.01982
1022.24,0.01885
1016.45,0.01880
1010.66,0.02009
1004.88,0.02029
999.09,0.02091
993.304,0.02074
987.518,0.02166
981.731,0.02121
975.945,0.02087
970.159,0.02057
964.373,0.02062
958.586,0.02013
952.8,0.01977
947.014,0.02036
941.228,0.02026
935.441,0.01988
929.655,0.01990
923.869,0.01911
918.083,0.01910
912.297,0.01903
906.51,0.01940
900.724,0.01879
894.938,0.01940
889.152,0.01935
883.365,0.01961
877.579,0.01985
871.793,0.01917
866.007,0.01894
860.22,0.01966
854.434,0.01905
848.648,0.01950
842.862,0.01925
837.075,0.01961
831.289,0.01888
825.503,0.01928
819.717,0.01906
813.931,0.01891
808.144,0.01964
802.358,0.01928
796.572,0.01981
790.786,0.01890
784.999,0.01838
779.213,0.01863
773.427,0.01813
767.641,0.01816
761.854,0.01874
756.068,0.01793
750.282,0.01828
744.496,0.01853
738.709,0.01855
732.923,0.01830
727.137,0.01884
721.351,0.01857
715.565,0.01817
709.778,0.01793
703.992,0.01789
698.206,0.01774
692.42,0.01892
686.633,0.01934
680.847,0.01731
675.061,0.01667
669.275,0.01624
663.488,0.01686
657.702,0.01721
651.916,0.01687
646.13,0.01683
640.343,0.01610
634.557,0.01686
628.771,0.01729
622.985,0.01627
617.198,0.01588
611.412,0.01606
605.626,0.01821
599.84,0.01667