File: 01_Data/NFPA_1981-2007_SCBA_Lens/STA/N2/30K_min/NFPA_1981-2007_SCBA_Lens_STA_N2_30KData_240104_R1.csv
Temp./C,Time/min,DSC/(mW/mg),Mass loss/mg
80.177,0.0,1.91108,0.0143878
80.677,0.02784,1.96325,0.0144607
81.177,0.0547889,2.01118,0.014054
81.677,0.080942,2.06504,0.0143122
82.177,0.107516,2.11028,0.0147746
82.677,0.132791,2.14748,0.0144159
83.177,0.158329,2.18681,0.014861
83.677,0.183255,2.22527,0.0156937
84.177,0.207783,2.27743,0.0156688
84.677,0.231771,2.31319,0.0151277
85.177,0.256319,2.35485,0.015746
85.677,0.279931,2.38384,0.0162624
86.177,0.303863,2.42396,0.0170229
86.677,0.326714,2.4643,0.0172495
87.177,0.349687,2.49892,0.0185723
87.677,0.371948,2.53698,0.0187641
88.177,0.394549,2.56823,0.0190723
88.677,0.416622,2.59307,0.019083
89.177,0.439082,2.62682,0.0190162
89.677,0.46098,2.66414,0.0192737
90.177,0.481383,2.69542,0.0199611
90.677,0.504279,2.72595,0.0201086
91.177,0.525664,2.74756,0.0196135
91.677,0.54672,2.77515,0.0187202
92.177,0.567352,2.81798,0.0187037
92.677,0.588129,2.83916,0.0187944
93.177,0.608921,2.85622,0.0189236
93.677,0.629692,2.90332,0.0188919
94.177,0.650074,2.92255,0.0191335
94.677,0.670816,2.94902,0.0194751
95.177,0.690451,2.97354,0.0193652
95.677,0.710334,3.00001,0.0188645
96.177,0.730375,3.02041,0.0202935
96.677,0.750325,3.05083,0.0204092
97.177,0.770348,3.07751,0.0203605
97.677,0.789909,3.09111,0.020562
98.177,0.809545,3.1179,0.0202743
98.677,0.829411,3.14332,0.0207043
99.177,0.848264,3.1663,0.0199035
99.677,0.867567,3.18775,0.0200579
100.177,0.886759,3.21157,0.018392
100.677,0.905809,3.23202,0.0171894
101.177,0.92524,3.2566,0.0179661
101.677,0.943848,3.27136,0.0177265
102.177,0.963224,3.28699,0.0184682
102.677,0.982059,3.30653,0.0187072
103.177,1.00026,3.33084,0.0183969
103.677,1.01957,3.3561,0.0178119
104.177,1.03831,3.37664,0.018577
104.677,1.05706,3.38989,0.0177761
105.177,1.07563,3.41043,0.0177124
105.677,1.09419,3.43587,0.0180949
106.177,1.11268,3.45391,0.01707
106.677,1.13125,3.4727,0.0181516
107.177,1.14936,3.49173,0.0168894
107.677,1.16775,3.51276,0.0173725
108.177,1.18546,3.52444,0.0182727
108.677,1.20361,3.54232,0.0172566
109.177,1.22225,3.56284,0.0184593
109.677,1.2408,3.58662,0.0185854
110.177,1.25887,3.61392,0.0197309
110.677,1.27663,3.62676,0.0188044
111.177,1.29486,3.6441,0.0196746
111.677,1.31284,3.64992,0.0194348
112.177,1.33104,3.66822,0.0196541
112.677,1.34902,3.68789,0.0197789
113.177,1.36656,3.70672,0.0206267
113.677,1.38329,3.72416,0.0196936
114.177,1.40133,3.74258,0.0196132
114.677,1.41896,3.75126,0.0183018
115.177,1.43771,3.7811,0.018391
115.677,1.45549,3.7859,0.0170688
116.177,1.47231,3.8035,0.0173606
116.677,1.49001,3.81602,0.0180648
117.177,1.50872,3.82387,0.0170029
117.677,1.52591,3.84205,0.0171227
118.177,1.54379,3.85636,0.0158167
118.677,1.56096,3.87252,0.0157014
119.177,1.57889,3.89002,0.015697
119.677,1.59625,3.90248,0.0155711
120.177,1.61367,3.92285,0.0146543
120.677,1.63012,3.93744,0.014717
121.177,1.64833,3.94143,0.0152951
121.677,1.66562,3.95848,0.0162684
122.177,1.68287,3.98021,0.0166589
122.677,1.70065,3.98342,0.0173072
123.177,1.71773,4.00032,0.0172829
123.677,1.73499,4.02511,0.0181511
124.177,1.75244,4.03126,0.0172251
124.677,1.76911,4.04545,0.01724
125.177,1.78669,4.0589,0.0172476
125.677,1.80356,4.06881,0.0166773
126.177,1.82096,4.09685,0.0161587
126.677,1.83805,4.10287,0.0172738
127.177,1.85522,4.10864,0.0172383
127.677,1.87201,4.1206,0.0173324
128.177,1.88895,4.13955,0.0184886
128.677,1.90599,4.15435,0.0171386
129.177,1.92307,4.16992,0.0182838
129.677,1.93987,4.1833,0.0185437
130.177,1.95696,4.19627,0.0186004
130.677,1.97405,4.20732,0.0198725
131.177,1.99052,4.22297,0.0192423
131.677,2.00753,4.23548,0.0192888
132.177,2.02396,4.25316,0.0199019
132.677,2.04064,4.262,0.019883
133.177,2.05796,4.28377,0.0198557
133.677,2.07485,4.29822,0.019698
134.177,2.09112,4.3097,0.018611
134.677,2.10818,4.32533,0.0200742
135.177,2.12473,4.33858,0.0199688
135.677,2.14155,4.35552,0.0199197
136.177,2.15815,4.36882,0.020747
136.677,2.17503,4.37996,0.0209676
137.177,2.19158,4.39246,0.0209957
137.677,2.20816,4.41172,0.0199024
138.177,2.22465,4.4286,0.0196602
138.677,2.24148,4.44166,0.0196486
139.177,2.2578,4.45187,0.0196493
139.677,2.27435,4.47222,0.0196588
140.177,2.29119,4.49528,0.0196399
140.677,2.30704,4.51502,0.0185416
141.177,2.32396,4.52936,0.0186726
141.677,2.34061,4.54941,0.0186639
142.177,2.35694,4.56889,0.0186401
142.677,2.37355,4.58711,0.0194261
143.177,2.3895,4.60948,0.0187041
143.677,2.40632,4.62841,0.0186712
144.177,2.42267,4.65486,0.0186694
144.677,2.43838,4.68609,0.0186545
145.177,2.45568,4.71666,0.0186152
145.677,2.4719,4.74891,0.0174897
146.177,2.48843,4.77782,0.0175275
146.677,2.50482,4.82796,0.0186522
147.177,2.52124,4.87513,0.018658
147.677,2.53753,4.92582,0.0186601
148.177,2.55368,4.97064,0.018659
148.677,2.57038,5.01833,0.0186363
149.177,2.58693,5.08396,0.0185575
149.677,2.60313,5.12564,0.0173609
150.177,2.61933,5.1653,0.0173421
150.677,2.63574,5.19389,0.01734
151.177,2.65179,5.22023,0.01734
151.677,2.66826,5.24403,0.01734
152.177,2.6843,5.25157,0.0173401
152.677,2.70077,5.26099,0.0173411
153.177,2.71662,5.26882,0.0173413
153.677,2.73257,5.26986,0.0183484
154.177,2.74877,5.27714,0.0186347
154.677,2.76478,5.28731,0.0186618
155.177,2.78135,5.29134,0.0186605
155.677,2.79725,5.29565,0.01866
156.177,2.8134,5.29014,0.01866
156.677,2.8291,5.29931,0.01866
157.177,2.84551,5.32061,0.01866
157.677,2.86137,5.32386,0.01866
158.177,2.87766,5.32527,0.01866
158.677,2.89361,5.34108,0.01866
159.177,2.90941,5.34244,0.01866
159.677,2.92497,5.34177,0.01866
160.177,2.94188,5.35689,0.0186597
160.677,2.95692,5.36877,0.0190549
161.177,2.97396,5.36821,0.0200307
161.677,2.98935,5.36604,0.0199881
162.177,3.00551,5.38538,0.0199797
162.677,3.02108,5.39342,0.01998
163.177,3.0373,5.39585,0.0199804
163.677,3.05305,5.39946,0.0199726
164.177,3.0692,5.40609,0.0199174
164.677,3.08491,5.41837,0.0208489
165.177,3.10095,5.42455,0.0206373
165.677,3.11705,5.41364,0.0196601
166.177,3.13267,5.4377,0.0196616
166.677,3.1488,5.44295,0.0196601
167.177,3.16471,5.45005,0.01966
167.677,3.18059,5.46585,0.0196601
168.177,3.19625,5.45746,0.01966
168.677,3.21228,5.46737,0.0196555
169.177,3.22811,5.48018,0.0196339
169.677,3.24422,5.4841,0.0187653
170.177,3.26003,5.49838,0.0186873
170.677,3.27554,5.5075,0.0186696
171.177,3.29131,5.51318,0.0186711
171.677,3.30727,5.5163,0.0186703
172.177,3.32317,5.52584,0.0185754
172.677,3.33892,5.52725,0.0197275
173.177,3.35472,5.54048,0.0195678
173.677,3.37031,5.53319,0.0208721
174.177,3.38612,5.54555,0.02097
174.677,3.40217,5.55855,0.0209177
175.177,3.41793,5.5657,0.0217704
175.677,3.43363,5.57547,0.0223047
176.177,3.44897,5.58311,0.0222673
176.677,3.46457,5.58336,0.0211295
177.177,3.48066,5.58077,0.0209979
177.677,3.49655,5.60164,0.0209987
178.177,3.51225,5.60856,0.0210418
178.677,3.52746,5.60855,0.0209669
179.177,3.54319,5.60634,0.0209765
179.677,3.55907,5.6119,0.0210089
180.177,3.57516,5.63226,0.0202438
180.677,3.59011,5.63736,0.0196417
181.177,3.60613,5.64244,0.0196505
181.677,3.62154,5.64695,0.0196502
182.177,3.63772,5.64845,0.01965
182.677,3.65301,5.65781,0.01965
183.177,3.66852,5.66545,0.01965
183.677,3.68411,5.67057,0.01965
184.177,3.69982,5.67582,0.01965
184.677,3.71562,5.68325,0.01965
185.177,3.73092,5.68281,0.01965
185.677,3.74638,5.69258,0.0196501
186.177,3.76179,5.69726,0.0196531
186.677,3.7774,5.70505,0.0196535
187.177,3.79289,5.71089,0.0193245
187.677,3.80887,5.7274,0.0182912
188.177,3.82412,5.72714,0.0183394
188.677,3.8395,5.73781,0.0183305
189.177,3.85517,5.74502,0.0183319
189.677,3.87048,5.75054,0.0183677
190.177,3.88622,5.75248,0.0195685
190.677,3.90136,5.75659,0.0191317
191.177,3.91719,5.75867,0.0183308
191.677,3.93259,5.7595,0.0188097
192.177,3.94856,5.76547,0.0196522
192.677,3.96366,5.77401,0.0196487
193.177,3.97907,5.77701,0.0196499
193.677,3.9946,5.78017,0.0196498
194.177,4.00967,5.78799,0.0196472
194.677,4.02505,5.80056,0.0196581
195.177,4.0405,5.80471,0.0198678
195.677,4.05595,5.80618,0.0209613
196.177,4.07138,5.81273,0.0209584
196.677,4.08734,5.82011,0.0209695
197.177,4.10256,5.82151,0.0209703
197.677,4.11779,5.82774,0.0209704
198.177,4.13324,5.84497,0.0209666
198.677,4.14881,5.83878,0.0209406
199.177,4.16365,5.84798,0.0214354
199.677,4.1791,5.85261,0.0219019
200.177,4.19443,5.85806,0.0209949
200.677,4.21031,5.86127,0.0209735
201.177,4.22502,5.86384,0.0209697
201.677,4.24022,5.8708,0.02097
202.177,4.25658,5.8784,0.0209699
202.677,4.27173,5.87999,0.0209675
203.177,4.28707,5.88791,0.0209754
203.677,4.30233,5.88715,0.0212383
204.177,4.3179,5.88821,0.0212826
204.677,4.33312,5.9058,0.0213034
205.177,4.34856,5.90309,0.0213093
205.677,4.36386,5.90157,0.0210753
206.177,4.37912,5.90962,0.0209778
206.677,4.39451,5.9095,0.0209685
207.177,4.40995,5.91599,0.0209698
207.677,4.42501,5.92756,0.02097
208.177,4.44081,5.93365,0.0209703
208.677,4.45619,5.93327,0.02097
209.177,4.47063,5.92814,0.0209564
209.677,4.48581,5.93703,0.0209821
210.177,4.50156,5.94694,0.0198958
210.677,4.51628,5.9462,0.0196505
211.177,4.53175,5.95138,0.0196468
211.677,4.54807,5.96325,0.0196498
212.177,4.56313,5.96573,0.01965
212.677,4.57875,5.9605,0.0196497
213.177,4.59385,5.96569,0.0196518
213.677,4.60904,5.97548,0.0196655
214.177,4.62467,5.97435,0.0195781
214.677,4.63971,5.98486,0.0207509
215.177,4.65527,5.98587,0.0206353
215.677,4.67036,5.9886,0.020638
216.177,4.68557,5.99727,0.0206401
216.677,4.70088,5.99972,0.02064
217.177,4.71604,6.00325,0.02064
217.677,4.73158,6.00633,0.02064
218.177,4.74658,6.0052,0.02064
218.677,4.76198,6.01975,0.02064
219.177,4.77723,6.01207,0.02064
219.677,4.79233,6.00844,0.02064
220.177,4.80798,6.01654,0.02064
220.677,4.8231,6.02591,0.02064
221.177,4.8385,6.02602,0.02064
221.677,4.85378,6.02338,0.02064
222.177,4.86908,6.02728,0.02064
222.677,4.88411,6.03303,0.0206403
223.177,4.89881,6.03498,0.0206412
223.677,4.91476,6.03411,0.0206247
224.177,4.92981,6.04734,0.0211543
224.677,4.94543,6.04388,0.0216543
225.177,4.96045,6.04514,0.0216419
225.677,4.97598,6.04661,0.0216248
226.177,4.99127,6.04849,0.0219925
226.677,5.00601,6.04794,0.0219597
227.177,5.02148,6.05733,0.0219594
227.677,5.03653,6.06067,0.02196
228.177,5.05185,6.06295,0.02196
228.677,5.06708,6.06201,0.02196
229.177,5.08224,6.06078,0.02196
229.677,5.09758,6.0674,0.02196
230.177,5.11262,6.07634,0.02196
230.677,5.1281,6.07225,0.0219601
231.177,5.14327,6.07337,0.0219583
231.677,5.15812,6.08501,0.0219533
232.177,5.17382,6.07681,0.0209323
232.677,5.188,6.08617,0.0206543
233.177,5.20368,6.08172,0.0206356
233.677,5.21883,6.08765,0.0206397
234.177,5.23482,6.09213,0.020639
234.677,5.24955,6.09304,0.0206305
235.177,5.26505,6.09708,0.020694
235.677,5.28013,6.10403,0.019923
236.177,5.29531,6.10632,0.0199987
236.677,5.31075,6.10868,0.0199912
237.177,5.32574,6.10759,0.01999
237.677,5.34086,6.11022,0.0199912
238.177,5.35622,6.10268,0.0199862
238.677,5.37147,6.11473,0.019883
239.177,5.38656,6.12056,0.0193438
239.677,5.40194,6.12249,0.019336
240.177,5.41691,6.12447,0.0193299
240.677,5.43202,6.12022,0.0193299
241.177,5.44727,6.11894,0.01933
241.677,5.4625,6.1152,0.01933
242.177,5.47778,6.1255,0.01933
242.677,5.49298,6.12683,0.01933
243.177,5.50789,6.13279,0.01933
243.677,5.52321,6.13244,0.0193298
244.177,5.53839,6.12592,0.0193292
244.677,5.55354,6.13509,0.0193408
245.177,5.56875,6.13099,0.0193895
245.677,5.58393,6.13065,0.018166
246.177,5.59894,6.13149,0.0166379
246.677,5.6142,6.14107,0.0166959
247.177,5.62925,6.13936,0.0166908
247.677,5.64445,6.14133,0.0166913
248.177,5.65986,6.14089,0.0167008
248.677,5.67496,6.14613,0.0166204
249.177,5.68958,6.14618,0.0180282
249.677,5.70521,6.14946,0.0192889
250.177,5.72063,6.15064,0.0192501
250.677,5.73564,6.15217,0.0202031
251.177,5.75098,6.14624,0.0206457
251.677,5.76586,6.1393,0.0206398
252.177,5.78085,6.14311,0.0206399
252.677,5.79613,6.14394,0.02064
253.177,5.8113,6.14073,0.02064
253.677,5.82631,6.14446,0.02064
254.177,5.84164,6.15057,0.0206401
254.677,5.85684,6.14217,0.0206402
255.177,5.87178,6.14652,0.0206357
255.677,5.88696,6.15286,0.021038
256.177,5.90232,6.15338,0.0220339
256.677,5.917,6.14985,0.0219556
257.177,5.93221,6.14757,0.0216323
257.677,5.94771,6.14651,0.0206113
258.177,5.96277,6.1499,0.0207031
258.677,5.97796,6.15431,0.0198361
259.177,5.99276,6.15246,0.0192972
259.677,6.00816,6.15791,0.0193274
260.177,6.02303,6.16241,0.0193306
260.677,6.03824,6.16739,0.0193301
261.177,6.05355,6.15555,0.01933
261.677,6.06873,6.15782,0.01933
262.177,6.08378,6.15837,0.0193299
262.677,6.09903,6.15773,0.0193289
263.177,6.11406,6.16049,0.0193362
263.677,6.12906,6.16145,0.0193947
264.177,6.14432,6.15554,0.0199438
264.677,6.15931,6.1579,0.0199826
265.177,6.17448,6.15851,0.0199475
265.677,6.18956,6.155,0.0209213
266.177,6.20478,6.15221,0.0213059
266.677,6.2196,6.1524,0.0212936
267.177,6.23512,6.16769,0.0212888
267.677,6.25003,6.17357,0.0212712
268.177,6.26501,6.17047,0.0215695
268.677,6.28033,6.15855,0.0219787
269.177,6.29541,6.1636,0.021949
269.677,6.31064,6.16322,0.0219512
270.177,6.3257,6.16085,0.021948
270.677,6.34087,6.16144,0.0218562
271.177,6.35631,6.15922,0.0229478
271.677,6.37137,6.15766,0.0232748
272.177,6.38628,6.15778,0.02327
272.677,6.40142,6.152,0.0232703
273.177,6.41658,6.16268,0.0232712
273.677,6.43159,6.15629,0.0232469
274.177,6.44705,6.152,0.0231818
274.677,6.46169,6.15329,0.0220174
275.177,6.47692,6.15323,0.0219613
275.677,6.4923,6.15888,0.0219665
276.177,6.50735,6.16373,0.0219933
276.677,6.52248,6.15596,0.0213042
277.177,6.53763,6.15691,0.0201723
277.677,6.55276,6.15378,0.0192493
278.177,6.56782,6.15685,0.019317
278.677,6.58294,6.15292,0.0191981
279.177,6.59831,6.15236,0.0179282
279.677,6.61302,6.15426,0.0180277
280.177,6.62833,6.1518,0.0180114
280.677,6.64346,6.1556,0.0180106
281.177,6.6589,6.15647,0.0180164
281.677,6.67388,6.15421,0.0179695
282.177,6.68828,6.15653,0.0188353
282.677,6.70418,6.15175,0.0193398
283.177,6.7192,6.14929,0.0193262
283.677,6.73391,6.15028,0.0193077
284.177,6.74909,6.15076,0.0191929
284.677,6.76477,6.14967,0.0180686
285.177,6.77979,6.14958,0.0180976
285.677,6.79496,6.15779,0.0193531
286.177,6.81059,6.15936,0.0193065
286.677,6.82483,6.15375,0.0193292
287.177,6.84067,6.15142,0.0193304
287.677,6.85565,6.14822,0.01933
288.177,6.8711,6.14312,0.0193301
288.677,6.88601,6.14295,0.01933
289.177,6.90158,6.13706,0.0193265
289.677,6.9164,6.13585,0.0193285
290.177,6.93155,6.13661,0.0196125
290.677,6.94679,6.13778,0.0206562
291.177,6.96188,6.13501,0.0206282
291.677,6.97721,6.13255,0.0206395
292.177,6.99205,6.13395,0.0206407
292.677,7.00747,6.13581,0.0206416
293.177,7.02264,6.13723,0.020615
293.677,7.03792,6.13513,0.0205194
294.177,7.05297,6.13414,0.0193582
294.677,7.06837,6.13447,0.0193316
295.177,7.08333,6.13225,0.0193297
295.677,7.09847,6.13135,0.01933
296.177,7.11376,6.1312,0.01933
296.677,7.12878,6.12567,0.0193302
297.177,7.14385,6.12354,0.0193299
297.677,7.15924,6.12579,0.0193172
298.177,7.17445,6.12601,0.0193075
298.677,7.18944,6.12902,0.0182162
299.177,7.20487,6.12999,0.0180293
299.677,7.22009,6.126,0.0183362
300.177,7.23463,6.12458,0.0193146
300.677,7.25007,6.1217,0.0193148
301.177,7.26568,6.11437,0.0192923
301.677,7.28057,6.10847,0.0184656
302.177,7.29582,6.10563,0.0183448
302.677,7.31113,6.10367,0.018328
303.177,7.32653,6.11348,0.0183298
303.677,7.34176,6.1046,0.0183295
304.177,7.35685,6.10501,0.0183235
304.677,7.37187,6.10855,0.0183505
305.177,7.3873,6.10557,0.0179667
305.677,7.40207,6.10633,0.0180064
306.177,7.41775,6.10356,0.0180193
306.677,7.43296,6.10191,0.0188179
307.177,7.44822,6.10067,0.0189771
307.677,7.46326,6.09469,0.0189926
308.177,7.47854,6.09386,0.0189903
308.677,7.49383,6.09271,0.01899
309.177,7.50907,6.08945,0.01899
309.677,7.52416,6.08985,0.0189899
310.177,7.53942,6.08484,0.018991
310.677,7.55456,6.08557,0.018995
311.177,7.56973,6.08571,0.0189373
311.677,7.58516,6.08013,0.0198201
312.177,7.60023,6.07283,0.020336
312.677,7.61549,6.0724,0.0203131
313.177,7.6305,6.07455,0.0203097
313.677,7.64594,6.07741,0.0203099
314.177,7.66117,6.06883,0.02031
314.677,7.67576,6.06609,0.02031
315.177,7.6917,6.06209,0.02031
315.677,7.70699,6.06252,0.02031
316.177,7.72204,6.06249,0.0203098
316.677,7.73721,6.06303,0.0203096
317.177,7.75254,6.06135,0.0203188
317.677,7.76784,6.05915,0.0203502
318.177,7.78276,6.05243,0.0206745
318.677,7.7986,6.05463,0.0207381
319.177,7.81353,6.04866,0.0218441
319.677,7.82883,6.04464,0.0219482
320.177,7.84405,6.04612,0.0219666
320.677,7.85933,6.04385,0.0219074
321.177,7.87405,6.04407,0.0228399
321.677,7.88916,6.04191,0.0232975
322.177,7.90526,6.0355,0.0232832
322.677,7.92029,6.03752,0.0232805
323.177,7.93574,6.03704,0.0232848
323.677,7.95065,6.03316,0.0232098
324.177,7.96607,6.02585,0.0215584
324.677,7.9814,6.02655,0.0209859
325.177,7.99661,6.02509,0.0209632
325.677,8.01203,6.02272,0.02097
326.177,8.02737,6.01857,0.0209716
326.677,8.04266,6.01855,0.0209431
327.177,8.05801,6.02333,0.0208404
327.677,8.07345,6.01762,0.0196729
328.177,8.08845,6.01325,0.0196517
328.677,8.10411,6.00879,0.0196498
329.177,8.11886,6.00245,0.0196493
329.677,8.13464,6.00637,0.0196449
330.177,8.14967,6.00486,0.0196745
330.677,8.16497,5.99801,0.0192856
331.177,8.18057,6.00007,0.0193224
331.677,8.19536,5.99747,0.0193191
332.177,8.21137,5.98997,0.019323
332.677,8.22607,5.98624,0.019406
333.177,8.24177,5.98447,0.0183403
333.677,8.25712,5.97721,0.0179938
334.177,8.27235,5.97516,0.0179998
334.677,8.28756,5.97536,0.0180001
335.177,8.3029,5.97257,0.0179999
335.677,8.31817,5.96902,0.018001
336.177,8.3336,5.96636,0.0180064
336.677,8.34908,5.96272,0.0179478
337.177,8.3643,5.96031,0.0188964
337.677,8.37961,5.95543,0.0193378
338.177,8.39483,5.95333,0.0193237
338.677,8.41026,5.95138,0.0193194
339.177,8.42569,5.95405,0.0193205
339.677,8.44122,5.9539,0.0193453
340.177,8.45616,5.95039,0.0193151
340.677,8.47173,5.94045,0.0205808
341.177,8.4864,5.93767,0.0197148
341.677,8.50235,5.93703,0.0193337
342.177,8.51777,5.92679,0.0193077
342.677,8.53317,5.92322,0.0195234
343.177,8.54826,5.92274,0.0200014
343.677,8.56372,5.91995,0.0199767
344.177,8.57891,5.91874,0.0199796
344.677,8.59432,5.91816,0.01998
345.177,8.60967,5.912,0.0199793
345.677,8.62537,5.91167,0.0199816
346.177,8.64065,5.90972,0.0200271
346.677,8.65591,5.90578,0.019346
347.177,8.6715,5.89732,0.0186117
347.677,8.68671,5.89998,0.0186587
348.177,8.70204,5.89073,0.0186602
348.677,8.71769,5.88778,0.0186731
349.177,8.73308,5.88607,0.0187289
349.677,8.74817,5.88175,0.0198545
350.177,8.76367,5.87968,0.0199663
350.677,8.7792,5.87655,0.0199819
351.177,8.79436,5.8735,0.0199795
351.677,8.80999,5.86165,0.0199696
352.177,8.82485,5.86534,0.0200145
352.677,8.84018,5.85832,0.019001
353.177,8.85546,5.85648,0.0186535
353.677,8.8712,5.85157,0.0186565
354.177,8.88669,5.84976,0.0186599
354.677,8.90235,5.84354,0.0186601
355.177,8.91763,5.83697,0.01866
355.677,8.93295,5.83638,0.01866
356.177,8.94837,5.83273,0.01866
356.677,8.96389,5.82202,0.0186599
357.177,8.97904,5.8195,0.0186591
357.677,8.99462,5.81735,0.0186644
358.177,9.0101,5.81344,0.0179407
358.677,9.02557,5.80437,0.017339
359.177,9.04074,5.80215,0.017343
359.677,9.05555,5.79139,0.0173537
360.177,9.07141,5.79093,0.0173498
360.677,9.0873,5.78351,0.0173937
361.177,9.10271,5.7804,0.0173633
361.677,9.11818,5.7771,0.0173519
362.177,9.13342,5.77399,0.0173324
362.677,9.14903,5.76292,0.0173716
363.177,9.16446,5.76155,0.016388
363.677,9.1799,5.75944,0.0160233
364.177,9.19526,5.76345,0.0159365
364.677,9.21075,5.75713,0.0170348
365.177,9.22647,5.74601,0.0174644
365.677,9.24149,5.74192,0.0174507
366.177,9.25706,5.73798,0.0174498
366.677,9.27259,5.73329,0.01745
367.177,9.28776,5.72165,0.01745
367.677,9.30362,5.72002,0.01745
368.177,9.31884,5.72049,0.01745
368.677,9.33462,5.71207,0.01745
369.177,9.35002,5.70475,0.01745
369.677,9.36554,5.69907,0.01745
370.177,9.38065,5.69757,0.01745
370.677,9.39676,5.69398,0.0174509
371.177,9.41193,5.69202,0.017455
371.677,9.4273,5.68629,0.0184889
372.177,9.44302,5.67758,0.0177083
372.677,9.4584,5.67493,0.0174844
373.177,9.47382,5.67469,0.0174591
373.677,9.48887,5.66571,0.0174639
374.177,9.50485,5.66316,0.017343
374.677,9.52047,5.65778,0.0194614
375.177,9.53604,5.65284,0.0200992
375.677,9.55113,5.64867,0.0200956
376.177,9.56666,5.63861,0.0200936
376.677,9.58221,5.63508,0.020006
377.177,9.59771,5.6376,0.0211191
377.677,9.61325,5.63178,0.0226161
378.177,9.62896,5.62688,0.0227214
378.677,9.64458,5.6232,0.0227204
379.177,9.65981,5.61303,0.0227199
379.677,9.67483,5.60717,0.0227201
380.177,9.69109,5.6042,0.022725
380.677,9.70628,5.60262,0.0223903
381.177,9.72214,5.58731,0.0207815
381.677,9.73759,5.57793,0.0200497
382.177,9.7532,5.57741,0.0200871
382.677,9.76852,5.57249,0.0195503
383.177,9.78405,5.56497,0.0188213
383.677,9.79965,5.55849,0.0176218
384.177,9.81553,5.55735,0.0162993
384.677,9.83081,5.55034,0.0162421
385.177,9.84603,5.54735,0.0155827
385.677,9.86192,5.54452,0.0145094
386.177,9.8772,5.53703,0.0145968
386.677,9.89282,5.53321,0.0145997
387.177,9.90849,5.52035,0.0145888
387.677,9.92432,5.51841,0.0146679
388.177,9.93976,5.51354,0.0133908
388.677,9.95512,5.50751,0.0127188
389.177,9.97046,5.50102,0.012635
389.677,9.98648,5.49776,0.0126288
390.177,10.0019,5.49034,0.0126563
390.677,10.0175,5.49689,0.0127179
391.177,10.0326,5.48981,0.0139151
391.677,10.0481,5.48393,0.0139393
392.177,10.0641,5.48136,0.0139402
392.677,10.0797,5.48447,0.0139403
393.177,10.0952,5.48055,0.0139328
393.677,10.1108,5.48239,0.0139
394.177,10.1266,5.48073,0.0147042
394.677,10.1422,5.48203,0.0152681
395.177,10.1576,5.48372,0.0152608
395.677,10.1734,5.4789,0.0152448
396.177,10.1888,5.47912,0.0151293
396.677,10.2045,5.47444,0.0143026
397.177,10.2199,5.46734,0.0142846
397.677,10.236,5.46741,0.0142799
398.177,10.2513,5.46958,0.0142799
398.677,10.2669,5.47063,0.01428
399.177,10.2827,5.46794,0.0142803
399.677,10.2983,5.46257,0.01428
400.177,10.3139,5.46502,0.0142059
400.677,10.3295,5.46749,0.012906
401.177,10.345,5.45889,0.0129782
401.677,10.3608,5.45787,0.0129615
402.177,10.3763,5.45266,0.012961
402.677,10.3918,5.44943,0.0129924
403.177,10.4076,5.44909,0.0142546
403.677,10.4233,5.447,0.0142808
404.177,10.4387,5.43716,0.0143234
404.677,10.4545,5.42537,0.0155671
405.177,10.4701,5.42918,0.0156254
405.677,10.486,5.42948,0.0152752
406.177,10.5012,5.4284,0.0153762
406.677,10.517,5.42079,0.0142207
407.177,10.5325,5.41583,0.0139435
407.677,10.5483,5.4115,0.0139362
408.177,10.564,5.40529,0.012808
408.677,10.5788,5.39954,0.0126441
409.177,10.5953,5.39214,0.0126585
409.677,10.6108,5.38327,0.0116647
410.177,10.6264,5.37432,0.0104388
410.677,10.6423,5.36602,0.00997812
411.177,10.6582,5.3574,0.00998886
411.677,10.6733,5.35513,0.00999867
412.177,10.6893,5.33998,0.00935927
412.677,10.7052,5.3384,0.00866079
413.177,10.7207,5.33148,0.00867316
413.677,10.7362,5.3275,0.00868004
414.177,10.7518,5.3114,0.00868713
414.677,10.7676,5.30966,0.00870434
415.177,10.783,5.29831,0.00801236
415.677,10.7989,5.29169,0.00735304
416.177,10.8146,5.28871,0.00736178
416.677,10.8303,5.27745,0.00737809
417.177,10.8459,5.27239,0.00859722
417.677,10.8618,5.2618,0.0086514
418.177,10.8773,5.25101,0.00867959
418.677,10.893,5.24666,0.0086804
419.177,10.9088,5.23914,0.00868001
419.677,10.9243,5.23169,0.00868009
420.177,10.9398,5.22361,0.0086812
420.677,10.9555,5.21705,0.00841006
421.177,10.9716,5.21147,0.00715544
421.677,10.9871,5.19731,0.00725464
422.177,11.0028,5.19093,0.00687129
422.677,11.0185,5.18814,0.00588731
423.177,11.0343,5.17659,0.00592432
423.677,11.0501,5.16981,0.00575001
424.177,11.0657,5.15868,0.00463707
424.677,11.0814,5.15209,0.00460717
425.177,11.097,5.13234,0.00457025
425.677,11.1126,5.12532,0.00332838
426.177,11.1285,5.1211,0.00330509
426.677,11.1443,5.111,0.00327379
427.177,11.1597,5.10184,0.00293531
427.677,11.1758,5.0907,0.00281403
428.177,11.1914,5.08041,0.00313804
428.677,11.2071,5.06396,0.00159849
429.177,11.2228,5.06034,0.00165763
429.677,11.2386,5.05344,0.00155061
430.177,11.2541,5.04342,0.000417453
430.677,11.2697,5.03506,0.000353729
431.177,11.2858,5.01965,-9.61391e-07
431.677,11.3016,5.00743,-0.00155705
432.177,11.3171,5.00369,-0.0024206
432.677,11.3329,4.99708,-0.00251905
433.177,11.3488,4.98803,-0.00367869
433.677,11.3644,4.97721,-0.00245426
434.177,11.3802,4.95634,-0.00325169
434.677,11.3958,4.94302,-0.00395941
435.177,11.4117,4.9367,-0.00491378
435.677,11.4269,4.92485,-0.00537164
436.177,11.4433,4.91352,-0.00663532
436.677,11.4587,4.90298,-0.00700537
437.177,11.4746,4.89196,-0.00857231
437.677,11.4903,4.87221,-0.00957722
438.177,11.5064,4.86187,-0.0103645
438.677,11.5219,4.8504,-0.0132678
439.177,11.5376,4.84009,-0.0139869
439.677,11.5534,4.82781,-0.0153624
440.177,11.5691,4.8222,-0.0155121
440.677,11.5849,4.80511,-0.0167732
441.177,11.6004,4.79922,-0.0176754
441.677,11.6161,4.78827,-0.0178853
442.177,11.6323,4.77889,-0.0187735
442.677,11.6473,4.76469,-0.0194065
443.177,11.6633,4.74446,-0.0204835
443.677,11.6786,4.72991,-0.0219281
444.177,11.6945,4.71311,-0.0224221
444.677,11.7108,4.68924,-0.0236781
445.177,11.7269,4.67944,-0.0255223
445.677,11.7424,4.65838,-0.0268602
446.177,11.7582,4.65014,-0.0280426
446.677,11.7738,4.62973,-0.0295961
447.177,11.7899,4.6132,-0.031574
447.677,11.8054,4.59567,-0.033287
448.177,11.8214,4.57985,-0.0348378
448.677,11.8372,4.56102,-0.0367531
449.177,11.8528,4.54142,-0.039171
449.677,11.8681,4.53223,-0.0408962
450.177,11.8843,4.50737,-0.0423272
450.677,11.9002,4.49679,-0.0440412
451.177,11.9159,4.48299,-0.0457603
451.677,11.9315,4.46671,-0.0469772
452.177,11.9474,4.45453,-0.0477404
452.677,11.9631,4.44102,-0.0493164
453.177,11.9792,4.42824,-0.0510422
453.677,11.9948,4.40667,-0.0528351
454.177,12.0109,4.38995,-0.0547486
454.677,12.0265,4.3783,-0.057061
455.177,12.0425,4.35212,-0.0587794
455.677,12.0584,4.33639,-0.060904
456.177,12.0737,4.32133,-0.0626825
456.677,12.0896,4.31129,-0.0648904
457.177,12.1053,4.29077,-0.0667653
457.677,12.1212,4.26542,-0.0695013
458.177,12.1372,4.25094,-0.0718789
458.677,12.1526,4.23392,-0.0747249
459.177,12.1688,4.21538,-0.0775364
459.677,12.1843,4.19571,-0.080001
460.177,12.2002,4.17901,-0.0834397
460.677,12.2159,4.16047,-0.0858766
461.177,12.2317,4.1672,-0.0889071
461.677,12.2478,4.16283,-0.0928423
462.177,12.2631,4.1458,-0.0948793
462.677,12.2796,4.11388,-0.0973818
463.177,12.2953,4.09749,-0.0999818
463.677,12.3112,4.08561,-0.101575
464.177,12.327,4.06613,-0.104313
464.677,12.3428,4.04708,-0.106165
465.177,12.3585,4.04402,-0.108923
465.677,12.3747,4.02736,-0.112991
466.177,12.3901,4.00552,-0.115346
466.677,12.406,3.99288,-0.119826
467.177,12.4222,3.98578,-0.124438
467.677,12.4379,3.97092,-0.127561
468.177,12.4537,3.9357,-0.131166
468.677,12.4696,3.92492,-0.134528
469.177,12.4855,3.90429,-0.138577
469.677,12.5015,3.89865,-0.143436
470.177,12.5169,3.88151,-0.147279
470.677,12.5329,3.86757,-0.152248
471.177,12.549,3.86222,-0.156777
471.677,12.5647,3.85431,-0.162205
472.177,12.5809,3.86116,-0.168469
472.677,12.5965,3.86616,-0.173266
473.177,12.6127,3.85993,-0.17957
473.677,12.6287,3.87135,-0.185486
474.177,12.6444,3.89232,-0.190919
474.677,12.6602,3.90141,-0.19824
475.177,12.6764,3.90897,-0.204851
475.677,12.692,3.89937,-0.212899
476.177,12.7079,3.88817,-0.219281
476.677,12.7241,3.87924,-0.226124
477.177,12.7406,3.88603,-0.234069
477.677,12.7563,3.89275,-0.240444
478.177,12.7723,3.92552,-0.248826
478.677,12.7883,3.93118,-0.255913
479.177,12.8046,3.96784,-0.26411
479.677,12.8203,3.98981,-0.273994
480.177,12.8364,3.98785,-0.282464
480.677,12.8525,4.0017,-0.29323
481.177,12.8682,4.02531,-0.301838
481.677,12.8844,4.0553,-0.311569
482.177,12.9006,4.09402,-0.323064
482.677,12.9163,4.10312,-0.332607
483.177,12.9328,4.14322,-0.346127
483.677,12.9488,4.18042,-0.356517
484.177,12.9648,4.20931,-0.36843
484.677,12.9809,4.2221,-0.381868
485.177,12.997,4.26194,-0.39342
485.677,13.0134,4.29521,-0.409075
486.177,13.0294,4.31955,-0.421772
486.677,13.0453,4.36695,-0.436168
487.177,13.0617,4.40318,-0.452675
487.677,13.0777,4.42682,-0.466541
488.177,13.0935,4.44753,-0.484391
488.677,13.11,4.43274,-0.499728
489.177,13.1258,4.44265,-0.516951
489.677,13.142,4.42751,-0.536018
490.177,13.1578,4.43321,-0.551765
490.677,13.1739,4.45158,-0.572088
491.177,13.1901,4.49372,-0.588404
491.677,13.2062,4.53317,-0.60754
492.177,13.2221,4.52869,-0.627755
492.677,13.2382,4.53505,-0.645507
493.177,13.2545,4.52776,-0.669203
493.677,13.2706,4.52292,-0.687543
494.177,13.2863,4.5416,-0.708683
494.677,13.3027,4.54366,-0.731489
495.177,13.3188,4.55775,-0.749794
495.677,13.3349,4.57645,-0.774802
496.177,13.351,4.57495,-0.794524
496.677,13.3671,4.57941,-0.818022
497.177,13.3829,4.56856,-0.842017
497.677,13.3992,4.56782,-0.863768
498.177,13.4152,4.55094,-0.890924
498.677,13.4308,4.55003,-0.910745
499.177,13.4466,4.54795,-0.934641
499.677,13.4633,4.55807,-0.961003
500.177,13.4794,4.5623,-0.983891
500.677,13.4951,4.56439,-1.01227
501.177,13.5116,4.58131,-1.03482
501.677,13.5278,4.57872,-1.06247
502.177,13.5436,4.58504,-1.08874
502.677,13.5602,4.57045,-1.11357
503.177,13.5759,4.55446,-1.14304
503.677,13.592,4.53991,-1.16582
504.177,13.6081,4.53557,-1.19337
504.677,13.6243,4.53947,-1.2203
505.177,13.6404,4.55729,-1.245
505.677,13.6564,4.56845,-1.27508
506.177,13.6729,4.57609,-1.29891
506.677,13.6884,4.58576,-1.32678
507.177,13.7042,4.5844,-1.35457
507.677,13.7213,4.60321,-1.38253
508.177,13.7372,4.60916,-1.41483
508.677,13.7532,4.60357,-1.43869
509.177,13.7695,4.59867,-1.46996
509.677,13.7858,4.60042,-1.49895
510.177,13.8018,4.61197,-1.52688
510.677,13.8178,4.61449,-1.56045
511.177,13.8337,4.61551,-1.58535
511.677,13.8501,4.61093,-1.61888
512.177,13.8657,4.61039,-1.6468
512.677,13.8821,4.59483,-1.67606
513.177,13.8984,4.58925,-1.71127
513.677,13.9143,4.58555,-1.73715
514.177,13.931,4.57852,-1.77128
514.677,13.9472,4.5715,-1.80012
515.177,13.963,4.55593,-1.82956
515.677,13.9791,4.54183,-1.86412
516.177,13.9953,4.5354,-1.89091
516.677,14.0112,4.51541,-1.92358
517.177,14.0276,4.48661,-1.95173
517.677,14.0433,4.44358,-1.98022
518.177,14.0593,4.40628,-2.01389
518.677,14.0755,4.38234,-2.04033
519.177,14.0913,4.34009,-2.07299
519.677,14.1075,4.28191,-2.10072
520.177,14.1236,4.23685,-2.12917
520.677,14.1393,4.18715,-2.16125
521.177,14.1553,4.12471,-2.18633
521.677,14.1712,4.05858,-2.21626
522.177,14.1872,4.00024,-2.24189
522.677,14.203,3.92507,-2.26803
523.177,14.2188,3.84622,-2.29785
523.677,14.2349,3.76356,-2.32076
524.177,14.2508,3.67909,-2.34879
524.677,14.2669,3.5868,-2.37318
525.177,14.2825,3.50783,-2.39602
525.677,14.2984,3.41905,-2.42287
526.177,14.3141,3.32869,-2.44246
526.677,14.3299,3.23342,-2.46688
527.177,14.3456,3.14286,-2.48769
527.677,14.3615,3.04773,-2.50779
528.177,14.3775,2.9534,-2.52965
528.677,14.3931,2.85512,-2.54546
529.177,14.409,2.77401,-2.56508
529.677,14.425,2.68707,-2.58314
530.177,14.4407,2.59805,-2.59949
530.677,14.4567,2.51939,-2.61934
531.177,14.4723,2.4433,-2.63312
531.677,14.4883,2.37065,-2.64975
532.177,14.5044,2.29223,-2.66545
532.677,14.5199,2.22848,-2.68012
533.177,14.5358,2.16598,-2.69621
533.677,14.5517,2.09778,-2.70734
534.177,14.5678,2.04258,-2.72031
534.677,14.5838,1.97384,-2.7326
535.177,14.5994,1.91587,-2.74275
535.677,14.6156,1.86526,-2.75589
536.177,14.6315,1.81502,-2.76542
536.677,14.6472,1.7722,-2.77617
537.177,14.6628,1.73411,-2.78637
537.677,14.6789,1.69491,-2.79474
538.177,14.6956,1.6586,-2.80516
538.677,14.7116,1.62702,-2.81227
539.177,14.7274,1.58418,-2.82048
539.677,14.7435,1.55559,-2.82847
540.177,14.7597,1.52811,-2.83529
540.677,14.7756,1.49947,-2.8431
541.177,14.7916,1.4734,-2.84873
541.677,14.8078,1.46738,-2.85547
542.177,14.8237,1.44751,-2.86184
542.677,14.8397,1.42534,-2.86732
543.177,14.8563,1.40936,-2.87527
543.677,14.8721,1.39544,-2.87993
544.177,14.8882,1.37453,-2.88601
544.677,14.9044,1.36083,-2.89199
545.177,14.9203,1.3463,-2.8967
545.677,14.9369,1.33241,-2.90197
546.177,14.9528,1.31964,-2.90519
546.677,14.969,1.31518,-2.90901
547.177,14.985,1.30445,-2.91264
547.677,15.0013,1.29295,-2.91621
548.177,15.0176,1.28752,-2.91961
548.677,15.0338,1.27317,-2.92213
549.177,15.0495,1.25593,-2.92579
549.677,15.0662,1.25072,-2.92861
550.177,15.0823,1.24992,-2.93141
550.677,15.0985,1.24202,-2.93318
551.177,15.1147,1.23214,-2.9359
551.677,15.1309,1.22479,-2.93867
552.177,15.1473,1.22346,-2.94133
552.677,15.1635,1.21402,-2.94421
553.177,15.1794,1.20372,-2.94652
553.677,15.196,1.20251,-2.94832
554.177,15.2122,1.19116,-2.9497
554.677,15.2282,1.18517,-2.95104
555.177,15.2447,1.18085,-2.95321
555.677,15.2608,1.17263,-2.95552
556.177,15.2768,1.16186,-2.95762
556.677,15.2936,1.15653,-2.96026
557.177,15.3098,1.15265,-2.96211
557.677,15.3259,1.14294,-2.96391
558.177,15.3422,1.13562,-2.96611
558.677,15.3584,1.13155,-2.96737
559.177,15.3748,1.12712,-2.96918
559.677,15.3907,1.12871,-2.97149
560.177,15.4072,1.12105,-2.9738
560.677,15.4234,1.10918,-2.97556
561.177,15.4398,1.10407,-2.97722
561.677,15.4558,1.10383,-2.97937
562.177,15.4724,1.10128,-2.98167
562.677,15.4887,1.0886,-2.98343
563.177,15.5049,1.08693,-2.9854
563.677,15.5211,1.08568,-2.98704
564.177,15.5375,1.07581,-2.98893
564.677,15.5535,1.07688,-2.99126
565.177,15.5701,1.07336,-2.99281
565.677,15.5863,1.062,-2.99457
566.177,15.6027,1.06158,-2.99675
566.677,15.6191,1.05792,-2.99934
567.177,15.6358,1.05307,-3.00162
567.677,15.6517,1.04511,-3.00324
568.177,15.6683,1.04056,-3.00485
568.677,15.6843,1.04333,-3.00628
569.177,15.7009,1.03687,-3.00787
569.677,15.7171,1.03854,-3.00895
570.177,15.7333,1.03253,-3.00997
570.677,15.7498,1.02725,-3.01128
571.177,15.7659,1.02993,-3.01051
571.677,15.7824,1.03247,-3.01177
572.177,15.7987,1.02317,-3.01233
572.677,15.8149,1.01355,-3.01317
573.177,15.8317,1.01251,-3.01464
573.677,15.8477,1.00953,-3.01482
574.177,15.8644,1.00897,-3.01527
574.677,15.8806,1.00208,-3.01672
575.177,15.897,0.995373,-3.01725
575.677,15.9133,0.992343,-3.01841
576.177,15.9297,1.00006,-3.01941
576.677,15.9461,0.993764,-3.01992
577.177,15.962,0.987671,-3.02119
577.677,15.9789,0.988001,-3.02167
578.177,15.9952,0.986751,-3.02296
578.677,16.0115,0.983003,-3.02421
579.177,16.0276,0.986287,-3.02463
579.677,16.0441,0.979221,-3.02605
580.177,16.0605,0.977461,-3.02694
580.677,16.077,0.977396,-3.02762
581.177,16.0933,0.973622,-3.02911
581.677,16.1097,0.972777,-3.02956
582.177,16.1262,0.974542,-3.03206
582.677,16.1425,0.9736,-3.03394
583.177,16.1586,0.979459,-3.03499
583.677,16.1747,0.974925,-3.03625
584.177,16.1915,0.973494,-3.03773
584.677,16.2079,0.965384,-3.03834
585.177,16.2245,0.956923,-3.03941
585.677,16.2411,0.963972,-3.03984
586.177,16.2574,0.972436,-3.04089
586.677,16.2739,0.964928,-3.04134
587.177,16.2903,0.959551,-3.04232
587.677,16.3062,0.951652,-3.04094
588.177,16.3225,0.951786,-3.04197
588.677,16.339,0.954807,-3.04239
589.177,16.356,0.955549,-3.04395
589.677,16.3721,0.954496,-3.04527
590.177,16.3888,0.949485,-3.04602
590.677,16.4052,0.95402,-3.04758
591.177,16.4215,0.948432,-3.04806
591.677,16.4379,0.952501,-3.04902
592.177,16.4546,0.946914,-3.04901
592.677,16.471,0.942721,-3.04907
593.177,16.4875,0.942428,-3.05039
593.677,16.5038,0.94285,-3.05033
594.177,16.5204,0.946725,-3.05051
594.677,16.5367,0.950826,-3.05189
595.177,16.5533,0.953768,-3.05198
595.677,16.5695,0.950051,-3.05376
596.177,16.5861,0.945821,-3.0548
596.677,16.6024,0.949618,-3.05611
597.177,16.6192,0.955004,-3.0564
597.677,16.6355,0.953329,-3.05768
598.177,16.6518,0.952669,-3.05886
598.677,16.6676,0.950336,-3.05946
599.177,16.6843,0.957889,-3.06089
599.677,16.7006,0.959785,-3.06139
600.177,16.7176,0.963635,-3.06253
600.677,16.7341,0.964732,-3.06394
601.177,16.7505,0.959267,-3.06414
601.677,16.7671,0.961011,-3.06574
602.177,16.784,0.958718,-3.06614
602.677,16.8002,0.961034,-3.06731
603.177,16.8167,0.96712,-3.06902
603.677,16.8333,0.963023,-3.06944
604.177,16.8498,0.961882,-3.07044
604.677,16.8663,0.965639,-3.07164
605.177,16.8824,0.962696,-3.07216
605.677,16.8989,0.969977,-3.07373
606.177,16.9157,0.972031,-3.07358
606.677,16.932,0.966607,-3.07508
607.177,16.9486,0.970261,-3.07531
607.677,16.9653,0.975969,-3.07657
608.177,16.9817,0.972571,-3.07707
608.677,16.998,0.977292,-3.07798
609.177,17.0144,0.970763,-3.07823
609.677,17.0311,0.972272,-3.07897
610.177,17.0477,0.972262,-3.07897
610.677,17.064,0.972951,-3.08027
611.177,17.0806,0.979984,-3.08048
611.677,17.0967,0.975746,-3.08185
612.177,17.1137,0.975164,-3.08226
612.677,17.1293,0.974901,-3.0833
613.177,17.1468,0.969436,-3.08364
613.677,17.1633,0.977441,-3.08478
614.177,17.1795,0.977844,-3.08498
614.677,17.1963,0.982212,-3.08601
615.177,17.2129,0.98552,-3.08602
615.677,17.229,0.979026,-3.08659
616.177,17.2456,0.978055,-3.08806
616.677,17.262,0.982797,-3.0879
617.177,17.2789,0.989607,-3.0893
617.677,17.2952,0.984278,-3.08947
618.177,17.3119,0.99494,-3.091
618.677,17.3283,0.993867,-3.09123
619.177,17.3449,0.991966,-3.09258
619.677,17.3614,0.998302,-3.0926
620.177,17.3777,0.99825,-3.09274
620.677,17.3944,1.00779,-3.09263
621.177,17.4111,1.00994,-3.09281
621.677,17.4277,1.00909,-3.09418
622.177,17.4441,1.00731,-3.09426
622.677,17.4605,1.01559,-3.09579
623.177,17.4771,1.01272,-3.09503
623.677,17.4939,1.0203,-3.09651
624.177,17.5103,1.01963,-3.09654
624.677,17.5269,1.022,-3.09694
625.177,17.5436,1.02483,-3.09791
625.677,17.5601,1.03878,-3.0979
626.177,17.5766,1.03362,-3.09931
626.677,17.5933,1.03096,-3.09922
627.177,17.6097,1.03414,-3.10023
627.677,17.6262,1.02412,-3.10061
628.177,17.6429,1.03541,-3.10052
628.677,17.6594,1.04392,-3.1018
629.177,17.6757,1.03504,-3.10193
629.677,17.6923,1.0445,-3.10202
630.177,17.7092,1.04906,-3.10334
630.677,17.7258,1.05077,-3.10324
631.177,17.7423,1.04612,-3.10358
631.677,17.7587,1.05016,-3.1046
632.177,17.7752,1.05304,-3.10457
632.677,17.7917,1.0531,-3.10508
633.177,17.8083,1.05713,-3.1059
633.677,17.8248,1.05664,-3.10581
634.177,17.8415,1.05672,-3.10734
634.677,17.8576,1.06336,-3.10805
635.177,17.8746,1.06607,-3.10952
635.677,17.8909,1.07174,-3.10983
636.177,17.9075,1.06649,-3.11108
636.677,17.9241,1.066,-3.11094
637.177,17.941,1.07375,-3.11228
637.677,17.9572,1.08173,-3.11236
638.177,17.974,1.07354,-3.11238
638.677,17.9905,1.07252,-3.11274
639.177,18.0072,1.07604,-3.11367
639.677,18.0235,1.07486,-3.11366
640.177,18.0403,1.0703,-3.11443
640.677,18.057,1.08448,-3.11498
641.177,18.0734,1.07657,-3.1149
641.677,18.0901,1.08277,-3.11621
642.177,18.1067,1.08998,-3.11624
642.677,18.1234,1.09107,-3.11705
643.177,18.1399,1.0907,-3.11728
643.677,18.1563,1.09169,-3.11829
644.177,18.1728,1.08828,-3.11828
644.677,18.1897,1.08942,-3.11823
645.177,18.2061,1.0912,-3.11926
645.677,18.2225,1.09403,-3.11956
646.177,18.2393,1.0867,-3.12058
646.677,18.2559,1.08015,-3.12115
647.177,18.2724,1.07504,-3.12221
647.677,18.2888,1.07826,-3.12206
648.177,18.3053,1.08186,-3.1212
648.677,18.322,1.08711,-3.1212
649.177,18.3384,1.08537,-3.12209
649.677,18.3555,1.08726,-3.12257
650.177,18.3716,1.08649,-3.12359
650.677,18.3882,1.08235,-3.12408
651.177,18.4046,1.08035,-3.1254
651.677,18.4213,1.08368,-3.12552
652.177,18.4381,1.08295,-3.1256
652.677,18.4544,1.07633,-3.12678
653.177,18.4714,1.07177,-3.12688
653.677,18.4878,1.07281,-3.12845
654.177,18.5042,1.07287,-3.12884
654.677,18.5211,1.07376,-3.12999
655.177,18.5376,1.07453,-3.1304
655.677,18.5539,1.07498,-3.13153
656.177,18.5707,1.06946,-3.13153
656.677,18.587,1.06916,-3.1341
657.177,18.6035,1.06784,-3.13407
657.677,18.6203,1.07348,-3.13409
658.177,18.6368,1.07806,-3.13415
658.677,18.6535,1.06918,-3.13302
659.177,18.67,1.06297,-3.13136
659.677,18.6865,1.0639,-3.13146
660.177,18.7031,1.06813,-3.13147
660.677,18.7199,1.06958,-3.13162
661.177,18.736,1.0678,-3.13298
661.677,18.7527,1.06672,-3.13333
662.177,18.7694,1.06055,-3.13448
662.677,18.7861,1.0569,-3.13474
663.177,18.8025,1.06828,-3.13581
663.677,18.8193,1.06593,-3.13575
664.177,18.836,1.05572,-3.13574
664.677,18.8524,1.0533,-3.13568
665.177,18.8689,1.04902,-3.13662
665.677,18.885,1.04805,-3.13707
666.177,18.902,1.04758,-3.13701
666.677,18.9186,1.04698,-3.1379
667.177,18.9353,1.04722,-3.13838
667.677,18.9518,1.04822,-3.13837
668.177,18.9685,1.04094,-3.13837
668.677,18.9848,1.03337,-3.1386
669.177,19.0016,1.02911,-3.13978
669.677,19.0182,1.03023,-3.13969
670.177,19.0348,1.03091,-3.13991
670.677,19.0514,1.0306,-3.14109
671.177,19.068,1.0252,-3.13977
671.677,19.0845,1.01708,-3.13974
672.177,19.1011,1.01897,-3.14015
672.677,19.1178,1.0109,-3.14103
673.177,19.1341,1.011,-3.14098
673.677,19.1508,1.00134,-3.14203
674.177,19.1668,0.998067,-3.14233
674.677,19.1839,0.992817,-3.14357
675.177,19.2005,0.983797,-3.14376
675.677,19.2172,0.9779,-3.14358
676.177,19.2337,0.977877,-3.14449
676.677,19.2498,0.981852,-3.14444
677.177,19.267,0.970698,-3.14414
677.677,19.2832,0.961962,-3.14374
678.177,19.3002,0.961132,-3.14376
678.677,19.3165,0.952494,-3.14376
679.177,19.3329,0.950227,-3.14376
679.677,19.3497,0.942703,-3.14376
680.177,19.3664,0.938979,-3.14376
680.677,19.3831,0.924821,-3.14375
681.177,19.3993,0.929064,-3.1437
681.677,19.4163,0.922886,-3.14476
682.177,19.4326,0.92527,-3.14508
682.677,19.4492,0.91294,-3.14509
683.177,19.4658,0.906032,-3.14507
683.677,19.482,0.901913,-3.14618
684.177,19.4991,0.893174,-3.14637
684.677,19.5155,0.878722,-3.1464
685.177,19.532,0.876199,-3.14671
685.677,19.5486,0.869126,-3.14776
686.177,19.5651,0.862532,-3.14768
686.677,19.5819,0.856485,-3.14893
687.177,19.5984,0.85451,-3.14919
687.677,19.615,0.85426,-3.15012
688.177,19.6317,0.847819,-3.15058
688.677,19.6481,0.835749,-3.15063
689.177,19.6649,0.827475,-3.15183
689.677,19.6814,0.818426,-3.15213
690.177,19.698,0.818498,-3.15405
690.677,19.7147,0.815899,-3.15453
691.177,19.7312,0.80857,-3.15451
691.677,19.7478,0.804631,-3.15499
692.177,19.7642,0.797328,-3.15588
692.677,19.781,0.793181,-3.15585
693.177,19.7974,0.794274,-3.15584
693.677,19.8142,0.785155,-3.15584
694.177,19.831,0.773382,-3.15674
694.677,19.8473,0.765655,-3.15641
695.177,19.8638,0.764673,-3.1565
695.677,19.8806,0.767135,-3.15649
696.177,19.8971,0.756607,-3.1569
696.677,19.9139,0.753045,-3.15785
697.177,19.9304,0.749044,-3.15757
697.677,19.947,0.742428,-3.15818
698.177,19.964,0.737771,-3.15819
698.677,19.9801,0.735596,-3.15696
699.177,19.9972,0.72003,-3.15703
699.677,20.0134,0.717793,-3.15703
700.177,20.0302,0.713616,-3.15696
700.677,20.0469,0.707202,-3.15808
701.177,20.0633,0.698777,-3.15836
701.677,20.0802,0.693278,-3.15836
702.177,20.0967,0.687968,-3.15835
702.677,20.1134,0.679344,-3.15906
703.177,20.13,0.669256,-3.15968
703.677,20.1464,0.665689,-3.15966
704.177,20.163,0.662219,-3.1597
704.677,20.1797,0.660833,-3.16072
705.177,20.1963,0.650115,-3.16254
705.677,20.2128,0.637731,-3.16289
706.177,20.229,0.630829,-3.1639
706.677,20.2456,0.63436,-3.16386
707.177,20.2627,0.629672,-3.16385
707.677,20.2791,0.619716,-3.16385
708.177,20.296,0.617662,-3.16385
708.677,20.3127,0.60805,-3.16422
709.177,20.3296,0.602647,-3.16522
709.677,20.346,0.598925,-3.16518
710.177,20.3628,0.599995,-3.16583
710.677,20.3796,0.596125,-3.16783
711.177,20.3959,0.588169,-3.16941
711.677,20.4127,0.579083,-3.16982
712.177,20.4293,0.569651,-3.17121
712.677,20.4458,0.568789,-3.17226
713.177,20.4626,0.562168,-3.17274
713.677,20.4791,0.554948,-3.17224
714.177,20.4961,0.547053,-3.17288
714.677,20.5128,0.545987,-3.17277
715.177,20.5291,0.537647,-3.17402
715.677,20.546,0.534174,-3.1741
716.177,20.5625,0.529236,-3.17285
716.677,20.5789,0.52011,-3.17198
717.177,20.5958,0.512368,-3.17152
717.677,20.6127,0.508976,-3.1715
718.177,20.6293,0.506016,-3.17058
718.677,20.6457,0.499298,-3.17056
719.177,20.6627,0.497499,-3.17054
719.677,20.6791,0.489892,-3.17054
720.177,20.696,0.487172,-3.17054
720.677,20.7126,0.487657,-3.17044
721.177,20.7293,0.476926,-3.17174
721.677,20.7458,0.470726,-3.17151
722.177,20.7625,0.473015,-3.17126
722.677,20.779,0.47249,-3.17181
723.177,20.7961,0.467104,-3.17179
723.677,20.8124,0.459618,-3.17185
724.177,20.8292,0.45769,-3.17172
724.677,20.8457,0.450506,-3.1718
725.177,20.8625,0.439593,-3.17085
725.677,20.879,0.441719,-3.17042
726.177,20.8957,0.432384,-3.17032
726.677,20.9126,0.428834,-3.17173
727.177,20.9291,0.424955,-3.17198
727.677,20.9458,0.420288,-3.17232
728.177,20.9624,0.4129,-3.17332
728.677,20.9791,0.410229,-3.17323
729.177,20.9955,0.401807,-3.1742
729.677,21.0125,0.394316,-3.17459
730.177,21.0294,0.390006,-3.17454
730.677,21.0458,0.383026,-3.17332
731.177,21.0626,0.377718,-3.17399
731.677,21.0794,0.372012,-3.17356
732.177,21.0962,0.370584,-3.17329
732.677,21.1128,0.367988,-3.17329
733.177,21.1293,0.358159,-3.17374
733.677,21.146,0.360933,-3.17489
734.177,21.1627,0.356058,-3.17543
734.677,21.1791,0.349961,-3.17754
735.177,21.1958,0.340679,-3.17748
735.677,21.2127,0.333621,-3.17791
736.177,21.2296,0.3292,-3.17893
736.677,21.2457,0.326698,-3.18007
737.177,21.2629,0.318562,-3.18008
737.677,21.2797,0.315898,-3.18008
738.177,21.2963,0.309023,-3.18009
738.677,21.3132,0.306208,-3.18077
739.177,21.3295,0.305313,-3.18141
739.677,21.3462,0.301035,-3.18141
740.077,21.3599,0.294013,-3.18141