File: 01_Data/NFPA_1981-2007_SCBA_Lens/STA/N2/30K_min/NFPA_1981-2007_SCBA_Lens_STA_N2_30KData_240105_R2.csv
Temp./C,Time/min,DSC/(mW/mg),Mass loss/mg
80.938,0.0,1.42074,-0.00496508
81.438,0.0281609,1.45524,-0.00358148
81.938,0.0555384,1.48448,-0.00382552
82.438,0.0818405,1.5136,-0.00260485
82.938,0.108842,1.53557,-0.00160658
83.438,0.134166,1.56447,-0.00124973
83.938,0.159384,1.58696,-0.000482201
84.438,0.184455,1.61033,-0.00164054
84.938,0.209499,1.63514,-0.00266549
85.438,0.233879,1.64854,-0.00262035
85.938,0.258075,1.67234,-0.00213925
86.438,0.281758,1.70195,-0.000585129
86.938,0.305366,1.71812,-0.0002796
87.438,0.328295,1.73919,0.000270809
87.938,0.351586,1.75809,0.000544096
88.438,0.374381,1.78032,0.000137537
88.938,0.396926,1.79836,0.000874966
89.438,0.419049,1.82345,0.000783025
89.938,0.441289,1.8384,0.00135155
90.438,0.463165,1.86227,0.00152318
90.938,0.485323,1.87491,0.0017612
91.438,0.50622,1.89166,0.00114995
91.938,0.527547,1.90481,0.00108063
92.438,0.548393,1.92183,-0.000240867
92.938,0.570049,1.94693,0.00019895
93.438,0.590714,1.97161,0.000694301
93.938,0.611092,1.97683,0.000198767
94.438,0.632127,1.99422,0.00131523
94.938,0.652546,2.00173,0.00148458
95.438,0.67261,2.01458,0.00195234
95.938,0.693413,2.04061,0.00150883
96.438,0.713567,2.05196,0.00139943
96.938,0.733279,2.0524,0.000859194
97.438,0.753027,2.07643,0.00133817
97.938,0.773085,2.07827,0.00202158
98.438,0.792819,2.09617,0.00166612
98.938,0.812141,2.10471,0.0028264
99.438,0.831592,2.13202,0.00199285
99.938,0.851309,2.14429,0.00279983
100.438,0.870509,2.15105,0.00282824
100.938,0.889856,2.15812,0.00361716
101.438,0.909615,2.17638,0.00479224
101.938,0.928189,2.19071,0.00354789
102.438,0.947274,2.20008,0.00424048
102.938,0.966596,2.20378,0.0035166
103.438,0.985738,2.22084,0.00372984
103.938,1.00417,2.22656,0.00473273
104.438,1.02289,2.2393,0.0035037
104.938,1.04158,2.24877,0.0041134
105.438,1.06032,2.26419,0.00363554
105.938,1.07867,2.28384,0.00352154
106.438,1.09717,2.29151,0.00318761
106.938,1.116,2.29407,0.00399921
107.438,1.1345,2.30229,0.00353599
107.938,1.15321,2.30996,0.00485558
108.438,1.17154,2.32218,0.00497072
108.938,1.18949,2.33024,0.00405181
109.438,1.20731,2.34166,0.00361057
109.938,1.22446,2.34726,0.0042043
110.438,1.24445,2.35054,0.00477277
110.938,1.26213,2.36708,0.00353936
111.438,1.28027,2.38537,0.00367759
111.938,1.29844,2.38975,0.00502801
112.438,1.31656,2.40393,0.00366124
112.938,1.33439,2.41273,0.00389042
113.438,1.35241,2.4142,0.0049508
113.938,1.37016,2.42526,0.00350995
114.438,1.38799,2.43298,0.00450414
114.938,1.4059,2.4291,0.00447095
115.438,1.42361,2.43496,0.00359636
115.938,1.44124,2.45657,0.00418855
116.438,1.45927,2.46313,0.00459145
116.938,1.47685,2.47166,0.0036354
117.438,1.49451,2.48292,0.00490471
117.938,1.51208,2.48663,0.00493117
118.438,1.52965,2.49495,0.0049321
118.938,1.54776,2.49611,0.0054961
119.438,1.56483,2.50098,0.0062465
119.938,1.58269,2.50623,0.00609209
120.438,1.60031,2.52945,0.00489356
120.938,1.61764,2.52819,0.00578368
121.438,1.63512,2.53678,0.00629097
121.938,1.65253,2.53549,0.00553052
122.438,1.66982,2.55423,0.00532266
122.938,1.68677,2.55532,0.00626616
123.438,1.70436,2.56499,0.00565441
123.938,1.72163,2.57877,0.00494611
124.438,1.7386,2.58794,0.00493805
124.938,1.75637,2.59058,0.00495098
125.438,1.7729,2.593,0.00562508
125.938,1.79044,2.60862,0.00488864
126.438,1.80744,2.60551,0.00491725
126.938,1.82437,2.61411,0.00556946
127.438,1.84159,2.61213,0.00535095
127.938,1.85885,2.63292,0.0049403
128.438,1.87614,2.64868,0.00494009
128.938,1.893,2.64626,0.00493342
129.438,1.90868,2.64759,0.00486969
129.938,1.92635,2.66256,0.00599998
130.438,1.94291,2.6673,0.00626599
130.938,1.96057,2.67175,0.00551305
131.438,1.9776,2.67404,0.00493165
131.938,1.99441,2.68737,0.00494839
132.438,2.01152,2.69505,0.00527034
132.938,2.02803,2.70031,0.00586953
133.438,2.04436,2.71147,0.00493121
133.938,2.06169,2.71871,0.00494008
134.438,2.07883,2.72883,0.00494052
134.938,2.09547,2.73237,0.00494228
135.438,2.11243,2.73565,0.00473577
135.938,2.12877,2.74707,0.0035704
136.438,2.14533,2.75141,0.00493369
136.938,2.16248,2.75973,0.0049202
137.438,2.17868,2.77465,0.004871
137.938,2.19537,2.78423,0.00593001
138.438,2.21221,2.78594,0.00626493
138.938,2.22876,2.79621,0.00626045
139.438,2.2452,2.80967,0.00625983
139.938,2.26194,2.81706,0.00626826
140.438,2.27854,2.83188,0.00557669
140.938,2.29493,2.84647,0.00491603
141.438,2.31134,2.85656,0.00620856
141.938,2.32784,2.8698,0.00625218
142.438,2.34433,2.88402,0.00624217
142.938,2.36092,2.89834,0.00573059
143.438,2.37748,2.9159,0.00493334
143.938,2.39382,2.93674,0.00494065
144.438,2.41051,2.95393,0.00493584
144.938,2.42668,2.98623,0.00539391
145.438,2.44342,3.0095,0.00629878
145.938,2.45942,3.04478,0.00626714
146.438,2.47601,3.0676,0.00626018
146.938,2.49232,3.10794,0.0062599
147.438,2.50893,3.15243,0.00625979
147.938,2.52533,3.20309,0.00626002
148.438,2.54183,3.24311,0.00627433
148.938,2.55825,3.29085,0.00639313
149.438,2.5746,3.33746,0.00755867
149.938,2.59113,3.3814,0.00760292
150.438,2.60746,3.41389,0.00694348
150.938,2.62375,3.43672,0.00621596
151.438,2.63987,3.44732,0.0062571
151.938,2.65621,3.45084,0.00626032
152.438,2.67204,3.4568,0.00625983
152.938,2.68853,3.46378,0.00625982
153.438,2.70439,3.45707,0.00627501
153.938,2.72084,3.46346,0.00575821
154.438,2.73669,3.46249,0.00525134
154.938,2.75288,3.46285,0.00526523
155.438,2.76846,3.46209,0.00527116
155.938,2.78492,3.47006,0.0052683
156.438,2.8011,3.47443,0.00619917
156.938,2.81697,3.47532,0.00656242
157.438,2.8331,3.47402,0.00658325
157.938,2.8491,3.46753,0.00658049
158.438,2.86537,3.47222,0.00658
158.938,2.88127,3.47394,0.00657997
159.438,2.89652,3.48307,0.00657994
159.938,2.91334,3.48571,0.00658075
160.438,2.92936,3.49195,0.00659108
160.938,2.9453,3.48967,0.00658055
161.438,2.96136,3.49012,0.00772023
161.938,2.97709,3.49359,0.00759654
162.438,2.99306,3.50614,0.00758038
162.938,3.0092,3.50338,0.00757053
163.438,3.02451,3.50381,0.00756979
163.938,3.04043,3.50644,0.00756953
164.438,3.05617,3.51349,0.00757253
164.938,3.07238,3.5145,0.0076159
165.438,3.08848,3.51688,0.00695448
165.938,3.10446,3.52191,0.00620359
166.438,3.12107,3.5263,0.00624637
166.938,3.13672,3.52332,0.0062505
167.438,3.1526,3.51606,0.00625007
167.938,3.16881,3.52142,0.00624981
168.438,3.18453,3.52821,0.00625047
168.938,3.20062,3.53113,0.0062642
169.438,3.21601,3.54411,0.00627347
169.938,3.23212,3.5473,0.00742235
170.438,3.2481,3.5463,0.00755785
170.938,3.2639,3.54838,0.0075709
171.438,3.27977,3.54674,0.00757013
171.938,3.29558,3.55595,0.00757607
172.438,3.31111,3.54495,0.00704647
172.938,3.32742,3.55325,0.00621462
173.438,3.34318,3.55269,0.00625282
173.938,3.35867,3.56459,0.00626016
174.438,3.3747,3.5693,0.00626013
174.938,3.39028,3.56553,0.00626
175.438,3.40601,3.56865,0.00626
175.938,3.42213,3.57673,0.00626
176.438,3.43781,3.57732,0.00626
176.938,3.4534,3.58072,0.00626
177.438,3.46921,3.58849,0.00625999
177.938,3.48497,3.58473,0.00626001
178.438,3.50061,3.58175,0.00626049
178.938,3.51634,3.59441,0.0062613
179.438,3.53208,3.5985,0.00623252
179.938,3.54765,3.6017,0.00667255
180.438,3.5635,3.60229,0.00718239
180.938,3.57887,3.60121,0.00760781
181.438,3.59453,3.59739,0.00757897
181.938,3.6104,3.6076,0.00757952
182.438,3.62612,3.60283,0.00757999
182.938,3.64168,3.60148,0.00758001
183.438,3.65759,3.6121,0.00758
183.938,3.67222,3.6149,0.00757998
184.438,3.68797,3.61773,0.00758008
184.938,3.7033,3.62346,0.00758135
185.438,3.71931,3.6271,0.00757855
185.938,3.73515,3.625,0.00744685
186.438,3.75125,3.62692,0.00691223
186.938,3.76649,3.62865,0.00692553
187.438,3.78219,3.62597,0.00692034
187.938,3.79752,3.63286,0.0069203
188.438,3.81318,3.63431,0.006922
188.938,3.82858,3.6336,0.00690528
189.438,3.84438,3.63915,0.0067038
189.938,3.85936,3.63769,0.00622202
190.438,3.87552,3.64285,0.00659141
190.938,3.89053,3.65031,0.00694272
191.438,3.90623,3.65367,0.006921
191.938,3.92178,3.65833,0.0069147
192.438,3.9375,3.65261,0.00689207
192.938,3.95277,3.65229,0.00742276
193.438,3.96818,3.65874,0.0075542
193.938,3.98382,3.67309,0.00756876
194.438,3.99903,3.66529,0.00753177
194.938,4.01491,3.67223,0.00819124
195.438,4.03015,3.67384,0.00893546
195.938,4.04552,3.67208,0.00889031
196.438,4.06101,3.6865,0.00888919
196.938,4.07613,3.68473,0.00888997
197.438,4.09185,3.68464,0.00889005
197.938,4.10689,3.69098,0.00889015
198.438,4.12236,3.68632,0.00888821
198.938,4.13799,3.68397,0.00887732
199.438,4.15346,3.68617,0.00896874
199.938,4.16861,3.69024,0.00769181
200.438,4.18356,3.69539,0.00756849
200.938,4.19973,3.6967,0.00756967
201.438,4.21521,3.69717,0.00757
201.938,4.23066,3.70373,0.00757001
202.438,4.2458,3.70238,0.00756999
202.938,4.2613,3.70168,0.00756999
203.438,4.27641,3.70744,0.00757046
203.938,4.29214,3.70475,0.00757106
204.438,4.30742,3.70564,0.00754547
204.938,4.32278,3.71463,0.00747251
205.438,4.33812,3.71517,0.00629609
205.938,4.35369,3.72155,0.00621059
206.438,4.36886,3.71846,0.00708528
206.938,4.38394,3.7168,0.00724452
207.438,4.39933,3.72518,0.00723922
207.938,4.41499,3.73214,0.00724186
208.438,4.42994,3.7315,0.00738955
208.938,4.44504,3.73907,0.00757199
209.438,4.46037,3.74133,0.00757239
209.938,4.4751,3.73906,0.00756997
210.438,4.49118,3.74063,0.00756986
210.938,4.50699,3.74199,0.00756943
211.438,4.5225,3.74027,0.00757641
211.938,4.53682,3.74297,0.00759469
212.438,4.55303,3.74593,0.0068209
212.938,4.56814,3.75138,0.00624415
213.438,4.58323,3.75354,0.00625072
213.938,4.59871,3.75099,0.00624976
214.438,4.61392,3.75636,0.00625131
214.938,4.62918,3.76007,0.00628994
215.438,4.64475,3.76334,0.0075307
215.938,4.65982,3.76513,0.00754296
216.438,4.67521,3.77019,0.00757018
216.938,4.6905,3.77023,0.00757044
217.438,4.70542,3.77095,0.00757
217.938,4.72092,3.77697,0.00756999
218.438,4.73639,3.7761,0.00756992
218.938,4.75162,3.77607,0.00756988
219.438,4.7671,3.7768,0.00757446
219.938,4.78218,3.78153,0.0075903
220.438,4.79756,3.78017,0.00715044
220.938,4.81276,3.77752,0.00656457
221.438,4.82759,3.78188,0.00658287
221.938,4.84329,3.78513,0.0065803
222.438,4.85842,3.78406,0.00657996
222.938,4.87372,3.78705,0.00657999
223.438,4.88888,3.78919,0.00658
223.938,4.90408,3.79356,0.00658
224.438,4.91939,3.79442,0.00657997
224.938,4.93479,3.79108,0.00658005
225.438,4.94982,3.78958,0.00658186
225.938,4.96509,3.78959,0.00657877
226.438,4.98041,3.79611,0.00744244
226.938,4.99565,3.79926,0.00789609
227.438,5.01089,3.79846,0.00790615
227.938,5.02602,3.79954,0.00790016
228.438,5.04098,3.79893,0.00789989
228.938,5.057,3.80769,0.00789999
229.438,5.07184,3.80617,0.0079
229.938,5.08732,3.80619,0.0079
230.438,5.10265,3.8122,0.0079
230.938,5.11761,3.81247,0.0079
231.438,5.13289,3.81475,0.0079
231.938,5.14787,3.81054,0.0079
232.438,5.16311,3.80639,0.0079
232.938,5.17822,3.81517,0.0079
233.438,5.1937,3.81374,0.0079
233.938,5.20861,3.81598,0.0079
234.438,5.22407,3.81719,0.0079
234.938,5.23905,3.82132,0.00790001
235.438,5.25458,3.81854,0.00790013
235.938,5.26963,3.82039,0.00789962
236.438,5.28475,3.8236,0.00789234
236.938,5.30017,3.82402,0.0079124
237.438,5.31525,3.83243,0.00753645
237.938,5.33023,3.83037,0.00757009
238.438,5.3453,3.82846,0.00757064
238.938,5.36071,3.82384,0.00757001
239.438,5.37571,3.827,0.00756999
239.938,5.39113,3.83139,0.00757
240.438,5.40605,3.82709,0.00757
240.938,5.4214,3.83022,0.00756999
241.438,5.43651,3.83143,0.00757018
241.938,5.45188,3.83768,0.00757056
242.438,5.4669,3.83346,0.00756043
242.938,5.48188,3.84091,0.00753421
243.438,5.49735,3.83808,0.00722821
243.938,5.51244,3.84506,0.00724784
244.438,5.52753,3.84034,0.0072504
244.938,5.54224,3.83616,0.00725003
245.438,5.55781,3.83898,0.00725012
245.938,5.57325,3.83597,0.00725097
246.438,5.58822,3.83707,0.0072429
246.938,5.60322,3.84172,0.00717647
247.438,5.61874,3.84402,0.00667587
247.938,5.63417,3.84077,0.00753414
248.438,5.64907,3.84028,0.0075618
248.938,5.664,3.84536,0.00758102
249.438,5.67932,3.84846,0.00758031
249.938,5.69467,3.84867,0.00757999
250.438,5.70986,3.85628,0.00757999
250.938,5.72486,3.84948,0.00757996
251.438,5.74005,3.86382,0.00758004
251.938,5.75518,3.86059,0.007582
252.438,5.77021,3.86014,0.00758087
252.938,5.78573,3.86184,0.00848582
253.438,5.80031,3.85819,0.00881333
253.938,5.81567,3.8543,0.00753524
254.438,5.83063,3.85465,0.007555
254.938,5.84607,3.84999,0.00631243
255.438,5.86122,3.8505,0.00626031
255.938,5.87655,3.85997,0.00625891
256.438,5.89124,3.86173,0.00634128
256.938,5.90627,3.85837,0.00762576
257.438,5.92124,3.86123,0.00755878
257.938,5.9364,3.86637,0.00757905
258.438,5.95202,3.86375,0.00758033
258.938,5.9674,3.86122,0.00758003
259.438,5.9824,3.85826,0.00758002
259.938,5.99753,3.86379,0.00758016
260.438,6.01292,3.86988,0.00757883
260.938,6.02782,3.8665,0.00757026
261.438,6.04289,3.86585,0.0076429
261.938,6.05809,3.8687,0.00685617
262.438,6.07345,3.87225,0.00692734
262.938,6.08827,3.8708,0.00692128
263.438,6.10343,3.86486,0.00691986
263.938,6.11879,3.87491,0.00691997
264.438,6.13401,3.87477,0.00692
264.938,6.14886,3.87648,0.00692
265.438,6.16426,3.87179,0.00692
265.938,6.17908,3.87357,0.00692
266.438,6.19454,3.87653,0.00692
266.938,6.20966,3.87729,0.00692
267.438,6.22444,3.87582,0.00692
267.938,6.24,3.88158,0.00692
268.438,6.25516,3.88657,0.00692
268.938,6.27015,3.88634,0.00692
269.438,6.28548,3.88192,0.00692
269.938,6.30046,3.87981,0.00692
270.438,6.31546,3.89106,0.00692
270.938,6.33079,3.88434,0.00692
271.438,6.34578,3.88371,0.00692
271.938,6.36036,3.88466,0.00692
272.438,6.37606,3.89377,0.00692
272.938,6.39132,3.89658,0.00692002
273.438,6.40612,3.89354,0.00692004
273.938,6.4217,3.8876,0.00691888
274.438,6.43692,3.88963,0.00691563
274.938,6.4517,3.89041,0.0070631
275.438,6.46726,3.89299,0.00795816
275.938,6.48261,3.89425,0.00789995
276.438,6.49733,3.89213,0.00790903
276.938,6.51261,3.88994,0.00791019
277.438,6.52773,3.88957,0.00791002
277.938,6.5425,3.8892,0.00791
278.438,6.55746,3.88976,0.00791
278.938,6.57338,3.8857,0.00791
279.438,6.58826,3.88636,0.00791
279.938,6.60334,3.88598,0.00791
280.438,6.61886,3.8833,0.00791
280.938,6.63386,3.88485,0.00791
281.438,6.6492,3.88652,0.00790995
281.938,6.66418,3.8882,0.00791014
282.438,6.67907,3.88846,0.00791251
282.938,6.69459,3.88232,0.00790507
283.438,6.7097,3.88478,0.00769647
283.938,6.72487,3.88523,0.00660702
284.438,6.74022,3.88483,0.00660342
284.938,6.75504,3.88583,0.00658978
285.438,6.77058,3.88948,0.0065897
285.938,6.78555,3.89061,0.00658998
286.438,6.80063,3.89107,0.00659213
286.938,6.81583,3.89155,0.00659236
287.438,6.83108,3.88887,0.00753194
287.938,6.84636,3.89024,0.00789733
288.438,6.86122,3.88601,0.00790251
288.938,6.87659,3.88535,0.0078656
289.438,6.89148,3.88578,0.0067731
289.938,6.90701,3.88251,0.00660081
290.438,6.92153,3.88107,0.00659331
290.938,6.93657,3.88904,0.00657674
291.438,6.95269,3.88294,0.00623496
291.938,6.96764,3.88205,0.0061275
292.438,6.98332,3.8854,0.00661303
292.938,6.99811,3.88169,0.00659347
293.438,7.01354,3.88535,0.0065896
293.938,7.02849,3.88323,0.00658993
294.438,7.04361,3.88997,0.00658958
294.938,7.0587,3.88836,0.00658962
295.438,7.07409,3.88705,0.00666351
295.938,7.08907,3.88322,0.00793263
296.438,7.10454,3.87881,0.00788899
296.938,7.11942,3.87816,0.00790895
297.438,7.13494,3.87647,0.00791086
297.938,7.15006,3.87878,0.00791215
298.438,7.16513,3.8793,0.00788478
298.938,7.18034,3.87538,0.00776865
299.438,7.1958,3.87647,0.00660965
299.938,7.21099,3.87562,0.00659127
300.438,7.22546,3.87348,0.00658985
300.938,7.24084,3.87325,0.00658997
301.438,7.25646,3.87753,0.00659
301.938,7.27168,3.88046,0.00659
302.438,7.28687,3.87682,0.00659
302.938,7.30198,3.87818,0.00659
303.438,7.31725,3.87793,0.00659
303.938,7.33224,3.87794,0.00659
304.438,7.34772,3.87103,0.00659
304.938,7.36265,3.87301,0.00659001
305.438,7.37823,3.8741,0.00659008
305.938,7.39324,3.8763,0.00658957
306.438,7.40869,3.87542,0.00658526
306.938,7.42385,3.87484,0.00660763
307.438,7.43872,3.86976,0.00687481
307.938,7.45405,3.86834,0.0078931
308.438,7.46948,3.86506,0.00789816
308.938,7.48457,3.86406,0.00790007
309.438,7.4999,3.86182,0.00790003
309.938,7.51508,3.8692,0.0079
310.438,7.52995,3.87239,0.0079
310.938,7.5454,3.87092,0.0079
311.438,7.56054,3.8703,0.00789994
311.938,7.57588,3.86443,0.00789992
312.438,7.59098,3.86453,0.00790343
312.938,7.60636,3.86351,0.00790853
313.438,7.62167,3.86481,0.00755119
313.938,7.6368,3.8644,0.00655701
314.438,7.65196,3.86624,0.00660011
314.938,7.66682,3.86011,0.00659069
315.438,7.68234,3.8577,0.00658985
315.938,7.69753,3.8615,0.00658998
316.438,7.71321,3.8552,0.00659
316.938,7.72793,3.8584,0.00659
317.438,7.74348,3.85709,0.00659
317.938,7.75871,3.86114,0.00659
318.438,7.77384,3.85449,0.00658999
318.938,7.78915,3.85369,0.0065898
319.438,7.8045,3.85254,0.00659042
319.938,7.81981,3.85353,0.00660194
320.438,7.83474,3.85225,0.00657263
320.938,7.84996,3.84595,0.00761261
321.438,7.86561,3.8464,0.00789802
321.938,7.88079,3.84496,0.00790347
322.438,7.89537,3.84823,0.0079
322.938,7.91095,3.84292,0.00790212
323.438,7.92637,3.84762,0.00790642
323.938,7.9418,3.84461,0.0076796
324.438,7.95722,3.84333,0.0075774
324.938,7.97225,3.84462,0.0075683
325.438,7.98756,3.84366,0.00756894
325.938,8.00284,3.84451,0.00757684
326.438,8.01791,3.84269,0.00762557
326.938,8.03319,3.84064,0.00676949
327.438,8.04856,3.83877,0.00661674
327.938,8.06385,3.84065,0.0065878
328.438,8.07926,3.83869,0.00658942
328.938,8.09385,3.83854,0.00659004
329.438,8.10924,3.83794,0.00659
329.938,8.1244,3.83135,0.00659003
330.438,8.13982,3.83287,0.00659036
330.938,8.15514,3.83483,0.00658881
331.438,8.17076,3.82077,0.00654884
331.938,8.18643,3.82614,0.00532603
332.438,8.20135,3.82914,0.00570996
332.938,8.21699,3.83186,0.00591583
333.438,8.23179,3.82773,0.00593293
333.938,8.24754,3.82192,0.00593028
334.438,8.26269,3.8155,0.00593137
334.938,8.278,3.81182,0.00593392
335.438,8.29334,3.81283,0.00585514
335.938,8.30889,3.81344,0.00664332
336.438,8.32389,3.80893,0.00657876
336.938,8.33944,3.80643,0.00658892
337.438,8.35437,3.8082,0.00659016
337.938,8.3699,3.80027,0.00659002
338.438,8.38527,3.79772,0.00659
338.938,8.40042,3.79776,0.00659
339.438,8.41573,3.79677,0.00659
339.938,8.43099,3.79629,0.00658999
340.438,8.44651,3.79404,0.00659001
340.938,8.46159,3.79351,0.00659049
341.438,8.47734,3.78626,0.00658968
341.938,8.49242,3.78836,0.00656645
342.438,8.50775,3.78108,0.00657515
342.938,8.5229,3.78036,0.00531858
343.438,8.53864,3.78093,0.00527141
343.938,8.55382,3.77273,0.00526969
344.438,8.56902,3.77272,0.00527005
344.938,8.58461,3.76909,0.00526943
345.438,8.59982,3.77203,0.00526431
345.938,8.61534,3.76444,0.00552317
346.438,8.63042,3.76096,0.00668008
346.938,8.64596,3.76205,0.00658629
347.438,8.66047,3.75758,0.00658824
347.938,8.67668,3.758,0.00658977
348.438,8.6921,3.75259,0.00659436
348.938,8.70742,3.75209,0.00661421
349.438,8.72295,3.74647,0.00603064
349.938,8.73804,3.74624,0.00383629
350.438,8.75339,3.74197,0.00396993
350.938,8.769,3.73682,0.00395279
351.438,8.7844,3.73483,0.00394974
351.938,8.79953,3.73171,0.00394995
352.438,8.815,3.72825,0.00395
352.938,8.83052,3.72623,0.00395
353.438,8.84543,3.72318,0.00395
353.938,8.8612,3.72091,0.00395
354.438,8.87659,3.71317,0.00395
354.938,8.89156,3.71564,0.00394996
355.438,8.90704,3.71872,0.00394988
355.938,8.92275,3.71373,0.00395188
356.438,8.93814,3.71316,0.00396136
356.938,8.95349,3.70982,0.00386312
357.438,8.9686,3.70594,0.00513937
357.938,8.98399,3.70398,0.00527189
358.438,8.99958,3.70089,0.00526864
358.938,9.01491,3.70272,0.00527339
359.438,9.03038,3.70418,0.00445309
359.938,9.04589,3.6975,0.0039496
360.438,9.06148,3.68433,0.00394255
360.938,9.07653,3.6898,0.0039444
361.438,9.09241,3.68106,0.00403498
361.938,9.10751,3.67436,0.00281595
362.438,9.12317,3.68074,0.00262599
362.938,9.1389,3.678,0.00262932
363.438,9.1538,3.67822,0.00263005
363.938,9.16936,3.67724,0.00263001
364.438,9.18493,3.66863,0.00263
364.938,9.20037,3.65961,0.00263
365.438,9.21582,3.66142,0.00263
365.938,9.23127,3.65317,0.00263
366.438,9.24677,3.65614,0.00263
366.938,9.26216,3.65462,0.00263
367.438,9.27754,3.6546,0.00263
367.938,9.293,3.65595,0.00263
368.438,9.30866,3.65481,0.00263
368.938,9.32396,3.65534,0.00263
369.438,9.33944,3.64763,0.00263001
369.938,9.3547,3.63859,0.00262998
370.438,9.37036,3.63554,0.0026291
370.938,9.38583,3.63544,0.00262829
371.438,9.4013,3.63324,0.00267856
371.938,9.41656,3.62729,0.00183039
372.438,9.43224,3.62893,0.00128944
372.938,9.4471,3.62383,0.00131666
373.438,9.4629,3.61321,0.0013204
373.938,9.47849,3.61924,0.00132005
374.438,9.49439,3.61497,0.00132006
374.938,9.50968,3.61208,0.00132158
375.438,9.52518,3.61099,0.00131928
375.938,9.54064,3.61337,0.00117907
376.438,9.55616,3.6122,0.000649662
376.938,9.57176,3.61016,0.000665683
377.438,9.58708,3.60453,0.00066202
377.938,9.60272,3.6069,0.000641483
378.438,9.61798,3.6031,0.000507413
378.938,9.6337,3.59878,-2.24793e-05
379.438,9.64933,3.60183,-5.24546e-06
379.938,9.66478,3.5996,1.41282e-07
380.438,9.68015,3.60237,9.41662e-08
380.938,9.69568,3.6034,1.22431e-09
381.438,9.71129,3.60346,-1.54834e-09
381.938,9.72676,3.60699,-9.00342e-11
382.438,9.74221,3.60567,2.19003e-11
382.938,9.7581,3.60861,2.57303e-12
383.438,9.77329,3.61375,-2.87936e-13
383.938,9.78883,3.61946,-4.95437e-14
384.438,9.80437,3.62586,2.38698e-15
384.938,9.81992,3.63084,9.15934e-16
385.438,9.83546,3.64312,-8.32667e-17
385.938,9.85073,3.64677,4.94049e-15
386.438,9.8666,3.65834,1.67366e-14
386.938,9.88195,3.67635,-2.71977e-13
387.438,9.89748,3.68387,-1.64507e-12
387.938,9.91281,3.69273,1.2631e-11
388.438,9.92875,3.70967,1.30367e-10
388.938,9.94411,3.72327,-4.44491e-10
389.438,9.95987,3.73363,-8.87438e-09
389.938,9.97509,3.73697,5.89695e-09
390.438,9.99082,3.74822,5.00569e-07
390.938,10.0065,3.75738,1.63161e-06
391.438,10.0221,3.76846,-0.000128486
391.938,10.0376,3.77716,-0.00139133
392.438,10.0527,3.78454,-0.00129556
392.938,10.0682,3.78473,-0.00125171
393.438,10.0846,3.79157,-0.00211061
393.938,10.0997,3.79791,-0.00265641
394.438,10.1158,3.801,-0.00263377
394.938,10.131,3.80877,-0.00262796
395.438,10.1464,3.81622,-0.00261216
395.938,10.1621,3.82013,-0.00264463
396.438,10.1773,3.82189,-0.00136433
396.938,10.1933,3.82431,-0.00149952
397.438,10.2088,3.83102,-0.00271984
397.938,10.2247,3.82726,-0.00262836
398.438,10.2402,3.82435,-0.00261977
398.938,10.2559,3.83002,-0.00331054
399.438,10.2712,3.84285,-0.00396025
399.938,10.2871,3.84502,-0.00395586
400.438,10.3028,3.84438,-0.00395008
400.938,10.318,3.84476,-0.00394991
401.438,10.3338,3.84253,-0.00394999
401.938,10.3493,3.84336,-0.00395
402.438,10.3651,3.84462,-0.00395023
402.938,10.3806,3.84877,-0.00395091
403.438,10.3958,3.85311,-0.00393499
403.938,10.4114,3.85047,-0.00492311
404.438,10.4275,3.85034,-0.00452806
404.938,10.4433,3.85049,-0.0046094
405.438,10.4589,3.84984,-0.00461124
405.938,10.4745,3.85174,-0.00461014
406.438,10.4902,3.85406,-0.00461175
406.938,10.5055,3.8567,-0.00461041
407.438,10.5213,3.85514,-0.00450843
407.938,10.5372,3.85003,-0.00573266
408.438,10.5527,3.837,-0.00594513
408.938,10.5684,3.83391,-0.00606396
409.438,10.5841,3.83091,-0.00719185
409.938,10.5997,3.83238,-0.00722751
410.438,10.6154,3.82825,-0.00727935
410.938,10.6308,3.82503,-0.00854145
411.438,10.6458,3.82044,-0.00853899
411.938,10.6619,3.81034,-0.00845319
412.438,10.6782,3.81007,-0.00973802
412.938,10.6936,3.80891,-0.00988148
413.438,10.7093,3.80157,-0.00988031
413.938,10.725,3.80212,-0.00988
414.438,10.7406,3.79179,-0.00988007
414.938,10.7562,3.79008,-0.00988015
415.438,10.7719,3.78199,-0.0098761
415.938,10.7872,3.77461,-0.00986117
416.438,10.8033,3.76679,-0.0103704
416.938,10.8189,3.76149,-0.0112491
417.438,10.8347,3.75457,-0.0111772
417.938,10.8505,3.74241,-0.0111738
418.438,10.8657,3.7338,-0.0107979
418.938,10.8819,3.72565,-0.011566
419.438,10.8974,3.71152,-0.0115318
419.938,10.9133,3.69675,-0.0115511
420.438,10.929,3.68512,-0.0118334
420.938,10.9447,3.67102,-0.0128365
421.438,10.9602,3.65847,-0.012839
421.938,10.9759,3.64447,-0.0128423
422.438,10.9913,3.62696,-0.0127824
422.938,11.0076,3.61259,-0.0136325
423.438,11.0231,3.59372,-0.0150283
423.938,11.0388,3.58337,-0.0154364
424.438,11.0542,3.56066,-0.0163682
424.938,11.07,3.54506,-0.0169318
425.438,11.086,3.52187,-0.016913
425.938,11.1016,3.5045,-0.0179062
426.438,11.117,3.48164,-0.0182196
426.938,11.133,3.46524,-0.0181517
427.438,11.1487,3.44944,-0.0194447
427.938,11.1644,3.44244,-0.0196654
428.438,11.1801,3.42938,-0.0200749
428.938,11.196,3.41449,-0.0210858
429.438,11.2115,3.39003,-0.0211715
429.938,11.2273,3.37337,-0.0225719
430.438,11.2432,3.35918,-0.0223379
430.938,11.2586,3.34997,-0.0221047
431.438,11.2746,3.33415,-0.0231566
431.938,11.2901,3.32235,-0.0234162
432.438,11.306,3.31333,-0.0249363
432.938,11.3218,3.29735,-0.0255911
433.438,11.3374,3.28142,-0.0264517
433.938,11.3527,3.27405,-0.0268758
434.438,11.369,3.25574,-0.0280414
434.938,11.3847,3.24797,-0.0285807
435.438,11.4004,3.2358,-0.0295006
435.938,11.4159,3.22788,-0.0306849
436.438,11.4318,3.21621,-0.0311542
436.938,11.4475,3.20707,-0.032946
437.438,11.4634,3.19301,-0.0330027
437.938,11.479,3.18411,-0.0342537
438.438,11.495,3.16791,-0.0341118
438.938,11.5107,3.16093,-0.0357113
439.438,11.5265,3.14595,-0.0368218
439.938,11.5423,3.12802,-0.0384929
440.438,11.5579,3.11574,-0.0409596
440.938,11.5735,3.09937,-0.0427083
441.438,11.5895,3.07834,-0.0433695
441.938,11.6051,3.06316,-0.0447798
442.438,11.6205,3.04226,-0.0461578
442.938,11.6362,3.02786,-0.0469615
443.438,11.6527,3.01179,-0.0480673
443.938,11.6682,2.98928,-0.0493857
444.438,11.6841,2.98389,-0.0502547
444.938,11.6995,2.95834,-0.051476
445.438,11.7148,2.9383,-0.0535161
445.938,11.7311,2.92219,-0.0548629
446.438,11.7471,2.90769,-0.0560797
446.938,11.7628,2.88432,-0.0571363
447.438,11.7787,2.86993,-0.0583618
447.938,11.7943,2.84913,-0.0599448
448.438,11.8101,2.82762,-0.061479
448.938,11.8259,2.80593,-0.0631826
449.438,11.8418,2.79437,-0.0648656
449.938,11.8573,2.77996,-0.0663228
450.438,11.8733,2.75412,-0.0677449
450.938,11.8889,2.72598,-0.0689477
451.438,11.9046,2.70171,-0.0704098
451.938,11.9204,2.69068,-0.0721174
452.438,11.9363,2.66173,-0.0739697
452.938,11.952,2.6337,-0.0756642
453.438,11.9679,2.61728,-0.0773215
453.938,11.9838,2.5952,-0.0804729
454.438,11.9996,2.59486,-0.0830552
454.938,12.0153,2.57665,-0.0846427
455.438,12.0313,2.56228,-0.0867681
455.938,12.0469,2.54428,-0.0894549
456.438,12.0626,2.52576,-0.0911598
456.938,12.0785,2.51722,-0.0938036
457.438,12.0942,2.51019,-0.0963312
457.938,12.11,2.49098,-0.097744
458.438,12.1259,2.4701,-0.0998526
458.938,12.1415,2.46851,-0.102093
459.438,12.1574,2.44693,-0.10425
459.938,12.1736,2.4238,-0.106798
460.438,12.1891,2.40508,-0.107743
460.938,12.2048,2.38664,-0.110168
461.438,12.2204,2.3613,-0.11317
461.938,12.2363,2.34168,-0.115929
462.438,12.2522,2.32713,-0.11925
462.938,12.2683,2.31814,-0.12334
463.438,12.2839,2.30321,-0.125519
463.938,12.3,2.29401,-0.129064
464.438,12.3156,2.28109,-0.131567
464.938,12.3313,2.26997,-0.134758
465.438,12.3474,2.26828,-0.139059
465.938,12.3632,2.24824,-0.142183
466.438,12.3793,2.24925,-0.146156
466.938,12.395,2.24167,-0.14944
467.438,12.4107,2.22486,-0.154087
467.938,12.4268,2.20606,-0.15808
468.438,12.4429,2.19281,-0.162453
468.938,12.4583,2.17412,-0.167267
469.438,12.4741,2.16518,-0.170816
469.938,12.4902,2.16243,-0.175904
470.438,12.5058,2.16371,-0.180503
470.938,12.5221,2.1795,-0.185662
471.438,12.5379,2.1729,-0.191459
471.938,12.5537,2.15937,-0.195775
472.438,12.5694,2.15957,-0.201389
472.938,12.5856,2.1647,-0.207123
473.438,12.6014,2.16445,-0.213124
473.938,12.6174,2.15669,-0.220094
474.438,12.6335,2.15366,-0.225532
474.938,12.6494,2.16059,-0.232113
475.438,12.665,2.16826,-0.238101
475.938,12.681,2.16903,-0.244767
476.438,12.6963,2.19606,-0.252816
476.938,12.713,2.20553,-0.259451
477.438,12.729,2.22066,-0.267964
477.938,12.7448,2.23522,-0.276175
478.438,12.7603,2.25108,-0.284073
478.938,12.7763,2.28074,-0.294194
479.438,12.7924,2.27364,-0.303297
479.938,12.8083,2.27972,-0.313745
480.438,12.8244,2.29467,-0.323917
480.938,12.8402,2.31847,-0.333396
481.438,12.8567,2.37487,-0.345561
481.938,12.8731,2.37759,-0.354963
482.438,12.8888,2.36144,-0.366874
482.938,12.9049,2.38501,-0.378546
483.438,12.921,2.42908,-0.390388
483.938,12.9368,2.42374,-0.404286
484.438,12.9527,2.41428,-0.415035
484.938,12.9691,2.44648,-0.429325
485.438,12.9851,2.46957,-0.442114
485.938,13.0009,2.48607,-0.45478
486.438,13.0168,2.47609,-0.470446
486.938,13.0329,2.49402,-0.483
487.438,13.0489,2.53558,-0.499434
487.938,13.0651,2.55504,-0.514562
488.438,13.0813,2.5569,-0.529886
488.938,13.0971,2.55894,-0.548197
489.438,13.1131,2.574,-0.562492
489.938,13.1292,2.59491,-0.58048
490.438,13.1453,2.60319,-0.596513
490.938,13.1613,2.60768,-0.612689
491.438,13.1775,2.63695,-0.633075
491.938,13.1935,2.67259,-0.648965
492.438,13.2095,2.68002,-0.669538
492.938,13.2258,2.6985,-0.688138
493.438,13.2417,2.72859,-0.70648
493.938,13.2579,2.74775,-0.728969
494.438,13.2738,2.76591,-0.746421
494.938,13.29,2.78579,-0.769729
495.438,13.306,2.78922,-0.789692
495.938,13.3222,2.80084,-0.810706
496.438,13.3383,2.80454,-0.835884
496.938,13.3546,2.81353,-0.855639
497.438,13.3703,2.81859,-0.87993
497.938,13.3864,2.8405,-0.901269
498.438,13.4027,2.86721,-0.924105
498.938,13.4187,2.86424,-0.950851
499.438,13.434,2.85441,-0.970532
499.938,13.4501,2.82656,-0.997161
500.438,13.4662,2.79693,-1.01989
500.938,13.4821,2.76045,-1.04321
501.438,13.4988,2.76535,-1.07171
501.938,13.5146,2.77249,-1.09246
502.438,13.5305,2.78532,-1.11953
502.938,13.5467,2.79663,-1.1426
503.438,13.5626,2.79023,-1.16655
503.938,13.579,2.79397,-1.19565
504.438,13.5947,2.79225,-1.21782
504.938,13.6111,2.78893,-1.24761
505.438,13.6271,2.80526,-1.27201
505.938,13.6432,2.85241,-1.29809
506.438,13.6587,2.87296,-1.32724
506.938,13.6753,2.88733,-1.35221
507.438,13.691,2.88201,-1.3826
507.938,13.7067,2.88432,-1.40797
508.438,13.7232,2.87931,-1.43657
508.938,13.7389,2.87611,-1.46774
509.438,13.7551,2.88341,-1.49308
509.938,13.7719,2.8854,-1.52646
510.438,13.788,2.89545,-1.55243
510.938,13.8041,2.89925,-1.58149
511.438,13.8202,2.90764,-1.61363
511.938,13.8363,2.91798,-1.64075
512.438,13.8525,2.93494,-1.6753
512.938,13.8688,2.93858,-1.70238
513.438,13.8847,2.9345,-1.73217
513.938,13.9007,2.92802,-1.7647
514.438,13.9168,2.92327,-1.79163
514.938,13.9329,2.91722,-1.8252
515.438,13.9492,2.89972,-1.85224
515.938,13.965,2.89621,-1.88212
516.438,13.9811,2.87593,-1.9147
516.938,13.9969,2.85033,-1.94125
517.438,14.0133,2.82357,-1.97561
517.938,14.0292,2.79204,-2.00166
518.438,14.0449,2.76785,-2.03122
518.938,14.061,2.71616,-2.06321
519.438,14.077,2.68385,-2.08916
519.938,14.093,2.63607,-2.12197
520.438,14.1089,2.57603,-2.14677
520.938,14.125,2.52584,-2.17507
521.438,14.1409,2.46524,-2.20487
521.938,14.1565,2.40561,-2.2293
522.438,14.1726,2.33322,-2.26047
522.938,14.1884,2.25615,-2.28358
523.438,14.2042,2.17661,-2.30899
523.938,14.22,2.10966,-2.33638
524.438,14.2359,2.02002,-2.35843
524.938,14.2517,1.9426,-2.38591
525.438,14.2676,1.85155,-2.40802
525.938,14.2831,1.76042,-2.43121
526.438,14.299,1.65991,-2.45634
526.938,14.3145,1.569,-2.47493
527.438,14.3305,1.4788,-2.49843
527.938,14.3462,1.38488,-2.51706
528.438,14.362,1.2935,-2.53622
528.938,14.3781,1.19972,-2.55836
529.438,14.3935,1.11487,-2.57353
529.938,14.4095,1.03054,-2.59286
530.438,14.4253,0.938109,-2.60884
530.938,14.4412,0.858719,-2.62368
531.438,14.4568,0.788397,-2.64076
531.938,14.4722,0.724971,-2.65324
532.438,14.4886,0.632872,-2.66923
532.938,14.5046,0.563865,-2.68342
533.438,14.5202,0.498261,-2.69657
533.938,14.5358,0.444174,-2.71158
534.438,14.552,0.396208,-2.72264
534.938,14.5678,0.332148,-2.73553
535.438,14.584,0.282858,-2.74814
535.938,14.5996,0.232377,-2.758
536.438,14.6158,0.183665,-2.77008
536.938,14.6318,0.134671,-2.77847
537.438,14.6477,0.104138,-2.78848
537.938,14.6637,0.0656263,-2.79746
538.438,14.6796,0.0323024,-2.80545
538.938,14.6957,-0.00214688,-2.8151
539.438,14.7116,-0.0342464,-2.82197
539.938,14.7279,-0.0618473,-2.83018
540.438,14.7438,-0.0899148,-2.83725
540.938,14.7597,-0.117205,-2.8435
541.438,14.7758,-0.130313,-2.8509
541.938,14.792,-0.152495,-2.85608
542.438,14.8081,-0.172368,-2.8617
542.938,14.824,-0.189094,-2.86706
543.438,14.8402,-0.201791,-2.87229
543.938,14.8561,-0.220069,-2.87843
544.438,14.8722,-0.230186,-2.88248
544.938,14.8886,-0.244554,-2.88731
545.438,14.9047,-0.258424,-2.89154
545.938,14.9208,-0.267116,-2.89552
546.438,14.9371,-0.274343,-2.90047
546.938,14.9534,-0.282948,-2.90375
547.438,14.9693,-0.299506,-2.90784
547.938,14.9856,-0.309236,-2.91117
548.438,15.0016,-0.315059,-2.9146
548.938,15.018,-0.328196,-2.91856
549.438,15.0339,-0.329395,-2.92149
549.938,15.0504,-0.339516,-2.92473
550.438,15.0664,-0.347001,-2.92761
550.938,15.0825,-0.350231,-2.93096
551.438,15.0991,-0.35427,-2.93428
551.938,15.1154,-0.367435,-2.93753
552.438,15.1315,-0.373417,-2.94094
552.938,15.1475,-0.38092,-2.94297
553.438,15.1635,-0.38733,-2.94468
553.938,15.1801,-0.397597,-2.94727
554.438,15.1962,-0.403764,-2.9495
554.938,15.2123,-0.415627,-2.95187
555.438,15.2288,-0.417837,-2.95467
555.938,15.2449,-0.42587,-2.9569
556.438,15.2615,-0.437139,-2.95879
556.938,15.2777,-0.440288,-2.96064
557.438,15.2938,-0.447145,-2.96266
557.938,15.31,-0.447201,-2.96464
558.438,15.3264,-0.454268,-2.96634
558.938,15.3427,-0.45856,-2.96783
559.438,15.359,-0.466982,-2.97
559.938,15.3749,-0.467833,-2.97266
560.438,15.3913,-0.470479,-2.97436
560.938,15.4077,-0.472268,-2.9765
561.438,15.4238,-0.479385,-2.97832
561.938,15.4399,-0.485651,-2.97973
562.438,15.4566,-0.493863,-2.98113
562.938,15.4728,-0.499505,-2.98148
563.438,15.4889,-0.503466,-2.98317
563.938,15.5052,-0.51532,-2.98499
564.438,15.5216,-0.523192,-2.98658
564.938,15.5378,-0.52501,-2.98806
565.438,15.5539,-0.530994,-2.98973
565.938,15.5704,-0.535729,-2.99139
566.438,15.5866,-0.540749,-2.99195
566.938,15.6028,-0.54706,-2.99321
567.438,15.6192,-0.551039,-2.99408
567.938,15.6358,-0.552501,-2.99538
568.438,15.652,-0.561823,-2.99714
568.938,15.668,-0.568156,-2.99907
569.438,15.6847,-0.565092,-3.00001
569.938,15.701,-0.569489,-3.00172
570.438,15.7163,-0.566958,-3.00287
570.938,15.7334,-0.573156,-3.00373
571.438,15.7495,-0.576482,-3.00507
571.938,15.766,-0.583019,-3.00669
572.438,15.782,-0.583222,-3.00797
572.938,15.7986,-0.585027,-3.00827
573.438,15.8149,-0.588412,-3.00893
573.938,15.8311,-0.593567,-3.01041
574.438,15.8476,-0.594759,-3.01111
574.938,15.8637,-0.60188,-3.0122
575.438,15.88,-0.601894,-3.01366
575.938,15.8965,-0.603949,-3.01424
576.438,15.9129,-0.611691,-3.01545
576.938,15.929,-0.613072,-3.01649
577.438,15.9455,-0.613152,-3.01697
577.938,15.9616,-0.618686,-3.01868
578.438,15.9781,-0.618779,-3.02082
578.938,15.9943,-0.625343,-3.02215
579.438,16.0106,-0.621113,-3.02368
579.938,16.0267,-0.626303,-3.02549
580.438,16.0425,-0.626346,-3.02617
580.938,16.0598,-0.635354,-3.02693
581.438,16.076,-0.626383,-3.02767
581.938,16.0923,-0.633121,-3.02848
582.438,16.1086,-0.63301,-3.0304
582.938,16.125,-0.631967,-3.03186
583.438,16.1413,-0.642137,-3.0322
583.938,16.1577,-0.646632,-3.03326
584.438,16.1739,-0.646965,-3.03275
584.938,16.1904,-0.640775,-3.03234
585.438,16.2069,-0.650223,-3.0334
585.938,16.2229,-0.656465,-3.03433
586.438,16.2392,-0.658796,-3.0354
586.938,16.2559,-0.661412,-3.03695
587.438,16.272,-0.663672,-3.0377
587.938,16.2885,-0.66281,-3.03856
588.438,16.3049,-0.664254,-3.03919
588.938,16.3211,-0.670883,-3.04008
589.438,16.3375,-0.675242,-3.04191
589.938,16.3539,-0.671305,-3.04315
590.438,16.37,-0.675536,-3.04351
590.938,16.3867,-0.681995,-3.04449
591.438,16.4031,-0.681227,-3.04545
591.938,16.4193,-0.676778,-3.04646
592.438,16.4356,-0.679082,-3.04781
592.938,16.4522,-0.680928,-3.04858
593.438,16.4683,-0.683839,-3.04959
593.938,16.4847,-0.689766,-3.05105
594.438,16.5013,-0.690245,-3.05138
594.938,16.5176,-0.691041,-3.05272
595.438,16.5333,-0.693547,-3.05254
595.938,16.5499,-0.687755,-3.05404
596.438,16.5659,-0.689821,-3.05417
596.938,16.5831,-0.696589,-3.05539
597.438,16.5993,-0.702065,-3.05548
597.938,16.6161,-0.708685,-3.05676
598.438,16.632,-0.704469,-3.05758
598.938,16.6488,-0.696475,-3.05897
599.438,16.6654,-0.697039,-3.06076
599.938,16.6815,-0.700581,-3.06106
600.438,16.6978,-0.70102,-3.06224
600.938,16.7142,-0.700601,-3.06242
601.438,16.7306,-0.702444,-3.06374
601.938,16.7471,-0.702524,-3.06375
602.438,16.7635,-0.70198,-3.06492
602.938,16.78,-0.703817,-3.06498
603.438,16.7964,-0.704248,-3.0663
603.938,16.8129,-0.709314,-3.06615
604.438,16.829,-0.701222,-3.0675
604.938,16.8457,-0.698673,-3.06804
605.438,16.8621,-0.7031,-3.06924
605.938,16.8784,-0.706977,-3.07035
606.438,16.895,-0.704557,-3.07095
606.938,16.9112,-0.704262,-3.07264
607.438,16.9276,-0.705724,-3.07291
607.938,16.9439,-0.71314,-3.07424
608.438,16.9608,-0.706751,-3.07428
608.938,16.9767,-0.707974,-3.07435
609.438,16.9933,-0.715678,-3.07568
609.938,17.0098,-0.711433,-3.07612
610.438,17.0262,-0.708696,-3.07729
610.938,17.0428,-0.710121,-3.07698
611.438,17.0591,-0.712858,-3.07808
611.938,17.0756,-0.7113,-3.078
612.438,17.0919,-0.697538,-3.07812
612.938,17.1085,-0.655067,-3.0794
613.438,17.1244,-0.6577,-3.07932
613.938,17.1413,-0.649226,-3.07986
614.438,17.158,-0.639207,-3.0807
614.938,17.1744,-0.633294,-3.08173
615.438,17.1906,-0.626563,-3.08231
615.938,17.2073,-0.623249,-3.08413
616.438,17.2237,-0.614001,-3.08453
616.938,17.2403,-0.617914,-3.08552
617.438,17.2566,-0.617831,-3.08547
617.938,17.273,-0.614029,-3.08669
618.438,17.2895,-0.61232,-3.08681
618.938,17.3062,-0.613347,-3.08762
619.438,17.3227,-0.611363,-3.08824
619.938,17.3387,-0.610277,-3.08824
620.438,17.3555,-0.601979,-3.08964
620.938,17.3718,-0.596158,-3.08961
621.438,17.3884,-0.59982,-3.09032
621.938,17.4047,-0.595546,-3.09118
622.438,17.4212,-0.596146,-3.09126
622.938,17.4377,-0.597448,-3.0927
623.438,17.4542,-0.594007,-3.0926
623.938,17.4706,-0.588932,-3.09288
624.438,17.4871,-0.587212,-3.09395
624.938,17.5036,-0.594396,-3.0939
625.438,17.5202,-0.590688,-3.09484
625.938,17.5366,-0.586762,-3.09544
626.438,17.5533,-0.58842,-3.09595
626.938,17.5694,-0.580238,-3.09664
627.438,17.586,-0.585806,-3.09739
627.938,17.6025,-0.584988,-3.09823
628.438,17.619,-0.587958,-3.09814
628.938,17.6354,-0.578571,-3.09919
629.438,17.6516,-0.577185,-3.09953
629.938,17.6682,-0.578258,-3.09964
630.438,17.685,-0.578922,-3.10082
630.938,17.7004,-0.573532,-3.10072
631.438,17.7179,-0.573179,-3.102
631.938,17.7343,-0.5725,-3.10216
632.438,17.7508,-0.568057,-3.10265
632.938,17.7672,-0.560933,-3.10359
633.438,17.7838,-0.561029,-3.10379
633.938,17.8004,-0.555489,-3.10498
634.438,17.8171,-0.553474,-3.10486
634.938,17.8334,-0.554266,-3.10577
635.438,17.8497,-0.555026,-3.10644
635.938,17.8664,-0.546388,-3.10685
636.438,17.8828,-0.545449,-3.1078
636.938,17.8993,-0.54042,-3.10772
637.438,17.9159,-0.53986,-3.10846
637.938,17.9325,-0.539831,-3.10909
638.438,17.9489,-0.533315,-3.10909
638.938,17.9654,-0.527674,-3.11049
639.438,17.9821,-0.531286,-3.11047
639.938,17.9985,-0.526955,-3.11113
640.438,18.015,-0.527,-3.11182
640.938,18.0317,-0.524504,-3.11181
641.438,18.0481,-0.526094,-3.11242
641.938,18.0648,-0.523081,-3.11314
642.438,18.0811,-0.522735,-3.1132
642.938,18.0979,-0.527983,-3.11479
643.438,18.1142,-0.524702,-3.1146
643.938,18.1305,-0.51871,-3.11597
644.438,18.1475,-0.514779,-3.11609
644.938,18.1639,-0.518263,-3.11606
645.438,18.1803,-0.516587,-3.11714
645.938,18.197,-0.512204,-3.11738
646.438,18.2135,-0.518263,-3.11792
646.938,18.2302,-0.515689,-3.11878
647.438,18.2464,-0.504724,-3.11873
647.938,18.2633,-0.50278,-3.1183
648.438,18.2793,-0.502029,-3.11961
648.938,18.2964,-0.507843,-3.11971
649.438,18.3126,-0.508526,-3.1197
649.938,18.3294,-0.49594,-3.11965
650.438,18.3459,-0.49276,-3.12043
650.938,18.3624,-0.498199,-3.11981
651.438,18.3791,-0.497271,-3.12003
651.938,18.3953,-0.491992,-3.12115
652.438,18.4122,-0.492303,-3.12117
652.938,18.4287,-0.49487,-3.12143
653.438,18.4451,-0.491439,-3.12246
653.938,18.4616,-0.48872,-3.12247
654.438,18.4785,-0.4895,-3.1226
654.938,18.4948,-0.487947,-3.12376
655.438,18.5113,-0.488834,-3.12377
655.938,18.5278,-0.487442,-3.12383
656.438,18.5446,-0.488221,-3.12598
656.938,18.5613,-0.488031,-3.12642
657.438,18.5775,-0.483286,-3.1265
657.938,18.5941,-0.484477,-3.12768
658.438,18.6108,-0.48526,-3.12772
658.938,18.6272,-0.486401,-3.12773
659.438,18.6439,-0.489531,-3.12773
659.938,18.6604,-0.49084,-3.1278
660.438,18.677,-0.481053,-3.12911
660.938,18.6934,-0.4857,-3.12881
661.438,18.7104,-0.485267,-3.1277
661.938,18.727,-0.485789,-3.12912
662.438,18.7434,-0.48744,-3.12904
662.938,18.7598,-0.484828,-3.12906
663.438,18.7768,-0.488072,-3.1291
663.938,18.7924,-0.492235,-3.13025
664.438,18.8092,-0.493645,-3.13035
664.938,18.8256,-0.492965,-3.13037
665.438,18.8425,-0.49489,-3.13107
665.938,18.8591,-0.499553,-3.13169
666.438,18.876,-0.493184,-3.13169
666.938,18.8927,-0.491759,-3.13169
667.438,18.9092,-0.495776,-3.13174
667.938,18.9261,-0.494556,-3.13303
668.438,18.9424,-0.498664,-3.13299
668.938,18.9589,-0.50132,-3.13301
669.438,18.9753,-0.502271,-3.133
669.938,18.9924,-0.502785,-3.13418
670.438,19.0088,-0.506598,-3.1343
670.938,19.0255,-0.515905,-3.13466
671.438,19.042,-0.511367,-3.1357
671.938,19.0586,-0.511054,-3.13565
672.438,19.0751,-0.523337,-3.13564
672.938,19.0917,-0.524709,-3.13554
673.438,19.1086,-0.534094,-3.13683
673.938,19.1252,-0.540325,-3.13696
674.438,19.1419,-0.541515,-3.13708
674.938,19.1584,-0.539247,-3.13836
675.438,19.175,-0.541203,-3.13827
675.938,19.1917,-0.552529,-3.13887
676.438,19.2078,-0.554189,-3.1396
676.938,19.2245,-0.56002,-3.13957
677.438,19.2409,-0.564591,-3.14069
677.938,19.2582,-0.57814,-3.1409
678.438,19.2745,-0.583706,-3.14117
678.938,19.2914,-0.584893,-3.14231
679.438,19.308,-0.582531,-3.14224
679.938,19.3247,-0.585321,-3.14223
680.438,19.3413,-0.592667,-3.14223
680.938,19.3581,-0.599554,-3.14225
681.438,19.3746,-0.60863,-3.14349
681.938,19.3915,-0.608072,-3.14352
682.438,19.4078,-0.611706,-3.14354
682.938,19.4246,-0.616546,-3.14354
683.438,19.4408,-0.622553,-3.14444
683.938,19.4578,-0.627214,-3.14463
684.438,19.4741,-0.630054,-3.14384
684.938,19.4909,-0.644019,-3.14503
685.438,19.5079,-0.65143,-3.14528
685.938,19.5236,-0.652761,-3.14532
686.438,19.5401,-0.655291,-3.14573
686.938,19.5569,-0.66536,-3.14657
687.438,19.5741,-0.670691,-3.1473
687.938,19.591,-0.674554,-3.14727
688.438,19.6072,-0.677893,-3.14728
688.938,19.624,-0.682192,-3.1475
689.438,19.6406,-0.696557,-3.14868
689.938,19.6573,-0.697326,-3.1486
690.438,19.6738,-0.694496,-3.14859
690.938,19.6907,-0.696738,-3.14854
691.438,19.7072,-0.697187,-3.14941
691.938,19.7239,-0.70543,-3.14992
692.438,19.7405,-0.705774,-3.14992
692.938,19.7571,-0.710326,-3.14992
693.438,19.7736,-0.717585,-3.1511
693.938,19.7901,-0.719437,-3.15121
694.438,19.807,-0.726264,-3.15124
694.938,19.8234,-0.731988,-3.15086
695.438,19.8404,-0.737524,-3.1509
695.938,19.8571,-0.742328,-3.1512
696.438,19.8736,-0.751339,-3.15124
696.938,19.8903,-0.7543,-3.15168
697.438,19.9068,-0.755337,-3.15254
697.938,19.9229,-0.767699,-3.15254
698.438,19.9396,-0.77628,-3.15244
698.938,19.9569,-0.783174,-3.15422
699.438,19.9735,-0.791763,-3.15521
699.938,19.9899,-0.795929,-3.15519
700.438,20.0068,-0.803985,-3.15518
700.938,20.0235,-0.809009,-3.15518
701.438,20.04,-0.814423,-3.156
701.938,20.0565,-0.816686,-3.15649
702.438,20.0733,-0.830028,-3.1565
702.938,20.0901,-0.829554,-3.15642
703.438,20.1065,-0.830485,-3.15757
703.938,20.1231,-0.840162,-3.15781
704.438,20.1398,-0.842402,-3.15781
704.938,20.1566,-0.850419,-3.15705
705.438,20.1731,-0.854048,-3.15727
705.938,20.1899,-0.859491,-3.15781
706.438,20.2067,-0.867854,-3.15781
706.938,20.2235,-0.876336,-3.15781
707.438,20.2398,-0.880995,-3.15782
707.938,20.2566,-0.882526,-3.15786
708.438,20.2734,-0.882458,-3.15905
708.938,20.2893,-0.890158,-3.15914
709.438,20.3066,-0.89065,-3.15921
709.938,20.3232,-0.892395,-3.16044
710.438,20.3399,-0.897182,-3.16027
710.938,20.3567,-0.90139,-3.15904
711.438,20.3732,-0.909097,-3.15913
711.938,20.39,-0.911368,-3.15919
712.438,20.4064,-0.916408,-3.16048
712.938,20.4232,-0.920715,-3.16042
713.438,20.44,-0.926621,-3.16036
713.938,20.4564,-0.926436,-3.16151
714.438,20.4733,-0.935719,-3.16176
714.938,20.4898,-0.941243,-3.16176
715.438,20.5066,-0.944755,-3.16176
715.938,20.5231,-0.946347,-3.16176
716.438,20.5399,-0.947961,-3.16172
716.938,20.5563,-0.953877,-3.1625
717.438,20.5728,-0.958103,-3.16311
717.938,20.5896,-0.964861,-3.16308
718.438,20.6062,-0.96371,-3.16308
718.938,20.623,-0.968637,-3.16303
719.438,20.6394,-0.973005,-3.16407
719.938,20.6563,-0.975406,-3.16439
720.438,20.673,-0.984162,-3.16441
720.938,20.6896,-0.989243,-3.16461
721.438,20.7062,-0.992712,-3.16573
721.938,20.7227,-0.993425,-3.1657
722.438,20.7395,-0.989561,-3.16571
722.938,20.7563,-1.00373,-3.16571
723.438,20.7723,-1.00812,-3.16565
723.938,20.7895,-1.01412,-3.1667
724.438,20.8061,-1.02509,-3.16702
724.938,20.823,-1.02737,-3.16703
725.438,20.8394,-1.03022,-3.16703
725.938,20.8562,-1.03544,-3.16738
726.438,20.8729,-1.03955,-3.16856
726.938,20.8894,-1.03748,-3.16976
727.438,20.906,-1.04462,-3.16967
727.938,20.9227,-1.0483,-3.16966
728.438,20.9396,-1.04985,-3.17044
728.938,20.9561,-1.05761,-3.17098
729.438,20.9729,-1.0569,-3.17099
729.938,20.9895,-1.06117,-3.17101
730.438,21.0062,-1.06794,-3.17104
730.938,21.023,-1.06431,-3.17229
731.438,21.0391,-1.06822,-3.1723
731.938,21.0563,-1.07089,-3.1723
732.438,21.0729,-1.07078,-3.17246
732.938,21.09,-1.0741,-3.17372
733.438,21.1062,-1.07767,-3.17361
733.938,21.1228,-1.07854,-3.17329
734.438,21.1397,-1.09083,-3.17386
734.938,21.1563,-1.09337,-3.17395
735.438,21.1728,-1.09658,-3.17395
735.938,21.1896,-1.09715,-3.17394
736.438,21.2064,-1.10024,-3.17437
736.938,21.2232,-1.09933,-3.17531
737.438,21.2399,-1.10093,-3.17528
737.938,21.2565,-1.10549,-3.17527
738.438,21.2732,-1.10619,-3.17548
738.938,21.2898,-1.11033,-3.17631
739.438,21.3063,-1.11474,-3.17626
739.938,21.3233,-1.12177,-3.17625
740.038,21.3266,-1.12205,-3.17625