File: 01_Data/Leather_Helmet_Shell/STA/N2/10K_min/Leather_Helmet_Shell_STA_N2_10KData_250522_R1.csv
Temp./C,Time/min,DSC/(mW/mg),Mass loss/mg
40.0,0.0,1.09466,-0.0933822
40.6,0.0827737,1.12452,-0.0937432
41.2,0.165297,1.16818,-0.0958267
41.8,0.240728,1.196,-0.0968162
42.4,0.323998,1.23355,-0.0967844
43,0.401395,1.26471,-0.0971333
43.6,0.47903,1.29285,-0.0986009
44.2,0.554399,1.33134,-0.0991446
44.8,0.630851,1.36127,-0.101411
45.4,0.705203,1.39268,-0.101256
46,0.782036,1.42163,-0.103437
46.6,0.855813,1.45351,-0.104049
47.2,0.928199,1.48146,-0.102994
47.8,0.99903,1.51307,-0.10295
48.4,1.07346,1.54307,-0.10314
49,1.14369,1.58121,-0.105573
49.6,1.21735,1.6139,-0.106837
50.2,1.28794,1.64771,-0.108936
50.8,1.35771,1.67798,-0.109323
51.4,1.42761,1.70687,-0.109347
52,1.49927,1.73895,-0.110718
52.6,1.56732,1.76523,-0.113364
53.2,1.63625,1.7971,-0.113842
53.8,1.70406,1.82495,-0.11576
54.4,1.7717,1.86298,-0.11604
55,1.84145,1.89594,-0.116175
55.6,1.90755,1.9254,-0.114737
56.2,1.97482,1.94964,-0.119133
56.8,2.04342,1.98357,-0.121424
57.4,2.10923,2.00828,-0.12275
58,2.17557,2.03453,-0.12469
58.6,2.24156,2.07031,-0.12494
59.2,2.30624,2.09144,-0.126242
59.8,2.36718,2.11045,-0.127594
60.4,2.43643,2.14752,-0.126551
61,2.50039,2.16209,-0.127926
61.6,2.56495,2.18885,-0.130532
62.2,2.62999,2.21454,-0.133162
62.8,2.69367,2.23129,-0.133788
63.4,2.75685,2.24422,-0.137163
64,2.82035,2.2698,-0.13724
64.6,2.88531,2.29268,-0.13952
65.2,2.94802,2.31638,-0.139897
65.8,3.0109,2.33191,-0.141808
66.4,3.07311,2.3502,-0.140265
67,3.13515,2.363,-0.145626
67.6,3.19697,2.37662,-0.148538
68.2,3.26153,2.38848,-0.149851
68.8,3.3229,2.40205,-0.14986
69.4,3.3845,2.41184,-0.149861
70,3.44607,2.4249,-0.151213
70.6,3.50821,2.43362,-0.153097
71.2,3.57013,2.43626,-0.155232
71.8,3.62914,2.44324,-0.15787
72.4,3.69159,2.45309,-0.15787
73,3.75373,2.45798,-0.158415
73.6,3.81528,2.46053,-0.16049
74.2,3.87517,2.47014,-0.16184
74.8,3.93705,2.48054,-0.164525
75.4,3.99631,2.4782,-0.164424
76,4.05874,2.48674,-0.162997
76.6,4.11883,2.48107,-0.167616
77.2,4.18072,2.48029,-0.170276
77.8,4.24019,2.47825,-0.172782
78.4,4.30002,2.48052,-0.172922
79,4.36193,2.47476,-0.174244
79.6,4.42076,2.4651,-0.175675
80.2,4.48002,2.46642,-0.175456
80.8,4.54142,2.45627,-0.176877
81.4,4.59785,2.45045,-0.1795
82,4.661,2.44334,-0.181954
82.6,4.72183,2.42521,-0.183441
83.2,4.78081,2.41742,-0.183451
83.8,4.84032,2.41638,-0.186084
84.4,4.8997,2.39816,-0.186091
85,4.95853,2.39938,-0.187437
85.6,5.01779,2.37973,-0.188719
86.2,5.07701,2.36892,-0.189807
86.8,5.13642,2.35304,-0.190476
87.4,5.19483,2.33769,-0.191354
88,5.25407,2.31956,-0.193996
88.6,5.31275,2.31483,-0.193991
89.2,5.37102,2.29682,-0.195322
89.8,5.42763,2.28848,-0.196606
90.4,5.48903,2.27045,-0.19762
91,5.54774,2.25716,-0.197951
91.6,5.60593,2.23357,-0.199311
92.2,5.66415,2.22064,-0.19857
92.8,5.7216,2.20454,-0.199042
93.4,5.78004,2.18519,-0.201232
94,5.83893,2.16756,-0.203539
94.6,5.89642,2.1552,-0.204885
95.2,5.95383,2.13929,-0.204864
95.8,6.01173,2.12603,-0.202964
96.4,6.06924,2.10541,-0.204539
97,6.12802,2.0873,-0.207924
97.6,6.18632,2.07116,-0.209253
98.2,6.24304,2.05277,-0.209248
98.8,6.30049,2.03769,-0.21056
99.4,6.35866,2.00947,-0.211992
100,6.41633,2.00462,-0.21189
100.6,6.4727,1.97914,-0.21189
101.2,6.53119,1.96134,-0.21189
101.8,6.58799,1.94839,-0.211274
102.4,6.64567,1.9286,-0.212558
103,6.70375,1.91036,-0.213949
103.6,6.75979,1.90002,-0.21452
104.2,6.81708,1.88456,-0.21452
104.8,6.87569,1.86766,-0.214521
105.4,6.9321,1.84499,-0.215932
106,6.98972,1.83466,-0.216525
106.6,7.04816,1.82675,-0.217824
107.2,7.10475,1.80666,-0.21782
107.8,7.16184,1.79151,-0.217817
108.4,7.21956,1.77901,-0.219139
109,7.27673,1.76384,-0.21914
109.6,7.33383,1.75552,-0.219163
110.2,7.39139,1.7392,-0.22045
110.8,7.44873,1.72912,-0.218165
111.4,7.50583,1.72202,-0.218199
112,7.56323,1.70634,-0.220868
112.6,7.62002,1.69838,-0.222748
113.2,7.67794,1.67864,-0.22275
113.8,7.73512,1.67694,-0.222175
114.4,7.79213,1.65775,-0.22144
115,7.84893,1.63829,-0.222852
115.6,7.90712,1.6318,-0.22276
116.2,7.96401,1.62262,-0.22276
116.8,8.02184,1.61803,-0.222768
117.4,8.07874,1.60899,-0.220456
118,8.13614,1.60265,-0.222294
118.6,8.19364,1.59426,-0.226096
119.2,8.24921,1.59201,-0.22638
119.8,8.30874,1.58013,-0.226386
120.4,8.36544,1.56858,-0.225514
121,8.42258,1.56993,-0.226381
121.6,8.47867,1.55576,-0.225054
122.2,8.53704,1.54599,-0.22506
122.8,8.59418,1.53495,-0.225042
123.4,8.65119,1.53739,-0.223749
124,8.70951,1.53322,-0.225176
124.6,8.76642,1.52441,-0.22638
125.2,8.82249,1.532,-0.226356
125.8,8.88017,1.52812,-0.227041
126.4,8.93718,1.52286,-0.228483
127,8.99334,1.51647,-0.22836
127.6,9.05171,1.51281,-0.22836
128.2,9.10777,1.50398,-0.229669
128.8,9.16507,1.50483,-0.229671
129.4,9.22319,1.50618,-0.22856
130,9.28011,1.49435,-0.22868
130.6,9.33623,1.501,-0.228679
131.2,9.39247,1.4949,-0.228357
131.8,9.45042,1.49502,-0.22967
132.4,9.50734,1.49999,-0.229669
133,9.56502,1.49354,-0.228295
133.6,9.62221,1.49716,-0.22835
134.2,9.67774,1.49308,-0.22969
134.8,9.73503,1.49762,-0.22967
135.4,9.79239,1.49609,-0.22967
136,9.84892,1.48786,-0.231026
136.6,9.90555,1.49052,-0.23098
137.2,9.96203,1.49425,-0.23098
137.8,10.0184,1.49208,-0.23098
138.4,10.0759,1.49151,-0.23098
139,10.1324,1.49073,-0.23098
139.6,10.1885,1.49447,-0.229735
140.2,10.2451,1.4881,-0.229177
140.8,10.3023,1.48942,-0.22892
141.4,10.3584,1.48604,-0.232596
142,10.4161,1.48458,-0.231173
142.6,10.4728,1.492,-0.231809
143.2,10.5291,1.49127,-0.233734
143.8,10.5855,1.49288,-0.236017
144.4,10.6428,1.49263,-0.23604
145,10.6999,1.49677,-0.23604
145.6,10.7561,1.50991,-0.23604
146.2,10.8126,1.51553,-0.235328
146.8,10.8697,1.52121,-0.236043
147.4,10.9264,1.52326,-0.23604
148,10.9832,1.52609,-0.23604
148.6,11.0385,1.53187,-0.23604
149.2,11.0961,1.53779,-0.2373
149.8,11.1525,1.54964,-0.23735
150.4,11.2104,1.56198,-0.237352
151,11.2658,1.5716,-0.238669
151.6,11.3223,1.57533,-0.23867
152.2,11.3789,1.59076,-0.238685
152.8,11.4359,1.60138,-0.23834
153.4,11.4922,1.61442,-0.23834
154,11.5501,1.62345,-0.23834
154.6,11.6057,1.63613,-0.23834
155.2,11.6618,1.64844,-0.238339
155.8,11.7197,1.65609,-0.239748
156.4,11.7756,1.65986,-0.24098
157,11.8316,1.67304,-0.24098
157.6,11.8883,1.67891,-0.24098
158.2,11.9455,1.69015,-0.242397
158.8,12.0016,1.69563,-0.2423
159.4,12.0582,1.69934,-0.2423
160,12.1131,1.70094,-0.2423
160.6,12.1698,1.70984,-0.2423
161.2,12.2275,1.71902,-0.242293
161.8,12.2841,1.72733,-0.243592
162.4,12.34,1.73718,-0.243951
163,12.3973,1.73662,-0.243259
163.6,12.4546,1.7477,-0.244851
164.2,12.5103,1.75114,-0.24625
164.8,12.5678,1.76384,-0.24625
165.4,12.624,1.76522,-0.24625
166,12.6787,1.76613,-0.24625
166.6,12.7375,1.76807,-0.246273
167.2,12.7923,1.78286,-0.247239
167.8,12.8496,1.78066,-0.24724
168.4,12.9063,1.78948,-0.24724
169,12.9624,1.78941,-0.24724
169.6,13.0194,1.79833,-0.247241
170.2,13.0753,1.79999,-0.24756
170.8,13.1321,1.80392,-0.248739
171.4,13.1875,1.81278,-0.24888
172,13.2456,1.81924,-0.250032
172.6,13.3016,1.81841,-0.251518
173.2,13.3582,1.82105,-0.252842
173.8,13.4142,1.82324,-0.25284
174.4,13.4722,1.82961,-0.25284
175,13.5273,1.8308,-0.253773
175.6,13.5853,1.84717,-0.25415
176.2,13.6419,1.84252,-0.25415
176.8,13.6975,1.84841,-0.254068
177.4,13.7543,1.85159,-0.255446
178,13.8109,1.85239,-0.256633
178.6,13.8675,1.8629,-0.255811
179.2,13.9233,1.86599,-0.257123
179.8,13.9809,1.87078,-0.257078
180.4,14.0359,1.87751,-0.257103
181,14.0926,1.87881,-0.25843
181.6,14.149,1.88442,-0.25975
182.2,14.2054,1.88628,-0.25975
182.8,14.2623,1.89922,-0.25975
183.4,14.3197,1.90611,-0.259666
184,14.3748,1.90466,-0.261129
184.6,14.4316,1.90991,-0.2624
185.2,14.4875,1.91126,-0.263701
185.8,14.5443,1.91878,-0.264372
186.4,14.6011,1.93069,-0.264449
187,14.6568,1.94168,-0.264233
187.6,14.7135,1.93942,-0.262508
188.2,14.77,1.94774,-0.267851
188.8,14.8249,1.94315,-0.269945
189.4,14.8826,1.94931,-0.26997
190,14.9389,1.95734,-0.269967
190.6,14.9955,1.968,-0.271582
191.2,15.0531,1.96847,-0.271577
191.8,15.1092,1.97192,-0.270168
192.4,15.165,1.98294,-0.269913
193,15.221,1.98578,-0.274669
193.6,15.2773,1.98266,-0.27599
194.2,15.3341,1.99342,-0.277112
194.8,15.3901,1.99615,-0.27797
195.4,15.448,2.00588,-0.27797
196,15.5025,2.00964,-0.280488
196.6,15.5591,2.01256,-0.28061
197.2,15.6157,2.02147,-0.281911
197.8,15.6694,2.02532,-0.281942
198.4,15.7285,2.03249,-0.284564
199,15.7847,2.03814,-0.284579
199.6,15.842,2.04969,-0.28456
200.2,15.898,2.04708,-0.286568
200.8,15.9554,2.05226,-0.287928
201.4,16.0104,2.05911,-0.289753
202,16.0676,2.06653,-0.291274
202.6,16.1239,2.08195,-0.29126
203.2,16.1809,2.08263,-0.29126
203.8,16.2375,2.0934,-0.291274
204.4,16.2937,2.10045,-0.293018
205,16.3505,2.10602,-0.296582
205.6,16.4069,2.10946,-0.297308
206.2,16.4625,2.11936,-0.298025
206.8,16.519,2.12351,-0.29917
207.4,16.5752,2.13951,-0.299776
208,16.6313,2.14158,-0.300499
208.6,16.6882,2.14047,-0.302391
209.2,16.7444,2.15174,-0.303135
209.8,16.8022,2.157,-0.304694
210.4,16.8578,2.16131,-0.305829
211,16.9151,2.16497,-0.30845
211.6,16.9707,2.17882,-0.310307
212.2,17.0281,2.18254,-0.311137
212.8,17.0831,2.18996,-0.313221
213.4,17.1401,2.19795,-0.314507
214,17.1972,2.20864,-0.315075
214.6,17.2539,2.22799,-0.31641
215.2,17.3104,2.23182,-0.318895
215.8,17.3671,2.23461,-0.321602
216.4,17.423,2.24176,-0.32321
217,17.4792,2.25263,-0.32452
217.6,17.536,2.26127,-0.325838
218.2,17.5928,2.26419,-0.327118
218.8,17.6495,2.27013,-0.328601
219.4,17.7064,2.27839,-0.331112
220,17.7621,2.29285,-0.332655
220.6,17.8188,2.29759,-0.334503
221.2,17.8754,2.31109,-0.336636
221.8,17.9313,2.31708,-0.338598
222.4,17.9884,2.32452,-0.340627
223,18.0458,2.33576,-0.342105
223.6,18.1008,2.34233,-0.345706
224.2,18.1588,2.35366,-0.347691
224.8,18.2149,2.36256,-0.348832
225.4,18.2708,2.38243,-0.350756
226,18.3263,2.38317,-0.351965
226.6,18.3854,2.39756,-0.354396
227.2,18.4413,2.40913,-0.356941
227.8,18.4982,2.42125,-0.360581
228.4,18.5557,2.42884,-0.361965
229,18.6119,2.44094,-0.363663
229.6,18.6677,2.46044,-0.367804
230.2,18.7245,2.46669,-0.369373
230.8,18.7806,2.4846,-0.372545
231.4,18.839,2.4948,-0.375346
232,18.8946,2.51241,-0.377207
232.6,18.9511,2.51846,-0.380444
233.2,19.0086,2.54306,-0.384148
233.8,19.0656,2.55219,-0.38703
234.4,19.121,2.57375,-0.39087
235,19.1792,2.59092,-0.390943
235.6,19.2365,2.61028,-0.395508
236.2,19.2922,2.63291,-0.398721
236.8,19.3485,2.64881,-0.400705
237.4,19.4049,2.67503,-0.403454
238,19.4631,2.70276,-0.406228
238.6,19.5191,2.72293,-0.408289
239.2,19.5775,2.7441,-0.411225
239.8,19.6334,2.76113,-0.415593
240.4,19.6907,2.784,-0.419196
241,19.7466,2.79695,-0.422459
241.6,19.804,2.81323,-0.425997
242.2,19.8606,2.82024,-0.429863
242.8,19.9172,2.8327,-0.43419
243.4,19.9745,2.84869,-0.43839
244,20.0313,2.84566,-0.441322
244.6,20.0874,2.86162,-0.446578
245.2,20.1447,2.86626,-0.449552
245.8,20.2015,2.8657,-0.452819
246.4,20.2581,2.86851,-0.457529
247,20.3139,2.87713,-0.462799
247.6,20.3714,2.88173,-0.466694
248.2,20.4267,2.88021,-0.470101
248.8,20.4826,2.88302,-0.474611
249.4,20.5415,2.8908,-0.480599
250,20.5986,2.89711,-0.485869
250.6,20.6543,2.90073,-0.48961
251.2,20.7124,2.90424,-0.494072
251.8,20.7656,2.91773,-0.4986
252.4,20.8254,2.92089,-0.503489
253,20.8824,2.92726,-0.508284
253.6,20.9393,2.93979,-0.513782
254.2,20.9958,2.94486,-0.518256
254.8,21.0521,2.95326,-0.523012
255.4,21.1089,2.96814,-0.529042
256,21.1657,2.97644,-0.534495
256.6,21.2226,2.9809,-0.539138
257.2,21.2793,3.00281,-0.54544
257.8,21.3361,3.00927,-0.550707
258.4,21.3938,3.01891,-0.556447
259,21.4494,3.03657,-0.562359
259.6,21.5067,3.05136,-0.568825
260.2,21.564,3.0566,-0.575779
260.8,21.6212,3.07271,-0.580831
261.4,21.6776,3.08706,-0.5873
262,21.7348,3.10634,-0.594388
262.6,21.7918,3.12616,-0.599664
263.2,21.8487,3.14921,-0.60598
263.8,21.9049,3.15914,-0.612229
264.4,21.9625,3.18172,-0.61876
265,22.0191,3.1994,-0.627544
265.6,22.0764,3.21328,-0.635387
266.2,22.1335,3.23737,-0.642391
266.8,22.1904,3.25433,-0.6487
267.4,22.2476,3.27081,-0.656028
268,22.3048,3.29731,-0.663227
268.6,22.3614,3.31002,-0.671135
269.2,22.4193,3.3241,-0.676414
269.8,22.475,3.3397,-0.684463
270.4,22.5338,3.36277,-0.692608
271,22.5897,3.37628,-0.697349
271.6,22.6466,3.39269,-0.704262
272.2,22.704,3.41457,-0.719149
272.8,22.7599,3.42931,-0.727198
273.4,22.8172,3.44428,-0.734713
274,22.8752,3.45307,-0.744542
274.6,22.9316,3.46921,-0.751156
275.2,22.9879,3.48464,-0.757797
275.8,23.0457,3.49385,-0.76628
276.4,23.1029,3.51041,-0.774717
277,23.1589,3.52247,-0.782748
277.6,23.2176,3.52676,-0.790066
278.2,23.2741,3.53407,-0.799878
278.8,23.3304,3.54729,-0.807806
279.4,23.3879,3.55798,-0.816769
280,23.4454,3.56194,-0.825214
280.6,23.5016,3.56223,-0.833094
281.2,23.5592,3.56589,-0.842074
281.8,23.6152,3.57316,-0.851582
282.4,23.6728,3.57149,-0.85923
283,23.7302,3.57367,-0.867796
283.6,23.7856,3.58003,-0.876664
284.2,23.8443,3.56489,-0.885676
284.8,23.8998,3.57268,-0.893113
285.4,23.9573,3.56912,-0.901346
286,24.0146,3.57094,-0.909462
286.6,24.0717,3.56183,-0.916591
287.2,24.1289,3.555,-0.926448
287.8,24.1827,3.55098,-0.933788
288.4,24.2425,3.54159,-0.941984
289,24.2993,3.52417,-0.950209
289.6,24.3562,3.51353,-0.958332
290.2,24.4124,3.50654,-0.966076
290.8,24.4696,3.48809,-0.973628
291.4,24.5264,3.48457,-0.983154
292,24.5833,3.46445,-0.991577
292.6,24.6402,3.45735,-0.999947
293.2,24.6977,3.43974,-1.00823
293.8,24.7546,3.42515,-1.01598
294.4,24.8113,3.41454,-1.02367
295,24.8674,3.40263,-1.03124
295.6,24.9252,3.38906,-1.03866
296.2,24.9822,3.37116,-1.04526
296.8,25.0392,3.35467,-1.0534
297.4,25.0958,3.34481,-1.06031
298,25.1529,3.33336,-1.06675
298.6,25.2094,3.31964,-1.07482
299.2,25.266,3.31254,-1.08324
299.8,25.3229,3.28428,-1.09101
300.4,25.3809,3.28074,-1.0984
301,25.4371,3.27029,-1.10715
301.6,25.4941,3.25858,-1.11514
302.2,25.551,3.24366,-1.1221
302.8,25.6083,3.22897,-1.12957
303.4,25.6655,3.2162,-1.13721
304,25.7217,3.20863,-1.14435
304.6,25.7786,3.19829,-1.15267
305.2,25.8349,3.1913,-1.16065
305.8,25.8923,3.18159,-1.16756
306.4,25.9493,3.1688,-1.17406
307,26.0055,3.15199,-1.18188
307.6,26.0636,3.15293,-1.18977
308.2,26.1205,3.1326,-1.19734
308.8,26.1776,3.12726,-1.20524
309.4,26.2345,3.11094,-1.21225
310,26.2912,3.10883,-1.22073
310.6,26.3485,3.08839,-1.22821
311.2,26.4054,3.08072,-1.23624
311.8,26.4627,3.08108,-1.24497
312.4,26.5204,3.06741,-1.25259
313,26.5774,3.05942,-1.26111
313.6,26.634,3.04794,-1.2677
314.2,26.6903,3.0351,-1.27557
314.8,26.7465,3.02584,-1.28427
315.4,26.8058,3.01301,-1.29322
316,26.8617,2.9979,-1.29794
316.6,26.919,2.98528,-1.30752
317.2,26.9773,2.98026,-1.3153
317.8,27.033,2.96743,-1.32382
318.4,27.0903,2.95231,-1.33103
319,27.1482,2.94376,-1.33925
319.6,27.2054,2.93335,-1.34167
320.2,27.2627,2.92573,-1.35698
320.8,27.3199,2.91061,-1.36529
321.4,27.3777,2.89658,-1.3725
322,27.4349,2.87492,-1.3801
322.6,27.4915,2.865,-1.38876
323.2,27.549,2.84886,-1.39634
323.8,27.6062,2.8261,-1.40447
324.4,27.6624,2.81644,-1.41317
325,27.7201,2.79244,-1.42146
325.6,27.7779,2.78708,-1.42833
326.2,27.8349,2.77159,-1.43605
326.8,27.8924,2.75827,-1.44388
327.4,27.9503,2.74611,-1.45142
328,28.0066,2.73271,-1.46053
328.6,28.0642,2.71367,-1.46897
329.2,28.1218,2.6985,-1.4761
329.8,28.1787,2.69321,-1.48183
330.4,28.2353,2.66769,-1.48929
331,28.2922,2.65081,-1.49825
331.6,28.3492,2.64553,-1.50523
332.2,28.4066,2.62464,-1.51078
332.8,28.4637,2.60734,-1.51822
333.4,28.5215,2.60132,-1.52734
334,28.5781,2.59086,-1.53389
334.6,28.6364,2.57705,-1.53876
335.2,28.6932,2.55412,-1.54574
335.8,28.7502,2.53587,-1.55353
336.4,28.8073,2.52812,-1.56217
337,28.8652,2.51457,-1.5728
337.6,28.9204,2.49244,-1.57599
338.2,28.9798,2.48471,-1.58062
338.8,29.0371,2.46494,-1.58717
339.4,29.0948,2.45728,-1.59401
340,29.1513,2.43984,-1.60104
340.6,29.2091,2.42361,-1.60669
341.2,29.2659,2.41142,-1.61278
341.8,29.324,2.39376,-1.62136
342.4,29.3805,2.38327,-1.62703
343,29.4379,2.37126,-1.63319
343.6,29.4965,2.36322,-1.63979
344.2,29.553,2.346,-1.6446
344.8,29.6113,2.33267,-1.65135
345.4,29.6685,2.32612,-1.65692
346,29.726,2.31758,-1.6637
346.6,29.783,2.30153,-1.66982
347.2,29.8414,2.29003,-1.67523
347.8,29.8983,2.28333,-1.68127
348.4,29.956,2.26338,-1.68752
349,30.0133,2.25475,-1.69291
349.6,30.0715,2.25132,-1.70001
350.2,30.1281,2.24136,-1.70581
350.8,30.1865,2.2222,-1.71039
351.4,30.2439,2.21393,-1.71597
352,30.3018,2.20949,-1.72205
352.6,30.3585,2.20092,-1.7255
353.2,30.4167,2.19124,-1.73136
353.8,30.4742,2.1773,-1.73608
354.4,30.532,2.1719,-1.74094
355,30.5888,2.16536,-1.74552
355.6,30.6476,2.16423,-1.75146
356.2,30.7047,2.15005,-1.75528
356.8,30.7623,2.14189,-1.76055
357.4,30.8192,2.12921,-1.76555
358,30.8791,2.12533,-1.77059
358.6,30.934,2.1117,-1.77624
359.2,30.9934,2.10745,-1.77937
359.8,31.0513,2.1024,-1.78503
360.4,31.1081,2.09845,-1.78968
361,31.1661,2.08125,-1.79392
361.6,31.2244,2.08313,-1.79855
362.2,31.2822,2.07499,-1.80421
362.8,31.3401,2.06758,-1.80927
363.4,31.3986,2.06247,-1.81424
364,31.4557,2.05701,-1.81789
364.6,31.513,2.05811,-1.82274
365.2,31.5726,2.04766,-1.82694
365.8,31.6297,2.04324,-1.83235
366.4,31.6856,2.03753,-1.83639
367,31.7455,2.03317,-1.84179
367.6,31.804,2.02021,-1.84698
368.2,31.8612,2.01795,-1.85029
368.8,31.9193,2.0105,-1.85591
369.4,31.9777,2.00669,-1.8596
370,32.0358,2.0049,-1.86409
370.6,32.0932,2.00161,-1.86868
371.2,32.1513,2.00015,-1.87348
371.8,32.2094,1.98701,-1.87699
372.4,32.267,1.98195,-1.88204
373,32.3249,1.98405,-1.88573
373.6,32.3824,1.98306,-1.89113
374.2,32.4407,1.98064,-1.89506
374.8,32.4991,1.96889,-1.89936
375.4,32.5577,1.96868,-1.90412
376,32.6155,1.96158,-1.90846
376.6,32.6737,1.95926,-1.91236
377.2,32.7309,1.94958,-1.91708
377.8,32.7891,1.9614,-1.92099
378.4,32.8482,1.95353,-1.92596
379,32.9048,1.95581,-1.92955
379.6,32.963,1.94382,-1.93484
380.2,33.0209,1.94022,-1.93911
380.8,33.0781,1.93642,-1.94413
381.4,33.1377,1.93227,-1.94968
382,33.194,1.93335,-1.95324
382.6,33.2528,1.92305,-1.95809
383.2,33.3119,1.91924,-1.96249
383.8,33.3682,1.9182,-1.96569
384.4,33.4273,1.91653,-1.96962
385,33.4842,1.90374,-1.97456
385.6,33.5432,1.90409,-1.97925
386.2,33.6015,1.90581,-1.98309
386.8,33.6573,1.89997,-1.98775
387.4,33.7171,1.90331,-1.99252
388,33.7752,1.89961,-1.99782
388.6,33.8329,1.89298,-2.00257
389.2,33.8918,1.887,-2.007
389.8,33.9491,1.88349,-2.01113
390.4,34.0069,1.88386,-2.01585
391,34.0661,1.87693,-2.01948
391.6,34.1242,1.8727,-2.02525
392.2,34.182,1.87087,-2.02792
392.8,34.2404,1.87113,-2.03241
393.4,34.2961,1.85802,-2.03884
394,34.3567,1.85607,-2.04155
394.6,34.4153,1.85369,-2.04602
395.2,34.473,1.84776,-2.05376
395.8,34.5305,1.84432,-2.05737
396.4,34.5893,1.83881,-2.06033
397,34.6472,1.83751,-2.06331
397.6,34.7054,1.8367,-2.06861
398.2,34.7634,1.82532,-2.07287
398.8,34.8198,1.822,-2.07794
399.4,34.8806,1.82927,-2.08373
400,34.9389,1.81986,-2.08961
400.6,34.997,1.80955,-2.09388
401.2,35.0557,1.80137,-2.09859
401.8,35.1142,1.80258,-2.10248
402.4,35.1717,1.80111,-2.10669
403,35.2301,1.79557,-2.11399
403.6,35.289,1.79201,-2.11862
404.2,35.3473,1.78921,-2.12221
404.8,35.4053,1.78535,-2.12657
405.4,35.4629,1.77855,-2.12906
406,35.5215,1.76705,-2.13419
406.6,35.5805,1.76732,-2.1388
407.2,35.6389,1.76599,-2.14382
407.8,35.6961,1.75858,-2.14731
408.4,35.7548,1.75798,-2.1518
409,35.8135,1.75413,-2.15734
409.6,35.8717,1.75036,-2.16008
410.2,35.93,1.74087,-2.16403
410.8,35.9871,1.74064,-2.16992
411.4,36.0476,1.73124,-2.17532
412,36.1053,1.72444,-2.17911
412.6,36.1645,1.71693,-2.18223
413.2,36.2227,1.71792,-2.18661
413.8,36.2807,1.71774,-2.19168
414.4,36.3397,1.70901,-2.19594
415,36.398,1.70814,-2.20024
415.6,36.4563,1.70744,-2.20401
416.2,36.5145,1.69587,-2.20828
416.8,36.5731,1.69385,-2.21242
417.4,36.6326,1.68738,-2.21782
418,36.69,1.68658,-2.22179
418.6,36.7494,1.68057,-2.22718
419.2,36.8081,1.67315,-2.23434
419.8,36.8662,1.67246,-2.2336
420.4,36.9246,1.66744,-2.2372
421,36.983,1.66283,-2.24176
421.6,37.0418,1.65789,-2.24684
422.2,37.101,1.65277,-2.25048
422.8,37.159,1.64326,-2.25462
423.4,37.217,1.64076,-2.25923
424,37.2745,1.63739,-2.26544
424.6,37.3329,1.62177,-2.26965
425.2,37.3923,1.63222,-2.27176
425.8,37.4505,1.61995,-2.27461
426.4,37.5085,1.61574,-2.27996
427,37.5673,1.61139,-2.28429
427.6,37.6259,1.6115,-2.28853
428.2,37.6845,1.59917,-2.29308
428.8,37.7437,1.6028,-2.29758
429.4,37.8019,1.59484,-2.29961
430,37.8604,1.59329,-2.30497
430.6,37.9191,1.5833,-2.30796
431.2,37.9773,1.59123,-2.31091
431.8,38.035,1.59204,-2.31339
432.4,38.0943,1.57127,-2.31878
433,38.1527,1.58054,-2.3228
433.6,38.2111,1.57082,-2.32694
434.2,38.2692,1.56815,-2.33016
434.8,38.3282,1.55914,-2.3338
435.4,38.3868,1.56007,-2.33838
436,38.4451,1.56053,-2.34256
436.6,38.5028,1.55794,-2.34457
437.2,38.5619,1.54859,-2.34711
437.8,38.6207,1.54023,-2.35092
438.4,38.679,1.54303,-2.35583
439,38.7381,1.53941,-2.35858
439.6,38.7969,1.53511,-2.36228
440.2,38.8555,1.53516,-2.3656
440.8,38.9139,1.5288,-2.36848
441.4,38.9732,1.52273,-2.37212
442,39.0312,1.51935,-2.37628
442.6,39.0899,1.51985,-2.38017
443.2,39.1481,1.51784,-2.38273
443.8,39.2072,1.51173,-2.38635
444.4,39.2651,1.52013,-2.38909
445,39.3231,1.51234,-2.39082
445.6,39.3829,1.51584,-2.39516
446.2,39.4416,1.50694,-2.39799
446.8,39.5006,1.50498,-2.40188
447.4,39.5566,1.49922,-2.40414
448,39.6172,1.50083,-2.408
448.6,39.6765,1.49906,-2.41094
449.2,39.7352,1.50063,-2.41403
449.8,39.7938,1.5013,-2.41766
450.4,39.853,1.49012,-2.41964
451,39.9119,1.48955,-2.42295
451.6,39.9708,1.49027,-2.42682
452.2,40.03,1.48562,-2.43022
452.8,40.0894,1.49464,-2.4339
453.4,40.1457,1.48672,-2.43752
454,40.2062,1.48168,-2.43883
454.6,40.2645,1.47822,-2.44075
455.2,40.3243,1.47367,-2.44354
455.8,40.383,1.47841,-2.44702
456.4,40.442,1.47709,-2.45043
457,40.5006,1.47501,-2.45349
457.6,40.5593,1.47558,-2.45488
458.2,40.6182,1.46575,-2.45811
458.8,40.6775,1.46281,-2.46113
459.4,40.7358,1.4652,-2.46379
460,40.7952,1.46491,-2.46701
460.6,40.8534,1.46735,-2.47027
461.2,40.9125,1.45298,-2.47325
461.8,40.9716,1.45536,-2.47586
462.4,41.0303,1.45077,-2.4787
463,41.0891,1.4496,-2.4799
463.6,41.1477,1.4504,-2.48393
464.2,41.2069,1.43607,-2.48533
464.8,41.2655,1.43913,-2.48793
465.4,41.3235,1.43025,-2.48957
466,41.3827,1.43067,-2.49243
466.6,41.4417,1.42968,-2.49545
467.2,41.501,1.42432,-2.49743
467.8,41.5601,1.42527,-2.49984
468.4,41.6183,1.42124,-2.50267
469,41.6773,1.42349,-2.50424
469.6,41.7363,1.40682,-2.50576
470.2,41.7946,1.40922,-2.51018
470.8,41.8543,1.40219,-2.51139
471.4,41.9133,1.40271,-2.51173
472,41.9718,1.39632,-2.51447
472.6,42.0305,1.4001,-2.51715
473.2,42.0876,1.3953,-2.51842
473.8,42.1486,1.3941,-2.5216
474.4,42.2082,1.38306,-2.52289
475,42.2662,1.38511,-2.52493
475.6,42.3251,1.38404,-2.52718
476.2,42.385,1.3818,-2.52947
476.8,42.4445,1.37825,-2.53105
477.4,42.5036,1.37571,-2.53314
478,42.5625,1.36513,-2.53492
478.6,42.6215,1.36679,-2.53679
479.2,42.6804,1.35846,-2.53927
479.8,42.7396,1.35537,-2.54083
480.4,42.7985,1.35381,-2.54356
481,42.857,1.35013,-2.54487
481.6,42.9168,1.34446,-2.54625
482.2,42.9768,1.33729,-2.54751
482.8,43.0353,1.339,-2.54882
483.4,43.0948,1.33415,-2.55033
484,43.1541,1.3263,-2.55027
484.6,43.214,1.31868,-2.55263
485.2,43.272,1.32161,-2.55554
485.8,43.3325,1.31638,-2.55676
486.4,43.3911,1.31151,-2.55824
487,43.4501,1.31351,-2.55839
487.6,43.5097,1.31352,-2.55996
488.2,43.5687,1.31091,-2.56123
488.8,43.6275,1.3045,-2.56276
489.4,43.6866,1.3024,-2.56499
490,43.7469,1.3019,-2.56642
490.6,43.8055,1.29844,-2.56654
491.2,43.8644,1.29293,-2.56783
491.8,43.9245,1.29282,-2.56871
492.4,43.9828,1.28131,-2.57087
493,44.0426,1.2773,-2.57144
493.6,44.1014,1.2767,-2.57273
494.2,44.1601,1.26885,-2.57452
494.8,44.2202,1.26318,-2.57649
495.4,44.2785,1.26571,-2.57804
496,44.3382,1.26027,-2.57934
496.6,44.3973,1.25849,-2.58067
497.2,44.4561,1.25735,-2.5807
497.8,44.5158,1.24973,-2.58199
498.4,44.5746,1.25097,-2.58339
499,44.6338,1.24682,-2.58333
499.6,44.6932,1.24549,-2.58554
500.2,44.7521,1.24296,-2.58484
500.8,44.8117,1.24616,-2.58628
501.4,44.8709,1.24335,-2.58748
502,44.9296,1.23572,-2.59011
502.6,44.9897,1.24182,-2.59148
503.2,45.0489,1.23696,-2.59011
503.8,45.107,1.23173,-2.59193
504.4,45.1676,1.23366,-2.59275
505,45.2265,1.22919,-2.59406
505.6,45.2853,1.22591,-2.59441
506.2,45.3442,1.22434,-2.59533
506.8,45.4037,1.21888,-2.5967
507.4,45.4608,1.21907,-2.59801
508,45.5214,1.21607,-2.59938
508.6,45.5812,1.22116,-2.59932
509.2,45.6404,1.21253,-2.59933
509.8,45.7001,1.21151,-2.60197
510.4,45.7598,1.20536,-2.60328
511,45.8186,1.20283,-2.60229
511.6,45.8774,1.20136,-2.60295
512.2,45.9362,1.20258,-2.60398
512.8,45.997,1.19637,-2.60733
513.4,46.0547,1.20409,-2.6073
514,46.1143,1.20307,-2.60735
514.6,46.1744,1.18615,-2.60865
515.2,46.2329,1.1926,-2.60999
515.8,46.2927,1.188,-2.60997
516.4,46.352,1.1859,-2.61128
517,46.4118,1.1822,-2.60998
517.6,46.4707,1.18135,-2.60996
518.2,46.5305,1.18257,-2.61193
518.8,46.5897,1.1736,-2.61393
519.4,46.649,1.18537,-2.61525
520,46.7075,1.17627,-2.61525
520.6,46.7685,1.17797,-2.61656
521.2,46.8267,1.17315,-2.61656
521.8,46.8867,1.17044,-2.61787
522.4,46.9459,1.16382,-2.61919
523,47.0058,1.16877,-2.61925
523.6,47.0639,1.16988,-2.61921
524.2,47.1236,1.16452,-2.62053
524.8,47.1834,1.16272,-2.62044
525.4,47.2434,1.16021,-2.62184
526,47.3027,1.15323,-2.62338
526.6,47.362,1.15149,-2.62459
527.2,47.4214,1.14951,-2.62459
527.8,47.4817,1.14734,-2.62459
528.4,47.5403,1.14616,-2.6259
529,47.6001,1.14835,-2.62451
529.6,47.6603,1.14962,-2.6259
530.2,47.7199,1.15079,-2.62722
530.8,47.7782,1.14058,-2.62855
531.4,47.8368,1.14226,-2.62989
532,47.8984,1.13783,-2.63046
532.6,47.9575,1.13579,-2.63103
533.2,48.0168,1.14096,-2.6315
533.8,48.0765,1.13428,-2.6315
534.4,48.1363,1.13567,-2.63282
535,48.1959,1.13548,-2.63281
535.6,48.2559,1.12501,-2.63446
536.2,48.3152,1.12919,-2.63576
536.8,48.3752,1.1318,-2.63578
537.4,48.434,1.12269,-2.63576
538,48.4941,1.12524,-2.63645
538.6,48.5534,1.11849,-2.63777
539.2,48.6141,1.11435,-2.63784
539.8,48.673,1.12167,-2.63927
540.4,48.7327,1.11106,-2.63965
541,48.7927,1.11543,-2.64093
541.6,48.852,1.11782,-2.64105
542.2,48.9128,1.11268,-2.64135
542.8,48.9718,1.12105,-2.64237
543.4,49.0315,1.11968,-2.64369
544,49.0914,1.11902,-2.64472
544.6,49.1509,1.12044,-2.64466
545.2,49.2106,1.11321,-2.645
545.8,49.27,1.11093,-2.64604
546.4,49.3303,1.11747,-2.64634
547,49.3895,1.11603,-2.64669
547.6,49.4491,1.11438,-2.64764
548.2,49.5082,1.11419,-2.64854
548.8,49.5678,1.10368,-2.64891
549.4,49.6282,1.10559,-2.64993
550,49.6875,1.10793,-2.64895
550.6,49.7482,1.10282,-2.65172
551.2,49.8072,1.10144,-2.65613
551.8,49.8671,1.0979,-2.65148
552.4,49.9265,1.1035,-2.65039
553,49.9867,1.10285,-2.65163
553.6,50.0458,1.10211,-2.65281
554.2,50.1064,1.10469,-2.6552
554.8,50.1654,1.10318,-2.65518
555.4,50.2255,1.10575,-2.65655
556,50.2845,1.1051,-2.65685
556.6,50.3447,1.11016,-2.65821
557.2,50.4033,1.10425,-2.65817
557.8,50.4637,1.09996,-2.65843
558.4,50.5238,1.10915,-2.65949
559,50.5827,1.10692,-2.65944
559.6,50.6427,1.10372,-2.66072
560.2,50.7028,1.10237,-2.66217
560.8,50.7617,1.10699,-2.66344
561.4,50.8197,1.10517,-2.66201
562,50.8814,1.10527,-2.66268
562.6,50.9408,1.10369,-2.66505
563.2,51.0012,1.10069,-2.66498
563.8,51.0616,1.10245,-2.66498
564.4,51.1218,1.10117,-2.66634
565,51.181,1.10887,-2.66733
565.6,51.241,1.10097,-2.66728
566.2,51.2992,1.10282,-2.66728
566.8,51.3606,1.09953,-2.6686
567.4,51.4209,1.09798,-2.66992
568,51.4799,1.09746,-2.66991
568.6,51.5407,1.09708,-2.67122
569.2,51.5997,1.10042,-2.67156
569.8,51.6598,1.09941,-2.67228
570.4,51.7199,1.10158,-2.67288
571,51.7793,1.09689,-2.67289
571.6,51.8392,1.10806,-2.6742
572.2,51.8998,1.10475,-2.67421
572.8,51.9601,1.10854,-2.67585
573.4,52.0194,1.10999,-2.67716
574,52.0792,1.09604,-2.67716
574.6,52.1399,1.10236,-2.67718
575.2,52.1986,1.09804,-2.67848
575.8,52.2588,1.09724,-2.6798
576.4,52.3184,1.09155,-2.6783
577,52.3791,1.0962,-2.67849
577.6,52.4377,1.09194,-2.6798
578.2,52.4985,1.09729,-2.68112
578.8,52.5572,1.09565,-2.68244
579.4,52.6178,1.09773,-2.68244
580,52.6773,1.09833,-2.68182
580.6,52.7368,1.09404,-2.68243
581.2,52.7971,1.09281,-2.68374
581.8,52.8566,1.08648,-2.68375
582.4,52.9175,1.08785,-2.68651
583,52.9773,1.08286,-2.68724
583.6,53.0344,1.08161,-2.68645
584.2,53.0966,1.08585,-2.68635
584.8,53.1559,1.08004,-2.68773
585.4,53.2162,1.07458,-2.68902
586,53.2739,1.08354,-2.68902
586.6,53.335,1.07573,-2.68938
587.2,53.3949,1.07868,-2.69034
587.8,53.4546,1.07152,-2.69174
588.4,53.5145,1.07814,-2.69166
589,53.575,1.07119,-2.69166
589.6,53.6343,1.07191,-2.68848
590.2,53.6949,1.0758,-2.69061
590.8,53.7538,1.0722,-2.69529
591.4,53.8133,1.07221,-2.69539
592,53.8738,1.07116,-2.69539
592.6,53.9338,1.07463,-2.69541
593.2,53.9935,1.06924,-2.69671
593.8,54.0533,1.07,-2.69671
594.4,54.1128,1.0638,-2.69801
595,54.1722,1.06242,-2.69802
595.6,54.2325,1.06554,-2.69802
596.2,54.292,1.06204,-2.69795
596.8,54.3511,1.06323,-2.6994
597.4,54.4106,1.06284,-2.69801
598,54.4714,1.06058,-2.69986
598.6,54.531,1.05917,-2.70048
599.2,54.5901,1.05198,-2.70166
599.8,54.6505,1.05564,-2.70297
600.4,54.7095,1.05705,-2.70428
601,54.7701,1.05863,-2.70297
601.6,54.8271,1.05139,-2.70428
602.2,54.8895,1.05366,-2.70497
602.8,54.9489,1.04923,-2.70527
603.4,55.0091,1.04726,-2.7056
604,55.0682,1.04394,-2.70672
604.6,55.1286,1.03615,-2.7079
605.2,55.188,1.03347,-2.70687
605.8,55.2476,1.03656,-2.70725
606.4,55.3083,1.035,-2.70725
607,55.3678,1.0355,-2.70726
607.6,55.4282,1.03128,-2.70791
608.2,55.4874,1.03749,-2.70923
608.8,55.5476,1.03994,-2.71057
609.4,55.6078,1.03472,-2.71056
610,55.6679,1.03484,-2.71186
610.6,55.7289,1.03292,-2.71251
611.2,55.7865,1.03773,-2.71185
611.8,55.848,1.03452,-2.71186
612.4,55.9082,1.03123,-2.71186
613,55.968,1.03119,-2.71183
613.6,56.028,1.03696,-2.71351
614.2,56.0885,1.03536,-2.71579
614.8,56.1479,1.03397,-2.71608
615.4,56.2079,1.0336,-2.71581
616,56.2677,1.03525,-2.71581
616.6,56.327,1.03178,-2.7158
617.2,56.388,1.02669,-2.71713
617.8,56.4481,1.0375,-2.71845
618.4,56.5082,1.02978,-2.71845
619,56.5675,1.03578,-2.71715
619.6,56.6282,1.03133,-2.71844
620.2,56.688,1.03156,-2.71977
620.8,56.7491,1.0335,-2.71976
621.4,56.8084,1.03139,-2.72108
622,56.8684,1.02701,-2.72108
622.6,56.9287,1.02834,-2.72138
623.2,56.9896,1.03396,-2.7224
623.8,57.0488,1.03354,-2.7224
624.4,57.1091,1.02398,-2.72248
625,57.1697,1.02055,-2.7224
625.6,57.2285,1.02295,-2.72371
626.2,57.2897,1.01846,-2.72371
626.8,57.35,1.01597,-2.72413
627.4,57.4092,1.01711,-2.72503
628,57.4691,1.01407,-2.72635
628.6,57.5288,1.01222,-2.72635
629.2,57.5872,1.01765,-2.72769
629.8,57.6495,1.02017,-2.72733
630.4,57.7099,1.01039,-2.72734
631,57.7706,1.01087,-2.72781
631.6,57.8301,1.00123,-2.72865
632.2,57.8883,1.00261,-2.72931
632.8,57.9497,0.997246,-2.72931
633.4,58.0101,1.00047,-2.73063
634,58.0707,0.99604,-2.72997
634.6,58.1302,0.998414,-2.7313
635.2,58.1899,0.993753,-2.73169
635.8,58.2502,0.999712,-2.73265
636.4,58.3099,0.991039,-2.73259
637,58.3712,0.989559,-2.7326
637.6,58.4303,0.994842,-2.7326
638.2,58.4911,0.991957,-2.73275
638.8,58.5507,0.989813,-2.73392
639.4,58.6089,0.99475,-2.73535
640,58.671,0.990323,-2.73671
640.6,58.7318,0.997088,-2.73536
641.2,58.7912,0.999815,-2.73546
641.8,58.851,0.991951,-2.73766
642.4,58.9122,0.98792,-2.73765
643,58.973,0.986226,-2.73674
643.6,59.0326,0.993728,-2.73671
644.2,59.0908,0.986968,-2.73799
644.8,59.1518,0.987957,-2.73799
645.4,59.2126,0.992438,-2.73792
646,59.2717,0.982541,-2.73931
646.6,59.3334,0.984673,-2.74068
647.2,59.3928,0.981707,-2.74063
647.8,59.4527,0.984654,-2.74195
648.4,59.5137,0.980244,-2.74323
649,59.5732,0.983363,-2.74326
649.6,59.6328,0.982462,-2.74459
650.2,59.6939,0.980799,-2.74431
650.8,59.7543,0.975785,-2.74328
651.4,59.8126,0.979532,-2.74387
652,59.8746,0.974935,-2.74458
652.6,59.9342,0.977124,-2.74542
653.2,59.9946,0.97248,-2.74457
653.8,60.0554,0.971884,-2.7454
654.4,60.1149,0.975026,-2.7472
655,60.1755,0.965994,-2.74718
655.6,60.2365,0.969721,-2.74719
656.2,60.2963,0.96536,-2.74832
656.8,60.3572,0.965411,-2.74853
657.4,60.4178,0.971009,-2.74853
658,60.477,0.967741,-2.74853
658.6,60.5383,0.966191,-2.74853
659.2,60.5978,0.9652,-2.74984
659.8,60.6575,0.954096,-2.75117
660.4,60.7186,0.961157,-2.75116
661,60.7791,0.954618,-2.75248
661.6,60.8391,0.959387,-2.75235
662.2,60.8998,0.959769,-2.75248
662.8,60.9602,0.964095,-2.75319
663.4,61.02,0.954934,-2.75383
664,61.08,0.954112,-2.7538
664.6,61.1399,0.952421,-2.75511
665.2,61.2014,0.95308,-2.75972
665.8,61.2609,0.944686,-2.75564
666.4,61.3211,0.943958,-2.75343
667,61.3808,0.950599,-2.75445
667.6,61.4415,0.942567,-2.75585
668.2,61.5019,0.943048,-2.7559
668.8,61.5628,0.941043,-2.75702
669.4,61.6228,0.943643,-2.7561
670,61.6836,0.953333,-2.75836
670.6,61.7437,0.9431,-2.75873
671.2,61.8041,0.937761,-2.75924
671.8,61.865,0.944031,-2.75864
672.4,61.9249,0.939235,-2.76005
673,61.9852,0.937071,-2.76037
673.6,62.0437,0.937788,-2.76083
674.2,62.1062,0.927096,-2.7617
674.8,62.1669,0.927997,-2.76218
675.4,62.2263,0.933594,-2.76301
676,62.2877,0.924065,-2.76301
676.6,62.3478,0.936353,-2.76687
677.2,62.4084,0.937538,-2.76428
677.8,62.4683,0.921747,-2.76291
678.4,62.5293,0.931527,-2.76159
679,62.5897,0.93136,-2.7616
679.6,62.6499,0.933032,-2.7657
680.2,62.7093,0.917701,-2.76565
680.8,62.7707,0.929297,-2.76566
681.4,62.8311,0.918923,-2.76697
682,62.8916,0.91932,-2.76692
682.6,62.9524,0.916733,-2.76829
683.2,63.0132,0.918205,-2.76829
683.8,63.0723,0.905957,-2.76832
684.4,63.1326,0.89382,-2.76961
685,63.1928,0.896268,-2.76994
685.6,63.2529,0.888784,-2.77092
686.2,63.3144,0.891101,-2.77092
686.8,63.374,0.891956,-2.77092
687.4,63.4346,0.889855,-2.77234
688,63.4958,0.886024,-2.76965
688.6,63.5555,0.877991,-2.76719
689.2,63.6155,0.875643,-2.77243
689.8,63.6771,0.878682,-2.77402
690.4,63.7362,0.885297,-2.7741
691,63.7968,0.888371,-2.77278
691.6,63.8576,0.883357,-2.77506
692.2,63.9193,0.884281,-2.77542
692.8,63.9792,0.87809,-2.77543
693.4,64.0383,0.878261,-2.77674
694,64.0991,0.879526,-2.77641
694.6,64.16,0.878596,-2.77565
695.2,64.2206,0.879775,-2.77674
695.8,64.2812,0.879508,-2.77675
696.4,64.3419,0.876664,-2.77806
697,64.4023,0.872902,-2.77861
697.6,64.4625,0.873382,-2.77941
698.2,64.5227,0.874855,-2.779
698.8,64.5837,0.875071,-2.7794
699.4,64.6448,0.870637,-2.78069
700,64.7036,0.876222,-2.78069
700.6,64.7654,0.877414,-2.78069
701.2,64.8255,0.872135,-2.78198
701.8,64.8858,0.864343,-2.78201
702.4,64.9465,0.869728,-2.78345
703,65.0071,0.869776,-2.782
703.6,65.0679,0.859026,-2.78333
704.2,65.1274,0.860188,-2.78452
704.8,65.1898,0.85989,-2.78464
705.4,65.2485,0.861316,-2.78464
706,65.3098,0.86049,-2.78596
706.6,65.3702,0.849464,-2.78596
707.2,65.4319,0.848658,-2.78725
707.8,65.4908,0.845556,-2.78596
708.4,65.552,0.845314,-2.78593
709,65.6114,0.841981,-2.78703
709.6,65.6724,0.838221,-2.78597
710.2,65.7338,0.842596,-2.78728
710.8,65.7915,0.830102,-2.78857
711.4,65.8546,0.831455,-2.78923
712,65.9143,0.82305,-2.79036
712.6,65.9759,0.830368,-2.7908
713.2,66.036,0.820533,-2.79037
713.8,66.0962,0.825404,-2.78904
714.4,66.158,0.816593,-2.79035
715,66.2181,0.813917,-2.79168
715.6,66.2789,0.812075,-2.79167
716.2,66.34,0.805538,-2.79299
716.8,66.4008,0.799904,-2.79417
717.4,66.4608,0.792064,-2.79816
718,66.5211,0.792132,-2.79383
718.6,66.5822,0.786204,-2.79251
719.2,66.6422,0.784726,-2.79417
719.8,66.7042,0.780003,-2.79517
720.4,66.7635,0.787035,-2.7965
721,66.8238,0.779284,-2.7965
721.6,66.8851,0.787765,-2.7965
722.2,66.9456,0.787823,-2.79786
722.8,67.0065,0.780447,-2.79914
723.4,67.0668,0.784982,-2.79913
724,67.1274,0.783678,-2.80004
724.6,67.1884,0.784595,-2.80234
725.2,67.2486,0.782108,-2.80287
725.8,67.3092,0.775407,-2.79939
726.4,67.3702,0.778612,-2.79979
727,67.4307,0.777372,-2.80067
727.6,67.4918,0.778905,-2.80067
728.2,67.5518,0.77048,-2.80192
728.8,67.6122,0.773337,-2.80327
729.4,67.6732,0.774624,-2.8033
730,67.7331,0.769586,-2.80461
730.6,67.7946,0.761735,-2.80462
731.2,67.8548,0.76566,-2.80462
731.8,67.9154,0.765639,-2.80533
732.4,67.976,0.767837,-2.80463
733,68.0365,0.757774,-2.80463
733.6,68.0977,0.762959,-2.80594
734.2,68.156,0.762409,-2.80604
734.8,68.219,0.759934,-2.80857
735.4,68.2787,0.762791,-2.80855
736,68.3394,0.754835,-2.80857
736.6,68.3996,0.761679,-2.8099
737.2,68.4611,0.760053,-2.8112
737.8,68.5208,0.759441,-2.81121
738.4,68.5818,0.750467,-2.81121
739,68.6422,0.752592,-2.81119
739.6,68.7026,0.750835,-2.81122
740.2,68.7628,0.75904,-2.81154
740.8,68.8242,0.760801,-2.81285
741.4,68.8839,0.751899,-2.81288
742,68.9446,0.74931,-2.81429
742.6,69.0046,0.741023,-2.81435
743.2,69.0649,0.752154,-2.81296
743.8,69.126,0.74601,-2.81428
744.4,69.1864,0.742791,-2.81449
745,69.247,0.743513,-2.81692
745.6,69.3071,0.744909,-2.81611
746.2,69.3664,0.747325,-2.81706
746.8,69.428,0.745179,-2.81824
747.4,69.4889,0.747468,-2.81824
748,69.5484,0.740772,-2.81824
748.6,69.6101,0.73834,-2.8193
749.2,69.671,0.741845,-2.81955
749.8,69.7314,0.742448,-2.81953
750.4,69.7924,0.742347,-2.82008
751,69.8521,0.741229,-2.82055
751.6,69.9112,0.743893,-2.82088
752.2,69.9745,0.747501,-2.8223
752.8,70.0346,0.735194,-2.82219
753.4,70.0953,0.739609,-2.82219
754,70.1564,0.73709,-2.82348
754.6,70.2155,0.74247,-2.82453
755.2,70.2783,0.742318,-2.82482
755.8,70.3392,0.735335,-2.82482
756.4,70.3995,0.73299,-2.82625
757,70.4601,0.737756,-2.82625
757.6,70.5213,0.72988,-2.82766
758.2,70.5817,0.733726,-2.82756
758.8,70.6425,0.739274,-2.8275
759.4,70.7034,0.73195,-2.82776
760,70.764,0.731532,-2.82757
760.6,70.8229,0.72383,-2.82758
761.2,70.8856,0.732423,-2.82889
761.8,70.9471,0.730666,-2.82909
762.4,71.0082,0.731231,-2.83019
763,71.068,0.728729,-2.8302
763.6,71.1293,0.726299,-2.8302
764.2,71.1896,0.725512,-2.83152
764.8,71.2509,0.723513,-2.83132
765.4,71.311,0.724332,-2.83152
766,71.3726,0.727658,-2.83152
766.6,71.4329,0.728113,-2.83146
767.2,71.4938,0.728906,-2.83291
767.8,71.5544,0.729559,-2.83416
768.4,71.6153,0.7299,-2.83416
769,71.6768,0.729501,-2.83545
769.6,71.7376,0.734212,-2.83679
770.2,71.7977,0.730242,-2.83679
770.8,71.8576,0.729931,-2.8368
771.4,71.92,0.735509,-2.83811
772,71.9811,0.729184,-2.83942
772.6,72.0424,0.730899,-2.83791
773.2,72.1021,0.731805,-2.83745
773.8,72.1643,0.735418,-2.83745
774.4,72.2246,0.727528,-2.83865
775,72.2858,0.736321,-2.84008
775.6,72.3459,0.733443,-2.84008
776.2,72.4068,0.735191,-2.84007
776.8,72.4682,0.73611,-2.84009
777.4,72.5288,0.729078,-2.84008
778,72.5895,0.737395,-2.84142
778.6,72.6508,0.738217,-2.84272
779.2,72.7111,0.734257,-2.8432
779.8,72.7731,0.727852,-2.84435
780.4,72.8343,0.733903,-2.84568
781,72.8935,0.744765,-2.84568
781.6,72.9569,0.732545,-2.84568
782.2,73.0176,0.734014,-2.847
782.8,73.0766,0.742715,-2.847
783.4,73.1394,0.733176,-2.847
784,73.2005,0.728365,-2.8483
784.6,73.2614,0.726563,-2.84837
785.2,73.322,0.724173,-2.84743
785.8,73.3827,0.717918,-2.8484
786.4,73.4437,0.714871,-2.84832
787,73.5058,0.713677,-2.84832
787.6,73.5654,0.711453,-2.84835
788.2,73.6266,0.709907,-2.84964
788.8,73.6883,0.706293,-2.84964
789.4,73.749,0.711304,-2.85096
790,73.8096,0.709973,-2.85096