File: 01_Data/Kevlar_Nomex_Turnout_Gear_Thermal_Liner/STA/N2/10K_min/Kevlar_Nomex_Turnout_Gear_Thermal_Liner_STA_N2_10KData_240522_R1.csv
Temp./C,Time/min,DSC/(mW/mg),Mass loss/mg
60.0,0.0,0.827504,-0.0230766
60.5,0.0566062,0.846627,-0.0230485
61,0.112423,0.855897,-0.0230723
61.5,0.168834,0.884227,-0.0230711
62,0.225048,0.894464,-0.02318
62.5,0.279143,0.910647,-0.023003
63,0.334957,0.927537,-0.0243482
63.5,0.388933,0.934946,-0.0230595
64,0.444533,0.947381,-0.0244641
64.5,0.497586,0.956786,-0.0240105
65,0.55087,0.97105,-0.0234222
65.5,0.606786,0.986832,-0.0240089
66,0.660714,0.99463,-0.0243568
66.5,0.712211,1.00899,-0.0258142
67,0.766519,1.01721,-0.0246274
67.5,0.820522,1.02809,-0.0256777
68,0.873295,1.0379,-0.0270711
68.5,0.926767,1.04532,-0.0257625
69,0.979281,1.05904,-0.0265075
69.5,1.02962,1.06557,-0.0256796
70,1.08567,1.08282,-0.024325
70.5,1.13839,1.0863,-0.0256192
71,1.1904,1.09605,-0.0273477
71.5,1.24191,1.10743,-0.0273964
72,1.29437,1.11425,-0.0274297
72.5,1.3471,1.11933,-0.0274401
73,1.4004,1.12851,-0.027425
73.5,1.4534,1.13976,-0.0274367
74,1.5031,1.15238,-0.0287556
74.5,1.55631,1.1613,-0.0287677
75,1.60887,1.17642,-0.0298111
75.5,1.65854,1.18707,-0.0287585
76,1.71169,1.18754,-0.0291055
76.5,1.76364,1.19405,-0.0313259
77,1.81427,1.20418,-0.0288482
77.5,1.86687,1.21222,-0.02887
78,1.91822,1.21927,-0.0288701
78.5,1.97012,1.23138,-0.0301453
79,2.01957,1.2296,-0.0301819
79.5,2.07257,1.2426,-0.0314791
80,2.12449,1.24236,-0.032656
80.5,2.17414,1.24817,-0.0328201
81,2.22602,1.25268,-0.0328197
81.5,2.27591,1.25761,-0.0335016
82,2.32728,1.26231,-0.0338117
82.5,2.37475,1.25792,-0.0331392
83,2.42906,1.26356,-0.0342384
83.5,2.47857,1.271,-0.0344603
84,2.53054,1.27188,-0.0341722
84.5,2.5821,1.26516,-0.0334794
85,2.63244,1.27043,-0.03348
85.5,2.68191,1.27603,-0.0334707
86,2.73148,1.27618,-0.0347993
86.5,2.78312,1.28003,-0.0369655
87,2.83152,1.2817,-0.0374124
87.5,2.8829,1.27897,-0.0365016
88,2.93212,1.28235,-0.0370998
88.5,2.98155,1.27529,-0.0371
89,3.03176,1.28295,-0.0371007
89.5,3.08107,1.28162,-0.0374638
90,3.1308,1.28483,-0.0373431
90.5,3.18077,1.27895,-0.0387398
91,3.23096,1.28692,-0.0387403
91.5,3.27965,1.27207,-0.0385781
92,3.32961,1.26912,-0.0390743
92.5,3.3786,1.27091,-0.038731
93,3.42738,1.26401,-0.0387429
93.5,3.47776,1.26553,-0.0411154
94,3.52636,1.25574,-0.0410486
94.5,3.57524,1.25263,-0.0420561
95,3.62593,1.25276,-0.04204
95.5,3.67478,1.24591,-0.04204
96,3.72353,1.23854,-0.04204
96.5,3.77305,1.23467,-0.04204
97,3.82248,1.22604,-0.0423023
97.5,3.87019,1.22727,-0.0423698
98,3.91891,1.21498,-0.0427367
98.5,3.96739,1.21932,-0.0427072
99,4.01704,1.20906,-0.04237
99.5,4.06406,1.20713,-0.04237
100,4.11422,1.20224,-0.0423704
100.5,4.16311,1.19251,-0.0424265
101,4.21254,1.18654,-0.0430237
101.5,4.26076,1.18444,-0.04435
102,4.30852,1.17197,-0.04435
102.5,4.35757,1.18095,-0.04435
103,4.40682,1.16312,-0.0443496
103.5,4.45447,1.15917,-0.0457917
104,4.50456,1.15425,-0.0457471
104.5,4.55236,1.15147,-0.0450113
105,4.60096,1.1472,-0.0450408
105.5,4.64948,1.1449,-0.0463203
106,4.69896,1.14202,-0.04632
106.5,4.74502,1.13515,-0.04632
107,4.79602,1.12974,-0.0463196
107.5,4.84359,1.12287,-0.0466
108,4.89264,1.12032,-0.0476394
108.5,4.94093,1.1129,-0.0476301
109,4.98888,1.10617,-0.0463288
109.5,5.03795,1.09534,-0.04632
110,5.08563,1.09984,-0.0463155
110.5,5.13559,1.09362,-0.0477
111,5.18193,1.08568,-0.0476399
111.5,5.23266,1.08496,-0.04764
112,5.28076,1.08684,-0.047652
112.5,5.32838,1.08101,-0.0476396
113,5.37649,1.07762,-0.0469956
113.5,5.42557,1.07439,-0.0453564
114,5.47411,1.07168,-0.0452613
114.5,5.52258,1.06699,-0.046664
115,5.57128,1.07224,-0.0466571
115.5,5.61934,1.06761,-0.0473026
116,5.66737,1.06653,-0.0473156
116.5,5.71628,1.0634,-0.0446378
117,5.76464,1.06028,-0.0459846
117.5,5.81166,1.0562,-0.0481954
118,5.86018,1.05481,-0.0490191
118.5,5.90872,1.04977,-0.0495119
119,5.95738,1.0483,-0.0495118
119.5,6.00686,1.04511,-0.0494946
120,6.05375,1.04778,-0.0495101
120.5,6.10225,1.04394,-0.04951
121,6.15073,1.03901,-0.04951
121.5,6.19804,1.04509,-0.04951
122,6.24661,1.03927,-0.0495357
122.5,6.29424,1.03809,-0.049111
123,6.34331,1.03506,-0.050161
123.5,6.39178,1.04242,-0.0494769
124,6.43913,1.03925,-0.0509452
124.5,6.48738,1.03642,-0.0508205
125,6.53474,1.0375,-0.05016
125.5,6.58519,1.03626,-0.0501385
126,6.63252,1.03301,-0.0488413
126.5,6.68053,1.03004,-0.0488317
127,6.7288,1.04178,-0.0488524
127.5,6.77685,1.03695,-0.0488446
128,6.82456,1.04603,-0.0514789
128.5,6.87378,1.04145,-0.05148
129,6.92001,1.04337,-0.0514802
129.5,6.96951,1.0462,-0.0514038
130,7.01739,1.04092,-0.0512594
130.5,7.06558,1.0324,-0.0514901
131,7.11065,1.04468,-0.05149
131.5,7.16218,1.03849,-0.05149
132,7.20982,1.04747,-0.0514775
132.5,7.25783,1.04581,-0.0501887
133,7.30522,1.04396,-0.0514794
133.5,7.35272,1.03989,-0.05148
134,7.39874,1.04928,-0.05148
134.5,7.44681,1.05171,-0.05148
135,7.49738,1.0457,-0.0514799
135.5,7.54606,1.04991,-0.0502191
136,7.59381,1.04826,-0.0514807
136.5,7.6418,1.05223,-0.05148
137,7.68959,1.05482,-0.05148
137.5,7.73831,1.06061,-0.05148
138,7.78575,1.05369,-0.05148
138.5,7.83356,1.06087,-0.05148
139,7.88126,1.05287,-0.0514801
139.5,7.93015,1.05629,-0.0514085
140,7.97767,1.05542,-0.052143
140.5,8.02474,1.05106,-0.0515366
141,8.0742,1.05962,-0.0514799
141.5,8.12074,1.06228,-0.0514888
142,8.16844,1.06635,-0.0514643
142.5,8.21699,1.06381,-0.05149
143,8.26473,1.05969,-0.05149
143.5,8.31264,1.06019,-0.05149
144,8.36105,1.05421,-0.0514919
144.5,8.4089,1.0611,-0.052676
145,8.45702,1.05771,-0.0514978
145.5,8.50507,1.06304,-0.0514799
146,8.55203,1.06603,-0.05148
146.5,8.60009,1.06513,-0.05148
147,8.64805,1.06658,-0.05148
147.5,8.69637,1.0668,-0.0514835
148,8.74481,1.06446,-0.0523237
148.5,8.7919,1.06376,-0.0514945
149,8.84012,1.0664,-0.0515158
149.5,8.88781,1.06986,-0.0524686
150,8.93715,1.06812,-0.0537775
150.5,8.98324,1.07124,-0.0537882
151,9.03158,1.07353,-0.0525702
151.5,9.07884,1.07613,-0.05247
152,9.12571,1.08149,-0.05247
152.5,9.17433,1.07405,-0.05247
153,9.22238,1.07268,-0.0524667
153.5,9.27049,1.08089,-0.0538777
154,9.31768,1.07835,-0.0537896
154.5,9.36581,1.08076,-0.0524658
155,9.41374,1.08316,-0.0537641
155.5,9.46188,1.0877,-0.05379
156,9.50676,1.08167,-0.0537852
156.5,9.55637,1.08717,-0.0531334
157,9.60459,1.08656,-0.05313
157.5,9.65288,1.09349,-0.0531235
158,9.69934,1.09667,-0.0544612
158.5,9.74716,1.09265,-0.053131
159,9.79385,1.09853,-0.05313
159.5,9.84226,1.09075,-0.05313
160,9.89066,1.0973,-0.0531299
160.5,9.93906,1.10184,-0.0531399
161,9.98587,1.09995,-0.0528658
161.5,10.0326,1.09447,-0.0527997
162,10.0807,1.09831,-0.0528
162.5,10.1286,1.1064,-0.0528032
163,10.1751,1.09826,-0.0534522
163.5,10.2232,1.1058,-0.0536391
164,10.2711,1.10639,-0.0537453
164.5,10.3181,1.10554,-0.0551116
165,10.3656,1.10208,-0.0538644
165.5,10.4133,1.10674,-0.0537897
166,10.4614,1.108,-0.0537931
166.5,10.509,1.1105,-0.0524333
167,10.5575,1.11077,-0.05346
167.5,10.6022,1.1128,-0.0537863
168,10.6523,1.10527,-0.0551402
168.5,10.6994,1.10939,-0.055099
169,10.7476,1.11304,-0.0537815
169.5,10.7957,1.11389,-0.05378
170,10.8433,1.11037,-0.05378
170.5,10.8903,1.11257,-0.05378
171,10.9386,1.11494,-0.05378
171.5,10.9861,1.11138,-0.0537764
172,11.0329,1.12248,-0.0551648
172.5,11.0815,1.11524,-0.0550999
173,11.1301,1.12111,-0.0551
173.5,11.1768,1.12751,-0.0551
174,11.2254,1.12024,-0.0551001
174.5,11.2726,1.12756,-0.0554059
175,11.3201,1.12723,-0.0551057
175.5,11.3679,1.12488,-0.0551634
176,11.4152,1.13216,-0.0537874
176.5,11.4624,1.12841,-0.05379
177,11.5114,1.12341,-0.0537904
177.5,11.5596,1.13261,-0.0551151
178,11.6071,1.13078,-0.05511
178.5,11.6548,1.13575,-0.05511
179,11.7037,1.13265,-0.0551099
179.5,11.7501,1.14094,-0.0564161
180,11.7972,1.13752,-0.0564301
180.5,11.8446,1.1385,-0.05643
181,11.8928,1.13413,-0.05643
181.5,11.938,1.13661,-0.0563599
182,11.9867,1.13748,-0.0564062
182.5,12.036,1.14208,-0.05642
183,12.0833,1.1399,-0.05642
183.5,12.1281,1.13606,-0.05642
184,12.1784,1.14097,-0.05642
184.5,12.2254,1.14493,-0.05642
185,12.2735,1.14454,-0.05642
185.5,12.3225,1.14817,-0.05642
186,12.3691,1.14312,-0.05642
186.5,12.4168,1.14935,-0.05642
187,12.4651,1.14972,-0.05642
187.5,12.5125,1.1572,-0.0564417
188,12.5599,1.15791,-0.057416
188.5,12.6077,1.16253,-0.05741
189,12.6552,1.15557,-0.05741
189.5,12.7031,1.15224,-0.0574101
190,12.7506,1.15349,-0.0573285
190.5,12.7968,1.1584,-0.0585802
191,12.8452,1.16193,-0.058702
191.5,12.8918,1.15864,-0.0590594
192,12.9406,1.16392,-0.05906
192.5,12.9874,1.16077,-0.05906
193,13.0346,1.1649,-0.05906
193.5,13.0826,1.16513,-0.05906
194,13.1306,1.17087,-0.05906
194.5,13.1775,1.16802,-0.0590725
195,13.2245,1.17361,-0.0617118
195.5,13.272,1.17696,-0.0616899
196,13.3202,1.17942,-0.0616898
196.5,13.3677,1.17258,-0.0616999
197,13.4138,1.17892,-0.0630102
197.5,13.4635,1.18101,-0.06301
198,13.5101,1.18935,-0.06301
198.5,13.5576,1.19375,-0.06301
199,13.6045,1.1946,-0.06301
199.5,13.6522,1.19829,-0.0630101
200,13.7002,1.2014,-0.0633083
200.5,13.7473,1.20085,-0.0622588
201,13.7938,1.19537,-0.0618394
201.5,13.8424,1.20067,-0.0651379
202,13.8891,1.2067,-0.0670778
202.5,13.9374,1.21157,-0.0673
203,13.9844,1.20787,-0.0674192
203.5,14.031,1.20889,-0.0686082
204,14.0791,1.21278,-0.068591
204.5,14.1275,1.21276,-0.0696
205,14.1752,1.21699,-0.0696
205.5,14.2224,1.21801,-0.0695999
206,14.2706,1.22587,-0.0695456
206.5,14.3175,1.22735,-0.0709107
207,14.3643,1.23579,-0.0709098
207.5,14.4129,1.23308,-0.0710875
208,14.4609,1.23896,-0.0726186
208.5,14.5066,1.24142,-0.0722395
209,14.5552,1.25099,-0.0718906
209.5,14.6024,1.25477,-0.0732258
210,14.6504,1.25565,-0.0745018
210.5,14.6971,1.26326,-0.0749178
211,14.7451,1.26819,-0.07586
211.5,14.7937,1.26992,-0.0772594
212,14.8415,1.27405,-0.0786082
212.5,14.8892,1.28259,-0.0799018
213,14.9367,1.28764,-0.0799199
213.5,14.9845,1.28674,-0.0803286
214,15.0317,1.29772,-0.0811841
214.5,15.0795,1.29753,-0.0825526
215,15.1279,1.30913,-0.0825386
215.5,15.1749,1.31853,-0.0851413
216,15.2231,1.32141,-0.086615
216.5,15.2702,1.33643,-0.0866131
217,15.3183,1.33721,-0.0880411
217.5,15.3663,1.3446,-0.0893625
218,15.4133,1.35527,-0.090721
218.5,15.4619,1.37561,-0.0933258
219,15.5089,1.3782,-0.0948591
219.5,15.5572,1.39345,-0.0961717
220,15.6053,1.40498,-0.0987765
220.5,15.6522,1.42017,-0.100283
221,15.7013,1.43515,-0.100229
221.5,15.7481,1.44314,-0.100285
222,15.7957,1.45562,-0.104879
222.5,15.8444,1.46485,-0.108183
223,15.8901,1.48197,-0.109089
223.5,15.9397,1.47604,-0.109956
224,15.9872,1.45962,-0.113382
224.5,16.0337,1.44666,-0.115347
225,16.0819,1.41405,-0.117683
225.5,16.129,1.38148,-0.119638
226,16.1761,1.34625,-0.122578
226.5,16.2234,1.32648,-0.12452
227,16.2699,1.30443,-0.127019
227.5,16.3186,1.28742,-0.129094
228,16.365,1.27693,-0.131061
228.5,16.4125,1.26718,-0.133637
229,16.46,1.25911,-0.135021
229.5,16.508,1.24244,-0.137692
230,16.5549,1.23393,-0.13896
230.5,16.6025,1.22292,-0.140482
231,16.6509,1.22346,-0.143055
231.5,16.6975,1.21242,-0.145091
232,16.7453,1.20075,-0.147147
232.5,16.7924,1.18659,-0.149561
233,16.8405,1.18437,-0.151233
233.5,16.888,1.16954,-0.15119
234,16.9348,1.15909,-0.154224
234.5,16.9828,1.15088,-0.155404
235,17.0274,1.14515,-0.157966
235.5,17.0775,1.13577,-0.15797
236,17.1252,1.13283,-0.15929
236.5,17.173,1.13021,-0.159312
237,17.2201,1.12002,-0.160608
237.5,17.2682,1.12193,-0.161954
238,17.3143,1.12046,-0.16192
238.5,17.3626,1.11736,-0.161916
239,17.4104,1.11788,-0.163287
239.5,17.4576,1.11758,-0.16383
240,17.5053,1.11696,-0.164559
240.5,17.5523,1.12067,-0.16456
241,17.6003,1.12356,-0.164538
241.5,17.6482,1.13208,-0.165882
242,17.695,1.12728,-0.16588
242.5,17.743,1.12744,-0.16588
243,17.7891,1.12594,-0.16588
243.5,17.8379,1.13062,-0.16588
244,17.8822,1.13275,-0.165875
244.5,17.9326,1.13594,-0.166885
245,17.9802,1.13306,-0.165857
245.5,18.0276,1.13387,-0.16588
246,18.0753,1.13614,-0.165988
246.5,18.123,1.14485,-0.165551
247,18.1704,1.14361,-0.166257
247.5,18.2198,1.14158,-0.166209
248,18.2661,1.15123,-0.167476
248.5,18.3132,1.1516,-0.16753
249,18.3607,1.15288,-0.167568
249.5,18.4095,1.15747,-0.168839
250,18.4562,1.1647,-0.16884
250.5,18.5046,1.1732,-0.168851
251,18.5513,1.1834,-0.170138
251.5,18.5993,1.21048,-0.17015
252,18.6469,1.25189,-0.171439
252.5,18.6963,1.28046,-0.171475
253,18.744,1.32406,-0.170833
253.5,18.7914,1.36431,-0.170821
254,18.8394,1.40256,-0.171646
254.5,18.888,1.41057,-0.17214
255,18.9349,1.41519,-0.17214
255.5,18.9812,1.40289,-0.172113
256,19.0298,1.3824,-0.173464
256.5,19.0765,1.36261,-0.173712
257,19.1255,1.34396,-0.174771
257.5,19.1727,1.32447,-0.176066
258,19.2209,1.30684,-0.176077
258.5,19.2687,1.29547,-0.177071
259,19.3147,1.28205,-0.177067
259.5,19.3624,1.26893,-0.178502
260,19.4091,1.2601,-0.179795
260.5,19.4583,1.24557,-0.180263
261,19.5057,1.24852,-0.180261
261.5,19.553,1.24617,-0.181558
262,19.5997,1.2457,-0.181545
262.5,19.6489,1.24651,-0.184206
263,19.6962,1.25499,-0.185515
263.5,19.7446,1.25514,-0.186603
264,19.7897,1.26076,-0.187975
264.5,19.8398,1.28006,-0.189026
265,19.888,1.28496,-0.190822
265.5,19.9355,1.29767,-0.19271
266,19.9831,1.30561,-0.194916
266.5,20.0313,1.32166,-0.196332
267,20.0798,1.33647,-0.197646
267.5,20.1275,1.35503,-0.19782
268,20.175,1.36207,-0.199377
268.5,20.222,1.38451,-0.202179
269,20.2713,1.39364,-0.203824
269.5,20.3183,1.41453,-0.205731
270,20.3663,1.43408,-0.207007
270.5,20.4151,1.45363,-0.209401
271,20.4623,1.47625,-0.211577
271.5,20.5108,1.49519,-0.214615
272,20.558,1.51628,-0.216271
272.5,20.6065,1.54108,-0.218574
273,20.6546,1.56463,-0.222056
273.5,20.7026,1.5905,-0.226778
274,20.7511,1.61472,-0.228533
274.5,20.7998,1.64249,-0.230251
275,20.8477,1.65896,-0.233399
275.5,20.8951,1.68889,-0.236706
276,20.9434,1.71621,-0.241061
276.5,20.9918,1.743,-0.243936
277,21.0397,1.75718,-0.247663
277.5,21.0888,1.78486,-0.25192
278,21.1364,1.79754,-0.25525
278.5,21.1848,1.81949,-0.258564
279,21.2322,1.83545,-0.262288
279.5,21.2806,1.85493,-0.267183
280,21.3269,1.85769,-0.27122
280.5,21.3772,1.87449,-0.275957
281,21.4246,1.88505,-0.279877
281.5,21.4731,1.89056,-0.284242
282,21.5211,1.90467,-0.289257
282.5,21.5691,1.91104,-0.295495
283,21.6172,1.91558,-0.300554
283.5,21.6644,1.92166,-0.3043
284,21.7129,1.92717,-0.309325
284.5,21.7617,1.93892,-0.315047
285,21.8078,1.94313,-0.319717
285.5,21.8564,1.94434,-0.326065
286,21.9043,1.94564,-0.330995
286.5,21.9535,1.95166,-0.33623
287,22.0007,1.95473,-0.342211
287.5,22.0483,1.94626,-0.348769
288,22.0961,1.95623,-0.354648
288.5,22.1445,1.95268,-0.360702
289,22.1926,1.95539,-0.366958
289.5,22.2411,1.9478,-0.373515
290,22.2881,1.95056,-0.379728
290.5,22.3359,1.93852,-0.386348
291,22.3855,1.93149,-0.393899
291.5,22.4323,1.93036,-0.40097
292,22.4812,1.91761,-0.407581
292.5,22.5288,1.90482,-0.412791
293,22.5754,1.89647,-0.420257
293.5,22.6243,1.87575,-0.426025
294,22.6726,1.86702,-0.432405
294.5,22.7201,1.85135,-0.439935
295,22.7682,1.83932,-0.446494
295.5,22.8157,1.82799,-0.451978
296,22.8631,1.81181,-0.458262
296.5,22.9107,1.80218,-0.46536
297,22.9583,1.77714,-0.471934
297.5,23.0063,1.7625,-0.479941
298,23.0553,1.74197,-0.486695
298.5,23.1016,1.72528,-0.492284
299,23.1503,1.70768,-0.498017
299.5,23.1972,1.68933,-0.505402
300,23.2456,1.67218,-0.511321
300.5,23.2938,1.6476,-0.517295
301,23.3413,1.62899,-0.522672
301.5,23.3883,1.61488,-0.52942
302,23.4371,1.59626,-0.535437
302.5,23.4851,1.56633,-0.543
303,23.5327,1.54592,-0.54822
303.5,23.5801,1.52679,-0.553904
304,23.6278,1.50484,-0.559478
304.5,23.6752,1.48882,-0.564599
305,23.7234,1.45194,-0.568498
305.5,23.7711,1.4361,-0.573817
306,23.8191,1.40823,-0.580243
306.5,23.8666,1.38778,-0.583966
307,23.9145,1.36556,-0.588822
307.5,23.9621,1.34223,-0.593757
308,24.0094,1.31645,-0.598051
308.5,24.0564,1.29688,-0.602469
309,24.1049,1.27332,-0.605598
309.5,24.1529,1.25196,-0.609443
310,24.2003,1.22053,-0.6131
310.5,24.2481,1.19448,-0.61848
311,24.296,1.1772,-0.621905
311.5,24.3442,1.15219,-0.625465
312,24.3914,1.12799,-0.629203
312.5,24.4396,1.11081,-0.631999
313,24.4875,1.08949,-0.635945
313.5,24.5341,1.07195,-0.638299
314,24.5822,1.04745,-0.640008
314.5,24.6284,1.03122,-0.642565
315,24.6781,1.01543,-0.645672
315.5,24.7251,1.00368,-0.647427
316,24.7736,0.982443,-0.648672
316.5,24.822,0.967028,-0.651213
317,24.8691,0.956074,-0.652843
317.5,24.9166,0.944047,-0.65414
318,24.9647,0.933428,-0.657227
318.5,25.0128,0.925156,-0.658586
319,25.0615,0.911199,-0.657244
319.5,25.1085,0.907129,-0.658641
320,25.1575,0.898741,-0.660558
320.5,25.2031,0.890481,-0.66189
321,25.253,0.88773,-0.663821
321.5,25.3012,0.883031,-0.665278
322,25.3487,0.873333,-0.665286
322.5,25.3969,0.878557,-0.665623
323,25.4457,0.871963,-0.667599
323.5,25.4927,0.870508,-0.667547
324,25.5418,0.861955,-0.668901
324.5,25.5894,0.869668,-0.670225
325,25.6372,0.856375,-0.67153
325.5,25.6857,0.856492,-0.67154
326,25.734,0.85358,-0.671511
326.5,25.7825,0.854654,-0.671881
327,25.83,0.844382,-0.673234
327.5,25.8776,0.841057,-0.67318
328,25.9259,0.847574,-0.674502
328.5,25.9747,0.839218,-0.675804
329,26.0223,0.84339,-0.675797
329.5,26.0704,0.841268,-0.676643
330,26.1185,0.836029,-0.677211
330.5,26.167,0.842554,-0.678458
331,26.2156,0.840278,-0.67846
331.5,26.2637,0.8402,-0.679869
332,26.3102,0.848372,-0.679493
332.5,26.359,0.840156,-0.678848
333,26.4075,0.835768,-0.679736
333.5,26.4558,0.830673,-0.679771
334,26.5024,0.830309,-0.681064
334.5,26.5523,0.822134,-0.681113
335,26.6016,0.831177,-0.682408
335.5,26.6492,0.823328,-0.682415
336,26.6979,0.824179,-0.683716
336.5,26.7454,0.824263,-0.683619
337,26.7939,0.818648,-0.685026
337.5,26.8422,0.813094,-0.685379
338,26.8913,0.806618,-0.686676
338.5,26.9396,0.81258,-0.68669
339,26.9881,0.809718,-0.68669
339.5,27.0361,0.807898,-0.68669
340,27.0851,0.79918,-0.687151
340.5,27.1327,0.800553,-0.688
341,27.181,0.794696,-0.688941
341.5,27.2305,0.792749,-0.68932
342,27.2784,0.793591,-0.68932
342.5,27.3264,0.783046,-0.68932
343,27.3748,0.784737,-0.689259
343.5,27.4233,0.778587,-0.690642
344,27.4718,0.773644,-0.69064
344.5,27.5204,0.76896,-0.69064
345,27.5694,0.773549,-0.692044
345.5,27.617,0.767049,-0.691959
346,27.6656,0.764857,-0.69329
346.5,27.7133,0.765858,-0.69327
347,27.7629,0.760149,-0.693272
347.5,27.8114,0.758255,-0.694506
348,27.8604,0.753103,-0.69459
348.5,27.9094,0.745905,-0.695095
349,27.9571,0.742704,-0.69591
349.5,28.0056,0.743727,-0.69591
350,28.0549,0.740202,-0.69591
350.5,28.1022,0.735919,-0.696174
351,28.152,0.725037,-0.697112
351.5,28.201,0.735745,-0.698264
352,28.2488,0.741359,-0.699522
352.5,28.2974,0.741059,-0.69953
353,28.3464,0.737644,-0.700841
353.5,28.3948,0.732945,-0.700852
354,28.4435,0.737812,-0.702149
354.5,28.4921,0.731204,-0.702166
355,28.5405,0.726887,-0.704146
355.5,28.588,0.734131,-0.703392
356,28.6364,0.732356,-0.702395
356.5,28.6857,0.733966,-0.702898
357,28.7342,0.733748,-0.703699
357.5,28.7825,0.733745,-0.705098
358,28.8309,0.723037,-0.70494
358.5,28.8798,0.731997,-0.706009
359,28.928,0.731412,-0.70601
359.5,28.9763,0.740617,-0.706011
360,29.0257,0.739651,-0.708627
360.5,29.0743,0.739342,-0.708682
361,29.1232,0.738319,-0.707328
361.5,29.1707,0.750731,-0.708041
362,29.2188,0.739294,-0.710598
362.5,29.2685,0.745236,-0.710443
363,29.3171,0.747996,-0.708854
363.5,29.3652,0.7497,-0.710182
364,29.4135,0.74066,-0.71018
364.5,29.4619,0.757926,-0.710124
365,29.511,0.754014,-0.711504
365.5,29.5591,0.750739,-0.7115
366,29.6079,0.754019,-0.711497
366.5,29.6566,0.756497,-0.713465
367,29.7044,0.76295,-0.715436
367.5,29.7526,0.754192,-0.71545
368,29.8023,0.763016,-0.716739
368.5,29.8511,0.766594,-0.71821
369,29.8982,0.763876,-0.71668
369.5,29.9468,0.772291,-0.717858
370,29.9961,0.770518,-0.718749
370.5,30.0448,0.773245,-0.718751
371,30.0929,0.77503,-0.719094
371.5,30.142,0.780545,-0.72039
372,30.1914,0.77556,-0.721843
372.5,30.2392,0.779877,-0.721676
373,30.2863,0.784206,-0.723029
373.5,30.3361,0.784772,-0.723576
374,30.3832,0.792083,-0.724336
374.5,30.4331,0.780017,-0.724374
375,30.4817,0.78996,-0.725584
375.5,30.5317,0.79409,-0.724342
376,30.5795,0.793143,-0.724503
376.5,30.6282,0.796141,-0.725664
377,30.6771,0.802084,-0.726274
377.5,30.7262,0.806264,-0.725654
378,30.7738,0.810109,-0.726701
378.5,30.8233,0.811196,-0.728849
379,30.8727,0.814235,-0.729611
379.5,30.921,0.815619,-0.729967
380,30.9696,0.823022,-0.73027
380.5,31.0179,0.826363,-0.73027
381,31.0662,0.820755,-0.73159
381.5,31.1162,0.824731,-0.732909
382,31.165,0.832745,-0.732932
382.5,31.2133,0.835752,-0.734218
383,31.2623,0.836064,-0.734176
383.5,31.3086,0.834971,-0.735542
384,31.358,0.840123,-0.735539
384.5,31.4088,0.845538,-0.736857
385,31.4578,0.847084,-0.73543
385.5,31.507,0.842319,-0.73707
386,31.554,0.852882,-0.738707
386.5,31.6054,0.853189,-0.739926
387,31.6531,0.855414,-0.741257
387.5,31.703,0.856574,-0.742548
388,31.751,0.856816,-0.74257
388.5,31.7999,0.864315,-0.742443
389,31.8486,0.868923,-0.744335
389.5,31.8988,0.87916,-0.743994
390,31.9462,0.872374,-0.744119
390.5,31.9957,0.87981,-0.745305
391,32.0461,0.886521,-0.74542
391.5,32.0948,0.888777,-0.746805
392,32.1435,0.891519,-0.746732
392.5,32.1918,0.893833,-0.748055
393,32.2412,0.892898,-0.74805
393.5,32.2893,0.896595,-0.748127
394,32.3395,0.904713,-0.750045
394.5,32.3889,0.908884,-0.75201
395,32.4374,0.908792,-0.75233
395.5,32.4869,0.919391,-0.751978
396,32.5358,0.922436,-0.752011
396.5,32.5847,0.926969,-0.754546
397,32.6336,0.933152,-0.756565
397.5,32.6839,0.934505,-0.756372
398,32.7317,0.942216,-0.756476
398.5,32.7819,0.955728,-0.7564
399,32.831,0.949606,-0.756409
399.5,32.8797,0.960975,-0.757719
400,32.9289,0.971806,-0.759029
400.5,32.9776,0.981875,-0.759031
401,33.028,0.991542,-0.76035
401.5,33.0765,0.999323,-0.760348
402,33.125,1.01488,-0.761691
402.5,33.1754,1.02008,-0.763007
403,33.2233,1.03238,-0.764095
403.5,33.2736,1.03833,-0.764303
404,33.3217,1.04802,-0.765591
404.5,33.3712,1.05403,-0.766324
405,33.4179,1.06456,-0.766914
405.5,33.4669,1.0709,-0.769581
406,33.5165,1.08308,-0.770885
406.5,33.5674,1.09674,-0.771963
407,33.6165,1.10474,-0.770889
407.5,33.6663,1.11697,-0.771445
408,33.7154,1.1292,-0.773352
408.5,33.7639,1.13918,-0.774675
409,33.8139,1.14943,-0.775862
409.5,33.8629,1.15687,-0.776174
410,33.912,1.17389,-0.777467
410.5,33.9614,1.18826,-0.7789
411,34.0099,1.20256,-0.77993
411.5,34.0596,1.21642,-0.780111
412,34.1086,1.23031,-0.781415
412.5,34.1575,1.24625,-0.78275
413,34.2069,1.26018,-0.784068
413.5,34.2564,1.27543,-0.78539
414,34.3054,1.28714,-0.786724
414.5,34.355,1.30834,-0.787163
415,34.4034,1.32152,-0.788019
415.5,34.4535,1.33518,-0.789415
416,34.5028,1.34097,-0.790762
416.5,34.5523,1.3542,-0.792091
417,34.6014,1.37678,-0.792286
417.5,34.6507,1.38605,-0.792704
418,34.6996,1.39794,-0.794774
418.5,34.7485,1.40966,-0.796066
419,34.7985,1.42452,-0.79788
419.5,34.8487,1.43024,-0.798841
420,34.8977,1.44292,-0.800564
420.5,34.9462,1.45174,-0.801841
421,34.9948,1.4644,-0.803668
421.5,35.0443,1.46728,-0.805108
422,35.0938,1.46747,-0.807964
422.5,35.1434,1.47661,-0.809642
423,35.1923,1.48252,-0.810983
423.5,35.2415,1.48442,-0.812184
424,35.2907,1.48448,-0.814283
424.5,35.3404,1.48589,-0.816108
425,35.3896,1.48705,-0.818079
425.5,35.4383,1.48445,-0.817493
426,35.4881,1.47557,-0.818861
426.5,35.5367,1.47502,-0.820456
427,35.5859,1.48044,-0.822708
427.5,35.6358,1.46835,-0.824682
428,35.6841,1.45868,-0.826782
428.5,35.733,1.44913,-0.829878
429,35.7826,1.44341,-0.830277
429.5,35.8315,1.43502,-0.832669
430,35.8807,1.42696,-0.834528
430.5,35.9302,1.41869,-0.837646
431,35.979,1.40681,-0.840457
431.5,36.0281,1.39184,-0.840376
432,36.0766,1.39326,-0.84238
432.5,36.1263,1.3806,-0.846258
433,36.1754,1.3701,-0.848318
433.5,36.2249,1.3555,-0.849814
434,36.2735,1.35194,-0.851532
434.5,36.3226,1.33221,-0.853954
435,36.3721,1.32136,-0.855612
435.5,36.4218,1.30828,-0.859328
436,36.4706,1.29369,-0.861425
436.5,36.5192,1.28979,-0.863627
437,36.5685,1.27199,-0.865117
437.5,36.6174,1.26284,-0.867825
438,36.6666,1.25449,-0.870369
438.5,36.7162,1.23768,-0.872384
439,36.7656,1.23067,-0.875397
439.5,36.8145,1.21839,-0.878184
440,36.8646,1.21036,-0.880989
440.5,36.9135,1.2082,-0.883222
441,36.962,1.19826,-0.885581
441.5,37.0114,1.18412,-0.889694
442,37.0607,1.18482,-0.892202
442.5,37.1105,1.17219,-0.895231
443,37.1601,1.1652,-0.898126
443.5,37.2093,1.15547,-0.9016
444,37.2589,1.1541,-0.904145
444.5,37.308,1.15267,-0.907586
445,37.3583,1.14412,-0.910392
445.5,37.4046,1.14417,-0.912878
446,37.4557,1.13817,-0.915516
446.5,37.5056,1.13732,-0.917456
447,37.5543,1.13602,-0.920799
447.5,37.6041,1.12531,-0.923471
448,37.6536,1.12455,-0.926509
448.5,37.7022,1.11963,-0.92928
449,37.7525,1.12679,-0.93404
449.5,37.801,1.12522,-0.9365
450,37.8505,1.11006,-0.94122
450.5,37.9007,1.1184,-0.941475
451,37.9502,1.10787,-0.945933
451.5,37.9993,1.11439,-0.952608
452,38.0487,1.10886,-0.955956
452.5,38.0986,1.11173,-0.95831
453,38.1477,1.10709,-0.96072
453.5,38.1973,1.10381,-0.963881
454,38.2457,1.09857,-0.968944
454.5,38.2959,1.09928,-0.973249
455,38.3462,1.09638,-0.97519
455.5,38.3952,1.09728,-0.980481
456,38.4443,1.09373,-0.984575
456.5,38.494,1.09115,-0.98532
457,38.544,1.08918,-0.98913
457.5,38.5929,1.08334,-0.994328
458,38.6418,1.0796,-0.998855
458.5,38.6925,1.07328,-1.00191
459,38.7414,1.07071,-1.00536
459.5,38.7912,1.07143,-1.00892
460,38.8408,1.06443,-1.01193
460.5,38.8908,1.06391,-1.01557
461,38.9393,1.06138,-1.01933
461.5,38.9893,1.05666,-1.02278
462,39.0384,1.04769,-1.02506
462.5,39.0896,1.04434,-1.02836
463,39.1385,1.04555,-1.03285
463.5,39.1862,1.03683,-1.0364
464,39.2388,1.03399,-1.04064
464.5,39.2874,1.02532,-1.04534
465,39.3356,1.01309,-1.04941
465.5,39.3866,1.0126,-1.05337
466,39.4366,1.00275,-1.05501
466.5,39.4862,0.99011,-1.05782
467,39.535,0.994865,-1.06115
467.5,39.5851,0.98823,-1.06443
468,39.6345,0.973667,-1.06799
468.5,39.6842,0.97582,-1.07187
469,39.7337,0.969505,-1.07602
469.5,39.7837,0.958106,-1.08005
470,39.8335,0.956263,-1.08351
470.5,39.8826,0.947405,-1.085
471,39.9316,0.938463,-1.08779
471.5,39.9812,0.936548,-1.09126
472,40.0311,0.922691,-1.09403
472.5,40.0803,0.917826,-1.09773
473,40.13,0.905709,-1.10098
473.5,40.1797,0.90181,-1.10387
474,40.2301,0.896367,-1.10737
474.5,40.2787,0.886954,-1.11023
475,40.3285,0.881327,-1.11345
475.5,40.3779,0.87687,-1.11642
476,40.4259,0.863413,-1.11897
476.5,40.4771,0.846469,-1.1216
477,40.5265,0.842568,-1.12526
477.5,40.5759,0.83355,-1.12842
478,40.6263,0.830085,-1.13216
478.5,40.6751,0.81685,-1.13323
479,40.724,0.812919,-1.13461
479.5,40.7747,0.808499,-1.13753
480,40.8252,0.800656,-1.14087
480.5,40.8728,0.794259,-1.14511
481,40.9233,0.791078,-1.14782
481.5,40.9708,0.777872,-1.14913
482,41.0227,0.768225,-1.15144
482.5,41.0722,0.768508,-1.15239
483,41.1219,0.761071,-1.15473
483.5,41.1724,0.746622,-1.15801
484,41.222,0.74749,-1.16101
484.5,41.2716,0.738545,-1.16307
485,41.3206,0.73581,-1.16558
485.5,41.37,0.726043,-1.16751
486,41.4197,0.72401,-1.1689
486.5,41.4705,0.720172,-1.17202
487,41.5204,0.715013,-1.17535
487.5,41.5698,0.703939,-1.17709
488,41.6193,0.699661,-1.17855
488.5,41.6687,0.695467,-1.18071
489,41.7186,0.693692,-1.1827
489.5,41.7685,0.688016,-1.18429
490,41.819,0.687926,-1.18739
490.5,41.8675,0.684519,-1.18993
491,41.9176,0.678217,-1.1918
491.5,41.9672,0.678855,-1.19531
492,42.0178,0.672507,-1.1971
492.5,42.0672,0.670349,-1.19959
493,42.1177,0.669919,-1.20091
493.5,42.1671,0.660813,-1.20385
494,42.2165,0.6637,-1.20575
494.5,42.2667,0.659551,-1.20853
495,42.3171,0.658576,-1.21134
495.5,42.3662,0.658938,-1.21418
496,42.4152,0.655303,-1.21434
496.5,42.4659,0.65011,-1.21636
497,42.5157,0.648534,-1.21858
497.5,42.5648,0.64783,-1.22084
498,42.615,0.644422,-1.22387
498.5,42.6646,0.639696,-1.22675
499,42.7141,0.636799,-1.22861
499.5,42.7639,0.63224,-1.23145
500,42.8143,0.63393,-1.23352
500.5,42.8635,0.633877,-1.23627
501,42.9124,0.635533,-1.23888
501.5,42.9634,0.635329,-1.24066
502,43.0126,0.632619,-1.24343
502.5,43.0633,0.626418,-1.24531
503,43.1123,0.629178,-1.24821
503.5,43.1621,0.626717,-1.25026
504,43.2119,0.622708,-1.25229
504.5,43.2619,0.622168,-1.25415
505,43.3103,0.618024,-1.2571
505.5,43.3587,0.624466,-1.25802
506,43.4102,0.615035,-1.26021
506.5,43.461,0.611426,-1.26301
507,43.5106,0.610096,-1.2663
507.5,43.56,0.601623,-1.26881
508,43.6093,0.599615,-1.27038
508.5,43.6597,0.594828,-1.27174
509,43.709,0.593859,-1.27445
509.5,43.7591,0.597755,-1.27711
510,43.8097,0.591591,-1.27983
510.5,43.8582,0.58804,-1.2813
511,43.908,0.582586,-1.28352
511.5,43.9581,0.587165,-1.28504
512,44.0076,0.580716,-1.28775
512.5,44.0577,0.588219,-1.28919
513,44.1076,0.587355,-1.29183
513.5,44.1571,0.586069,-1.29562
514,44.2068,0.582208,-1.29815
514.5,44.256,0.583411,-1.29973
515,44.3066,0.57089,-1.30096
515.5,44.3564,0.573515,-1.30376
516,44.4053,0.581981,-1.30669
516.5,44.4558,0.579677,-1.30978
517,44.5059,0.584668,-1.31134
517.5,44.5548,0.590569,-1.31438
518,44.6047,0.590959,-1.31653
518.5,44.6546,0.582528,-1.31882
519,44.7042,0.588383,-1.32107
519.5,44.7549,0.592452,-1.32368
520,44.8044,0.594493,-1.32708
520.5,44.8544,0.591996,-1.32909
521,44.9053,0.592438,-1.3326
521.5,44.9543,0.586531,-1.33435
522,45.0046,0.594766,-1.3369
522.5,45.0546,0.590258,-1.33828
523,45.1047,0.592478,-1.34119
523.5,45.1562,0.593644,-1.34471
524,45.2062,0.598297,-1.34713
524.5,45.2556,0.596722,-1.3497
525,45.3063,0.599984,-1.35145
525.5,45.3565,0.60587,-1.35431
526,45.4061,0.616308,-1.35734
526.5,45.4564,0.613245,-1.36009
527,45.507,0.615705,-1.36073
527.5,45.5572,0.61905,-1.36634
528,45.6064,0.62418,-1.36936
528.5,45.6574,0.626413,-1.37228
529,45.7074,0.633979,-1.37426
529.5,45.7576,0.63615,-1.37602
530,45.8079,0.631783,-1.37911
530.5,45.8585,0.646749,-1.38204
531,45.91,0.645695,-1.38412
531.5,45.9591,0.653227,-1.38775
532,46.0094,0.660548,-1.39069
532.5,46.06,0.660218,-1.39296
533,46.1078,0.66687,-1.3956
533.5,46.1601,0.680313,-1.39966
534,46.2094,0.673162,-1.40318
534.5,46.2616,0.686362,-1.40529
535,46.3112,0.689845,-1.40822
535.5,46.3607,0.699535,-1.41127
536,46.4115,0.701851,-1.41453
536.5,46.4612,0.712801,-1.418
537,46.512,0.715434,-1.4213
537.5,46.5614,0.721709,-1.42451
538,46.6119,0.731322,-1.42896
538.5,46.6622,0.734238,-1.43067
539,46.7131,0.745141,-1.43516
539.5,46.7629,0.751671,-1.43845
540,46.813,0.760127,-1.44124
540.5,46.8618,0.76226,-1.44265
541,46.9138,0.770311,-1.44608
541.5,46.9629,0.787126,-1.45006
542,47.0132,0.792258,-1.45493
542.5,47.0623,0.797241,-1.45891
543,47.1144,0.80692,-1.46254
543.5,47.164,0.814769,-1.46549
544,47.2153,0.823802,-1.46916
544.5,47.2654,0.832809,-1.47178
545,47.3139,0.838965,-1.47633
545.5,47.3654,0.855158,-1.48092
546,47.4167,0.866713,-1.48423
546.5,47.4648,0.874851,-1.48825
547,47.5172,0.881998,-1.49441
547.5,47.5674,0.899981,-1.49894
548,47.6174,0.911594,-1.50083
548.5,47.6676,0.916936,-1.50314
549,47.7178,0.929638,-1.50619
549.5,47.7668,0.938569,-1.50722
550,47.8171,0.939248,-1.51601
550.5,47.8675,0.95355,-1.52405
551,47.9178,0.956296,-1.52766
551.5,47.9673,0.970576,-1.53222
552,48.0181,0.982379,-1.53649
552.5,48.0681,0.995106,-1.54204
553,48.1181,1.00773,-1.54603
553.5,48.1685,1.01081,-1.55055
554,48.2186,1.02128,-1.55532
554.5,48.2692,1.02757,-1.56199
555,48.3191,1.03775,-1.56718
555.5,48.3694,1.04956,-1.57333
556,48.4188,1.05882,-1.57797
556.5,48.4703,1.06824,-1.58183
557,48.5191,1.07748,-1.58794
557.5,48.5703,1.09731,-1.59439
558,48.6205,1.10122,-1.60043
558.5,48.6707,1.12091,-1.6066
559,48.7207,1.12376,-1.61328
559.5,48.7717,1.13954,-1.61933
560,48.8215,1.15912,-1.62532
560.5,48.8731,1.16978,-1.63318
561,48.9223,1.18004,-1.63945
561.5,48.9716,1.19991,-1.64771
562,49.0236,1.21305,-1.65514
562.5,49.0751,1.2307,-1.66273
563,49.1259,1.25498,-1.66954
563.5,49.1754,1.26656,-1.67671
564,49.2268,1.28565,-1.6785
564.5,49.2773,1.30526,-1.69039
565,49.3276,1.31692,-1.70144
565.5,49.379,1.32808,-1.70951
566,49.4295,1.35006,-1.71806
566.5,49.4798,1.37158,-1.72567
567,49.5308,1.39267,-1.73446
567.5,49.5808,1.41539,-1.7439
568,49.6308,1.42476,-1.75109
568.5,49.682,1.44856,-1.75954
569,49.7324,1.46008,-1.77019
569.5,49.7826,1.48503,-1.77915
570,49.8344,1.494,-1.7894
570.5,49.8837,1.50988,-1.79892
571,49.934,1.52494,-1.80833
571.5,49.9857,1.53899,-1.8181
572,50.0357,1.5536,-1.82773
572.5,50.0867,1.57,-1.83828
573,50.1374,1.57301,-1.84894
573.5,50.1867,1.57646,-1.86068
574,50.2356,1.57477,-1.87146
574.5,50.289,1.57344,-1.8817
575,50.3387,1.56383,-1.89222
575.5,50.3889,1.5587,-1.90377
576,50.4393,1.54205,-1.91358
576.5,50.4898,1.53487,-1.92523
577,50.5401,1.51603,-1.93555
577.5,50.5897,1.48238,-1.94488
578,50.6401,1.45143,-1.95469
578.5,50.6901,1.41818,-1.96491
579,50.7394,1.37633,-1.97515
579.5,50.7904,1.33045,-1.98483
580,50.8396,1.27391,-1.99387
580.5,50.8881,1.21416,-2.00243
581,50.9398,1.15107,-2.01165
581.5,50.9885,1.08173,-2.02015
582,51.0383,1.0046,-2.02782
582.5,51.0871,0.926191,-2.03497
583,51.1352,0.851354,-2.04279
583.5,51.1861,0.774171,-2.04932
584,51.2357,0.688667,-2.05597
584.5,51.2852,0.598582,-2.06138
585,51.3346,0.53564,-2.06682
585.5,51.3834,0.448801,-2.07159
586,51.4321,0.37606,-2.07534
586.5,51.4818,0.315044,-2.07958
587,51.5315,0.256352,-2.0828
587.5,51.5819,0.20476,-2.08486
588,51.6319,0.159858,-2.08721
588.5,51.6802,0.120688,-2.09056
589,51.7316,0.100431,-2.09353
589.5,51.7801,0.0778528,-2.0965
590,51.8307,0.0561397,-2.09948
590.5,51.8807,0.0385079,-2.10145
591,51.9292,0.0189662,-2.10346
591.5,51.981,0.00924706,-2.10482
592,52.031,-0.00102408,-2.10777
592.5,52.0816,-0.00631377,-2.10926
593,52.1324,-0.021605,-2.11057
593.5,52.1828,-0.0220864,-2.11257
594,52.2324,-0.0267579,-2.1156
594.5,52.2828,-0.0280313,-2.11726
595,52.3336,-0.0282012,-2.11862
595.5,52.3844,-0.0311604,-2.11986
596,52.4337,-0.0310487,-2.1215
596.5,52.4842,-0.0282434,-2.12078
597,52.5342,-0.0294078,-2.12142
597.5,52.5845,-0.0313923,-2.12341
598,52.6353,-0.0246053,-2.12523
598.5,52.6857,-0.0249986,-2.12755
599,52.736,-0.0206481,-2.12944
599.5,52.7862,-0.0155228,-2.13033
600,52.8367,-0.0136017,-2.13254
600.5,52.8864,-0.0145348,-2.13254
601,52.9381,-0.0141267,-2.13385
601.5,52.9888,-0.0162021,-2.13523
602,53.0392,-0.0151851,-2.13528
602.5,53.089,-0.00111735,-2.13661
603,53.1397,-0.00608398,-2.13922
603.5,53.1893,-0.0103062,-2.13925
604,53.2402,0.00165119,-2.1405
604.5,53.2905,0.00401989,-2.14186
605,53.3405,0.00342436,-2.14195
605.5,53.3919,0.00579944,-2.14328
606,53.4418,0.0121155,-2.14464
606.5,53.4899,0.0149862,-2.14693
607,53.5421,0.0155215,-2.14811
607.5,53.5928,0.0227042,-2.14946
608,53.6439,0.0255179,-2.15075
608.5,53.6922,0.0238458,-2.15199
609,53.7428,0.0259507,-2.15207
609.5,53.7937,0.0312205,-2.15208
610,53.8445,0.0388453,-2.15441
610.5,53.8948,0.0316178,-2.15439
611,53.945,0.0365723,-2.1557
611.5,53.9948,0.0402615,-2.15569
612,54.0464,0.0457922,-2.15702
612.5,54.0963,0.0387407,-2.15976
613,54.147,0.0399963,-2.15964
613.5,54.1969,0.0363708,-2.16096
614,54.2474,0.0469639,-2.16228
614.5,54.2971,0.0500417,-2.16359
615,54.3482,0.0493926,-2.1636
615.5,54.3988,0.0586124,-2.16359
616,54.4474,0.0539351,-2.16503
616.5,54.4999,0.06425,-2.16634
617,54.549,0.0657658,-2.16767
617.5,54.6002,0.064853,-2.16767
618,54.6505,0.0756342,-2.16767
618.5,54.7006,0.0746597,-2.16767
619,54.7514,0.0881368,-2.16905
619.5,54.8027,0.0761324,-2.17028
620,54.852,0.0876512,-2.17038
620.5,54.9027,0.0969602,-2.17163
621,54.9518,0.0945057,-2.17284
621.5,55.0033,0.0988764,-2.17294
622,55.0535,0.101918,-2.17423
622.5,55.1041,0.10144,-2.17557
623,55.154,0.106635,-2.17593
623.5,55.2051,0.101319,-2.1768
624,55.2552,0.102339,-2.17942
624.5,55.3049,0.116872,-2.18076
625,55.3565,0.117533,-2.18084
625.5,55.4058,0.1212,-2.18136
626,55.4569,0.126396,-2.18117
626.5,55.507,0.125237,-2.18117
627,55.5578,0.138096,-2.18251
627.5,55.6081,0.138268,-2.18216
628,55.6576,0.149815,-2.18348
628.5,55.7065,0.149778,-2.18479
629,55.7594,0.154883,-2.18612
629.5,55.8095,0.157607,-2.18475
630,55.8605,0.161211,-2.18664
630.5,55.9106,0.168659,-2.18743
631,55.9601,0.174797,-2.18743
631.5,56.0111,0.181617,-2.18775
632,56.0621,0.189444,-2.18935
632.5,56.1125,0.19731,-2.19035
633,56.1635,0.207235,-2.19315
633.5,56.2137,0.205473,-2.19293
634,56.2647,0.212409,-2.19575
634.5,56.3149,0.220432,-2.19372
635,56.3655,0.23063,-2.19368
635.5,56.4143,0.229615,-2.19501
636,56.4663,0.2313,-2.19369
636.5,56.5171,0.23732,-2.19467
637,56.5673,0.246355,-2.19467
637.5,56.6185,0.249421,-2.19501
638,56.6685,0.251558,-2.19685
638.5,56.7196,0.256034,-2.19847
639,56.7708,0.257653,-2.19895
639.5,56.8214,0.26354,-2.20028
640,56.8717,0.266293,-2.20027
640.5,56.9227,0.276705,-2.20059
641,56.974,0.28427,-2.19937
641.5,57.0241,0.289222,-2.19997
642,57.0742,0.281789,-2.20028
642.5,57.1262,0.294569,-2.20158
643,57.1761,0.292163,-2.20289
643.5,57.2264,0.294605,-2.20434
644,57.2762,0.301877,-2.20433
644.5,57.3282,0.297038,-2.20538
645,57.3789,0.301996,-2.20564
645.5,57.4288,0.297941,-2.20696
646,57.4775,0.304544,-2.20696
646.5,57.5304,0.303566,-2.20839
647,57.5809,0.301036,-2.20695
647.5,57.6317,0.305628,-2.2084
648,57.6827,0.311697,-2.20968
648.5,57.7325,0.318055,-2.21092
649,57.7834,0.318569,-2.21092
649.5,57.8345,0.306708,-2.21157
650,57.8861,0.309764,-2.21223
650.5,57.9354,0.309436,-2.21359
651,57.9863,0.311505,-2.21356
651.5,58.0372,0.305804,-2.2149
652,58.0876,0.306169,-2.21356
652.5,58.1387,0.31135,-2.21487
653,58.1891,0.31498,-2.21535
653.5,58.2409,0.304454,-2.21619
654,58.2897,0.315623,-2.2162
654.5,58.3413,0.311665,-2.2175
655,58.3917,0.30894,-2.21754
655.5,58.443,0.309018,-2.21883
656,58.493,0.31047,-2.22022
656.5,58.5429,0.306372,-2.22045
657,58.594,0.307633,-2.22146
657.5,58.6446,0.301479,-2.22146
658,58.6946,0.301309,-2.22185
658.5,58.7463,0.295398,-2.22245
659,58.7962,0.302511,-2.22245
659.5,58.8459,0.298733,-2.22333
660,58.8969,0.291458,-2.2241
660.5,58.948,0.289491,-2.22447
661,58.9973,0.29045,-2.22658
661.5,59.0484,0.278886,-2.22809
662,59.0966,0.287949,-2.22673
662.5,59.1491,0.285457,-2.22673
663,59.1982,0.283818,-2.22673
663.5,59.2493,0.291208,-2.22786
664,59.2975,0.289047,-2.22805
664.5,59.3501,0.284613,-2.22805
665,59.4002,0.283213,-2.22805
665.5,59.4503,0.281897,-2.22805
666,59.5012,0.283126,-2.22799
666.5,59.5508,0.282242,-2.22964
667,59.6017,0.278251,-2.23068
667.5,59.6525,0.273718,-2.23205
668,59.7033,0.269288,-2.23211
668.5,59.7521,0.261977,-2.23305
669,59.8027,0.2573,-2.234
669.5,59.854,0.256286,-2.23397
670,59.904,0.25353,-2.23398
670.5,59.9542,0.259655,-2.23528
671,60.0052,0.250602,-2.23644
671.5,60.0558,0.254217,-2.23659
672,60.1056,0.246379,-2.23695
672.5,60.1566,0.254957,-2.23794
673,60.2064,0.244586,-2.23788
673.5,60.2573,0.250232,-2.23924
674,60.3079,0.251503,-2.23924
674.5,60.359,0.254167,-2.24063
675,60.4092,0.243771,-2.2399
675.5,60.4599,0.248364,-2.24046
676,60.51,0.242041,-2.24023
676.5,60.56,0.243465,-2.24023
677,60.6105,0.239342,-2.24048
677.5,60.6613,0.240869,-2.24219
678,60.7122,0.234871,-2.24351
678.5,60.7634,0.236407,-2.24482
679,60.8129,0.234354,-2.24485
679.5,60.8648,0.229118,-2.24387
680,60.9143,0.232196,-2.24242
680.5,60.9654,0.234692,-2.24559
681,61.0172,0.231388,-2.24691
681.5,61.0663,0.219593,-2.24824
682,61.1171,0.224245,-2.24824
682.5,61.1686,0.216508,-2.24824
683,61.2193,0.208822,-2.24824
683.5,61.2705,0.214871,-2.24824
684,61.3212,0.216806,-2.24857
684.5,61.3721,0.213405,-2.24955
685,61.4229,0.208006,-2.25089
685.5,61.4737,0.21256,-2.25081
686,61.5241,0.212428,-2.25219
686.5,61.5755,0.205071,-2.25186
687,61.6264,0.202653,-2.25186
687.5,61.6777,0.202408,-2.25318
688,61.728,0.205876,-2.25286
688.5,61.7791,0.199792,-2.25416
689,61.8306,0.201479,-2.25446
689.5,61.8819,0.197112,-2.25581
690,61.9318,0.196244,-2.25732
690.5,61.9829,0.199072,-2.2572
691,62.0348,0.189673,-2.25604
691.5,62.085,0.187206,-2.2565
692,62.136,0.18501,-2.25729
692.5,62.1876,0.183543,-2.25868
693,62.2377,0.175429,-2.25906
693.5,62.2892,0.180329,-2.259
694,62.3403,0.178701,-2.259
694.5,62.3909,0.16775,-2.26043
695,62.4418,0.173033,-2.26032
695.5,62.493,0.169636,-2.26032
696,62.5437,0.160075,-2.26068
696.5,62.5943,0.162274,-2.26164
697,62.6445,0.156308,-2.26164
697.5,62.6958,0.151773,-2.26289
698,62.7469,0.145689,-2.26293
698.5,62.7981,0.144651,-2.26427
699,62.8491,0.140507,-2.26566
699.5,62.8987,0.137853,-2.26527
700,62.9498,0.13078,-2.26658
700.5,63.0002,0.133417,-2.26657
701,63.0518,0.127112,-2.2667
701.5,63.1028,0.11981,-2.26716
702,63.154,0.122553,-2.2679
702.5,63.2044,0.124956,-2.2679
703,63.2561,0.112208,-2.26792
703.5,63.3064,0.10755,-2.26921
704,63.3574,0.101852,-2.27052
704.5,63.4075,0.0987848,-2.26921
705,63.4584,0.101585,-2.26995
705.5,63.5083,0.0974528,-2.27051
706,63.5593,0.0926491,-2.27275
706.5,63.6106,0.0908123,-2.27317
707,63.6613,0.0858025,-2.27285
707.5,63.7119,0.078017,-2.27316
708,63.7622,0.0858757,-2.27315
708.5,63.8135,0.0850131,-2.27448
709,63.8641,0.0823807,-2.27512
709.5,63.915,0.0796544,-2.2758
710,63.9655,0.0795966,-2.27573
710.5,64.0155,0.0725592,-2.27844
711,64.0672,0.0721317,-2.27802
711.5,64.1164,0.0631753,-2.27831
712,64.1683,0.0696546,-2.27744
712.5,64.2196,0.0628538,-2.27874
713,64.2701,0.0653551,-2.27872
713.5,64.3204,0.0586929,-2.28008
714,64.3724,0.0608849,-2.28008
714.5,64.4226,0.0587699,-2.28006
715,64.4732,0.0547461,-2.28144
715.5,64.5235,0.0527796,-2.28142
716,64.5751,0.0474491,-2.28235
716.5,64.6229,0.0515868,-2.28268
717,64.6769,0.0430881,-2.28403
717.5,64.7266,0.0416809,-2.28402
718,64.7778,0.0416528,-2.28504
718.5,64.8289,0.0354549,-2.28502
719,64.8795,0.033122,-2.28502
719.5,64.931,0.0279881,-2.28646
720,64.9818,0.0267306,-2.28631
720.5,65.0322,0.0237884,-2.28765
721,65.0844,0.0154025,-2.28765
721.5,65.1346,0.0186656,-2.28765
722,65.1854,0.0147476,-2.28901
722.5,65.2337,0.0188803,-2.28887
723,65.2873,0.0148409,-2.28898
723.5,65.3382,0.0135843,-2.28937
724,65.3883,0.00805088,-2.2903
724.5,65.4398,0.0075822,-2.29227
725,65.4896,0.00484631,-2.29227
725.5,65.5411,0.00687299,-2.29225
726,65.5916,0.00627539,-2.29095
726.5,65.6431,0.00199458,-2.29236
727,65.6937,-0.0035813,-2.29227
727.5,65.7444,-0.0185093,-2.29358
728,65.7952,-0.0123712,-2.29625
728.5,65.8452,-0.0190778,-2.29622
729,65.894,-0.0225089,-2.29528
729.5,65.9468,-0.026307,-2.29622
730,65.9975,-0.0206612,-2.29622
730.5,66.0489,-0.0338943,-2.29467
731,66.0992,-0.034494,-2.29494
731.5,66.1498,-0.0345983,-2.29646
732,66.2009,-0.0426203,-2.29776
732.5,66.2518,-0.0444379,-2.29776
733,66.3032,-0.0429068,-2.29878
733.5,66.3534,-0.0512253,-2.30005
734,66.4036,-0.0488848,-2.30006
734.5,66.4557,-0.0573376,-2.3014
735,66.5064,-0.0620893,-2.30135
735.5,66.5565,-0.0611563,-2.30259
736,66.608,-0.0660158,-2.3027
736.5,66.6571,-0.0653825,-2.30271
737,66.7098,-0.0774131,-2.30267
737.5,66.7606,-0.0854832,-2.30431
738,66.8115,-0.0848665,-2.30569
738.5,66.8622,-0.0862309,-2.30564
739,66.9142,-0.0940784,-2.30565
739.5,66.9641,-0.091621,-2.30699
740,67.0144,-0.10052,-2.30822
740.5,67.067,-0.105863,-2.30897
741,67.1178,-0.103051,-2.30895
741.5,67.1684,-0.103793,-2.30895
742,67.2204,-0.107745,-2.30895
742.5,67.2717,-0.107322,-2.30897
743,67.3226,-0.108,-2.31027
743.5,67.3738,-0.108154,-2.31026
744,67.4251,-0.113108,-2.3113
744.5,67.4753,-0.1164,-2.31257
745,67.5264,-0.110872,-2.31165
745.5,67.5778,-0.118574,-2.31257
746,67.6296,-0.110149,-2.31257
746.5,67.6812,-0.119633,-2.31257
747,67.7303,-0.118741,-2.31271
747.5,67.7834,-0.118165,-2.31389
748,67.8338,-0.117027,-2.31384
748.5,67.8861,-0.12092,-2.31427
749,67.9375,-0.113974,-2.31566
749.5,67.987,-0.121944,-2.31548
750,68.0401,-0.12844,-2.31533
750.5,68.0918,-0.132397,-2.31533
751,68.1435,-0.136952,-2.3159
751.5,68.1941,-0.139266,-2.31663
752,68.2458,-0.140417,-2.31796
752.5,68.2967,-0.145672,-2.31796
753,68.3486,-0.138795,-2.31796
753.5,68.3985,-0.157329,-2.3193
754,68.4485,-0.146731,-2.31927
754.5,68.4997,-0.157475,-2.32019
755,68.5515,-0.158305,-2.31928
755.5,68.6034,-0.154711,-2.31961
756,68.6551,-0.159243,-2.3206
756.5,68.7064,-0.15436,-2.32157
757,68.7567,-0.143023,-2.32199
757.5,68.807,-0.152818,-2.32104
758,68.8595,-0.1577,-2.3243
758.5,68.9103,-0.163637,-2.32528
759,68.9614,-0.15636,-2.32421
759.5,69.0124,-0.159669,-2.32421
760,69.0636,-0.162317,-2.32421
760.5,69.1135,-0.162322,-2.32437
761,69.1651,-0.167569,-2.32548
761.5,69.2171,-0.171831,-2.32504
762,69.2682,-0.163161,-2.32421
762.5,69.3187,-0.171647,-2.32553
763,69.37,-0.169017,-2.32553
763.5,69.4195,-0.163264,-2.32607
764,69.4721,-0.167425,-2.32757
764.5,69.5226,-0.165451,-2.32882
765,69.5748,-0.165846,-2.32882
765.5,69.6256,-0.168181,-2.32829
766,69.6763,-0.170421,-2.3275
766.5,69.7255,-0.177563,-2.3283
767,69.779,-0.178835,-2.32882
767.5,69.8296,-0.177321,-2.32882
768,69.8815,-0.175638,-2.32882
768.5,69.9322,-0.180359,-2.33036
769,69.9831,-0.181956,-2.33025
769.5,70.0343,-0.18135,-2.33027
770,70.086,-0.173273,-2.33157
770.5,70.1365,-0.177518,-2.33157
771,70.1882,-0.183411,-2.33287
771.5,70.2382,-0.18483,-2.33288
772,70.2897,-0.189352,-2.33269
772.5,70.3397,-0.194007,-2.33289
773,70.3924,-0.18998,-2.33421
773.5,70.4442,-0.194941,-2.33421
774,70.495,-0.193563,-2.33421
774.5,70.5465,-0.196807,-2.33446
775,70.5952,-0.188131,-2.33553
775.5,70.6491,-0.193897,-2.33554
776,70.6994,-0.191947,-2.33421
776.5,70.7508,-0.192345,-2.33418
777,70.8021,-0.187993,-2.33684
777.5,70.8538,-0.182976,-2.33814
778,70.9049,-0.182518,-2.33753
778.5,70.9557,-0.189222,-2.3382
779,71.0074,-0.183837,-2.33684
779.5,71.0596,-0.186225,-2.33684
780,71.1109,-0.191564,-2.33729
780.5,71.162,-0.185755,-2.33687
781,71.2128,-0.197816,-2.33684
781.5,71.2658,-0.192955,-2.33705
782,71.3167,-0.184884,-2.33816
782.5,71.368,-0.188827,-2.33816
783,71.419,-0.188825,-2.33954
783.5,71.4714,-0.197965,-2.33947
784,71.5222,-0.194137,-2.33955
784.5,71.5737,-0.196609,-2.34079
785,71.6245,-0.191317,-2.34067
785.5,71.6764,-0.183809,-2.34181
786,71.7281,-0.189437,-2.34046
786.5,71.7795,-0.193203,-2.34046
787,71.831,-0.184066,-2.34078
787.5,71.8818,-0.192181,-2.34115
788,71.934,-0.19237,-2.34211
788.5,71.9851,-0.192365,-2.34211
789,72.0376,-0.195761,-2.34342
789.5,72.0889,-0.203276,-2.34407
790,72.1406,-0.197114,-2.34409