File: 01_Data/Polyisocyanurate_Spray_Foam_Insulation/STA/N2/10K_min/Polyisocyanurate_Spray_Foam_Insulation_STA_N2_10KData_241030_R3.csv
Temp/C,Time/min,Mass loss(subtr.)/mg,DSC(subtr.)/(mW/mg),Sensit./(uV/mW)
26.077,10.00417,-0.00473,0.01006482,1.00326
26.677,10.76794,-0.005661298,0.04280508,1.00358
27.277,10.96062,-0.005840076,0.06920606,1.00391
27.877,11.10449,-0.005815137,0.08832468,1.00423
28.477,11.22476,-0.006917029,0.10508,1.00455
29.077,11.33063,-0.00688636,0.11881,1.00487
29.677,11.42821,-0.006719565,0.13214,1.00519
30.277,11.52014,-0.006387238,0.1429,1.0055
30.877,11.60669,-0.006082566,0.1529,1.00582
31.477,11.68977,-0.007679413,0.15823,1.00613
32.077,11.76995,-0.006995207,0.1692,1.00644
32.677,11.84779,-0.004615409,0.17451,1.00675
33.277,11.92391,-0.005783616,0.17971,1.00705
33.877,11.99813,-0.006440399,0.18573,1.00736
34.477,12.07179,-0.007578187,0.19065,1.00766
35.077,12.144,-0.00561532,0.19553,1.00796
35.677,12.21598,-0.006477616,0.1998,1.00826
36.277,12.28646,-0.006948228,0.20406,1.00856
36.877,12.35622,-0.006368596,0.20528,1.00885
37.477,12.42535,-0.006215847,0.2093,1.00915
38.077,12.49416,-0.007250969,0.21173,1.00944
38.677,12.56228,-0.00656365,0.21456,1.00973
39.277,12.63027,-0.00638201,0.21853,1.01002
39.877,12.69766,-0.007442817,0.22041,1.01031
40.477,12.76483,-0.007694598,0.222,1.01059
41.077,12.83166,-0.006484172,0.22289,1.01087
41.677,12.89827,-0.005989598,0.22658,1.01115
42.277,12.96471,-0.006729416,0.22892,1.01143
42.877,13.03069,-0.007636555,0.23194,1.01171
43.477,13.09655,-0.007680863,0.23293,1.01199
44.077,13.16212,-0.007679929,0.23458,1.01226
44.677,13.2274,-0.007713315,0.23762,1.01253
45.277,13.29265,-0.007691188,0.2379,1.0128
45.877,13.35798,-0.007681041,0.24062,1.01307
46.477,13.42298,-0.00899985,0.24234,1.01334
47.077,13.48785,-0.008999852,0.24396,1.0136
47.677,13.55219,-0.009045092,0.24563,1.01387
48.277,13.61608,-0.0087899,0.24597,1.01413
48.877,13.67998,-0.008734049,0.24698,1.01439
49.477,13.74365,-0.009026024,0.24788,1.01464
50.077,13.80757,-0.008983387,0.24783,1.0149
50.677,13.87131,-0.009001371,0.24848,1.01515
51.277,13.93444,-0.009006643,0.25118,1.01541
51.877,13.99744,-0.009009934,0.25246,1.01566
52.477,14.06053,-0.01032211,0.25369,1.01591
53.077,14.12346,-0.01060608,0.25168,1.01615
53.677,14.18628,-0.01033562,0.25346,1.0164
54.277,14.24835,-0.008999991,0.25486,1.01664
54.877,14.31088,-0.01031876,0.25498,1.01688
55.477,14.37334,-0.0103259,0.25394,1.01712
56.077,14.43591,-0.0103199,0.25517,1.01736
56.677,14.49794,-0.01031801,0.2568,1.0176
57.277,14.55997,-0.01033025,0.25733,1.01783
57.877,14.6223,-0.01164067,0.25667,1.01806
58.477,14.684,-0.0103232,0.25687,1.01829
59.077,14.74528,-0.01163999,0.25785,1.01852
59.677,14.80644,-0.01233494,0.25611,1.01875
60.277,14.86766,-0.01164031,0.25618,1.01897
60.877,14.92891,-0.0113216,0.25649,1.0192
61.477,14.99003,-0.01163,0.2578,1.01942
62.077,15.05086,-0.01040706,0.25618,1.01964
62.677,15.11175,-0.01164001,0.25719,1.01986
63.277,15.1724,-0.01031554,0.25481,1.02007
63.877,15.2331,-0.01131004,0.25524,1.02029
64.477,15.29323,-0.01164092,0.25468,1.0205
65.077,15.35369,-0.01296211,0.25313,1.02071
65.677,15.41403,-0.01164009,0.25258,1.02092
66.277,15.47459,-0.01295001,0.25253,1.02113
66.877,15.53513,-0.01429421,0.25219,1.02134
67.477,15.59557,-0.01427076,0.25276,1.02154
68.077,15.65588,-0.01430005,0.25356,1.02174
68.677,15.71618,-0.01427,0.25181,1.02194
69.277,15.77611,-0.01368887,0.25234,1.02214
69.877,15.83605,-0.01427997,0.25148,1.02234
70.477,15.89597,-0.0139363,0.25109,1.02253
71.077,15.95555,-0.01462342,0.25195,1.02273
71.677,16.01556,-0.0155852,0.25101,1.02292
72.277,16.0755,-0.01426875,0.25048,1.02311
72.877,16.13537,-0.01558555,0.25182,1.0233
73.477,16.19562,-0.01460114,0.25038,1.02348
74.077,16.25538,-0.0146,0.25049,1.02367
74.677,16.3153,-0.01458606,0.25084,1.02385
75.277,16.37523,-0.01592008,0.25098,1.02403
75.877,16.43514,-0.01559002,0.24999,1.02421
76.477,16.49492,-0.01563323,0.25013,1.02439
77.077,16.55479,-0.01559,0.2504,1.02456
77.677,16.61471,-0.01559103,0.25118,1.02474
78.277,16.67459,-0.01558996,0.25259,1.02491
78.877,16.73432,-0.01427143,0.2532,1.02508
79.477,16.79398,-0.01426996,0.24993,1.02525
80.077,16.85359,-0.01493004,0.25142,1.02541
80.677,16.91326,-0.01624388,0.25157,1.02558
81.277,16.97297,-0.01624999,0.25165,1.02574
81.877,17.03228,-0.01493628,0.253,1.02591
82.477,17.09204,-0.01592787,0.25195,1.02607
83.077,17.15157,-0.01494009,0.25304,1.02622
83.677,17.21101,-0.01624174,0.25353,1.02638
84.277,17.27055,-0.01625,0.25293,1.02653
84.877,17.32995,-0.01628585,0.25408,1.02669
85.477,17.38919,-0.01756911,0.25422,1.02684
86.077,17.44848,-0.01625,0.25529,1.02699
86.677,17.5073,-0.01625945,0.25536,1.02714
87.277,17.56642,-0.01726517,0.25744,1.02728
87.877,17.62544,-0.01731317,0.25635,1.02743
88.477,17.68472,-0.01756909,0.25589,1.02757
89.077,17.74416,-0.01889,0.25692,1.02771
89.677,17.80353,-0.01657612,0.25998,1.02785
90.277,17.86245,-0.0157912,0.26084,1.02799
90.877,17.92146,-0.01657044,0.26075,1.02812
91.477,17.98017,-0.01727468,0.25933,1.02825
92.077,18.03903,-0.01822011,0.25947,1.02839
92.677,18.09787,-0.01855,0.26098,1.02852
93.277,18.15659,-0.01855003,0.26223,1.02865
93.877,18.21538,-0.01855565,0.26224,1.02877
94.477,18.27401,-0.01856141,0.26225,1.0289
95.077,18.33301,-0.02086792,0.26503,1.02902
95.677,18.39177,-0.02086,0.26398,1.02914
96.277,18.45051,-0.02086,0.26682,1.02926
96.877,18.50915,-0.02184037,0.26467,1.02938
97.477,18.56754,-0.02207184,0.26465,1.0295
98.077,18.62591,-0.02210584,0.26602,1.02961
98.677,18.68425,-0.02218022,0.26823,1.02973
99.277,18.7425,-0.02218,0.2669,1.02984
99.877,18.80104,-0.02277488,0.26861,1.02995
100.477,18.85948,-0.02352694,0.26954,1.03005
101.077,18.91786,-0.02425708,0.27171,1.03016
101.677,18.97619,-0.02317004,0.27294,1.03027
102.277,19.03433,-0.02316832,0.27368,1.03037
102.877,19.09277,-0.02449,0.27479,1.03047
103.477,19.15091,-0.02548521,0.27599,1.03057
104.077,19.20905,-0.02547,0.27559,1.03067
104.677,19.26717,-0.02547,0.27916,1.03076
105.277,19.32536,-0.02547,0.2783,1.03086
105.877,19.38354,-0.02547,0.28004,1.03095
106.477,19.44182,-0.02579145,0.27948,1.03104
107.077,19.4997,-0.0271197,0.27927,1.03113
107.677,19.55776,-0.02712,0.28132,1.03122
108.277,19.61578,-0.02712,0.28306,1.0313
108.877,19.67378,-0.0277336,0.28303,1.03139
109.477,19.73208,-0.02844,0.28244,1.03147
110.077,19.79019,-0.02844,0.2855,1.03155
110.677,19.84812,-0.02844,0.28606,1.03163
111.277,19.90616,-0.0298247,0.28667,1.03171
111.877,19.96432,-0.02975977,0.28637,1.03178
112.477,20.02249,-0.03238004,0.28844,1.03186
113.077,20.08098,-0.03238097,0.28826,1.03193
113.677,20.13908,-0.03206102,0.28921,1.032
114.277,20.19685,-0.03286256,0.2887,1.03207
114.877,20.25497,-0.0337,0.29053,1.03214
115.477,20.31315,-0.0337,0.29052,1.0322
116.077,20.37134,-0.03466567,0.29238,1.03226
116.677,20.42983,-0.03502017,0.29176,1.03233
117.277,20.48783,-0.03535,0.29154,1.03239
117.877,20.54621,-0.03568252,0.29446,1.03245
118.477,20.60457,-0.03568064,0.29322,1.0325
119.077,20.66278,-0.03667,0.29489,1.03256
119.677,20.72072,-0.03731158,0.29552,1.03261
120.277,20.77878,-0.03732899,0.29564,1.03267
120.877,20.83689,-0.03766,0.29649,1.03272
121.477,20.89504,-0.03766,0.2962,1.03276
122.077,20.95305,-0.03766007,0.29839,1.03281
122.677,21.01088,-0.03916059,0.29892,1.03286
123.277,21.06884,-0.04160943,0.29816,1.0329
123.877,21.12676,-0.04161,0.30074,1.03294
124.477,21.18452,-0.04161,0.29924,1.03298
125.077,21.2422,-0.04161,0.30371,1.03302
125.677,21.3,-0.0429176,0.30099,1.03306
126.277,21.35794,-0.04424982,0.30201,1.0331
126.877,21.41589,-0.04425,0.30252,1.03313
127.477,21.47393,-0.04425,0.30407,1.03316
128.077,21.53189,-0.04527438,0.30419,1.03319
128.677,21.58972,-0.04688,0.30453,1.03322
129.277,21.64749,-0.04688,0.30609,1.03325
129.877,21.70529,-0.04691381,0.3071,1.03328
130.477,21.76304,-0.04819,0.30723,1.0333
131.077,21.82085,-0.04828144,0.30687,1.03332
131.677,21.87878,-0.04951,0.30816,1.03334
132.277,21.93665,-0.04818572,0.3109,1.03336
132.877,21.9944,-0.04853401,0.31071,1.03338
133.477,22.05197,-0.0495099,0.31084,1.0334
134.077,22.10963,-0.05083006,0.3109,1.03341
134.677,22.16725,-0.05215172,0.31116,1.03342
135.277,22.22487,-0.05247396,0.31156,1.03344
135.877,22.28261,-0.05295426,0.31377,1.03344
136.477,22.34022,-0.05347,0.31238,1.03345
137.077,22.39798,-0.05479106,0.31401,1.03346
137.677,22.45564,-0.05479,0.31541,1.03346
138.277,22.51329,-0.05506182,0.31628,1.03347
138.877,22.57079,-0.05610547,0.31724,1.03347
139.477,22.62843,-0.05741001,0.3164,1.03347
140.077,22.68606,-0.05741,0.31825,1.03347
140.677,22.74358,-0.05741,0.31736,1.03346
141.277,22.80115,-0.05741,0.3174,1.03346
141.877,22.85858,-0.05737564,0.31917,1.03345
142.477,22.91606,-0.06005,0.32044,1.03344
143.077,22.97338,-0.06005,0.32109,1.03343
143.677,23.03077,-0.06058372,0.32045,1.03342
144.277,23.08814,-0.06268797,0.32065,1.03341
144.877,23.14553,-0.06269,0.32208,1.03339
145.477,23.20301,-0.06269,0.32178,1.03338
146.077,23.26031,-0.06269,0.32291,1.03336
146.677,23.3175,-0.06265892,0.32365,1.03334
147.277,23.37421,-0.06401,0.32374,1.03332
147.877,23.43152,-0.06401,0.32402,1.0333
148.477,23.48882,-0.06401,0.32499,1.03327
149.077,23.54664,-0.06400999,0.32507,1.03325
149.677,23.60422,-0.06533027,0.3274,1.03322
150.277,23.66155,-0.06532938,0.32765,1.03319
150.877,23.71856,-0.06795007,0.32792,1.03316
151.477,23.77564,-0.06795,0.32984,1.03313
152.077,23.83289,-0.06795,0.32953,1.0331
152.677,23.89013,-0.06799624,0.33107,1.03306
153.277,23.94725,-0.0706396,0.3316,1.03302
153.877,24.00435,-0.07059,0.332,1.03299
154.477,24.06159,-0.07059,0.33204,1.03295
155.077,24.11888,-0.07059,0.33383,1.03291
155.677,24.17637,-0.07058999,0.33354,1.03286
156.277,24.23367,-0.0719069,0.3353,1.03282
156.877,24.29095,-0.07191,0.33602,1.03277
157.477,24.34815,-0.07191,0.33617,1.03272
158.077,24.40545,-0.07322264,0.33819,1.03268
158.677,24.46267,-0.07453868,0.33988,1.03262
159.277,24.51996,-0.07587095,0.33865,1.03257
159.877,24.57708,-0.07587034,0.33966,1.03252
160.477,24.63399,-0.07718,0.34048,1.03246
161.077,24.69112,-0.07718,0.34005,1.03241
161.677,24.74799,-0.07717596,0.3421,1.03235
162.277,24.80573,-0.0785051,0.34314,1.03229
162.877,24.86292,-0.07981001,0.34536,1.03223
163.477,24.92059,-0.07981,0.3451,1.03216
164.077,24.97782,-0.07981,0.34511,1.0321
164.677,25.03496,-0.0798328,0.34592,1.03203
165.277,25.09195,-0.08245397,0.34826,1.03197
165.877,25.14904,-0.08244998,0.35028,1.0319
166.477,25.20609,-0.08376033,0.35032,1.03183
167.077,25.26319,-0.08376,0.35209,1.03175
167.677,25.32038,-0.08376,0.35148,1.03168
168.277,25.37754,-0.08375562,0.3546,1.03161
168.877,25.43452,-0.08474792,0.35563,1.03153
169.477,25.49134,-0.08574811,0.35717,1.03145
170.077,25.54833,-0.0863998,0.35633,1.03137
170.677,25.60538,-0.08771967,0.3591,1.03129
171.277,25.66254,-0.08821705,0.3582,1.03121
171.877,25.71969,-0.09036,0.35889,1.03112
172.477,25.77682,-0.09036036,0.36128,1.03104
173.077,25.83391,-0.09167001,0.35838,1.03095
173.677,25.891,-0.09167,0.36125,1.03086
174.277,25.94813,-0.09300269,0.36129,1.03077
174.877,26.00493,-0.09299244,0.36291,1.03068
175.477,26.06157,-0.09561208,0.36182,1.03059
176.077,26.11845,-0.09694842,0.36376,1.03049
176.677,26.17533,-0.09694,0.36505,1.0304
177.277,26.2325,-0.09826302,0.36487,1.0303
177.877,26.28954,-0.09894765,0.36591,1.0302
178.477,26.34659,-0.10089,0.36567,1.0301
179.077,26.40375,-0.10089,0.36694,1.03
179.677,26.46082,-0.10221,0.36651,1.02989
180.277,26.51786,-0.10355,0.36853,1.02979
180.877,26.57494,-0.10352,0.36929,1.02968
181.477,26.63201,-0.10484,0.37002,1.02957
182.077,26.68899,-0.10748,0.37182,1.02946
182.677,26.74587,-0.10886,0.37276,1.02935
183.277,26.80268,-0.10903,0.37439,1.02924
183.877,26.8594,-0.11012,0.3747,1.02913
184.477,26.91607,-0.11142,0.37656,1.02901
185.077,26.97282,-0.11274,0.37761,1.0289
185.677,27.0296,-0.11407,0.37722,1.02878
186.277,27.08661,-0.1167,0.37734,1.02866
186.877,27.14364,-0.11671,0.37857,1.02854
187.477,27.20051,-0.11802,0.3798,1.02841
188.077,27.25744,-0.11931,0.37981,1.02829
188.677,27.31434,-0.12167,0.38175,1.02817
189.277,27.37122,-0.12296,0.38161,1.02804
189.877,27.42811,-0.12427,0.38298,1.02791
190.477,27.48495,-0.12501,0.38419,1.02778
191.077,27.54186,-0.12693,0.385,1.02765
191.677,27.59884,-0.12822,0.38525,1.02752
192.277,27.65578,-0.12979,0.38783,1.02738
192.877,27.71286,-0.13143,0.38837,1.02725
193.477,27.76961,-0.13405,0.3894,1.02711
194.077,27.82638,-0.13535,0.39036,1.02697
194.677,27.88331,-0.13667,0.39196,1.02683
195.277,27.94002,-0.13942,0.39547,1.02669
195.877,27.99733,-0.14031,0.39459,1.02655
196.477,28.0542,-0.14206,0.39644,1.02641
197.077,28.1114,-0.14481,0.39745,1.02626
197.677,28.16828,-0.14612,0.39714,1.02611
198.277,28.22506,-0.14866,0.39964,1.02597
198.877,28.28192,-0.15031,0.4006,1.02582
199.477,28.33869,-0.1516,0.40233,1.02567
200.077,28.39553,-0.1555,0.40333,1.02551
200.677,28.45243,-0.15679,0.40404,1.02536
201.277,28.5092,-0.15842,0.40639,1.02521
201.877,28.56612,-0.16024,0.40698,1.02505
202.477,28.62313,-0.16215,0.40762,1.02489
203.077,28.68009,-0.16403,0.4089,1.02473
203.677,28.73694,-0.16661,0.41109,1.02457
204.277,28.79376,-0.16809,0.41305,1.02441
204.877,28.85062,-0.1706,0.4129,1.02425
205.477,28.90751,-0.17359,0.41669,1.02408
206.077,28.9646,-0.17499,0.41711,1.02392
206.677,29.02162,-0.17799,0.41982,1.02375
207.277,29.07866,-0.17936,0.41946,1.02358
207.877,29.13537,-0.18246,0.42094,1.02341
208.477,29.19232,-0.18429,0.42134,1.02324
209.077,29.24908,-0.18585,0.42259,1.02306
209.677,29.30609,-0.18734,0.42353,1.02289
210.277,29.36299,-0.1895,0.42428,1.02271
210.877,29.41985,-0.19353,0.42393,1.02254
211.477,29.47667,-0.19587,0.42729,1.02236
212.077,29.53366,-0.19794,0.42717,1.02218
212.677,29.5907,-0.19954,0.42805,1.022
213.277,29.64772,-0.20227,0.42896,1.02182
213.877,29.70473,-0.20541,0.43026,1.02163
214.477,29.76153,-0.20674,0.43003,1.02145
215.077,29.81822,-0.2081,0.4326,1.02126
215.677,29.87503,-0.21234,0.43176,1.02107
216.277,29.93178,-0.21553,0.43002,1.02088
216.877,29.98876,-0.21683,0.43183,1.02069
217.477,30.04551,-0.21894,0.43346,1.0205
218.077,30.10229,-0.22142,0.43326,1.02031
218.677,30.15904,-0.22418,0.43206,1.02012
219.277,30.2159,-0.22642,0.43405,1.01992
219.877,30.2729,-0.22833,0.43315,1.01972
220.477,30.32967,-0.23211,0.43471,1.01952
221.077,30.3865,-0.23381,0.43452,1.01933
221.677,30.4431,-0.23679,0.43207,1.01912
222.277,30.49988,-0.23841,0.43432,1.01892
222.877,30.55695,-0.24129,0.43225,1.01872
223.477,30.6138,-0.24262,0.43255,1.01851
224.077,30.67074,-0.24487,0.43215,1.01831
224.677,30.72752,-0.24701,0.43372,1.0181
225.277,30.78434,-0.24965,0.43133,1.01789
225.877,30.84105,-0.25293,0.43174,1.01768
226.477,30.89781,-0.25574,0.42989,1.01747
227.077,30.95455,-0.2558,0.42915,1.01726
227.677,31.01137,-0.25841,0.42794,1.01704
228.277,31.06807,-0.25975,0.42886,1.01683
228.877,31.1249,-0.26288,0.42908,1.01661
229.477,31.18182,-0.26412,0.42734,1.0164
230.077,31.23862,-0.26689,0.42742,1.01618
230.677,31.29496,-0.26952,0.42746,1.01596
231.277,31.35179,-0.27084,0.426,1.01574
231.877,31.40848,-0.27215,0.42768,1.01551
232.477,31.46519,-0.27344,0.42619,1.01529
233.077,31.5223,-0.27611,0.42571,1.01506
233.677,31.57897,-0.27753,0.4247,1.01484
234.277,31.63559,-0.27998,0.42471,1.01461
234.877,31.69222,-0.27916,0.42515,1.01438
235.477,31.74899,-0.28193,0.42482,1.01415
236.077,31.80575,-0.28332,0.42287,1.01392
236.677,31.86252,-0.2859,0.42318,1.01369
237.277,31.91925,-0.28787,0.42216,1.01345
237.877,31.976,-0.28982,0.42425,1.01322
238.477,32.03281,-0.29101,0.4223,1.01298
239.077,32.08931,-0.29215,0.42303,1.01274
239.677,32.14609,-0.29388,0.42336,1.0125
240.277,32.2028,-0.29422,0.42436,1.01226
240.877,32.25955,-0.29422,0.42464,1.01202
241.477,32.31667,-0.29565,0.42504,1.01178
242.077,32.3734,-0.29818,0.42393,1.01154
242.677,32.43018,-0.29949,0.42379,1.01129
243.277,32.487,-0.30081,0.42341,1.01105
243.877,32.54399,-0.30213,0.42458,1.0108
244.477,32.60095,-0.30354,0.42466,1.01055
245.077,32.65803,-0.30568,0.42647,1.0103
245.677,32.71494,-0.30607,0.42626,1.01005
246.277,32.77173,-0.30739,0.42655,1.0098
246.877,32.82859,-0.30871,0.42696,1.00954
247.477,32.88533,-0.30871,0.42643,1.00929
248.077,32.94225,-0.31003,0.42773,1.00903
248.677,32.99907,-0.31003,0.42821,1.00878
249.277,33.05583,-0.31117,0.42941,1.00852
249.877,33.11259,-0.31266,0.4282,1.00826
250.477,33.16945,-0.31398,0.43022,1.008
251.077,33.22627,-0.3153,0.43009,1.00774
251.677,33.28313,-0.31582,0.43074,1.00747
252.277,33.33997,-0.31662,0.4309,1.00721
252.877,33.39684,-0.31662,0.43086,1.00695
253.477,33.45374,-0.31793,0.43187,1.00668
254.077,33.51069,-0.31805,0.43297,1.00641
254.677,33.5677,-0.32044,0.43217,1.00614
255.277,33.62449,-0.32123,0.43317,1.00587
255.877,33.68144,-0.32187,0.43491,1.0056
256.477,33.73849,-0.32254,0.43579,1.00533
257.077,33.79571,-0.32452,0.43711,1.00506
257.677,33.85273,-0.32577,0.43589,1.00478
258.277,33.90974,-0.32619,0.43704,1.00451
258.877,33.96654,-0.3265,0.43863,1.00423
259.477,34.02342,-0.32782,0.43938,1.00395
260.077,34.08041,-0.32913,0.43968,1.00367
260.677,34.13728,-0.32963,0.44032,1.00339
261.277,34.19446,-0.3308,0.44163,1.00311
261.877,34.25162,-0.33177,0.44315,1.00283
262.477,34.30871,-0.3324,0.44445,1.00255
263.077,34.36569,-0.33375,0.44566,1.00226
263.677,34.42252,-0.33506,0.44783,1.00198
264.277,34.4793,-0.33639,0.44728,1.00169
264.877,34.53627,-0.3377,0.44998,1.0014
265.477,34.59309,-0.33822,0.45162,1.00111
266.077,34.64995,-0.34079,0.4538,1.00082
266.677,34.70682,-0.34128,0.45411,1.00053
267.277,34.76368,-0.34263,0.45636,1.00024
267.877,34.82076,-0.34413,0.45817,0.99994
268.477,34.87766,-0.34527,0.46095,0.99965
269.077,34.93467,-0.34658,0.462,0.99935
269.677,34.99164,-0.34787,0.46372,0.99906
270.277,35.04871,-0.34955,0.46582,0.99876
270.877,35.10563,-0.35095,0.46836,0.99846
271.477,35.1626,-0.35229,0.47057,0.99816
272.077,35.21964,-0.35383,0.47198,0.99786
272.677,35.27673,-0.35658,0.47632,0.99756
273.277,35.33393,-0.358,0.47869,0.99725
273.877,35.39098,-0.35931,0.4814,0.99695
274.477,35.44792,-0.36275,0.48293,0.99664
275.077,35.50474,-0.36469,0.48617,0.99634
275.677,35.56174,-0.36613,0.48973,0.99603
276.277,35.61871,-0.36744,0.4927,0.99572
276.877,35.67579,-0.36959,0.49493,0.99541
277.477,35.733,-0.37163,0.49889,0.9951
278.077,35.79027,-0.37456,0.50573,0.99479
278.677,35.84747,-0.37584,0.50806,0.99448
279.277,35.90484,-0.37863,0.51245,0.99416
279.877,35.96198,-0.38054,0.51531,0.99385
280.477,36.0194,-0.38338,0.52077,0.99353
281.077,36.07677,-0.38658,0.52439,0.99321
281.677,36.13412,-0.38808,0.52827,0.9929
282.277,36.19148,-0.39135,0.53106,0.99258
282.877,36.24888,-0.39497,0.53594,0.99226
283.477,36.30638,-0.39828,0.53915,0.99194
284.077,36.3637,-0.4017,0.54213,0.99161
284.677,36.42084,-0.40475,0.54761,0.99129
285.277,36.47813,-0.40788,0.54911,0.99097
285.877,36.53543,-0.41111,0.55465,0.99064
286.477,36.59288,-0.41467,0.5591,0.99031
287.077,36.65067,-0.41781,0.56587,0.98999
287.677,36.70815,-0.42211,0.5694,0.98966
288.277,36.76565,-0.42554,0.57268,0.98933
288.877,36.82311,-0.42809,0.57814,0.989
289.477,36.88059,-0.43224,0.57912,0.98867
290.077,36.93802,-0.43599,0.58389,0.98834
290.677,36.99553,-0.44111,0.58944,0.988
291.277,37.05297,-0.44496,0.59233,0.98767
291.877,37.11051,-0.44842,0.59662,0.98733
292.477,37.16793,-0.45511,0.59849,0.987
293.077,37.22545,-0.45986,0.60231,0.98666
293.677,37.28308,-0.46409,0.60435,0.98632
294.277,37.34046,-0.46822,0.60731,0.98598
294.877,37.39789,-0.47309,0.61101,0.98564
295.477,37.45517,-0.47636,0.61224,0.9853
296.077,37.51267,-0.48124,0.61491,0.98496
296.677,37.57009,-0.4881,0.61845,0.98462
297.277,37.62751,-0.49288,0.62213,0.98427
297.877,37.68486,-0.49719,0.62362,0.98393
298.477,37.74223,-0.5042,0.62574,0.98358
299.077,37.79968,-0.5098,0.62831,0.98323
299.677,37.85707,-0.51463,0.62916,0.98289
300.277,37.91425,-0.52104,0.63129,0.98254
300.877,37.9714,-0.52834,0.63328,0.98219
301.477,38.02863,-0.53439,0.63574,0.98184
302.077,38.08577,-0.53997,0.63569,0.98148
302.677,38.14306,-0.54666,0.63537,0.98113
303.277,38.20026,-0.55357,0.63672,0.98078
303.877,38.25747,-0.55967,0.63384,0.98042
304.477,38.31477,-0.56684,0.63582,0.98007
305.077,38.37194,-0.57358,0.6349,0.97971
305.677,38.42911,-0.58053,0.63428,0.97936
306.277,38.48617,-0.58742,0.63584,0.979
306.877,38.54311,-0.59437,0.63326,0.97864
307.477,38.60004,-0.60186,0.63474,0.97828
308.077,38.65708,-0.60882,0.63225,0.97792
308.677,38.71413,-0.61588,0.6324,0.97756
309.277,38.77131,-0.62376,0.63189,0.97719
309.877,38.82846,-0.63106,0.62925,0.97683
310.477,38.8855,-0.6401,0.63023,0.97646
311.077,38.94256,-0.64787,0.62865,0.9761
311.677,38.99961,-0.65514,0.62648,0.97573
312.277,39.05652,-0.66415,0.62088,0.97537
312.877,39.11361,-0.67228,0.62259,0.975
313.477,39.17069,-0.68057,0.61843,0.97463
314.077,39.22793,-0.68829,0.61695,0.97426
314.677,39.28538,-0.69897,0.61571,0.97389
315.277,39.34264,-0.70708,0.61462,0.97352
315.877,39.39959,-0.71673,0.6134,0.97314
316.477,39.45658,-0.72502,0.61004,0.97277
317.077,39.51373,-0.7353,0.606,0.9724
317.677,39.57091,-0.74411,0.6048,0.97202
318.277,39.62858,-0.75406,0.60401,0.97165
318.877,39.68592,-0.76454,0.60093,0.97127
319.477,39.74329,-0.77399,0.59883,0.97089
320.077,39.80058,-0.78527,0.59616,0.97051
320.677,39.85798,-0.79564,0.594,0.97013
321.277,39.91522,-0.80577,0.5916,0.96975
321.877,39.97247,-0.81656,0.5886,0.96937
322.477,40.02974,-0.8262,0.58721,0.96899
323.077,40.08694,-0.83784,0.58424,0.96861
323.677,40.14424,-0.84963,0.58151,0.96822
324.277,40.20162,-0.86018,0.58057,0.96784
324.877,40.259,-0.87165,0.57757,0.96745
325.477,40.31629,-0.88375,0.5756,0.96707
326.077,40.37364,-0.89646,0.57229,0.96668
326.677,40.43091,-0.90847,0.56928,0.96629
327.277,40.48829,-0.92184,0.56744,0.96591
327.877,40.54585,-0.93558,0.56617,0.96552
328.477,40.60334,-0.94794,0.56264,0.96513
329.077,40.6608,-0.96178,0.56171,0.96473
329.677,40.71811,-0.97522,0.55781,0.96434
330.277,40.77556,-0.98822,0.5556,0.96395
330.877,40.833,-1.00263,0.55273,0.96356
331.477,40.89067,-1.01651,0.55119,0.96316
332.077,40.94819,-1.0312,0.54765,0.96277
332.677,41.00556,-1.04749,0.54332,0.96237
333.277,41.06283,-1.06369,0.54062,0.96198
333.877,41.12001,-1.08004,0.53799,0.96158
334.477,41.17699,-1.09585,0.53304,0.96118
335.077,41.23431,-1.11238,0.52821,0.96078
335.677,41.29164,-1.12946,0.5231,0.96038
336.277,41.34897,-1.14676,0.5207,0.95998
336.877,41.40669,-1.16405,0.51705,0.95958
337.477,41.4642,-1.18391,0.51058,0.95918
338.077,41.52175,-1.20158,0.50848,0.95877
338.677,41.57875,-1.21876,0.50108,0.95837
339.277,41.63576,-1.2397,0.4984,0.95797
339.877,41.69306,-1.25915,0.49211,0.95756
340.477,41.75036,-1.27823,0.48817,0.95716
341.077,41.8083,-1.29846,0.48123,0.95675
341.677,41.86573,-1.3207,0.47624,0.95634
342.277,41.92308,-1.34045,0.47262,0.95593
342.877,41.98047,-1.36247,0.46738,0.95553
343.477,42.03781,-1.38589,0.45975,0.95512
344.077,42.09536,-1.40777,0.45217,0.95471
344.677,42.1528,-1.42989,0.44699,0.95429
345.277,42.21016,-1.45127,0.44134,0.95388
345.877,42.2675,-1.47601,0.43404,0.95347
346.477,42.32465,-1.49791,0.4261,0.95306
347.077,42.38192,-1.52232,0.41629,0.95264
347.677,42.43913,-1.54618,0.41063,0.95223
348.277,42.49635,-1.56921,0.399,0.95181
348.877,42.5536,-1.59337,0.39088,0.9514
349.477,42.61073,-1.61684,0.3812,0.95098
350.077,42.66782,-1.64226,0.37211,0.95056
350.677,42.72496,-1.66716,0.36213,0.95014
351.277,42.78194,-1.68911,0.35305,0.94973
351.877,42.83907,-1.71445,0.34022,0.94931
352.477,42.89612,-1.73793,0.3283,0.94889
353.077,42.95335,-1.76227,0.31755,0.94846
353.677,43.01036,-1.78418,0.30434,0.94804
354.277,43.06743,-1.80976,0.29066,0.94762
354.877,43.12456,-1.83206,0.27647,0.9472
355.477,43.18155,-1.85644,0.26491,0.94677
356.077,43.23852,-1.87937,0.25237,0.94635
356.677,43.29546,-1.90225,0.23585,0.94592
357.277,43.35244,-1.92442,0.22392,0.9455
357.877,43.40957,-1.94645,0.21297,0.94507
358.477,43.46682,-1.96782,0.19683,0.94464
359.077,43.52407,-1.98826,0.18362,0.94422
359.677,43.58125,-2.01128,0.1706,0.94379
360.277,43.6385,-2.03158,0.15818,0.94336
360.877,43.69577,-2.05187,0.14553,0.94293
361.477,43.75249,-2.07025,0.13624,0.9425
362.077,43.80985,-2.08925,0.1234,0.94207
362.677,43.86709,-2.10858,0.11336,0.94163
363.277,43.92447,-2.12745,0.10115,0.9412
363.877,43.9821,-2.14565,0.09047312,0.94077
364.477,44.0394,-2.16399,0.08170244,0.94034
365.077,44.09688,-2.18101,0.07368251,0.9399
365.677,44.15426,-2.19821,0.06625919,0.93947
366.277,44.21163,-2.21587,0.06053557,0.93903
366.877,44.26911,-2.22891,0.05260662,0.93859
367.477,44.32673,-2.24443,0.04602142,0.93816
368.077,44.38441,-2.25916,0.04145272,0.93772
368.677,44.44192,-2.27275,0.03642784,0.93728
369.277,44.49948,-2.28804,0.03073711,0.93684
369.877,44.55708,-2.30082,0.02899981,0.9364
370.477,44.61467,-2.31432,0.02716535,0.93596
371.077,44.6724,-2.32621,0.024154,0.93552
371.677,44.73013,-2.33967,0.02079429,0.93508
372.277,44.78791,-2.35204,0.01791947,0.93464
372.877,44.84573,-2.36291,0.01750816,0.9342
373.477,44.90311,-2.37316,0.01659921,0.93375
374.077,44.9608,-2.38478,0.01706639,0.93331
374.677,45.01862,-2.39495,0.01443798,0.93287
375.277,45.07665,-2.40528,0.01644993,0.93242
375.877,45.13473,-2.4142,0.01407169,0.93198
376.477,45.19246,-2.4239,0.01441237,0.93153
377.077,45.25023,-2.43287,0.01694981,0.93108
377.677,45.30809,-2.44168,0.01735515,0.93064
378.277,45.36599,-2.45008,0.01878712,0.93019
378.877,45.42381,-2.45668,0.01844427,0.92974
379.477,45.48166,-2.46469,0.02027451,0.92929
380.077,45.53941,-2.47121,0.02092858,0.92884
380.677,45.59744,-2.47948,0.0204288,0.92839
381.277,45.65547,-2.48576,0.02268846,0.92794
381.877,45.71346,-2.49269,0.02173546,0.92749
382.477,45.77145,-2.49885,0.02362809,0.92704
383.077,45.82945,-2.50515,0.02462909,0.92659
383.677,45.88748,-2.51297,0.02748369,0.92613
384.277,45.9455,-2.51912,0.02808183,0.92568
384.877,46.00358,-2.52422,0.03051387,0.92523
385.477,46.06158,-2.53051,0.03196485,0.92477
386.077,46.11966,-2.5347,0.03290098,0.92432
386.677,46.17771,-2.5398,0.03323335,0.92386
387.277,46.23582,-2.54557,0.0368344,0.92341
387.877,46.29398,-2.55058,0.03727348,0.92295
388.477,46.35205,-2.5552,0.0377657,0.92249
389.077,46.41032,-2.55988,0.04065825,0.92203
389.677,46.4685,-2.56471,0.04141916,0.92158
390.277,46.5268,-2.56843,0.04346276,0.92112
390.877,46.58501,-2.57356,0.04417182,0.92066
391.477,46.64333,-2.57804,0.04480388,0.9202
392.077,46.70147,-2.58209,0.04556575,0.91974
392.677,46.75964,-2.58641,0.04474216,0.91928
393.277,46.81802,-2.59054,0.04569931,0.91882
393.877,46.87626,-2.59523,0.04655109,0.91835
394.477,46.93449,-2.59915,0.04502935,0.91789
395.077,46.99273,-2.60225,0.04594706,0.91743
395.677,47.05091,-2.60673,0.0474334,0.91697
396.277,47.10935,-2.61042,0.04753369,0.9165
396.877,47.16777,-2.61351,0.04639592,0.91604
397.477,47.22634,-2.61735,0.04556251,0.91557
398.077,47.28489,-2.6213,0.04678913,0.91511
398.677,47.34338,-2.62435,0.04541263,0.91464
399.277,47.40181,-2.628,0.0456718,0.91418
399.877,47.46011,-2.63201,0.04500718,0.91371
400.477,47.51842,-2.63498,0.0454612,0.91324
401.077,47.5767,-2.63834,0.04639828,0.91277
401.677,47.63508,-2.64197,0.04578542,0.91231
402.277,47.69335,-2.64553,0.04487782,0.91184
402.877,47.75165,-2.64843,0.04410656,0.91137
403.477,47.81,-2.65015,0.0458747,0.9109
404.077,47.86839,-2.65343,0.0454997,0.91043
404.677,47.9267,-2.65786,0.04438477,0.90996
405.277,47.9848,-2.66202,0.04361746,0.90949
405.877,48.04299,-2.66474,0.044594,0.90902
406.477,48.10134,-2.66772,0.04155148,0.90854
407.077,48.15967,-2.67108,0.04075763,0.90807
407.677,48.21804,-2.67353,0.04062168,0.9076
408.277,48.27612,-2.67695,0.04075992,0.90713
408.877,48.33432,-2.67992,0.04147905,0.90665
409.477,48.39262,-2.68284,0.04238216,0.90618
410.077,48.45093,-2.68591,0.04087288,0.9057
410.677,48.50933,-2.68925,0.03903212,0.90523
411.277,48.56768,-2.69079,0.0377141,0.90475
411.877,48.62598,-2.69321,0.03639075,0.90428
412.477,48.6843,-2.69518,0.03787509,0.9038
413.077,48.74271,-2.69903,0.03721806,0.90333
413.677,48.80103,-2.70172,0.03698864,0.90285
414.277,48.85938,-2.70605,0.03607169,0.90237
414.877,48.91765,-2.70909,0.03642539,0.90189
415.477,48.97556,-2.71211,0.03611874,0.90142
416.077,49.03391,-2.71526,0.03490081,0.90094
416.677,49.09228,-2.71794,0.0340576,0.90046
417.277,49.1509,-2.71929,0.03574889,0.89998
417.877,49.20926,-2.72251,0.03470976,0.8995
418.477,49.26747,-2.72559,0.03579899,0.89902
419.077,49.3257,-2.7271,0.03515098,0.89854
419.677,49.384,-2.72972,0.0355943,0.89806
420.277,49.44248,-2.73203,0.03485656,0.89758
420.877,49.50095,-2.73501,0.03570799,0.89709
421.477,49.55941,-2.73812,0.03418144,0.89661
422.077,49.6178,-2.7412,0.03468201,0.89613
422.677,49.6762,-2.74412,0.03581286,0.89565
423.277,49.73446,-2.74603,0.03609992,0.89516
423.877,49.79277,-2.74842,0.03607613,0.89468
424.477,49.85108,-2.74996,0.03732434,0.8942
425.077,49.90893,-2.75302,0.03410999,0.89371
425.677,49.96723,-2.75596,0.03428197,0.89323
426.277,50.0255,-2.75743,0.0352576,0.89274
426.877,50.08424,-2.76083,0.03310633,0.89226
427.477,50.14306,-2.7639,0.03242782,0.89177
428.077,50.20158,-2.76606,0.03438374,0.89129
428.677,50.26005,-2.76831,0.03024577,0.8908
429.277,50.3185,-2.77193,0.03071655,0.89031
429.877,50.37684,-2.77476,0.02970861,0.88982
430.477,50.43523,-2.77729,0.03026842,0.88934
431.077,50.49361,-2.77903,0.0311425,0.88885
431.677,50.55222,-2.7823,0.03112703,0.88836
432.277,50.6108,-2.78459,0.02926092,0.88787
432.877,50.66942,-2.78851,0.03183975,0.88738
433.477,50.72793,-2.79099,0.03261977,0.88689
434.077,50.78655,-2.79423,0.03208588,0.88641
434.677,50.84512,-2.79693,0.03233263,0.88592
435.277,50.90391,-2.79882,0.03210475,0.88543
435.877,50.96254,-2.8004,0.03185915,0.88493
436.477,51.02111,-2.80299,0.03489522,0.88444
437.077,51.07954,-2.80616,0.03302965,0.88395
437.677,51.13811,-2.80989,0.03497762,0.88346
438.277,51.1966,-2.81311,0.03213954,0.88297
438.877,51.25518,-2.81593,0.03375058,0.88248
439.477,51.31376,-2.81888,0.03328473,0.88199
440.077,51.37226,-2.8205,0.03396392,0.88149
440.677,51.43103,-2.82269,0.03402987,0.881
441.277,51.48962,-2.8257,0.03355878,0.88051
441.877,51.54852,-2.83009,0.03360957,0.88001
442.477,51.60714,-2.8326,0.03267413,0.87952
443.077,51.6658,-2.83367,0.03143737,0.87903
443.677,51.72452,-2.83649,0.03181665,0.87853
444.277,51.78317,-2.83937,0.0317401,0.87804
444.877,51.84202,-2.84266,0.032568,0.87754
445.477,51.9006,-2.84576,0.03363755,0.87705
446.077,51.95932,-2.84865,0.03305382,0.87655
446.677,52.01813,-2.85193,0.03428289,0.87605
447.277,52.07675,-2.85461,0.03539453,0.87556
447.877,52.13583,-2.8562,0.0351413,0.87506
448.477,52.1946,-2.85991,0.03462792,0.87457
449.077,52.25325,-2.86372,0.0346866,0.87407
449.677,52.31225,-2.86571,0.03273764,0.87357
450.277,52.37103,-2.8688,0.03193321,0.87307
450.877,52.42986,-2.87203,0.03083225,0.87258
451.477,52.48891,-2.87442,0.02939566,0.87208
452.077,52.54754,-2.8775,0.03049836,0.87158
452.677,52.60626,-2.88051,0.03119594,0.87108
453.277,52.66511,-2.88336,0.0312409,0.87058
453.877,52.72409,-2.88684,0.03072253,0.87008
454.477,52.7833,-2.889,0.032266,0.86959
455.077,52.84221,-2.8919,0.03046185,0.86909
455.677,52.9012,-2.89395,0.02918967,0.86859
456.277,52.96015,-2.89709,0.03076966,0.86809
456.877,53.01927,-2.90003,0.02973975,0.86759
457.477,53.07827,-2.90321,0.0283662,0.86709
458.077,53.13696,-2.90612,0.03128157,0.86659
458.677,53.19583,-2.91019,0.0309635,0.86608
459.277,53.25453,-2.91298,0.02960005,0.86558
459.877,53.3136,-2.91605,0.03153168,0.86508
460.477,53.37271,-2.91905,0.03127542,0.86458
461.077,53.43164,-2.92202,0.02964893,0.86408
461.677,53.49083,-2.92503,0.03135242,0.86358
462.277,53.54983,-2.92815,0.03082844,0.86308
462.877,53.60881,-2.93071,0.03403147,0.86257
463.477,53.6679,-2.93345,0.03216877,0.86207
464.077,53.72693,-2.93429,0.03036262,0.86157
464.677,53.78592,-2.93859,0.03138946,0.86107
465.277,53.84497,-2.94315,0.02928571,0.86056
465.877,53.90407,-2.94612,0.03174609,0.86006
466.477,53.96282,-2.94877,0.03067102,0.85956
467.077,54.02165,-2.95168,0.02964804,0.85905
467.677,54.08056,-2.95468,0.03128364,0.85855
468.277,54.13935,-2.95777,0.03138233,0.85804
468.877,54.19881,-2.95942,0.03095081,0.85754
469.477,54.25783,-2.96294,0.03247257,0.85704
470.077,54.31688,-2.96643,0.03088666,0.85653
470.677,54.37597,-2.96975,0.03169301,0.85603
471.277,54.43481,-2.97298,0.03213289,0.85552
471.877,54.49375,-2.97585,0.0315143,0.85502
472.477,54.55265,-2.97948,0.03112122,0.85451
473.077,54.61165,-2.98182,0.03077403,0.85401
473.677,54.67066,-2.98559,0.03199582,0.8535
474.277,54.72973,-2.98898,0.02963809,0.85299
474.877,54.78875,-2.9917,0.03268115,0.85249
475.477,54.84768,-2.99504,0.0329127,0.85198
476.077,54.90643,-2.9991,0.03337796,0.85148
476.677,54.96548,-3.00248,0.03392762,0.85097
477.277,55.02467,-3.00377,0.03211705,0.85046
477.877,55.084,-3.00727,0.03300975,0.84996
478.477,55.14328,-3.01133,0.03263313,0.84945
479.077,55.20241,-3.01366,0.03104278,0.84894
479.677,55.26136,-3.0168,0.02942168,0.84844
480.277,55.32031,-3.02057,0.03233411,0.84793
480.877,55.37931,-3.02453,0.03289499,0.84742
481.477,55.43824,-3.02604,0.03257782,0.84691
482.077,55.49732,-3.03038,0.03290972,0.84641
482.677,55.55645,-3.03399,0.03444075,0.8459
483.277,55.61563,-3.03706,0.03385899,0.84539
483.877,55.67483,-3.03817,0.03317717,0.84488
484.477,55.73399,-3.04042,0.03234472,0.84437
485.077,55.79311,-3.0462,0.03505057,0.84387
485.677,55.85209,-3.04803,0.03387717,0.84336
486.277,55.91122,-3.05233,0.03496157,0.84285
486.877,55.97031,-3.05533,0.03288764,0.84234
487.477,56.02955,-3.05832,0.03245424,0.84183
488.077,56.08868,-3.05965,0.03219007,0.84132
488.677,56.1478,-3.06324,0.03247003,0.84081
489.277,56.20698,-3.06635,0.03249623,0.8403
489.877,56.26621,-3.06896,0.03493685,0.83979
490.477,56.32515,-3.07186,0.03402816,0.83929
491.077,56.38422,-3.07579,0.03366023,0.83878
491.677,56.44349,-3.07893,0.03142795,0.83827
492.277,56.50282,-3.08026,0.03273778,0.83776
492.877,56.562,-3.08319,0.03383082,0.83725
493.477,56.62119,-3.08604,0.03318475,0.83674
494.077,56.68038,-3.08927,0.03420894,0.83623
494.677,56.73976,-3.09224,0.0328635,0.83572
495.277,56.799,-3.09544,0.03313121,0.83521
495.877,56.8582,-3.09839,0.03368495,0.8347
496.477,56.91746,-3.10123,0.03371286,0.83419
497.077,56.9767,-3.10284,0.03500042,0.83368
497.677,57.03611,-3.10564,0.0351826,0.83317
498.277,57.09539,-3.1086,0.03300664,0.83266
498.877,57.15474,-3.10994,0.03436359,0.83215
499.477,57.21405,-3.11169,0.03528533,0.83163
500.077,57.27338,-3.11379,0.03617023,0.83112
500.677,57.33261,-3.11619,0.04528425,0.83061
501.277,57.39194,-3.11879,0.05217772,0.8301
501.877,57.45122,-3.12194,0.05319143,0.82959
502.477,57.51049,-3.12448,0.05618465,0.82908
503.077,57.56969,-3.12477,0.05733571,0.82857
503.677,57.62901,-3.12772,0.05869379,0.82806
504.277,57.68815,-3.1308,0.06017271,0.82755
504.877,57.74747,-3.13379,0.06235321,0.82704
505.477,57.80668,-3.13511,0.06311288,0.82653
506.077,57.86646,-3.13625,0.06449331,0.82601
506.677,57.92591,-3.13906,0.06853593,0.8255
507.277,57.98537,-3.13903,0.06565469,0.82499
507.877,58.04483,-3.14309,0.06716694,0.82448
508.477,58.10385,-3.14309,0.06801267,0.82397
509.077,58.16326,-3.14441,0.06999925,0.82346
509.677,58.22278,-3.1459,0.07042428,0.82295
510.277,58.28236,-3.14869,0.06974985,0.82243
510.877,58.34197,-3.14998,0.06971015,0.82192
511.477,58.40129,-3.15294,0.07079305,0.82141
512.077,58.46075,-3.15284,0.07058197,0.8209
512.677,58.52014,-3.15455,0.07021748,0.82039
513.277,58.5796,-3.15549,0.07185168,0.81988
513.877,58.63906,-3.15813,0.07142636,0.81936
514.477,58.69846,-3.15812,0.07144232,0.81885
515.077,58.758,-3.16082,0.07162391,0.81834
515.677,58.81757,-3.16395,0.07057991,0.81783
516.277,58.87716,-3.16636,0.07577398,0.81732
516.877,58.9367,-3.16647,0.08034883,0.81681
517.477,58.99621,-3.16742,0.08217963,0.81629
518.077,59.05572,-3.16909,0.08467852,0.81578
518.677,59.11513,-3.17042,0.09033022,0.81527
519.277,59.17445,-3.17174,0.09527644,0.81476
519.877,59.2338,-3.17306,0.09896722,0.81425
520.477,59.29324,-3.17597,0.10127,0.81374
521.077,59.35278,-3.17769,0.10365,0.81322
521.677,59.41234,-3.17921,0.10666,0.81271
522.277,59.47186,-3.17948,0.10731,0.8122
522.877,59.53144,-3.1806,0.11061,0.81169
523.477,59.59092,-3.18195,0.10993,0.81118
524.077,59.65039,-3.18393,0.11132,0.81067
524.677,59.70954,-3.18524,0.11309,0.81015
525.277,59.76916,-3.18656,0.11456,0.80964
525.877,59.82888,-3.18788,0.11188,0.80913
526.477,59.88902,-3.1892,0.11077,0.80862
527.077,59.94872,-3.18985,0.11152,0.80811
527.677,60.00844,-3.18984,0.10945,0.8076
528.277,60.06798,-3.19261,0.11321,0.80708
528.877,60.12752,-3.19392,0.11086,0.80657
529.477,60.18693,-3.19523,0.10934,0.80606
530.077,60.24629,-3.19656,0.10993,0.80555
530.677,60.30574,-3.19796,0.10839,0.80504
531.277,60.36535,-3.19984,0.10603,0.80453
531.877,60.42505,-3.19993,0.10345,0.80402
532.477,60.48483,-3.2023,0.10252,0.8035
533.077,60.54453,-3.20127,0.10055,0.80299
533.677,60.60414,-3.20391,0.09647223,0.80248
534.277,60.66377,-3.20533,0.09396897,0.80197
534.877,60.72328,-3.20665,0.09187305,0.80146
535.477,60.7829,-3.20665,0.09013053,0.80095
536.077,60.84261,-3.20797,0.091438,0.80044
536.677,60.9024,-3.20929,0.08734762,0.79993
537.277,60.96218,-3.20879,0.08354481,0.79942
537.877,61.02185,-3.20962,0.08378404,0.79891
538.477,61.08146,-3.21113,0.08157766,0.79839
539.077,61.14106,-3.21236,0.08072809,0.79788
539.677,61.2009,-3.21373,0.07987624,0.79737
540.277,61.26053,-3.21499,0.07943287,0.79686
540.877,61.32041,-3.21497,0.07841527,0.79635
541.477,61.38008,-3.21631,0.07935007,0.79584
542.077,61.43983,-3.21765,0.08320057,0.79533
542.677,61.49938,-3.21905,0.07904125,0.79482
543.277,61.55891,-3.22037,0.07795388,0.79431
543.877,61.61852,-3.22169,0.07798662,0.7938
544.477,61.67825,-3.22169,0.07801605,0.79329
545.077,61.73808,-3.22299,0.07640469,0.79278
545.677,61.79788,-3.22434,0.07772369,0.79227
546.277,61.85755,-3.22531,0.07430174,0.79176
546.877,61.91751,-3.22654,0.07151687,0.79125
547.477,61.97727,-3.22663,0.07364729,0.79074
548.077,62.03707,-3.227,0.07000552,0.79023
548.677,62.09694,-3.22665,0.0668143,0.78972
549.277,62.15666,-3.22915,0.06688408,0.78921
549.877,62.21644,-3.22989,0.0633972,0.7887
550.477,62.27624,-3.23059,0.05945851,0.78819
551.077,62.336,-3.2319,0.05615281,0.78768
551.677,62.39577,-3.23324,0.05255194,0.78718
552.277,62.45533,-3.23452,0.04993935,0.78667
552.877,62.51465,-3.23453,0.03845623,0.78616
553.477,62.57396,-3.23322,0.01867853,0.78565
554.077,62.63324,-3.2332,-0.001753046,0.78514
554.677,62.69262,-3.23454,-0.01309825,0.78463
555.277,62.75205,-3.23597,-0.02606844,0.78412
555.877,62.81132,-3.23728,-0.03481568,0.78361
556.477,62.87089,-3.23876,-0.04179019,0.78311
557.077,62.93038,-3.2403,-0.04810532,0.7826
557.677,62.99028,-3.24024,-0.05150329,0.78209
558.277,63.04971,-3.24158,-0.05329047,0.78158
558.877,63.10944,-3.24156,-0.05741048,0.78107
559.477,63.1692,-3.24058,-0.06036961,0.78057
560.077,63.22921,-3.24156,-0.06425348,0.78006
560.677,63.28897,-3.24156,-0.06524253,0.77955
561.277,63.34881,-3.24288,-0.07001101,0.77904
561.877,63.40866,-3.24386,-0.07155217,0.77854
562.477,63.46882,-3.2442,-0.07379922,0.77803
563.077,63.52882,-3.24482,-0.07718632,0.77752
563.677,63.58876,-3.24552,-0.08081493,0.77702
564.277,63.64865,-3.24645,-0.08186112,0.77651
564.877,63.70845,-3.24749,-0.08572791,0.776
565.477,63.7682,-3.24881,-0.08777633,0.7755
566.077,63.82814,-3.2478,-0.08996405,0.77499
566.677,63.88801,-3.24783,-0.09039257,0.77448
567.277,63.94797,-3.24881,-0.09501844,0.77398
567.877,64.00787,-3.25013,-0.0954274,0.77347
568.477,64.06761,-3.25013,-0.09529021,0.77297
569.077,64.1276,-3.25011,-0.09562871,0.77246
569.677,64.18737,-3.25144,-0.09465672,0.77196
570.277,64.24725,-3.25142,-0.0967129,0.77145
570.877,64.30721,-3.25223,-0.09377694,0.77095
571.477,64.36731,-3.25177,-0.0949885,0.77044
572.077,64.42757,-3.2531,-0.09668576,0.76994
572.677,64.48783,-3.25309,-0.09714807,0.76943
573.277,64.54775,-3.25572,-0.09877562,0.76893
573.877,64.60775,-3.25573,-0.09956663,0.76842
574.477,64.66777,-3.25599,-0.10085,0.76792
575.077,64.72754,-3.25638,-0.1026,0.76741
575.677,64.78757,-3.25536,-0.10594,0.76691
576.277,64.84764,-3.25573,-0.10173,0.76641
576.877,64.90794,-3.25704,-0.10488,0.7659
577.477,64.96812,-3.25704,-0.10539,0.7654
578.077,65.02821,-3.25902,-0.10637,0.7649
578.677,65.08835,-3.2593,-0.10546,0.76439
579.277,65.14852,-3.26034,-0.10585,0.76389
579.877,65.20874,-3.26033,-0.10654,0.76339
580.477,65.26896,-3.26165,-0.10836,0.76289
581.077,65.32911,-3.26165,-0.10866,0.76238
581.677,65.38914,-3.26165,-0.11118,0.76188
582.277,65.44918,-3.26297,-0.11052,0.76138
582.877,65.50946,-3.26332,-0.11036,0.76088
583.477,65.56978,-3.26429,-0.11116,0.76038
584.077,65.63014,-3.2656,-0.11378,0.75987
584.677,65.69034,-3.2656,-0.11385,0.75937
585.277,65.75046,-3.2656,-0.11759,0.75887
585.877,65.81062,-3.2656,-0.1209,0.75837
586.477,65.87059,-3.26428,-0.12275,0.75787
587.077,65.9307,-3.26433,-0.12624,0.75737
587.677,65.99073,-3.2656,-0.12757,0.75687
588.277,66.05072,-3.26662,-0.13053,0.75637
588.877,66.11077,-3.26791,-0.13717,0.75587
589.477,66.17055,-3.26923,-0.14607,0.75537
590.077,66.23026,-3.26792,-0.15002,0.75487
590.677,66.28999,-3.26791,-0.16259,0.75437
591.277,66.34974,-3.26791,-0.17424,0.75387
591.877,66.40951,-3.26922,-0.18592,0.75337
592.477,66.46944,-3.26922,-0.19104,0.75287
593.077,66.52915,-3.27054,-0.19659,0.75238
593.677,66.589,-3.27054,-0.20046,0.75188
594.277,66.64895,-3.26955,-0.20258,0.75138
594.877,66.70885,-3.26955,-0.20518,0.75088
595.477,66.76924,-3.27087,-0.20559,0.75038
596.077,66.82932,-3.27087,-0.20572,0.74989
596.677,66.88949,-3.27087,-0.20508,0.74939
597.277,66.94961,-3.27054,-0.20765,0.74889
597.877,67.00988,-3.27186,-0.20614,0.74839
598.477,67.07035,-3.27186,-0.20752,0.7479
599.077,67.13061,-3.27252,-0.20816,0.7474
599.677,67.19118,-3.27284,-0.21124,0.7469
600.277,67.2514,-3.27317,-0.21221,0.74641
600.877,67.31167,-3.27449,-0.20873,0.74591
601.477,67.37206,-3.27449,-0.20942,0.74542
602.077,67.43235,-3.27317,-0.20682,0.74492
602.677,67.49285,-3.27449,-0.20921,0.74443
603.277,67.55326,-3.27449,-0.20716,0.74393
603.877,67.61375,-3.27549,-0.20581,0.74344
604.477,67.67401,-3.27548,-0.20538,0.74294
605.077,67.73434,-3.27548,-0.20047,0.74245
605.677,67.79456,-3.27548,-0.20013,0.74195
606.277,67.85485,-3.27581,-0.19689,0.74146
606.877,67.91517,-3.27681,-0.1964,0.74097
607.477,67.97554,-3.27681,-0.19605,0.74047
608.077,68.03573,-3.27681,-0.19212,0.73998
608.677,68.09585,-3.27699,-0.19147,0.73949
609.277,68.15595,-3.27812,-0.19204,0.73899
609.877,68.21619,-3.27713,-0.1881,0.7385
610.477,68.27655,-3.27845,-0.1862,0.73801
611.077,68.33695,-3.27976,-0.18426,0.73752
611.677,68.39724,-3.27888,-0.17836,0.73703
612.277,68.45755,-3.27845,-0.18092,0.73654
612.877,68.51792,-3.27944,-0.17832,0.73604
613.477,68.5783,-3.27944,-0.17394,0.73555
614.077,68.63881,-3.28043,-0.17508,0.73506
614.677,68.69917,-3.28076,-0.17157,0.73457
615.277,68.75963,-3.27981,-0.16404,0.73408
615.877,68.81997,-3.28076,-0.1593,0.73359
616.477,68.88041,-3.28076,-0.15804,0.7331
617.077,68.94083,-3.28206,-0.1575,0.73261
617.677,69.00119,-3.28075,-0.15426,0.73212
618.277,69.06157,-3.28088,-0.15296,0.73163
618.877,69.12192,-3.28174,-0.15368,0.73115
619.477,69.18209,-3.28174,-0.1515,0.73066
620.077,69.2426,-3.28233,-0.15193,0.73017
620.677,69.30299,-3.28273,-0.15111,0.72968
621.277,69.36331,-3.28273,-0.14878,0.72919
621.877,69.42346,-3.28213,-0.15046,0.72871
622.477,69.48375,-3.28207,-0.14791,0.72822
623.077,69.54424,-3.28339,-0.14927,0.72773
623.677,69.60461,-3.28339,-0.14731,0.72725
624.277,69.66476,-3.28339,-0.14533,0.72676
624.877,69.72502,-3.28339,-0.14568,0.72627
625.477,69.78505,-3.28339,-0.14758,0.72579
626.077,69.84533,-3.28471,-0.14727,0.7253
626.677,69.90589,-3.28471,-0.1507,0.72482
627.277,69.96641,-3.28471,-0.14732,0.72433
627.877,70.02673,-3.28555,-0.148,0.72385
628.477,70.08701,-3.28569,-0.14755,0.72336
629.077,70.14711,-3.28569,-0.14853,0.72288
629.677,70.20745,-3.28569,-0.1498,0.72239
630.277,70.2677,-3.28437,-0.14679,0.72191
630.877,70.32808,-3.28437,-0.14713,0.72143
631.477,70.38866,-3.28566,-0.14526,0.72094
632.077,70.44898,-3.28602,-0.14484,0.72046
632.677,70.50959,-3.28668,-0.14517,0.71998
633.277,70.57006,-3.28602,-0.14302,0.7195
633.877,70.63059,-3.28602,-0.14491,0.71901
634.477,70.69099,-3.28602,-0.14567,0.71853
635.077,70.75162,-3.28602,-0.14487,0.71805
635.677,70.81217,-3.28866,-0.14309,0.71757
636.277,70.87288,-3.28866,-0.14437,0.71709
636.877,70.93357,-3.28734,-0.14114,0.71661
637.477,70.99422,-3.28734,-0.13944,0.71613
638.077,71.05482,-3.28734,-0.14179,0.71565
638.677,71.11554,-3.28865,-0.13859,0.71517
639.277,71.17584,-3.28863,-0.13953,0.71469
639.877,71.23655,-3.28945,-0.14065,0.71421
640.477,71.29715,-3.28931,-0.13903,0.71373
641.077,71.35796,-3.28931,-0.13486,0.71325
641.677,71.41864,-3.28931,-0.1362,0.71277
642.277,71.47922,-3.28964,-0.13572,0.7123
642.877,71.53985,-3.28964,-0.1332,0.71182
643.477,71.60035,-3.28964,-0.13276,0.71134
644.077,71.6609,-3.28966,-0.13401,0.71086
644.677,71.7215,-3.29017,-0.13206,0.71039
645.277,71.78201,-3.29047,-0.13609,0.70991
645.877,71.8425,-3.29097,-0.13362,0.70943
646.477,71.90291,-3.29195,-0.13311,0.70896
647.077,71.96333,-3.29195,-0.13442,0.70848
647.677,72.02389,-3.29063,-0.13312,0.70801
648.277,72.08446,-3.29195,-0.13266,0.70753
648.877,72.14497,-3.29062,-0.13227,0.70706
649.477,72.20563,-3.29277,-0.13473,0.70658
650.077,72.26632,-3.2948,-0.13401,0.70611
650.677,72.32713,-3.29579,-0.13205,0.70563
651.277,72.3878,-3.29579,-0.13182,0.70516
651.877,72.44831,-3.29447,-0.13001,0.70469
652.477,72.50883,-3.29447,-0.13147,0.70421
653.077,72.56939,-3.29447,-0.13048,0.70374
653.677,72.63001,-3.29382,-0.13245,0.70327
654.277,72.69046,-3.29382,-0.13175,0.7028
654.877,72.75095,-3.29516,-0.13141,0.70233
655.477,72.81146,-3.29514,-0.1306,0.70185
656.077,72.8719,-3.29481,-0.12994,0.70138
656.677,72.93237,-3.29481,-0.12933,0.70091
657.277,72.99285,-3.29481,-0.12963,0.70044
657.877,73.05351,-3.29481,-0.13094,0.69997
658.477,73.11417,-3.29613,-0.12912,0.6995
659.077,73.17492,-3.29613,-0.1298,0.69903
659.677,73.23556,-3.29747,-0.13028,0.69856
660.277,73.29611,-3.29744,-0.1301,0.6981
660.877,73.35666,-3.29609,-0.13037,0.69763
661.477,73.41722,-3.29684,-0.13097,0.69716
662.077,73.47776,-3.29678,-0.12984,0.69669
662.677,73.53826,-3.29678,-0.13023,0.69622
663.277,73.59882,-3.29534,-0.1295,0.69576
663.877,73.65924,-3.29678,-0.13178,0.69529
664.477,73.71982,-3.2981,-0.12852,0.69482
665.077,73.7804,-3.2981,-0.13088,0.69436
665.677,73.84104,-3.2981,-0.1317,0.69389
666.277,73.90153,-3.29824,-0.13216,0.69343
666.877,73.96196,-3.29942,-0.13147,0.69296
667.477,74.02266,-3.29942,-0.13537,0.69249
668.077,74.08293,-3.2981,-0.13782,0.69203
668.677,74.1437,-3.2981,-0.1369,0.69157
669.277,74.20406,-3.30008,-0.13611,0.6911
669.877,74.26455,-3.30008,-0.13671,0.69064
670.477,74.32518,-3.30008,-0.13863,0.69017
671.077,74.3858,-3.30008,-0.13859,0.68971
671.677,74.44639,-3.30008,-0.14003,0.68925
672.277,74.50701,-3.30001,-0.13837,0.68879
672.877,74.56755,-3.30073,-0.14019,0.68833
673.477,74.62811,-3.30118,-0.14191,0.68786
674.077,74.68869,-3.30007,-0.14119,0.6874
674.677,74.74938,-3.30007,-0.13934,0.68694
675.277,74.80989,-3.30139,-0.14055,0.68648
675.877,74.87046,-3.30139,-0.14397,0.68602
676.477,74.9309,-3.30139,-0.14329,0.68556
677.077,74.99142,-3.30106,-0.14508,0.6851
677.677,75.05206,-3.3024,-0.1437,0.68464
678.277,75.11285,-3.30238,-0.14447,0.68418
678.877,75.17374,-3.30304,-0.14303,0.68372
679.477,75.23464,-3.30304,-0.14368,0.68327
680.077,75.29542,-3.30304,-0.14464,0.68281
680.677,75.35628,-3.30304,-0.14418,0.68235
681.277,75.41665,-3.3027,-0.14601,0.68189
681.877,75.47744,-3.30271,-0.14623,0.68144
682.477,75.53818,-3.30271,-0.14636,0.68098
683.077,75.59938,-3.30271,-0.14892,0.68052
683.677,75.66048,-3.30403,-0.1461,0.68007
684.277,75.72109,-3.30403,-0.14951,0.67961
684.877,75.78208,-3.30403,-0.15265,0.67916
685.477,75.84305,-3.30403,-0.15448,0.6787
686.077,75.90409,-3.30271,-0.15412,0.67825
686.677,75.96508,-3.30507,-0.15427,0.67779
687.277,76.02592,-3.30502,-0.15524,0.67734
687.877,76.08693,-3.30502,-0.15651,0.67688
688.477,76.14805,-3.30502,-0.15587,0.67643
689.077,76.209,-3.30437,-0.15493,0.67598
689.677,76.26984,-3.30501,-0.15418,0.67553
690.277,76.33087,-3.30503,-0.15532,0.67507
690.877,76.39182,-3.30669,-0.15641,0.67462
691.477,76.45284,-3.30667,-0.15827,0.67417
692.077,76.51356,-3.30596,-0.15938,0.67372
692.677,76.57443,-3.30666,-0.15858,0.67327
693.277,76.63527,-3.30666,-0.15688,0.67282
693.877,76.69612,-3.30568,-0.1577,0.67237
694.477,76.75689,-3.30568,-0.1614,0.67192
695.077,76.81764,-3.30699,-0.1632,0.67147
695.677,76.8784,-3.30568,-0.16343,0.67102
696.277,76.93916,-3.30699,-0.16425,0.67057
696.877,76.99986,-3.30699,-0.16404,0.67012
697.477,77.0605,-3.30698,-0.16326,0.66968
698.077,77.12113,-3.307,-0.16876,0.66923
698.677,77.18186,-3.30831,-0.16876,0.66878
699.277,77.24265,-3.30829,-0.16994,0.66833
699.877,77.30353,-3.30963,-0.17044,0.66789
700.477,77.36438,-3.30831,-0.17344,0.66744
701.077,77.42525,-3.30831,-0.1709,0.667
701.677,77.48618,-3.30963,-0.17382,0.66655
701.777,77.49776,-3.30963,-0.17351,0.66648